timestamp_ms,global_ms,accel_x,accel_y,accel_z,accel_mag,temp_c,voltage,soc,loop_us
2,2135002,17036,-348,1004,17069.11,30.04,-1.00,-1.0,2506
9,2135009,17196,-224,1088,17231.84,29.99,-1.00,-1.0,2473
11,2135011,17052,-548,1128,17098.05,30.08,-1.00,-1.0,2380
14,2135014,16888,-240,1612,16966.46,30.04,-1.00,-1.0,2445
17,2135017,17000,-260,1492,17067.33,30.04,-1.00,-1.0,2380
20,2135020,17356,124,1916,17461.88,29.94,-1.00,-1.0,2369
22,2135022,17004,-416,1912,17116.21,29.99,-1.00,-1.0,2436
25,2135025,17144,412,1576,17221.21,29.99,-1.00,-1.0,2376
28,2135028,16976,48,1600,17051.30,30.08,-1.00,-1.0,2435
31,2135031,16972,716,1640,17066.08,29.99,-1.00,-1.0,2372
35,2135035,17140,268,1312,17192.23,30.04,-1.00,-1.0,2448
38,2135038,16956,-352,1476,17023.76,29.99,-1.00,-1.0,2374
41,2135041,16952,-176,852,16974.31,29.99,-1.00,-1.0,2435
44,2135044,17068,-592,1284,17126.46,29.99,-1.00,-1.0,2375
46,2135046,16908,-744,968,16952.02,30.04,-1.00,-1.0,2374
49,2135049,17044,-868,1000,17095.36,29.94,-1.00,-1.0,2445
52,2135052,17200,-460,1056,17238.53,29.94,-1.00,-1.0,2381
55,2135055,17168,-644,1360,17233.82,29.99,-1.00,-1.0,2442
57,2135057,17124,-248,1392,17182.27,29.94,-1.00,-1.0,2381
62,2135062,16964,-256,1064,16999.26,29.94,-1.00,-1.0,2458
65,2135065,16948,-348,1216,16995.13,30.04,-1.00,-1.0,2367
68,2135068,16920,-624,1140,16969.84,29.99,-1.00,-1.0,2434
71,2135071,17012,-300,1344,17067.64,29.99,-1.00,-1.0,2369
73,2135073,17016,-324,1284,17067.45,29.99,-1.00,-1.0,2436
76,2135076,16940,-488,1140,16985.33,29.99,-1.00,-1.0,2375
79,2135079,17264,-700,1320,17328.53,29.94,-1.00,-1.0,2378
82,2135082,17220,-644,1256,17277.75,29.94,-1.00,-1.0,2444
84,2135084,17260,-692,1392,17329.86,29.94,-1.00,-1.0,2380
89,2135089,17036,-516,1488,17108.64,29.94,-1.00,-1.0,2451
92,2135092,16928,-488,1380,16991.17,29.94,-1.00,-1.0,2382
95,2135095,16880,-100,1268,16927.85,30.08,-1.00,-1.0,2439
98,2135098,16820,-44,1444,16881.93,29.99,-1.00,-1.0,2383
100,2135100,16860,172,1400,16918.90,29.99,-1.00,-1.0,2436
103,2135103,16888,132,1424,16948.44,29.99,-1.00,-1.0,2374
106,2135106,16972,276,1564,17046.14,29.94,-1.00,-1.0,2378
109,2135109,17096,376,1608,17175.57,29.94,-1.00,-1.0,2435
111,2135111,17188,92,1580,17260.71,30.04,-1.00,-1.0,2377
116,2135116,17044,-308,1448,17108.17,29.94,-1.00,-1.0,2450
119,2135119,17024,-308,1292,17075.73,29.94,-1.00,-1.0,2377
122,2135122,16988,-248,1400,17047.39,29.89,-1.00,-1.0,2440
125,2135125,17076,-408,1184,17121.86,29.94,-1.00,-1.0,2377
127,2135127,16928,16,1072,16961.92,29.99,-1.00,-1.0,2443
130,2135130,16960,-284,1132,17000.11,29.99,-1.00,-1.0,2392
133,2135133,17012,-56,972,17039.84,29.89,-1.00,-1.0,2432
136,2135136,17000,-68,1316,17051.00,29.89,-1.00,-1.0,2372
138,2135138,16968,-160,1416,17027.73,29.94,-1.00,-1.0,2370
143,2135143,16908,-212,1408,16967.85,29.99,-1.00,-1.0,2448
146,2135146,17044,-372,1504,17114.27,29.99,-1.00,-1.0,2377
149,2135149,17068,-564,1284,17125.52,30.04,-1.00,-1.0,2435
152,2135152,16984,-864,1304,17055.88,30.04,-1.00,-1.0,2374
154,2135154,17004,-748,1100,17055.95,30.04,-1.00,-1.0,2435
157,2135157,17008,-792,1060,17059.39,29.94,-1.00,-1.0,2374
160,2135160,16988,-840,1016,17039.07,29.99,-1.00,-1.0,2435
163,2135163,17108,-748,1080,17158.37,29.94,-1.00,-1.0,2382
168,2135168,17060,-436,1108,17101.50,29.94,-1.00,-1.0,2456
170,2135170,17156,-376,1332,17211.74,30.04,-1.00,-1.0,2377
173,2135173,17128,-248,1416,17188.22,29.94,-1.00,-1.0,2449
176,2135176,17060,-356,1576,17136.34,29.99,-1.00,-1.0,2380
179,2135179,16960,-332,1592,17037.79,30.08,-1.00,-1.0,2370
181,2135181,16856,-340,1588,16934.05,29.94,-1.00,-1.0,2436
184,2135184,16856,-188,1412,16916.08,29.94,-1.00,-1.0,2376
187,2135187,16956,-172,1356,17011.00,29.94,-1.00,-1.0,2434
190,2135190,17220,-64,1244,17264.99,30.04,-1.00,-1.0,2372
195,2135195,16988,-128,1300,17038.15,29.94,-1.00,-1.0,2447
197,2135197,17100,-188,1300,17150.38,30.04,-1.00,-1.0,2376
200,2135200,17048,-260,1556,17120.84,29.99,-1.00,-1.0,2484
203,2135203,17008,-132,1436,17069.02,29.89,-1.00,-1.0,2374
206,2135206,17080,44,1492,17145.10,30.04,-1.00,-1.0,2440
209,2135209,17084,196,1472,17148.42,29.94,-1.00,-1.0,2370
211,2135211,16948,236,1448,17011.38,29.99,-1.00,-1.0,2437
214,2135214,17020,200,1568,17093.24,30.04,-1.00,-1.0,2372
217,2135217,16972,-4,1536,17041.37,29.99,-1.00,-1.0,2376
222,2135222,16916,-228,1396,16975.04,30.04,-1.00,-1.0,2451
224,2135224,16956,-372,1212,17003.33,29.94,-1.00,-1.0,2381
227,2135227,17016,-408,1308,17071.07,29.94,-1.00,-1.0,2429
230,2135230,17056,-436,1180,17102.33,29.94,-1.00,-1.0,2370
233,2135233,17060,-556,1184,17110.07,30.04,-1.00,-1.0,2443
235,2135235,17116,-360,1164,17159.31,29.94,-1.00,-1.0,2371
238,2135238,17080,-376,1196,17125.95,30.04,-1.00,-1.0,2440
241,2135241,16956,-388,1264,17007.47,29.99,-1.00,-1.0,2370
246,2135246,16944,-424,1124,16986.53,30.04,-1.00,-1.0,2445
248,2135248,16956,-232,960,16984.74,29.85,-1.00,-1.0,2375
251,2135251,16964,-228,1132,17003.26,29.94,-1.00,-1.0,2370
254,2135254,16976,-288,1136,17016.40,29.89,-1.00,-1.0,2448
256,2135256,17052,-260,1152,17092.85,29.99,-1.00,-1.0,2373
259,2135259,17144,-424,1208,17191.74,30.04,-1.00,-1.0,2447
262,2135262,17020,-636,1080,17066.09,29.99,-1.00,-1.0,2387
265,2135265,17084,-484,1232,17135.20,29.94,-1.00,-1.0,2440
268,2135268,17200,-592,1184,17250.87,29.94,-1.00,-1.0,2374
273,2135273,17144,-500,1468,17214.00,29.94,-1.00,-1.0,2452
275,2135275,17076,-568,1524,17153.28,30.04,-1.00,-1.0,2383
278,2135278,16892,-340,1276,16943.54,29.94,-1.00,-1.0,2441
281,2135281,16828,-380,1424,16892.42,30.04,-1.00,-1.0,2373
284,2135284,16932,-308,1280,16983.11,30.08,-1.00,-1.0,2446
286,2135286,16984,-136,1440,17045.48,29.94,-1.00,-1.0,2374
289,2135289,16988,8,1372,17043.31,29.99,-1.00,-1.0,2371
292,2135292,16880,-24,1388,16936.99,29.94,-1.00,-1.0,2444
295,2135295,17036,-280,1464,17101.08,29.99,-1.00,-1.0,2371
299,2135299,17092,-280,1500,17159.98,29.89,-1.00,-1.0,2446
302,2135302,17096,-336,1560,17170.31,29.99,-1.00,-1.0,2373
305,2135305,17104,-432,1368,17164.06,29.94,-1.00,-1.0,2457
308,2135308,17092,-276,1420,17153.11,29.94,-1.00,-1.0,2374
311,2135311,17080,-452,1224,17129.77,29.94,-1.00,-1.0,2445
313,2135313,17024,-280,1364,17080.85,29.94,-1.00,-1.0,2377
316,2135316,16968,-296,1208,17013.52,29.94,-1.00,-1.0,2437
319,2135319,17056,-236,1404,17115.32,29.94,-1.00,-1.0,2372
324,2135324,17032,-152,1296,17081.91,29.94,-1.00,-1.0,2453
327,2135327,17128,-88,1400,17185.35,30.04,-1.00,-1.0,2376
329,2135329,17044,-220,1472,17108.86,30.04,-1.00,-1.0,2371
332,2135332,16932,-296,1332,16986.89,29.89,-1.00,-1.0,2442
335,2135335,16960,-268,1280,17010.34,29.99,-1.00,-1.0,2377
338,2135338,16992,-428,1304,17047.34,29.94,-1.00,-1.0,2439
340,2135340,16940,-384,1404,17002.42,29.94,-1.00,-1.0,2373
343,2135343,17024,-452,1332,17082.01,30.04,-1.00,-1.0,2447
346,2135346,17000,-304,1308,17052.96,29.94,-1.00,-1.0,2378
351,2135351,17100,-292,1288,17150.92,29.94,-1.00,-1.0,2453
354,2135354,17108,-340,1348,17164.39,29.94,-1.00,-1.0,2371
356,2135356,17168,-368,1380,17227.30,30.04,-1.00,-1.0,2453
359,2135359,17004,-304,1364,17061.33,30.04,-1.00,-1.0,2378
362,2135362,16868,-320,1312,16921.97,29.99,-1.00,-1.0,2369
364,2135364,16940,-188,1364,16995.87,30.04,-1.00,-1.0,2442
367,2135367,16932,-144,1352,16986.50,29.99,-1.00,-1.0,2370
370,2135370,17004,-72,1340,17056.87,30.04,-1.00,-1.0,2439
373,2135373,16916,-100,1364,16971.20,29.94,-1.00,-1.0,2373
378,2135378,17048,-256,1240,17094.95,29.94,-1.00,-1.0,2454
380,2135380,17060,-324,1276,17110.72,29.99,-1.00,-1.0,2360
383,2135383,17056,-384,1188,17101.63,30.04,-1.00,-1.0,2446
386,2135386,16996,-336,1352,17053.00,30.04,-1.00,-1.0,2371
389,2135389,17104,-348,1376,17162.79,29.94,-1.00,-1.0,2447
392,2135392,16972,-332,1156,17014.56,30.04,-1.00,-1.0,2376
394,2135394,17000,-344,1148,17042.19,29.89,-1.00,-1.0,2444
397,2135397,17020,-284,1212,17065.46,29.94,-1.00,-1.0,2373
400,2135400,16904,-336,1188,16949.03,29.99,-1.00,-1.0,2370
405,2135405,17000,-208,1368,17056.22,29.99,-1.00,-1.0,2450
407,2135407,17036,-132,1240,17081.58,29.99,-1.00,-1.0,2373
410,2135410,17064,-328,1260,17113.60,29.94,-1.00,-1.0,2444
413,2135413,16988,-252,1352,17043.58,29.94,-1.00,-1.0,2371
416,2135416,16984,-280,1500,17052.41,30.04,-1.00,-1.0,2445
418,2135418,17092,-216,1236,17137.99,30.04,-1.00,-1.0,2372
421,2135421,17020,-308,1356,17076.71,29.99,-1.00,-1.0,2448
424,2135424,17000,-332,1492,17068.58,30.04,-1.00,-1.0,2379
429,2135429,16996,-268,1360,17052.43,29.89,-1.00,-1.0,2446
432,2135432,17008,-272,1416,17069.01,29.99,-1.00,-1.0,2372
434,2135434,17096,-428,1368,17155.98,29.94,-1.00,-1.0,2441
437,2135437,17028,-408,1220,17076.52,29.99,-1.00,-1.0,2372
440,2135440,16992,-296,1436,17055.14,29.94,-1.00,-1.0,2365
443,2135443,16936,-240,1436,16998.46,29.99,-1.00,-1.0,2443
445,2135445,17100,-248,1228,17145.83,29.85,-1.00,-1.0,2380
448,2135448,16968,-252,1368,17024.92,29.99,-1.00,-1.0,2443
451,2135451,17000,-316,1204,17045.51,29.99,-1.00,-1.0,2373
455,2135455,16892,-524,1180,16941.27,29.85,-1.00,-1.0,2448
458,2135458,17140,-308,1076,17176.50,30.04,-1.00,-1.0,2373
461,2135461,17088,-540,1224,17140.29,30.04,-1.00,-1.0,2458
464,2135464,17060,-492,1140,17105.12,29.99,-1.00,-1.0,2378
467,2135467,16972,-312,1316,17025.80,29.99,-1.00,-1.0,2446
469,2135469,17028,-408,1272,17080.32,29.99,-1.00,-1.0,2379
472,2135472,17040,-360,1304,17093.61,29.94,-1.00,-1.0,2436
475,2135475,17000,-348,1420,17062.75,30.08,-1.00,-1.0,2370
477,2135477,17068,-336,1436,17131.60,29.94,-1.00,-1.0,2369
482,2135482,16956,-228,1516,17025.16,29.94,-1.00,-1.0,2447
485,2135485,17060,-148,1304,17110.40,29.94,-1.00,-1.0,2359
488,2135488,16944,-284,1276,16994.35,29.94,-1.00,-1.0,2444
491,2135491,16864,-200,1296,16914.91,29.94,-1.00,-1.0,2378
494,2135494,17064,-276,1268,17113.27,29.99,-1.00,-1.0,2438
496,2135496,16988,-236,1412,17048.21,29.89,-1.00,-1.0,2372
499,2135499,17020,-288,1312,17072.92,29.99,-1.00,-1.0,2449
502,2135502,17140,-228,1344,17194.12,29.99,-1.00,-1.0,2375
507,2135507,16976,-184,1468,17040.35,29.94,-1.00,-1.0,2472
510,2135510,17064,-180,1400,17122.28,29.94,-1.00,-1.0,2375
513,2135513,16976,-148,1428,17036.60,29.99,-1.00,-1.0,2438
515,2135515,16888,-108,1540,16958.41,29.94,-1.00,-1.0,2370
518,2135518,17024,-32,1568,17096.09,29.99,-1.00,-1.0,2357
521,2135521,16936,-60,1408,16994.53,29.94,-1.00,-1.0,2449
523,2135523,16956,-76,1416,17015.19,29.89,-1.00,-1.0,2380
526,2135526,16976,-180,1360,17031.34,29.94,-1.00,-1.0,2438
529,2135529,16948,-212,1248,16995.21,29.94,-1.00,-1.0,2370
534,2135534,17052,-284,1412,17112.72,30.04,-1.00,-1.0,2453
537,2135537,16960,-440,1428,17025.70,29.94,-1.00,-1.0,2371
539,2135539,17072,-468,1240,17123.37,30.04,-1.00,-1.0,2440
542,2135542,16976,-428,1160,17020.97,29.94,-1.00,-1.0,2371
545,2135545,17012,-392,1296,17065.80,29.94,-1.00,-1.0,2439
548,2135548,17080,-352,1296,17132.71,30.04,-1.00,-1.0,2377
550,2135550,16976,-464,1280,17030.51,29.99,-1.00,-1.0,2380
553,2135553,16980,-380,1372,17039.58,30.04,-1.00,-1.0,2446
556,2135556,16972,-312,1352,17028.62,29.94,-1.00,-1.0,2371
561,2135561,17104,-360,1340,17160.19,29.89,-1.00,-1.0,2453
564,2135564,17024,-368,1300,17077.53,29.99,-1.00,-1.0,2381
567,2135567,17044,-380,1180,17089.02,29.94,-1.00,-1.0,2451
569,2135569,16992,-440,1208,17040.57,29.94,-1.00,-1.0,2377
572,2135572,17024,-396,1304,17078.46,29.85,-1.00,-1.0,2440
575,2135575,17036,-420,1384,17097.29,29.94,-1.00,-1.0,2373
578,2135578,16976,-316,1312,17029.56,29.89,-1.00,-1.0,2443
580,2135580,16900,-236,1396,16959.20,29.94,-1.00,-1.0,2371
585,2135585,16964,-232,1388,17022.27,29.94,-1.00,-1.0,2454
588,2135588,17064,-176,1276,17112.55,29.94,-1.00,-1.0,2372
591,2135591,17000,-168,1292,17049.85,29.99,-1.00,-1.0,2376
594,2135594,17040,-44,1416,17098.79,29.89,-1.00,-1.0,2439
596,2135596,17084,-164,1448,17146.04,30.08,-1.00,-1.0,2371
599,2135599,17084,-80,1452,17145.78,29.94,-1.00,-1.0,2448
602,2135602,17092,-140,1476,17156.18,29.94,-1.00,-1.0,2372
605,2135605,17068,-220,1288,17117.94,29.94,-1.00,-1.0,2448
607,2135607,16952,-212,1400,17011.03,29.94,-1.00,-1.0,2380
612,2135612,16980,-256,1372,17037.26,30.04,-1.00,-1.0,2460
615,2135615,16904,-188,1424,16964.91,30.13,-1.00,-1.0,2388
618,2135618,17008,-112,1400,17065.89,30.04,-1.00,-1.0,2438
621,2135621,17008,-120,1344,17061.44,30.04,-1.00,-1.0,2367
623,2135623,17108,-96,1424,17167.43,29.99,-1.00,-1.0,2440
626,2135626,17140,-256,1348,17194.83,29.99,-1.00,-1.0,2372
629,2135629,17024,-176,1460,17087.40,29.89,-1.00,-1.0,2379
632,2135632,17036,-212,1364,17091.83,30.04,-1.00,-1.0,2447
634,2135634,16936,-220,1464,17000.58,29.94,-1.00,-1.0,2372
639,2135639,17012,-352,1328,17067.38,30.04,-1.00,-1.0,2459
642,2135642,16984,-400,1432,17048.96,30.04,-1.00,-1.0,2373
645,2135645,16944,-380,1352,17002.10,29.89,-1.00,-1.0,2438
647,2135647,17092,-472,1320,17149.39,29.89,-1.00,-1.0,2373
650,2135650,17048,-352,1316,17102.34,29.99,-1.00,-1.0,2439
653,2135653,17052,-404,1136,17094.57,29.99,-1.00,-1.0,2370
656,2135656,17084,-348,1220,17131.04,30.04,-1.00,-1.0,2447
658,2135658,17116,-392,1252,17166.21,29.99,-1.00,-1.0,2370
663,2135663,17060,-348,1200,17105.69,29.99,-1.00,-1.0,2453
666,2135666,16940,-256,1256,16988.43,30.04,-1.00,-1.0,2373
668,2135668,17000,-280,1236,17047.17,29.99,-1.00,-1.0,2370
671,2135671,17100,-176,1328,17152.39,30.04,-1.00,-1.0,2452
674,2135674,17024,-236,1312,17076.11,29.94,-1.00,-1.0,2376
677,2135677,17040,-316,1224,17086.83,29.94,-1.00,-1.0,2443
680,2135680,17000,-144,1364,17055.24,30.04,-1.00,-1.0,2382
682,2135682,17192,-320,1260,17241.08,30.08,-1.00,-1.0,2438
685,2135685,16960,-272,1236,17007.15,29.89,-1.00,-1.0,2370
690,2135690,17032,-252,1208,17076.64,30.04,-1.00,-1.0,2445
693,2135693,32767,-16240,-21044,42193.17,29.94,-1.00,-1.0,2375
696,2135696,10284,-1560,12404,16188.07,29.99,-1.00,-1.0,2437
698,2135698,15116,6920,-2804,16859.49,29.89,-1.00,-1.0,2374
701,2135701,26308,11784,12660,31484.11,29.89,-1.00,-1.0,2440
704,2135704,13372,5912,13848,20137.76,29.99,-1.00,-1.0,2374
707,2135707,15612,-484,4304,16201.64,29.94,-1.00,-1.0,2440
709,2135709,32492,14208,9188,36633.55,29.99,-1.00,-1.0,2359
712,2135712,13632,-6668,7128,16766.10,29.94,-1.00,-1.0,2376
717,2135717,22672,760,552,22691.45,29.94,-1.00,-1.0,2452
720,2135720,17852,-6636,4928,19672.71,30.04,-1.00,-1.0,2384
723,2135723,13880,7496,156,15775.57,29.99,-1.00,-1.0,2449
725,2135725,18624,-10064,-364,21172.39,30.08,-1.00,-1.0,2379
728,2135728,26548,15208,4540,30930.42,29.99,-1.00,-1.0,2440
731,2135731,18592,-4276,1892,19170.97,29.89,-1.00,-1.0,2373
734,2135734,9792,4136,580,10645.48,30.04,-1.00,-1.0,2443
736,2135736,20924,2892,244,21124.32,30.08,-1.00,-1.0,2370
741,2135741,16156,3948,3108,16919.30,29.99,-1.00,-1.0,2439
744,2135744,14780,-4220,1564,15450.01,29.99,-1.00,-1.0,2372
747,2135747,15524,-184,632,15537.95,29.94,-1.00,-1.0,2441
750,2135750,16280,936,1008,16338.01,29.99,-1.00,-1.0,2371
752,2135752,17928,-5604,-84,18783.64,29.94,-1.00,-1.0,2372
755,2135755,17516,256,496,17524.89,29.89,-1.00,-1.0,2453
758,2135758,19132,-532,2488,19300.43,29.94,-1.00,-1.0,2373
761,2135761,17384,-1208,-1008,17455.05,29.99,-1.00,-1.0,2447
763,2135763,16492,-60,1516,16561.64,29.99,-1.00,-1.0,2379
768,2135768,16068,1716,896,16184.19,29.99,-1.00,-1.0,2463
771,2135771,16208,-1208,1832,16355.88,29.99,-1.00,-1.0,2380
774,2135774,16652,304,1536,16725.46,29.94,-1.00,-1.0,2437
777,2135777,19296,512,2312,19440.76,29.99,-1.00,-1.0,2369
779,2135779,16360,1472,808,16445.95,30.04,-1.00,-1.0,2441
782,2135782,16364,-364,1504,16437.00,30.04,-1.00,-1.0,2373
785,2135785,16448,-664,568,16471.19,30.04,-1.00,-1.0,2366
788,2135788,17336,-328,1340,17390.80,29.99,-1.00,-1.0,2447
790,2135790,17516,-496,1152,17560.85,29.99,-1.00,-1.0,2375
795,2135795,16364,-744,932,16407.40,29.89,-1.00,-1.0,2454
798,2135798,17720,-500,2060,17846.34,30.08,-1.00,-1.0,2378
801,2135801,18044,-744,1772,18146.06,29.99,-1.00,-1.0,2441
804,2135804,17996,152,1124,18031.71,29.99,-1.00,-1.0,2381
806,2135806,16024,28,1404,16085.42,30.04,-1.00,-1.0,2439
809,2135809,16356,432,1908,16472.58,30.08,-1.00,-1.0,2371
812,2135812,16644,652,1384,16714.16,30.04,-1.00,-1.0,2439
815,2135815,16468,764,1320,16538.47,29.94,-1.00,-1.0,2370
817,2135817,17088,40,1432,17147.94,30.04,-1.00,-1.0,2372
822,2135822,16696,300,1104,16735.15,29.94,-1.00,-1.0,2454
825,2135825,17040,-596,1424,17109.78,29.94,-1.00,-1.0,2374
828,2135828,17380,-532,1788,17479.83,29.99,-1.00,-1.0,2442
830,2135830,17008,-84,1052,17040.71,29.99,-1.00,-1.0,2370
833,2135833,17000,-1652,852,17101.32,29.99,-1.00,-1.0,2447
836,2135836,16500,-808,1244,16566.54,29.99,-1.00,-1.0,2389
839,2135839,17028,-184,1468,17092.15,30.04,-1.00,-1.0,2438
842,2135842,17104,-728,1388,17175.66,30.08,-1.00,-1.0,2372
846,2135846,17124,280,1120,17162.87,30.04,-1.00,-1.0,2451
849,2135849,17000,-12,1368,17054.96,29.94,-1.00,-1.0,2372
852,2135852,17396,300,1644,17476.09,29.99,-1.00,-1.0,2438
855,2135855,16652,-284,1528,16724.37,30.04,-1.00,-1.0,2378
857,2135857,16852,-416,1088,16892.21,29.99,-1.00,-1.0,2378
860,2135860,17228,336,1624,17307.64,29.94,-1.00,-1.0,2446
863,2135863,16864,-1028,860,16917.18,29.94,-1.00,-1.0,2373
866,2135866,17304,64,1228,17347.64,29.94,-1.00,-1.0,2439
868,2135868,16976,-360,932,17005.38,29.94,-1.00,-1.0,2373
873,2135873,16804,24,1036,16835.92,29.94,-1.00,-1.0,2472
876,2135876,17188,-1168,1020,17257.81,29.94,-1.00,-1.0,2375
879,2135879,17056,-300,1144,17096.96,29.99,-1.00,-1.0,2444
881,2135881,17032,-736,1156,17087.04,29.99,-1.00,-1.0,2370
884,2135884,16880,-836,1224,16944.96,29.94,-1.00,-1.0,2449
887,2135887,16860,-124,1592,16935.45,29.94,-1.00,-1.0,2388
890,2135890,17100,-232,1440,17162.09,30.04,-1.00,-1.0,2371
892,2135892,17020,100,1440,17081.10,29.99,-1.00,-1.0,2423
895,2135895,16852,-552,1176,16902.00,29.85,-1.00,-1.0,2371
900,2135900,17028,-184,1316,17079.77,30.04,-1.00,-1.0,2452
903,2135903,16988,-332,1200,17033.57,30.04,-1.00,-1.0,2374
906,2135906,16944,-232,1328,16997.54,29.99,-1.00,-1.0,2446
908,2135908,16896,-480,952,16929.61,29.99,-1.00,-1.0,2373
911,2135911,17032,-232,1220,17077.21,29.99,-1.00,-1.0,2439
914,2135914,16988,-200,1640,17068.15,29.99,-1.00,-1.0,2372
917,2135917,17096,-396,1524,17168.36,30.04,-1.00,-1.0,2446
920,2135920,17068,-140,1592,17142.66,30.08,-1.00,-1.0,2374
925,2135925,17080,-80,1736,17168.18,29.99,-1.00,-1.0,2451
927,2135927,17016,0,1488,17080.94,29.99,-1.00,-1.0,2377
930,2135930,16992,80,1440,17053.10,29.85,-1.00,-1.0,2372
933,2135933,16964,224,1556,17036.68,29.94,-1.00,-1.0,2437
935,2135935,16952,100,1216,16995.85,30.08,-1.00,-1.0,2373
938,2135938,16912,-64,1524,16980.65,29.89,-1.00,-1.0,2437
941,2135941,16912,-180,1304,16963.15,29.99,-1.00,-1.0,2373
944,2135944,16864,-532,908,16896.80,30.08,-1.00,-1.0,2441
946,2135946,17020,-412,1260,17071.55,29.89,-1.00,-1.0,2373
951,2135951,17108,-568,1024,17148.03,29.99,-1.00,-1.0,2452
954,2135954,17228,-444,1232,17277.70,29.89,-1.00,-1.0,2374
957,2135957,17288,-500,1152,17333.55,30.04,-1.00,-1.0,2378
960,2135960,17072,-380,1140,17114.24,29.94,-1.00,-1.0,2444
962,2135962,16916,-680,1008,16959.64,29.94,-1.00,-1.0,2379
965,2135965,17024,-304,936,17052.42,29.99,-1.00,-1.0,2439
968,2135968,16956,-472,1212,17005.81,29.89,-1.00,-1.0,2373
971,2135971,16956,-368,1296,17009.44,29.99,-1.00,-1.0,2442
973,2135973,17052,-136,1152,17091.41,30.08,-1.00,-1.0,2372
979,2135979,17080,-456,1208,17128.74,30.04,-1.00,-1.0,2456
981,2135981,17144,-484,1352,17204.04,29.89,-1.00,-1.0,2377
984,2135984,17228,-628,1292,17287.79,29.99,-1.00,-1.0,2438
987,2135987,17244,-576,1444,17313.94,29.99,-1.00,-1.0,2373
990,2135990,17036,-520,1328,17095.59,30.04,-1.00,-1.0,2445
992,2135992,16976,-360,1468,17043.16,29.99,-1.00,-1.0,2372
995,2135995,16932,-432,1436,16998.28,29.94,-1.00,-1.0,2377
998,2135998,16760,-104,1512,16828.38,29.99,-1.00,-1.0,2443
1001,2136001,16748,-164,1520,16817.63,29.94,-1.00,-1.0,2381
1006,2136006,17048,44,1560,17119.28,30.13,-1.00,-1.0,2451
1008,2136008,17036,80,1712,17121.99,30.04,-1.00,-1.0,2380
1011,2136011,17100,108,1656,17180.34,29.89,-1.00,-1.0,2444
1014,2136014,17252,20,1424,17310.68,29.99,-1.00,-1.0,2360
1017,2136017,17072,-60,1652,17151.85,29.89,-1.00,-1.0,2442
1019,2136019,17144,-380,1288,17196.51,29.99,-1.00,-1.0,2360
1022,2136022,16948,-308,1352,17004.63,30.08,-1.00,-1.0,2425
1025,2136025,16912,-360,1296,16965.40,29.99,-1.00,-1.0,2373
1030,2136030,17028,-136,1268,17075.69,29.99,-1.00,-1.0,2455
1033,2136033,16940,-348,1100,16979.24,30.04,-1.00,-1.0,2375
1035,2136035,16968,-88,1156,17007.56,30.08,-1.00,-1.0,2357
1038,2136038,17024,-236,1212,17068.72,29.94,-1.00,-1.0,2437
1041,2136041,16960,-104,1288,17009.15,29.94,-1.00,-1.0,2377
1044,2136044,16888,-276,1416,16949.51,29.94,-1.00,-1.0,2440
1046,2136046,17036,-368,1540,17109.42,30.04,-1.00,-1.0,2372
1049,2136049,17036,-412,1380,17096.77,30.08,-1.00,-1.0,2447
1052,2136052,17044,-600,1108,17090.51,30.04,-1.00,-1.0,2373
1057,2136057,16960,-644,968,16999.80,29.99,-1.00,-1.0,2454
1059,2136059,17084,-668,1060,17129.88,30.08,-1.00,-1.0,2379
1062,2136062,16972,-632,956,17010.65,30.04,-1.00,-1.0,2440
1065,2136065,17036,-656,980,17076.77,29.99,-1.00,-1.0,2371
1068,2136068,17012,-448,1136,17055.77,30.04,-1.00,-1.0,2445
1070,2136070,17088,-484,1216,17138.05,29.94,-1.00,-1.0,2371
1073,2136073,17048,-396,1396,17109.64,30.04,-1.00,-1.0,2440
1076,2136076,17116,-140,1452,17178.05,30.04,-1.00,-1.0,2372
1079,2136079,17112,-192,1492,17177.99,30.08,-1.00,-1.0,2379
1083,2136083,16960,-160,1688,17044.54,29.94,-1.00,-1.0,2455
1086,2136086,17016,-132,1628,17094.21,29.94,-1.00,-1.0,2373
1089,2136089,16876,-4,1520,16944.31,29.99,-1.00,-1.0,2439
1092,2136092,17112,-16,1288,17160.41,29.94,-1.00,-1.0,2380
1094,2136094,17040,20,1296,17089.22,29.99,-1.00,-1.0,2447
1097,2136097,17052,-84,1364,17106.67,29.99,-1.00,-1.0,2376
1100,2136100,17096,-192,1372,17152.04,29.85,-1.00,-1.0,2437
1103,2136103,16996,-140,1304,17046.53,29.99,-1.00,-1.0,2367
1108,2136108,17052,92,1472,17115.66,29.99,-1.00,-1.0,2456
1110,2136110,17000,36,1500,17066.09,29.99,-1.00,-1.0,2381
1113,2136113,16964,4,1468,17027.40,30.04,-1.00,-1.0,2439
1116,2136116,16976,20,1396,17033.31,30.04,-1.00,-1.0,2373
1118,2136118,16940,-40,1548,17010.63,29.94,-1.00,-1.0,2370
1121,2136121,16960,-156,1392,17017.74,29.99,-1.00,-1.0,2453
1124,2136124,17072,-240,1196,17115.53,29.99,-1.00,-1.0,2379
1127,2136127,16944,-296,1220,16990.44,29.89,-1.00,-1.0,2440
1130,2136130,17000,-492,1420,17066.30,29.99,-1.00,-1.0,2376
1135,2136135,17028,-608,1120,17075.62,29.99,-1.00,-1.0,2452
1137,2136137,17156,-504,1408,17221.06,30.08,-1.00,-1.0,2386
1140,2136140,17036,-596,1224,17090.31,30.04,-1.00,-1.0,2439
1143,2136143,16984,-512,1260,17038.37,30.04,-1.00,-1.0,2375
1146,2136146,16932,-420,1196,16979.38,29.94,-1.00,-1.0,2438
1148,2136148,17000,-368,1208,17046.84,30.04,-1.00,-1.0,2372
1151,2136151,16976,-260,1240,17023.21,29.99,-1.00,-1.0,2438
1154,2136154,16968,-124,1176,17009.16,29.94,-1.00,-1.0,2373
1159,2136159,17080,-308,1128,17119.98,29.94,-1.00,-1.0,2452
1162,2136162,17028,-464,1272,17081.75,30.13,-1.00,-1.0,2374
1164,2136164,17020,-376,1232,17068.67,29.99,-1.00,-1.0,2371
1167,2136167,17052,-576,1388,17118.09,29.85,-1.00,-1.0,2452
1170,2136170,17136,-488,1304,17192.47,30.08,-1.00,-1.0,2378
1173,2136173,17152,-420,1380,17212.55,30.04,-1.00,-1.0,2450
1175,2136175,17024,-392,1400,17085.97,30.04,-1.00,-1.0,2380
1178,2136178,17000,-480,1236,17051.63,30.04,-1.00,-1.0,2439
1181,2136181,17008,-280,1340,17063.00,30.04,-1.00,-1.0,2370
1186,2136186,17000,-164,1400,17058.34,29.94,-1.00,-1.0,2455
1189,2136189,16976,-28,1276,17023.91,29.94,-1.00,-1.0,2374
1191,2136191,17088,-160,1448,17149.99,30.04,-1.00,-1.0,2439
1194,2136194,17044,-148,1416,17103.36,29.94,-1.00,-1.0,2372
1197,2136197,17128,-280,1500,17195.84,29.99,-1.00,-1.0,2439
1200,2136200,16972,-292,1624,17052.02,29.99,-1.00,-1.0,2370
1203,2136203,17036,-312,1492,17104.05,30.08,-1.00,-1.0,2439
1205,2136205,17040,-468,1292,17095.32,30.08,-1.00,-1.0,2373
1210,2136210,17088,-376,1356,17145.84,29.99,-1.00,-1.0,2453
1213,2136213,17012,-364,1124,17052.98,29.99,-1.00,-1.0,2373
1216,2136216,17016,-360,1344,17072.79,29.94,-1.00,-1.0,2376
1218,2136218,16964,-384,1256,17014.77,29.94,-1.00,-1.0,2434
1221,2136221,17020,-320,1252,17068.99,30.04,-1.00,-1.0,2374
1224,2136224,17068,-276,1164,17109.87,29.99,-1.00,-1.0,2438
1227,2136227,17132,-292,1428,17193.89,29.94,-1.00,-1.0,2370
1229,2136229,17048,-236,1336,17101.90,29.99,-1.00,-1.0,2440
1232,2136232,16876,-220,1416,16936.73,29.99,-1.00,-1.0,2372
1237,2136237,16924,-260,1368,16981.19,29.99,-1.00,-1.0,2452
1240,2136240,16920,-312,1316,16973.97,30.04,-1.00,-1.0,2361
1243,2136243,16880,-224,1180,16922.68,29.99,-1.00,-1.0,2443
1245,2136245,17132,-312,1228,17178.79,30.04,-1.00,-1.0,2371
1248,2136248,17076,-272,1460,17140.46,29.99,-1.00,-1.0,2442
1251,2136251,17156,-312,1388,17214.88,29.99,-1.00,-1.0,2372
1254,2136254,17032,-308,1276,17082.51,29.94,-1.00,-1.0,2444
1257,2136257,17000,-332,1296,17052.56,29.99,-1.00,-1.0,2371
1259,2136259,17004,-300,1384,17062.87,30.04,-1.00,-1.0,2359
1264,2136264,16952,-216,1316,17004.38,29.99,-1.00,-1.0,2451
1267,2136267,16956,-196,1412,17015.82,29.89,-1.00,-1.0,2374
1269,2136269,17000,-300,1500,17068.69,29.89,-1.00,-1.0,2443
1272,2136272,16944,-188,1456,17007.48,30.08,-1.00,-1.0,2371
1275,2136275,16984,-260,1328,17037.82,30.04,-1.00,-1.0,2440
1278,2136278,17076,-176,1208,17119.58,30.04,-1.00,-1.0,2378
1281,2136281,17036,-308,1452,17100.54,29.94,-1.00,-1.0,2451
1283,2136283,17060,-252,1364,17116.30,30.04,-1.00,-1.0,2381
1288,2136288,17012,-332,1276,17063.02,30.04,-1.00,-1.0,2454
1291,2136291,16984,-444,1132,17027.47,29.99,-1.00,-1.0,2381
1294,2136294,17060,-356,1380,17119.43,29.94,-1.00,-1.0,2447
1296,2136296,16896,-468,1284,16951.18,30.13,-1.00,-1.0,2372
1299,2136299,17024,-288,1192,17068.11,29.89,-1.00,-1.0,2448
1302,2136302,17016,-188,1192,17058.74,29.94,-1.00,-1.0,2371
1305,2136305,16908,-248,1324,16961.57,29.99,-1.00,-1.0,2439
1307,2136307,17144,-176,1396,17201.64,29.94,-1.00,-1.0,2373
1310,2136310,16956,-196,1180,16998.14,29.99,-1.00,-1.0,2371
1315,2136315,17088,-188,1380,17144.66,29.99,-1.00,-1.0,2451
1318,2136318,17144,-244,1360,17199.59,30.08,-1.00,-1.0,2372
1321,2136321,17044,-312,1356,17100.70,30.04,-1.00,-1.0,2437
1323,2136323,17008,-372,1528,17080.55,30.04,-1.00,-1.0,2374
1326,2136326,16984,-288,1340,17039.21,29.94,-1.00,-1.0,2454
1329,2136329,16984,-268,1356,17040.15,29.94,-1.00,-1.0,2379
1332,2136332,16900,-280,1464,16965.60,29.99,-1.00,-1.0,2446
1334,2136334,16936,-292,1316,16989.56,30.04,-1.00,-1.0,2378
1339,2136339,16972,-368,1384,17032.31,30.04,-1.00,-1.0,2463
1342,2136342,17004,-284,1444,17067.57,29.89,-1.00,-1.0,2376
1345,2136345,16956,-288,1504,17025.01,30.08,-1.00,-1.0,2425
1348,2136348,17000,-212,1396,17058.54,29.99,-1.00,-1.0,2367
1350,2136350,17028,-252,1372,17085.04,29.94,-1.00,-1.0,2441
1353,2136353,17080,-320,1236,17127.65,29.99,-1.00,-1.0,2371
1356,2136356,17120,-436,1460,17187.67,30.04,-1.00,-1.0,2377
1359,2136359,17052,-608,1180,17103.59,30.08,-1.00,-1.0,2449
1361,2136361,16996,-536,1304,17054.38,29.94,-1.00,-1.0,2372
1366,2136366,17096,-492,1152,17141.83,29.99,-1.00,-1.0,2474
1369,2136369,17044,-412,1288,17097.56,30.08,-1.00,-1.0,2375
1372,2136372,17144,-476,1248,17195.95,30.13,-1.00,-1.0,2441
1375,2136375,17072,-408,1148,17115.42,30.04,-1.00,-1.0,2378
1378,2136378,17104,-524,1368,17166.62,29.99,-1.00,-1.0,2443
1380,2136380,17000,-332,1244,17048.69,30.04,-1.00,-1.0,2378
1383,2136383,17028,-176,1336,17081.24,29.99,-1.00,-1.0,2449
1386,2136386,17068,-216,1252,17115.22,29.99,-1.00,-1.0,2374
1391,2136391,16960,-164,1268,17008.12,30.13,-1.00,-1.0,2453
1394,2136394,17104,-164,1392,17161.33,29.89,-1.00,-1.0,2437
1397,2136397,17096,-256,1344,17150.66,29.99,-1.00,-1.0,2433
1400,2136400,17128,-248,1360,17183.70,30.04,-1.00,-1.0,2390
1402,2136402,17032,-276,1328,17085.92,29.99,-1.00,-1.0,2433
1405,2136405,16992,-284,1348,17047.75,29.99,-1.00,-1.0,2403
1408,2136408,17088,-220,1436,17149.64,29.94,-1.00,-1.0,2371
1410,2136410,17084,-284,1288,17134.84,29.94,-1.00,-1.0,2420
1413,2136413,17080,-104,1372,17135.33,30.04,-1.00,-1.0,2387
1418,2136418,16984,-84,1328,17036.05,29.94,-1.00,-1.0,2441
1421,2136421,16984,-100,1416,17043.22,30.04,-1.00,-1.0,2379
1424,2136424,16884,-12,1464,16947.36,29.99,-1.00,-1.0,2443
1426,2136426,17088,-164,1424,17148.02,29.94,-1.00,-1.0,2373
1429,2136429,17040,-204,1384,17097.33,30.08,-1.00,-1.0,2453
1432,2136432,17088,-168,1264,17135.51,29.89,-1.00,-1.0,2379
1435,2136435,17164,-292,1404,17223.80,29.99,-1.00,-1.0,2427
1438,2136438,17052,-268,1364,17108.57,29.99,-1.00,-1.0,2376
1443,2136443,17128,-448,1284,17181.90,30.08,-1.00,-1.0,2442
1445,2136445,17008,-464,1172,17054.65,29.94,-1.00,-1.0,2378
1448,2136448,17060,-372,1248,17109.63,29.89,-1.00,-1.0,2456
1451,2136451,17036,-440,1184,17082.76,29.99,-1.00,-1.0,2358
1453,2136453,16916,-352,1424,16979.48,29.94,-1.00,-1.0,2371
1456,2136456,16964,-312,1436,17027.53,29.94,-1.00,-1.0,2439
1459,2136459,17028,-368,1376,17087.47,29.94,-1.00,-1.0,2370
1462,2136462,16976,-328,1392,17036.13,29.99,-1.00,-1.0,2441
1464,2136464,17184,-380,1320,17238.81,29.94,-1.00,-1.0,2360
1469,2136469,17000,-356,1312,17054.27,29.99,-1.00,-1.0,2445
1472,2136472,17088,-384,1284,17140.47,30.08,-1.00,-1.0,2379
1475,2136475,17028,-428,1240,17078.45,30.04,-1.00,-1.0,2443
1478,2136478,17088,-380,1336,17144.36,29.99,-1.00,-1.0,2377
1480,2136480,17016,-260,1288,17066.66,30.04,-1.00,-1.0,2429
1483,2136483,16948,-268,1380,17006.20,30.04,-1.00,-1.0,2375
1486,2136486,17032,-204,1396,17090.33,30.04,-1.00,-1.0,2438
1489,2136489,16964,-276,1324,17017.83,29.94,-1.00,-1.0,2367
1493,2136493,16944,-248,1296,16995.30,29.99,-1.00,-1.0,2444
1496,2136496,17156,-184,1428,17216.31,30.08,-1.00,-1.0,2386
1499,2136499,17008,-184,1460,17071.54,29.94,-1.00,-1.0,2447
1502,2136502,17052,-236,1368,17108.41,30.04,-1.00,-1.0,2373
1504,2136504,17072,-220,1324,17124.68,29.94,-1.00,-1.0,2371
1507,2136507,16980,-280,1364,17037.00,29.89,-1.00,-1.0,2439
1510,2136510,17000,-256,1244,17047.38,29.99,-1.00,-1.0,2378
1513,2136513,16984,-280,1284,17034.77,29.99,-1.00,-1.0,2439
1515,2136515,17020,-152,1244,17066.08,29.99,-1.00,-1.0,2374
1520,2136520,16964,-284,1364,17021.12,29.99,-1.00,-1.0,2442
1523,2136523,17020,-324,1304,17072.96,29.89,-1.00,-1.0,2379
1526,2136526,17044,-260,1332,17097.95,29.94,-1.00,-1.0,2446
1528,2136528,17064,-396,1364,17123.01,29.99,-1.00,-1.0,2369
1531,2136531,17000,-232,1468,17064.84,29.94,-1.00,-1.0,2448
1534,2136534,17096,-244,1388,17153.99,29.94,-1.00,-1.0,2388
1537,2136537,17008,-276,1384,17066.45,30.04,-1.00,-1.0,2437
1540,2136540,17020,-352,1356,17077.56,29.94,-1.00,-1.0,2371
1545,2136545,16984,-412,1372,17044.31,30.04,-1.00,-1.0,2445
1547,2136547,17092,-384,1432,17156.18,29.94,-1.00,-1.0,2390
1550,2136550,16944,-368,1372,17003.44,30.08,-1.00,-1.0,2370
1553,2136553,17044,-352,1536,17116.69,29.89,-1.00,-1.0,2441
1555,2136555,17112,-448,1244,17163.01,29.99,-1.00,-1.0,2359
1558,2136558,17012,-252,1344,17066.87,30.04,-1.00,-1.0,2442
1561,2136561,17044,-340,1280,17095.38,29.99,-1.00,-1.0,2374
1564,2136564,17004,-388,1336,17060.82,30.04,-1.00,-1.0,2445
1567,2136567,16972,-304,1176,17015.41,30.04,-1.00,-1.0,2371
1571,2136571,17068,-144,1408,17126.58,30.08,-1.00,-1.0,2440
1574,2136574,16960,-280,1208,17005.27,29.99,-1.00,-1.0,2375
1577,2136577,17044,-232,1280,17093.57,30.04,-1.00,-1.0,2462
1580,2136580,17000,-228,1316,17052.38,29.94,-1.00,-1.0,2379
1583,2136583,17052,-200,1424,17112.52,29.89,-1.00,-1.0,2447
1585,2136585,16988,-388,1208,17035.31,29.94,-1.00,-1.0,2378
1588,2136588,17064,-320,1352,17120.47,29.99,-1.00,-1.0,2426
1591,2136591,16936,-272,1256,16984.69,29.99,-1.00,-1.0,2371
1596,2136596,17000,-212,1224,17045.33,29.99,-1.00,-1.0,2447
1599,2136599,16984,-264,1336,17038.51,30.04,-1.00,-1.0,2383
1601,2136601,17048,-276,1340,17102.81,29.99,-1.00,-1.0,2371
1604,2136604,17012,-180,1300,17062.55,29.94,-1.00,-1.0,2441
1607,2136607,16968,-220,1316,17020.38,29.94,-1.00,-1.0,2377
1610,2136610,17060,-264,1488,17126.80,29.94,-1.00,-1.0,2447
1612,2136612,17028,-196,1408,17087.24,29.94,-1.00,-1.0,2379
1615,2136615,16992,-208,1276,17041.11,30.04,-1.00,-1.0,2447
1618,2136618,17036,-232,1292,17086.50,29.94,-1.00,-1.0,2371
1623,2136623,17080,-328,1416,17141.73,29.94,-1.00,-1.0,2451
1626,2136626,17036,-224,1272,17084.89,29.94,-1.00,-1.0,2378
1628,2136628,16972,-228,1216,17017.03,29.99,-1.00,-1.0,2444
1631,2136631,17056,-388,1364,17114.85,30.04,-1.00,-1.0,2379
1634,2136634,17048,-268,1332,17102.06,29.99,-1.00,-1.0,2439
1637,2136637,17020,-256,1400,17079.40,29.99,-1.00,-1.0,2373
1639,2136639,17152,-228,1336,17205.46,30.04,-1.00,-1.0,2440
1642,2136642,17032,-284,1296,17083.60,30.04,-1.00,-1.0,2371
1645,2136645,16952,-256,1296,17003.39,29.94,-1.00,-1.0,2371
1650,2136650,17124,-284,1260,17172.64,29.94,-1.00,-1.0,2450
1652,2136652,29524,-16440,-14064,36602.41,30.04,-1.00,-1.0,2375
1655,2136655,15860,4560,2756,16731.07,30.04,-1.00,-1.0,2433
1658,2136658,7232,-21012,-13576,26040.62,29.99,-1.00,-1.0,2358
1661,2136661,16148,7984,3392,18330.52,30.04,-1.00,-1.0,2441
1664,2136664,12436,-2364,9008,15536.62,29.94,-1.00,-1.0,2378
1667,2136667,24264,8824,9016,27347.63,29.94,-1.00,-1.0,2438
1669,2136669,6316,-3832,-12340,14382.34,30.04,-1.00,-1.0,2373
1674,2136674,12596,-9684,2152,16033.41,30.08,-1.00,-1.0,2456
1677,2136677,17816,1696,1892,17996.28,29.99,-1.00,-1.0,2377
1680,2136680,18756,-5300,3772,19852.09,29.94,-1.00,-1.0,2451
1682,2136682,10012,2876,68,10417.11,29.94,-1.00,-1.0,2370
1685,2136685,13756,-4916,-412,14613.84,29.99,-1.00,-1.0,2457
1688,2136688,8376,-5044,2256,10034.38,29.94,-1.00,-1.0,2376
1691,2136691,20364,-2976,2584,20741.89,29.89,-1.00,-1.0,2443
1694,2136694,13692,8172,2260,16104.66,29.99,-1.00,-1.0,2374
1698,2136698,20352,-844,2808,20562.13,29.99,-1.00,-1.0,2455
1701,2136701,16680,2400,-2196,16994.26,29.94,-1.00,-1.0,2381
1704,2136704,17060,-4464,3288,17938.28,29.99,-1.00,-1.0,2370
1706,2136706,15780,-112,-604,15791.95,30.04,-1.00,-1.0,2428
1709,2136709,15132,-1680,976,15256.22,29.94,-1.00,-1.0,2369
1712,2136712,16788,-700,-1260,16849.76,29.94,-1.00,-1.0,2443
1715,2136715,16940,-1324,748,17008.12,30.04,-1.00,-1.0,2379
1718,2136718,19664,576,2768,19866.21,29.89,-1.00,-1.0,2439
1720,2136720,17184,-964,-948,17237.11,29.89,-1.00,-1.0,2372
1725,2136725,18212,-104,2476,18379.84,29.94,-1.00,-1.0,2447
1728,2136728,16932,-1384,112,16988.84,29.94,-1.00,-1.0,2374
1731,2136731,17592,1096,2108,17751.71,29.99,-1.00,-1.0,2449
1734,2136734,14536,200,888,14564.47,29.99,-1.00,-1.0,2378
1736,2136736,18580,548,2068,18702.76,29.94,-1.00,-1.0,2444
1739,2136739,17316,-764,1792,17425.23,29.99,-1.00,-1.0,2374
1742,2136742,17528,864,836,17569.18,30.04,-1.00,-1.0,2437
1745,2136745,15940,-548,336,15952.96,29.94,-1.00,-1.0,2368
1747,2136747,16692,-720,1284,16756.79,30.04,-1.00,-1.0,2369
1752,2136752,17384,-664,188,17397.69,29.94,-1.00,-1.0,2446
1755,2136755,17092,-1072,2036,17246.19,30.04,-1.00,-1.0,2370
1758,2136758,15572,-360,2244,15736.97,29.99,-1.00,-1.0,2453
1760,2136760,17576,-948,2336,17755.88,29.89,-1.00,-1.0,2371
1763,2136763,17808,1092,1160,17879.12,29.99,-1.00,-1.0,2449
1766,2136766,17560,-1112,2000,17708.48,29.99,-1.00,-1.0,2385
1769,2136769,17744,2128,1644,17946.61,30.04,-1.00,-1.0,2444
1772,2136772,16412,452,1480,16484.79,29.94,-1.00,-1.0,2372
1777,2136777,17012,-136,1228,17056.81,29.94,-1.00,-1.0,2451
1779,2136779,17688,-96,1776,17777.20,30.04,-1.00,-1.0,2383
1782,2136782,17368,96,960,17394.78,29.94,-1.00,-1.0,2428
1785,2136785,17660,-1336,1008,17739.12,29.94,-1.00,-1.0,2369
1788,2136788,17332,52,896,17355.22,29.94,-1.00,-1.0,2477
1791,2136791,16724,-188,1388,16782.55,30.13,-1.00,-1.0,2377
1793,2136793,17096,-896,1028,17150.30,30.04,-1.00,-1.0,2375
1796,2136796,17044,-1472,1008,17137.12,29.99,-1.00,-1.0,2439
1799,2136799,16788,316,1292,16840.61,29.99,-1.00,-1.0,2376
1804,2136804,16948,656,776,16978.43,29.94,-1.00,-1.0,2443
1807,2136807,16808,776,2252,16975.94,30.04,-1.00,-1.0,2372
1809,2136809,16872,-108,864,16894.45,30.08,-1.00,-1.0,2448
1812,2136812,16932,-156,1760,17023.94,29.99,-1.00,-1.0,2371
1815,2136815,16688,-88,888,16711.84,30.08,-1.00,-1.0,2448
1818,2136818,17448,4,1768,17537.35,30.08,-1.00,-1.0,2379
1821,2136821,17192,400,940,17222.32,30.13,-1.00,-1.0,2450
1823,2136823,17136,-948,1428,17221.51,29.85,-1.00,-1.0,2381
1828,2136828,17256,-1924,1024,17393.10,30.04,-1.00,-1.0,2447
1831,2136831,17276,108,1008,17305.72,29.99,-1.00,-1.0,2384
1834,2136834,16620,-564,800,16648.80,29.94,-1.00,-1.0,2371
1836,2136836,17132,-364,1184,17176.72,29.99,-1.00,-1.0,2442
1839,2136839,16852,-56,1272,16900.03,29.99,-1.00,-1.0,2369
1842,2136842,16844,-756,1356,16915.40,29.99,-1.00,-1.0,2441
1845,2136845,16916,-16,1580,16989.63,29.99,-1.00,-1.0,2376
1848,2136848,16964,-596,1600,17049.71,30.04,-1.00,-1.0,2440
1850,2136850,17188,276,1488,17254.50,29.99,-1.00,-1.0,2372
1855,2136855,17168,-260,1232,17214.11,30.08,-1.00,-1.0,2442
1858,2136858,16936,-20,1572,17008.81,29.99,-1.00,-1.0,2372
1861,2136861,17072,-644,992,17112.92,29.94,-1.00,-1.0,2453
1864,2136864,16964,-176,948,16991.38,29.99,-1.00,-1.0,2370
1866,2136866,16916,-720,892,16954.80,30.04,-1.00,-1.0,2451
1869,2136869,17048,-184,1092,17083.93,29.94,-1.00,-1.0,2385
1872,2136872,16916,-420,1080,16955.64,29.89,-1.00,-1.0,2372
1874,2136874,16944,-644,1632,17034.59,30.08,-1.00,-1.0,2439
1877,2136877,17136,-152,1820,17233.05,29.99,-1.00,-1.0,2371
1882,2136882,17040,-284,1744,17131.37,30.04,-1.00,-1.0,2444
1885,2136885,16964,156,1584,17038.51,29.99,-1.00,-1.0,2384
1888,2136888,17016,-44,1420,17075.20,29.94,-1.00,-1.0,2451
1890,2136890,16944,220,1464,17008.55,29.94,-1.00,-1.0,2378
1893,2136893,16996,120,1516,17063.90,29.89,-1.00,-1.0,2442
1896,2136896,16956,120,1488,17021.59,30.04,-1.00,-1.0,2371
1899,2136899,16952,-284,1376,17010.12,29.99,-1.00,-1.0,2437
1902,2136902,16968,-356,1088,17006.57,29.94,-1.00,-1.0,2436
1906,2136906,17024,-656,1200,17078.84,29.94,-1.00,-1.0,2449
1909,2136909,17164,-772,1140,17219.13,29.94,-1.00,-1.0,2382
1912,2136912,17072,-532,1348,17133.40,30.04,-1.00,-1.0,2445
1915,2136915,17272,-648,1520,17350.86,30.04,-1.00,-1.0,2375
1917,2136917,17172,-172,1396,17229.51,29.99,-1.00,-1.0,2357
1920,2136920,16956,-716,1260,17017.82,29.94,-1.00,-1.0,2440
1923,2136923,16964,-376,1240,17013.41,29.99,-1.00,-1.0,2376
1926,2136926,16972,-272,1076,17008.25,29.94,-1.00,-1.0,2441
1928,2136928,16940,-704,1236,16999.62,30.04,-1.00,-1.0,2374
1933,2136933,16956,-460,1332,17014.46,29.94,-1.00,-1.0,2445
1936,2136936,17108,-280,1284,17158.40,29.99,-1.00,-1.0,2377
1939,2136939,17088,-696,1444,17163.02,29.94,-1.00,-1.0,2443
1941,2136941,17100,-592,1296,17159.26,29.94,-1.00,-1.0,2370
1944,2136944,17060,-632,1388,17128.04,29.89,-1.00,-1.0,2449
1947,2136947,17084,-588,1312,17144.39,30.04,-1.00,-1.0,2387
1950,2136950,16996,-492,1284,17051.53,29.89,-1.00,-1.0,2439
1953,2136953,16936,-212,1216,16980.92,30.08,-1.00,-1.0,2370
1958,2136958,16808,-76,1276,16856.54,29.99,-1.00,-1.0,2450
1960,2136960,16752,-120,1260,16799.75,30.08,-1.00,-1.0,2386
1963,2136963,16948,136,1296,16998.02,29.99,-1.00,-1.0,2439
1966,2136966,17060,100,1608,17135.91,29.99,-1.00,-1.0,2376
1968,2136968,17220,312,1564,17293.69,30.04,-1.00,-1.0,2371
1971,2136971,17124,-28,1512,17190.65,29.99,-1.00,-1.0,2457
1974,2136974,17104,20,1468,17166.89,29.94,-1.00,-1.0,2376
1977,2136977,17036,-276,1436,17098.64,29.99,-1.00,-1.0,2428
1980,2136980,16940,-420,1424,17004.93,29.89,-1.00,-1.0,2377
1985,2136985,17024,-396,1288,17077.25,30.04,-1.00,-1.0,2446
1987,2136987,17072,-104,1116,17108.75,29.94,-1.00,-1.0,2382
1990,2136990,17016,-288,1120,17055.25,29.99,-1.00,-1.0,2449
1993,2136993,17072,-40,1176,17112.50,30.04,-1.00,-1.0,2373
1996,2136996,17008,-124,1232,17053.01,29.89,-1.00,-1.0,2440
1998,2136998,17008,-56,1216,17051.51,29.99,-1.00,-1.0,2371
2001,2137001,17060,-96,1396,17117.29,30.04,-1.00,-1.0,2441
2004,2137004,17116,-324,1476,17182.58,29.94,-1.00,-1.0,2371
2006,2137006,17008,-272,1460,17072.72,30.04,-1.00,-1.0,2370
2011,2137011,17020,-676,1352,17086.99,29.94,-1.00,-1.0,2446
2014,2137014,17004,-752,1280,17068.68,29.94,-1.00,-1.0,2373
2017,2137017,17052,-836,1128,17109.71,29.99,-1.00,-1.0,2438
2020,2137020,17036,-540,1024,17075.29,30.04,-1.00,-1.0,2382
2023,2137023,16956,-788,1016,17004.68,30.08,-1.00,-1.0,2451
2025,2137025,17100,-632,1152,17150.41,29.99,-1.00,-1.0,2379
2028,2137028,17040,-548,1244,17094.13,29.94,-1.00,-1.0,2446
2031,2137031,17104,-452,1228,17153.98,30.08,-1.00,-1.0,2358
2036,2137036,17008,-348,1360,17065.84,30.08,-1.00,-1.0,2453
2039,2137039,16912,-348,1600,16991.08,29.99,-1.00,-1.0,2384
2041,2137041,16988,-360,1672,17073.88,29.94,-1.00,-1.0,2441
2044,2137044,16920,-436,1492,16991.25,30.04,-1.00,-1.0,2371
2047,2137047,16976,-224,1276,17025.36,30.04,-1.00,-1.0,2440
2050,2137050,16936,-124,1284,16985.06,30.04,-1.00,-1.0,2372
2052,2137052,17000,-216,1296,17050.70,29.94,-1.00,-1.0,2441
2055,2137055,17056,-240,1380,17113.42,30.04,-1.00,-1.0,2370
2058,2137058,17064,-216,1408,17123.35,29.99,-1.00,-1.0,2377
2063,2137063,16968,-300,1372,17026.02,29.99,-1.00,-1.0,2452
2066,2137066,17092,20,1564,17163.42,29.99,-1.00,-1.0,2378
2068,2137068,16940,40,1456,17002.50,30.04,-1.00,-1.0,2448
2071,2137071,17044,40,1520,17111.69,29.99,-1.00,-1.0,2376
2074,2137074,16964,44,1444,17025.40,30.04,-1.00,-1.0,2441
2077,2137077,17028,-12,1584,17101.52,29.94,-1.00,-1.0,2370
2079,2137079,16992,-72,1484,17056.83,29.94,-1.00,-1.0,2440
2082,2137082,16964,-188,1324,17016.63,29.94,-1.00,-1.0,2370
2087,2137087,17044,-420,1188,17090.51,29.99,-1.00,-1.0,2444
2090,2137090,17028,-408,1212,17075.95,29.94,-1.00,-1.0,2382
2093,2137093,17040,-592,1244,17095.60,29.99,-1.00,-1.0,2448
2095,2137095,17052,-664,1132,17102.43,29.99,-1.00,-1.0,2377
2098,2137098,17100,-416,1352,17158.41,30.04,-1.00,-1.0,2371
2101,2137101,17008,-432,1136,17051.37,29.94,-1.00,-1.0,2446
2103,2137103,16944,-456,1216,16993.70,29.94,-1.00,-1.0,2369
2106,2137106,16928,-328,1224,16975.36,29.99,-1.00,-1.0,2441
2109,2137109,16956,-324,1212,17002.35,29.89,-1.00,-1.0,2370
2114,2137114,17000,-364,1032,17035.19,29.94,-1.00,-1.0,2447
2116,2137116,17120,-360,1116,17160.11,30.04,-1.00,-1.0,2380
2119,2137119,17084,-388,1136,17126.12,30.08,-1.00,-1.0,2438
2122,2137122,17028,-432,1232,17077.97,29.94,-1.00,-1.0,2372
2125,2137125,17028,-512,1216,17079.04,29.99,-1.00,-1.0,2448
2127,2137127,17100,-544,1432,17168.48,29.99,-1.00,-1.0,2359
2130,2137130,17020,-480,1308,17076.93,29.99,-1.00,-1.0,2440
2133,2137133,17060,-420,1456,17127.17,30.08,-1.00,-1.0,2370
2138,2137138,17032,-360,1300,17085.33,29.99,-1.00,-1.0,2444
2141,2137141,16904,-212,1312,16956.16,29.94,-1.00,-1.0,2383
2143,2137143,16876,-204,1232,16922.14,30.04,-1.00,-1.0,2379
2146,2137146,17028,-136,1388,17085.02,30.04,-1.00,-1.0,2441
2149,2137149,16908,56,1436,16968.96,30.04,-1.00,-1.0,2373
2152,2137152,17008,-52,1472,17071.66,30.04,-1.00,-1.0,2440
2154,2137154,17012,-140,1372,17067.81,30.04,-1.00,-1.0,2369
2157,2137157,17084,-252,1496,17151.23,29.99,-1.00,-1.0,2440
2160,2137160,17016,-292,1704,17103.60,29.99,-1.00,-1.0,2369
2165,2137165,16996,-316,1476,17062.90,29.89,-1.00,-1.0,2434
2168,2137168,17076,-288,1316,17129.06,29.94,-1.00,-1.0,2377
2170,2137170,17128,-264,1376,17185.21,29.99,-1.00,-1.0,2440
2173,2137173,17148,-336,1332,17202.94,29.99,-1.00,-1.0,2373
2176,2137176,16956,-432,1244,17007.06,30.04,-1.00,-1.0,2441
2179,2137179,17024,-364,1248,17073.56,29.99,-1.00,-1.0,2378
2182,2137182,16976,-280,1196,17020.38,29.94,-1.00,-1.0,2452
2184,2137184,17000,-320,1388,17059.57,30.04,-1.00,-1.0,2378
2187,2137187,17016,-348,1484,17084.13,29.99,-1.00,-1.0,2370
2192,2137192,17072,-268,1216,17117.35,29.99,-1.00,-1.0,2446
2195,2137195,16944,-480,1268,16998.16,29.94,-1.00,-1.0,2379
2197,2137197,16980,-380,1304,17034.24,29.99,-1.00,-1.0,2438
2200,2137200,16972,-436,1284,17026.08,29.99,-1.00,-1.0,2369
2203,2137203,17056,-500,1256,17109.49,29.94,-1.00,-1.0,2442
2206,2137206,16976,-388,1292,17029.52,29.99,-1.00,-1.0,2378
2209,2137209,17064,-288,1268,17113.47,30.04,-1.00,-1.0,2440
2211,2137211,17140,-400,1292,17193.28,30.04,-1.00,-1.0,2370
2216,2137216,17128,-212,1516,17196.27,29.99,-1.00,-1.0,2444
2219,2137219,17068,-236,1260,17116.07,29.89,-1.00,-1.0,2376
2222,2137222,17020,-284,1264,17069.23,30.04,-1.00,-1.0,2441
2225,2137225,16980,-208,1328,17033.12,29.89,-1.00,-1.0,2378
2228,2137228,16984,-116,1348,17037.80,29.94,-1.00,-1.0,2441
2230,2137230,16924,-228,1564,16997.64,29.94,-1.00,-1.0,2374
2233,2137233,16960,-56,1412,17018.77,30.08,-1.00,-1.0,2448
2236,2137236,17080,-228,1396,17138.47,29.94,-1.00,-1.0,2373
2238,2137238,17136,-288,1120,17174.98,29.89,-1.00,-1.0,2370
2243,2137243,17052,-308,1268,17101.85,29.99,-1.00,-1.0,2449
2246,2137246,17048,-376,1472,17115.56,29.99,-1.00,-1.0,2381
2249,2137249,17012,-284,1276,17062.15,29.99,-1.00,-1.0,2440
2252,2137252,17064,-448,1308,17119.92,29.99,-1.00,-1.0,2369
2254,2137254,17004,-368,1248,17053.71,30.04,-1.00,-1.0,2442
2257,2137257,16896,-336,1272,16947.14,29.94,-1.00,-1.0,2370
2260,2137260,17112,-300,1152,17153.36,30.04,-1.00,-1.0,2440
2263,2137263,16996,-360,1196,17041.83,30.04,-1.00,-1.0,2376
2268,2137268,17076,-300,1168,17118.53,30.04,-1.00,-1.0,2452
2270,2137270,17136,-260,1468,17200.73,29.99,-1.00,-1.0,2376
2273,2137273,17084,-296,1440,17147.14,30.04,-1.00,-1.0,2441
2276,2137276,17104,-188,1256,17151.08,30.04,-1.00,-1.0,2372
2279,2137279,16972,-456,1452,17040.10,29.99,-1.00,-1.0,2450
2282,2137282,17040,-360,1408,17101.86,30.04,-1.00,-1.0,2381
2284,2137284,16936,-288,1392,16995.55,29.99,-1.00,-1.0,2371
2287,2137287,17020,-324,1332,17075.12,29.94,-1.00,-1.0,2443
2290,2137290,16940,-364,1344,16997.13,29.99,-1.00,-1.0,2370
2294,2137294,17012,-288,1400,17071.94,29.94,-1.00,-1.0,2446
2297,2137297,17020,-240,1340,17074.36,30.13,-1.00,-1.0,2377
2300,2137300,17000,-304,1528,17071.24,30.08,-1.00,-1.0,2456
2303,2137303,16932,-260,1476,16998.20,29.99,-1.00,-1.0,2378
2306,2137306,17012,-308,1328,17066.54,29.89,-1.00,-1.0,2450
2308,2137308,17080,-264,1484,17146.38,29.99,-1.00,-1.0,2378
2311,2137311,17060,-316,1280,17110.87,30.04,-1.00,-1.0,2439
2314,2137314,16956,-388,1216,17003.97,29.99,-1.00,-1.0,2371
2319,2137319,17024,-372,1176,17068.62,29.94,-1.00,-1.0,2446
2321,2137321,17016,-360,1104,17055.58,30.04,-1.00,-1.0,2433
2324,2137324,17096,-476,1300,17151.96,29.89,-1.00,-1.0,2444
2327,2137327,17132,-484,1208,17181.36,29.99,-1.00,-1.0,2404
2330,2137330,17108,-348,1180,17152.18,29.89,-1.00,-1.0,2423
2333,2137333,16984,-420,1372,17044.50,29.99,-1.00,-1.0,2390
2335,2137335,16940,-336,1340,16996.24,30.04,-1.00,-1.0,2370
2338,2137338,17008,-348,1284,17059.95,30.04,-1.00,-1.0,2424
2341,2137341,17008,-304,1412,17069.22,29.94,-1.00,-1.0,2393
2346,2137346,16960,-188,1416,17020.05,29.94,-1.00,-1.0,2454
2348,2137348,17016,-172,1344,17069.86,29.94,-1.00,-1.0,2372
2351,2137351,17028,-280,1336,17082.62,29.89,-1.00,-1.0,2443
2354,2137354,17028,-196,1180,17069.96,30.04,-1.00,-1.0,2433
2357,2137357,17020,-236,1252,17067.62,29.99,-1.00,-1.0,2432
2360,2137360,16992,-332,1172,17035.61,29.99,-1.00,-1.0,2400
2363,2137363,17040,-316,1268,17090.04,29.99,-1.00,-1.0,2433
2365,2137365,17124,-256,1276,17173.38,29.99,-1.00,-1.0,2393
2370,2137370,17048,-264,1392,17106.77,29.89,-1.00,-1.0,2458
2373,2137373,16976,-148,1720,17063.55,30.08,-1.00,-1.0,2386
2376,2137376,16964,-136,1544,17034.66,30.04,-1.00,-1.0,2443
2379,2137379,16876,-160,1520,16945.07,29.94,-1.00,-1.0,2372
2381,2137381,17052,-60,1448,17113.47,30.04,-1.00,-1.0,2371
2384,2137384,16956,-40,1388,17012.76,29.99,-1.00,-1.0,2440
2387,2137387,17060,-292,1440,17123.16,30.08,-1.00,-1.0,2371
2390,2137390,17132,-288,1220,17177.80,29.99,-1.00,-1.0,2447
2392,2137392,17064,-348,1216,17110.81,29.89,-1.00,-1.0,2378
2397,2137397,16976,-420,1376,17036.85,30.08,-1.00,-1.0,2451
2400,2137400,17120,-504,1268,17174.29,29.99,-1.00,-1.0,2374
2403,2137403,17108,-472,1244,17159.66,29.94,-1.00,-1.0,2445
2406,2137406,16964,-428,1252,17015.52,30.08,-1.00,-1.0,2376
2408,2137408,16952,-364,1180,16996.92,29.94,-1.00,-1.0,2428
2411,2137411,16980,-488,1076,17021.05,29.94,-1.00,-1.0,2372
2414,2137414,16984,-408,1200,17031.23,30.13,-1.00,-1.0,2439
2417,2137417,17000,-344,1212,17046.62,30.04,-1.00,-1.0,2370
2422,2137422,17040,-428,1332,17097.34,29.94,-1.00,-1.0,2452
2424,2137424,16952,-464,1220,17002.18,29.94,-1.00,-1.0,2379
2427,2137427,17028,-420,1344,17086.12,29.99,-1.00,-1.0,2443
2430,2137430,17000,-368,1196,17045.99,30.04,-1.00,-1.0,2358
2432,2137432,16904,-392,1104,16944.55,29.94,-1.00,-1.0,2370
2435,2137435,17040,-284,1244,17087.71,29.94,-1.00,-1.0,2458
2438,2137438,16932,-324,1288,16984.01,29.99,-1.00,-1.0,2376
2441,2137441,17048,-208,1396,17106.33,30.04,-1.00,-1.0,2444
2444,2137444,17060,-324,1472,17126.45,29.94,-1.00,-1.0,2375
2449,2137449,17024,-100,1408,17082.42,30.04,-1.00,-1.0,2452
2451,2137451,17056,-124,1304,17106.22,29.94,-1.00,-1.0,2384
2454,2137454,17080,-212,1496,17146.70,29.94,-1.00,-1.0,2443
2457,2137457,17112,-156,1356,17166.35,29.94,-1.00,-1.0,2374
2460,2137460,17124,-180,1296,17173.92,29.89,-1.00,-1.0,2439
2462,2137462,17052,-308,1356,17108.60,30.04,-1.00,-1.0,2369
2465,2137465,17000,-180,1404,17058.83,29.99,-1.00,-1.0,2443
2468,2137468,16968,-308,1416,17029.77,29.99,-1.00,-1.0,2369
2473,2137473,17012,-260,1500,17079.98,29.99,-1.00,-1.0,2450
2476,2137476,17112,-292,1364,17168.76,29.99,-1.00,-1.0,2374
2478,2137478,16972,-200,1288,17021.98,30.08,-1.00,-1.0,2372
2481,2137481,17080,-296,1340,17135.04,29.94,-1.00,-1.0,2456
2484,2137484,17068,-340,1268,17118.41,30.04,-1.00,-1.0,2374
2487,2137487,16972,-212,1472,17037.03,29.99,-1.00,-1.0,2446
2489,2137489,17104,-296,1436,17166.73,30.04,-1.00,-1.0,2378
2492,2137492,17084,-264,1364,17140.40,29.99,-1.00,-1.0,2439
2495,2137495,17016,-288,1388,17074.95,29.99,-1.00,-1.0,2356
2500,2137500,16968,-336,1352,17025.09,29.99,-1.00,-1.0,2447
2503,2137503,16876,-368,1320,16931.54,29.89,-1.00,-1.0,2371
2506,2137506,16972,-368,1368,17031.02,29.94,-1.00,-1.0,2442
2509,2137509,16936,-384,1356,16994.54,30.08,-1.00,-1.0,2378
2512,2137512,17112,-504,1440,17179.88,30.04,-1.00,-1.0,2441
2514,2137514,17056,-344,1208,17102.19,30.04,-1.00,-1.0,2371
2517,2137517,17116,-348,1264,17166.14,30.04,-1.00,-1.0,2456
2520,2137520,17080,-416,1232,17129.43,29.94,-1.00,-1.0,2373
2525,2137525,17004,-212,1220,17049.03,30.04,-1.00,-1.0,2450
2527,2137527,16912,-224,1116,16950.26,30.04,-1.00,-1.0,2376
2530,2137530,16984,-236,1228,17029.97,30.04,-1.00,-1.0,2370
2533,2137533,17108,-312,1216,17154.00,30.08,-1.00,-1.0,2441
2535,2137535,16916,-248,1200,16960.32,29.99,-1.00,-1.0,2371
2538,2137538,17080,-216,1364,17135.74,29.94,-1.00,-1.0,2441
2541,2137541,17056,-228,1280,17105.48,30.08,-1.00,-1.0,2371
2544,2137544,16992,-252,1392,17050.78,30.04,-1.00,-1.0,2440
2546,2137546,17012,-260,1368,17068.89,29.94,-1.00,-1.0,2368
2551,2137551,16984,-348,1252,17033.64,29.94,-1.00,-1.0,2449
2554,2137554,17088,-256,1416,17148.48,30.08,-1.00,-1.0,2373
2557,2137557,16948,-132,1332,17000.78,30.04,-1.00,-1.0,2443
2560,2137560,17048,-240,1264,17096.48,30.04,-1.00,-1.0,2379
2563,2137563,16992,-228,1268,17040.77,29.99,-1.00,-1.0,2448
2565,2137565,16996,-244,1248,17043.50,29.94,-1.00,-1.0,2373
2568,2137568,16976,-220,1416,17036.37,29.99,-1.00,-1.0,2447
2571,2137571,17132,-180,1376,17188.11,29.99,-1.00,-1.0,2371
2573,2137573,17080,-284,1316,17132.98,29.99,-1.00,-1.0,2370
2578,2137578,17072,-204,1336,17125.41,29.99,-1.00,-1.0,2449
2581,2137581,17000,-368,1376,17059.57,30.08,-1.00,-1.0,2373
2584,2137584,17048,-364,1272,17099.26,30.04,-1.00,-1.0,2441
2587,2137587,17716,-664,1308,17776.62,29.94,-1.00,-1.0,2369
2590,2137590,-3704,-32768,-4240,33248.14,30.08,-1.00,-1.0,2488
2592,2137592,32767,31052,18308,nan,29.99,-1.00,-1.0,2366
2595,2137595,9200,7352,-5304,12916.05,30.04,-1.00,-1.0,2440
2598,2137598,20352,6612,11752,24413.77,30.04,-1.00,-1.0,2372
2603,2137603,23592,7796,-496,24851.68,29.94,-1.00,-1.0,2448
2606,2137606,9256,-2328,-5900,11220.66,29.99,-1.00,-1.0,2371
2608,2137608,31220,10236,5920,33384.29,30.04,-1.00,-1.0,2446
2611,2137611,19932,-1264,908,19992.67,29.94,-1.00,-1.0,2372
2614,2137614,12000,-4168,2164,12886.24,29.99,-1.00,-1.0,2440
2617,2137617,26592,1972,3944,26955.12,29.94,-1.00,-1.0,2364
2620,2137620,17792,-8884,2036,19990.65,29.99,-1.00,-1.0,2449
2622,2137622,20856,5840,-952,21679.13,30.04,-1.00,-1.0,2372
2625,2137625,10180,2744,5668,11970.30,29.99,-1.00,-1.0,2370
2630,2137630,12092,7424,1988,14327.75,29.99,-1.00,-1.0,2450
2633,2137633,10528,8,1832,10686.21,30.08,-1.00,-1.0,2371
2635,2137635,17544,3132,5884,18767.60,30.04,-1.00,-1.0,2445
2638,2137638,16216,436,-1840,16325.88,29.94,-1.00,-1.0,2370
2641,2137641,19124,-2880,3036,19576.49,30.04,-1.00,-1.0,2441
2644,2137644,17600,196,-464,17607.21,29.94,-1.00,-1.0,2377
2647,2137647,16052,-4228,1632,16679.51,30.08,-1.00,-1.0,2440
2649,2137649,16496,948,-188,16524.29,30.04,-1.00,-1.0,2371
2654,2137654,17076,-1264,1840,17221.30,30.13,-1.00,-1.0,2448
2657,2137657,17160,-64,1320,17210.81,29.94,-1.00,-1.0,2369
2660,2137660,15840,-3732,408,16278.82,29.99,-1.00,-1.0,2445
2663,2137663,18556,2280,3244,18974.91,30.04,-1.00,-1.0,2379
2666,2137666,18372,-1928,1228,18513.66,29.99,-1.00,-1.0,2450
2668,2137668,19268,1940,1892,19457.62,29.99,-1.00,-1.0,2376
2671,2137671,14444,-872,1212,14520.97,30.04,-1.00,-1.0,2374
2674,2137674,16548,2048,1100,16710.49,30.04,-1.00,-1.0,2446
2676,2137676,17480,-1536,2116,17674.48,30.04,-1.00,-1.0,2371
2681,2137681,16376,-880,956,16427.47,29.94,-1.00,-1.0,2450
2684,2137684,15044,-1196,876,15116.87,30.04,-1.00,-1.0,2369
2687,2137687,18420,-900,1624,18513.34,29.94,-1.00,-1.0,2444
2690,2137690,18212,-1420,-80,18267.45,29.94,-1.00,-1.0,2371
2693,2137693,18756,-532,1920,18861.52,29.99,-1.00,-1.0,2441
2695,2137695,17372,-704,2384,17548.95,30.04,-1.00,-1.0,2370
2698,2137698,16720,-84,1556,16792.46,29.99,-1.00,-1.0,2441
2701,2137701,16528,1252,1428,16636.75,29.99,-1.00,-1.0,2365
2706,2137706,17576,1848,1696,17754.08,29.99,-1.00,-1.0,2452
2708,2137708,17308,-56,1428,17366.90,29.89,-1.00,-1.0,2380
2711,2137711,16960,532,1492,17033.81,30.04,-1.00,-1.0,2445
2714,2137714,16348,-436,872,16377.04,30.04,-1.00,-1.0,2373
2716,2137716,16792,-400,1776,16890.39,29.99,-1.00,-1.0,2371
2719,2137719,16968,64,1324,17019.70,30.08,-1.00,-1.0,2445
2722,2137722,17536,-1316,1192,17625.66,29.99,-1.00,-1.0,2370
2725,2137725,17240,-252,952,17268.10,30.04,-1.00,-1.0,2448
2728,2137728,16544,-1168,1376,16642.16,29.99,-1.00,-1.0,2372
2732,2137732,16972,-1772,1052,17096.65,29.94,-1.00,-1.0,2448
2735,2137735,16956,136,1332,17008.78,30.08,-1.00,-1.0,2371
2738,2137738,16892,-900,1492,16981.63,29.99,-1.00,-1.0,2450
2740,2137740,16800,360,920,16829.02,29.99,-1.00,-1.0,2372
2743,2137743,16516,72,2084,16647.12,29.94,-1.00,-1.0,2450
2746,2137746,16716,304,1172,16759.79,30.04,-1.00,-1.0,2386
2749,2137749,17096,44,1744,17184.78,29.94,-1.00,-1.0,2439
2752,2137752,16972,0,980,17000.27,30.04,-1.00,-1.0,2371
2754,2137754,17396,-56,1700,17478.96,29.94,-1.00,-1.0,2357
2759,2137759,17100,-904,1292,17172.55,30.04,-1.00,-1.0,2449
2762,2137762,17312,328,1140,17352.59,29.94,-1.00,-1.0,2373
2765,2137765,17188,-1608,1224,17306.39,29.89,-1.00,-1.0,2449
2767,2137767,17192,160,952,17219.08,30.08,-1.00,-1.0,2372
2770,2137770,17104,-1116,1196,17182.04,30.08,-1.00,-1.0,2441
2773,2137773,17160,196,1048,17193.09,29.99,-1.00,-1.0,2373
2776,2137776,16772,108,1384,16829.35,29.94,-1.00,-1.0,2445
2779,2137779,17096,-644,1332,17159.90,29.99,-1.00,-1.0,2370
2783,2137783,17072,-484,1696,17162.86,29.99,-1.00,-1.0,2448
2786,2137786,17092,124,1796,17186.55,29.99,-1.00,-1.0,2374
2789,2137789,16828,-172,1188,16870.76,29.94,-1.00,-1.0,2460
2792,2137792,17332,-448,1564,17408.19,30.04,-1.00,-1.0,2374
2795,2137795,17100,-28,1312,17150.28,29.94,-1.00,-1.0,2448
2797,2137797,17108,-776,1124,17162.44,29.94,-1.00,-1.0,2377
2800,2137800,16816,60,1152,16855.52,29.99,-1.00,-1.0,2370
2803,2137803,16948,-764,1136,17003.20,30.04,-1.00,-1.0,2440
2805,2137805,17220,-272,840,17242.62,29.99,-1.00,-1.0,2368
2810,2137810,17156,-656,1576,17240.72,30.08,-1.00,-1.0,2449
2813,2137813,17056,-304,1560,17129.89,29.99,-1.00,-1.0,2357
2816,2137816,17308,-212,1752,17397.74,30.04,-1.00,-1.0,2446
2819,2137819,17032,-276,1848,17134.19,29.99,-1.00,-1.0,2378
2822,2137822,17088,-112,1412,17146.60,29.94,-1.00,-1.0,2441
2824,2137824,16900,80,1588,16974.63,29.94,-1.00,-1.0,2371
2827,2137827,17032,356,1236,17080.50,29.94,-1.00,-1.0,2450
2830,2137830,16972,268,1412,17032.74,30.04,-1.00,-1.0,2360
2835,2137835,16920,-52,1364,16974.97,29.94,-1.00,-1.0,2456
2838,2137838,16892,-244,796,16912.50,30.04,-1.00,-1.0,2370
2840,2137840,16828,-660,1056,16874.01,29.99,-1.00,-1.0,2456
2843,2137843,16924,-544,1076,16966.89,30.04,-1.00,-1.0,2372
2846,2137846,17028,-652,1112,17076.72,29.99,-1.00,-1.0,2369
2848,2137848,17028,-420,1196,17075.12,30.04,-1.00,-1.0,2444
2851,2137851,17244,-444,1460,17311.39,29.94,-1.00,-1.0,2372
2854,2137854,17184,-348,1468,17250.10,29.94,-1.00,-1.0,2440
2857,2137857,17008,-648,1332,17072.38,30.04,-1.00,-1.0,2378
2862,2137862,16940,-288,1300,16992.25,30.04,-1.00,-1.0,2456
2864,2137864,16900,-464,1276,16954.45,29.94,-1.00,-1.0,2369
2867,2137867,17108,-376,1316,17162.66,29.94,-1.00,-1.0,2459
2870,2137870,16940,-384,1244,16989.96,30.04,-1.00,-1.0,2380
2873,2137873,17028,-268,1260,17076.66,29.99,-1.00,-1.0,2440
2876,2137876,17192,-604,1224,17246.10,30.08,-1.00,-1.0,2375
2878,2137878,17084,-632,1364,17150.01,30.08,-1.00,-1.0,2440
2881,2137881,17144,-600,1364,17208.64,30.08,-1.00,-1.0,2370
2886,2137886,17104,-544,1360,17166.61,29.99,-1.00,-1.0,2457
2889,2137889,16852,-268,1384,16910.86,29.99,-1.00,-1.0,2373
2891,2137891,16880,-296,1380,16938.90,30.04,-1.00,-1.0,2371
2894,2137894,16676,-116,1256,16723.63,30.04,-1.00,-1.0,2446
2897,2137897,16720,-104,1268,16768.33,29.85,-1.00,-1.0,2370
2900,2137900,16912,180,1456,16975.51,30.08,-1.00,-1.0,2447
2903,2137903,17128,76,1560,17199.06,30.04,-1.00,-1.0,2373
2905,2137905,17164,148,1564,17235.74,29.99,-1.00,-1.0,2446
2908,2137908,17156,-156,1540,17225.69,29.94,-1.00,-1.0,2387
2913,2137913,17036,-328,1500,17105.05,29.94,-1.00,-1.0,2449
2916,2137916,17080,-456,1072,17119.68,30.08,-1.00,-1.0,2370
2918,2137918,16996,-372,1164,17039.87,30.04,-1.00,-1.0,2444
2921,2137921,16972,-340,1048,17007.72,29.94,-1.00,-1.0,2369
2924,2137924,16972,-204,1108,17009.35,30.04,-1.00,-1.0,2442
2927,2137927,16996,-300,1108,17034.72,29.94,-1.00,-1.0,2379
2930,2137930,16928,-236,956,16956.62,29.99,-1.00,-1.0,2448
2932,2137932,17044,-92,1200,17086.44,30.08,-1.00,-1.0,2373
2935,2137935,17124,-124,1480,17188.29,30.08,-1.00,-1.0,2373
2940,2137940,17004,-268,1456,17068.33,29.99,-1.00,-1.0,2449
2942,2137942,17108,-252,1312,17160.08,30.08,-1.00,-1.0,2376
2945,2137945,17100,-512,1360,17161.64,29.99,-1.00,-1.0,2452
2948,2137948,17084,-636,1248,17141.33,29.99,-1.00,-1.0,2358
2951,2137951,16932,-672,1104,16981.26,29.94,-1.00,-1.0,2441
2953,2137953,17080,-740,1216,17139.21,29.99,-1.00,-1.0,2358
2956,2137956,16956,-592,1224,17010.43,29.94,-1.00,-1.0,2439
2959,2137959,17104,-572,1180,17154.20,29.85,-1.00,-1.0,2357
2964,2137964,17112,-408,1116,17153.21,29.94,-1.00,-1.0,2449
2967,2137967,16992,-440,1304,17047.64,29.99,-1.00,-1.0,2371
2969,2137969,17100,-264,1476,17165.61,30.04,-1.00,-1.0,2447
2972,2137972,17112,-204,1544,17182.73,29.94,-1.00,-1.0,2371
2975,2137975,17000,-356,1532,17072.60,30.13,-1.00,-1.0,2440
2978,2137978,16944,-436,1584,17023.46,30.04,-1.00,-1.0,2377
2980,2137980,16776,-420,1520,16849.96,29.99,-1.00,-1.0,2373
2983,2137983,16984,-260,1320,17037.20,30.04,-1.00,-1.0,2448
2986,2137986,17096,-328,1356,17152.83,29.89,-1.00,-1.0,2370
2991,2137991,17152,-128,1228,17196.38,29.99,-1.00,-1.0,2456
2994,2137994,17076,-344,1300,17128.87,29.99,-1.00,-1.0,2378
2996,2137996,17060,-244,1520,17129.32,30.04,-1.00,-1.0,2448
2999,2137999,17048,-220,1376,17104.86,29.94,-1.00,-1.0,2370
3002,2138002,17100,-132,1496,17165.82,30.04,-1.00,-1.0,2447
3005,2138005,17036,112,1368,17091.21,30.04,-1.00,-1.0,2372
3007,2138007,17144,-16,1608,17219.25,29.99,-1.00,-1.0,2441
3010,2138010,16984,12,1640,17063.00,29.99,-1.00,-1.0,2370
3015,2138015,16932,12,1400,16989.79,29.99,-1.00,-1.0,2449
3018,2138018,16864,-128,1396,16922.17,30.04,-1.00,-1.0,2369
3021,2138021,17072,-388,1288,17124.91,29.89,-1.00,-1.0,2451
3023,2138023,17000,-296,1292,17051.59,29.99,-1.00,-1.0,2371
3026,2138026,17076,-404,1336,17132.95,30.04,-1.00,-1.0,2373
3029,2138029,17096,-288,1240,17143.33,30.04,-1.00,-1.0,2440
3032,2138032,17096,-360,1276,17147.33,30.04,-1.00,-1.0,2367
3034,2138034,17040,-396,1080,17078.78,29.99,-1.00,-1.0,2439
3037,2138037,16996,-336,1252,17045.36,29.94,-1.00,-1.0,2371
3042,2138042,16940,-332,1100,16978.92,30.04,-1.00,-1.0,2450
3045,2138045,17028,-176,976,17056.86,30.04,-1.00,-1.0,2373
3048,2138048,17000,-128,1092,17035.52,29.99,-1.00,-1.0,2449
3050,2138050,17076,-256,1124,17114.87,29.99,-1.00,-1.0,2372
3053,2138053,17076,-232,1248,17123.12,29.99,-1.00,-1.0,2441
3056,2138056,17040,-368,1372,17099.11,29.99,-1.00,-1.0,2372
3059,2138059,17080,-540,1028,17119.43,29.94,-1.00,-1.0,2445
3062,2138062,17000,-500,1272,17054.85,30.08,-1.00,-1.0,2371
3067,2138067,17028,-544,1276,17084.40,29.99,-1.00,-1.0,2453
3069,2138069,17088,-388,1416,17150.96,29.99,-1.00,-1.0,2371
3072,2138072,16944,-456,1396,17007.53,30.08,-1.00,-1.0,2376
3075,2138075,16960,-520,1264,17014.98,29.94,-1.00,-1.0,2446
3078,2138078,16964,-444,1120,17006.73,30.04,-1.00,-1.0,2380
3080,2138080,16956,-340,1348,17012.90,29.99,-1.00,-1.0,2440
3083,2138083,17044,-180,1352,17098.49,30.04,-1.00,-1.0,2371
3086,2138086,17056,-128,1344,17109.35,30.08,-1.00,-1.0,2440
3089,2138089,16964,-160,1288,17013.58,30.08,-1.00,-1.0,2369
3094,2138094,17076,-184,1448,17138.27,30.04,-1.00,-1.0,2452
3096,2138096,17060,-376,1608,17139.74,30.04,-1.00,-1.0,2365
3099,2138099,17104,-268,1396,17162.97,30.08,-1.00,-1.0,2444
3102,2138102,17140,-252,1512,17208.41,29.94,-1.00,-1.0,2370
3105,2138105,17048,-328,1120,17087.90,30.08,-1.00,-1.0,2448
3107,2138107,17040,-288,1328,17094.10,29.99,-1.00,-1.0,2370
3110,2138110,17000,-308,1424,17062.32,30.13,-1.00,-1.0,2442
3113,2138113,17036,-276,1020,17068.74,30.08,-1.00,-1.0,2369
3118,2138118,17020,-188,1172,17061.34,30.04,-1.00,-1.0,2459
3121,2138121,17040,-172,1428,17100.60,29.94,-1.00,-1.0,2382
3123,2138123,17052,-208,1264,17100.05,30.08,-1.00,-1.0,2371
3126,2138126,17088,-124,1368,17143.12,29.89,-1.00,-1.0,2445
3129,2138129,16968,-336,1232,17015.98,30.08,-1.00,-1.0,2379
3132,2138132,17028,-344,1408,17089.58,29.94,-1.00,-1.0,2440
3134,2138134,16924,-272,1372,16981.70,30.04,-1.00,-1.0,2373
3137,2138137,17040,-384,1204,17086.80,30.04,-1.00,-1.0,2456
3140,2138140,17056,-396,1224,17104.45,29.94,-1.00,-1.0,2378
3145,2138145,17112,-460,1252,17163.91,30.04,-1.00,-1.0,2450
3147,2138147,17064,-292,1128,17103.73,30.04,-1.00,-1.0,2371
3150,2138150,17028,-304,1360,17084.93,29.94,-1.00,-1.0,2458
3153,2138153,17036,-260,1268,17085.10,29.94,-1.00,-1.0,2372
3156,2138156,16920,-364,1304,16974.08,30.08,-1.00,-1.0,2450
3158,2138158,17068,-272,1396,17127.15,29.99,-1.00,-1.0,2378
3161,2138161,17016,-236,1460,17080.15,30.08,-1.00,-1.0,2440
3164,2138164,17000,-56,1528,17068.62,29.99,-1.00,-1.0,2357
3166,2138166,17000,-144,1520,17068.43,30.04,-1.00,-1.0,2369
3171,2138171,17076,-184,1288,17125.49,30.04,-1.00,-1.0,2448
3174,2138174,17072,-156,1372,17127.75,30.04,-1.00,-1.0,2369
3177,2138177,17044,-224,1584,17118.91,29.94,-1.00,-1.0,2446
3180,2138180,17052,-264,1348,17107.24,29.94,-1.00,-1.0,2379
3183,2138183,16984,-392,1364,17043.19,29.99,-1.00,-1.0,2449
3185,2138185,16996,-272,1188,17039.64,30.04,-1.00,-1.0,2373
3188,2138188,16996,-352,1312,17050.20,30.08,-1.00,-1.0,2447
3191,2138191,17028,-328,1164,17070.89,30.04,-1.00,-1.0,2371
3196,2138196,16972,-156,1220,17016.51,29.94,-1.00,-1.0,2458
3199,2138199,16920,-352,1248,16969.61,30.08,-1.00,-1.0,2379
3201,2138201,17012,-200,1396,17070.35,29.89,-1.00,-1.0,2448
3204,2138204,17132,-280,1400,17191.39,29.99,-1.00,-1.0,2371
3207,2138207,17016,-308,1296,17068.06,30.04,-1.00,-1.0,2441
3210,2138210,17020,-224,1316,17072.27,30.08,-1.00,-1.0,2369
3212,2138212,17028,-316,1312,17081.39,29.94,-1.00,-1.0,2428
3215,2138215,17132,-384,1368,17190.82,29.94,-1.00,-1.0,2370
3218,2138218,17052,-496,1416,17117.88,30.04,-1.00,-1.0,2378
3223,2138223,16964,-388,1252,17014.56,29.94,-1.00,-1.0,2451
3225,2138225,16960,-324,1260,17009.83,30.04,-1.00,-1.0,2371
3228,2138228,17008,-384,1360,17066.61,29.99,-1.00,-1.0,2458
3231,2138231,17080,-336,1356,17137.04,29.99,-1.00,-1.0,2385
3234,2138234,16968,-444,1236,17018.75,29.99,-1.00,-1.0,2445
3237,2138237,17068,-308,1548,17140.82,29.99,-1.00,-1.0,2372
3239,2138239,17120,-188,1320,17171.84,30.04,-1.00,-1.0,2441
3242,2138242,17000,-364,1356,17057.88,29.94,-1.00,-1.0,2368
3247,2138247,16944,-456,1244,16995.72,29.99,-1.00,-1.0,2453
3250,2138250,17072,-120,1364,17126.82,29.99,-1.00,-1.0,2369
3253,2138253,16988,-420,1308,17043.46,30.04,-1.00,-1.0,2451
3255,2138255,17008,-396,1184,17053.76,30.04,-1.00,-1.0,2372
3258,2138258,17160,-352,1288,17211.87,30.04,-1.00,-1.0,2443
3261,2138261,17040,-468,1120,17083.18,30.04,-1.00,-1.0,2370
3264,2138264,16956,-340,1320,17010.70,29.99,-1.00,-1.0,2374
3266,2138266,17056,-396,1268,17107.65,30.04,-1.00,-1.0,2444
3269,2138269,17056,-280,1288,17106.86,29.99,-1.00,-1.0,2372
3274,2138274,16996,-272,1148,17036.90,29.99,-1.00,-1.0,2459
3277,2138277,17036,-96,1440,17097.02,29.99,-1.00,-1.0,2370
3280,2138280,17076,-120,1320,17127.36,30.04,-1.00,-1.0,2446
3282,2138282,16980,-76,1328,17032.02,30.04,-1.00,-1.0,2374
3285,2138285,17104,-220,1408,17163.27,29.94,-1.00,-1.0,2442
3288,2138288,16956,-200,1276,17005.12,30.04,-1.00,-1.0,2371
3291,2138291,16976,-164,1332,17028.97,30.04,-1.00,-1.0,2446
3293,2138293,17048,-336,1280,17099.29,30.04,-1.00,-1.0,2370
3298,2138298,17080,-220,1268,17128.42,30.04,-1.00,-1.0,2449
3301,2138301,16956,-220,1312,17008.11,30.04,-1.00,-1.0,2357
3304,2138304,17032,-184,1400,17090.43,29.99,-1.00,-1.0,2446
3307,2138307,16960,-116,1436,17021.08,29.94,-1.00,-1.0,2378
3310,2138310,16956,-100,1548,17026.81,29.99,-1.00,-1.0,2440
3312,2138312,17072,-20,1508,17138.48,29.99,-1.00,-1.0,2372
3315,2138315,16972,-160,1504,17039.26,30.04,-1.00,-1.0,2373
3318,2138318,17072,-68,1444,17133.10,30.04,-1.00,-1.0,2440
3320,2138320,16964,-152,1292,17013.81,30.04,-1.00,-1.0,2372
3326,2138326,16980,-228,1284,17030.00,29.99,-1.00,-1.0,2460
3329,2138329,17068,-440,1368,17128.39,29.99,-1.00,-1.0,2382
3332,2138332,16996,-392,1320,17051.69,30.04,-1.00,-1.0,2453
3334,2138334,17156,-368,1324,17210.95,30.04,-1.00,-1.0,2372
3337,2138337,17104,-440,1320,17160.50,30.13,-1.00,-1.0,2428
3340,2138340,17132,-408,1236,17181.37,30.04,-1.00,-1.0,2371
3343,2138343,17000,-416,1300,17054.71,30.04,-1.00,-1.0,2443
3345,2138345,16884,-344,1092,16922.77,30.04,-1.00,-1.0,2371
3350,2138350,16952,-392,1300,17006.29,30.04,-1.00,-1.0,2443
3353,2138353,16984,-284,1360,17040.73,30.04,-1.00,-1.0,2375
3356,2138356,16996,-392,1384,17056.76,29.94,-1.00,-1.0,2442
3358,2138358,17084,-428,1304,17139.04,30.04,-1.00,-1.0,2375
3361,2138361,17108,-488,1128,17152.09,29.99,-1.00,-1.0,2370
3364,2138364,17048,-460,1100,17089.64,29.99,-1.00,-1.0,2446
3366,2138366,16976,-420,1216,17024.68,29.89,-1.00,-1.0,2369
3369,2138369,16952,-364,1260,17002.66,30.04,-1.00,-1.0,2450
3372,2138372,17076,-268,1352,17131.54,29.94,-1.00,-1.0,2387
3377,2138377,17100,-252,1276,17149.39,29.94,-1.00,-1.0,2464
3380,2138380,16976,-184,1208,17019.92,30.04,-1.00,-1.0,2377
3383,2138383,16988,-168,1252,17034.90,29.94,-1.00,-1.0,2448
3385,2138385,17008,-212,1368,17064.24,30.04,-1.00,-1.0,2373
3388,2138388,17036,-220,1256,17083.65,30.08,-1.00,-1.0,2441
3391,2138391,16940,-240,1372,16997.16,29.99,-1.00,-1.0,2370
3394,2138394,17060,-172,1304,17110.63,30.08,-1.00,-1.0,2446
3396,2138396,17020,-216,1324,17072.79,29.99,-1.00,-1.0,2370
3401,2138401,17020,-136,1292,17069.51,29.99,-1.00,-1.0,2447
3404,2138404,17080,-248,1332,17133.65,29.99,-1.00,-1.0,2371
3407,2138407,17004,-236,1208,17048.49,29.94,-1.00,-1.0,2381
3410,2138410,16856,-180,1272,16904.88,30.04,-1.00,-1.0,2453
3412,2138412,17028,-196,1168,17069.14,30.04,-1.00,-1.0,2379
3415,2138415,17020,-216,1308,17071.55,29.89,-1.00,-1.0,2440
3418,2138418,16936,-172,1260,16983.68,29.89,-1.00,-1.0,2372
3421,2138421,16984,-172,1436,17045.47,30.08,-1.00,-1.0,2445
3423,2138423,17020,-308,1360,17077.03,29.99,-1.00,-1.0,2371
3428,2138428,17008,-336,1500,17077.32,30.08,-1.00,-1.0,2449
3431,2138431,17092,-268,1532,17162.61,30.08,-1.00,-1.0,2373
3434,2138434,17048,-396,1308,17102.69,30.08,-1.00,-1.0,2440
3437,2138437,16988,-328,1408,17049.40,29.99,-1.00,-1.0,2370
3440,2138440,16884,-344,1532,16956.85,30.13,-1.00,-1.0,2442
3442,2138442,17068,-272,1456,17132.15,30.04,-1.00,-1.0,2374
3445,2138445,17088,-500,1312,17145.59,30.04,-1.00,-1.0,2454
3448,2138448,16996,-376,1396,17057.38,30.04,-1.00,-1.0,2376
3453,2138453,16964,-328,1416,17026.15,29.94,-1.00,-1.0,2454
3456,2138456,16984,-348,1204,17030.18,29.94,-1.00,-1.0,2372
3458,2138458,17004,-376,1304,17058.07,30.04,-1.00,-1.0,2358
3461,2138461,17092,-404,1356,17150.46,29.99,-1.00,-1.0,2443
3464,2138464,16976,-236,1248,17023.45,29.99,-1.00,-1.0,2371
3466,2138466,16944,-304,1140,16985.03,30.08,-1.00,-1.0,2441
3469,2138469,17060,-328,1272,17110.50,30.08,-1.00,-1.0,2369
3472,2138472,16952,-320,1184,16996.31,30.04,-1.00,-1.0,2440
3475,2138475,16968,-312,1372,17026.24,30.04,-1.00,-1.0,2376
3480,2138480,17076,-352,1208,17122.29,30.04,-1.00,-1.0,2457
3482,2138482,17068,-308,1292,17119.60,30.08,-1.00,-1.0,2374
3485,2138485,17084,-236,1180,17126.33,30.04,-1.00,-1.0,2442
3488,2138488,16988,-360,1448,17053.40,29.94,-1.00,-1.0,2370
3491,2138491,16948,-384,1344,17005.54,29.99,-1.00,-1.0,2448
3494,2138494,17120,-244,1328,17173.16,30.04,-1.00,-1.0,2377
3496,2138496,16992,-216,1496,17059.10,29.99,-1.00,-1.0,2447
3499,2138499,16968,-164,1340,17021.62,29.99,-1.00,-1.0,2374
3502,2138502,17052,-208,1480,17117.37,30.08,-1.00,-1.0,2370
3507,2138507,17012,-212,1452,17075.17,30.08,-1.00,-1.0,2454
3510,2138510,17100,-364,1404,17161.40,29.99,-1.00,-1.0,2375
3512,2138512,17028,-292,1392,17087.30,30.04,-1.00,-1.0,2441
3515,2138515,17072,-468,1408,17136.36,29.94,-1.00,-1.0,2371
3518,2138518,17056,-348,1444,17120.55,29.94,-1.00,-1.0,2441
3521,2138521,17032,-364,1424,17095.30,29.94,-1.00,-1.0,2377
3524,2138524,16924,-308,1200,16969.29,30.04,-1.00,-1.0,2439
3526,2138526,17072,-228,1352,17126.97,30.04,-1.00,-1.0,2369
3531,2138531,17128,-336,1140,17169.18,29.99,-1.00,-1.0,2463
3534,2138534,17032,-340,1180,17076.21,29.89,-1.00,-1.0,2374
3537,2138537,17028,-272,1224,17074.10,29.99,-1.00,-1.0,2448
3539,2138539,17056,-268,1208,17100.83,29.99,-1.00,-1.0,2373
3542,2138542,16988,-252,1296,17039.23,30.04,-1.00,-1.0,2440
3545,2138545,17032,-364,1208,17078.66,29.94,-1.00,-1.0,2369
3548,2138548,17028,-372,1372,17087.23,30.04,-1.00,-1.0,2447
3550,2138550,30332,-4932,548,30735.24,30.04,-1.00,-1.0,2371
3553,2138553,2828,-24248,-8708,25918.96,29.99,-1.00,-1.0,2376
3558,2138558,-2676,-18428,-7616,20118.54,29.94,-1.00,-1.0,2457
3560,2138560,13528,4524,13696,19775.08,30.04,-1.00,-1.0,2375
3563,2138563,17320,-3380,508,17654.03,29.99,-1.00,-1.0,2451
3566,2138566,18728,704,1764,18824.06,29.99,-1.00,-1.0,2377
3569,2138569,13328,10084,-1724,16801.63,29.99,-1.00,-1.0,2435
3572,2138572,32328,4448,7968,33591.27,29.99,-1.00,-1.0,2377
3574,2138574,17688,-4004,2572,18317.00,30.04,-1.00,-1.0,2444
3577,2138577,20144,2868,-2236,20469.63,29.99,-1.00,-1.0,2358
3582,2138582,13080,10020,-264,16478.97,29.99,-1.00,-1.0,2464
3585,2138585,14284,-8128,-1636,16515.86,30.08,-1.00,-1.0,2375
3588,2138588,12244,7624,5048,15281.47,30.04,-1.00,-1.0,2448
3590,2138590,23492,-716,2844,23674.35,29.94,-1.00,-1.0,2373
3593,2138593,9220,5388,796,10708.53,30.04,-1.00,-1.0,2441
3596,2138596,11384,2684,1584,11802.90,30.04,-1.00,-1.0,2371
3599,2138599,18060,-676,5108,18780.63,29.99,-1.00,-1.0,2445
3601,2138601,15400,840,-676,15437.70,30.04,-1.00,-1.0,2370
3604,2138604,19656,-2700,2616,20012.29,29.99,-1.00,-1.0,2376
3609,2138609,16040,1452,1052,16139.91,30.08,-1.00,-1.0,2447
3612,2138612,17136,-4532,-976,17752.02,29.99,-1.00,-1.0,2378
3615,2138615,15488,-2220,-1416,15710.24,30.04,-1.00,-1.0,2455
3617,2138617,16812,-1336,2220,17010.49,29.99,-1.00,-1.0,2379
3620,2138620,17672,-1760,-1944,17865.51,30.04,-1.00,-1.0,2441
3623,2138623,17664,-1560,1020,17762.06,30.04,-1.00,-1.0,2370
3626,2138626,19480,1120,3072,19752.52,30.04,-1.00,-1.0,2439
3628,2138628,18180,-1196,840,18238.65,30.13,-1.00,-1.0,2370
3633,2138633,14048,-488,1448,14130.86,30.04,-1.00,-1.0,2453
3636,2138636,19868,944,2408,20035.64,30.04,-1.00,-1.0,2374
3639,2138639,17960,-368,1736,18047.46,29.94,-1.00,-1.0,2441
3642,2138642,17092,916,868,17138.52,30.04,-1.00,-1.0,2370
3644,2138644,16400,-1428,968,16490.49,29.89,-1.00,-1.0,2442
3647,2138647,15684,-384,1288,15741.48,29.99,-1.00,-1.0,2371
3650,2138650,18100,-456,1340,18155.26,30.08,-1.00,-1.0,2439
3653,2138653,18468,-980,160,18494.68,30.08,-1.00,-1.0,2378
3655,2138655,18336,-840,1564,18421.74,30.04,-1.00,-1.0,2378
3660,2138660,16228,252,2456,16414.73,30.04,-1.00,-1.0,2456
3663,2138663,18008,380,1248,18055.19,30.04,-1.00,-1.0,2386
3666,2138666,17284,-504,1772,17381.91,30.04,-1.00,-1.0,2444
3669,2138669,17152,1728,1488,17302.93,30.04,-1.00,-1.0,2372
3671,2138671,16676,-456,996,16711.94,30.04,-1.00,-1.0,2441
3674,2138674,16540,1096,1608,16654.08,30.04,-1.00,-1.0,2370
3677,2138677,16896,-744,960,16939.60,29.99,-1.00,-1.0,2440
3680,2138680,17424,-36,1680,17504.84,29.99,-1.00,-1.0,2370
3685,2138685,17480,-1444,1248,17583.89,29.99,-1.00,-1.0,2449
3687,2138687,17204,28,1424,17262.86,30.04,-1.00,-1.0,2373
3690,2138690,16636,-1224,1140,16719.88,29.99,-1.00,-1.0,2441
3693,2138693,17600,-1420,888,17679.51,30.08,-1.00,-1.0,2374
3696,2138696,16800,-1580,1112,16910.73,30.04,-1.00,-1.0,2448
3698,2138698,16776,548,1452,16847.63,29.99,-1.00,-1.0,2370
3701,2138701,16796,-716,1572,16884.59,29.94,-1.00,-1.0,2373
3704,2138704,16816,124,684,16830.36,29.89,-1.00,-1.0,2437
3707,2138707,16684,640,2448,16874.78,30.04,-1.00,-1.0,2366
3712,2138712,17172,528,1636,17257.83,30.04,-1.00,-1.0,2454
3714,2138714,16908,-304,1240,16956.13,30.13,-1.00,-1.0,2381
3717,2138717,17308,-320,1792,17403.46,29.89,-1.00,-1.0,2441
3720,2138720,17148,864,1280,17217.40,29.99,-1.00,-1.0,2359
3723,2138723,17068,-1228,1148,17150.58,29.99,-1.00,-1.0,2444
3725,2138725,17040,320,968,17070.47,29.99,-1.00,-1.0,2371
3728,2138728,17436,-1936,1172,17582.26,29.99,-1.00,-1.0,2440
3731,2138731,17132,-416,1208,17179.57,30.08,-1.00,-1.0,2372
3736,2138736,17252,-1004,1032,17311.98,30.04,-1.00,-1.0,2455
3739,2138739,16928,148,1332,16980.97,29.94,-1.00,-1.0,2375
3741,2138741,16924,-872,1412,17005.17,30.04,-1.00,-1.0,2449
3744,2138744,17104,-456,1244,17155.24,30.04,-1.00,-1.0,2375
3747,2138747,17012,-244,1544,17083.67,29.99,-1.00,-1.0,2370
3750,2138750,16996,64,1496,17061.83,29.94,-1.00,-1.0,2440
3752,2138752,16944,-12,1300,16993.80,29.99,-1.00,-1.0,2372
3755,2138755,17204,-652,1568,17287.61,30.04,-1.00,-1.0,2439
3758,2138758,16932,324,1288,16984.01,29.94,-1.00,-1.0,2367
3762,2138762,16972,-128,1080,17006.81,29.99,-1.00,-1.0,2449
3765,2138765,16940,-784,1076,16992.23,29.99,-1.00,-1.0,2372
3768,2138768,16840,-532,700,16862.94,30.04,-1.00,-1.0,2442
3771,2138771,16836,-316,1076,16873.31,30.08,-1.00,-1.0,2378
3774,2138774,17060,-500,1576,17139.94,30.04,-1.00,-1.0,2443
3776,2138776,17060,-348,1796,17157.81,29.94,-1.00,-1.0,2371
3779,2138779,17176,-92,1640,17254.36,29.99,-1.00,-1.0,2454
3782,2138782,17016,-292,1932,17127.82,29.94,-1.00,-1.0,2376
3787,2138787,17076,152,1504,17142.78,30.04,-1.00,-1.0,2455
3790,2138790,17084,228,1540,17154.79,30.04,-1.00,-1.0,2382
3792,2138792,16948,144,1468,17012.07,29.99,-1.00,-1.0,2371
3795,2138795,16948,20,1476,17012.16,29.94,-1.00,-1.0,2442
3798,2138798,16904,52,1696,16988.95,29.99,-1.00,-1.0,2370
3800,2138800,16780,-388,1032,16816.18,29.94,-1.00,-1.0,2440
3803,2138803,16788,-548,1076,16831.37,30.04,-1.00,-1.0,2370
3806,2138806,17056,-660,1220,17112.31,30.04,-1.00,-1.0,2440
3809,2138809,16932,-884,740,16971.20,29.94,-1.00,-1.0,2366
3814,2138814,17240,-616,1396,17307.39,30.04,-1.00,-1.0,2456
3816,2138816,17200,-376,1288,17252.26,30.04,-1.00,-1.0,2373
3819,2138819,16988,-648,1080,17034.62,29.94,-1.00,-1.0,2457
3822,2138822,17012,-480,1016,17049.07,29.94,-1.00,-1.0,2436
3825,2138825,17020,-276,1332,17074.27,30.08,-1.00,-1.0,2443
3828,2138828,16912,-612,1152,16962.23,29.99,-1.00,-1.0,2392
3830,2138830,16972,-236,1264,17020.64,29.99,-1.00,-1.0,2370
3833,2138833,17092,-468,1036,17129.76,30.04,-1.00,-1.0,2423
3836,2138836,17092,-376,1016,17126.30,30.04,-1.00,-1.0,2384
3841,2138841,17324,-696,1320,17388.15,30.04,-1.00,-1.0,2448
3844,2138844,17120,-636,1324,17182.89,29.94,-1.00,-1.0,2372
3847,2138847,17204,-676,1384,17272.81,29.94,-1.00,-1.0,2441
3849,2138849,17032,-408,1300,17086.41,30.04,-1.00,-1.0,2373
3852,2138852,16976,-228,1300,17027.23,29.99,-1.00,-1.0,2455
3855,2138855,16964,-260,1456,17028.35,29.89,-1.00,-1.0,2377
3858,2138858,16696,8,1460,16759.72,30.08,-1.00,-1.0,2451
3860,2138860,16884,-136,1348,16938.27,29.99,-1.00,-1.0,2376
3865,2138865,17032,236,1672,17115.50,29.99,-1.00,-1.0,2458
3868,2138868,17116,320,1524,17186.69,30.08,-1.00,-1.0,2376
3871,2138871,17148,144,1528,17216.54,29.94,-1.00,-1.0,2442
3874,2138874,17124,76,1508,17190.44,29.94,-1.00,-1.0,2370
3876,2138876,17056,-268,1476,17121.84,29.94,-1.00,-1.0,2369
3879,2138879,17076,-308,1364,17133.16,29.99,-1.00,-1.0,2441
3882,2138882,16980,-320,1220,17026.78,30.08,-1.00,-1.0,2372
3885,2138885,17012,-372,1384,17072.26,30.08,-1.00,-1.0,2452
3887,2138887,17020,24,1304,17069.90,29.99,-1.00,-1.0,2379
3892,2138892,16868,-168,1112,16905.45,29.99,-1.00,-1.0,2458
3895,2138895,16944,48,1140,16982.38,29.99,-1.00,-1.0,2387
3898,2138898,17024,-92,1384,17080.41,29.99,-1.00,-1.0,2473
3901,2138901,17040,-20,1296,17089.22,29.99,-1.00,-1.0,2368
3904,2138904,17124,-248,1328,17177.21,29.99,-1.00,-1.0,2452
3906,2138906,16988,-408,1368,17047.88,29.99,-1.00,-1.0,2378
3909,2138909,17112,-636,1216,17166.94,30.04,-1.00,-1.0,2476
3912,2138912,16992,-796,1260,17057.24,29.99,-1.00,-1.0,2369
3917,2138917,17140,-828,1104,17195.46,30.13,-1.00,-1.0,2450
3920,2138920,17032,-620,1000,17072.59,30.04,-1.00,-1.0,2370
3923,2138923,17104,-708,1060,17151.43,29.99,-1.00,-1.0,2370
3925,2138925,17052,-596,1152,17101.26,30.04,-1.00,-1.0,2453
3928,2138928,17044,-428,1168,17089.33,30.04,-1.00,-1.0,2379
3931,2138931,17108,-476,1312,17164.84,30.04,-1.00,-1.0,2443
3934,2138934,17060,-296,1404,17120.23,30.04,-1.00,-1.0,2368
3936,2138936,17020,-424,1504,17091.58,30.04,-1.00,-1.0,2439
3939,2138939,17052,-292,1740,17143.03,30.04,-1.00,-1.0,2369
3944,2138944,17000,-448,1552,17076.57,29.99,-1.00,-1.0,2448
3947,2138947,17068,-272,1344,17122.99,30.08,-1.00,-1.0,2370
3950,2138950,17084,-244,1272,17133.03,30.08,-1.00,-1.0,2446
3952,2138952,17140,-224,1212,17184.26,29.89,-1.00,-1.0,2371
3955,2138955,17044,-148,1432,17104.69,30.04,-1.00,-1.0,2455
3958,2138958,17100,-244,1236,17146.35,29.99,-1.00,-1.0,2371
3961,2138961,17136,-228,1492,17202.34,30.04,-1.00,-1.0,2451
3963,2138963,17068,-176,1452,17130.55,30.04,-1.00,-1.0,2378
3966,2138966,17000,56,1532,17068.98,30.18,-1.00,-1.0,2370
3971,2138971,17056,132,1496,17121.99,29.94,-1.00,-1.0,2449
3973,2138973,17116,104,1512,17182.97,30.04,-1.00,-1.0,2373
3976,2138976,16988,-68,1460,17050.76,30.04,-1.00,-1.0,2431
3979,2138979,16932,-20,1440,16993.13,30.04,-1.00,-1.0,2370
3982,2138982,16916,-152,1388,16973.53,29.99,-1.00,-1.0,2447
3984,2138984,16940,-312,1140,16981.18,29.99,-1.00,-1.0,2371
3987,2138987,16988,-352,1384,17047.92,30.08,-1.00,-1.0,2441
3990,2138990,17040,-420,1188,17086.53,29.89,-1.00,-1.0,2368
3995,2138995,17124,-476,1264,17177.18,29.99,-1.00,-1.0,2434
3998,2138998,17132,-436,1404,17194.96,30.04,-1.00,-1.0,2371
4000,2139000,17068,-440,1168,17113.57,29.99,-1.00,-1.0,2444
4003,2139003,17032,-540,1140,17078.65,30.08,-1.00,-1.0,2373
4006,2139006,17016,-344,1144,17057.88,30.13,-1.00,-1.0,2439
4009,2139009,17020,-372,1200,17066.30,30.08,-1.00,-1.0,2377
4011,2139011,16984,-200,1156,17024.47,30.04,-1.00,-1.0,2378
4014,2139014,17056,-324,1136,17096.86,29.94,-1.00,-1.0,2440
4017,2139017,17060,-424,1204,17107.69,30.04,-1.00,-1.0,2371
4022,2139022,17004,-500,1112,17047.66,30.04,-1.00,-1.0,2453
4025,2139025,17104,-532,1180,17152.91,30.04,-1.00,-1.0,2376
4027,2139027,17004,-600,1288,17063.26,30.08,-1.00,-1.0,2444
4030,2139030,17132,-700,1380,17201.74,29.94,-1.00,-1.0,2370
4033,2139033,17000,-408,1460,17067.46,29.99,-1.00,-1.0,2441
4036,2139036,17020,-444,1516,17093.15,29.99,-1.00,-1.0,2370
4039,2139039,16888,-416,1312,16943.99,30.04,-1.00,-1.0,2440
4041,2139041,16932,-188,1264,16980.15,29.99,-1.00,-1.0,2369
4046,2139046,16900,-144,1384,16957.19,30.08,-1.00,-1.0,2447
4049,2139049,17044,-104,1392,17101.06,30.08,-1.00,-1.0,2369
4052,2139052,16944,-92,1504,17010.87,30.04,-1.00,-1.0,2446
4054,2139054,16968,-216,1472,17033.10,29.99,-1.00,-1.0,2370
4057,2139057,17092,-320,1644,17173.86,30.04,-1.00,-1.0,2384
4060,2139060,16980,-316,1404,17040.88,30.08,-1.00,-1.0,2441
4063,2139063,17016,-268,1380,17073.97,30.08,-1.00,-1.0,2370
4065,2139065,17124,-356,1412,17185.80,30.08,-1.00,-1.0,2441
4068,2139068,17028,-244,1428,17089.51,29.99,-1.00,-1.0,2370
4073,2139073,16976,-188,1252,17023.14,30.04,-1.00,-1.0,2455
4076,2139076,17008,-236,1304,17059.55,29.99,-1.00,-1.0,2372
4079,2139079,17160,-308,1128,17199.79,29.99,-1.00,-1.0,2443
4081,2139081,17020,-216,1080,17055.60,29.99,-1.00,-1.0,2371
4084,2139084,17028,-220,1204,17071.93,29.94,-1.00,-1.0,2443
4087,2139087,17056,-260,1292,17106.84,30.08,-1.00,-1.0,2370
4090,2139090,17044,-272,1356,17100.02,29.94,-1.00,-1.0,2446
4092,2139092,16952,-284,1400,17012.08,30.04,-1.00,-1.0,2369
4097,2139097,16860,-280,1224,16906.69,30.13,-1.00,-1.0,2448
4100,2139100,16884,-376,1256,16934.83,30.04,-1.00,-1.0,2372
4103,2139103,17060,-388,1348,17117.57,30.04,-1.00,-1.0,2445
4106,2139106,17060,-388,1152,17103.25,30.04,-1.00,-1.0,2373
4108,2139108,17012,-376,1292,17065.13,30.08,-1.00,-1.0,2377
4111,2139111,17080,-268,1260,17128.51,29.99,-1.00,-1.0,2439
4114,2139114,17156,-260,1364,17212.10,29.99,-1.00,-1.0,2370
4117,2139117,17080,-360,1376,17139.12,30.04,-1.00,-1.0,2445
4119,2139119,17088,-272,1224,17133.94,30.08,-1.00,-1.0,2371
4124,2139124,16868,-200,1536,16938.97,29.99,-1.00,-1.0,2452
4127,2139127,16948,-108,1468,17011.80,29.99,-1.00,-1.0,2371
4130,2139130,16940,-72,1360,16994.66,29.94,-1.00,-1.0,2444
4133,2139133,17056,-160,1396,17113.78,30.04,-1.00,-1.0,2369
4136,2139136,17004,-212,1372,17060.58,30.04,-1.00,-1.0,2442
4138,2139138,17112,-200,1312,17163.39,30.04,-1.00,-1.0,2370
4141,2139141,17060,-324,1212,17106.07,29.94,-1.00,-1.0,2439
4144,2139144,17076,-264,1432,17137.97,29.94,-1.00,-1.0,2364
4149,2139149,16996,-464,1236,17047.20,29.99,-1.00,-1.0,2456
4152,2139152,16984,-400,1228,17033.03,29.99,-1.00,-1.0,2384
4155,2139155,16904,-420,1228,16953.75,30.04,-1.00,-1.0,2370
4157,2139157,17036,-364,1076,17073.83,29.94,-1.00,-1.0,2446
4160,2139160,16940,-236,1268,16989.03,30.04,-1.00,-1.0,2371
4163,2139163,17032,-288,1128,17071.74,30.04,-1.00,-1.0,2441
4166,2139166,17076,-224,1232,17121.85,29.94,-1.00,-1.0,2365
4169,2139169,17136,-224,1200,17179.43,29.99,-1.00,-1.0,2448
4171,2139171,17084,-344,1292,17136.24,29.99,-1.00,-1.0,2373
4176,2139176,16996,-356,1284,17048.15,30.04,-1.00,-1.0,2449
4179,2139179,17108,-336,1264,17157.92,29.99,-1.00,-1.0,2377
4182,2139182,17040,-328,1364,17097.65,30.08,-1.00,-1.0,2457
4184,2139184,17096,-344,1448,17160.66,30.08,-1.00,-1.0,2378
4187,2139187,16984,-360,1216,17031.28,30.04,-1.00,-1.0,2443
4190,2139190,17052,-400,1380,17112.43,30.04,-1.00,-1.0,2371
4193,2139193,16924,-308,1448,16988.62,30.04,-1.00,-1.0,2442
4195,2139195,16992,-440,1220,17041.42,30.04,-1.00,-1.0,2370
4200,2139200,17080,-248,1360,17135.85,30.04,-1.00,-1.0,2450
4203,2139203,17076,-236,1436,17137.90,30.04,-1.00,-1.0,2370
4206,2139206,17100,-236,1436,17161.81,30.04,-1.00,-1.0,2380
4209,2139209,16980,-256,1276,17029.80,29.99,-1.00,-1.0,2447
4211,2139211,17000,-228,1268,17048.75,30.08,-1.00,-1.0,2378
4214,2139214,17008,-276,1304,17060.15,29.94,-1.00,-1.0,2448
4217,2139217,17032,-352,1224,17079.55,29.99,-1.00,-1.0,2371
4220,2139220,17012,-396,1184,17057.75,30.04,-1.00,-1.0,2441
4222,2139222,16940,-380,1168,16984.47,30.13,-1.00,-1.0,2364
4227,2139227,17116,-448,1132,17159.24,29.94,-1.00,-1.0,2457
4230,2139230,17016,-368,1244,17065.38,30.13,-1.00,-1.0,2358
4233,2139233,17052,-424,1276,17104.93,30.04,-1.00,-1.0,2443
4236,2139236,16956,-408,1276,17008.84,30.04,-1.00,-1.0,2370
4238,2139238,16980,-232,1404,17039.53,29.99,-1.00,-1.0,2442
4241,2139241,16992,-208,1372,17048.57,30.04,-1.00,-1.0,2372
4244,2139244,17008,-64,1260,17054.73,29.99,-1.00,-1.0,2439
4247,2139247,17088,-200,1288,17137.64,30.08,-1.00,-1.0,2375
4249,2139249,17036,-136,1228,17080.74,29.99,-1.00,-1.0,2378
4254,2139254,17072,-236,1388,17129.96,29.99,-1.00,-1.0,2456
4257,2139257,17132,-272,1368,17188.68,29.99,-1.00,-1.0,2376
4260,2139260,17108,-144,1308,17158.53,30.04,-1.00,-1.0,2446
4263,2139263,16960,-260,1324,17013.59,29.94,-1.00,-1.0,2375
4265,2139265,17044,-276,1552,17116.74,30.04,-1.00,-1.0,2441
4268,2139268,17084,-264,1508,17152.46,30.04,-1.00,-1.0,2369
4271,2139271,16980,-180,1416,17039.89,30.04,-1.00,-1.0,2443
4274,2139274,16972,-148,1592,17047.14,29.94,-1.00,-1.0,2370
4279,2139279,16980,-52,1624,17057.56,30.04,-1.00,-1.0,2452
4281,2139281,17000,-128,1572,17073.01,30.04,-1.00,-1.0,2372
4284,2139284,16928,-140,1496,16994.55,29.99,-1.00,-1.0,2447
4287,2139287,17016,-56,1476,17079.99,29.94,-1.00,-1.0,2372
4290,2139290,16940,-368,1356,16998.17,30.04,-1.00,-1.0,2448
4292,2139292,16992,-296,1212,17037.74,29.99,-1.00,-1.0,2370
4295,2139295,17068,-392,1424,17131.79,29.94,-1.00,-1.0,2372
4298,2139298,17072,-400,1360,17130.76,29.85,-1.00,-1.0,2439
4301,2139301,17060,-500,1248,17112.89,30.04,-1.00,-1.0,2368
4306,2139306,16964,-420,1212,17012.43,30.04,-1.00,-1.0,2451
4308,2139308,16964,-476,1136,17008.66,29.94,-1.00,-1.0,2373
4311,2139311,16996,-424,1132,17038.93,29.99,-1.00,-1.0,2430
4314,2139314,17004,-392,1244,17053.95,30.04,-1.00,-1.0,2373
4317,2139317,17036,-344,1184,17080.56,29.99,-1.00,-1.0,2446
4319,2139319,17060,-396,1224,17108.44,29.99,-1.00,-1.0,2372
4322,2139322,17096,-512,1360,17157.65,30.08,-1.00,-1.0,2441
4325,2139325,17024,-452,1276,17077.74,29.99,-1.00,-1.0,2371
4330,2139330,17088,-372,1344,17144.81,29.99,-1.00,-1.0,2452
4333,2139333,17044,-492,1188,17092.44,30.08,-1.00,-1.0,2377
4336,2139336,17112,-464,1232,17162.57,29.94,-1.00,-1.0,2443
4338,2139338,17020,-456,1316,17076.89,29.94,-1.00,-1.0,2372
4341,2139341,17004,-344,1384,17063.70,30.04,-1.00,-1.0,2457
4344,2139344,16920,-284,1404,16980.53,29.94,-1.00,-1.0,2373
4346,2139346,16896,-248,1408,16956.38,30.08,-1.00,-1.0,2370
4349,2139349,17064,-252,1248,17111.43,29.99,-1.00,-1.0,2439
4352,2139352,17060,-288,1288,17110.98,30.08,-1.00,-1.0,2368
4357,2139357,17136,-132,1364,17190.71,29.99,-1.00,-1.0,2452
4360,2139360,17076,-224,1376,17132.81,29.89,-1.00,-1.0,2370
4363,2139363,17080,-252,1348,17134.96,29.94,-1.00,-1.0,2445
4365,2139365,16904,-244,1392,16962.97,30.04,-1.00,-1.0,2371
4368,2139368,16980,-172,1344,17033.97,30.04,-1.00,-1.0,2456
4371,2139371,17028,-264,1304,17079.90,30.04,-1.00,-1.0,2378
4374,2139374,17020,-276,1280,17070.29,29.99,-1.00,-1.0,2449
4376,2139376,16912,-236,1252,16959.92,29.99,-1.00,-1.0,2378
4381,2139381,16944,-120,1288,16993.31,29.94,-1.00,-1.0,2449
4384,2139384,17036,-300,1404,17096.39,30.04,-1.00,-1.0,2378
4387,2139387,17020,-176,1376,17076.44,30.08,-1.00,-1.0,2453
4389,2139389,17076,-292,1328,17130.05,29.99,-1.00,-1.0,2377
4392,2139392,17016,-284,1384,17074.55,29.89,-1.00,-1.0,2369
4395,2139395,17052,-340,1428,17115.07,30.04,-1.00,-1.0,2442
4397,2139397,17052,-336,1312,17105.70,30.04,-1.00,-1.0,2371
4400,2139400,17076,-360,1360,17133.86,29.94,-1.00,-1.0,2457
4403,2139403,17000,-364,1268,17051.11,30.04,-1.00,-1.0,2377
4408,2139408,17116,-352,1264,17166.22,30.04,-1.00,-1.0,2450
4411,2139411,17104,-400,1208,17151.27,29.94,-1.00,-1.0,2377
4414,2139414,17156,-388,1304,17209.86,30.08,-1.00,-1.0,2453
4416,2139416,17100,-284,1244,17147.54,29.94,-1.00,-1.0,2372
4419,2139419,17036,-424,1216,17084.61,29.99,-1.00,-1.0,2450
4422,2139422,16912,-332,1260,16962.12,29.94,-1.00,-1.0,2370
4425,2139425,16980,-336,1092,17018.39,29.99,-1.00,-1.0,2437
4427,2139427,16892,-332,1320,16946.75,29.99,-1.00,-1.0,2371
4432,2139432,17080,-200,1400,17138.45,29.99,-1.00,-1.0,2457
4435,2139435,16912,-236,1448,16975.52,30.08,-1.00,-1.0,2372
4438,2139438,17160,-292,1276,17209.85,30.04,-1.00,-1.0,2446
4441,2139441,17080,-300,1364,17137.00,30.08,-1.00,-1.0,2371
4443,2139443,17000,-324,1224,17047.09,29.94,-1.00,-1.0,2372
4446,2139446,16988,-192,1256,17035.45,29.99,-1.00,-1.0,2454
4449,2139449,16992,-372,1372,17051.36,29.94,-1.00,-1.0,2375
4452,2139452,17020,-352,1260,17070.21,29.89,-1.00,-1.0,2452
4454,2139454,16980,-336,1332,17035.48,29.99,-1.00,-1.0,2378
4459,2139459,17052,-212,1224,17097.19,29.99,-1.00,-1.0,2459
4462,2139462,17020,-240,1248,17067.38,29.99,-1.00,-1.0,2386
4465,2139465,17028,-228,1352,17083.11,29.99,-1.00,-1.0,2444
4468,2139468,17108,-256,1344,17162.62,29.99,-1.00,-1.0,2370
4470,2139470,17020,-296,1432,17082.70,29.94,-1.00,-1.0,2442
4473,2139473,17032,-244,1288,17082.38,30.04,-1.00,-1.0,2372
4476,2139476,17024,-284,1404,17084.16,30.08,-1.00,-1.0,2482
4479,2139479,17060,-384,1252,17110.19,30.08,-1.00,-1.0,2373
4484,2139484,17000,-324,1320,17054.25,29.99,-1.00,-1.0,2438
4487,2139487,17212,-344,1208,17257.77,29.99,-1.00,-1.0,2377
4489,2139489,16988,-416,1220,17036.83,30.04,-1.00,-1.0,2371
4492,2139492,17016,-152,1244,17062.09,29.94,-1.00,-1.0,2444
4495,2139495,16948,-364,1312,17002.60,29.94,-1.00,-1.0,2378
4498,2139498,16980,-252,1308,17032.17,29.99,-1.00,-1.0,2442
4500,2139500,17020,-292,1176,17063.08,29.99,-1.00,-1.0,2372
4503,2139503,17012,-248,1272,17061.29,30.08,-1.00,-1.0,2453
4506,2139506,17056,-344,1228,17103.61,29.99,-1.00,-1.0,2376
4511,2139511,16984,-372,1208,17030.97,29.85,-1.00,-1.0,2455
4513,2139513,17144,-400,1352,17201.88,29.99,-1.00,-1.0,2370
4516,2139516,17120,-460,1372,17181.05,29.99,-1.00,-1.0,2453
4519,2139519,3192,-26336,-15948,30953.39,30.08,-1.00,-1.0,2386
4522,2139522,32767,32767,13136,nan,30.04,-1.00,-1.0,2433
4525,2139525,18636,-556,-6028,19594.55,29.99,-1.00,-1.0,2369
4527,2139527,7604,1124,9064,11884.46,30.04,-1.00,-1.0,2436
4530,2139530,18564,-5188,5816,20133.64,30.04,-1.00,-1.0,2369
4535,2139535,17940,14788,-7140,24320.94,30.13,-1.00,-1.0,2453
4538,2139538,26336,-3092,7308,27505.49,29.94,-1.00,-1.0,2369
4540,2139540,10628,-7208,2480,13078.99,30.04,-1.00,-1.0,2368
4543,2139543,16684,-1104,-8628,18815.34,29.99,-1.00,-1.0,2441
4546,2139546,16904,-5168,4476,18234.25,30.08,-1.00,-1.0,2370
4549,2139549,17028,1168,6580,18292.44,30.08,-1.00,-1.0,2445
4552,2139552,19948,608,676,19968.71,29.99,-1.00,-1.0,2373
4554,2139554,14396,8624,5568,17681.09,30.04,-1.00,-1.0,2444
4557,2139557,22516,-2020,1732,22672.68,29.99,-1.00,-1.0,2384
4562,2139562,14336,3120,-136,14672.21,30.04,-1.00,-1.0,2447
4565,2139565,18000,-5756,4412,19406.12,29.94,-1.00,-1.0,2370
4567,2139567,15888,2912,1304,16205.21,29.99,-1.00,-1.0,2442
4570,2139570,19096,-4512,660,19632.90,30.04,-1.00,-1.0,2361
4573,2139573,18296,-2480,-1568,18529.78,29.99,-1.00,-1.0,2436
4576,2139576,15972,-1992,2516,16291.20,30.04,-1.00,-1.0,2376
4579,2139579,17268,-3244,828,17589.57,29.99,-1.00,-1.0,2435
4581,2139581,15380,292,-2556,15593.68,29.99,-1.00,-1.0,2371
4586,2139586,18024,-1648,-2504,18271.58,30.08,-1.00,-1.0,2446
4589,2139589,17532,-944,336,17560.61,29.94,-1.00,-1.0,2372
4591,2139591,18820,-668,2756,19032.45,29.99,-1.00,-1.0,2441
4594,2139594,14780,836,-784,14824.37,29.99,-1.00,-1.0,2370
4597,2139597,15400,-1016,1764,15533.96,30.04,-1.00,-1.0,2357
4600,2139600,15348,-716,2060,15502.17,30.04,-1.00,-1.0,2447
4602,2139602,19528,1820,1928,19707.17,30.04,-1.00,-1.0,2379
4605,2139605,17792,-432,1832,17891.29,29.99,-1.00,-1.0,2436
4608,2139608,16724,996,608,16764.66,29.94,-1.00,-1.0,2370
4613,2139613,17884,-1224,1532,17991.18,29.94,-1.00,-1.0,2447
4616,2139616,17820,88,1284,17866.42,30.04,-1.00,-1.0,2372
4618,2139618,18692,-868,392,18716.25,29.99,-1.00,-1.0,2441
4621,2139621,15220,-928,1148,15291.42,29.99,-1.00,-1.0,2371
4624,2139624,15496,-844,2696,15751.41,29.99,-1.00,-1.0,2437
4627,2139627,16716,264,2132,16853.48,29.89,-1.00,-1.0,2377
4630,2139630,17208,-20,876,17230.29,29.94,-1.00,-1.0,2438
4632,2139632,17292,-312,2012,17411.46,29.99,-1.00,-1.0,2371
4635,2139635,16412,1612,1072,16525.78,30.04,-1.00,-1.0,2369
4640,2139640,17192,464,828,17218.18,29.94,-1.00,-1.0,2454
4643,2139643,17084,-600,696,17108.70,30.04,-1.00,-1.0,2377
4645,2139645,17792,16,1552,17859.57,29.99,-1.00,-1.0,2441
4648,2139648,16668,588,956,16705.74,29.99,-1.00,-1.0,2371
4651,2139651,17468,-1584,1216,17581.77,30.08,-1.00,-1.0,2439
4654,2139654,17272,-228,1372,17327.91,30.04,-1.00,-1.0,2371
4656,2139656,16612,-1132,1256,16697.83,30.04,-1.00,-1.0,2437
4659,2139659,17444,-1596,1020,17546.53,30.08,-1.00,-1.0,2370
4664,2139664,17260,24,1568,17331.09,29.99,-1.00,-1.0,2445
4667,2139667,16832,-868,1300,16904.43,29.99,-1.00,-1.0,2370
4670,2139670,16632,-100,372,16636.46,30.04,-1.00,-1.0,2430
4672,2139672,16608,700,2696,16839.96,29.99,-1.00,-1.0,2371
4675,2139675,16920,-528,912,16952.79,29.94,-1.00,-1.0,2454
4678,2139678,17508,684,1628,17596.83,29.94,-1.00,-1.0,2377
4681,2139681,16916,-456,1328,16974.17,30.04,-1.00,-1.0,2370
4683,2139683,17368,-652,1700,17463.18,30.08,-1.00,-1.0,2438
4686,2139686,17040,932,1512,17132.32,30.08,-1.00,-1.0,2371
4691,2139691,17524,-280,1492,17589.63,29.99,-1.00,-1.0,2445
4694,2139694,16872,-1272,940,16945.97,30.08,-1.00,-1.0,2372
4697,2139697,17144,-436,1068,17182.77,30.08,-1.00,-1.0,2444
4699,2139699,17028,-576,908,17061.92,29.99,-1.00,-1.0,2371
4702,2139702,17076,-1132,940,17139.28,29.94,-1.00,-1.0,2441
4705,2139705,16880,96,1312,16931.18,30.04,-1.00,-1.0,2372
4708,2139708,17008,-912,1096,17067.66,30.04,-1.00,-1.0,2443
4710,2139710,16832,-244,1100,16869.67,30.04,-1.00,-1.0,2369
4717,2139717,17116,356,1268,17166.60,29.94,-1.00,-1.0,2445
4720,2139720,17124,-604,1288,17182.99,30.08,-1.00,-1.0,2371
4723,2139723,17216,188,1376,17271.92,30.04,-1.00,-1.0,2431
4725,2139725,17052,-316,1212,17097.94,30.13,-1.00,-1.0,2373
4728,2139728,17116,-128,1012,17146.37,30.08,-1.00,-1.0,2383
4731,2139731,16812,-444,1424,16878.04,30.08,-1.00,-1.0,2439
4734,2139734,16836,-788,752,16871.20,29.99,-1.00,-1.0,2370
4736,2139736,16892,-152,1200,16935.25,30.04,-1.00,-1.0,2436
4739,2139739,17068,-624,1456,17141.35,29.99,-1.00,-1.0,2372
4744,2139744,17064,-256,1536,17134.90,30.08,-1.00,-1.0,2446
4747,2139747,17204,-272,1928,17313.83,29.99,-1.00,-1.0,2374
4750,2139750,17156,-284,1800,17252.51,30.04,-1.00,-1.0,2445
4752,2139752,17004,268,1568,17078.25,29.94,-1.00,-1.0,2373
4755,2139755,17004,140,1696,17088.95,30.04,-1.00,-1.0,2438
4758,2139758,17148,392,1792,17245.84,30.04,-1.00,-1.0,2373
4761,2139761,16912,-208,1476,16977.56,29.99,-1.00,-1.0,2442
4764,2139764,17000,24,1460,17062.60,29.94,-1.00,-1.0,2372
4766,2139766,16948,-236,1496,17015.54,29.99,-1.00,-1.0,2356
4771,2139771,16984,-584,1200,17036.35,29.99,-1.00,-1.0,2455
4774,2139774,16972,-864,800,17012.80,29.99,-1.00,-1.0,2373
4777,2139777,17184,-540,1204,17234.59,30.04,-1.00,-1.0,2441
4779,2139779,17356,-576,1412,17422.87,29.94,-1.00,-1.0,2374
4782,2139782,17288,-540,1324,17347.03,30.04,-1.00,-1.0,2438
4785,2139785,17044,-432,1440,17110.18,30.04,-1.00,-1.0,2372
4788,2139788,16984,-688,1312,17048.49,29.99,-1.00,-1.0,2444
4790,2139790,17028,-148,1008,17058.45,30.04,-1.00,-1.0,2372
4795,2139795,17080,-708,1268,17141.63,30.04,-1.00,-1.0,2446
4798,2139798,16992,-164,1120,17029.66,30.04,-1.00,-1.0,2373
4801,2139801,16992,-384,1212,17039.50,29.94,-1.00,-1.0,2447
4803,2139803,16996,-424,1136,17039.20,30.04,-1.00,-1.0,2374
4806,2139806,17104,-688,1304,17167.43,30.08,-1.00,-1.0,2454
4809,2139809,17088,-576,1312,17147.97,29.99,-1.00,-1.0,2380
4812,2139812,17136,-640,1224,17191.58,29.99,-1.00,-1.0,2425
4815,2139815,17128,-504,1268,17182.27,29.99,-1.00,-1.0,2376
4817,2139817,17020,-356,1392,17080.54,29.94,-1.00,-1.0,2368
4822,2139822,16800,-324,1392,16860.68,30.13,-1.00,-1.0,2452
4825,2139825,16820,-164,1344,16874.41,29.99,-1.00,-1.0,2375
4828,2139828,16888,72,1188,16929.89,29.85,-1.00,-1.0,2441
4830,2139830,17000,144,1384,17056.85,30.04,-1.00,-1.0,2375
4833,2139833,17056,264,1584,17131.43,29.99,-1.00,-1.0,2436
4836,2139836,17124,104,1436,17184.42,29.94,-1.00,-1.0,2372
4839,2139839,17192,-112,1548,17261.92,29.99,-1.00,-1.0,2442
4841,2139841,17072,-52,1420,17131.03,30.04,-1.00,-1.0,2373
4846,2139846,16940,-148,1176,16981.42,30.04,-1.00,-1.0,2445
4849,2139849,16984,-212,1364,17040.00,29.94,-1.00,-1.0,2372
4852,2139852,17024,-288,1336,17078.77,30.08,-1.00,-1.0,2439
4855,2139855,16964,0,1192,17005.83,29.89,-1.00,-1.0,2377
4857,2139857,16900,-388,1060,16937.65,29.94,-1.00,-1.0,2376
4860,2139860,16928,-16,1012,16958.23,29.94,-1.00,-1.0,2438
4863,2139863,16952,60,1220,16995.95,30.04,-1.00,-1.0,2373
4866,2139866,16968,-68,1348,17021.60,30.08,-1.00,-1.0,2442
4868,2139868,17052,-228,1276,17101.20,30.04,-1.00,-1.0,2372
4873,2139873,17112,-412,1524,17184.67,30.04,-1.00,-1.0,2432
4876,2139876,17036,-508,1336,17095.86,29.94,-1.00,-1.0,2372
4879,2139879,17060,-740,1100,17111.44,30.08,-1.00,-1.0,2441
4882,2139882,16940,-820,1088,16994.70,30.04,-1.00,-1.0,2372
4884,2139884,17072,-612,1124,17119.90,29.99,-1.00,-1.0,2437
4887,2139887,17108,-692,1004,17151.40,29.99,-1.00,-1.0,2370
4890,2139890,16912,-796,1036,16962.39,29.99,-1.00,-1.0,2437
4893,2139893,17116,-416,1092,17155.84,30.08,-1.00,-1.0,2378
4898,2139898,17116,-348,1384,17175.39,29.99,-1.00,-1.0,2451
4900,2139900,17120,-308,1544,17192.24,30.04,-1.00,-1.0,2371
4903,2139903,17124,-324,1472,17190.21,29.99,-1.00,-1.0,2377
4906,2139906,17052,-200,1712,17138.89,30.04,-1.00,-1.0,2442
4909,2139909,16928,-304,1552,17001.71,29.94,-1.00,-1.0,2373
4911,2139911,16912,-228,1336,16966.22,30.04,-1.00,-1.0,2439
4914,2139914,16992,-108,1272,17039.89,29.94,-1.00,-1.0,2371
4917,2139917,17008,-144,1376,17064.18,29.89,-1.00,-1.0,2436
4920,2139920,17168,-148,1208,17211.08,30.08,-1.00,-1.0,2369
4925,2139925,17112,-192,1312,17163.30,29.94,-1.00,-1.0,2446
4927,2139927,17100,-132,1432,17160.36,30.04,-1.00,-1.0,2358
4930,2139930,17088,44,1400,17145.31,29.99,-1.00,-1.0,2442
4933,2139933,17032,136,1444,17093.64,29.99,-1.00,-1.0,2373
4936,2139936,17032,-52,1512,17099.06,30.08,-1.00,-1.0,2438
4938,2139938,17024,64,1440,17084.91,29.99,-1.00,-1.0,2370
4941,2139941,16968,0,1468,17031.38,29.94,-1.00,-1.0,2444
4944,2139944,17008,68,1508,17074.86,29.99,-1.00,-1.0,2371
4947,2139947,17072,-172,1464,17135.52,29.94,-1.00,-1.0,2371
4952,2139952,17052,-496,1256,17105.39,30.04,-1.00,-1.0,2449
4954,2139954,17080,-564,1312,17139.60,30.04,-1.00,-1.0,2382
4957,2139957,17136,-460,1412,17200.23,30.08,-1.00,-1.0,2440
4960,2139960,17052,-476,1160,17098.04,30.08,-1.00,-1.0,2371
4963,2139963,17264,-504,1148,17309.47,29.99,-1.00,-1.0,2437
4965,2139965,17028,-548,1152,17075.72,29.99,-1.00,-1.0,2370
4968,2139968,16964,-536,1140,17010.71,30.08,-1.00,-1.0,2439
4971,2139971,17020,-484,1060,17059.84,30.08,-1.00,-1.0,2370
4978,2139978,17004,-236,1004,17035.25,30.13,-1.00,-1.0,2464
4981,2139981,16952,-264,1060,16987.16,30.04,-1.00,-1.0,2387
4983,2139983,17024,-340,1184,17068.51,30.08,-1.00,-1.0,2438
4986,2139986,17036,-436,1120,17078.34,30.08,-1.00,-1.0,2374
4989,2139989,16964,-376,1104,17004.04,30.08,-1.00,-1.0,2437
4992,2139992,16988,-580,1264,17044.83,29.99,-1.00,-1.0,2371
4994,2139994,17076,-520,1192,17125.45,30.04,-1.00,-1.0,2372
4997,2139997,17128,-484,1308,17184.69,30.08,-1.00,-1.0,2447
5000,2140000,17100,-456,1292,17154.80,29.94,-1.00,-1.0,2372
5005,2140005,16956,-248,1236,17002.80,30.04,-1.00,-1.0,2449
5007,2140007,16888,-256,1312,16940.82,29.94,-1.00,-1.0,2379
5010,2140010,16760,-124,1408,16819.50,29.99,-1.00,-1.0,2445
5013,2140013,16996,-184,1272,17044.53,29.99,-1.00,-1.0,2373
5016,2140016,16992,36,1392,17048.96,29.99,-1.00,-1.0,2437
5018,2140018,16980,-60,1356,17034.16,29.99,-1.00,-1.0,2371
5021,2140021,17032,-236,1528,17102.03,29.94,-1.00,-1.0,2436
5024,2140024,17028,-196,1488,17094.02,29.99,-1.00,-1.0,2369
5029,2140029,17068,-220,1600,17144.24,29.99,-1.00,-1.0,2445
5032,2140032,17096,-508,1324,17154.71,30.08,-1.00,-1.0,2373
5034,2140034,17048,-248,1392,17106.53,30.04,-1.00,-1.0,2440
5037,2140037,17100,-276,1360,17156.22,30.04,-1.00,-1.0,2373
5040,2140040,17020,-384,1116,17060.87,30.04,-1.00,-1.0,2371
5043,2140043,17112,-396,1108,17152.41,30.08,-1.00,-1.0,2445
5045,2140045,16952,-356,1160,16995.37,30.04,-1.00,-1.0,2377
5048,2140048,17044,-284,1160,17085.79,30.04,-1.00,-1.0,2438
5051,2140051,17144,-240,1276,17193.10,29.99,-1.00,-1.0,2371
5056,2140056,16996,-232,1332,17049.69,30.08,-1.00,-1.0,2449
5059,2140059,16916,-288,1316,16969.56,30.08,-1.00,-1.0,2377
5061,2140061,17012,-344,1212,17058.59,30.04,-1.00,-1.0,2438
5064,2140064,16944,-456,1324,17001.77,30.08,-1.00,-1.0,2370
5067,2140067,17048,-308,1280,17098.76,30.04,-1.00,-1.0,2439
5070,2140070,17032,-436,1332,17089.57,29.94,-1.00,-1.0,2372
5073,2140073,17056,-352,1224,17103.49,30.04,-1.00,-1.0,2437
5075,2140075,17072,-336,1476,17138.98,29.94,-1.00,-1.0,2372
5080,2140080,17148,-320,1392,17207.38,30.04,-1.00,-1.0,2445
5083,2140083,17152,-312,1356,17208.35,30.04,-1.00,-1.0,2372
5086,2140086,17104,-276,1284,17154.35,30.08,-1.00,-1.0,2372
5088,2140088,16948,-308,1252,16996.97,29.99,-1.00,-1.0,2448
5091,2140091,16944,-128,1440,17005.56,29.99,-1.00,-1.0,2361
5094,2140094,16892,-196,1420,16952.71,29.94,-1.00,-1.0,2437
5097,2140097,16932,-212,1536,17002.85,30.08,-1.00,-1.0,2369
5099,2140099,16976,-88,1348,17029.66,29.94,-1.00,-1.0,2437
5102,2140102,17096,-232,1452,17159.12,30.04,-1.00,-1.0,2370
5107,2140107,17072,-280,1356,17128.06,30.04,-1.00,-1.0,2453
5110,2140110,17056,-360,1272,17107.15,29.99,-1.00,-1.0,2376
5113,2140113,17024,-444,1300,17079.34,30.04,-1.00,-1.0,2443
5115,2140115,17032,-432,1208,17080.25,30.04,-1.00,-1.0,2373
5118,2140118,17044,-436,1228,17093.74,30.04,-1.00,-1.0,2440
5121,2140121,16936,-340,1172,16979.91,30.04,-1.00,-1.0,2371
5124,2140124,16944,-412,1224,16993.15,30.08,-1.00,-1.0,2442
5126,2140126,17120,-332,1096,17158.26,29.99,-1.00,-1.0,2369
5131,2140131,17068,-136,1104,17104.21,29.99,-1.00,-1.0,2445
5134,2140134,17004,-344,1236,17052.33,29.94,-1.00,-1.0,2374
5137,2140137,17080,-328,1312,17133.46,29.99,-1.00,-1.0,2372
5140,2140140,17108,-272,1452,17171.66,30.04,-1.00,-1.0,2446
5142,2140142,17088,-248,1360,17143.83,29.94,-1.00,-1.0,2375
5145,2140145,17032,-400,1488,17101.55,30.04,-1.00,-1.0,2436
5148,2140148,17044,-396,1460,17111.00,30.04,-1.00,-1.0,2372
5151,2140151,17012,-264,1312,17064.56,29.99,-1.00,-1.0,2444
5153,2140153,17028,-260,1332,17082.00,30.04,-1.00,-1.0,2374
5158,2140158,16964,-312,1356,17020.97,30.04,-1.00,-1.0,2446
5161,2140161,16884,-216,1364,16940.38,30.04,-1.00,-1.0,2375
5164,2140164,17088,-336,1456,17153.21,30.08,-1.00,-1.0,2437
5167,2140167,17164,-212,1428,17224.61,30.08,-1.00,-1.0,2378
5170,2140170,17048,-216,1292,17098.25,29.99,-1.00,-1.0,2437
5172,2140172,17052,-292,1372,17109.60,29.99,-1.00,-1.0,2373
5175,2140175,17076,-172,1392,17133.51,29.94,-1.00,-1.0,2446
5178,2140178,16976,-360,1252,17025.91,29.99,-1.00,-1.0,2372
5180,2140180,17028,-248,1292,17078.75,30.13,-1.00,-1.0,2368
5185,2140185,17096,-324,1104,17134.67,30.04,-1.00,-1.0,2444
5188,2140188,17164,-464,1216,17213.28,30.08,-1.00,-1.0,2372
5191,2140191,17068,-392,1160,17111.86,29.99,-1.00,-1.0,2445
5193,2140193,17116,-444,1188,17162.92,29.89,-1.00,-1.0,2372
5196,2140196,17084,-400,1204,17131.04,29.94,-1.00,-1.0,2445
5199,2140199,16964,-352,1068,17001.23,29.94,-1.00,-1.0,2387
5202,2140202,17044,-204,1320,17096.26,29.94,-1.00,-1.0,2437
5205,2140205,17000,-416,1244,17050.53,30.04,-1.00,-1.0,2371
5209,2140209,16932,-184,1224,16977.18,29.99,-1.00,-1.0,2433
5212,2140212,16976,-192,1184,17018.32,29.94,-1.00,-1.0,2376
5215,2140215,17020,-240,1268,17068.86,30.08,-1.00,-1.0,2437
5218,2140218,17036,-236,1256,17083.87,29.99,-1.00,-1.0,2372
5221,2140221,17132,-144,1156,17171.56,30.04,-1.00,-1.0,2451
5223,2140223,17024,-312,1296,17076.11,30.04,-1.00,-1.0,2380
5226,2140226,17064,-140,1344,17117.42,30.04,-1.00,-1.0,2445
5229,2140229,17124,-256,1468,17188.71,30.04,-1.00,-1.0,2357
5231,2140231,17020,-164,1392,17077.62,29.99,-1.00,-1.0,2369
5236,2140236,17124,-236,1292,17174.29,30.04,-1.00,-1.0,2448
5239,2140239,17036,-96,1492,17101.48,30.04,-1.00,-1.0,2373
5242,2140242,16976,-68,1444,17037.44,30.08,-1.00,-1.0,2439
5245,2140245,17016,-24,1516,17083.42,30.08,-1.00,-1.0,2371
5247,2140247,17068,-4,1480,17132.05,29.99,-1.00,-1.0,2437
5250,2140250,17008,-112,1556,17079.39,30.08,-1.00,-1.0,2371
5253,2140253,16916,-76,1512,16983.61,30.04,-1.00,-1.0,2438
5256,2140256,16976,-280,1496,17044.09,29.89,-1.00,-1.0,2378
5261,2140261,17112,-352,1408,17173.44,29.89,-1.00,-1.0,2451
5263,2140263,17016,-432,1368,17076.37,29.99,-1.00,-1.0,2374
5266,2140266,17072,-532,1256,17126.40,29.94,-1.00,-1.0,2440
5269,2140269,17028,-536,1220,17080.06,30.08,-1.00,-1.0,2371
5272,2140272,17032,-468,1280,17086.44,29.94,-1.00,-1.0,2375
5274,2140274,17092,-396,1268,17143.54,29.99,-1.00,-1.0,2439
5277,2140277,17008,-408,1368,17067.80,30.04,-1.00,-1.0,2371
5280,2140280,17036,-508,1180,17084.37,30.08,-1.00,-1.0,2435
5283,2140283,17000,-296,1356,17056.56,29.99,-1.00,-1.0,2369
5288,2140288,17164,-396,1268,17215.33,29.99,-1.00,-1.0,2448
5290,2140290,17096,-392,1264,17147.14,29.89,-1.00,-1.0,2381
5293,2140293,17124,-404,1216,17171.87,29.99,-1.00,-1.0,2440
5296,2140296,17000,-472,1224,17050.54,29.99,-1.00,-1.0,2371
5299,2140299,16980,-428,1104,17021.23,29.94,-1.00,-1.0,2443
5301,2140301,16980,-420,1288,17033.96,29.99,-1.00,-1.0,2370
5304,2140304,17040,-372,1300,17093.57,30.04,-1.00,-1.0,2441
5307,2140307,16848,-312,1292,16900.35,30.04,-1.00,-1.0,2371
5312,2140312,17060,-328,1380,17118.87,29.99,-1.00,-1.0,2447
5315,2140315,17032,-124,1348,17085.71,29.99,-1.00,-1.0,2373
5318,2140318,16956,-60,1380,17012.17,29.94,-1.00,-1.0,2437
5320,2140320,17056,-228,1300,17106.99,30.04,-1.00,-1.0,2371
5323,2140323,17044,-200,1436,17105.55,29.99,-1.00,-1.0,2368
5326,2140326,16976,-196,1240,17022.36,29.99,-1.00,-1.0,2438
5328,2140328,17048,-204,1372,17104.34,30.08,-1.00,-1.0,2366
5331,2140331,17132,-256,1260,17180.18,29.89,-1.00,-1.0,2424
5334,2140334,17008,-236,1392,17066.50,29.89,-1.00,-1.0,2368
5339,2140339,17052,-224,1288,17102.04,30.08,-1.00,-1.0,2433
5342,2140342,17048,-300,1164,17090.32,29.99,-1.00,-1.0,2380
5344,2140344,17092,-216,1356,17147.07,29.99,-1.00,-1.0,2439
5347,2140347,17044,-148,1192,17086.27,29.99,-1.00,-1.0,2372
5350,2140350,17132,-312,1196,17176.53,30.13,-1.00,-1.0,2438
5353,2140353,17076,-164,1424,17136.06,29.99,-1.00,-1.0,2370
5355,2140355,17056,-248,1464,17120.51,30.04,-1.00,-1.0,2437
5358,2140358,17068,-224,1432,17129.43,29.94,-1.00,-1.0,2370
5363,2140363,17044,-368,1452,17109.70,29.94,-1.00,-1.0,2446
5366,2140366,17008,-308,1368,17065.71,29.99,-1.00,-1.0,2374
5368,2140368,17044,-384,1348,17101.54,30.04,-1.00,-1.0,2370
5371,2140371,17088,-336,1404,17148.87,29.99,-1.00,-1.0,2447
5374,2140374,16944,-408,1420,17008.29,30.04,-1.00,-1.0,2386
5377,2140377,17112,-400,1292,17165.37,29.99,-1.00,-1.0,2439
5380,2140380,17028,-456,1340,17086.73,30.08,-1.00,-1.0,2372
5382,2140382,17032,-396,1296,17085.83,30.04,-1.00,-1.0,2436
5385,2140385,17024,-368,1252,17073.94,29.99,-1.00,-1.0,2369
5390,2140390,16948,-416,1156,16992.47,29.94,-1.00,-1.0,2445
5393,2140393,16932,-264,1236,16979.11,30.04,-1.00,-1.0,2372
5396,2140396,16992,-292,1340,17047.26,29.99,-1.00,-1.0,2439
5398,2140398,17024,-328,1232,17071.67,30.04,-1.00,-1.0,2375
5401,2140401,16968,-244,1376,17025.45,30.08,-1.00,-1.0,2447
5404,2140404,17084,-336,1336,17139.45,29.99,-1.00,-1.0,2373
5407,2140407,17148,-296,1360,17204.39,29.99,-1.00,-1.0,2445
5409,2140409,17012,-408,1236,17061.72,29.99,-1.00,-1.0,2378
5414,2140414,17000,-296,1128,17039.95,30.04,-1.00,-1.0,2446
5417,2140417,17044,-320,1296,17096.20,29.99,-1.00,-1.0,2383
5419,2140419,16980,-308,1224,17026.84,29.99,-1.00,-1.0,2376
5422,2140422,17004,-276,1232,17050.81,30.04,-1.00,-1.0,2426
5425,2140425,16972,-200,1288,17021.98,30.04,-1.00,-1.0,2371
5428,2140428,17028,-216,1364,17083.91,29.94,-1.00,-1.0,2445
5430,2140430,17108,-208,1212,17152.14,30.13,-1.00,-1.0,2371
5433,2140433,17060,-236,1312,17112.00,29.99,-1.00,-1.0,2438
5436,2140436,16972,-212,1484,17038.07,30.04,-1.00,-1.0,2369
5441,2140441,17032,-264,1280,17082.07,30.04,-1.00,-1.0,2446
5444,2140444,17020,-292,1460,17085.00,30.04,-1.00,-1.0,2373
5447,2140447,16984,-252,1436,17046.46,30.08,-1.00,-1.0,2440
5449,2140449,17004,-332,1308,17057.46,29.99,-1.00,-1.0,2373
5452,2140452,17028,-324,1396,17088.20,29.99,-1.00,-1.0,2453
5455,2140455,16992,-272,1368,17049.15,30.08,-1.00,-1.0,2377
5458,2140458,17016,-324,1228,17063.33,29.94,-1.00,-1.0,2447
5460,2140460,17096,-260,1316,17148.55,29.94,-1.00,-1.0,2378
5463,2140463,17252,-368,1224,17299.28,29.94,-1.00,-1.0,2369
5468,2140468,912,-12036,10696,16127.66,30.04,-1.00,-1.0,2446
5471,2140471,27176,15224,1716,31196.95,30.04,-1.00,-1.0,2374
5473,2140473,22280,10036,21032,32240.73,29.99,-1.00,-1.0,2437
5476,2140476,6300,308,13948,15307.89,29.99,-1.00,-1.0,2374
5479,2140479,25308,12940,4516,28780.77,29.99,-1.00,-1.0,2438
5482,2140482,11496,-1820,-1432,11726.94,29.99,-1.00,-1.0,2374
5485,2140485,12296,-5496,7216,15279.67,30.04,-1.00,-1.0,2449
5487,2140487,6524,-10220,3044,12501.08,29.89,-1.00,-1.0,2378
5492,2140492,11552,-5752,5168,13901.17,30.08,-1.00,-1.0,2448
5495,2140495,9280,10268,864,13867.11,30.08,-1.00,-1.0,2379
5498,2140498,17744,-7540,-1764,19360.08,30.04,-1.00,-1.0,2441
5501,2140501,24032,22360,3632,33025.72,30.04,-1.00,-1.0,2373
5503,2140503,18576,-6832,2316,19927.56,30.04,-1.00,-1.0,2438
5506,2140506,10432,7436,1052,12854.08,30.04,-1.00,-1.0,2370
5509,2140509,11288,16,552,11301.50,30.04,-1.00,-1.0,2437
5512,2140512,19500,1584,5476,20316.14,30.04,-1.00,-1.0,2371
5517,2140517,16556,-4484,2016,17270.54,30.04,-1.00,-1.0,2447
5519,2140519,15576,68,-396,15581.18,30.04,-1.00,-1.0,2377
5522,2140522,16176,-152,1424,16239.27,29.99,-1.00,-1.0,2370
5525,2140525,17588,-1508,-1344,17703.62,30.04,-1.00,-1.0,2445
5528,2140528,17480,68,932,17504.96,29.99,-1.00,-1.0,2370
5530,2140530,20572,388,2096,20682.14,29.94,-1.00,-1.0,2443
5533,2140533,17424,-2604,-2156,17748.94,30.04,-1.00,-1.0,2387
5536,2140536,17768,-1832,1412,17917.92,30.04,-1.00,-1.0,2435
5539,2140539,16924,-1868,1680,17109.46,30.04,-1.00,-1.0,2370
5544,2140544,16400,-1532,2292,16630.10,29.94,-1.00,-1.0,2449
5546,2140546,15940,700,484,15962.70,30.04,-1.00,-1.0,2381
5549,2140549,19776,284,2876,19986.05,29.99,-1.00,-1.0,2424
5552,2140552,17016,516,1392,17080.64,30.04,-1.00,-1.0,2373
5555,2140555,17480,644,1252,17536.61,30.08,-1.00,-1.0,2443
5557,2140557,16596,644,212,16609.84,29.99,-1.00,-1.0,2372
5560,2140560,17840,-872,1220,17902.92,29.94,-1.00,-1.0,2439
5563,2140563,18288,-520,1216,18335.76,29.89,-1.00,-1.0,2372
5566,2140566,16156,-512,504,16171.97,30.04,-1.00,-1.0,2372
5571,2140571,17524,528,1792,17623.30,29.94,-1.00,-1.0,2445
5573,2140573,18432,-1196,2400,18626.03,29.94,-1.00,-1.0,2379
5576,2140576,17860,340,936,17887.74,29.99,-1.00,-1.0,2446
5579,2140579,16940,-328,1972,17057.55,29.94,-1.00,-1.0,2376
5582,2140582,17088,1744,1376,17231.79,30.08,-1.00,-1.0,2436
5584,2140584,16856,1576,1648,17009.54,30.08,-1.00,-1.0,2372
5587,2140587,17116,736,1300,17181.07,29.99,-1.00,-1.0,2435
5590,2140590,16556,-584,752,16583.36,29.99,-1.00,-1.0,2371
5595,2140595,17104,-416,584,17119.02,29.94,-1.00,-1.0,2449
5597,2140597,17108,-200,1808,17204.43,30.04,-1.00,-1.0,2379
5600,2140600,17336,-888,1484,17422.05,29.94,-1.00,-1.0,2449
5603,2140603,16960,-124,1100,16996.09,30.04,-1.00,-1.0,2386
5606,2140606,17328,-1320,800,17396.61,29.99,-1.00,-1.0,2368
5608,2140608,16580,-1132,1136,16657.38,30.04,-1.00,-1.0,2437
5611,2140611,16940,-496,1260,16994.04,29.99,-1.00,-1.0,2372
5614,2140614,16936,-696,1596,17025.27,29.94,-1.00,-1.0,2435
5617,2140617,16804,432,812,16829.15,30.13,-1.00,-1.0,2377
5622,2140622,17064,-496,1000,17100.47,30.08,-1.00,-1.0,2448
5624,2140624,17196,948,1540,17290.83,30.08,-1.00,-1.0,2380
5627,2140627,16572,-608,1436,16645.21,29.99,-1.00,-1.0,2439
5630,2140630,17212,112,1248,17257.55,29.99,-1.00,-1.0,2371
5633,2140633,17032,300,1300,17084.17,30.04,-1.00,-1.0,2442
5635,2140635,17024,-488,832,17051.30,30.08,-1.00,-1.0,2371
5638,2140638,17168,100,1372,17223.03,29.94,-1.00,-1.0,2438
5641,2140641,17044,-1672,928,17150.94,30.04,-1.00,-1.0,2370
5646,2140646,16908,-300,680,16924.33,29.99,-1.00,-1.0,2446
5649,2140649,17184,-816,1036,17234.53,30.08,-1.00,-1.0,2375
5651,2140651,16972,480,964,17006.13,30.04,-1.00,-1.0,2371
5654,2140654,17116,-700,1664,17210.94,29.99,-1.00,-1.0,2452
5657,2140657,16768,-288,1320,16822.34,29.94,-1.00,-1.0,2373
5660,2140660,16968,-700,1836,17081.39,29.99,-1.00,-1.0,2445
5662,2140662,17016,-232,1488,17082.51,29.99,-1.00,-1.0,2378
5665,2140665,16956,284,1240,17003.65,30.04,-1.00,-1.0,2422
5668,2140668,17240,-316,1364,17296.76,30.08,-1.00,-1.0,2372
5673,2140673,17044,-408,1100,17084.33,30.04,-1.00,-1.0,2434
5676,2140676,17036,-352,1152,17078.53,29.99,-1.00,-1.0,2380
5678,2140678,16936,-200,1224,16981.35,29.99,-1.00,-1.0,2440
5681,2140681,16836,-688,600,16860.73,29.99,-1.00,-1.0,2371
5684,2140684,16852,-164,980,16881.27,30.04,-1.00,-1.0,2438
5687,2140687,17008,-644,1512,17087.21,29.94,-1.00,-1.0,2370
5689,2140689,17068,-596,1548,17148.42,30.04,-1.00,-1.0,2439
5692,2140692,17092,-136,1728,17179.67,29.94,-1.00,-1.0,2372
5695,2140695,17000,-176,2172,17139.09,29.94,-1.00,-1.0,2377
5700,2140700,16936,140,1348,16990.14,30.04,-1.00,-1.0,2454
5702,2140702,16996,12,1452,17057.91,29.94,-1.00,-1.0,2373
5705,2140705,17052,424,1440,17117.95,30.08,-1.00,-1.0,2447
5708,2140708,17020,84,1260,17066.78,29.99,-1.00,-1.0,2386
5711,2140711,16912,48,1460,16974.97,30.04,-1.00,-1.0,2440
5714,2140714,17036,-316,1188,17080.29,29.89,-1.00,-1.0,2372
5716,2140716,16784,-564,872,16816.10,29.94,-1.00,-1.0,2436
5719,2140719,16940,-380,1084,16978.90,30.04,-1.00,-1.0,2369
5724,2140724,17088,-528,1144,17134.39,30.04,-1.00,-1.0,2451
5727,2140727,17280,-668,1180,17333.12,29.99,-1.00,-1.0,2374
5730,2140730,17252,-308,1392,17310.81,30.04,-1.00,-1.0,2439
5732,2140732,16956,-296,1340,17011.44,30.04,-1.00,-1.0,2374
5735,2140735,16796,-696,1340,16863.74,29.99,-1.00,-1.0,2369
5738,2140738,16912,-300,1232,16959.47,29.99,-1.00,-1.0,2444
5741,2140741,16880,-612,1112,16927.65,29.99,-1.00,-1.0,2377
5743,2140743,17020,-332,1472,17086.76,30.04,-1.00,-1.0,2444
5746,2140746,17140,-304,1272,17189.82,29.89,-1.00,-1.0,2375
5751,2140751,16964,-372,1276,17015.99,29.99,-1.00,-1.0,2463
5754,2140754,17184,-792,1456,17263.75,29.99,-1.00,-1.0,2377
5757,2140757,17112,-692,1340,17178.33,29.94,-1.00,-1.0,2443
5759,2140759,17152,-700,1148,17204.62,30.04,-1.00,-1.0,2373
5762,2140762,17208,-704,1448,17283.16,30.04,-1.00,-1.0,2439
5765,2140765,17044,-348,1340,17100.13,30.04,-1.00,-1.0,2372
5768,2140768,16940,-172,1340,16993.79,30.04,-1.00,-1.0,2443
5770,2140770,16788,-236,1244,16835.68,30.04,-1.00,-1.0,2371
5775,2140775,16860,104,1312,16911.29,29.94,-1.00,-1.0,2444
5778,2140778,16896,12,1588,16970.46,30.04,-1.00,-1.0,2373
5781,2140781,17208,460,1684,17296.32,30.04,-1.00,-1.0,2376
5784,2140784,17124,72,1340,17176.50,30.04,-1.00,-1.0,2450
5786,2140786,17184,120,1432,17243.98,29.89,-1.00,-1.0,2382
5789,2140789,17136,-128,1464,17198.90,30.04,-1.00,-1.0,2437
5792,2140792,17100,-368,1280,17151.79,30.04,-1.00,-1.0,2372
5795,2140795,17004,-380,1192,17049.96,30.04,-1.00,-1.0,2437
5797,2140797,16952,-408,1284,17005.45,30.13,-1.00,-1.0,2371
5804,2140804,17136,-336,1224,17182.94,29.99,-1.00,-1.0,2446
5807,2140807,16868,-28,952,16894.87,30.04,-1.00,-1.0,2374
5810,2140810,16968,-264,1284,17018.56,29.99,-1.00,-1.0,2439
5812,2140812,16896,96,1500,16962.72,29.99,-1.00,-1.0,2371
5815,2140815,16960,-24,1416,17019.03,29.94,-1.00,-1.0,2455
5818,2140818,17060,-280,1416,17120.95,29.89,-1.00,-1.0,2379
5821,2140821,17008,-260,1368,17064.91,30.04,-1.00,-1.0,2440
5824,2140824,16976,-748,1248,17038.24,30.04,-1.00,-1.0,2379
5826,2140826,16996,-748,1220,17056.14,29.99,-1.00,-1.0,2368
5831,2140831,17048,-720,1104,17098.88,29.99,-1.00,-1.0,2445
5834,2140834,17048,-524,964,17083.27,30.08,-1.00,-1.0,2434
5837,2140837,17004,-600,1032,17045.85,30.13,-1.00,-1.0,2428
5839,2140839,17140,-388,1160,17183.59,30.08,-1.00,-1.0,2390
5842,2140842,17128,-360,1120,17168.35,29.99,-1.00,-1.0,2423
5845,2140845,17100,-264,1224,17145.78,29.99,-1.00,-1.0,2385
5848,2140848,17024,-136,1648,17104.12,29.94,-1.00,-1.0,2429
5850,2140850,16992,-296,1408,17052.80,29.99,-1.00,-1.0,2387
5855,2140855,17000,-504,1508,17074.19,29.99,-1.00,-1.0,2440
5858,2140858,16912,-360,1308,16966.33,29.99,-1.00,-1.0,2379
5861,2140861,16948,-180,1264,16996.02,30.13,-1.00,-1.0,2437
5864,2140864,17136,-288,1220,17181.79,30.08,-1.00,-1.0,2372
5867,2140867,17148,-120,1300,17197.62,29.94,-1.00,-1.0,2453
5869,2140869,17088,-220,1260,17135.80,30.08,-1.00,-1.0,2424
5872,2140872,17124,-248,1500,17191.36,30.04,-1.00,-1.0,2385
5875,2140875,16948,-240,1228,16994.12,29.89,-1.00,-1.0,2428
5878,2140878,17164,-280,1488,17230.65,29.89,-1.00,-1.0,2433
5883,2140883,17044,124,1512,17111.38,30.04,-1.00,-1.0,2448
5886,2140886,17024,136,1556,17095.50,30.13,-1.00,-1.0,2376
5888,2140888,16956,276,1540,17028.03,29.99,-1.00,-1.0,2444
5891,2140891,17008,-36,1672,17090.03,30.04,-1.00,-1.0,2379
5894,2140894,16992,-28,1380,17047.97,29.99,-1.00,-1.0,2434
5897,2140897,16892,-328,1364,16950.15,29.94,-1.00,-1.0,2373
5899,2140899,17024,-344,1368,17082.34,30.08,-1.00,-1.0,2433
5902,2140902,17012,-416,1424,17076.56,29.99,-1.00,-1.0,2374
5907,2140907,17224,-572,1304,17282.76,29.99,-1.00,-1.0,2442
5910,2140910,17124,-432,1264,17176.02,29.99,-1.00,-1.0,2380
5913,2140913,17140,-376,1236,17188.62,29.99,-1.00,-1.0,2440
5915,2140915,16928,-460,1276,16982.25,29.99,-1.00,-1.0,2376
5918,2140918,16984,-520,1132,17029.62,30.04,-1.00,-1.0,2369
5921,2140921,16844,-432,1012,16879.90,30.04,-1.00,-1.0,2442
5924,2140924,16964,-292,984,16995.02,30.04,-1.00,-1.0,2381
5926,2140926,17132,-248,1148,17172.21,30.08,-1.00,-1.0,2435
5929,2140929,17008,-260,1120,17046.82,29.99,-1.00,-1.0,2377
5934,2140934,17060,-436,1164,17105.22,30.08,-1.00,-1.0,2458
5937,2140937,17036,-588,1036,17077.60,29.94,-1.00,-1.0,2373
5940,2140940,17040,-564,1196,17091.23,30.08,-1.00,-1.0,2436
5942,2140942,17144,-588,1260,17200.29,30.08,-1.00,-1.0,2362
5945,2140945,17044,-580,1328,17105.49,29.89,-1.00,-1.0,2421
5948,2140948,17048,-508,1408,17113.59,29.99,-1.00,-1.0,2375
5951,2140951,16988,-436,1232,17038.19,30.04,-1.00,-1.0,2438
5953,2140953,16972,-396,1348,17030.05,29.99,-1.00,-1.0,2375
5958,2140958,16980,-164,1392,17037.75,29.99,-1.00,-1.0,2440
5961,2140961,16960,28,1496,17025.88,29.99,-1.00,-1.0,2376
5964,2140964,16980,-4,1444,17041.29,30.08,-1.00,-1.0,2430
5967,2140967,16984,-56,1432,17044.35,30.13,-1.00,-1.0,2449
5969,2140969,17124,-236,1600,17200.21,29.94,-1.00,-1.0,2372
5972,2140972,17000,-264,1544,17072.01,30.08,-1.00,-1.0,2447
5975,2140975,17036,-224,1368,17092.30,29.99,-1.00,-1.0,2386
5978,2140978,17112,-284,1356,17167.99,30.08,-1.00,-1.0,2437
5981,2140981,17116,-172,1416,17175.33,29.99,-1.00,-1.0,2372
5986,2140986,17012,-408,1200,17059.15,29.99,-1.00,-1.0,2450
5988,2140988,16928,-200,1312,16979.95,30.08,-1.00,-1.0,2381
5991,2140991,16940,-376,1148,16983.02,30.04,-1.00,-1.0,2440
5994,2140994,17060,-352,1088,17098.28,30.08,-1.00,-1.0,2372
5997,2140997,17016,-336,1316,17070.12,30.04,-1.00,-1.0,2443
5999,2140999,17096,-164,1356,17150.48,29.94,-1.00,-1.0,2370
6002,2141002,17052,-236,1356,17107.46,30.04,-1.00,-1.0,2437
6005,2141005,16936,-324,1232,16983.84,30.04,-1.00,-1.0,2371
6008,2141008,16888,-344,1328,16943.63,30.04,-1.00,-1.0,2374
6012,2141012,16988,-424,1152,17032.29,30.08,-1.00,-1.0,2448
6015,2141015,16936,-432,1228,16985.96,29.99,-1.00,-1.0,2375
6018,2141018,17108,-520,1224,17159.61,30.04,-1.00,-1.0,2440
6021,2141021,17148,-304,1392,17207.09,30.04,-1.00,-1.0,2372
6023,2141023,17124,-352,1276,17175.08,29.94,-1.00,-1.0,2438
6026,2141026,17116,-400,1324,17171.79,29.94,-1.00,-1.0,2372
6029,2141029,17080,-236,1404,17139.23,30.08,-1.00,-1.0,2438
6032,2141032,17016,-444,1432,17081.92,30.04,-1.00,-1.0,2379
6036,2141036,16740,-320,1396,16801.15,29.94,-1.00,-1.0,2446
6039,2141039,16960,-208,1364,17016.03,30.13,-1.00,-1.0,2373
6042,2141042,17000,-124,1588,17074.46,30.04,-1.00,-1.0,2438
6045,2141045,17088,-120,1364,17142.77,30.04,-1.00,-1.0,2379
6048,2141048,16992,-136,1444,17053.79,30.08,-1.00,-1.0,2439
6050,2141050,17084,-212,1272,17132.60,29.99,-1.00,-1.0,2373
6053,2141053,17060,-220,1296,17110.57,30.08,-1.00,-1.0,2446
6056,2141056,17112,-204,1384,17169.09,29.99,-1.00,-1.0,2371
6058,2141058,17064,-384,1244,17113.59,30.04,-1.00,-1.0,2371
