timestamp_ms,global_ms,accel_x,accel_y,accel_z,accel_mag,temp_c,voltage,soc,loop_us
3,2135003,17124,-396,1244,17173.69,29.94,-1.00,-1.0,2498
10,2135010,16952,-376,1400,17013.87,30.08,-1.00,-1.0,2463
12,2135012,16932,-316,1304,16985.08,30.08,-1.00,-1.0,2395
15,2135015,16976,-260,1368,17033.02,30.13,-1.00,-1.0,2432
18,2135018,16932,-216,1308,16983.82,30.04,-1.00,-1.0,2376
20,2135020,16940,-248,1412,17000.55,30.04,-1.00,-1.0,2371
23,2135023,17052,-292,1260,17100.98,30.08,-1.00,-1.0,2446
26,2135026,17008,-376,1416,17070.98,30.04,-1.00,-1.0,2384
29,2135029,17028,-472,1384,17090.67,29.99,-1.00,-1.0,2439
32,2135032,17120,-368,1576,17196.32,29.99,-1.00,-1.0,2383
36,2135036,17176,-484,1496,17247.82,30.08,-1.00,-1.0,2441
39,2135039,17140,-396,1488,17209.03,30.04,-1.00,-1.0,2381
42,2135042,17068,-316,1380,17126.61,30.08,-1.00,-1.0,2424
45,2135045,17088,-412,1164,17132.55,29.99,-1.00,-1.0,2384
47,2135047,16976,-212,1052,17009.89,30.13,-1.00,-1.0,2437
50,2135050,16996,-220,1244,17042.88,29.99,-1.00,-1.0,2378
53,2135053,17052,-380,1012,17086.23,30.04,-1.00,-1.0,2369
55,2135055,17100,-384,1104,17139.90,30.08,-1.00,-1.0,2433
58,2135058,16984,-308,1144,17025.27,30.13,-1.00,-1.0,2376
63,2135063,17200,-400,1240,17249.28,30.13,-1.00,-1.0,2444
66,2135066,16988,-192,1144,17027.56,30.13,-1.00,-1.0,2380
69,2135069,17024,-276,1052,17058.71,30.08,-1.00,-1.0,2441
71,2135071,16984,-272,1012,17016.30,30.08,-1.00,-1.0,2378
74,2135074,16960,-212,1164,17001.22,29.99,-1.00,-1.0,2445
77,2135077,16896,-280,1028,16929.56,30.08,-1.00,-1.0,2381
80,2135080,16984,-236,1260,17032.31,30.04,-1.00,-1.0,2370
82,2135082,17048,-252,1268,17096.95,30.04,-1.00,-1.0,2435
85,2135085,17084,-284,1088,17120.96,30.04,-1.00,-1.0,2378
90,2135090,17028,-268,1276,17077.85,30.04,-1.00,-1.0,2450
93,2135093,16896,-196,1488,16962.53,30.04,-1.00,-1.0,2385
96,2135096,17080,-284,1468,17145.32,30.13,-1.00,-1.0,2432
99,2135099,17056,-204,1564,17128.77,30.13,-1.00,-1.0,2371
101,2135101,17080,-316,1404,17140.52,29.99,-1.00,-1.0,2434
104,2135104,17040,-136,1488,17105.39,30.04,-1.00,-1.0,2377
107,2135107,17092,-308,1232,17139.11,30.04,-1.00,-1.0,2433
110,2135110,17028,-212,1268,17076.46,30.18,-1.00,-1.0,2373
115,2135115,16960,-284,1252,17008.52,30.04,-1.00,-1.0,2441
117,2135117,17092,-484,1312,17149.11,30.04,-1.00,-1.0,2379
120,2135120,16944,-364,1424,17007.63,29.99,-1.00,-1.0,2370
123,2135123,17024,-424,1280,17077.32,30.04,-1.00,-1.0,2443
126,2135126,17000,-504,1228,17051.74,30.08,-1.00,-1.0,2379
128,2135128,17044,-436,1312,17099.98,29.94,-1.00,-1.0,2441
131,2135131,17088,-288,1236,17135.06,30.13,-1.00,-1.0,2382
134,2135134,16956,-280,1240,17003.59,30.04,-1.00,-1.0,2434
137,2135137,17076,-292,1144,17116.77,30.04,-1.00,-1.0,2373
142,2135142,16976,-148,1200,17019.00,30.04,-1.00,-1.0,2445
144,2135144,17076,-320,1296,17128.10,30.04,-1.00,-1.0,2388
147,2135147,17048,-200,1248,17094.79,30.08,-1.00,-1.0,2423
150,2135150,17040,-348,1216,17086.88,30.13,-1.00,-1.0,2378
152,2135152,17036,-316,1328,17090.60,29.99,-1.00,-1.0,2371
155,2135155,17104,-284,1224,17150.09,30.13,-1.00,-1.0,2440
158,2135158,17068,-324,1152,17109.90,29.99,-1.00,-1.0,2372
161,2135161,16956,-332,1336,17011.79,29.94,-1.00,-1.0,2443
164,2135164,16960,-240,1200,17004.09,30.13,-1.00,-1.0,2384
169,2135169,17036,-284,1396,17095.46,30.04,-1.00,-1.0,2439
171,2135171,17012,-336,1212,17058.43,30.08,-1.00,-1.0,2383
174,2135174,16976,-252,1092,17012.95,30.04,-1.00,-1.0,2430
177,2135177,17008,-216,1120,17046.21,30.13,-1.00,-1.0,2383
180,2135180,16980,-256,1112,17018.30,29.94,-1.00,-1.0,2440
182,2135182,17020,-220,1016,17051.72,30.04,-1.00,-1.0,2381
185,2135185,17004,-260,1088,17040.76,30.08,-1.00,-1.0,2436
188,2135188,17060,-324,1284,17111.32,30.13,-1.00,-1.0,2377
190,2135190,17128,-352,992,17160.31,30.08,-1.00,-1.0,2371
195,2135195,17000,-284,1252,17048.41,30.08,-1.00,-1.0,2440
198,2135198,17000,-212,1300,17050.95,30.08,-1.00,-1.0,2380
201,2135201,16956,-336,1184,17000.61,30.04,-1.00,-1.0,2434
204,2135204,17096,-380,1216,17143.40,30.08,-1.00,-1.0,2382
207,2135207,17112,-216,1372,17168.27,30.04,-1.00,-1.0,2435
209,2135209,16992,-324,1300,17044.74,30.13,-1.00,-1.0,2378
212,2135212,17096,-424,1184,17142.20,30.04,-1.00,-1.0,2445
215,2135215,17092,-368,1252,17141.74,30.04,-1.00,-1.0,2382
220,2135220,17080,-348,1372,17138.55,30.08,-1.00,-1.0,2440
222,2135222,17060,-352,1396,17120.64,30.08,-1.00,-1.0,2382
225,2135225,17048,-344,1412,17109.83,29.99,-1.00,-1.0,2435
228,2135228,17080,-352,1408,17141.55,30.13,-1.00,-1.0,2362
230,2135230,16976,-364,1320,17031.13,30.13,-1.00,-1.0,2370
233,2135233,17076,-412,1528,17149.18,30.04,-1.00,-1.0,2445
236,2135236,17060,-304,1384,17118.75,30.04,-1.00,-1.0,2380
239,2135239,17104,-412,1328,17160.42,30.04,-1.00,-1.0,2423
242,2135242,16952,-324,1472,17018.87,30.13,-1.00,-1.0,2386
246,2135246,17048,-348,1380,17107.30,30.04,-1.00,-1.0,2440
249,2135249,17052,-472,1320,17109.53,30.13,-1.00,-1.0,2380
252,2135252,16956,-432,1148,17000.31,30.04,-1.00,-1.0,2440
254,2135254,16956,-244,1200,17000.16,30.13,-1.00,-1.0,2377
257,2135257,17052,-252,1092,17088.79,30.18,-1.00,-1.0,2441
260,2135260,17032,-356,1276,17083.44,30.04,-1.00,-1.0,2390
263,2135263,17052,-328,1180,17095.93,30.18,-1.00,-1.0,2438
266,2135266,17108,-232,1072,17143.12,29.99,-1.00,-1.0,2377
268,2135268,17000,-232,1132,17039.23,30.08,-1.00,-1.0,2357
273,2135273,16980,-188,1080,17015.35,30.08,-1.00,-1.0,2440
276,2135276,16980,-252,1208,17024.78,30.08,-1.00,-1.0,2384
279,2135279,16964,-224,1148,17004.28,30.13,-1.00,-1.0,2439
281,2135281,16980,-284,1240,17027.59,30.08,-1.00,-1.0,2376
284,2135284,17000,-220,1268,17048.64,29.94,-1.00,-1.0,2434
287,2135287,17116,-304,1232,17162.97,30.04,-1.00,-1.0,2377
290,2135290,17000,-184,1168,17041.07,30.13,-1.00,-1.0,2439
292,2135292,17008,-228,1180,17050.41,30.04,-1.00,-1.0,2375
297,2135297,17136,-340,1240,17184.17,30.13,-1.00,-1.0,2440
300,2135300,17008,-284,1348,17063.70,30.13,-1.00,-1.0,2381
303,2135303,17112,-300,1192,17156.09,29.99,-1.00,-1.0,2448
306,2135306,16980,-368,1400,17041.59,30.04,-1.00,-1.0,2382
308,2135308,16996,-340,1328,17051.19,30.08,-1.00,-1.0,2373
311,2135311,17032,-280,1364,17088.82,30.13,-1.00,-1.0,2418
314,2135314,17000,-248,1424,17061.34,30.08,-1.00,-1.0,2372
317,2135317,17048,-296,1452,17112.28,30.04,-1.00,-1.0,2439
319,2135319,16988,-396,1344,17045.68,30.04,-1.00,-1.0,2376
324,2135324,17092,-408,1308,17146.83,30.04,-1.00,-1.0,2441
327,2135327,17012,-480,1372,17073.98,29.99,-1.00,-1.0,2380
330,2135330,17024,-476,1428,17090.42,30.04,-1.00,-1.0,2433
333,2135333,17080,-436,1352,17138.97,30.04,-1.00,-1.0,2373
335,2135335,17012,-444,1224,17061.75,30.04,-1.00,-1.0,2435
338,2135338,17072,-452,1348,17131.10,30.04,-1.00,-1.0,2375
341,2135341,17016,-360,1308,17069.99,29.99,-1.00,-1.0,2434
344,2135344,17072,-308,1092,17109.66,29.94,-1.00,-1.0,2376
346,2135346,17068,-304,1156,17109.80,30.18,-1.00,-1.0,2378
351,2135351,17072,-308,1208,17117.46,30.08,-1.00,-1.0,2450
354,2135354,17000,-216,1356,17055.36,30.08,-1.00,-1.0,2394
357,2135357,17052,-288,1196,17096.32,30.04,-1.00,-1.0,2435
360,2135360,16936,-320,1176,16979.80,30.04,-1.00,-1.0,2377
362,2135362,17012,-320,1280,17063.09,30.13,-1.00,-1.0,2434
365,2135365,17064,-304,1356,17120.49,30.04,-1.00,-1.0,2372
368,2135368,16964,-304,1240,17011.97,30.08,-1.00,-1.0,2435
371,2135371,16996,-220,1256,17043.77,30.04,-1.00,-1.0,2383
376,2135376,16960,-224,1292,17010.62,30.04,-1.00,-1.0,2449
378,2135378,17020,-272,1204,17064.70,30.13,-1.00,-1.0,2382
381,2135381,17020,-212,1212,17064.42,29.99,-1.00,-1.0,2434
384,2135384,16976,-280,1248,17024.12,29.99,-1.00,-1.0,2373
387,2135387,17048,-228,1180,17090.31,29.99,-1.00,-1.0,2376
389,2135389,16976,-272,1148,17016.95,30.13,-1.00,-1.0,2437
392,2135392,17008,-224,1220,17053.17,30.13,-1.00,-1.0,2376
395,2135395,17052,-256,1220,17097.50,30.13,-1.00,-1.0,2434
398,2135398,16944,-308,1352,17000.64,30.04,-1.00,-1.0,2374
403,2135403,16968,-452,1368,17029.06,30.04,-1.00,-1.0,2440
405,2135405,17144,-352,1156,17186.54,30.04,-1.00,-1.0,2373
408,2135408,17020,-380,1320,17075.34,30.04,-1.00,-1.0,2435
411,2135411,17000,-284,1224,17046.37,30.04,-1.00,-1.0,2363
414,2135414,17048,-404,1436,17113.14,30.04,-1.00,-1.0,2439
416,2135416,17080,-268,1292,17130.89,29.94,-1.00,-1.0,2374
419,2135419,17044,-432,1508,17116.03,29.99,-1.00,-1.0,2436
422,2135422,17028,-384,1204,17074.83,29.99,-1.00,-1.0,2378
425,2135425,17112,-336,1240,17160.16,30.08,-1.00,-1.0,2375
429,2135429,17012,-384,1312,17066.84,30.04,-1.00,-1.0,2427
432,2135432,20176,5348,-32768,38851.18,30.04,-1.00,-1.0,2381
435,2135435,24992,-9896,18412,32581.17,30.08,-1.00,-1.0,2437
438,2135438,15172,-6360,-1588,16527.58,30.13,-1.00,-1.0,2377
440,2135440,18600,13600,15504,27772.18,30.08,-1.00,-1.0,2433
443,2135443,15728,-16316,-1640,22721.61,30.08,-1.00,-1.0,2372
446,2135446,23912,20180,13236,33973.63,30.08,-1.00,-1.0,2435
449,2135449,14680,-13288,10392,22362.18,30.08,-1.00,-1.0,2383
453,2135453,12224,5488,10120,16791.63,29.99,-1.00,-1.0,2441
456,2135456,15600,-6332,-7484,18424.56,30.08,-1.00,-1.0,2382
459,2135459,14528,-1688,-1864,14744.04,30.08,-1.00,-1.0,2434
462,2135462,13748,-4388,3112,14763.01,30.08,-1.00,-1.0,2381
465,2135465,20848,-2264,5396,21653.67,30.04,-1.00,-1.0,2434
467,2135467,15484,12264,-1804,19834.68,29.99,-1.00,-1.0,2375
470,2135470,23068,-6760,2736,24193.30,30.04,-1.00,-1.0,2449
473,2135473,10924,920,4660,11912.00,30.13,-1.00,-1.0,2382
475,2135475,15820,-488,6092,16959.45,30.04,-1.00,-1.0,2373
480,2135480,16392,8108,4444,18819.84,30.04,-1.00,-1.0,2442
483,2135483,20644,-5148,1736,21346.90,30.04,-1.00,-1.0,2379
486,2135486,15268,-2016,-2928,15676.39,30.08,-1.00,-1.0,2434
489,2135489,15708,-752,2224,15882.47,30.13,-1.00,-1.0,2375
491,2135491,18208,980,3272,18525.59,30.08,-1.00,-1.0,2433
494,2135494,14380,220,-4880,15187.07,29.99,-1.00,-1.0,2373
497,2135497,17920,2564,-276,18104.60,30.04,-1.00,-1.0,2436
500,2135500,14356,20,-296,14359.07,29.99,-1.00,-1.0,2383
505,2135505,20180,1644,-1248,20285.28,29.99,-1.00,-1.0,2440
508,2135508,16580,-3828,2208,17158.82,30.13,-1.00,-1.0,2380
510,2135510,15744,2496,-516,15948.98,30.04,-1.00,-1.0,2436
513,2135513,16712,-1296,1416,16821.88,30.08,-1.00,-1.0,2376
516,2135516,17776,-8,3660,18148.88,30.13,-1.00,-1.0,2374
519,2135519,17080,652,2248,17239.63,30.04,-1.00,-1.0,2442
521,2135521,17392,-2944,2064,17759.76,30.13,-1.00,-1.0,2382
524,2135524,17144,2316,1100,17334.66,30.08,-1.00,-1.0,2434
527,2135527,17244,-1108,808,17298.44,30.08,-1.00,-1.0,2376
532,2135532,17136,-292,1460,17200.56,30.08,-1.00,-1.0,2444
535,2135535,15756,-1068,-128,15792.67,30.04,-1.00,-1.0,2385
537,2135537,16140,-36,1820,16242.33,30.08,-1.00,-1.0,2440
540,2135540,17808,-1056,1436,17896.99,29.99,-1.00,-1.0,2374
543,2135543,17756,-616,628,17777.78,29.99,-1.00,-1.0,2434
546,2135546,17740,-240,1484,17803.58,29.99,-1.00,-1.0,2373
548,2135548,17592,688,1204,17646.57,30.13,-1.00,-1.0,2437
551,2135551,16180,-84,440,16186.20,30.13,-1.00,-1.0,2375
554,2135554,16920,60,744,16936.46,30.04,-1.00,-1.0,2373
559,2135559,17360,-872,1604,17455.74,30.04,-1.00,-1.0,2451
561,2135561,16332,-1060,1728,16457.33,30.13,-1.00,-1.0,2381
564,2135564,16660,-684,1556,16746.48,29.99,-1.00,-1.0,2440
567,2135567,17732,-1068,1644,17840.04,30.08,-1.00,-1.0,2386
570,2135570,17284,-256,1840,17383.55,30.18,-1.00,-1.0,2439
573,2135573,17408,-92,1196,17449.28,30.08,-1.00,-1.0,2380
575,2135575,17356,32,1276,17402.87,30.13,-1.00,-1.0,2433
578,2135578,16672,-60,1296,16722.40,29.99,-1.00,-1.0,2372
583,2135583,16956,136,424,16961.85,30.08,-1.00,-1.0,2447
586,2135586,16948,-336,1700,17036.36,30.08,-1.00,-1.0,2380
588,2135588,17420,-144,1480,17483.35,30.13,-1.00,-1.0,2357
591,2135591,17084,672,968,17124.59,30.04,-1.00,-1.0,2438
594,2135594,16520,-1200,1388,16621.58,30.13,-1.00,-1.0,2375
597,2135597,17340,-360,2360,17503.56,30.08,-1.00,-1.0,2440
600,2135600,17160,-572,1476,17232.86,30.04,-1.00,-1.0,2376
602,2135602,17348,-320,2184,17487.86,29.99,-1.00,-1.0,2442
605,2135605,16964,96,2012,17083.17,30.08,-1.00,-1.0,2391
610,2135610,17172,360,1676,17257.35,30.08,-1.00,-1.0,2459
613,2135613,17052,-700,884,17089.24,29.99,-1.00,-1.0,2380
616,2135616,17140,48,1016,17170.15,30.08,-1.00,-1.0,2444
618,2135618,17032,-360,1164,17075.52,29.99,-1.00,-1.0,2380
621,2135621,17112,-756,1112,17164.75,30.04,-1.00,-1.0,2370
624,2135624,16976,328,536,16987.63,30.04,-1.00,-1.0,2443
626,2135626,17228,-536,824,17256.02,30.04,-1.00,-1.0,2376
629,2135629,17044,496,868,17073.29,30.08,-1.00,-1.0,2449
632,2135632,16892,-488,692,16913.21,30.08,-1.00,-1.0,2382
637,2135637,16944,220,1132,16983.20,29.99,-1.00,-1.0,2444
640,2135640,17224,-1120,1312,17310.17,30.08,-1.00,-1.0,2386
642,2135642,17192,120,1444,17252.95,30.04,-1.00,-1.0,2433
645,2135645,16608,-824,1164,16669.12,30.13,-1.00,-1.0,2375
648,2135648,16912,-164,1028,16944.01,30.13,-1.00,-1.0,2433
651,2135651,16764,-144,1452,16827.38,30.13,-1.00,-1.0,2374
653,2135653,17172,-484,1596,17252.80,30.08,-1.00,-1.0,2380
656,2135656,16952,96,1448,17014.00,30.18,-1.00,-1.0,2435
659,2135659,16968,-388,1288,17021.24,30.08,-1.00,-1.0,2377
663,2135663,17132,272,1104,17169.69,29.85,-1.00,-1.0,2442
666,2135666,16724,-44,1160,16764.24,30.04,-1.00,-1.0,2381
669,2135669,16892,-108,1412,16951.26,29.99,-1.00,-1.0,2449
672,2135672,17208,-288,1376,17265.33,30.08,-1.00,-1.0,2380
675,2135675,17104,-236,1036,17136.97,30.13,-1.00,-1.0,2447
677,2135677,17160,-388,1648,17243.32,29.99,-1.00,-1.0,2385
680,2135680,17032,-656,1648,17124.11,30.04,-1.00,-1.0,2433
683,2135683,17056,-248,1212,17100.81,30.04,-1.00,-1.0,2374
688,2135688,16892,-820,744,16928.25,30.22,-1.00,-1.0,2447
691,2135691,17164,-308,1308,17216.52,30.08,-1.00,-1.0,2385
693,2135693,17200,-496,1200,17248.94,30.04,-1.00,-1.0,2371
696,2135696,17140,-488,1036,17178.21,29.99,-1.00,-1.0,2435
699,2135699,17008,-328,1048,17043.41,30.08,-1.00,-1.0,2381
702,2135702,17060,-612,1040,17102.62,29.99,-1.00,-1.0,2434
704,2135704,16912,36,1012,16942.29,30.08,-1.00,-1.0,2376
707,2135707,17072,-528,1060,17113.02,30.04,-1.00,-1.0,2445
710,2135710,16900,20,1164,16940.05,30.08,-1.00,-1.0,2382
715,2135715,17060,-300,1268,17109.69,30.08,-1.00,-1.0,2449
718,2135718,16932,-276,1384,16990.71,30.08,-1.00,-1.0,2382
720,2135720,17064,-416,1528,17137.33,30.13,-1.00,-1.0,2438
723,2135723,17020,-264,1332,17074.08,30.13,-1.00,-1.0,2387
726,2135726,16996,-612,1372,17062.27,30.04,-1.00,-1.0,2370
728,2135728,17020,-264,1604,17097.45,29.99,-1.00,-1.0,2435
731,2135731,16984,-656,1436,17057.22,30.08,-1.00,-1.0,2376
734,2135734,17072,-328,1428,17134.76,30.08,-1.00,-1.0,2433
737,2135737,16888,-440,1324,16945.53,30.08,-1.00,-1.0,2380
742,2135742,16824,-112,1564,16896.91,30.18,-1.00,-1.0,2448
744,2135744,17012,-452,1500,17083.98,30.13,-1.00,-1.0,2366
747,2135747,17040,56,1468,17103.21,30.08,-1.00,-1.0,2441
750,2135750,17012,-12,1248,17057.72,30.08,-1.00,-1.0,2374
753,2135753,17152,-236,1288,17201.91,30.04,-1.00,-1.0,2442
756,2135756,17028,-172,1128,17066.19,30.08,-1.00,-1.0,2377
758,2135758,17080,-304,1168,17122.59,30.04,-1.00,-1.0,2442
761,2135761,16992,-168,1136,17030.76,30.13,-1.00,-1.0,2381
764,2135764,17052,-652,1300,17113.91,30.18,-1.00,-1.0,2369
769,2135769,17008,-320,1004,17040.61,30.08,-1.00,-1.0,2446
771,2135771,17016,-424,1000,17050.63,30.13,-1.00,-1.0,2377
774,2135774,17024,-332,1204,17069.75,30.08,-1.00,-1.0,2440
777,2135777,16976,-388,1284,17028.91,30.08,-1.00,-1.0,2372
780,2135780,16964,-176,1304,17014.96,30.04,-1.00,-1.0,2442
782,2135782,17092,-444,1188,17138.99,30.27,-1.00,-1.0,2375
785,2135785,17000,-256,1484,17066.57,30.13,-1.00,-1.0,2444
788,2135788,17096,-224,1552,17167.76,30.04,-1.00,-1.0,2382
793,2135793,17012,-404,1124,17053.88,30.04,-1.00,-1.0,2441
796,2135796,17004,-348,1088,17042.33,30.13,-1.00,-1.0,2386
799,2135799,17008,-480,1192,17056.47,30.13,-1.00,-1.0,2440
801,2135801,17028,-412,1128,17070.29,30.04,-1.00,-1.0,2382
804,2135804,17024,-408,1140,17067.00,29.99,-1.00,-1.0,2370
807,2135807,17040,-356,1076,17077.65,30.08,-1.00,-1.0,2440
809,2135809,17008,-248,1236,17054.65,30.08,-1.00,-1.0,2374
812,2135812,17028,-292,1260,17077.05,30.04,-1.00,-1.0,2442
815,2135815,17080,-128,1432,17140.40,30.13,-1.00,-1.0,2374
820,2135820,17000,12,1296,17049.33,30.04,-1.00,-1.0,2442
823,2135823,16960,-184,1216,17004.53,30.08,-1.00,-1.0,2389
826,2135826,17004,-204,1092,17040.25,30.04,-1.00,-1.0,2445
828,2135828,17004,-296,1068,17040.08,30.04,-1.00,-1.0,2382
831,2135831,17032,-208,976,17061.21,29.99,-1.00,-1.0,2442
834,2135834,17020,-272,1180,17063.02,30.04,-1.00,-1.0,2379
836,2135836,17140,-472,1260,17192.73,29.99,-1.00,-1.0,2370
839,2135839,16936,-456,1356,16996.32,30.04,-1.00,-1.0,2435
842,2135842,17036,-360,1396,17096.89,30.08,-1.00,-1.0,2372
847,2135847,16964,-288,1284,17014.96,30.13,-1.00,-1.0,2448
850,2135850,17068,-180,1372,17124.00,30.04,-1.00,-1.0,2381
852,2135852,16988,-248,1512,17056.96,30.04,-1.00,-1.0,2441
855,2135855,17060,-340,1536,17132.38,30.13,-1.00,-1.0,2390
858,2135858,17136,-532,1552,17214.36,30.08,-1.00,-1.0,2432
861,2135861,17056,-568,1632,17143.31,30.08,-1.00,-1.0,2373
863,2135863,16976,-560,1608,17061.18,30.08,-1.00,-1.0,2433
866,2135866,16996,-676,1468,17072.67,30.08,-1.00,-1.0,2376
871,2135871,17040,-508,1500,17113.44,30.08,-1.00,-1.0,2444
874,2135874,17052,-388,1236,17101.14,30.08,-1.00,-1.0,2393
876,2135876,17096,-292,1416,17157.03,30.08,-1.00,-1.0,2370
879,2135879,17052,-300,1288,17103.21,30.04,-1.00,-1.0,2431
882,2135882,17020,-524,1456,17090.20,30.04,-1.00,-1.0,2380
885,2135885,16964,-480,1276,17018.69,30.04,-1.00,-1.0,2435
887,2135887,16964,-368,1232,17012.66,30.04,-1.00,-1.0,2377
890,2135890,17060,-376,1000,17093.42,29.89,-1.00,-1.0,2447
893,2135893,17036,-464,1156,17081.48,30.13,-1.00,-1.0,2380
898,2135898,17004,-528,1084,17046.70,30.08,-1.00,-1.0,2447
901,2135901,17012,-356,1048,17047.97,30.13,-1.00,-1.0,2382
903,2135903,17060,-492,868,17089.15,29.99,-1.00,-1.0,2437
906,2135906,17076,-108,868,17098.39,30.08,-1.00,-1.0,2377
909,2135909,17152,-192,1008,17182.67,30.08,-1.00,-1.0,2434
912,2135912,17116,-100,980,17144.32,30.18,-1.00,-1.0,2373
914,2135914,17032,-40,1000,17061.38,30.04,-1.00,-1.0,2371
917,2135917,17020,28,1036,17051.52,30.13,-1.00,-1.0,2434
920,2135920,17028,-72,1096,17063.39,30.13,-1.00,-1.0,2382
925,2135925,16824,-116,1348,16878.32,30.04,-1.00,-1.0,2443
928,2135928,16892,-24,1156,16931.53,30.04,-1.00,-1.0,2381
930,2135930,16880,-160,1208,16923.93,30.13,-1.00,-1.0,2433
933,2135933,16948,-300,1404,17008.70,30.04,-1.00,-1.0,2372
936,2135936,17036,-364,1320,17090.94,30.08,-1.00,-1.0,2434
939,2135939,17120,-292,1356,17176.10,30.13,-1.00,-1.0,2383
942,2135942,17108,-364,1536,17180.67,30.08,-1.00,-1.0,2443
944,2135944,17076,-268,1428,17137.70,30.04,-1.00,-1.0,2380
947,2135947,17036,-284,1412,17096.78,30.18,-1.00,-1.0,2372
952,2135952,17000,-308,1416,17061.65,29.99,-1.00,-1.0,2431
955,2135955,16940,-284,1428,17002.45,29.99,-1.00,-1.0,2394
957,2135957,16992,-352,1432,17055.87,30.04,-1.00,-1.0,2434
960,2135960,17016,-388,1316,17071.22,30.08,-1.00,-1.0,2374
963,2135963,17040,-404,1268,17091.89,30.04,-1.00,-1.0,2435
966,2135966,17020,-412,1368,17079.86,30.13,-1.00,-1.0,2374
968,2135968,17124,-552,1460,17194.99,30.04,-1.00,-1.0,2435
971,2135971,17056,-456,1436,17122.42,30.04,-1.00,-1.0,2374
976,2135976,17020,-420,1312,17075.66,30.04,-1.00,-1.0,2442
979,2135979,17060,-236,1332,17113.55,30.13,-1.00,-1.0,2367
982,2135982,17000,-272,992,17031.09,30.13,-1.00,-1.0,2440
984,2135984,16976,-364,1192,17021.69,30.13,-1.00,-1.0,2374
987,2135987,17020,-284,1228,17066.61,29.99,-1.00,-1.0,2378
990,2135990,17032,-236,1276,17081.36,30.18,-1.00,-1.0,2426
993,2135993,17072,-268,1216,17117.35,30.08,-1.00,-1.0,2382
995,2135995,17044,-376,1356,17101.99,29.94,-1.00,-1.0,2436
998,2135998,17044,-384,1404,17106.04,30.08,-1.00,-1.0,2377
1003,2136003,16956,-484,1392,17019.93,29.99,-1.00,-1.0,2458
1006,2136006,16972,-388,1408,17034.72,30.08,-1.00,-1.0,2385
1009,2136009,16940,-244,1284,16990.34,30.13,-1.00,-1.0,2432
1011,2136011,16940,-320,1320,16994.36,30.04,-1.00,-1.0,2374
1014,2136014,17008,-216,1080,17043.62,30.13,-1.00,-1.0,2435
1017,2136017,17036,-180,1104,17072.68,30.08,-1.00,-1.0,2460
1020,2136020,17028,-180,1056,17061.66,30.08,-1.00,-1.0,2418
1023,2136023,17100,-244,1192,17143.23,30.04,-1.00,-1.0,2390
1028,2136028,16996,-372,1156,17039.33,30.04,-1.00,-1.0,2444
1030,2136030,16924,-336,1260,16974.16,30.13,-1.00,-1.0,2377
1033,2136033,16984,-256,1156,17025.22,30.08,-1.00,-1.0,2370
1036,2136036,16972,-128,1164,17012.35,30.13,-1.00,-1.0,2440
1039,2136039,17032,-152,1016,17062.95,30.08,-1.00,-1.0,2383
1041,2136041,16984,-200,900,17009.01,30.04,-1.00,-1.0,2437
1044,2136044,17032,-216,948,17059.73,30.04,-1.00,-1.0,2381
1047,2136047,17032,-220,872,17055.73,30.04,-1.00,-1.0,2432
1050,2136050,17028,-276,1056,17062.95,30.04,-1.00,-1.0,2372
1054,2136054,17112,-348,1216,17158.68,30.08,-1.00,-1.0,2443
1057,2136057,17184,-460,1452,17251.37,30.13,-1.00,-1.0,2365
1060,2136060,17112,-484,1412,17176.98,30.08,-1.00,-1.0,2433
1063,2136063,17080,-408,1468,17147.82,29.99,-1.00,-1.0,2382
1066,2136066,17116,-328,1436,17179.27,30.04,-1.00,-1.0,2434
1068,2136068,16972,-348,1336,17028.06,29.99,-1.00,-1.0,2374
1071,2136071,16896,-220,1360,16952.07,30.13,-1.00,-1.0,2449
1074,2136074,16936,-280,1436,16999.08,30.04,-1.00,-1.0,2377
1076,2136076,17000,-296,1476,17066.52,30.04,-1.00,-1.0,2370
1081,2136081,17096,-348,1436,17159.73,30.13,-1.00,-1.0,2460
1084,2136084,17028,-468,1440,17095.19,30.13,-1.00,-1.0,2385
1087,2136087,17080,-396,1500,17150.31,29.99,-1.00,-1.0,2432
1089,2136089,17000,-388,1508,17071.16,30.04,-1.00,-1.0,2375
1092,2136092,17048,-384,1224,17096.20,30.08,-1.00,-1.0,2434
1095,2136095,16924,-312,1472,16990.76,30.18,-1.00,-1.0,2362
1098,2136098,16988,-348,1192,17033.32,30.08,-1.00,-1.0,2438
1100,2136100,16976,-344,1100,17015.08,30.08,-1.00,-1.0,2374
1105,2136105,17004,-356,928,17033.03,30.08,-1.00,-1.0,2444
1108,2136108,17008,-280,1084,17044.81,30.13,-1.00,-1.0,2377
1111,2136111,16996,-348,1124,17036.68,30.08,-1.00,-1.0,2434
1114,2136114,17172,-344,984,17203.61,29.99,-1.00,-1.0,2373
1117,2136117,17028,-400,1136,17070.54,30.04,-1.00,-1.0,2435
1119,2136119,17100,-216,1068,17134.68,29.99,-1.00,-1.0,2374
1122,2136122,17088,-296,1240,17135.49,30.04,-1.00,-1.0,2360
1125,2136125,17016,-300,1204,17061.18,30.08,-1.00,-1.0,2443
1127,2136127,16988,-308,1072,17024.58,30.13,-1.00,-1.0,2382
1132,2136132,16972,-224,1192,17015.28,30.13,-1.00,-1.0,2456
1135,2136135,16948,-276,1356,17004.40,30.04,-1.00,-1.0,2394
1138,2136138,17052,-356,1288,17104.28,30.08,-1.00,-1.0,2433
1141,2136141,16924,-248,1336,16978.46,30.08,-1.00,-1.0,2373
1143,2136143,17008,-248,1328,17061.57,30.08,-1.00,-1.0,2436
1146,2136146,17084,-180,1292,17133.73,30.08,-1.00,-1.0,2375
1149,2136149,17072,-368,1288,17124.47,30.04,-1.00,-1.0,2433
1152,2136152,17040,-464,1364,17100.80,29.99,-1.00,-1.0,2380
1157,2136157,17040,-232,1396,17098.66,30.08,-1.00,-1.0,2451
1159,2136159,17044,-100,1456,17106.37,30.08,-1.00,-1.0,2378
1162,2136162,16964,-252,1376,17021.58,30.04,-1.00,-1.0,2438
1165,2136165,17076,-372,1200,17122.15,30.04,-1.00,-1.0,2374
1168,2136168,17096,-248,1416,17156.33,30.04,-1.00,-1.0,2443
1171,2136171,17084,-328,1380,17142.78,30.04,-1.00,-1.0,2379
1173,2136173,17104,-440,1336,17161.74,30.08,-1.00,-1.0,2370
1176,2136176,17116,-448,1364,17176.11,30.08,-1.00,-1.0,2435
1179,2136179,17080,-500,1300,17136.70,30.08,-1.00,-1.0,2376
1184,2136184,17028,-352,1320,17082.71,29.99,-1.00,-1.0,2446
1186,2136186,16952,-348,1200,16997.98,30.08,-1.00,-1.0,2379
1189,2136189,17036,-184,1204,17079.48,30.04,-1.00,-1.0,2433
1192,2136192,17044,-252,1256,17092.07,30.13,-1.00,-1.0,2372
1195,2136195,17028,-124,1120,17065.24,30.04,-1.00,-1.0,2446
1197,2136197,17072,-240,1156,17112.78,30.04,-1.00,-1.0,2377
1200,2136200,17108,-284,1216,17153.51,30.08,-1.00,-1.0,2448
1203,2136203,17072,-356,1224,17119.52,30.04,-1.00,-1.0,2382
1208,2136208,17024,-308,1104,17062.54,30.04,-1.00,-1.0,2444
1211,2136211,16928,-248,1348,16983.40,30.04,-1.00,-1.0,2383
1214,2136214,16924,-256,1256,16972.47,29.99,-1.00,-1.0,2442
1216,2136216,16984,-276,1056,17019.04,29.99,-1.00,-1.0,2382
1219,2136219,16944,-320,1208,16990.02,30.04,-1.00,-1.0,2371
1222,2136222,17028,-224,1224,17073.40,30.04,-1.00,-1.0,2436
1224,2136224,17056,-240,1312,17108.07,30.04,-1.00,-1.0,2360
1227,2136227,17012,-212,1136,17051.21,30.13,-1.00,-1.0,2435
1230,2136230,17044,-228,1256,17091.74,30.04,-1.00,-1.0,2374
1235,2136235,17072,-336,968,17102.72,30.04,-1.00,-1.0,2446
1238,2136238,16948,-280,1260,16997.08,30.13,-1.00,-1.0,2387
1241,2136241,17004,-336,1216,17050.73,30.08,-1.00,-1.0,2441
1243,2136243,17052,-252,1100,17089.30,30.08,-1.00,-1.0,2379
1246,2136246,17148,-276,1088,17184.70,30.08,-1.00,-1.0,2443
1249,2136249,16976,-272,1172,17018.58,29.99,-1.00,-1.0,2375
1252,2136252,17024,-212,1284,17073.67,30.04,-1.00,-1.0,2433
1254,2136254,16976,-260,1208,17020.91,30.08,-1.00,-1.0,2376
1259,2136259,16952,-360,1436,17016.52,30.04,-1.00,-1.0,2445
1262,2136262,17088,-308,1248,17136.28,30.13,-1.00,-1.0,2378
1265,2136265,17016,-392,1384,17076.69,29.99,-1.00,-1.0,2373
1267,2136267,17108,-360,1332,17163.55,29.99,-1.00,-1.0,2441
1270,2136270,17068,-288,1336,17122.63,29.99,-1.00,-1.0,2377
1273,2136273,17048,-296,1408,17108.61,30.04,-1.00,-1.0,2435
1276,2136276,16992,-364,1368,17050.87,30.13,-1.00,-1.0,2375
1278,2136278,17084,-420,1384,17145.11,30.13,-1.00,-1.0,2434
1281,2136281,17076,-300,1404,17136.25,30.04,-1.00,-1.0,2374
1286,2136286,17052,-376,1560,17127.34,30.18,-1.00,-1.0,2434
1289,2136289,17000,-256,1464,17064.84,30.18,-1.00,-1.0,2391
1291,2136291,17056,-396,1508,17127.11,30.04,-1.00,-1.0,2434
1294,2136294,16912,-404,1336,16969.50,30.04,-1.00,-1.0,2373
1297,2136297,17036,-412,1372,17096.12,30.04,-1.00,-1.0,2436
1300,2136300,17008,-456,1320,17065.24,30.04,-1.00,-1.0,2376
1302,2136302,17056,-332,1276,17106.88,30.08,-1.00,-1.0,2433
1305,2136305,17020,-404,1324,17076.20,30.04,-1.00,-1.0,2371
1310,2136310,16956,-332,1220,17003.07,30.04,-1.00,-1.0,2445
1313,2136313,17032,-384,1120,17073.10,30.04,-1.00,-1.0,2379
1316,2136316,17100,-292,1084,17136.81,30.08,-1.00,-1.0,2376
1318,2136318,17032,-368,1024,17066.72,30.13,-1.00,-1.0,2441
1321,2136321,17080,-296,964,17109.74,30.04,-1.00,-1.0,2377
1324,2136324,17000,-188,1136,17038.95,30.04,-1.00,-1.0,2434
1327,2136327,16976,-264,1104,17013.91,30.13,-1.00,-1.0,2373
1329,2136329,17008,-184,1064,17042.24,29.94,-1.00,-1.0,2434
1332,2136332,16904,-228,1116,16942.33,30.04,-1.00,-1.0,2375
1337,2136337,17024,-232,964,17052.85,30.04,-1.00,-1.0,2456
1340,2136340,17052,-264,1056,17086.71,30.04,-1.00,-1.0,2383
1343,2136343,17008,-368,1244,17057.40,30.04,-1.00,-1.0,2433
1346,2136346,17192,-236,1252,17239.14,30.13,-1.00,-1.0,2373
1348,2136348,17124,-300,1320,17177.42,30.08,-1.00,-1.0,2423
1351,2136351,17128,-312,1176,17171.16,30.13,-1.00,-1.0,2377
1354,2136354,17008,-332,1308,17061.45,30.08,-1.00,-1.0,2434
1357,2136357,16960,-336,1368,17018.40,30.08,-1.00,-1.0,2378
1359,2136359,16944,-384,1324,16999.99,30.08,-1.00,-1.0,2371
1364,2136364,17044,-392,1308,17098.61,29.99,-1.00,-1.0,2444
1367,2136367,17000,-376,1400,17061.69,29.99,-1.00,-1.0,2377
1370,2136370,16920,-284,1352,16976.31,30.13,-1.00,-1.0,2438
1373,2136373,17108,-372,1336,17164.12,30.13,-1.00,-1.0,2379
1375,2136375,17012,-432,1500,17083.46,30.13,-1.00,-1.0,2438
1378,2136378,16980,-368,1416,17042.91,30.04,-1.00,-1.0,2378
1381,2136381,17036,-436,1344,17094.49,30.13,-1.00,-1.0,2432
1384,2136384,17084,-424,1420,17148.16,29.94,-1.00,-1.0,2369
1389,2136389,17108,-408,1276,17160.37,30.04,-1.00,-1.0,2448
1391,2136391,17096,-344,1372,17154.41,30.13,-1.00,-1.0,2385
1394,2136394,16988,-412,1340,17045.75,29.99,-1.00,-1.0,2434
1397,2136397,17080,-340,1120,17120.06,30.04,-1.00,-1.0,2374
1400,2136400,17064,-372,1164,17107.70,30.08,-1.00,-1.0,2439
1402,2136402,17120,-344,1120,17160.04,30.08,-1.00,-1.0,2373
1405,2136405,17044,-312,1052,17079.29,29.99,-1.00,-1.0,2437
1408,2136408,16956,-200,1240,17002.46,30.08,-1.00,-1.0,2375
1411,2136411,17016,-260,1236,17062.81,30.04,-1.00,-1.0,2376
1416,2136416,17008,-316,1216,17054.34,30.13,-1.00,-1.0,2444
1418,2136418,16932,-316,1300,16984.77,30.13,-1.00,-1.0,2378
1421,2136421,16980,-300,1384,17038.95,30.04,-1.00,-1.0,2443
1424,2136424,17024,-292,1296,17075.76,30.04,-1.00,-1.0,2377
1427,2136427,16924,-324,1224,16971.30,30.08,-1.00,-1.0,2436
1429,2136429,16936,-212,1348,16990.88,30.13,-1.00,-1.0,2377
1432,2136432,17004,-200,1236,17050.04,29.99,-1.00,-1.0,2435
1435,2136435,16908,-284,1336,16963.08,30.04,-1.00,-1.0,2362
1440,2136440,17004,-180,1380,17060.86,30.04,-1.00,-1.0,2447
1443,2136443,18124,-764,2264,18280.83,30.04,-1.00,-1.0,2384
1445,2136445,5464,1188,-17468,18341.15,30.08,-1.00,-1.0,2433
1448,2136448,32767,27804,5840,43368.70,29.99,-1.00,-1.0,2372
1451,2136451,8904,-4276,-2340,10150.91,30.08,-1.00,-1.0,2435
1454,2136454,8784,-8292,14168,18618.49,29.99,-1.00,-1.0,2375
1457,2136457,20908,-2360,3068,21263.27,30.04,-1.00,-1.0,2432
1459,2136459,11680,1476,5080,12822.14,30.04,-1.00,-1.0,2373
1462,2136462,7608,-7036,3188,10842.06,30.04,-1.00,-1.0,2374
1467,2136467,11104,-6924,276,13088.80,30.08,-1.00,-1.0,2445
1469,2136469,21472,664,4368,21921.84,30.08,-1.00,-1.0,2381
1472,2136472,21784,-2764,-1224,21992.74,30.04,-1.00,-1.0,2435
1475,2136475,14916,-464,-880,14949.14,30.08,-1.00,-1.0,2374
1478,2136478,17032,-900,3708,17454.18,30.04,-1.00,-1.0,2435
1480,2136480,18316,10056,1696,20963.67,30.08,-1.00,-1.0,2360
1483,2136483,22016,-3192,2064,22341.74,30.04,-1.00,-1.0,2438
1486,2136486,16236,1048,3288,16598.70,30.04,-1.00,-1.0,2375
1491,2136491,19404,-1432,2836,19662.37,30.18,-1.00,-1.0,2446
1493,2136493,16912,1644,2684,17202.39,30.08,-1.00,-1.0,2381
1496,2136496,17036,-3680,2944,17675.83,30.04,-1.00,-1.0,2432
1499,2136499,16892,1192,844,16955.03,30.04,-1.00,-1.0,2374
1502,2136502,15932,-2044,312,16065.61,30.04,-1.00,-1.0,2441
1504,2136504,18624,152,1140,18659.48,30.13,-1.00,-1.0,2378
1507,2136507,16124,-1232,-1236,16218.17,30.08,-1.00,-1.0,2442
1510,2136510,17672,1352,68,17723.77,30.04,-1.00,-1.0,2382
1513,2136513,16608,88,896,16632.38,30.08,-1.00,-1.0,2370
1518,2136518,16796,1744,600,16896.96,30.08,-1.00,-1.0,2450
1520,2136520,16288,-888,-184,16313.23,30.08,-1.00,-1.0,2386
1523,2136523,16560,160,948,16587.88,30.04,-1.00,-1.0,2433
1526,2136526,16336,136,644,16349.25,29.99,-1.00,-1.0,2376
1529,2136529,18420,-472,1840,18517.69,30.04,-1.00,-1.0,2441
1531,2136531,16392,2656,1168,16646.81,30.13,-1.00,-1.0,2375
1534,2136534,16968,-2100,1064,17130.53,30.13,-1.00,-1.0,2433
1537,2136537,16432,1144,804,16491.38,30.04,-1.00,-1.0,2376
1542,2136542,17144,-124,768,17161.64,30.13,-1.00,-1.0,2448
1545,2136545,16904,-148,1164,16944.68,30.13,-1.00,-1.0,2380
1548,2136548,17036,-276,1204,17080.72,30.18,-1.00,-1.0,2433
1550,2136550,16816,1340,1268,16916.89,30.13,-1.00,-1.0,2375
1553,2136553,17220,-1688,1780,17393.85,30.08,-1.00,-1.0,2370
1556,2136556,17308,1044,1224,17382.61,30.13,-1.00,-1.0,2434
1558,2136558,16564,32,752,16581.09,29.99,-1.00,-1.0,2363
1561,2136561,17124,-500,1032,17162.35,30.04,-1.00,-1.0,2433
1564,2136564,16948,616,668,16972.34,30.04,-1.00,-1.0,2373
1569,2136569,16732,468,940,16764.92,30.13,-1.00,-1.0,2447
1572,2136572,17192,-996,1660,17300.65,30.08,-1.00,-1.0,2378
1574,2136574,17284,-992,1852,17411.22,30.04,-1.00,-1.0,2434
1577,2136577,17136,-416,1524,17208.66,30.13,-1.00,-1.0,2374
1580,2136580,17164,-1172,1736,17291.33,30.04,-1.00,-1.0,2435
1583,2136583,16888,172,2124,17021.91,30.04,-1.00,-1.0,2382
1586,2136586,17092,-784,1268,17156.89,30.08,-1.00,-1.0,2434
1588,2136588,16992,-400,1316,17047.58,29.99,-1.00,-1.0,2377
1593,2136593,16788,-468,1116,16831.56,30.08,-1.00,-1.0,2448
1596,2136596,17088,472,1000,17123.74,30.04,-1.00,-1.0,2380
1599,2136599,17036,-532,1504,17110.53,30.08,-1.00,-1.0,2372
1601,2136601,17088,-816,1372,17162.40,30.04,-1.00,-1.0,2434
1604,2136604,17044,180,1152,17083.84,30.13,-1.00,-1.0,2373
1607,2136607,16932,-780,1060,16983.07,30.04,-1.00,-1.0,2435
1610,2136610,17336,-896,2064,17481.41,30.04,-1.00,-1.0,2375
1612,2136612,17064,-200,1552,17135.60,30.04,-1.00,-1.0,2420
1615,2136615,16980,-820,1528,17068.32,29.94,-1.00,-1.0,2372
1620,2136620,17228,-676,1460,17302.96,30.04,-1.00,-1.0,2445
1623,2136623,17156,-244,1324,17208.74,30.04,-1.00,-1.0,2365
1626,2136626,16872,-664,1044,16917.30,30.04,-1.00,-1.0,2441
1628,2136628,17036,-40,1100,17071.52,30.04,-1.00,-1.0,2375
1631,2136631,17024,-44,1284,17072.41,30.08,-1.00,-1.0,2435
1634,2136634,17144,-400,1076,17182.39,29.99,-1.00,-1.0,2373
1637,2136637,16960,112,1172,17000.82,30.18,-1.00,-1.0,2442
1640,2136640,17052,-204,1096,17088.40,30.08,-1.00,-1.0,2378
1642,2136642,17056,124,1200,17098.61,30.04,-1.00,-1.0,2371
1647,2136647,16992,-648,1204,17046.92,30.13,-1.00,-1.0,2452
1650,2136650,17004,228,1392,17062.40,30.04,-1.00,-1.0,2383
1653,2136653,16976,-736,1320,17043.14,30.13,-1.00,-1.0,2431
1655,2136655,17064,-352,1428,17127.26,30.04,-1.00,-1.0,2375
1658,2136658,16896,-504,1452,16965.76,30.08,-1.00,-1.0,2436
1661,2136661,16996,-264,1128,17035.44,29.99,-1.00,-1.0,2378
1664,2136664,16936,-256,1604,17013.71,30.08,-1.00,-1.0,2443
1666,2136666,17052,-248,1360,17107.95,30.08,-1.00,-1.0,2373
1671,2136671,16908,-436,1308,16964.12,30.13,-1.00,-1.0,2468
1674,2136674,16936,-184,1528,17005.79,30.04,-1.00,-1.0,2377
1677,2136677,16964,-224,1276,17013.40,30.08,-1.00,-1.0,2434
1680,2136680,16996,-120,1252,17042.47,30.04,-1.00,-1.0,2376
1683,2136683,17028,-204,1396,17086.35,29.99,-1.00,-1.0,2436
1685,2136685,17104,-256,1348,17158.95,30.08,-1.00,-1.0,2376
1688,2136688,17060,-220,1044,17093.33,30.04,-1.00,-1.0,2373
1691,2136691,16980,-396,1452,17046.57,30.04,-1.00,-1.0,2441
1693,2136693,17048,-548,1276,17104.47,30.04,-1.00,-1.0,2377
1698,2136698,17032,-532,1076,17074.24,30.13,-1.00,-1.0,2451
1701,2136701,17080,-724,956,17122.05,30.08,-1.00,-1.0,2377
1704,2136704,17164,-504,1356,17224.86,30.04,-1.00,-1.0,2422
1707,2136707,17136,-424,1172,17181.27,30.13,-1.00,-1.0,2377
1709,2136709,17060,-580,1132,17107.35,30.13,-1.00,-1.0,2443
1712,2136712,17060,-312,1060,17095.75,30.04,-1.00,-1.0,2378
1715,2136715,17044,-488,1068,17084.40,30.08,-1.00,-1.0,2434
1718,2136718,16932,12,1052,16964.65,30.04,-1.00,-1.0,2370
1723,2136723,16908,-116,1140,16946.79,30.04,-1.00,-1.0,2449
1725,2136725,17068,104,1276,17115.95,30.13,-1.00,-1.0,2377
1728,2136728,16984,-336,1100,17022.90,30.08,-1.00,-1.0,2435
1731,2136731,17068,-172,1252,17114.72,30.08,-1.00,-1.0,2374
1733,2136733,17156,-312,1220,17202.15,30.08,-1.00,-1.0,2370
1736,2136736,17072,-248,1236,17118.48,30.04,-1.00,-1.0,2448
1739,2136739,17132,-496,1256,17185.14,30.04,-1.00,-1.0,2382
1742,2136742,17080,-352,1284,17131.81,30.13,-1.00,-1.0,2440
1745,2136745,17068,-480,1324,17126.00,30.04,-1.00,-1.0,2384
1750,2136750,16892,-296,1300,16944.54,30.04,-1.00,-1.0,2455
1753,2136753,16892,-348,1224,16939.86,29.94,-1.00,-1.0,2377
1755,2136755,16948,-108,1204,16991.06,29.99,-1.00,-1.0,2443
1758,2136758,17008,-384,1412,17070.83,30.13,-1.00,-1.0,2376
1761,2136761,17076,-80,1340,17128.68,30.08,-1.00,-1.0,2438
1764,2136764,17176,-116,1360,17230.15,30.13,-1.00,-1.0,2374
1766,2136766,17112,-180,1260,17159.27,30.08,-1.00,-1.0,2434
1769,2136769,17012,-168,1220,17056.52,29.99,-1.00,-1.0,2371
1774,2136774,17064,-352,1264,17114.37,30.08,-1.00,-1.0,2456
1777,2136777,17048,-432,1288,17102.04,30.08,-1.00,-1.0,2376
1779,2136779,17028,-308,1364,17085.32,30.08,-1.00,-1.0,2371
1782,2136782,17116,-260,1172,17158.05,30.13,-1.00,-1.0,2439
1785,2136785,16972,-404,1208,17019.73,30.04,-1.00,-1.0,2374
1788,2136788,17020,-224,1316,17072.27,30.13,-1.00,-1.0,2443
1791,2136791,17008,-220,1344,17062.44,30.04,-1.00,-1.0,2382
1793,2136793,17020,-276,1324,17073.65,30.08,-1.00,-1.0,2442
1796,2136796,16932,-432,1296,16987.02,29.99,-1.00,-1.0,2379
1801,2136801,16964,-308,1320,17018.07,30.08,-1.00,-1.0,2463
1804,2136804,17060,-520,1408,17125.90,30.13,-1.00,-1.0,2364
1807,2136807,17008,-392,1088,17047.27,30.08,-1.00,-1.0,2440
1809,2136809,17012,-544,996,17049.81,30.08,-1.00,-1.0,2380
1812,2136812,17032,-352,1092,17070.60,30.08,-1.00,-1.0,2424
1815,2136815,17020,-420,1232,17069.70,30.08,-1.00,-1.0,2376
1818,2136818,17064,-384,1360,17122.42,30.04,-1.00,-1.0,2441
1820,2136820,16948,-296,1264,16997.65,30.08,-1.00,-1.0,2373
1825,2136825,17036,-252,1380,17093.66,30.08,-1.00,-1.0,2448
1828,2136828,17084,-292,1400,17143.75,30.08,-1.00,-1.0,2375
1831,2136831,17060,-136,1320,17111.53,30.04,-1.00,-1.0,2378
1834,2136834,16996,-104,1252,17042.37,30.04,-1.00,-1.0,2445
1836,2136836,16880,-208,1212,16924.73,30.08,-1.00,-1.0,2382
1839,2136839,17036,-184,1228,17081.19,30.08,-1.00,-1.0,2440
1842,2136842,16948,-272,1064,16983.54,29.99,-1.00,-1.0,2376
1845,2136845,16972,-224,912,16997.96,29.99,-1.00,-1.0,2437
1847,2136847,17068,-216,1220,17112.91,30.08,-1.00,-1.0,2376
1852,2136852,17144,-352,1436,17207.64,30.08,-1.00,-1.0,2460
1855,2136855,16944,-464,1388,17007.09,29.99,-1.00,-1.0,2379
1858,2136858,17040,-212,1252,17087.25,30.04,-1.00,-1.0,2422
1861,2136861,17112,-244,1388,17169.93,30.18,-1.00,-1.0,2370
1863,2136863,16976,-208,1408,17035.56,30.04,-1.00,-1.0,2436
1866,2136866,17048,-228,1480,17113.64,30.13,-1.00,-1.0,2375
1869,2136869,17080,-328,1472,17146.45,30.04,-1.00,-1.0,2434
1872,2136872,17056,-364,1544,17129.61,30.04,-1.00,-1.0,2373
1874,2136874,16956,-408,1380,17016.96,30.08,-1.00,-1.0,2376
1879,2136879,17036,-556,1392,17101.82,30.08,-1.00,-1.0,2455
1882,2136882,16984,-428,1480,17053.73,29.99,-1.00,-1.0,2377
1885,2136885,17004,-472,1376,17066.11,30.04,-1.00,-1.0,2434
1887,2136887,17000,-404,1164,17044.59,30.13,-1.00,-1.0,2374
1890,2136890,16956,-328,1488,17024.33,30.13,-1.00,-1.0,2436
1893,2136893,16992,-336,1304,17045.27,30.04,-1.00,-1.0,2374
1896,2136896,17088,-484,1304,17144.52,30.08,-1.00,-1.0,2445
1898,2136898,17016,-476,1276,17070.41,30.04,-1.00,-1.0,2376
1903,2136903,16920,-492,1368,16982.34,30.13,-1.00,-1.0,2449
1906,2136906,17136,-504,1128,17180.48,30.04,-1.00,-1.0,2376
1909,2136909,16992,-468,1248,17044.20,30.13,-1.00,-1.0,2441
1911,2136911,17116,-452,1104,17157.52,30.04,-1.00,-1.0,2374
1914,2136914,17040,-412,1264,17091.78,29.99,-1.00,-1.0,2441
1917,2136917,17000,-432,964,17032.79,30.08,-1.00,-1.0,2375
1920,2136920,17108,-308,1128,17147.91,30.08,-1.00,-1.0,2376
1922,2136922,17012,-100,1288,17060.98,30.04,-1.00,-1.0,2435
1925,2136925,17140,-188,1276,17188.46,30.04,-1.00,-1.0,2372
1930,2136930,16948,-168,904,16972.92,30.04,-1.00,-1.0,2458
1933,2136933,16964,-84,1024,16995.09,30.08,-1.00,-1.0,2377
1936,2136936,16880,-44,932,16905.77,30.04,-1.00,-1.0,2435
1938,2136938,16976,-124,1072,17010.27,30.13,-1.00,-1.0,2362
1941,2136941,17008,-4,1108,17044.05,30.04,-1.00,-1.0,2422
1944,2136944,17032,-40,1036,17063.53,30.04,-1.00,-1.0,2374
1947,2136947,16936,-152,1084,16971.34,30.04,-1.00,-1.0,2441
1949,2136949,16928,-288,1124,16967.72,30.04,-1.00,-1.0,2376
1954,2136954,17076,-348,1192,17121.09,29.94,-1.00,-1.0,2449
1957,2136957,17024,-212,1304,17075.19,30.13,-1.00,-1.0,2377
1960,2136960,17012,-220,1384,17069.62,29.89,-1.00,-1.0,2433
1963,2136963,16960,-252,1292,17011.01,30.04,-1.00,-1.0,2372
1965,2136965,16948,-252,1328,17001.82,29.99,-1.00,-1.0,2372
1968,2136968,17028,-296,1200,17072.80,29.94,-1.00,-1.0,2447
1971,2136971,16936,-424,1184,16982.63,30.13,-1.00,-1.0,2379
1974,2136974,16924,-260,1072,16959.91,30.04,-1.00,-1.0,2441
1976,2136976,16980,-364,1300,17033.58,30.13,-1.00,-1.0,2375
1981,2136981,17032,-340,1384,17091.52,30.13,-1.00,-1.0,2456
1984,2136984,17032,-332,1400,17092.67,30.04,-1.00,-1.0,2369
1987,2136987,17112,-420,1348,17170.15,30.08,-1.00,-1.0,2436
1990,2136990,16976,-408,1348,17034.32,30.04,-1.00,-1.0,2375
1992,2136992,17000,-432,1280,17053.59,29.94,-1.00,-1.0,2436
1995,2136995,17100,-360,1340,17156.20,30.08,-1.00,-1.0,2373
1998,2136998,17048,-380,1288,17100.81,30.08,-1.00,-1.0,2435
2001,2137001,16992,-296,1380,17050.52,30.08,-1.00,-1.0,2380
2006,2137006,17128,-408,1272,17180.01,30.08,-1.00,-1.0,2455
2008,2137008,17056,-480,1376,17118.15,29.94,-1.00,-1.0,2377
2011,2137011,17052,-356,1284,17103.98,30.13,-1.00,-1.0,2439
2014,2137014,16912,-376,1412,16975.01,29.99,-1.00,-1.0,2372
2017,2137017,17032,-380,1372,17091.40,30.04,-1.00,-1.0,2372
2019,2137019,17068,-316,1196,17112.77,29.94,-1.00,-1.0,2436
2022,2137022,17036,-232,1148,17076.21,30.04,-1.00,-1.0,2375
2025,2137025,16924,-204,1188,16966.87,29.99,-1.00,-1.0,2435
2028,2137028,16980,-240,1164,17021.54,29.99,-1.00,-1.0,2372
2033,2137033,17040,-208,1280,17089.27,30.08,-1.00,-1.0,2448
2035,2137035,17068,-260,1296,17119.11,30.13,-1.00,-1.0,2376
2038,2137038,17072,-352,1112,17111.80,29.99,-1.00,-1.0,2435
2041,2137041,17028,-348,1344,17084.50,29.99,-1.00,-1.0,2373
2044,2137044,17120,-308,1388,17178.94,30.04,-1.00,-1.0,2445
2046,2137046,16968,-296,1268,17017.89,30.08,-1.00,-1.0,2374
2049,2137049,16996,-60,1036,17027.65,30.04,-1.00,-1.0,2450
2052,2137052,16932,-288,1152,16973.59,30.04,-1.00,-1.0,2382
2057,2137057,17020,-272,1088,17056.91,30.04,-1.00,-1.0,2449
2060,2137060,17080,-272,1092,17117.03,30.04,-1.00,-1.0,2387
2062,2137062,16932,-212,1244,16978.96,30.04,-1.00,-1.0,2373
2065,2137065,17088,-372,1308,17142.02,29.99,-1.00,-1.0,2435
2068,2137068,17200,-404,1356,17258.10,29.99,-1.00,-1.0,2360
2071,2137071,17072,-428,1304,17127.08,29.99,-1.00,-1.0,2443
2073,2137073,17048,-404,1216,17096.09,30.08,-1.00,-1.0,2375
2076,2137076,17048,-456,1236,17098.83,30.04,-1.00,-1.0,2435
2079,2137079,17124,-224,1300,17174.74,29.99,-1.00,-1.0,2375
2084,2137084,17004,-312,1180,17047.75,30.04,-1.00,-1.0,2456
2087,2137087,16960,-228,1352,17015.33,30.13,-1.00,-1.0,2381
2089,2137089,16976,-276,1176,17018.92,30.04,-1.00,-1.0,2438
2092,2137092,16956,-360,1396,17017.18,30.08,-1.00,-1.0,2378
2095,2137095,17028,-392,1312,17082.97,30.08,-1.00,-1.0,2434
2098,2137098,17104,-420,1492,17174.09,30.18,-1.00,-1.0,2369
2100,2137100,17024,-468,1292,17079.37,30.08,-1.00,-1.0,2435
2103,2137103,17080,-432,1404,17143.05,29.99,-1.00,-1.0,2376
2106,2137106,16996,-408,1380,17056.81,30.13,-1.00,-1.0,2372
2110,2137110,17024,-440,1196,17071.63,30.08,-1.00,-1.0,2449
2113,2137113,17020,-284,1220,17066.03,30.08,-1.00,-1.0,2378
2116,2137116,17048,-364,1200,17094.06,30.04,-1.00,-1.0,2432
2119,2137119,17024,-428,1128,17066.70,30.13,-1.00,-1.0,2379
2122,2137122,16972,-384,1132,17014.04,30.04,-1.00,-1.0,2437
2124,2137124,17040,-308,1168,17082.76,30.04,-1.00,-1.0,2379
2127,2137127,17220,-408,1196,17266.30,29.99,-1.00,-1.0,2448
2130,2137130,17088,-428,1216,17136.56,30.13,-1.00,-1.0,2375
2135,2137135,17116,-332,1436,17179.34,29.99,-1.00,-1.0,2455
2138,2137138,17024,-180,1336,17077.29,29.99,-1.00,-1.0,2385
2140,2137140,17028,-260,1224,17073.91,30.08,-1.00,-1.0,2425
2143,2137143,17076,-232,1192,17119.12,30.08,-1.00,-1.0,2377
2146,2137146,17016,-308,1204,17061.32,30.04,-1.00,-1.0,2475
2149,2137149,16992,-332,1124,17032.37,30.04,-1.00,-1.0,2378
2152,2137152,17032,-368,1184,17077.07,30.08,-1.00,-1.0,2444
2154,2137154,17088,-304,1088,17125.30,30.08,-1.00,-1.0,2378
2157,2137157,17020,-252,1268,17069.03,30.04,-1.00,-1.0,2369
2162,2137162,17000,-228,1228,17045.82,29.99,-1.00,-1.0,2456
2165,2137165,16944,-220,1304,16995.53,29.99,-1.00,-1.0,2379
2168,2137168,17124,-212,1240,17170.15,30.13,-1.00,-1.0,2441
2170,2137170,16968,-212,1432,17029.64,30.04,-1.00,-1.0,2372
2173,2137173,16904,-268,1348,16959.78,30.04,-1.00,-1.0,2440
2176,2137176,16880,-224,1284,16930.25,29.94,-1.00,-1.0,2372
2179,2137179,16984,-208,1368,17040.27,30.08,-1.00,-1.0,2444
2181,2137181,17028,-256,1280,17077.96,30.13,-1.00,-1.0,2369
2186,2137186,16976,-384,1424,17039.95,30.04,-1.00,-1.0,2447
2189,2137189,17004,-392,1456,17070.72,29.94,-1.00,-1.0,2376
2192,2137192,17096,-316,1332,17150.72,30.08,-1.00,-1.0,2435
2195,2137195,17064,-372,1208,17110.75,30.04,-1.00,-1.0,2374
2198,2137198,17020,-332,1208,17066.04,30.08,-1.00,-1.0,2445
2200,2137200,17060,-220,1208,17104.13,30.08,-1.00,-1.0,2375
2203,2137203,17024,-300,1280,17074.69,30.04,-1.00,-1.0,2371
2206,2137206,17104,-288,1260,17152.77,30.13,-1.00,-1.0,2441
2208,2137208,17048,-344,1392,17108.19,30.04,-1.00,-1.0,2371
2213,2137213,17040,-360,1192,17085.43,30.04,-1.00,-1.0,2437
2216,2137216,17032,-332,1440,17095.99,30.04,-1.00,-1.0,2376
2219,2137219,17020,-324,1364,17077.64,30.04,-1.00,-1.0,2437
2222,2137222,17012,-292,1212,17057.62,30.04,-1.00,-1.0,2373
2224,2137224,17044,-336,1212,17090.34,29.99,-1.00,-1.0,2436
2227,2137227,17128,-328,1168,17170.91,30.04,-1.00,-1.0,2370
2230,2137230,17052,-340,1104,17091.08,30.08,-1.00,-1.0,2437
2233,2137233,17064,-312,1232,17111.26,30.08,-1.00,-1.0,2379
2238,2137238,17068,-352,1320,17122.59,30.04,-1.00,-1.0,2454
2240,2137240,17076,-292,1176,17118.94,30.13,-1.00,-1.0,2376
2243,2137243,17084,-300,1340,17139.10,29.99,-1.00,-1.0,2437
2246,2137246,16956,-304,1220,17002.55,30.08,-1.00,-1.0,2369
2249,2137249,16964,-224,1144,17004.01,30.08,-1.00,-1.0,2446
2252,2137252,17048,-184,1228,17093.16,30.08,-1.00,-1.0,2379
2254,2137254,17068,-248,1212,17112.78,30.13,-1.00,-1.0,2371
2257,2137257,16988,-304,1192,17032.48,30.04,-1.00,-1.0,2435
2260,2137260,17044,-212,1304,17095.12,30.04,-1.00,-1.0,2370
2265,2137265,17004,-136,1260,17051.16,29.99,-1.00,-1.0,2481
2267,2137267,16956,-252,1228,17002.28,29.99,-1.00,-1.0,2371
2270,2137270,17064,-324,1296,17116.21,29.94,-1.00,-1.0,2447
2273,2137273,16964,-360,1208,17010.77,30.13,-1.00,-1.0,2385
2276,2137276,17012,-356,1192,17057.43,30.13,-1.00,-1.0,2439
2279,2137279,17040,-328,1300,17092.66,30.13,-1.00,-1.0,2370
2281,2137281,17084,-224,1172,17125.62,29.94,-1.00,-1.0,2437
2284,2137284,17076,-260,1336,17130.16,30.13,-1.00,-1.0,2371
2289,2137289,17060,-208,1352,17114.75,30.08,-1.00,-1.0,2452
2292,2137292,16964,-312,1300,17016.60,30.08,-1.00,-1.0,2380
2295,2137295,17016,-244,1380,17073.61,30.08,-1.00,-1.0,2437
2297,2137297,17016,-352,1372,17074.85,30.08,-1.00,-1.0,2371
2300,2137300,16980,-324,1236,17028.01,30.04,-1.00,-1.0,2360
2303,2137303,16976,-340,1336,17031.88,30.13,-1.00,-1.0,2437
2305,2137305,16976,-348,1336,17032.04,30.04,-1.00,-1.0,2361
2308,2137308,17020,-344,1344,17076.45,30.04,-1.00,-1.0,2438
2311,2137311,17040,-408,1252,17090.80,30.04,-1.00,-1.0,2370
2316,2137316,17108,-324,1268,17157.99,30.04,-1.00,-1.0,2454
2318,2137318,17076,-356,1360,17133.77,30.04,-1.00,-1.0,2381
2321,2137321,17100,-348,1236,17148.14,30.13,-1.00,-1.0,2437
2324,2137324,17072,-396,1248,17122.13,30.04,-1.00,-1.0,2375
2327,2137327,17140,-284,1160,17181.56,30.08,-1.00,-1.0,2437
2329,2137329,17076,-352,1060,17112.49,29.99,-1.00,-1.0,2371
2332,2137332,17072,-308,1316,17125.42,30.08,-1.00,-1.0,2439
2335,2137335,17000,-304,1120,17039.57,30.08,-1.00,-1.0,2372
2340,2137340,16928,-296,1268,16978.00,30.08,-1.00,-1.0,2450
2343,2137343,17008,-312,1252,17056.87,29.99,-1.00,-1.0,2375
2345,2137345,17076,-276,1208,17120.90,30.08,-1.00,-1.0,2438
2348,2137348,17080,-312,1104,17118.49,30.08,-1.00,-1.0,2368
2351,2137351,16992,-292,1224,17038.53,30.04,-1.00,-1.0,2378
2354,2137354,17028,-220,1176,17069.98,29.99,-1.00,-1.0,2448
2356,2137356,17116,-244,1176,17158.09,30.04,-1.00,-1.0,2380
2359,2137359,17048,-292,1072,17084.17,30.08,-1.00,-1.0,2436
2362,2137362,17056,-244,1320,17108.74,30.08,-1.00,-1.0,2371
2367,2137367,17056,-308,1232,17103.21,30.08,-1.00,-1.0,2453
2370,2137370,17008,-268,1324,17061.56,30.04,-1.00,-1.0,2372
2372,2137372,17028,-284,1160,17069.83,29.99,-1.00,-1.0,2438
2375,2137375,17040,-336,1284,17091.61,29.99,-1.00,-1.0,2371
2378,2137378,17032,-248,1384,17089.94,30.08,-1.00,-1.0,2437
2381,2137381,17120,-308,1388,17178.94,30.08,-1.00,-1.0,2369
2384,2137384,16956,-328,1256,17005.62,30.04,-1.00,-1.0,2439
2386,2137386,16932,-352,1284,16984.26,30.04,-1.00,-1.0,2373
2391,2137391,17112,-392,1344,17169.17,30.04,-1.00,-1.0,2451
2394,2137394,17020,-312,1428,17082.65,29.99,-1.00,-1.0,2372
2397,2137397,17104,-388,1384,17164.29,30.13,-1.00,-1.0,2376
2399,2137399,17000,-404,1376,17060.38,30.08,-1.00,-1.0,2445
2402,2137402,17024,-400,1232,17073.21,30.13,-1.00,-1.0,2374
2405,2137405,17060,-308,1140,17100.82,29.99,-1.00,-1.0,2438
2408,2137408,17104,-348,1304,17157.17,30.08,-1.00,-1.0,2368
2410,2137410,16900,-384,1296,16953.97,29.99,-1.00,-1.0,2437
2413,2137413,17068,-284,1268,17117.39,30.08,-1.00,-1.0,2371
2418,2137418,17088,-252,1328,17141.38,29.99,-1.00,-1.0,2451
2421,2137421,17044,-364,1140,17085.96,30.08,-1.00,-1.0,2373
2424,2137424,17036,-332,1108,17075.22,30.04,-1.00,-1.0,2443
2426,2137426,17052,-244,1276,17101.42,30.04,-1.00,-1.0,2371
2429,2137429,17004,-248,1332,17057.89,30.13,-1.00,-1.0,2442
2432,2137432,17332,-692,2228,17488.31,30.04,-1.00,-1.0,2372
2435,2137435,32767,6304,-32768,nan,30.13,-1.00,-1.0,2435
2437,2137437,11004,-17220,32767,38617.26,30.04,-1.00,-1.0,2373
2442,2137442,12912,20532,3564,24514.99,30.13,-1.00,-1.0,2446
2445,2137445,11988,-28356,7580,31705.38,30.04,-1.00,-1.0,2372
2448,2137448,26204,12696,12444,31665.30,29.99,-1.00,-1.0,2371
2451,2137451,18024,6096,4740,19608.50,30.08,-1.00,-1.0,2441
2453,2137453,14048,-21248,1120,25496.63,30.08,-1.00,-1.0,2376
2456,2137456,15244,16496,9096,24232.93,30.04,-1.00,-1.0,2433
2459,2137459,24088,-6448,2960,25111.15,30.04,-1.00,-1.0,2372
2462,2137462,16364,-3244,-128,16682.94,30.04,-1.00,-1.0,2441
2464,2137464,13236,-1860,3412,13794.67,30.04,-1.00,-1.0,2375
2469,2137469,21248,19976,288,29165.06,30.13,-1.00,-1.0,2448
2472,2137472,19116,-9088,5196,21794.76,30.04,-1.00,-1.0,2376
2475,2137475,8288,4084,4884,10451.00,30.04,-1.00,-1.0,2432
2478,2137478,20224,-2240,-2920,20556.12,30.04,-1.00,-1.0,2377
2481,2137481,19180,-7516,2036,20700.43,30.08,-1.00,-1.0,2447
2483,2137483,13512,2276,3140,14057.52,29.99,-1.00,-1.0,2386
2486,2137486,23032,992,5824,23777.64,30.08,-1.00,-1.0,2440
2489,2137489,16376,-2496,-4176,17083.39,30.08,-1.00,-1.0,2370
2494,2137494,19056,1628,2836,19334.54,30.04,-1.00,-1.0,2449
2497,2137497,14680,-2316,-4024,15396.71,30.04,-1.00,-1.0,2372
2500,2137500,14716,3712,-2312,15352.03,30.13,-1.00,-1.0,2434
2503,2137503,17748,-668,992,17788.25,30.13,-1.00,-1.0,2373
2506,2137506,18324,160,-252,18326.43,30.08,-1.00,-1.0,2435
2508,2137508,18760,3888,624,19168.82,30.04,-1.00,-1.0,2370
2511,2137511,18968,-3916,1048,19396.35,30.08,-1.00,-1.0,2372
2514,2137514,16192,3876,1468,16714.04,30.13,-1.00,-1.0,2442
2516,2137516,15332,-4500,44,15978.80,30.04,-1.00,-1.0,2380
2521,2137521,16052,788,2464,16259.12,29.99,-1.00,-1.0,2462
2524,2137524,17280,-1208,1276,17369.11,29.99,-1.00,-1.0,2378
2527,2137527,17296,2392,1292,17508.36,29.94,-1.00,-1.0,2433
2529,2137529,17928,-1172,1728,18049.18,29.94,-1.00,-1.0,2370
2532,2137532,17928,760,1104,17978.03,29.94,-1.00,-1.0,2435
2535,2137535,17412,108,-1236,17456.15,30.04,-1.00,-1.0,2373
2538,2137538,17540,-668,1120,17588.41,29.99,-1.00,-1.0,2439
2540,2137540,15452,1392,1812,15620.03,30.04,-1.00,-1.0,2359
2545,2137545,17708,-1028,936,17762.49,30.04,-1.00,-1.0,2448
2548,2137548,17744,696,3272,18056.58,30.04,-1.00,-1.0,2359
2551,2137551,17396,664,872,17430.49,30.04,-1.00,-1.0,2435
2554,2137554,16372,-1072,-732,16423.38,29.99,-1.00,-1.0,2379
2556,2137556,16656,-272,2140,16795.12,30.08,-1.00,-1.0,2378
2559,2137559,17288,196,1384,17344.42,30.13,-1.00,-1.0,2435
2562,2137562,18088,-524,1600,18166.19,30.04,-1.00,-1.0,2373
2565,2137565,16428,-1288,2328,16642.05,30.04,-1.00,-1.0,2434
2567,2137567,17360,-320,2280,17512.01,30.04,-1.00,-1.0,2373
2572,2137572,17380,-616,2560,17578.32,30.04,-1.00,-1.0,2451
2575,2137575,17272,-64,1664,17352.09,30.13,-1.00,-1.0,2373
2578,2137578,17144,-1060,1056,17209.17,30.04,-1.00,-1.0,2434
2581,2137581,17544,208,476,17551.69,30.13,-1.00,-1.0,2370
2584,2137584,16280,116,1604,16359.24,29.99,-1.00,-1.0,2437
2586,2137586,16688,360,616,16703.25,29.99,-1.00,-1.0,2372
2589,2137589,16352,-840,968,16402.15,30.08,-1.00,-1.0,2440
2592,2137592,16964,-88,1104,17000.11,30.08,-1.00,-1.0,2379
2594,2137594,17160,464,788,17184.35,30.04,-1.00,-1.0,2371
2600,2137600,17140,-728,1968,17267.96,29.94,-1.00,-1.0,2448
2602,2137602,17036,136,1548,17106.73,30.04,-1.00,-1.0,2379
2605,2137605,17136,-1296,1684,17267.25,29.94,-1.00,-1.0,2442
2608,2137608,16596,336,1216,16643.88,29.94,-1.00,-1.0,2358
2611,2137611,17312,-1996,1336,17477.82,29.94,-1.00,-1.0,2433
2613,2137613,16968,548,1100,17012.45,30.13,-1.00,-1.0,2373
2616,2137616,17032,-1056,976,17092.59,29.99,-1.00,-1.0,2435
2619,2137619,16788,572,780,16815.84,30.04,-1.00,-1.0,2373
2624,2137624,17324,-184,988,17353.12,30.04,-1.00,-1.0,2450
2627,2137627,16876,-120,632,16888.26,30.08,-1.00,-1.0,2435
2630,2137630,17260,-760,972,17304.04,30.04,-1.00,-1.0,2423
2632,2137632,16724,616,848,16756.81,30.04,-1.00,-1.0,2389
2635,2137635,16876,-760,616,16904.33,30.08,-1.00,-1.0,2368
2638,2137638,16844,344,1288,16896.67,30.04,-1.00,-1.0,2428
2640,2137640,16960,-52,1136,16998.08,30.08,-1.00,-1.0,2389
2643,2137643,17120,-996,1340,17201.22,30.04,-1.00,-1.0,2427
2646,2137646,17072,164,1448,17134.08,30.04,-1.00,-1.0,2395
2651,2137651,16932,272,992,16963.21,30.13,-1.00,-1.0,2437
2654,2137654,16836,-584,1600,16921.94,30.04,-1.00,-1.0,2388
2657,2137657,17160,-560,1420,17227.76,30.13,-1.00,-1.0,2447
2659,2137659,16956,28,1644,17035.54,30.04,-1.00,-1.0,2381
2662,2137662,17440,-676,1816,17547.32,29.99,-1.00,-1.0,2435
2665,2137665,16988,436,1628,17071.40,30.04,-1.00,-1.0,2372
2668,2137668,16948,-172,1308,16999.27,30.08,-1.00,-1.0,2433
2670,2137670,16964,-260,1572,17038.66,30.08,-1.00,-1.0,2373
2675,2137675,16932,-256,1432,16994.38,30.08,-1.00,-1.0,2426
2678,2137678,17012,208,1176,17053.87,30.04,-1.00,-1.0,2438
2681,2137681,17000,-656,1784,17105.93,29.94,-1.00,-1.0,2377
2684,2137684,17020,-368,1324,17075.39,29.99,-1.00,-1.0,2425
2686,2137686,16888,-440,1124,16931.08,30.08,-1.00,-1.0,2391
2689,2137689,16896,-928,732,16937.29,30.13,-1.00,-1.0,2415
2692,2137692,17292,-780,1252,17354.80,30.04,-1.00,-1.0,2393
2695,2137695,17284,-572,1272,17340.18,30.04,-1.00,-1.0,2420
2698,2137698,17076,-800,1064,17127.81,29.94,-1.00,-1.0,2392
2702,2137702,16980,-668,1196,17035.17,29.99,-1.00,-1.0,2444
2705,2137705,17088,-296,1016,17120.74,30.08,-1.00,-1.0,2382
2708,2137708,16840,-208,1064,16874.86,30.08,-1.00,-1.0,2431
2711,2137711,17108,-264,1228,17154.05,30.08,-1.00,-1.0,2376
2713,2137713,16920,320,1192,16964.95,30.04,-1.00,-1.0,2417
2716,2137716,17084,-460,1004,17119.66,30.08,-1.00,-1.0,2375
2719,2137719,16928,-8,1240,16973.36,30.04,-1.00,-1.0,2431
2722,2137722,17172,-720,1420,17245.65,30.04,-1.00,-1.0,2384
2724,2137724,17148,-272,1384,17205.91,30.04,-1.00,-1.0,2377
2729,2137729,17028,-544,1252,17082.63,30.04,-1.00,-1.0,2440
2732,2137732,17032,-312,1312,17085.31,30.13,-1.00,-1.0,2388
2735,2137735,17100,-604,1452,17172.16,30.13,-1.00,-1.0,2434
2737,2137737,17048,-236,1456,17111.69,30.04,-1.00,-1.0,2382
2740,2137740,16828,-416,1292,16882.65,30.08,-1.00,-1.0,2426
2743,2137743,16772,-196,1316,16824.69,30.04,-1.00,-1.0,2380
2746,2137746,16892,-40,1360,16946.71,30.08,-1.00,-1.0,2439
2748,2137748,17020,-360,1468,17086.98,29.99,-1.00,-1.0,2381
2753,2137753,17128,-152,1404,17186.12,29.99,-1.00,-1.0,2449
2756,2137756,17168,-100,1284,17216.24,30.08,-1.00,-1.0,2381
2759,2137759,16956,-288,1232,17003.14,30.13,-1.00,-1.0,2433
2762,2137762,16936,-304,936,16964.57,30.08,-1.00,-1.0,2376
2764,2137764,17052,-212,1132,17090.85,30.04,-1.00,-1.0,2431
2767,2137767,17136,-508,1140,17181.39,30.04,-1.00,-1.0,2375
2770,2137770,16944,-236,944,16971.92,30.04,-1.00,-1.0,2379
2773,2137773,17076,-436,980,17109.65,29.99,-1.00,-1.0,2440
2775,2137775,16900,-312,1168,16943.19,29.99,-1.00,-1.0,2388
2780,2137780,17060,-284,1172,17102.57,29.99,-1.00,-1.0,2446
2783,2137783,16848,-52,1172,16888.79,30.08,-1.00,-1.0,2396
2786,2137786,16960,-500,1380,17023.40,29.99,-1.00,-1.0,2431
2789,2137789,17032,-164,1260,17079.33,30.08,-1.00,-1.0,2376
2791,2137791,17120,-360,1384,17179.62,30.04,-1.00,-1.0,2432
2794,2137794,17040,-516,1148,17086.42,30.04,-1.00,-1.0,2378
2797,2137797,16924,-516,1152,16971.01,30.04,-1.00,-1.0,2431
2800,2137800,17056,-384,1124,17097.31,29.94,-1.00,-1.0,2374
2805,2137805,17044,-480,1184,17091.82,30.13,-1.00,-1.0,2438
2807,2137807,16980,-440,1408,17043.96,30.04,-1.00,-1.0,2379
2810,2137810,17036,-296,1132,17076.13,30.04,-1.00,-1.0,2437
2813,2137813,17064,-356,1400,17125.04,30.04,-1.00,-1.0,2378
2816,2137816,17032,-220,1540,17102.89,29.99,-1.00,-1.0,2372
2818,2137818,16984,-92,1488,17049.31,30.08,-1.00,-1.0,2440
2821,2137821,17112,-60,1452,17173.60,30.08,-1.00,-1.0,2385
2824,2137824,16944,-168,1332,16997.11,30.13,-1.00,-1.0,2429
2827,2137827,17044,-192,1236,17089.84,30.04,-1.00,-1.0,2374
2832,2137832,17088,-228,1248,17135.03,30.13,-1.00,-1.0,2441
2834,2137834,17060,-260,1328,17113.58,30.04,-1.00,-1.0,2387
2837,2137837,17108,-264,1084,17144.34,30.04,-1.00,-1.0,2434
2840,2137840,17124,-424,1424,17188.34,30.13,-1.00,-1.0,2376
2843,2137843,16972,-464,1272,17025.92,30.04,-1.00,-1.0,2437
2845,2137845,17028,-412,1156,17072.17,30.13,-1.00,-1.0,2375
2848,2137848,17012,-292,1496,17080.15,30.08,-1.00,-1.0,2433
2851,2137851,17132,-248,1552,17203.94,30.08,-1.00,-1.0,2377
2856,2137856,17076,-304,1500,17144.45,30.08,-1.00,-1.0,2439
2859,2137859,17020,-300,1624,17099.94,30.04,-1.00,-1.0,2390
2861,2137861,17016,-396,1612,17096.77,29.99,-1.00,-1.0,2377
2864,2137864,16948,-436,1352,17007.43,30.04,-1.00,-1.0,2430
2867,2137867,17020,-528,1388,17084.66,30.04,-1.00,-1.0,2379
2870,2137870,16960,-536,1320,17019.73,30.04,-1.00,-1.0,2433
2872,2137872,17064,-432,1340,17121.98,30.04,-1.00,-1.0,2379
2875,2137875,17096,-472,1356,17156.19,30.08,-1.00,-1.0,2431
2878,2137878,17148,-200,1268,17195.98,30.08,-1.00,-1.0,2376
2883,2137883,17060,-372,1516,17131.27,29.99,-1.00,-1.0,2438
2886,2137886,16936,-384,1120,16977.34,30.04,-1.00,-1.0,2379
2889,2137889,16964,-408,1304,17018.94,29.99,-1.00,-1.0,2431
2891,2137891,16984,-364,1196,17029.95,29.99,-1.00,-1.0,2378
2894,2137894,16948,-328,1016,16981.59,30.13,-1.00,-1.0,2446
2897,2137897,17044,-476,1060,17083.56,30.08,-1.00,-1.0,2382
2900,2137900,17060,-452,972,17093.64,30.04,-1.00,-1.0,2443
2902,2137902,17028,-468,964,17061.69,30.13,-1.00,-1.0,2384
2907,2137907,17056,-388,984,17088.77,30.08,-1.00,-1.0,2439
2910,2137910,17024,-216,1008,17055.18,30.04,-1.00,-1.0,2381
2912,2137912,17180,-220,1012,17211.19,30.08,-1.00,-1.0,2369
2915,2137915,17216,-164,1164,17256.08,30.04,-1.00,-1.0,2443
2918,2137918,17008,-128,1260,17055.09,30.04,-1.00,-1.0,2390
2921,2137921,16960,-236,1228,17006.04,30.04,-1.00,-1.0,2432
2924,2137924,16852,-104,1084,16887.15,30.13,-1.00,-1.0,2378
2926,2137926,16944,-120,1232,16989.15,29.99,-1.00,-1.0,2428
2929,2137929,16972,-80,1140,17010.43,30.04,-1.00,-1.0,2375
2934,2137934,16952,-192,1172,16993.55,30.13,-1.00,-1.0,2447
2937,2137937,17000,-308,1320,17053.95,30.04,-1.00,-1.0,2387
2939,2137939,17040,-344,1264,17090.28,30.08,-1.00,-1.0,2435
2942,2137942,17080,-328,1348,17136.25,30.04,-1.00,-1.0,2376
2945,2137945,17052,-388,1300,17105.88,30.08,-1.00,-1.0,2430
2948,2137948,17036,-276,1488,17103.09,30.04,-1.00,-1.0,2375
2950,2137950,17044,-252,1436,17106.24,30.08,-1.00,-1.0,2418
2953,2137953,17072,-212,1292,17122.13,30.18,-1.00,-1.0,2378
2956,2137956,17036,-284,1336,17090.67,30.04,-1.00,-1.0,2378
2961,2137961,16936,-428,1216,16984.99,30.04,-1.00,-1.0,2449
2963,2137963,17004,-368,1304,17057.90,29.94,-1.00,-1.0,2381
2966,2137966,17024,-344,1324,17078.87,30.13,-1.00,-1.0,2439
2969,2137969,17052,-440,1340,17110.23,30.04,-1.00,-1.0,2388
2972,2137972,17116,-328,1352,17172.45,30.08,-1.00,-1.0,2433
2975,2137975,17124,-448,1200,17171.84,30.04,-1.00,-1.0,2380
2977,2137977,17036,-376,1228,17084.34,30.08,-1.00,-1.0,2430
2980,2137980,17096,-408,1228,17144.90,30.18,-1.00,-1.0,2374
2985,2137985,16964,-156,1164,17004.60,30.08,-1.00,-1.0,2437
2988,2137988,17040,-436,1304,17095.38,29.99,-1.00,-1.0,2378
2991,2137991,16992,-272,1340,17046.93,30.08,-1.00,-1.0,2439
2993,2137993,17140,-348,1104,17179.04,29.99,-1.00,-1.0,2378
2996,2137996,17040,-324,1304,17092.89,30.04,-1.00,-1.0,2432
2999,2137999,17036,-444,1356,17095.65,30.04,-1.00,-1.0,2375
3002,2138002,17052,-360,1384,17111.86,30.04,-1.00,-1.0,2376
3004,2138004,17072,-408,1392,17133.51,29.99,-1.00,-1.0,2432
3007,2138007,16972,-408,1216,17020.40,29.99,-1.00,-1.0,2380
3012,2138012,16944,-164,1252,16990.98,30.04,-1.00,-1.0,2449
3015,2138015,16996,-104,1216,17039.76,30.13,-1.00,-1.0,2396
3018,2138018,17008,-188,1156,17048.28,29.99,-1.00,-1.0,2432
3021,2138021,16984,-308,1196,17028.84,30.04,-1.00,-1.0,2375
3023,2138023,17096,-260,1232,17142.30,30.08,-1.00,-1.0,2431
3026,2138026,17044,-284,1260,17092.87,30.08,-1.00,-1.0,2377
3029,2138029,17036,-320,1304,17088.83,30.04,-1.00,-1.0,2430
3032,2138032,17020,-300,1252,17068.62,30.08,-1.00,-1.0,2374
3037,2138037,16980,-236,1228,17025.98,30.08,-1.00,-1.0,2438
3039,2138039,17028,-232,1160,17069.04,30.08,-1.00,-1.0,2379
3042,2138042,16968,-164,1096,17004.15,30.04,-1.00,-1.0,2435
3045,2138045,16948,-284,1112,16986.82,30.04,-1.00,-1.0,2377
3048,2138048,17048,-164,1116,17085.28,30.13,-1.00,-1.0,2438
3050,2138050,17140,-224,1072,17174.95,30.04,-1.00,-1.0,2376
3053,2138053,16992,-248,1192,17035.56,29.99,-1.00,-1.0,2377
3056,2138056,17104,-364,1376,17163.12,29.99,-1.00,-1.0,2429
3059,2138059,17104,-460,1220,17153.62,29.99,-1.00,-1.0,2376
3064,2138064,16992,-396,1444,17057.84,30.08,-1.00,-1.0,2444
3066,2138066,16972,-400,1480,17041.10,30.08,-1.00,-1.0,2390
3069,2138069,17088,-408,1324,17144.07,30.04,-1.00,-1.0,2431
3072,2138072,17048,-324,1284,17099.36,30.08,-1.00,-1.0,2376
3075,2138075,16952,-276,1428,17014.28,30.04,-1.00,-1.0,2439
3077,2138077,16984,-248,1352,17039.53,29.94,-1.00,-1.0,2378
3080,2138080,17004,-248,1432,17065.99,30.04,-1.00,-1.0,2431
3083,2138083,17020,-352,1472,17087.16,30.04,-1.00,-1.0,2376
3088,2138088,17044,-408,1420,17107.92,30.13,-1.00,-1.0,2438
3091,2138091,17036,-408,1404,17098.62,30.13,-1.00,-1.0,2379
3094,2138094,17072,-468,1436,17138.68,30.08,-1.00,-1.0,2483
3096,2138096,17100,-428,1436,17165.53,30.04,-1.00,-1.0,2371
3099,2138099,17016,-376,1376,17075.69,30.04,-1.00,-1.0,2368
3102,2138102,17052,-388,1216,17099.71,29.99,-1.00,-1.0,2440
3105,2138105,16996,-212,1072,17031.09,30.04,-1.00,-1.0,2377
3107,2138107,17056,-316,1056,17091.58,29.99,-1.00,-1.0,2441
3110,2138110,17064,-380,1000,17097.50,30.08,-1.00,-1.0,2376
3115,2138115,17084,-356,1080,17121.80,30.13,-1.00,-1.0,2444
3118,2138118,17048,-416,1192,17094.68,30.04,-1.00,-1.0,2373
3120,2138120,17064,-264,1160,17105.42,30.13,-1.00,-1.0,2426
3123,2138123,16996,-244,1228,17042.05,30.04,-1.00,-1.0,2369
3126,2138126,17036,-268,1176,17078.64,30.08,-1.00,-1.0,2437
3129,2138129,17004,-216,1156,17044.62,30.04,-1.00,-1.0,2380
3132,2138132,17036,-404,1080,17074.98,29.99,-1.00,-1.0,2435
3134,2138134,17032,-312,1184,17075.96,29.99,-1.00,-1.0,2370
3139,2138139,17088,-184,1216,17132.20,30.04,-1.00,-1.0,2429
3142,2138142,16988,-252,1196,17031.91,30.04,-1.00,-1.0,2372
3144,2138144,16976,-316,1244,17024.45,30.04,-1.00,-1.0,2441
3147,2138147,16988,-276,1272,17037.79,30.04,-1.00,-1.0,2371
3150,2138150,17052,-208,1324,17104.59,29.99,-1.00,-1.0,2377
3153,2138153,16992,-216,1416,17052.27,29.94,-1.00,-1.0,2443
3155,2138155,16964,-232,1272,17013.20,30.04,-1.00,-1.0,2378
3158,2138158,17076,-232,1420,17136.51,29.94,-1.00,-1.0,2435
3161,2138161,16980,-112,1436,17040.98,30.04,-1.00,-1.0,2372
3166,2138166,16956,-212,1312,17008.00,30.04,-1.00,-1.0,2449
3169,2138169,17016,-224,1420,17076.62,29.94,-1.00,-1.0,2376
3171,2138171,17056,-260,1348,17111.16,30.04,-1.00,-1.0,2439
3174,2138174,16960,-352,1160,17003.27,30.04,-1.00,-1.0,2370
3177,2138177,16992,-480,1268,17046.01,29.99,-1.00,-1.0,2436
3180,2138180,17124,-432,1304,17179.01,29.94,-1.00,-1.0,2371
3183,2138183,17080,-380,1244,17129.46,29.99,-1.00,-1.0,2434
3185,2138185,17092,-436,1332,17149.37,29.99,-1.00,-1.0,2370
3190,2138190,16992,-224,1096,17028.78,30.08,-1.00,-1.0,2447
3193,2138193,16956,-272,1300,17007.94,29.99,-1.00,-1.0,2371
3196,2138196,17088,-136,1100,17123.91,30.18,-1.00,-1.0,2373
3198,2138198,17012,-340,1292,17064.38,30.13,-1.00,-1.0,2447
3201,2138201,17124,-284,1356,17179.95,30.04,-1.00,-1.0,2374
3204,2138204,17064,-368,1372,17123.02,30.04,-1.00,-1.0,2436
3207,2138207,17112,-352,1204,17157.92,30.04,-1.00,-1.0,2370
3209,2138209,17044,-476,1220,17094.24,30.13,-1.00,-1.0,2436
3212,2138212,16952,-320,1252,17001.18,30.04,-1.00,-1.0,2371
3217,2138217,17076,-316,1128,17116.13,30.04,-1.00,-1.0,2444
3220,2138220,16972,-276,1308,17024.56,30.13,-1.00,-1.0,2374
3223,2138223,17008,-392,1232,17057.07,30.08,-1.00,-1.0,2445
3225,2138225,17016,-324,1172,17059.39,30.04,-1.00,-1.0,2371
3228,2138228,16944,-420,1372,17004.64,30.18,-1.00,-1.0,2437
3231,2138231,17004,-308,1172,17047.12,29.99,-1.00,-1.0,2372
3234,2138234,17036,-336,1240,17084.37,30.04,-1.00,-1.0,2470
3237,2138237,17092,-280,1284,17142.45,30.04,-1.00,-1.0,2370
3242,2138242,17060,-228,1172,17101.73,30.18,-1.00,-1.0,2445
3244,2138244,17012,-336,1292,17064.30,30.04,-1.00,-1.0,2372
3247,2138247,17168,-248,1124,17206.54,30.08,-1.00,-1.0,2370
3250,2138250,17044,-316,1260,17093.43,30.04,-1.00,-1.0,2448
3253,2138253,16912,-312,1252,16961.15,30.13,-1.00,-1.0,2374
3255,2138255,17080,-336,1220,17126.81,30.04,-1.00,-1.0,2445
3258,2138258,17156,-256,1228,17201.80,30.13,-1.00,-1.0,2379
3261,2138261,17044,-344,1188,17088.82,30.08,-1.00,-1.0,2434
3264,2138264,16928,-256,1268,16977.35,30.04,-1.00,-1.0,2370
3269,2138269,17152,-308,1324,17205.78,30.04,-1.00,-1.0,2445
3271,2138271,16956,-328,1192,17001.01,30.04,-1.00,-1.0,2379
3274,2138274,17024,-280,1388,17082.79,30.08,-1.00,-1.0,2439
3277,2138277,16976,-256,1432,17038.21,30.08,-1.00,-1.0,2372
3280,2138280,17028,-184,1344,17081.95,29.99,-1.00,-1.0,2441
3282,2138282,17076,-228,1352,17130.96,30.18,-1.00,-1.0,2371
3285,2138285,17048,-280,1344,17103.19,30.04,-1.00,-1.0,2439
3288,2138288,17064,-372,1436,17128.36,30.04,-1.00,-1.0,2372
3291,2138291,17040,-292,1248,17088.13,29.94,-1.00,-1.0,2372
3296,2138296,17080,-320,1308,17133.00,30.04,-1.00,-1.0,2449
3298,2138298,16980,-292,1364,17037.20,30.04,-1.00,-1.0,2382
3301,2138301,17088,-340,1308,17141.36,29.99,-1.00,-1.0,2439
3304,2138304,17032,-328,1280,17083.18,30.08,-1.00,-1.0,2370
3307,2138307,17076,-320,1116,17115.42,29.99,-1.00,-1.0,2435
3309,2138309,16960,-404,1272,17012.43,30.08,-1.00,-1.0,2373
3312,2138312,16996,-324,1228,17043.38,30.04,-1.00,-1.0,2437
3315,2138315,16988,-348,1036,17023.12,30.08,-1.00,-1.0,2369
3321,2138321,16980,-300,1076,17016.70,30.04,-1.00,-1.0,2458
3323,2138323,17000,-240,1140,17039.87,30.04,-1.00,-1.0,2385
3326,2138326,17040,-296,1068,17076.00,30.08,-1.00,-1.0,2436
3329,2138329,16948,-244,1056,16982.62,30.08,-1.00,-1.0,2360
3332,2138332,16932,-164,1136,16970.86,30.13,-1.00,-1.0,2442
3334,2138334,17036,-256,1140,17076.02,30.08,-1.00,-1.0,2371
3337,2138337,17060,-264,1076,17095.94,30.04,-1.00,-1.0,2434
3340,2138340,17096,-188,1100,17132.38,30.04,-1.00,-1.0,2374
3343,2138343,16948,-292,1264,16997.58,30.04,-1.00,-1.0,2372
3347,2138347,17008,-328,1204,17053.72,30.04,-1.00,-1.0,2444
3350,2138350,17072,-356,1256,17121.84,30.13,-1.00,-1.0,2376
3353,2138353,17016,-428,1296,17070.65,29.99,-1.00,-1.0,2439
3356,2138356,17104,-328,1328,17158.61,29.99,-1.00,-1.0,2381
3358,2138358,17056,-400,1288,17109.24,30.08,-1.00,-1.0,2429
3361,2138361,17180,-320,1472,17245.91,29.99,-1.00,-1.0,2376
3364,2138364,17060,-316,1328,17114.53,30.08,-1.00,-1.0,2433
3367,2138367,17056,-336,1332,17111.23,30.08,-1.00,-1.0,2370
3372,2138372,17044,-312,1448,17108.24,30.08,-1.00,-1.0,2445
3374,2138374,17064,-436,1476,17133.27,29.99,-1.00,-1.0,2376
3377,2138377,16972,-384,1452,17038.33,30.04,-1.00,-1.0,2438
3380,2138380,17004,-404,1404,17066.65,30.04,-1.00,-1.0,2373
3383,2138383,17096,-420,1364,17155.47,30.04,-1.00,-1.0,2442
3385,2138385,16952,-456,1424,17017.81,30.04,-1.00,-1.0,2371
3388,2138388,17092,-456,1416,17156.62,29.99,-1.00,-1.0,2377
3391,2138391,17104,-384,1356,17161.96,30.08,-1.00,-1.0,2437
3394,2138394,16992,-360,1308,17046.07,29.99,-1.00,-1.0,2377
3399,2138399,17092,-316,1228,17138.97,30.08,-1.00,-1.0,2446
3401,2138401,17056,-432,1228,17105.61,29.89,-1.00,-1.0,2384
3404,2138404,26116,860,-27456,37902.73,30.04,-1.00,-1.0,2437
3407,2138407,5264,1860,6212,8352.14,30.08,-1.00,-1.0,2371
3410,2138410,4896,284,-2848,5671.21,30.04,-1.00,-1.0,2444
3412,2138412,14720,13156,8636,21548.53,30.04,-1.00,-1.0,2372
3415,2138415,12428,-11520,2352,17108.40,30.04,-1.00,-1.0,2438
3418,2138418,20656,1944,4788,21292.59,30.04,-1.00,-1.0,2369
3423,2138423,12432,-16624,1932,20848.13,30.04,-1.00,-1.0,2447
3426,2138426,17988,11972,6836,22663.36,30.13,-1.00,-1.0,2382
3429,2138429,17408,-4824,-5080,18764.75,30.08,-1.00,-1.0,2437
3431,2138431,13144,-1348,368,13218.07,30.04,-1.00,-1.0,2378
3434,2138434,12168,-3260,3216,13001.17,30.18,-1.00,-1.0,2449
3437,2138437,18764,-11088,-2624,21952.60,29.99,-1.00,-1.0,2372
3440,2138440,16136,15944,820,22699.21,30.04,-1.00,-1.0,2442
3442,2138442,21756,-7796,3612,23391.19,30.04,-1.00,-1.0,2379
3445,2138445,15224,8280,-548,17338.65,30.04,-1.00,-1.0,2368
3450,2138450,18896,-1800,1724,19059.67,30.13,-1.00,-1.0,2452
3453,2138453,18048,9264,2948,20499.82,30.04,-1.00,-1.0,2380
3456,2138456,19832,-7116,1820,21148.48,30.04,-1.00,-1.0,2440
3458,2138458,16448,760,-464,16472.09,30.04,-1.00,-1.0,2370
3461,2138461,17228,-2692,3244,17736.24,30.13,-1.00,-1.0,2437
3464,2138464,16940,-496,-540,16955.86,30.13,-1.00,-1.0,2372
3467,2138467,14128,-596,-3880,14663.22,29.99,-1.00,-1.0,2439
3469,2138469,18700,2524,1236,18910.00,29.99,-1.00,-1.0,2369
3474,2138474,18052,-104,-128,18052.75,30.08,-1.00,-1.0,2443
3477,2138477,17700,920,920,17747.75,30.13,-1.00,-1.0,2375
3480,2138480,16212,-3692,572,16636.92,30.08,-1.00,-1.0,2436
3483,2138483,17224,1912,1784,17421.38,29.99,-1.00,-1.0,2381
3486,2138486,15816,-3264,-60,16149.40,30.04,-1.00,-1.0,2445
3488,2138488,17940,1276,2036,18100.20,29.99,-1.00,-1.0,2379
3491,2138491,16164,-1092,1876,16309.10,30.04,-1.00,-1.0,2444
3494,2138494,17904,-2516,1372,18131.90,30.13,-1.00,-1.0,2374
3496,2138496,16764,1792,1300,16909.55,30.04,-1.00,-1.0,2369
3501,2138501,17148,788,876,17188.43,30.04,-1.00,-1.0,2444
3504,2138504,16852,-4,544,16860.78,30.04,-1.00,-1.0,2376
3507,2138507,16912,-1336,1016,16995.08,30.08,-1.00,-1.0,2437
3510,2138510,16816,1928,1736,17014.96,29.99,-1.00,-1.0,2377
3513,2138513,17972,-1464,1540,18097.17,30.08,-1.00,-1.0,2437
3515,2138515,17632,276,700,17648.05,30.08,-1.00,-1.0,2373
3518,2138518,17576,-1252,1764,17708.61,30.04,-1.00,-1.0,2447
3521,2138521,16020,-388,-332,16028.14,30.08,-1.00,-1.0,2376
3526,2138526,17500,-1160,892,17561.07,30.04,-1.00,-1.0,2448
3528,2138528,16824,892,104,16847.95,30.13,-1.00,-1.0,2382
3531,2138531,17460,-1088,1636,17570.20,30.04,-1.00,-1.0,2438
3534,2138534,16780,-380,1644,16864.62,29.99,-1.00,-1.0,2372
3537,2138537,17388,-304,1712,17474.72,30.08,-1.00,-1.0,2441
3539,2138539,17336,-1160,1376,17429.17,30.18,-1.00,-1.0,2370
3542,2138542,17164,4,1748,17252.78,30.13,-1.00,-1.0,2376
3545,2138545,17204,-1064,980,17264.71,30.04,-1.00,-1.0,2439
3548,2138548,16656,-372,792,16678.97,30.13,-1.00,-1.0,2379
3552,2138552,16812,-640,864,16846.35,30.08,-1.00,-1.0,2445
3555,2138555,16968,308,500,16978.16,29.99,-1.00,-1.0,2376
3558,2138558,17016,392,1424,17079.98,30.04,-1.00,-1.0,2447
3561,2138561,17112,-1136,1672,17230.98,30.04,-1.00,-1.0,2376
3563,2138563,17232,560,1164,17280.35,30.13,-1.00,-1.0,2443
3566,2138566,16852,-936,1348,16931.72,30.04,-1.00,-1.0,2377
3569,2138569,17448,-708,2096,17587.70,30.08,-1.00,-1.0,2433
3572,2138572,16972,-68,1820,17069.44,30.08,-1.00,-1.0,2369
3577,2138577,17696,-204,2016,17811.63,30.04,-1.00,-1.0,2448
3579,2138579,17000,-952,1084,17061.11,30.04,-1.00,-1.0,2382
3582,2138582,17232,-28,1524,17299.28,30.08,-1.00,-1.0,2369
3585,2138585,16504,-212,972,16533.96,30.04,-1.00,-1.0,2444
3587,2138587,17108,-744,1068,17157.44,30.13,-1.00,-1.0,2370
3590,2138590,17096,184,1036,17128.35,29.94,-1.00,-1.0,2451
3593,2138593,17260,-720,1096,17309.74,30.04,-1.00,-1.0,2379
3596,2138596,16992,208,844,17014.22,30.08,-1.00,-1.0,2439
3599,2138599,17064,-588,988,17102.69,30.04,-1.00,-1.0,2373
3604,2138604,16984,320,940,17013.00,30.04,-1.00,-1.0,2447
3606,2138606,17132,-720,1000,17176.26,30.13,-1.00,-1.0,2385
3609,2138609,16896,280,1080,16932.80,30.08,-1.00,-1.0,2438
3612,2138612,17144,-936,1184,17210.31,29.99,-1.00,-1.0,2374
3615,2138615,16960,-320,1096,16998.39,29.99,-1.00,-1.0,2433
3617,2138617,16764,-672,1200,16820.32,30.08,-1.00,-1.0,2370
3620,2138620,16880,-176,1044,16913.17,30.04,-1.00,-1.0,2440
3623,2138623,16948,-216,1224,16993.51,30.08,-1.00,-1.0,2372
3626,2138626,17072,-608,1396,17139.77,30.04,-1.00,-1.0,2373
3631,2138631,17132,-508,1520,17206.80,30.04,-1.00,-1.0,2443
3633,2138633,17264,-56,1756,17353.17,30.04,-1.00,-1.0,2377
3636,2138636,17128,184,1304,17178.55,30.04,-1.00,-1.0,2447
3639,2138639,16892,-20,1140,16930.44,29.94,-1.00,-1.0,2374
3642,2138642,17008,-200,1456,17071.38,30.08,-1.00,-1.0,2444
3644,2138644,17108,-4,1312,17158.23,30.08,-1.00,-1.0,2373
3647,2138647,17072,-156,1236,17117.39,30.08,-1.00,-1.0,2435
3650,2138650,16976,-232,1516,17045.14,29.99,-1.00,-1.0,2371
3655,2138655,16968,-348,1188,17013.10,29.99,-1.00,-1.0,2447
3658,2138658,16948,-236,984,16978.18,30.08,-1.00,-1.0,2375
3660,2138660,17028,-1100,1040,17095.16,30.04,-1.00,-1.0,2438
3663,2138663,17148,-348,1420,17210.21,30.08,-1.00,-1.0,2370
3666,2138666,17180,-732,1480,17259.16,30.04,-1.00,-1.0,2438
3669,2138669,17044,-412,1160,17088.40,30.04,-1.00,-1.0,2372
3671,2138671,16920,-332,1272,16970.99,30.04,-1.00,-1.0,2378
3674,2138674,16980,-480,1200,17029.12,30.08,-1.00,-1.0,2443
3677,2138677,17000,-52,1116,17036.67,29.99,-1.00,-1.0,2373
3682,2138682,16960,-24,1224,17004.13,30.08,-1.00,-1.0,2454
3685,2138685,16996,40,1192,17037.79,30.08,-1.00,-1.0,2386
3687,2138687,17072,-484,1164,17118.48,29.99,-1.00,-1.0,2440
3690,2138690,17084,-392,1160,17127.82,30.08,-1.00,-1.0,2371
3693,2138693,17200,-448,1452,17266.99,30.04,-1.00,-1.0,2435
3696,2138696,17040,-444,1412,17104.17,30.04,-1.00,-1.0,2374
3698,2138698,17132,-516,1272,17186.90,30.04,-1.00,-1.0,2436
3701,2138701,17080,-500,1452,17148.90,30.04,-1.00,-1.0,2372
3706,2138706,17036,-272,1236,17082.94,30.13,-1.00,-1.0,2444
3709,2138709,16796,-524,1220,16848.40,30.13,-1.00,-1.0,2376
3712,2138712,16756,-528,1316,16815.89,29.99,-1.00,-1.0,2445
3714,2138714,16900,20,1212,16943.42,30.04,-1.00,-1.0,2369
3717,2138717,16976,-380,1436,17040.87,30.08,-1.00,-1.0,2376
3720,2138720,16996,204,1492,17062.58,29.94,-1.00,-1.0,2437
3723,2138723,17080,-52,1408,17138.02,29.99,-1.00,-1.0,2373
3725,2138725,17152,-132,1248,17197.85,30.04,-1.00,-1.0,2435
3728,2138728,17092,-196,1440,17153.67,30.04,-1.00,-1.0,2370
3733,2138733,17096,-108,1236,17140.96,30.04,-1.00,-1.0,2442
3736,2138736,17060,-428,1184,17106.39,30.04,-1.00,-1.0,2381
3739,2138739,16964,-256,1120,17002.86,30.08,-1.00,-1.0,2445
3741,2138741,17048,-264,1036,17081.49,29.99,-1.00,-1.0,2379
3744,2138744,16992,-416,1004,17026.72,30.04,-1.00,-1.0,2442
3747,2138747,16912,-176,1068,16946.60,30.08,-1.00,-1.0,2371
3750,2138750,17016,-280,1128,17055.64,30.13,-1.00,-1.0,2435
3752,2138752,16976,-124,1184,17017.69,30.04,-1.00,-1.0,2374
3757,2138757,17048,-320,1340,17103.58,29.99,-1.00,-1.0,2461
3760,2138760,16984,-192,1348,17038.49,29.99,-1.00,-1.0,2379
3762,2138762,17036,-368,1192,17081.62,30.04,-1.00,-1.0,2370
3765,2138765,16980,-300,976,17010.67,30.04,-1.00,-1.0,2437
3768,2138768,17072,-576,1016,17111.90,30.04,-1.00,-1.0,2369
3771,2138771,17056,-444,1120,17098.50,30.08,-1.00,-1.0,2437
3773,2138773,17004,-420,996,17038.32,29.99,-1.00,-1.0,2371
3776,2138776,17060,-316,1148,17101.50,30.08,-1.00,-1.0,2441
3779,2138779,16996,-496,1252,17049.27,30.08,-1.00,-1.0,2370
3784,2138784,17052,-320,1348,17108.19,30.13,-1.00,-1.0,2443
3787,2138787,17168,-180,1504,17234.69,29.99,-1.00,-1.0,2376
3790,2138790,17052,-232,1356,17107.40,29.94,-1.00,-1.0,2451
3792,2138792,16952,-136,1268,16999.90,30.08,-1.00,-1.0,2381
3795,2138795,16928,-360,1360,16986.36,30.13,-1.00,-1.0,2436
3798,2138798,16996,-288,1200,17040.74,29.94,-1.00,-1.0,2374
3801,2138801,16872,-272,1344,16927.63,30.04,-1.00,-1.0,2435
3803,2138803,17080,-232,1160,17120.92,30.04,-1.00,-1.0,2372
3806,2138806,16992,-196,1068,17026.66,30.13,-1.00,-1.0,2368
3811,2138811,17052,-308,1252,17100.67,30.04,-1.00,-1.0,2444
3814,2138814,17020,-376,1264,17071.01,30.08,-1.00,-1.0,2383
3817,2138817,16976,-200,1552,17047.97,29.99,-1.00,-1.0,2435
3819,2138819,17024,-160,1456,17086.90,30.08,-1.00,-1.0,2375
3822,2138822,17028,-96,1452,17090.06,30.04,-1.00,-1.0,2445
3825,2138825,17004,-228,1452,17067.40,30.04,-1.00,-1.0,2377
3828,2138828,16944,-324,1368,17002.22,30.04,-1.00,-1.0,2438
3830,2138830,17020,-348,1592,17097.84,30.04,-1.00,-1.0,2372
3835,2138835,17072,-520,1220,17123.43,30.04,-1.00,-1.0,2454
3838,2138838,16952,-532,1400,17018.03,30.04,-1.00,-1.0,2377
3841,2138841,17032,-360,1252,17081.75,30.13,-1.00,-1.0,2438
3844,2138844,17036,-440,1412,17100.08,30.18,-1.00,-1.0,2375
3846,2138846,16988,-472,1308,17044.82,29.99,-1.00,-1.0,2435
3849,2138849,17040,-364,1408,17101.95,30.08,-1.00,-1.0,2370
3852,2138852,17112,-412,1348,17169.96,30.04,-1.00,-1.0,2372
3855,2138855,17008,-348,1432,17071.72,30.04,-1.00,-1.0,2445
3857,2138857,16956,-388,1184,17001.71,30.13,-1.00,-1.0,2381
3863,2138863,17016,-360,1108,17055.84,29.99,-1.00,-1.0,2444
3865,2138865,17016,-432,992,17050.37,29.99,-1.00,-1.0,2379
3868,2138868,17044,-400,1052,17081.12,30.04,-1.00,-1.0,2445
3871,2138871,17068,-400,1088,17107.32,30.13,-1.00,-1.0,2358
3874,2138874,17132,-304,964,17161.79,30.04,-1.00,-1.0,2445
3876,2138876,17008,-380,988,17040.91,30.04,-1.00,-1.0,2381
3879,2138879,17140,-248,1032,17172.83,30.08,-1.00,-1.0,2435
3882,2138882,17192,-212,1156,17232.12,30.13,-1.00,-1.0,2370
3887,2138887,17136,-184,1184,17177.84,29.99,-1.00,-1.0,2471
3890,2138890,16940,-212,1112,16977.78,29.99,-1.00,-1.0,2380
3893,2138893,16944,-132,1092,16979.66,30.13,-1.00,-1.0,2442
3895,2138895,16828,-224,1080,16864.11,30.04,-1.00,-1.0,2383
3898,2138898,17008,-216,1220,17053.07,30.04,-1.00,-1.0,2357
3901,2138901,16964,-96,1228,17008.66,30.08,-1.00,-1.0,2439
3903,2138903,17112,-200,1300,17162.47,30.08,-1.00,-1.0,2371
3906,2138906,16992,-212,1196,17035.36,30.04,-1.00,-1.0,2436
3909,2138909,16984,-324,1276,17034.95,30.08,-1.00,-1.0,2373
3914,2138914,17016,-280,1420,17077.44,30.08,-1.00,-1.0,2449
3917,2138917,16956,-240,1344,17010.88,29.99,-1.00,-1.0,2374
3920,2138920,17172,-264,1380,17229.38,30.08,-1.00,-1.0,2482
3922,2138922,17072,-284,1412,17132.65,29.99,-1.00,-1.0,2372
3925,2138925,17028,-288,1496,17096.02,30.08,-1.00,-1.0,2436
3928,2138928,16980,-220,1436,17042.03,30.08,-1.00,-1.0,2372
3931,2138931,17084,-276,1356,17139.95,30.04,-1.00,-1.0,2441
3933,2138933,17112,-324,1348,17168.07,30.08,-1.00,-1.0,2371
3938,2138938,17036,-296,1476,17102.38,29.94,-1.00,-1.0,2438
3941,2138941,17104,-428,1308,17159.28,30.04,-1.00,-1.0,2371
3944,2138944,17052,-308,1244,17100.09,30.04,-1.00,-1.0,2451
3947,2138947,17024,-304,1216,17070.08,30.04,-1.00,-1.0,2387
3949,2138949,17084,-280,1332,17138.13,30.08,-1.00,-1.0,2368
3952,2138952,17016,-336,1160,17058.80,30.04,-1.00,-1.0,2435
3955,2138955,17044,-308,1296,17095.98,30.04,-1.00,-1.0,2371
3958,2138958,17124,-312,1240,17171.67,30.04,-1.00,-1.0,2435
3960,2138960,17136,-352,1184,17180.46,30.04,-1.00,-1.0,2375
3965,2138965,17064,-344,1172,17107.66,29.99,-1.00,-1.0,2438
3968,2138968,17004,-396,1232,17053.17,29.99,-1.00,-1.0,2376
3970,2138970,17004,-328,1256,17053.48,30.04,-1.00,-1.0,2440
3973,2138973,17048,-380,1324,17103.56,30.04,-1.00,-1.0,2370
3976,2138976,17000,-384,1288,17053.05,30.04,-1.00,-1.0,2437
3979,2138979,17016,-292,1292,17067.48,30.04,-1.00,-1.0,2380
3982,2138982,16984,-296,1284,17035.04,29.99,-1.00,-1.0,2434
3984,2138984,17096,-144,1212,17139.51,30.13,-1.00,-1.0,2371
3989,2138989,17048,-272,1120,17086.92,30.04,-1.00,-1.0,2440
3992,2138992,17084,-260,1252,17131.79,30.04,-1.00,-1.0,2376
3995,2138995,16976,-320,1340,17031.81,29.99,-1.00,-1.0,2375
3997,2138997,17016,-420,1396,17078.33,29.99,-1.00,-1.0,2428
4000,2139000,16940,-456,1376,17001.91,29.99,-1.00,-1.0,2358
4003,2139003,16992,-388,1248,17042.19,30.13,-1.00,-1.0,2435
4006,2139006,17072,-368,1304,17125.68,30.08,-1.00,-1.0,2370
4008,2139008,16988,-296,1076,17024.62,30.04,-1.00,-1.0,2436
4011,2139011,16996,-184,1100,17032.55,30.04,-1.00,-1.0,2372
4016,2139016,17064,-220,1064,17098.55,30.08,-1.00,-1.0,2438
4019,2139019,17076,-268,1096,17113.23,30.08,-1.00,-1.0,2374
4022,2139022,17092,-388,1216,17139.59,30.04,-1.00,-1.0,2437
4024,2139024,17132,-344,1168,17175.21,29.94,-1.00,-1.0,2375
4027,2139027,17164,-356,1200,17209.58,30.04,-1.00,-1.0,2439
4030,2139030,17136,-420,1344,17193.76,30.13,-1.00,-1.0,2373
4033,2139033,17068,-408,1276,17120.49,30.04,-1.00,-1.0,2440
4035,2139035,17084,-288,1316,17137.03,30.08,-1.00,-1.0,2369
4040,2139040,17000,-260,1260,17048.61,30.04,-1.00,-1.0,2437
4043,2139043,16936,-268,1268,16985.52,30.13,-1.00,-1.0,2378
4046,2139046,16940,-164,1196,16982.96,30.08,-1.00,-1.0,2372
4049,2139049,16964,-316,1296,17016.37,30.04,-1.00,-1.0,2448
4051,2139051,17088,-284,1340,17142.81,30.13,-1.00,-1.0,2376
4054,2139054,16984,-288,1320,17037.65,30.13,-1.00,-1.0,2421
4057,2139057,17092,-444,1252,17143.54,30.04,-1.00,-1.0,2371
4060,2139060,17016,-352,1420,17078.78,30.04,-1.00,-1.0,2441
4062,2139062,17100,-492,1380,17162.65,30.04,-1.00,-1.0,2374
4067,2139067,16888,-360,1240,16937.29,30.04,-1.00,-1.0,2442
4070,2139070,17024,-428,1252,17075.34,30.04,-1.00,-1.0,2380
4073,2139073,16984,-384,1076,17022.38,30.04,-1.00,-1.0,2438
4076,2139076,17012,-324,1200,17057.35,30.04,-1.00,-1.0,2369
4079,2139079,17008,-424,1208,17056.12,30.18,-1.00,-1.0,2436
4081,2139081,17108,-388,1016,17142.53,29.99,-1.00,-1.0,2374
4084,2139084,16924,-360,1164,16967.80,30.08,-1.00,-1.0,2450
4087,2139087,17132,-384,1200,17178.27,30.08,-1.00,-1.0,2378
4089,2139089,17036,-256,1352,17091.48,30.04,-1.00,-1.0,2357
4094,2139094,17040,-336,1248,17088.94,30.13,-1.00,-1.0,2446
4097,2139097,16984,-296,1140,17024.79,30.04,-1.00,-1.0,2383
4100,2139100,17048,-200,1184,17090.24,30.04,-1.00,-1.0,2441
4103,2139103,17024,-324,1136,17064.94,30.04,-1.00,-1.0,2371
4105,2139105,16888,-304,1096,16926.26,29.99,-1.00,-1.0,2422
4108,2139108,17012,-272,1280,17062.25,30.04,-1.00,-1.0,2371
4111,2139111,17036,-376,1168,17080.13,29.99,-1.00,-1.0,2435
4114,2139114,17128,-252,1260,17176.13,29.94,-1.00,-1.0,2378
4119,2139119,17072,-228,1428,17133.14,29.94,-1.00,-1.0,2445
4121,2139121,17044,-248,1424,17105.18,29.99,-1.00,-1.0,2377
4124,2139124,17080,-236,1456,17143.57,29.99,-1.00,-1.0,2441
4127,2139127,17096,-196,1392,17153.70,30.08,-1.00,-1.0,2370
4130,2139130,17012,-164,1392,17069.64,30.04,-1.00,-1.0,2445
4133,2139133,16936,-120,1344,16989.67,30.08,-1.00,-1.0,2377
4135,2139135,16904,-184,1296,16954.61,30.04,-1.00,-1.0,2442
4138,2139138,16976,-316,1304,17028.94,30.13,-1.00,-1.0,2374
4141,2139141,17044,-276,1332,17098.20,30.13,-1.00,-1.0,2369
4146,2139146,17088,-352,1300,17140.99,30.08,-1.00,-1.0,2441
4149,2139149,17016,-332,1292,17068.21,30.08,-1.00,-1.0,2374
4152,2139152,17076,-484,1320,17133.78,30.04,-1.00,-1.0,2448
4155,2139155,17044,-312,1072,17080.53,30.13,-1.00,-1.0,2374
4157,2139157,16984,-360,1104,17023.65,30.04,-1.00,-1.0,2439
4160,2139160,17004,-280,1300,17055.92,30.13,-1.00,-1.0,2371
4163,2139163,17020,-316,1088,17057.67,30.08,-1.00,-1.0,2421
4166,2139166,16996,-220,1192,17039.17,30.04,-1.00,-1.0,2370
4170,2139170,17012,-344,1140,17053.62,30.04,-1.00,-1.0,2448
4173,2139173,17092,-404,1120,17133.42,30.13,-1.00,-1.0,2389
4176,2139176,17052,-444,1220,17101.35,30.08,-1.00,-1.0,2440
4179,2139179,17068,-316,1356,17124.70,30.04,-1.00,-1.0,2371
4181,2139181,16920,-372,1156,16963.52,30.08,-1.00,-1.0,2436
4184,2139184,16940,-284,1140,16980.69,29.99,-1.00,-1.0,2370
4187,2139187,17072,-392,1268,17123.51,30.04,-1.00,-1.0,2380
4190,2139190,17024,-284,1288,17075.02,30.13,-1.00,-1.0,2445
4192,2139192,17096,-332,1140,17137.18,30.04,-1.00,-1.0,2380
4197,2139197,16956,-384,1392,17017.38,30.13,-1.00,-1.0,2447
4200,2139200,17028,-356,1392,17088.51,29.99,-1.00,-1.0,2425
4203,2139203,17000,-212,1176,17041.95,30.13,-1.00,-1.0,2437
4206,2139206,17056,-244,1288,17106.30,30.04,-1.00,-1.0,2395
4209,2139209,17028,-240,1180,17070.52,30.04,-1.00,-1.0,2425
4211,2139211,17076,-344,1356,17133.21,29.99,-1.00,-1.0,2395
4214,2139214,17096,-220,1248,17142.90,30.08,-1.00,-1.0,2417
4217,2139217,17152,-360,1204,17197.97,30.08,-1.00,-1.0,2385
4222,2139222,16980,-296,1248,17028.37,29.99,-1.00,-1.0,2437
4225,2139225,17016,-272,1308,17068.37,30.04,-1.00,-1.0,2378
4227,2139227,17052,-364,1316,17106.58,30.08,-1.00,-1.0,2425
4230,2139230,17056,-284,1180,17099.13,30.08,-1.00,-1.0,2371
4233,2139233,16952,-304,1280,17002.97,30.13,-1.00,-1.0,2436
4236,2139236,17088,-300,1164,17130.23,30.08,-1.00,-1.0,2377
4238,2139238,17140,-352,1344,17196.22,30.04,-1.00,-1.0,2378
4241,2139241,17040,-420,1196,17087.08,30.08,-1.00,-1.0,2441
4244,2139244,16964,-288,1396,17023.78,29.99,-1.00,-1.0,2372
4249,2139249,17096,-320,1352,17152.36,30.08,-1.00,-1.0,2441
4252,2139252,17032,-324,1376,17090.56,30.04,-1.00,-1.0,2388
4254,2139254,17032,-308,1488,17099.65,30.08,-1.00,-1.0,2441
4257,2139257,17084,-316,1296,17136.00,30.08,-1.00,-1.0,2369
4260,2139260,16988,-344,1384,17047.75,30.04,-1.00,-1.0,2437
4263,2139263,17096,-396,1516,17167.65,30.08,-1.00,-1.0,2373
4265,2139265,17044,-296,1396,17103.64,30.04,-1.00,-1.0,2436
4268,2139268,17152,-304,1280,17202.38,30.04,-1.00,-1.0,2370
4273,2139273,17104,-252,1220,17149.31,30.04,-1.00,-1.0,2438
4276,2139276,17000,-360,1272,17051.32,30.04,-1.00,-1.0,2378
4279,2139279,16912,-392,1296,16966.11,30.04,-1.00,-1.0,2444
4281,2139281,17072,-292,1228,17118.60,30.04,-1.00,-1.0,2372
4284,2139284,17012,-316,1228,17059.19,30.08,-1.00,-1.0,2371
4287,2139287,17096,-336,1252,17145.08,29.99,-1.00,-1.0,2434
4290,2139290,17004,-264,1320,17057.20,29.99,-1.00,-1.0,2369
4292,2139292,16992,-272,1220,17037.91,30.13,-1.00,-1.0,2434
4295,2139295,17132,-188,1244,17178.13,30.04,-1.00,-1.0,2373
4300,2139300,17048,-192,1064,17082.25,29.99,-1.00,-1.0,2448
4303,2139303,17012,-284,1124,17051.46,30.08,-1.00,-1.0,2385
4306,2139306,17064,-148,1244,17109.93,30.04,-1.00,-1.0,2436
4309,2139309,17080,-320,1392,17139.62,29.99,-1.00,-1.0,2369
4311,2139311,16944,-196,1132,16982.90,30.13,-1.00,-1.0,2436
4314,2139314,16972,-252,1216,17017.37,30.13,-1.00,-1.0,2358
4317,2139317,16952,-300,1340,17007.53,29.94,-1.00,-1.0,2435
4320,2139320,17028,-308,1132,17068.37,30.13,-1.00,-1.0,2375
4325,2139325,16988,-312,1156,17030.14,30.04,-1.00,-1.0,2437
4327,2139327,17096,-384,1156,17139.34,29.94,-1.00,-1.0,2377
4330,2139330,17044,-324,1332,17099.04,30.04,-1.00,-1.0,2438
4333,2139333,17044,-272,1288,17094.76,30.04,-1.00,-1.0,2372
4336,2139336,16984,-380,1316,17039.15,30.04,-1.00,-1.0,2373
4338,2139338,17044,-260,1312,17096.40,30.08,-1.00,-1.0,2440
4341,2139341,17016,-328,1364,17073.73,29.99,-1.00,-1.0,2375
4344,2139344,16892,-348,1428,16955.82,30.04,-1.00,-1.0,2434
4347,2139347,17028,-308,1380,17086.60,30.04,-1.00,-1.0,2370
4351,2139351,17068,-420,1332,17125.05,30.13,-1.00,-1.0,2438
4354,2139354,17044,-412,1364,17103.46,30.13,-1.00,-1.0,2378
4357,2139357,17140,-412,1492,17209.75,30.08,-1.00,-1.0,2438
4360,2139360,17000,-456,1236,17050.97,30.04,-1.00,-1.0,2381
4363,2139363,17004,-408,1436,17069.40,29.99,-1.00,-1.0,2439
4365,2139365,17020,-332,1200,17065.48,30.08,-1.00,-1.0,2377
4368,2139368,17036,-440,1120,17078.45,30.04,-1.00,-1.0,2445
4371,2139371,17032,-324,1184,17076.18,29.99,-1.00,-1.0,2374
4375,2139375,17000,-424,1264,17052.20,30.04,-1.00,-1.0,2440
4378,2139378,16944,-308,1152,16985.91,29.99,-1.00,-1.0,2381
4381,2139381,17068,-212,1232,17113.72,30.08,-1.00,-1.0,2372
4384,2139384,17108,-172,1240,17153.74,30.04,-1.00,-1.0,2440
4386,2139386,17028,-276,1384,17086.38,30.04,-1.00,-1.0,2356
4389,2139389,16976,-344,1324,17031.03,30.04,-1.00,-1.0,2423
4392,2139392,17080,-380,1252,17130.04,30.04,-1.00,-1.0,2374
4395,2139395,17044,-328,1260,17093.66,30.04,-1.00,-1.0,2437
4397,2139397,17056,-296,1412,17116.91,30.04,-1.00,-1.0,2371
4402,2139402,16956,-308,1312,17009.47,30.13,-1.00,-1.0,2439
4405,2139405,17088,-100,1240,17133.22,30.04,-1.00,-1.0,2379
4408,2139408,16932,-348,1304,16985.71,29.99,-1.00,-1.0,2438
4411,2139411,16944,-288,1360,17000.93,30.04,-1.00,-1.0,2372
4413,2139413,16900,-276,1280,16950.65,30.08,-1.00,-1.0,2437
4416,2139416,17076,-348,1164,17119.16,30.08,-1.00,-1.0,2371
4419,2139419,17104,-300,1356,17160.29,30.08,-1.00,-1.0,2436
4422,2139422,17052,-312,1364,17109.31,29.99,-1.00,-1.0,2378
4427,2139427,17076,-284,1252,17124.19,29.99,-1.00,-1.0,2443
4429,2139429,17012,-328,1232,17059.71,29.94,-1.00,-1.0,2379
4432,2139432,16956,-336,1176,17000.05,30.08,-1.00,-1.0,2376
4435,2139435,17000,-280,1296,17051.63,30.04,-1.00,-1.0,2437
4438,2139438,17060,-332,1296,17112.38,30.04,-1.00,-1.0,2371
4440,2139440,17000,-372,1192,17045.80,30.13,-1.00,-1.0,2437
4443,2139443,17116,-312,1460,17180.99,30.13,-1.00,-1.0,2372
4446,2139446,17048,-432,1152,17092.34,29.99,-1.00,-1.0,2434
4449,2139449,16980,-376,1300,17033.84,30.04,-1.00,-1.0,2369
4454,2139454,17108,-236,1176,17150.00,30.13,-1.00,-1.0,2438
4456,2139456,16976,-292,1264,17025.50,30.04,-1.00,-1.0,2367
4459,2139459,17040,-236,1216,17084.96,29.99,-1.00,-1.0,2438
4462,2139462,17080,-368,1224,17127.76,29.99,-1.00,-1.0,2370
4465,2139465,17060,-312,1292,17111.70,29.99,-1.00,-1.0,2442
4467,2139467,17056,-224,1328,17109.09,30.08,-1.00,-1.0,2370
4470,2139470,16952,-388,1112,16992.86,30.04,-1.00,-1.0,2439
4473,2139473,17028,-344,1244,17076.85,30.08,-1.00,-1.0,2372
4476,2139476,17100,-304,1304,17152.34,30.04,-1.00,-1.0,2372
4481,2139481,17020,-360,1384,17079.97,30.04,-1.00,-1.0,2441
4483,2139483,17060,-324,1344,17115.93,30.04,-1.00,-1.0,2393
4486,2139486,17080,-408,1244,17130.10,29.99,-1.00,-1.0,2435
4489,2139489,16940,-280,1188,16983.91,30.13,-1.00,-1.0,2370
4492,2139492,17032,-432,1212,17080.53,30.08,-1.00,-1.0,2435
4494,2139494,17096,-296,1252,17144.34,30.13,-1.00,-1.0,2373
4497,2139497,16956,-324,1268,17006.43,30.08,-1.00,-1.0,2435
4500,2139500,17024,-344,988,17056.12,30.08,-1.00,-1.0,2369
4505,2139505,17028,-284,1280,17078.40,30.08,-1.00,-1.0,2437
4508,2139508,17024,-328,1208,17069.96,30.08,-1.00,-1.0,2373
4510,2139510,16992,-316,1280,17043.07,30.08,-1.00,-1.0,2430
4513,2139513,17080,-316,1236,17127.58,30.08,-1.00,-1.0,2359
4516,2139516,17060,-316,1364,17117.36,30.04,-1.00,-1.0,2437
4519,2139519,17020,-212,1460,17083.82,29.99,-1.00,-1.0,2377
4522,2139522,17088,-260,1192,17131.50,30.13,-1.00,-1.0,2436
4524,2139524,17028,-224,1100,17064.96,30.13,-1.00,-1.0,2373
4527,2139527,17040,-248,1192,17083.44,30.04,-1.00,-1.0,2369
4532,2139532,17060,-240,1372,17116.76,30.13,-1.00,-1.0,2447
4535,2139535,17068,-232,1212,17112.55,29.94,-1.00,-1.0,2390
4537,2139537,17084,-312,1304,17136.54,30.08,-1.00,-1.0,2438
4540,2139540,16992,-300,1464,17057.59,29.99,-1.00,-1.0,2371
4543,2139543,17060,-348,1268,17110.60,30.08,-1.00,-1.0,2435
4546,2139546,16992,-308,1252,17040.85,29.99,-1.00,-1.0,2370
4548,2139548,17140,-240,1348,17194.60,30.04,-1.00,-1.0,2436
4551,2139551,17028,-296,1292,17079.51,29.99,-1.00,-1.0,2371
4556,2139556,17108,-332,1288,17159.63,30.04,-1.00,-1.0,2438
4559,2139559,17052,-400,1268,17103.76,30.13,-1.00,-1.0,2386
4562,2139562,17016,-304,1288,17067.38,29.99,-1.00,-1.0,2445
4564,2139564,17000,-312,1188,17044.31,30.04,-1.00,-1.0,2377
4567,2139567,17084,-460,1280,17138.06,30.08,-1.00,-1.0,2437
4570,2139570,16972,-280,1084,17008.89,30.08,-1.00,-1.0,2374
4572,2139572,17024,-284,1184,17067.49,30.04,-1.00,-1.0,2370
4575,2139575,16948,-304,1280,16998.99,30.04,-1.00,-1.0,2442
4578,2139578,16956,-292,1156,16997.87,29.94,-1.00,-1.0,2369
4583,2139583,17060,-292,1392,17119.19,29.99,-1.00,-1.0,2437
4585,2139585,16964,-284,1316,17017.34,29.99,-1.00,-1.0,2377
4588,2139588,17000,-268,1224,17046.11,30.04,-1.00,-1.0,2439
4591,2139591,17036,-232,1328,17089.26,29.94,-1.00,-1.0,2371
4594,2139594,17056,-308,1152,17097.63,30.08,-1.00,-1.0,2443
4597,2139597,17064,-336,1276,17114.94,30.04,-1.00,-1.0,2372
4599,2139599,17008,-372,1308,17062.28,30.08,-1.00,-1.0,2444
4602,2139602,17076,-360,1268,17126.80,29.99,-1.00,-1.0,2387
4607,2139607,17016,-212,1244,17062.73,30.08,-1.00,-1.0,2455
4610,2139610,17016,-244,1292,17066.72,29.99,-1.00,-1.0,2383
4613,2139613,17000,-300,1240,17047.80,30.08,-1.00,-1.0,2442
4615,2139615,16984,-248,1328,17037.64,30.08,-1.00,-1.0,2371
4618,2139618,17036,-348,1364,17094.06,30.13,-1.00,-1.0,2436
4621,2139621,16988,-268,1196,17032.16,30.04,-1.00,-1.0,2372
4623,2139623,17020,-292,1220,17066.17,30.04,-1.00,-1.0,2369
4626,2139626,17052,-288,1332,17106.37,30.08,-1.00,-1.0,2447
4629,2139629,16896,-416,1216,16944.81,29.99,-1.00,-1.0,2377
4634,2139634,17020,-360,1308,17073.98,30.08,-1.00,-1.0,2437
4637,2139637,17124,-236,1204,17167.90,29.99,-1.00,-1.0,2369
4640,2139640,17036,-300,1316,17089.39,30.08,-1.00,-1.0,2450
4642,2139642,17100,-388,1088,17138.97,30.08,-1.00,-1.0,2379
4645,2139645,17052,-296,1216,17097.87,30.13,-1.00,-1.0,2436
4648,2139648,17000,-252,1200,17044.16,30.08,-1.00,-1.0,2371
4651,2139651,16972,-288,1184,17015.69,29.94,-1.00,-1.0,2434
4653,2139653,17044,-292,1172,17086.74,29.94,-1.00,-1.0,2372
4658,2139658,17072,-336,1336,17127.49,30.13,-1.00,-1.0,2440
4661,2139661,16876,-408,1240,16926.41,30.04,-1.00,-1.0,2380
4664,2139664,17008,-404,1232,17057.35,30.04,-1.00,-1.0,2437
4667,2139667,17076,-348,1296,17128.64,30.04,-1.00,-1.0,2370
4669,2139669,17056,-312,1308,17108.93,29.99,-1.00,-1.0,2373
4672,2139672,16996,-440,1260,17048.32,30.04,-1.00,-1.0,2448
4675,2139675,17128,-284,1280,17178.11,30.08,-1.00,-1.0,2375
4678,2139678,16956,-308,1224,17002.91,30.04,-1.00,-1.0,2439
4680,2139680,17156,-256,1144,17196.01,30.04,-1.00,-1.0,2372
4685,2139685,17024,-212,1104,17061.08,30.04,-1.00,-1.0,2445
4688,2139688,16976,-304,1176,17019.40,30.08,-1.00,-1.0,2366
4691,2139691,17072,-212,1220,17116.85,30.04,-1.00,-1.0,2438
4694,2139694,17008,-244,1272,17057.24,30.04,-1.00,-1.0,2371
4696,2139696,17024,-304,1272,17074.16,30.04,-1.00,-1.0,2435
4699,2139699,16960,-328,1308,17013.53,30.04,-1.00,-1.0,2370
4702,2139702,17004,-276,1276,17054.04,30.08,-1.00,-1.0,2436
4705,2139705,17040,-272,1228,17086.36,29.99,-1.00,-1.0,2378
4710,2139710,17068,-332,1140,17109.25,30.13,-1.00,-1.0,2438
4713,2139713,17064,-340,1348,17120.54,30.04,-1.00,-1.0,2380
4715,2139715,17052,-224,1284,17101.74,30.08,-1.00,-1.0,2424
4718,2139718,16952,-344,1200,16997.90,30.04,-1.00,-1.0,2370
4721,2139721,16968,-448,1220,17017.70,30.08,-1.00,-1.0,2376
4724,2139724,16980,-312,1184,17024.09,29.94,-1.00,-1.0,2446
4726,2139726,17024,-288,1248,17072.11,29.94,-1.00,-1.0,2381
4729,2139729,17016,-272,1192,17059.87,30.04,-1.00,-1.0,2435
4732,2139732,17044,-344,1212,17090.50,30.04,-1.00,-1.0,2369
4737,2139737,17048,-348,1172,17091.78,30.04,-1.00,-1.0,2441
4740,2139740,17004,-384,1304,17058.25,29.94,-1.00,-1.0,2389
4742,2139742,17096,-224,1304,17147.12,30.13,-1.00,-1.0,2438
4745,2139745,16956,-360,1364,17014.58,30.04,-1.00,-1.0,2372
4748,2139748,16964,-336,1276,17015.24,29.99,-1.00,-1.0,2436
4751,2139751,16888,-232,1156,16929.11,30.04,-1.00,-1.0,2370
4753,2139753,17056,-260,1372,17113.07,30.08,-1.00,-1.0,2436
4756,2139756,17072,-332,1316,17125.87,30.04,-1.00,-1.0,2372
4761,2139761,17056,-348,1324,17110.85,30.08,-1.00,-1.0,2439
4764,2139764,16960,-232,1360,17016.02,29.99,-1.00,-1.0,2386
4766,2139766,17072,-248,1332,17125.68,30.04,-1.00,-1.0,2382
4769,2139769,17128,-236,1340,17181.96,30.04,-1.00,-1.0,2437
4772,2139772,16996,-188,1312,17047.60,30.08,-1.00,-1.0,2369
4775,2139775,16980,-252,1120,17018.76,30.08,-1.00,-1.0,2442
4777,2139777,17120,-340,1168,17163.16,30.08,-1.00,-1.0,2371
4780,2139780,17012,-280,1140,17052.45,30.04,-1.00,-1.0,2436
4783,2139783,16956,-316,1356,17013.07,30.08,-1.00,-1.0,2370
4788,2139788,17004,-188,1144,17043.48,29.99,-1.00,-1.0,2438
4790,2139790,17048,-312,1144,17089.19,29.99,-1.00,-1.0,2379
4793,2139793,16992,-200,1260,17039.83,29.99,-1.00,-1.0,2438
4796,2139796,17020,-284,1284,17070.73,29.99,-1.00,-1.0,2373
4799,2139799,17152,-300,1144,17192.73,30.04,-1.00,-1.0,2442
4801,2139801,17092,-276,1172,17134.36,30.08,-1.00,-1.0,2373
4804,2139804,16908,-424,1200,16955.83,30.04,-1.00,-1.0,2448
4807,2139807,17084,-348,1412,17145.78,30.04,-1.00,-1.0,2380
4812,2139812,17112,-284,1276,17161.86,30.04,-1.00,-1.0,2439
4815,2139815,17024,-372,1152,17066.99,30.13,-1.00,-1.0,2376
4817,2139817,17044,-316,1296,17096.12,30.04,-1.00,-1.0,2377
4820,2139820,17064,-312,1432,17126.82,30.08,-1.00,-1.0,2437
4823,2139823,17060,-312,1188,17104.16,30.08,-1.00,-1.0,2371
4826,2139826,17024,-364,1284,17076.23,29.89,-1.00,-1.0,2440
4828,2139828,17076,-392,1292,17129.29,30.08,-1.00,-1.0,2372
4831,2139831,16980,-276,1336,17034.71,30.04,-1.00,-1.0,2436
4834,2139834,17092,-228,1376,17148.81,29.99,-1.00,-1.0,2369
4839,2139839,17028,-328,1308,17081.31,30.08,-1.00,-1.0,2438
4842,2139842,17104,-308,1116,17143.14,29.99,-1.00,-1.0,2375
4844,2139844,17024,-308,1308,17076.95,30.04,-1.00,-1.0,2442
4847,2139847,17028,-384,1248,17077.99,29.99,-1.00,-1.0,2373
4850,2139850,17052,-240,1228,17097.84,30.04,-1.00,-1.0,2433
4853,2139853,17072,-472,1208,17121.19,30.04,-1.00,-1.0,2373
4856,2139856,17000,-360,1336,17056.21,30.04,-1.00,-1.0,2446
4858,2139858,17032,-304,1224,17078.63,30.04,-1.00,-1.0,2385
4861,2139861,17008,-256,1312,17060.45,29.99,-1.00,-1.0,2369
4866,2139866,17000,-420,1252,17051.21,30.08,-1.00,-1.0,2439
4869,2139869,17032,-364,1136,17073.72,30.08,-1.00,-1.0,2382
4871,2139871,16948,-272,1232,16994.90,30.08,-1.00,-1.0,2436
4874,2139874,17060,-232,1232,17106.00,30.08,-1.00,-1.0,2374
4877,2139877,16912,-328,1304,16965.37,30.04,-1.00,-1.0,2437
4880,2139880,16992,-404,1248,17042.56,29.99,-1.00,-1.0,2372
4883,2139883,17060,-360,1388,17120.16,30.13,-1.00,-1.0,2434
4885,2139885,17112,-380,1348,17169.22,30.04,-1.00,-1.0,2370
4890,2139890,17040,-408,1232,17089.35,30.13,-1.00,-1.0,2438
4893,2139893,17052,-308,1244,17100.09,30.04,-1.00,-1.0,2378
4896,2139896,16888,-348,1376,16947.54,30.04,-1.00,-1.0,2443
4898,2139898,17044,-312,1360,17101.02,30.04,-1.00,-1.0,2372
4901,2139901,16984,-360,1324,17039.33,30.08,-1.00,-1.0,2448
4904,2139904,16992,-288,1312,17045.01,30.04,-1.00,-1.0,2378
4907,2139907,17036,-320,1248,17084.65,29.99,-1.00,-1.0,2440
4910,2139910,17012,-308,1192,17056.49,29.99,-1.00,-1.0,2374
4912,2139912,17096,-140,1140,17134.54,30.04,-1.00,-1.0,2368
4917,2139917,16964,-168,1224,17008.93,29.99,-1.00,-1.0,2439
4920,2139920,17080,-296,1296,17131.66,29.99,-1.00,-1.0,2382
4923,2139923,17036,-248,1152,17076.71,30.04,-1.00,-1.0,2444
4925,2139925,17100,-256,1244,17147.10,30.13,-1.00,-1.0,2372
4928,2139928,17044,-328,1216,17090.47,30.04,-1.00,-1.0,2438
4931,2139931,17072,-308,1224,17118.59,30.04,-1.00,-1.0,2374
4934,2139934,16956,-252,1304,17007.94,29.99,-1.00,-1.0,2440
4937,2139937,16992,-228,1344,17046.59,30.08,-1.00,-1.0,2371
4942,2139942,17040,-336,1344,17096.22,30.04,-1.00,-1.0,2437
4944,2139944,16992,-304,1268,17041.96,30.04,-1.00,-1.0,2380
4947,2139947,16960,-156,1300,17010.46,29.99,-1.00,-1.0,2449
4950,2139950,17444,-684,1672,17537.29,30.08,-1.00,-1.0,2365
4953,2139953,32767,-14140,-32768,nan,30.04,-1.00,-1.0,2441
4955,2139955,4480,-4724,32767,33407.53,30.08,-1.00,-1.0,2378
4958,2139958,4568,-20080,-8852,22414.97,29.94,-1.00,-1.0,2369
4961,2139961,18848,17468,-5148,26208.40,30.04,-1.00,-1.0,2440
4963,2139963,7712,-21328,17376,28570.68,30.04,-1.00,-1.0,2371
4970,2139970,5692,-16932,1528,17928.37,29.99,-1.00,-1.0,2461
4973,2139973,29892,6452,-2088,30651.59,30.08,-1.00,-1.0,2394
4976,2139976,9184,-10512,-9300,16773.13,30.04,-1.00,-1.0,2437
4979,2139979,28524,1004,11516,30777.34,29.94,-1.00,-1.0,2373
4981,2139981,22300,14556,-1696,26684.14,30.13,-1.00,-1.0,2435
4984,2139984,18636,-12872,-1176,22679.77,30.04,-1.00,-1.0,2371
4987,2139987,24944,23852,2968,34640.01,30.04,-1.00,-1.0,2435
4990,2139990,14396,-9576,5064,18016.35,30.04,-1.00,-1.0,2380
4994,2139994,11456,1136,7300,13631.60,30.04,-1.00,-1.0,2439
4997,2139997,15960,-7868,7824,19438.16,30.13,-1.00,-1.0,2368
5000,2140000,20944,12632,2636,24600.14,30.04,-1.00,-1.0,2437
5003,2140003,17648,-10312,1328,20482.99,30.08,-1.00,-1.0,2377
5006,2140006,19384,5400,5260,20798.25,29.99,-1.00,-1.0,2441
5008,2140008,18968,712,-1136,19015.32,30.08,-1.00,-1.0,2376
5011,2140011,16904,-7100,-2712,18534.03,30.13,-1.00,-1.0,2444
5014,2140014,15852,2140,-2972,16269.55,30.08,-1.00,-1.0,2373
5019,2140019,14672,304,-2756,14931.70,29.99,-1.00,-1.0,2443
5022,2140022,15904,-1356,800,15981.74,30.08,-1.00,-1.0,2389
5024,2140024,15812,-2956,-372,16090.24,30.13,-1.00,-1.0,2424
5027,2140027,15580,2440,1416,15833.35,30.04,-1.00,-1.0,2375
5030,2140030,18400,-3212,424,18683.06,30.04,-1.00,-1.0,2368
5033,2140033,18152,2036,1552,18331.64,29.99,-1.00,-1.0,2434
5035,2140035,17620,-1440,2228,17818.59,29.99,-1.00,-1.0,2372
5038,2140038,16464,3028,840,16761.20,30.08,-1.00,-1.0,2441
5041,2140041,17752,-3236,1592,18114.62,30.08,-1.00,-1.0,2383
5046,2140046,16164,-1836,768,16286.06,29.94,-1.00,-1.0,2473
5049,2140049,17220,-304,1548,17292.11,30.13,-1.00,-1.0,2374
5051,2140051,17216,948,960,17268.79,30.08,-1.00,-1.0,2434
5054,2140054,17508,-2464,972,17707.23,29.99,-1.00,-1.0,2370
5057,2140057,18288,1900,1484,18446.22,29.99,-1.00,-1.0,2437
5060,2140060,18200,-2072,1488,18377.90,30.08,-1.00,-1.0,2379
5063,2140063,16544,648,3128,16849.58,30.04,-1.00,-1.0,2441
5065,2140065,16240,1064,772,16293.12,30.04,-1.00,-1.0,2379
5070,2140070,18268,2900,2456,18659.09,29.94,-1.00,-1.0,2449
5073,2140073,17280,-1036,412,17315.93,30.08,-1.00,-1.0,2379
5076,2140076,16252,936,592,16289.69,30.04,-1.00,-1.0,2370
5078,2140078,16704,48,1924,16814.51,30.08,-1.00,-1.0,2435
5081,2140081,17200,-1000,1984,17342.90,30.08,-1.00,-1.0,2371
5084,2140084,17796,-420,1800,17891.73,30.08,-1.00,-1.0,2434
5087,2140087,17812,-1644,1712,17969.45,30.08,-1.00,-1.0,2378
5090,2140090,17216,192,2744,17434.36,29.94,-1.00,-1.0,2435
5092,2140092,16628,-1448,712,16706.11,30.08,-1.00,-1.0,2374
5097,2140097,17180,-492,1184,17227.78,30.08,-1.00,-1.0,2448
5100,2140100,16948,-336,916,16976.06,29.99,-1.00,-1.0,2373
5103,2140103,17220,-248,896,17245.08,30.04,-1.00,-1.0,2438
5105,2140105,17156,724,1164,17210.68,30.04,-1.00,-1.0,2370
5108,2140108,16708,-868,1764,16823.27,30.04,-1.00,-1.0,2445
5111,2140111,17356,792,1448,17434.30,29.94,-1.00,-1.0,2391
5114,2140114,15964,-684,1140,16019.26,30.04,-1.00,-1.0,2436
5117,2140117,16984,-1416,1364,17097.42,30.04,-1.00,-1.0,2371
5119,2140119,17208,268,2052,17331.99,30.08,-1.00,-1.0,2369
5124,2140124,17628,-1004,2296,17805.22,29.99,-1.00,-1.0,2434
5127,2140127,16560,-496,808,16587.12,30.08,-1.00,-1.0,2373
5130,2140130,17236,-880,1740,17345.94,30.04,-1.00,-1.0,2441
5132,2140132,16688,164,832,16709.53,29.99,-1.00,-1.0,2362
5135,2140135,17264,-1104,780,17316.84,30.04,-1.00,-1.0,2437
5138,2140138,16984,608,680,17008.48,30.04,-1.00,-1.0,2372
5141,2140141,17212,-1084,1228,17289.77,30.13,-1.00,-1.0,2440
5144,2140144,17052,32,984,17080.40,29.94,-1.00,-1.0,2375
5150,2140150,17168,712,868,17204.67,30.08,-1.00,-1.0,2448
5153,2140153,16988,-576,1016,17028.10,30.08,-1.00,-1.0,2375
5156,2140156,16880,88,1236,16925.42,29.94,-1.00,-1.0,2434
5159,2140159,16792,-488,1192,16841.33,30.08,-1.00,-1.0,2372
5161,2140161,17256,-972,920,17307.82,30.04,-1.00,-1.0,2374
5164,2140164,17096,148,1684,17179.38,30.08,-1.00,-1.0,2441
5167,2140167,16940,-1092,916,16999.86,30.04,-1.00,-1.0,2375
5170,2140170,16952,132,1116,16989.21,29.99,-1.00,-1.0,2435
5172,2140172,16952,-364,1492,17021.42,29.99,-1.00,-1.0,2375
5177,2140177,17088,180,1552,17159.28,29.99,-1.00,-1.0,2434
5180,2140180,17196,-672,1856,17308.92,30.08,-1.00,-1.0,2373
5183,2140183,16924,180,1740,17014.16,30.04,-1.00,-1.0,2439
5185,2140185,17064,340,1352,17120.85,30.04,-1.00,-1.0,2359
5188,2140188,17156,48,1572,17227.94,30.04,-1.00,-1.0,2439
5191,2140191,17148,188,1600,17223.51,30.13,-1.00,-1.0,2373
5194,2140194,16968,-100,1496,17034.11,30.04,-1.00,-1.0,2439
5197,2140197,16924,84,1332,16976.54,29.94,-1.00,-1.0,2372
5199,2140199,16984,-316,1768,17078.70,29.99,-1.00,-1.0,2370
5204,2140204,16956,-456,1156,17001.48,30.13,-1.00,-1.0,2453
5207,2140207,16896,-664,712,16924.03,30.04,-1.00,-1.0,2374
5209,2140209,16948,-1212,736,17007.21,29.99,-1.00,-1.0,2444
5212,2140212,17048,-272,1292,17099.05,29.99,-1.00,-1.0,2377
5215,2140215,17188,-864,1148,17247.95,30.08,-1.00,-1.0,2434
5218,2140218,17204,44,1224,17247.54,29.99,-1.00,-1.0,2370
5220,2140220,17132,-688,1092,17180.55,30.04,-1.00,-1.0,2433
5223,2140223,17020,-400,1188,17066.10,30.08,-1.00,-1.0,2374
5228,2140228,16972,-484,1240,17024.12,29.99,-1.00,-1.0,2455
5231,2140231,16856,108,1032,16887.91,30.08,-1.00,-1.0,2379
5234,2140234,16888,-424,1212,16936.74,30.04,-1.00,-1.0,2433
5236,2140236,17160,-284,1144,17200.44,29.94,-1.00,-1.0,2373
5239,2140239,17140,-524,1196,17189.67,30.04,-1.00,-1.0,2438
5242,2140242,17200,-432,1488,17269.65,29.94,-1.00,-1.0,2374
5245,2140245,17092,-644,1184,17145.06,29.99,-1.00,-1.0,2373
5247,2140247,17212,-708,1260,17272.57,29.99,-1.00,-1.0,2441
5250,2140250,17156,-308,1452,17220.09,29.99,-1.00,-1.0,2376
5255,2140255,16792,-268,1464,16857.83,29.99,-1.00,-1.0,2464
5258,2140258,16700,-208,1284,16750.58,30.08,-1.00,-1.0,2380
5261,2140261,16732,-272,1384,16791.35,30.04,-1.00,-1.0,2440
5263,2140263,16772,352,1412,16835.01,29.99,-1.00,-1.0,2372
5266,2140266,17004,-164,1496,17070.47,30.04,-1.00,-1.0,2422
5269,2140269,17196,432,1492,17266.01,29.94,-1.00,-1.0,2373
5272,2140272,17332,-264,1388,17389.49,30.04,-1.00,-1.0,2435
5274,2140274,17284,48,1128,17320.84,30.04,-1.00,-1.0,2372
5279,2140279,17152,-472,1172,17198.47,30.04,-1.00,-1.0,2450
5282,2140282,17148,-308,1208,17193.26,30.04,-1.00,-1.0,2372
5285,2140285,17076,-680,1076,17123.38,30.04,-1.00,-1.0,2434
5288,2140288,17056,-136,1152,17095.40,30.08,-1.00,-1.0,2445
5290,2140290,17028,-236,1104,17065.38,30.04,-1.00,-1.0,2374
5293,2140293,16992,-228,1076,17027.56,29.99,-1.00,-1.0,2422
5296,2140296,17008,-112,1076,17042.37,30.08,-1.00,-1.0,2392
5299,2140299,17072,-304,1344,17127.52,29.99,-1.00,-1.0,2417
5302,2140302,17024,-152,1440,17085.47,29.99,-1.00,-1.0,2399
5307,2140307,17036,-228,1300,17087.05,30.08,-1.00,-1.0,2440
5309,2140309,17172,-360,1424,17234.70,30.08,-1.00,-1.0,2389
5312,2140312,17168,-680,1112,17217.41,30.04,-1.00,-1.0,2439
5315,2140315,16940,-752,928,16982.06,29.99,-1.00,-1.0,2378
5318,2140318,17008,-744,996,17053.38,30.04,-1.00,-1.0,2430
5321,2140321,17104,-504,996,17140.39,30.08,-1.00,-1.0,2442
5323,2140323,17064,-616,1132,17112.60,30.04,-1.00,-1.0,2413
5326,2140326,17076,-472,1088,17117.13,29.94,-1.00,-1.0,2392
5331,2140331,17140,-500,1144,17185.41,30.04,-1.00,-1.0,2451
5334,2140334,17028,-296,1300,17080.12,30.04,-1.00,-1.0,2384
5336,2140336,17052,-100,1408,17110.32,30.13,-1.00,-1.0,2370
5339,2140339,17004,-8,1468,17067.25,29.99,-1.00,-1.0,2430
5342,2140342,16984,-180,1252,17031.04,30.08,-1.00,-1.0,2374
5345,2140345,16992,-220,1260,17040.07,29.99,-1.00,-1.0,2436
5348,2140348,16920,-180,1016,16951.43,29.99,-1.00,-1.0,2379
5350,2140350,17016,-96,1060,17049.25,30.04,-1.00,-1.0,2438
5353,2140353,17096,-144,964,17123.76,30.04,-1.00,-1.0,2390
5358,2140358,17128,-288,1228,17174.38,30.08,-1.00,-1.0,2440
5361,2140361,16952,-280,1176,16995.05,30.08,-1.00,-1.0,2386
5364,2140364,16968,-340,1436,17032.05,30.04,-1.00,-1.0,2439
5366,2140366,16932,-276,1488,16999.50,30.04,-1.00,-1.0,2384
5369,2140369,17168,-56,1496,17233.15,29.99,-1.00,-1.0,2430
5372,2140372,17040,-20,1596,17114.59,29.94,-1.00,-1.0,2379
5375,2140375,17036,-60,1556,17107.02,30.04,-1.00,-1.0,2434
5377,2140377,17008,-248,1684,17092.96,30.08,-1.00,-1.0,2378
5380,2140380,17004,-388,1488,17073.39,30.08,-1.00,-1.0,2368
5385,2140385,16912,-532,1504,16987.08,29.94,-1.00,-1.0,2452
5388,2140388,17076,-556,1372,17140.05,29.94,-1.00,-1.0,2392
5390,2140390,17068,-476,1528,17142.87,30.08,-1.00,-1.0,2428
5393,2140393,17012,-512,1448,17081.19,30.04,-1.00,-1.0,2376
5396,2140396,17064,-340,1284,17115.62,29.99,-1.00,-1.0,2431
5399,2140399,17044,-376,1552,17118.64,30.04,-1.00,-1.0,2380
5401,2140401,17016,-416,1208,17063.90,30.08,-1.00,-1.0,2429
5404,2140404,16992,-476,1340,17051.40,30.08,-1.00,-1.0,2374
5409,2140409,16892,-372,1248,16942.12,30.04,-1.00,-1.0,2444
5412,2140412,16996,-348,1112,17035.89,30.04,-1.00,-1.0,2380
5414,2140414,16904,-360,1040,16939.79,30.08,-1.00,-1.0,2431
5417,2140417,17072,-336,968,17102.72,29.99,-1.00,-1.0,2376
5420,2140420,17052,-492,1092,17094.01,29.99,-1.00,-1.0,2430
5423,2140423,17088,-372,888,17115.10,29.99,-1.00,-1.0,2382
5425,2140425,17168,-432,964,17200.47,30.04,-1.00,-1.0,2375
5428,2140428,17080,-456,1056,17118.69,30.04,-1.00,-1.0,2439
5431,2140431,17124,-304,1072,17160.21,29.94,-1.00,-1.0,2376
5436,2140436,17020,-260,1212,17065.08,30.13,-1.00,-1.0,2448
5439,2140439,16844,-184,1064,16878.57,30.13,-1.00,-1.0,2388
5441,2140441,16928,-176,856,16950.54,29.99,-1.00,-1.0,2433
5444,2140444,16800,-200,996,16830.69,30.08,-1.00,-1.0,2380
5447,2140447,16896,-44,1248,16942.09,29.99,-1.00,-1.0,2418
5450,2140450,16944,-84,1248,16990.11,30.04,-1.00,-1.0,2376
5452,2140452,17040,-188,1308,17091.16,29.99,-1.00,-1.0,2431
5455,2140455,17016,-312,1380,17074.72,29.99,-1.00,-1.0,2377
5460,2140460,17040,-288,1384,17098.54,30.08,-1.00,-1.0,2441
5463,2140463,17124,-308,1564,17198.03,29.89,-1.00,-1.0,2380
5466,2140466,17124,-312,1404,17184.29,30.04,-1.00,-1.0,2436
5468,2140468,17100,-192,1428,17160.60,29.99,-1.00,-1.0,2376
5471,2140471,17012,-256,1436,17074.42,30.04,-1.00,-1.0,2376
5474,2140474,17068,-284,1340,17122.88,30.08,-1.00,-1.0,2436
5477,2140477,17016,-264,1244,17063.46,29.94,-1.00,-1.0,2449
5480,2140480,17100,-248,1216,17144.97,29.94,-1.00,-1.0,2425
5482,2140482,17052,-272,1308,17104.26,29.99,-1.00,-1.0,2398
5487,2140487,17128,-336,1372,17186.15,30.08,-1.00,-1.0,2451
5490,2140490,17112,-432,1312,17167.66,29.99,-1.00,-1.0,2382
5493,2140493,17108,-476,1444,17175.43,29.99,-1.00,-1.0,2430
5496,2140496,17060,-432,1284,17113.71,30.08,-1.00,-1.0,2378
5498,2140498,17036,-420,1256,17087.40,30.13,-1.00,-1.0,2430
5501,2140501,16976,-292,1312,17029.13,30.04,-1.00,-1.0,2375
5504,2140504,16980,-460,1188,17027.72,29.94,-1.00,-1.0,2431
5507,2140507,17060,-352,1272,17110.98,30.04,-1.00,-1.0,2384
5512,2140512,17116,-296,1160,17157.82,30.04,-1.00,-1.0,2449
5514,2140514,17148,-384,1244,17197.35,30.04,-1.00,-1.0,2368
5517,2140517,17072,-456,1260,17124.51,29.94,-1.00,-1.0,2376
5520,2140520,17180,-428,1272,17232.34,30.08,-1.00,-1.0,2430
5523,2140523,17040,-384,1324,17095.67,30.04,-1.00,-1.0,2383
5525,2140525,16952,-244,1400,17011.46,30.08,-1.00,-1.0,2432
5528,2140528,16940,-256,1336,16994.53,29.99,-1.00,-1.0,2377
5531,2140531,16976,-124,1252,17022.56,29.94,-1.00,-1.0,2429
5534,2140534,16980,-216,1312,17031.98,30.08,-1.00,-1.0,2376
5539,2140539,17012,-152,1220,17056.37,29.99,-1.00,-1.0,2440
5541,2140541,17048,-232,1292,17098.46,30.08,-1.00,-1.0,2378
5544,2140544,16940,-176,1240,16986.23,29.94,-1.00,-1.0,2431
5547,2140547,16928,-324,1364,16985.96,30.04,-1.00,-1.0,2377
5550,2140550,17012,-344,1256,17061.77,29.94,-1.00,-1.0,2440
5552,2140552,17032,-296,1172,17074.84,30.04,-1.00,-1.0,2378
5555,2140555,16944,-288,1112,16982.89,30.08,-1.00,-1.0,2442
5558,2140558,16980,-140,1120,17017.47,29.99,-1.00,-1.0,2383
5563,2140563,17016,-148,1168,17056.68,30.04,-1.00,-1.0,2442
5566,2140566,16932,-164,1008,16962.77,30.04,-1.00,-1.0,2383
5569,2140569,17048,-84,1148,17086.82,30.13,-1.00,-1.0,2374
5571,2140571,17064,-288,1132,17103.93,30.08,-1.00,-1.0,2434
5574,2140574,17220,-260,1284,17269.76,29.99,-1.00,-1.0,2379
5577,2140577,17132,-420,1416,17195.55,30.04,-1.00,-1.0,2431
5580,2140580,17064,-424,1472,17132.62,30.04,-1.00,-1.0,2374
5582,2140582,17112,-440,1336,17169.71,30.04,-1.00,-1.0,2431
5585,2140585,16924,-400,1224,16972.92,29.94,-1.00,-1.0,2377
5590,2140590,16908,-376,1344,16965.50,30.04,-1.00,-1.0,2441
5593,2140593,16956,-248,1320,17009.11,30.04,-1.00,-1.0,2388
5596,2140596,17064,-276,1332,17118.13,29.99,-1.00,-1.0,2429
5598,2140598,16984,-212,1372,17040.64,30.08,-1.00,-1.0,2376
5601,2140601,17020,-324,1480,17087.30,30.18,-1.00,-1.0,2442
5604,2140604,16952,-332,1648,17035.15,30.08,-1.00,-1.0,2381
5607,2140607,17056,-424,1724,17148.15,30.04,-1.00,-1.0,2439
5609,2140609,17044,-476,1340,17103.22,29.94,-1.00,-1.0,2377
5612,2140612,17064,-504,1420,17130.40,29.94,-1.00,-1.0,2368
5617,2140617,17036,-500,1396,17100.41,30.04,-1.00,-1.0,2444
5619,2140619,17032,-424,1036,17068.75,30.13,-1.00,-1.0,2388
5622,2140622,17104,-348,1180,17148.19,30.04,-1.00,-1.0,2430
5625,2140625,17048,-368,1144,17090.30,30.04,-1.00,-1.0,2375
5628,2140628,17032,-376,1044,17068.11,30.08,-1.00,-1.0,2438
5630,2140630,17052,-372,1036,17087.49,30.04,-1.00,-1.0,2378
5633,2140633,17076,-436,1048,17113.68,30.08,-1.00,-1.0,2432
5636,2140636,17028,-380,1284,17080.57,30.08,-1.00,-1.0,2374
5641,2140641,17096,-252,1292,17146.60,29.99,-1.00,-1.0,2441
5644,2140644,17016,-100,1128,17053.64,29.89,-1.00,-1.0,2379
5647,2140647,17044,-200,1144,17083.52,30.08,-1.00,-1.0,2431
5649,2140649,16936,-216,1004,16967.11,30.08,-1.00,-1.0,2379
5652,2140652,17008,-220,1156,17048.66,30.04,-1.00,-1.0,2446
5655,2140655,16908,-272,1156,16949.65,29.99,-1.00,-1.0,2382
5658,2140658,17080,-272,1268,17129.16,30.13,-1.00,-1.0,2444
5660,2140660,17100,-280,1280,17150.12,29.94,-1.00,-1.0,2380
5663,2140663,17120,-184,1296,17169.97,30.04,-1.00,-1.0,2445
5668,2140668,16984,-292,1488,17051.56,30.04,-1.00,-1.0,2446
5671,2140671,16992,-264,1524,17062.25,30.04,-1.00,-1.0,2376
5674,2140674,17032,-136,1464,17095.35,29.99,-1.00,-1.0,2439
5676,2140676,17016,-100,1544,17086.20,30.04,-1.00,-1.0,2372
5679,2140679,16920,-128,1356,16974.73,29.99,-1.00,-1.0,2438
5682,2140682,16944,-200,1516,17012.86,30.08,-1.00,-1.0,2373
5685,2140685,16944,-184,1276,16992.97,30.13,-1.00,-1.0,2438
5688,2140688,16976,-300,1372,17033.99,30.08,-1.00,-1.0,2371
5692,2140692,17148,-332,1380,17206.64,29.99,-1.00,-1.0,2444
5695,2140695,17132,-432,1356,17191.01,30.08,-1.00,-1.0,2379
5698,2140698,17220,-428,1344,17277.67,30.04,-1.00,-1.0,2448
5701,2140701,17112,-348,1332,17167.29,30.13,-1.00,-1.0,2380
5704,2140704,17108,-412,1264,17159.58,30.04,-1.00,-1.0,2443
5706,2140706,17012,-348,1268,17062.74,30.04,-1.00,-1.0,2379
5709,2140709,16904,-440,1120,16946.78,29.99,-1.00,-1.0,2369
5712,2140712,17076,-392,1160,17119.84,29.99,-1.00,-1.0,2434
5714,2140714,17064,-400,1328,17120.27,30.08,-1.00,-1.0,2371
5719,2140719,16904,-376,1148,16947.11,29.99,-1.00,-1.0,2445
5722,2140722,17064,-344,1180,17108.21,29.99,-1.00,-1.0,2375
5725,2140725,17044,-420,1268,17096.26,30.04,-1.00,-1.0,2436
5728,2140728,17048,-444,1168,17093.73,30.08,-1.00,-1.0,2380
5731,2140731,17092,-416,1332,17148.87,30.04,-1.00,-1.0,2435
5733,2140733,17032,-308,1224,17078.70,30.04,-1.00,-1.0,2376
5736,2140736,17004,-360,1204,17050.37,30.04,-1.00,-1.0,2444
5739,2140739,17068,-296,1272,17117.89,30.04,-1.00,-1.0,2377
5744,2140744,16988,-348,1224,17035.59,30.13,-1.00,-1.0,2453
5747,2140747,16984,-368,1264,17034.95,30.04,-1.00,-1.0,2378
5749,2140749,17060,-244,1236,17106.46,30.04,-1.00,-1.0,2442
5752,2140752,16996,-164,1304,17046.74,30.04,-1.00,-1.0,2379
5755,2140755,17076,-224,1252,17123.30,29.99,-1.00,-1.0,2435
5758,2140758,17000,-256,1248,17047.67,30.08,-1.00,-1.0,2370
5760,2140760,17192,-232,1152,17232.12,29.99,-1.00,-1.0,2369
5763,2140763,17000,-232,1236,17046.45,30.04,-1.00,-1.0,2435
5766,2140766,17048,-216,1180,17090.15,29.94,-1.00,-1.0,2380
5771,2140771,17012,-280,1148,17052.99,29.99,-1.00,-1.0,2452
5773,2140773,16968,-328,1372,17026.54,29.99,-1.00,-1.0,2377
5776,2140776,17036,-212,1308,17087.46,29.94,-1.00,-1.0,2440
5779,2140779,17028,-304,1172,17070.99,30.04,-1.00,-1.0,2371
5782,2140782,16980,-228,1280,17029.70,30.04,-1.00,-1.0,2445
5785,2140785,17012,-296,1304,17064.47,30.04,-1.00,-1.0,2380
5787,2140787,17068,-296,1388,17126.90,29.99,-1.00,-1.0,2442
5790,2140790,17076,-336,1404,17136.92,30.08,-1.00,-1.0,2374
5797,2140797,17020,-204,1336,17073.57,30.08,-1.00,-1.0,2449
5800,2140800,17060,-412,1336,17117.19,30.08,-1.00,-1.0,2376
5802,2140802,17084,-344,1356,17141.18,29.94,-1.00,-1.0,2434
5805,2140805,17000,-292,1404,17060.38,30.08,-1.00,-1.0,2370
5808,2140808,16988,-332,1324,17042.75,30.04,-1.00,-1.0,2376
5811,2140811,17008,-332,1460,17073.78,30.08,-1.00,-1.0,2444
5813,2140813,17072,-400,1348,17129.81,30.04,-1.00,-1.0,2382
5816,2140816,17020,-376,1392,17080.97,30.08,-1.00,-1.0,2434
5819,2140819,17060,-364,1268,17110.93,30.08,-1.00,-1.0,2371
5824,2140824,17020,-272,1172,17062.47,29.99,-1.00,-1.0,2448
5826,2140826,17008,-380,1180,17053.12,29.99,-1.00,-1.0,2382
5829,2140829,17008,-344,1200,17053.75,30.04,-1.00,-1.0,2434
5832,2140832,17032,-392,1104,17072.24,29.99,-1.00,-1.0,2372
5835,2140835,17072,-228,1144,17111.81,29.94,-1.00,-1.0,2436
5837,2140837,17008,-172,1280,17056.96,30.08,-1.00,-1.0,2371
5840,2140840,17044,-304,1104,17082.42,30.04,-1.00,-1.0,2439
5843,2140843,16984,-200,1100,17020.76,29.94,-1.00,-1.0,2372
5848,2140848,16900,-272,1048,16934.65,30.04,-1.00,-1.0,2432
5851,2140851,17044,-236,1040,17077.33,30.04,-1.00,-1.0,2378
5853,2140853,16968,-252,1180,17010.85,30.04,-1.00,-1.0,2435
5856,2140856,16964,-208,1168,17005.43,30.04,-1.00,-1.0,2373
5859,2140859,16952,-296,1160,16994.22,29.99,-1.00,-1.0,2376
5862,2140862,16936,-208,1160,16976.95,29.99,-1.00,-1.0,2443
5864,2140864,16992,-168,1292,17041.88,29.99,-1.00,-1.0,2381
5867,2140867,17048,-352,1228,17095.79,30.04,-1.00,-1.0,2432
5870,2140870,17000,-308,1176,17043.41,30.04,-1.00,-1.0,2372
5875,2140875,17060,-236,1176,17102.11,29.99,-1.00,-1.0,2446
5878,2140878,17084,-328,1364,17141.50,29.89,-1.00,-1.0,2374
5880,2140880,17000,-424,1224,17049.28,30.13,-1.00,-1.0,2434
5883,2140883,17084,-368,1344,17140.74,30.13,-1.00,-1.0,2373
5886,2140886,17012,-236,1484,17078.23,30.13,-1.00,-1.0,2433
5889,2140889,17044,-232,1392,17102.32,30.04,-1.00,-1.0,2379
5892,2140892,16912,-336,1316,16966.45,29.99,-1.00,-1.0,2434
5894,2140894,17108,-292,1436,17170.64,30.04,-1.00,-1.0,2374
5899,2140899,16924,-348,1376,16983.41,29.94,-1.00,-1.0,2449
5902,2140902,17108,-308,1424,17169.92,30.04,-1.00,-1.0,2377
5905,2140905,32767,-8048,4948,34101.75,29.99,-1.00,-1.0,2373
5907,2140907,-6428,-9424,-19436,22536.39,30.04,-1.00,-1.0,2435
5910,2140910,500,4940,-1808,5284.17,30.04,-1.00,-1.0,2374
5913,2140913,19620,10392,-7828,23541.79,30.04,-1.00,-1.0,2435
5916,2140916,5452,-3404,18788,19857.00,30.04,-1.00,-1.0,2371
5918,2140918,21888,1380,3192,22162.53,29.94,-1.00,-1.0,2422
5921,2140921,19176,14340,1704,24005.38,30.04,-1.00,-1.0,2372
5926,2140926,23472,12948,-360,26808.86,30.04,-1.00,-1.0,2446
5929,2140929,6940,-7504,1032,10273.20,29.94,-1.00,-1.0,2376
5932,2140932,23324,-3192,10900,25942.39,30.08,-1.00,-1.0,2440
5934,2140934,21900,19572,516,29375.83,29.94,-1.00,-1.0,2371
5937,2140937,20280,-14960,-2152,25292.51,30.08,-1.00,-1.0,2441
5940,2140940,20328,26108,1020,33104.32,30.08,-1.00,-1.0,2373
5943,2140943,6276,-13636,3264,15361.72,30.08,-1.00,-1.0,2435
5946,2140946,18068,8748,-5340,20772.47,30.08,-1.00,-1.0,2377
5951,2140951,17740,-12300,5664,22317.67,29.99,-1.00,-1.0,2445
5953,2140953,20120,14192,2892,24790.95,30.08,-1.00,-1.0,2382
5956,2140956,21544,-8584,3472,23449.60,30.04,-1.00,-1.0,2442
5959,2140959,16320,5888,2908,17591.69,30.04,-1.00,-1.0,2373
5962,2140962,18376,1752,876,18480.10,29.94,-1.00,-1.0,2433
5964,2140964,17768,-4304,-2756,18488.42,30.04,-1.00,-1.0,2360
5967,2140967,14544,716,-4608,15273.32,30.08,-1.00,-1.0,2369
5970,2140970,20724,-2760,2348,21038.41,30.08,-1.00,-1.0,2445
5972,2140972,16504,1136,-1952,16657.82,29.99,-1.00,-1.0,2372
5977,2140977,14772,-2808,-588,15048.01,29.99,-1.00,-1.0,2445
5980,2140980,14128,200,268,14131.96,30.08,-1.00,-1.0,2377
5983,2140983,16712,1052,1880,16850.28,30.04,-1.00,-1.0,2450
5986,2140986,18524,2384,2192,18804.97,29.99,-1.00,-1.0,2376
5989,2140989,18820,-1692,3100,19148.51,30.13,-1.00,-1.0,2447
5991,2140991,18692,2164,688,18829.42,30.13,-1.00,-1.0,2381
5994,2140994,15496,-208,4516,16141.98,29.94,-1.00,-1.0,2434
5997,2140997,19208,1960,2544,19474.62,29.94,-1.00,-1.0,2370
6002,2141002,13080,-560,2096,13258.70,30.04,-1.00,-1.0,2447
6005,2141005,14572,-92,-108,14572.69,30.04,-1.00,-1.0,2373
6007,2141007,16932,-1224,2432,17149.50,30.08,-1.00,-1.0,2435
6010,2141010,15948,348,2540,16152.75,30.04,-1.00,-1.0,2372
6013,2141013,18088,-1144,2132,18249.11,29.99,-1.00,-1.0,2435
6016,2141016,17000,392,3072,17279.78,30.08,-1.00,-1.0,2377
6018,2141018,17444,-64,2856,17676.37,30.04,-1.00,-1.0,2379
6021,2141021,16052,1752,144,16147.97,30.04,-1.00,-1.0,2440
6024,2141024,17224,1060,1968,17368.44,30.13,-1.00,-1.0,2359
6028,2141028,15528,2364,-212,15708.35,30.08,-1.00,-1.0,2446
6031,2141031,17640,-1216,1768,17770.03,29.99,-1.00,-1.0,2380
6034,2141034,17076,-740,2568,17283.87,30.04,-1.00,-1.0,2449
6037,2141037,17076,-1264,1544,17192.19,30.04,-1.00,-1.0,2377
6040,2141040,17232,-1200,1960,17384.57,29.99,-1.00,-1.0,2443
6042,2141042,16980,-724,2308,17151.43,30.13,-1.00,-1.0,2380
6045,2141045,17092,-1036,1068,17156.64,30.18,-1.00,-1.0,2434
6048,2141048,16952,-172,476,16959.55,29.99,-1.00,-1.0,2374
