timestamp_ms,global_ms,accel_x,accel_y,accel_z,accel_mag,temp_c,voltage,soc,loop_us
2,2135002,17048,-200,1224,17093.05,29.47,-1.00,-1.0,2500
9,2135009,17032,-292,1208,17077.28,29.61,-1.00,-1.0,2460
12,2135012,16980,-308,1208,17025.70,29.52,-1.00,-1.0,2390
15,2135015,17048,-360,1208,17094.54,29.66,-1.00,-1.0,2447
17,2135017,17008,-232,1284,17057.98,29.47,-1.00,-1.0,2376
20,2135020,17036,-256,1340,17090.54,29.66,-1.00,-1.0,2369
23,2135023,17176,-336,1344,17231.78,29.61,-1.00,-1.0,2444
25,2135025,17068,-328,1256,17117.29,29.61,-1.00,-1.0,2380
28,2135028,17116,-292,1172,17158.56,29.57,-1.00,-1.0,2452
31,2135031,16940,-224,1292,16990.68,29.61,-1.00,-1.0,2382
36,2135036,17036,-288,1236,17083.21,29.52,-1.00,-1.0,2444
38,2135038,16896,-328,1332,16951.60,29.52,-1.00,-1.0,2380
41,2135041,16968,-360,1444,17033.14,29.57,-1.00,-1.0,2446
44,2135044,17080,-368,1192,17125.50,29.42,-1.00,-1.0,2384
47,2135047,16968,-436,1368,17028.64,29.57,-1.00,-1.0,2370
49,2135049,17064,-352,1324,17118.91,29.61,-1.00,-1.0,2434
52,2135052,16996,-328,1296,17048.50,29.47,-1.00,-1.0,2376
55,2135055,17112,-296,1244,17159.71,29.61,-1.00,-1.0,2434
58,2135058,16992,-352,1224,17039.66,29.52,-1.00,-1.0,2372
63,2135063,17064,-308,1324,17118.06,29.61,-1.00,-1.0,2443
65,2135065,16964,-220,1456,17027.79,29.57,-1.00,-1.0,2379
68,2135068,17044,-316,1332,17098.89,29.52,-1.00,-1.0,2436
71,2135071,16960,-232,1240,17006.85,29.57,-1.00,-1.0,2371
74,2135074,16992,-284,1332,17046.49,29.71,-1.00,-1.0,2438
76,2135076,17004,-312,1428,17066.71,29.61,-1.00,-1.0,2360
79,2135079,17028,-228,1144,17067.91,29.57,-1.00,-1.0,2378
82,2135082,16956,-324,1220,17002.92,29.66,-1.00,-1.0,2436
85,2135085,17028,-332,1172,17071.51,29.57,-1.00,-1.0,2376
90,2135090,19344,-1436,3492,19709.05,29.57,-1.00,-1.0,2443
92,2135092,6424,-12492,-32768,35651.92,29.57,-1.00,-1.0,2383
95,2135095,32288,21448,16276,42040.93,29.57,-1.00,-1.0,2441
98,2135098,19748,7920,-9860,23450.58,29.57,-1.00,-1.0,2376
101,2135101,5664,-2376,18656,19641.10,29.52,-1.00,-1.0,2433
103,2135103,12460,-13380,-4484,18825.04,29.47,-1.00,-1.0,2376
106,2135106,32767,28736,10932,44932.64,29.61,-1.00,-1.0,2436
109,2135109,6260,-18380,3456,19721.97,29.57,-1.00,-1.0,2360
114,2135114,6524,-3252,1048,7364.54,29.57,-1.00,-1.0,2444
117,2135117,27492,-5924,4308,28451.06,29.66,-1.00,-1.0,2379
119,2135119,18552,4872,-3284,19460.16,29.61,-1.00,-1.0,2434
122,2135122,10760,-12788,5096,17472.26,29.61,-1.00,-1.0,2372
125,2135125,26644,17148,5560,32169.40,29.57,-1.00,-1.0,2378
128,2135128,2572,-6120,-3644,7572.87,29.57,-1.00,-1.0,2446
130,2135130,27852,-3512,-3304,28266.31,29.57,-1.00,-1.0,2380
133,2135133,16184,-400,2216,16339.91,29.61,-1.00,-1.0,2441
136,2135136,18096,-13176,5444,23037.13,29.57,-1.00,-1.0,2360
141,2135141,12384,-11980,1112,17266.16,29.57,-1.00,-1.0,2449
144,2135144,22652,-1664,3516,22983.56,29.47,-1.00,-1.0,2377
146,2135146,17876,-528,-6184,18922.79,29.61,-1.00,-1.0,2443
149,2135149,15912,-10220,-2636,19094.21,29.47,-1.00,-1.0,2375
152,2135152,18072,3192,1012,18379.61,29.52,-1.00,-1.0,2435
155,2135155,20600,-4004,1608,21047.04,29.61,-1.00,-1.0,2372
157,2135157,13224,2904,-2504,13768.71,29.52,-1.00,-1.0,2434
160,2135160,15488,-1456,912,15583.00,29.61,-1.00,-1.0,2374
165,2135165,18568,3848,2140,19082.91,29.52,-1.00,-1.0,2443
168,2135168,19712,-2628,1112,19917.48,29.57,-1.00,-1.0,2380
171,2135171,18644,1520,1416,18759.38,29.52,-1.00,-1.0,2438
173,2135173,15504,-4236,1204,16117.30,29.52,-1.00,-1.0,2370
176,2135176,15952,5592,1764,16995.54,29.57,-1.00,-1.0,2373
179,2135179,17260,-5100,2160,18126.86,29.57,-1.00,-1.0,2443
182,2135182,18672,-128,80,18672.61,29.47,-1.00,-1.0,2375
184,2135184,15296,-260,800,15319.11,29.61,-1.00,-1.0,2441
187,2135187,14212,-556,404,14228.61,29.57,-1.00,-1.0,2391
192,2135192,18628,-2856,1728,18924.72,29.71,-1.00,-1.0,2458
195,2135195,18116,1628,-588,18198.51,29.57,-1.00,-1.0,2382
198,2135198,18032,-2316,2480,18348.50,29.61,-1.00,-1.0,2434
200,2135200,15824,312,2616,16041.81,29.52,-1.00,-1.0,2377
203,2135203,15700,-64,-404,15705.33,29.57,-1.00,-1.0,2435
206,2135206,16444,-1644,388,16530.53,29.52,-1.00,-1.0,2373
208,2135208,18316,2424,1936,18576.86,29.57,-1.00,-1.0,2371
211,2135211,16548,-1644,-888,16653.16,29.61,-1.00,-1.0,2449
214,2135214,15632,816,160,15654.10,29.57,-1.00,-1.0,2382
219,2135219,17548,-1640,1792,17715.34,29.61,-1.00,-1.0,2458
222,2135222,17388,-20,376,17392.08,29.47,-1.00,-1.0,2383
225,2135225,17700,-2344,2556,18036.56,29.52,-1.00,-1.0,2433
227,2135227,16876,-124,1764,16968.40,29.61,-1.00,-1.0,2380
230,2135230,16412,-1540,896,16508.43,29.57,-1.00,-1.0,2437
233,2135233,16616,-972,1180,16686.18,29.52,-1.00,-1.0,2375
236,2135236,17236,88,1628,17312.94,29.57,-1.00,-1.0,2440
238,2135238,16828,-112,512,16836.16,29.57,-1.00,-1.0,2374
243,2135243,16628,984,104,16657.41,29.61,-1.00,-1.0,2449
246,2135246,16636,-1272,1628,16763.80,29.52,-1.00,-1.0,2382
248,2135248,17060,-208,1000,17090.55,29.47,-1.00,-1.0,2371
251,2135251,17072,112,1512,17139.19,29.61,-1.00,-1.0,2436
254,2135254,17100,-1612,1088,17210.24,29.47,-1.00,-1.0,2375
257,2135257,17080,-44,1712,17165.64,29.52,-1.00,-1.0,2442
260,2135260,16772,-748,1004,16818.67,29.52,-1.00,-1.0,2375
262,2135262,17292,-624,2200,17442.55,29.61,-1.00,-1.0,2442
265,2135265,16764,-828,968,16812.33,29.52,-1.00,-1.0,2390
270,2135270,16716,568,1504,16793.13,29.52,-1.00,-1.0,2459
273,2135273,17144,-1076,644,17189.80,29.61,-1.00,-1.0,2390
276,2135276,17000,236,980,17029.86,29.57,-1.00,-1.0,2435
278,2135278,16848,-820,940,16894.12,29.47,-1.00,-1.0,2379
281,2135281,16836,108,1216,16880.20,29.57,-1.00,-1.0,2368
284,2135284,16964,-444,620,16981.13,29.47,-1.00,-1.0,2444
286,2135286,17256,-572,1104,17300.74,29.57,-1.00,-1.0,2375
289,2135289,17108,504,828,17135.44,29.61,-1.00,-1.0,2451
292,2135292,16724,-272,916,16751.28,29.61,-1.00,-1.0,2382
297,2135297,16972,-436,1100,17013.20,29.61,-1.00,-1.0,2443
300,2135300,17092,-276,908,17118.33,29.57,-1.00,-1.0,2388
303,2135303,16912,-360,1300,16965.71,29.61,-1.00,-1.0,2444
305,2135305,16892,-864,832,16934.53,29.52,-1.00,-1.0,2383
308,2135308,17100,-224,928,17126.63,29.66,-1.00,-1.0,2437
311,2135311,17024,-400,1256,17074.96,29.66,-1.00,-1.0,2376
313,2135313,17132,-264,1540,17203.10,29.57,-1.00,-1.0,2371
316,2135316,17120,-152,1504,17186.61,29.61,-1.00,-1.0,2437
319,2135319,17232,-168,1740,17320.44,29.61,-1.00,-1.0,2372
324,2135324,16808,340,1152,16850.86,29.57,-1.00,-1.0,2430
327,2135327,17132,-148,1760,17222.80,29.66,-1.00,-1.0,2380
329,2135329,17284,432,1696,17372.38,29.61,-1.00,-1.0,2434
332,2135332,16996,-148,1612,17072.92,29.52,-1.00,-1.0,2377
335,2135335,16784,328,1400,16845.48,29.61,-1.00,-1.0,2434
338,2135338,16984,-512,1856,17092.78,29.47,-1.00,-1.0,2381
341,2135341,16844,-452,1068,16883.88,29.57,-1.00,-1.0,2444
343,2135343,16968,-508,1124,17012.77,29.57,-1.00,-1.0,2442
349,2135349,17256,-688,1232,17313.60,29.52,-1.00,-1.0,2447
351,2135351,17204,-288,1428,17265.56,29.61,-1.00,-1.0,2380
354,2135354,17276,-780,1148,17331.66,29.47,-1.00,-1.0,2371
357,2135357,17064,-264,1256,17112.20,29.66,-1.00,-1.0,2432
359,2135359,17100,-940,1116,17162.14,29.57,-1.00,-1.0,2360
362,2135362,16928,-140,1224,16972.77,29.61,-1.00,-1.0,2424
365,2135365,16888,-532,784,16914.56,29.57,-1.00,-1.0,2376
368,2135368,16896,-24,1336,16948.75,29.57,-1.00,-1.0,2438
370,2135370,17168,196,1220,17212.41,29.57,-1.00,-1.0,2373
375,2135375,17052,-28,1024,17082.74,29.57,-1.00,-1.0,2450
378,2135378,17176,-840,1388,17252.45,29.57,-1.00,-1.0,2375
381,2135381,17132,-204,1288,17181.56,29.61,-1.00,-1.0,2435
384,2135384,17168,-936,1144,17231.51,29.57,-1.00,-1.0,2375
386,2135386,17208,-248,1108,17245.42,29.61,-1.00,-1.0,2371
389,2135389,17240,-604,1500,17315.67,29.57,-1.00,-1.0,2450
392,2135392,16940,-348,1496,17009.49,29.57,-1.00,-1.0,2381
395,2135395,16792,-468,1436,16859.79,29.57,-1.00,-1.0,2445
397,2135397,16652,-304,1304,16705.75,29.57,-1.00,-1.0,2382
402,2135402,16836,128,1360,16891.33,29.66,-1.00,-1.0,2458
405,2135405,17076,-4,1416,17134.61,29.66,-1.00,-1.0,2385
408,2135408,17156,416,1596,17235.10,29.61,-1.00,-1.0,2435
411,2135411,17316,-176,1500,17381.74,29.57,-1.00,-1.0,2373
413,2135413,17132,60,1404,17189.54,29.61,-1.00,-1.0,2437
416,2135416,17072,-200,1200,17115.29,29.52,-1.00,-1.0,2375
419,2135419,17048,-280,1004,17079.83,29.57,-1.00,-1.0,2381
422,2135422,16992,-556,1244,17046.55,29.66,-1.00,-1.0,2443
424,2135424,17144,-500,1200,17193.22,29.66,-1.00,-1.0,2382
429,2135429,16956,-336,1008,16989.26,29.52,-1.00,-1.0,2447
432,2135432,17024,-156,1016,17055.00,29.61,-1.00,-1.0,2377
435,2135435,16864,-272,1188,16907.98,29.52,-1.00,-1.0,2438
437,2135437,16816,-208,1212,16860.90,29.52,-1.00,-1.0,2375
440,2135440,16968,-164,1172,17009.22,29.57,-1.00,-1.0,2437
443,2135443,17024,-348,1432,17087.67,29.61,-1.00,-1.0,2374
446,2135446,17036,-276,1268,17085.35,29.66,-1.00,-1.0,2441
448,2135448,17104,-472,1244,17155.67,29.66,-1.00,-1.0,2376
453,2135453,16948,-756,860,16986.64,29.52,-1.00,-1.0,2448
456,2135456,17052,-688,1048,17098.02,29.61,-1.00,-1.0,2379
458,2135458,17076,-712,1044,17122.69,29.57,-1.00,-1.0,2370
461,2135461,17000,-532,976,17036.30,29.57,-1.00,-1.0,2445
464,2135464,17096,-592,1080,17140.31,29.57,-1.00,-1.0,2389
467,2135467,17128,-484,1052,17167.10,29.52,-1.00,-1.0,2438
470,2135470,17056,-468,1460,17124.77,29.47,-1.00,-1.0,2378
472,2135472,17056,-232,1504,17123.75,29.52,-1.00,-1.0,2431
475,2135475,17124,-236,1480,17189.46,29.52,-1.00,-1.0,2373
480,2135480,16892,-64,1408,16950.70,29.52,-1.00,-1.0,2455
483,2135483,16956,-304,1320,17010.02,29.61,-1.00,-1.0,2380
486,2135486,16952,-196,1208,16996.12,29.61,-1.00,-1.0,2434
488,2135488,17036,-256,1308,17088.06,29.61,-1.00,-1.0,2378
491,2135491,17120,-116,916,17144.88,29.47,-1.00,-1.0,2437
494,2135494,17120,-196,1144,17159.30,29.57,-1.00,-1.0,2375
497,2135497,16952,-248,1340,17006.69,29.57,-1.00,-1.0,2377
499,2135499,16972,-216,1172,17013.79,29.52,-1.00,-1.0,2441
502,2135502,16848,-196,1276,16897.39,29.52,-1.00,-1.0,2386
507,2135507,17056,68,1496,17121.62,29.52,-1.00,-1.0,2463
510,2135510,17084,72,1508,17150.58,29.52,-1.00,-1.0,2380
513,2135513,16892,68,1520,16960.39,29.52,-1.00,-1.0,2432
515,2135515,16988,-124,1504,17054.90,29.61,-1.00,-1.0,2366
518,2135518,17060,-252,1536,17130.86,29.57,-1.00,-1.0,2436
521,2135521,16952,-456,1372,17013.54,29.61,-1.00,-1.0,2363
524,2135524,17036,-516,1540,17113.24,29.57,-1.00,-1.0,2439
526,2135526,17028,-488,1256,17081.23,29.57,-1.00,-1.0,2374
529,2135529,17088,-372,1372,17147.03,29.66,-1.00,-1.0,2371
534,2135534,17060,-404,1220,17108.34,29.57,-1.00,-1.0,2448
537,2135537,17040,-420,1280,17093.17,29.66,-1.00,-1.0,2383
540,2135540,17096,-388,1252,17146.17,29.61,-1.00,-1.0,2441
542,2135542,17036,-492,1260,17089.62,29.61,-1.00,-1.0,2380
545,2135545,16980,-444,1164,17025.64,29.52,-1.00,-1.0,2446
548,2135548,17000,-408,1056,17037.65,29.52,-1.00,-1.0,2377
551,2135551,17084,-300,1068,17119.98,29.57,-1.00,-1.0,2435
553,2135553,17004,-488,1024,17041.79,29.52,-1.00,-1.0,2377
558,2135558,17012,-436,1072,17051.32,29.42,-1.00,-1.0,2456
561,2135561,16968,-556,996,17006.30,29.71,-1.00,-1.0,2379
564,2135564,17092,-488,956,17125.67,29.47,-1.00,-1.0,2434
567,2135567,17112,-428,968,17144.70,29.57,-1.00,-1.0,2373
569,2135569,17236,-352,1264,17285.87,29.57,-1.00,-1.0,2373
572,2135572,17152,-216,1088,17187.83,29.52,-1.00,-1.0,2451
575,2135575,17064,-252,1164,17105.51,29.52,-1.00,-1.0,2383
578,2135578,16940,-136,1044,16972.69,29.61,-1.00,-1.0,2441
580,2135580,16872,-248,1120,16910.95,29.61,-1.00,-1.0,2380
585,2135585,16908,8,1184,16949.41,29.71,-1.00,-1.0,2456
588,2135588,16928,-28,1228,16972.51,29.61,-1.00,-1.0,2383
591,2135591,17000,-156,1312,17051.27,29.57,-1.00,-1.0,2436
594,2135594,16980,-244,1296,17031.13,29.47,-1.00,-1.0,2374
596,2135596,17032,-260,1476,17097.81,29.57,-1.00,-1.0,2435
599,2135599,17084,-308,1544,17156.39,29.66,-1.00,-1.0,2374
602,2135602,17148,-300,1580,17223.25,29.61,-1.00,-1.0,2381
605,2135605,17068,-360,1340,17124.30,29.52,-1.00,-1.0,2444
607,2135607,17060,-244,1476,17125.47,29.52,-1.00,-1.0,2383
612,2135612,17048,-336,1392,17108.04,29.61,-1.00,-1.0,2459
615,2135615,17000,-368,1248,17049.72,29.61,-1.00,-1.0,2390
618,2135618,16948,-364,1124,16989.13,29.57,-1.00,-1.0,2436
621,2135621,16980,-472,1260,17033.23,29.57,-1.00,-1.0,2371
623,2135623,17088,-384,1308,17142.29,29.66,-1.00,-1.0,2437
626,2135626,17100,-280,1464,17164.84,29.47,-1.00,-1.0,2376
629,2135629,17072,-340,1360,17129.46,29.61,-1.00,-1.0,2434
632,2135632,17004,-328,1384,17063.38,29.57,-1.00,-1.0,2370
637,2135637,17036,-488,1292,17091.89,29.57,-1.00,-1.0,2448
639,2135639,16992,-332,1172,17035.61,29.47,-1.00,-1.0,2372
642,2135642,17056,-336,1108,17095.25,29.52,-1.00,-1.0,2369
645,2135645,17080,-372,1220,17127.56,29.66,-1.00,-1.0,2443
648,2135648,17100,-200,996,17130.15,29.61,-1.00,-1.0,2376
650,2135650,17104,-296,1312,17156.80,29.57,-1.00,-1.0,2443
653,2135653,17040,-352,1284,17091.93,29.66,-1.00,-1.0,2390
656,2135656,17084,-348,1088,17122.15,29.57,-1.00,-1.0,2433
659,2135659,17108,-444,1208,17156.34,29.47,-1.00,-1.0,2372
663,2135663,16876,-324,1276,16927.27,29.52,-1.00,-1.0,2450
666,2135666,16980,-264,1392,17039.01,29.61,-1.00,-1.0,2375
669,2135669,16996,-136,1168,17036.63,29.57,-1.00,-1.0,2437
672,2135672,16928,-116,1188,16970.03,29.57,-1.00,-1.0,2381
674,2135674,17032,-120,1296,17081.66,29.66,-1.00,-1.0,2442
677,2135677,17052,-328,1220,17098.73,29.57,-1.00,-1.0,2383
680,2135680,17112,-352,1252,17161.35,29.52,-1.00,-1.0,2369
682,2135682,17036,-328,1328,17090.83,29.61,-1.00,-1.0,2435
685,2135685,17008,-440,1356,17067.64,29.61,-1.00,-1.0,2377
690,2135690,17048,-332,1328,17102.87,29.52,-1.00,-1.0,2434
693,2135693,16984,-360,1224,17031.85,29.57,-1.00,-1.0,2361
696,2135696,16968,-308,1156,17010.12,29.61,-1.00,-1.0,2440
698,2135698,17016,-196,1008,17046.96,29.66,-1.00,-1.0,2375
701,2135701,16940,-76,1024,16971.09,29.61,-1.00,-1.0,2435
704,2135704,16972,-112,1192,17014.18,29.52,-1.00,-1.0,2376
707,2135707,16956,-208,1120,16994.22,29.57,-1.00,-1.0,2441
709,2135709,17088,-236,1300,17139.00,29.52,-1.00,-1.0,2373
714,2135714,17236,-340,1444,17299.72,29.52,-1.00,-1.0,2448
717,2135717,17164,-492,1296,17219.89,29.52,-1.00,-1.0,2376
720,2135720,17004,-404,1316,17059.63,29.66,-1.00,-1.0,2378
723,2135723,17108,-412,1392,17169.48,29.57,-1.00,-1.0,2441
725,2135725,17068,-428,1480,17137.39,29.57,-1.00,-1.0,2382
728,2135728,16896,-264,1224,16942.33,29.61,-1.00,-1.0,2436
731,2135731,16996,-216,1140,17035.56,29.52,-1.00,-1.0,2377
734,2135734,16904,-224,1292,16954.78,29.52,-1.00,-1.0,2432
736,2135736,17032,-280,1228,17078.51,29.57,-1.00,-1.0,2373
741,2135741,17032,-384,1428,17096.07,29.57,-1.00,-1.0,2456
744,2135744,16972,-388,1372,17031.79,29.61,-1.00,-1.0,2378
747,2135747,17104,-484,1444,17171.67,29.61,-1.00,-1.0,2434
750,2135750,17044,-412,1392,17105.71,29.61,-1.00,-1.0,2372
752,2135752,16956,-420,1400,17018.88,29.42,-1.00,-1.0,2435
755,2135755,17040,-396,1104,17080.32,29.52,-1.00,-1.0,2372
758,2135758,17096,-372,1224,17143.80,29.57,-1.00,-1.0,2379
761,2135761,17112,-436,1028,17148.39,29.61,-1.00,-1.0,2445
763,2135763,17096,-456,1020,17132.47,29.57,-1.00,-1.0,2384
768,2135768,17108,-444,1144,17151.96,29.57,-1.00,-1.0,2460
771,2135771,16952,-448,1216,17001.46,29.57,-1.00,-1.0,2389
774,2135774,17068,-508,1240,17120.52,29.61,-1.00,-1.0,2434
777,2135777,17096,-308,1164,17138.35,29.52,-1.00,-1.0,2370
779,2135779,17052,-260,1396,17111.02,29.52,-1.00,-1.0,2436
782,2135782,17008,-340,1212,17054.52,29.52,-1.00,-1.0,2376
785,2135785,16960,-272,1184,17003.45,29.52,-1.00,-1.0,2433
788,2135788,17136,-304,1220,17182.06,29.52,-1.00,-1.0,2370
793,2135793,16868,-212,1136,16907.54,29.61,-1.00,-1.0,2450
795,2135795,17028,-308,964,17058.05,29.52,-1.00,-1.0,2379
798,2135798,17084,-228,1232,17129.88,29.57,-1.00,-1.0,2371
801,2135801,17044,-256,1196,17087.83,29.57,-1.00,-1.0,2441
803,2135803,17104,-232,1228,17149.60,29.57,-1.00,-1.0,2372
806,2135806,16992,-224,1292,17042.52,29.57,-1.00,-1.0,2448
809,2135809,16992,-196,1288,17041.87,29.57,-1.00,-1.0,2380
812,2135812,17008,-148,1516,17076.07,29.61,-1.00,-1.0,2428
815,2135815,16964,-128,1400,17022.15,29.57,-1.00,-1.0,2379
820,2135820,16936,-116,1312,16987.14,29.66,-1.00,-1.0,2448
822,2135822,17008,-100,1272,17055.79,29.57,-1.00,-1.0,2375
825,2135825,16968,-200,1320,17020.44,29.52,-1.00,-1.0,2450
828,2135828,17012,-220,1320,17064.55,29.61,-1.00,-1.0,2379
830,2135830,17080,-420,1308,17135.16,29.52,-1.00,-1.0,2369
833,2135833,17052,-332,1412,17113.58,29.57,-1.00,-1.0,2435
836,2135836,17168,-396,1248,17217.86,29.52,-1.00,-1.0,2358
839,2135839,17092,-380,1200,17138.29,29.47,-1.00,-1.0,2437
841,2135841,17040,-320,1076,17076.94,29.47,-1.00,-1.0,2374
846,2135846,16932,-304,1276,16982.73,29.57,-1.00,-1.0,2448
849,2135849,17020,-284,1300,17071.94,29.57,-1.00,-1.0,2374
852,2135852,17024,-296,1140,17064.69,29.52,-1.00,-1.0,2438
854,2135854,17052,-288,1288,17103.00,29.66,-1.00,-1.0,2374
857,2135857,16992,-320,1092,17030.06,29.61,-1.00,-1.0,2450
860,2135860,17084,-380,1296,17137.30,29.61,-1.00,-1.0,2384
863,2135863,17052,-372,1152,17094.92,29.61,-1.00,-1.0,2423
866,2135866,17060,-444,1276,17113.41,29.61,-1.00,-1.0,2376
868,2135868,17100,-424,1076,17139.06,29.57,-1.00,-1.0,2370
873,2135873,17052,-452,1192,17099.59,29.52,-1.00,-1.0,2453
876,2135876,17016,-336,1312,17069.81,29.61,-1.00,-1.0,2384
878,2135878,16968,-260,1236,17014.94,29.57,-1.00,-1.0,2437
881,2135881,16956,-368,1324,17011.59,29.52,-1.00,-1.0,2376
884,2135884,16968,-428,1256,17019.80,29.57,-1.00,-1.0,2435
887,2135887,16972,-292,1200,17016.88,29.57,-1.00,-1.0,2371
890,2135890,16964,-264,1176,17006.76,29.52,-1.00,-1.0,2474
892,2135892,17016,-280,1248,17064.00,29.52,-1.00,-1.0,2382
897,2135897,17088,-224,1312,17139.76,29.52,-1.00,-1.0,2459
900,2135900,17056,-276,1348,17111.41,29.52,-1.00,-1.0,2380
903,2135903,17112,-344,1216,17158.60,29.47,-1.00,-1.0,2436
906,2135906,17020,-276,1268,17069.40,29.57,-1.00,-1.0,2368
908,2135908,16964,-336,1364,17022.06,29.57,-1.00,-1.0,2370
911,2135911,17128,-224,1308,17179.33,29.52,-1.00,-1.0,2437
914,2135914,17016,-276,1352,17071.86,29.61,-1.00,-1.0,2379
917,2135917,17040,-284,1336,17094.65,29.52,-1.00,-1.0,2436
919,2135919,17004,-288,1320,17057.59,29.61,-1.00,-1.0,2374
924,2135924,17084,-332,1492,17152.24,29.61,-1.00,-1.0,2451
927,2135927,16944,-328,1276,16995.14,29.61,-1.00,-1.0,2370
930,2135930,17060,-296,1484,17126.98,29.61,-1.00,-1.0,2444
933,2135933,16976,-372,1348,17033.50,29.61,-1.00,-1.0,2376
935,2135935,16936,-368,1344,16993.23,29.47,-1.00,-1.0,2447
938,2135938,17012,-308,1284,17063.17,29.57,-1.00,-1.0,2381
941,2135941,17044,-240,1380,17101.46,29.57,-1.00,-1.0,2437
944,2135944,16968,-376,1476,17036.22,29.47,-1.00,-1.0,2370
946,2135946,17004,-380,1280,17056.34,29.57,-1.00,-1.0,2370
951,2135951,17028,-424,1200,17075.50,29.57,-1.00,-1.0,2436
954,2135954,17020,-404,1340,17077.45,29.47,-1.00,-1.0,2371
957,2135957,17084,-500,1216,17134.52,29.52,-1.00,-1.0,2443
959,2135959,16964,-360,1140,17006.07,29.52,-1.00,-1.0,2372
962,2135962,16976,-320,1260,17025.70,29.61,-1.00,-1.0,2437
965,2135965,17020,-336,1144,17061.71,29.61,-1.00,-1.0,2370
968,2135968,16992,-328,1096,17030.47,29.52,-1.00,-1.0,2441
970,2135970,16976,-284,1268,17025.66,29.61,-1.00,-1.0,2371
975,2135975,16988,-272,1220,17033.92,29.42,-1.00,-1.0,2450
978,2135978,17080,-308,1140,17120.77,29.61,-1.00,-1.0,2374
981,2135981,17044,-236,1104,17081.35,29.52,-1.00,-1.0,2434
984,2135984,16932,-216,1040,16965.29,29.61,-1.00,-1.0,2371
986,2135986,17080,-216,1000,17110.61,29.57,-1.00,-1.0,2377
989,2135989,17000,-300,1080,17036.91,29.57,-1.00,-1.0,2438
992,2135992,16956,-220,1172,16997.88,29.57,-1.00,-1.0,2375
995,2135995,16972,-120,1116,17009.08,29.52,-1.00,-1.0,2434
997,2135997,16992,-176,1196,17034.95,29.57,-1.00,-1.0,2370
1002,2136002,17080,-216,1296,17130.46,29.47,-1.00,-1.0,2437
1005,2136005,17016,-260,1132,17055.59,29.57,-1.00,-1.0,2372
1008,2136008,17040,-248,1424,17101.20,29.52,-1.00,-1.0,2436
1011,2136011,17032,-336,1104,17071.05,29.52,-1.00,-1.0,2370
1013,2136013,16928,-232,1148,16968.47,29.61,-1.00,-1.0,2437
1016,2136016,17004,-276,1264,17053.15,29.52,-1.00,-1.0,2371
1019,2136019,17072,-292,1244,17119.75,29.61,-1.00,-1.0,2436
1022,2136022,17016,-260,1308,17068.18,29.61,-1.00,-1.0,2378
1027,2136027,17016,-344,1368,17074.37,29.61,-1.00,-1.0,2457
1029,2136029,17060,-304,1168,17102.64,29.61,-1.00,-1.0,2372
1032,2136032,16916,-400,1320,16972.14,29.66,-1.00,-1.0,2377
1035,2136035,17028,-344,1276,17079.21,29.66,-1.00,-1.0,2439
1038,2136038,16972,-348,1224,17019.64,29.47,-1.00,-1.0,2374
1040,2136040,17072,-360,1268,17122.81,29.52,-1.00,-1.0,2432
1043,2136043,16920,-420,1232,16969.99,29.57,-1.00,-1.0,2373
1046,2136046,17088,-344,1248,17136.96,29.52,-1.00,-1.0,2435
1049,2136049,17168,-404,1284,17220.69,29.61,-1.00,-1.0,2368
1054,2136054,16940,-384,1156,16983.74,29.52,-1.00,-1.0,2449
1056,2136056,16936,-500,1224,16987.53,29.61,-1.00,-1.0,2373
1059,2136059,17008,-248,1008,17039.65,29.52,-1.00,-1.0,2436
1062,2136062,17068,-368,1120,17108.67,29.61,-1.00,-1.0,2370
1065,2136065,17052,-304,1292,17103.58,29.57,-1.00,-1.0,2442
1067,2136067,17028,-336,1220,17074.96,29.61,-1.00,-1.0,2369
1070,2136070,17112,-296,1120,17151.17,29.66,-1.00,-1.0,2439
1073,2136073,17048,-300,1208,17093.38,29.57,-1.00,-1.0,2372
1076,2136076,17008,-232,1308,17059.80,29.57,-1.00,-1.0,2373
1080,2136080,17028,-320,1172,17071.29,29.47,-1.00,-1.0,2448
1083,2136083,17028,-212,1356,17083.22,29.52,-1.00,-1.0,2369
1086,2136086,17008,-168,1304,17058.74,29.47,-1.00,-1.0,2441
1088,2136088,16992,-288,1376,17050.05,29.57,-1.00,-1.0,2370
1091,2136091,17004,-204,1152,17044.20,29.52,-1.00,-1.0,2453
1094,2136094,16968,-188,1280,17017.25,29.57,-1.00,-1.0,2379
1097,2136097,16988,-164,1252,17034.86,29.42,-1.00,-1.0,2425
1100,2136100,17000,-216,1296,17050.70,29.47,-1.00,-1.0,2377
1105,2136105,17124,-224,1348,17178.44,29.47,-1.00,-1.0,2448
1107,2136107,17052,-424,1260,17103.74,29.57,-1.00,-1.0,2376
1110,2136110,17000,-332,1460,17065.81,29.57,-1.00,-1.0,2444
1113,2136113,16940,-272,1204,16984.91,29.52,-1.00,-1.0,2373
1116,2136116,16996,-276,1264,17045.17,29.52,-1.00,-1.0,2443
1118,2136118,16980,-212,1348,17034.74,29.52,-1.00,-1.0,2378
1121,2136121,17052,-248,1280,17101.77,29.61,-1.00,-1.0,2436
1124,2136124,16956,-220,1352,17011.24,29.52,-1.00,-1.0,2372
1126,2136126,17012,-280,1156,17053.53,29.47,-1.00,-1.0,2370
1131,2136131,17080,-416,1200,17127.16,29.57,-1.00,-1.0,2450
1134,2136134,16992,-380,1308,17046.50,29.57,-1.00,-1.0,2373
1137,2136137,17124,-404,1316,17179.24,29.57,-1.00,-1.0,2436
1140,2136140,17072,-464,1132,17115.78,29.66,-1.00,-1.0,2376
1143,2136143,17104,-304,1372,17161.63,29.66,-1.00,-1.0,2437
1145,2136145,16924,-280,1328,16978.33,29.47,-1.00,-1.0,2375
1148,2136148,17132,-272,1372,17189.00,29.52,-1.00,-1.0,2450
1151,2136151,16980,-248,1312,17032.42,29.52,-1.00,-1.0,2375
1156,2136156,17112,-260,1316,17164.50,29.57,-1.00,-1.0,2452
1158,2136158,17032,-272,1384,17090.30,29.57,-1.00,-1.0,2373
1161,2136161,17008,-336,1340,17064.01,29.52,-1.00,-1.0,2452
1164,2136164,17044,-284,1364,17100.85,29.47,-1.00,-1.0,2377
1167,2136167,16972,-352,1296,17025.05,29.61,-1.00,-1.0,2442
1170,2136170,17068,-312,1212,17113.82,29.52,-1.00,-1.0,2374
1172,2136172,17048,-348,1224,17095.43,29.57,-1.00,-1.0,2371
1175,2136175,16968,-364,1076,17005.98,29.47,-1.00,-1.0,2436
1178,2136178,17000,-388,1044,17036.45,29.57,-1.00,-1.0,2370
1183,2136183,17084,-388,1008,17118.11,29.57,-1.00,-1.0,2450
1185,2136185,16992,-236,1048,17025.92,29.57,-1.00,-1.0,2372
1188,2136188,17112,-272,1132,17151.56,29.57,-1.00,-1.0,2436
1191,2136191,17024,-240,1308,17075.86,29.57,-1.00,-1.0,2368
1194,2136194,16944,-176,1232,16989.64,29.61,-1.00,-1.0,2444
1196,2136196,17140,-288,1352,17195.65,29.57,-1.00,-1.0,2371
1199,2136199,16984,-276,1236,17031.15,29.42,-1.00,-1.0,2437
1202,2136202,16980,-188,1144,17019.53,29.66,-1.00,-1.0,2369
1207,2136207,16972,-216,1240,17018.61,29.57,-1.00,-1.0,2449
1210,2136210,16992,-192,1284,17041.53,29.47,-1.00,-1.0,2370
1212,2136212,16976,-204,1244,17022.74,29.52,-1.00,-1.0,2436
1215,2136215,16972,-296,1180,17015.54,29.61,-1.00,-1.0,2373
1218,2136218,17032,-292,1328,17086.19,29.61,-1.00,-1.0,2436
1221,2136221,16992,-328,1200,17037.48,29.61,-1.00,-1.0,2371
1223,2136223,17084,-320,1196,17128.80,29.57,-1.00,-1.0,2381
1226,2136226,17032,-292,1408,17092.59,29.57,-1.00,-1.0,2437
1229,2136229,17040,-352,1424,17103.02,29.47,-1.00,-1.0,2373
1234,2136234,16984,-304,1288,17035.48,29.57,-1.00,-1.0,2440
1237,2136237,16948,-360,1140,16990.11,29.52,-1.00,-1.0,2379
1239,2136239,16932,-320,1292,16984.24,29.57,-1.00,-1.0,2438
1242,2136242,16928,-336,1312,16982.09,29.57,-1.00,-1.0,2369
1245,2136245,32767,-8820,-12216,36065.21,29.57,-1.00,-1.0,2438
1248,2136248,-8604,-16000,-29484,34631.42,29.57,-1.00,-1.0,2375
1251,2136251,32767,18112,18808,41898.23,29.57,-1.00,-1.0,2448
1253,2136253,29084,18164,-7812,35168.70,29.47,-1.00,-1.0,2378
1258,2136258,19536,-4832,-6084,21024.24,29.57,-1.00,-1.0,2449
1261,2136261,29812,16336,9480,35291.51,29.57,-1.00,-1.0,2372
1264,2136264,8300,-20692,4608,22765.82,29.52,-1.00,-1.0,2437
1266,2136266,28816,504,-3388,29018.86,29.52,-1.00,-1.0,2360
1269,2136269,11980,-5772,-2464,13524.34,29.52,-1.00,-1.0,2438
1272,2136272,20248,-2336,10080,22738.62,29.52,-1.00,-1.0,2371
1275,2136275,16124,13464,628,21015.64,29.57,-1.00,-1.0,2441
1278,2136278,17676,-15836,2772,23893.59,29.52,-1.00,-1.0,2373
1282,2136282,2064,-6244,-164,6578.34,29.61,-1.00,-1.0,2450
1285,2136285,26396,-2884,-6344,27300.41,29.57,-1.00,-1.0,2377
1288,2136288,9616,8976,6572,14704.67,29.57,-1.00,-1.0,2374
1290,2136290,15920,-9276,5132,19126.63,29.57,-1.00,-1.0,2438
1293,2136293,19508,12384,3820,23420.46,29.57,-1.00,-1.0,2377
1296,2136296,13896,-12500,1808,18778.12,29.66,-1.00,-1.0,2435
1299,2136299,21876,-304,2256,21994.12,29.57,-1.00,-1.0,2369
1301,2136301,19040,1892,-3960,19539.27,29.61,-1.00,-1.0,2436
1304,2136304,17096,-8404,-3164,19310.91,29.61,-1.00,-1.0,2375
1309,2136309,14872,-6532,-2404,16420.19,29.52,-1.00,-1.0,2449
1312,2136312,13240,3440,-2604,13925.23,29.66,-1.00,-1.0,2376
1315,2136315,16156,-3368,1284,16553.20,29.61,-1.00,-1.0,2441
1317,2136317,18988,-4808,-4600,20120.16,29.52,-1.00,-1.0,2372
1320,2136320,19664,4552,3496,20484.52,29.57,-1.00,-1.0,2439
1323,2136323,17180,-4456,-384,17752.63,29.61,-1.00,-1.0,2376
1326,2136326,16140,4764,3976,17291.73,29.57,-1.00,-1.0,2441
1329,2136329,16924,-6628,2652,18368.05,29.57,-1.00,-1.0,2372
1334,2136334,17008,-24,2244,17155.41,29.47,-1.00,-1.0,2448
1336,2136336,16316,-644,408,16333.80,29.57,-1.00,-1.0,2375
1339,2136339,14720,-1236,2168,14930.05,29.57,-1.00,-1.0,2443
1342,2136342,16844,576,12,16853.85,29.57,-1.00,-1.0,2376
1344,2136344,16396,704,2248,16564.36,29.61,-1.00,-1.0,2370
1347,2136347,17372,-484,680,17392.04,29.61,-1.00,-1.0,2437
1350,2136350,18712,-532,1680,18794.80,29.61,-1.00,-1.0,2371
1353,2136353,17180,-2040,112,17301.06,29.57,-1.00,-1.0,2437
1355,2136355,16696,-1604,3220,17079.16,29.52,-1.00,-1.0,2359
1360,2136360,17924,-2748,2480,18302.23,29.52,-1.00,-1.0,2450
1363,2136363,18048,3176,2220,18459.30,29.52,-1.00,-1.0,2362
1366,2136366,17008,-1580,124,17081.68,29.47,-1.00,-1.0,2435
1369,2136369,16956,1084,864,17012.57,29.52,-1.00,-1.0,2377
1372,2136372,16964,224,992,16994.46,29.47,-1.00,-1.0,2438
1374,2136374,17388,-1096,2200,17560.86,29.47,-1.00,-1.0,2374
1377,2136377,17416,-432,1068,17454.06,29.47,-1.00,-1.0,2449
1380,2136380,16928,-1908,1156,17074.37,29.57,-1.00,-1.0,2379
1385,2136385,16868,-1432,1456,16991.17,29.57,-1.00,-1.0,2456
1388,2136388,17288,-236,704,17303.94,29.57,-1.00,-1.0,2377
1390,2136390,17440,-1452,904,17523.67,29.61,-1.00,-1.0,2370
1393,2136393,16548,212,632,16561.42,29.57,-1.00,-1.0,2436
1396,2136396,17360,-424,1496,17429.50,29.52,-1.00,-1.0,2372
1398,2136398,16736,896,712,16775.08,29.57,-1.00,-1.0,2437
1401,2136401,16880,-1020,1376,16966.68,29.57,-1.00,-1.0,2371
1404,2136404,17204,764,1644,17299.25,29.57,-1.00,-1.0,2437
1407,2136407,16460,-712,1196,16518.75,29.57,-1.00,-1.0,2380
1412,2136412,17312,-320,1888,17417.59,29.57,-1.00,-1.0,2457
1414,2136414,17360,352,1296,17411.87,29.57,-1.00,-1.0,2375
1417,2136417,17468,-616,1648,17556.38,29.52,-1.00,-1.0,2449
1420,2136420,16716,-756,940,16759.47,29.57,-1.00,-1.0,2379
1423,2136423,17320,-944,1376,17400.20,29.52,-1.00,-1.0,2442
1426,2136426,16604,-408,1152,16648.92,29.61,-1.00,-1.0,2382
1428,2136428,17272,-1112,640,17319.59,29.52,-1.00,-1.0,2434
1431,2136431,16944,408,1012,16979.10,29.52,-1.00,-1.0,2370
1434,2136434,17140,-832,844,17180.92,29.57,-1.00,-1.0,2377
1439,2136439,17092,-656,868,17126.59,29.57,-1.00,-1.0,2455
1441,2136441,17092,-100,1128,17129.47,29.57,-1.00,-1.0,2373
1444,2136444,17156,192,1184,17197.88,29.57,-1.00,-1.0,2438
1447,2136447,17024,-284,1344,17079.33,29.57,-1.00,-1.0,2372
1450,2136450,17176,-212,1544,17246.56,29.47,-1.00,-1.0,2442
1453,2136453,17140,-168,1300,17190.05,29.52,-1.00,-1.0,2373
1455,2136455,16912,-448,1336,16970.60,29.52,-1.00,-1.0,2443
1458,2136458,16920,-452,1300,16975.89,29.61,-1.00,-1.0,2390
1463,2136463,16976,-208,1040,17009.10,29.52,-1.00,-1.0,2457
1466,2136466,17064,-432,1592,17143.55,29.61,-1.00,-1.0,2378
1469,2136469,17012,40,1460,17074.58,29.57,-1.00,-1.0,2434
1471,2136471,17000,-4,1696,17084.39,29.57,-1.00,-1.0,2374
1474,2136474,17136,-172,2040,17257.86,29.57,-1.00,-1.0,2369
1477,2136477,17044,64,1468,17107.22,29.61,-1.00,-1.0,2444
1480,2136480,16820,276,1540,16892.61,29.52,-1.00,-1.0,2375
1482,2136482,17232,-160,1648,17311.36,29.52,-1.00,-1.0,2443
1485,2136485,17212,464,1648,17296.94,29.52,-1.00,-1.0,2387
1490,2136490,17016,192,1324,17068.51,29.57,-1.00,-1.0,2451
1492,2136492,16996,-436,1564,17073.38,29.57,-1.00,-1.0,2374
1495,2136495,16876,-516,972,16911.84,29.52,-1.00,-1.0,2446
1498,2136498,16828,-476,852,16856.28,29.61,-1.00,-1.0,2391
1501,2136501,16944,-1104,700,16994.35,29.57,-1.00,-1.0,2436
1504,2136504,17324,-500,1164,17370.26,29.52,-1.00,-1.0,2372
1506,2136506,17224,-464,1172,17270.06,29.57,-1.00,-1.0,2435
1509,2136509,17108,-696,1164,17161.67,29.57,-1.00,-1.0,2374
1514,2136514,16948,-764,956,16992.12,29.57,-1.00,-1.0,2458
1517,2136517,16916,-144,1032,16948.06,29.57,-1.00,-1.0,2437
1520,2136520,16948,-456,1192,16995.98,29.57,-1.00,-1.0,2374
1522,2136522,16952,-388,1192,16998.29,29.57,-1.00,-1.0,2425
1525,2136525,17080,-28,1236,17124.69,29.57,-1.00,-1.0,2387
1528,2136528,17008,-324,1104,17046.87,29.61,-1.00,-1.0,2422
1531,2136531,16968,-372,1084,17006.66,29.57,-1.00,-1.0,2397
1534,2136534,17192,-544,1320,17251.18,29.61,-1.00,-1.0,2421
1536,2136536,17144,-284,1252,17192.00,29.52,-1.00,-1.0,2388
1541,2136541,17132,-296,1296,17183.50,29.52,-1.00,-1.0,2442
1544,2136544,17128,-636,1384,17195.59,29.61,-1.00,-1.0,2375
1547,2136547,17028,-308,1400,17088.23,29.52,-1.00,-1.0,2450
1550,2136550,16852,-124,1372,16908.21,29.61,-1.00,-1.0,2374
1552,2136552,16648,-140,1364,16704.37,29.57,-1.00,-1.0,2445
1555,2136555,16904,0,1392,16961.22,29.57,-1.00,-1.0,2388
1558,2136558,16908,68,1516,16975.96,29.57,-1.00,-1.0,2437
1561,2136561,17036,132,1536,17105.61,29.57,-1.00,-1.0,2375
1563,2136563,17012,208,1516,17080.68,29.52,-1.00,-1.0,2370
1568,2136568,17224,-28,1376,17278.90,29.52,-1.00,-1.0,2440
1571,2136571,17056,-344,1072,17093.12,29.57,-1.00,-1.0,2379
1574,2136574,17112,-356,1028,17146.55,29.52,-1.00,-1.0,2445
1576,2136576,17060,-572,1284,17117.81,29.61,-1.00,-1.0,2373
1579,2136579,17060,-536,1188,17109.71,29.57,-1.00,-1.0,2454
1582,2136582,17060,-140,1248,17106.16,29.52,-1.00,-1.0,2381
1585,2136585,17080,-264,880,17104.69,29.57,-1.00,-1.0,2422
1588,2136588,16972,-136,984,17001.04,29.57,-1.00,-1.0,2377
1593,2136593,16968,-108,1172,17008.77,29.52,-1.00,-1.0,2439
1595,2136595,16960,0,1188,17001.56,29.61,-1.00,-1.0,2378
1598,2136598,17024,-456,1408,17088.21,29.57,-1.00,-1.0,2454
1601,2136601,17124,-248,1480,17189.63,29.66,-1.00,-1.0,2376
1603,2136603,17104,-656,1208,17159.15,29.47,-1.00,-1.0,2370
1606,2136606,17116,-616,1056,17159.61,29.52,-1.00,-1.0,2436
1609,2136609,16948,-804,920,16991.98,29.52,-1.00,-1.0,2370
1612,2136612,17064,-484,972,17098.51,29.61,-1.00,-1.0,2440
1614,2136614,17012,-660,1016,17055.09,29.61,-1.00,-1.0,2361
1619,2136619,17036,-492,1096,17078.31,29.61,-1.00,-1.0,2441
1622,2136622,17156,-508,1252,17209.12,29.61,-1.00,-1.0,2377
1625,2136625,17032,-352,1408,17093.72,29.52,-1.00,-1.0,2443
1628,2136628,17036,-196,1500,17103.03,29.52,-1.00,-1.0,2376
1631,2136631,17008,-172,1524,17077.01,29.57,-1.00,-1.0,2439
1633,2136633,17084,-168,1564,17156.26,29.57,-1.00,-1.0,2377
1636,2136636,17004,-148,1396,17061.85,29.57,-1.00,-1.0,2448
1639,2136639,17004,-188,1288,17053.75,29.47,-1.00,-1.0,2373
1644,2136644,17016,-268,1212,17061.21,29.57,-1.00,-1.0,2448
1646,2136646,17056,-80,1156,17095.32,29.57,-1.00,-1.0,2375
1649,2136649,17056,-208,1464,17119.98,29.57,-1.00,-1.0,2368
1652,2136652,17000,-376,1304,17054.08,29.61,-1.00,-1.0,2441
1655,2136655,17060,-412,1356,17118.76,29.57,-1.00,-1.0,2374
1657,2136657,17016,-328,1516,17086.55,29.61,-1.00,-1.0,2438
1660,2136660,16984,-88,1424,17043.82,29.52,-1.00,-1.0,2371
1663,2136663,17060,-52,1516,17127.30,29.57,-1.00,-1.0,2437
1666,2136666,17048,0,1400,17105.39,29.52,-1.00,-1.0,2379
1671,2136671,16992,-176,1616,17069.58,29.47,-1.00,-1.0,2462
1673,2136673,17028,-368,1608,17107.71,29.47,-1.00,-1.0,2381
1676,2136676,16860,-396,1408,16923.32,29.52,-1.00,-1.0,2445
1679,2136679,16964,-536,1308,17022.79,29.61,-1.00,-1.0,2369
1682,2136682,16952,-604,1176,17003.47,29.57,-1.00,-1.0,2445
1684,2136684,17164,-460,1224,17213.73,29.52,-1.00,-1.0,2372
1687,2136687,17028,-444,1240,17078.86,29.57,-1.00,-1.0,2441
1690,2136690,17176,-384,1220,17223.55,29.57,-1.00,-1.0,2370
1693,2136693,17112,-440,1348,17170.65,29.57,-1.00,-1.0,2376
1697,2136697,17040,-372,1112,17080.30,29.57,-1.00,-1.0,2446
1700,2136700,17016,-384,1228,17064.57,29.57,-1.00,-1.0,2372
1703,2136703,16948,-188,1124,16986.27,29.52,-1.00,-1.0,2447
1706,2136706,16832,-396,1048,16869.24,29.57,-1.00,-1.0,2384
1708,2136708,16992,-352,1116,17032.25,29.52,-1.00,-1.0,2442
1711,2136711,16956,-304,1084,16993.33,29.52,-1.00,-1.0,2376
1714,2136714,17056,-444,1028,17092.72,29.61,-1.00,-1.0,2424
1717,2136717,17044,-396,932,17074.05,29.61,-1.00,-1.0,2369
1722,2136722,17164,-276,1156,17205.10,29.52,-1.00,-1.0,2444
1724,2136724,17180,-260,1124,17218.69,29.52,-1.00,-1.0,2378
1727,2136727,17164,-164,1200,17206.68,29.57,-1.00,-1.0,2447
1730,2136730,17132,-232,1084,17167.83,29.61,-1.00,-1.0,2372
1733,2136733,16900,-144,1056,16933.57,29.47,-1.00,-1.0,2446
1735,2136735,16896,-60,1180,16937.26,29.47,-1.00,-1.0,2370
1738,2136738,16864,-40,1096,16899.62,29.61,-1.00,-1.0,2378
1741,2136741,16964,48,1180,17005.06,29.57,-1.00,-1.0,2468
1744,2136744,17020,-12,1156,17059.22,29.47,-1.00,-1.0,2376
1749,2136749,16924,-120,1260,16971.26,29.57,-1.00,-1.0,2456
1751,2136751,17000,-328,1480,17067.45,29.57,-1.00,-1.0,2375
1754,2136754,17096,-268,1404,17155.65,29.52,-1.00,-1.0,2457
1757,2136757,17068,-296,1348,17123.71,29.52,-1.00,-1.0,2385
1760,2136760,17132,-184,1348,17185.94,29.61,-1.00,-1.0,2438
1763,2136763,17088,-224,1464,17152.06,29.52,-1.00,-1.0,2369
1765,2136765,16972,-208,1344,17026.40,29.57,-1.00,-1.0,2440
1768,2136768,17092,-264,1300,17143.40,29.52,-1.00,-1.0,2371
1773,2136773,17044,-352,1296,17096.83,29.52,-1.00,-1.0,2453
1776,2136776,17012,-264,1352,17067.68,29.61,-1.00,-1.0,2378
1779,2136779,17060,-324,1404,17120.74,29.47,-1.00,-1.0,2445
1781,2136781,17164,-424,1460,17231.20,29.57,-1.00,-1.0,2370
1784,2136784,17004,-464,1396,17067.52,29.57,-1.00,-1.0,2369
1787,2136787,16972,-392,1388,17033.17,29.52,-1.00,-1.0,2446
1790,2136790,16956,-396,1344,17013.79,29.52,-1.00,-1.0,2383
1792,2136792,17124,-328,1336,17179.17,29.57,-1.00,-1.0,2445
1795,2136795,16964,-420,1280,17017.41,29.61,-1.00,-1.0,2376
1800,2136800,17136,-308,1304,17188.30,29.52,-1.00,-1.0,2456
1803,2136803,17080,-288,1184,17123.41,29.61,-1.00,-1.0,2377
1806,2136806,17140,-236,1196,17183.30,29.47,-1.00,-1.0,2439
1808,2136808,16984,-404,1188,17030.29,29.47,-1.00,-1.0,2372
1811,2136811,17036,-436,1268,17088.69,29.57,-1.00,-1.0,2440
1814,2136814,16940,-408,1348,16998.45,29.57,-1.00,-1.0,2372
1817,2136817,17016,-280,1228,17062.55,29.52,-1.00,-1.0,2443
1819,2136819,16916,-276,1364,16973.15,29.57,-1.00,-1.0,2371
1824,2136824,16944,44,1228,16988.50,29.47,-1.00,-1.0,2446
1827,2136827,16880,-116,1164,16920.48,29.47,-1.00,-1.0,2374
1830,2136830,17052,-188,1032,17084.23,29.61,-1.00,-1.0,2443
1833,2136833,17016,-252,1292,17066.84,29.61,-1.00,-1.0,2379
1835,2136835,17140,-264,1160,17181.24,29.57,-1.00,-1.0,2380
1838,2136838,17128,-408,1120,17169.43,29.66,-1.00,-1.0,2438
1841,2136841,16972,-340,1200,17017.77,29.57,-1.00,-1.0,2371
1844,2136844,17048,-432,1336,17105.72,29.57,-1.00,-1.0,2439
1846,2136846,17020,-312,1204,17065.38,29.66,-1.00,-1.0,2373
1851,2136851,16996,-172,1112,17033.21,29.47,-1.00,-1.0,2447
1854,2136854,16928,-336,1076,16965.49,29.57,-1.00,-1.0,2376
1857,2136857,17056,-100,1164,17095.96,29.52,-1.00,-1.0,2439
1860,2136860,17092,-228,1224,17137.29,29.52,-1.00,-1.0,2376
1863,2136863,17120,-236,1124,17158.48,29.52,-1.00,-1.0,2440
1865,2136865,17044,-260,1344,17098.88,29.52,-1.00,-1.0,2375
1868,2136868,17116,-440,1212,17164.50,29.57,-1.00,-1.0,2452
1871,2136871,17040,-284,1540,17111.80,29.42,-1.00,-1.0,2376
1876,2136876,17068,-340,1548,17141.43,29.47,-1.00,-1.0,2453
1879,2136879,17020,-292,1312,17072.99,29.57,-1.00,-1.0,2382
1881,2136881,16892,-384,1288,16945.38,29.57,-1.00,-1.0,2371
1884,2136884,16920,-348,1188,16965.22,29.61,-1.00,-1.0,2441
1887,2136887,16936,-296,1236,16983.62,29.61,-1.00,-1.0,2378
1890,2136890,17036,-284,1268,17085.48,29.42,-1.00,-1.0,2440
1892,2136892,17076,-276,1404,17135.84,29.52,-1.00,-1.0,2369
1895,2136895,17076,-440,1368,17136.36,29.47,-1.00,-1.0,2455
1898,2136898,16940,-348,1452,17005.68,29.57,-1.00,-1.0,2377
1902,2136902,17020,-380,1192,17065.92,29.47,-1.00,-1.0,2449
1905,2136905,17060,-440,1280,17113.61,29.61,-1.00,-1.0,2375
1908,2136908,17052,-604,1304,17112.45,29.61,-1.00,-1.0,2441
1911,2136911,16996,-380,1184,17041.43,29.61,-1.00,-1.0,2376
1914,2136914,16968,-420,1304,17023.21,29.57,-1.00,-1.0,2440
1916,2136916,17008,-408,1060,17045.88,29.52,-1.00,-1.0,2373
1919,2136919,16996,-448,1024,17032.71,29.57,-1.00,-1.0,2452
1922,2136922,17124,-360,1028,17158.61,29.57,-1.00,-1.0,2373
1927,2136927,17052,-300,1164,17094.31,29.57,-1.00,-1.0,2454
1930,2136930,17048,-272,1164,17089.86,29.57,-1.00,-1.0,2373
1932,2136932,17008,-216,1240,17054.51,29.57,-1.00,-1.0,2373
1935,2136935,17004,-308,1248,17052.52,29.52,-1.00,-1.0,2440
1938,2136938,17180,-120,1260,17226.56,29.61,-1.00,-1.0,2371
1940,2136940,17016,-132,1128,17053.86,29.61,-1.00,-1.0,2426
1943,2136943,17008,-208,1288,17057.97,29.52,-1.00,-1.0,2370
1946,2136946,17056,-260,1220,17101.55,29.57,-1.00,-1.0,2440
1949,2136949,17080,-320,1216,17126.22,29.52,-1.00,-1.0,2377
1954,2136954,17020,-296,1252,17068.55,29.42,-1.00,-1.0,2447
1956,2136956,17028,-228,1216,17072.88,29.61,-1.00,-1.0,2376
1959,2136959,17016,-248,1260,17064.39,29.57,-1.00,-1.0,2443
1962,2136962,17040,-144,1408,17098.68,29.57,-1.00,-1.0,2370
1965,2136965,17008,-172,1372,17064.12,29.57,-1.00,-1.0,2447
1968,2136968,16948,-176,1468,17012.37,29.57,-1.00,-1.0,2373
1970,2136970,16960,64,1452,17022.16,29.57,-1.00,-1.0,2447
1973,2136973,17060,-104,1476,17124.05,29.57,-1.00,-1.0,2385
1976,2136976,16900,-128,1280,16948.89,29.61,-1.00,-1.0,2370
1981,2136981,16980,-172,1376,17036.53,29.52,-1.00,-1.0,2446
1983,2136983,17008,-400,1364,17067.29,29.57,-1.00,-1.0,2378
1986,2136986,17140,-344,1224,17187.09,29.52,-1.00,-1.0,2440
1989,2136989,17152,-420,1436,17217.13,29.52,-1.00,-1.0,2374
1992,2136992,17024,-428,1416,17088.15,29.47,-1.00,-1.0,2445
1994,2136994,16984,-496,1304,17041.21,29.61,-1.00,-1.0,2358
1997,2136997,17036,-496,1332,17095.19,29.57,-1.00,-1.0,2440
2000,2137000,17060,-360,1392,17120.48,29.47,-1.00,-1.0,2374
2005,2137005,17004,-308,1340,17059.50,29.57,-1.00,-1.0,2449
2008,2137008,17008,-392,1352,17066.15,29.57,-1.00,-1.0,2382
2011,2137011,17032,-376,1424,17095.56,29.57,-1.00,-1.0,2439
2013,2137013,17020,-388,1172,17064.72,29.66,-1.00,-1.0,2372
2016,2137016,17064,-484,1312,17121.21,29.52,-1.00,-1.0,2450
2019,2137019,17072,-360,1380,17131.47,29.52,-1.00,-1.0,2375
2021,2137021,17028,-416,1316,17083.84,29.52,-1.00,-1.0,2375
2024,2137024,17028,-384,1204,17074.83,29.47,-1.00,-1.0,2438
2027,2137027,17036,-280,1276,17086.01,29.57,-1.00,-1.0,2369
2032,2137032,16904,-316,1288,16955.94,29.61,-1.00,-1.0,2446
2035,2137035,17044,-416,1324,17100.41,29.52,-1.00,-1.0,2371
2037,2137037,16912,-216,1084,16948.08,29.47,-1.00,-1.0,2441
2040,2137040,16936,-164,1212,16980.10,29.57,-1.00,-1.0,2359
2043,2137043,16964,-196,1220,17008.94,29.57,-1.00,-1.0,2439
2046,2137046,17080,-176,1136,17118.64,29.57,-1.00,-1.0,2377
2049,2137049,17116,-264,1268,17164.93,29.66,-1.00,-1.0,2438
2051,2137051,17156,-248,1280,17205.47,29.66,-1.00,-1.0,2375
2056,2137056,17012,-292,1272,17061.99,29.47,-1.00,-1.0,2449
2059,2137059,17120,-308,1164,17162.29,29.57,-1.00,-1.0,2377
2062,2137062,17184,-352,1160,17226.71,29.52,-1.00,-1.0,2446
2065,2137065,16996,-284,1312,17048.93,29.61,-1.00,-1.0,2371
2067,2137067,17088,-280,1312,17140.58,29.52,-1.00,-1.0,2448
2070,2137070,17000,-308,1304,17052.72,29.52,-1.00,-1.0,2387
2073,2137073,17028,-180,1428,17088.72,29.57,-1.00,-1.0,2370
2075,2137075,17016,-212,1264,17064.20,29.57,-1.00,-1.0,2436
2078,2137078,16920,-240,1336,16974.36,29.57,-1.00,-1.0,2375
2083,2137083,17032,-288,1332,17086.43,29.61,-1.00,-1.0,2446
2086,2137086,17004,-324,1260,17053.70,29.61,-1.00,-1.0,2382
2089,2137089,17112,-168,1264,17159.44,29.61,-1.00,-1.0,2449
2091,2137091,17072,-324,1320,17126.02,29.52,-1.00,-1.0,2378
2094,2137094,16968,-392,1388,17029.19,29.57,-1.00,-1.0,2439
2097,2137097,17024,-376,1284,17076.49,29.57,-1.00,-1.0,2374
2100,2137100,16976,-348,1464,17042.56,29.66,-1.00,-1.0,2442
2102,2137102,17020,-288,1340,17075.10,29.57,-1.00,-1.0,2372
2107,2137107,17020,-432,1276,17073.23,29.61,-1.00,-1.0,2456
2110,2137110,17092,-324,1252,17140.86,29.61,-1.00,-1.0,2379
2113,2137113,16988,-412,1256,17039.35,29.57,-1.00,-1.0,2440
2115,2137115,16972,-356,1236,17020.67,29.57,-1.00,-1.0,2371
2118,2137118,16996,-344,1268,17046.71,29.52,-1.00,-1.0,2370
2121,2137121,16988,-260,1224,17034.02,29.52,-1.00,-1.0,2446
2124,2137124,17024,-308,1172,17067.07,29.52,-1.00,-1.0,2373
2126,2137126,16996,-276,1224,17042.25,29.57,-1.00,-1.0,2447
2129,2137129,16988,-220,1188,17030.91,29.52,-1.00,-1.0,2386
2134,2137134,16960,-244,1032,16993.12,29.52,-1.00,-1.0,2462
2137,2137137,17032,-204,1224,17077.14,29.52,-1.00,-1.0,2377
2140,2137140,17084,-284,1060,17119.21,29.57,-1.00,-1.0,2448
2142,2137142,16996,-216,1028,17028.43,29.57,-1.00,-1.0,2374
2145,2137145,17104,-292,1136,17144.17,29.66,-1.00,-1.0,2439
2148,2137148,17016,-232,1100,17053.10,29.47,-1.00,-1.0,2370
2151,2137151,17088,-284,1308,17140.34,29.61,-1.00,-1.0,2446
2153,2137153,16988,-216,1336,17041.82,29.61,-1.00,-1.0,2373
2158,2137158,16968,-192,1360,17023.50,29.52,-1.00,-1.0,2447
2161,2137161,17008,-292,1352,17064.15,29.47,-1.00,-1.0,2362
2164,2137164,17000,-220,1284,17049.84,29.52,-1.00,-1.0,2440
2167,2137167,17096,-308,1352,17152.14,29.52,-1.00,-1.0,2376
2169,2137169,17008,-240,1260,17056.30,29.57,-1.00,-1.0,2380
2172,2137172,17128,-280,1432,17190.04,29.47,-1.00,-1.0,2440
2175,2137175,17004,-392,1216,17051.93,29.57,-1.00,-1.0,2374
2178,2137178,17000,-260,1296,17051.31,29.52,-1.00,-1.0,2437
2180,2137180,17036,-400,1332,17092.67,29.57,-1.00,-1.0,2370
2185,2137185,17096,-304,1148,17137.20,29.47,-1.00,-1.0,2433
2188,2137188,17028,-356,1416,17090.48,29.47,-1.00,-1.0,2376
2191,2137191,16976,-288,1336,17030.93,29.61,-1.00,-1.0,2441
2194,2137194,16960,-420,1308,17015.55,29.66,-1.00,-1.0,2372
2196,2137196,17096,-316,1364,17153.24,29.52,-1.00,-1.0,2439
2199,2137199,17092,-420,1256,17143.23,29.47,-1.00,-1.0,2370
2202,2137202,17096,-332,1300,17148.57,29.52,-1.00,-1.0,2438
2205,2137205,17000,-376,1256,17050.48,29.61,-1.00,-1.0,2379
2210,2137210,17072,-328,1216,17118.39,29.52,-1.00,-1.0,2455
2212,2137212,17004,-352,1104,17043.44,29.61,-1.00,-1.0,2377
2215,2137215,17036,-344,1216,17082.81,29.66,-1.00,-1.0,2385
2218,2137218,17016,-372,1140,17058.20,29.52,-1.00,-1.0,2440
2221,2137221,16936,-328,1300,16988.99,29.57,-1.00,-1.0,2370
2223,2137223,17064,-248,1184,17106.82,29.52,-1.00,-1.0,2439
2226,2137226,16976,-204,1204,17019.87,29.57,-1.00,-1.0,2372
2229,2137229,17000,-312,1332,17054.96,29.52,-1.00,-1.0,2437
2232,2137232,17108,-272,1200,17152.19,29.52,-1.00,-1.0,2369
2237,2137237,17000,-264,1260,17048.67,29.42,-1.00,-1.0,2445
2239,2137239,16976,-172,1312,17027.49,29.52,-1.00,-1.0,2373
2242,2137242,17004,-196,1336,17057.53,29.57,-1.00,-1.0,2445
2245,2137245,16976,-200,1288,17025.97,29.52,-1.00,-1.0,2370
2248,2137248,16964,-232,1112,17001.99,29.57,-1.00,-1.0,2446
2251,2137251,17028,-212,1200,17071.55,29.66,-1.00,-1.0,2372
2253,2137253,16992,-268,1132,17031.77,29.57,-1.00,-1.0,2447
2256,2137256,17056,-268,1356,17111.92,29.57,-1.00,-1.0,2388
2261,2137261,17016,-212,1372,17072.54,29.57,-1.00,-1.0,2462
2264,2137264,16988,-296,1276,17038.43,29.57,-1.00,-1.0,2380
2266,2137266,17008,-304,1372,17065.96,29.52,-1.00,-1.0,2370
2269,2137269,16976,-308,1260,17025.48,29.57,-1.00,-1.0,2443
2272,2137272,17000,-392,1312,17055.06,29.61,-1.00,-1.0,2370
2275,2137275,16976,-236,1276,17025.52,29.57,-1.00,-1.0,2447
2277,2137277,16960,-268,1404,17020.12,29.57,-1.00,-1.0,2372
2280,2137280,17000,-304,1152,17041.70,29.52,-1.00,-1.0,2474
2283,2137283,17036,-288,1436,17098.84,29.61,-1.00,-1.0,2357
2288,2137288,16980,-416,1372,17040.42,29.47,-1.00,-1.0,2447
2291,2137291,16956,-384,1208,17003.31,29.52,-1.00,-1.0,2374
2294,2137294,17004,-360,1312,17058.34,29.57,-1.00,-1.0,2447
2296,2137296,17092,-432,1408,17155.34,29.57,-1.00,-1.0,2372
2299,2137299,17036,-476,1232,17087.12,29.61,-1.00,-1.0,2448
2302,2137302,17044,-284,1380,17102.13,29.66,-1.00,-1.0,2387
2305,2137305,17020,-376,1276,17071.91,29.52,-1.00,-1.0,2440
2308,2137308,17020,-312,1352,17076.46,29.52,-1.00,-1.0,2374
2310,2137310,16896,-316,1440,16960.20,29.61,-1.00,-1.0,2357
2315,2137315,17040,-260,1312,17092.41,29.61,-1.00,-1.0,2450
2318,2137318,17036,-260,1352,17091.54,29.61,-1.00,-1.0,2386
2320,2137320,17024,-340,1304,17077.25,29.52,-1.00,-1.0,2438
2323,2137323,17000,-340,1268,17050.61,29.61,-1.00,-1.0,2370
2326,2137326,16976,-344,1248,17025.29,29.57,-1.00,-1.0,2441
2329,2137329,17020,-384,1340,17076.99,29.47,-1.00,-1.0,2372
2331,2137331,16996,-292,1192,17040.25,29.57,-1.00,-1.0,2438
2334,2137334,17032,-300,1080,17068.84,29.57,-1.00,-1.0,2370
2339,2137339,17112,-308,1192,17156.23,29.57,-1.00,-1.0,2433
2342,2137342,17124,-200,1232,17169.43,29.61,-1.00,-1.0,2360
2345,2137345,17020,-308,1152,17061.72,29.57,-1.00,-1.0,2448
2347,2137347,17160,-192,1164,17200.50,29.47,-1.00,-1.0,2373
2350,2137350,17060,-220,1192,17103.01,29.57,-1.00,-1.0,2441
2353,2137353,16984,-296,1212,17029.76,29.57,-1.00,-1.0,2370
2356,2137356,17036,-228,1136,17075.36,29.61,-1.00,-1.0,2444
2359,2137359,17048,-236,1200,17091.81,29.61,-1.00,-1.0,2377
2361,2137361,17000,-184,1340,17053.72,29.52,-1.00,-1.0,2369
2366,2137366,17052,-316,1252,17100.82,29.61,-1.00,-1.0,2442
2369,2137369,17048,-312,1396,17107.91,29.61,-1.00,-1.0,2364
2372,2137372,17016,-228,1384,17073.71,29.66,-1.00,-1.0,2448
2374,2137374,16988,-264,1404,17047.96,29.52,-1.00,-1.0,2371
2377,2137377,17144,-328,1316,17197.56,29.47,-1.00,-1.0,2440
2380,2137380,16988,-348,1348,17044.95,29.47,-1.00,-1.0,2371
2383,2137383,17000,-356,1384,17059.96,29.57,-1.00,-1.0,2443
2385,2137385,17044,-328,1268,17094.25,29.57,-1.00,-1.0,2371
2390,2137390,17088,-272,1340,17142.62,29.57,-1.00,-1.0,2446
2393,2137393,16996,-440,1312,17052.24,29.66,-1.00,-1.0,2374
2396,2137396,16924,-404,1136,16966.89,29.47,-1.00,-1.0,2441
2399,2137399,17132,-400,1216,17179.76,29.57,-1.00,-1.0,2371
2402,2137402,17044,-352,1256,17093.84,29.61,-1.00,-1.0,2439
2404,2137404,32767,-11508,-716,34736.48,29.57,-1.00,-1.0,2373
2407,2137407,-6824,6568,3032,9944.78,29.61,-1.00,-1.0,2457
2410,2137410,-1168,-924,-3980,4249.52,29.61,-1.00,-1.0,2379
2412,2137412,26512,13380,-6260,30349.60,29.57,-1.00,-1.0,2357
2417,2137417,16864,-11208,-9584,22402.38,29.52,-1.00,-1.0,2455
2420,2137420,29660,15724,7448,34386.52,29.52,-1.00,-1.0,2378
2423,2137423,6432,-19356,4208,20826.25,29.47,-1.00,-1.0,2440
2426,2137426,31700,-3440,-5900,32427.36,29.47,-1.00,-1.0,2370
2428,2137428,10540,-4620,-1876,11659.99,29.57,-1.00,-1.0,2440
2431,2137431,21548,-3320,10228,24082.17,29.66,-1.00,-1.0,2372
2434,2137434,18796,14364,400,23659.54,29.57,-1.00,-1.0,2438
2437,2137437,19652,-15256,-3384,25107.73,29.66,-1.00,-1.0,2376
2442,2137442,2848,-8084,-1692,8736.42,29.57,-1.00,-1.0,2454
2444,2137444,26220,-1360,-5924,26915.27,29.47,-1.00,-1.0,2375
2447,2137447,18868,1912,388,18968.60,29.52,-1.00,-1.0,2444
2450,2137450,18284,-12652,4408,22667.34,29.57,-1.00,-1.0,2372
2453,2137453,18416,12592,2048,22403.17,29.61,-1.00,-1.0,2446
2456,2137456,14172,-13456,2960,19765.40,29.61,-1.00,-1.0,2376
2458,2137458,15232,7196,4156,17351.33,29.57,-1.00,-1.0,2446
2461,2137461,17296,112,4632,17905.85,29.57,-1.00,-1.0,2377
2466,2137466,18092,3432,940,18438.62,29.57,-1.00,-1.0,2461
2469,2137469,21200,-2688,2836,21557.09,29.57,-1.00,-1.0,2380
2472,2137472,12820,3504,-2424,13509.49,29.57,-1.00,-1.0,2441
2474,2137474,15708,-1852,1304,15870.46,29.57,-1.00,-1.0,2358
2477,2137477,14816,1340,1008,14910.58,29.47,-1.00,-1.0,2369
2480,2137480,13916,-1004,-984,13986.83,29.61,-1.00,-1.0,2447
2482,2137482,19392,-828,772,19425.02,29.61,-1.00,-1.0,2370
2485,2137485,18924,1436,1808,19064.33,29.47,-1.00,-1.0,2452
2488,2137488,19436,-860,2456,19609.43,29.61,-1.00,-1.0,2378
2494,2137494,17104,-4352,1364,17701.62,29.47,-1.00,-1.0,2451
2496,2137496,17332,3468,1648,17752.21,29.57,-1.00,-1.0,2384
2499,2137499,18152,-3948,816,18594.29,29.52,-1.00,-1.0,2440
2502,2137502,17212,1816,1156,17346.10,29.57,-1.00,-1.0,2370
2505,2137505,18204,-1356,344,18257.67,29.52,-1.00,-1.0,2447
2507,2137507,15408,-336,1356,15471.20,29.52,-1.00,-1.0,2371
2510,2137510,16484,616,1984,16614.39,29.52,-1.00,-1.0,2436
2513,2137513,17168,-824,1672,17268.90,29.52,-1.00,-1.0,2368
2518,2137518,16384,-1432,-80,16446.66,29.61,-1.00,-1.0,2446
2520,2137520,16140,-248,888,16166.31,29.66,-1.00,-1.0,2376
2523,2137523,17744,1004,1928,17876.65,29.52,-1.00,-1.0,2370
2526,2137526,17252,-324,808,17273.95,29.57,-1.00,-1.0,2448
2529,2137529,16636,592,32,16646.56,29.47,-1.00,-1.0,2373
2531,2137531,16956,-892,1396,17036.74,29.47,-1.00,-1.0,2447
2534,2137534,16612,-928,1964,16753.42,29.47,-1.00,-1.0,2386
2537,2137537,17332,-496,1704,17422.62,29.66,-1.00,-1.0,2441
2540,2137540,17164,-1332,1276,17262.83,29.52,-1.00,-1.0,2442
2545,2137545,17416,-848,1732,17522.44,29.57,-1.00,-1.0,2452
2548,2137548,16268,-404,972,16302.02,29.47,-1.00,-1.0,2386
2550,2137550,16972,408,1856,17078.05,29.52,-1.00,-1.0,2437
2553,2137553,16696,-580,1392,16763.96,29.61,-1.00,-1.0,2369
2556,2137556,16548,516,40,16556.09,29.61,-1.00,-1.0,2440
2559,2137559,16840,24,1808,16936.79,29.61,-1.00,-1.0,2373
2561,2137561,17212,-952,1104,17273.62,29.57,-1.00,-1.0,2374
2564,2137564,17492,548,1180,17540.32,29.57,-1.00,-1.0,2449
2567,2137567,16872,-1068,916,16930.57,29.57,-1.00,-1.0,2377
2572,2137572,17088,-88,1584,17161.48,29.57,-1.00,-1.0,2451
2575,2137575,17312,-760,1164,17367.72,29.57,-1.00,-1.0,2379
2577,2137577,17572,220,2224,17713.55,29.52,-1.00,-1.0,2441
2580,2137580,17176,-1348,1268,17275.41,29.52,-1.00,-1.0,2374
2583,2137583,16888,540,1364,16951.60,29.61,-1.00,-1.0,2440
2586,2137586,16820,-948,928,16872.23,29.52,-1.00,-1.0,2369
2588,2137588,17028,68,1144,17066.52,29.52,-1.00,-1.0,2438
2591,2137591,17000,-304,1024,17033.53,29.52,-1.00,-1.0,2371
2596,2137596,17040,216,1176,17081.90,29.52,-1.00,-1.0,2445
2599,2137599,17124,-572,972,17161.10,29.52,-1.00,-1.0,2380
2602,2137602,16860,436,780,16883.66,29.47,-1.00,-1.0,2444
2604,2137604,17292,-160,868,17314.51,29.57,-1.00,-1.0,2371
2607,2137607,17024,-168,1176,17065.40,29.57,-1.00,-1.0,2378
2610,2137610,17020,-264,788,17040.28,29.61,-1.00,-1.0,2442
2613,2137613,17108,-316,948,17137.16,29.61,-1.00,-1.0,2376
2615,2137615,17016,-212,976,17045.29,29.52,-1.00,-1.0,2438
2618,2137618,16916,-704,1008,16960.62,29.52,-1.00,-1.0,2369
2623,2137623,17088,-280,1112,17126.43,29.52,-1.00,-1.0,2451
2626,2137626,17124,-304,1780,17218.95,29.47,-1.00,-1.0,2378
2629,2137629,17156,-188,1724,17243.43,29.57,-1.00,-1.0,2438
2631,2137631,16988,-116,1452,17050.33,29.52,-1.00,-1.0,2372
2634,2137634,17020,-224,1916,17128.97,29.66,-1.00,-1.0,2439
2637,2137637,17008,96,1284,17056.67,29.66,-1.00,-1.0,2370
2640,2137640,17008,48,1596,17082.79,29.57,-1.00,-1.0,2427
2642,2137642,16868,-104,1212,16911.81,29.57,-1.00,-1.0,2371
2645,2137645,16932,-32,1664,17013.60,29.61,-1.00,-1.0,2377
2650,2137650,16916,-496,1484,16988.21,29.47,-1.00,-1.0,2444
2653,2137653,17048,-524,1496,17121.53,29.57,-1.00,-1.0,2387
2656,2137656,16868,-664,1320,16932.59,29.42,-1.00,-1.0,2445
2658,2137658,17064,-460,1132,17107.69,29.52,-1.00,-1.0,2376
2661,2137661,17060,-1048,888,17115.21,29.57,-1.00,-1.0,2441
2664,2137664,17160,-272,1320,17212.84,29.52,-1.00,-1.0,2372
2667,2137667,17192,-812,1148,17249.41,29.57,-1.00,-1.0,2443
2669,2137669,17228,-368,1248,17277.06,29.57,-1.00,-1.0,2371
2674,2137674,16904,-612,972,16942.98,29.57,-1.00,-1.0,2444
2677,2137677,16980,-24,988,17008.74,29.47,-1.00,-1.0,2379
2680,2137680,16980,-428,1128,17022.81,29.66,-1.00,-1.0,2440
2683,2137683,17072,112,1056,17105.00,29.57,-1.00,-1.0,2372
2686,2137686,17152,-368,920,17180.60,29.61,-1.00,-1.0,2438
2688,2137688,17012,-112,1196,17054.36,29.57,-1.00,-1.0,2372
2691,2137691,17044,-444,1112,17086.01,29.61,-1.00,-1.0,2374
2694,2137694,17016,-76,1272,17063.65,29.66,-1.00,-1.0,2446
2696,2137696,17068,-428,1188,17114.65,29.61,-1.00,-1.0,2374
2701,2137701,16980,-360,1408,17042.08,29.57,-1.00,-1.0,2444
2704,2137704,17044,-284,1144,17084.71,29.57,-1.00,-1.0,2380
2707,2137707,16988,-176,1320,17040.12,29.57,-1.00,-1.0,2445
2709,2137709,16872,-380,1332,16928.76,29.57,-1.00,-1.0,2369
2712,2137712,16744,-320,1540,16817.71,29.61,-1.00,-1.0,2454
2715,2137715,16956,-64,1420,17015.48,29.52,-1.00,-1.0,2379
2718,2137718,16976,-272,1328,17030.04,29.47,-1.00,-1.0,2440
2721,2137721,17204,-12,1452,17265.17,29.52,-1.00,-1.0,2377
2725,2137725,17088,-232,1372,17144.56,29.47,-1.00,-1.0,2444
2728,2137728,17008,-124,1260,17055.06,29.47,-1.00,-1.0,2377
2731,2137731,17132,-456,1136,17175.68,29.52,-1.00,-1.0,2438
2734,2137734,17060,-240,1200,17103.84,29.57,-1.00,-1.0,2380
2736,2137736,17148,-336,1320,17202.01,29.61,-1.00,-1.0,2379
2739,2137739,16916,-276,1284,16966.91,29.66,-1.00,-1.0,2439
2742,2137742,16988,-396,1104,17028.44,29.57,-1.00,-1.0,2370
2745,2137745,16980,-260,1088,17016.81,29.47,-1.00,-1.0,2437
2747,2137747,17052,-176,1144,17091.24,29.47,-1.00,-1.0,2372
2752,2137752,16964,-276,1464,17029.29,29.57,-1.00,-1.0,2448
2755,2137755,16940,-344,1288,16992.38,29.57,-1.00,-1.0,2382
2758,2137758,16956,-404,1488,17025.96,29.61,-1.00,-1.0,2441
2761,2137761,17008,-248,1236,17054.65,29.57,-1.00,-1.0,2370
2763,2137763,17120,-468,1144,17164.56,29.52,-1.00,-1.0,2439
2766,2137766,16948,-396,1060,16985.73,29.61,-1.00,-1.0,2375
2769,2137769,16960,-432,1096,17000.87,29.52,-1.00,-1.0,2438
2772,2137772,17044,-268,1088,17080.79,29.52,-1.00,-1.0,2378
2777,2137777,17060,-212,912,17085.68,29.47,-1.00,-1.0,2451
2779,2137779,17060,-136,1300,17110.00,29.61,-1.00,-1.0,2378
2782,2137782,17092,-244,1320,17144.63,29.52,-1.00,-1.0,2377
2785,2137785,17008,-156,1356,17062.68,29.47,-1.00,-1.0,2440
2788,2137788,16996,-4,1372,17051.29,29.57,-1.00,-1.0,2373
2790,2137790,16956,-16,1364,17010.78,29.47,-1.00,-1.0,2439
2793,2137793,16948,-184,1240,16994.30,29.57,-1.00,-1.0,2369
2796,2137796,17000,-156,1220,17044.43,29.52,-1.00,-1.0,2438
2799,2137799,16992,-56,1240,17037.28,29.47,-1.00,-1.0,2371
2804,2137804,17020,-168,940,17046.77,29.57,-1.00,-1.0,2447
2806,2137806,17112,-164,928,17137.93,29.57,-1.00,-1.0,2388
2809,2137809,17144,-412,1176,17189.22,29.52,-1.00,-1.0,2437
2812,2137812,17100,-464,1296,17155.32,29.52,-1.00,-1.0,2367
2815,2137815,16980,-292,1332,17034.67,29.52,-1.00,-1.0,2446
2817,2137817,17080,-264,1480,17146.04,29.52,-1.00,-1.0,2369
2820,2137820,17068,-236,1408,17127.60,29.52,-1.00,-1.0,2438
2823,2137823,17108,-240,1416,17168.18,29.52,-1.00,-1.0,2367
2826,2137826,17044,-276,1524,17114.22,29.47,-1.00,-1.0,2372
2831,2137831,17060,-448,1568,17137.76,29.52,-1.00,-1.0,2443
2833,2137833,17016,-520,1488,17088.85,29.52,-1.00,-1.0,2379
2836,2137836,17004,-572,1332,17065.68,29.57,-1.00,-1.0,2448
2839,2137839,17008,-552,1432,17077.10,29.57,-1.00,-1.0,2372
2842,2137842,17120,-604,1496,17195.85,29.57,-1.00,-1.0,2446
2844,2137844,17072,-544,1404,17138.27,29.57,-1.00,-1.0,2377
2847,2137847,17048,-428,1448,17114.74,29.61,-1.00,-1.0,2440
2850,2137850,17084,-232,1444,17146.49,29.61,-1.00,-1.0,2371
2857,2137857,17080,-448,1384,17141.84,29.57,-1.00,-1.0,2444
2859,2137859,17044,-336,1364,17101.79,29.57,-1.00,-1.0,2386
2862,2137862,17056,-284,1112,17094.57,29.52,-1.00,-1.0,2444
2865,2137865,17024,-272,1088,17060.90,29.57,-1.00,-1.0,2367
2868,2137868,17080,-396,1076,17118.44,29.61,-1.00,-1.0,2443
2870,2137870,16976,-388,1172,17020.83,29.61,-1.00,-1.0,2375
2873,2137873,17052,-372,1104,17091.75,29.52,-1.00,-1.0,2437
2876,2137876,17132,-484,928,17163.94,29.52,-1.00,-1.0,2366
2878,2137878,17084,-328,960,17114.10,29.47,-1.00,-1.0,2373
2883,2137883,17028,-228,1088,17064.25,29.52,-1.00,-1.0,2442
2886,2137886,17148,-148,1064,17181.62,29.61,-1.00,-1.0,2378
2889,2137889,17008,-96,996,17037.41,29.47,-1.00,-1.0,2439
2892,2137892,17044,-24,908,17068.19,29.57,-1.00,-1.0,2372
2895,2137895,16940,-16,920,16964.97,29.47,-1.00,-1.0,2439
2897,2137897,17036,-40,964,17063.30,29.57,-1.00,-1.0,2372
2900,2137900,16980,-76,1048,17012.48,29.52,-1.00,-1.0,2447
2903,2137903,17108,-28,1192,17149.50,29.57,-1.00,-1.0,2372
2908,2137908,16936,-228,1124,16974.79,29.66,-1.00,-1.0,2448
2910,2137910,16956,-276,1244,17003.81,29.52,-1.00,-1.0,2387
2913,2137913,17124,-264,1236,17170.58,29.47,-1.00,-1.0,2438
2916,2137916,16976,-248,1388,17034.45,29.52,-1.00,-1.0,2365
2918,2137918,17032,-228,1400,17090.96,29.57,-1.00,-1.0,2370
2921,2137921,17112,-304,1444,17175.51,29.52,-1.00,-1.0,2456
2924,2137924,17088,-288,1556,17161.11,29.57,-1.00,-1.0,2377
2927,2137927,17032,-268,1388,17090.56,29.52,-1.00,-1.0,2440
2930,2137930,17100,-224,1392,17158.03,29.57,-1.00,-1.0,2375
2934,2137934,17048,-212,1476,17113.09,29.57,-1.00,-1.0,2443
2937,2137937,16988,-328,1548,17061.54,29.57,-1.00,-1.0,2376
2940,2137940,17040,-488,1488,17111.80,29.57,-1.00,-1.0,2444
2942,2137942,16956,-476,1592,17037.22,29.57,-1.00,-1.0,2369
2945,2137945,17132,-364,1540,17204.93,29.61,-1.00,-1.0,2454
2948,2137948,17056,-388,1468,17123.46,29.61,-1.00,-1.0,2376
2951,2137951,17060,-404,1316,17115.45,29.52,-1.00,-1.0,2440
2954,2137954,17080,-388,1172,17124.56,29.57,-1.00,-1.0,2379
2959,2137959,17036,-268,1252,17084.04,29.57,-1.00,-1.0,2449
2961,2137961,17132,-248,1280,17181.54,29.52,-1.00,-1.0,2391
2964,2137964,17072,-196,1292,17121.94,29.57,-1.00,-1.0,2370
2967,2137967,16948,-264,1136,16988.08,29.57,-1.00,-1.0,2445
2969,2137969,17020,-336,1240,17068.42,29.57,-1.00,-1.0,2370
2972,2137972,17076,-308,1256,17124.90,29.47,-1.00,-1.0,2440
2975,2137975,17056,-404,1236,17105.50,29.47,-1.00,-1.0,2371
2978,2137978,17012,-384,1252,17062.33,29.52,-1.00,-1.0,2443
2980,2137980,17076,-268,1308,17128.12,29.57,-1.00,-1.0,2368
2985,2137985,17000,-164,996,17029.94,29.57,-1.00,-1.0,2443
2988,2137988,17096,-196,1028,17128.00,29.57,-1.00,-1.0,2380
2991,2137991,17008,-256,1084,17044.43,29.52,-1.00,-1.0,2453
2994,2137994,16984,-260,1232,17030.61,29.61,-1.00,-1.0,2377
2997,2137997,17036,-256,1096,17073.14,29.61,-1.00,-1.0,2447
2999,2137999,16992,-272,1332,17046.30,29.42,-1.00,-1.0,2378
3002,2138002,17100,-368,1352,17157.31,29.57,-1.00,-1.0,2440
3005,2138005,17012,-244,1220,17057.44,29.47,-1.00,-1.0,2371
3010,2138010,16964,-120,1112,17000.83,29.52,-1.00,-1.0,2445
3013,2138013,16920,-92,1180,16961.35,29.52,-1.00,-1.0,2383
3015,2138015,16976,-216,1080,17011.69,29.57,-1.00,-1.0,2371
3018,2138018,17052,-148,1176,17093.14,29.52,-1.00,-1.0,2436
3021,2138021,17004,-140,1124,17041.68,29.57,-1.00,-1.0,2374
3024,2138024,17064,-200,1308,17115.23,29.52,-1.00,-1.0,2440
3026,2138026,17072,-420,1276,17124.77,29.61,-1.00,-1.0,2374
3029,2138029,17060,-476,1312,17116.99,29.61,-1.00,-1.0,2452
3032,2138032,17188,-516,1368,17250.07,29.52,-1.00,-1.0,2373
3037,2138037,17092,-496,1484,17163.47,29.61,-1.00,-1.0,2450
3040,2138040,16924,-300,1288,16975.59,29.66,-1.00,-1.0,2375
3042,2138042,16948,-320,1424,17010.73,29.57,-1.00,-1.0,2449
3045,2138045,16912,-248,1356,16968.09,29.52,-1.00,-1.0,2384
3048,2138048,17036,-276,1576,17110.97,29.47,-1.00,-1.0,2442
3051,2138051,16916,-300,1412,16977.48,29.47,-1.00,-1.0,2368
3053,2138053,17064,-376,1468,17131.16,29.57,-1.00,-1.0,2439
3056,2138056,17020,-372,1308,17074.24,29.38,-1.00,-1.0,2371
3059,2138059,17076,-420,1636,17159.33,29.52,-1.00,-1.0,2376
3064,2138064,17068,-396,1404,17130.23,29.52,-1.00,-1.0,2452
3066,2138066,16928,-420,1424,16992.98,29.57,-1.00,-1.0,2378
3069,2138069,16976,-340,1452,17041.38,29.61,-1.00,-1.0,2438
3072,2138072,17088,-304,1244,17135.92,29.47,-1.00,-1.0,2443
3075,2138075,17072,-252,1236,17118.54,29.52,-1.00,-1.0,2428
3078,2138078,17012,-308,1068,17048.27,29.42,-1.00,-1.0,2393
3081,2138081,17004,-268,928,17031.41,29.61,-1.00,-1.0,2421
3083,2138083,17000,-376,1120,17041.00,29.52,-1.00,-1.0,2388
3088,2138088,17020,-256,1292,17070.89,29.42,-1.00,-1.0,2446
3091,2138091,17084,-204,1176,17125.64,29.61,-1.00,-1.0,2376
3094,2138094,17036,-220,1180,17078.23,29.57,-1.00,-1.0,2442
3097,2138097,17044,-152,1184,17085.75,29.57,-1.00,-1.0,2373
3099,2138099,17036,-284,1188,17079.73,29.47,-1.00,-1.0,2448
3102,2138102,17060,-128,1128,17097.73,29.47,-1.00,-1.0,2377
3105,2138105,16928,-272,1040,16962.10,29.57,-1.00,-1.0,2373
3107,2138107,17028,-284,1200,17072.59,29.61,-1.00,-1.0,2439
3110,2138110,16972,-276,1036,17005.83,29.52,-1.00,-1.0,2369
3115,2138115,17060,-240,1176,17102.17,29.47,-1.00,-1.0,2442
3118,2138118,17036,-344,1220,17083.09,29.61,-1.00,-1.0,2384
3121,2138121,16936,-228,1268,16984.93,29.57,-1.00,-1.0,2451
3123,2138123,17060,-232,1368,17116.33,29.57,-1.00,-1.0,2380
3126,2138126,17008,-220,1396,17066.61,29.61,-1.00,-1.0,2440
3129,2138129,17044,-168,1376,17100.28,29.57,-1.00,-1.0,2369
3132,2138132,17088,-168,1428,17148.39,29.61,-1.00,-1.0,2437
3134,2138134,17004,-268,1224,17050.10,29.47,-1.00,-1.0,2370
3139,2138139,17060,-324,1200,17105.22,29.47,-1.00,-1.0,2445
3142,2138142,17112,-332,1284,17163.32,29.52,-1.00,-1.0,2378
3145,2138145,17072,-440,1412,17135.94,29.57,-1.00,-1.0,2439
3148,2138148,16996,-480,1340,17055.50,29.57,-1.00,-1.0,2372
3150,2138150,17144,-444,1236,17194.23,29.47,-1.00,-1.0,2446
3153,2138153,17024,-416,1364,17083.62,29.57,-1.00,-1.0,2379
3156,2138156,17020,-360,1316,17074.60,29.52,-1.00,-1.0,2370
3158,2138158,17092,-268,1192,17135.61,29.57,-1.00,-1.0,2437
3161,2138161,17000,-236,1224,17045.64,29.52,-1.00,-1.0,2371
3166,2138166,17056,-312,1304,17108.62,29.61,-1.00,-1.0,2430
3169,2138169,16944,-340,1368,17002.53,29.52,-1.00,-1.0,2364
3172,2138172,16984,-240,1148,17024.45,29.52,-1.00,-1.0,2443
3174,2138174,17104,-280,1120,17142.92,29.61,-1.00,-1.0,2371
3177,2138177,17060,-388,1252,17110.28,29.57,-1.00,-1.0,2439
3180,2138180,17100,-260,1216,17145.15,29.52,-1.00,-1.0,2370
3183,2138183,17016,-312,1212,17061.96,29.57,-1.00,-1.0,2448
3185,2138185,17096,-376,1272,17147.38,29.47,-1.00,-1.0,2371
3190,2138190,17028,-236,1232,17074.14,29.52,-1.00,-1.0,2444
3193,2138193,16996,-304,1176,17039.35,29.61,-1.00,-1.0,2368
3196,2138196,16980,-308,1204,17025.42,29.57,-1.00,-1.0,2437
3199,2138199,16976,-284,1260,17025.06,29.57,-1.00,-1.0,2376
3201,2138201,17072,-292,1152,17113.31,29.47,-1.00,-1.0,2381
3204,2138204,17080,-212,1436,17141.57,29.52,-1.00,-1.0,2440
3207,2138207,16940,-192,1288,16989.98,29.52,-1.00,-1.0,2373
3210,2138210,17084,-248,1184,17126.78,29.52,-1.00,-1.0,2437
3212,2138212,17064,-260,1116,17102.43,29.61,-1.00,-1.0,2371
3217,2138217,17020,-248,1240,17066.91,29.57,-1.00,-1.0,2453
3220,2138220,17032,-300,1156,17073.82,29.52,-1.00,-1.0,2378
3223,2138223,16972,-352,1328,17027.52,29.52,-1.00,-1.0,2439
3226,2138226,17104,-424,1292,17157.97,29.42,-1.00,-1.0,2368
3228,2138228,17116,-344,1332,17171.20,29.57,-1.00,-1.0,2438
3231,2138231,16968,-272,1320,17021.44,29.52,-1.00,-1.0,2370
3234,2138234,17084,-452,1316,17140.57,29.57,-1.00,-1.0,2439
3237,2138237,17044,-296,1452,17108.30,29.47,-1.00,-1.0,2369
3242,2138242,16988,-276,1244,17035.72,29.52,-1.00,-1.0,2443
3244,2138244,16988,-368,1280,17040.13,29.61,-1.00,-1.0,2380
3247,2138247,17060,-376,1276,17111.78,29.57,-1.00,-1.0,2439
3250,2138250,16948,-272,1436,17010.90,29.57,-1.00,-1.0,2367
3253,2138253,17004,-244,1324,17057.21,29.57,-1.00,-1.0,2372
3255,2138255,16936,-436,1264,16988.70,29.52,-1.00,-1.0,2449
3258,2138258,17076,-360,1260,17126.21,29.52,-1.00,-1.0,2377
3261,2138261,16972,-392,1540,17046.23,29.61,-1.00,-1.0,2438
3264,2138264,17064,-392,1404,17126.15,29.52,-1.00,-1.0,2367
3269,2138269,17004,-248,1268,17053.02,29.52,-1.00,-1.0,2450
3271,2138271,17020,-256,1320,17073.03,29.52,-1.00,-1.0,2386
3274,2138274,17000,-380,1348,17057.59,29.57,-1.00,-1.0,2440
3277,2138277,16992,-264,1208,17036.93,29.61,-1.00,-1.0,2372
3280,2138280,17060,-288,1140,17100.47,29.57,-1.00,-1.0,2438
3282,2138282,16888,-340,1248,16937.46,29.47,-1.00,-1.0,2367
3285,2138285,17008,-272,1240,17055.31,29.47,-1.00,-1.0,2438
3288,2138288,16992,-200,1168,17033.27,29.57,-1.00,-1.0,2369
3293,2138293,17068,-276,1128,17107.46,29.66,-1.00,-1.0,2445
3296,2138296,17072,-260,1144,17112.26,29.57,-1.00,-1.0,2378
3298,2138298,17060,-288,1072,17096.07,29.47,-1.00,-1.0,2370
3301,2138301,16992,-212,1128,17030.72,29.52,-1.00,-1.0,2454
3304,2138304,17028,-236,1068,17063.09,29.61,-1.00,-1.0,2374
3307,2138307,17056,-204,1112,17093.43,29.52,-1.00,-1.0,2448
3309,2138309,16920,-292,1176,16963.33,29.61,-1.00,-1.0,2381
3312,2138312,17032,-200,1172,17073.45,29.47,-1.00,-1.0,2438
3315,2138315,17060,-236,1264,17108.39,29.52,-1.00,-1.0,2369
3320,2138320,17076,-344,1144,17117.73,29.57,-1.00,-1.0,2459
3323,2138323,16984,-300,1304,17036.63,29.47,-1.00,-1.0,2378
3326,2138326,17120,-308,1404,17180.23,29.52,-1.00,-1.0,2448
3329,2138329,17080,-324,1292,17131.86,29.52,-1.00,-1.0,2372
3332,2138332,17032,-292,1376,17089.99,29.47,-1.00,-1.0,2449
3334,2138334,17040,-340,1340,17095.99,29.42,-1.00,-1.0,2378
3337,2138337,17052,-292,1200,17096.67,29.57,-1.00,-1.0,2440
3340,2138340,16972,-320,1232,17019.67,29.47,-1.00,-1.0,2369
3345,2138345,16984,-336,1300,17036.99,29.52,-1.00,-1.0,2450
3347,2138347,17012,-304,1500,17080.71,29.52,-1.00,-1.0,2387
3350,2138350,17044,-268,1376,17101.55,29.66,-1.00,-1.0,2372
3353,2138353,17068,-372,1440,17132.68,29.42,-1.00,-1.0,2439
3355,2138355,17000,-368,1464,17066.89,29.57,-1.00,-1.0,2355
3358,2138358,17004,-336,1416,17066.16,29.52,-1.00,-1.0,2442
3361,2138361,16984,-340,1280,17035.56,29.52,-1.00,-1.0,2369
3364,2138364,17100,-380,1340,17156.63,29.52,-1.00,-1.0,2442
3366,2138366,17052,-308,1268,17101.85,29.52,-1.00,-1.0,2368
3371,2138371,17080,-284,1260,17128.77,29.52,-1.00,-1.0,2433
3374,2138374,16940,-404,1268,16992.19,29.57,-1.00,-1.0,2378
3377,2138377,17016,-304,1308,17068.91,29.61,-1.00,-1.0,2438
3380,2138380,17044,-304,1408,17104.76,29.61,-1.00,-1.0,2376
3383,2138383,16964,-280,1220,17010.12,29.47,-1.00,-1.0,2443
3385,2138385,17100,-300,1340,17155.05,29.52,-1.00,-1.0,2378
3388,2138388,16968,-196,1320,17020.39,29.47,-1.00,-1.0,2450
3391,2138391,17028,-256,1228,17074.14,29.47,-1.00,-1.0,2373
3393,2138393,17100,-372,1344,17156.77,29.57,-1.00,-1.0,2369
3398,2138398,17108,-100,1204,17150.61,29.47,-1.00,-1.0,2435
3401,2138401,16964,-192,1244,17010.63,29.57,-1.00,-1.0,2377
3404,2138404,17076,-396,1216,17123.82,29.61,-1.00,-1.0,2438
3407,2138407,17020,-156,1188,17062.12,29.57,-1.00,-1.0,2366
3410,2138410,16960,-356,1188,17005.28,29.57,-1.00,-1.0,2481
3412,2138412,16964,-272,1276,17014.10,29.57,-1.00,-1.0,2385
3415,2138415,17020,-280,1248,17067.99,29.57,-1.00,-1.0,2425
3418,2138418,17092,-288,1244,17139.63,29.47,-1.00,-1.0,2367
3423,2138423,17120,-252,1224,17165.55,29.47,-1.00,-1.0,2447
3426,2138426,16996,-300,1224,17042.66,29.47,-1.00,-1.0,2375
3428,2138428,17028,-280,1320,17081.38,29.52,-1.00,-1.0,2439
3431,2138431,16992,-252,1356,17047.88,29.47,-1.00,-1.0,2371
3434,2138434,17104,-332,1348,17160.25,29.42,-1.00,-1.0,2439
3437,2138437,17020,-292,1260,17069.07,29.61,-1.00,-1.0,2367
3439,2138439,17040,-372,1136,17081.88,29.52,-1.00,-1.0,2438
3442,2138442,17060,-396,1264,17111.34,29.57,-1.00,-1.0,2446
3445,2138445,17060,-388,1048,17096.56,29.52,-1.00,-1.0,2370
3450,2138450,16984,-316,1240,17032.14,29.57,-1.00,-1.0,2445
3453,2138453,16948,-332,1228,16995.67,29.52,-1.00,-1.0,2385
3456,2138456,17068,-488,1480,17139.00,29.47,-1.00,-1.0,2449
3458,2138458,17060,-468,1368,17121.16,29.57,-1.00,-1.0,2379
3461,2138461,17036,-276,1324,17089.60,29.57,-1.00,-1.0,2440
3464,2138464,17104,-316,1408,17164.76,29.57,-1.00,-1.0,2371
3467,2138467,17036,-272,1368,17093.00,29.52,-1.00,-1.0,2437
3469,2138469,17068,-308,1212,17113.75,29.61,-1.00,-1.0,2375
3474,2138474,17004,-380,1312,17058.77,29.52,-1.00,-1.0,2430
3477,2138477,16984,-256,1352,17039.65,29.57,-1.00,-1.0,2378
3480,2138480,17016,-284,1320,17069.48,29.52,-1.00,-1.0,2438
3483,2138483,16936,-356,1232,16984.48,29.52,-1.00,-1.0,2369
3485,2138485,17032,-256,1168,17073.92,29.61,-1.00,-1.0,2439
3488,2138488,16980,-244,1124,17018.91,29.52,-1.00,-1.0,2370
3491,2138491,17076,-204,1216,17120.46,29.57,-1.00,-1.0,2381
3494,2138494,17064,-164,1104,17100.46,29.52,-1.00,-1.0,2450
3496,2138496,16964,-268,1172,17006.55,29.57,-1.00,-1.0,2380
3501,2138501,16924,-212,1200,16967.81,29.66,-1.00,-1.0,2455
3504,2138504,17096,-196,1148,17135.62,29.57,-1.00,-1.0,2393
3507,2138507,17052,-256,1060,17086.83,29.52,-1.00,-1.0,2437
3510,2138510,17092,-392,1264,17143.16,29.52,-1.00,-1.0,2367
3512,2138512,17092,-196,1316,17143.71,29.52,-1.00,-1.0,2440
3515,2138515,17036,-244,1332,17089.74,29.52,-1.00,-1.0,2371
3518,2138518,17016,-184,1204,17059.54,29.57,-1.00,-1.0,2439
3521,2138521,16964,-200,1228,17009.56,29.52,-1.00,-1.0,2366
3525,2138525,17036,-224,1140,17075.57,29.57,-1.00,-1.0,2444
3528,2138528,17072,-236,1216,17116.88,29.47,-1.00,-1.0,2381
3531,2138531,17008,-320,1196,17053.00,29.57,-1.00,-1.0,2449
3534,2138534,16984,-300,1296,17036.02,29.57,-1.00,-1.0,2376
3537,2138537,17088,-304,1240,17135.63,29.52,-1.00,-1.0,2450
3539,2138539,16984,-344,1248,17033.26,29.61,-1.00,-1.0,2378
3542,2138542,17036,-396,1332,17092.58,29.47,-1.00,-1.0,2371
3545,2138545,17020,-348,1308,17073.73,29.57,-1.00,-1.0,2440
3547,2138547,17048,-400,1344,17105.57,29.57,-1.00,-1.0,2356
3552,2138552,17024,-372,1364,17082.61,29.61,-1.00,-1.0,2449
3555,2138555,16940,-344,1372,16998.95,29.61,-1.00,-1.0,2377
3558,2138558,17056,-356,1288,17108.27,29.57,-1.00,-1.0,2437
3560,2138560,17064,-280,1416,17124.94,29.61,-1.00,-1.0,2369
3563,2138563,17036,-392,1208,17083.27,29.57,-1.00,-1.0,2439
3566,2138566,16968,-380,1280,17020.45,29.57,-1.00,-1.0,2369
3569,2138569,17016,-180,1208,17059.78,29.57,-1.00,-1.0,2445
3571,2138571,17112,-328,1388,17171.33,29.57,-1.00,-1.0,2356
3577,2138577,17016,-276,1284,17066.61,29.52,-1.00,-1.0,2446
3579,2138579,16948,-208,1172,16989.75,29.52,-1.00,-1.0,2382
3582,2138582,17036,-200,1060,17070.12,29.57,-1.00,-1.0,2439
3585,2138585,17108,-220,1260,17155.75,29.47,-1.00,-1.0,2367
3587,2138587,16948,-176,1228,16993.34,29.57,-1.00,-1.0,2373
3590,2138590,16960,-272,1180,17003.18,29.61,-1.00,-1.0,2455
3593,2138593,17040,-292,1260,17089.02,29.57,-1.00,-1.0,2377
3596,2138596,16992,-276,1224,17038.26,29.61,-1.00,-1.0,2440
3599,2138599,25412,-5064,6804,26790.08,29.52,-1.00,-1.0,2370
3604,2138604,27964,3800,27964,39729.21,29.61,-1.00,-1.0,2444
3606,2138606,20412,-15608,-9316,27332.17,29.52,-1.00,-1.0,2382
3609,2138609,10084,12004,13824,20901.82,29.52,-1.00,-1.0,2449
3612,2138612,17464,-856,-6952,18816.33,29.61,-1.00,-1.0,2372
3615,2138615,31008,18740,10620,37755.37,29.47,-1.00,-1.0,2437
3617,2138617,7940,-11256,5856,14967.76,29.61,-1.00,-1.0,2357
3620,2138620,31636,1016,-2268,31733.46,29.57,-1.00,-1.0,2426
3623,2138623,7152,-9852,-7812,14465.14,29.47,-1.00,-1.0,2373
3628,2138628,20392,12904,-2204,24232.30,29.57,-1.00,-1.0,2450
3631,2138631,10312,-5524,5724,13023.67,29.52,-1.00,-1.0,2382
3633,2138633,20500,1228,3992,20921.14,29.57,-1.00,-1.0,2437
3636,2138636,2696,-10116,-2172,10692.03,29.57,-1.00,-1.0,2369
3639,2138639,25432,1620,-7072,26446.63,29.47,-1.00,-1.0,2440
3642,2138642,9692,5036,6868,12902.15,29.47,-1.00,-1.0,2372
3645,2138645,16260,-10616,6772,20565.68,29.61,-1.00,-1.0,2438
3647,2138647,20048,14224,3184,24786.74,29.42,-1.00,-1.0,2369
3650,2138650,16484,-12800,2796,21056.59,29.52,-1.00,-1.0,2357
3655,2138655,17864,1128,-3756,18289.41,29.42,-1.00,-1.0,2450
3658,2138658,16580,-7536,2744,18417.85,29.52,-1.00,-1.0,2376
3660,2138660,18380,3448,3844,19091.61,29.57,-1.00,-1.0,2447
3663,2138663,16448,-5680,-1516,17467.04,29.57,-1.00,-1.0,2387
3666,2138666,13784,3792,-2700,14548.81,29.57,-1.00,-1.0,2443
3669,2138669,16464,-1680,992,16579.20,29.57,-1.00,-1.0,2373
3671,2138671,16388,-1016,-1332,16473.40,29.57,-1.00,-1.0,2439
3674,2138674,16828,1472,1324,16944.06,29.57,-1.00,-1.0,2371
3679,2138679,16580,3168,1828,16978.64,29.57,-1.00,-1.0,2453
3682,2138682,16952,-3676,1976,17458.17,29.38,-1.00,-1.0,2382
3685,2138685,15904,4544,824,16560.92,29.42,-1.00,-1.0,2441
3687,2138687,17484,-2860,2388,17876.59,29.66,-1.00,-1.0,2370
3690,2138690,17612,2376,1744,17856.92,29.52,-1.00,-1.0,2439
3693,2138693,16396,-3724,-1636,16893.00,29.57,-1.00,-1.0,2372
3696,2138696,19032,1972,2588,19308.12,29.52,-1.00,-1.0,2444
3698,2138698,13560,96,804,13584.15,29.52,-1.00,-1.0,2369
3703,2138703,18792,-368,2128,18915.68,29.52,-1.00,-1.0,2443
3706,2138706,18376,-1156,2128,18534.89,29.52,-1.00,-1.0,2364
3709,2138709,17236,1772,2396,17491.73,29.61,-1.00,-1.0,2379
3712,2138712,15808,-772,940,15854.73,29.47,-1.00,-1.0,2448
3714,2138714,16916,1108,3304,17271.22,29.57,-1.00,-1.0,2379
3717,2138717,18504,388,696,18521.15,29.52,-1.00,-1.0,2438
3720,2138720,16664,-1368,-956,16747.37,29.57,-1.00,-1.0,2372
3723,2138723,17196,836,636,17228.05,29.52,-1.00,-1.0,2438
3725,2138725,16896,-1316,1424,17006.89,29.61,-1.00,-1.0,2373
3730,2138730,17084,-2704,1756,17385.57,29.52,-1.00,-1.0,2445
3733,2138733,16344,344,2008,16470.48,29.61,-1.00,-1.0,2380
3736,2138736,17284,-604,2524,17477.76,29.57,-1.00,-1.0,2444
3739,2138739,17092,-1176,1296,17181.36,29.57,-1.00,-1.0,2372
3741,2138741,17328,244,1280,17376.93,29.57,-1.00,-1.0,2448
3744,2138744,17344,-1432,1164,17441.90,29.47,-1.00,-1.0,2387
3747,2138747,16660,556,372,16673.43,29.57,-1.00,-1.0,2437
3750,2138750,17680,-584,2748,17901.81,29.47,-1.00,-1.0,2369
3752,2138752,17132,992,792,17178.96,29.61,-1.00,-1.0,2373
3757,2138757,17108,244,1712,17195.18,29.57,-1.00,-1.0,2447
3760,2138760,16528,172,1472,16594.31,29.52,-1.00,-1.0,2378
3762,2138762,16720,-1404,700,16793.44,29.52,-1.00,-1.0,2425
3765,2138765,16996,-368,2288,17153.26,29.52,-1.00,-1.0,2372
3768,2138768,17032,-48,1556,17103.00,29.57,-1.00,-1.0,2438
3771,2138771,17256,-296,2356,17418.61,29.52,-1.00,-1.0,2375
3774,2138774,16936,-48,1388,16992.85,29.57,-1.00,-1.0,2439
3776,2138776,17620,-1584,1504,17754.87,29.47,-1.00,-1.0,2375
3781,2138781,16992,-1564,764,17080.92,29.57,-1.00,-1.0,2446
3784,2138784,17068,656,980,17108.69,29.52,-1.00,-1.0,2379
3787,2138787,17172,-1104,996,17236.25,29.57,-1.00,-1.0,2444
3790,2138790,17160,116,1232,17204.56,29.47,-1.00,-1.0,2371
3792,2138792,17064,-172,616,17075.98,29.52,-1.00,-1.0,2449
3795,2138795,17020,-260,1380,17077.83,29.47,-1.00,-1.0,2389
3798,2138798,17188,272,928,17215.18,29.52,-1.00,-1.0,2371
3800,2138800,17108,-524,956,17142.70,29.57,-1.00,-1.0,2437
3803,2138803,17044,132,1368,17099.32,29.52,-1.00,-1.0,2370
3808,2138808,16780,-488,1116,16824.15,29.52,-1.00,-1.0,2443
3811,2138811,17124,-192,1488,17189.60,29.52,-1.00,-1.0,2379
3814,2138814,16996,-716,908,17035.29,29.57,-1.00,-1.0,2449
3816,2138816,16844,-80,720,16859.57,29.47,-1.00,-1.0,2376
3819,2138819,16912,-408,1544,16987.23,29.57,-1.00,-1.0,2453
3822,2138822,17012,-232,1676,17095.93,29.47,-1.00,-1.0,2379
3825,2138825,17132,-160,1624,17209.54,29.57,-1.00,-1.0,2442
3828,2138828,17300,-224,2088,17426.99,29.52,-1.00,-1.0,2378
3833,2138833,17080,-92,1064,17113.36,29.52,-1.00,-1.0,2448
3835,2138835,17184,164,1396,17241.39,29.52,-1.00,-1.0,2394
3838,2138838,17048,228,1456,17111.58,29.52,-1.00,-1.0,2371
3841,2138841,16944,-36,1388,17000.79,29.66,-1.00,-1.0,2445
3843,2138843,17112,148,1288,17161.04,29.57,-1.00,-1.0,2370
3846,2138846,17124,-296,1580,17199.29,29.57,-1.00,-1.0,2439
3849,2138849,16924,-568,884,16956.59,29.57,-1.00,-1.0,2371
3852,2138852,16816,-432,976,16849.84,29.57,-1.00,-1.0,2445
3854,2138854,17004,-732,860,17041.46,29.47,-1.00,-1.0,2369
3859,2138859,17172,-360,1348,17228.59,29.57,-1.00,-1.0,2444
3862,2138862,17268,-808,1116,17322.88,29.57,-1.00,-1.0,2379
3865,2138865,17228,-92,1244,17273.10,29.52,-1.00,-1.0,2452
3868,2138868,16940,-916,960,16991.89,29.57,-1.00,-1.0,2376
3871,2138871,17016,-200,1096,17052.43,29.52,-1.00,-1.0,2447
3873,2138873,17068,-312,1056,17103.48,29.42,-1.00,-1.0,2382
3876,2138876,16864,-300,1180,16907.89,29.57,-1.00,-1.0,2371
3879,2138879,17036,-48,1124,17073.11,29.57,-1.00,-1.0,2444
3881,2138881,17008,-392,1008,17042.35,29.57,-1.00,-1.0,2367
3886,2138886,17192,-708,1240,17251.20,29.47,-1.00,-1.0,2443
3889,2138889,17112,-236,1356,17167.27,29.57,-1.00,-1.0,2379
3892,2138892,17180,-784,1280,17245.45,29.47,-1.00,-1.0,2439
3895,2138895,17112,-196,1292,17161.82,29.57,-1.00,-1.0,2377
3898,2138898,17168,-592,1556,17248.53,29.52,-1.00,-1.0,2439
3900,2138900,17012,-320,1320,17066.13,29.52,-1.00,-1.0,2370
3903,2138903,16948,-444,1492,17019.34,29.52,-1.00,-1.0,2447
3906,2138906,16712,-240,1552,16785.63,29.57,-1.00,-1.0,2371
3911,2138911,16904,156,1320,16956.18,29.57,-1.00,-1.0,2451
3914,2138914,17000,108,1620,17077.36,29.52,-1.00,-1.0,2378
3916,2138916,17168,256,1388,17225.92,29.61,-1.00,-1.0,2445
3919,2138919,17196,24,1480,17259.59,29.52,-1.00,-1.0,2381
3922,2138922,17116,84,1308,17166.11,29.47,-1.00,-1.0,2369
3924,2138924,17036,-16,1300,17085.54,29.57,-1.00,-1.0,2427
3927,2138927,17148,-348,1228,17195.44,29.57,-1.00,-1.0,2372
3930,2138930,16964,-412,1140,17007.25,29.52,-1.00,-1.0,2438
3933,2138933,17040,-436,1184,17086.65,29.47,-1.00,-1.0,2375
3938,2138938,17036,-264,824,17057.96,29.52,-1.00,-1.0,2442
3940,2138940,17016,-120,1068,17049.91,29.61,-1.00,-1.0,2380
3943,2138943,16956,-308,1152,16997.88,29.57,-1.00,-1.0,2447
3946,2138946,16924,-92,1116,16961.01,29.61,-1.00,-1.0,2372
3949,2138949,17020,-184,1172,17061.30,29.47,-1.00,-1.0,2445
3951,2138951,17096,-464,1408,17160.16,29.57,-1.00,-1.0,2372
3954,2138954,17016,-284,1552,17088.99,29.47,-1.00,-1.0,2439
3957,2138957,17112,-468,1268,17165.30,29.57,-1.00,-1.0,2369
3962,2138962,17044,-732,1016,17089.94,29.52,-1.00,-1.0,2447
3964,2138964,17024,-576,1068,17067.19,29.42,-1.00,-1.0,2386
3967,2138967,17060,-508,1100,17102.97,29.57,-1.00,-1.0,2370
3970,2138970,16992,-524,964,17027.39,29.47,-1.00,-1.0,2442
3972,2138972,17092,-608,1056,17135.38,29.57,-1.00,-1.0,2369
3975,2138975,17088,-340,1108,17127.26,29.52,-1.00,-1.0,2441
3978,2138978,17056,-328,1356,17112.96,29.52,-1.00,-1.0,2369
3981,2138981,17040,-280,1632,17120.26,29.52,-1.00,-1.0,2446
3983,2138983,16980,-64,1408,17038.40,29.52,-1.00,-1.0,2368
3989,2138989,16924,-88,1320,16975.63,29.57,-1.00,-1.0,2443
3991,2138991,16932,-164,1308,16983.24,29.57,-1.00,-1.0,2379
3994,2138994,17060,-296,1056,17095.21,29.52,-1.00,-1.0,2440
3997,2138997,16932,-208,1228,16977.75,29.52,-1.00,-1.0,2368
4000,2139000,17044,-224,896,17069.01,29.52,-1.00,-1.0,2446
4002,2139002,17148,-188,1120,17185.56,29.52,-1.00,-1.0,2367
4005,2139005,17036,-272,1072,17071.86,29.57,-1.00,-1.0,2455
4008,2139008,17096,-172,1384,17152.79,29.52,-1.00,-1.0,2376
4011,2139011,16960,-204,1348,17014.71,29.57,-1.00,-1.0,2371
4016,2139016,17084,0,1468,17146.96,29.47,-1.00,-1.0,2452
4018,2139018,17104,16,1416,17162.52,29.47,-1.00,-1.0,2390
4021,2139021,17048,-16,1384,17104.09,29.52,-1.00,-1.0,2437
4024,2139024,17104,-204,1340,17157.62,29.57,-1.00,-1.0,2369
4027,2139027,16996,-300,1612,17074.91,29.47,-1.00,-1.0,2447
4029,2139029,17096,-396,1528,17168.72,29.61,-1.00,-1.0,2370
4032,2139032,16948,-516,1380,17011.92,29.52,-1.00,-1.0,2438
4035,2139035,16992,-544,1424,17060.24,29.61,-1.00,-1.0,2366
4040,2139040,17136,-532,1384,17200.03,29.52,-1.00,-1.0,2443
4043,2139043,17028,-456,1156,17073.29,29.57,-1.00,-1.0,2376
4045,2139045,17068,-412,1368,17127.69,29.52,-1.00,-1.0,2438
4048,2139048,17020,-448,1352,17079.49,29.52,-1.00,-1.0,2371
4051,2139051,17004,-384,1340,17061.04,29.61,-1.00,-1.0,2439
4054,2139054,16808,-424,1296,16863.22,29.52,-1.00,-1.0,2374
4056,2139056,16980,-368,1288,17032.76,29.57,-1.00,-1.0,2376
4059,2139059,17044,-372,1060,17080.98,29.57,-1.00,-1.0,2445
4062,2139062,17060,-392,1012,17094.48,29.47,-1.00,-1.0,2369
4067,2139067,17092,-440,1136,17135.36,29.57,-1.00,-1.0,2451
4070,2139070,17084,-336,1012,17117.25,29.47,-1.00,-1.0,2379
4072,2139072,17052,-480,952,17085.30,29.57,-1.00,-1.0,2446
4075,2139075,17100,-380,936,17129.81,29.47,-1.00,-1.0,2374
4078,2139078,17140,-344,1200,17185.40,29.52,-1.00,-1.0,2439
4081,2139081,17144,-124,1092,17179.19,29.47,-1.00,-1.0,2375
4083,2139083,17028,-148,1104,17064.39,29.52,-1.00,-1.0,2438
4086,2139086,16976,-220,1184,17018.66,29.52,-1.00,-1.0,2369
4091,2139091,16940,-172,1104,16976.81,29.61,-1.00,-1.0,2453
4094,2139094,16904,-128,1104,16940.50,29.57,-1.00,-1.0,2366
4097,2139097,17020,-72,1412,17078.62,29.52,-1.00,-1.0,2437
4099,2139099,16944,-184,1172,16985.48,29.52,-1.00,-1.0,2372
4102,2139102,16988,-352,1376,17047.27,29.47,-1.00,-1.0,2369
4105,2139105,17024,-324,1440,17087.87,29.57,-1.00,-1.0,2444
4108,2139108,17072,-312,1408,17132.80,29.66,-1.00,-1.0,2370
4110,2139110,17088,-248,1668,17171.01,29.61,-1.00,-1.0,2449
4113,2139113,17164,-280,1516,17233.09,29.57,-1.00,-1.0,2387
4118,2139118,17016,-240,1540,17087.23,29.57,-1.00,-1.0,2444
4121,2139121,17028,-356,1320,17082.80,29.57,-1.00,-1.0,2387
4124,2139124,16992,-252,1220,17037.61,29.61,-1.00,-1.0,2445
4126,2139126,17024,-284,1180,17067.21,29.61,-1.00,-1.0,2377
4129,2139129,17020,-340,1284,17071.75,29.52,-1.00,-1.0,2440
4132,2139132,17136,-348,1408,17197.27,29.61,-1.00,-1.0,2372
4135,2139135,17096,-268,1312,17148.36,29.57,-1.00,-1.0,2440
4137,2139137,17024,-296,1376,17082.08,29.52,-1.00,-1.0,2370
4143,2139143,17028,-336,1244,17076.69,29.47,-1.00,-1.0,2443
4146,2139146,16996,-344,1228,17043.78,29.57,-1.00,-1.0,2382
4148,2139148,16980,-404,1288,17033.57,29.61,-1.00,-1.0,2379
4151,2139151,17040,-228,1112,17077.77,29.57,-1.00,-1.0,2439
4154,2139154,16972,-348,1304,17025.58,29.52,-1.00,-1.0,2370
4157,2139157,17080,-296,1288,17131.05,29.66,-1.00,-1.0,2442
4159,2139159,17052,-324,1228,17099.23,29.52,-1.00,-1.0,2369
4162,2139162,17124,-352,1260,17173.90,29.57,-1.00,-1.0,2440
4165,2139165,16972,-448,1296,17027.30,29.47,-1.00,-1.0,2372
4170,2139170,17004,-404,1328,17060.56,29.47,-1.00,-1.0,2444
4172,2139172,16960,-376,1284,17012.69,29.52,-1.00,-1.0,2379
4175,2139175,17076,-132,1224,17120.32,29.57,-1.00,-1.0,2435
4178,2139178,16912,-212,1300,16963.21,29.57,-1.00,-1.0,2370
4181,2139181,17012,-172,1128,17050.22,29.57,-1.00,-1.0,2434
4183,2139183,17048,-240,1304,17099.48,29.57,-1.00,-1.0,2362
4186,2139186,16976,-184,1260,17023.69,29.42,-1.00,-1.0,2439
4189,2139189,16960,-260,1212,17005.24,29.47,-1.00,-1.0,2371
4194,2139194,17004,-376,1264,17055.06,29.57,-1.00,-1.0,2443
4197,2139197,16952,-352,1308,17006.03,29.47,-1.00,-1.0,2385
4199,2139199,16948,-312,1196,16993.01,29.52,-1.00,-1.0,2370
4202,2139202,16932,-300,1092,16969.83,29.52,-1.00,-1.0,2447
4205,2139205,16888,-128,956,16915.52,29.52,-1.00,-1.0,2371
4208,2139208,16924,-164,1008,16954.79,29.47,-1.00,-1.0,2437
4210,2139210,16928,-160,1080,16963.17,29.52,-1.00,-1.0,2363
4213,2139213,16968,-96,1128,17005.72,29.47,-1.00,-1.0,2425
4216,2139216,16976,-188,1108,17013.16,29.66,-1.00,-1.0,2372
4221,2139221,17108,-372,1244,17157.20,29.42,-1.00,-1.0,2450
4224,2139224,17176,-296,1308,17228.28,29.52,-1.00,-1.0,2382
4226,2139226,17036,-404,1324,17092.15,29.47,-1.00,-1.0,2438
4229,2139229,17028,-344,1380,17087.29,29.57,-1.00,-1.0,2369
4232,2139232,16972,-228,1288,17022.33,29.57,-1.00,-1.0,2440
4235,2139235,16880,-336,1288,16932.40,29.47,-1.00,-1.0,2372
4238,2139238,17040,-192,1248,17086.72,29.57,-1.00,-1.0,2438
4240,2139240,16932,-172,1320,16984.25,29.52,-1.00,-1.0,2373
4243,2139243,16952,-128,1424,17012.19,29.61,-1.00,-1.0,2358
4248,2139248,16964,-248,1392,17022.82,29.52,-1.00,-1.0,2449
4251,2139251,17068,-236,1356,17123.41,29.52,-1.00,-1.0,2378
4253,2139253,17092,-304,1460,17156.94,29.57,-1.00,-1.0,2446
4256,2139256,17096,-392,1360,17154.49,29.47,-1.00,-1.0,2374
4259,2139259,16992,-376,1376,17051.77,29.66,-1.00,-1.0,2440
4262,2139262,17056,-424,1336,17113.50,29.47,-1.00,-1.0,2368
4264,2139264,17004,-324,1216,17050.50,29.57,-1.00,-1.0,2439
4267,2139267,17036,-392,1092,17075.46,29.47,-1.00,-1.0,2371
4272,2139272,17096,-252,1096,17132.95,29.57,-1.00,-1.0,2444
4275,2139275,16912,-260,1132,16951.84,29.57,-1.00,-1.0,2378
4278,2139278,16984,-360,1044,17019.87,29.52,-1.00,-1.0,2443
4280,2139280,17004,-400,1112,17045.02,29.57,-1.00,-1.0,2368
4283,2139283,16940,-348,1224,16987.73,29.52,-1.00,-1.0,2442
4286,2139286,17000,-360,1196,17045.82,29.52,-1.00,-1.0,2369
4289,2139289,17076,-240,1072,17111.30,29.61,-1.00,-1.0,2446
4291,2139291,17044,-292,1128,17083.78,29.52,-1.00,-1.0,2366
4294,2139294,17092,-264,1348,17147.11,29.57,-1.00,-1.0,2384
4299,2139299,16948,-136,1216,16992.11,29.57,-1.00,-1.0,2460
4302,2139302,17052,-432,1248,17103.06,29.47,-1.00,-1.0,2384
4305,2139305,17048,-316,1180,17091.71,29.57,-1.00,-1.0,2447
4307,2139307,16972,-292,1160,17014.10,29.57,-1.00,-1.0,2374
4310,2139310,17016,-284,1256,17064.65,29.52,-1.00,-1.0,2425
4313,2139313,16984,-368,1392,17044.92,29.47,-1.00,-1.0,2369
4316,2139316,17072,-232,1272,17120.89,29.52,-1.00,-1.0,2443
4318,2139318,16948,-252,1556,17021.14,29.47,-1.00,-1.0,2372
4323,2139323,17008,-64,1508,17074.84,29.57,-1.00,-1.0,2448
4326,2139326,16992,-100,1512,17059.43,29.47,-1.00,-1.0,2380
4329,2139329,16980,-96,1444,17041.56,29.61,-1.00,-1.0,2438
4332,2139332,16984,-160,1268,17032.02,29.42,-1.00,-1.0,2369
4335,2139335,17020,-244,1292,17070.71,29.52,-1.00,-1.0,2440
4337,2139337,17124,-408,1464,17191.31,29.42,-1.00,-1.0,2372
4340,2139340,17124,-396,1284,17176.64,29.57,-1.00,-1.0,2364
4343,2139343,17004,-424,1420,17068.46,29.47,-1.00,-1.0,2449
4345,2139345,17024,-328,1216,17070.53,29.57,-1.00,-1.0,2378
4350,2139350,17088,-456,1128,17131.26,29.61,-1.00,-1.0,2443
4353,2139353,16960,-444,1196,17007.91,29.61,-1.00,-1.0,2379
4356,2139356,16924,-268,1276,16974.15,29.57,-1.00,-1.0,2445
4358,2139358,17004,-224,1168,17045.54,29.52,-1.00,-1.0,2370
4361,2139361,16972,-232,1224,17017.66,29.47,-1.00,-1.0,2452
4364,2139364,17052,-296,1356,17108.39,29.57,-1.00,-1.0,2378
4367,2139367,17020,-324,1364,17077.64,29.47,-1.00,-1.0,2440
4370,2139370,17012,-332,1320,17066.36,29.57,-1.00,-1.0,2379
4374,2139374,17124,-412,1308,17178.82,29.47,-1.00,-1.0,2445
4377,2139377,17104,-460,1236,17154.77,29.57,-1.00,-1.0,2380
4380,2139380,17096,-492,1224,17146.82,29.47,-1.00,-1.0,2441
4383,2139383,17024,-448,1360,17084.11,29.57,-1.00,-1.0,2376
4385,2139385,17020,-364,1328,17075.61,29.52,-1.00,-1.0,2370
4388,2139388,17112,-388,1228,17160.39,29.52,-1.00,-1.0,2442
4391,2139391,17036,-396,1308,17090.73,29.61,-1.00,-1.0,2372
4393,2139393,16952,-232,1356,17007.73,29.57,-1.00,-1.0,2437
4396,2139396,17028,-412,1236,17077.77,29.52,-1.00,-1.0,2369
4401,2139401,17040,-252,1296,17091.07,29.61,-1.00,-1.0,2444
4404,2139404,17024,-308,1304,17076.65,29.52,-1.00,-1.0,2378
4407,2139407,17048,-204,1176,17089.73,29.57,-1.00,-1.0,2445
4409,2139409,17096,-280,1236,17142.91,29.57,-1.00,-1.0,2372
4412,2139412,17096,-348,1392,17156.11,29.57,-1.00,-1.0,2448
4415,2139415,16968,-288,1212,17013.67,29.57,-1.00,-1.0,2385
4418,2139418,16928,-268,1320,16981.50,29.52,-1.00,-1.0,2440
4421,2139421,16976,-360,1316,17030.74,29.52,-1.00,-1.0,2373
4426,2139426,17004,-300,1180,17047.53,29.47,-1.00,-1.0,2450
4429,2139429,17040,-172,1392,17097.63,29.57,-1.00,-1.0,2383
4431,2139431,16944,-212,1356,16999.49,29.61,-1.00,-1.0,2445
4434,2139434,17116,-360,1272,17166.97,29.61,-1.00,-1.0,2376
4437,2139437,17100,-376,1296,17153.16,29.52,-1.00,-1.0,2369
4440,2139440,17056,-460,1408,17120.20,29.57,-1.00,-1.0,2438
4442,2139442,17016,-344,1352,17073.09,29.57,-1.00,-1.0,2372
4445,2139445,17020,-268,1324,17073.52,29.57,-1.00,-1.0,2445
4448,2139448,17124,-352,1248,17173.03,29.47,-1.00,-1.0,2379
4453,2139453,16964,-408,1276,17016.81,29.57,-1.00,-1.0,2452
4455,2139455,16980,-420,1436,17045.79,29.57,-1.00,-1.0,2380
4458,2139458,17040,-396,1368,17099.41,29.57,-1.00,-1.0,2454
4461,2139461,17100,-336,1412,17161.49,29.52,-1.00,-1.0,2377
4464,2139464,17096,-384,1276,17147.85,29.42,-1.00,-1.0,2444
4467,2139467,17092,-444,1208,17140.39,29.52,-1.00,-1.0,2375
4469,2139469,17032,-396,1324,17087.97,29.52,-1.00,-1.0,2437
4472,2139472,17028,-360,1184,17072.91,29.52,-1.00,-1.0,2369
4477,2139477,17096,-388,1268,17147.35,29.42,-1.00,-1.0,2438
4480,2139480,17060,-384,1216,17107.59,29.42,-1.00,-1.0,2367
4482,2139482,16992,-188,1200,17035.36,29.52,-1.00,-1.0,2371
4485,2139485,16984,-276,1140,17024.45,29.38,-1.00,-1.0,2439
4488,2139488,17048,-224,1152,17088.35,29.47,-1.00,-1.0,2371
4491,2139491,17048,-256,1220,17093.51,29.47,-1.00,-1.0,2447
4493,2139493,17156,-268,1180,17198.62,29.47,-1.00,-1.0,2367
4496,2139496,16960,-264,1092,16997.17,29.52,-1.00,-1.0,2458
4499,2139499,17020,-216,1152,17060.31,29.52,-1.00,-1.0,2376
4504,2139504,17008,-232,1208,17052.42,29.57,-1.00,-1.0,2445
4507,2139507,17072,-196,1168,17113.03,29.47,-1.00,-1.0,2384
4510,2139510,17132,-132,1232,17176.75,29.52,-1.00,-1.0,2437
4512,2139512,16992,-296,1260,17041.22,29.57,-1.00,-1.0,2374
4515,2139515,16964,-260,1112,17002.39,29.52,-1.00,-1.0,2449
4518,2139518,16972,-308,1328,17026.66,29.52,-1.00,-1.0,2377
4521,2139521,17060,-212,1408,17119.32,29.47,-1.00,-1.0,2443
4523,2139523,17036,-248,1328,17089.48,29.61,-1.00,-1.0,2378
4528,2139528,17136,-292,1220,17181.86,29.52,-1.00,-1.0,2453
4531,2139531,17088,-340,1352,17144.77,29.52,-1.00,-1.0,2380
4534,2139534,17028,-360,1384,17087.94,29.47,-1.00,-1.0,2370
4537,2139537,16948,-248,1280,16998.08,29.52,-1.00,-1.0,2439
4539,2139539,16932,-296,1252,16980.80,29.47,-1.00,-1.0,2372
4542,2139542,17028,-284,1388,17086.84,29.42,-1.00,-1.0,2454
4545,2139545,17016,-364,1348,17073.19,29.52,-1.00,-1.0,2376
4548,2139548,17024,-316,1528,17095.36,29.57,-1.00,-1.0,2449
4550,2139550,17064,-244,1380,17121.45,29.52,-1.00,-1.0,2381
4555,2139555,17060,-356,1216,17106.99,29.66,-1.00,-1.0,2445
4558,2139558,16948,-384,1236,16997.35,29.47,-1.00,-1.0,2381
4561,2139561,17112,-332,1156,17154.21,29.52,-1.00,-1.0,2439
4563,2139563,17048,-408,1280,17100.85,29.57,-1.00,-1.0,2370
4566,2139566,17028,-420,1216,17076.53,29.52,-1.00,-1.0,2440
4569,2139569,16984,-340,1220,17031.16,29.42,-1.00,-1.0,2372
4572,2139572,16944,-316,1316,16997.97,29.52,-1.00,-1.0,2443
4575,2139575,16872,-184,1124,16910.40,29.52,-1.00,-1.0,2371
4577,2139577,16964,-244,1244,17011.30,29.47,-1.00,-1.0,2360
4582,2139582,17036,-316,1340,17091.54,29.52,-1.00,-1.0,2431
4584,2139584,16908,-312,1236,16955.99,29.52,-1.00,-1.0,2379
4587,2139587,17076,-300,1420,17137.57,29.47,-1.00,-1.0,2450
4590,2139590,16940,-180,1156,16980.35,29.52,-1.00,-1.0,2387
4593,2139593,16992,-260,1236,17038.88,29.47,-1.00,-1.0,2442
4596,2139596,17028,-204,1332,17081.24,29.66,-1.00,-1.0,2372
4598,2139598,16976,-260,1356,17032.05,29.57,-1.00,-1.0,2437
4601,2139601,17016,-184,1312,17067.50,29.47,-1.00,-1.0,2373
4606,2139606,17052,-200,1280,17101.14,29.47,-1.00,-1.0,2451
4609,2139609,16992,-248,1252,17039.87,29.47,-1.00,-1.0,2370
4612,2139612,17012,-336,1088,17050.07,29.52,-1.00,-1.0,2436
4614,2139614,16980,-336,1316,17034.23,29.57,-1.00,-1.0,2373
4617,2139617,16980,-264,1280,17030.22,29.61,-1.00,-1.0,2438
4620,2139620,17024,-224,1228,17069.70,29.52,-1.00,-1.0,2373
4623,2139623,16984,-264,1264,17033.02,29.52,-1.00,-1.0,2438
4625,2139625,17052,-352,1392,17112.34,29.61,-1.00,-1.0,2358
4628,2139628,17096,-344,1352,17152.83,29.47,-1.00,-1.0,2376
4633,2139633,17052,-300,1304,17104.42,29.52,-1.00,-1.0,2443
4636,2139636,17068,-232,1252,17115.43,29.52,-1.00,-1.0,2378
4639,2139639,17056,-276,1312,17108.61,29.47,-1.00,-1.0,2452
4641,2139641,16932,-348,1332,16987.88,29.57,-1.00,-1.0,2381
4644,2139644,17012,-324,1164,17054.85,29.57,-1.00,-1.0,2445
4647,2139647,17088,-344,1296,17140.53,29.47,-1.00,-1.0,2367
4650,2139650,17100,-388,1368,17159.02,29.42,-1.00,-1.0,2441
4652,2139652,16976,-444,1352,17035.54,29.47,-1.00,-1.0,2374
4657,2139657,17104,-408,1428,17168.36,29.47,-1.00,-1.0,2447
4660,2139660,17112,-268,1200,17156.12,29.57,-1.00,-1.0,2365
4663,2139663,17008,-348,1320,17062.70,29.52,-1.00,-1.0,2437
4666,2139666,17060,-308,1372,17117.85,29.52,-1.00,-1.0,2367
4668,2139668,16988,-268,1308,17040.39,29.52,-1.00,-1.0,2440
4671,2139671,17148,-268,1328,17201.43,29.57,-1.00,-1.0,2373
4674,2139674,17040,-272,1380,17097.95,29.47,-1.00,-1.0,2379
4677,2139677,17012,-320,1328,17066.76,29.57,-1.00,-1.0,2446
4679,2139679,17084,-296,1432,17146.47,29.57,-1.00,-1.0,2375
4684,2139684,16972,-396,1196,17018.70,29.47,-1.00,-1.0,2444
4687,2139687,17132,-356,1304,17185.24,29.47,-1.00,-1.0,2377
4690,2139690,16888,-280,1264,16937.55,29.57,-1.00,-1.0,2427
4693,2139693,17020,-236,1232,17066.16,29.47,-1.00,-1.0,2378
4695,2139695,17072,-312,1036,17106.25,29.52,-1.00,-1.0,2443
4698,2139698,17056,-296,1136,17096.35,29.57,-1.00,-1.0,2375
4701,2139701,17004,-292,1184,17047.67,29.52,-1.00,-1.0,2437
4704,2139704,17028,-280,1408,17088.41,29.52,-1.00,-1.0,2369
4709,2139709,17096,-180,1224,17140.71,29.61,-1.00,-1.0,2446
4711,2139711,18404,-1084,2148,18560.61,29.52,-1.00,-1.0,2385
4714,2139714,6092,-3256,-31884,32623.66,29.52,-1.00,-1.0,2439
4717,2139717,32767,12660,20920,40885.18,29.52,-1.00,-1.0,2370
4720,2139720,12520,-21056,-13512,27976.41,29.47,-1.00,-1.0,2445
4723,2139723,14340,10396,11900,21338.29,29.52,-1.00,-1.0,2376
4725,2139725,16048,-10204,-7064,20286.94,29.52,-1.00,-1.0,2438
4728,2139728,29320,22604,10088,38371.48,29.61,-1.00,-1.0,2372
4733,2139733,30740,-5656,-2264,31337.89,29.52,-1.00,-1.0,2443
4736,2139736,8136,-6552,-412,10454.33,29.52,-1.00,-1.0,2381
4738,2139738,25960,-8740,5052,27853.76,29.47,-1.00,-1.0,2371
4741,2139741,16556,7964,-4064,18816.02,29.52,-1.00,-1.0,2453
4744,2139744,14296,-14664,5148,21116.59,29.47,-1.00,-1.0,2377
4747,2139747,25300,16988,8324,31590.68,29.52,-1.00,-1.0,2443
4750,2139750,3876,-3024,-3632,6112.23,29.52,-1.00,-1.0,2379
4752,2139752,27516,-4816,-4704,28327.58,29.52,-1.00,-1.0,2438
4755,2139755,15816,1428,552,15889.93,29.52,-1.00,-1.0,2368
4760,2139760,18320,11192,2500,21613.27,29.57,-1.00,-1.0,2443
4763,2139763,14584,512,-360,14597.42,29.57,-1.00,-1.0,2378
4766,2139766,22260,-1992,2044,22442.23,29.47,-1.00,-1.0,2439
4768,2139768,18124,1060,-5524,18976.76,29.57,-1.00,-1.0,2375
4771,2139771,16240,-8656,-3364,18707.76,29.42,-1.00,-1.0,2453
4774,2139774,18660,2588,-60,18838.71,29.52,-1.00,-1.0,2372
4777,2139777,13920,-5296,-3212,15235.84,29.52,-1.00,-1.0,2446
4779,2139779,13548,3864,-2204,14259.61,29.52,-1.00,-1.0,2379
4784,2139784,17976,-952,-384,18005.29,29.47,-1.00,-1.0,2444
4787,2139787,18528,2028,1224,18678.80,29.52,-1.00,-1.0,2388
4790,2139790,16260,-3140,956,16587.98,29.52,-1.00,-1.0,2445
4792,2139792,15836,4128,2504,16555.64,29.52,-1.00,-1.0,2375
4795,2139795,15944,-5052,300,16727.94,29.57,-1.00,-1.0,2370
4798,2139798,18176,2432,2192,18468.53,29.47,-1.00,-1.0,2440
4800,2139800,17292,-2072,3068,17683.87,29.57,-1.00,-1.0,2370
4803,2139803,17032,1652,304,17114.63,29.52,-1.00,-1.0,2457
4806,2139806,16048,-2724,788,16296.61,29.57,-1.00,-1.0,2380
4811,2139811,16808,1308,1708,16945.12,29.57,-1.00,-1.0,2444
4814,2139814,17840,-1832,12,17933.82,29.52,-1.00,-1.0,2388
4817,2139817,16212,220,1476,16280.54,29.52,-1.00,-1.0,2447
4819,2139819,16084,-1260,2300,16296.40,29.52,-1.00,-1.0,2377
4822,2139822,16072,1144,2476,16301.79,29.66,-1.00,-1.0,2440
4825,2139825,16496,-848,-428,16523.33,29.47,-1.00,-1.0,2374
4828,2139828,17948,-400,2612,18141.48,29.47,-1.00,-1.0,2442
4830,2139830,17804,2176,980,17963.23,29.57,-1.00,-1.0,2371
4836,2139836,16408,2024,1476,16598.12,29.61,-1.00,-1.0,2448
4838,2139838,17044,-1080,1364,17132.57,29.52,-1.00,-1.0,2385
4841,2139841,17500,-164,1508,17565.62,29.57,-1.00,-1.0,2440
4844,2139844,17636,-1160,860,17695.02,29.57,-1.00,-1.0,2371
4846,2139846,17084,-592,2304,17248.82,29.52,-1.00,-1.0,2369
4849,2139849,16972,4,1860,17073.62,29.52,-1.00,-1.0,2452
4852,2139852,16532,-1664,1136,16654.32,29.61,-1.00,-1.0,2377
4855,2139855,16576,-76,772,16594.14,29.57,-1.00,-1.0,2443
4858,2139858,17336,-1452,832,17416.58,29.52,-1.00,-1.0,2379
4863,2139863,17148,-540,2016,17274.54,29.52,-1.00,-1.0,2444
4865,2139865,16720,752,312,16739.81,29.52,-1.00,-1.0,2386
4868,2139868,16604,-1240,1452,16713.43,29.57,-1.00,-1.0,2445
4871,2139871,16784,1068,1008,16848.12,29.57,-1.00,-1.0,2358
4874,2139874,16200,-600,1324,16265.08,29.42,-1.00,-1.0,2480
4877,2139877,17124,-988,1112,17188.49,29.52,-1.00,-1.0,2377
4879,2139879,17440,-244,1920,17547.07,29.47,-1.00,-1.0,2441
4882,2139882,17236,-584,1172,17285.67,29.57,-1.00,-1.0,2374
4885,2139885,16884,-524,1860,16994.22,29.57,-1.00,-1.0,2370
4890,2139890,17620,-1756,1348,17758.52,29.47,-1.00,-1.0,2445
4892,2139892,16984,468,1320,17041.64,29.57,-1.00,-1.0,2381
4895,2139895,17188,-988,596,17226.69,29.42,-1.00,-1.0,2441
4898,2139898,16884,196,1096,16920.67,29.47,-1.00,-1.0,2369
4901,2139901,17228,-632,1124,17276.19,29.52,-1.00,-1.0,2448
4903,2139903,16960,-20,1260,17006.75,29.42,-1.00,-1.0,2371
4906,2139906,17020,-584,564,17039.35,29.57,-1.00,-1.0,2450
4909,2139909,16844,164,1080,16879.38,29.52,-1.00,-1.0,2378
4914,2139914,16964,-372,888,16991.30,29.52,-1.00,-1.0,2442
4917,2139917,17044,-164,1060,17077.72,29.61,-1.00,-1.0,2380
4920,2139920,16856,-292,976,16886.76,29.47,-1.00,-1.0,2445
4922,2139922,17028,-508,1064,17068.77,29.57,-1.00,-1.0,2379
4925,2139925,17040,-452,1452,17107.72,29.47,-1.00,-1.0,2439
4928,2139928,16888,-636,864,16922.04,29.57,-1.00,-1.0,2373
4930,2139930,17044,-224,956,17072.26,29.52,-1.00,-1.0,2370
4933,2139933,17068,-428,1536,17142.32,29.61,-1.00,-1.0,2440
4936,2139936,17040,-140,1584,17114.04,29.52,-1.00,-1.0,2371
4941,2139941,17180,-456,1860,17286.41,29.47,-1.00,-1.0,2444
4944,2139944,16872,-28,1620,16949.62,29.52,-1.00,-1.0,2380
4947,2139947,17000,108,1280,17048.46,29.42,-1.00,-1.0,2437
4949,2139949,17028,-24,1448,17089.47,29.52,-1.00,-1.0,2371
4952,2139952,17272,164,1704,17356.63,29.57,-1.00,-1.0,2457
4955,2139955,17024,-60,1296,17073.37,29.57,-1.00,-1.0,2380
4958,2139958,16976,-108,1308,17026.66,29.57,-1.00,-1.0,2450
4960,2139960,16904,-224,1564,16977.68,29.47,-1.00,-1.0,2377
4967,2139967,16884,-580,756,16910.87,29.52,-1.00,-1.0,2459
4970,2139970,17148,-924,1156,17211.74,29.57,-1.00,-1.0,2364
4973,2139973,17184,-344,1348,17240.22,29.52,-1.00,-1.0,2441
4975,2139975,17192,-796,1172,17250.28,29.52,-1.00,-1.0,2371
4978,2139978,17124,-40,1388,17180.21,29.66,-1.00,-1.0,2377
4981,2139981,17168,-872,1148,17228.42,29.57,-1.00,-1.0,2440
4984,2139984,17000,-360,1156,17043.06,29.57,-1.00,-1.0,2375
4986,2139986,16908,-304,1096,16946.21,29.61,-1.00,-1.0,2440
4989,2139989,16988,-364,1336,17044.34,29.52,-1.00,-1.0,2371
4994,2139994,16996,-264,1176,17038.68,29.57,-1.00,-1.0,2437
4997,2139997,16988,-248,1236,17034.71,29.57,-1.00,-1.0,2386
4999,2139999,17072,-512,1260,17126.09,29.52,-1.00,-1.0,2437
5002,2140002,17176,-364,1480,17243.49,29.52,-1.00,-1.0,2368
5005,2140005,17160,-808,1284,17226.93,29.52,-1.00,-1.0,2440
5008,2140008,16996,-264,1124,17035.17,29.52,-1.00,-1.0,2371
5010,2140010,17144,-564,1584,17226.26,29.57,-1.00,-1.0,2439
5013,2140013,17028,-380,1168,17072.24,29.52,-1.00,-1.0,2369
5018,2140018,16812,-312,1204,16857.95,29.52,-1.00,-1.0,2445
5021,2140021,16724,-344,1380,16784.37,29.52,-1.00,-1.0,2376
5023,2140023,16948,8,1428,17008.05,29.47,-1.00,-1.0,2371
5026,2140026,17032,-128,1496,17098.05,29.57,-1.00,-1.0,2456
5029,2140029,17092,252,1568,17165.62,29.47,-1.00,-1.0,2380
5032,2140032,17240,-52,1312,17289.93,29.57,-1.00,-1.0,2444
5035,2140035,17200,-76,1336,17251.98,29.61,-1.00,-1.0,2378
5037,2140037,17028,-124,1332,17080.47,29.52,-1.00,-1.0,2438
5040,2140040,17048,-296,1176,17091.08,29.52,-1.00,-1.0,2371
5045,2140045,17004,-536,1216,17055.85,29.52,-1.00,-1.0,2443
5048,2140048,17072,-240,1284,17121.90,29.57,-1.00,-1.0,2366
5051,2140051,16936,-384,968,16967.99,29.61,-1.00,-1.0,2445
5053,2140053,16940,-264,976,16970.15,29.52,-1.00,-1.0,2371
5056,2140056,16964,-176,1080,16999.26,29.52,-1.00,-1.0,2426
5059,2140059,16824,-164,1400,16882.95,29.52,-1.00,-1.0,2374
5061,2140061,17004,-108,1388,17060.90,29.57,-1.00,-1.0,2371
5064,2140064,17088,-328,1432,17151.03,29.47,-1.00,-1.0,2446
5067,2140067,16984,-416,1492,17054.48,29.57,-1.00,-1.0,2370
5072,2140072,17088,-524,1228,17140.08,29.47,-1.00,-1.0,2446
5075,2140075,17008,-636,1184,17061.02,29.47,-1.00,-1.0,2382
5078,2140078,17012,-700,1072,17060.11,29.38,-1.00,-1.0,2439
5080,2140080,17068,-556,1100,17112.45,29.57,-1.00,-1.0,2374
5083,2140083,17024,-592,1156,17073.47,29.52,-1.00,-1.0,2453
5086,2140086,16968,-472,1092,17009.65,29.47,-1.00,-1.0,2378
5089,2140089,17064,-344,1136,17105.23,29.52,-1.00,-1.0,2448
5091,2140091,17096,-392,1348,17153.54,29.52,-1.00,-1.0,2378
5096,2140096,16976,-120,1404,17034.38,29.61,-1.00,-1.0,2455
5099,2140099,16972,-136,1540,17042.27,29.52,-1.00,-1.0,2380
5102,2140102,16944,-96,1396,17001.68,29.47,-1.00,-1.0,2438
5105,2140105,16964,-216,1216,17008.90,29.42,-1.00,-1.0,2370
5107,2140107,17024,-224,1024,17056.24,29.38,-1.00,-1.0,2441
5110,2140110,17024,-176,1068,17058.38,29.47,-1.00,-1.0,2372
5113,2140113,17008,-64,1104,17043.91,29.57,-1.00,-1.0,2438
5116,2140116,17072,-196,1056,17105.75,29.52,-1.00,-1.0,2447
5119,2140119,17084,-352,1304,17137.31,29.52,-1.00,-1.0,2376
5124,2140124,17052,-256,1244,17099.23,29.52,-1.00,-1.0,2444
5126,2140126,17092,-304,1356,17148.40,29.52,-1.00,-1.0,2381
5129,2140129,17032,-136,1368,17087.39,29.61,-1.00,-1.0,2446
5132,2140132,17092,-132,1460,17154.75,29.52,-1.00,-1.0,2360
5135,2140135,17016,-72,1364,17070.73,29.57,-1.00,-1.0,2446
5137,2140137,17092,-200,1476,17156.78,29.52,-1.00,-1.0,2377
5140,2140140,17064,-332,1380,17122.93,29.57,-1.00,-1.0,2440
5143,2140143,17076,-392,1416,17139.09,29.47,-1.00,-1.0,2375
5148,2140148,17028,-448,1232,17078.39,29.47,-1.00,-1.0,2449
5151,2140151,17028,-396,1360,17086.81,29.57,-1.00,-1.0,2380
5153,2140153,17016,-336,1308,17069.51,29.57,-1.00,-1.0,2437
5156,2140156,17200,-352,1276,17250.86,29.57,-1.00,-1.0,2369
5159,2140159,17024,-352,1364,17082.18,29.47,-1.00,-1.0,2377
5162,2140162,17012,-468,1372,17073.65,29.52,-1.00,-1.0,2448
5164,2140164,17064,-488,1360,17125.06,29.52,-1.00,-1.0,2378
5167,2140167,16920,-440,1164,16965.70,29.57,-1.00,-1.0,2447
5170,2140170,16924,-284,1244,16972.04,29.61,-1.00,-1.0,2370
5175,2140175,16872,-480,1096,16914.37,29.66,-1.00,-1.0,2443
5177,2140177,17036,-404,1164,17080.50,29.57,-1.00,-1.0,2380
5180,2140180,17120,-440,1056,17158.18,29.52,-1.00,-1.0,2438
5183,2140183,17020,-512,1128,17065.02,29.57,-1.00,-1.0,2372
5186,2140186,17160,-444,868,17187.67,29.52,-1.00,-1.0,2448
5188,2140188,17148,-304,1168,17190.42,29.61,-1.00,-1.0,2370
5191,2140191,17064,-316,1188,17108.22,29.57,-1.00,-1.0,2453
5194,2140194,17080,-288,1208,17125.09,29.42,-1.00,-1.0,2379
5199,2140199,16972,-32,1156,17011.35,29.57,-1.00,-1.0,2453
5201,2140201,16960,-264,1096,16997.43,29.52,-1.00,-1.0,2380
5204,2140204,16820,-132,1080,16855.15,29.61,-1.00,-1.0,2379
5207,2140207,16868,-52,1132,16906.02,29.57,-1.00,-1.0,2440
5210,2140210,16964,-88,1244,17009.78,29.47,-1.00,-1.0,2374
5212,2140212,16940,-156,1296,16990.22,29.57,-1.00,-1.0,2440
5215,2140215,16924,-264,1328,16978.08,29.57,-1.00,-1.0,2372
5218,2140218,17120,-368,1456,17185.74,29.52,-1.00,-1.0,2438
5221,2140221,17056,-384,1500,17126.14,29.57,-1.00,-1.0,2370
5226,2140226,17132,-308,1520,17202.05,29.57,-1.00,-1.0,2443
5228,2140228,17000,-200,1372,17056.45,29.57,-1.00,-1.0,2380
5231,2140231,17000,-288,1456,17064.67,29.52,-1.00,-1.0,2438
5234,2140234,17004,-200,1344,17058.21,29.52,-1.00,-1.0,2371
5237,2140237,16956,-312,1148,16997.68,29.52,-1.00,-1.0,2440
5239,2140239,16928,-360,1156,16971.24,29.52,-1.00,-1.0,2357
5242,2140242,16996,-340,1200,17041.70,29.57,-1.00,-1.0,2444
5245,2140245,17008,-408,1420,17072.05,29.52,-1.00,-1.0,2371
5250,2140250,17088,-260,1408,17147.88,29.52,-1.00,-1.0,2443
5253,2140253,16988,-292,1340,17043.27,29.52,-1.00,-1.0,2386
5255,2140255,16992,-308,1160,17034.33,29.57,-1.00,-1.0,2378
5258,2140258,16988,-396,1156,17031.89,29.52,-1.00,-1.0,2437
5261,2140261,17060,-316,1120,17099.64,29.57,-1.00,-1.0,2372
5264,2140264,16976,-340,1192,17021.19,29.52,-1.00,-1.0,2439
5266,2140266,17000,-248,1208,17044.67,29.52,-1.00,-1.0,2371
5269,2140269,16996,-352,1232,17044.23,29.52,-1.00,-1.0,2437
5272,2140272,17168,-340,1320,17222.03,29.52,-1.00,-1.0,2368
5277,2140277,17068,-324,1360,17125.16,29.47,-1.00,-1.0,2453
5280,2140280,17084,-472,1340,17142.97,29.57,-1.00,-1.0,2381
5283,2140283,16964,-428,1232,17014.06,29.52,-1.00,-1.0,2438
5285,2140285,17012,-332,1416,17074.06,29.52,-1.00,-1.0,2372
5288,2140288,16960,-276,1244,17007.80,29.52,-1.00,-1.0,2438
5291,2140291,16852,-148,1412,16911.70,29.52,-1.00,-1.0,2369
5294,2140294,17048,-76,1324,17099.50,29.57,-1.00,-1.0,2445
5296,2140296,16996,-292,1052,17031.03,29.47,-1.00,-1.0,2375
5299,2140299,17008,-356,1096,17046.99,29.57,-1.00,-1.0,2386
5304,2140304,17108,-232,1224,17153.30,29.47,-1.00,-1.0,2444
5307,2140307,17084,-260,1488,17150.65,29.57,-1.00,-1.0,2387
5310,2140310,17004,-368,1352,17061.63,29.47,-1.00,-1.0,2445
5312,2140312,17004,-348,1124,17044.66,29.42,-1.00,-1.0,2377
5315,2140315,17080,-312,1124,17119.79,29.52,-1.00,-1.0,2440
5318,2140318,16964,-176,1212,17008.15,29.52,-1.00,-1.0,2374
5321,2140321,16948,-144,1096,16984.01,29.52,-1.00,-1.0,2438
5323,2140323,16944,-200,1116,16981.89,29.52,-1.00,-1.0,2370
5328,2140328,17048,-172,1152,17087.74,29.52,-1.00,-1.0,2449
5331,2140331,17028,-320,1148,17069.65,29.52,-1.00,-1.0,2378
5334,2140334,17040,-236,1060,17074.57,29.47,-1.00,-1.0,2443
5337,2140337,17100,-380,1412,17162.40,29.52,-1.00,-1.0,2372
5339,2140339,17064,-364,1416,17126.52,29.47,-1.00,-1.0,2440
5342,2140342,17060,-372,1340,17116.59,29.47,-1.00,-1.0,2372
5345,2140345,17020,-296,1264,17069.44,29.57,-1.00,-1.0,2378
5348,2140348,16908,-256,1280,16958.31,29.61,-1.00,-1.0,2446
5350,2140350,16892,-184,1224,16937.29,29.52,-1.00,-1.0,2379
5355,2140355,17040,-228,1344,17094.44,29.61,-1.00,-1.0,2456
5358,2140358,17036,-212,1412,17095.73,29.52,-1.00,-1.0,2396
5361,2140361,17044,-272,1344,17099.07,29.52,-1.00,-1.0,2437
5364,2140364,17072,-328,1600,17149.95,29.42,-1.00,-1.0,2367
5366,2140366,17036,-360,1652,17119.70,29.57,-1.00,-1.0,2440
5369,2140369,17000,-460,1608,17082.07,29.52,-1.00,-1.0,2371
5372,2140372,17004,-472,1316,17061.38,29.57,-1.00,-1.0,2439
5375,2140375,17076,-324,1304,17128.78,29.47,-1.00,-1.0,2370
5379,2140379,17072,-484,1300,17128.26,29.47,-1.00,-1.0,2441
5382,2140382,17004,-388,1196,17050.42,29.47,-1.00,-1.0,2377
5385,2140385,17016,-472,996,17051.66,29.52,-1.00,-1.0,2452
5388,2140388,17112,-420,1060,17149.94,29.52,-1.00,-1.0,2377
5391,2140391,17056,-480,1128,17100.00,29.52,-1.00,-1.0,2451
5393,2140393,16976,-492,1180,17024.07,29.42,-1.00,-1.0,2379
5396,2140396,17012,-332,1012,17045.31,29.47,-1.00,-1.0,2374
5399,2140399,17096,-372,1188,17141.26,29.57,-1.00,-1.0,2444
5401,2140401,17084,-280,1212,17129.23,29.57,-1.00,-1.0,2358
5406,2140406,16988,-264,1160,17029.61,29.52,-1.00,-1.0,2449
5409,2140409,16892,-308,1312,16945.67,29.52,-1.00,-1.0,2367
5412,2140412,16860,-276,1080,16896.81,29.47,-1.00,-1.0,2437
5414,2140414,16948,-296,1196,16992.73,29.47,-1.00,-1.0,2372
5417,2140417,17076,-276,1172,17118.40,29.47,-1.00,-1.0,2439
5420,2140420,17068,-296,1164,17110.21,29.57,-1.00,-1.0,2370
5423,2140423,17008,-296,1172,17050.90,29.52,-1.00,-1.0,2439
5425,2140425,17028,-260,1292,17078.92,29.57,-1.00,-1.0,2371
5430,2140430,17016,-192,1340,17069.76,29.47,-1.00,-1.0,2445
5433,2140433,16968,-240,1324,17021.27,29.47,-1.00,-1.0,2381
5436,2140436,16976,-116,1332,17028.57,29.42,-1.00,-1.0,2438
5439,2140439,16964,-180,1196,17007.06,29.47,-1.00,-1.0,2376
5441,2140441,16940,-132,1236,16985.54,29.42,-1.00,-1.0,2380
5444,2140444,16988,-148,1460,17051.27,29.47,-1.00,-1.0,2439
5447,2140447,17044,-228,1296,17094.72,29.52,-1.00,-1.0,2372
5450,2140450,16980,-312,1428,17042.80,29.57,-1.00,-1.0,2436
5452,2140452,17044,-380,1196,17090.14,29.47,-1.00,-1.0,2372
5457,2140457,17060,-424,1132,17102.77,29.57,-1.00,-1.0,2451
5460,2140460,17116,-360,1252,17165.51,29.52,-1.00,-1.0,2382
5463,2140463,16964,-464,1236,17015.29,29.47,-1.00,-1.0,2438
5466,2140466,16996,-368,1244,17045.44,29.57,-1.00,-1.0,2369
5468,2140468,16976,-304,1084,17013.29,29.57,-1.00,-1.0,2440
5471,2140471,17024,-404,1132,17066.38,29.47,-1.00,-1.0,2370
5474,2140474,16948,-424,1272,17000.96,29.52,-1.00,-1.0,2439
5477,2140477,16988,-360,1164,17031.64,29.47,-1.00,-1.0,2369
5482,2140482,17012,-340,1184,17056.54,29.47,-1.00,-1.0,2444
5484,2140484,17040,-416,1148,17083.69,29.57,-1.00,-1.0,2380
5487,2140487,17088,-476,1276,17142.19,29.61,-1.00,-1.0,2441
5490,2140490,16968,-332,1220,17015.04,29.57,-1.00,-1.0,2368
5493,2140493,17080,-456,1144,17124.34,29.42,-1.00,-1.0,2371
5495,2140495,17008,-420,1140,17051.34,29.57,-1.00,-1.0,2452
5498,2140498,17088,-360,1096,17126.90,29.47,-1.00,-1.0,2384
5501,2140501,16932,-360,1396,16993.26,29.66,-1.00,-1.0,2438
5504,2140504,17060,-208,1228,17105.40,29.57,-1.00,-1.0,2370
5509,2140509,17056,-224,1284,17105.73,29.66,-1.00,-1.0,2447
5511,2140511,16992,-276,1292,17043.28,29.57,-1.00,-1.0,2387
5514,2140514,17060,-188,1320,17112.02,29.57,-1.00,-1.0,2440
5517,2140517,17000,-272,1328,17053.96,29.66,-1.00,-1.0,2369
5520,2140520,17140,-272,1244,17187.24,29.52,-1.00,-1.0,2445
5522,2140522,16996,-252,1196,17039.89,29.47,-1.00,-1.0,2368
5525,2140525,17104,-292,1212,17149.37,29.52,-1.00,-1.0,2439
5528,2140528,17072,-192,1220,17116.61,29.52,-1.00,-1.0,2369
5533,2140533,16960,-336,1344,17016.49,29.47,-1.00,-1.0,2444
5536,2140536,16940,-304,1244,16988.34,29.57,-1.00,-1.0,2377
5538,2140538,16900,-328,1320,16954.64,29.61,-1.00,-1.0,2370
5541,2140541,16984,-336,1312,17037.91,29.57,-1.00,-1.0,2453
5544,2140544,17008,-356,1388,17068.26,29.47,-1.00,-1.0,2373
5547,2140547,17004,-336,1384,17063.54,29.57,-1.00,-1.0,2450
5549,2140549,17088,-340,1380,17147.00,29.57,-1.00,-1.0,2383
5552,2140552,16984,-296,1524,17054.81,29.42,-1.00,-1.0,2437
5555,2140555,16980,-316,1292,17032.01,29.57,-1.00,-1.0,2370
5560,2140560,17092,-356,1356,17149.40,29.47,-1.00,-1.0,2430
5563,2140563,16992,-372,1480,17060.39,29.47,-1.00,-1.0,2383
5565,2140565,17072,-356,1488,17140.42,29.47,-1.00,-1.0,2439
5568,2140568,16976,-384,1396,17037.63,29.57,-1.00,-1.0,2371
5571,2140571,17020,-352,1400,17081.11,29.61,-1.00,-1.0,2426
5574,2140574,17020,-416,1420,17084.20,29.52,-1.00,-1.0,2367
5576,2140576,17036,-412,1360,17095.16,29.52,-1.00,-1.0,2439
5579,2140579,17056,-376,1328,17111.75,29.52,-1.00,-1.0,2371
5584,2140584,17124,-364,1352,17181.15,29.52,-1.00,-1.0,2445
5587,2140587,16952,-340,1144,16993.96,29.61,-1.00,-1.0,2385
5589,2140589,17044,-272,1176,17086.69,29.57,-1.00,-1.0,2381
5592,2140592,16996,-300,1024,17029.46,29.52,-1.00,-1.0,2437
5595,2140595,17016,-336,1340,17071.99,29.57,-1.00,-1.0,2368
5598,2140598,16968,-248,1268,17017.12,29.52,-1.00,-1.0,2438
5600,2140600,17048,-176,1244,17094.23,29.47,-1.00,-1.0,2372
5603,2140603,16996,-244,1156,17037.02,29.52,-1.00,-1.0,2437
5606,2140606,17000,-276,1092,17037.27,29.52,-1.00,-1.0,2369
5611,2140611,16908,-256,1116,16946.72,29.47,-1.00,-1.0,2448
5613,2140613,17080,-220,1032,17112.56,29.47,-1.00,-1.0,2386
5616,2140616,16932,-220,1152,16972.57,29.52,-1.00,-1.0,2437
5619,2140619,17088,-252,1036,17121.23,29.61,-1.00,-1.0,2373
5622,2140622,17072,-144,1252,17118.45,29.52,-1.00,-1.0,2438
5624,2140624,17040,-148,1148,17079.27,29.52,-1.00,-1.0,2371
5627,2140627,16964,-192,1224,17009.18,29.57,-1.00,-1.0,2439
5630,2140630,16968,-288,1208,17013.38,29.52,-1.00,-1.0,2370
5633,2140633,17036,-324,1208,17081.85,29.47,-1.00,-1.0,2372
5638,2140638,17008,-292,1380,17066.39,29.47,-1.00,-1.0,2443
5640,2140640,17012,-224,1156,17052.70,29.47,-1.00,-1.0,2379
5643,2140643,17052,-292,1276,17102.17,29.52,-1.00,-1.0,2452
5646,2140646,16928,-288,1336,16983.08,29.57,-1.00,-1.0,2380
5649,2140649,17056,-432,1288,17110.02,29.52,-1.00,-1.0,2451
5651,2140651,16924,-412,1360,16983.55,29.47,-1.00,-1.0,2372
5654,2140654,16972,-388,1288,17025.22,29.52,-1.00,-1.0,2438
5657,2140657,16924,-292,1356,16980.75,29.52,-1.00,-1.0,2371
5662,2140662,17028,-428,1392,17090.16,29.52,-1.00,-1.0,2448
5665,2140665,17052,-396,1348,17109.78,29.52,-1.00,-1.0,2381
5667,2140667,17060,-400,1360,17118.80,29.47,-1.00,-1.0,2438
5670,2140670,16968,-372,1260,17018.78,29.52,-1.00,-1.0,2368
5673,2140673,17128,-384,1388,17188.44,29.47,-1.00,-1.0,2439
5676,2140676,17056,-336,1200,17101.46,29.47,-1.00,-1.0,2370
5678,2140678,17000,-388,1276,17052.23,29.47,-1.00,-1.0,2438
5681,2140681,17024,-332,1044,17059.21,29.47,-1.00,-1.0,2368
5684,2140684,16984,-280,1240,17031.51,29.52,-1.00,-1.0,2372
5689,2140689,17072,-276,1216,17117.48,29.47,-1.00,-1.0,2442
5692,2140692,17124,-240,1216,17168.80,29.47,-1.00,-1.0,2386
5695,2140695,17104,-256,1244,17151.09,29.52,-1.00,-1.0,2438
5697,2140697,17084,-368,1276,17135.54,29.57,-1.00,-1.0,2377
5700,2140700,16964,-336,1356,17021.43,29.42,-1.00,-1.0,2448
5703,2140703,17052,-284,1488,17119.16,29.52,-1.00,-1.0,2374
5706,2140706,17064,-276,1332,17118.13,29.61,-1.00,-1.0,2447
5708,2140708,17036,-220,1268,17084.54,29.52,-1.00,-1.0,2378
5713,2140713,17052,-268,1340,17106.67,29.52,-1.00,-1.0,2452
5716,2140716,17084,-308,1296,17135.86,29.52,-1.00,-1.0,2394
5719,2140719,16976,-232,1360,17031.97,29.47,-1.00,-1.0,2438
5722,2140722,17056,-124,1104,17092.14,29.52,-1.00,-1.0,2369
5724,2140724,17096,-232,1336,17149.69,29.47,-1.00,-1.0,2441
5727,2140727,16936,-236,1308,16988.07,29.47,-1.00,-1.0,2372
5730,2140730,17084,-212,1324,17136.54,29.52,-1.00,-1.0,2365
5733,2140733,16976,-260,1264,17024.98,29.52,-1.00,-1.0,2445
5735,2140735,17028,-304,1164,17070.45,29.42,-1.00,-1.0,2376
5740,2140740,17000,-288,1344,17055.48,29.57,-1.00,-1.0,2446
5743,2140743,16968,-288,1220,17014.24,29.47,-1.00,-1.0,2379
5746,2140746,16984,-208,1260,17031.94,29.61,-1.00,-1.0,2446
5749,2140749,16996,-284,1340,17051.11,29.42,-1.00,-1.0,2377
5751,2140751,17056,-288,1188,17099.75,29.47,-1.00,-1.0,2441
5754,2140754,16968,-320,1196,17013.11,29.52,-1.00,-1.0,2374
5757,2140757,16980,-380,1264,17031.22,29.57,-1.00,-1.0,2437
5760,2140760,16964,-288,1232,17011.12,29.57,-1.00,-1.0,2371
5765,2140765,17088,-312,1308,17140.83,29.52,-1.00,-1.0,2446
5767,2140767,17004,-260,1284,17054.39,29.52,-1.00,-1.0,2387
5770,2140770,16936,-292,1080,16972.91,29.57,-1.00,-1.0,2437
5773,2140773,17036,-288,1216,17081.77,29.57,-1.00,-1.0,2373
5776,2140776,16992,-292,1396,17051.75,29.47,-1.00,-1.0,2445
5778,2140778,17048,-332,1164,17090.92,29.47,-1.00,-1.0,2372
5781,2140781,16908,-264,1384,16966.60,29.52,-1.00,-1.0,2371
5784,2140784,17000,-284,1244,17047.82,29.52,-1.00,-1.0,2445
5787,2140787,17012,-336,1332,17067.38,29.52,-1.00,-1.0,2376
5793,2140793,16900,-328,1124,16940.51,29.42,-1.00,-1.0,2476
5796,2140796,17000,-392,1180,17045.41,29.47,-1.00,-1.0,2373
5799,2140799,16988,-276,1112,17026.59,29.38,-1.00,-1.0,2454
5802,2140802,17004,-312,1176,17047.47,29.61,-1.00,-1.0,2378
5805,2140805,17104,-328,1136,17144.82,29.57,-1.00,-1.0,2449
5807,2140807,17076,-400,1000,17109.93,29.47,-1.00,-1.0,2380
5810,2140810,17208,-244,1216,17252.64,29.47,-1.00,-1.0,2437
5813,2140813,17048,-340,1180,17092.17,29.47,-1.00,-1.0,2372
5818,2140818,17116,-360,1224,17163.49,29.57,-1.00,-1.0,2455
5820,2140820,17032,-348,1268,17082.68,29.47,-1.00,-1.0,2379
5823,2140823,17004,-260,1208,17048.84,29.57,-1.00,-1.0,2440
5826,2140826,17032,-212,1316,17084.08,29.47,-1.00,-1.0,2360
5828,2140828,17024,-216,1320,17076.46,29.42,-1.00,-1.0,2370
5831,2140831,17008,-272,1080,17044.43,29.38,-1.00,-1.0,2454
5834,2140834,17008,-228,1244,17054.96,29.52,-1.00,-1.0,2376
5837,2140837,17144,-200,1384,17200.94,29.47,-1.00,-1.0,2429
5840,2140840,16964,-164,1344,17017.95,29.47,-1.00,-1.0,2376
5845,2140845,16948,-268,1404,17008.17,29.52,-1.00,-1.0,2450
5847,2140847,17012,-296,1336,17066.95,29.52,-1.00,-1.0,2373
5850,2140850,17012,-368,1440,17076.80,29.47,-1.00,-1.0,2453
5853,2140853,17056,-300,1320,17109.63,29.47,-1.00,-1.0,2374
5856,2140856,16960,-224,1384,17017.85,29.47,-1.00,-1.0,2449
5858,2140858,16948,-388,1252,16998.61,29.47,-1.00,-1.0,2373
5861,2140861,16992,-384,1260,17042.98,29.47,-1.00,-1.0,2438
5864,2140864,16948,-388,1176,16993.18,29.57,-1.00,-1.0,2374
5869,2140869,16980,-360,1320,17035.04,29.47,-1.00,-1.0,2441
5872,2140872,17076,-412,1308,17130.98,29.47,-1.00,-1.0,2382
5874,2140874,16996,-408,1272,17048.42,29.52,-1.00,-1.0,2437
5877,2140877,17020,-424,1168,17065.30,29.57,-1.00,-1.0,2370
5880,2140880,17072,-272,1124,17111.12,29.52,-1.00,-1.0,2376
5883,2140883,16980,-280,1096,17017.64,29.57,-1.00,-1.0,2441
5885,2140885,17036,-392,1196,17082.43,29.57,-1.00,-1.0,2373
5888,2140888,16992,-340,1404,17053.29,29.47,-1.00,-1.0,2451
5891,2140891,17064,-300,1144,17104.94,29.57,-1.00,-1.0,2377
5896,2140896,17064,-300,1252,17112.50,29.57,-1.00,-1.0,2460
5899,2140899,16988,-260,1388,17046.59,29.47,-1.00,-1.0,2372
5901,2140901,16992,-364,1216,17039.34,29.47,-1.00,-1.0,2447
5904,2140904,17048,-272,1128,17087.44,29.47,-1.00,-1.0,2385
5907,2140907,17068,-220,1348,17122.56,29.52,-1.00,-1.0,2439
5910,2140910,16980,-220,1260,17028.11,29.52,-1.00,-1.0,2371
5912,2140912,17000,-372,1372,17059.33,29.52,-1.00,-1.0,2439
5915,2140915,32767,-15008,-15812,39356.52,29.52,-1.00,-1.0,2372
5920,2140920,23120,14796,15656,31600.10,29.47,-1.00,-1.0,2453
5923,2140923,22940,18504,-7428,30394.36,29.47,-1.00,-1.0,2372
5926,2140926,8324,11532,11396,18224.84,29.47,-1.00,-1.0,2438
5929,2140929,18036,-5660,-7616,20379.80,29.57,-1.00,-1.0,2375
5931,2140931,28848,23480,3916,37401.24,29.42,-1.00,-1.0,2441
5934,2140934,4904,-22948,6596,24375.54,29.47,-1.00,-1.0,2369
5937,2140937,32767,1072,-5304,33210.81,29.42,-1.00,-1.0,2371
5939,2140939,7536,-8408,-6376,12966.85,29.47,-1.00,-1.0,2436
5942,2140942,17352,-7184,7120,20084.72,29.57,-1.00,-1.0,2371
5947,2140947,17592,-15364,2608,23501.76,29.47,-1.00,-1.0,2452
5950,2140950,27736,27220,4292,39097.77,29.52,-1.00,-1.0,2371
5953,2140953,-116,-13120,-1644,13223.11,29.47,-1.00,-1.0,2445
5955,2140955,25652,3072,-8088,27071.72,29.57,-1.00,-1.0,2374
5958,2140958,21268,3804,-168,21606.17,29.52,-1.00,-1.0,2451
5961,2140961,19580,-12288,5320,23720.74,29.47,-1.00,-1.0,2377
5964,2140964,16100,12052,1772,20189.12,29.52,-1.00,-1.0,2436
5967,2140967,17260,-12824,3484,21783.04,29.52,-1.00,-1.0,2378
5972,2140972,19352,2480,-2604,19683.27,29.52,-1.00,-1.0,2460
5974,2140974,16548,-8716,-4528,19243.38,29.52,-1.00,-1.0,2381
5977,2140977,16964,2640,-1388,17224.21,29.52,-1.00,-1.0,2436
5980,2140980,22112,-1624,3000,22373.60,29.52,-1.00,-1.0,2371
5983,2140983,13760,2072,-3032,14241.62,29.57,-1.00,-1.0,2446
5985,2140985,16148,-1968,1044,16300.95,29.57,-1.00,-1.0,2374
5988,2140988,15004,-724,1712,15118.70,29.47,-1.00,-1.0,2438
5991,2140991,12536,-2144,-724,12738.61,29.47,-1.00,-1.0,2371
5996,2140996,18724,412,1920,18826.69,29.52,-1.00,-1.0,2459
5999,2140999,16512,-4168,1596,17104.55,29.57,-1.00,-1.0,2372
6001,2141001,15348,5240,1424,16280.25,29.52,-1.00,-1.0,2370
6004,2141004,17224,-4504,2264,17946.53,29.47,-1.00,-1.0,2437
6007,2141007,18116,3340,1184,18459.33,29.57,-1.00,-1.0,2375
6009,2141009,16876,-4076,636,17372.90,29.57,-1.00,-1.0,2439
6012,2141012,16224,2836,488,16477.23,29.57,-1.00,-1.0,2371
6015,2141015,16124,-1560,476,16206.28,29.57,-1.00,-1.0,2440
6018,2141018,17452,-1212,504,17501.29,29.47,-1.00,-1.0,2379
6022,2141022,16292,-2192,1860,16543.69,29.47,-1.00,-1.0,2453
6025,2141025,15928,2088,3328,16405.38,29.57,-1.00,-1.0,2372
6028,2141028,16220,-728,4,16236.33,29.57,-1.00,-1.0,2438
6031,2141031,17268,-220,1860,17369.28,29.57,-1.00,-1.0,2368
6034,2141034,18360,2244,1852,18589.11,29.61,-1.00,-1.0,2441
6036,2141036,17496,-1024,12,17525.95,29.57,-1.00,-1.0,2372
6039,2141039,17280,496,12,17287.12,29.52,-1.00,-1.0,2436
6042,2141042,17480,-32,1356,17532.54,29.42,-1.00,-1.0,2368
6044,2141044,16804,-124,2256,16955.21,29.52,-1.00,-1.0,2380
