timestamp_ms,global_ms,accel_x,accel_y,accel_z,accel_mag,temp_c,voltage,soc,loop_us
2,2135002,17004,-268,1264,17053.02,29.66,-1.00,-1.0,2498
9,2135009,17004,-348,1232,17052.12,29.66,-1.00,-1.0,2470
12,2135012,17092,-228,1384,17149.46,29.75,-1.00,-1.0,2437
15,2135015,17044,-268,1152,17084.99,29.71,-1.00,-1.0,2426
17,2135017,16976,-248,1272,17025.39,29.71,-1.00,-1.0,2391
20,2135020,17056,-332,1068,17092.63,29.66,-1.00,-1.0,2370
23,2135023,17124,-388,1156,17167.36,29.66,-1.00,-1.0,2423
25,2135025,17020,-348,1224,17067.50,29.66,-1.00,-1.0,2393
28,2135028,17020,-284,1232,17066.89,29.66,-1.00,-1.0,2428
31,2135031,16968,-364,1344,17025.04,29.66,-1.00,-1.0,2408
36,2135036,17072,-420,1200,17119.28,29.66,-1.00,-1.0,2444
39,2135039,17008,-288,1268,17057.63,29.75,-1.00,-1.0,2383
41,2135041,17052,-280,1160,17093.70,29.71,-1.00,-1.0,2445
44,2135044,17036,-360,1132,17077.36,29.61,-1.00,-1.0,2381
47,2135047,17016,-292,1296,17067.78,29.71,-1.00,-1.0,2371
49,2135049,17048,-424,1300,17102.75,29.75,-1.00,-1.0,2434
52,2135052,17012,-224,1288,17062.16,29.57,-1.00,-1.0,2374
55,2135055,17004,-240,1296,17055.01,29.66,-1.00,-1.0,2434
58,2135058,17128,-340,1256,17177.36,29.75,-1.00,-1.0,2383
63,2135063,16936,-356,1412,16998.49,29.66,-1.00,-1.0,2445
65,2135065,16980,-336,1368,17038.33,29.66,-1.00,-1.0,2371
68,2135068,17104,-236,1192,17147.11,29.75,-1.00,-1.0,2452
71,2135071,16984,-284,1328,17038.21,29.66,-1.00,-1.0,2381
74,2135074,16936,-304,1400,16996.48,29.66,-1.00,-1.0,2424
77,2135077,17176,-300,1272,17225.65,29.66,-1.00,-1.0,2377
79,2135079,17000,-336,1340,17056.04,29.71,-1.00,-1.0,2369
82,2135082,16972,-304,1208,17017.65,29.66,-1.00,-1.0,2435
85,2135085,17104,-336,1088,17141.86,29.71,-1.00,-1.0,2375
90,2135090,17036,-260,1300,17087.51,29.80,-1.00,-1.0,2435
92,2135092,16960,-272,1188,17003.73,29.71,-1.00,-1.0,2384
95,2135095,16920,-288,1172,16962.99,29.57,-1.00,-1.0,2437
98,2135098,17004,-340,1328,17059.17,29.66,-1.00,-1.0,2376
101,2135101,17044,-288,1156,17085.59,29.66,-1.00,-1.0,2442
103,2135103,17044,-236,1100,17081.09,29.75,-1.00,-1.0,2373
106,2135106,17028,-204,1204,17071.73,29.71,-1.00,-1.0,2449
109,2135109,17060,-228,1116,17097.98,29.66,-1.00,-1.0,2383
112,2135112,16932,-368,1080,16970.40,29.61,-1.00,-1.0,2370
117,2135117,17040,-292,1204,17084.98,29.71,-1.00,-1.0,2439
119,2135119,17024,-296,1172,17066.86,29.61,-1.00,-1.0,2391
122,2135122,16976,-280,1148,17017.08,29.66,-1.00,-1.0,2437
125,2135125,17072,-280,1148,17112.85,29.66,-1.00,-1.0,2375
128,2135128,17048,-236,1288,17098.21,29.66,-1.00,-1.0,2442
130,2135130,17024,-320,1228,17071.23,29.75,-1.00,-1.0,2375
133,2135133,17136,-372,1276,17187.47,29.61,-1.00,-1.0,2436
136,2135136,17068,-308,1184,17111.79,29.57,-1.00,-1.0,2374
141,2135141,17040,-368,1384,17100.07,29.66,-1.00,-1.0,2435
144,2135144,17060,-312,1148,17101.43,29.57,-1.00,-1.0,2388
147,2135147,17096,-344,1260,17145.82,29.61,-1.00,-1.0,2446
149,2135149,17016,-240,1240,17062.81,29.71,-1.00,-1.0,2381
152,2135152,16984,-300,1320,17037.86,29.66,-1.00,-1.0,2371
155,2135155,17016,-392,1260,17067.09,29.75,-1.00,-1.0,2439
157,2135157,16984,-260,1260,17032.66,29.66,-1.00,-1.0,2374
160,2135160,17136,-268,1180,17178.67,29.66,-1.00,-1.0,2438
163,2135163,17008,-340,1240,17056.53,29.66,-1.00,-1.0,2376
168,2135168,17072,-348,1328,17127.11,29.66,-1.00,-1.0,2436
171,2135171,16968,-288,1216,17013.95,29.75,-1.00,-1.0,2389
174,2135174,16984,-204,1300,17034.90,29.66,-1.00,-1.0,2441
176,2135176,17064,-284,1140,17104.40,29.75,-1.00,-1.0,2375
179,2135179,16880,-308,1268,16930.36,29.80,-1.00,-1.0,2434
182,2135182,17036,-276,1236,17083.01,29.75,-1.00,-1.0,2376
185,2135185,17080,-400,1148,17123.21,29.61,-1.00,-1.0,2440
187,2135187,16996,-420,1376,17056.78,29.71,-1.00,-1.0,2375
190,2135190,17024,-368,1320,17079.06,29.75,-1.00,-1.0,2373
195,2135195,16912,-232,1304,16963.79,29.71,-1.00,-1.0,2451
198,2135198,17008,-272,1240,17055.31,29.71,-1.00,-1.0,2384
201,2135201,16928,-372,1232,16976.85,29.66,-1.00,-1.0,2442
203,2135203,17088,-264,1268,17137.01,29.75,-1.00,-1.0,2379
206,2135206,16968,-388,1228,17016.80,29.66,-1.00,-1.0,2420
209,2135209,17008,-308,1364,17065.39,29.66,-1.00,-1.0,2374
212,2135212,17056,-412,1212,17103.97,29.75,-1.00,-1.0,2440
214,2135214,16924,-284,1308,16976.85,29.85,-1.00,-1.0,2376
219,2135219,17068,-308,1348,17123.92,29.71,-1.00,-1.0,2438
222,2135222,16976,-284,1428,17038.32,29.71,-1.00,-1.0,2384
225,2135225,17048,-340,1224,17095.27,29.71,-1.00,-1.0,2443
228,2135228,17056,-396,1396,17117.62,29.71,-1.00,-1.0,2375
230,2135230,16988,-300,1216,17034.11,29.66,-1.00,-1.0,2370
233,2135233,17000,-300,1200,17044.94,29.66,-1.00,-1.0,2432
236,2135236,17028,-312,1152,17069.78,29.75,-1.00,-1.0,2374
238,2135238,17080,-240,1224,17125.48,29.71,-1.00,-1.0,2434
241,2135241,17092,-252,1312,17144.13,29.71,-1.00,-1.0,2374
246,2135246,16988,-328,1072,17024.95,29.66,-1.00,-1.0,2438
249,2135249,17008,-324,1204,17053.64,29.75,-1.00,-1.0,2390
251,2135251,17072,-252,1436,17134.14,29.71,-1.00,-1.0,2436
254,2135254,17028,-344,1312,17081.93,29.66,-1.00,-1.0,2374
257,2135257,17004,-352,1340,17060.35,29.61,-1.00,-1.0,2434
260,2135260,16964,-308,1084,17001.39,29.66,-1.00,-1.0,2375
263,2135263,17052,-332,1228,17099.38,29.61,-1.00,-1.0,2435
265,2135265,16988,-356,1244,17037.21,29.80,-1.00,-1.0,2374
268,2135268,17052,-256,1272,17101.29,29.66,-1.00,-1.0,2357
273,2135273,16940,-160,1236,16985.79,29.71,-1.00,-1.0,2445
275,2135275,17028,-316,1272,17078.37,29.61,-1.00,-1.0,2383
278,2135278,16988,-236,1272,17037.19,29.66,-1.00,-1.0,2444
281,2135281,17104,-408,1236,17153.45,29.75,-1.00,-1.0,2387
284,2135284,17032,-336,1200,17077.53,29.71,-1.00,-1.0,2436
287,2135287,17032,-428,1268,17084.50,29.66,-1.00,-1.0,2377
289,2135289,17028,-304,1384,17086.86,29.61,-1.00,-1.0,2432
292,2135292,17016,-352,1344,17072.62,29.61,-1.00,-1.0,2372
297,2135297,17160,-400,1204,17206.84,29.61,-1.00,-1.0,2471
300,2135300,17064,-320,1340,17119.52,29.71,-1.00,-1.0,2373
303,2135303,17036,-196,1200,17079.34,29.75,-1.00,-1.0,2440
306,2135306,17044,-308,1372,17101.91,29.66,-1.00,-1.0,2379
308,2135308,17024,-288,1216,17069.80,29.61,-1.00,-1.0,2370
311,2135311,16960,-176,1160,17000.54,29.61,-1.00,-1.0,2436
314,2135314,17028,-332,1284,17079.57,29.71,-1.00,-1.0,2371
316,2135316,17012,-408,1180,17057.76,29.57,-1.00,-1.0,2436
319,2135319,17040,-292,1208,17085.26,29.71,-1.00,-1.0,2374
324,2135324,17072,-388,1284,17124.61,29.61,-1.00,-1.0,2449
327,2135327,16924,-368,1164,16967.97,29.71,-1.00,-1.0,2374
330,2135330,17104,-236,1336,17157.72,29.66,-1.00,-1.0,2443
332,2135332,17024,-328,1148,17065.82,29.66,-1.00,-1.0,2374
335,2135335,16976,-300,1240,17023.87,29.57,-1.00,-1.0,2451
338,2135338,17036,-308,1428,17098.52,29.66,-1.00,-1.0,2382
341,2135341,17036,-224,1184,17078.56,29.61,-1.00,-1.0,2435
344,2135344,17000,-232,1272,17049.10,29.66,-1.00,-1.0,2380
346,2135346,16880,-376,1444,16945.82,29.71,-1.00,-1.0,2370
351,2135351,17080,-368,1296,17133.05,29.71,-1.00,-1.0,2447
354,2135354,16992,-320,1276,17042.85,29.61,-1.00,-1.0,2373
357,2135357,16972,-356,1288,17024.53,29.71,-1.00,-1.0,2439
359,2135359,17024,-236,1288,17074.29,29.61,-1.00,-1.0,2374
362,2135362,17028,-404,1188,17074.17,29.75,-1.00,-1.0,2438
365,2135365,17096,-416,1260,17147.42,29.71,-1.00,-1.0,2371
368,2135368,17108,-272,1200,17152.19,29.66,-1.00,-1.0,2441
370,2135370,17088,-292,1300,17139.87,29.75,-1.00,-1.0,2372
375,2135375,16964,-204,1216,17008.75,29.75,-1.00,-1.0,2450
378,2135378,16956,-300,1304,17008.71,29.66,-1.00,-1.0,2378
381,2135381,16976,-396,1344,17033.72,29.66,-1.00,-1.0,2434
384,2135384,17108,-384,1256,17158.34,29.66,-1.00,-1.0,2372
386,2135386,17036,-332,1328,17090.91,29.71,-1.00,-1.0,2377
389,2135389,17060,-432,1372,17120.53,29.71,-1.00,-1.0,2436
392,2135392,17148,-336,1272,17198.39,29.61,-1.00,-1.0,2375
395,2135395,17004,-312,1272,17054.37,29.75,-1.00,-1.0,2432
397,2135397,16980,-300,1304,17032.64,29.61,-1.00,-1.0,2371
402,2135402,17020,-328,1200,17065.40,29.71,-1.00,-1.0,2451
405,2135405,17028,-384,1328,17084.02,29.71,-1.00,-1.0,2372
408,2135408,17080,-236,1100,17117.01,29.66,-1.00,-1.0,2436
411,2135411,17044,-344,1288,17096.06,29.66,-1.00,-1.0,2373
414,2135414,16996,-296,1200,17040.88,29.66,-1.00,-1.0,2435
416,2135416,16980,-256,1284,17030.40,29.66,-1.00,-1.0,2372
419,2135419,17076,-324,1200,17121.18,29.71,-1.00,-1.0,2451
422,2135422,16980,-272,1220,17025.95,29.66,-1.00,-1.0,2380
424,2135424,17076,-372,1316,17130.67,29.61,-1.00,-1.0,2374
429,2135429,-7948,-2548,-32768,33814.27,29.66,-1.00,-1.0,2449
432,2135432,21980,11292,11656,27322.01,29.66,-1.00,-1.0,2374
435,2135435,19020,12208,-12488,25821.42,29.61,-1.00,-1.0,2444
437,2135437,5212,-19712,18408,27469.66,29.75,-1.00,-1.0,2371
440,2135440,25924,3160,9620,27831.35,29.71,-1.00,-1.0,2450
443,2135443,24140,22220,4816,33161.15,29.61,-1.00,-1.0,2381
446,2135446,7708,-20328,4584,22218.32,29.61,-1.00,-1.0,2438
449,2135449,20520,18220,5268,27942.63,29.71,-1.00,-1.0,2372
453,2135453,19952,-4624,7044,21658.29,29.61,-1.00,-1.0,2449
456,2135456,21800,14024,-1520,25965.80,29.71,-1.00,-1.0,2372
459,2135459,16308,-14516,2240,21947.27,29.61,-1.00,-1.0,2439
462,2135462,25796,23328,4700,35095.86,29.71,-1.00,-1.0,2381
464,2135464,11272,-11408,7872,17865.30,29.75,-1.00,-1.0,2425
467,2135467,26404,468,-5972,27074.99,29.71,-1.00,-1.0,2375
470,2135470,19020,612,-872,19049.81,29.66,-1.00,-1.0,2434
473,2135473,18472,-12756,4016,22804.79,29.66,-1.00,-1.0,2368
475,2135475,21200,14020,3740,25690.23,29.66,-1.00,-1.0,2370
480,2135480,20932,2724,3184,21347.29,29.66,-1.00,-1.0,2450
483,2135483,17828,268,-4012,18275.82,29.66,-1.00,-1.0,2373
486,2135486,15864,-8500,-4180,18476.71,29.71,-1.00,-1.0,2442
488,2135488,16508,2532,-2332,16863.08,29.66,-1.00,-1.0,2373
491,2135491,21300,-2572,2204,21567.63,29.71,-1.00,-1.0,2446
494,2135494,14028,2960,-2332,14525.31,29.71,-1.00,-1.0,2380
497,2135497,15692,-1608,292,15776.88,29.66,-1.00,-1.0,2439
500,2135500,15560,-492,44,15567.84,29.57,-1.00,-1.0,2443
505,2135505,18752,-1300,1696,18873.37,29.71,-1.00,-1.0,2462
508,2135508,17596,-96,660,17608.63,29.71,-1.00,-1.0,2386
510,2135510,19040,-1420,1972,19194.45,29.66,-1.00,-1.0,2435
513,2135513,16372,4960,1572,17178.92,29.66,-1.00,-1.0,2371
516,2135516,17652,-4888,2376,18469.73,29.61,-1.00,-1.0,2377
519,2135519,17360,4172,2076,17974.56,29.71,-1.00,-1.0,2438
521,2135521,17916,-3160,2188,18323.65,29.71,-1.00,-1.0,2375
524,2135524,16424,1364,188,16481.62,29.66,-1.00,-1.0,2451
527,2135527,16340,76,480,16347.23,29.71,-1.00,-1.0,2378
532,2135532,17692,1828,1860,17883.18,29.71,-1.00,-1.0,2452
535,2135535,17712,-2592,1700,17981.20,29.71,-1.00,-1.0,2374
537,2135537,17284,1296,2360,17492.45,29.66,-1.00,-1.0,2444
540,2135540,16164,172,116,16165.33,29.66,-1.00,-1.0,2377
543,2135543,15824,-972,-184,15854.89,29.66,-1.00,-1.0,2438
546,2135546,17168,1192,1468,17271.83,29.66,-1.00,-1.0,2369
548,2135548,17264,236,620,17276.74,29.66,-1.00,-1.0,2437
551,2135551,16588,1616,368,16670.59,29.66,-1.00,-1.0,2373
554,2135554,17116,-744,1336,17184.18,29.80,-1.00,-1.0,2377
559,2135559,17792,-928,1472,17876.89,29.61,-1.00,-1.0,2456
561,2135561,17472,-1596,1652,17622.35,29.71,-1.00,-1.0,2378
564,2135564,17572,252,2012,17688.61,29.66,-1.00,-1.0,2448
567,2135567,16764,-1624,1096,16878.10,29.66,-1.00,-1.0,2385
570,2135570,16184,-432,556,16199.31,29.66,-1.00,-1.0,2439
573,2135573,16820,-364,1768,16916.58,29.66,-1.00,-1.0,2376
575,2135575,16608,-64,1408,16667.70,29.66,-1.00,-1.0,2435
578,2135578,17460,-348,1200,17504.65,29.66,-1.00,-1.0,2372
583,2135583,17164,-1312,1184,17254.74,29.75,-1.00,-1.0,2456
586,2135586,17340,864,1372,17415.64,29.75,-1.00,-1.0,2390
589,2135589,15928,-876,1252,16001.13,29.71,-1.00,-1.0,2370
591,2135591,16960,-912,2016,17103.73,29.71,-1.00,-1.0,2436
594,2135594,16920,116,1532,16989.61,29.61,-1.00,-1.0,2373
597,2135597,17464,-896,1064,17519.31,29.66,-1.00,-1.0,2438
600,2135600,17676,84,1944,17782.78,29.61,-1.00,-1.0,2379
603,2135603,17432,-1728,1096,17551.69,29.75,-1.00,-1.0,2451
605,2135605,16964,492,1256,17017.55,29.66,-1.00,-1.0,2382
610,2135610,17096,-196,432,17102.58,29.75,-1.00,-1.0,2451
613,2135613,16984,552,964,17020.29,29.66,-1.00,-1.0,2385
616,2135616,17236,-996,1424,17323.38,29.66,-1.00,-1.0,2439
619,2135619,16972,540,992,17009.54,29.75,-1.00,-1.0,2374
621,2135621,17256,-852,1064,17309.75,29.71,-1.00,-1.0,2370
624,2135624,16720,236,1056,16754.98,29.71,-1.00,-1.0,2438
627,2135627,17260,24,864,17281.63,29.71,-1.00,-1.0,2374
630,2135630,17168,-100,1152,17206.90,29.75,-1.00,-1.0,2435
632,2135632,17012,-236,828,17033.77,29.61,-1.00,-1.0,2371
637,2135637,16764,-192,1244,16811.19,29.66,-1.00,-1.0,2454
640,2135640,16872,-608,1604,16958.98,29.57,-1.00,-1.0,2384
643,2135643,16800,-244,964,16829.40,29.71,-1.00,-1.0,2446
645,2135645,16916,-508,1296,16973.18,29.75,-1.00,-1.0,2380
648,2135648,17032,-296,1568,17106.59,29.71,-1.00,-1.0,2436
651,2135651,17140,-248,1460,17203.86,29.71,-1.00,-1.0,2370
654,2135654,17020,-416,1612,17101.23,29.61,-1.00,-1.0,2443
656,2135656,17132,-12,1964,17244.21,29.80,-1.00,-1.0,2375
659,2135659,17184,140,1444,17245.13,29.75,-1.00,-1.0,2371
664,2135664,16828,-132,1468,16892.43,29.61,-1.00,-1.0,2448
666,2135666,17200,280,1900,17306.89,29.71,-1.00,-1.0,2377
669,2135669,17008,-148,1160,17048.15,29.75,-1.00,-1.0,2437
672,2135672,16984,24,1380,17039.99,29.66,-1.00,-1.0,2370
675,2135675,17032,-376,1560,17107.43,29.75,-1.00,-1.0,2444
677,2135677,16992,-616,960,17030.24,29.66,-1.00,-1.0,2374
680,2135680,16896,-548,808,16924.18,29.66,-1.00,-1.0,2444
683,2135683,16820,-912,824,16864.85,29.75,-1.00,-1.0,2387
688,2135688,17148,-544,1120,17193.14,29.66,-1.00,-1.0,2446
691,2135691,17216,-804,1060,17267.33,29.57,-1.00,-1.0,2383
693,2135693,17104,-244,1120,17142.37,29.61,-1.00,-1.0,2373
696,2135696,16888,-692,1164,16942.21,29.75,-1.00,-1.0,2437
699,2135699,16960,40,1176,17000.77,29.61,-1.00,-1.0,2373
702,2135702,16872,-540,1040,16912.65,29.66,-1.00,-1.0,2443
704,2135704,16888,76,1260,16935.11,29.66,-1.00,-1.0,2371
707,2135707,17060,-148,1244,17105.94,29.66,-1.00,-1.0,2437
710,2135710,16992,-496,1216,17042.67,29.66,-1.00,-1.0,2373
715,2135715,17176,-924,1236,17245.19,29.66,-1.00,-1.0,2448
718,2135718,17008,-320,1320,17062.15,29.66,-1.00,-1.0,2378
721,2135721,17240,-812,1300,17308.00,29.66,-1.00,-1.0,2435
723,2135723,17092,-304,1504,17160.74,29.66,-1.00,-1.0,2373
726,2135726,17008,-780,1564,17097.56,29.61,-1.00,-1.0,2372
729,2135729,16948,-388,1332,17004.69,29.71,-1.00,-1.0,2445
731,2135731,16840,-420,1184,16886.79,29.71,-1.00,-1.0,2375
734,2135734,16724,-264,1328,16778.72,29.66,-1.00,-1.0,2423
737,2135737,16956,36,1416,17015.06,29.71,-1.00,-1.0,2372
742,2135742,17024,48,1312,17074.55,29.71,-1.00,-1.0,2451
745,2135745,17140,292,1444,17203.20,29.61,-1.00,-1.0,2377
747,2135747,17176,-204,1372,17231.92,29.57,-1.00,-1.0,2437
750,2135750,17080,-36,1444,17140.97,29.66,-1.00,-1.0,2373
753,2135753,17064,-404,1260,17115.22,29.66,-1.00,-1.0,2438
756,2135756,17068,-356,1180,17112.45,29.66,-1.00,-1.0,2372
758,2135758,16912,-512,1232,16964.54,29.75,-1.00,-1.0,2380
761,2135761,17056,-220,1224,17101.28,29.61,-1.00,-1.0,2431
764,2135764,17108,-152,1008,17138.34,29.61,-1.00,-1.0,2375
769,2135769,16968,48,876,16990.67,29.71,-1.00,-1.0,2454
772,2135772,17000,-280,1200,17044.60,29.61,-1.00,-1.0,2377
774,2135774,16968,-80,1216,17011.71,29.57,-1.00,-1.0,2439
777,2135777,17072,-284,1420,17133.31,29.61,-1.00,-1.0,2378
780,2135780,16976,-432,1456,17043.80,29.75,-1.00,-1.0,2438
783,2135783,17028,-196,1368,17083.99,29.66,-1.00,-1.0,2374
785,2135785,17040,-556,1300,17098.56,29.75,-1.00,-1.0,2435
788,2135788,17060,-676,960,17100.36,29.66,-1.00,-1.0,2370
793,2135793,17120,-580,976,17157.60,29.66,-1.00,-1.0,2455
796,2135796,17136,-484,964,17169.92,29.57,-1.00,-1.0,2377
798,2135798,17132,-660,1184,17185.54,29.66,-1.00,-1.0,2371
801,2135801,17016,-468,1008,17052.25,29.61,-1.00,-1.0,2454
804,2135804,17076,-492,1160,17122.43,29.61,-1.00,-1.0,2380
807,2135807,16976,-380,1232,17024.89,29.66,-1.00,-1.0,2440
810,2135810,17044,-212,1380,17101.09,29.80,-1.00,-1.0,2377
812,2135812,16992,-272,1508,17060.95,29.57,-1.00,-1.0,2440
815,2135815,16836,-28,1452,16898.52,29.66,-1.00,-1.0,2375
822,2135822,17016,-136,1204,17059.08,29.71,-1.00,-1.0,2456
825,2135825,17052,-344,1144,17093.79,29.71,-1.00,-1.0,2383
827,2135827,17052,-132,816,17072.02,29.66,-1.00,-1.0,2430
830,2135830,17088,-332,1200,17133.30,29.66,-1.00,-1.0,2375
833,2135833,17052,-360,1284,17104.06,29.66,-1.00,-1.0,2370
835,2135835,17000,-304,1416,17061.58,29.61,-1.00,-1.0,2437
838,2135838,16924,-272,1352,16980.10,29.66,-1.00,-1.0,2372
841,2135841,17048,-124,1488,17113.26,29.61,-1.00,-1.0,2437
844,2135844,17048,-20,1532,17116.71,29.71,-1.00,-1.0,2367
849,2135849,17044,12,1456,17106.08,29.75,-1.00,-1.0,2455
851,2135851,17100,-156,1412,17158.91,29.75,-1.00,-1.0,2386
854,2135854,17008,-264,1496,17075.71,29.66,-1.00,-1.0,2436
857,2135857,16964,-400,1596,17043.61,29.66,-1.00,-1.0,2373
860,2135860,16956,-472,1276,17010.49,29.71,-1.00,-1.0,2444
862,2135862,17056,-412,1216,17104.26,29.75,-1.00,-1.0,2374
865,2135865,17040,-460,1292,17095.10,29.71,-1.00,-1.0,2439
868,2135868,17172,-460,1248,17223.43,29.71,-1.00,-1.0,2370
871,2135871,16992,-500,1240,17044.52,29.66,-1.00,-1.0,2374
875,2135875,17028,-396,1412,17091.03,29.71,-1.00,-1.0,2447
878,2135878,17080,-496,1156,17126.26,29.71,-1.00,-1.0,2375
881,2135881,16956,-488,1292,17012.15,29.66,-1.00,-1.0,2443
883,2135883,16948,-304,1160,16990.37,29.61,-1.00,-1.0,2374
886,2135886,16984,-456,1120,17027.00,29.66,-1.00,-1.0,2447
889,2135889,16988,-428,1168,17033.48,29.75,-1.00,-1.0,2387
892,2135892,16968,-356,1012,17001.88,29.57,-1.00,-1.0,2436
895,2135895,17152,-432,1096,17192.41,29.66,-1.00,-1.0,2374
900,2135900,17020,-480,832,17047.08,29.66,-1.00,-1.0,2454
902,2135902,17176,-420,912,17205.32,29.66,-1.00,-1.0,2387
905,2135905,17224,-248,1088,17260.11,29.66,-1.00,-1.0,2435
908,2135908,17140,-404,1252,17190.41,29.71,-1.00,-1.0,2372
910,2135910,17088,-144,1100,17123.97,29.52,-1.00,-1.0,2369
913,2135913,16972,-252,1008,17003.78,29.66,-1.00,-1.0,2452
916,2135916,16852,-100,1008,16882.42,29.75,-1.00,-1.0,2382
919,2135919,16880,20,1056,16913.01,29.66,-1.00,-1.0,2423
922,2135922,16944,4,1208,16987.01,29.66,-1.00,-1.0,2378
927,2135927,17052,-304,1260,17101.19,29.75,-1.00,-1.0,2446
929,2135929,16964,-332,1312,17017.90,29.66,-1.00,-1.0,2384
932,2135932,17044,-256,1332,17097.88,29.57,-1.00,-1.0,2442
935,2135935,17140,-348,1280,17191.25,29.66,-1.00,-1.0,2375
938,2135938,17060,-292,1576,17135.13,29.61,-1.00,-1.0,2436
940,2135940,17040,-436,1468,17108.67,29.61,-1.00,-1.0,2361
943,2135943,17076,-128,1436,17136.75,29.61,-1.00,-1.0,2371
946,2135946,17092,-356,1336,17147.83,29.57,-1.00,-1.0,2444
948,2135948,17076,-148,1280,17124.55,29.66,-1.00,-1.0,2375
953,2135953,16984,-280,1224,17030.35,29.66,-1.00,-1.0,2448
956,2135956,17020,-268,1348,17075.40,29.75,-1.00,-1.0,2378
959,2135959,17104,-316,1416,17165.42,29.66,-1.00,-1.0,2450
962,2135962,16924,-324,1264,16974.23,29.66,-1.00,-1.0,2378
965,2135965,17012,-260,1316,17064.81,29.61,-1.00,-1.0,2449
967,2135967,17092,-380,1336,17148.35,29.61,-1.00,-1.0,2381
970,2135970,17028,-348,1280,17079.59,29.61,-1.00,-1.0,2435
973,2135973,17032,-308,1196,17076.72,29.71,-1.00,-1.0,2374
978,2135978,16996,-260,1188,17039.45,29.61,-1.00,-1.0,2450
981,2135981,17140,-284,1300,17191.57,29.61,-1.00,-1.0,2377
983,2135983,17080,-244,1232,17126.11,29.66,-1.00,-1.0,2371
986,2135986,17004,-276,1276,17054.04,29.66,-1.00,-1.0,2437
989,2135989,17108,-364,1216,17155.02,29.66,-1.00,-1.0,2375
992,2135992,17000,-460,1356,17060.20,29.71,-1.00,-1.0,2444
994,2135994,16992,-476,1408,17056.88,29.66,-1.00,-1.0,2375
997,2135997,17056,-420,1244,17106.46,29.71,-1.00,-1.0,2444
1000,2136000,16988,-244,1300,17039.42,29.71,-1.00,-1.0,2376
1005,2136005,16968,-196,1172,17009.56,29.66,-1.00,-1.0,2447
1008,2136008,16980,-124,1284,17028.93,29.57,-1.00,-1.0,2379
1011,2136011,16964,-180,1052,16997.54,29.61,-1.00,-1.0,2444
1013,2136013,17044,-240,1228,17089.87,29.61,-1.00,-1.0,2381
1016,2136016,16996,-280,1236,17043.18,29.71,-1.00,-1.0,2438
1019,2136019,16948,-300,1284,16999.22,29.71,-1.00,-1.0,2374
1022,2136022,17060,-336,1280,17111.25,29.66,-1.00,-1.0,2436
1024,2136024,17052,-296,1416,17113.25,29.71,-1.00,-1.0,2371
1027,2136027,17036,-304,1236,17083.48,29.66,-1.00,-1.0,2370
1032,2136032,16972,-212,1000,17002.76,29.66,-1.00,-1.0,2447
1035,2136035,16940,-164,1008,16970.76,29.75,-1.00,-1.0,2374
1038,2136038,16924,-196,904,16949.26,29.66,-1.00,-1.0,2437
1040,2136040,16940,-96,1148,16979.13,29.66,-1.00,-1.0,2373
1043,2136043,17060,-176,1124,17097.89,29.71,-1.00,-1.0,2451
1046,2136046,17032,-232,1204,17076.08,29.71,-1.00,-1.0,2378
1049,2136049,17076,-336,1172,17119.47,29.71,-1.00,-1.0,2447
1051,2136051,17124,-328,1448,17188.24,29.71,-1.00,-1.0,2380
1056,2136056,17040,-424,1376,17100.72,29.66,-1.00,-1.0,2448
1059,2136059,17024,-348,1556,17098.50,29.75,-1.00,-1.0,2378
1062,2136062,16968,-348,1096,17006.92,29.66,-1.00,-1.0,2442
1064,2136064,16960,-316,1084,16997.54,29.57,-1.00,-1.0,2359
1067,2136067,16896,-136,1240,16941.99,29.80,-1.00,-1.0,2438
1070,2136070,17036,-348,1324,17090.91,29.66,-1.00,-1.0,2373
1073,2136073,16916,-292,1384,16975.03,29.61,-1.00,-1.0,2375
1075,2136075,16984,-348,1360,17041.92,29.66,-1.00,-1.0,2439
1078,2136078,17056,-360,1360,17113.92,29.75,-1.00,-1.0,2371
1083,2136083,17044,-392,1288,17097.09,29.61,-1.00,-1.0,2454
1086,2136086,17008,-480,1572,17087.24,29.71,-1.00,-1.0,2380
1088,2136088,17084,-384,1372,17143.30,29.66,-1.00,-1.0,2424
1091,2136091,17056,-352,1084,17094.04,29.71,-1.00,-1.0,2375
1094,2136094,17064,-404,1204,17111.19,29.57,-1.00,-1.0,2438
1097,2136097,17100,-520,1048,17139.97,29.66,-1.00,-1.0,2369
1099,2136099,16996,-428,1036,17032.92,29.66,-1.00,-1.0,2437
1102,2136102,17048,-340,1116,17087.87,29.75,-1.00,-1.0,2372
1107,2136107,17148,-392,1264,17198.99,29.57,-1.00,-1.0,2455
1110,2136110,16964,-356,1196,17009.83,29.75,-1.00,-1.0,2380
1113,2136113,17040,-296,1244,17087.91,29.66,-1.00,-1.0,2441
1115,2136115,17012,-268,1240,17059.24,29.66,-1.00,-1.0,2372
1118,2136118,16984,-224,1208,17028.38,29.71,-1.00,-1.0,2370
1121,2136121,17016,-176,1368,17071.81,29.66,-1.00,-1.0,2446
1124,2136124,16964,-268,1304,17016.15,29.71,-1.00,-1.0,2377
1126,2136126,16992,-192,1168,17033.18,29.75,-1.00,-1.0,2439
1129,2136129,16940,-220,1112,16977.88,29.66,-1.00,-1.0,2376
1134,2136134,17008,-340,1120,17048.23,29.66,-1.00,-1.0,2464
1137,2136137,17104,-324,1296,17156.09,29.61,-1.00,-1.0,2365
1140,2136140,17044,-260,1244,17091.32,29.75,-1.00,-1.0,2443
1142,2136142,17036,-260,1480,17102.14,29.66,-1.00,-1.0,2378
1145,2136145,16944,-148,1420,17004.04,29.66,-1.00,-1.0,2425
1148,2136148,16904,-112,1492,16970.09,29.75,-1.00,-1.0,2373
1151,2136151,17036,-112,1400,17093.79,29.61,-1.00,-1.0,2441
1153,2136153,16960,-76,1332,17012.39,29.66,-1.00,-1.0,2373
1158,2136158,16964,40,1168,17004.21,29.66,-1.00,-1.0,2450
1161,2136161,16900,-232,1260,16948.49,29.66,-1.00,-1.0,2374
1164,2136164,17156,-276,1208,17200.69,29.71,-1.00,-1.0,2378
1167,2136167,17032,-488,1284,17087.30,29.66,-1.00,-1.0,2445
1169,2136169,17112,-448,1312,17168.07,29.66,-1.00,-1.0,2379
1172,2136172,17148,-516,1300,17204.95,29.66,-1.00,-1.0,2444
1175,2136175,17048,-368,1212,17094.99,29.66,-1.00,-1.0,2376
1178,2136178,17104,-344,1236,17152.05,29.75,-1.00,-1.0,2439
1180,2136180,16996,-388,1224,17044.43,29.66,-1.00,-1.0,2375
1185,2136185,17036,-280,1140,17076.40,29.66,-1.00,-1.0,2456
1188,2136188,16988,-288,1140,17028.64,29.66,-1.00,-1.0,2380
1191,2136191,17028,-348,1312,17082.02,29.66,-1.00,-1.0,2436
1194,2136194,17048,-432,1432,17113.49,29.80,-1.00,-1.0,2372
1196,2136196,17012,-400,1460,17079.22,29.71,-1.00,-1.0,2438
1199,2136199,17020,-440,1296,17074.94,29.71,-1.00,-1.0,2373
1202,2136202,16992,-488,1136,17036.92,29.71,-1.00,-1.0,2435
1205,2136205,16976,-368,1008,17009.88,29.61,-1.00,-1.0,2378
1210,2136210,16980,-408,1140,17023.12,29.71,-1.00,-1.0,2455
1212,2136212,17020,-340,1216,17066.77,29.61,-1.00,-1.0,2376
1215,2136215,17036,-256,1024,17068.67,29.66,-1.00,-1.0,2379
1218,2136218,16928,-288,1160,16970.14,29.66,-1.00,-1.0,2440
1221,2136221,16984,-320,1272,17034.57,29.66,-1.00,-1.0,2374
1223,2136223,16964,-312,1352,17020.65,29.71,-1.00,-1.0,2436
1226,2136226,16936,-224,1208,16980.50,29.71,-1.00,-1.0,2371
1229,2136229,16896,-128,1344,16949.85,29.71,-1.00,-1.0,2440
1232,2136232,17048,-300,1380,17106.39,29.61,-1.00,-1.0,2373
1237,2136237,17076,-320,1400,17136.28,29.61,-1.00,-1.0,2447
1239,2136239,17032,-364,1036,17067.36,29.71,-1.00,-1.0,2377
1242,2136242,16992,-356,1164,17035.54,29.66,-1.00,-1.0,2438
1245,2136245,17016,-284,1108,17054.40,29.61,-1.00,-1.0,2370
1248,2136248,16972,-224,1360,17027.88,29.75,-1.00,-1.0,2443
1251,2136251,17084,-220,1340,17137.88,29.71,-1.00,-1.0,2448
1254,2136254,17064,-276,1384,17122.26,29.75,-1.00,-1.0,2425
1256,2136256,17008,-280,1200,17052.58,29.66,-1.00,-1.0,2389
1259,2136259,17080,-280,1248,17127.82,29.66,-1.00,-1.0,2371
1264,2136264,16956,-248,1316,17008.80,29.71,-1.00,-1.0,2457
1266,2136266,17044,-260,1348,17099.20,29.71,-1.00,-1.0,2377
1269,2136269,17048,-260,1512,17116.89,29.66,-1.00,-1.0,2439
1272,2136272,16980,-332,1300,17032.93,29.75,-1.00,-1.0,2371
1275,2136275,17060,-304,1440,17123.37,29.66,-1.00,-1.0,2449
1278,2136278,17096,-344,1312,17149.72,29.66,-1.00,-1.0,2380
1280,2136280,17048,-288,1332,17102.38,29.71,-1.00,-1.0,2437
1283,2136283,17024,-352,1456,17089.78,29.71,-1.00,-1.0,2381
1288,2136288,17124,-332,1256,17173.21,29.66,-1.00,-1.0,2455
1291,2136291,17100,-376,1340,17156.54,29.66,-1.00,-1.0,2379
1293,2136293,17080,-324,1252,17128.89,29.61,-1.00,-1.0,2445
1296,2136296,17060,-336,1168,17103.24,29.61,-1.00,-1.0,2374
1299,2136299,17084,-296,1036,17117.94,29.61,-1.00,-1.0,2437
1302,2136302,17020,-288,1240,17067.54,29.61,-1.00,-1.0,2373
1304,2136304,17076,-268,1236,17122.77,29.66,-1.00,-1.0,2435
1307,2136307,17084,-396,1144,17126.84,29.71,-1.00,-1.0,2373
1310,2136310,17044,-196,1116,17081.62,29.75,-1.00,-1.0,2373
1315,2136315,17028,-288,1128,17067.75,29.66,-1.00,-1.0,2454
1317,2136317,17092,-176,1040,17124.52,29.66,-1.00,-1.0,2377
1320,2136320,16992,-236,1076,17027.67,29.61,-1.00,-1.0,2449
1323,2136323,17052,-240,1136,17091.48,29.71,-1.00,-1.0,2381
1326,2136326,17028,-272,1088,17064.89,29.61,-1.00,-1.0,2442
1329,2136329,17088,-260,1016,17120.15,29.61,-1.00,-1.0,2373
1331,2136331,17048,-156,1176,17089.22,29.66,-1.00,-1.0,2436
1334,2136334,16976,-196,1188,17018.65,29.61,-1.00,-1.0,2374
1339,2136339,16908,-176,1148,16947.84,29.71,-1.00,-1.0,2456
1342,2136342,17124,-348,1180,17168.13,29.71,-1.00,-1.0,2378
1345,2136345,17168,-352,1316,17221.96,29.66,-1.00,-1.0,2442
1347,2136347,17024,-340,1252,17073.36,29.66,-1.00,-1.0,2374
1350,2136350,16976,-332,1400,17036.87,29.57,-1.00,-1.0,2438
1353,2136353,17156,-252,1296,17206.73,29.66,-1.00,-1.0,2375
1356,2136356,16972,-340,1428,17035.36,29.71,-1.00,-1.0,2372
1358,2136358,17000,-332,1308,17053.48,29.71,-1.00,-1.0,2442
1361,2136361,16968,-316,1300,17020.66,29.71,-1.00,-1.0,2381
1366,2136366,17072,-356,1356,17129.47,29.71,-1.00,-1.0,2458
1369,2136369,17076,-336,1332,17131.17,29.71,-1.00,-1.0,2379
1372,2136372,17024,-320,1348,17080.28,29.66,-1.00,-1.0,2435
1374,2136374,17080,-384,1356,17138.04,29.75,-1.00,-1.0,2374
1377,2136377,17080,-444,1276,17133.35,29.66,-1.00,-1.0,2440
1380,2136380,17012,-328,1304,17065.06,29.66,-1.00,-1.0,2374
1383,2136383,17092,-388,1196,17138.19,29.75,-1.00,-1.0,2438
1385,2136385,17172,-348,1248,17220.81,29.66,-1.00,-1.0,2359
1390,2136390,17184,-444,1340,17241.88,29.57,-1.00,-1.0,2446
1393,2136393,17084,-300,1256,17132.73,29.66,-1.00,-1.0,2362
1396,2136396,16972,-360,1184,17017.06,29.61,-1.00,-1.0,2436
1399,2136399,17024,-272,1176,17066.74,29.66,-1.00,-1.0,2378
1402,2136402,16980,-236,1220,17025.41,29.71,-1.00,-1.0,2437
1404,2136404,17008,-304,1108,17046.76,29.71,-1.00,-1.0,2374
1407,2136407,17116,-340,1164,17158.90,29.71,-1.00,-1.0,2372
1410,2136410,16984,-356,1268,17034.99,29.57,-1.00,-1.0,2436
1412,2136412,17044,-308,1240,17091.82,29.66,-1.00,-1.0,2360
1418,2136418,17060,-328,1360,17117.27,29.71,-1.00,-1.0,2450
1420,2136420,17064,-256,1268,17112.96,29.61,-1.00,-1.0,2390
1423,2136423,17000,-280,1356,17056.29,29.75,-1.00,-1.0,2436
1426,2136426,16988,-284,1304,17040.34,29.57,-1.00,-1.0,2373
1429,2136429,16988,-272,1252,17036.24,29.66,-1.00,-1.0,2437
1431,2136431,17044,-352,1080,17081.81,29.66,-1.00,-1.0,2373
1434,2136434,17060,-260,1280,17109.93,29.71,-1.00,-1.0,2436
1437,2136437,16952,-296,1228,16999.00,29.66,-1.00,-1.0,2370
1442,2136442,17080,-308,1296,17131.87,29.57,-1.00,-1.0,2447
1445,2136445,17044,-268,1224,17090.00,29.57,-1.00,-1.0,2376
1447,2136447,17076,-340,1296,17128.48,29.61,-1.00,-1.0,2437
1450,2136450,16996,-160,1360,17051.08,29.61,-1.00,-1.0,2371
1453,2136453,17036,-252,1224,17081.77,29.71,-1.00,-1.0,2376
1456,2136456,16940,-228,1280,16989.82,29.66,-1.00,-1.0,2443
1458,2136458,16948,-276,1304,17000.33,29.66,-1.00,-1.0,2379
1461,2136461,17044,-440,1256,17095.88,29.57,-1.00,-1.0,2437
1464,2136464,16932,-468,1200,16980.92,29.66,-1.00,-1.0,2374
1469,2136469,17008,-408,1172,17053.21,29.57,-1.00,-1.0,2456
1471,2136471,17004,-404,1412,17067.31,29.71,-1.00,-1.0,2377
1474,2136474,17124,-256,1248,17171.33,29.52,-1.00,-1.0,2436
1477,2136477,17008,-236,1272,17057.13,29.61,-1.00,-1.0,2370
1480,2136480,17036,-372,1200,17082.26,29.75,-1.00,-1.0,2448
1483,2136483,16980,-436,1132,17023.28,29.61,-1.00,-1.0,2377
1485,2136485,17028,-308,1232,17075.29,29.66,-1.00,-1.0,2444
1488,2136488,17028,-216,1364,17083.91,29.66,-1.00,-1.0,2377
1493,2136493,17128,-316,1324,17182.00,29.61,-1.00,-1.0,2450
1495,2136495,16996,-304,1176,17039.35,29.61,-1.00,-1.0,2378
1498,2136498,16984,-284,1404,17044.30,29.66,-1.00,-1.0,2446
1501,2136501,17044,-448,1324,17101.22,29.66,-1.00,-1.0,2387
1504,2136504,17028,-340,1068,17064.85,29.66,-1.00,-1.0,2373
1506,2136506,17084,-240,1216,17128.90,29.71,-1.00,-1.0,2437
1509,2136509,16968,-340,1252,17017.52,29.61,-1.00,-1.0,2374
1512,2136512,17112,-288,1140,17152.35,29.66,-1.00,-1.0,2434
1515,2136515,16956,-252,1144,16996.42,29.61,-1.00,-1.0,2379
1520,2136520,20456,-2392,10080,22929.81,29.71,-1.00,-1.0,2455
1522,2136522,-6604,2936,-32768,33555.55,29.61,-1.00,-1.0,2375
1525,2136525,22644,36,28080,36072.68,29.57,-1.00,-1.0,2453
1528,2136528,19040,-5032,-13636,23953.77,29.66,-1.00,-1.0,2379
1531,2136531,13672,5256,19652,24510.21,29.66,-1.00,-1.0,2442
1534,2136534,20376,1984,-11360,23412.97,29.66,-1.00,-1.0,2380
1536,2136536,19216,16932,2144,25701.05,29.71,-1.00,-1.0,2437
1539,2136539,12944,-22420,10968,28115.84,29.61,-1.00,-1.0,2373
1544,2136544,6780,3104,4476,8697.00,29.71,-1.00,-1.0,2457
1547,2136547,29488,-6344,9548,31637.84,29.66,-1.00,-1.0,2378
1550,2136550,18860,14476,-1188,23804.74,29.71,-1.00,-1.0,2434
1552,2136552,19776,-13816,212,24125.03,29.61,-1.00,-1.0,2371
1555,2136555,21116,3996,6208,22369.46,29.66,-1.00,-1.0,2438
1558,2136558,4420,-9560,-1136,10593.42,29.71,-1.00,-1.0,2374
1561,2136561,24624,1632,-6080,25415.96,29.66,-1.00,-1.0,2372
1563,2136563,18564,-1740,-2352,18793.13,29.61,-1.00,-1.0,2445
1566,2136566,16164,-10420,7756,20736.61,29.66,-1.00,-1.0,2388
1571,2136571,11772,-9904,-1068,15421.08,29.75,-1.00,-1.0,2463
1574,2136574,20424,3864,4808,21335.12,29.57,-1.00,-1.0,2380
1577,2136577,17580,44,-2940,17824.20,29.61,-1.00,-1.0,2436
1579,2136579,16696,-5428,-4996,18253.21,29.71,-1.00,-1.0,2374
1582,2136582,17636,4256,3980,18573.70,29.61,-1.00,-1.0,2438
1585,2136585,16768,-5552,24,17663.27,29.61,-1.00,-1.0,2374
1588,2136588,13820,4712,-2024,14740.83,29.75,-1.00,-1.0,2441
1590,2136590,15616,-2636,-152,15837.65,29.66,-1.00,-1.0,2371
1595,2136595,16184,2352,324,16357.22,29.71,-1.00,-1.0,2447
1598,2136598,18616,-4876,1004,19270.15,29.71,-1.00,-1.0,2375
1601,2136601,17444,4544,2320,18174.80,29.66,-1.00,-1.0,2438
1604,2136604,17140,-4568,2296,17886.25,29.66,-1.00,-1.0,2380
1607,2136607,16216,4720,1888,16994.16,29.66,-1.00,-1.0,2437
1609,2136609,16588,-2356,1628,16833.38,29.66,-1.00,-1.0,2374
1612,2136612,17448,1336,1196,17539.90,29.71,-1.00,-1.0,2446
1615,2136615,16148,-1560,-64,16223.30,29.71,-1.00,-1.0,2376
1617,2136617,16320,1412,-196,16382.14,29.61,-1.00,-1.0,2370
1622,2136622,17232,-2524,780,17433.32,29.61,-1.00,-1.0,2454
1625,2136625,16668,292,468,16677.12,29.71,-1.00,-1.0,2377
1628,2136628,16712,-756,1732,16818.51,29.61,-1.00,-1.0,2485
1631,2136631,16712,360,2572,16912.59,29.61,-1.00,-1.0,2375
1634,2136634,16372,580,256,16384.27,29.71,-1.00,-1.0,2438
1636,2136636,15896,-1588,-500,15982.95,29.61,-1.00,-1.0,2363
1639,2136639,18172,2744,2096,18497.14,29.57,-1.00,-1.0,2436
1642,2136642,17316,-2272,356,17468.04,29.61,-1.00,-1.0,2371
1647,2136647,16812,-420,1732,16906.20,29.61,-1.00,-1.0,2441
1650,2136650,17564,-376,2404,17731.74,29.71,-1.00,-1.0,2377
1652,2136652,17768,-1228,1644,17886.10,29.66,-1.00,-1.0,2441
1655,2136655,17112,-756,1872,17230.68,29.66,-1.00,-1.0,2373
1658,2136658,17332,-4,2996,17589.04,29.66,-1.00,-1.0,2437
1661,2136661,16780,-1064,856,16835.47,29.66,-1.00,-1.0,2378
1663,2136663,16600,-336,884,16626.92,29.61,-1.00,-1.0,2379
1666,2136666,17000,-440,1040,17037.46,29.57,-1.00,-1.0,2436
1669,2136669,16796,-496,704,16818.06,29.61,-1.00,-1.0,2375
1674,2136674,17236,364,924,17264.59,29.66,-1.00,-1.0,2456
1676,2136676,16776,-1232,1340,16874.47,29.66,-1.00,-1.0,2381
1679,2136679,17080,572,1140,17127.56,29.61,-1.00,-1.0,2454
1682,2136682,16660,-392,1024,16696.04,29.71,-1.00,-1.0,2383
1685,2136685,17200,-1340,1488,17316.17,29.66,-1.00,-1.0,2439
1688,2136688,17164,-260,2272,17315.67,29.61,-1.00,-1.0,2372
1690,2136690,17244,-808,1300,17311.80,29.66,-1.00,-1.0,2438
1693,2136693,17300,-524,2116,17436.80,29.66,-1.00,-1.0,2370
1698,2136698,17500,-1432,1508,17623.13,29.66,-1.00,-1.0,2443
1701,2136701,16556,-8,860,16578.32,29.57,-1.00,-1.0,2380
1703,2136703,17224,-1092,656,17271.04,29.66,-1.00,-1.0,2440
1706,2136706,16872,372,860,16898.00,29.66,-1.00,-1.0,2371
1709,2136709,16988,-824,1140,17046.13,29.61,-1.00,-1.0,2366
1712,2136712,16780,464,1028,16817.86,29.61,-1.00,-1.0,2445
1714,2136714,17128,-472,920,17159.18,29.71,-1.00,-1.0,2376
1717,2136717,17208,-224,688,17223.21,29.66,-1.00,-1.0,2446
1720,2136720,17360,308,536,17371.00,29.71,-1.00,-1.0,2371
1725,2136725,16976,124,1412,17035.07,29.61,-1.00,-1.0,2448
1728,2136728,16764,-240,1240,16811.51,29.71,-1.00,-1.0,2381
1730,2136730,16780,-644,1188,16834.32,29.66,-1.00,-1.0,2433
1733,2136733,17052,-92,1280,17100.22,29.66,-1.00,-1.0,2375
1736,2136736,17012,-984,1236,17085.20,29.66,-1.00,-1.0,2439
1739,2136739,17044,168,1080,17079.01,29.75,-1.00,-1.0,2370
1741,2136741,17080,-596,1492,17155.40,29.66,-1.00,-1.0,2438
1744,2136744,16908,-96,1548,16978.99,29.57,-1.00,-1.0,2371
1747,2136747,16996,-472,1356,17056.54,29.71,-1.00,-1.0,2379
1752,2136752,17056,60,1400,17113.47,29.61,-1.00,-1.0,2444
1754,2136754,16932,128,984,16961.05,29.61,-1.00,-1.0,2382
1757,2136757,16880,-324,1256,16929.76,29.66,-1.00,-1.0,2448
1760,2136760,17192,-8,1544,17261.20,29.75,-1.00,-1.0,2383
1763,2136763,17028,-388,1204,17074.92,29.57,-1.00,-1.0,2439
1766,2136766,17252,-164,1504,17318.21,29.66,-1.00,-1.0,2373
1768,2136768,16984,-524,1628,17069.89,29.57,-1.00,-1.0,2437
1771,2136771,17096,-648,1224,17152.01,29.66,-1.00,-1.0,2370
1776,2136776,16896,-704,988,16939.50,29.66,-1.00,-1.0,2446
1779,2136779,17220,-748,1320,17286.71,29.66,-1.00,-1.0,2379
1782,2136782,17176,-468,1380,17237.70,29.71,-1.00,-1.0,2445
1784,2136784,17184,-820,984,17231.67,29.66,-1.00,-1.0,2372
1787,2136787,16936,-180,1008,16966.93,29.61,-1.00,-1.0,2441
1790,2136790,17100,-932,1268,17172.26,29.71,-1.00,-1.0,2374
1793,2136793,16872,40,1220,16916.10,29.66,-1.00,-1.0,2376
1795,2136795,17016,-604,1156,17065.91,29.75,-1.00,-1.0,2445
1798,2136798,16912,-212,1276,16961.39,29.66,-1.00,-1.0,2366
1803,2136803,17148,-352,1088,17186.09,29.66,-1.00,-1.0,2456
1806,2136806,17044,-56,1268,17091.19,29.66,-1.00,-1.0,2383
1809,2136809,17200,-596,1320,17260.87,29.71,-1.00,-1.0,2438
1811,2136811,17060,-140,1356,17114.38,29.75,-1.00,-1.0,2370
1814,2136814,17176,-668,1224,17232.51,29.71,-1.00,-1.0,2439
1817,2136817,17020,-348,1236,17068.37,29.71,-1.00,-1.0,2372
1820,2136820,16984,-668,1540,17066.75,29.61,-1.00,-1.0,2443
1822,2136822,16956,-308,1336,17011.34,29.61,-1.00,-1.0,2370
1828,2136828,16840,-428,1236,16890.72,29.71,-1.00,-1.0,2442
1830,2136830,16904,-148,1408,16963.18,29.57,-1.00,-1.0,2381
1833,2136833,16956,-328,1412,17017.85,29.61,-1.00,-1.0,2441
1836,2136836,16988,-12,1472,17051.66,29.61,-1.00,-1.0,2371
1839,2136839,17044,48,1552,17114.58,29.66,-1.00,-1.0,2370
1841,2136841,17204,-148,1292,17253.08,29.57,-1.00,-1.0,2447
1844,2136844,17076,-36,1304,17125.76,29.66,-1.00,-1.0,2384
1847,2136847,17056,-456,1112,17098.29,29.71,-1.00,-1.0,2440
1850,2136850,17108,-316,1216,17154.07,29.61,-1.00,-1.0,2373
1855,2136855,17136,-532,1260,17190.49,29.66,-1.00,-1.0,2449
1857,2136857,17020,-240,976,17049.65,29.66,-1.00,-1.0,2389
1860,2136860,17000,-328,800,17021.97,29.71,-1.00,-1.0,2438
1863,2136863,17028,-288,1056,17063.14,29.61,-1.00,-1.0,2372
1866,2136866,16928,-272,1320,16981.57,29.61,-1.00,-1.0,2443
1868,2136868,16904,-60,1084,16938.83,29.61,-1.00,-1.0,2373
1871,2136871,16912,-308,1240,16960.20,29.66,-1.00,-1.0,2440
1874,2136874,17060,-352,1464,17126.32,29.71,-1.00,-1.0,2369
1877,2136877,17112,-216,1456,17175.19,29.75,-1.00,-1.0,2375
1881,2136881,17156,-500,1036,17194.52,29.57,-1.00,-1.0,2448
1884,2136884,17044,-516,1132,17089.34,29.71,-1.00,-1.0,2372
1887,2136887,17072,-408,1076,17110.74,29.61,-1.00,-1.0,2427
1890,2136890,16988,-544,1120,17033.57,29.61,-1.00,-1.0,2372
1892,2136892,16948,-504,1148,16994.31,29.57,-1.00,-1.0,2439
1895,2136895,17036,-412,1224,17084.88,29.71,-1.00,-1.0,2370
1898,2136898,17028,-372,1284,17080.39,29.57,-1.00,-1.0,2438
1901,2136901,17052,-300,1360,17108.78,29.75,-1.00,-1.0,2377
1905,2136905,16996,-112,1480,17060.69,29.71,-1.00,-1.0,2444
1908,2136908,17036,-32,1388,17092.48,29.71,-1.00,-1.0,2381
1911,2136911,16956,-148,1260,17003.39,29.66,-1.00,-1.0,2444
1914,2136914,16988,-244,1284,17038.20,29.61,-1.00,-1.0,2369
1916,2136916,16980,-232,1056,17014.39,29.66,-1.00,-1.0,2441
1919,2136919,17040,-252,1228,17086.05,29.66,-1.00,-1.0,2373
1922,2136922,16984,-168,940,17010.82,29.66,-1.00,-1.0,2437
1925,2136925,17016,-272,928,17043.46,29.57,-1.00,-1.0,2373
1927,2136927,16984,-368,1176,17028.64,29.66,-1.00,-1.0,2378
1932,2136932,16960,-396,1392,17021.63,29.66,-1.00,-1.0,2450
1935,2136935,16932,-208,1436,16994.06,29.61,-1.00,-1.0,2393
1938,2136938,17024,-80,1312,17074.67,29.61,-1.00,-1.0,2443
1941,2136941,17016,-96,1420,17075.42,29.52,-1.00,-1.0,2371
1943,2136943,17012,-164,1520,17080.56,29.66,-1.00,-1.0,2438
1946,2136946,17008,-352,1544,17081.57,29.66,-1.00,-1.0,2371
1949,2136949,17084,-448,1608,17165.36,29.66,-1.00,-1.0,2438
1952,2136952,17072,-428,1428,17136.96,29.66,-1.00,-1.0,2372
1957,2136957,17068,-424,1464,17135.92,29.75,-1.00,-1.0,2440
1959,2136959,17020,-488,1216,17070.36,29.57,-1.00,-1.0,2380
1962,2136962,17072,-380,1444,17137.17,29.66,-1.00,-1.0,2441
1965,2136965,17076,-340,1384,17135.37,29.66,-1.00,-1.0,2370
1968,2136968,17020,-352,1284,17071.99,29.80,-1.00,-1.0,2445
1970,2136970,17056,-432,1456,17123.48,29.66,-1.00,-1.0,2372
1973,2136973,17032,-440,1304,17087.51,29.71,-1.00,-1.0,2378
1976,2136976,16912,-440,1124,16955.02,29.57,-1.00,-1.0,2435
1979,2136979,16976,-476,1244,17028.17,29.61,-1.00,-1.0,2369
1984,2136984,16936,-388,948,16966.95,29.71,-1.00,-1.0,2443
1986,2136986,17032,-536,1152,17079.33,29.61,-1.00,-1.0,2388
1989,2136989,17036,-488,1100,17078.45,29.66,-1.00,-1.0,2439
1992,2136992,17056,-440,968,17089.11,29.66,-1.00,-1.0,2373
1995,2136995,17052,-356,944,17081.82,29.66,-1.00,-1.0,2443
1997,2136997,17172,-224,1128,17210.47,29.75,-1.00,-1.0,2371
2000,2137000,17112,-140,1040,17144.15,29.75,-1.00,-1.0,2438
2003,2137003,16992,-48,1136,17030.00,29.57,-1.00,-1.0,2374
2008,2137008,17028,-136,1088,17063.27,29.66,-1.00,-1.0,2441
2011,2137011,17016,-52,1068,17049.56,29.66,-1.00,-1.0,2380
2014,2137014,16784,-148,940,16810.95,29.71,-1.00,-1.0,2439
2016,2137016,17028,-124,1092,17063.43,29.66,-1.00,-1.0,2372
2019,2137019,16932,4,1192,16973.91,29.61,-1.00,-1.0,2371
2022,2137022,16948,-232,1184,16990.89,29.66,-1.00,-1.0,2446
2024,2137024,16976,-332,1216,17022.73,29.66,-1.00,-1.0,2375
2027,2137027,16984,-288,1392,17043.38,29.66,-1.00,-1.0,2425
2030,2137030,17060,-364,1352,17117.36,29.66,-1.00,-1.0,2370
2035,2137035,17032,-396,1348,17089.85,29.75,-1.00,-1.0,2444
2038,2137038,17124,-284,1288,17174.72,29.66,-1.00,-1.0,2380
2040,2137040,17088,-196,1360,17143.15,29.66,-1.00,-1.0,2440
2043,2137043,17024,-244,1304,17075.61,29.66,-1.00,-1.0,2372
2046,2137046,17072,-356,1304,17125.43,29.61,-1.00,-1.0,2438
2049,2137049,17028,-360,1516,17099.14,29.75,-1.00,-1.0,2369
2052,2137052,17020,-396,1308,17074.78,29.61,-1.00,-1.0,2437
2054,2137054,17060,-404,1408,17122.77,29.61,-1.00,-1.0,2374
2059,2137059,17164,-476,1456,17232.22,29.66,-1.00,-1.0,2441
2062,2137062,17044,-292,1440,17107.21,29.61,-1.00,-1.0,2381
2065,2137065,17088,-404,1280,17140.63,29.61,-1.00,-1.0,2374
2067,2137067,17000,-416,1236,17049.95,29.66,-1.00,-1.0,2449
2070,2137070,17020,-364,1172,17064.19,29.66,-1.00,-1.0,2359
2073,2137073,17052,-372,1112,17092.27,29.66,-1.00,-1.0,2438
2076,2137076,17080,-176,1252,17126.73,29.66,-1.00,-1.0,2367
2078,2137078,17068,-228,1320,17120.48,29.61,-1.00,-1.0,2438
2081,2137081,17044,-236,1168,17085.60,29.66,-1.00,-1.0,2372
2086,2137086,17068,-444,1276,17121.39,29.61,-1.00,-1.0,2440
2089,2137089,17028,-308,1228,17075.00,29.71,-1.00,-1.0,2387
2092,2137092,17036,-392,1400,17097.92,29.57,-1.00,-1.0,2444
2094,2137094,17028,-180,1232,17073.46,29.66,-1.00,-1.0,2376
2097,2137097,17044,-168,1312,17095.25,29.66,-1.00,-1.0,2446
2100,2137100,17028,-204,1224,17073.15,29.66,-1.00,-1.0,2373
2103,2137103,16896,-116,1128,16934.01,29.71,-1.00,-1.0,2437
2105,2137105,17008,-240,1172,17050.02,29.66,-1.00,-1.0,2372
2108,2137108,17108,-364,1176,17152.23,29.52,-1.00,-1.0,2369
2113,2137113,17132,-248,1328,17185.18,29.66,-1.00,-1.0,2443
2115,2137115,17032,-424,1132,17074.84,29.66,-1.00,-1.0,2381
2118,2137118,17064,-404,1340,17121.30,29.61,-1.00,-1.0,2439
2121,2137121,17044,-284,1224,17090.25,29.71,-1.00,-1.0,2376
2124,2137124,16956,-336,1264,17006.37,29.61,-1.00,-1.0,2440
2126,2137126,17000,-280,1216,17045.73,29.71,-1.00,-1.0,2372
2129,2137129,16924,-80,1060,16957.35,29.66,-1.00,-1.0,2439
2132,2137132,16868,-224,996,16898.87,29.61,-1.00,-1.0,2373
2137,2137137,17168,-248,1140,17207.60,29.71,-1.00,-1.0,2441
2140,2137140,17124,-380,1152,17166.91,29.61,-1.00,-1.0,2389
2143,2137143,17124,-332,1216,17170.33,29.66,-1.00,-1.0,2443
2145,2137145,17128,-392,1264,17179.05,29.57,-1.00,-1.0,2378
2148,2137148,17128,-424,1340,17185.57,29.75,-1.00,-1.0,2446
2151,2137151,17052,-496,1364,17113.66,29.75,-1.00,-1.0,2372
2153,2137153,17080,-384,1208,17126.97,29.61,-1.00,-1.0,2371
2156,2137156,16972,-352,1268,17022.94,29.66,-1.00,-1.0,2439
2159,2137159,16972,-212,1268,17020.62,29.71,-1.00,-1.0,2369
2164,2137164,17004,-228,1208,17048.38,29.71,-1.00,-1.0,2439
2167,2137167,16836,-92,1408,16895.02,29.71,-1.00,-1.0,2378
2170,2137170,16948,-316,1372,17006.38,29.57,-1.00,-1.0,2438
2172,2137172,16976,-384,1532,17049.31,29.66,-1.00,-1.0,2376
2175,2137175,16920,-376,1552,16995.19,29.66,-1.00,-1.0,2453
2178,2137178,17072,-372,1448,17137.34,29.66,-1.00,-1.0,2379
2181,2137181,17096,-384,1400,17157.53,29.61,-1.00,-1.0,2448
2183,2137183,17032,-364,1356,17089.77,29.61,-1.00,-1.0,2379
2188,2137188,17020,-340,1236,17068.21,29.61,-1.00,-1.0,2450
2191,2137191,16992,-408,1144,17035.35,29.66,-1.00,-1.0,2382
2194,2137194,17004,-396,1056,17041.36,29.61,-1.00,-1.0,2439
2197,2137197,16976,-348,1148,17018.33,29.61,-1.00,-1.0,2369
2199,2137199,16984,-328,1168,17027.27,29.57,-1.00,-1.0,2440
2202,2137202,17064,-380,1080,17102.37,29.71,-1.00,-1.0,2359
2205,2137205,17068,-380,1112,17108.41,29.57,-1.00,-1.0,2381
2208,2137208,16976,-360,1236,17024.74,29.71,-1.00,-1.0,2445
2210,2137210,17008,-264,1172,17050.38,29.71,-1.00,-1.0,2378
2215,2137215,17076,-184,1248,17122.53,29.71,-1.00,-1.0,2450
2218,2137218,16912,-188,1100,16948.78,29.66,-1.00,-1.0,2386
2221,2137221,16936,-244,1076,16971.90,29.71,-1.00,-1.0,2441
2224,2137224,16992,-276,1068,17027.77,29.71,-1.00,-1.0,2372
2226,2137226,17044,-424,1200,17091.45,29.66,-1.00,-1.0,2438
2229,2137229,16952,-252,1340,17006.75,29.71,-1.00,-1.0,2370
2232,2137232,17016,-296,1424,17078.04,29.75,-1.00,-1.0,2438
2235,2137235,17068,-196,1168,17109.04,29.75,-1.00,-1.0,2372
2240,2137240,17012,-244,1308,17063.96,29.61,-1.00,-1.0,2446
2243,2137243,16996,-116,1360,17050.72,29.71,-1.00,-1.0,2380
2245,2137245,17060,-64,1412,17118.45,29.57,-1.00,-1.0,2439
2248,2137248,16972,-32,1400,17029.67,29.75,-1.00,-1.0,2369
2251,2137251,16932,-144,1328,16984.61,29.66,-1.00,-1.0,2365
2254,2137254,16988,-196,1380,17045.09,29.71,-1.00,-1.0,2447
2256,2137256,16976,-204,1364,17031.93,29.52,-1.00,-1.0,2380
2259,2137259,17048,-320,1448,17112.38,29.80,-1.00,-1.0,2446
2262,2137262,17000,-416,1312,17055.63,29.75,-1.00,-1.0,2427
2267,2137267,17064,-348,1304,17117.29,29.57,-1.00,-1.0,2455
2270,2137270,17084,-376,1260,17134.53,29.61,-1.00,-1.0,2381
2273,2137273,17072,-348,1172,17115.72,29.61,-1.00,-1.0,2450
2275,2137275,17076,-284,1252,17124.19,29.61,-1.00,-1.0,2379
2278,2137278,16992,-320,1160,17034.55,29.57,-1.00,-1.0,2438
2281,2137281,17056,-252,1184,17098.90,29.66,-1.00,-1.0,2371
2284,2137284,17040,-244,1356,17095.61,29.66,-1.00,-1.0,2441
2286,2137286,16992,-304,1244,17040.19,29.66,-1.00,-1.0,2372
2291,2137291,17092,-436,1120,17134.21,29.57,-1.00,-1.0,2451
2294,2137294,17020,-348,1120,17060.36,29.66,-1.00,-1.0,2377
2297,2137297,17096,-376,1148,17138.62,29.71,-1.00,-1.0,2443
2300,2137300,17036,-328,1084,17073.60,29.66,-1.00,-1.0,2434
2302,2137302,17144,-372,1056,17180.52,29.61,-1.00,-1.0,2380
2305,2137305,16968,-392,1188,17014.05,29.57,-1.00,-1.0,2428
2308,2137308,17040,-340,1120,17080.15,29.66,-1.00,-1.0,2389
2311,2137311,16868,-308,1236,16916.03,29.57,-1.00,-1.0,2416
2313,2137313,16984,-312,1212,17030.05,29.66,-1.00,-1.0,2387
2318,2137318,16968,-256,1128,17007.38,29.66,-1.00,-1.0,2459
2321,2137321,17052,-208,1248,17098.87,29.57,-1.00,-1.0,2361
2324,2137324,17004,-260,1100,17041.53,29.57,-1.00,-1.0,2436
2326,2137326,17136,-320,1148,17177.39,29.57,-1.00,-1.0,2374
2329,2137329,17076,-292,1296,17127.60,29.66,-1.00,-1.0,2439
2332,2137332,17124,-352,1208,17170.16,29.75,-1.00,-1.0,2370
2335,2137335,17064,-312,1192,17108.43,29.61,-1.00,-1.0,2445
2337,2137337,17028,-320,1368,17085.86,29.75,-1.00,-1.0,2373
2342,2137342,16956,-336,1360,17013.77,29.66,-1.00,-1.0,2449
2345,2137345,17036,-268,1276,17085.82,29.66,-1.00,-1.0,2376
2348,2137348,17056,-296,1276,17106.22,29.71,-1.00,-1.0,2380
2351,2137351,17024,-208,1312,17075.75,29.66,-1.00,-1.0,2450
2353,2137353,17064,-328,1420,17126.12,29.57,-1.00,-1.0,2380
2356,2137356,16928,-412,1332,16985.32,29.66,-1.00,-1.0,2440
2359,2137359,17036,-292,1216,17081.84,29.66,-1.00,-1.0,2372
2362,2137362,17016,-376,1268,17067.32,29.71,-1.00,-1.0,2434
2364,2137364,17036,-264,1124,17075.08,29.66,-1.00,-1.0,2370
2369,2137369,17036,-248,1452,17099.56,29.66,-1.00,-1.0,2451
2372,2137372,17068,-324,1424,17130.36,29.66,-1.00,-1.0,2374
2375,2137375,17124,-396,1312,17178.75,29.57,-1.00,-1.0,2438
2378,2137378,17016,-324,1280,17067.15,29.71,-1.00,-1.0,2371
2380,2137380,17060,-284,1340,17114.90,29.71,-1.00,-1.0,2438
2383,2137383,17076,-340,1344,17132.18,29.61,-1.00,-1.0,2370
2386,2137386,17072,-260,1264,17120.70,29.61,-1.00,-1.0,2438
2389,2137389,16996,-380,1272,17047.77,29.61,-1.00,-1.0,2374
2394,2137394,17072,-292,1244,17119.75,29.71,-1.00,-1.0,2456
2396,2137396,16964,-316,1320,17018.21,29.71,-1.00,-1.0,2375
2399,2137399,17052,-320,1256,17101.19,29.66,-1.00,-1.0,2386
2402,2137402,17024,-236,1032,17056.88,29.75,-1.00,-1.0,2438
2405,2137405,17088,-232,1164,17129.17,29.66,-1.00,-1.0,2372
2407,2137407,16972,-264,1268,17021.35,29.61,-1.00,-1.0,2439
2410,2137410,17096,-244,1208,17140.36,29.61,-1.00,-1.0,2373
2413,2137413,17004,-184,1152,17043.97,29.61,-1.00,-1.0,2438
2416,2137416,17064,-256,952,17092.45,29.61,-1.00,-1.0,2370
2421,2137421,16984,-212,1180,17026.26,29.61,-1.00,-1.0,2448
2423,2137423,16984,-168,1124,17021.98,29.71,-1.00,-1.0,2373
2426,2137426,17000,-260,1064,17035.25,29.61,-1.00,-1.0,2441
2429,2137429,17116,-300,1192,17160.08,29.61,-1.00,-1.0,2372
2432,2137432,17008,-192,1280,17057.18,29.57,-1.00,-1.0,2444
2434,2137434,16912,-304,1284,16963.40,29.71,-1.00,-1.0,2370
2437,2137437,17016,-308,1176,17059.37,29.57,-1.00,-1.0,2453
2440,2137440,17052,-228,1296,17102.70,29.66,-1.00,-1.0,2379
2443,2137443,17004,-248,1192,17047.53,29.71,-1.00,-1.0,2370
2448,2137448,17140,-244,1280,17189.46,29.61,-1.00,-1.0,2454
2450,2137450,17012,-208,1408,17071.43,29.61,-1.00,-1.0,2381
2453,2137453,17028,-236,1328,17081.34,29.71,-1.00,-1.0,2435
2456,2137456,17028,-260,1356,17083.88,29.61,-1.00,-1.0,2371
2459,2137459,17068,-356,1408,17129.68,29.61,-1.00,-1.0,2445
2461,2137461,16980,-348,1272,17031.13,29.61,-1.00,-1.0,2373
2464,2137464,17060,-396,1172,17104.79,29.66,-1.00,-1.0,2437
2467,2137467,17040,-428,1328,17097.03,29.75,-1.00,-1.0,2372
2472,2137472,17036,-428,1192,17083.01,29.57,-1.00,-1.0,2448
2475,2137475,16956,-376,1296,17009.61,29.66,-1.00,-1.0,2381
2478,2137478,17148,-468,1416,17212.73,29.66,-1.00,-1.0,2447
2480,2137480,17028,-428,1280,17081.40,29.57,-1.00,-1.0,2376
2483,2137483,16968,-380,1400,17029.90,29.71,-1.00,-1.0,2445
2486,2137486,16956,-380,1244,17005.82,29.57,-1.00,-1.0,2372
2488,2137488,16996,-400,1204,17043.29,29.71,-1.00,-1.0,2371
2491,2137491,16984,-336,1180,17028.26,29.66,-1.00,-1.0,2441
2494,2137494,17004,-364,1128,17045.26,29.61,-1.00,-1.0,2371
2499,2137499,17016,-396,1144,17059.01,29.66,-1.00,-1.0,2450
2502,2137502,17112,-260,1236,17158.55,29.75,-1.00,-1.0,2378
2505,2137505,16944,-240,1372,17001.15,29.71,-1.00,-1.0,2450
2508,2137508,17012,-336,1376,17070.87,29.66,-1.00,-1.0,2378
2511,2137511,17000,-312,1288,17051.58,29.61,-1.00,-1.0,2448
2513,2137513,16940,-328,1180,16984.21,29.71,-1.00,-1.0,2379
2516,2137516,16976,-260,1104,17013.85,29.71,-1.00,-1.0,2437
2519,2137519,16932,-224,1080,16967.89,29.71,-1.00,-1.0,2369
2524,2137524,17004,-264,1224,17050.04,29.61,-1.00,-1.0,2452
2526,2137526,16996,-272,1172,17038.53,29.71,-1.00,-1.0,2382
2529,2137529,16956,-228,1212,17000.79,29.75,-1.00,-1.0,2438
2532,2137532,17000,-284,1196,17044.38,29.71,-1.00,-1.0,2370
2535,2137535,17028,-304,1480,17094.90,29.66,-1.00,-1.0,2443
2537,2137537,17028,-248,1404,17087.58,29.75,-1.00,-1.0,2370
2540,2137540,17044,-420,1384,17105.26,29.47,-1.00,-1.0,2370
2543,2137543,17076,-352,1268,17126.63,29.66,-1.00,-1.0,2446
2546,2137546,17060,-276,1276,17109.88,29.52,-1.00,-1.0,2376
2551,2137551,17028,-368,1312,17082.43,29.61,-1.00,-1.0,2448
2553,2137553,17056,-360,1252,17105.68,29.71,-1.00,-1.0,2379
2556,2137556,17080,-320,1288,17131.48,29.61,-1.00,-1.0,2446
2559,2137559,17008,-252,1448,17071.39,29.52,-1.00,-1.0,2371
2562,2137562,17076,-336,1332,17131.17,29.66,-1.00,-1.0,2437
2564,2137564,17088,-372,1172,17132.18,29.61,-1.00,-1.0,2374
2567,2137567,17040,-236,1376,17097.10,29.66,-1.00,-1.0,2439
2570,2137570,17112,-332,1284,17163.32,29.75,-1.00,-1.0,2371
2575,2137575,16948,-396,1264,16999.68,29.66,-1.00,-1.0,2449
2578,2137578,17004,-352,1420,17066.82,29.66,-1.00,-1.0,2376
2580,2137580,17008,-324,1296,17060.38,29.66,-1.00,-1.0,2424
2583,2137583,16984,-216,1400,17042.97,29.66,-1.00,-1.0,2371
2586,2137586,17028,-396,1312,17083.06,29.66,-1.00,-1.0,2379
2589,2137589,17004,-396,1148,17047.31,29.61,-1.00,-1.0,2450
2591,2137591,16992,-284,1172,17034.74,29.61,-1.00,-1.0,2381
2594,2137594,17008,-252,1184,17051.02,29.57,-1.00,-1.0,2436
2597,2137597,16880,-288,1232,16927.35,29.61,-1.00,-1.0,2370
2602,2137602,17016,-348,1176,17060.14,29.61,-1.00,-1.0,2451
2605,2137605,17152,-236,1148,17192.00,29.71,-1.00,-1.0,2375
2607,2137607,17060,-372,1184,17105.08,29.66,-1.00,-1.0,2438
2610,2137610,17072,-220,1104,17109.07,29.66,-1.00,-1.0,2372
2613,2137613,17020,-344,1160,17062.95,29.66,-1.00,-1.0,2438
2616,2137616,17000,-288,1272,17049.95,29.66,-1.00,-1.0,2370
2619,2137619,17104,-268,996,17135.07,29.71,-1.00,-1.0,2438
2621,2137621,17072,-236,1132,17111.12,29.61,-1.00,-1.0,2372
2626,2137626,17036,-308,1180,17079.60,29.66,-1.00,-1.0,2449
2629,2137629,17000,-252,1208,17044.73,29.66,-1.00,-1.0,2376
2632,2137632,17056,-296,1320,17109.56,29.71,-1.00,-1.0,2442
2634,2137634,16940,-376,1312,16994.89,29.61,-1.00,-1.0,2369
2637,2137637,17104,-160,1260,17151.09,29.66,-1.00,-1.0,2372
2640,2137640,17060,-244,1136,17099.52,29.66,-1.00,-1.0,2438
2643,2137643,16912,-172,1248,16958.86,29.66,-1.00,-1.0,2370
2645,2137645,17040,-312,1252,17088.78,29.66,-1.00,-1.0,2436
2648,2137648,17016,-236,1264,17064.51,29.66,-1.00,-1.0,2371
2653,2137653,17016,-204,1296,17066.50,29.66,-1.00,-1.0,2448
2656,2137656,17080,-324,1348,17136.17,29.66,-1.00,-1.0,2375
2659,2137659,17016,-400,1368,17075.59,29.66,-1.00,-1.0,2445
2661,2137661,17076,-440,1360,17135.72,29.71,-1.00,-1.0,2375
2664,2137664,17032,-416,1260,17083.61,29.71,-1.00,-1.0,2439
2667,2137667,17064,-392,1316,17119.16,29.71,-1.00,-1.0,2371
2670,2137670,17112,-256,1156,17152.91,29.75,-1.00,-1.0,2442
2673,2137673,17016,-364,1244,17065.29,29.61,-1.00,-1.0,2373
2678,2137678,17028,-376,1188,17073.53,29.66,-1.00,-1.0,2454
2680,2137680,17096,-332,1260,17145.58,29.71,-1.00,-1.0,2363
2683,2137683,16948,-344,1132,16989.25,29.61,-1.00,-1.0,2378
2686,2137686,16964,-348,1164,17007.45,29.57,-1.00,-1.0,2437
2689,2137689,17052,-356,1368,17110.49,29.75,-1.00,-1.0,2380
2691,2137691,17012,-272,1252,17060.18,29.66,-1.00,-1.0,2437
2694,2137694,17084,-300,1176,17127.05,29.66,-1.00,-1.0,2371
2697,2137697,17016,-384,1168,17060.36,29.71,-1.00,-1.0,2437
2700,2137700,17096,-296,1328,17150.06,29.66,-1.00,-1.0,2372
2704,2137704,17040,-260,1356,17095.85,29.61,-1.00,-1.0,2437
2707,2137707,16992,-332,1176,17035.88,29.61,-1.00,-1.0,2376
2710,2137710,17012,-384,1364,17070.91,29.75,-1.00,-1.0,2437
2713,2137713,16972,-320,1204,17017.66,29.61,-1.00,-1.0,2372
2716,2137716,17068,-256,1164,17109.56,29.75,-1.00,-1.0,2448
2718,2137718,17048,-292,1388,17106.90,29.57,-1.00,-1.0,2376
2721,2137721,16996,-272,1172,17038.53,29.75,-1.00,-1.0,2446
2724,2137724,17020,-388,1372,17079.62,29.66,-1.00,-1.0,2370
2728,2137728,16964,-280,1196,17008.41,29.61,-1.00,-1.0,2448
2731,2137731,16992,-236,1408,17051.87,29.61,-1.00,-1.0,2377
2734,2137734,16980,-224,1504,17047.95,29.66,-1.00,-1.0,2371
2737,2137737,17044,-200,1348,17098.39,29.66,-1.00,-1.0,2437
2739,2137739,17052,-148,1220,17096.23,29.66,-1.00,-1.0,2360
2742,2137742,17076,-208,1468,17140.25,29.71,-1.00,-1.0,2424
2745,2137745,17004,-232,1332,17057.67,29.71,-1.00,-1.0,2372
2748,2137748,17092,-324,1224,17138.83,29.61,-1.00,-1.0,2440
2750,2137750,17052,-328,1368,17109.93,29.61,-1.00,-1.0,2372
2755,2137755,17100,-376,1200,17146.18,29.71,-1.00,-1.0,2436
2758,2137758,17024,-288,1264,17073.29,29.61,-1.00,-1.0,2377
2761,2137761,17008,-360,1308,17062.02,29.61,-1.00,-1.0,2438
2764,2137764,16992,-248,1168,17033.90,29.61,-1.00,-1.0,2369
2766,2137766,17008,-328,1332,17063.23,29.66,-1.00,-1.0,2438
2769,2137769,17028,-280,1384,17086.45,29.71,-1.00,-1.0,2372
2772,2137772,16940,-296,1376,16998.37,29.66,-1.00,-1.0,2437
2775,2137775,17012,-340,1044,17047.39,29.57,-1.00,-1.0,2378
2777,2137777,17044,-324,1156,17086.23,29.75,-1.00,-1.0,2378
2782,2137782,16960,-368,1208,17006.95,29.57,-1.00,-1.0,2457
2785,2137785,27892,-6632,9404,30172.54,29.66,-1.00,-1.0,2388
2788,2137788,-7912,12204,-22384,26694.21,29.61,-1.00,-1.0,2438
2791,2137791,2504,-1292,10628,10995.17,29.66,-1.00,-1.0,2373
2793,2137793,14268,24580,4224,28733.16,29.61,-1.00,-1.0,2438
2796,2137796,10720,-15020,26316,32141.11,29.61,-1.00,-1.0,2371
2799,2137799,20308,-5148,712,20962.44,29.66,-1.00,-1.0,2438
2802,2137802,15588,15716,144,22135.92,29.71,-1.00,-1.0,2371
2807,2137807,31972,11828,2064,34152.17,29.71,-1.00,-1.0,2449
2809,2137809,7068,-14244,-7116,17420.84,29.61,-1.00,-1.0,2376
2812,2137812,32660,-1724,13360,35328.99,29.66,-1.00,-1.0,2438
2815,2137815,18760,17340,3108,25734.66,29.75,-1.00,-1.0,2370
2818,2137818,19556,-12476,-2128,23294.12,29.75,-1.00,-1.0,2446
2821,2137821,20188,21200,-2184,29355.84,29.75,-1.00,-1.0,2374
2823,2137823,20284,-11512,7180,24403.26,29.71,-1.00,-1.0,2443
2826,2137826,18136,7668,-3964,20085.47,29.61,-1.00,-1.0,2386
2831,2137831,16872,-12496,8168,22528.44,29.61,-1.00,-1.0,2465
2834,2137834,18484,15900,5076,24904.50,29.61,-1.00,-1.0,2378
2837,2137837,22120,-9712,2676,24305.93,29.71,-1.00,-1.0,2441
2839,2137839,14124,1372,-2432,14397.37,29.71,-1.00,-1.0,2365
2842,2137842,18108,508,1696,18194.34,29.66,-1.00,-1.0,2425
2845,2137845,17596,-2644,-2952,18036.75,29.61,-1.00,-1.0,2370
2847,2137847,13640,768,-6424,15096.60,29.66,-1.00,-1.0,2371
2850,2137850,20688,2892,1180,20922.46,29.61,-1.00,-1.0,2456
2853,2137853,15924,3068,-1900,16327.78,29.61,-1.00,-1.0,2379
2858,2137858,15500,-1344,-1496,15629.92,29.66,-1.00,-1.0,2449
2861,2137861,13988,-248,556,14001.24,29.75,-1.00,-1.0,2372
2864,2137864,17536,2512,3052,17975.99,29.61,-1.00,-1.0,2450
2866,2137866,16640,-2484,124,16824.84,29.71,-1.00,-1.0,2379
2869,2137869,18280,-1688,2488,18525.60,29.61,-1.00,-1.0,2447
2872,2137872,16348,3304,1204,16721.94,29.61,-1.00,-1.0,2375
2875,2137875,17836,-4696,976,18469.65,29.75,-1.00,-1.0,2436
2877,2137877,17364,3524,1528,17783.75,29.66,-1.00,-1.0,2371
2882,2137882,16276,1516,464,16353.03,29.71,-1.00,-1.0,2450
2885,2137885,16908,1552,1304,17029.08,29.71,-1.00,-1.0,2373
2888,2137888,16624,-2920,784,16896.70,29.66,-1.00,-1.0,2442
2891,2137891,17168,2716,2280,17530.41,29.66,-1.00,-1.0,2372
2893,2137893,17916,-2048,1296,18079.19,29.66,-1.00,-1.0,2439
2896,2137896,17304,420,2672,17514.12,29.66,-1.00,-1.0,2370
2899,2137899,16420,1012,1496,16519.04,29.61,-1.00,-1.0,2373
2902,2137902,15796,-1120,-604,15847.17,29.57,-1.00,-1.0,2445
2904,2137904,15624,148,120,15625.16,29.71,-1.00,-1.0,2379
2909,2137909,15904,1284,-504,15963.71,29.66,-1.00,-1.0,2437
2912,2137912,16776,-64,1608,16853.01,29.57,-1.00,-1.0,2376
2915,2137915,17372,-1124,2776,17628.27,29.71,-1.00,-1.0,2439
2917,2137917,17812,-660,2156,17954.14,29.66,-1.00,-1.0,2371
2920,2137920,17888,-1848,1852,18078.32,29.61,-1.00,-1.0,2441
2923,2137923,17268,784,3024,17548.31,29.61,-1.00,-1.0,2372
2926,2137926,17296,-1192,1000,17365.84,29.71,-1.00,-1.0,2447
2929,2137929,16120,-308,-16,16122.95,29.71,-1.00,-1.0,2378
2933,2137933,16708,-740,260,16726.40,29.71,-1.00,-1.0,2447
2936,2137936,17272,588,1204,17323.89,29.75,-1.00,-1.0,2379
2939,2137939,17380,460,1280,17433.14,29.71,-1.00,-1.0,2443
2942,2137942,16916,-1288,1584,17038.75,29.61,-1.00,-1.0,2373
2944,2137944,17192,196,1140,17230.87,29.66,-1.00,-1.0,2372
2947,2137947,16068,-456,760,16092.43,29.57,-1.00,-1.0,2438
2950,2137950,17340,-1760,2148,17560.95,29.66,-1.00,-1.0,2370
2952,2137952,16988,180,2096,17117.76,29.66,-1.00,-1.0,2438
2955,2137955,17192,-520,1060,17232.49,29.66,-1.00,-1.0,2372
2960,2137960,16476,0,1268,16524.72,29.66,-1.00,-1.0,2449
2963,2137963,17740,-1084,1976,17882.60,29.66,-1.00,-1.0,2376
2966,2137966,16888,8,780,16906.01,29.61,-1.00,-1.0,2443
2968,2137968,17176,-700,764,17207.23,29.57,-1.00,-1.0,2358
2971,2137971,16688,472,604,16705.60,29.61,-1.00,-1.0,2442
2974,2137974,17352,-1092,1360,17439.44,29.71,-1.00,-1.0,2372
2977,2137977,16788,496,416,16800.48,29.66,-1.00,-1.0,2442
2980,2137980,17112,-592,856,17143.62,29.71,-1.00,-1.0,2371
2982,2137982,17024,-212,476,17031.97,29.57,-1.00,-1.0,2369
2987,2137987,16968,-548,688,16990.78,29.57,-1.00,-1.0,2443
2990,2137990,17012,32,1140,17050.18,29.66,-1.00,-1.0,2375
2993,2137993,17276,-496,1308,17332.54,29.57,-1.00,-1.0,2437
2995,2137995,17100,-740,1232,17160.29,29.66,-1.00,-1.0,2358
2998,2137998,16792,-632,1120,16841.17,29.71,-1.00,-1.0,2437
3001,2138001,16984,-864,1372,17061.22,29.57,-1.00,-1.0,2370
3004,2138004,16952,-136,1176,16993.29,29.71,-1.00,-1.0,2444
3006,2138006,17164,-380,1520,17235.36,29.66,-1.00,-1.0,2373
3011,2138011,16824,-496,1428,16891.78,29.66,-1.00,-1.0,2449
3014,2138014,17312,0,1944,17420.81,29.71,-1.00,-1.0,2376
3017,2138017,17036,28,1508,17102.63,29.61,-1.00,-1.0,2437
3020,2138020,16840,96,1236,16885.57,29.61,-1.00,-1.0,2376
3022,2138022,16896,-32,1644,16975.82,29.66,-1.00,-1.0,2379
3025,2138025,17320,28,1740,17407.21,29.66,-1.00,-1.0,2447
3028,2138028,17028,-284,1304,17080.22,29.66,-1.00,-1.0,2376
3031,2138031,17004,-48,1424,17063.59,29.61,-1.00,-1.0,2436
3033,2138033,17120,-612,1700,17215.08,29.57,-1.00,-1.0,2373
3038,2138038,16796,-396,872,16823.28,29.75,-1.00,-1.0,2435
3041,2138041,16844,-812,736,16879.61,29.57,-1.00,-1.0,2374
3044,2138044,17248,-732,1100,17298.54,29.61,-1.00,-1.0,2437
3047,2138047,17208,-468,1156,17253.13,29.71,-1.00,-1.0,2372
3049,2138049,17264,-640,1076,17309.33,29.71,-1.00,-1.0,2439
3052,2138052,16816,-372,1108,16856.57,29.61,-1.00,-1.0,2370
3055,2138055,17192,-700,1092,17240.86,29.57,-1.00,-1.0,2438
3058,2138058,16996,-16,876,17018.57,29.71,-1.00,-1.0,2379
3063,2138063,16972,-60,1084,17006.69,29.71,-1.00,-1.0,2457
3065,2138065,17060,256,976,17089.81,29.71,-1.00,-1.0,2376
3068,2138068,16980,-324,1120,17019.98,29.66,-1.00,-1.0,2386
3071,2138071,16960,48,1224,17004.18,29.71,-1.00,-1.0,2438
3074,2138074,17096,-688,1488,17174.42,29.71,-1.00,-1.0,2371
3076,2138076,16988,-232,1204,17032.19,29.71,-1.00,-1.0,2438
3079,2138079,17116,-808,1340,17187.38,29.71,-1.00,-1.0,2372
3082,2138082,17092,-308,1544,17164.36,29.61,-1.00,-1.0,2437
3085,2138085,16948,-744,1584,17038.11,29.61,-1.00,-1.0,2370
3090,2138090,16788,-368,1368,16847.66,29.71,-1.00,-1.0,2450
3093,2138093,16812,-404,1416,16876.36,29.61,-1.00,-1.0,2376
3095,2138095,16928,60,1532,16997.29,29.61,-1.00,-1.0,2437
3098,2138098,17024,-384,1624,17105.60,29.71,-1.00,-1.0,2371
3101,2138101,16968,72,1328,17020.04,29.66,-1.00,-1.0,2439
3104,2138104,17000,112,1344,17053.41,29.66,-1.00,-1.0,2376
3106,2138106,17284,-40,1312,17333.77,29.57,-1.00,-1.0,2378
3109,2138109,17036,-48,1376,17091.55,29.61,-1.00,-1.0,2445
3112,2138112,17012,-536,1100,17055.95,29.61,-1.00,-1.0,2371
3117,2138117,17176,-720,1244,17236.04,29.61,-1.00,-1.0,2448
3119,2138119,17044,-400,1180,17089.48,29.61,-1.00,-1.0,2376
3122,2138122,17000,-384,1016,17034.66,29.66,-1.00,-1.0,2437
3125,2138125,17080,-384,872,17106.55,29.66,-1.00,-1.0,2370
3128,2138128,17144,-336,1188,17188.40,29.66,-1.00,-1.0,2441
3130,2138130,16872,-324,1064,16908.62,29.75,-1.00,-1.0,2372
3133,2138133,16908,-176,1216,16952.58,29.57,-1.00,-1.0,2454
3136,2138136,16968,-244,1368,17024.80,29.66,-1.00,-1.0,2377
3141,2138141,17044,-312,1480,17110.98,29.75,-1.00,-1.0,2456
3143,2138143,17032,-320,1400,17092.44,29.66,-1.00,-1.0,2374
3146,2138146,17092,-556,988,17129.56,29.66,-1.00,-1.0,2441
3149,2138149,17008,-508,1044,17047.58,29.75,-1.00,-1.0,2370
3152,2138152,17068,-580,1212,17120.80,29.71,-1.00,-1.0,2373
3154,2138154,16980,-412,1068,17018.54,29.61,-1.00,-1.0,2438
3157,2138157,16960,-508,1112,17004.01,29.61,-1.00,-1.0,2370
3160,2138160,16952,-340,1188,16996.98,29.66,-1.00,-1.0,2438
3163,2138163,16888,-460,1200,16936.83,29.61,-1.00,-1.0,2372
3168,2138168,17068,-168,1380,17124.52,29.61,-1.00,-1.0,2451
3170,2138170,17160,-88,1428,17219.54,29.61,-1.00,-1.0,2365
3173,2138173,16964,180,1348,17018.43,29.75,-1.00,-1.0,2436
3176,2138176,16948,-120,1140,16986.72,29.66,-1.00,-1.0,2369
3179,2138179,16984,-112,1008,17014.25,29.57,-1.00,-1.0,2445
3181,2138181,16940,-176,1112,16977.37,29.75,-1.00,-1.0,2373
3184,2138184,17120,-284,928,17147.48,29.57,-1.00,-1.0,2438
3187,2138187,17020,-164,968,17048.29,29.57,-1.00,-1.0,2369
3192,2138192,17016,-344,1224,17063.43,29.66,-1.00,-1.0,2450
3195,2138195,17016,-424,1156,17060.49,29.75,-1.00,-1.0,2381
3197,2138197,17044,-248,1480,17109.93,29.71,-1.00,-1.0,2379
3200,2138200,17132,-280,1588,17207.72,29.66,-1.00,-1.0,2438
3203,2138203,17096,-204,1516,17164.30,29.61,-1.00,-1.0,2373
3206,2138206,17092,-108,1572,17164.48,29.66,-1.00,-1.0,2437
3208,2138208,16984,-284,1536,17055.68,29.66,-1.00,-1.0,2370
3211,2138211,17112,-500,1600,17193.91,29.66,-1.00,-1.0,2438
3214,2138214,17164,-564,1780,17265.27,29.66,-1.00,-1.0,2372
3219,2138219,16964,-552,1568,17045.25,29.66,-1.00,-1.0,2449
3222,2138222,17064,-600,1512,17141.36,29.57,-1.00,-1.0,2376
3224,2138224,17120,-420,1540,17194.25,29.57,-1.00,-1.0,2424
3227,2138227,16984,-352,1312,17038.24,29.57,-1.00,-1.0,2369
3230,2138230,17072,-424,1224,17121.07,29.71,-1.00,-1.0,2439
3233,2138233,16964,-444,1532,17038.82,29.57,-1.00,-1.0,2380
3236,2138236,17088,-428,1432,17153.24,29.61,-1.00,-1.0,2437
3238,2138238,16944,-520,1244,16997.56,29.66,-1.00,-1.0,2372
3243,2138243,16964,-428,1028,17000.51,29.66,-1.00,-1.0,2451
3246,2138246,16984,-488,1032,17022.32,29.61,-1.00,-1.0,2374
3249,2138249,16996,-532,1076,17038.33,29.61,-1.00,-1.0,2373
3251,2138251,17020,-624,1084,17065.90,29.66,-1.00,-1.0,2440
3254,2138254,17108,-404,896,17136.21,29.66,-1.00,-1.0,2373
3257,2138257,17044,-456,844,17070.98,29.66,-1.00,-1.0,2438
3260,2138260,17092,-384,972,17123.92,29.57,-1.00,-1.0,2371
3262,2138262,17088,-188,956,17115.75,29.61,-1.00,-1.0,2426
3265,2138265,17176,-172,908,17200.84,29.66,-1.00,-1.0,2371
3270,2138270,16944,-80,888,16967.44,29.57,-1.00,-1.0,2448
3273,2138273,17000,-24,932,17025.54,29.66,-1.00,-1.0,2376
3276,2138276,16868,-36,956,16895.11,29.71,-1.00,-1.0,2443
3278,2138278,16900,-44,1024,16931.05,29.71,-1.00,-1.0,2371
3281,2138281,16932,32,1024,16962.97,29.71,-1.00,-1.0,2439
3284,2138284,16940,-52,1276,16988.07,29.61,-1.00,-1.0,2372
3287,2138287,16960,-220,1308,17011.79,29.66,-1.00,-1.0,2376
3289,2138289,17000,-340,1292,17052.42,29.66,-1.00,-1.0,2440
3292,2138292,16936,-316,1476,17003.13,29.66,-1.00,-1.0,2359
3297,2138297,17084,-284,1268,17133.35,29.66,-1.00,-1.0,2464
3300,2138300,17104,-216,1568,17177.08,29.57,-1.00,-1.0,2364
3303,2138303,17056,-148,1484,17121.08,29.57,-1.00,-1.0,2443
3305,2138305,17032,-268,1512,17101.08,29.57,-1.00,-1.0,2377
3308,2138308,16968,-268,1224,17014.20,29.66,-1.00,-1.0,2425
3311,2138311,16892,-408,1244,16942.66,29.66,-1.00,-1.0,2372
3314,2138314,16952,-324,1304,17005.17,29.61,-1.00,-1.0,2438
3316,2138316,17024,-396,1396,17085.73,29.71,-1.00,-1.0,2371
3322,2138322,17152,-444,1264,17204.24,29.71,-1.00,-1.0,2455
3325,2138325,17152,-500,1380,17214.69,29.66,-1.00,-1.0,2381
3328,2138328,17056,-520,1240,17108.92,29.66,-1.00,-1.0,2450
3330,2138330,17000,-432,1176,17046.10,29.57,-1.00,-1.0,2379
3333,2138333,16932,-360,1264,16982.93,29.61,-1.00,-1.0,2370
3336,2138336,17004,-372,1120,17044.91,29.66,-1.00,-1.0,2447
3338,2138338,16932,-352,1256,16982.17,29.61,-1.00,-1.0,2372
3341,2138341,17128,-220,1184,17170.28,29.66,-1.00,-1.0,2452
3344,2138344,17104,-324,1104,17142.65,29.57,-1.00,-1.0,2379
3349,2138349,16988,-412,1264,17039.94,29.71,-1.00,-1.0,2453
3351,2138351,16928,-516,1184,16977.20,29.71,-1.00,-1.0,2376
3354,2138354,17140,-456,1360,17199.92,29.75,-1.00,-1.0,2446
3357,2138357,16960,-280,1124,16999.51,29.66,-1.00,-1.0,2386
3360,2138360,16996,-304,1312,17049.28,29.71,-1.00,-1.0,2442
3363,2138363,16968,-180,1156,17008.29,29.66,-1.00,-1.0,2375
3365,2138365,17064,-140,1236,17109.28,29.52,-1.00,-1.0,2436
3368,2138368,16932,-172,1076,16967.03,29.66,-1.00,-1.0,2370
3373,2138373,16948,-244,1192,16991.62,29.66,-1.00,-1.0,2456
3376,2138376,17044,-252,1264,17092.66,29.71,-1.00,-1.0,2375
3378,2138378,17096,-296,1352,17151.93,29.71,-1.00,-1.0,2371
3381,2138381,17020,-304,1228,17066.95,29.66,-1.00,-1.0,2441
3384,2138384,16912,-360,1184,16957.22,29.66,-1.00,-1.0,2371
3387,2138387,17080,-188,1092,17115.90,29.66,-1.00,-1.0,2444
3390,2138390,16912,-176,1116,16949.70,29.66,-1.00,-1.0,2377
3392,2138392,16968,-108,920,16993.27,29.71,-1.00,-1.0,2444
3395,2138395,16972,-128,964,16999.84,29.66,-1.00,-1.0,2376
3400,2138400,17040,-212,1076,17075.25,29.66,-1.00,-1.0,2464
3403,2138403,17032,-200,1008,17062.97,29.71,-1.00,-1.0,2377
3406,2138406,17140,-296,996,17171.46,29.71,-1.00,-1.0,2434
3408,2138408,17104,-552,1260,17159.23,29.71,-1.00,-1.0,2371
3411,2138411,17164,-432,1432,17229.05,29.75,-1.00,-1.0,2439
3414,2138414,17004,-488,1224,17054.98,29.71,-1.00,-1.0,2373
3417,2138417,17108,-392,1556,17183.09,29.75,-1.00,-1.0,2443
3419,2138419,16916,-376,1400,16978.00,29.75,-1.00,-1.0,2370
3422,2138422,16872,-236,1384,16930.31,29.57,-1.00,-1.0,2376
3427,2138427,16876,-260,1360,16932.71,29.66,-1.00,-1.0,2448
3430,2138430,16976,-256,1400,17035.55,29.66,-1.00,-1.0,2381
3433,2138433,16988,-440,1552,17064.42,29.71,-1.00,-1.0,2450
3435,2138435,16992,-408,1404,17054.79,29.71,-1.00,-1.0,2380
3438,2138438,16996,-352,1644,17078.95,29.71,-1.00,-1.0,2438
3441,2138441,17052,-488,1568,17130.89,29.61,-1.00,-1.0,2371
3444,2138444,17072,-556,1468,17144.02,29.66,-1.00,-1.0,2444
3446,2138446,17004,-428,1512,17076.46,29.71,-1.00,-1.0,2373
3451,2138451,17076,-420,1372,17136.18,29.71,-1.00,-1.0,2449
3454,2138454,17020,-352,1052,17056.11,29.61,-1.00,-1.0,2377
3457,2138457,16984,-276,948,17012.68,29.66,-1.00,-1.0,2438
3460,2138460,17056,-240,1060,17090.59,29.66,-1.00,-1.0,2370
3463,2138463,17052,-336,884,17078.21,29.66,-1.00,-1.0,2439
3465,2138465,17020,-272,1100,17057.68,29.66,-1.00,-1.0,2375
3468,2138468,17104,-428,1116,17145.71,29.66,-1.00,-1.0,2454
3471,2138471,17012,-228,1288,17062.21,29.71,-1.00,-1.0,2377
3473,2138473,17048,-304,1112,17086.93,29.61,-1.00,-1.0,2358
3478,2138478,16900,-204,1096,16936.73,29.61,-1.00,-1.0,2458
3481,2138481,16976,-192,1036,17008.67,29.71,-1.00,-1.0,2376
3484,2138484,16912,-164,956,16939.79,29.66,-1.00,-1.0,2438
3487,2138487,16956,-336,1084,16993.94,29.57,-1.00,-1.0,2372
3489,2138489,17012,-208,1056,17046.01,29.66,-1.00,-1.0,2439
3492,2138492,17060,-232,1096,17096.74,29.57,-1.00,-1.0,2370
3495,2138495,17060,-188,1200,17103.19,29.66,-1.00,-1.0,2439
3498,2138498,17052,-256,1268,17101.00,29.66,-1.00,-1.0,2379
3503,2138503,17028,-256,1300,17079.47,29.75,-1.00,-1.0,2456
3505,2138505,17068,-200,1380,17124.87,29.66,-1.00,-1.0,2376
3508,2138508,16984,-164,1360,17039.15,29.61,-1.00,-1.0,2451
3511,2138511,16920,-160,1364,16975.64,29.61,-1.00,-1.0,2377
3514,2138514,16956,-112,1268,17003.71,29.71,-1.00,-1.0,2441
3517,2138517,16888,-168,1208,16931.98,29.61,-1.00,-1.0,2379
3519,2138519,17036,-176,1224,17080.82,29.75,-1.00,-1.0,2370
3522,2138522,17032,-336,1288,17083.94,29.66,-1.00,-1.0,2437
3525,2138525,17048,-336,1284,17099.59,29.66,-1.00,-1.0,2377
3530,2138530,17016,-448,1380,17077.74,29.66,-1.00,-1.0,2457
3532,2138532,17096,-416,1308,17151.01,29.66,-1.00,-1.0,2374
3535,2138535,17036,-384,1296,17089.54,29.61,-1.00,-1.0,2452
3538,2138538,17008,-348,1192,17053.27,29.71,-1.00,-1.0,2379
3541,2138541,17052,-288,1140,17092.49,29.66,-1.00,-1.0,2438
3544,2138544,16952,-352,1224,16999.78,29.61,-1.00,-1.0,2382
3546,2138546,16940,-268,1224,16986.28,29.66,-1.00,-1.0,2439
3549,2138549,17004,-316,1208,17049.78,29.57,-1.00,-1.0,2372
3554,2138554,17040,-424,1320,17096.31,29.61,-1.00,-1.0,2456
3557,2138557,17000,-344,1332,17055.57,29.71,-1.00,-1.0,2385
3559,2138559,17100,-384,1184,17145.24,29.66,-1.00,-1.0,2440
3562,2138562,16984,-432,1264,17036.45,29.66,-1.00,-1.0,2358
3565,2138565,17020,-508,1200,17069.81,29.66,-1.00,-1.0,2370
3567,2138567,17004,-360,1156,17047.05,29.61,-1.00,-1.0,2439
3570,2138570,17076,-376,1280,17128.03,29.61,-1.00,-1.0,2370
3573,2138573,17008,-336,1408,17069.49,29.71,-1.00,-1.0,2438
3576,2138576,17088,-408,1212,17135.79,29.61,-1.00,-1.0,2382
3581,2138581,16920,-368,1276,16972.04,29.61,-1.00,-1.0,2455
3583,2138583,17000,-312,1328,17054.64,29.71,-1.00,-1.0,2375
3586,2138586,17016,-296,1140,17056.71,29.66,-1.00,-1.0,2451
3589,2138589,17088,-260,1076,17123.82,29.71,-1.00,-1.0,2378
3592,2138592,17068,-308,1312,17121.12,29.66,-1.00,-1.0,2443
3595,2138595,17068,-312,1268,17117.88,29.66,-1.00,-1.0,2376
3597,2138597,17116,-336,1200,17161.30,29.57,-1.00,-1.0,2440
3600,2138600,17064,-200,1160,17104.55,29.66,-1.00,-1.0,2375
3605,2138605,17056,-316,1140,17096.98,29.66,-1.00,-1.0,2458
3608,2138608,17172,-368,1332,17227.51,29.75,-1.00,-1.0,2377
3611,2138611,17004,-284,1116,17042.95,29.71,-1.00,-1.0,2436
3613,2138613,17064,-264,1172,17106.24,29.57,-1.00,-1.0,2372
3616,2138616,17116,-360,1208,17162.35,29.71,-1.00,-1.0,2369
3619,2138619,17116,-284,1164,17157.88,29.66,-1.00,-1.0,2445
3621,2138621,16984,-352,1172,17028.03,29.61,-1.00,-1.0,2372
3624,2138624,17008,-312,1308,17061.07,29.66,-1.00,-1.0,2448
3627,2138627,17092,-320,1408,17152.88,29.66,-1.00,-1.0,2386
3632,2138632,17020,-388,1312,17074.90,29.66,-1.00,-1.0,2448
3635,2138635,17100,-252,1420,17160.71,29.66,-1.00,-1.0,2381
3638,2138638,17040,-316,1232,17087.40,29.66,-1.00,-1.0,2445
3640,2138640,17024,-276,1512,17093.24,29.66,-1.00,-1.0,2379
3643,2138643,17180,-288,1340,17234.59,29.71,-1.00,-1.0,2438
3646,2138646,17060,-328,1332,17115.06,29.66,-1.00,-1.0,2371
3649,2138649,17048,-312,1500,17116.71,29.61,-1.00,-1.0,2444
3651,2138651,16988,-352,1284,17040.09,29.71,-1.00,-1.0,2373
3656,2138656,17100,-344,1344,17156.19,29.61,-1.00,-1.0,2436
3659,2138659,16936,-308,1072,16972.69,29.66,-1.00,-1.0,2376
3662,2138662,17108,-348,1236,17156.12,29.71,-1.00,-1.0,2378
3665,2138665,17032,-228,1152,17072.44,29.66,-1.00,-1.0,2437
3667,2138667,17036,-156,1096,17071.93,29.66,-1.00,-1.0,2372
3670,2138670,17104,-216,1124,17142.25,29.57,-1.00,-1.0,2454
3673,2138673,17108,-208,1112,17145.36,29.75,-1.00,-1.0,2375
3676,2138676,17036,-132,1092,17071.47,29.71,-1.00,-1.0,2443
3678,2138678,17044,-184,1124,17082.01,29.57,-1.00,-1.0,2377
3683,2138683,17008,-160,1016,17039.07,29.75,-1.00,-1.0,2457
3686,2138686,17084,-216,1040,17116.99,29.75,-1.00,-1.0,2381
3689,2138689,17036,-180,1092,17071.91,29.71,-1.00,-1.0,2438
3692,2138692,16992,-268,880,17016.88,29.71,-1.00,-1.0,2371
3694,2138694,17064,-236,1088,17100.28,29.71,-1.00,-1.0,2437
3697,2138697,17100,-352,1188,17144.83,29.71,-1.00,-1.0,2370
3700,2138700,16960,-200,1212,17004.43,29.75,-1.00,-1.0,2438
3703,2138703,17080,-240,1156,17120.76,29.61,-1.00,-1.0,2377
3708,2138708,17004,-264,1252,17052.07,29.61,-1.00,-1.0,2449
3710,2138710,17128,-320,1204,17173.25,29.61,-1.00,-1.0,2375
3713,2138713,17108,-404,1200,17154.79,29.66,-1.00,-1.0,2379
3716,2138716,16924,-372,1348,16981.67,29.66,-1.00,-1.0,2427
3719,2138719,16976,-252,1284,17026.35,29.57,-1.00,-1.0,2377
3721,2138721,17024,-336,1320,17078.40,29.61,-1.00,-1.0,2442
3724,2138724,17008,-360,1536,17081.01,29.61,-1.00,-1.0,2360
3727,2138727,16968,-324,1484,17035.85,29.71,-1.00,-1.0,2437
3730,2138730,17076,-348,1248,17125.08,29.61,-1.00,-1.0,2367
3734,2138734,16972,-412,1424,17036.62,29.66,-1.00,-1.0,2448
3737,2138737,17088,-384,1456,17154.22,29.66,-1.00,-1.0,2373
3740,2138740,16968,-448,1368,17028.95,29.66,-1.00,-1.0,2438
3743,2138743,17080,-392,1244,17129.73,29.66,-1.00,-1.0,2380
3746,2138746,17040,-388,1292,17093.31,29.61,-1.00,-1.0,2438
3748,2138748,17116,-380,1312,17170.42,29.66,-1.00,-1.0,2374
3751,2138751,17124,-428,1208,17171.89,29.71,-1.00,-1.0,2446
3754,2138754,17112,-324,1112,17151.15,29.66,-1.00,-1.0,2365
3756,2138756,16968,-388,1216,17015.94,29.71,-1.00,-1.0,2372
3761,2138761,17020,-284,1364,17076.93,29.61,-1.00,-1.0,2464
3764,2138764,17056,-164,1212,17099.79,29.66,-1.00,-1.0,2379
3767,2138767,17048,-268,1352,17103.63,29.71,-1.00,-1.0,2439
3769,2138769,16992,-264,1180,17034.97,29.61,-1.00,-1.0,2372
3772,2138772,17024,-320,1180,17067.85,29.57,-1.00,-1.0,2439
3775,2138775,17016,-288,1204,17060.97,29.75,-1.00,-1.0,2372
3778,2138778,17028,-328,1240,17076.24,29.57,-1.00,-1.0,2443
3780,2138780,17104,-292,1296,17155.52,29.66,-1.00,-1.0,2371
3785,2138785,17036,-160,1280,17084.77,29.66,-1.00,-1.0,2448
3788,2138788,16992,-92,1392,17049.17,29.66,-1.00,-1.0,2361
3791,2138791,16996,-264,1208,17040.92,29.66,-1.00,-1.0,2437
3794,2138794,17032,-148,1224,17076.57,29.66,-1.00,-1.0,2378
3797,2138797,16952,-264,1180,16995.07,29.61,-1.00,-1.0,2439
3799,2138799,17056,-260,1372,17113.07,29.71,-1.00,-1.0,2372
3802,2138802,17036,-280,1188,17079.67,29.61,-1.00,-1.0,2452
3805,2138805,17060,-320,1164,17102.66,29.71,-1.00,-1.0,2378
3807,2138807,17056,-308,1344,17111.64,29.57,-1.00,-1.0,2372
3812,2138812,16988,-404,1260,17039.45,29.66,-1.00,-1.0,2436
3815,2138815,17024,-348,1196,17069.51,29.57,-1.00,-1.0,2376
3818,2138818,17064,-344,1216,17110.73,29.57,-1.00,-1.0,2437
3821,2138821,16976,-276,1248,17024.05,29.66,-1.00,-1.0,2372
3823,2138823,17048,-364,1332,17103.83,29.66,-1.00,-1.0,2440
3826,2138826,17044,-352,1296,17096.83,29.66,-1.00,-1.0,2372
3829,2138829,17052,-288,1224,17098.30,29.61,-1.00,-1.0,2436
3832,2138832,17100,-420,1280,17152.98,29.66,-1.00,-1.0,2377
3837,2138837,17080,-432,1280,17133.34,29.57,-1.00,-1.0,2456
3839,2138839,17104,-228,1220,17148.97,29.66,-1.00,-1.0,2374
3842,2138842,17144,-272,1268,17192.98,29.61,-1.00,-1.0,2452
3845,2138845,17060,-280,1180,17103.05,29.61,-1.00,-1.0,2378
3848,2138848,17024,-292,1496,17092.10,29.57,-1.00,-1.0,2442
3851,2138851,17080,-200,1332,17133.03,29.61,-1.00,-1.0,2376
3853,2138853,17172,-220,1268,17220.16,29.66,-1.00,-1.0,2370
3856,2138856,17056,-344,1300,17108.93,29.61,-1.00,-1.0,2438
3859,2138859,31816,8256,-32768,nan,29.66,-1.00,-1.0,2367
3864,2138864,11628,11984,4616,17324.38,29.57,-1.00,-1.0,2451
3866,2138866,16016,3500,-10572,19507.16,29.66,-1.00,-1.0,2376
3869,2138869,11852,-20912,27408,36455.18,29.61,-1.00,-1.0,2437
3872,2138872,22008,5180,8084,24011.15,29.61,-1.00,-1.0,2369
3875,2138875,11632,4304,-4180,13088.17,29.61,-1.00,-1.0,2445
3878,2138878,17316,-18652,-2584,25581.60,29.61,-1.00,-1.0,2374
3880,2138880,22944,16452,11976,30667.90,29.66,-1.00,-1.0,2446
3883,2138883,12096,-7100,-7228,15778.69,29.66,-1.00,-1.0,2379
3888,2138888,17360,9716,736,19907.59,29.57,-1.00,-1.0,2458
3891,2138891,19008,-10752,-3584,22130.40,29.66,-1.00,-1.0,2377
3894,2138894,17592,12972,-3892,22201.33,29.75,-1.00,-1.0,2437
3896,2138896,11736,-9752,4976,16049.79,29.75,-1.00,-1.0,2376
3899,2138899,15020,9556,-1044,17832.76,29.71,-1.00,-1.0,2438
3902,2138902,19564,964,2008,19690.39,29.71,-1.00,-1.0,2370
3905,2138905,18972,-2884,-332,19192.82,29.61,-1.00,-1.0,2439
3907,2138907,13012,-3704,1668,13631.36,29.71,-1.00,-1.0,2371
3912,2138912,15888,1828,-1740,16087.19,29.71,-1.00,-1.0,2449
3915,2138915,17920,756,5588,18786.26,29.71,-1.00,-1.0,2376
3918,2138918,17888,1628,-1660,18038.47,29.66,-1.00,-1.0,2379
3921,2138921,13936,472,-3460,14366.85,29.66,-1.00,-1.0,2444
3923,2138923,20028,-2640,2880,20405.51,29.66,-1.00,-1.0,2378
3926,2138926,16728,3172,-380,17030.32,29.61,-1.00,-1.0,2425
3929,2138929,17840,-3120,-1480,18171.14,29.66,-1.00,-1.0,2372
3932,2138932,18268,3292,620,18572.60,29.61,-1.00,-1.0,2441
3934,2138934,16268,-4448,496,16872.42,29.71,-1.00,-1.0,2374
3939,2138939,16192,-3064,572,16489.27,29.61,-1.00,-1.0,2448
3942,2138942,18472,-2600,2112,18773.26,29.61,-1.00,-1.0,2374
3945,2138945,16964,2464,1124,17178.82,29.57,-1.00,-1.0,2437
3948,2138948,18224,-3576,1276,18615.32,29.61,-1.00,-1.0,2380
3951,2138951,17176,3044,904,17467.06,29.66,-1.00,-1.0,2448
3953,2138953,17116,-2860,1776,17443.95,29.66,-1.00,-1.0,2376
3956,2138956,16104,2612,1444,16378.23,29.66,-1.00,-1.0,2446
3959,2138959,16620,-1324,684,16686.68,29.57,-1.00,-1.0,2372
3964,2138964,17056,776,1324,17124.90,29.66,-1.00,-1.0,2448
3966,2138966,18112,-1548,1364,18229.13,29.57,-1.00,-1.0,2376
3969,2138969,16956,172,2404,17126.43,29.66,-1.00,-1.0,2371
3972,2138972,16624,140,788,16643.25,29.61,-1.00,-1.0,2435
3974,2138974,15632,-384,-216,15638.21,29.61,-1.00,-1.0,2372
3977,2138977,18140,1160,2184,18307.79,29.71,-1.00,-1.0,2439
3980,2138980,17400,-800,592,17428.44,29.61,-1.00,-1.0,2372
3983,2138983,17348,-36,-128,17348.51,29.66,-1.00,-1.0,2442
3985,2138985,17472,-924,1252,17541.15,29.71,-1.00,-1.0,2370
3990,2138990,17412,-380,1536,17483.75,29.61,-1.00,-1.0,2449
3993,2138993,17200,-1056,1540,17301.06,29.61,-1.00,-1.0,2375
3996,2138996,17560,544,3280,17871.99,29.75,-1.00,-1.0,2439
3999,2138999,17100,-356,1220,17147.16,29.61,-1.00,-1.0,2379
4002,2139002,16720,-644,764,16749.83,29.66,-1.00,-1.0,2437
4004,2139004,16912,508,2020,17039.78,29.66,-1.00,-1.0,2370
4007,2139007,16852,-308,1100,16890.67,29.71,-1.00,-1.0,2452
4010,2139010,16768,-104,264,16770.40,29.57,-1.00,-1.0,2379
4012,2139012,17052,-464,1648,17137.73,29.71,-1.00,-1.0,2369
4017,2139017,17224,52,872,17246.14,29.71,-1.00,-1.0,2459
4020,2139020,16508,-872,1176,16572.79,29.71,-1.00,-1.0,2378
4023,2139023,17352,-1100,2148,17519.01,29.71,-1.00,-1.0,2435
4026,2139026,17092,-436,1984,17212.29,29.61,-1.00,-1.0,2371
4028,2139028,16864,-796,1248,16928.84,29.66,-1.00,-1.0,2440
4031,2139031,17412,-84,2204,17551.14,29.57,-1.00,-1.0,2373
4034,2139034,16932,-1184,948,16999.80,29.57,-1.00,-1.0,2438
4037,2139037,16880,244,1460,16944.78,29.66,-1.00,-1.0,2376
4042,2139042,17116,-136,1200,17158.55,29.75,-1.00,-1.0,2454
4044,2139044,16976,-356,1148,17018.50,29.75,-1.00,-1.0,2374
4047,2139047,17244,-596,1148,17292.45,29.66,-1.00,-1.0,2446
4050,2139050,16984,172,924,17009.99,29.66,-1.00,-1.0,2372
4053,2139053,17200,-548,720,17223.78,29.66,-1.00,-1.0,2372
4055,2139055,16952,156,904,16976.80,29.71,-1.00,-1.0,2438
4058,2139058,17312,-496,696,17333.08,29.61,-1.00,-1.0,2370
4061,2139061,16876,-188,1168,16917.42,29.66,-1.00,-1.0,2439
4064,2139064,17036,-200,800,17055.95,29.61,-1.00,-1.0,2371
4069,2139069,17104,-216,964,17132.51,29.61,-1.00,-1.0,2449
4071,2139071,16712,-600,1192,16765.20,29.61,-1.00,-1.0,2379
4074,2139074,17052,-176,1124,17089.91,29.57,-1.00,-1.0,2438
4077,2139077,17036,-196,1312,17087.57,29.57,-1.00,-1.0,2369
4080,2139080,17240,-360,1404,17300.82,29.66,-1.00,-1.0,2441
4082,2139082,16968,92,1428,17028.23,29.66,-1.00,-1.0,2372
4085,2139085,17140,-440,1740,17233.71,29.61,-1.00,-1.0,2445
4088,2139088,16976,-24,1548,17046.45,29.57,-1.00,-1.0,2370
4093,2139093,17076,-148,1096,17111.78,29.75,-1.00,-1.0,2448
4096,2139096,16976,-348,1376,17035.23,29.57,-1.00,-1.0,2381
4098,2139098,16920,-120,1420,16979.91,29.71,-1.00,-1.0,2379
4101,2139101,16952,-372,1040,16987.95,29.66,-1.00,-1.0,2441
4104,2139104,17092,-324,1472,17158.33,29.71,-1.00,-1.0,2374
4107,2139107,17064,-628,1448,17136.84,29.66,-1.00,-1.0,2443
4109,2139109,17024,-100,1088,17059.03,29.57,-1.00,-1.0,2370
4112,2139112,16860,-252,884,16885.04,29.66,-1.00,-1.0,2440
4115,2139115,16896,-916,812,16940.28,29.57,-1.00,-1.0,2372
4120,2139120,17240,-720,1348,17307.60,29.57,-1.00,-1.0,2448
4123,2139123,17112,-228,1112,17149.61,29.66,-1.00,-1.0,2376
4125,2139125,17100,-648,1088,17146.83,29.57,-1.00,-1.0,2435
4128,2139128,16940,-460,1124,16983.48,29.66,-1.00,-1.0,2371
4131,2139131,17080,-132,1152,17119.31,29.71,-1.00,-1.0,2438
4134,2139134,16972,-404,1236,17021.74,29.61,-1.00,-1.0,2368
4137,2139137,17016,-52,1280,17064.15,29.61,-1.00,-1.0,2445
4139,2139139,17012,-188,1204,17055.59,29.61,-1.00,-1.0,2376
4142,2139142,17060,-136,1316,17111.22,29.66,-1.00,-1.0,2371
4147,2139147,17124,-176,1416,17183.35,29.66,-1.00,-1.0,2449
4150,2139150,17148,-412,1248,17198.29,29.57,-1.00,-1.0,2376
4153,2139153,17124,-252,1328,17177.27,29.71,-1.00,-1.0,2437
4156,2139156,17164,-504,1688,17254.17,29.71,-1.00,-1.0,2367
4159,2139159,17052,-428,1392,17114.07,29.61,-1.00,-1.0,2449
4161,2139161,17008,-440,1244,17059.11,29.61,-1.00,-1.0,2376
4164,2139164,16960,-500,1264,17014.38,29.66,-1.00,-1.0,2442
4167,2139167,16828,-260,1492,16896.01,29.57,-1.00,-1.0,2373
4172,2139172,17016,-316,1356,17072.87,29.61,-1.00,-1.0,2449
4174,2139174,17056,-8,1280,17103.96,29.61,-1.00,-1.0,2383
4177,2139177,17064,-176,1284,17113.14,29.66,-1.00,-1.0,2448
4180,2139180,17132,-224,1272,17180.62,29.57,-1.00,-1.0,2371
4183,2139183,16968,-272,1268,17017.49,29.66,-1.00,-1.0,2438
4185,2139185,17112,-276,1216,17157.37,29.66,-1.00,-1.0,2373
4188,2139188,16924,-340,1280,16975.74,29.61,-1.00,-1.0,2370
4191,2139191,17100,-520,1280,17155.72,29.71,-1.00,-1.0,2444
4193,2139193,17044,-304,1116,17083.20,29.61,-1.00,-1.0,2372
4198,2139198,17060,-424,1288,17113.80,29.61,-1.00,-1.0,2449
4201,2139201,17068,-344,1164,17111.10,29.71,-1.00,-1.0,2377
4204,2139204,16920,-356,1208,16966.80,29.66,-1.00,-1.0,2451
4207,2139207,16944,-408,1160,16988.56,29.61,-1.00,-1.0,2378
4210,2139210,16960,-320,1368,17018.09,29.66,-1.00,-1.0,2448
4212,2139212,17040,-316,1308,17093.05,29.66,-1.00,-1.0,2381
4215,2139215,17076,-196,1260,17123.54,29.71,-1.00,-1.0,2437
4218,2139218,17088,-196,1276,17136.70,29.57,-1.00,-1.0,2370
4223,2139223,17024,-336,1028,17058.32,29.66,-1.00,-1.0,2451
4226,2139226,17092,-216,1212,17136.28,29.57,-1.00,-1.0,2374
4228,2139228,16988,-320,1132,17028.68,29.66,-1.00,-1.0,2439
4231,2139231,17072,-348,1144,17113.83,29.52,-1.00,-1.0,2372
4234,2139234,17060,-368,1228,17108.10,29.61,-1.00,-1.0,2438
4237,2139237,17092,-476,1256,17144.70,29.61,-1.00,-1.0,2377
4239,2139239,17060,-100,1444,17121.29,29.66,-1.00,-1.0,2374
4242,2139242,17044,-200,1300,17094.68,29.66,-1.00,-1.0,2444
4245,2139245,17044,-8,1164,17083.70,29.57,-1.00,-1.0,2372
4250,2139250,17032,-304,1140,17072.82,29.57,-1.00,-1.0,2457
4253,2139253,17040,-216,1120,17078.13,29.57,-1.00,-1.0,2384
4255,2139255,17076,-296,1140,17116.57,29.66,-1.00,-1.0,2437
4258,2139258,17052,-232,1112,17089.79,29.75,-1.00,-1.0,2368
4261,2139261,17108,-256,1136,17147.59,29.71,-1.00,-1.0,2439
4264,2139264,17076,-464,1400,17139.58,29.71,-1.00,-1.0,2373
4266,2139266,17040,-424,1348,17098.49,29.61,-1.00,-1.0,2437
4269,2139269,16980,-316,1464,17045.92,29.61,-1.00,-1.0,2370
4274,2139274,17000,-204,1544,17071.19,29.71,-1.00,-1.0,2447
4277,2139277,17128,-272,1392,17186.62,29.52,-1.00,-1.0,2373
4280,2139280,17028,-332,1564,17102.90,29.66,-1.00,-1.0,2448
4282,2139282,16988,-280,1376,17045.94,29.66,-1.00,-1.0,2371
4285,2139285,17096,-408,1420,17159.72,29.66,-1.00,-1.0,2372
4288,2139288,17072,-484,1560,17149.96,29.61,-1.00,-1.0,2439
4291,2139291,17004,-432,1336,17061.87,29.71,-1.00,-1.0,2370
4293,2139293,17000,-416,1176,17045.71,29.61,-1.00,-1.0,2438
4296,2139296,17032,-484,1484,17103.38,29.61,-1.00,-1.0,2371
4301,2139301,16984,-284,1180,17027.31,29.71,-1.00,-1.0,2448
4304,2139304,17108,-212,1312,17159.54,29.71,-1.00,-1.0,2376
4307,2139307,17120,-356,1356,17177.31,29.66,-1.00,-1.0,2444
4309,2139309,17020,-316,1236,17067.75,29.71,-1.00,-1.0,2371
4312,2139312,16976,-304,1304,17028.72,29.66,-1.00,-1.0,2442
4315,2139315,16956,-348,1152,16998.65,29.66,-1.00,-1.0,2373
4318,2139318,16976,-444,1168,17021.93,29.66,-1.00,-1.0,2443
4321,2139321,16980,-456,1120,17023.01,29.57,-1.00,-1.0,2371
4326,2139326,16960,-456,956,16993.04,29.66,-1.00,-1.0,2448
4328,2139328,17044,-364,888,17071.00,29.75,-1.00,-1.0,2377
4331,2139331,17040,-376,912,17068.53,29.71,-1.00,-1.0,2371
4334,2139334,17132,-80,1080,17166.19,29.61,-1.00,-1.0,2438
4336,2139336,17144,-132,1156,17183.44,29.71,-1.00,-1.0,2374
4339,2139339,17048,-92,1216,17091.56,29.57,-1.00,-1.0,2436
4342,2139342,17052,-36,1136,17089.84,29.61,-1.00,-1.0,2372
4345,2139345,16972,-132,1012,17002.66,29.66,-1.00,-1.0,2445
4347,2139347,17016,-44,1060,17049.04,29.66,-1.00,-1.0,2375
4352,2139352,16964,28,1140,17002.29,29.57,-1.00,-1.0,2453
4355,2139355,16992,-164,1180,17033.71,29.66,-1.00,-1.0,2385
4358,2139358,16976,-200,1224,17021.24,29.71,-1.00,-1.0,2438
4361,2139361,16960,-396,1312,17015.28,29.61,-1.00,-1.0,2371
4363,2139363,17100,-308,1244,17147.96,29.71,-1.00,-1.0,2438
4366,2139366,17144,-360,1344,17200.37,29.61,-1.00,-1.0,2375
4369,2139369,16968,-320,1320,17022.27,29.66,-1.00,-1.0,2437
4372,2139372,17132,-424,1232,17181.47,29.66,-1.00,-1.0,2369
4374,2139374,16956,-280,1316,17009.30,29.57,-1.00,-1.0,2371
4379,2139379,16952,-328,1340,17008.04,29.71,-1.00,-1.0,2455
4382,2139382,16992,-184,1260,17039.65,29.61,-1.00,-1.0,2377
4385,2139385,17016,-376,1144,17058.56,29.66,-1.00,-1.0,2442
4387,2139387,17024,-372,1340,17080.71,29.66,-1.00,-1.0,2372
4390,2139390,17064,-360,1248,17113.36,29.66,-1.00,-1.0,2440
4393,2139393,17060,-380,1308,17114.29,29.57,-1.00,-1.0,2371
4396,2139396,17012,-392,1408,17074.67,29.71,-1.00,-1.0,2443
4398,2139398,17080,-508,1364,17141.91,29.57,-1.00,-1.0,2372
4403,2139403,17088,-408,1260,17139.25,29.66,-1.00,-1.0,2448
4406,2139406,17088,-300,1208,17133.27,29.66,-1.00,-1.0,2379
4409,2139409,16996,-316,1200,17041.24,29.61,-1.00,-1.0,2436
4412,2139412,17008,-380,1172,17052.57,29.66,-1.00,-1.0,2373
4415,2139415,16944,-296,1116,16983.29,29.71,-1.00,-1.0,2446
4417,2139417,17028,-288,1208,17073.22,29.61,-1.00,-1.0,2377
4420,2139420,16992,-312,1220,17038.60,29.66,-1.00,-1.0,2372
4423,2139423,16992,-440,1276,17045.52,29.66,-1.00,-1.0,2442
4425,2139425,17000,-468,1192,17048.16,29.66,-1.00,-1.0,2371
4430,2139430,17008,-320,1332,17063.08,29.66,-1.00,-1.0,2436
4433,2139433,16996,-328,1248,17044.91,29.57,-1.00,-1.0,2374
4436,2139436,16976,-216,1216,17020.87,29.57,-1.00,-1.0,2438
4439,2139439,16976,-236,1016,17008.01,29.66,-1.00,-1.0,2372
4441,2139441,16956,-216,1032,16988.75,29.61,-1.00,-1.0,2437
4444,2139444,17016,-276,1084,17052.73,29.57,-1.00,-1.0,2370
4447,2139447,17008,-248,1016,17040.12,29.71,-1.00,-1.0,2439
4450,2139450,17072,-372,1224,17119.86,29.61,-1.00,-1.0,2380
4455,2139455,17028,-368,1260,17078.52,29.66,-1.00,-1.0,2456
4457,2139457,17000,-344,1328,17055.26,29.66,-1.00,-1.0,2376
4460,2139460,16888,-244,1216,16933.48,29.71,-1.00,-1.0,2444
4463,2139463,17040,-184,1092,17075.95,29.71,-1.00,-1.0,2368
4466,2139466,17016,-248,1068,17051.29,29.61,-1.00,-1.0,2442
4469,2139469,17024,-164,1152,17063.72,29.61,-1.00,-1.0,2377
4471,2139471,17172,-252,1140,17211.64,29.66,-1.00,-1.0,2371
4474,2139474,17084,-280,1236,17130.94,29.61,-1.00,-1.0,2437
4477,2139477,17136,-292,1232,17182.71,29.66,-1.00,-1.0,2370
4482,2139482,16980,-444,1332,17037.95,29.66,-1.00,-1.0,2448
4484,2139484,17084,-408,1636,17167.00,29.66,-1.00,-1.0,2373
4487,2139487,17004,-348,1464,17070.46,29.57,-1.00,-1.0,2438
4490,2139490,16952,-324,1216,16998.64,29.66,-1.00,-1.0,2372
4493,2139493,16988,-164,1384,17045.07,29.61,-1.00,-1.0,2440
4495,2139495,17004,-308,1292,17055.79,29.61,-1.00,-1.0,2370
4498,2139498,17052,-128,1244,17097.79,29.61,-1.00,-1.0,2446
4501,2139501,16896,-136,1336,16949.28,29.71,-1.00,-1.0,2379
4506,2139506,17028,-276,1316,17081.01,29.61,-1.00,-1.0,2449
4509,2139509,17112,-324,1432,17174.87,29.61,-1.00,-1.0,2384
4512,2139512,17036,-360,1284,17088.11,29.66,-1.00,-1.0,2445
4514,2139514,17088,-480,1484,17159.03,29.66,-1.00,-1.0,2377
4517,2139517,17072,-420,1364,17131.55,29.66,-1.00,-1.0,2371
4520,2139520,17108,-448,1384,17169.74,29.61,-1.00,-1.0,2443
4522,2139522,17036,-352,1388,17096.07,29.71,-1.00,-1.0,2370
4525,2139525,17008,-356,1240,17056.86,29.61,-1.00,-1.0,2441
4528,2139528,17064,-256,1092,17100.82,29.71,-1.00,-1.0,2372
4533,2139533,17108,-300,1224,17154.35,29.61,-1.00,-1.0,2449
4536,2139536,17048,-272,1172,17090.40,29.52,-1.00,-1.0,2376
4538,2139538,17080,-332,1204,17125.60,29.71,-1.00,-1.0,2435
4541,2139541,17132,-384,1256,17182.27,29.61,-1.00,-1.0,2371
4544,2139544,17096,-288,1264,17145.08,29.75,-1.00,-1.0,2438
4547,2139547,17072,-308,1340,17127.28,29.71,-1.00,-1.0,2369
4550,2139550,17056,-320,1220,17102.57,29.66,-1.00,-1.0,2444
4552,2139552,16920,-164,1156,16960.24,29.66,-1.00,-1.0,2377
4557,2139557,16992,-248,1236,17038.70,29.75,-1.00,-1.0,2454
4560,2139560,16992,-260,1040,17025.78,29.66,-1.00,-1.0,2375
4563,2139563,16912,-360,1084,16950.53,29.61,-1.00,-1.0,2444
4565,2139565,17112,-308,1252,17160.50,29.71,-1.00,-1.0,2372
4568,2139568,17080,-284,1352,17135.78,29.61,-1.00,-1.0,2370
4571,2139571,17136,-328,1272,17186.28,29.66,-1.00,-1.0,2447
4574,2139574,16952,-304,1268,17002.07,29.66,-1.00,-1.0,2380
4576,2139576,17096,-356,1364,17154.02,29.71,-1.00,-1.0,2445
4579,2139579,16976,-308,1392,17035.76,29.57,-1.00,-1.0,2375
4584,2139584,17016,-176,1372,17072.13,29.57,-1.00,-1.0,2456
4587,2139587,16972,-176,1096,17008.26,29.66,-1.00,-1.0,2377
4589,2139589,16928,-160,1308,16979.21,29.61,-1.00,-1.0,2443
4592,2139592,17056,-200,1220,17100.75,29.66,-1.00,-1.0,2379
4595,2139595,17092,-300,1104,17130.24,29.61,-1.00,-1.0,2438
4598,2139598,17076,-300,1352,17132.07,29.61,-1.00,-1.0,2372
4600,2139600,17148,-444,1284,17201.73,29.61,-1.00,-1.0,2435
4603,2139603,17048,-388,1284,17100.69,29.61,-1.00,-1.0,2371
4608,2139608,17056,-404,1252,17106.66,29.71,-1.00,-1.0,2448
4611,2139611,16920,-316,1184,16964.32,29.61,-1.00,-1.0,2376
4613,2139613,16972,-324,1108,17011.21,29.66,-1.00,-1.0,2371
4616,2139616,17012,-236,1236,17058.47,29.57,-1.00,-1.0,2450
4619,2139619,17004,-124,1228,17048.73,29.57,-1.00,-1.0,2381
4622,2139622,17100,-288,1188,17143.64,29.61,-1.00,-1.0,2441
4625,2139625,17100,-184,1168,17140.83,29.71,-1.00,-1.0,2380
4627,2139627,17048,-256,1220,17093.51,29.61,-1.00,-1.0,2437
4630,2139630,17004,-356,1432,17067.90,29.71,-1.00,-1.0,2373
4635,2139635,16980,-280,1204,17024.94,29.61,-1.00,-1.0,2457
4638,2139638,16996,-216,1296,17046.71,29.61,-1.00,-1.0,2379
4641,2139641,16976,-268,1200,17020.47,29.66,-1.00,-1.0,2435
4643,2139643,17076,-296,1252,17124.39,29.71,-1.00,-1.0,2371
4646,2139646,16948,-292,1312,17001.21,29.57,-1.00,-1.0,2439
4649,2139649,16996,-388,1292,17049.45,29.66,-1.00,-1.0,2375
4652,2139652,17004,-216,1228,17049.65,29.66,-1.00,-1.0,2444
4654,2139654,17012,-256,1040,17045.68,29.66,-1.00,-1.0,2371
4659,2139659,17048,-380,1136,17090.03,29.66,-1.00,-1.0,2448
4662,2139662,17012,-272,1112,17050.47,29.57,-1.00,-1.0,2379
4665,2139665,17088,-260,1216,17133.18,29.71,-1.00,-1.0,2372
4668,2139668,17088,-288,1180,17131.12,29.71,-1.00,-1.0,2437
4670,2139670,17080,-296,1216,17125.79,29.61,-1.00,-1.0,2376
4673,2139673,17084,-408,1176,17129.29,29.66,-1.00,-1.0,2437
4676,2139676,17028,-348,1356,17085.45,29.71,-1.00,-1.0,2372
4679,2139679,17016,-276,1392,17075.07,29.66,-1.00,-1.0,2444
4681,2139681,17036,-364,1292,17088.80,29.57,-1.00,-1.0,2374
4686,2139686,17048,-500,1292,17104.20,29.75,-1.00,-1.0,2450
4689,2139689,17036,-324,1288,17087.69,29.66,-1.00,-1.0,2365
4692,2139692,17028,-444,1352,17087.36,29.57,-1.00,-1.0,2436
4695,2139695,17044,-360,1368,17102.60,29.66,-1.00,-1.0,2376
4698,2139698,17108,-380,1412,17170.38,29.71,-1.00,-1.0,2437
4700,2139700,17028,-308,1344,17083.73,29.66,-1.00,-1.0,2437
4703,2139703,17008,-328,1320,17062.30,29.61,-1.00,-1.0,2440
4706,2139706,17080,-256,1392,17138.54,29.57,-1.00,-1.0,2394
4709,2139709,17000,-232,1484,17066.23,29.57,-1.00,-1.0,2370
4714,2139714,17036,-316,1328,17090.60,29.66,-1.00,-1.0,2452
4716,2139716,17028,-372,1420,17091.15,29.66,-1.00,-1.0,2374
4719,2139719,17060,-360,1336,17116.02,29.66,-1.00,-1.0,2437
4722,2139722,17112,-312,1260,17161.16,29.57,-1.00,-1.0,2371
4725,2139725,17112,-252,1260,17160.18,29.71,-1.00,-1.0,2439
4727,2139727,17084,-312,1164,17126.45,29.66,-1.00,-1.0,2371
4730,2139730,17104,-280,1284,17154.41,29.61,-1.00,-1.0,2446
4733,2139733,17016,-340,1008,17049.22,29.66,-1.00,-1.0,2379
4738,2139738,17040,-292,1140,17080.59,29.66,-1.00,-1.0,2449
4741,2139741,17000,-300,1116,17039.23,29.61,-1.00,-1.0,2371
4744,2139744,17064,-272,1128,17103.40,29.61,-1.00,-1.0,2450
4746,2139746,17024,-292,892,17049.85,29.71,-1.00,-1.0,2380
4749,2139749,16992,-196,1268,17040.37,29.66,-1.00,-1.0,2440
4752,2139752,16980,-184,1036,17012.57,29.57,-1.00,-1.0,2374
4755,2139755,16952,-176,1032,16984.29,29.66,-1.00,-1.0,2436
4757,2139757,16976,-248,1176,17018.49,29.66,-1.00,-1.0,2371
4760,2139760,17044,-264,1232,17090.51,29.66,-1.00,-1.0,2370
4765,2139765,16992,-252,1236,17038.76,29.61,-1.00,-1.0,2457
4768,2139768,17000,-292,1260,17049.13,29.61,-1.00,-1.0,2387
4770,2139770,17020,-224,1252,17067.46,29.66,-1.00,-1.0,2440
4773,2139773,17016,-364,1212,17062.99,29.75,-1.00,-1.0,2373
4776,2139776,17044,-232,1248,17091.21,29.66,-1.00,-1.0,2437
4779,2139779,16988,-324,1220,17034.83,29.66,-1.00,-1.0,2370
4781,2139781,17096,-280,1340,17150.72,29.61,-1.00,-1.0,2425
4784,2139784,17096,-280,1228,17142.33,29.66,-1.00,-1.0,2372
4789,2139789,16972,-348,1412,17034.19,29.61,-1.00,-1.0,2464
4792,2139792,17024,-288,1172,17066.72,29.61,-1.00,-1.0,2378
4795,2139795,16972,-372,1380,17032.07,29.66,-1.00,-1.0,2442
4797,2139797,16996,-360,1408,17058.02,29.66,-1.00,-1.0,2376
4800,2139800,17088,-312,1304,17140.52,29.66,-1.00,-1.0,2427
4803,2139803,17008,-312,1328,17062.62,29.57,-1.00,-1.0,2373
4805,2139805,17088,-380,1244,17137.44,29.61,-1.00,-1.0,2371
4808,2139808,16960,-392,1344,17017.69,29.57,-1.00,-1.0,2454
4811,2139811,17052,-392,1300,17105.97,29.61,-1.00,-1.0,2376
4816,2139816,16880,-376,1228,16928.79,29.61,-1.00,-1.0,2448
4819,2139819,17012,-464,1292,17067.30,29.71,-1.00,-1.0,2382
4822,2139822,16972,-384,1152,17015.38,29.66,-1.00,-1.0,2451
4824,2139824,17028,-384,1264,17079.17,29.66,-1.00,-1.0,2382
4827,2139827,16988,-164,1204,17031.40,29.66,-1.00,-1.0,2439
4830,2139830,16952,-228,1168,16993.72,29.66,-1.00,-1.0,2371
4833,2139833,17020,-248,1252,17067.79,29.61,-1.00,-1.0,2436
4835,2139835,17004,-292,1272,17054.01,29.66,-1.00,-1.0,2373
4840,2139840,17124,-268,1128,17163.21,29.66,-1.00,-1.0,2458
4843,2139843,17032,-352,1232,17080.13,29.66,-1.00,-1.0,2376
4846,2139846,17076,-292,1328,17130.05,29.61,-1.00,-1.0,2437
4849,2139849,16992,-392,1208,17039.39,29.71,-1.00,-1.0,2369
4851,2139851,16984,-232,1328,17037.42,29.61,-1.00,-1.0,2439
4854,2139854,16992,-184,1328,17044.81,29.61,-1.00,-1.0,2372
4857,2139857,16992,-268,1280,17042.25,29.66,-1.00,-1.0,2378
4860,2139860,16996,-200,1248,17042.93,29.66,-1.00,-1.0,2449
4862,2139862,17040,-132,1372,17095.65,29.57,-1.00,-1.0,2377
4867,2139867,17032,-252,1224,17077.78,29.66,-1.00,-1.0,2458
4870,2139870,17016,-184,1248,17062.70,29.66,-1.00,-1.0,2389
4873,2139873,17080,-300,1388,17138.93,29.66,-1.00,-1.0,2438
4876,2139876,17084,-304,1216,17129.92,29.71,-1.00,-1.0,2371
4878,2139878,17064,-380,1268,17115.27,29.71,-1.00,-1.0,2438
4881,2139881,17028,-256,1340,17082.56,29.71,-1.00,-1.0,2370
4884,2139884,17004,-364,1292,17056.90,29.61,-1.00,-1.0,2439
4887,2139887,17068,-244,1260,17116.18,29.61,-1.00,-1.0,2377
4892,2139892,17028,-348,1344,17084.50,29.61,-1.00,-1.0,2449
4894,2139894,16960,-364,1392,17020.92,29.71,-1.00,-1.0,2376
4897,2139897,17072,-280,1316,17124.94,29.57,-1.00,-1.0,2440
4900,2139900,16996,-384,1320,17051.51,29.61,-1.00,-1.0,2370
4903,2139903,16960,-340,1268,17010.73,29.57,-1.00,-1.0,2376
4905,2139905,17160,-324,1356,17216.54,29.61,-1.00,-1.0,2442
4908,2139908,17104,-372,1296,17157.06,29.66,-1.00,-1.0,2359
4911,2139911,17064,-308,1188,17108.08,29.61,-1.00,-1.0,2436
4914,2139914,17088,-296,1356,17144.27,29.71,-1.00,-1.0,2367
4919,2139919,17020,-424,1352,17078.88,29.71,-1.00,-1.0,2453
4921,2139921,17052,-236,1316,17104.33,29.61,-1.00,-1.0,2382
4924,2139924,17036,-268,1332,17090.10,29.61,-1.00,-1.0,2438
4927,2139927,17008,-332,1236,17056.08,29.61,-1.00,-1.0,2371
4930,2139930,16912,-284,1360,16968.97,29.66,-1.00,-1.0,2444
4932,2139932,16972,-240,1164,17013.56,29.61,-1.00,-1.0,2370
4935,2139935,17140,-240,1192,17183.07,29.66,-1.00,-1.0,2438
4938,2139938,17056,-160,1096,17091.93,29.66,-1.00,-1.0,2372
4943,2139943,17004,-196,1200,17047.42,29.61,-1.00,-1.0,2449
4946,2139946,17108,-208,1112,17145.36,29.61,-1.00,-1.0,2377
4948,2139948,16896,-248,1072,16931.79,29.66,-1.00,-1.0,2436
4951,2139951,16988,-264,1068,17023.59,29.66,-1.00,-1.0,2371
4954,2139954,16976,-276,1184,17019.48,29.66,-1.00,-1.0,2372
4957,2139957,16908,-284,1224,16954.62,29.61,-1.00,-1.0,2446
4959,2139959,17008,-284,1216,17053.78,29.66,-1.00,-1.0,2437
4962,2139962,16956,-372,1192,17001.92,29.61,-1.00,-1.0,2412
4965,2139965,17060,-392,1196,17106.36,29.61,-1.00,-1.0,2387
4972,2139972,17016,-280,1300,17067.88,29.66,-1.00,-1.0,2458
4975,2139975,17132,-180,1284,17180.99,29.57,-1.00,-1.0,2380
4978,2139978,16984,-348,1212,17030.75,29.71,-1.00,-1.0,2448
4980,2139980,17036,-236,1132,17075.20,29.61,-1.00,-1.0,2381
4983,2139983,17124,-272,1148,17164.59,29.71,-1.00,-1.0,2444
4986,2139986,17020,-360,1280,17071.86,29.61,-1.00,-1.0,2371
4989,2139989,16952,-384,1352,17010.16,29.71,-1.00,-1.0,2441
4991,2139991,17088,-296,1272,17137.83,29.61,-1.00,-1.0,2374
4996,2139996,16924,-424,1376,16985.14,29.61,-1.00,-1.0,2444
4999,2139999,17028,-332,1404,17089.01,29.71,-1.00,-1.0,2379
5001,2140001,17032,-356,1392,17092.50,29.57,-1.00,-1.0,2372
5004,2140004,17156,-384,1296,17209.17,29.57,-1.00,-1.0,2438
5007,2140007,17040,-380,1212,17087.27,29.57,-1.00,-1.0,2371
5010,2140010,16968,-400,1168,17012.86,29.75,-1.00,-1.0,2445
5012,2140012,16964,-360,1352,17021.60,29.66,-1.00,-1.0,2372
5015,2140015,17044,-456,1224,17093.98,29.61,-1.00,-1.0,2447
5018,2140018,17032,-304,1128,17072.02,29.52,-1.00,-1.0,2386
5023,2140023,17040,-260,1152,17080.88,29.61,-1.00,-1.0,2447
5026,2140026,17020,-332,1264,17070.10,29.66,-1.00,-1.0,2426
5029,2140029,16972,-380,1156,17015.57,29.66,-1.00,-1.0,2445
5032,2140032,17068,-256,1100,17105.33,29.61,-1.00,-1.0,2387
5034,2140034,17124,-260,1208,17168.53,29.71,-1.00,-1.0,2430
5037,2140037,17016,-328,1312,17069.66,29.71,-1.00,-1.0,2401
5040,2140040,17024,-188,1172,17065.33,29.66,-1.00,-1.0,2423
5043,2140043,17048,-332,1224,17095.11,29.66,-1.00,-1.0,2388
5048,2140048,17088,-332,1200,17133.30,29.61,-1.00,-1.0,2446
5050,2140050,16904,-320,1252,16953.32,29.71,-1.00,-1.0,2383
5053,2140053,17108,-196,1352,17162.46,29.57,-1.00,-1.0,2375
5056,2140056,17180,-288,1268,17229.14,29.61,-1.00,-1.0,2446
5058,2140058,16976,-268,1252,17024.21,29.61,-1.00,-1.0,2370
5061,2140061,17008,-236,1260,17056.24,29.61,-1.00,-1.0,2454
5064,2140064,16936,-220,1248,16983.35,29.52,-1.00,-1.0,2378
5067,2140067,17020,-240,1188,17063.10,29.66,-1.00,-1.0,2441
5070,2140070,17044,-300,1288,17095.23,29.66,-1.00,-1.0,2371
5075,2140075,17064,-292,1460,17128.83,29.61,-1.00,-1.0,2446
5077,2140077,16996,-312,1296,17048.20,29.71,-1.00,-1.0,2383
5080,2140080,17104,-292,1296,17155.52,29.75,-1.00,-1.0,2445
5083,2140083,16968,-436,1268,17020.90,29.66,-1.00,-1.0,2373
5086,2140086,17024,-304,1240,17071.81,29.57,-1.00,-1.0,2443
5088,2140088,17048,-300,1360,17104.79,29.57,-1.00,-1.0,2370
5091,2140091,17060,-212,1228,17105.45,29.61,-1.00,-1.0,2440
5094,2140094,17032,-304,1344,17087.65,29.71,-1.00,-1.0,2372
5097,2140097,17028,-252,1212,17072.94,29.71,-1.00,-1.0,2375
5102,2140102,16952,-300,1072,16988.51,29.61,-1.00,-1.0,2439
5104,2140104,16972,-260,1228,17018.35,29.61,-1.00,-1.0,2381
5107,2140107,17020,-328,1152,17062.10,29.66,-1.00,-1.0,2449
5110,2140110,16944,-328,1224,16991.32,29.66,-1.00,-1.0,2376
5113,2140113,17036,-212,1244,17082.67,29.57,-1.00,-1.0,2443
5115,2140115,17020,-328,1296,17072.42,29.75,-1.00,-1.0,2373
5118,2140118,16980,-380,1356,17038.30,29.61,-1.00,-1.0,2425
5121,2140121,17028,-276,1140,17068.35,29.66,-1.00,-1.0,2371
5126,2140126,17056,-292,1188,17099.82,29.57,-1.00,-1.0,2442
5129,2140129,17040,-332,1236,17087.99,29.66,-1.00,-1.0,2383
5131,2140131,16964,-288,1128,17003.90,29.61,-1.00,-1.0,2440
5134,2140134,17080,-276,1196,17124.05,29.61,-1.00,-1.0,2370
5137,2140137,16936,-248,1184,16979.15,29.71,-1.00,-1.0,2440
5140,2140140,17032,-328,1220,17078.79,29.66,-1.00,-1.0,2372
5143,2140143,17024,-276,1160,17065.71,29.71,-1.00,-1.0,2437
5145,2140145,17080,-196,1228,17125.21,29.61,-1.00,-1.0,2372
5148,2140148,17000,-316,1356,17056.92,29.66,-1.00,-1.0,2373
5153,2140153,16920,-392,1140,16962.89,29.66,-1.00,-1.0,2448
5156,2140156,17088,-264,1184,17131.00,29.66,-1.00,-1.0,2380
5158,2140158,17044,-288,1356,17100.28,29.66,-1.00,-1.0,2443
5161,2140161,17048,-228,1072,17083.19,29.66,-1.00,-1.0,2374
5164,2140164,16940,-260,1244,16987.61,29.71,-1.00,-1.0,2437
5167,2140167,16984,-252,1188,17027.36,29.66,-1.00,-1.0,2370
5169,2140169,16996,-340,1200,17041.70,29.61,-1.00,-1.0,2438
5172,2140172,16968,-412,1160,17012.59,29.61,-1.00,-1.0,2372
5177,2140177,17052,-436,1316,17108.26,29.61,-1.00,-1.0,2442
5180,2140180,17084,-252,1272,17133.14,29.61,-1.00,-1.0,2383
5183,2140183,17056,-376,1276,17107.80,29.66,-1.00,-1.0,2444
5185,2140185,17084,-332,1304,17136.91,29.66,-1.00,-1.0,2380
5188,2140188,16992,-240,1160,17033.24,29.61,-1.00,-1.0,2448
5191,2140191,17072,-272,1356,17127.93,29.66,-1.00,-1.0,2373
5193,2140193,17040,-324,1344,17095.99,29.61,-1.00,-1.0,2371
5196,2140196,17080,-376,1188,17125.39,29.57,-1.00,-1.0,2439
5199,2140199,16964,-380,1348,17021.71,29.61,-1.00,-1.0,2372
5204,2140204,16976,-304,1276,17026.60,29.66,-1.00,-1.0,2440
5206,2140206,17048,-384,1308,17102.42,29.61,-1.00,-1.0,2381
5209,2140209,16896,-308,1360,16953.45,29.61,-1.00,-1.0,2439
5212,2140212,17092,-360,1280,17143.64,29.61,-1.00,-1.0,2375
5215,2140215,17024,-332,1400,17084.70,29.75,-1.00,-1.0,2444
5217,2140217,16928,-352,1288,16980.58,29.61,-1.00,-1.0,2371
5220,2140220,17004,-404,1232,17053.36,29.66,-1.00,-1.0,2440
5223,2140223,16976,-284,1324,17029.92,29.66,-1.00,-1.0,2373
5228,2140228,17108,-288,1300,17159.74,29.61,-1.00,-1.0,2442
5231,2140231,17088,-260,1400,17147.22,29.52,-1.00,-1.0,2370
5234,2140234,17140,-280,1260,17188.53,29.57,-1.00,-1.0,2447
5236,2140236,16948,-308,1216,16994.36,29.57,-1.00,-1.0,2372
5239,2140239,16956,-352,1252,17005.80,29.75,-1.00,-1.0,2438
5242,2140242,17124,-200,1348,17178.14,29.66,-1.00,-1.0,2374
5245,2140245,16996,-332,1108,17035.31,29.66,-1.00,-1.0,2374
5247,2140247,17040,-296,1388,17099.00,29.61,-1.00,-1.0,2437
5250,2140250,17060,-220,1072,17095.06,29.52,-1.00,-1.0,2371
5255,2140255,17072,-344,1308,17125.49,29.61,-1.00,-1.0,2454
5258,2140258,17020,-244,1192,17063.44,29.71,-1.00,-1.0,2377
5261,2140261,16988,-248,1300,17039.47,29.61,-1.00,-1.0,2450
5263,2140263,17004,-324,1172,17047.42,29.61,-1.00,-1.0,2374
5266,2140266,17064,-208,1316,17115.93,29.66,-1.00,-1.0,2439
5269,2140269,17028,-364,1364,17086.42,29.61,-1.00,-1.0,2371
5272,2140272,17048,-244,1332,17101.70,29.66,-1.00,-1.0,2445
5274,2140274,17112,-296,1228,17158.56,29.57,-1.00,-1.0,2373
5279,2140279,16932,-364,1192,16977.81,29.66,-1.00,-1.0,2441
5282,2140282,17080,-288,1252,17128.25,29.61,-1.00,-1.0,2380
5285,2140285,17044,-300,1068,17080.06,29.57,-1.00,-1.0,2440
5288,2140288,17096,-252,1132,17135.29,29.57,-1.00,-1.0,2377
5290,2140290,16996,-360,1112,17036.14,29.61,-1.00,-1.0,2373
5293,2140293,17012,-252,1260,17060.46,29.61,-1.00,-1.0,2447
5296,2140296,16896,-288,1180,16939.60,29.52,-1.00,-1.0,2372
5299,2140299,16980,-376,1252,17030.25,29.66,-1.00,-1.0,2435
5301,2140301,16960,-256,1244,17007.49,29.61,-1.00,-1.0,2363
5306,2140306,17072,-240,1040,17105.33,29.61,-1.00,-1.0,2450
5309,2140309,16952,-328,1328,17007.10,29.61,-1.00,-1.0,2389
5312,2140312,17072,-340,1288,17123.89,29.66,-1.00,-1.0,2441
5315,2140315,17024,-280,1124,17063.36,29.61,-1.00,-1.0,2373
5317,2140317,17032,-336,1304,17085.15,29.66,-1.00,-1.0,2437
5320,2140320,16988,-360,1308,17042.08,29.57,-1.00,-1.0,2370
5323,2140323,16984,-300,1156,17025.94,29.57,-1.00,-1.0,2438
5326,2140326,17020,-400,1440,17085.49,29.66,-1.00,-1.0,2379
5331,2140331,17080,-272,1336,17134.33,29.75,-1.00,-1.0,2440
5333,2140333,17080,-312,1408,17140.78,29.66,-1.00,-1.0,2376
5336,2140336,16936,-368,1304,16990.11,29.66,-1.00,-1.0,2448
5339,2140339,16976,-316,1384,17035.25,29.66,-1.00,-1.0,2369
5342,2140342,17076,-316,1312,17129.24,29.71,-1.00,-1.0,2372
5344,2140344,17052,-252,1244,17099.17,29.66,-1.00,-1.0,2447
5347,2140347,17020,-220,1264,17068.29,29.61,-1.00,-1.0,2375
5350,2140350,17028,-320,1324,17082.39,29.66,-1.00,-1.0,2437
5353,2140353,17024,-324,1352,17080.68,29.66,-1.00,-1.0,2367
5358,2140358,16988,-228,1208,17032.42,29.61,-1.00,-1.0,2443
5360,2140360,16912,-276,1116,16951.03,29.61,-1.00,-1.0,2384
5363,2140363,17004,-204,1184,17046.39,29.66,-1.00,-1.0,2446
5366,2140366,17004,-256,1192,17047.65,29.57,-1.00,-1.0,2375
5369,2140369,17052,-380,1296,17105.40,29.66,-1.00,-1.0,2440
5371,2140371,17060,-324,1336,17115.30,29.66,-1.00,-1.0,2370
5374,2140374,17096,-332,1164,17138.80,29.61,-1.00,-1.0,2440
5377,2140377,17048,-272,1256,17096.37,29.66,-1.00,-1.0,2372
5382,2140382,17052,-284,1212,17097.38,29.61,-1.00,-1.0,2430
5384,2140384,17052,-340,1128,17092.65,29.75,-1.00,-1.0,2380
5387,2140387,17008,-292,1092,17045.52,29.66,-1.00,-1.0,2387
5390,2140390,16996,-368,1204,17042.57,29.57,-1.00,-1.0,2439
5393,2140393,17024,-308,1328,17078.50,29.66,-1.00,-1.0,2367
5395,2140395,17048,-296,1212,17093.59,29.66,-1.00,-1.0,2438
5398,2140398,17048,-236,1120,17086.38,29.66,-1.00,-1.0,2374
5401,2140401,17016,-292,1244,17063.91,29.71,-1.00,-1.0,2435
5404,2140404,17068,-288,1400,17127.74,29.71,-1.00,-1.0,2370
5408,2140408,16964,-308,1416,17025.78,29.57,-1.00,-1.0,2451
5411,2140411,17100,-312,1244,17148.03,29.66,-1.00,-1.0,2372
5414,2140414,16984,-300,1416,17045.57,29.75,-1.00,-1.0,2427
5417,2140417,17072,-372,1248,17121.60,29.57,-1.00,-1.0,2372
5419,2140419,17040,-252,1400,17099.27,29.66,-1.00,-1.0,2439
5422,2140422,16968,-308,1172,17011.22,29.61,-1.00,-1.0,2371
5425,2140425,17080,-276,1268,17129.23,29.61,-1.00,-1.0,2439
5428,2140428,16952,-396,1352,17010.44,29.61,-1.00,-1.0,2379
5433,2140433,17088,-284,1412,17148.59,29.61,-1.00,-1.0,2441
5435,2140435,17012,-352,1324,17067.07,29.57,-1.00,-1.0,2379
5438,2140438,17064,-300,1268,17113.68,29.61,-1.00,-1.0,2370
5441,2140441,17048,-328,1304,17100.95,29.66,-1.00,-1.0,2446
5444,2140444,17104,-396,1156,17147.59,29.66,-1.00,-1.0,2378
5446,2140446,17000,-284,1076,17036.38,29.66,-1.00,-1.0,2441
5449,2140449,16972,-316,1196,17017.02,29.66,-1.00,-1.0,2361
5452,2140452,16992,-312,1292,17043.90,29.71,-1.00,-1.0,2435
5455,2140455,17040,-392,1236,17089.26,29.66,-1.00,-1.0,2369
5460,2140460,17112,-360,1224,17159.50,29.57,-1.00,-1.0,2444
5462,2140462,17056,-296,1288,17107.12,29.66,-1.00,-1.0,2389
5465,2140465,17008,-232,1248,17055.30,29.66,-1.00,-1.0,2486
5468,2140468,17064,-368,1284,17116.20,29.57,-1.00,-1.0,2379
5471,2140471,17072,-332,1432,17135.17,29.71,-1.00,-1.0,2438
5474,2140474,17000,-264,1236,17046.92,29.57,-1.00,-1.0,2367
5476,2140476,17020,-312,1296,17072.12,29.61,-1.00,-1.0,2439
5479,2140479,17052,-356,1276,17103.38,29.61,-1.00,-1.0,2372
5482,2140482,16980,-376,1240,17029.37,29.71,-1.00,-1.0,2377
5487,2140487,17032,-276,1268,17081.37,29.61,-1.00,-1.0,2451
5489,2140489,17044,-236,1224,17089.52,29.71,-1.00,-1.0,2364
5492,2140492,17052,-248,1252,17099.70,29.57,-1.00,-1.0,2449
5495,2140495,17040,-260,1108,17077.96,29.66,-1.00,-1.0,2376
5498,2140498,17100,-352,1132,17141.04,29.66,-1.00,-1.0,2429
5501,2140501,17064,-328,1192,17108.73,29.66,-1.00,-1.0,2376
5503,2140503,17060,-348,1220,17107.11,29.57,-1.00,-1.0,2445
5506,2140506,17084,-272,1252,17131.97,29.66,-1.00,-1.0,2374
5511,2140511,17000,-232,1068,17035.09,29.75,-1.00,-1.0,2454
5514,2140514,17144,-348,1304,17197.04,29.66,-1.00,-1.0,2378
5517,2140517,17048,-312,1220,17094.45,29.71,-1.00,-1.0,2454
5519,2140519,17032,-284,1212,17077.43,29.61,-1.00,-1.0,2372
5522,2140522,17052,-260,1296,17103.15,29.61,-1.00,-1.0,2442
5525,2140525,16956,-332,1236,17004.23,29.61,-1.00,-1.0,2371
5528,2140528,17004,-244,1212,17048.88,29.66,-1.00,-1.0,2444
5530,2140530,17048,-216,1352,17102.89,29.57,-1.00,-1.0,2370
5533,2140533,17196,-328,1348,17251.87,29.66,-1.00,-1.0,2384
5538,2140538,17164,-276,1188,17207.28,29.66,-1.00,-1.0,2441
5541,2140541,17092,-320,1316,17145.57,29.66,-1.00,-1.0,2385
5544,2140544,17164,-324,1164,17206.47,29.71,-1.00,-1.0,2452
5546,2140546,17040,-236,1288,17090.24,29.66,-1.00,-1.0,2379
5549,2140549,16992,-192,1320,17044.28,29.71,-1.00,-1.0,2437
5552,2140552,17068,-288,1264,17117.16,29.71,-1.00,-1.0,2370
5555,2140555,16988,-376,1252,17038.22,29.66,-1.00,-1.0,2442
5557,2140557,17080,-332,1184,17124.21,29.61,-1.00,-1.0,2373
5562,2140562,16932,-252,1304,16984.01,29.61,-1.00,-1.0,2444
5565,2140565,16976,-284,1340,17031.17,29.61,-1.00,-1.0,2377
5568,2140568,17040,-340,1328,17095.05,29.66,-1.00,-1.0,2442
5571,2140571,17008,-316,1240,17056.07,29.57,-1.00,-1.0,2369
5574,2140574,17080,-308,1176,17123.21,29.66,-1.00,-1.0,2439
5576,2140576,17028,-364,1280,17079.92,29.66,-1.00,-1.0,2373
5579,2140579,17036,-300,1168,17078.63,29.71,-1.00,-1.0,2373
5582,2140582,17036,-296,1244,17083.92,29.71,-1.00,-1.0,2444
5584,2140584,17008,-348,1308,17061.77,29.61,-1.00,-1.0,2371
5589,2140589,16924,-204,1320,16976.62,29.66,-1.00,-1.0,2440
5592,2140592,17004,-472,1176,17051.15,29.66,-1.00,-1.0,2430
5595,2140595,17072,-300,1240,17119.60,29.66,-1.00,-1.0,2432
5598,2140598,17108,-320,1336,17163.07,29.61,-1.00,-1.0,2388
5600,2140600,17000,-288,1328,17054.22,29.66,-1.00,-1.0,2422
5603,2140603,17116,-220,1388,17173.60,29.66,-1.00,-1.0,2374
5606,2140606,17060,-232,1316,17112.26,29.66,-1.00,-1.0,2422
5609,2140609,17048,-280,1288,17098.88,29.66,-1.00,-1.0,2393
5613,2140613,16912,-304,1356,16969.00,29.66,-1.00,-1.0,2449
5616,2140616,17036,-292,1240,17083.56,29.57,-1.00,-1.0,2378
5619,2140619,16960,-336,1288,17012.16,29.57,-1.00,-1.0,2440
5622,2140622,17036,-288,1244,17083.79,29.66,-1.00,-1.0,2369
5625,2140625,17144,-232,1344,17198.17,29.61,-1.00,-1.0,2439
5627,2140627,17008,-344,1296,17060.77,29.66,-1.00,-1.0,2375
5630,2140630,16984,-400,1296,17038.07,29.71,-1.00,-1.0,2358
5633,2140633,17040,-360,1396,17100.88,29.66,-1.00,-1.0,2446
5635,2140635,17096,-376,1400,17157.35,29.71,-1.00,-1.0,2378
5641,2140641,16992,-208,1292,17042.32,29.52,-1.00,-1.0,2441
5643,2140643,17076,-176,1292,17125.71,29.66,-1.00,-1.0,2377
5646,2140646,17048,-332,1228,17095.39,29.61,-1.00,-1.0,2434
5649,2140649,17132,-412,1284,17184.99,29.61,-1.00,-1.0,2374
5652,2140652,16956,-344,1160,16999.11,29.57,-1.00,-1.0,2450
5654,2140654,17092,-264,1356,17147.74,29.66,-1.00,-1.0,2379
5657,2140657,16972,-292,1252,17020.62,29.75,-1.00,-1.0,2438
5660,2140660,17040,-304,1208,17085.47,29.47,-1.00,-1.0,2359
5665,2140665,17044,-260,1216,17089.30,29.71,-1.00,-1.0,2446
5668,2140668,17028,-348,1176,17072.11,29.61,-1.00,-1.0,2383
5670,2140670,16976,-232,1104,17013.44,29.66,-1.00,-1.0,2439
5673,2140673,17084,-352,1204,17129.99,29.57,-1.00,-1.0,2370
5676,2140676,17064,-360,1152,17106.63,29.61,-1.00,-1.0,2377
5679,2140679,16964,-300,1252,17012.78,29.61,-1.00,-1.0,2440
5681,2140681,17020,-252,1192,17063.55,29.71,-1.00,-1.0,2373
5684,2140684,17024,-268,1224,17070.05,29.66,-1.00,-1.0,2450
5687,2140687,16988,-176,1292,17037.97,29.61,-1.00,-1.0,2372
5692,2140692,17040,-336,1212,17086.35,29.52,-1.00,-1.0,2452
5694,2140694,17028,-320,1152,17069.92,29.61,-1.00,-1.0,2376
5697,2140697,16932,-272,1284,16982.79,29.75,-1.00,-1.0,2450
5700,2140700,17044,-260,1300,17095.48,29.66,-1.00,-1.0,2378
5703,2140703,17072,-304,1192,17116.26,29.66,-1.00,-1.0,2438
5706,2140706,17020,-308,1232,17067.31,29.66,-1.00,-1.0,2371
5708,2140708,17088,-248,1256,17135.89,29.61,-1.00,-1.0,2438
5711,2140711,17140,-296,1060,17175.30,29.57,-1.00,-1.0,2373
5716,2140716,16920,-408,1244,16970.57,29.66,-1.00,-1.0,2451
5719,2140719,17044,-336,1260,17093.81,29.66,-1.00,-1.0,2379
5722,2140722,16972,-284,1108,17010.50,29.61,-1.00,-1.0,2446
5724,2140724,17020,-292,1200,17064.75,29.57,-1.00,-1.0,2370
5727,2140727,17044,-220,1276,17093.11,29.71,-1.00,-1.0,2369
5730,2140730,17028,-336,1104,17067.06,29.57,-1.00,-1.0,2447
5733,2140733,17076,-296,1288,17127.06,29.57,-1.00,-1.0,2377
5735,2140735,16992,-200,1144,17031.64,29.66,-1.00,-1.0,2446
5738,2140738,17028,-268,1304,17079.96,29.66,-1.00,-1.0,2374
5743,2140743,16956,-344,1256,17005.93,29.57,-1.00,-1.0,2460
5746,2140746,17008,-252,1172,17050.20,29.75,-1.00,-1.0,2380
5749,2140749,17064,-368,1144,17106.26,29.66,-1.00,-1.0,2445
5751,2140751,17032,-260,1320,17085.05,29.57,-1.00,-1.0,2372
5754,2140754,17068,-272,1268,17117.20,29.66,-1.00,-1.0,2427
5757,2140757,17028,-316,1252,17076.89,29.57,-1.00,-1.0,2372
5760,2140760,17080,-272,1276,17129.76,29.61,-1.00,-1.0,2443
5762,2140762,17020,-300,1208,17065.45,29.52,-1.00,-1.0,2370
5767,2140767,16940,-320,1244,16988.63,29.57,-1.00,-1.0,2430
5770,2140770,16992,-376,1288,17044.89,29.57,-1.00,-1.0,2379
5773,2140773,17020,-272,1272,17069.63,29.61,-1.00,-1.0,2379
5776,2140776,17044,-292,1240,17091.54,29.66,-1.00,-1.0,2441
5778,2140778,17012,-348,1292,17064.54,29.66,-1.00,-1.0,2373
5781,2140781,17116,-348,1344,17172.21,29.66,-1.00,-1.0,2453
5784,2140784,16932,-292,1108,16970.73,29.66,-1.00,-1.0,2377
5787,2140787,17072,-316,1352,17128.37,29.52,-1.00,-1.0,2447
5789,2140789,17188,-332,1408,17248.77,29.75,-1.00,-1.0,2379
5796,2140796,16976,-376,1260,17026.85,29.61,-1.00,-1.0,2444
5799,2140799,16912,-288,1172,16955.01,29.71,-1.00,-1.0,2378
5802,2140802,17008,-296,1080,17044.83,29.52,-1.00,-1.0,2445
5804,2140804,17040,-308,1444,17103.85,29.71,-1.00,-1.0,2371
5807,2140807,17072,-340,1124,17112.34,29.66,-1.00,-1.0,2442
5810,2140810,17072,-240,1384,17129.69,29.66,-1.00,-1.0,2373
5813,2140813,16956,-316,1460,17021.67,29.57,-1.00,-1.0,2443
5816,2140816,17036,-292,1300,17088.02,29.66,-1.00,-1.0,2376
5820,2140820,16980,-344,1216,17026.96,29.57,-1.00,-1.0,2443
5823,2140823,16948,-232,1324,17001.22,29.57,-1.00,-1.0,2377
5826,2140826,17048,-284,1348,17103.57,29.66,-1.00,-1.0,2372
5828,2140828,17052,-292,1280,17102.47,29.71,-1.00,-1.0,2439
5831,2140831,17056,-256,1276,17105.58,29.61,-1.00,-1.0,2374
5834,2140834,17028,-264,1448,17091.49,29.71,-1.00,-1.0,2436
5837,2140837,16976,-256,1112,17014.31,29.61,-1.00,-1.0,2370
5839,2140839,16972,-216,1264,17020.38,29.66,-1.00,-1.0,2438
5842,2140842,17016,-340,1212,17062.50,29.71,-1.00,-1.0,2437
5847,2140847,17016,-304,1224,17062.67,29.61,-1.00,-1.0,2456
5850,2140850,17044,-320,1276,17094.69,29.61,-1.00,-1.0,2374
5853,2140853,16968,-316,1200,17013.31,29.66,-1.00,-1.0,2437
5856,2140856,16920,-280,1280,16970.66,29.71,-1.00,-1.0,2373
5859,2140859,17020,-236,1188,17063.04,29.66,-1.00,-1.0,2439
5861,2140861,17012,-288,1176,17055.03,29.66,-1.00,-1.0,2374
5864,2140864,16928,-204,1252,16975.46,29.57,-1.00,-1.0,2452
5867,2140867,16916,-240,1248,16963.67,29.75,-1.00,-1.0,2376
5869,2140869,17028,-356,1216,17075.07,29.61,-1.00,-1.0,2373
5874,2140874,16992,-296,1100,17030.14,29.61,-1.00,-1.0,2456
5877,2140877,17060,-256,1176,17102.40,29.66,-1.00,-1.0,2379
5880,2140880,17072,-272,1220,17117.70,29.57,-1.00,-1.0,2442
5883,2140883,16976,-240,1340,17030.50,29.61,-1.00,-1.0,2372
5885,2140885,16976,-108,1200,17018.70,29.66,-1.00,-1.0,2438
5888,2140888,16940,-360,1260,16990.61,29.66,-1.00,-1.0,2371
5891,2140891,17076,-352,1324,17130.87,29.66,-1.00,-1.0,2439
5894,2140894,16964,-340,1164,17007.29,29.66,-1.00,-1.0,2376
5899,2140899,17100,-336,1140,17141.25,29.66,-1.00,-1.0,2453
5901,2140901,17044,-268,1344,17099.01,29.57,-1.00,-1.0,2377
5904,2140904,17044,-348,1444,17108.60,29.66,-1.00,-1.0,2441
5907,2140907,17044,-344,1264,17094.27,29.75,-1.00,-1.0,2370
5910,2140910,16996,-260,1360,17052.31,29.71,-1.00,-1.0,2448
5913,2140913,16932,-256,1304,16984.07,29.71,-1.00,-1.0,2376
5915,2140915,16956,-356,1348,17013.22,29.61,-1.00,-1.0,2446
5918,2140918,17000,-308,1220,17046.50,29.61,-1.00,-1.0,2380
5921,2140921,17040,-304,1212,17085.75,29.66,-1.00,-1.0,2370
5926,2140926,17092,-340,1184,17136.33,29.66,-1.00,-1.0,2446
5928,2140928,17140,-336,1272,17190.42,29.57,-1.00,-1.0,2380
5931,2140931,17000,-224,1180,17042.38,29.75,-1.00,-1.0,2437
5934,2140934,16936,-356,1208,16982.76,29.61,-1.00,-1.0,2443
5937,2140937,17088,-408,1272,17140.13,29.66,-1.00,-1.0,2433
5940,2140940,16984,-324,1240,17032.29,29.57,-1.00,-1.0,2395
5943,2140943,17136,-236,1216,17180.71,29.61,-1.00,-1.0,2421
5945,2140945,16960,-204,1276,17009.16,29.52,-1.00,-1.0,2387
5950,2140950,17056,-396,1236,17105.31,29.61,-1.00,-1.0,2446
5953,2140953,17048,-264,1268,17097.13,29.75,-1.00,-1.0,2371
5956,2140956,17096,-196,1380,17152.73,29.52,-1.00,-1.0,2448
5959,2140959,17040,-348,1320,17094.59,29.71,-1.00,-1.0,2377
5961,2140961,17084,-252,1408,17143.78,29.66,-1.00,-1.0,2441
5964,2140964,17072,-308,1312,17125.11,29.61,-1.00,-1.0,2377
5967,2140967,17148,-336,1272,17198.39,29.57,-1.00,-1.0,2371
5969,2140969,17072,-276,1232,17118.62,29.61,-1.00,-1.0,2436
5972,2140972,16956,-292,1248,17004.37,29.61,-1.00,-1.0,2371
5977,2140977,17096,-272,1300,17147.51,29.66,-1.00,-1.0,2445
5980,2140980,17056,-288,1268,17105.49,29.57,-1.00,-1.0,2377
5983,2140983,17024,-188,1128,17062.37,29.61,-1.00,-1.0,2447
5985,2140985,17032,-280,1260,17080.84,29.61,-1.00,-1.0,2373
5988,2140988,17068,-384,1340,17124.83,29.61,-1.00,-1.0,2451
5991,2140991,17088,-220,1108,17125.30,29.61,-1.00,-1.0,2378
5994,2140994,17020,-232,1156,17060.79,29.66,-1.00,-1.0,2438
5997,2140997,17056,-268,1164,17097.77,29.66,-1.00,-1.0,2377
6001,2141001,17072,-204,1172,17113.40,29.66,-1.00,-1.0,2446
6004,2141004,17000,-316,1156,17042.19,29.57,-1.00,-1.0,2380
6007,2141007,17056,-252,1324,17109.17,29.57,-1.00,-1.0,2436
6010,2141010,17028,-344,1220,17075.11,29.71,-1.00,-1.0,2376
6013,2141013,17068,-152,1140,17106.71,29.71,-1.00,-1.0,2438
6015,2141015,17052,-272,1252,17100.06,29.61,-1.00,-1.0,2372
6018,2141018,17048,-264,1252,17095.95,29.57,-1.00,-1.0,2373
6021,2141021,16960,-172,1184,17002.15,29.66,-1.00,-1.0,2440
6023,2141023,16992,-368,1304,17045.94,29.57,-1.00,-1.0,2373
6028,2141028,16980,-340,1224,17027.45,29.61,-1.00,-1.0,2444
6031,2141031,16968,-312,1212,17014.09,29.71,-1.00,-1.0,2379
6034,2141034,16976,-348,1292,17028.65,29.66,-1.00,-1.0,2451
6036,2141036,17076,-384,1156,17119.39,29.66,-1.00,-1.0,2379
6039,2141039,17052,-340,1264,17102.16,29.71,-1.00,-1.0,2438
6042,2141042,17048,-304,1284,17098.99,29.57,-1.00,-1.0,2371
6045,2141045,16992,-308,1304,17044.75,29.61,-1.00,-1.0,2443
6047,2141047,16952,-256,1180,16994.95,29.71,-1.00,-1.0,2372
