timestamp_ms,global_ms,accel_x,accel_y,accel_z,accel_mag,temp_c,voltage,soc,loop_us
3,2135003,18416,216,1652,18491.21,24.67,-1.00,-1.0,2487
9,2135009,20280,-1596,-296,20344.86,24.67,-1.00,-1.0,2457
12,2135012,15828,996,-2092,15996.69,24.67,-1.00,-1.0,2369
15,2135015,18504,1480,-668,18575.11,24.58,-1.00,-1.0,2447
17,2135017,21616,336,3176,21850.66,24.67,-1.00,-1.0,2360
20,2135020,12732,-2140,3220,13306.08,24.72,-1.00,-1.0,2360
23,2135023,21604,-2076,1876,21784.44,24.53,-1.00,-1.0,2447
25,2135025,11288,1448,-744,11404.79,24.72,-1.00,-1.0,2362
28,2135028,21756,2752,-124,21929.71,24.62,-1.00,-1.0,2443
31,2135031,12432,-864,936,12497.09,24.58,-1.00,-1.0,2360
36,2135036,19600,-2364,2408,19888.36,24.62,-1.00,-1.0,2452
39,2135039,13656,844,-1868,13808.99,24.53,-1.00,-1.0,2374
41,2135041,22208,3632,612,22511.36,24.58,-1.00,-1.0,2446
44,2135044,12036,292,2352,12267.13,24.62,-1.00,-1.0,2369
47,2135047,21192,-3308,3284,21698.58,24.67,-1.00,-1.0,2361
49,2135049,16700,-3100,1264,17032.25,24.67,-1.00,-1.0,2432
52,2135052,18652,440,-2108,18775.90,24.48,-1.00,-1.0,2369
55,2135055,15992,2172,-1348,16195.02,24.67,-1.00,-1.0,2439
58,2135058,17760,-588,-92,17769.97,24.53,-1.00,-1.0,2363
63,2135063,12944,-3232,396,13347.28,24.67,-1.00,-1.0,2446
65,2135065,20984,1308,696,21036.24,24.58,-1.00,-1.0,2365
68,2135068,12912,2584,800,13192.30,24.62,-1.00,-1.0,2441
71,2135071,20264,-48,312,20266.46,24.58,-1.00,-1.0,2361
74,2135074,12628,-2448,1344,12933.11,24.58,-1.00,-1.0,2445
76,2135076,17412,-2056,264,17534.95,24.58,-1.00,-1.0,2363
79,2135079,17680,572,1088,17722.68,24.62,-1.00,-1.0,2362
82,2135082,15792,908,-968,15847.67,24.62,-1.00,-1.0,2445
84,2135084,19716,-628,1036,19753.19,24.72,-1.00,-1.0,2348
89,2135089,21756,-2232,-1804,21944.47,24.58,-1.00,-1.0,2443
92,2135092,14484,-408,740,14508.63,24.67,-1.00,-1.0,2364
95,2135095,18212,1284,-268,18259.17,24.67,-1.00,-1.0,2437
98,2135098,17024,-916,-232,17050.20,24.67,-1.00,-1.0,2366
100,2135100,11436,-992,1136,11535.02,24.77,-1.00,-1.0,2432
103,2135103,22488,-116,3568,22769.59,24.58,-1.00,-1.0,2370
106,2135106,11244,-816,1124,11329.46,24.58,-1.00,-1.0,2439
109,2135109,22088,200,1584,22145.63,24.67,-1.00,-1.0,2367
111,2135111,12832,300,452,12843.46,24.58,-1.00,-1.0,2361
116,2135116,19448,-624,1324,19503.00,24.58,-1.00,-1.0,2454
119,2135119,14956,-2460,820,15179.13,24.67,-1.00,-1.0,2366
122,2135122,18848,-200,1496,18908.33,24.67,-1.00,-1.0,2448
124,2135124,13360,564,-1336,13438.47,24.67,-1.00,-1.0,2368
127,2135127,21140,784,728,21167.05,24.58,-1.00,-1.0,2447
130,2135130,12752,-1512,2336,13052.07,24.67,-1.00,-1.0,2363
133,2135133,20288,-2028,2296,20517.98,24.67,-1.00,-1.0,2451
135,2135135,16708,-148,1216,16752.85,24.67,-1.00,-1.0,2364
140,2135140,20700,892,-612,20728.25,24.62,-1.00,-1.0,2444
143,2135143,15660,-1960,348,15786.02,24.72,-1.00,-1.0,2364
146,2135146,19208,-1692,2996,19513.74,24.67,-1.00,-1.0,2449
148,2135148,13952,60,-1164,14000.60,24.62,-1.00,-1.0,2360
151,2135151,20848,1852,460,20935.15,24.58,-1.00,-1.0,2361
154,2135154,11752,388,2364,11993.69,24.67,-1.00,-1.0,2446
156,2135156,19772,-1480,2768,20019.60,24.53,-1.00,-1.0,2360
159,2135159,18360,-1820,828,18468.56,24.67,-1.00,-1.0,2454
162,2135162,15620,-264,1196,15667.95,24.62,-1.00,-1.0,2359
167,2135167,15236,824,184,15259.38,24.62,-1.00,-1.0,2444
170,2135170,19996,-1496,2472,20203.68,24.58,-1.00,-1.0,2433
173,2135173,11620,-556,1516,11731.66,24.62,-1.00,-1.0,2434
175,2135175,21696,1492,1264,21783.94,24.62,-1.00,-1.0,2371
178,2135178,12680,160,2172,12865.67,24.62,-1.00,-1.0,2430
181,2135181,20216,-2788,1828,20489.05,24.72,-1.00,-1.0,2370
183,2135183,12224,-984,160,12264.58,24.62,-1.00,-1.0,2362
186,2135186,16368,2116,-1636,16585.10,24.58,-1.00,-1.0,2423
189,2135189,18528,1436,-436,18588.68,24.62,-1.00,-1.0,2375
194,2135194,23108,-5128,2260,23777.80,24.62,-1.00,-1.0,2436
197,2135197,9872,428,1780,10040.32,24.67,-1.00,-1.0,2373
199,2135199,22704,3452,-1764,23032.58,24.62,-1.00,-1.0,2429
202,2135202,15072,1848,-608,15197.04,24.58,-1.00,-1.0,2377
205,2135205,17528,-3868,820,17968.43,24.53,-1.00,-1.0,2437
208,2135208,18428,-4636,312,19004.76,24.67,-1.00,-1.0,2368
210,2135210,17888,656,-1644,17975.36,24.62,-1.00,-1.0,2445
213,2135213,21068,2288,228,21193.10,24.77,-1.00,-1.0,2370
218,2135218,20772,-204,1460,20824.25,24.62,-1.00,-1.0,2425
221,2135221,13012,-4180,2200,13842.85,24.58,-1.00,-1.0,2365
223,2135223,14636,-3132,1072,15005.70,24.62,-1.00,-1.0,2350
226,2135226,22024,896,1052,22067.31,24.62,-1.00,-1.0,2441
229,2135229,10704,3664,-444,11322.44,24.67,-1.00,-1.0,2366
231,2135231,21988,1032,2660,22172.34,24.62,-1.00,-1.0,2421
234,2135234,11840,-3788,1008,12471.99,24.62,-1.00,-1.0,2378
237,2135237,23156,-4052,2700,23662.40,24.67,-1.00,-1.0,2435
240,2135240,11504,508,648,11533.43,24.62,-1.00,-1.0,2370
245,2135245,22644,1516,-1044,22718.69,24.58,-1.00,-1.0,2441
247,2135247,11612,-3440,2984,12473.03,24.72,-1.00,-1.0,2365
250,2135250,23792,-4152,3672,24429.12,24.67,-1.00,-1.0,2438
253,2135253,11056,80,368,11062.41,24.62,-1.00,-1.0,2363
256,2135256,22984,2948,-968,23192.50,24.67,-1.00,-1.0,2441
258,2135258,10328,-132,688,10351.73,24.62,-1.00,-1.0,2349
261,2135261,16220,-2580,-816,16444.17,24.58,-1.00,-1.0,2361
264,2135264,20084,-3404,936,20391.92,24.58,-1.00,-1.0,2436
267,2135267,14852,-852,-1788,14983.48,24.58,-1.00,-1.0,2356
272,2135272,8976,1788,1152,9224.57,24.72,-1.00,-1.0,2436
275,2135275,23676,-1020,1188,23727.72,24.72,-1.00,-1.0,2374
277,2135277,10768,-3020,1268,11255.13,24.62,-1.00,-1.0,2427
280,2135280,17312,-1336,1600,17437.04,24.72,-1.00,-1.0,2377
283,2135283,16396,356,356,16403.73,24.72,-1.00,-1.0,2438
286,2135286,17472,-12,-1660,17550.68,24.67,-1.00,-1.0,2368
288,2135288,16896,-1272,268,16945.93,24.72,-1.00,-1.0,2447
291,2135291,12156,-1400,-320,12240.54,24.62,-1.00,-1.0,2371
296,2135296,13036,-500,2344,13254.50,24.62,-1.00,-1.0,2435
299,2135299,19868,-1052,1232,19933.94,24.67,-1.00,-1.0,2377
301,2135301,13344,-320,1080,13391.46,24.72,-1.00,-1.0,2361
304,2135304,16684,672,-348,16701.15,24.62,-1.00,-1.0,2449
307,2135307,18680,192,964,18705.84,24.62,-1.00,-1.0,2371
310,2135310,14072,-1692,1188,14223.06,24.62,-1.00,-1.0,2443
312,2135312,20612,-164,2276,20737.93,24.62,-1.00,-1.0,2366
315,2135315,12640,-296,1152,12695.84,24.62,-1.00,-1.0,2450
318,2135318,19428,-184,-196,19429.86,24.67,-1.00,-1.0,2363
323,2135323,16368,-484,1468,16440.82,24.67,-1.00,-1.0,2423
326,2135326,17308,-992,888,17359.13,24.58,-1.00,-1.0,2372
328,2135328,16688,-828,1192,16750.99,24.67,-1.00,-1.0,2434
331,2135331,20024,-760,800,20054.38,24.67,-1.00,-1.0,2369
334,2135334,13288,820,1128,13360.98,24.58,-1.00,-1.0,2429
337,2135337,20636,980,524,20665.90,24.67,-1.00,-1.0,2365
339,2135339,14620,-252,1304,14680.20,24.58,-1.00,-1.0,2361
342,2135342,19752,-2896,612,19972.55,24.62,-1.00,-1.0,2436
345,2135345,15120,-664,1056,15171.37,24.62,-1.00,-1.0,2368
350,2135350,22076,3220,1692,22373.67,24.62,-1.00,-1.0,2435
353,2135353,11276,-1296,3656,11924.52,24.67,-1.00,-1.0,2370
355,2135355,23484,-4708,1612,24005.46,24.62,-1.00,-1.0,2434
358,2135358,11864,-1728,-80,11989.45,24.67,-1.00,-1.0,2368
361,2135361,20556,3132,-2900,20994.49,24.53,-1.00,-1.0,2428
364,2135364,15004,2536,400,15222.07,24.58,-1.00,-1.0,2368
366,2135366,18784,-4144,4620,19782.71,24.67,-1.00,-1.0,2431
369,2135369,23128,-7380,1368,24315.43,24.58,-1.00,-1.0,2368
374,2135374,22344,4780,-2640,23001.57,24.58,-1.00,-1.0,2445
377,2135377,9880,3120,-148,10361.98,24.58,-1.00,-1.0,2373
379,2135379,22924,-4748,2796,23576.91,24.58,-1.00,-1.0,2348
382,2135382,13568,-6332,1080,15011.70,24.62,-1.00,-1.0,2432
385,2135385,12572,1224,1696,12744.79,24.67,-1.00,-1.0,2372
388,2135388,20844,5616,-1572,21644.47,24.62,-1.00,-1.0,2428
390,2135390,13000,1428,-20,13078.21,24.58,-1.00,-1.0,2375
393,2135393,23220,-4312,3764,23915.05,24.67,-1.00,-1.0,2429
396,2135396,11088,-5660,2248,12650.41,24.58,-1.00,-1.0,2375
401,2135401,19696,4812,-1184,20309.84,24.62,-1.00,-1.0,2435
404,2135404,13832,1328,1228,13949.76,24.72,-1.00,-1.0,2377
407,2135407,20728,-4872,3284,21544.63,24.58,-1.00,-1.0,2435
409,2135409,12200,-2444,1332,12513.49,24.62,-1.00,-1.0,2368
412,2135412,22688,172,-2404,22815.66,24.67,-1.00,-1.0,2428
415,2135415,12044,1672,-3332,12607.77,24.62,-1.00,-1.0,2368
417,2135417,23540,-896,1332,23594.67,24.67,-1.00,-1.0,2357
420,2135420,20008,-5140,920,20678.15,24.62,-1.00,-1.0,2441
423,2135423,12312,-1324,612,12398.10,24.67,-1.00,-1.0,2379
428,2135428,12636,1200,-2432,12923.74,24.62,-1.00,-1.0,2436
431,2135431,23432,-1792,2860,23673.81,24.67,-1.00,-1.0,2367
433,2135433,12264,-4268,2024,13142.23,24.58,-1.00,-1.0,2440
436,2135436,12388,60,-692,12407.46,24.67,-1.00,-1.0,2370
439,2135439,22780,3908,-940,23131.89,24.62,-1.00,-1.0,2435
442,2135442,9472,-452,216,9485.24,24.67,-1.00,-1.0,2369
444,2135444,25392,-5384,2660,26092.46,24.67,-1.00,-1.0,2439
447,2135447,13400,-4676,1652,14288.25,24.58,-1.00,-1.0,2366
452,2135452,22060,4144,-340,22448.43,24.62,-1.00,-1.0,2435
455,2135455,9700,96,-884,9740.67,24.62,-1.00,-1.0,2371
457,2135457,25380,-3772,4816,26106.82,24.62,-1.00,-1.0,2356
460,2135460,10776,-4856,1748,11948.16,24.67,-1.00,-1.0,2439
463,2135463,23764,708,-1360,23813.41,24.62,-1.00,-1.0,2368
465,2135465,11352,3436,-1384,11941.08,24.62,-1.00,-1.0,2415
468,2135468,20352,304,-704,20366.44,24.62,-1.00,-1.0,2367
471,2135471,16672,-4404,1560,17314.28,24.62,-1.00,-1.0,2429
474,2135474,17632,-1924,3200,18023.02,24.62,-1.00,-1.0,2370
479,2135479,9424,3104,-2704,10283.88,24.67,-1.00,-1.0,2439
482,2135482,20908,3232,656,21166.50,24.67,-1.00,-1.0,2365
485,2135485,12872,-2492,2312,13313.29,24.67,-1.00,-1.0,2445
487,2135487,20880,-4280,1680,21380.25,24.58,-1.00,-1.0,2365
490,2135490,15476,-1068,-1132,15554.05,24.67,-1.00,-1.0,2450
493,2135493,11156,3508,-184,11695.99,24.67,-1.00,-1.0,2363
496,2135496,21864,2012,-108,21956.65,24.58,-1.00,-1.0,2442
498,2135498,10472,-2816,1440,10939.21,24.67,-1.00,-1.0,2350
501,2135501,24780,-4600,2060,25287.39,24.53,-1.00,-1.0,2361
506,2135506,18508,3056,-2792,18965.24,24.53,-1.00,-1.0,2449
509,2135509,21732,4276,1960,22235.23,24.62,-1.00,-1.0,2372
512,2135512,10216,-944,3360,10795.71,24.62,-1.00,-1.0,2452
514,2135514,23704,-5328,3644,24567.17,24.58,-1.00,-1.0,2364
517,2135517,8876,-1424,240,8992.71,24.62,-1.00,-1.0,2431
520,2135520,20016,3944,-1360,20446.15,24.58,-1.00,-1.0,2369
523,2135523,14108,3644,-856,14596.13,24.62,-1.00,-1.0,2451
525,2135525,19504,-3092,1988,19847.38,24.67,-1.00,-1.0,2364
530,2135530,8940,-1664,920,9139.96,24.67,-1.00,-1.0,2437
533,2135533,22776,4312,-1092,23206.29,24.58,-1.00,-1.0,2364
536,2135536,10572,5572,940,11987.41,24.58,-1.00,-1.0,2447
538,2135538,21472,-3332,2936,21926.45,24.58,-1.00,-1.0,2363
541,2135541,22168,-7468,3700,23682.93,24.58,-1.00,-1.0,2362
544,2135544,11388,-2112,1172,11641.33,24.62,-1.00,-1.0,2441
546,2135546,23572,4164,-4596,24374.19,24.48,-1.00,-1.0,2348
549,2135549,10168,3700,-1800,10968.97,24.67,-1.00,-1.0,2435
552,2135552,26016,-4436,4216,26726.11,24.77,-1.00,-1.0,2350
557,2135557,18760,-504,92,18766.99,24.58,-1.00,-1.0,2443
560,2135560,22928,4896,-852,23460.39,24.72,-1.00,-1.0,2364
563,2135563,8784,4612,-1132,9985.52,24.58,-1.00,-1.0,2448
565,2135565,25844,-4052,3040,26335.77,24.62,-1.00,-1.0,2373
568,2135568,8636,-5736,4104,11150.11,24.58,-1.00,-1.0,2435
571,2135571,21748,-1572,-108,21805.01,24.62,-1.00,-1.0,2366
574,2135574,14144,4816,-1844,15054.80,24.67,-1.00,-1.0,2447
576,2135576,17112,3628,824,17511.77,24.62,-1.00,-1.0,2372
579,2135579,18052,-4352,2872,18789.97,24.67,-1.00,-1.0,2363
584,2135584,24512,-1816,640,24587.51,24.67,-1.00,-1.0,2435
587,2135587,12944,2736,632,13245.08,24.58,-1.00,-1.0,2365
590,2135590,17964,4080,-392,18425.67,24.67,-1.00,-1.0,2438
592,2135592,16576,-2656,92,16787.69,24.77,-1.00,-1.0,2370
595,2135595,17272,-3968,2260,17865.46,24.67,-1.00,-1.0,2435
598,2135598,23660,-2992,2892,24023.14,24.58,-1.00,-1.0,2350
601,2135601,10472,1388,-1392,10654.90,24.67,-1.00,-1.0,2445
603,2135603,22084,4036,72,22449.89,24.58,-1.00,-1.0,2373
608,2135608,17100,-3628,3680,17863.78,24.62,-1.00,-1.0,2438
611,2135611,18244,-4264,1896,18831.36,24.62,-1.00,-1.0,2365
614,2135614,11908,672,684,11946.54,24.62,-1.00,-1.0,2446
616,2135616,20252,3828,-2212,20728.97,24.53,-1.00,-1.0,2363
619,2135619,13740,108,-2220,13918.61,24.67,-1.00,-1.0,2375
622,2135622,16060,-2952,3624,16726.37,24.67,-1.00,-1.0,2434
625,2135625,19172,-6348,2792,20387.69,24.53,-1.00,-1.0,2372
627,2135627,13552,1416,636,13640.61,24.58,-1.00,-1.0,2446
630,2135630,20072,5600,-1020,20863.50,24.62,-1.00,-1.0,2365
635,2135635,21328,-4436,3812,22115.45,24.58,-1.00,-1.0,2449
638,2135638,20220,-7556,1860,21665.67,24.62,-1.00,-1.0,2371
641,2135641,13268,1096,1396,13386.18,24.58,-1.00,-1.0,2450
643,2135643,20296,4024,-4080,21089.49,24.67,-1.00,-1.0,2365
646,2135646,14372,420,-1796,14489.87,24.58,-1.00,-1.0,2436
649,2135649,20848,-4240,4884,21828.20,24.62,-1.00,-1.0,2369
652,2135652,13924,-6668,1172,15482.69,24.58,-1.00,-1.0,2445
654,2135654,19676,2188,-1448,19850.16,24.58,-1.00,-1.0,2369
659,2135659,13848,1340,-1524,13995.90,24.67,-1.00,-1.0,2442
662,2135662,20472,-3376,4288,21186.96,24.58,-1.00,-1.0,2354
664,2135664,16084,-7096,2948,17825.23,24.58,-1.00,-1.0,2348
667,2135667,15656,2052,1076,15826.52,24.58,-1.00,-1.0,2433
670,2135670,22296,5592,-3888,23313.06,24.67,-1.00,-1.0,2371
673,2135673,11904,3108,-188,12304.48,24.62,-1.00,-1.0,2434
675,2135675,22268,-5880,2932,23217.12,24.67,-1.00,-1.0,2369
678,2135678,13084,-4732,3812,14426.17,24.62,-1.00,-1.0,2464
681,2135681,21640,2672,-1284,21842.11,24.58,-1.00,-1.0,2374
686,2135686,16156,1792,172,16255.99,24.67,-1.00,-1.0,2451
689,2135689,19080,-5980,1008,20020.56,24.58,-1.00,-1.0,2371
692,2135692,14776,-4712,4128,16049.10,24.67,-1.00,-1.0,2445
695,2135695,18816,564,1304,18869.56,24.58,-1.00,-1.0,2361
697,2135697,15064,3448,-624,15466.16,24.67,-1.00,-1.0,2451
700,2135700,16604,96,-456,16610.54,24.58,-1.00,-1.0,2367
703,2135703,18340,-1852,2016,18543.19,24.58,-1.00,-1.0,2361
705,2135705,15672,-2884,3080,16230.08,24.62,-1.00,-1.0,2432
708,2135708,18464,-308,784,18483.20,24.58,-1.00,-1.0,2373
713,2135713,16228,1512,-148,16298.96,24.58,-1.00,-1.0,2449
716,2135716,18644,-1420,-672,18710.07,24.58,-1.00,-1.0,2370
719,2135719,16620,-1500,3108,16974.51,24.53,-1.00,-1.0,2444
722,2135722,17072,-2008,2704,17401.06,24.58,-1.00,-1.0,2368
724,2135724,16376,0,776,16394.38,24.62,-1.00,-1.0,2447
727,2135727,15340,876,-1840,15474.77,24.62,-1.00,-1.0,2423
730,2135730,19584,8,-1736,19660.79,24.58,-1.00,-1.0,2451
733,2135733,16708,-984,1928,16847.63,24.67,-1.00,-1.0,2369
738,2135738,20484,-3372,-752,20773.30,24.58,-1.00,-1.0,2443
740,2135740,12324,1552,-20,12421.36,24.53,-1.00,-1.0,2369
743,2135743,21080,2096,-1092,21212.07,24.58,-1.00,-1.0,2361
746,2135746,15600,-396,-160,15605.85,24.62,-1.00,-1.0,2450
748,2135748,18116,-3280,2484,18577.36,24.67,-1.00,-1.0,2369
751,2135751,17992,-3132,300,18265.04,24.62,-1.00,-1.0,2446
754,2135754,14728,2088,264,14877.62,24.58,-1.00,-1.0,2367
757,2135757,20576,2240,-2220,20816.29,24.62,-1.00,-1.0,2445
759,2135759,14424,-728,684,14458.55,24.67,-1.00,-1.0,2369
764,2135764,18644,-4120,-1456,19149.23,24.67,-1.00,-1.0,2435
767,2135767,14764,1696,-192,14862.33,24.67,-1.00,-1.0,2370
770,2135770,20112,1956,-1380,20253.96,24.67,-1.00,-1.0,2439
773,2135773,14368,-540,452,14385.25,24.67,-1.00,-1.0,2368
775,2135775,18768,-2676,3096,19208.96,24.58,-1.00,-1.0,2435
778,2135778,16616,-2676,240,16831.82,24.67,-1.00,-1.0,2368
781,2135781,14432,1280,1208,14538.92,24.67,-1.00,-1.0,2364
784,2135784,20788,1112,-2020,20915.49,24.53,-1.00,-1.0,2435
786,2135786,13692,44,1748,13803.20,24.67,-1.00,-1.0,2369
791,2135791,17476,-1372,1852,17627.33,24.67,-1.00,-1.0,2435
794,2135794,16472,40,548,16481.16,24.53,-1.00,-1.0,2371
797,2135797,18440,-100,-828,18458.85,24.67,-1.00,-1.0,2439
800,2135800,14140,224,332,14145.67,24.62,-1.00,-1.0,2368
802,2135802,19676,-840,252,19695.54,24.58,-1.00,-1.0,2434
805,2135805,15740,-1332,1604,15877.49,24.62,-1.00,-1.0,2370
808,2135808,17272,-400,1532,17344.42,24.58,-1.00,-1.0,2435
811,2135811,20604,384,16,20607.58,24.72,-1.00,-1.0,2367
813,2135813,13240,1696,1516,13434.00,24.58,-1.00,-1.0,2362
818,2135818,17516,-2132,1660,17723.19,24.58,-1.00,-1.0,2435
821,2135821,15800,-1432,1104,15903.13,24.53,-1.00,-1.0,2370
824,2135824,19176,-96,-1820,19262.41,24.58,-1.00,-1.0,2437
827,2135827,13356,1956,460,13506.30,24.81,-1.00,-1.0,2368
829,2135829,19744,-308,1532,19805.74,24.58,-1.00,-1.0,2436
832,2135832,14520,-2184,2392,14876.89,24.62,-1.00,-1.0,2369
835,2135835,18032,-788,964,18074.94,24.67,-1.00,-1.0,2434
838,2135838,20424,996,232,20449.59,24.62,-1.00,-1.0,2368
842,2135842,19012,564,1800,19105.35,24.58,-1.00,-1.0,2437
845,2135845,16260,-3536,-268,16642.20,24.67,-1.00,-1.0,2370
848,2135848,16512,-500,1716,16608.46,24.67,-1.00,-1.0,2438
851,2135851,21152,88,-1108,21181.18,24.48,-1.00,-1.0,2369
853,2135853,13148,1380,664,13236.89,24.58,-1.00,-1.0,2360
856,2135856,20180,-760,1224,20231.37,24.67,-1.00,-1.0,2436
859,2135859,16580,-2800,-332,16818.04,24.67,-1.00,-1.0,2368
862,2135862,17020,-720,2140,17169.11,24.62,-1.00,-1.0,2443
864,2135864,17940,-324,-388,17947.12,24.62,-1.00,-1.0,2367
869,2135869,18640,160,944,18664.57,24.58,-1.00,-1.0,2447
872,2135872,16284,-1576,-564,16369.81,24.72,-1.00,-1.0,2386
875,2135875,16476,-204,3096,16765.60,24.67,-1.00,-1.0,2438
878,2135878,18720,-2288,-836,18877.82,24.62,-1.00,-1.0,2375
880,2135880,15588,212,2184,15741.68,24.67,-1.00,-1.0,2438
883,2135883,17516,732,424,17536.42,24.62,-1.00,-1.0,2383
886,2135886,16696,-812,-1972,16831.65,24.58,-1.00,-1.0,2436
889,2135889,15976,488,3332,16327.06,24.72,-1.00,-1.0,2372
892,2135892,18180,-2444,620,18354.02,24.62,-1.00,-1.0,2361
897,2135897,16304,1116,1812,16442.30,24.72,-1.00,-1.0,2444
899,2135899,17840,468,-1524,17911.09,24.58,-1.00,-1.0,2370
902,2135902,15840,356,424,15849.67,24.62,-1.00,-1.0,2439
905,2135905,18836,-1732,1352,18963.72,24.67,-1.00,-1.0,2355
908,2135908,15268,-1056,2236,15466.95,24.62,-1.00,-1.0,2443
910,2135910,17456,-556,376,17468.90,24.58,-1.00,-1.0,2370
913,2135913,17320,872,436,17347.42,24.72,-1.00,-1.0,2435
916,2135916,15956,260,772,15976.78,24.67,-1.00,-1.0,2369
921,2135921,15260,-816,1724,15378.74,24.58,-1.00,-1.0,2441
924,2135924,16676,-740,1712,16779.97,24.67,-1.00,-1.0,2374
926,2135926,17956,-488,1556,18029.90,24.67,-1.00,-1.0,2364
929,2135929,15084,-600,412,15101.55,24.58,-1.00,-1.0,2438
932,2135932,19936,352,568,19947.20,24.67,-1.00,-1.0,2368
934,2135934,14880,-696,-48,14896.35,24.62,-1.00,-1.0,2436
937,2135937,18804,-420,868,18828.71,24.58,-1.00,-1.0,2362
940,2135940,15156,-704,1604,15256.89,24.58,-1.00,-1.0,2437
943,2135943,14464,-756,824,14507.16,24.67,-1.00,-1.0,2370
948,2135948,14536,-260,-440,14544.98,24.67,-1.00,-1.0,2437
950,2135950,18648,440,2064,18767.04,24.72,-1.00,-1.0,2371
953,2135953,15008,-1092,1056,15084.68,24.67,-1.00,-1.0,2453
956,2135956,17660,-456,1864,17763.95,24.67,-1.00,-1.0,2362
958,2135958,20204,-812,-772,20235.04,24.67,-1.00,-1.0,2370
961,2135961,15012,364,496,15024.60,24.53,-1.00,-1.0,2440
964,2135964,20256,-116,1196,20291.61,24.48,-1.00,-1.0,2375
967,2135967,13720,-1384,1424,13862.96,24.62,-1.00,-1.0,2437
970,2135970,16932,-676,1260,16992.27,24.58,-1.00,-1.0,2369
975,2135975,14712,672,1284,14783.21,24.58,-1.00,-1.0,2441
977,2135977,18988,-412,1688,19067.33,24.67,-1.00,-1.0,2375
980,2135980,15296,-1596,680,15394.06,24.62,-1.00,-1.0,2448
983,2135983,16928,-200,676,16942.67,24.58,-1.00,-1.0,2375
986,2135986,17936,-780,-892,17975.10,24.62,-1.00,-1.0,2450
988,2135988,14844,-136,1544,14924.70,24.58,-1.00,-1.0,2369
991,2135991,19388,-1004,1396,19464.11,24.62,-1.00,-1.0,2444
994,2135994,14988,-864,224,15014.55,24.58,-1.00,-1.0,2375
997,2135997,18032,512,1224,18080.75,24.62,-1.00,-1.0,2361
1002,2136002,14896,60,2180,15054.79,24.62,-1.00,-1.0,2439
1004,2136004,18948,-780,1528,19025.51,24.67,-1.00,-1.0,2375
1007,2136007,16612,-180,1348,16667.57,24.53,-1.00,-1.0,2447
1010,2136010,15096,376,1880,15217.26,24.67,-1.00,-1.0,2375
1013,2136013,19332,-412,604,19345.82,24.62,-1.00,-1.0,2447
1015,2136015,14484,-960,520,14525.09,24.58,-1.00,-1.0,2377
1018,2136018,18972,-528,236,18980.81,24.62,-1.00,-1.0,2444
1021,2136021,15600,-716,-396,15621.44,24.58,-1.00,-1.0,2370
1026,2136026,19796,-576,992,19829.21,24.67,-1.00,-1.0,2447
1028,2136028,13836,-1048,416,13881.87,24.67,-1.00,-1.0,2357
1031,2136031,20056,-1188,-824,20108.04,24.67,-1.00,-1.0,2442
1034,2136034,15280,-356,1176,15329.32,24.67,-1.00,-1.0,2368
1037,2136037,14824,-784,328,14848.34,24.58,-1.00,-1.0,2362
1039,2136039,19252,52,952,19275.59,24.62,-1.00,-1.0,2447
1042,2136042,14616,-884,180,14643.81,24.67,-1.00,-1.0,2375
1045,2136045,19156,-1052,124,19185.27,24.58,-1.00,-1.0,2437
1048,2136048,15748,-292,1332,15806.93,24.58,-1.00,-1.0,2367
1052,2136052,19776,292,1004,19803.62,24.58,-1.00,-1.0,2437
1055,2136055,14812,-340,-160,14816.77,24.67,-1.00,-1.0,2371
1058,2136058,18616,-628,356,18629.99,24.67,-1.00,-1.0,2438
1061,2136061,16068,-588,1912,16192.04,24.67,-1.00,-1.0,2368
1063,2136063,14696,-1152,1288,14797.25,24.67,-1.00,-1.0,2436
1066,2136066,19088,-252,1388,19140.06,24.67,-1.00,-1.0,2356
1069,2136069,13700,204,-36,13701.57,24.58,-1.00,-1.0,2434
1072,2136072,19632,172,864,19651.76,24.67,-1.00,-1.0,2374
1075,2136075,14204,-1752,668,14327.22,24.58,-1.00,-1.0,2369
1080,2136080,18684,-604,860,18713.53,24.62,-1.00,-1.0,2438
1082,2136082,12280,80,128,12280.93,24.67,-1.00,-1.0,2373
1085,2136085,20752,340,72,20754.91,24.53,-1.00,-1.0,2453
1088,2136088,14224,-1308,852,14309.40,24.67,-1.00,-1.0,2374
1091,2136091,19352,-700,2476,19522.31,24.72,-1.00,-1.0,2441
1093,2136093,18964,-1380,440,19019.23,24.67,-1.00,-1.0,2369
1096,2136096,13772,312,164,13776.51,24.62,-1.00,-1.0,2450
1099,2136099,20408,96,320,20410.73,24.58,-1.00,-1.0,2375
1104,2136104,18912,-892,2180,19058.12,24.67,-1.00,-1.0,2445
1106,2136106,19804,-2312,-60,19938.59,24.67,-1.00,-1.0,2371
1109,2136109,13444,44,860,13471.55,24.62,-1.00,-1.0,2441
1112,2136112,20452,1052,792,20494.35,24.67,-1.00,-1.0,2367
1114,2136114,13192,-792,-752,13237.13,24.53,-1.00,-1.0,2360
1117,2136117,18404,-440,2144,18533.69,24.53,-1.00,-1.0,2450
1120,2136120,16432,-1548,1668,16588.83,24.62,-1.00,-1.0,2369
1123,2136123,16284,-852,-668,16319.95,24.62,-1.00,-1.0,2441
1126,2136126,19384,1532,1072,19473.97,24.62,-1.00,-1.0,2376
1131,2136131,21336,-2032,440,21437.06,24.67,-1.00,-1.0,2440
1133,2136133,16632,-2036,1432,16817.23,24.67,-1.00,-1.0,2370
1136,2136136,15620,748,1820,15743.45,24.72,-1.00,-1.0,2440
1139,2136139,19472,396,184,19476.89,24.58,-1.00,-1.0,2367
1142,2136142,13824,-1144,1468,13948.72,24.62,-1.00,-1.0,2445
1144,2136144,20996,-2228,384,21117.37,24.58,-1.00,-1.0,2368
1147,2136147,14136,-992,-572,14182.30,24.72,-1.00,-1.0,2436
1150,2136150,19180,1784,300,19265.12,24.67,-1.00,-1.0,2368
1155,2136155,13336,-1592,740,13451.06,24.62,-1.00,-1.0,2464
1158,2136158,21416,-944,2488,21580.69,24.62,-1.00,-1.0,2379
1160,2136160,13396,-1152,-552,13456.77,24.58,-1.00,-1.0,2369
1163,2136163,19228,924,16,19250.20,24.58,-1.00,-1.0,2439
1166,2136166,16376,-308,728,16395.07,24.58,-1.00,-1.0,2368
1169,2136169,17768,-1568,-252,17838.83,24.67,-1.00,-1.0,2432
1171,2136171,21504,-544,1504,21563.39,24.67,-1.00,-1.0,2372
1174,2136174,12128,-472,-456,12145.74,24.58,-1.00,-1.0,2439
1177,2136177,21840,-880,-860,21874.63,24.67,-1.00,-1.0,2367
1182,2136182,15156,-524,1756,15266.38,24.67,-1.00,-1.0,2451
1185,2136185,20112,-892,-636,20141.81,24.72,-1.00,-1.0,2372
1187,2136187,10984,364,1820,11139.71,24.67,-1.00,-1.0,2448
1190,2136190,20640,32,1516,20695.62,24.67,-1.00,-1.0,2372
1193,2136193,13112,-1140,-740,13182.25,24.62,-1.00,-1.0,2449
1196,2136196,20724,-868,1328,20784.64,24.67,-1.00,-1.0,2368
1198,2136198,14684,-1620,-72,14773.27,24.62,-1.00,-1.0,2439
1201,2136201,13992,624,2144,14169.06,24.62,-1.00,-1.0,2366
1204,2136204,19824,1028,1320,19894.48,24.58,-1.00,-1.0,2363
1209,2136209,19668,-476,1664,19744.00,24.67,-1.00,-1.0,2451
1212,2136212,15752,-1328,1612,15889.86,24.58,-1.00,-1.0,2371
1214,2136214,14756,-172,2144,14911.94,24.67,-1.00,-1.0,2448
1217,2136217,18924,536,1116,18964.46,24.77,-1.00,-1.0,2372
1220,2136220,14444,52,256,14446.36,24.67,-1.00,-1.0,2426
1222,2136222,19472,-1292,380,19518.52,24.58,-1.00,-1.0,2366
1225,2136225,16156,-1396,760,16234.00,24.67,-1.00,-1.0,2451
1228,2136228,17892,-292,1016,17923.20,24.67,-1.00,-1.0,2365
1233,2136233,13992,184,400,13998.93,24.62,-1.00,-1.0,2444
1236,2136236,20044,-1112,1428,20125.55,24.62,-1.00,-1.0,2376
1239,2136239,14788,-1616,612,14888.62,24.58,-1.00,-1.0,2438
1241,2136241,17036,336,1768,17130.79,24.62,-1.00,-1.0,2366
1244,2136244,18116,28,-1232,18157.87,24.67,-1.00,-1.0,2438
1247,2136247,15924,204,968,15954.70,24.62,-1.00,-1.0,2366
1249,2136249,19344,-1592,792,19425.55,24.58,-1.00,-1.0,2364
1252,2136252,14856,-1832,468,14975.85,24.67,-1.00,-1.0,2453
1255,2136255,19076,348,1292,19122.87,24.62,-1.00,-1.0,2366
1260,2136260,15232,804,2096,15396.54,24.62,-1.00,-1.0,2448
1262,2136262,19436,-396,2428,19591.07,24.62,-1.00,-1.0,2367
1265,2136265,13932,-1404,92,14002.87,24.67,-1.00,-1.0,2439
1268,2136268,19292,-164,1092,19323.58,24.72,-1.00,-1.0,2367
1271,2136271,15724,-348,44,15727.91,24.67,-1.00,-1.0,2444
1273,2136273,18164,-1400,-1936,18320.45,24.62,-1.00,-1.0,2365
1276,2136276,20164,332,2200,20286.38,24.62,-1.00,-1.0,2439
1279,2136279,13492,-376,1500,13580.33,24.62,-1.00,-1.0,2366
1284,2136284,16040,-1300,-612,16104.23,24.67,-1.00,-1.0,2445
1286,2136286,18132,-708,-1072,18177.46,24.58,-1.00,-1.0,2367
1289,2136289,21232,12,1416,21279.17,24.58,-1.00,-1.0,2441
1292,2136292,11260,136,2048,11445.54,24.58,-1.00,-1.0,2366
1295,2136295,21588,-1140,1368,21661.32,24.58,-1.00,-1.0,2362
1297,2136297,12624,-1576,-624,12737.29,24.62,-1.00,-1.0,2447
1300,2136300,17752,684,1732,17849.40,24.58,-1.00,-1.0,2374
1303,2136303,17148,-528,-1064,17189.09,24.67,-1.00,-1.0,2438
1306,2136306,16600,-460,1296,16656.87,24.58,-1.00,-1.0,2365
1311,2136311,12956,-1356,420,13033.54,24.62,-1.00,-1.0,2450
1314,2136314,20572,1380,664,20628.92,24.62,-1.00,-1.0,2370
1317,2136317,13704,-108,-584,13716.86,24.62,-1.00,-1.0,2448
1319,2136319,19524,-2100,-1048,19664.56,24.62,-1.00,-1.0,2373
1322,2136322,18992,-704,3312,19291.47,24.62,-1.00,-1.0,2439
1325,2136325,13952,-1048,808,14014.62,24.62,-1.00,-1.0,2366
1328,2136328,19708,44,476,19713.80,24.53,-1.00,-1.0,2447
1330,2136330,12760,192,1264,12823.89,24.72,-1.00,-1.0,2373
1335,2136335,15844,-828,1116,15904.82,24.62,-1.00,-1.0,2451
1338,2136338,14552,-508,1804,14672.19,24.67,-1.00,-1.0,2369
1341,2136341,19744,-348,1612,19812.75,24.72,-1.00,-1.0,2363
1343,2136343,12968,-356,572,12985.49,24.58,-1.00,-1.0,2440
1346,2136346,19384,400,276,19390.09,24.72,-1.00,-1.0,2374
1349,2136349,16264,-808,464,16290.67,24.58,-1.00,-1.0,2438
1352,2136352,17184,-608,980,17222.66,24.72,-1.00,-1.0,2369
1354,2136354,18096,-264,1920,18199.49,24.72,-1.00,-1.0,2441
1357,2136357,12496,-900,-556,12540.70,24.53,-1.00,-1.0,2379
1362,2136362,16924,-632,-452,16941.83,24.62,-1.00,-1.0,2442
1365,2136365,16748,-84,1572,16821.82,24.67,-1.00,-1.0,2375
1368,2136368,18400,-672,2144,18536.68,24.62,-1.00,-1.0,2442
1370,2136370,14956,-1260,144,15009.67,24.62,-1.00,-1.0,2367
1373,2136373,21024,152,856,21041.97,24.62,-1.00,-1.0,2445
1376,2136376,12724,188,208,12727.09,24.58,-1.00,-1.0,2373
1378,2136378,20736,-1008,-484,20766.13,24.53,-1.00,-1.0,2369
1381,2136381,18476,-1088,2052,18621.41,24.67,-1.00,-1.0,2448
1384,2136384,14328,-1164,1384,14441.67,24.62,-1.00,-1.0,2374
1389,2136389,14248,-100,-1316,14309.00,24.72,-1.00,-1.0,2442
1392,2136392,20316,520,572,20330.70,24.58,-1.00,-1.0,2367
1394,2136394,14392,-896,1996,14557.35,24.67,-1.00,-1.0,2438
1397,2136397,14476,-1220,564,14538.26,24.67,-1.00,-1.0,2365
1400,2136400,20504,192,2136,20615.85,24.62,-1.00,-1.0,2437
1403,2136403,12436,-392,-564,12454.95,24.67,-1.00,-1.0,2366
1405,2136405,21084,-500,704,21101.67,24.58,-1.00,-1.0,2439
1408,2136408,14324,-1260,580,14391.00,24.67,-1.00,-1.0,2365
1413,2136413,20528,-312,1880,20616.27,24.58,-1.00,-1.0,2449
1416,2136416,13036,-764,572,13070.89,24.58,-1.00,-1.0,2368
1419,2136419,20420,236,1660,20488.72,24.67,-1.00,-1.0,2447
1421,2136421,12404,-448,120,12412.67,24.67,-1.00,-1.0,2374
1424,2136424,19560,72,992,19585.27,24.58,-1.00,-1.0,2361
1427,2136427,16284,-888,2156,16450.09,24.53,-1.00,-1.0,2442
1429,2136429,15996,-932,400,16028.12,24.67,-1.00,-1.0,2365
1432,2136432,18320,276,972,18347.84,24.53,-1.00,-1.0,2437
1435,2136435,11880,-4,-116,11880.57,24.58,-1.00,-1.0,2374
1440,2136440,16472,-1360,1040,16560.74,24.62,-1.00,-1.0,2442
1443,2136443,17168,-740,864,17205.65,24.62,-1.00,-1.0,2363
1446,2136446,18272,512,1796,18367.19,24.58,-1.00,-1.0,2443
1448,2136448,13776,544,1248,13843.11,24.72,-1.00,-1.0,2367
1451,2136451,21844,-656,-448,21858.44,24.67,-1.00,-1.0,2454
1454,2136454,13008,-1776,1132,13177.39,24.72,-1.00,-1.0,2373
1457,2136457,20380,-740,96,20393.66,24.67,-1.00,-1.0,2442
1459,2136459,14508,452,200,14516.42,24.53,-1.00,-1.0,2368
1462,2136462,14752,508,-88,14761.01,24.67,-1.00,-1.0,2365
1467,2136467,13316,-1840,972,13477.62,24.67,-1.00,-1.0,2443
1470,2136470,20816,-704,1488,20880.99,24.67,-1.00,-1.0,2369
1472,2136472,13744,-64,1248,13800.69,24.58,-1.00,-1.0,2439
1475,2136475,15400,244,-1100,15441.16,24.58,-1.00,-1.0,2352
1478,2136478,20000,724,1644,20080.51,24.67,-1.00,-1.0,2439
1481,2136481,13248,-1148,1320,13363.00,24.58,-1.00,-1.0,2369
1483,2136483,19960,-1632,1968,20123.07,24.58,-1.00,-1.0,2425
1486,2136486,15560,-1096,756,15616.86,24.58,-1.00,-1.0,2365
1491,2136491,19804,280,600,19815.06,24.62,-1.00,-1.0,2443
1494,2136494,13208,-656,984,13260.84,24.62,-1.00,-1.0,2372
1496,2136496,21432,-912,2480,21594.28,24.62,-1.00,-1.0,2425
1499,2136499,11764,-572,1420,11863.19,24.53,-1.00,-1.0,2364
1502,2136502,18884,40,-340,18887.10,24.62,-1.00,-1.0,2440
1505,2136505,16900,72,-744,16916.52,24.53,-1.00,-1.0,2365
1507,2136507,16932,-364,392,16940.45,24.62,-1.00,-1.0,2362
1510,2136510,18644,-1532,1076,18737.76,24.72,-1.00,-1.0,2440
1513,2136513,14484,-1000,336,14522.37,24.62,-1.00,-1.0,2366
1518,2136518,11648,640,1332,11741.37,24.62,-1.00,-1.0,2448
1521,2136521,17644,-824,-1524,17728.86,24.77,-1.00,-1.0,2371
1524,2136524,18900,-1348,1668,19021.29,24.62,-1.00,-1.0,2449
1526,2136526,14484,-1200,992,14567.44,24.67,-1.00,-1.0,2374
1529,2136529,20136,-92,332,20138.95,24.53,-1.00,-1.0,2438
1532,2136532,11888,992,1904,12080.31,24.67,-1.00,-1.0,2365
1535,2136535,20632,-264,1156,20666.05,24.62,-1.00,-1.0,2449
1537,2136537,12560,-2252,480,12769.32,24.58,-1.00,-1.0,2373
1542,2136542,20316,336,1208,20354.66,24.58,-1.00,-1.0,2450
1545,2136545,11192,60,1204,11256.74,24.67,-1.00,-1.0,2375
1548,2136548,21632,-456,1312,21676.55,24.72,-1.00,-1.0,2361
1550,2136550,13252,-1372,1188,13375.70,24.62,-1.00,-1.0,2438
1553,2136553,19176,368,1032,19207.28,24.72,-1.00,-1.0,2353
1556,2136556,20252,144,-372,20255.93,24.62,-1.00,-1.0,2439
1559,2136559,14604,-664,-316,14622.50,24.72,-1.00,-1.0,2370
1561,2136561,20744,-1072,2668,20942.32,24.62,-1.00,-1.0,2428
1564,2136564,11448,-624,440,11473.43,24.58,-1.00,-1.0,2366
1569,2136569,14284,-356,672,14304.23,24.62,-1.00,-1.0,2443
1572,2136572,14248,-1380,488,14322.99,24.72,-1.00,-1.0,2368
1575,2136575,21068,-1120,2060,21198.08,24.58,-1.00,-1.0,2445
1577,2136577,12736,116,1656,12843.73,24.62,-1.00,-1.0,2368
1580,2136580,19916,1000,1888,20030.27,24.58,-1.00,-1.0,2426
1583,2136583,15108,-280,-740,15128.70,24.62,-1.00,-1.0,2365
1586,2136586,19604,-700,308,19618.91,24.62,-1.00,-1.0,2439
1588,2136588,16984,-1848,1004,17113.72,24.62,-1.00,-1.0,2373
1593,2136593,22392,1684,2216,22564.31,24.62,-1.00,-1.0,2453
1596,2136596,11240,-608,504,11267.71,24.62,-1.00,-1.0,2383
1599,2136599,18164,-1732,-1108,18280.00,24.62,-1.00,-1.0,2361
1601,2136601,18432,-2040,552,18552.76,24.58,-1.00,-1.0,2439
1604,2136604,16080,-388,-1264,16134.27,24.62,-1.00,-1.0,2366
1607,2136607,21352,1012,1720,21445.06,24.58,-1.00,-1.0,2438
1610,2136610,11828,72,624,11844.67,24.62,-1.00,-1.0,2365
1612,2136612,20904,-1132,1804,21012.21,24.67,-1.00,-1.0,2438
1615,2136615,12912,-1844,1072,13086.99,24.67,-1.00,-1.0,2368
1620,2136620,20232,712,584,20252.95,24.58,-1.00,-1.0,2445
1623,2136623,11456,408,1348,11542.25,24.58,-1.00,-1.0,2367
1626,2136626,20312,-648,1624,20387.12,24.58,-1.00,-1.0,2442
1628,2136628,13744,-1584,940,13866.87,24.67,-1.00,-1.0,2366
1631,2136631,19416,-976,372,19444.07,24.67,-1.00,-1.0,2440
1634,2136634,20136,-484,-44,20141.86,24.67,-1.00,-1.0,2365
1637,2136637,14168,840,48,14192.96,24.58,-1.00,-1.0,2446
1639,2136639,21212,528,3144,21450.23,24.58,-1.00,-1.0,2366
1642,2136642,12340,-1836,820,12502.76,24.67,-1.00,-1.0,2363
1647,2136647,16124,36,224,16125.60,24.67,-1.00,-1.0,2443
1650,2136650,13348,244,16,13350.24,24.58,-1.00,-1.0,2367
1653,2136653,21204,104,2752,21382.09,24.62,-1.00,-1.0,2448
1655,2136655,12088,-2164,992,12320.17,24.67,-1.00,-1.0,2366
1658,2136658,21400,16,2124,21505.15,24.67,-1.00,-1.0,2442
1661,2136661,16668,-244,-784,16688.21,24.67,-1.00,-1.0,2365
1664,2136664,17060,1076,-216,17095.26,24.53,-1.00,-1.0,2440
1666,2136666,18180,-580,1744,18272.67,24.67,-1.00,-1.0,2366
1671,2136671,21804,-328,2432,21941.66,24.72,-1.00,-1.0,2471
1674,2136674,11984,-500,-724,12016.26,24.72,-1.00,-1.0,2382
1677,2136677,17696,720,224,17712.06,24.58,-1.00,-1.0,2441
1680,2136680,17572,-1124,584,17617.59,24.62,-1.00,-1.0,2374
1682,2136682,15988,-956,360,16020.60,24.58,-1.00,-1.0,2362
1685,2136685,22268,-1128,1436,22342.75,24.67,-1.00,-1.0,2437
1688,2136688,11068,-644,540,11099.86,24.58,-1.00,-1.0,2367
1690,2136690,21720,844,1964,21824.94,24.67,-1.00,-1.0,2438
1693,2136693,11768,-776,-524,11805.19,24.67,-1.00,-1.0,2374
1698,2136698,19240,-652,3052,19491.47,24.58,-1.00,-1.0,2445
1701,2136701,11004,-1284,-204,11080.54,24.67,-1.00,-1.0,2369
1704,2136704,22748,856,672,22774.02,24.62,-1.00,-1.0,2444
1706,2136706,12012,-136,224,12014.86,24.67,-1.00,-1.0,2365
1709,2136709,20500,-1276,432,20544.21,24.67,-1.00,-1.0,2438
1712,2136712,20096,-1480,1800,20230.66,24.67,-1.00,-1.0,2366
1715,2136715,13876,-968,-412,13915.82,24.62,-1.00,-1.0,2444
1717,2136717,20868,2008,2356,21096.36,24.67,-1.00,-1.0,2367
1720,2136720,11784,-452,-376,11798.66,24.58,-1.00,-1.0,2369
1726,2136726,14648,-2596,1424,14944.26,24.62,-1.00,-1.0,2444
1728,2136728,18088,188,-1460,18147.80,24.72,-1.00,-1.0,2370
1731,2136731,17756,1652,872,17853.99,24.58,-1.00,-1.0,2452
1734,2136734,11488,-448,-508,11507.95,24.62,-1.00,-1.0,2362
1737,2136737,22460,-1876,2680,22696.99,24.67,-1.00,-1.0,2439
1739,2136739,11472,-2368,384,11720.14,24.53,-1.00,-1.0,2369
1742,2136742,22872,824,24,22886.85,24.58,-1.00,-1.0,2437
1745,2136745,16132,1132,396,16176.52,24.62,-1.00,-1.0,2372
1750,2136750,23376,-376,3464,23634.26,24.62,-1.00,-1.0,2443
1752,2136752,9768,-2344,1208,10117.68,24.62,-1.00,-1.0,2370
1755,2136755,22868,412,832,22886.84,24.58,-1.00,-1.0,2425
1758,2136758,17812,816,248,17832.41,24.58,-1.00,-1.0,2366
1761,2136761,14764,-296,-1204,14815.97,24.62,-1.00,-1.0,2438
1763,2136763,20148,-836,2012,20265.46,24.58,-1.00,-1.0,2374
1766,2136766,13724,-2044,-400,13881.14,24.62,-1.00,-1.0,2361
1769,2136769,23096,-680,2340,23224.20,24.62,-1.00,-1.0,2445
1771,2136771,10348,-80,780,10377.66,24.62,-1.00,-1.0,2365
1776,2136776,20052,632,1280,20102.75,24.72,-1.00,-1.0,2431
1779,2136779,13008,-3008,96,13351.60,24.67,-1.00,-1.0,2377
1782,2136782,22756,-1928,2332,22956.28,24.72,-1.00,-1.0,2440
1785,2136785,10564,-860,-336,10604.27,24.58,-1.00,-1.0,2367
1787,2136787,22104,2156,-848,22225.08,24.62,-1.00,-1.0,2441
1790,2136790,12788,-52,692,12806.82,24.67,-1.00,-1.0,2369
1793,2136793,20064,-3112,412,20308.09,24.62,-1.00,-1.0,2437
1796,2136796,22588,-2436,3324,22960.85,24.58,-1.00,-1.0,2371
1801,2136801,22624,2660,-428,22783.86,24.67,-1.00,-1.0,2443
1803,2136803,12484,880,268,12517.85,24.58,-1.00,-1.0,2369
1806,2136806,20108,-2844,332,20310.84,24.58,-1.00,-1.0,2452
1809,2136809,22008,-2780,3244,22418.83,24.67,-1.00,-1.0,2367
1811,2136811,11524,-288,424,11535.39,24.58,-1.00,-1.0,2369
1814,2136814,22888,2672,728,23054.94,24.58,-1.00,-1.0,2444
1817,2136817,11796,664,-124,11815.32,24.58,-1.00,-1.0,2370
1820,2136820,20052,-2392,964,20217.16,24.62,-1.00,-1.0,2448
1822,2136822,16004,-3536,1288,16440.51,24.58,-1.00,-1.0,2364
1827,2136827,23492,2688,-100,23645.49,24.62,-1.00,-1.0,2444
1830,2136830,10480,564,-520,10508.04,24.53,-1.00,-1.0,2368
1833,2136833,23696,-2356,3860,24123.66,24.53,-1.00,-1.0,2436
1836,2136836,14540,-3848,1596,15125.01,24.62,-1.00,-1.0,2368
1838,2136838,17588,388,-448,17597.98,24.53,-1.00,-1.0,2438
1841,2136841,18272,1232,-1040,18342.99,24.62,-1.00,-1.0,2368
1844,2136844,15292,-640,-896,15331.59,24.53,-1.00,-1.0,2436
1847,2136847,24180,-1792,2888,24417.70,24.62,-1.00,-1.0,2366
1852,2136852,17740,-176,-920,17764.71,24.62,-1.00,-1.0,2444
1854,2136854,18000,-28,-1280,18045.47,24.48,-1.00,-1.0,2370
1857,2136857,15684,396,44,15689.06,24.67,-1.00,-1.0,2451
1860,2136860,24480,-1248,2196,24609.96,24.58,-1.00,-1.0,2376
1862,2136862,8660,-1692,-664,8848.69,24.62,-1.00,-1.0,2369
1865,2136865,26320,948,2848,26490.61,24.62,-1.00,-1.0,2438
1868,2136868,7652,-992,-436,7728.34,24.62,-1.00,-1.0,2366
1871,2136871,15780,288,-596,15793.88,24.62,-1.00,-1.0,2447
1873,2136873,21364,-1312,-56,21404.32,24.58,-1.00,-1.0,2364
1878,2136878,26760,108,2912,26918.19,24.53,-1.00,-1.0,2452
1881,2136881,7320,-804,-72,7364.37,24.48,-1.00,-1.0,2375
1884,2136884,25304,648,2496,25435.06,24.62,-1.00,-1.0,2429
1886,2136886,19112,-1700,-268,19189.33,24.67,-1.00,-1.0,2365
1889,2136889,13932,-360,-716,13955.03,24.62,-1.00,-1.0,2451
1892,2136892,23184,-136,1740,23249.60,24.67,-1.00,-1.0,2366
1895,2136895,9496,-1128,-1368,9660.12,24.53,-1.00,-1.0,2446
1898,2136898,25928,968,3400,26167.88,24.62,-1.00,-1.0,2369
1901,2136901,9244,-2340,-916,9579.47,24.62,-1.00,-1.0,2365
1905,2136905,20264,-496,1184,20304.62,24.62,-1.00,-1.0,2451
1908,2136908,11948,-272,-2460,12201.65,24.62,-1.00,-1.0,2376
1911,2136911,25004,-556,1420,25050.46,24.58,-1.00,-1.0,2437
1914,2136914,7428,-2712,600,7930.33,24.62,-1.00,-1.0,2362
1916,2136916,24556,376,2880,24727.17,24.67,-1.00,-1.0,2441
1919,2136919,10360,-512,-564,10387.97,24.62,-1.00,-1.0,2381
1922,2136922,21092,1816,1612,21231.32,24.67,-1.00,-1.0,2438
1925,2136925,23048,-488,2112,23149.71,24.62,-1.00,-1.0,2368
1930,2136930,25744,-572,3024,25927.31,24.62,-1.00,-1.0,2443
1932,2136932,8172,340,208,8181.71,24.62,-1.00,-1.0,2370
1935,2136935,22964,2768,1208,23161.74,24.53,-1.00,-1.0,2452
1938,2136938,12332,-2556,-4,12594.10,24.53,-1.00,-1.0,2367
1940,2136940,12892,-2856,1648,13307.00,24.62,-1.00,-1.0,2370
1943,2136943,22420,-1808,1180,22523.71,24.58,-1.00,-1.0,2445
1946,2136946,10940,2660,-768,11284.90,24.62,-1.00,-1.0,2360
1949,2136949,25728,2528,280,25853.42,24.58,-1.00,-1.0,2440
1952,2136952,8508,-1616,860,8702.71,24.67,-1.00,-1.0,2367
1957,2136957,20660,-2272,1120,20814.71,24.62,-1.00,-1.0,2448
1959,2136959,12252,1684,-912,12400.77,24.62,-1.00,-1.0,2371
1962,2136962,22912,1108,1016,22961.26,24.58,-1.00,-1.0,2451
1965,2136965,10024,-1880,-1292,10280.28,24.72,-1.00,-1.0,2371
1968,2136968,27164,-1504,4132,27517.60,24.58,-1.00,-1.0,2449
1970,2136970,6172,-2152,616,6565.37,24.62,-1.00,-1.0,2372
1973,2136973,25620,2952,1936,25862.07,24.67,-1.00,-1.0,2452
1976,2136976,8972,-492,-584,9004.44,24.72,-1.00,-1.0,2374
1981,2136981,25196,-2292,2568,25430.03,24.62,-1.00,-1.0,2451
1983,2136983,4968,-2312,-380,5492.79,24.62,-1.00,-1.0,2370
1986,2136986,28388,2420,1868,28552.13,24.67,-1.00,-1.0,2449
1989,2136989,6280,-1028,-1076,6453.91,24.72,-1.00,-1.0,2366
1992,2136992,14460,-624,-232,14475.32,24.67,-1.00,-1.0,2367
1994,2136994,22324,-2628,1832,22552.69,24.58,-1.00,-1.0,2446
1997,2136997,8996,-480,-2168,9265.99,24.77,-1.00,-1.0,2381
2000,2137000,28424,736,796,28444.67,24.58,-1.00,-1.0,2439
2003,2137003,3912,-1380,388,4166.38,24.67,-1.00,-1.0,2366
2008,2137008,21568,-2184,1020,21702.28,24.77,-1.00,-1.0,2442
2010,2137010,9860,-4,-2080,10077.00,24.67,-1.00,-1.0,2379
2013,2137013,26300,1624,1180,26376.50,24.67,-1.00,-1.0,2438
2016,2137016,7052,-368,380,7071.81,24.58,-1.00,-1.0,2369
2019,2137019,28900,-1396,2504,29041.85,24.67,-1.00,-1.0,2449
2021,2137021,6544,-1768,60,6778.89,24.58,-1.00,-1.0,2377
2024,2137024,24732,3000,2112,25002.65,24.67,-1.00,-1.0,2438
2027,2137027,11408,-1036,-328,11459.64,24.58,-1.00,-1.0,2369
2030,2137030,19520,-1448,2100,19685.96,24.62,-1.00,-1.0,2363
2035,2137035,5920,552,-592,5975.08,24.62,-1.00,-1.0,2444
2037,2137037,25104,2272,476,25211.10,24.67,-1.00,-1.0,2376
2040,2137040,9960,-584,216,9979.44,24.62,-1.00,-1.0,2438
2043,2137043,23028,-2036,2840,23291.62,24.67,-1.00,-1.0,2353
2046,2137046,12564,-3828,-316,13138.02,24.62,-1.00,-1.0,2448
2048,2137048,7584,1604,-704,7783.67,24.67,-1.00,-1.0,2375
2051,2137051,27308,2956,772,27478.37,24.72,-1.00,-1.0,2438
2054,2137054,6480,-1320,-864,6669.28,24.67,-1.00,-1.0,2369
2059,2137059,11760,-4256,332,12510.85,24.58,-1.00,-1.0,2449
2062,2137062,10976,964,-232,11020.69,24.67,-1.00,-1.0,2370
2064,2137064,24052,2096,-940,24161.45,24.58,-1.00,-1.0,2450
2067,2137067,8212,704,-1356,8352.92,24.58,-1.00,-1.0,2373
2070,2137070,28668,-3168,3540,29058.94,24.62,-1.00,-1.0,2362
2072,2137072,7368,-4800,1748,8965.65,24.62,-1.00,-1.0,2441
2075,2137075,24260,552,1028,24288.04,24.72,-1.00,-1.0,2374
2078,2137078,11840,1628,-2124,12138.67,24.62,-1.00,-1.0,2438
2081,2137081,19756,1424,472,19812.88,24.58,-1.00,-1.0,2373
2086,2137086,7952,-4280,1236,9114.84,24.67,-1.00,-1.0,2443
2088,2137088,25864,-1416,3044,26080.98,24.58,-1.00,-1.0,2370
2091,2137091,8032,628,-1184,8143.05,24.58,-1.00,-1.0,2453
2094,2137094,22700,4560,176,23154.15,24.67,-1.00,-1.0,2368
2097,2137097,23900,208,1256,23933.88,24.67,-1.00,-1.0,2439
2099,2137099,10092,-4576,1564,11190.81,24.58,-1.00,-1.0,2370
2102,2137102,25960,-3504,3916,26486.50,24.67,-1.00,-1.0,2437
2105,2137105,6324,3696,-732,7361.33,24.77,-1.00,-1.0,2372
2110,2137110,10236,-380,540,10257.28,24.62,-1.00,-1.0,2448
2112,2137112,13924,-5372,504,14932.86,24.62,-1.00,-1.0,2379
2115,2137115,25212,-6188,2908,26122.65,24.62,-1.00,-1.0,2363
2118,2137118,7728,2784,-684,8242.60,24.58,-1.00,-1.0,2433
2120,2137120,26240,7108,-1552,27229.95,24.62,-1.00,-1.0,2368
2123,2137123,8496,1364,-776,8639.72,24.72,-1.00,-1.0,2438
2126,2137126,23720,-5560,4104,24706.17,24.72,-1.00,-1.0,2369
2129,2137129,12072,-6212,2180,13750.44,24.58,-1.00,-1.0,2437
2132,2137132,19796,4288,-1068,20283.22,24.58,-1.00,-1.0,2377
2137,2137137,7244,1292,-684,7390.04,24.67,-1.00,-1.0,2445
2140,2137140,28216,-6224,5200,29358.49,24.58,-1.00,-1.0,2369
2142,2137142,9972,-7360,2128,12575.32,24.58,-1.00,-1.0,2425
2145,2137145,22308,2540,312,22454.30,24.67,-1.00,-1.0,2366
2148,2137148,12812,4936,-2588,13971.73,24.58,-1.00,-1.0,2442
2151,2137151,19080,136,748,19095.14,24.72,-1.00,-1.0,2367
2153,2137153,26160,-5240,3772,26944.97,24.58,-1.00,-1.0,2438
2156,2137156,8464,-4300,1128,9560.42,24.62,-1.00,-1.0,2366
2159,2137159,27844,2068,988,27938.17,24.67,-1.00,-1.0,2369
2164,2137164,21968,1340,-688,22019.58,24.58,-1.00,-1.0,2450
2166,2137166,24356,-2524,3524,24738.71,24.67,-1.00,-1.0,2368
2169,2137169,9116,-4832,-252,10320.52,24.62,-1.00,-1.0,2439
2172,2137172,27448,724,2288,27552.71,24.58,-1.00,-1.0,2366
2175,2137175,6144,3364,-944,7067.98,24.67,-1.00,-1.0,2440
2177,2137177,23796,2512,132,23928.59,24.67,-1.00,-1.0,2366
2180,2137180,11612,-3360,1320,12160.20,24.58,-1.00,-1.0,2441
2183,2137183,20452,-2244,3208,20823.33,24.67,-1.00,-1.0,2365
2188,2137188,8708,2424,-1836,9223.66,24.67,-1.00,-1.0,2446
2191,2137191,27516,936,-256,27533.11,24.62,-1.00,-1.0,2369
2193,2137193,9364,-1756,1388,9627.80,24.67,-1.00,-1.0,2438
2196,2137196,22824,-2380,2016,23036.14,24.72,-1.00,-1.0,2368
2199,2137199,12780,-1008,1336,12889.12,24.58,-1.00,-1.0,2440
2202,2137202,19080,1436,-224,19135.27,24.72,-1.00,-1.0,2369
2204,2137204,26216,800,612,26235.34,24.67,-1.00,-1.0,2362
2207,2137207,7176,-588,-432,7213.00,24.77,-1.00,-1.0,2437
2210,2137210,27832,-1236,2388,27961.59,24.67,-1.00,-1.0,2354
2215,2137215,20344,628,1944,20446.32,24.62,-1.00,-1.0,2450
2217,2137217,14632,-776,-868,14678.25,24.62,-1.00,-1.0,2367
2220,2137220,9888,204,-256,9893.42,24.62,-1.00,-1.0,2452
2223,2137223,25144,-2048,840,25241.25,24.62,-1.00,-1.0,2366
2226,2137226,8360,-268,-524,8380.69,24.72,-1.00,-1.0,2445
2228,2137228,27140,652,1868,27212.02,24.62,-1.00,-1.0,2365
2231,2137231,9372,-980,124,9423.91,24.62,-1.00,-1.0,2454
2234,2137234,22220,-188,2272,22336.64,24.72,-1.00,-1.0,2367
2239,2137239,9876,-96,-276,9880.32,24.62,-1.00,-1.0,2442
2242,2137242,24472,916,1480,24533.82,24.67,-1.00,-1.0,2369
2244,2137244,9728,-524,112,9742.75,24.62,-1.00,-1.0,2363
2247,2137247,23956,-456,2964,24142.97,24.62,-1.00,-1.0,2438
2250,2137250,9684,-1904,1392,9967.08,24.67,-1.00,-1.0,2373
2253,2137253,21548,2344,1016,21698.91,24.53,-1.00,-1.0,2436
2255,2137255,22732,896,-288,22751.47,24.62,-1.00,-1.0,2366
2258,2137258,11388,-1272,544,11471.72,24.53,-1.00,-1.0,2437
2261,2137261,24252,-2148,2796,24506.96,24.67,-1.00,-1.0,2366
2266,2137266,23964,2332,148,24077.65,24.67,-1.00,-1.0,2445
2269,2137269,10532,-524,-568,10560.31,24.67,-1.00,-1.0,2375
2271,2137271,14856,-1296,1464,14984.11,24.67,-1.00,-1.0,2440
2274,2137274,21616,-3648,1256,21957.62,24.67,-1.00,-1.0,2383
2277,2137277,11488,272,280,11494.63,24.67,-1.00,-1.0,2436
2280,2137280,22904,2316,104,23021.03,24.58,-1.00,-1.0,2370
2282,2137282,7900,1116,-176,7980.38,24.67,-1.00,-1.0,2361
2285,2137285,24524,-1192,3140,24752.92,24.62,-1.00,-1.0,2436
2288,2137288,10008,-3628,1564,10759.58,24.62,-1.00,-1.0,2370
2293,2137293,19292,1692,-1016,19392.69,24.72,-1.00,-1.0,2449
2295,2137295,13888,848,-484,13922.28,24.72,-1.00,-1.0,2369
2298,2137298,25672,-1552,2180,25811.10,24.62,-1.00,-1.0,2438
2301,2137301,8568,-3540,1036,9328.21,24.62,-1.00,-1.0,2368
2304,2137304,25228,1260,1624,25311.60,24.72,-1.00,-1.0,2439
2306,2137306,8912,980,-2132,9215.72,24.62,-1.00,-1.0,2367
2309,2137309,17100,1144,1188,17179.35,24.62,-1.00,-1.0,2437
2312,2137312,17196,-3236,1960,17607.26,24.62,-1.00,-1.0,2368
2317,2137317,25984,432,1664,26040.81,24.67,-1.00,-1.0,2448
2319,2137319,7512,972,-884,7626.03,24.58,-1.00,-1.0,2369
2322,2137322,19784,1068,1368,19859.98,24.67,-1.00,-1.0,2456
2325,2137325,15084,-2056,1060,15260.33,24.67,-1.00,-1.0,2368
2328,2137328,17188,-2048,112,17309.95,24.58,-1.00,-1.0,2366
2330,2137330,18156,-416,-336,18163.87,24.62,-1.00,-1.0,2439
2333,2137333,9112,980,-428,9174.54,24.58,-1.00,-1.0,2382
2336,2137336,25160,108,1592,25210.55,24.77,-1.00,-1.0,2435
2339,2137339,8700,-1904,-764,8938.62,24.67,-1.00,-1.0,2367
2344,2137344,14136,-1240,300,14193.45,24.62,-1.00,-1.0,2430
2347,2137347,17460,588,728,17485.06,24.67,-1.00,-1.0,2369
2349,2137349,17088,-968,-220,17116.81,24.62,-1.00,-1.0,2437
2352,2137352,9592,-896,-40,9633.84,24.62,-1.00,-1.0,2367
2355,2137355,25304,-992,1756,25384.25,24.62,-1.00,-1.0,2437
2358,2137358,8532,-272,-800,8573.74,24.67,-1.00,-1.0,2368
2360,2137360,26272,752,2232,26377.36,24.72,-1.00,-1.0,2436
2363,2137363,13312,-1184,500,13373.90,24.62,-1.00,-1.0,2370
2366,2137366,18888,-372,1696,18967.64,24.67,-1.00,-1.0,2361
2371,2137371,10188,-372,-1084,10252.26,24.67,-1.00,-1.0,2446
2374,2137374,24768,256,1224,24799.55,24.53,-1.00,-1.0,2369
2376,2137376,9888,-680,120,9912.08,24.58,-1.00,-1.0,2436
2379,2137379,22144,-504,1780,22221.14,24.62,-1.00,-1.0,2367
2382,2137382,12064,-1000,1064,12152.04,24.67,-1.00,-1.0,2437
2385,2137385,20216,1580,876,20296.56,24.62,-1.00,-1.0,2366
2387,2137387,13204,-896,868,13262.80,24.67,-1.00,-1.0,2437
2390,2137390,11836,-2124,-784,12050.60,24.62,-1.00,-1.0,2367
2395,2137395,9212,-1712,16,9369.75,24.62,-1.00,-1.0,2450
2398,2137398,23332,2516,828,23481.87,24.62,-1.00,-1.0,2369
2401,2137401,11276,164,180,11278.63,24.72,-1.00,-1.0,2445
2403,2137403,22356,-1544,3496,22680.31,24.72,-1.00,-1.0,2374
2406,2137406,20856,-4264,24,21287.44,24.72,-1.00,-1.0,2436
2409,2137409,12604,664,-440,12629.15,24.62,-1.00,-1.0,2371
2411,2137411,22308,2812,-476,22489.57,24.62,-1.00,-1.0,2362
2414,2137414,8576,608,256,8601.34,24.67,-1.00,-1.0,2422
2417,2137417,24224,-3016,3480,24657.84,24.53,-1.00,-1.0,2382
2422,2137422,18064,1264,-168,18108.95,24.62,-1.00,-1.0,2442
2425,2137425,16236,3424,988,16622.50,24.58,-1.00,-1.0,2365
2428,2137428,15912,-1092,744,15966.77,24.67,-1.00,-1.0,2439
2430,2137430,25756,-3596,2768,26152.72,24.58,-1.00,-1.0,2371
2433,2137433,9124,-3496,364,9777.62,24.53,-1.00,-1.0,2441
2436,2137436,25052,2296,216,25157.92,24.67,-1.00,-1.0,2374
2439,2137439,7952,2552,-1124,8426.77,24.67,-1.00,-1.0,2437
2441,2137441,19676,356,1220,19717.00,24.67,-1.00,-1.0,2368
2446,2137446,11316,-3684,416,11907.84,24.58,-1.00,-1.0,2442
2449,2137449,25036,1004,324,25058.22,24.67,-1.00,-1.0,2369
2451,2137451,7980,3456,-1568,8836.46,24.48,-1.00,-1.0,2362
2454,2137454,25640,-560,1452,25687.19,24.53,-1.00,-1.0,2444
2457,2137457,10548,-3900,1548,11351.94,24.67,-1.00,-1.0,2367
2460,2137460,23148,-2428,2568,23416.23,24.72,-1.00,-1.0,2443
2462,2137462,11652,776,-8,11677.81,24.67,-1.00,-1.0,2354
2465,2137465,20508,3148,188,20749.06,24.62,-1.00,-1.0,2438
2468,2137468,23116,-32,388,23119.28,24.62,-1.00,-1.0,2355
2473,2137473,25976,-2148,3708,26327.09,24.62,-1.00,-1.0,2458
2476,2137476,7656,-508,764,7710.78,24.72,-1.00,-1.0,2377
2479,2137479,24296,2904,-240,24470.11,24.58,-1.00,-1.0,2448
2481,2137481,10436,-500,100,10448.45,24.72,-1.00,-1.0,2368
2484,2137484,13992,-2456,704,14223.35,24.58,-1.00,-1.0,2447
2487,2137487,21772,-3404,1536,22089.96,24.62,-1.00,-1.0,2375
2489,2137489,11624,1352,-196,11704.00,24.58,-1.00,-1.0,2364
2492,2137492,26224,2728,232,26366.53,24.58,-1.00,-1.0,2436
2495,2137495,7788,-252,-1272,7895.22,24.67,-1.00,-1.0,2368
2501,2137501,9224,-3380,1288,9907.85,24.58,-1.00,-1.0,2442
2503,2137503,22956,1980,948,23060.72,24.67,-1.00,-1.0,2356
2506,2137506,20700,2056,-1192,20835.98,24.58,-1.00,-1.0,2436
2509,2137509,12700,156,-704,12720.45,24.58,-1.00,-1.0,2370
2512,2137512,22152,-3044,2304,22478.55,24.67,-1.00,-1.0,2430
2514,2137514,11068,-1772,-576,11223.74,24.58,-1.00,-1.0,2374
2517,2137517,26440,1408,2132,26563.16,24.58,-1.00,-1.0,2436
2520,2137520,7804,1300,624,7936.11,24.67,-1.00,-1.0,2368
2525,2137525,18776,-2448,1176,18971.40,24.53,-1.00,-1.0,2441
2527,2137527,13904,-1856,852,14053.18,24.67,-1.00,-1.0,2369
2530,2137530,20688,728,-448,20705.65,24.62,-1.00,-1.0,2437
2533,2137533,9620,1396,-788,9752.65,24.67,-1.00,-1.0,2367
2535,2137535,25280,-948,624,25305.46,24.58,-1.00,-1.0,2349
2538,2137538,8956,-2628,1036,9390.93,24.62,-1.00,-1.0,2437
2541,2137541,18544,-620,1640,18626.70,24.62,-1.00,-1.0,2368
2544,2137544,15668,352,312,15675.06,24.62,-1.00,-1.0,2444
2546,2137546,17324,-184,-372,17328.97,24.67,-1.00,-1.0,2367
2551,2137551,9644,-1420,-136,9748.93,24.67,-1.00,-1.0,2444
2554,2137554,22692,1028,1868,22791.95,24.58,-1.00,-1.0,2370
2557,2137557,12148,-308,332,12156.44,24.62,-1.00,-1.0,2436
2560,2137560,20916,-316,2356,21050.64,24.58,-1.00,-1.0,2367
2562,2137562,12636,-2148,1112,12865.42,24.58,-1.00,-1.0,2437
2565,2137565,11772,268,-504,11785.83,24.67,-1.00,-1.0,2355
2568,2137568,23060,1632,288,23119.47,24.77,-1.00,-1.0,2436
2571,2137571,11952,-884,676,12003.70,24.77,-1.00,-1.0,2368
2576,2137576,10204,-1684,860,10377.72,24.62,-1.00,-1.0,2450
2578,2137578,22828,1488,-356,22879.21,24.72,-1.00,-1.0,2370
2581,2137581,17748,1772,768,17852.77,24.58,-1.00,-1.0,2370
2584,2137584,15800,-868,1588,15903.31,24.67,-1.00,-1.0,2439
2587,2137587,19488,-3052,1044,19753.15,24.58,-1.00,-1.0,2366
2589,2137589,13748,-128,292,13751.70,24.67,-1.00,-1.0,2449
2592,2137592,24540,1392,96,24579.63,24.58,-1.00,-1.0,2376
2595,2137595,9068,672,-20,9092.89,24.58,-1.00,-1.0,2439
2597,2137597,24696,-876,3500,24958.16,24.48,-1.00,-1.0,2366
2602,2137602,18000,-272,920,18025.55,24.62,-1.00,-1.0,2443
2605,2137605,17208,1204,-1068,17283.10,24.62,-1.00,-1.0,2370
2608,2137608,10436,1096,-648,10513.38,24.58,-1.00,-1.0,2436
2611,2137611,24880,-2284,1084,25008.12,24.62,-1.00,-1.0,2366
2613,2137613,8972,-2332,936,9317.25,24.72,-1.00,-1.0,2425
2616,2137616,25308,784,2132,25409.74,24.53,-1.00,-1.0,2367
2619,2137619,13168,504,-1236,13235.48,24.58,-1.00,-1.0,2369
2621,2137621,20632,496,1452,20688.98,24.67,-1.00,-1.0,2436
2624,2137624,13564,-2108,1008,13763.79,24.67,-1.00,-1.0,2369
2629,2137629,23868,-280,1020,23891.43,24.58,-1.00,-1.0,2444
2632,2137632,9752,-348,640,9779.17,24.62,-1.00,-1.0,2369
2635,2137635,23064,308,2288,23179.26,24.58,-1.00,-1.0,2444
2637,2137637,11656,-1316,820,11758.68,24.62,-1.00,-1.0,2367
2640,2137640,21212,172,1304,21252.74,24.67,-1.00,-1.0,2437
2643,2137643,21396,-76,704,21407.71,24.62,-1.00,-1.0,2366
2646,2137646,11940,176,-420,11948.68,24.58,-1.00,-1.0,2442
2648,2137648,23104,-1780,1444,23217.41,24.72,-1.00,-1.0,2367
2653,2137653,24748,1152,2820,24934.78,24.62,-1.00,-1.0,2451
2656,2137656,9460,-244,484,9475.52,24.62,-1.00,-1.0,2377
2659,2137659,14000,-124,-488,14009.05,24.62,-1.00,-1.0,2365
2661,2137661,21460,-1516,352,21516.36,24.58,-1.00,-1.0,2438
2664,2137664,12448,-1248,-48,12510.50,24.62,-1.00,-1.0,2368
2667,2137667,27616,-344,1828,27678.57,24.67,-1.00,-1.0,2437
2670,2137670,6920,-180,-144,6923.84,24.53,-1.00,-1.0,2365
2672,2137672,26280,1584,2248,26423.49,24.67,-1.00,-1.0,2437
2675,2137675,8248,-1224,1156,8418.08,24.67,-1.00,-1.0,2378
2680,2137680,20072,-1516,996,20153.79,24.67,-1.00,-1.0,2442
2683,2137683,7680,-376,-704,7721.36,24.67,-1.00,-1.0,2370
2686,2137686,25788,1588,2408,25948.82,24.62,-1.00,-1.0,2443
2688,2137688,8180,-1120,160,8257.87,24.58,-1.00,-1.0,2368
2691,2137691,26128,-1168,2252,26250.87,24.67,-1.00,-1.0,2441
2694,2137694,16260,-1708,792,16368.63,24.58,-1.00,-1.0,2367
2697,2137697,15580,636,-1068,15629.51,24.62,-1.00,-1.0,2446
2699,2137699,20016,824,228,20034.25,24.67,-1.00,-1.0,2354
2702,2137702,13504,-1840,356,13633.43,24.72,-1.00,-1.0,2369
2707,2137707,8244,-1076,144,8315.17,24.58,-1.00,-1.0,2448
2710,2137710,18392,1688,532,18476.96,24.62,-1.00,-1.0,2356
2713,2137713,16152,648,36,16165.03,24.58,-1.00,-1.0,2445
2715,2137715,16712,-1700,1100,16834.22,24.53,-1.00,-1.0,2374
2718,2137718,19108,-3808,-696,19496.18,24.67,-1.00,-1.0,2437
2721,2137721,7364,-68,1088,7444.25,24.53,-1.00,-1.0,2367
2724,2137724,25936,2296,1620,26087.78,24.67,-1.00,-1.0,2448
2726,2137726,7620,-124,-12,7621.02,24.58,-1.00,-1.0,2375
2731,2137731,15052,-3252,376,15403.88,24.67,-1.00,-1.0,2441
2734,2137734,10764,-96,680,10785.88,24.58,-1.00,-1.0,2372
2737,2137737,22804,1720,656,22878.18,24.67,-1.00,-1.0,2444
2739,2137739,10652,-280,-1732,10795.52,24.58,-1.00,-1.0,2369
2742,2137742,23808,-880,3428,24069.62,24.67,-1.00,-1.0,2363
2745,2137745,10548,-3872,812,11265.52,24.72,-1.00,-1.0,2439
2747,2137747,22028,1268,868,22081.53,24.67,-1.00,-1.0,2366
2750,2137750,12016,2088,-688,12215.46,24.67,-1.00,-1.0,2437
2753,2137753,20360,116,1572,20420.93,24.58,-1.00,-1.0,2366
2758,2137758,9840,-2212,896,10125.28,24.67,-1.00,-1.0,2451
2761,2137761,25560,616,256,25568.70,24.67,-1.00,-1.0,2384
2764,2137764,9028,1648,-960,9227.26,24.67,-1.00,-1.0,2437
2767,2137767,23944,1468,1776,24054.61,24.77,-1.00,-1.0,2378
2769,2137769,10916,-3572,1392,11569.61,24.67,-1.00,-1.0,2423
2772,2137772,21380,-1172,2312,21536.56,24.67,-1.00,-1.0,2381
2775,2137775,24200,-60,1236,24231.62,24.58,-1.00,-1.0,2442
2778,2137778,9076,1868,-2336,9556.16,24.58,-1.00,-1.0,2380
2780,2137780,25932,-828,1200,25972.95,24.48,-1.00,-1.0,2362
2785,2137785,24040,-1140,3064,24261.27,24.67,-1.00,-1.0,2451
2788,2137788,10768,-820,104,10799.68,24.58,-1.00,-1.0,2373
2791,2137791,12020,1380,-1512,12193.07,24.58,-1.00,-1.0,2438
2794,2137794,23624,292,468,23630.44,24.58,-1.00,-1.0,2375
2796,2137796,9828,-1800,-632,10011.44,24.67,-1.00,-1.0,2425
2799,2137799,26024,-2332,1972,26202.59,24.58,-1.00,-1.0,2382
2802,2137802,7284,-1420,-112,7421.97,24.58,-1.00,-1.0,2439
2805,2137805,25596,2312,1436,25740.29,24.58,-1.00,-1.0,2373
2810,2137810,13388,-1204,1016,13480.37,24.62,-1.00,-1.0,2443
2812,2137812,22088,-2768,824,22276.01,24.62,-1.00,-1.0,2371
2815,2137815,10832,404,-196,10841.30,24.67,-1.00,-1.0,2451
2818,2137818,26084,1712,1208,26168.02,24.62,-1.00,-1.0,2370
2821,2137821,7164,188,792,7210.10,24.58,-1.00,-1.0,2437
2823,2137823,26988,-1336,1956,27091.75,24.72,-1.00,-1.0,2370
2826,2137826,16956,-2604,2156,17289.74,24.67,-1.00,-1.0,2368
2829,2137829,14416,408,16,14421.78,24.67,-1.00,-1.0,2448
2831,2137831,21300,708,-660,21321.98,24.62,-1.00,-1.0,2354
2836,2137836,26636,-1996,1784,26770.19,24.72,-1.00,-1.0,2442
2839,2137839,8036,-1716,548,8235.43,24.58,-1.00,-1.0,2369
2842,2137842,25100,1868,2220,25267.13,24.62,-1.00,-1.0,2436
2845,2137845,16364,224,-1260,16413.96,24.62,-1.00,-1.0,2367
2847,2137847,17424,-872,1244,17490.10,24.62,-1.00,-1.0,2436
2850,2137850,17592,-2968,452,17846.34,24.58,-1.00,-1.0,2367
2853,2137853,14724,648,-412,14744.01,24.62,-1.00,-1.0,2437
2856,2137856,26420,1960,1104,26515.60,24.67,-1.00,-1.0,2367
2861,2137861,22704,-2048,2668,22951.78,24.67,-1.00,-1.0,2445
2863,2137863,11960,-3016,632,12350.60,24.58,-1.00,-1.0,2378
2866,2137866,19856,2924,1420,20120.31,24.58,-1.00,-1.0,2445
2869,2137869,23248,1844,-404,23324.52,24.67,-1.00,-1.0,2355
2871,2137871,10284,-544,-76,10298.66,24.62,-1.00,-1.0,2351
2874,2137874,26628,-4648,1652,27081.05,24.53,-1.00,-1.0,2435
2877,2137877,6492,-84,868,6550.31,24.67,-1.00,-1.0,2368
2880,2137880,24208,3740,560,24501.60,24.62,-1.00,-1.0,2445
2882,2137882,10488,984,-1012,10582.56,24.67,-1.00,-1.0,2366
2887,2137887,21876,-4552,2608,22496.26,24.67,-1.00,-1.0,2443
2890,2137890,11056,1280,1184,11192.65,24.58,-1.00,-1.0,2372
2893,2137893,21884,3048,644,22104.63,24.67,-1.00,-1.0,2435
2896,2137896,8480,540,-1828,8691.58,24.67,-1.00,-1.0,2373
2898,2137898,26548,-2168,4272,26976.78,24.67,-1.00,-1.0,2437
2901,2137901,7676,-4492,592,8913.45,24.62,-1.00,-1.0,2368
2904,2137904,25456,3020,168,25635.06,24.58,-1.00,-1.0,2436
2907,2137907,18896,3248,-624,19183.27,24.62,-1.00,-1.0,2366
2911,2137911,28184,-2580,4016,28585.36,24.58,-1.00,-1.0,2446
2914,2137914,6720,-4844,1184,8368.07,24.58,-1.00,-1.0,2372
2917,2137917,20752,84,1828,20832.53,24.67,-1.00,-1.0,2370
2920,2137920,14572,3196,-1876,15035.86,24.62,-1.00,-1.0,2444
2922,2137922,18176,1728,252,18259.70,24.58,-1.00,-1.0,2372
2925,2137925,16524,-4072,2888,17261.64,24.62,-1.00,-1.0,2450
2928,2137928,7080,-4744,896,8569.41,24.77,-1.00,-1.0,2374
2931,2137931,27692,-116,1748,27747.36,24.62,-1.00,-1.0,2445
2934,2137934,5632,2752,-2468,6736.76,24.72,-1.00,-1.0,2379
2938,2137938,11316,-2860,1736,11800.22,24.62,-1.00,-1.0,2443
2941,2137941,20584,-2652,3144,20990.92,24.72,-1.00,-1.0,2372
2944,2137944,14604,-384,-220,14610.70,24.58,-1.00,-1.0,2437
2947,2137947,8084,2760,-864,8585.75,24.72,-1.00,-1.0,2368
2949,2137949,26704,980,888,26736.73,24.58,-1.00,-1.0,2437
2952,2137952,6452,-2688,320,6996.86,24.62,-1.00,-1.0,2369
2955,2137955,25808,-2064,2956,26058.61,24.67,-1.00,-1.0,2361
2958,2137958,9512,-1756,-656,9694.95,24.77,-1.00,-1.0,2436
2961,2137961,23172,2868,620,23357.04,24.62,-1.00,-1.0,2369
2966,2137966,10472,-1540,-712,10608.55,24.62,-1.00,-1.0,2445
2968,2137968,25960,-4168,1200,26319.84,24.62,-1.00,-1.0,2379
2971,2137971,7856,-148,260,7861.69,24.62,-1.00,-1.0,2445
2974,2137974,27672,1824,-364,27734.44,24.62,-1.00,-1.0,2370
2977,2137977,7724,1136,40,7807.19,24.62,-1.00,-1.0,2452
2979,2137979,25792,-1036,1948,25886.20,24.62,-1.00,-1.0,2377
2982,2137982,9224,-3132,1532,9860.96,24.62,-1.00,-1.0,2446
2985,2137985,22376,1576,2204,22539.45,24.62,-1.00,-1.0,2371
2990,2137990,9800,1136,412,9874.22,24.67,-1.00,-1.0,2442
2993,2137993,27588,-1228,1032,27634.59,24.67,-1.00,-1.0,2368
2995,2137995,7388,-2644,1064,7918.67,24.62,-1.00,-1.0,2437
2998,2137998,25564,1768,3024,25802.88,24.58,-1.00,-1.0,2355
3001,2138001,8660,292,-580,8684.31,24.62,-1.00,-1.0,2365
3004,2138004,15652,432,76,15658.14,24.62,-1.00,-1.0,2436
3006,2138006,19888,-3452,824,20202.17,24.62,-1.00,-1.0,2368
3009,2138009,12848,-496,104,12857.99,24.62,-1.00,-1.0,2436
3012,2138012,28184,1200,1588,28254.20,24.67,-1.00,-1.0,2374
3017,2138017,20968,-504,1432,21022.88,24.67,-1.00,-1.0,2443
3019,2138019,14664,-2536,892,14908.38,24.67,-1.00,-1.0,2373
3022,2138022,17260,1132,1884,17399.38,24.67,-1.00,-1.0,2423
3025,2138025,17304,624,-80,17315.43,24.58,-1.00,-1.0,2367
3028,2138028,6676,-104,-344,6685.67,24.58,-1.00,-1.0,2437
3030,2138030,29272,-2812,1940,29470.68,24.67,-1.00,-1.0,2375
3033,2138033,3704,-1008,1260,4040.21,24.67,-1.00,-1.0,2437
3036,2138036,28828,3052,1740,29041.28,24.67,-1.00,-1.0,2355
3039,2138039,12936,772,-1556,13052.10,24.67,-1.00,-1.0,2361
3044,2138044,24632,-4156,1768,25042.63,24.58,-1.00,-1.0,2444
3046,2138046,7716,884,556,7786.35,24.58,-1.00,-1.0,2377
3049,2138049,27660,1240,-64,27687.86,24.58,-1.00,-1.0,2437
3052,2138052,5640,-1332,-1016,5883.54,24.58,-1.00,-1.0,2368
3055,2138055,25716,-1140,3312,25953.45,24.58,-1.00,-1.0,2446
3057,2138057,9364,-2460,40,9681.82,24.67,-1.00,-1.0,2377
3060,2138060,22416,2244,1816,22601.12,24.48,-1.00,-1.0,2437
3063,2138063,13544,300,20,13547.34,24.67,-1.00,-1.0,2369
3068,2138068,29264,-2424,2672,29485.54,24.72,-1.00,-1.0,2450
3070,2138070,5568,-2628,-1712,6390.61,24.53,-1.00,-1.0,2369
3073,2138073,27224,2848,2200,27460.83,24.58,-1.00,-1.0,2453
3076,2138076,9604,-692,-1684,9775.05,24.62,-1.00,-1.0,2367
3079,2138079,8592,-796,588,8648.80,24.67,-1.00,-1.0,2364
3081,2138081,27480,-3488,1352,27733.45,24.58,-1.00,-1.0,2440
3084,2138084,2832,212,-904,2980.33,24.67,-1.00,-1.0,2383
3087,2138087,32767,928,1744,32826.50,24.58,-1.00,-1.0,2439
3090,2138090,1092,-1928,-556,2284.47,24.62,-1.00,-1.0,2374
3095,2138095,8896,-1096,-1460,9081.39,24.62,-1.00,-1.0,2443
3097,2138097,8268,1376,-348,8388.94,24.53,-1.00,-1.0,2369
3100,2138100,27784,-1716,248,27838.05,24.53,-1.00,-1.0,2423
3103,2138103,3576,-2088,1724,4485.50,24.58,-1.00,-1.0,2369
3106,2138106,32767,-816,436,32780.06,24.62,-1.00,-1.0,2437
3108,2138108,4692,-188,-3440,5820.98,24.58,-1.00,-1.0,2374
3111,2138111,26144,2956,3208,26505.43,24.62,-1.00,-1.0,2437
3114,2138114,10800,-2680,-1152,11187.02,24.58,-1.00,-1.0,2370
3117,2138117,22064,-1108,4928,22634.77,24.72,-1.00,-1.0,2369
3122,2138122,3220,504,-2372,4030.98,24.58,-1.00,-1.0,2443
3124,2138124,29572,3776,3300,29994.19,24.67,-1.00,-1.0,2371
3127,2138127,6044,-3044,-2500,7214.28,24.58,-1.00,-1.0,2450
3130,2138130,25092,-688,5108,25615.88,24.77,-1.00,-1.0,2374
3133,2138133,27988,-2568,1032,28124.51,24.48,-1.00,-1.0,2450
3135,2138135,2876,756,-360,2995.42,24.58,-1.00,-1.0,2373
3138,2138138,32516,1040,436,32535.55,24.58,-1.00,-1.0,2450
3141,2138141,-176,-1784,-816,1969.64,24.67,-1.00,-1.0,2375
3146,2138146,25612,-3292,512,25827.78,24.67,-1.00,-1.0,2445
3148,2138148,4920,476,1212,5089.39,24.67,-1.00,-1.0,2379
3151,2138151,31276,204,-156,31277.05,24.72,-1.00,-1.0,2442
3154,2138154,528,-524,-484,887.48,24.58,-1.00,-1.0,2370
3156,2138156,28804,1956,6428,29577.28,24.62,-1.00,-1.0,2364
3159,2138159,7640,-3216,-2900,8781.93,24.72,-1.00,-1.0,2437
3162,2138162,24644,1560,4420,25085.79,24.67,-1.00,-1.0,2370
3165,2138165,12376,-3672,-3804,13458.06,24.67,-1.00,-1.0,2433
3168,2138168,18220,2432,2524,18554.07,24.58,-1.00,-1.0,2373
3173,2138173,-88,-1296,780,1515.18,24.58,-1.00,-1.0,2450
3175,2138175,25792,104,4824,26239.46,24.67,-1.00,-1.0,2373
3178,2138178,11712,-3184,-1516,12231.40,24.58,-1.00,-1.0,2454
3181,2138181,18072,2296,728,18231.81,24.67,-1.00,-1.0,2367
3184,2138184,19144,-1208,-932,19204.70,24.67,-1.00,-1.0,2445
3186,2138186,-116,-1352,-1800,2254.19,24.58,-1.00,-1.0,2368
3189,2138189,32767,-476,5884,33294.51,24.48,-1.00,-1.0,2446
3192,2138192,-208,-2444,-3120,3968.73,24.67,-1.00,-1.0,2367
3197,2138197,19396,-1708,-3904,19858.58,24.58,-1.00,-1.0,2443
3200,2138200,10664,-12,2184,10885.35,24.62,-1.00,-1.0,2369
3202,2138202,32767,-988,4872,33141.95,24.67,-1.00,-1.0,2436
3205,2138205,544,-2116,-2080,3016.59,24.72,-1.00,-1.0,2367
3208,2138208,32336,2476,3324,32600.56,24.67,-1.00,-1.0,2368
3211,2138211,18096,-1292,-2920,18375.55,24.58,-1.00,-1.0,2437
3213,2138213,12288,-24,-48,12288.12,24.67,-1.00,-1.0,2369
3216,2138216,26332,-3692,892,26604.53,24.77,-1.00,-1.0,2435
3219,2138219,3836,-1344,184,4068.79,24.72,-1.00,-1.0,2369
3224,2138224,5316,-2088,-4036,6993.49,24.62,-1.00,-1.0,2450
3227,2138227,24940,1316,3808,25263.34,24.72,-1.00,-1.0,2379
3229,2138229,28520,-1588,712,28573.05,24.72,-1.00,-1.0,2445
3232,2138232,1784,-704,660,2028.27,24.72,-1.00,-1.0,2381
3235,2138235,32767,700,2264,32852.58,24.62,-1.00,-1.0,2440
3238,2138238,-1508,-108,-336,1548.75,24.62,-1.00,-1.0,2372
3240,2138240,23420,1240,2672,23604.53,24.72,-1.00,-1.0,2447
3243,2138243,15188,-3240,-1952,15651.94,24.62,-1.00,-1.0,2381
3248,2138248,32767,604,3540,32963.20,24.72,-1.00,-1.0,2443
3251,2138251,1028,-880,-2012,2424.73,24.58,-1.00,-1.0,2366
3253,2138253,20032,1004,1144,20089.74,24.62,-1.00,-1.0,2371
3256,2138256,18200,-1892,-684,18310.86,24.58,-1.00,-1.0,2444
3259,2138259,11428,-104,292,11432.20,24.62,-1.00,-1.0,2374
3262,2138262,26872,-1740,924,26944.12,24.58,-1.00,-1.0,2446
3264,2138264,2868,-1100,-1276,3326.20,24.62,-1.00,-1.0,2375
3267,2138267,29548,600,4324,29868.73,24.67,-1.00,-1.0,2446
3270,2138270,6416,-1636,-3048,7289.16,24.67,-1.00,-1.0,2355
3275,2138275,27412,-752,1920,27489.45,24.67,-1.00,-1.0,2444
3278,2138278,4496,-2228,1872,5355.59,24.53,-1.00,-1.0,2373
3280,2138280,25232,-1360,1632,25321.27,24.67,-1.00,-1.0,2439
3283,2138283,12060,-580,-2028,12243.07,24.62,-1.00,-1.0,2375
3286,2138286,18504,1024,-2076,18648.23,24.67,-1.00,-1.0,2436
3289,2138289,20684,-1584,-56,20744.64,24.72,-1.00,-1.0,2364
3291,2138291,3992,-2240,-284,4586.32,24.67,-1.00,-1.0,2440
3294,2138294,29928,-144,4760,30304.51,24.62,-1.00,-1.0,2382
3297,2138297,5876,-1260,-1504,6194.92,24.67,-1.00,-1.0,2362
3302,2138302,25948,-624,-316,25957.43,24.58,-1.00,-1.0,2444
3305,2138305,6040,-1272,100,6173.30,24.58,-1.00,-1.0,2370
3307,2138307,27208,-420,4680,27610.76,24.77,-1.00,-1.0,2437
3310,2138310,9156,-1540,-1568,9416.08,24.67,-1.00,-1.0,2367
3313,2138313,20592,768,428,20610.76,24.67,-1.00,-1.0,2436
3316,2138316,17980,-1372,-1436,18089.36,24.67,-1.00,-1.0,2369
3318,2138318,5528,-1180,644,5689.11,24.58,-1.00,-1.0,2437
3321,2138321,28448,24,4464,28796.12,24.58,-1.00,-1.0,2369
3327,2138327,25504,1176,2572,25660.32,24.67,-1.00,-1.0,2457
3329,2138329,23172,-452,512,23182.06,24.67,-1.00,-1.0,2369
3332,2138332,7812,-856,-152,7860.23,24.72,-1.00,-1.0,2438
3335,2138335,29948,-280,3300,30130.57,24.67,-1.00,-1.0,2366
3337,2138337,3064,-1308,844,3436.76,24.62,-1.00,-1.0,2361
3340,2138340,18956,736,1068,19000.32,24.53,-1.00,-1.0,2437
3343,2138343,19576,4,-1448,19629.48,24.62,-1.00,-1.0,2366
3346,2138346,10552,-2048,-2780,11102.59,24.72,-1.00,-1.0,2447
3348,2138348,28780,-316,1876,28842.81,24.62,-1.00,-1.0,2366
3353,2138353,12544,-324,-2072,12718.10,24.67,-1.00,-1.0,2451
3356,2138356,27920,-136,216,27921.17,24.58,-1.00,-1.0,2377
3359,2138359,2776,-2192,-468,3567.92,24.58,-1.00,-1.0,2440
3362,2138362,32767,896,2620,32883.79,24.67,-1.00,-1.0,2366
3364,2138364,10260,-1668,-1292,10474.69,24.67,-1.00,-1.0,2447
3367,2138367,18380,48,-32,18380.09,24.67,-1.00,-1.0,2375
3370,2138370,20244,-1312,16,20286.48,24.67,-1.00,-1.0,2444
3373,2138373,10768,-2264,-2220,11225.15,24.67,-1.00,-1.0,2367
3377,2138377,4112,-1428,560,4388.77,24.62,-1.00,-1.0,2443
3380,2138380,13996,-444,-2372,14202.52,24.62,-1.00,-1.0,2369
3383,2138383,26272,340,32,26274.22,24.67,-1.00,-1.0,2368
3386,2138386,4316,-1648,-1248,4785.53,24.67,-1.00,-1.0,2446
3388,2138388,26372,524,3592,26620.66,24.58,-1.00,-1.0,2373
3391,2138391,11292,-3132,96,11718.70,24.67,-1.00,-1.0,2447
3394,2138394,17596,-560,-1096,17638.99,24.67,-1.00,-1.0,2374
3397,2138397,21856,112,-52,21856.35,24.77,-1.00,-1.0,2447
3399,2138399,984,-260,0,1017.77,24.67,-1.00,-1.0,2373
3404,2138404,18732,-3036,-812,18993.80,24.67,-1.00,-1.0,2445
3407,2138407,10012,-1560,-1128,10195.40,24.67,-1.00,-1.0,2369
3410,2138410,29220,1280,760,29257.89,24.58,-1.00,-1.0,2445
3412,2138412,3036,-632,-1116,3295.78,24.58,-1.00,-1.0,2369
3415,2138415,24784,832,2124,24888.76,24.58,-1.00,-1.0,2446
3418,2138418,13888,-3032,328,14218.90,24.67,-1.00,-1.0,2367
3421,2138421,15480,-1340,-1180,15582.63,24.67,-1.00,-1.0,2367
3423,2138423,23060,92,208,23061.12,24.62,-1.00,-1.0,2447
3426,2138426,4248,-552,-684,4337.98,24.58,-1.00,-1.0,2382
3431,2138431,20744,-2164,268,20858.29,24.67,-1.00,-1.0,2444
3434,2138434,10764,-2520,-2028,11239.52,24.53,-1.00,-1.0,2368
3437,2138437,28516,1208,2260,28630.91,24.58,-1.00,-1.0,2448
3439,2138439,4368,72,-912,4462.77,24.67,-1.00,-1.0,2367
3442,2138442,22944,1020,-292,22968.52,24.58,-1.00,-1.0,2440
3445,2138445,15332,-3020,-544,15636.07,24.62,-1.00,-1.0,2366
3448,2138448,15920,-2172,-348,16071.25,24.58,-1.00,-1.0,2444
3450,2138450,23164,-552,1172,23200.20,24.62,-1.00,-1.0,2367
3455,2138455,25956,2040,40,26036.07,24.62,-1.00,-1.0,2442
3458,2138458,20656,576,1928,20753.78,24.62,-1.00,-1.0,2371
3461,2138461,10652,-1644,1852,10936.08,24.62,-1.00,-1.0,2437
3464,2138464,25392,-600,3168,25595.90,24.62,-1.00,-1.0,2368
3466,2138466,10188,-1592,-924,10352.95,24.67,-1.00,-1.0,2349
3469,2138469,21712,420,-1344,21757.61,24.58,-1.00,-1.0,2436
3472,2138472,15972,-1212,-1604,16098.03,24.62,-1.00,-1.0,2368
3474,2138474,15240,-248,256,15244.17,24.67,-1.00,-1.0,2437
3477,2138477,25716,-340,3608,25970.10,24.62,-1.00,-1.0,2366
3482,2138482,17392,-560,-320,17403.96,24.62,-1.00,-1.0,2452
3485,2138485,19668,744,1104,19713.01,24.72,-1.00,-1.0,2369
3488,2138488,11288,1104,1696,11467.96,24.62,-1.00,-1.0,2446
3490,2138490,23320,-664,3528,23594.71,24.62,-1.00,-1.0,2373
3493,2138493,12376,-3040,636,12759.76,24.62,-1.00,-1.0,2439
3496,2138496,19564,-1120,-1720,19671.37,24.72,-1.00,-1.0,2370
3499,2138499,18808,916,-716,18843.90,24.72,-1.00,-1.0,2447
3501,2138501,12560,784,-900,12616.59,24.62,-1.00,-1.0,2374
3506,2138506,10864,-4588,-112,11793.59,24.62,-1.00,-1.0,2451
3509,2138509,13788,-1444,1000,13899.43,24.62,-1.00,-1.0,2368
3512,2138512,23536,1148,1636,23620.71,24.72,-1.00,-1.0,2447
3514,2138514,7576,1740,1108,7851.82,24.58,-1.00,-1.0,2365
3517,2138517,23060,564,-428,23070.87,24.53,-1.00,-1.0,2361
3520,2138520,14528,-3468,-884,14962.33,24.67,-1.00,-1.0,2439
3523,2138523,17576,-980,-176,17604.18,24.62,-1.00,-1.0,2373
3525,2138525,20588,1060,1676,20683.29,24.67,-1.00,-1.0,2440
3528,2138528,7804,-592,-744,7861.71,24.58,-1.00,-1.0,2365
3533,2138533,18448,-1532,-20,18511.51,24.67,-1.00,-1.0,2444
3536,2138536,13512,156,660,13529.01,24.67,-1.00,-1.0,2369
3538,2138538,23732,648,3344,23975.20,24.58,-1.00,-1.0,2438
3541,2138541,9888,-2188,-916,10168.53,24.67,-1.00,-1.0,2365
3544,2138544,21636,-620,-664,21655.06,24.58,-1.00,-1.0,2439
3547,2138547,16596,-1000,-452,16632.24,24.67,-1.00,-1.0,2370
3549,2138549,16036,-740,-1288,16104.65,24.58,-1.00,-1.0,2437
3552,2138552,23512,372,3772,23815.55,24.58,-1.00,-1.0,2365
3555,2138555,9976,-1456,112,10082.31,24.67,-1.00,-1.0,2361
3560,2138560,20756,-428,1056,20787.25,24.72,-1.00,-1.0,2443
3563,2138563,11952,-740,1436,12060.68,24.67,-1.00,-1.0,2369
3565,2138565,23956,108,2700,24107.92,24.62,-1.00,-1.0,2438
3568,2138568,11700,-1152,-1584,11862.81,24.67,-1.00,-1.0,2365
3571,2138571,19048,1700,260,19125.48,24.62,-1.00,-1.0,2439
3574,2138574,17916,-2084,388,18040.97,24.67,-1.00,-1.0,2366
3576,2138576,14092,-2524,48,14316.33,24.67,-1.00,-1.0,2438
3579,2138579,24456,460,1628,24514.44,24.72,-1.00,-1.0,2365
3584,2138584,15100,2304,-2144,15424.50,24.67,-1.00,-1.0,2430
3587,2138587,22036,-756,996,22071.45,24.58,-1.00,-1.0,2371
3590,2138590,10752,-3648,1684,11478.21,24.72,-1.00,-1.0,2444
3592,2138592,25820,-1156,2664,25982.79,24.58,-1.00,-1.0,2367
3595,2138595,6524,2308,-556,6942.52,24.53,-1.00,-1.0,2437
3598,2138598,20848,3244,-2212,21214.51,24.67,-1.00,-1.0,2369
3601,2138601,17048,-2300,-216,17203.81,24.62,-1.00,-1.0,2435
3603,2138603,14956,-4544,1404,15693.98,24.67,-1.00,-1.0,2367
3606,2138606,22996,-820,2400,23135.44,24.62,-1.00,-1.0,2362
3611,2138611,23260,3308,-636,23502.66,24.62,-1.00,-1.0,2444
3614,2138614,21124,528,1080,21158.18,24.62,-1.00,-1.0,2369
3617,2138617,11076,-3160,2068,11702.14,24.62,-1.00,-1.0,2443
3619,2138619,25648,-1572,4064,26015.52,24.58,-1.00,-1.0,2365
3622,2138622,6528,1092,184,6621.26,24.62,-1.00,-1.0,2438
3625,2138625,21496,2732,-1372,21712.31,24.67,-1.00,-1.0,2366
3628,2138628,16560,-1092,-1832,16696.78,24.62,-1.00,-1.0,2445
3630,2138630,13964,-1580,976,14086.95,24.67,-1.00,-1.0,2365
3635,2138635,6972,-2000,-44,7253.32,24.58,-1.00,-1.0,2451
3638,2138638,16804,416,-1036,16841.04,24.67,-1.00,-1.0,2371
3641,2138641,21408,800,-1116,21451.99,24.62,-1.00,-1.0,2438
3644,2138644,9984,552,-136,10000.17,24.67,-1.00,-1.0,2373
3646,2138646,26656,-552,4372,27017.80,24.77,-1.00,-1.0,2426
3649,2138649,9164,-3824,400,9937.90,24.58,-1.00,-1.0,2380
3652,2138652,23748,-424,1364,23790.92,24.72,-1.00,-1.0,2362
3654,2138654,13752,508,-2220,13939.30,24.62,-1.00,-1.0,2438
3657,2138657,16240,1748,-1268,16382.95,24.67,-1.00,-1.0,2371
3662,2138662,7076,-4616,1944,8669.28,24.58,-1.00,-1.0,2444
3665,2138665,18968,-2800,372,19177.16,24.62,-1.00,-1.0,2368
3668,2138668,19484,1096,-732,19528.53,24.67,-1.00,-1.0,2445
3670,2138670,11472,2760,-2540,12069.63,24.62,-1.00,-1.0,2367
3673,2138673,25688,648,3532,25937.78,24.58,-1.00,-1.0,2445
3676,2138676,9192,-4880,700,10430.59,24.62,-1.00,-1.0,2365
3679,2138679,22392,-1948,3152,22696.51,24.67,-1.00,-1.0,2446
3681,2138681,14468,408,-2248,14647.29,24.62,-1.00,-1.0,2365
3686,2138686,28352,1956,4168,28723.41,24.62,-1.00,-1.0,2442
3689,2138689,4264,-4580,2284,6661.44,24.62,-1.00,-1.0,2368
3692,2138692,19732,-2780,1360,19973.23,24.58,-1.00,-1.0,2438
3695,2138695,19172,-108,-524,19179.46,24.62,-1.00,-1.0,2366
3697,2138697,11076,1860,-2544,11515.61,24.58,-1.00,-1.0,2364
3700,2138700,29348,2756,3136,29643.47,24.67,-1.00,-1.0,2437
3703,2138703,5824,-3252,580,6695.59,24.67,-1.00,-1.0,2373
3706,2138706,25168,-1400,3864,25501.35,24.58,-1.00,-1.0,2438
3708,2138708,11604,-1448,-888,11727.66,24.58,-1.00,-1.0,2372
3713,2138713,28136,1408,2548,28286.20,24.67,-1.00,-1.0,2451
3716,2138716,4740,-2320,708,5324.59,24.62,-1.00,-1.0,2382
3719,2138719,22532,-1624,1416,22634.79,24.62,-1.00,-1.0,2441
3722,2138722,15628,-1540,-524,15712.43,24.62,-1.00,-1.0,2376
3724,2138724,14660,1044,-1104,14738.53,24.72,-1.00,-1.0,2427
3727,2138727,22652,-124,416,22656.16,24.62,-1.00,-1.0,2381
3730,2138730,5484,-1472,516,5701.52,24.62,-1.00,-1.0,2439
3733,2138733,27044,-264,3704,27297.75,24.62,-1.00,-1.0,2370
3737,2138737,11124,444,-632,11150.78,24.62,-1.00,-1.0,2446
3740,2138740,25788,456,992,25811.10,24.53,-1.00,-1.0,2370
3743,2138743,6080,-1468,-160,6256.76,24.58,-1.00,-1.0,2362
3745,2138745,25168,76,3252,25377.34,24.67,-1.00,-1.0,2425
3748,2138748,11228,-1996,12,11404.04,24.62,-1.00,-1.0,2367
3751,2138751,10092,-432,-1324,10187.64,24.67,-1.00,-1.0,2436
3754,2138754,26280,1420,2236,26413.15,24.62,-1.00,-1.0,2365
3756,2138756,6328,-1320,-876,6523.29,24.67,-1.00,-1.0,2438
3759,2138759,28644,-680,2992,28807.87,24.62,-1.00,-1.0,2367
3764,2138764,16108,80,-528,16116.85,24.67,-1.00,-1.0,2445
3767,2138767,27104,2568,2712,27360.12,24.67,-1.00,-1.0,2368
3770,2138770,6780,-756,-824,6871.60,24.58,-1.00,-1.0,2441
3772,2138772,26204,-1020,3012,26396.25,24.67,-1.00,-1.0,2366
3775,2138775,9332,-2244,868,9637.18,24.67,-1.00,-1.0,2442
3778,2138778,14400,-884,-1136,14471.76,24.67,-1.00,-1.0,2365
3781,2138781,22148,1336,-352,22191.05,24.67,-1.00,-1.0,2446
3783,2138783,10832,-412,-1276,10914.68,24.67,-1.00,-1.0,2366
3786,2138786,25928,-1372,2780,26112.68,24.67,-1.00,-1.0,2361
3791,2138791,20256,172,556,20264.36,24.58,-1.00,-1.0,2442
3794,2138794,16340,124,-1392,16399.65,24.48,-1.00,-1.0,2367
3797,2138797,8624,-352,-1208,8715.30,24.67,-1.00,-1.0,2425
3800,2138800,25852,-1004,2748,26017.02,24.62,-1.00,-1.0,2367
3802,2138802,8860,-2256,132,9143.66,24.67,-1.00,-1.0,2437
3805,2138805,24500,948,1444,24560.82,24.62,-1.00,-1.0,2368
3808,2138808,17976,1256,24,18019.84,24.67,-1.00,-1.0,2440
3811,2138811,14024,36,-1020,14061.09,24.62,-1.00,-1.0,2371
3816,2138816,9504,-2884,1040,9986.24,24.72,-1.00,-1.0,2450
3818,2138818,22896,-348,924,22917.28,24.72,-1.00,-1.0,2372
3821,2138821,12604,1404,124,12682.56,24.53,-1.00,-1.0,2434
3824,2138824,13820,48,-1760,13931.70,24.72,-1.00,-1.0,2372
3826,2138826,21972,-1020,2088,22094.54,24.77,-1.00,-1.0,2369
3829,2138829,12156,-2360,208,12384.72,24.58,-1.00,-1.0,2438
3832,2138832,21084,-812,1624,21162.04,24.58,-1.00,-1.0,2366
3835,2138835,13556,756,328,13581.03,24.67,-1.00,-1.0,2446
3837,2138837,18368,420,-116,18373.17,24.62,-1.00,-1.0,2352
3843,2138843,11620,-2148,376,11822.85,24.67,-1.00,-1.0,2443
3845,2138845,22508,36,1960,22593.21,24.67,-1.00,-1.0,2376
3848,2138848,11984,536,-168,11997.16,24.67,-1.00,-1.0,2439
3851,2138851,17392,276,-92,17394.43,24.58,-1.00,-1.0,2367
3854,2138854,17672,-1572,796,17759.63,24.67,-1.00,-1.0,2432
3856,2138856,15020,-1580,496,15111.02,24.67,-1.00,-1.0,2373
3859,2138859,20456,-444,608,20469.85,24.67,-1.00,-1.0,2439
3862,2138862,12124,424,-12,12131.42,24.67,-1.00,-1.0,2366
3864,2138864,20952,916,1912,21058.99,24.72,-1.00,-1.0,2361
3869,2138869,15772,-1584,1024,15884.38,24.62,-1.00,-1.0,2443
3872,2138872,19428,-1156,1144,19495.96,24.58,-1.00,-1.0,2368
3875,2138875,13700,800,-128,13723.93,24.62,-1.00,-1.0,2437
3878,2138878,21160,928,848,21197.31,24.58,-1.00,-1.0,2366
3880,2138880,13384,-620,896,13428.28,24.72,-1.00,-1.0,2438
3883,2138883,19836,-1236,2360,20014.10,24.58,-1.00,-1.0,2366
3886,2138886,14876,-1076,364,14919.30,24.62,-1.00,-1.0,2437
3889,2138889,14496,488,-40,14504.27,24.58,-1.00,-1.0,2365
3894,2138894,13172,-272,904,13205.79,24.67,-1.00,-1.0,2446
3896,2138896,20804,-1224,2592,21000.55,24.58,-1.00,-1.0,2378
3899,2138899,13296,-1460,-84,13376.18,24.58,-1.00,-1.0,2446
3902,2138902,16336,704,-112,16351.55,24.58,-1.00,-1.0,2353
3905,2138905,18436,248,280,18439.79,24.67,-1.00,-1.0,2452
3907,2138907,14904,-1196,128,14952.46,24.58,-1.00,-1.0,2376
3910,2138910,21888,-1816,1492,22013.82,24.67,-1.00,-1.0,2363
3913,2138913,13176,-1440,536,13265.29,24.62,-1.00,-1.0,2436
3916,2138916,20760,980,1024,20808.33,24.67,-1.00,-1.0,2372
3921,2138921,16340,-624,-48,16351.98,24.67,-1.00,-1.0,2443
3923,2138923,18176,-2420,1308,18382.99,24.62,-1.00,-1.0,2371
3926,2138926,15820,-1152,-580,15872.49,24.67,-1.00,-1.0,2453
3929,2138929,21536,672,1244,21582.36,24.62,-1.00,-1.0,2372
3932,2138932,12200,616,-264,12218.39,24.67,-1.00,-1.0,2438
3934,2138934,21668,-536,1428,21721.62,24.62,-1.00,-1.0,2368
3937,2138937,12388,-2628,1288,12729.02,24.67,-1.00,-1.0,2438
3940,2138940,16556,-1696,-376,16646.89,24.72,-1.00,-1.0,2371
3945,2138945,11268,612,-568,11298.89,24.67,-1.00,-1.0,2443
3947,2138947,22780,668,1312,22827.53,24.67,-1.00,-1.0,2369
3950,2138950,11132,-2556,312,11425.93,24.67,-1.00,-1.0,2454
3953,2138953,17020,-1776,1248,17157.86,24.77,-1.00,-1.0,2366
3955,2138955,17924,-984,204,17952.15,24.58,-1.00,-1.0,2369
3958,2138958,14472,1532,-868,14578.73,24.58,-1.00,-1.0,2445
3961,2138961,23352,1252,1264,23419.67,24.58,-1.00,-1.0,2371
3964,2138964,10296,-2252,836,10572.51,24.62,-1.00,-1.0,2439
3967,2138967,24008,-1220,2996,24224.96,24.62,-1.00,-1.0,2365
3971,2138971,15664,2176,-796,15834.44,24.62,-1.00,-1.0,2443
3974,2138974,19760,704,740,19786.38,24.62,-1.00,-1.0,2369
3977,2138977,13344,-3212,-716,13743.80,24.62,-1.00,-1.0,2438
3980,2138980,24680,-1916,3612,25016.39,24.62,-1.00,-1.0,2365
3982,2138982,9108,-808,1108,9210.66,24.72,-1.00,-1.0,2438
3985,2138985,22276,2588,1268,22461.65,24.58,-1.00,-1.0,2368
3988,2138988,12232,-236,1092,12282.91,24.53,-1.00,-1.0,2437
3991,2138991,14964,-2272,368,15139.97,24.62,-1.00,-1.0,2365
3996,2138996,9848,-736,1444,9980.48,24.72,-1.00,-1.0,2448
3998,2138998,22988,2736,1860,23224.85,24.62,-1.00,-1.0,2376
4001,2139001,10124,432,884,10171.70,24.62,-1.00,-1.0,2362
4004,2139004,16796,-1496,-356,16866.25,24.67,-1.00,-1.0,2443
4006,2139006,18924,-2800,2240,19260.72,24.62,-1.00,-1.0,2368
4009,2139009,14516,-752,-1548,14617.66,24.67,-1.00,-1.0,2438
4012,2139012,20908,1828,-388,20991.35,24.62,-1.00,-1.0,2369
4015,2139015,10052,596,8,10069.66,24.67,-1.00,-1.0,2442
4018,2139018,23220,-1852,1252,23327.36,24.72,-1.00,-1.0,2365
4025,2139025,19924,1540,-848,20001.41,24.62,-1.00,-1.0,2450
4028,2139028,14536,1160,-312,14585.55,24.67,-1.00,-1.0,2383
4031,2139031,20180,-2588,1832,20427.59,24.53,-1.00,-1.0,2439
4034,2139034,13092,-3068,896,13476.49,24.53,-1.00,-1.0,2374
4036,2139036,21768,-272,1356,21811.89,24.53,-1.00,-1.0,2441
4039,2139039,10984,1872,1152,11201.77,24.62,-1.00,-1.0,2380
4042,2139042,20980,40,356,20983.06,24.72,-1.00,-1.0,2441
4045,2139045,18852,-1436,2384,19056.32,24.72,-1.00,-1.0,2374
4050,2139050,22596,92,2208,22703.81,24.72,-1.00,-1.0,2444
4052,2139052,11688,1404,340,11776.93,24.58,-1.00,-1.0,2369
4055,2139055,20748,488,1076,20781.61,24.72,-1.00,-1.0,2367
4058,2139058,17884,-1572,1028,17982.36,24.58,-1.00,-1.0,2446
4060,2139060,16212,-1304,900,16289.24,24.62,-1.00,-1.0,2375
4063,2139063,19016,-224,984,19042.76,24.58,-1.00,-1.0,2446
4066,2139066,14012,84,-1228,14065.96,24.62,-1.00,-1.0,2353
4069,2139069,22152,640,2196,22269.78,24.62,-1.00,-1.0,2452
4071,2139071,11488,-1920,724,11669.82,24.62,-1.00,-1.0,2376
4076,2139076,17520,304,1424,17580.40,24.62,-1.00,-1.0,2442
4079,2139079,15216,-668,-948,15260.13,24.58,-1.00,-1.0,2368
4082,2139082,19876,-964,1544,19959.17,24.53,-1.00,-1.0,2445
4084,2139084,10100,-1492,20,10209.63,24.72,-1.00,-1.0,2365
4087,2139087,23784,932,1616,23857.05,24.62,-1.00,-1.0,2452
4090,2139090,9832,332,1324,9926.30,24.67,-1.00,-1.0,2365
4093,2139093,17332,-672,-192,17346.09,24.62,-1.00,-1.0,2365
4095,2139095,19676,-2392,1116,19852.26,24.67,-1.00,-1.0,2446
4098,2139098,14132,-580,560,14154.98,24.62,-1.00,-1.0,2381
4103,2139103,8136,1280,-184,8238.13,24.53,-1.00,-1.0,2449
4106,2139106,25852,60,1800,25914.66,24.62,-1.00,-1.0,2376
4109,2139109,16764,-2904,1976,17128.03,24.67,-1.00,-1.0,2449
4111,2139111,15828,-2072,592,15974.02,24.53,-1.00,-1.0,2372
4114,2139114,21008,-32,-992,21031.43,24.58,-1.00,-1.0,2452
4117,2139117,10832,2592,-404,11145.13,24.62,-1.00,-1.0,2372
4120,2139120,26848,708,1104,26880.01,24.67,-1.00,-1.0,2448
4122,2139122,7908,-2876,2456,8765.83,24.72,-1.00,-1.0,2368
4127,2139127,19768,296,520,19777.05,24.62,-1.00,-1.0,2443
4130,2139130,11956,3644,-384,12504.88,24.67,-1.00,-1.0,2367
4133,2139133,26480,1832,620,26550.54,24.53,-1.00,-1.0,2365
4135,2139135,8148,-2972,2432,9007.62,24.67,-1.00,-1.0,2448
4138,2139138,25592,-3460,2372,25933.54,24.58,-1.00,-1.0,2419
4141,2139141,8916,184,-1044,8978.80,24.72,-1.00,-1.0,2431
4144,2139144,22456,3840,-656,22791.40,24.53,-1.00,-1.0,2372
4147,2139147,21748,408,-120,21752.16,24.62,-1.00,-1.0,2431
4149,2139149,11436,-3888,1360,12155.17,24.53,-1.00,-1.0,2374
4155,2139155,9184,1852,-320,9374.33,24.62,-1.00,-1.0,2449
4157,2139157,22352,3680,-664,22662.64,24.72,-1.00,-1.0,2369
4160,2139160,12348,68,-392,12354.41,24.67,-1.00,-1.0,2442
4163,2139163,20424,-3228,1620,20740.88,24.53,-1.00,-1.0,2367
4166,2139166,15460,-2720,2688,15925.93,24.67,-1.00,-1.0,2441
4168,2139168,10972,-528,-1560,11094.92,24.62,-1.00,-1.0,2367
4171,2139171,23772,3096,436,23976.72,24.62,-1.00,-1.0,2435
4174,2139174,9992,-496,-872,10042.23,24.62,-1.00,-1.0,2368
4176,2139176,20916,-1712,1928,21074.33,24.67,-1.00,-1.0,2362
4181,2139181,11516,-772,136,11542.65,24.77,-1.00,-1.0,2441
4184,2139184,23900,3232,1096,24142.43,24.58,-1.00,-1.0,2374
4187,2139187,10284,-208,-1084,10343.06,24.67,-1.00,-1.0,2435
4190,2139190,21528,-1120,2308,21680.31,24.58,-1.00,-1.0,2372
4192,2139192,13840,-3340,2348,14429.63,24.62,-1.00,-1.0,2439
4195,2139195,18500,-364,-660,18515.35,24.67,-1.00,-1.0,2376
4198,2139198,15684,1636,-220,15770.63,24.67,-1.00,-1.0,2435
4201,2139201,11372,312,-1212,11440.66,24.58,-1.00,-1.0,2371
4206,2139206,12856,-3020,948,13239.93,24.67,-1.00,-1.0,2443
4208,2139208,20424,108,940,20445.90,24.67,-1.00,-1.0,2373
4211,2139211,14556,1736,1008,14693.77,24.58,-1.00,-1.0,2449
4214,2139214,17628,508,-176,17636.20,24.58,-1.00,-1.0,2373
4217,2139217,23352,-1264,1808,23455.97,24.67,-1.00,-1.0,2445
4219,2139219,10864,-2564,840,11194.02,24.67,-1.00,-1.0,2372
4222,2139222,23452,16,880,23468.51,24.58,-1.00,-1.0,2365
4225,2139225,10388,884,-584,10441.89,24.53,-1.00,-1.0,2431
4227,2139227,19104,564,-368,19115.87,24.48,-1.00,-1.0,2377
4232,2139232,11056,-2156,616,11281.09,24.58,-1.00,-1.0,2447
4235,2139235,23552,-644,-456,23565.21,24.58,-1.00,-1.0,2378
4238,2139238,11320,-48,-1620,11435.43,24.77,-1.00,-1.0,2422
4240,2139240,19600,620,656,19620.77,24.67,-1.00,-1.0,2368
4243,2139243,14744,-1348,1344,14866.37,24.67,-1.00,-1.0,2447
4246,2139246,18308,-792,616,18335.47,24.67,-1.00,-1.0,2368
4249,2139249,17792,-1464,-48,17852.20,24.77,-1.00,-1.0,2443
4251,2139251,11648,184,452,11658.22,24.58,-1.00,-1.0,2369
4256,2139256,15088,-1024,2172,15277.89,24.67,-1.00,-1.0,2438
4259,2139259,17476,-2128,-252,17606.89,24.62,-1.00,-1.0,2357
4262,2139262,18492,-204,-176,18493.96,24.48,-1.00,-1.0,2434
4265,2139265,14728,2212,732,14911.16,24.62,-1.00,-1.0,2369
4267,2139267,22560,-68,68,22560.21,24.67,-1.00,-1.0,2365
4270,2139270,12240,-2124,616,12438.18,24.67,-1.00,-1.0,2434
4273,2139273,22260,-1252,2348,22418.48,24.77,-1.00,-1.0,2376
4276,2139276,17420,-912,-500,17451.02,24.58,-1.00,-1.0,2434
4278,2139278,15056,2680,1088,15331.32,24.58,-1.00,-1.0,2369
4283,2139283,11412,-2208,1624,11736.54,24.53,-1.00,-1.0,2434
4286,2139286,22196,-1096,1476,22272.01,24.62,-1.00,-1.0,2374
4289,2139289,12452,1116,-1220,12561.30,24.62,-1.00,-1.0,2436
4292,2139292,20588,740,-1388,20648.00,24.72,-1.00,-1.0,2373
4294,2139294,20576,-1164,2140,20719.71,24.53,-1.00,-1.0,2437
4297,2139297,11500,-3024,2268,12105.30,24.62,-1.00,-1.0,2376
4300,2139300,23512,-372,948,23534.04,24.62,-1.00,-1.0,2435
4303,2139303,10828,1576,-1120,10999.26,24.53,-1.00,-1.0,2370
4308,2139308,14964,-2600,60,15188.31,24.72,-1.00,-1.0,2441
4310,2139310,12864,-2880,2824,13481.54,24.67,-1.00,-1.0,2373
4313,2139313,22672,-3184,352,22897.19,24.62,-1.00,-1.0,2449
4316,2139316,11512,1820,-40,11655.05,24.58,-1.00,-1.0,2376
4318,2139318,20116,2960,-1560,20392.37,24.62,-1.00,-1.0,2369
4321,2139321,14684,-284,-628,14700.17,24.62,-1.00,-1.0,2442
4324,2139324,18536,-2760,2076,18854.99,24.62,-1.00,-1.0,2372
4327,2139327,18072,-3316,2084,18491.51,24.62,-1.00,-1.0,2444
4329,2139329,12208,-44,192,12209.59,24.62,-1.00,-1.0,2378
4334,2139334,15252,624,-1724,15361.80,24.62,-1.00,-1.0,2442
4337,2139337,17656,-2072,2240,17917.73,24.58,-1.00,-1.0,2371
4340,2139340,18748,-4272,2072,19339.87,24.62,-1.00,-1.0,2442
4342,2139342,11760,-972,832,11829.40,24.67,-1.00,-1.0,2368
4345,2139345,21296,4088,844,21701.24,24.62,-1.00,-1.0,2442
4348,2139348,12004,832,-240,12035.19,24.58,-1.00,-1.0,2369
4351,2139351,20360,-4332,2368,20950.02,24.62,-1.00,-1.0,2441
4353,2139353,19968,-5192,1576,20692.07,24.67,-1.00,-1.0,2354
4358,2139358,22440,3056,-2092,22743.55,24.62,-1.00,-1.0,2445
4361,2139361,11948,1772,-756,12102.32,24.67,-1.00,-1.0,2371
4364,2139364,20240,-2568,3084,20634.03,24.62,-1.00,-1.0,2441
4366,2139366,19796,-5300,1412,20541.79,24.67,-1.00,-1.0,2367
4369,2139369,14068,472,3592,14527.00,24.62,-1.00,-1.0,2368
4372,2139372,20332,1604,-1060,20422.70,24.67,-1.00,-1.0,2437
4374,2139374,12788,896,-1544,12912.00,24.62,-1.00,-1.0,2369
4377,2139377,20188,-100,2740,20373.34,24.72,-1.00,-1.0,2447
4380,2139380,13540,-3000,1404,13939.25,24.62,-1.00,-1.0,2368
4385,2139385,20764,-424,-128,20768.72,24.67,-1.00,-1.0,2449
4388,2139388,12712,280,-1412,12793.24,24.62,-1.00,-1.0,2377
4390,2139390,19832,1132,2220,19987.95,24.67,-1.00,-1.0,2443
4393,2139393,14372,-1588,668,14474.89,24.62,-1.00,-1.0,2383
4396,2139396,18904,-1872,848,19015.38,24.58,-1.00,-1.0,2438
4399,2139399,16304,676,2036,16444.53,24.53,-1.00,-1.0,2372
4401,2139401,12096,608,-272,12114.33,24.67,-1.00,-1.0,2443
4404,2139404,20976,700,1252,21024.99,24.62,-1.00,-1.0,2376
4409,2139409,19300,-1948,1492,19455.35,24.62,-1.00,-1.0,2441
4412,2139412,15900,-328,-580,15913.96,24.62,-1.00,-1.0,2379
4414,2139414,12916,2476,2628,13411.19,24.58,-1.00,-1.0,2370
4417,2139417,20420,-468,244,20426.82,24.58,-1.00,-1.0,2442
4420,2139420,13368,-3072,308,13719.89,24.58,-1.00,-1.0,2376
4423,2139423,20968,332,3648,21285.56,24.58,-1.00,-1.0,2444
4425,2139425,15392,-372,-2092,15537.97,24.67,-1.00,-1.0,2376
4428,2139428,18588,1772,392,18676.39,24.67,-1.00,-1.0,2442
4431,2139431,17624,-1012,2440,17820.86,24.77,-1.00,-1.0,2372
4436,2139436,22544,604,2200,22659.14,24.53,-1.00,-1.0,2449
4438,2139438,10268,380,-32,10275.08,24.72,-1.00,-1.0,2370
4441,2139441,19484,360,-1484,19543.75,24.58,-1.00,-1.0,2442
4444,2139444,17000,-1300,2704,17262.72,24.62,-1.00,-1.0,2368
4447,2139447,15892,-1952,492,16018.99,24.67,-1.00,-1.0,2440
4449,2139449,19644,-660,-1304,19698.29,24.62,-1.00,-1.0,2354
4452,2139452,9924,1636,2292,10315.79,24.62,-1.00,-1.0,2437
4455,2139455,21924,-280,388,21929.22,24.62,-1.00,-1.0,2369
4457,2139457,11408,-2660,148,11714.95,24.67,-1.00,-1.0,2362
4462,2139462,17376,-636,972,17414.78,24.62,-1.00,-1.0,2439
4465,2139465,10848,1148,60,10908.74,24.72,-1.00,-1.0,2371
4468,2139468,22964,1268,2240,23107.81,24.62,-1.00,-1.0,2434
4471,2139471,9304,-2416,1488,9727.06,24.67,-1.00,-1.0,2369
4473,2139473,24124,-2280,-264,24232.94,24.62,-1.00,-1.0,2423
4476,2139476,17456,-604,2304,17617.75,24.72,-1.00,-1.0,2369
4479,2139479,13212,892,-1388,13314.62,24.72,-1.00,-1.0,2437
4482,2139482,22472,-120,-776,22485.71,24.58,-1.00,-1.0,2368
4487,2139487,21908,-3208,92,22141.82,24.67,-1.00,-1.0,2445
4489,2139489,19188,-684,2336,19341.77,24.58,-1.00,-1.0,2381
4492,2139492,13264,1496,268,13350.79,24.62,-1.00,-1.0,2441
4495,2139495,21408,-428,-1420,21459.31,24.67,-1.00,-1.0,2371
4498,2139498,11672,-1028,2232,11927.88,24.58,-1.00,-1.0,2447
4500,2139500,23488,-1864,2228,23666.95,24.53,-1.00,-1.0,2425
4503,2139503,13580,-1132,-88,13627.38,24.62,-1.00,-1.0,2371
4506,2139506,19244,2264,1180,19412.62,24.62,-1.00,-1.0,2426
4509,2139509,16420,-60,-92,16420.37,24.67,-1.00,-1.0,2373
4514,2139514,24112,-2136,2512,24336.42,24.58,-1.00,-1.0,2444
4516,2139516,13520,-1904,-512,13663.01,24.67,-1.00,-1.0,2375
4519,2139519,20040,1704,-1564,20173.04,24.72,-1.00,-1.0,2443
4522,2139522,16172,360,-452,16182.32,24.67,-1.00,-1.0,2374
4525,2139525,16448,-1936,2308,16721.59,24.67,-1.00,-1.0,2447
4527,2139527,24088,-2936,3160,24471.15,24.67,-1.00,-1.0,2375
4530,2139530,10240,-44,2948,10656.00,24.62,-1.00,-1.0,2442
4533,2139533,21568,1804,-1916,21727.96,24.67,-1.00,-1.0,2374
4538,2139538,16100,-1400,2300,16323.60,24.58,-1.00,-1.0,2446
4540,2139540,19244,-5156,1644,19990.46,24.58,-1.00,-1.0,2369
4543,2139543,13408,-84,284,13411.27,24.53,-1.00,-1.0,2447
4546,2139546,21800,2564,-672,21960.55,24.58,-1.00,-1.0,2366
4549,2139549,11860,1260,-1308,11998.25,24.62,-1.00,-1.0,2440
4551,2139551,20264,-1920,3192,20603.52,24.58,-1.00,-1.0,2367
4554,2139554,20628,-5320,1088,21330.74,24.72,-1.00,-1.0,2375
4557,2139557,12520,-668,1428,12618.87,24.62,-1.00,-1.0,2436
4560,2139560,21536,3596,20,21834.17,24.58,-1.00,-1.0,2373
4564,2139564,20452,-1504,2336,20639.85,24.62,-1.00,-1.0,2427
4567,2139567,19768,-5020,1836,20477.92,24.72,-1.00,-1.0,2377
4570,2139570,13460,-1808,708,13599.33,24.62,-1.00,-1.0,2432
4573,2139573,21648,2972,-1264,21887.59,24.62,-1.00,-1.0,2370
4575,2139575,11748,1848,-444,11900.75,24.62,-1.00,-1.0,2435
4578,2139578,20060,-1784,684,20150.79,24.72,-1.00,-1.0,2375
4581,2139581,16456,-5596,1740,17468.34,24.62,-1.00,-1.0,2434
4584,2139584,16644,1152,2696,16900.24,24.62,-1.00,-1.0,2371
4588,2139588,10480,2560,220,10790.38,24.58,-1.00,-1.0,2439
4591,2139591,19880,-1636,-212,19948.33,24.62,-1.00,-1.0,2373
4594,2139594,16500,-5196,1320,17349.09,24.67,-1.00,-1.0,2419
4597,2139597,16888,360,2132,17025.85,24.62,-1.00,-1.0,2370
4599,2139599,18344,2088,-1924,18562.43,24.58,-1.00,-1.0,2435
4602,2139602,10980,2416,-264,11245.76,24.62,-1.00,-1.0,2375
4605,2139605,22852,-1788,2328,23039.76,24.67,-1.00,-1.0,2362
4607,2139607,11396,-3588,2088,12128.57,24.58,-1.00,-1.0,2420
4610,2139610,17512,-1160,800,17568.60,24.67,-1.00,-1.0,2367
4615,2139615,10660,2632,460,10989.75,24.67,-1.00,-1.0,2444
4618,2139618,23004,-384,1028,23030.16,24.62,-1.00,-1.0,2369
4621,2139621,10964,-2948,1404,11439.90,24.58,-1.00,-1.0,2431
4623,2139623,23460,-2304,92,23573.04,24.62,-1.00,-1.0,2378
4626,2139626,17636,-408,424,17645.81,24.67,-1.00,-1.0,2434
4629,2139629,14056,2796,876,14358.14,24.62,-1.00,-1.0,2369
4632,2139632,21240,-1328,-2084,21383.27,24.67,-1.00,-1.0,2443
4634,2139634,12624,-3008,2036,13136.16,24.62,-1.00,-1.0,2375
4639,2139639,14292,112,-1060,14331.69,24.72,-1.00,-1.0,2448
4642,2139642,13256,2700,-260,13530.67,24.62,-1.00,-1.0,2377
4645,2139645,20888,-220,-96,20889.38,24.53,-1.00,-1.0,2422
4647,2139647,12408,-2720,2948,13040.23,24.72,-1.00,-1.0,2367
4650,2139650,22024,-2568,2080,22270.55,24.58,-1.00,-1.0,2447
4653,2139653,15400,0,-640,15413.29,24.62,-1.00,-1.0,2367
4656,2139656,16916,4640,1052,17572.35,24.67,-1.00,-1.0,2363
4658,2139658,18464,-1124,-308,18500.74,24.67,-1.00,-1.0,2424
4661,2139661,12152,-2936,2224,12697.93,24.62,-1.00,-1.0,2382
4666,2139666,17052,-368,440,17061.64,24.72,-1.00,-1.0,2445
4669,2139669,15188,3496,704,15601.06,24.62,-1.00,-1.0,2380
4672,2139672,19692,-404,348,19699.22,24.67,-1.00,-1.0,2446
4674,2139674,12936,-1948,3288,13488.73,24.62,-1.00,-1.0,2370
4677,2139677,21716,-2316,2240,21953.73,24.67,-1.00,-1.0,2446
4680,2139680,12788,436,696,12814.35,24.72,-1.00,-1.0,2376
4683,2139683,18804,2044,-152,18915.38,24.67,-1.00,-1.0,2445
4685,2139685,16564,-1732,-1580,16729.09,24.62,-1.00,-1.0,2370
4690,2139690,22412,-3828,1128,22764.53,24.58,-1.00,-1.0,2438
4693,2139693,11492,1488,1428,11675.59,24.62,-1.00,-1.0,2369
4696,2139696,18088,3144,-1788,18446.07,24.53,-1.00,-1.0,2432
4699,2139699,16988,1456,-1320,17101.30,24.67,-1.00,-1.0,2368
4701,2139701,15652,-3192,3076,16267.63,24.62,-1.00,-1.0,2433
4704,2139704,20264,-5392,2816,21157.34,24.67,-1.00,-1.0,2366
4707,2139707,14892,-324,2848,15165.35,24.62,-1.00,-1.0,2367
4710,2139710,17072,4264,-1676,17676.08,24.58,-1.00,-1.0,2435
4712,2139712,17456,1504,-1996,17634.00,24.72,-1.00,-1.0,2367
4717,2139717,21532,-6540,1804,22575.50,24.53,-1.00,-1.0,2436
4720,2139720,16704,-3092,2676,17197.24,24.67,-1.00,-1.0,2369
4723,2139723,15544,2976,-1868,15936.18,24.62,-1.00,-1.0,2430
4725,2139725,19476,3688,-2448,19972.70,24.67,-1.00,-1.0,2370
4728,2139728,14396,-1468,1400,14538.22,24.62,-1.00,-1.0,2434
4731,2139731,21140,-4416,4404,22040.78,24.67,-1.00,-1.0,2370
4734,2139734,14820,-3604,1204,15299.37,24.72,-1.00,-1.0,2436
4736,2139736,17820,2720,-1080,18058.71,24.67,-1.00,-1.0,2374
4741,2139741,14524,-1352,-988,14620.21,24.67,-1.00,-1.0,2447
4744,2139744,19544,-4300,3288,20279.77,24.67,-1.00,-1.0,2377
4747,2139747,15636,-4364,1696,16321.93,24.67,-1.00,-1.0,2437
4750,2139750,17704,2560,608,17898.46,24.58,-1.00,-1.0,2373
4752,2139752,17096,4104,1520,17647.28,24.67,-1.00,-1.0,2445
4755,2139755,11904,-328,-868,11940.11,24.67,-1.00,-1.0,2373
4758,2139758,23088,-3172,2384,23426.50,24.77,-1.00,-1.0,2423
4760,2139760,12612,-3528,-44,13096.23,24.67,-1.00,-1.0,2367
4763,2139763,14084,2364,2740,14541.50,24.58,-1.00,-1.0,2364
4768,2139768,11332,696,908,11389.61,24.72,-1.00,-1.0,2437
4771,2139771,21320,-2700,2572,21643.65,24.72,-1.00,-1.0,2371
4773,2139773,14308,-2492,168,14524.36,24.62,-1.00,-1.0,2435
4776,2139776,18188,1772,-92,18274.35,24.72,-1.00,-1.0,2362
4779,2139779,21764,1356,-340,21808.85,24.72,-1.00,-1.0,2435
4782,2139782,11196,-1060,1760,11382.95,24.67,-1.00,-1.0,2370
4784,2139784,21868,-1496,1032,21943.39,24.72,-1.00,-1.0,2437
4787,2139787,12936,-556,520,12958.38,24.72,-1.00,-1.0,2376
4792,2139792,22704,-248,244,22706.67,24.72,-1.00,-1.0,2437
4795,2139795,12000,-1036,-600,12059.57,24.62,-1.00,-1.0,2370
4797,2139797,21300,332,28,21302.61,24.72,-1.00,-1.0,2435
4800,2139800,14492,-528,1916,14627.64,24.72,-1.00,-1.0,2371
4803,2139803,13912,-2524,888,14166.96,24.72,-1.00,-1.0,2432
4806,2139806,21256,-948,1864,21358.62,24.62,-1.00,-1.0,2368
4808,2139808,12884,1432,104,12963.75,24.62,-1.00,-1.0,2360
4811,2139811,18044,2860,-40,18269.29,24.67,-1.00,-1.0,2433
4814,2139814,16828,-404,1324,16884.84,24.62,-1.00,-1.0,2367
4819,2139819,22196,-2948,1876,22469.37,24.62,-1.00,-1.0,2442
4821,2139821,12684,544,-1368,12769.15,24.62,-1.00,-1.0,2379
4824,2139824,19752,4328,564,20228.47,24.62,-1.00,-1.0,2433
4827,2139827,18696,-252,-2036,18808.22,24.72,-1.00,-1.0,2367
4830,2139830,13752,-4052,2764,14600.54,24.62,-1.00,-1.0,2442
4832,2139832,20744,-2896,2740,21123.63,24.62,-1.00,-1.0,2375
4835,2139835,14536,1172,-1492,14659.30,24.62,-1.00,-1.0,2433
4838,2139838,15276,4216,-1224,15894.31,24.62,-1.00,-1.0,2355
4843,2139843,16700,-2780,4220,17447.83,24.53,-1.00,-1.0,2447
4845,2139845,16724,-4320,3740,17673.21,24.67,-1.00,-1.0,2369
4848,2139848,18740,88,-1648,18812.53,24.67,-1.00,-1.0,2451
4851,2139851,11624,4844,-2760,12891.83,24.67,-1.00,-1.0,2368
4854,2139854,20748,4504,388,21234.79,24.62,-1.00,-1.0,2438
4856,2139856,12676,-4320,2928,13708.27,24.67,-1.00,-1.0,2366
4859,2139859,21720,-8052,4684,23633.30,24.62,-1.00,-1.0,2375
4862,2139862,20344,-5180,-20,20993.12,24.72,-1.00,-1.0,2435
4865,2139865,13280,5444,-3664,14812.85,24.72,-1.00,-1.0,2376
4870,2139870,12260,-544,-952,12308.93,24.62,-1.00,-1.0,2438
4872,2139872,21892,-9764,5020,24490.73,24.67,-1.00,-1.0,2369
4875,2139875,16312,-7616,1156,18039.43,24.72,-1.00,-1.0,2433
4878,2139878,14848,3376,164,15227.85,24.67,-1.00,-1.0,2375
4881,2139881,17856,9220,-5188,20754.77,24.62,-1.00,-1.0,2432
4883,2139883,15048,1112,-352,15093.14,24.67,-1.00,-1.0,2367
4886,2139886,19508,-9132,5932,22341.53,24.72,-1.00,-1.0,2433
4889,2139889,17880,-9412,2876,20409.59,24.58,-1.00,-1.0,2368
4894,2139894,16524,7316,-4748,18684.48,24.58,-1.00,-1.0,2437
4896,2139896,16112,4036,-232,16611.43,24.67,-1.00,-1.0,2372
4899,2139899,18668,-6948,4940,20522.49,24.67,-1.00,-1.0,2433
4902,2139902,19928,-9564,4652,22588.41,24.77,-1.00,-1.0,2367
4905,2139905,15060,84,-304,15063.30,24.67,-1.00,-1.0,2431
4907,2139907,17380,9332,-3824,20094.12,24.58,-1.00,-1.0,2374
4910,2139910,16120,2588,-184,16327.46,24.77,-1.00,-1.0,2433
4913,2139913,16648,-7008,3824,18463.23,24.67,-1.00,-1.0,2355
4916,2139916,19160,-9856,5708,22289.63,24.72,-1.00,-1.0,2365
4921,2139921,15356,9736,-2544,18359.42,24.62,-1.00,-1.0,2438
4923,2139923,17308,5764,-2668,18436.62,24.58,-1.00,-1.0,2370
4926,2139926,16368,-6236,3440,17850.29,24.62,-1.00,-1.0,2439
4929,2139929,17592,-9224,6088,20775.57,24.62,-1.00,-1.0,2374
4932,2139932,17748,-3360,-196,18064.32,24.62,-1.00,-1.0,2435
4934,2139934,15224,7348,-4216,17422.34,24.67,-1.00,-1.0,2368
4937,2139937,19164,4420,-688,19679.14,24.62,-1.00,-1.0,2432
4940,2139940,14440,-3560,1196,14920.38,24.62,-1.00,-1.0,2367
4945,2139945,18360,-4340,2016,18973.39,24.72,-1.00,-1.0,2438
4947,2139947,14096,5712,-2120,15356.38,24.58,-1.00,-1.0,2370
4950,2139950,20216,3796,-2352,20703.34,24.67,-1.00,-1.0,2433
4953,2139953,14564,-1676,1576,14744.59,24.67,-1.00,-1.0,2366
4956,2139956,18220,-6240,5100,19922.75,24.62,-1.00,-1.0,2440
4958,2139958,17444,-1448,2288,17652.90,24.58,-1.00,-1.0,2370
4961,2139961,14960,4512,-2292,15792.82,24.58,-1.00,-1.0,2420
4964,2139964,20812,4992,-356,21405.28,24.67,-1.00,-1.0,2367
4969,2139969,20412,-5276,2164,21193.60,24.62,-1.00,-1.0,2456
4972,2139972,14856,-1900,1508,15052.73,24.72,-1.00,-1.0,2374
4975,2139975,17928,1908,-1340,18078.97,24.58,-1.00,-1.0,2446
4978,2139978,19708,2868,-212,19916.72,24.72,-1.00,-1.0,2378
4980,2139980,13448,-244,1772,13566.44,24.58,-1.00,-1.0,2368
4983,2139983,19892,-2860,1404,20145.53,24.67,-1.00,-1.0,2432
4986,2139986,16472,-1792,1616,16647.81,24.67,-1.00,-1.0,2372
4989,2139989,17588,676,2008,17715.16,24.58,-1.00,-1.0,2440
4991,2139991,18036,-272,216,18039.34,24.67,-1.00,-1.0,2377
4996,2139996,21036,120,-324,21038.84,24.62,-1.00,-1.0,2439
4999,2139999,13500,-1096,548,13555.50,24.72,-1.00,-1.0,2371
5002,2140002,16412,-1140,2568,16650.77,24.62,-1.00,-1.0,2438
5004,2140004,19104,-1532,1156,19200.16,24.62,-1.00,-1.0,2367
5007,2140007,15012,564,244,15024.57,24.62,-1.00,-1.0,2431
5010,2140010,17996,1244,-1480,18099.56,24.62,-1.00,-1.0,2369
5013,2140013,15412,484,308,15422.67,24.72,-1.00,-1.0,2429
5015,2140015,16592,-2156,3412,17075.85,24.72,-1.00,-1.0,2375
5020,2140020,14716,-616,876,14754.91,24.62,-1.00,-1.0,2447
5023,2140023,17932,3768,-1892,18421.02,24.67,-1.00,-1.0,2386
5026,2140026,17848,3784,712,18258.61,24.62,-1.00,-1.0,2361
5028,2140028,14072,-1848,3856,14707.31,24.62,-1.00,-1.0,2432
5031,2140031,20032,-6648,4668,21616.36,24.67,-1.00,-1.0,2369
5034,2140034,14604,12,2712,14853.68,24.62,-1.00,-1.0,2430
5037,2140037,16992,4472,-3576,17930.83,24.53,-1.00,-1.0,2366
5039,2140039,16392,6804,-1108,17782.57,24.62,-1.00,-1.0,2434
5042,2140042,15468,-2752,2968,15988.79,24.58,-1.00,-1.0,2368
5047,2140047,15900,-4728,2792,16821.39,24.58,-1.00,-1.0,2447
5050,2140050,14892,3604,-872,15346.69,24.48,-1.00,-1.0,2372
5053,2140053,17524,9288,-1144,19866.21,24.62,-1.00,-1.0,2443
5055,2140055,13328,-152,2060,13487.12,24.67,-1.00,-1.0,2379
5058,2140058,20724,-10236,4280,23506.98,24.62,-1.00,-1.0,2439
5061,2140061,16976,-7608,3004,18843.84,24.67,-1.00,-1.0,2371
5064,2140064,17116,4256,-2628,17831.92,24.62,-1.00,-1.0,2444
5066,2140066,16836,7948,-2716,18814.84,24.72,-1.00,-1.0,2378
5071,2140071,20252,-8028,5300,22420.58,24.53,-1.00,-1.0,2448
5074,2140074,16320,-6628,1756,17701.87,24.67,-1.00,-1.0,2379
5077,2140077,16696,6256,-2248,17970.74,24.62,-1.00,-1.0,2435
5080,2140080,18660,8272,-3312,20678.27,24.67,-1.00,-1.0,2369
5082,2140082,14292,528,1136,14346.80,24.58,-1.00,-1.0,2347
5085,2140085,19972,-8528,5560,22416.98,24.72,-1.00,-1.0,2431
5088,2140088,19432,-7828,2228,21067.61,24.62,-1.00,-1.0,2371
5090,2140090,14784,4100,-952,15371.50,24.62,-1.00,-1.0,2436
5093,2140093,19140,6604,-3548,20555.79,24.58,-1.00,-1.0,2382
5098,2140098,18728,-6404,5044,20425.26,24.58,-1.00,-1.0,2453
5101,2140101,22180,-7824,2888,23696.16,24.58,-1.00,-1.0,2378
5104,2140104,11492,2588,1496,11874.42,24.62,-1.00,-1.0,2445
5106,2140106,21328,6292,-1692,22301.03,24.62,-1.00,-1.0,2374
5109,2140109,10952,-280,436,10964.25,24.53,-1.00,-1.0,2441
5112,2140112,23372,-7428,4528,24938.49,24.72,-1.00,-1.0,2374
5115,2140115,17748,-7116,1596,19187.92,24.72,-1.00,-1.0,2445
5117,2140117,14520,4892,-300,15324.88,24.62,-1.00,-1.0,2375
5122,2140122,10168,140,-1068,10224.89,24.58,-1.00,-1.0,2425
5125,2140125,24460,-6456,4204,25644.59,24.58,-1.00,-1.0,2370
5128,2140128,12204,-4544,2272,13219.21,24.67,-1.00,-1.0,2432
5131,2140131,11924,3304,136,12374.03,24.67,-1.00,-1.0,2367
5133,2140133,22736,5596,-2944,23598.90,24.67,-1.00,-1.0,2431
5136,2140136,9192,-800,1120,9294.47,24.67,-1.00,-1.0,2368
5139,2140139,21752,-4544,5020,22781.52,24.67,-1.00,-1.0,2367
5142,2140142,15608,-5652,1784,16695.43,24.62,-1.00,-1.0,2434
5144,2140144,15952,2852,-972,16234.07,24.67,-1.00,-1.0,2371
5149,2140149,10656,364,460,10672.13,24.67,-1.00,-1.0,2437
5152,2140152,22504,-5144,4324,23485.90,24.67,-1.00,-1.0,2372
5155,2140155,20292,-6436,1224,21323.36,24.67,-1.00,-1.0,2441
5157,2140157,12996,2104,-292,13168.45,24.58,-1.00,-1.0,2371
5160,2140160,20868,5516,-2344,21711.61,24.67,-1.00,-1.0,2419
5163,2140163,11756,468,2308,11989.55,24.58,-1.00,-1.0,2371
5166,2140166,20100,-5656,3760,21216.46,24.58,-1.00,-1.0,2433
5168,2140168,17060,-6384,1704,18294.88,24.67,-1.00,-1.0,2376
5173,2140173,21028,7076,-2552,22332.92,24.67,-1.00,-1.0,2436
5176,2140176,11724,1944,80,11884.35,24.58,-1.00,-1.0,2371
5179,2140179,18028,-4432,4296,19055.37,24.58,-1.00,-1.0,2440
5181,2140181,19760,-9336,1612,21913.86,24.58,-1.00,-1.0,2370
5184,2140184,13436,3732,564,13956.07,24.58,-1.00,-1.0,2419
5187,2140187,21944,7144,-3608,23357.94,24.67,-1.00,-1.0,2369
5189,2140189,11152,2228,-1424,11461.19,24.58,-1.00,-1.0,2360
5192,2140192,21328,-7148,3520,22767.69,24.62,-1.00,-1.0,2434
5195,2140195,15348,-7164,460,16943.90,24.67,-1.00,-1.0,2369
5200,2140200,22436,5560,-2672,23268.59,24.62,-1.00,-1.0,2445
5202,2140202,12392,2496,-1432,12721.73,24.62,-1.00,-1.0,2370
5205,2140205,18776,-3696,3000,19370.04,24.62,-1.00,-1.0,2434
5208,2140208,18928,-5700,1896,19858.35,24.67,-1.00,-1.0,2368
5211,2140211,13196,2108,1796,13483.46,24.62,-1.00,-1.0,2434
5213,2140213,25588,3428,-1796,25879.00,24.72,-1.00,-1.0,2368
5216,2140216,8832,1160,-820,8945.51,24.62,-1.00,-1.0,2433
5219,2140219,23620,-1500,2288,23777.92,24.58,-1.00,-1.0,2370
5224,2140224,11364,-640,2776,11715.64,24.67,-1.00,-1.0,2438
5227,2140227,25044,424,1236,25078.07,24.67,-1.00,-1.0,2369
5229,2140229,10304,632,-432,10332.40,24.62,-1.00,-1.0,2433
5232,2140232,21212,924,-164,21232.75,24.67,-1.00,-1.0,2364
5235,2140235,15264,-508,1736,15370.80,24.58,-1.00,-1.0,2436
5238,2140238,8704,-1624,1832,9041.75,24.58,-1.00,-1.0,2370
5240,2140240,27728,-2824,668,27879.44,24.62,-1.00,-1.0,2360
5243,2140243,6388,-956,-1712,6682.17,24.62,-1.00,-1.0,2432
5246,2140246,26384,3856,-900,26679.47,24.67,-1.00,-1.0,2369
5251,2140251,13428,-2792,3628,14186.92,24.67,-1.00,-1.0,2424
5254,2140254,29536,-6028,3792,30382.42,24.67,-1.00,-1.0,2374
5256,2140256,5628,-2144,124,6023.83,24.58,-1.00,-1.0,2442
5259,2140259,25952,6364,-3744,26981.93,24.48,-1.00,-1.0,2375
5262,2140262,9184,2644,-1352,9652.18,24.67,-1.00,-1.0,2421
5264,2140264,12908,-3600,3352,13813.49,24.58,-1.00,-1.0,2368
5267,2140267,25696,-9568,5484,27962.57,24.67,-1.00,-1.0,2445
5270,2140270,7328,60,-8,7328.25,24.58,-1.00,-1.0,2370
5275,2140275,12660,6960,-3232,14804.16,24.62,-1.00,-1.0,2437
5278,2140278,18272,-7068,4132,20022.39,24.62,-1.00,-1.0,2370
5280,2140280,26272,-12428,6780,29843.62,24.67,-1.00,-1.0,2434
5283,2140283,8700,-2952,1924,9386.48,24.62,-1.00,-1.0,2369
5286,2140286,23764,11048,-5732,26826.14,24.48,-1.00,-1.0,2356
5289,2140289,15660,10740,-3060,19234.00,24.67,-1.00,-1.0,2431
5291,2140291,15016,-3488,4532,16068.15,24.62,-1.00,-1.0,2369
5294,2140294,22700,-14100,5292,27241.61,24.58,-1.00,-1.0,2431
5297,2140297,10428,196,1612,10553.68,24.72,-1.00,-1.0,2368
5302,2140302,11112,7576,-3112,13804.23,24.62,-1.00,-1.0,2441
5305,2140305,18564,-5488,5392,20095.12,24.62,-1.00,-1.0,2372
5307,2140307,24820,-11760,3496,27686.68,24.62,-1.00,-1.0,2432
5310,2140310,11428,-2920,1952,11955.58,24.62,-1.00,-1.0,2370
5313,2140313,22376,8100,-2216,23899.92,24.62,-1.00,-1.0,2432
5316,2140316,10364,4328,-2244,11453.37,24.72,-1.00,-1.0,2371
5318,2140318,16280,-2088,1728,16504.06,24.72,-1.00,-1.0,2431
5321,2140321,21952,-9256,3912,24142.65,24.72,-1.00,-1.0,2371
5326,2140326,23320,4840,-1884,23891.37,24.58,-1.00,-1.0,2454
5329,2140329,9856,5788,-3344,11908.99,24.67,-1.00,-1.0,2378
5332,2140332,20680,-960,1116,20732.33,24.62,-1.00,-1.0,2443
5334,2140334,23056,-6056,4360,24233.53,24.58,-1.00,-1.0,2372
5337,2140337,10928,-5840,4472,13172.91,24.72,-1.00,-1.0,2441
5340,2140340,25148,1128,-1500,25217.94,24.58,-1.00,-1.0,2377
5343,2140343,7452,6856,-2208,10363.99,24.72,-1.00,-1.0,2447
5345,2140345,20352,4200,-2676,20952.44,24.67,-1.00,-1.0,2371
5348,2140348,16916,-4440,2516,17669.04,24.67,-1.00,-1.0,2360
5353,2140353,29488,-4060,1716,29815.61,24.67,-1.00,-1.0,2440
5356,2140356,4160,5872,-3316,7923.50,24.72,-1.00,-1.0,2370
5358,2140358,20248,8632,-4268,22421.17,24.58,-1.00,-1.0,2418
5361,2140361,16816,-1024,-1144,16885.95,24.72,-1.00,-1.0,2367
5364,2140364,15124,-9400,6308,18891.43,24.67,-1.00,-1.0,2433
5367,2140367,24272,-7352,88,25361.18,24.53,-1.00,-1.0,2367
5369,2140369,5756,3912,-32,6959.62,24.58,-1.00,-1.0,2431
5372,2140372,23684,10424,-5136,26381.25,24.62,-1.00,-1.0,2370
5377,2140377,13648,-9260,6036,17562.71,24.67,-1.00,-1.0,2426
5380,2140380,24432,-11544,4300,27361.96,24.62,-1.00,-1.0,2371
5382,2140382,9192,-756,-412,9232.23,24.67,-1.00,-1.0,2432
5385,2140385,22380,12512,-5340,26190.27,24.62,-1.00,-1.0,2368
5388,2140388,12544,3076,-3452,13368.99,24.58,-1.00,-1.0,2418
5391,2140391,19408,-10764,7296,23361.63,24.72,-1.00,-1.0,2371
5393,2140393,25164,-14304,4540,29299.20,24.58,-1.00,-1.0,2431
5396,2140396,9044,2512,784,9419.06,24.53,-1.00,-1.0,2370
5399,2140399,24032,10864,-6672,27204.39,24.62,-1.00,-1.0,2368
5404,2140404,19040,-7160,5376,21040.17,24.53,-1.00,-1.0,2441
5407,2140407,19284,-10952,4400,22609.27,24.62,-1.00,-1.0,2381
5409,2140409,9040,-1348,632,9161.78,24.72,-1.00,-1.0,2419
5412,2140412,24592,10048,-4016,26867.40,24.62,-1.00,-1.0,2383
5415,2140415,9908,3784,-1668,10736.36,24.72,-1.00,-1.0,2435
5418,2140418,22716,-9300,5208,25092.43,24.62,-1.00,-1.0,2373
5420,2140420,23356,-11024,3800,26105.01,24.67,-1.00,-1.0,2441
5423,2140423,10620,2660,220,10950.27,24.62,-1.00,-1.0,2382
5428,2140428,9064,4472,-948,10151.53,24.62,-1.00,-1.0,2455
5431,2140431,23016,-8236,3584,24706.54,24.62,-1.00,-1.0,2379
5434,2140434,14484,-8080,3020,16858.03,24.58,-1.00,-1.0,2443
5436,2140436,10680,2116,1988,11067.61,24.62,-1.00,-1.0,2376
5439,2140439,23508,8256,-4068,25245.52,24.67,-1.00,-1.0,2440
5442,2140442,8712,1332,624,8835.30,24.72,-1.00,-1.0,2372
5445,2140445,26792,-9108,4380,28634.79,24.67,-1.00,-1.0,2446
5447,2140447,15392,-7728,3396,17554.73,24.62,-1.00,-1.0,2376
5452,2140452,23436,7532,-2924,24789.65,24.62,-1.00,-1.0,2442
5455,2140455,8376,1000,-220,8438.35,24.53,-1.00,-1.0,2371
5458,2140458,26088,-9132,3364,27844.10,24.62,-1.00,-1.0,2365
5460,2140460,15324,-7740,2904,17411.66,24.67,-1.00,-1.0,2434
5463,2140463,16164,5112,636,16965.02,24.58,-1.00,-1.0,2383
5466,2140466,19008,5912,-2840,20107.74,24.67,-1.00,-1.0,2433
5469,2140469,11780,-1344,2804,12183.48,24.62,-1.00,-1.0,2378
5471,2140471,25360,-6736,3576,26481.90,24.67,-1.00,-1.0,2437
5474,2140474,11556,-2972,3260,12369.38,24.67,-1.00,-1.0,2371
5479,2140479,20748,3532,-3956,21415.05,24.67,-1.00,-1.0,2446
5482,2140482,11744,-1000,252,11789.19,24.67,-1.00,-1.0,2378
5485,2140485,25060,-5604,1892,25748.55,24.58,-1.00,-1.0,2446
5487,2140487,14668,-3796,2104,15296.62,24.58,-1.00,-1.0,2379
5490,2140490,17020,3108,-120,17301.86,24.58,-1.00,-1.0,2433
5493,2140493,18076,3324,-1528,18442.49,24.67,-1.00,-1.0,2358
5496,2140496,13288,-1368,3180,13731.52,24.67,-1.00,-1.0,2446
5498,2140498,24764,-5448,1628,25408.40,24.67,-1.00,-1.0,2378
5503,2140503,14252,2068,460,14408.60,24.67,-1.00,-1.0,2447
5506,2140506,20600,3060,-3324,21089.63,24.62,-1.00,-1.0,2378
5509,2140509,11944,-432,328,11956.31,24.58,-1.00,-1.0,2364
5511,2140511,24996,-5524,1392,25636.93,24.72,-1.00,-1.0,2434
5514,2140514,12588,-3584,3016,13431.27,24.67,-1.00,-1.0,2371
5517,2140517,18708,2368,960,18881.69,24.67,-1.00,-1.0,2430
5520,2140520,15100,2608,-968,15354.11,24.58,-1.00,-1.0,2363
5522,2140522,9768,504,-524,9795.02,24.67,-1.00,-1.0,2421
5525,2140525,25632,-3452,1660,25916.62,24.72,-1.00,-1.0,2370
5530,2140530,18444,16,1136,18478.96,24.67,-1.00,-1.0,2448
5533,2140533,17928,1076,-1412,18015.68,24.58,-1.00,-1.0,2385
5536,2140536,12176,884,1368,12284.46,24.67,-1.00,-1.0,2436
5539,2140539,24436,-2420,872,24571.02,24.67,-1.00,-1.0,2375
5541,2140541,8452,-2768,1488,9017.33,24.67,-1.00,-1.0,2439
5544,2140544,23504,-464,1344,23546.97,24.58,-1.00,-1.0,2384
5547,2140547,11812,856,24,11843.00,24.58,-1.00,-1.0,2436
5550,2140550,18932,1324,-8,18978.24,24.58,-1.00,-1.0,2373
5552,2140552,25584,300,2648,25722.42,24.62,-1.00,-1.0,2361
5557,2140557,23988,-2088,1840,24148.90,24.62,-1.00,-1.0,2444
5560,2140560,12972,380,1556,13070.51,24.58,-1.00,-1.0,2371
5563,2140563,16508,3752,2016,17048.63,24.67,-1.00,-1.0,2428
5565,2140565,28472,592,-2960,28631.57,24.58,-1.00,-1.0,2378
5568,2140568,5692,-2256,1044,6211.15,24.62,-1.00,-1.0,2433
5571,2140571,28432,-3196,1032,28629.67,24.67,-1.00,-1.0,2371
5574,2140574,8148,-764,-84,8184.17,24.67,-1.00,-1.0,2442
5576,2140576,14580,1704,-344,14683.27,24.77,-1.00,-1.0,2376
5581,2140581,6752,-320,428,6773.12,24.62,-1.00,-1.0,2437
5584,2140584,26308,-2420,964,26436.65,24.62,-1.00,-1.0,2370
5587,2140587,10504,-3184,268,10979.24,24.62,-1.00,-1.0,2428
5589,2140589,21628,1216,1700,21728.76,24.62,-1.00,-1.0,2377
5592,2140592,25292,36,-2516,25416.86,24.62,-1.00,-1.0,2361
5595,2140595,7148,672,-544,7200.10,24.58,-1.00,-1.0,2439
5597,2140597,27760,-1844,568,27826.97,24.62,-1.00,-1.0,2370
5600,2140600,12996,-2628,1256,13318.41,24.77,-1.00,-1.0,2442
5603,2140603,18708,-504,2956,18946.80,24.77,-1.00,-1.0,2371
5608,2140608,6924,2460,-300,7354.14,24.72,-1.00,-1.0,2453
5611,2140611,27236,-200,1468,27276.27,24.67,-1.00,-1.0,2378
5614,2140614,6476,-3744,1636,7657.19,24.72,-1.00,-1.0,2448
5616,2140616,19456,-2180,2596,19749.12,24.58,-1.00,-1.0,2371
5619,2140619,18172,12,-664,18184.13,24.62,-1.00,-1.0,2440
5622,2140622,11356,4360,580,12178.04,24.58,-1.00,-1.0,2376
5625,2140625,24508,-320,288,24511.78,24.62,-1.00,-1.0,2445
5627,2140627,6176,-4216,4484,8719.17,24.62,-1.00,-1.0,2375
5632,2140632,21656,-2852,148,21843.49,24.67,-1.00,-1.0,2440
5635,2140635,9564,4348,-1280,10583.65,24.58,-1.00,-1.0,2370
5638,2140638,24996,2420,-1204,25141.72,24.77,-1.00,-1.0,2365
5640,2140640,7320,-3628,3968,9082.39,24.62,-1.00,-1.0,2441
5643,2140643,25016,-6484,4804,26285.38,24.62,-1.00,-1.0,2376
5646,2140646,12164,-3048,76,12540.29,24.67,-1.00,-1.0,2459
5649,2140649,18324,7096,-3748,20004.24,24.67,-1.00,-1.0,2367
5651,2140651,18160,4456,-2212,18829.09,24.58,-1.00,-1.0,2436
5654,2140654,13644,-6444,4744,15817.38,24.53,-1.00,-1.0,2370
5659,2140659,16940,-6212,1824,18135.04,24.67,-1.00,-1.0,2443
5662,2140662,15612,7668,-3964,17839.45,24.58,-1.00,-1.0,2367
5665,2140665,18200,8244,-4076,20391.60,24.53,-1.00,-1.0,2442
5667,2140667,13268,-4672,3564,14511.01,24.58,-1.00,-1.0,2353
5670,2140670,24104,-11884,8820,28284.71,24.67,-1.00,-1.0,2437
5673,2140673,12276,-7236,2132,14408.51,24.67,-1.00,-1.0,2365
5676,2140676,19076,10016,-5740,22297.12,24.67,-1.00,-1.0,2444
5678,2140678,15740,11836,-1488,19749.75,24.67,-1.00,-1.0,2366
5683,2140683,27608,-15816,5744,32331.73,24.67,-1.00,-1.0,2428
5686,2140686,15168,-12360,4756,20135.97,24.53,-1.00,-1.0,2370
5689,2140689,16660,8848,-2292,19002.53,24.67,-1.00,-1.0,2436
5692,2140692,17600,11972,-5492,21982.97,24.72,-1.00,-1.0,2362
5694,2140694,12348,-2488,1800,12724.12,24.67,-1.00,-1.0,2425
5697,2140697,25560,-11916,7804,29261.02,24.53,-1.00,-1.0,2379
5700,2140700,9896,-8184,5356,13913.86,24.58,-1.00,-1.0,2359
5702,2140702,23532,6004,-5308,24859.16,24.67,-1.00,-1.0,2436
5705,2140705,10804,9836,-3344,14988.52,24.62,-1.00,-1.0,2374
5710,2140710,25532,-10464,3448,27807.68,24.72,-1.00,-1.0,2449
5713,2140713,9176,-9140,4076,13577.64,24.62,-1.00,-1.0,2375
5716,2140716,23288,3116,464,23500.12,24.58,-1.00,-1.0,2439
5719,2140719,12972,7872,-2168,15327.80,24.62,-1.00,-1.0,2366
5721,2140721,15904,644,2444,16103.57,24.58,-1.00,-1.0,2447
5724,2140724,26396,-6852,960,27287.73,24.62,-1.00,-1.0,2372
5727,2140727,8712,-4968,3132,10506.64,24.67,-1.00,-1.0,2439
5729,2140729,27304,2108,-1348,27418.41,24.72,-1.00,-1.0,2366
5734,2140734,15144,1760,620,15258.53,24.67,-1.00,-1.0,2441
5737,2140737,22284,-4116,2976,22855.52,24.62,-1.00,-1.0,2367
5740,2140740,7448,-5636,1804,9512.71,24.53,-1.00,-1.0,2435
5743,2140743,26068,536,596,26080.32,24.67,-1.00,-1.0,2365
5745,2140745,9124,4108,-1184,10075.96,24.62,-1.00,-1.0,2437
5748,2140748,21848,976,164,21870.40,24.67,-1.00,-1.0,2365
5751,2140751,23372,-3296,2136,23699.71,24.72,-1.00,-1.0,2362
5754,2140754,8268,-4056,3736,9938.24,24.72,-1.00,-1.0,2436
5756,2140756,28000,-440,-572,28009.30,24.67,-1.00,-1.0,2365
5761,2140761,20676,3360,88,20947.42,24.67,-1.00,-1.0,2449
5764,2140764,24856,-1264,1260,24919.99,24.77,-1.00,-1.0,2374
5767,2140767,7520,-4612,3756,9587.93,24.58,-1.00,-1.0,2436
5770,2140770,28236,-2280,-208,28328.67,24.58,-1.00,-1.0,2362
5772,2140772,5380,4416,-376,6970.43,24.58,-1.00,-1.0,2422
5775,2140775,20548,4056,-884,20963.13,24.67,-1.00,-1.0,2380
5778,2140778,16508,-1744,1544,16671.52,24.67,-1.00,-1.0,2438
5781,2140781,15256,-4716,4268,16528.82,24.58,-1.00,-1.0,2371
5787,2140787,18404,5296,-2232,19280.47,24.67,-1.00,-1.0,2449
5790,2140790,25160,2660,676,25309.25,24.77,-1.00,-1.0,2375
5793,2140793,5956,-4808,4280,8769.79,24.67,-1.00,-1.0,2441
5795,2140795,29168,-5976,2196,29854.77,24.67,-1.00,-1.0,2367
5798,2140798,12596,-1940,-1316,12812.29,24.67,-1.00,-1.0,2362
5801,2140801,18008,7148,-2316,19512.71,24.62,-1.00,-1.0,2436
5804,2140804,18320,1184,-1772,18443.54,24.67,-1.00,-1.0,2368
5806,2140806,13680,-6100,5808,16065.03,24.67,-1.00,-1.0,2424
5809,2140809,27812,-8740,3712,29388.33,24.58,-1.00,-1.0,2381
5814,2140814,16976,7392,-3904,18922.67,24.62,-1.00,-1.0,2442
5817,2140817,18288,5492,-1832,19182.52,24.62,-1.00,-1.0,2366
5819,2140819,13904,-6088,4060,15712.05,24.62,-1.00,-1.0,2436
5822,2140822,24040,-10112,3932,26374.89,24.62,-1.00,-1.0,2366
5825,2140825,10920,-2264,216,11154.32,24.62,-1.00,-1.0,2435
5828,2140828,20948,9028,-5272,23411.91,24.53,-1.00,-1.0,2363
5830,2140830,14044,3696,-3824,15017.23,24.62,-1.00,-1.0,2436
5833,2140833,19036,-8476,5184,21472.91,24.62,-1.00,-1.0,2366
5838,2140838,13844,-4924,1632,14783.96,24.67,-1.00,-1.0,2451
5841,2140841,19180,8416,-5332,21613.23,24.58,-1.00,-1.0,2369
5844,2140844,16124,8512,-816,18251.12,24.62,-1.00,-1.0,2447
5846,2140846,15448,-6240,5896,17673.18,24.67,-1.00,-1.0,2372
5849,2140849,21584,-11020,4452,24640.00,24.53,-1.00,-1.0,2443
5852,2140852,11604,-2532,988,11918.05,24.67,-1.00,-1.0,2368
5855,2140855,19388,9056,-5260,22035.73,24.72,-1.00,-1.0,2448
5857,2140857,14896,5528,-1696,15978.92,24.67,-1.00,-1.0,2373
5860,2140860,13108,-4776,3484,14379.43,24.62,-1.00,-1.0,2361
5865,2140865,11616,-4400,2764,12725.22,24.62,-1.00,-1.0,2444
5868,2140868,19428,8988,-6264,22304.01,24.72,-1.00,-1.0,2379
5870,2140870,14808,7124,-2212,16580.75,24.62,-1.00,-1.0,2439
5873,2140873,17176,-8776,4944,19911.71,24.62,-1.00,-1.0,2372
5876,2140876,24504,-12988,6080,28391.91,24.72,-1.00,-1.0,2437
5879,2140879,10852,-808,1164,10944.12,24.72,-1.00,-1.0,2366
5881,2140881,19528,11916,-5180,23455.62,24.72,-1.00,-1.0,2424
5884,2140884,12688,4796,-256,13566.59,24.72,-1.00,-1.0,2378
5889,2140889,23892,-14044,5620,28278.01,24.58,-1.00,-1.0,2441
5892,2140892,12036,-3184,2356,12670.99,24.58,-1.00,-1.0,2362
5895,2140895,20032,10332,-6008,23326.54,24.62,-1.00,-1.0,2442
5897,2140897,12924,5576,-3528,14510.97,24.58,-1.00,-1.0,2368
5900,2140900,21052,-9156,4596,23412.44,24.62,-1.00,-1.0,2450
5903,2140903,22192,-13160,5360,26351.47,24.58,-1.00,-1.0,2361
5906,2140906,12372,72,416,12379.20,24.53,-1.00,-1.0,2436
5908,2140908,22000,9528,-5060,24502.78,24.67,-1.00,-1.0,2367
5913,2140913,18148,-4872,4956,19433.17,24.67,-1.00,-1.0,2441
5916,2140916,24524,-11004,2936,27039.50,24.67,-1.00,-1.0,2366
5919,2140919,11360,-3000,580,11763.76,24.67,-1.00,-1.0,2444
5921,2140921,22340,6632,-4092,23660.17,24.58,-1.00,-1.0,2364
5924,2140924,15964,6968,-1296,17466.60,24.58,-1.00,-1.0,2360
5927,2140927,14620,-1436,4168,15270.19,24.72,-1.00,-1.0,2443
5929,2140929,21872,-7696,4204,23564.52,24.58,-1.00,-1.0,2351
5932,2140932,10436,-324,1624,10566.57,24.77,-1.00,-1.0,2440
5935,2140935,22580,4304,-2080,23080.45,24.67,-1.00,-1.0,2365
5940,2140940,11456,-484,1480,11561.34,24.58,-1.00,-1.0,2441
5943,2140943,24492,-5364,4108,25406.81,24.58,-1.00,-1.0,2366
5945,2140945,9268,-2200,2296,9798.34,24.67,-1.00,-1.0,2437
5948,2140948,25184,2456,-2632,25439.99,24.58,-1.00,-1.0,2365
5951,2140951,12768,4064,-164,13400.18,24.67,-1.00,-1.0,2423
5954,2140954,17872,-48,40,17872.11,24.62,-1.00,-1.0,2365
5956,2140956,18488,-4424,1012,19036.86,24.67,-1.00,-1.0,2437
5959,2140959,15744,-2260,2648,16124.30,24.62,-1.00,-1.0,2368
5964,2140964,5496,2552,-2200,6446.61,24.58,-1.00,-1.0,2444
5967,2140967,19144,4408,-840,19662.88,24.67,-1.00,-1.0,2367
5970,2140970,17052,-2220,268,17197.99,24.62,-1.00,-1.0,2444
5972,2140972,15628,-6216,3812,17245.42,24.58,-1.00,-1.0,2365
5975,2140975,21060,-3792,-196,21399.56,24.62,-1.00,-1.0,2368
5978,2140978,8780,4136,-480,9717.27,24.72,-1.00,-1.0,2439
5980,2140980,22772,6076,-2448,23695.45,24.53,-1.00,-1.0,2363
5983,2140983,12144,-2476,464,12402.52,24.53,-1.00,-1.0,2451
5986,2140986,21172,-7376,4884,22945.86,24.62,-1.00,-1.0,2365
5991,2140991,11448,1448,-1856,11687.52,24.62,-1.00,-1.0,2448
5993,2140993,20444,7036,-1672,21685.43,24.72,-1.00,-1.0,2366
5996,2140996,13768,-1588,-104,13859.67,24.67,-1.00,-1.0,2446
5999,2140999,19336,-8208,3488,21293.62,24.72,-1.00,-1.0,2371
6002,2141002,21700,-5976,2616,22659.35,24.67,-1.00,-1.0,2439
6004,2141004,10812,4720,-612,11813.23,24.72,-1.00,-1.0,2364
6007,2141007,22276,4448,-2928,22903.67,24.77,-1.00,-1.0,2448
6010,2141010,11168,-3484,1276,11768.21,24.72,-1.00,-1.0,2373
6015,2141015,22352,-4616,3980,23168.08,24.67,-1.00,-1.0,2450
6018,2141018,12132,2852,-512,12473.23,24.62,-1.00,-1.0,2371
6020,2141020,21156,4268,-1900,21665.69,24.58,-1.00,-1.0,2446
6023,2141023,13624,-1332,1072,13730.87,24.62,-1.00,-1.0,2372
6026,2141026,14032,-4248,3672,15113.77,24.67,-1.00,-1.0,2426
6029,2141029,21428,-3160,1684,21725.12,24.62,-1.00,-1.0,2363
6031,2141031,11216,1424,-1268,11376.92,24.67,-1.00,-1.0,2363
6034,2141034,20496,2888,-932,20719.44,24.67,-1.00,-1.0,2440
6037,2141037,14852,-544,1388,14926.63,24.67,-1.00,-1.0,2368
