timestamp_ms,global_ms,accel_x,accel_y,accel_z,accel_mag,temp_c,voltage,soc,loop_us
3,2135003,15432,-980,-48,15463.16,24.72,-1.00,-1.0,2488
9,2135009,15752,-1000,56,15783.81,24.67,-1.00,-1.0,2465
12,2135012,17304,-232,912,17329.57,24.67,-1.00,-1.0,2362
15,2135015,16412,-696,-188,16427.83,24.62,-1.00,-1.0,2370
18,2135018,14720,-348,740,14742.70,24.62,-1.00,-1.0,2445
20,2135020,19572,-760,928,19608.72,24.62,-1.00,-1.0,2369
23,2135023,14676,-508,68,14684.95,24.62,-1.00,-1.0,2448
26,2135026,20808,-1056,796,20849.98,24.72,-1.00,-1.0,2371
29,2135029,13336,-1068,632,13393.62,24.72,-1.00,-1.0,2446
31,2135031,19988,400,-36,19992.04,24.62,-1.00,-1.0,2367
36,2135036,14668,-608,1860,14797.96,24.58,-1.00,-1.0,2453
39,2135039,18652,-1124,356,18689.23,24.72,-1.00,-1.0,2347
42,2135042,13488,-812,572,13524.52,24.58,-1.00,-1.0,2449
44,2135044,21276,-292,1828,21356.38,24.72,-1.00,-1.0,2371
47,2135047,12708,-624,456,12731.48,24.67,-1.00,-1.0,2362
50,2135050,18024,496,1408,18085.71,24.58,-1.00,-1.0,2448
52,2135052,16260,-336,644,16276.22,24.58,-1.00,-1.0,2362
55,2135055,17176,-780,1568,17265.05,24.67,-1.00,-1.0,2440
58,2135058,16456,-1480,588,16532.88,24.58,-1.00,-1.0,2362
63,2135063,19776,-148,348,19779.62,24.62,-1.00,-1.0,2451
66,2135066,13636,-112,500,13645.62,24.62,-1.00,-1.0,2364
68,2135068,20428,-316,1156,20463.12,24.67,-1.00,-1.0,2449
71,2135071,13200,-712,1400,13293.12,24.62,-1.00,-1.0,2368
74,2135074,17076,-532,1120,17120.96,24.67,-1.00,-1.0,2363
76,2135076,17016,-196,368,17021.11,24.67,-1.00,-1.0,2433
79,2135079,15924,-164,1200,15969.99,24.67,-1.00,-1.0,2369
82,2135082,17680,-1116,-96,17715.45,24.67,-1.00,-1.0,2440
85,2135085,13112,-88,1112,13159.36,24.67,-1.00,-1.0,2363
90,2135090,14612,-844,-196,14637.67,24.62,-1.00,-1.0,2449
92,2135092,19772,-872,100,19791.47,24.62,-1.00,-1.0,2363
95,2135095,14896,-448,2036,15041.17,24.77,-1.00,-1.0,2454
98,2135098,18456,-464,652,18473.34,24.62,-1.00,-1.0,2355
101,2135101,19004,-392,-84,19008.23,24.62,-1.00,-1.0,2440
103,2135103,15500,-352,852,15527.39,24.72,-1.00,-1.0,2361
106,2135106,18352,-992,-228,18380.21,24.62,-1.00,-1.0,2370
109,2135109,14156,160,1020,14193.60,24.67,-1.00,-1.0,2443
111,2135111,20872,168,724,20885.23,24.62,-1.00,-1.0,2369
116,2135116,18672,-792,420,18693.51,24.72,-1.00,-1.0,2449
119,2135119,15560,-1780,296,15664.28,24.62,-1.00,-1.0,2360
122,2135122,17796,-428,732,17816.19,24.72,-1.00,-1.0,2449
124,2135124,19680,-292,-464,19687.63,24.72,-1.00,-1.0,2360
127,2135127,14920,84,1252,14972.67,24.72,-1.00,-1.0,2443
130,2135130,19224,-1256,876,19284.89,24.58,-1.00,-1.0,2360
133,2135133,13784,-992,952,13852.40,24.62,-1.00,-1.0,2448
135,2135135,20640,-36,1104,20669.54,24.62,-1.00,-1.0,2361
138,2135138,13784,860,1964,13949.75,24.72,-1.00,-1.0,2362
143,2135143,16752,-1488,-680,16831.70,24.62,-1.00,-1.0,2448
146,2135146,17888,292,1336,17940.20,24.67,-1.00,-1.0,2360
149,2135149,16212,-704,148,16227.95,24.62,-1.00,-1.0,2440
151,2135151,14576,-672,228,14593.26,24.67,-1.00,-1.0,2369
154,2135154,20076,-224,556,20084.95,24.62,-1.00,-1.0,2441
157,2135157,14192,-368,2048,14343.73,24.67,-1.00,-1.0,2360
160,2135160,19432,-884,-60,19452.19,24.62,-1.00,-1.0,2451
162,2135162,14392,448,1876,14520.67,24.67,-1.00,-1.0,2368
167,2135167,16480,-1036,-1140,16551.84,24.67,-1.00,-1.0,2449
170,2135170,18080,-1096,904,18135.73,24.67,-1.00,-1.0,2359
173,2135173,19532,-1576,788,19611.32,24.67,-1.00,-1.0,2367
175,2135175,15032,76,1984,15162.55,24.72,-1.00,-1.0,2442
178,2135178,19868,88,-656,19879.02,24.58,-1.00,-1.0,2381
181,2135181,14496,912,1640,14616.95,24.67,-1.00,-1.0,2440
184,2135184,20476,-732,552,20496.51,24.67,-1.00,-1.0,2363
186,2135186,13220,-1552,-308,13314.35,24.72,-1.00,-1.0,2449
189,2135189,21832,-1048,304,21859.25,24.67,-1.00,-1.0,2368
194,2135194,17600,-284,152,17602.95,24.67,-1.00,-1.0,2448
197,2135197,16104,-1220,-180,16151.15,24.62,-1.00,-1.0,2371
199,2135199,13660,-836,1860,13811.38,24.67,-1.00,-1.0,2434
202,2135202,20256,-988,-168,20280.78,24.62,-1.00,-1.0,2366
205,2135205,14440,144,1552,14523.88,24.67,-1.00,-1.0,2367
208,2135208,20484,-332,884,20505.75,24.58,-1.00,-1.0,2444
210,2135210,12928,-156,1352,12999.44,24.58,-1.00,-1.0,2364
213,2135213,20528,-1540,376,20589.12,24.58,-1.00,-1.0,2446
216,2135216,13412,-524,916,13453.45,24.58,-1.00,-1.0,2360
221,2135221,14556,-152,-988,14590.28,24.67,-1.00,-1.0,2456
223,2135223,14832,812,1916,14977.27,24.67,-1.00,-1.0,2363
226,2135226,19684,-1532,216,19744.71,24.67,-1.00,-1.0,2449
229,2135229,14648,-1236,1540,14780.50,24.58,-1.00,-1.0,2360
232,2135232,19740,-224,-296,19743.49,24.58,-1.00,-1.0,2448
234,2135234,12424,1188,1240,12542.12,24.67,-1.00,-1.0,2347
237,2135237,20864,196,800,20880.25,24.58,-1.00,-1.0,2442
240,2135240,12820,-1204,2232,13068.43,24.67,-1.00,-1.0,2360
243,2135243,20696,-2228,1032,20841.15,24.67,-1.00,-1.0,2362
248,2135248,19092,508,568,19107.20,24.67,-1.00,-1.0,2456
251,2135251,18564,108,-1012,18591.88,24.77,-1.00,-1.0,2361
253,2135253,16212,-352,1752,16310.19,24.62,-1.00,-1.0,2452
256,2135256,17876,-2676,-764,18091.33,24.67,-1.00,-1.0,2368
259,2135259,16664,-200,112,16665.58,24.67,-1.00,-1.0,2449
261,2135261,20948,820,464,20969.18,24.67,-1.00,-1.0,2361
264,2135264,12368,908,1448,12485.54,24.72,-1.00,-1.0,2454
267,2135267,21052,-1892,704,21148.57,24.62,-1.00,-1.0,2367
272,2135272,20400,-820,1080,20445.02,24.67,-1.00,-1.0,2449
275,2135275,12740,1128,1028,12831.09,24.67,-1.00,-1.0,2372
277,2135277,17544,1072,876,17598.54,24.62,-1.00,-1.0,2362
280,2135280,17196,-1472,-400,17263.52,24.62,-1.00,-1.0,2455
283,2135283,17268,-1048,1932,17407.32,24.67,-1.00,-1.0,2367
286,2135286,15860,-1216,36,15906.59,24.53,-1.00,-1.0,2455
288,2135288,15212,376,1280,15270.39,24.62,-1.00,-1.0,2361
291,2135291,19292,-308,-404,19298.69,24.62,-1.00,-1.0,2448
294,2135294,15064,-72,2528,15274.82,24.62,-1.00,-1.0,2374
299,2135299,13128,-136,724,13148.65,24.62,-1.00,-1.0,2448
302,2135302,20852,-352,808,20870.62,24.67,-1.00,-1.0,2372
305,2135305,12220,276,804,12249.53,24.62,-1.00,-1.0,2436
307,2135307,20552,316,1908,20642.80,24.67,-1.00,-1.0,2365
310,2135310,13864,-1424,656,13952.37,24.72,-1.00,-1.0,2364
313,2135313,19204,200,2144,19324.35,24.62,-1.00,-1.0,2456
315,2135315,19316,-372,-1524,19379.60,24.72,-1.00,-1.0,2367
318,2135318,15964,800,2260,16143.01,24.58,-1.00,-1.0,2442
321,2135321,18316,-2128,-600,18448.96,24.62,-1.00,-1.0,2367
326,2135326,22028,-380,380,22034.55,24.62,-1.00,-1.0,2448
329,2135329,11604,916,1972,11805.96,24.67,-1.00,-1.0,2362
332,2135332,21360,-656,804,21385.19,24.72,-1.00,-1.0,2441
334,2135334,13544,-1524,-852,13656.08,24.53,-1.00,-1.0,2358
337,2135337,21492,-1272,200,21530.54,24.72,-1.00,-1.0,2441
340,2135340,13440,124,920,13472.02,24.67,-1.00,-1.0,2373
342,2135342,20300,-124,1112,20330.81,24.62,-1.00,-1.0,2435
345,2135345,17936,-904,-1224,18000.43,24.67,-1.00,-1.0,2365
348,2135348,16888,88,964,16915.72,24.67,-1.00,-1.0,2358
353,2135353,13612,-276,2408,13826.11,24.62,-1.00,-1.0,2464
356,2135356,20292,-648,348,20305.33,24.62,-1.00,-1.0,2367
359,2135359,13932,392,2440,14149.48,24.67,-1.00,-1.0,2452
361,2135361,20152,-724,-84,20165.18,24.62,-1.00,-1.0,2362
364,2135364,14132,200,1376,14200.24,24.58,-1.00,-1.0,2456
367,2135367,19644,-924,1260,19706.04,24.62,-1.00,-1.0,2369
370,2135370,12992,272,1448,13075.27,24.67,-1.00,-1.0,2455
372,2135372,19400,308,1276,19444.36,24.62,-1.00,-1.0,2362
377,2135377,15536,-328,2376,15720.06,24.62,-1.00,-1.0,2449
380,2135380,18600,-672,-204,18613.25,24.72,-1.00,-1.0,2359
382,2135382,15592,376,1564,15674.75,24.72,-1.00,-1.0,2363
385,2135385,20752,-468,732,20770.18,24.67,-1.00,-1.0,2449
388,2135388,12516,-916,900,12581.71,24.62,-1.00,-1.0,2365
391,2135391,21136,-1700,500,21210.15,24.67,-1.00,-1.0,2449
393,2135393,12624,-24,424,12631.14,24.62,-1.00,-1.0,2358
396,2135396,19596,520,800,19619.21,24.67,-1.00,-1.0,2450
399,2135399,14304,-876,-308,14334.11,24.67,-1.00,-1.0,2360
404,2135404,19112,-2060,-1668,19294.93,24.58,-1.00,-1.0,2455
407,2135407,16180,-228,612,16193.18,24.67,-1.00,-1.0,2359
410,2135410,18976,-24,-516,18983.03,24.67,-1.00,-1.0,2451
412,2135412,12200,168,1496,12292.53,24.67,-1.00,-1.0,2368
415,2135415,20148,-1324,860,20209.76,24.62,-1.00,-1.0,2362
418,2135418,14164,-1196,1484,14291.66,24.72,-1.00,-1.0,2437
420,2135420,19104,-924,1184,19162.95,24.67,-1.00,-1.0,2346
423,2135423,14232,584,492,14252.47,24.62,-1.00,-1.0,2443
426,2135426,19636,-84,-524,19643.17,24.62,-1.00,-1.0,2360
431,2135431,17312,-764,2312,17482.40,24.72,-1.00,-1.0,2448
434,2135434,16148,-2012,-980,16302.34,24.72,-1.00,-1.0,2372
436,2135436,18828,-452,-476,18839.44,24.67,-1.00,-1.0,2436
439,2135439,18688,-64,1040,18717.03,24.72,-1.00,-1.0,2365
442,2135442,14112,208,2672,14364.24,24.53,-1.00,-1.0,2434
445,2135445,19140,-1076,700,19183.00,24.62,-1.00,-1.0,2365
447,2135447,14512,-624,1520,14604.72,24.62,-1.00,-1.0,2437
450,2135450,20680,-568,988,20711.38,24.72,-1.00,-1.0,2368
453,2135453,12612,296,4,12615.47,24.62,-1.00,-1.0,2357
458,2135458,15220,-1936,-124,15343.14,24.67,-1.00,-1.0,2447
461,2135461,18668,-1208,1216,18746.52,24.58,-1.00,-1.0,2372
464,2135464,15484,-876,-1640,15595.23,24.58,-1.00,-1.0,2436
466,2135466,14348,1160,2404,14594.17,24.67,-1.00,-1.0,2368
469,2135469,18748,-864,-448,18773.24,24.67,-1.00,-1.0,2436
472,2135472,15488,-544,2676,15726.89,24.81,-1.00,-1.0,2373
474,2135474,19632,-872,588,19660.15,24.58,-1.00,-1.0,2435
477,2135477,11220,176,952,11261.69,24.58,-1.00,-1.0,2367
482,2135482,14328,-744,-588,14359.35,24.77,-1.00,-1.0,2451
485,2135485,20304,-480,2132,20421.27,24.62,-1.00,-1.0,2360
487,2135487,14196,-1960,1200,14380.82,24.67,-1.00,-1.0,2363
490,2135490,14472,-864,1108,14540.05,24.67,-1.00,-1.0,2444
493,2135493,20644,468,-32,20649.33,24.67,-1.00,-1.0,2365
496,2135496,13596,-52,1212,13650.01,24.58,-1.00,-1.0,2448
498,2135498,20116,-1120,-268,20148.94,24.67,-1.00,-1.0,2345
501,2135501,14908,-804,2348,15113.17,24.62,-1.00,-1.0,2454
504,2135504,20500,-1160,632,20542.52,24.77,-1.00,-1.0,2359
509,2135509,19072,308,676,19086.46,24.67,-1.00,-1.0,2449
512,2135512,15012,-696,136,15028.74,24.67,-1.00,-1.0,2359
515,2135515,19064,-1208,1108,19134.34,24.67,-1.00,-1.0,2447
517,2135517,14812,-1100,-924,14881.50,24.67,-1.00,-1.0,2361
520,2135520,16152,1156,2836,16439.78,24.58,-1.00,-1.0,2441
523,2135523,18008,-152,156,18009.32,24.62,-1.00,-1.0,2360
525,2135525,15460,-780,972,15510.15,24.67,-1.00,-1.0,2362
528,2135528,18700,-1260,-476,18748.45,24.53,-1.00,-1.0,2442
531,2135531,16660,-144,1796,16757.15,24.62,-1.00,-1.0,2372
536,2135536,13296,-280,432,13305.96,24.72,-1.00,-1.0,2449
539,2135539,20964,4,1288,21003.53,24.67,-1.00,-1.0,2360
542,2135542,13616,-1040,608,13669.19,24.62,-1.00,-1.0,2447
544,2135544,20016,-88,480,20021.95,24.67,-1.00,-1.0,2361
547,2135547,18808,-232,-84,18809.62,24.72,-1.00,-1.0,2444
550,2135550,15024,-264,1696,15121.73,24.67,-1.00,-1.0,2360
553,2135553,18960,-1744,-2120,19157.70,24.67,-1.00,-1.0,2443
555,2135555,16240,-380,764,16262.40,24.67,-1.00,-1.0,2361
558,2135558,19040,160,476,19046.62,24.62,-1.00,-1.0,2372
563,2135563,20972,-1080,876,21018.05,24.67,-1.00,-1.0,2448
566,2135566,14548,-1304,16,14606.33,24.67,-1.00,-1.0,2360
569,2135569,19320,-452,1200,19362.51,24.77,-1.00,-1.0,2440
572,2135572,14904,-484,-108,14912.25,24.67,-1.00,-1.0,2365
574,2135574,19432,80,-456,19437.51,24.67,-1.00,-1.0,2434
577,2135577,18076,216,676,18089.93,24.67,-1.00,-1.0,2365
580,2135580,15380,-992,1656,15500.67,24.77,-1.00,-1.0,2433
583,2135583,17824,-2204,-1212,18000.60,24.58,-1.00,-1.0,2364
588,2135588,19084,-728,860,19117.23,24.72,-1.00,-1.0,2453
590,2135590,13708,-140,840,13734.43,24.72,-1.00,-1.0,2370
593,2135593,20756,196,828,20773.43,24.67,-1.00,-1.0,2362
596,2135596,13532,-712,-320,13554.50,24.58,-1.00,-1.0,2438
598,2135598,20252,-276,988,20277.96,24.67,-1.00,-1.0,2364
601,2135601,16944,-1096,-528,16987.62,24.58,-1.00,-1.0,2440
604,2135604,17532,-136,2012,17647.60,24.67,-1.00,-1.0,2362
607,2135607,16568,-1672,-880,16675.39,24.67,-1.00,-1.0,2452
609,2135609,17796,-616,1404,17861.92,24.58,-1.00,-1.0,2368
614,2135614,12180,524,1524,12286.15,24.58,-1.00,-1.0,2457
617,2135617,21884,184,844,21901.04,24.72,-1.00,-1.0,2375
620,2135620,12560,-740,156,12582.75,24.58,-1.00,-1.0,2445
623,2135623,22184,-892,924,22221.14,24.62,-1.00,-1.0,2367
625,2135625,12012,-512,-324,12027.27,24.58,-1.00,-1.0,2449
628,2135628,17272,1212,1816,17409.45,24.53,-1.00,-1.0,2366
631,2135631,16692,-488,-116,16699.54,24.67,-1.00,-1.0,2362
633,2135633,17468,-676,2988,17734.60,24.67,-1.00,-1.0,2434
636,2135636,16396,-2212,212,16545.90,24.67,-1.00,-1.0,2366
641,2135641,21264,308,356,21269.21,24.62,-1.00,-1.0,2450
644,2135644,12404,-100,-100,12404.81,24.67,-1.00,-1.0,2359
647,2135647,21288,-800,908,21322.37,24.53,-1.00,-1.0,2445
649,2135649,13020,-1388,232,13095.83,24.67,-1.00,-1.0,2360
652,2135652,20884,-728,-80,20896.84,24.62,-1.00,-1.0,2428
655,2135655,16020,480,956,16055.68,24.58,-1.00,-1.0,2362
658,2135658,18376,668,2192,18518.33,24.58,-1.00,-1.0,2435
660,2135660,15024,-1488,964,15128.25,24.67,-1.00,-1.0,2366
663,2135663,18716,-1104,1844,18839.00,24.67,-1.00,-1.0,2357
668,2135668,13956,1820,2412,14279.36,24.72,-1.00,-1.0,2450
671,2135671,22064,688,32,22074.75,24.62,-1.00,-1.0,2360
674,2135674,12680,-568,376,12698.28,24.72,-1.00,-1.0,2447
676,2135676,21408,-1268,828,21461.50,24.67,-1.00,-1.0,2361
679,2135679,12008,-444,544,12028.51,24.72,-1.00,-1.0,2441
682,2135682,19680,-96,432,19684.97,24.62,-1.00,-1.0,2360
685,2135685,14708,-916,308,14739.71,24.72,-1.00,-1.0,2447
687,2135687,20024,-444,2976,20248.81,24.62,-1.00,-1.0,2360
692,2135692,14888,480,624,14908.80,24.58,-1.00,-1.0,2448
695,2135695,20996,500,-316,21004.33,24.67,-1.00,-1.0,2360
698,2135698,12724,-160,-284,12728.17,24.62,-1.00,-1.0,2362
700,2135700,21896,-1268,1420,21978.60,24.62,-1.00,-1.0,2434
703,2135703,12388,-664,2324,12621.58,24.62,-1.00,-1.0,2367
706,2135706,19856,-708,236,19870.02,24.53,-1.00,-1.0,2432
709,2135709,14696,332,-604,14712.15,24.53,-1.00,-1.0,2363
712,2135712,19852,232,1724,19928.07,24.67,-1.00,-1.0,2435
714,2135714,13652,-1904,224,13785.95,24.72,-1.00,-1.0,2366
719,2135719,19036,-144,136,19037.03,24.62,-1.00,-1.0,2448
722,2135722,15132,1656,1584,15304.54,24.62,-1.00,-1.0,2359
725,2135725,20696,540,-160,20703.66,24.62,-1.00,-1.0,2440
728,2135728,12716,-612,1292,12796.11,24.62,-1.00,-1.0,2365
730,2135730,21184,-2172,856,21312.25,24.62,-1.00,-1.0,2357
733,2135733,13720,-1252,1292,13837.46,24.67,-1.00,-1.0,2440
736,2135736,20844,164,1204,20879.39,24.72,-1.00,-1.0,2365
739,2135739,13536,12,4,13536.01,24.58,-1.00,-1.0,2441
741,2135741,20636,-424,1480,20693.35,24.67,-1.00,-1.0,2365
746,2135746,17540,-112,1364,17593.31,24.58,-1.00,-1.0,2449
749,2135749,16532,-632,-264,16546.18,24.62,-1.00,-1.0,2361
752,2135752,12160,372,900,12198.93,24.67,-1.00,-1.0,2439
755,2135755,21276,-368,424,21283.41,24.72,-1.00,-1.0,2366
757,2135757,12968,-640,1364,13055.23,24.67,-1.00,-1.0,2435
760,2135760,20840,-988,1080,20891.34,24.62,-1.00,-1.0,2366
763,2135763,11960,-500,-296,11974.11,24.77,-1.00,-1.0,2364
766,2135766,22708,-20,1136,22736.41,24.62,-1.00,-1.0,2450
769,2135769,11628,-912,1192,11724.46,24.67,-1.00,-1.0,2361
773,2135773,16268,-644,-964,16309.26,24.58,-1.00,-1.0,2448
776,2135776,17836,1344,436,17891.88,24.67,-1.00,-1.0,2360
779,2135779,21724,68,536,21730.72,24.67,-1.00,-1.0,2441
782,2135782,11144,-1568,1016,11299.54,24.67,-1.00,-1.0,2365
784,2135784,22556,-2256,772,22681.68,24.67,-1.00,-1.0,2434
787,2135787,12056,680,1496,12167.48,24.72,-1.00,-1.0,2366
790,2135790,21744,628,136,21753.49,24.58,-1.00,-1.0,2434
793,2135793,12316,-20,116,12316.56,24.62,-1.00,-1.0,2365
796,2135796,21820,-988,1852,21920.73,24.62,-1.00,-1.0,2365
801,2135801,17752,44,1384,17805.92,24.67,-1.00,-1.0,2447
803,2135803,16356,1060,348,16394.01,24.67,-1.00,-1.0,2363
806,2135806,17852,616,1976,17971.59,24.72,-1.00,-1.0,2440
809,2135809,20308,-1700,28,20379.05,24.77,-1.00,-1.0,2373
812,2135812,14204,-1560,1832,14406.37,24.67,-1.00,-1.0,2435
814,2135814,19840,-388,912,19864.74,24.67,-1.00,-1.0,2367
817,2135817,12132,356,-948,12174.19,24.67,-1.00,-1.0,2433
820,2135820,22248,436,-288,22254.13,24.67,-1.00,-1.0,2365
825,2135825,18488,-1640,2356,18709.53,24.67,-1.00,-1.0,2449
827,2135827,15268,-996,-344,15304.32,24.62,-1.00,-1.0,2363
830,2135830,19364,884,-144,19384.70,24.67,-1.00,-1.0,2441
833,2135833,19500,60,360,19503.42,24.62,-1.00,-1.0,2362
835,2135835,13780,-1472,2088,14014.81,24.67,-1.00,-1.0,2361
838,2135838,19912,-2488,420,20071.23,24.58,-1.00,-1.0,2437
841,2135841,12276,-640,556,12305.24,24.67,-1.00,-1.0,2366
844,2135844,21024,928,-132,21044.88,24.58,-1.00,-1.0,2447
847,2135847,12852,40,-52,12852.17,24.62,-1.00,-1.0,2358
851,2135851,15748,-2020,-52,15877.11,24.67,-1.00,-1.0,2448
854,2135854,18704,-680,276,18718.39,24.67,-1.00,-1.0,2361
857,2135857,18804,256,728,18819.83,24.67,-1.00,-1.0,2439
860,2135860,14132,56,672,14148.08,24.67,-1.00,-1.0,2364
862,2135862,18800,-2532,-932,18992.62,24.58,-1.00,-1.0,2356
865,2135865,14288,-1020,2096,14476.90,24.67,-1.00,-1.0,2441
868,2135868,19980,-980,808,20020.33,24.67,-1.00,-1.0,2366
871,2135871,13100,1184,132,13154.06,24.58,-1.00,-1.0,2433
874,2135874,20200,208,-448,20206.04,24.67,-1.00,-1.0,2364
878,2135878,19372,-1672,2496,19603.57,24.72,-1.00,-1.0,2449
881,2135881,14220,-860,628,14259.82,24.67,-1.00,-1.0,2360
884,2135884,19908,300,232,19911.61,24.62,-1.00,-1.0,2439
887,2135887,16812,176,348,16816.52,24.67,-1.00,-1.0,2364
889,2135889,16800,-56,3184,17099.15,24.62,-1.00,-1.0,2434
892,2135892,17060,-2468,-784,17255.41,24.67,-1.00,-1.0,2367
895,2135895,13676,-152,1740,13787.08,24.72,-1.00,-1.0,2365
898,2135898,20424,-356,-640,20437.12,24.72,-1.00,-1.0,2447
901,2135901,12748,244,772,12773.68,24.62,-1.00,-1.0,2433
906,2135906,13388,-1192,824,13466.19,24.62,-1.00,-1.0,2449
908,2135908,20020,-812,1872,20123.72,24.72,-1.00,-1.0,2364
911,2135911,12936,-196,-720,12957.50,24.58,-1.00,-1.0,2450
914,2135914,21460,80,176,21460.87,24.62,-1.00,-1.0,2372
917,2135917,15648,-1156,224,15692.24,24.58,-1.00,-1.0,2444
919,2135919,18272,-1016,3012,18546.44,24.62,-1.00,-1.0,2364
922,2135922,16108,-1028,-500,16148.51,24.67,-1.00,-1.0,2451
925,2135925,17784,1576,1580,17923.47,24.72,-1.00,-1.0,2364
930,2135930,13616,-176,2728,13887.71,24.62,-1.00,-1.0,2443
933,2135933,21900,-2036,808,22009.27,24.62,-1.00,-1.0,2371
935,2135935,12616,-1168,1384,12745.32,24.72,-1.00,-1.0,2363
938,2135938,21064,492,508,21075.87,24.67,-1.00,-1.0,2445
941,2135941,16000,364,-1096,16041.62,24.67,-1.00,-1.0,2372
944,2135944,18272,564,2504,18451.40,24.67,-1.00,-1.0,2449
946,2135946,15940,-1536,56,16013.93,24.67,-1.00,-1.0,2369
949,2135949,18280,-1168,980,18343.47,24.67,-1.00,-1.0,2446
952,2135952,18712,-608,116,18722.23,24.67,-1.00,-1.0,2372
957,2135957,20368,-744,-1160,20414.57,24.53,-1.00,-1.0,2444
959,2135959,14944,-928,1752,15074.94,24.62,-1.00,-1.0,2351
962,2135962,19172,-1972,484,19279.23,24.67,-1.00,-1.0,2436
965,2135965,14220,1160,1212,14318.62,24.62,-1.00,-1.0,2364
968,2135968,19888,1484,576,19951.61,24.62,-1.00,-1.0,2442
970,2135970,14440,-520,380,14454.36,24.62,-1.00,-1.0,2365
973,2135973,19900,-1776,1908,20069.99,24.58,-1.00,-1.0,2360
976,2135976,16464,-2144,-288,16605.51,24.67,-1.00,-1.0,2442
979,2135979,17936,1420,1212,18032.90,24.72,-1.00,-1.0,2373
984,2135984,19084,-704,3584,19430.38,24.72,-1.00,-1.0,2443
987,2135987,18268,-3132,752,18549.79,24.72,-1.00,-1.0,2363
989,2135989,15184,-644,944,15226.94,24.62,-1.00,-1.0,2437
992,2135992,19244,620,-812,19271.10,24.77,-1.00,-1.0,2366
995,2135995,14164,772,1548,14269.24,24.72,-1.00,-1.0,2435
998,2135998,21072,-1208,392,21110.24,24.48,-1.00,-1.0,2364
1000,2136000,14068,-1100,2600,14348.47,24.62,-1.00,-1.0,2437
1003,2136003,19452,-860,1172,19506.24,24.67,-1.00,-1.0,2367
1008,2136008,18428,1540,1244,18534.03,24.67,-1.00,-1.0,2459
1011,2136011,18268,-1440,-1020,18353.03,24.67,-1.00,-1.0,2371
1013,2136013,16304,-2240,2420,16634.13,24.72,-1.00,-1.0,2368
1016,2136016,18048,-1424,-816,18122.47,24.62,-1.00,-1.0,2436
1019,2136019,17316,2404,2060,17603.03,24.62,-1.00,-1.0,2351
1022,2136022,18304,172,-1468,18363.58,24.62,-1.00,-1.0,2446
1024,2136024,14900,-572,1624,14999.15,24.62,-1.00,-1.0,2373
1027,2136027,19160,-2676,160,19346.63,24.72,-1.00,-1.0,2435
1030,2136030,15696,64,1920,15813.12,24.72,-1.00,-1.0,2368
1035,2136035,13764,72,-52,13764.29,24.53,-1.00,-1.0,2471
1038,2136038,18916,308,2600,19096.33,24.62,-1.00,-1.0,2363
1040,2136040,15656,-1748,240,15755.11,24.58,-1.00,-1.0,2434
1043,2136043,18580,-272,1776,18666.67,24.62,-1.00,-1.0,2365
1046,2136046,15156,220,-1508,15232.43,24.58,-1.00,-1.0,2433
1049,2136049,15408,1848,2392,15701.70,24.62,-1.00,-1.0,2364
1051,2136051,18460,-1664,-828,18553.33,24.72,-1.00,-1.0,2434
1054,2136054,16156,-1728,1996,16370.29,24.72,-1.00,-1.0,2367
1057,2136057,19160,-1100,8,19191.55,24.62,-1.00,-1.0,2360
1062,2136062,19152,1228,176,19192.13,24.62,-1.00,-1.0,2451
1064,2136064,14312,244,928,14344.13,24.72,-1.00,-1.0,2368
1067,2136067,19812,-1696,1692,19956.32,24.62,-1.00,-1.0,2446
1070,2136070,13844,-1612,712,13955.71,24.62,-1.00,-1.0,2364
1073,2136073,16452,624,2032,16588.75,24.53,-1.00,-1.0,2448
1075,2136075,17560,1116,-748,17611.32,24.62,-1.00,-1.0,2369
1078,2136078,17304,212,2748,17522.12,24.62,-1.00,-1.0,2448
1081,2136081,16696,-2668,460,16914.08,24.67,-1.00,-1.0,2430
1086,2136086,19884,180,-944,19907.21,24.62,-1.00,-1.0,2450
1089,2136089,12828,1584,696,12944.15,24.62,-1.00,-1.0,2367
1091,2136091,20344,-1428,-820,20410.54,24.67,-1.00,-1.0,2439
1094,2136094,13576,-1396,2580,13889.31,24.72,-1.00,-1.0,2369
1097,2136097,20632,-2008,168,20730.16,24.62,-1.00,-1.0,2438
1100,2136100,14384,-300,-1800,14499.29,24.62,-1.00,-1.0,2371
1102,2136102,20084,1512,-460,20146.09,24.67,-1.00,-1.0,2362
1105,2136105,13372,-504,1172,13432.72,24.77,-1.00,-1.0,2436
1108,2136108,20128,-2688,1340,20350.86,24.62,-1.00,-1.0,2370
1113,2136113,15840,1792,2164,16087.25,24.62,-1.00,-1.0,2449
1116,2136116,21664,700,-1304,21714.50,24.62,-1.00,-1.0,2371
1118,2136118,12620,780,2636,12915.93,24.67,-1.00,-1.0,2441
1121,2136121,21840,-1956,1132,21956.62,24.62,-1.00,-1.0,2383
1124,2136124,12176,712,3000,12560.33,24.58,-1.00,-1.0,2443
1127,2136127,20360,-128,-976,20383.78,24.62,-1.00,-1.0,2374
1129,2136129,13304,-8,492,13313.10,24.67,-1.00,-1.0,2441
1132,2136132,20528,-2068,520,20638.46,24.62,-1.00,-1.0,2381
1137,2136137,17076,80,1152,17115.00,24.72,-1.00,-1.0,2445
1140,2136140,16044,1536,-708,16132.90,24.72,-1.00,-1.0,2373
1143,2136143,14376,1116,1360,14483.25,24.62,-1.00,-1.0,2439
1145,2136145,19316,-2804,-912,19539.75,24.62,-1.00,-1.0,2369
1148,2136148,15444,-1292,2128,15643.36,24.62,-1.00,-1.0,2366
1151,2136151,20676,-472,624,20690.80,24.67,-1.00,-1.0,2449
1153,2136153,12072,1232,900,12168.03,24.62,-1.00,-1.0,2378
1156,2136156,20668,-1120,-752,20711.98,24.58,-1.00,-1.0,2444
1159,2136159,13952,-472,2636,14206.67,24.67,-1.00,-1.0,2366
1164,2136164,14304,-648,-1092,14360.25,24.67,-1.00,-1.0,2448
1167,2136167,16904,1496,2388,17137.26,24.67,-1.00,-1.0,2368
1169,2136169,17532,-804,-388,17554.71,24.67,-1.00,-1.0,2437
1172,2136172,16968,-1328,1420,17079.02,24.67,-1.00,-1.0,2368
1175,2136175,16896,-1356,-1020,16980.99,24.67,-1.00,-1.0,2438
1178,2136178,14688,1068,2120,14878.59,24.58,-1.00,-1.0,2369
1180,2136180,18888,-548,-388,18899.93,24.67,-1.00,-1.0,2440
1183,2136183,14708,-416,2900,14996.94,24.58,-1.00,-1.0,2374
1188,2136188,13284,-632,1140,13347.80,24.67,-1.00,-1.0,2462
1191,2136191,20660,192,-808,20676.69,24.62,-1.00,-1.0,2373
1194,2136194,15296,880,-1412,15386.22,24.67,-1.00,-1.0,2447
1196,2136196,18776,368,1904,18875.88,24.67,-1.00,-1.0,2370
1199,2136199,15200,-2652,280,15432.16,24.58,-1.00,-1.0,2364
1202,2136202,18916,-1268,920,18980.76,24.62,-1.00,-1.0,2438
1204,2136204,19196,-32,0,19196.03,24.58,-1.00,-1.0,2370
1207,2136207,14884,1980,2548,15229.78,24.72,-1.00,-1.0,2438
1210,2136210,18816,-1668,-1276,18932.84,24.62,-1.00,-1.0,2366
1215,2136215,21104,-2076,524,21212.34,24.62,-1.00,-1.0,2446
1218,2136218,12004,852,1528,12130.82,24.62,-1.00,-1.0,2370
1220,2136220,20072,1084,-828,20118.29,24.62,-1.00,-1.0,2424
1223,2136223,14368,-392,-1552,14456.89,24.62,-1.00,-1.0,2366
1226,2136226,20680,-1492,1868,20817.73,24.62,-1.00,-1.0,2442
1229,2136229,13776,-1940,900,13941.01,24.58,-1.00,-1.0,2367
1231,2136231,16120,-104,1608,16200.34,24.72,-1.00,-1.0,2437
1234,2136234,18700,660,-896,18733.08,24.53,-1.00,-1.0,2365
1239,2136239,20552,-2108,-724,20672.51,24.58,-1.00,-1.0,2457
1242,2136242,14124,-944,2684,14407.72,24.58,-1.00,-1.0,2370
1244,2136244,19576,-1100,244,19608.40,24.62,-1.00,-1.0,2363
1247,2136247,13260,600,-568,13285.71,24.62,-1.00,-1.0,2437
1250,2136250,20540,-148,-488,20546.33,24.67,-1.00,-1.0,2367
1253,2136253,13768,-1360,1680,13936.64,24.62,-1.00,-1.0,2434
1255,2136255,17708,-2156,1560,17906.85,24.62,-1.00,-1.0,2369
1258,2136258,16520,-892,-1476,16609.78,24.72,-1.00,-1.0,2438
1261,2136261,18280,2012,1276,18434.61,24.67,-1.00,-1.0,2374
1266,2136266,14948,-1428,2604,15240.17,24.77,-1.00,-1.0,2433
1269,2136269,20700,-2652,1852,20951.21,24.77,-1.00,-1.0,2370
1271,2136271,12572,-228,780,12598.24,24.62,-1.00,-1.0,2445
1274,2136274,20676,1400,-1412,20771.39,24.77,-1.00,-1.0,2383
1277,2136277,12628,-292,-444,12639.18,24.77,-1.00,-1.0,2442
1280,2136280,18420,-1388,2656,18662.19,24.77,-1.00,-1.0,2372
1282,2136282,16432,-2916,1232,16734.14,24.62,-1.00,-1.0,2446
1285,2136285,17964,-248,332,17968.78,24.58,-1.00,-1.0,2381
1290,2136290,14196,1468,1452,14345.37,24.62,-1.00,-1.0,2446
1293,2136293,19240,-2996,-1264,19512.85,24.62,-1.00,-1.0,2366
1295,2136295,14248,-1468,2948,14623.65,24.62,-1.00,-1.0,2361
1298,2136298,19440,-764,868,19474.36,24.67,-1.00,-1.0,2438
1301,2136301,13416,956,-68,13450.19,24.62,-1.00,-1.0,2367
1303,2136303,18924,1284,1364,19016.49,24.58,-1.00,-1.0,2438
1306,2136306,14824,-1696,684,14936.37,24.62,-1.00,-1.0,2366
1309,2136309,19048,-2360,1336,19240.08,24.62,-1.00,-1.0,2438
1312,2136312,14384,-708,-1672,14498.15,24.62,-1.00,-1.0,2375
1317,2136317,17572,440,-304,17580.14,24.62,-1.00,-1.0,2459
1320,2136320,16620,-1400,2600,16880.30,24.67,-1.00,-1.0,2374
1323,2136323,17516,-3008,-68,17772.53,24.62,-1.00,-1.0,2452
1325,2136325,13992,0,1976,14130.84,24.62,-1.00,-1.0,2376
1328,2136328,20112,384,-1248,20154.34,24.72,-1.00,-1.0,2445
1331,2136331,12748,116,1104,12796.24,24.77,-1.00,-1.0,2369
1334,2136334,20908,-1972,408,21004.75,24.62,-1.00,-1.0,2451
1336,2136336,13952,-2036,580,14111.70,24.72,-1.00,-1.0,2378
1339,2136339,20284,-972,-184,20308.11,24.72,-1.00,-1.0,2365
1344,2136344,16388,1144,1544,16500.28,24.72,-1.00,-1.0,2458
1347,2136347,17500,-1636,-32,17576.33,24.58,-1.00,-1.0,2373
1350,2136350,17396,-1492,1868,17559.51,24.62,-1.00,-1.0,2450
1352,2136352,20084,-960,1496,20162.51,24.62,-1.00,-1.0,2377
1355,2136355,12928,860,1136,13006.28,24.72,-1.00,-1.0,2446
1358,2136358,19844,-316,-1292,19888.53,24.62,-1.00,-1.0,2370
1361,2136361,13844,-884,2076,14026.67,24.62,-1.00,-1.0,2448
1363,2136363,20884,-1984,1624,21040.79,24.62,-1.00,-1.0,2375
1368,2136368,17324,1760,2096,17538.87,24.62,-1.00,-1.0,2456
1371,2136371,16464,1256,144,16512.47,24.72,-1.00,-1.0,2374
1374,2136374,16880,336,3856,17318.08,24.62,-1.00,-1.0,2428
1377,2136377,16920,-3408,660,17272.42,24.72,-1.00,-1.0,2367
1379,2136379,13220,-1508,1676,13410.87,24.62,-1.00,-1.0,2448
1382,2136382,20884,292,388,20889.64,24.72,-1.00,-1.0,2374
1385,2136385,12244,1436,604,12342.71,24.72,-1.00,-1.0,2446
1387,2136387,20988,-1376,-372,21036.35,24.53,-1.00,-1.0,2366
1390,2136390,13520,-2044,640,13688.61,24.67,-1.00,-1.0,2362
1395,2136395,17520,84,784,17537.73,24.72,-1.00,-1.0,2457
1398,2136398,16200,1924,1732,16405.54,24.72,-1.00,-1.0,2371
1401,2136401,17140,-1200,468,17188.33,24.62,-1.00,-1.0,2427
1404,2136404,17164,-2172,2268,17448.91,24.62,-1.00,-1.0,2367
1406,2136406,19936,-1792,816,20033.00,24.62,-1.00,-1.0,2448
1409,2136409,13500,2128,1996,13811.68,24.62,-1.00,-1.0,2374
1412,2136412,19004,1104,-432,19040.94,24.62,-1.00,-1.0,2441
1414,2136414,14336,-1008,1348,14434.47,24.62,-1.00,-1.0,2367
1419,2136419,13344,-1424,300,13423.12,24.62,-1.00,-1.0,2432
1422,2136422,17920,1416,1212,18016.67,24.67,-1.00,-1.0,2366
1425,2136425,16816,1204,-236,16860.70,24.62,-1.00,-1.0,2438
1428,2136428,17616,-300,3036,17878.22,24.67,-1.00,-1.0,2367
1430,2136430,16776,-2896,1608,17099.90,24.62,-1.00,-1.0,2423
1433,2136433,13752,-924,2316,13976.23,24.58,-1.00,-1.0,2366
1436,2136436,19832,1048,-68,19859.79,24.67,-1.00,-1.0,2368
1439,2136439,13500,960,456,13541.77,24.72,-1.00,-1.0,2438
1441,2136441,20720,-28,1296,20760.51,24.62,-1.00,-1.0,2368
1446,2136446,17324,-1404,1628,17456.88,24.58,-1.00,-1.0,2445
1449,2136449,17480,424,-108,17485.47,24.67,-1.00,-1.0,2366
1452,2136452,16824,1788,2060,17043.70,24.67,-1.00,-1.0,2434
1454,2136454,19820,-1216,-1300,19899.78,24.58,-1.00,-1.0,2354
1457,2136457,15340,-1332,2376,15579.96,24.58,-1.00,-1.0,2439
1460,2136460,19232,-1676,928,19327.18,24.67,-1.00,-1.0,2369
1463,2136463,14364,2032,2716,14759.07,24.67,-1.00,-1.0,2433
1465,2136465,20152,716,-1048,20191.93,24.67,-1.00,-1.0,2374
1470,2136470,18796,-964,2736,19018.53,24.62,-1.00,-1.0,2445
1473,2136473,14764,-2044,296,14907.76,24.58,-1.00,-1.0,2369
1476,2136476,19756,44,760,19770.66,24.58,-1.00,-1.0,2444
1478,2136478,18340,332,-520,18350.37,24.67,-1.00,-1.0,2371
1481,2136481,14804,592,2328,14997.62,24.62,-1.00,-1.0,2366
1484,2136484,19864,-2304,528,20004.14,24.62,-1.00,-1.0,2448
1486,2136486,14356,-260,2772,14623.49,24.72,-1.00,-1.0,2366
1489,2136489,22588,-552,-332,22597.18,24.67,-1.00,-1.0,2453
1492,2136492,10880,988,104,10925.26,24.62,-1.00,-1.0,2369
1497,2136497,14700,-2052,572,14853.55,24.67,-1.00,-1.0,2460
1500,2136500,19444,-1876,764,19549.22,24.67,-1.00,-1.0,2369
1503,2136503,15388,-296,-1272,15443.32,24.67,-1.00,-1.0,2451
1505,2136505,12688,1544,1528,12872.61,24.77,-1.00,-1.0,2377
1508,2136508,20760,-1172,-604,20801.83,24.72,-1.00,-1.0,2445
1511,2136511,13424,-800,2652,13706.82,24.67,-1.00,-1.0,2369
1514,2136514,22104,-1948,36,22189.70,24.67,-1.00,-1.0,2449
1516,2136516,9612,220,2148,9851.54,24.67,-1.00,-1.0,2376
1521,2136521,14800,228,-1488,14876.36,24.67,-1.00,-1.0,2445
1524,2136524,20172,28,2536,20330.81,24.67,-1.00,-1.0,2366
1527,2136527,13932,-3120,332,14280.94,24.67,-1.00,-1.0,2367
1529,2136529,19528,-460,676,19545.11,24.62,-1.00,-1.0,2441
1532,2136532,21100,696,-300,21113.61,24.67,-1.00,-1.0,2381
1535,2136535,13088,1160,1596,13235.88,24.62,-1.00,-1.0,2438
1538,2136538,20624,-2564,-904,20802.42,24.67,-1.00,-1.0,2373
1540,2136540,14584,-804,3564,15034.68,24.62,-1.00,-1.0,2441
1543,2136543,23376,-1552,832,23442.23,24.67,-1.00,-1.0,2378
1548,2136548,20996,1856,860,21095.41,24.67,-1.00,-1.0,2445
1551,2136551,13144,-1136,1076,13236.80,24.67,-1.00,-1.0,2367
1554,2136554,20356,-2504,1072,20537.43,24.67,-1.00,-1.0,2444
1556,2136556,13492,-1064,-1868,13662.20,24.67,-1.00,-1.0,2368
1559,2136559,14508,2412,2128,14860.29,24.58,-1.00,-1.0,2445
1562,2136562,19436,-196,164,19437.68,24.67,-1.00,-1.0,2366
1565,2136565,13464,-940,2396,13707.80,24.67,-1.00,-1.0,2445
1567,2136567,21080,-2532,-276,21233.31,24.67,-1.00,-1.0,2367
1572,2136572,22688,136,96,22688.61,24.72,-1.00,-1.0,2446
1575,2136575,13380,300,-580,13395.92,24.53,-1.00,-1.0,2365
1578,2136578,21656,20,1644,21718.32,24.67,-1.00,-1.0,2369
1581,2136581,12796,-1460,1532,12969.82,24.67,-1.00,-1.0,2439
1583,2136583,14592,-836,1504,14693.11,24.67,-1.00,-1.0,2367
1586,2136586,19692,392,52,19695.97,24.67,-1.00,-1.0,2437
1589,2136589,15272,708,1704,15383.07,24.58,-1.00,-1.0,2366
1591,2136591,18500,-2992,-2052,18852.39,24.58,-1.00,-1.0,2439
1594,2136594,16592,-352,1888,16702.78,24.62,-1.00,-1.0,2374
1599,2136599,9452,828,808,9522.54,24.62,-1.00,-1.0,2455
1602,2136602,22252,380,1024,22278.79,24.62,-1.00,-1.0,2382
1605,2136605,11532,-1712,1036,11704.33,24.72,-1.00,-1.0,2441
1608,2136608,21840,-1976,128,21929.58,24.67,-1.00,-1.0,2375
1610,2136610,11876,-100,-976,11916.46,24.62,-1.00,-1.0,2444
1613,2136613,15904,1500,1548,16049.41,24.62,-1.00,-1.0,2381
1616,2136616,18076,-524,56,18083.68,24.62,-1.00,-1.0,2362
1618,2136618,15032,-808,2672,15289.00,24.67,-1.00,-1.0,2438
1621,2136621,18912,-2084,-1220,19065.55,24.62,-1.00,-1.0,2355
1626,2136626,22228,-464,452,22237.44,24.62,-1.00,-1.0,2455
1629,2136629,12168,-728,-680,12208.71,24.62,-1.00,-1.0,2382
1632,2136632,21972,-736,952,22004.93,24.72,-1.00,-1.0,2438
1635,2136635,12264,-984,684,12322.41,24.62,-1.00,-1.0,2374
1637,2136637,21552,-444,-152,21557.11,24.62,-1.00,-1.0,2439
1640,2136640,18480,-16,-460,18485.73,24.62,-1.00,-1.0,2381
1643,2136643,16052,412,1736,16150.86,24.62,-1.00,-1.0,2438
1646,2136646,17976,-2244,544,18123.69,24.62,-1.00,-1.0,2370
1651,2136651,23156,36,1332,23194.31,24.62,-1.00,-1.0,2445
1653,2136653,9420,1052,684,9503.21,24.62,-1.00,-1.0,2369
1656,2136656,22896,204,472,22901.77,24.53,-1.00,-1.0,2364
1659,2136659,11620,-1836,636,11781.33,24.67,-1.00,-1.0,2449
1661,2136661,22532,-1336,1012,22594.25,24.62,-1.00,-1.0,2377
1664,2136664,20388,-792,-480,20409.02,24.67,-1.00,-1.0,2438
1667,2136667,14224,1276,984,14314.98,24.62,-1.00,-1.0,2370
1670,2136670,19600,-208,508,19607.69,24.67,-1.00,-1.0,2446
1672,2136672,13384,-704,3348,13814.35,24.67,-1.00,-1.0,2367
1677,2136677,11120,240,1956,11293.27,24.62,-1.00,-1.0,2472
1680,2136680,19452,188,172,19453.67,24.62,-1.00,-1.0,2383
1683,2136683,14172,64,-1120,14216.33,24.58,-1.00,-1.0,2438
1686,2136686,20016,-852,1172,20068.38,24.62,-1.00,-1.0,2376
1688,2136688,14260,-2372,-88,14456.20,24.67,-1.00,-1.0,2426
1691,2136691,15404,380,3208,15739.09,24.72,-1.00,-1.0,2381
1694,2136694,19500,460,-320,19508.05,24.58,-1.00,-1.0,2361
1697,2136697,13964,1760,2208,14246.62,24.62,-1.00,-1.0,2439
1699,2136699,19584,-2208,388,19711.90,24.48,-1.00,-1.0,2366
1704,2136704,22936,-1164,728,22977.05,24.58,-1.00,-1.0,2456
1707,2136707,14524,-284,-1812,14639.35,24.67,-1.00,-1.0,2381
1710,2136710,20272,1008,216,20298.20,24.67,-1.00,-1.0,2438
1713,2136713,14988,-1364,-348,15053.96,24.67,-1.00,-1.0,2374
1715,2136715,19472,-1636,1860,19628.93,24.58,-1.00,-1.0,2439
1718,2136718,21228,-2244,-576,21354.05,24.67,-1.00,-1.0,2381
1721,2136721,13008,1800,2012,13285.19,24.67,-1.00,-1.0,2438
1724,2136724,20372,688,948,20405.65,24.58,-1.00,-1.0,2376
1729,2136729,22292,-2800,1124,22495.26,24.67,-1.00,-1.0,2445
1731,2136731,12152,-400,2020,12325.24,24.62,-1.00,-1.0,2368
1734,2136734,18088,728,-628,18113.53,24.67,-1.00,-1.0,2452
1737,2136737,16524,1392,-1300,16633.41,24.72,-1.00,-1.0,2376
1740,2136740,18252,-268,2172,18382.73,24.67,-1.00,-1.0,2449
1742,2136742,16236,-2936,484,16506.42,24.62,-1.00,-1.0,2371
1745,2136745,14276,-484,2880,14571.64,24.77,-1.00,-1.0,2349
1748,2136748,20432,540,12,20439.14,24.58,-1.00,-1.0,2446
1750,2136750,12324,1392,1784,12530.02,24.62,-1.00,-1.0,2367
1755,2136755,12804,-1396,2432,13107.47,24.72,-1.00,-1.0,2447
1758,2136758,20500,-2144,148,20612.34,24.62,-1.00,-1.0,2369
1761,2136761,17208,-60,-688,17221.85,24.62,-1.00,-1.0,2437
1764,2136764,18092,1580,1112,18194.87,24.72,-1.00,-1.0,2368
1766,2136766,16172,-1248,-880,16243.94,24.72,-1.00,-1.0,2437
1769,2136769,18536,-1368,2420,18743.29,24.62,-1.00,-1.0,2366
1772,2136772,20252,-2400,-468,20399.08,24.62,-1.00,-1.0,2437
1775,2136775,14244,1084,1820,14400.66,24.62,-1.00,-1.0,2367
1780,2136780,12728,-424,-496,12744.72,24.62,-1.00,-1.0,2444
1782,2136782,21972,-1400,1668,22079.65,24.58,-1.00,-1.0,2367
1785,2136785,12352,-1320,1424,12503.68,24.72,-1.00,-1.0,2424
1788,2136788,17916,-188,704,17930.81,24.62,-1.00,-1.0,2369
1791,2136791,16888,1056,304,16923.71,24.62,-1.00,-1.0,2437
1793,2136793,16992,528,1168,17040.28,24.67,-1.00,-1.0,2374
1796,2136796,21380,-1032,528,21411.40,24.53,-1.00,-1.0,2360
1799,2136799,12508,-1312,2120,12754.05,24.58,-1.00,-1.0,2445
1802,2136802,21360,-256,1572,21419.30,24.58,-1.00,-1.0,2375
1807,2136807,21712,740,788,21738.89,24.67,-1.00,-1.0,2452
1809,2136809,13132,-984,140,13169.56,24.62,-1.00,-1.0,2353
1812,2136812,20832,-936,1740,20925.48,24.67,-1.00,-1.0,2439
1815,2136815,19908,-1240,172,19947.32,24.62,-1.00,-1.0,2367
1818,2136818,14152,944,2124,14341.60,24.58,-1.00,-1.0,2444
1820,2136820,19136,28,504,19142.66,24.72,-1.00,-1.0,2366
1823,2136823,13412,-592,1504,13509.04,24.58,-1.00,-1.0,2440
1826,2136826,23928,-1600,1116,24007.39,24.62,-1.00,-1.0,2367
1831,2136831,19504,-736,216,19519.08,24.62,-1.00,-1.0,2447
1834,2136834,15556,292,-1176,15603.12,24.62,-1.00,-1.0,2367
1836,2136836,18792,512,1264,18841.42,24.62,-1.00,-1.0,2362
1839,2136839,20952,-1760,160,21026.40,24.67,-1.00,-1.0,2437
1842,2136842,12428,-224,3516,12917.72,24.62,-1.00,-1.0,2370
1844,2136844,21380,-880,960,21419.63,24.67,-1.00,-1.0,2424
1847,2136847,10620,552,1096,10690.67,24.72,-1.00,-1.0,2366
1850,2136850,22496,920,916,22533.43,24.67,-1.00,-1.0,2439
1853,2136853,12004,60,1616,12112.43,24.72,-1.00,-1.0,2367
1858,2136858,18724,-700,1532,18799.61,24.62,-1.00,-1.0,2452
1860,2136860,15888,940,1472,15983.71,24.67,-1.00,-1.0,2377
1863,2136863,18368,-444,72,18373.51,24.62,-1.00,-1.0,2437
1866,2136866,11032,-616,588,11064.82,24.62,-1.00,-1.0,2355
1869,2136869,22640,-668,1608,22706.86,24.62,-1.00,-1.0,2452
1871,2136871,11672,-684,912,11727.54,24.58,-1.00,-1.0,2377
1874,2136874,20724,-744,-776,20751.87,24.62,-1.00,-1.0,2364
1877,2136877,14580,-396,-108,14585.78,24.67,-1.00,-1.0,2442
1880,2136880,19468,248,1216,19507.52,24.72,-1.00,-1.0,2367
1884,2136884,13672,-1332,1024,13774.85,24.67,-1.00,-1.0,2445
1887,2136887,20712,1176,2048,20846.20,24.67,-1.00,-1.0,2367
1890,2136890,13004,104,-1140,13054.29,24.58,-1.00,-1.0,2437
1893,2136893,21104,-904,-240,21124.72,24.58,-1.00,-1.0,2368
1895,2136895,12960,-712,2080,13145.15,24.67,-1.00,-1.0,2437
1898,2136898,21140,-584,1396,21194.09,24.58,-1.00,-1.0,2366
1901,2136901,16828,-176,404,16833.77,24.67,-1.00,-1.0,2437
1904,2136904,17668,924,1500,17755.62,24.67,-1.00,-1.0,2367
1908,2136908,13784,-360,760,13809.63,24.67,-1.00,-1.0,2446
1911,2136911,21140,-276,2168,21252.67,24.58,-1.00,-1.0,2369
1914,2136914,12292,-1096,808,12367.19,24.62,-1.00,-1.0,2438
1917,2136917,22316,-320,1168,22348.84,24.58,-1.00,-1.0,2367
1919,2136919,12204,572,464,12226.21,24.58,-1.00,-1.0,2366
1922,2136922,20952,820,1188,21001.67,24.72,-1.00,-1.0,2450
1925,2136925,17860,-1308,-1108,17942.08,24.72,-1.00,-1.0,2374
1928,2136928,17336,-1824,1384,17486.55,24.62,-1.00,-1.0,2444
1931,2136931,17524,-1148,972,17588.44,24.67,-1.00,-1.0,2366
1936,2136936,22528,1120,-432,22559.96,24.67,-1.00,-1.0,2446
1938,2136938,12324,592,2592,12607.53,24.67,-1.00,-1.0,2370
1941,2136941,22304,-3300,1336,22586.35,24.67,-1.00,-1.0,2438
1944,2136944,12576,-1956,360,12732.29,24.67,-1.00,-1.0,2369
1947,2136947,21688,1956,892,21794.29,24.67,-1.00,-1.0,2437
1949,2136949,12264,380,140,12270.68,24.58,-1.00,-1.0,2370
1952,2136952,20448,-2184,196,20565.24,24.67,-1.00,-1.0,2437
1955,2136955,20296,-1656,2620,20531.30,24.67,-1.00,-1.0,2368
1960,2136960,24392,600,644,24407.88,24.62,-1.00,-1.0,2457
1963,2136963,10072,1020,564,10139.21,24.67,-1.00,-1.0,2425
1965,2136965,23720,-964,1972,23821.35,24.62,-1.00,-1.0,2373
1968,2136968,9896,-1320,1112,10045.38,24.67,-1.00,-1.0,2435
1971,2136971,18424,-788,-416,18445.54,24.67,-1.00,-1.0,2374
1974,2136974,16376,-100,-96,16376.59,24.67,-1.00,-1.0,2442
1976,2136976,17000,1020,1748,17120.04,24.67,-1.00,-1.0,2381
1979,2136979,17104,-2316,-152,17260.76,24.67,-1.00,-1.0,2433
1982,2136982,11184,-1192,1620,11363.41,24.58,-1.00,-1.0,2375
1987,2136987,12256,-164,-1092,12305.64,24.72,-1.00,-1.0,2448
1989,2136989,21764,1120,1172,21824.29,24.72,-1.00,-1.0,2366
1992,2136992,12956,-2324,8,13162.79,24.67,-1.00,-1.0,2453
1995,2136995,20716,-1564,752,20788.56,24.62,-1.00,-1.0,2374
1998,2136998,19820,192,1772,19899.98,24.67,-1.00,-1.0,2440
2001,2137001,12932,1028,504,12982.58,24.62,-1.00,-1.0,2366
2003,2137003,20444,-892,-436,20468.09,24.58,-1.00,-1.0,2449
2006,2137006,13576,-1196,1784,13744.85,24.62,-1.00,-1.0,2375
2011,2137011,10700,-568,-532,10728.26,24.72,-1.00,-1.0,2443
2014,2137014,18744,968,980,18794.55,24.72,-1.00,-1.0,2367
2016,2137016,15512,-520,920,15547.96,24.62,-1.00,-1.0,2364
2019,2137019,16788,-284,1012,16820.87,24.67,-1.00,-1.0,2456
2022,2137022,22280,-36,1204,22312.54,24.67,-1.00,-1.0,2375
2025,2137025,11428,0,1760,11562.73,24.67,-1.00,-1.0,2446
2027,2137027,21544,-232,2416,21680.29,24.67,-1.00,-1.0,2371
2030,2137030,11376,-1212,-108,11440.89,24.67,-1.00,-1.0,2452
2033,2137033,20756,464,1208,20796.30,24.67,-1.00,-1.0,2375
2038,2137038,15228,-764,148,15247.87,24.67,-1.00,-1.0,2448
2040,2137040,19656,416,2328,19797.75,24.72,-1.00,-1.0,2366
2043,2137043,14604,-856,764,14649.00,24.67,-1.00,-1.0,2457
2046,2137046,18796,-1188,-544,18841.36,24.62,-1.00,-1.0,2367
2049,2137049,13320,-84,1744,13433.95,24.58,-1.00,-1.0,2443
2051,2137051,20728,-244,712,20741.66,24.72,-1.00,-1.0,2370
2054,2137054,12284,-780,-352,12313.77,24.67,-1.00,-1.0,2376
2057,2137057,22040,-136,492,22045.91,24.62,-1.00,-1.0,2441
2060,2137060,15244,-1040,808,15300.78,24.58,-1.00,-1.0,2354
2065,2137065,20784,564,1736,20864.00,24.58,-1.00,-1.0,2448
2067,2137067,12984,-16,1312,13050.13,24.67,-1.00,-1.0,2366
2070,2137070,20300,-724,16,20312.91,24.67,-1.00,-1.0,2455
2073,2137073,13328,-1444,28,13406.03,24.67,-1.00,-1.0,2367
2076,2137076,20212,-288,1328,20257.63,24.58,-1.00,-1.0,2444
2078,2137078,13908,128,1348,13973.76,24.67,-1.00,-1.0,2366
2081,2137081,19980,-1880,-408,20072.40,24.58,-1.00,-1.0,2456
2084,2137084,14208,-944,228,14241.15,24.67,-1.00,-1.0,2368
2089,2137089,20864,-368,-644,20877.18,24.58,-1.00,-1.0,2450
2092,2137092,14148,-44,1428,14219.95,24.67,-1.00,-1.0,2366
2094,2137094,20388,-1272,2172,20542.79,24.67,-1.00,-1.0,2364
2097,2137097,12892,-720,-336,12916.46,24.62,-1.00,-1.0,2441
2100,2137100,20876,1240,1112,20942.34,24.72,-1.00,-1.0,2369
2102,2137102,13680,640,1632,13791.86,24.72,-1.00,-1.0,2437
2105,2137105,19076,-1620,448,19149.91,24.67,-1.00,-1.0,2369
2108,2137108,15116,-1836,220,15228.68,24.72,-1.00,-1.0,2424
2111,2137111,19364,4,424,19368.64,24.72,-1.00,-1.0,2368
2116,2137116,12872,-76,1256,12933.36,24.67,-1.00,-1.0,2448
2118,2137118,21412,-416,1072,21442.85,24.62,-1.00,-1.0,2367
2121,2137121,12468,-456,1644,12584.18,24.58,-1.00,-1.0,2441
2124,2137124,20732,-64,672,20742.99,24.72,-1.00,-1.0,2367
2127,2137127,16408,104,-68,16408.47,24.67,-1.00,-1.0,2442
2129,2137129,17496,-248,964,17524.29,24.62,-1.00,-1.0,2366
2132,2137132,16984,-1340,1168,17076.77,24.67,-1.00,-1.0,2362
2135,2137135,17244,-520,736,17267.53,24.67,-1.00,-1.0,2438
2138,2137138,16812,148,-256,16814.60,24.72,-1.00,-1.0,2367
2143,2137143,20788,-1040,8,20814.00,24.72,-1.00,-1.0,2442
2146,2137146,14548,-1668,768,14663.44,24.62,-1.00,-1.0,2367
2148,2137148,19804,-2520,-1080,19992.88,24.72,-1.00,-1.0,2443
2151,2137151,15616,-36,-632,15628.83,24.72,-1.00,-1.0,2371
2154,2137154,18744,756,-596,18768.71,24.72,-1.00,-1.0,2438
2157,2137157,17612,-288,276,17616.52,24.62,-1.00,-1.0,2372
2159,2137159,16044,-1976,628,16177.42,24.62,-1.00,-1.0,2431
2162,2137162,18196,-1160,1612,18304.06,24.72,-1.00,-1.0,2383
2167,2137167,19388,532,-112,19395.62,24.72,-1.00,-1.0,2458
2170,2137170,14360,-560,260,14373.27,24.62,-1.00,-1.0,2375
2173,2137173,17808,-1212,992,17876.74,24.62,-1.00,-1.0,2451
2175,2137175,16748,-1064,1460,16845.15,24.62,-1.00,-1.0,2372
2178,2137178,17604,-172,-216,17606.17,24.62,-1.00,-1.0,2364
2181,2137181,18880,972,624,18915.30,24.67,-1.00,-1.0,2436
2183,2137183,14876,280,808,14900.56,24.62,-1.00,-1.0,2375
2186,2137186,19736,-1444,1348,19834.62,24.67,-1.00,-1.0,2437
2189,2137189,13948,-1920,1204,14130.91,24.67,-1.00,-1.0,2369
2194,2137194,15120,976,436,15157.74,24.67,-1.00,-1.0,2428
2197,2137197,15844,576,252,15856.47,24.67,-1.00,-1.0,2366
2199,2137199,18112,-1100,664,18157.52,24.58,-1.00,-1.0,2441
2202,2137202,16872,-2024,1296,17042.32,24.67,-1.00,-1.0,2369
2205,2137205,17968,-520,-616,17986.07,24.58,-1.00,-1.0,2422
2208,2137208,14376,1524,1056,14495.07,24.67,-1.00,-1.0,2370
2210,2137210,19192,320,-420,19199.26,24.58,-1.00,-1.0,2437
2213,2137213,15384,-1364,1752,15543.41,24.62,-1.00,-1.0,2357
2218,2137218,16220,-1320,548,16282.85,24.62,-1.00,-1.0,2442
2221,2137221,17340,1384,-756,17411.56,24.58,-1.00,-1.0,2368
2224,2137224,18032,1532,-516,18104.32,24.62,-1.00,-1.0,2365
2226,2137226,16000,-1152,1256,16090.51,24.67,-1.00,-1.0,2451
2229,2137229,18876,-1652,3140,19206.56,24.62,-1.00,-1.0,2383
2232,2137232,15120,-384,516,15133.67,24.58,-1.00,-1.0,2439
2235,2137235,18784,1436,-216,18840.05,24.72,-1.00,-1.0,2372
2237,2137237,15024,1684,1608,15203.36,24.67,-1.00,-1.0,2446
2240,2137240,18692,-1800,1148,18813.53,24.62,-1.00,-1.0,2384
2245,2137245,17696,-1396,292,17753.38,24.62,-1.00,-1.0,2441
2248,2137248,16692,1156,128,16732.47,24.62,-1.00,-1.0,2374
2251,2137251,14632,1172,-88,14679.13,24.72,-1.00,-1.0,2440
2253,2137253,19228,-292,1080,19260.52,24.72,-1.00,-1.0,2369
2256,2137256,14860,-2256,1108,15071.06,24.72,-1.00,-1.0,2436
2259,2137259,19064,-772,1108,19111.77,24.62,-1.00,-1.0,2374
2262,2137262,15444,500,600,15463.74,24.62,-1.00,-1.0,2438
2264,2137264,18612,84,-360,18615.67,24.62,-1.00,-1.0,2372
2267,2137267,14904,-1232,1728,15054.34,24.53,-1.00,-1.0,2369
2272,2137272,17952,-460,204,17959.05,24.62,-1.00,-1.0,2441
2275,2137275,15840,1108,408,15883.95,24.72,-1.00,-1.0,2367
2277,2137277,19120,144,-812,19137.78,24.62,-1.00,-1.0,2441
2280,2137280,15364,-1556,1000,15474.94,24.62,-1.00,-1.0,2368
2283,2137283,19256,-2444,1048,19438.75,24.62,-1.00,-1.0,2437
2286,2137286,15452,344,1760,15555.71,24.72,-1.00,-1.0,2367
2288,2137288,17676,828,-1064,17727.34,24.62,-1.00,-1.0,2436
2291,2137291,16296,1076,268,16333.68,24.72,-1.00,-1.0,2368
2296,2137296,16992,-2704,1252,17251.29,24.72,-1.00,-1.0,2443
2299,2137299,17200,-1148,-36,17238.31,24.62,-1.00,-1.0,2367
2301,2137301,18480,1104,44,18513.00,24.72,-1.00,-1.0,2440
2304,2137304,15180,1036,52,15215.40,24.62,-1.00,-1.0,2368
2307,2137307,18988,-1036,872,19036.22,24.72,-1.00,-1.0,2436
2310,2137310,15348,-1792,2472,15648.74,24.72,-1.00,-1.0,2368
2312,2137312,17660,-1860,140,17758.23,24.58,-1.00,-1.0,2365
2315,2137315,15888,220,24,15889.54,24.62,-1.00,-1.0,2435
2318,2137318,17668,672,964,17707.04,24.67,-1.00,-1.0,2376
2323,2137323,15828,-1320,1012,15915.15,24.67,-1.00,-1.0,2441
2326,2137326,18076,-392,684,18093.18,24.62,-1.00,-1.0,2367
2328,2137328,16068,556,1684,16165.57,24.62,-1.00,-1.0,2441
2331,2137331,18220,440,1156,18261.94,24.62,-1.00,-1.0,2368
2334,2137334,15376,-628,1288,15442.63,24.62,-1.00,-1.0,2422
2337,2137337,18140,-1064,704,18184.81,24.77,-1.00,-1.0,2369
2339,2137339,16032,-708,1188,16091.54,24.72,-1.00,-1.0,2437
2342,2137342,17480,-572,-140,17489.92,24.67,-1.00,-1.0,2356
2347,2137347,16740,-312,752,16759.79,24.67,-1.00,-1.0,2456
2350,2137350,17016,-1284,1008,17094.12,24.58,-1.00,-1.0,2376
2353,2137353,15596,-964,1244,15675.21,24.67,-1.00,-1.0,2452
2355,2137355,18932,464,972,18962.61,24.67,-1.00,-1.0,2373
2358,2137358,14904,-224,736,14923.84,24.67,-1.00,-1.0,2367
2361,2137361,18544,-936,32,18567.63,24.72,-1.00,-1.0,2437
2363,2137363,16156,-716,1324,16225.97,24.62,-1.00,-1.0,2376
2366,2137366,18296,-712,1156,18346.30,24.62,-1.00,-1.0,2437
2369,2137369,15504,420,664,15523.89,24.62,-1.00,-1.0,2369
2374,2137374,17024,-752,1316,17091.34,24.62,-1.00,-1.0,2451
2377,2137377,17104,156,2092,17232.17,24.58,-1.00,-1.0,2375
2380,2137380,16860,-88,912,16884.88,24.62,-1.00,-1.0,2452
2382,2137382,15608,-336,356,15615.67,24.72,-1.00,-1.0,2379
2385,2137385,18436,-128,1256,18479.18,24.62,-1.00,-1.0,2444
2388,2137388,16076,-352,872,16103.48,24.58,-1.00,-1.0,2355
2391,2137391,18160,-1304,-208,18207.95,24.62,-1.00,-1.0,2451
2393,2137393,14764,-600,1684,14871.84,24.62,-1.00,-1.0,2377
2396,2137396,19024,-136,840,19043.02,24.62,-1.00,-1.0,2362
2401,2137401,18216,-452,884,18243.04,24.62,-1.00,-1.0,2449
2404,2137404,15392,-908,656,15432.71,24.67,-1.00,-1.0,2373
2407,2137407,18492,-500,156,18499.42,24.72,-1.00,-1.0,2452
2409,2137409,18084,-304,-352,18089.98,24.72,-1.00,-1.0,2377
2412,2137412,17092,-956,716,17133.68,24.72,-1.00,-1.0,2437
2415,2137415,17664,-1608,1276,17782.88,24.53,-1.00,-1.0,2368
2418,2137418,15984,500,1356,16049.21,24.62,-1.00,-1.0,2447
2420,2137420,19468,596,-932,19499.41,24.62,-1.00,-1.0,2377
2425,2137425,19100,-1440,1732,19232.35,24.62,-1.00,-1.0,2442
2428,2137428,14372,-1552,1944,14585.69,24.58,-1.00,-1.0,2366
2431,2137431,19588,348,-20,19591.10,24.62,-1.00,-1.0,2448
2433,2137433,16112,1692,224,16202.15,24.67,-1.00,-1.0,2368
2436,2137436,17104,-800,-332,17125.92,24.62,-1.00,-1.0,2452
2439,2137439,16612,-2120,1704,16833.20,24.58,-1.00,-1.0,2368
2442,2137442,17612,-1604,1300,17732.61,24.72,-1.00,-1.0,2364
2444,2137444,18884,-440,-116,18889.48,24.62,-1.00,-1.0,2424
2447,2137447,15640,1920,-660,15771.23,24.58,-1.00,-1.0,2369
2452,2137452,14024,-2296,1560,14296.08,24.58,-1.00,-1.0,2442
2455,2137455,20520,-2004,2036,20717.91,24.58,-1.00,-1.0,2368
2458,2137458,13752,576,-492,13772.85,24.67,-1.00,-1.0,2447
2460,2137460,18660,2728,856,18877.77,24.67,-1.00,-1.0,2368
2463,2137463,14484,92,864,14510.04,24.58,-1.00,-1.0,2437
2466,2137466,19860,-2716,3036,20273.47,24.67,-1.00,-1.0,2369
2469,2137469,13872,-1320,1220,13987.97,24.58,-1.00,-1.0,2435
2471,2137471,16476,1364,-244,16534.16,24.58,-1.00,-1.0,2371
2476,2137476,13876,-276,312,13882.25,24.58,-1.00,-1.0,2450
2479,2137479,19896,-3936,1248,20319.95,24.72,-1.00,-1.0,2382
2482,2137482,14572,-1232,1236,14676.13,24.58,-1.00,-1.0,2440
2485,2137485,19384,1432,-944,19459.73,24.62,-1.00,-1.0,2373
2487,2137487,14624,1860,-188,14743.01,24.58,-1.00,-1.0,2424
2490,2137490,18488,-1280,1252,18574.50,24.62,-1.00,-1.0,2383
2493,2137493,16140,-2524,1648,16419.08,24.67,-1.00,-1.0,2361
2495,2137495,17832,-1572,888,17923.17,24.67,-1.00,-1.0,2437
2498,2137498,15648,1328,516,15712.73,24.62,-1.00,-1.0,2369
2504,2137504,15788,-1152,1336,15886.25,24.53,-1.00,-1.0,2448
2506,2137506,18416,-2908,1728,18724.09,24.62,-1.00,-1.0,2367
2509,2137509,17232,-1544,1080,17334.71,24.67,-1.00,-1.0,2451
2512,2137512,16508,1572,336,16586.08,24.62,-1.00,-1.0,2376
2515,2137515,17384,392,-860,17409.67,24.67,-1.00,-1.0,2443
2517,2137517,17028,-1948,1432,17198.78,24.62,-1.00,-1.0,2367
2520,2137520,17856,-3128,500,18134.80,24.67,-1.00,-1.0,2448
2523,2137523,16848,-288,32,16850.49,24.53,-1.00,-1.0,2368
2528,2137528,15572,88,-396,15577.28,24.58,-1.00,-1.0,2447
2531,2137531,18068,-2444,188,18233.52,24.58,-1.00,-1.0,2376
2533,2137533,16380,-1660,1416,16524.68,24.67,-1.00,-1.0,2441
2536,2137536,18648,-660,-12,18659.68,24.58,-1.00,-1.0,2371
2539,2137539,15564,284,-912,15593.28,24.58,-1.00,-1.0,2362
2541,2137541,18876,-444,312,18883.80,24.62,-1.00,-1.0,2435
2544,2137544,15724,-1404,960,15815.72,24.67,-1.00,-1.0,2369
2547,2137547,18268,-2204,-492,18407.05,24.72,-1.00,-1.0,2436
2550,2137550,15844,-192,156,15845.93,24.58,-1.00,-1.0,2367
2555,2137555,16840,120,924,16865.76,24.48,-1.00,-1.0,2445
2557,2137557,16084,-1352,944,16168.31,24.58,-1.00,-1.0,2376
2560,2137560,18340,-1548,1532,18468.86,24.67,-1.00,-1.0,2441
2563,2137563,17264,340,992,17295.82,24.67,-1.00,-1.0,2368
2566,2137566,16048,1960,1296,16219.11,24.58,-1.00,-1.0,2447
2568,2137568,16320,40,-428,16325.66,24.67,-1.00,-1.0,2376
2571,2137571,18384,-1964,984,18514.78,24.62,-1.00,-1.0,2437
2574,2137574,16656,-1684,2024,16862.82,24.58,-1.00,-1.0,2368
2579,2137579,15848,1772,-328,15950.13,24.67,-1.00,-1.0,2454
2582,2137582,18188,-92,436,18193.46,24.67,-1.00,-1.0,2371
2584,2137584,15144,-2284,1352,15374.83,24.58,-1.00,-1.0,2350
2587,2137587,19100,-3656,-372,19450.31,24.62,-1.00,-1.0,2440
2590,2137590,16060,64,-720,16076.26,24.58,-1.00,-1.0,2363
2592,2137592,18648,1540,-1588,18778.74,24.62,-1.00,-1.0,2440
2595,2137595,15592,220,632,15606.35,24.67,-1.00,-1.0,2383
2598,2137598,18372,-3060,1816,18713.41,24.72,-1.00,-1.0,2439
2601,2137601,15372,-1688,908,15491.04,24.67,-1.00,-1.0,2373
2606,2137606,16952,1588,-188,17027.25,24.67,-1.00,-1.0,2443
2608,2137608,15432,476,1612,15523.26,24.58,-1.00,-1.0,2373
2611,2137611,18132,-2364,1396,18338.67,24.67,-1.00,-1.0,2454
2614,2137614,16992,-1740,184,17081.85,24.58,-1.00,-1.0,2375
2617,2137617,17472,1176,-124,17511.97,24.67,-1.00,-1.0,2446
2619,2137619,15984,1412,704,16061.68,24.67,-1.00,-1.0,2371
2622,2137622,17412,-1476,44,17474.50,24.67,-1.00,-1.0,2450
2625,2137625,17020,-1696,696,17118.45,24.58,-1.00,-1.0,2375
2627,2137627,17096,-40,1520,17163.48,24.72,-1.00,-1.0,2349
2632,2137632,18272,-2072,-756,18404.64,24.62,-1.00,-1.0,2451
2635,2137635,15444,-420,2656,15676.35,24.53,-1.00,-1.0,2383
2638,2137638,18604,528,120,18611.88,24.53,-1.00,-1.0,2441
2641,2137641,14804,-40,68,14804.21,24.58,-1.00,-1.0,2365
2643,2137643,19108,-1888,-616,19210.93,24.53,-1.00,-1.0,2439
2646,2137646,15488,-1400,2280,15717.40,24.62,-1.00,-1.0,2384
2649,2137649,18776,-916,1096,18830.25,24.62,-1.00,-1.0,2437
2652,2137652,14704,516,104,14713.42,24.67,-1.00,-1.0,2372
2657,2137657,16828,-676,1452,16904.05,24.58,-1.00,-1.0,2450
2659,2137659,17604,-1272,1128,17685.90,24.77,-1.00,-1.0,2368
2662,2137662,17704,-464,520,17717.71,24.58,-1.00,-1.0,2442
2665,2137665,16560,204,484,16568.33,24.58,-1.00,-1.0,2369
2668,2137668,16712,-240,468,16720.27,24.67,-1.00,-1.0,2363
2670,2137670,17748,-1332,1744,17883.16,24.72,-1.00,-1.0,2448
2673,2137673,16724,-1668,-412,16812.02,24.67,-1.00,-1.0,2376
2676,2137676,17548,560,448,17562.65,24.62,-1.00,-1.0,2439
2678,2137678,17328,656,392,17344.84,24.58,-1.00,-1.0,2368
2683,2137683,17316,-3152,-340,17603.82,24.77,-1.00,-1.0,2429
2686,2137686,15972,-204,1436,16037.72,24.58,-1.00,-1.0,2369
2689,2137689,18424,964,-900,18471.14,24.58,-1.00,-1.0,2440
2692,2137692,15260,780,956,15309.80,24.67,-1.00,-1.0,2366
2694,2137694,17964,-2860,468,18196.26,24.67,-1.00,-1.0,2424
2697,2137697,16280,-1564,2176,16499.07,24.58,-1.00,-1.0,2369
2700,2137700,17420,-500,412,17432.04,24.67,-1.00,-1.0,2439
2703,2137703,16424,804,724,16459.60,24.72,-1.00,-1.0,2366
2707,2137707,16648,-692,1688,16747.66,24.58,-1.00,-1.0,2442
2710,2137710,17236,-1216,1260,17324.72,24.67,-1.00,-1.0,2369
2713,2137713,16200,28,1072,16235.45,24.67,-1.00,-1.0,2370
2716,2137716,17612,-864,-480,17639.71,24.58,-1.00,-1.0,2439
2718,2137718,15640,-412,736,15662.73,24.67,-1.00,-1.0,2369
2721,2137721,19356,-528,1444,19416.97,24.62,-1.00,-1.0,2436
2724,2137724,14208,504,2828,14495.48,24.67,-1.00,-1.0,2375
2727,2137727,17944,-284,948,17971.27,24.72,-1.00,-1.0,2437
2729,2137729,15548,-1208,-420,15600.51,24.67,-1.00,-1.0,2368
2734,2137734,14736,124,2376,14926.84,24.62,-1.00,-1.0,2453
2737,2137737,17964,-52,708,17978.02,24.62,-1.00,-1.0,2375
2740,2137740,16280,148,368,16284.83,24.62,-1.00,-1.0,2448
2743,2137743,18712,-1564,876,18797.67,24.77,-1.00,-1.0,2369
2745,2137745,15132,168,2704,15372.61,24.62,-1.00,-1.0,2447
2748,2137748,17780,-56,-20,17780.10,24.72,-1.00,-1.0,2375
2751,2137751,16084,356,796,16107.62,24.77,-1.00,-1.0,2362
2754,2137754,16576,-1204,1360,16675.22,24.62,-1.00,-1.0,2450
2756,2137756,17892,-1716,608,17984.38,24.62,-1.00,-1.0,2369
2761,2137761,14432,1760,880,14565.53,24.67,-1.00,-1.0,2441
2764,2137764,18840,1836,960,18953.58,24.58,-1.00,-1.0,2368
2767,2137767,15556,-1720,780,15670.22,24.62,-1.00,-1.0,2440
2770,2137770,19924,-2952,2776,20331.90,24.67,-1.00,-1.0,2368
2772,2137772,14280,1204,2680,14579.11,24.67,-1.00,-1.0,2439
2775,2137775,17504,2648,-592,17713.06,24.67,-1.00,-1.0,2355
2778,2137778,16592,548,-1468,16665.83,24.72,-1.00,-1.0,2437
2781,2137781,18100,-2864,684,18337.95,24.77,-1.00,-1.0,2370
2786,2137786,16572,456,2760,16806.45,24.67,-1.00,-1.0,2445
2788,2137788,16892,1720,-1188,17020.85,24.58,-1.00,-1.0,2374
2791,2137791,16460,2448,1732,16730.93,24.67,-1.00,-1.0,2441
2794,2137794,16612,-2012,680,16747.21,24.67,-1.00,-1.0,2356
2796,2137796,18588,-2264,1660,18798.80,24.67,-1.00,-1.0,2362
2799,2137799,16280,200,976,16310.46,24.62,-1.00,-1.0,2436
2802,2137802,17472,1588,1800,17636.12,24.67,-1.00,-1.0,2371
2805,2137805,16272,-200,-268,16275.44,24.62,-1.00,-1.0,2434
2808,2137808,18524,-688,1124,18570.82,24.67,-1.00,-1.0,2377
2813,2137813,15756,-212,1584,15836.84,24.72,-1.00,-1.0,2442
2815,2137815,18072,-620,-620,18093.26,24.62,-1.00,-1.0,2369
2818,2137818,16200,604,3192,16522.52,24.67,-1.00,-1.0,2455
2821,2137821,17232,-628,1208,17285.70,24.62,-1.00,-1.0,2378
2824,2137824,16776,-124,2104,16907.88,24.67,-1.00,-1.0,2449
2826,2137826,16572,-136,528,16580.97,24.62,-1.00,-1.0,2370
2829,2137829,17820,448,1108,17860.03,24.67,-1.00,-1.0,2451
2832,2137832,16116,-520,680,16138.72,24.62,-1.00,-1.0,2375
2837,2137837,16660,-1640,564,16750.02,24.62,-1.00,-1.0,2450
2839,2137839,16792,336,1332,16848.10,24.62,-1.00,-1.0,2368
2842,2137842,17844,544,-664,17864.63,24.62,-1.00,-1.0,2362
2845,2137845,17388,408,640,17404.56,24.77,-1.00,-1.0,2447
2847,2137847,17588,-1344,1548,17707.07,24.53,-1.00,-1.0,2367
2850,2137850,17232,-1728,1844,17416.32,24.58,-1.00,-1.0,2451
2853,2137853,17104,-472,44,17110.57,24.58,-1.00,-1.0,2369
2856,2137856,17424,828,-828,17463.30,24.67,-1.00,-1.0,2442
2859,2137859,16880,276,532,16890.64,24.67,-1.00,-1.0,2367
2864,2137864,17048,-2440,1408,17279.19,24.67,-1.00,-1.0,2447
2866,2137866,17544,-1284,-824,17610.21,24.58,-1.00,-1.0,2379
2869,2137869,15956,1712,-328,16050.93,24.62,-1.00,-1.0,2447
2872,2137872,18144,1372,-288,18198.08,24.67,-1.00,-1.0,2371
2875,2137875,15580,-1324,2072,15772.84,24.62,-1.00,-1.0,2446
2877,2137877,18092,-3104,868,18376.85,24.67,-1.00,-1.0,2377
2880,2137880,16060,24,1768,16157.04,24.62,-1.00,-1.0,2444
2883,2137883,17636,748,-920,17675.81,24.67,-1.00,-1.0,2372
2886,2137886,16088,1928,1248,16251.11,24.62,-1.00,-1.0,2361
2892,2137892,16116,-2176,420,16267.66,24.67,-1.00,-1.0,2442
2895,2137895,17428,548,32,17436.64,24.62,-1.00,-1.0,2368
2898,2137898,17388,1716,376,17476.52,24.58,-1.00,-1.0,2439
2901,2137901,16032,-300,1268,16084.86,24.62,-1.00,-1.0,2366
2903,2137903,17072,-3060,672,17357.08,24.67,-1.00,-1.0,2436
2906,2137906,16912,-880,1416,16993.97,24.62,-1.00,-1.0,2355
2909,2137909,17988,276,-204,17991.27,24.67,-1.00,-1.0,2435
2912,2137912,15872,1716,1028,15997.56,24.72,-1.00,-1.0,2367
2916,2137916,16756,-1268,2668,17014.39,24.58,-1.00,-1.0,2442
2919,2137919,16884,-2140,1464,17081.93,24.62,-1.00,-1.0,2355
2922,2137922,17416,-840,844,17456.66,24.58,-1.00,-1.0,2440
2925,2137925,15912,728,-1456,15995.05,24.72,-1.00,-1.0,2366
2927,2137927,18100,228,-396,18105.77,24.77,-1.00,-1.0,2424
2930,2137930,15824,-2304,-572,16001.08,24.62,-1.00,-1.0,2368
2933,2137933,16792,-1184,2644,17040.07,24.67,-1.00,-1.0,2370
2936,2137936,17712,-1320,-196,17762.20,24.67,-1.00,-1.0,2436
2938,2137938,15460,724,636,15490.01,24.67,-1.00,-1.0,2368
2943,2137943,16512,-776,1100,16566.78,24.58,-1.00,-1.0,2442
2946,2137946,16728,-2688,-888,16965.84,24.67,-1.00,-1.0,2374
2949,2137949,18044,-336,1560,18114.43,24.67,-1.00,-1.0,2441
2951,2137951,16892,512,-908,16924.13,24.67,-1.00,-1.0,2369
2954,2137954,19116,1180,1132,19185.81,24.67,-1.00,-1.0,2435
2957,2137957,15292,-1072,-152,15330.28,24.58,-1.00,-1.0,2375
2960,2137960,18748,-1248,2512,18956.67,24.67,-1.00,-1.0,2437
2962,2137962,15220,-1188,460,15273.22,24.67,-1.00,-1.0,2369
2967,2137967,16884,-168,-188,16885.88,24.58,-1.00,-1.0,2441
2970,2137970,15320,-44,1432,15386.84,24.62,-1.00,-1.0,2355
2973,2137973,18240,-200,1248,18283.74,24.58,-1.00,-1.0,2449
2975,2137975,15556,72,2340,15731.18,24.67,-1.00,-1.0,2369
2978,2137978,18332,-1332,-488,18386.80,24.67,-1.00,-1.0,2362
2981,2137981,15300,-120,1112,15340.83,24.62,-1.00,-1.0,2446
2983,2137983,18660,364,1584,18730.65,24.58,-1.00,-1.0,2368
2986,2137986,14692,-508,1100,14741.88,24.67,-1.00,-1.0,2440
2989,2137989,16576,-1052,596,16620.04,24.77,-1.00,-1.0,2368
2994,2137994,16412,-1032,484,16451.54,24.67,-1.00,-1.0,2441
2997,2137997,16788,-536,12,16796.56,24.58,-1.00,-1.0,2366
2999,2137999,16924,440,600,16940.35,24.58,-1.00,-1.0,2440
3002,2138002,17660,-28,364,17663.77,24.58,-1.00,-1.0,2369
3005,2138005,16736,-828,1852,16858.50,24.58,-1.00,-1.0,2436
3008,2138008,16716,-2176,700,16871.56,24.77,-1.00,-1.0,2367
3010,2138010,17232,-4,444,17237.72,24.58,-1.00,-1.0,2437
3013,2138013,16340,-60,-2204,16488.08,24.77,-1.00,-1.0,2369
3018,2138018,17004,-1000,1436,17093.80,24.62,-1.00,-1.0,2452
3021,2138021,19052,-2452,1400,19260.09,24.62,-1.00,-1.0,2371
3023,2138023,14892,-904,532,14928.89,24.67,-1.00,-1.0,2348
3026,2138026,18380,1848,1424,18527.47,24.58,-1.00,-1.0,2440
3029,2138029,16552,144,-2564,16750.03,24.58,-1.00,-1.0,2369
3032,2138032,17376,-1936,140,17484.08,24.67,-1.00,-1.0,2439
3034,2138034,19268,-2564,580,19446.50,24.67,-1.00,-1.0,2375
3037,2138037,16024,532,1332,16088.06,24.58,-1.00,-1.0,2436
3040,2138040,16748,1024,-1016,16810.01,24.67,-1.00,-1.0,2370
3045,2138045,15800,-796,1092,15857.68,24.67,-1.00,-1.0,2433
3048,2138048,17348,-2920,2856,17822.35,24.72,-1.00,-1.0,2378
3050,2138050,16876,-1448,2008,17056.62,24.67,-1.00,-1.0,2448
3053,2138053,17028,1944,-1228,17182.55,24.67,-1.00,-1.0,2383
3056,2138056,16236,3008,-1368,16568.86,24.67,-1.00,-1.0,2437
3059,2138059,16884,-640,492,16903.29,24.67,-1.00,-1.0,2378
3061,2138061,18548,-3472,2928,19095.97,24.67,-1.00,-1.0,2440
3064,2138064,16256,-1752,-60,16350.25,24.67,-1.00,-1.0,2383
3069,2138069,16752,1464,-2636,17021.20,24.62,-1.00,-1.0,2444
3072,2138072,15792,-1992,2136,16059.82,24.72,-1.00,-1.0,2368
3074,2138074,18088,-4556,1380,18703.94,24.62,-1.00,-1.0,2361
3077,2138077,17120,-1396,1900,17281.59,24.67,-1.00,-1.0,2452
3080,2138080,17272,2268,-1892,17522.71,24.62,-1.00,-1.0,2377
3083,2138083,16924,2764,-720,17163.33,24.67,-1.00,-1.0,2438
3085,2138085,17064,-1996,128,17180.82,24.62,-1.00,-1.0,2367
3088,2138088,17140,-4084,2496,17795.75,24.67,-1.00,-1.0,2446
3091,2138091,17760,-572,992,17796.88,24.62,-1.00,-1.0,2376
3096,2138096,16444,2080,-1248,16621.95,24.72,-1.00,-1.0,2441
3099,2138099,17044,540,1164,17092.23,24.72,-1.00,-1.0,2367
3101,2138101,18156,-3436,1848,18570.45,24.72,-1.00,-1.0,2441
3104,2138104,16024,-1188,1624,16149.84,24.72,-1.00,-1.0,2368
3107,2138107,17724,1620,-112,17798.23,24.62,-1.00,-1.0,2435
3110,2138110,16192,1624,-600,16284.29,24.72,-1.00,-1.0,2366
3112,2138112,18012,-476,1472,18078.32,24.62,-1.00,-1.0,2437
3115,2138115,16392,-3016,484,16674.18,24.58,-1.00,-1.0,2369
3120,2138120,16652,-64,-372,16656.28,24.62,-1.00,-1.0,2441
3123,2138123,17220,1084,-620,17265.22,24.72,-1.00,-1.0,2367
3125,2138125,16360,0,-1028,16392.27,24.58,-1.00,-1.0,2362
3128,2138128,17788,-1696,844,17888.59,24.67,-1.00,-1.0,2454
3131,2138131,16880,-2120,1044,17044.61,24.67,-1.00,-1.0,2379
3134,2138134,17224,-804,2908,17486.25,24.67,-1.00,-1.0,2447
3136,2138136,16608,384,-64,16612.56,24.67,-1.00,-1.0,2372
3139,2138139,16604,984,788,16651.79,24.58,-1.00,-1.0,2451
3142,2138142,16304,-468,-276,16313.05,24.77,-1.00,-1.0,2375
3147,2138147,16964,-1876,832,17087.68,24.67,-1.00,-1.0,2446
3149,2138149,16740,-1248,116,16786.86,24.67,-1.00,-1.0,2378
3152,2138152,17140,848,-132,17161.47,24.58,-1.00,-1.0,2447
3155,2138155,17976,1016,716,18018.92,24.58,-1.00,-1.0,2372
3158,2138158,15992,-1648,1444,16141.41,24.72,-1.00,-1.0,2445
3160,2138160,16488,-1844,2040,16715.74,24.67,-1.00,-1.0,2377
3163,2138163,17288,164,48,17288.84,24.67,-1.00,-1.0,2443
3166,2138166,16884,1292,-36,16933.40,24.58,-1.00,-1.0,2373
3168,2138168,17008,280,408,17015.20,24.72,-1.00,-1.0,2365
3173,2138173,18328,-976,2964,18591.76,24.62,-1.00,-1.0,2451
3176,2138176,16640,28,1216,16684.39,24.67,-1.00,-1.0,2385
3179,2138179,16772,1000,2252,16952.04,24.72,-1.00,-1.0,2440
3182,2138182,17140,-352,-2156,17278.65,24.72,-1.00,-1.0,2373
3184,2138184,17192,-288,828,17214.34,24.72,-1.00,-1.0,2424
3187,2138187,17100,-1848,676,17212.85,24.67,-1.00,-1.0,2383
3190,2138190,17348,-1276,1252,17439.86,24.62,-1.00,-1.0,2440
3193,2138193,15416,-488,4,15423.72,24.62,-1.00,-1.0,2378
3198,2138198,16324,480,-1220,16376.56,24.67,-1.00,-1.0,2443
3200,2138200,16472,-1200,2500,16703.79,24.67,-1.00,-1.0,2370
3203,2138203,18532,-3216,1920,18906.72,24.58,-1.00,-1.0,2446
3206,2138206,17008,-1728,712,17110.38,24.67,-1.00,-1.0,2375
3208,2138208,17152,2028,-1144,17309.32,24.62,-1.00,-1.0,2371
3211,2138211,15828,2260,652,16001.82,24.62,-1.00,-1.0,2444
3214,2138214,17608,-2500,3420,18110.44,24.53,-1.00,-1.0,2371
3217,2138217,17208,-4632,2400,17981.40,24.72,-1.00,-1.0,2445
3219,2138219,18340,-1480,-208,18400.79,24.62,-1.00,-1.0,2378
3224,2138224,16208,3196,-724,16535.96,24.67,-1.00,-1.0,2443
3227,2138227,16656,-2316,1156,16855.93,24.58,-1.00,-1.0,2369
3230,2138230,16808,-4240,3792,17744.46,24.72,-1.00,-1.0,2446
3232,2138232,18612,-2584,1064,18820.62,24.67,-1.00,-1.0,2368
3235,2138235,15548,2780,532,15803.54,24.62,-1.00,-1.0,2450
3238,2138238,16804,3412,-512,17154.54,24.77,-1.00,-1.0,2368
3241,2138241,16044,-1716,1224,16181.87,24.72,-1.00,-1.0,2442
3243,2138243,16624,-3836,3068,17334.50,24.67,-1.00,-1.0,2368
3248,2138248,15704,296,12,15706.79,24.77,-1.00,-1.0,2442
3251,2138251,18372,2740,-1696,18652.46,24.67,-1.00,-1.0,2369
3254,2138254,15316,780,-168,15336.77,24.67,-1.00,-1.0,2440
3257,2138257,18480,-2084,1692,18673.95,24.77,-1.00,-1.0,2369
3259,2138259,16276,-3796,2176,16853.87,24.58,-1.00,-1.0,2364
3262,2138262,17336,-632,716,17362.29,24.58,-1.00,-1.0,2437
3265,2138265,18888,1784,-596,18981.42,24.67,-1.00,-1.0,2375
3268,2138268,14352,2088,396,14508.50,24.62,-1.00,-1.0,2435
3270,2138270,18584,336,3340,18884.74,24.67,-1.00,-1.0,2368
3275,2138275,18896,-2220,1412,19078.29,24.67,-1.00,-1.0,2443
3278,2138278,16376,-568,-1496,16454.00,24.67,-1.00,-1.0,2370
3281,2138281,15344,2180,1528,15573.23,24.67,-1.00,-1.0,2447
3283,2138283,17556,380,-1176,17599.45,24.58,-1.00,-1.0,2368
3286,2138286,16280,-1812,1192,16423.84,24.67,-1.00,-1.0,2437
3289,2138289,18480,-2800,1084,18722.32,24.67,-1.00,-1.0,2369
3292,2138292,16620,-320,2816,16859.91,24.67,-1.00,-1.0,2434
3294,2138294,17356,1312,-828,17425.20,24.58,-1.00,-1.0,2370
3299,2138299,16144,-1468,792,16229.94,24.67,-1.00,-1.0,2450
3302,2138302,17384,-2956,1688,17714.14,24.72,-1.00,-1.0,2383
3305,2138305,16264,-1284,-584,16325.05,24.58,-1.00,-1.0,2440
3308,2138308,17792,1564,232,17862.12,24.62,-1.00,-1.0,2376
3310,2138310,17164,916,-1312,17238.43,24.77,-1.00,-1.0,2361
3313,2138313,16980,-1672,1732,17149.80,24.67,-1.00,-1.0,2436
3316,2138316,16088,-2844,1952,16453.64,24.58,-1.00,-1.0,2367
3318,2138318,17796,-1368,344,17851.82,24.67,-1.00,-1.0,2436
3321,2138321,15880,1200,-588,15936.13,24.58,-1.00,-1.0,2368
3327,2138327,16016,-1344,1896,16183.74,24.62,-1.00,-1.0,2463
3329,2138329,17200,-2304,2564,17542.02,24.62,-1.00,-1.0,2369
3332,2138332,16660,-976,912,16713.46,24.72,-1.00,-1.0,2441
3335,2138335,16768,1056,-1372,16857.14,24.67,-1.00,-1.0,2368
3338,2138338,16340,788,360,16362.95,24.72,-1.00,-1.0,2447
3340,2138340,14692,-1520,240,14772.37,24.72,-1.00,-1.0,2368
3343,2138343,18772,-2864,2104,19105.43,24.62,-1.00,-1.0,2438
3346,2138346,16680,-836,-28,16700.96,24.58,-1.00,-1.0,2367
3351,2138351,15320,1864,112,15433.39,24.58,-1.00,-1.0,2450
3353,2138353,16872,200,-108,16873.53,24.62,-1.00,-1.0,2369
3356,2138356,18944,-2840,856,19174.81,24.58,-1.00,-1.0,2453
3359,2138359,16076,-1720,1400,16228.25,24.62,-1.00,-1.0,2375
3362,2138362,17864,128,916,17887.93,24.67,-1.00,-1.0,2361
3364,2138364,15344,1320,-1124,15441.64,24.67,-1.00,-1.0,2437
3367,2138367,17888,412,1068,17924.59,24.67,-1.00,-1.0,2371
3370,2138370,16200,-2824,456,16450.62,24.67,-1.00,-1.0,2438
3373,2138373,18384,-1952,2632,18673.76,24.67,-1.00,-1.0,2363
3378,2138378,17176,936,-332,17204.69,24.77,-1.00,-1.0,2445
3380,2138380,16024,412,-1752,16124.76,24.58,-1.00,-1.0,2370
3383,2138383,17924,-1712,512,18012.85,24.67,-1.00,-1.0,2455
3386,2138386,17032,-3212,-288,17334.62,24.67,-1.00,-1.0,2374
3389,2138389,18440,-632,2796,18661.47,24.67,-1.00,-1.0,2445
3391,2138391,16000,996,-620,16042.96,24.67,-1.00,-1.0,2370
3394,2138394,17184,1624,940,17286.15,24.67,-1.00,-1.0,2449
3397,2138397,17096,-872,3452,17462.81,24.67,-1.00,-1.0,2375
3402,2138402,19812,-2000,-1160,19946.45,24.67,-1.00,-1.0,2453
3404,2138404,15840,988,800,15890.93,24.62,-1.00,-1.0,2369
3407,2138407,16844,1364,-652,16911.71,24.67,-1.00,-1.0,2377
3410,2138410,16520,-2044,-720,16661.54,24.67,-1.00,-1.0,2441
3413,2138413,15920,-2212,3036,16357.16,24.58,-1.00,-1.0,2378
3415,2138415,18096,-1860,2244,18329.22,24.62,-1.00,-1.0,2440
3418,2138418,16208,996,524,16247.03,24.58,-1.00,-1.0,2381
3421,2138421,17272,2128,-1108,17437.83,24.67,-1.00,-1.0,2437
3424,2138424,17288,972,948,17341.23,24.67,-1.00,-1.0,2379
3429,2138429,19768,-2052,2920,20087.58,24.67,-1.00,-1.0,2443
3431,2138431,15452,-324,2084,15595.27,24.67,-1.00,-1.0,2372
3434,2138434,18016,2172,712,18160.42,24.67,-1.00,-1.0,2455
3437,2138437,14960,912,-1284,15042.67,24.58,-1.00,-1.0,2373
3440,2138440,18260,504,2376,18420.83,24.62,-1.00,-1.0,2448
3442,2138442,16244,-3932,1056,16746.44,24.58,-1.00,-1.0,2370
3445,2138445,17724,-2820,928,17970.91,24.62,-1.00,-1.0,2451
3448,2138448,15492,952,-2952,15799.45,24.67,-1.00,-1.0,2373
3453,2138453,16792,324,1852,16896.93,24.77,-1.00,-1.0,2453
3455,2138455,15668,-4164,1680,16298.70,24.67,-1.00,-1.0,2368
3458,2138458,19756,-4252,948,20230.61,24.58,-1.00,-1.0,2378
3461,2138461,14624,1788,-380,14737.80,24.62,-1.00,-1.0,2442
3464,2138464,19424,3176,-1724,19757.30,24.62,-1.00,-1.0,2379
3466,2138466,13928,856,696,13971.63,24.53,-1.00,-1.0,2438
3469,2138469,19404,-3552,2688,19908.72,24.62,-1.00,-1.0,2382
3472,2138472,15716,-3908,464,16201.25,24.62,-1.00,-1.0,2437
3475,2138475,17532,840,-124,17552.55,24.62,-1.00,-1.0,2379
3480,2138480,16560,1216,692,16619.00,24.62,-1.00,-1.0,2443
3482,2138482,17672,-1372,2268,17869.69,24.58,-1.00,-1.0,2370
3485,2138485,14960,-1808,4288,15667.08,24.62,-1.00,-1.0,2454
3488,2138488,18636,-1184,-332,18676.53,24.67,-1.00,-1.0,2374
3491,2138491,13928,904,-592,13969.86,24.62,-1.00,-1.0,2444
3493,2138493,17744,880,-436,17771.16,24.58,-1.00,-1.0,2371
3496,2138496,16224,-1220,996,16300.26,24.62,-1.00,-1.0,2449
3499,2138499,18136,-1476,3380,18507.23,24.67,-1.00,-1.0,2374
3501,2138501,19804,-2096,1168,19948.83,24.72,-1.00,-1.0,2369
3507,2138507,19684,892,-1548,19764.91,24.62,-1.00,-1.0,2443
3509,2138509,14628,444,1600,14721.94,24.58,-1.00,-1.0,2369
3512,2138512,17816,-1604,2832,18110.85,24.62,-1.00,-1.0,2455
3515,2138515,17028,-1696,2876,17352.25,24.67,-1.00,-1.0,2377
3518,2138518,16732,536,-20,16740.60,24.72,-1.00,-1.0,2448
3520,2138520,18740,1948,-80,18841.14,24.62,-1.00,-1.0,2373
3523,2138523,15612,-764,-1956,15752.59,24.62,-1.00,-1.0,2450
3526,2138526,18508,-2624,8,18693.09,24.67,-1.00,-1.0,2376
3531,2138531,18736,316,2356,18886.19,24.62,-1.00,-1.0,2449
3533,2138533,15416,508,-2116,15568.83,24.62,-1.00,-1.0,2369
3536,2138536,17868,1344,1468,17978.51,24.62,-1.00,-1.0,2450
3539,2138539,16540,-1860,1236,16690.08,24.62,-1.00,-1.0,2370
3542,2138542,16320,-3208,1400,16691.12,24.58,-1.00,-1.0,2448
3544,2138544,18316,-952,832,18359.59,24.67,-1.00,-1.0,2423
3547,2138547,15844,1584,-776,15941.88,24.62,-1.00,-1.0,2369
3550,2138550,17256,860,-2112,17406.02,24.67,-1.00,-1.0,2433
3553,2138553,16552,-3076,-592,16845.80,24.62,-1.00,-1.0,2372
3557,2138557,18152,-3056,2868,18629.54,24.67,-1.00,-1.0,2441
3560,2138560,16916,236,-1204,16960.44,24.67,-1.00,-1.0,2366
3563,2138563,16708,3352,-1528,17109.29,24.67,-1.00,-1.0,2425
3566,2138566,16540,284,840,16563.75,24.67,-1.00,-1.0,2367
3568,2138568,15216,-2688,2612,15670.82,24.67,-1.00,-1.0,2437
3571,2138571,21472,-3752,2480,21937.97,24.67,-1.00,-1.0,2354
3574,2138574,13568,388,88,13573.83,24.67,-1.00,-1.0,2437
3577,2138577,18912,5084,1388,19632.56,24.72,-1.00,-1.0,2369
3582,2138582,18328,-4668,780,18929.19,24.62,-1.00,-1.0,2441
3584,2138584,18396,-5348,4904,19775.32,24.62,-1.00,-1.0,2366
3587,2138587,15592,-340,2340,15770.28,24.62,-1.00,-1.0,2453
3590,2138590,17624,4740,-2980,18491.98,24.72,-1.00,-1.0,2377
3593,2138593,14792,2732,-840,15065.61,24.67,-1.00,-1.0,2448
3595,2138595,16792,-2812,1496,17091.42,24.62,-1.00,-1.0,2372
3598,2138598,17540,-7712,3812,19536.07,24.67,-1.00,-1.0,2364
3601,2138601,17532,-1600,-268,17606.90,24.67,-1.00,-1.0,2432
3603,2138603,17612,4588,-1560,18266.52,24.67,-1.00,-1.0,2369
3608,2138608,17672,336,1656,17752.60,24.67,-1.00,-1.0,2451
3611,2138611,18016,-8264,2912,20033.71,24.72,-1.00,-1.0,2370
3614,2138614,16944,-4276,1756,17563.22,24.67,-1.00,-1.0,2443
3617,2138617,17084,5168,-1868,17946.05,24.72,-1.00,-1.0,2371
3619,2138619,15232,6224,-3316,16785.35,24.67,-1.00,-1.0,2445
3622,2138622,18156,244,1552,18223.85,24.67,-1.00,-1.0,2379
3625,2138625,16192,-7244,3128,18012.24,24.58,-1.00,-1.0,2436
3628,2138628,18052,-3312,2420,18512.17,24.58,-1.00,-1.0,2370
3632,2138632,17528,6128,-224,18569.69,24.62,-1.00,-1.0,2440
3635,2138635,16092,924,-2072,16251.14,24.62,-1.00,-1.0,2366
3638,2138638,18024,-5536,2520,19022.68,24.62,-1.00,-1.0,2440
3641,2138641,18524,-5388,320,19294.34,24.72,-1.00,-1.0,2373
3644,2138644,16204,2008,-920,16353.84,24.72,-1.00,-1.0,2436
3646,2138646,15920,4764,-2552,16812.34,24.53,-1.00,-1.0,2368
3649,2138649,17056,1668,536,17145.75,24.72,-1.00,-1.0,2436
3652,2138652,18996,-4060,5284,20130.88,24.62,-1.00,-1.0,2366
3654,2138654,15424,-2544,5312,16510.27,24.72,-1.00,-1.0,2361
3659,2138659,15912,3684,-632,16345.12,24.58,-1.00,-1.0,2448
3662,2138662,16500,3400,-516,16854.56,24.58,-1.00,-1.0,2374
3665,2138665,16376,-4128,1420,16947.87,24.62,-1.00,-1.0,2440
3668,2138668,18776,-4792,3716,19730.94,24.58,-1.00,-1.0,2361
3670,2138670,17428,316,-24,17430.88,24.67,-1.00,-1.0,2425
3673,2138673,16204,4216,-1232,16788.75,24.58,-1.00,-1.0,2381
3676,2138676,16412,2880,-1384,16720.16,24.67,-1.00,-1.0,2440
3679,2138679,17472,-1572,3524,17893.03,24.67,-1.00,-1.0,2375
3684,2138684,19324,-2424,3068,19715.61,24.67,-1.00,-1.0,2441
3686,2138686,15060,504,-852,15092.50,24.58,-1.00,-1.0,2366
3689,2138689,16140,4856,-96,16854.96,24.67,-1.00,-1.0,2445
3692,2138692,17872,-616,-1232,17925.00,24.67,-1.00,-1.0,2368
3695,2138695,16128,-4904,2816,17090.68,24.58,-1.00,-1.0,2438
3697,2138697,18244,-3988,2768,18878.81,24.67,-1.00,-1.0,2366
3700,2138700,15648,1044,36,15682.83,24.67,-1.00,-1.0,2435
3703,2138703,17448,2568,-3204,17924.65,24.62,-1.00,-1.0,2372
3705,2138705,15728,-1504,-904,15825.59,24.62,-1.00,-1.0,2360
3710,2138710,17708,-4888,1312,18417.04,24.62,-1.00,-1.0,2442
3713,2138713,14824,-156,-500,14833.25,24.62,-1.00,-1.0,2366
3716,2138716,18160,4844,-1196,18832.96,24.62,-1.00,-1.0,2439
3719,2138719,16272,256,412,16279.23,24.72,-1.00,-1.0,2366
3721,2138721,16680,-4660,3340,17637.85,24.62,-1.00,-1.0,2437
3724,2138724,22032,-4176,2480,22560.99,24.72,-1.00,-1.0,2366
3727,2138727,13200,860,-2312,13428.51,24.72,-1.00,-1.0,2435
3730,2138730,20252,3416,-736,20551.26,24.58,-1.00,-1.0,2367
3734,2138734,19776,-3068,4044,20417.07,24.72,-1.00,-1.0,2442
3737,2138737,17192,-3864,1648,17697.78,24.72,-1.00,-1.0,2367
3740,2138740,15972,2972,3676,16656.85,24.58,-1.00,-1.0,2438
3743,2138743,17864,2784,-272,18081.68,24.62,-1.00,-1.0,2366
3745,2138745,14268,-2144,960,14460.09,24.67,-1.00,-1.0,2438
3748,2138748,18740,-3244,1320,19064.46,24.62,-1.00,-1.0,2366
3751,2138751,15284,-1016,1772,15419.89,24.62,-1.00,-1.0,2422
3754,2138754,18748,2068,700,18874.70,24.62,-1.00,-1.0,2366
3756,2138756,13228,600,1028,13281.44,24.67,-1.00,-1.0,2361
3761,2138761,16816,-2500,1440,17061.70,24.72,-1.00,-1.0,2451
3764,2138764,13908,-1300,-288,13971.59,24.72,-1.00,-1.0,2374
3767,2138767,18124,2584,808,18325.10,24.62,-1.00,-1.0,2426
3770,2138770,17800,-392,1564,17872.88,24.67,-1.00,-1.0,2366
3772,2138772,15976,-2268,1556,16211.03,24.72,-1.00,-1.0,2447
3775,2138775,19016,-600,2388,19174.74,24.62,-1.00,-1.0,2374
3778,2138778,14668,844,-1748,14795.88,24.62,-1.00,-1.0,2438
3781,2138781,16872,56,484,16879.03,24.58,-1.00,-1.0,2372
3786,2138786,16652,-2012,2816,17007.85,24.58,-1.00,-1.0,2442
3788,2138788,15980,-756,-576,16008.24,24.67,-1.00,-1.0,2369
3791,2138791,17976,2920,1016,18239.94,24.62,-1.00,-1.0,2455
3794,2138794,16872,388,1532,16945.85,24.72,-1.00,-1.0,2376
3797,2138797,16888,-3956,2668,17549.15,24.62,-1.00,-1.0,2452
3799,2138799,16040,-2140,180,16183.13,24.62,-1.00,-1.0,2367
3802,2138802,19868,2236,284,19995.44,24.62,-1.00,-1.0,2451
3805,2138805,15988,1700,-1156,16119.63,24.53,-1.00,-1.0,2372
3808,2138808,16476,-2760,2616,16909.16,24.62,-1.00,-1.0,2363
3813,2138813,17176,-788,-1172,17233.96,24.62,-1.00,-1.0,2442
3815,2138815,18112,2436,-76,18275.24,24.62,-1.00,-1.0,2370
3818,2138818,15024,1052,1300,15116.79,24.72,-1.00,-1.0,2454
3821,2138821,18996,-1936,2600,19270.60,24.62,-1.00,-1.0,2376
3824,2138824,13800,-2736,676,14084.84,24.62,-1.00,-1.0,2452
3826,2138826,19708,1568,2652,19947.36,24.62,-1.00,-1.0,2374
3829,2138829,15988,844,-1216,16056.37,24.72,-1.00,-1.0,2445
3832,2138832,16768,1132,2948,17062.77,24.62,-1.00,-1.0,2373
3837,2138837,15648,-168,4480,16277.55,24.72,-1.00,-1.0,2452
3839,2138839,17536,-668,992,17576.73,24.67,-1.00,-1.0,2366
3842,2138842,15024,1028,1624,15146.44,24.62,-1.00,-1.0,2446
3845,2138845,16672,468,-1032,16710.46,24.62,-1.00,-1.0,2365
3848,2138848,17428,-4,2192,17565.31,24.72,-1.00,-1.0,2444
3850,2138850,17292,-2548,132,17479.22,24.67,-1.00,-1.0,2366
3853,2138853,18484,-1104,1476,18575.67,24.62,-1.00,-1.0,2367
3856,2138856,16716,-564,-2980,16988.91,24.67,-1.00,-1.0,2438
3859,2138859,17320,72,172,17321.00,24.67,-1.00,-1.0,2368
3864,2138864,18812,-780,2952,19058.18,24.58,-1.00,-1.0,2446
3866,2138866,14832,-1272,40,14886.50,24.67,-1.00,-1.0,2375
3869,2138869,18500,-124,56,18500.50,24.67,-1.00,-1.0,2448
3872,2138872,16652,-336,-280,16657.74,24.58,-1.00,-1.0,2367
3875,2138875,16716,-428,592,16731.96,24.67,-1.00,-1.0,2447
3877,2138877,17472,-352,2100,17601.27,24.67,-1.00,-1.0,2374
3880,2138880,13792,-156,1940,13928.65,24.67,-1.00,-1.0,2437
3883,2138883,20876,-360,1432,20928.15,24.67,-1.00,-1.0,2368
3888,2138888,21136,112,-288,21138.26,24.67,-1.00,-1.0,2450
3891,2138891,13804,-584,320,13820.05,24.81,-1.00,-1.0,2366
3893,2138893,19584,-396,2232,19714.76,24.58,-1.00,-1.0,2452
3896,2138896,17720,-1476,-388,17785.60,24.62,-1.00,-1.0,2372
3899,2138899,15248,-156,584,15259.98,24.67,-1.00,-1.0,2362
3901,2138901,20096,-1012,-1368,20167.91,24.58,-1.00,-1.0,2437
3904,2138904,15272,56,2460,15468.96,24.67,-1.00,-1.0,2360
3907,2138907,17320,320,2048,17443.60,24.67,-1.00,-1.0,2436
3910,2138910,15076,-112,1004,15109.81,24.62,-1.00,-1.0,2365
3915,2138915,18100,-1756,916,18208.04,24.67,-1.00,-1.0,2436
3918,2138918,15956,96,1508,16027.39,24.58,-1.00,-1.0,2372
3920,2138920,16888,704,-476,16909.37,24.67,-1.00,-1.0,2448
3923,2138923,15572,56,-344,15575.90,24.77,-1.00,-1.0,2379
3926,2138926,17396,-1296,2156,17576.94,24.67,-1.00,-1.0,2439
3929,2138929,16188,-668,2864,16452.96,24.58,-1.00,-1.0,2373
3931,2138931,16852,-952,-1160,16918.68,24.67,-1.00,-1.0,2443
3934,2138934,18324,940,1260,18391.31,24.58,-1.00,-1.0,2380
3937,2138937,15792,508,1572,15878.18,24.62,-1.00,-1.0,2360
3941,2138941,14820,-1288,-1028,14911.34,24.72,-1.00,-1.0,2441
3944,2138944,17720,876,1108,17776.21,24.62,-1.00,-1.0,2366
3947,2138947,17612,152,8,17612.66,24.67,-1.00,-1.0,2439
3950,2138950,17336,-892,2844,17590.36,24.72,-1.00,-1.0,2366
3952,2138952,17388,-1212,1832,17526.20,24.67,-1.00,-1.0,2437
3955,2138955,17048,116,-36,17048.43,24.72,-1.00,-1.0,2353
3958,2138958,15136,960,-1484,15238.84,24.62,-1.00,-1.0,2435
3961,2138961,18452,1464,2680,18702.99,24.62,-1.00,-1.0,2373
3966,2138966,19668,-3056,1924,19996.78,24.67,-1.00,-1.0,2441
3968,2138968,16140,-668,-80,16154.02,24.58,-1.00,-1.0,2367
3971,2138971,16348,2216,632,16509.61,24.58,-1.00,-1.0,2446
3974,2138974,17844,700,-2276,18002.18,24.67,-1.00,-1.0,2373
3977,2138977,14736,-1752,1584,14924.08,24.77,-1.00,-1.0,2437
3979,2138979,20772,-3456,2220,21174.24,24.58,-1.00,-1.0,2369
3982,2138982,14604,-1944,2324,14914.99,24.67,-1.00,-1.0,2365
3985,2138985,18424,2936,388,18660.50,24.58,-1.00,-1.0,2440
3988,2138988,13976,1476,-876,14081.00,24.67,-1.00,-1.0,2374
3993,2138993,16212,-4364,1776,16882.76,24.58,-1.00,-1.0,2447
3995,2138995,17992,788,3404,18328.13,24.62,-1.00,-1.0,2366
3998,2138998,17024,1876,-2004,17243.90,24.58,-1.00,-1.0,2442
4001,2139001,14772,2148,-496,14935.59,24.72,-1.00,-1.0,2366
4004,2139004,19472,-2160,400,19595.52,24.58,-1.00,-1.0,2443
4006,2139006,15416,-3908,1380,15963.39,24.62,-1.00,-1.0,2365
4009,2139009,19248,-752,-296,19264.96,24.67,-1.00,-1.0,2437
4012,2139012,17056,1736,-240,17145.80,24.62,-1.00,-1.0,2367
4017,2139017,19872,-1268,820,19929.29,24.62,-1.00,-1.0,2442
4020,2139020,15188,-4228,168,15766.41,24.62,-1.00,-1.0,2370
4022,2139022,18804,224,2316,18947.41,24.72,-1.00,-1.0,2443
4025,2139025,16400,3120,404,16699.03,24.62,-1.00,-1.0,2368
4028,2139028,15372,1776,492,15482.07,24.62,-1.00,-1.0,2438
4031,2139031,18820,-2452,1044,19007.75,24.62,-1.00,-1.0,2367
4033,2139033,15904,-3400,-220,16264.86,24.62,-1.00,-1.0,2360
4036,2139036,18156,556,2396,18321.85,24.67,-1.00,-1.0,2436
4039,2139039,15032,2576,852,15274.90,24.62,-1.00,-1.0,2373
4044,2139044,13796,-2644,1120,14091.66,24.67,-1.00,-1.0,2442
4046,2139046,19476,-484,3160,19736.63,24.58,-1.00,-1.0,2352
4049,2139049,15200,452,-64,15206.85,24.67,-1.00,-1.0,2442
4052,2139052,18000,1080,460,18038.24,24.67,-1.00,-1.0,2366
4055,2139055,17324,-668,312,17339.68,24.77,-1.00,-1.0,2437
4057,2139057,17856,-296,1812,17950.14,24.58,-1.00,-1.0,2365
4060,2139060,16600,-376,1208,16648.14,24.67,-1.00,-1.0,2439
4063,2139063,15748,-968,-448,15784.08,24.67,-1.00,-1.0,2366
4068,2139068,17672,-892,2552,17877.58,24.58,-1.00,-1.0,2442
4071,2139071,16216,-608,-440,16233.36,24.62,-1.00,-1.0,2366
4073,2139073,16540,2112,1680,16758.71,24.67,-1.00,-1.0,2440
4076,2139076,18396,-1176,2384,18587.07,24.62,-1.00,-1.0,2367
4079,2139079,15964,-3596,536,16372.78,24.77,-1.00,-1.0,2362
4081,2139081,18652,-608,660,18673.57,24.58,-1.00,-1.0,2435
4084,2139084,16764,2196,-1708,16993.28,24.67,-1.00,-1.0,2366
4087,2139087,15476,1956,-124,15599.61,24.67,-1.00,-1.0,2435
4090,2139090,16660,-1948,1120,16810.85,24.72,-1.00,-1.0,2352
4095,2139095,15620,-2948,216,15897.22,24.72,-1.00,-1.0,2448
4097,2139097,17728,3028,64,17984.85,24.72,-1.00,-1.0,2365
4100,2139100,17692,1952,-2860,18027.67,24.62,-1.00,-1.0,2453
4103,2139103,16344,-2580,712,16561.69,24.62,-1.00,-1.0,2373
4106,2139106,16432,-4244,1792,17065.56,24.72,-1.00,-1.0,2439
4108,2139108,17300,-1912,2356,17564.07,24.72,-1.00,-1.0,2366
4111,2139111,16232,1592,-2624,16519.62,24.72,-1.00,-1.0,2448
4114,2139114,15364,1592,60,15446.38,24.62,-1.00,-1.0,2373
4119,2139119,16332,-3360,3552,17048.18,24.72,-1.00,-1.0,2442
4122,2139122,16312,-2880,-628,16576.19,24.67,-1.00,-1.0,2375
4125,2139125,17904,1816,-612,18006.27,24.62,-1.00,-1.0,2440
4127,2139127,16064,2168,688,16224.23,24.67,-1.00,-1.0,2365
4130,2139130,16516,-1104,1956,16668.02,24.53,-1.00,-1.0,2367
4133,2139133,18904,-3016,3476,19456.11,24.67,-1.00,-1.0,2446
4135,2139135,15336,528,1976,15471.79,24.72,-1.00,-1.0,2371
4138,2139138,17728,1916,1076,17863.67,24.67,-1.00,-1.0,2446
4141,2139141,13952,1360,-928,14048.81,24.67,-1.00,-1.0,2365
4146,2139146,15284,-3848,380,15765.54,24.62,-1.00,-1.0,2442
4149,2139149,19060,-800,1816,19163.02,24.67,-1.00,-1.0,2366
4152,2139152,15452,2044,-916,15613.50,24.62,-1.00,-1.0,2438
4155,2139155,16112,1820,-732,16230.98,24.58,-1.00,-1.0,2366
4157,2139157,18812,-2728,-652,19019.95,24.72,-1.00,-1.0,2437
4160,2139160,15504,-3448,1564,15959.60,24.67,-1.00,-1.0,2366
4163,2139163,18996,1188,1840,19121.85,24.62,-1.00,-1.0,2435
4166,2139166,14568,2456,1224,14824.19,24.77,-1.00,-1.0,2365
4170,2139170,15260,-1588,1264,15394.38,24.62,-1.00,-1.0,2441
4173,2139173,17808,-564,4292,18326.60,24.72,-1.00,-1.0,2366
4176,2139176,15836,-184,1288,15889.36,24.62,-1.00,-1.0,2438
4179,2139179,16784,372,-92,16788.38,24.53,-1.00,-1.0,2371
4181,2139181,16572,988,1644,16682.63,24.62,-1.00,-1.0,2421
4184,2139184,16584,1448,4124,17150.31,24.67,-1.00,-1.0,2453
4187,2139187,17524,-2260,-856,17689.85,24.58,-1.00,-1.0,2374
4190,2139190,18288,-860,2604,18492.47,24.67,-1.00,-1.0,2438
4193,2139193,16556,-356,248,16561.68,24.67,-1.00,-1.0,2365
4197,2139197,13936,340,-1928,14072.84,24.62,-1.00,-1.0,2441
4200,2139200,18340,-1280,-20,18384.62,24.62,-1.00,-1.0,2366
4203,2139203,18272,-4300,-832,18789.58,24.67,-1.00,-1.0,2439
4206,2139206,17572,-1880,2784,17890.23,24.62,-1.00,-1.0,2372
4209,2139209,15800,1428,-140,15865.02,24.67,-1.00,-1.0,2437
4211,2139211,17172,2408,40,17340.06,24.62,-1.00,-1.0,2367
4214,2139214,16628,-2020,1288,16799.69,24.67,-1.00,-1.0,2435
4217,2139217,17664,-3488,3080,18266.62,24.62,-1.00,-1.0,2365
4222,2139222,17984,1004,112,18012.35,24.62,-1.00,-1.0,2441
4224,2139224,16396,2684,-1048,16647.25,24.62,-1.00,-1.0,2368
4227,2139227,15860,24,2736,16094.28,24.72,-1.00,-1.0,2362
4230,2139230,19260,-3880,772,19662.10,24.77,-1.00,-1.0,2449
4232,2139232,14364,-3372,1684,14850.28,24.72,-1.00,-1.0,2365
4235,2139235,19048,2616,548,19234.61,24.67,-1.00,-1.0,2438
4238,2139238,14828,2568,-1248,15100.39,24.62,-1.00,-1.0,2366
4241,2139241,18392,88,2208,18524.27,24.67,-1.00,-1.0,2438
4243,2139243,15104,-5028,700,15934.29,24.72,-1.00,-1.0,2365
4248,2139248,18084,3380,1328,18445.03,24.62,-1.00,-1.0,2441
4251,2139251,15744,1472,1872,15923.09,24.62,-1.00,-1.0,2366
4254,2139254,17592,-2240,296,17736.51,24.72,-1.00,-1.0,2439
4257,2139257,19780,-1864,2724,20053.51,24.62,-1.00,-1.0,2365
4259,2139259,15072,-652,-248,15088.13,24.62,-1.00,-1.0,2437
4262,2139262,16768,1404,872,16849.26,24.62,-1.00,-1.0,2366
4265,2139265,17908,-1720,-1248,18033.64,24.62,-1.00,-1.0,2422
4268,2139268,16852,-2132,668,16999.46,24.62,-1.00,-1.0,2365
4273,2139273,18768,-20,408,18772.45,24.62,-1.00,-1.0,2445
4275,2139275,14248,-284,-2172,14415.40,24.67,-1.00,-1.0,2375
4278,2139278,19588,-1220,588,19634.76,24.62,-1.00,-1.0,2362
4281,2139281,16056,-3272,140,16386.60,24.72,-1.00,-1.0,2438
4283,2139283,17012,-2748,-500,17239.77,24.62,-1.00,-1.0,2359
4286,2139286,16740,724,-1612,16833.01,24.62,-1.00,-1.0,2436
4289,2139289,16780,928,-1184,16847.30,24.62,-1.00,-1.0,2367
4292,2139292,16256,-408,2012,16385.12,24.62,-1.00,-1.0,2438
4294,2139294,15764,-2596,3856,16435.07,24.72,-1.00,-1.0,2372
4299,2139299,15048,252,-1080,15088.81,24.72,-1.00,-1.0,2450
4302,2139302,16640,3396,828,17003.18,24.62,-1.00,-1.0,2374
4305,2139305,15288,-984,1820,15427.37,24.62,-1.00,-1.0,2440
4308,2139308,19140,-3984,2344,19690.26,24.62,-1.00,-1.0,2362
4310,2139310,15328,-3744,904,15804.50,24.53,-1.00,-1.0,2424
4313,2139313,15104,5636,2332,16289.06,24.67,-1.00,-1.0,2380
4316,2139316,19188,1480,-3712,19599.71,24.62,-1.00,-1.0,2439
4319,2139319,15688,-1440,2480,15947.96,24.62,-1.00,-1.0,2370
4321,2139321,16512,-4696,4956,17867.86,24.62,-1.00,-1.0,2360
4326,2139326,14092,2228,-4748,15036.35,24.72,-1.00,-1.0,2447
4329,2139329,16436,3588,-156,16823.80,24.62,-1.00,-1.0,2370
4332,2139332,16848,-736,3568,17237.38,24.67,-1.00,-1.0,2450
4334,2139334,19336,-5616,5332,20829.08,24.62,-1.00,-1.0,2372
4337,2139337,13188,-1812,-1468,13392.60,24.58,-1.00,-1.0,2436
4340,2139340,20468,6800,-932,21588.14,24.72,-1.00,-1.0,2366
4343,2139343,15704,3192,-1464,16091.85,24.67,-1.00,-1.0,2446
4345,2139345,17320,-4112,4668,18403.29,24.62,-1.00,-1.0,2372
4350,2139350,17228,1356,4080,17756.38,24.58,-1.00,-1.0,2449
4353,2139353,16324,4484,-3944,17382.01,24.72,-1.00,-1.0,2372
4356,2139356,15560,2288,264,15729.53,24.67,-1.00,-1.0,2439
4359,2139359,18196,-2832,2484,18581.84,24.62,-1.00,-1.0,2367
4361,2139361,17384,-5364,5384,18972.70,24.58,-1.00,-1.0,2438
4364,2139364,17088,-960,-1644,17193.72,24.62,-1.00,-1.0,2373
4367,2139367,16204,5612,-2052,17270.64,24.58,-1.00,-1.0,2436
4370,2139370,16348,3300,-1744,16768.68,24.72,-1.00,-1.0,2367
4374,2139374,14760,-7004,308,16340.39,24.67,-1.00,-1.0,2442
4377,2139377,19528,2292,2716,19848.75,24.77,-1.00,-1.0,2367
4380,2139380,17460,3312,-1152,17808.65,24.67,-1.00,-1.0,2361
4382,2139382,15460,1720,2600,15771.18,24.62,-1.00,-1.0,2439
4385,2139385,17708,-3464,684,18056.59,24.58,-1.00,-1.0,2366
4388,2139388,17464,-1544,2380,17692.93,24.77,-1.00,-1.0,2435
4391,2139391,17516,-72,-1264,17561.70,24.67,-1.00,-1.0,2365
4393,2139393,15352,2216,1108,15550.63,24.72,-1.00,-1.0,2437
4396,2139396,18684,-2484,-2008,18955.06,24.67,-1.00,-1.0,2366
4401,2139401,15968,-1492,-120,16038.00,24.67,-1.00,-1.0,2439
4404,2139404,18224,968,668,18261.91,24.67,-1.00,-1.0,2352
4407,2139407,16204,152,-1896,16315.25,24.67,-1.00,-1.0,2450
4409,2139409,19096,-304,2688,19286.65,24.67,-1.00,-1.0,2373
4412,2139412,14820,-2036,-860,14983.90,24.67,-1.00,-1.0,2437
4415,2139415,18668,-292,68,18670.41,24.58,-1.00,-1.0,2365
4418,2139418,19052,-404,-488,19062.53,24.58,-1.00,-1.0,2445
4420,2139420,15704,24,2412,15888.17,24.58,-1.00,-1.0,2372
4425,2139425,16972,664,1352,17038.71,24.67,-1.00,-1.0,2451
4428,2139428,19464,-988,224,19490.35,24.62,-1.00,-1.0,2372
4431,2139431,16272,-952,2608,16507.15,24.58,-1.00,-1.0,2363
4433,2139433,16652,-1400,-3368,17046.78,24.62,-1.00,-1.0,2441
4436,2139436,18848,1760,944,18953.52,24.67,-1.00,-1.0,2366
4439,2139439,18188,-2080,744,18321.66,24.77,-1.00,-1.0,2435
4442,2139442,17896,-3560,2268,18387.07,24.77,-1.00,-1.0,2366
4444,2139444,16008,-1248,-1576,16133.73,24.72,-1.00,-1.0,2437
4447,2139447,19224,3304,-884,19525.88,24.62,-1.00,-1.0,2366
4452,2139452,16068,-3728,1280,16544.39,24.62,-1.00,-1.0,2439
4455,2139455,19424,-3060,1104,19694.52,24.67,-1.00,-1.0,2368
4458,2139458,16932,668,-2904,17192.21,24.72,-1.00,-1.0,2438
4460,2139460,14356,2276,-1440,14606.45,24.67,-1.00,-1.0,2369
4463,2139463,18044,-116,312,18047.07,24.62,-1.00,-1.0,2436
4466,2139466,18872,-4752,2636,19638.80,24.67,-1.00,-1.0,2368
4469,2139469,16132,-3784,-1448,16633.00,24.62,-1.00,-1.0,2437
4471,2139471,14568,2220,-2080,14882.25,24.67,-1.00,-1.0,2368
4476,2139476,15444,-648,-4,15457.59,24.58,-1.00,-1.0,2449
4479,2139479,19132,-7128,3192,20664.72,24.67,-1.00,-1.0,2381
4482,2139482,14672,-1096,3424,15106.04,24.62,-1.00,-1.0,2360
4484,2139484,18392,4260,-180,18879.77,24.62,-1.00,-1.0,2440
4487,2139487,15336,3572,-2412,15930.15,24.72,-1.00,-1.0,2366
4490,2139490,16512,-3008,536,16792.30,24.62,-1.00,-1.0,2435
4493,2139493,19388,-5728,3020,20440.77,24.62,-1.00,-1.0,2365
4495,2139495,16112,-3364,916,16484.90,24.72,-1.00,-1.0,2437
4498,2139498,15536,4300,-740,16137.07,24.58,-1.00,-1.0,2369
4503,2139503,17452,-1956,1652,17638.80,24.62,-1.00,-1.0,2442
4506,2139506,18528,-8060,1740,20279.99,24.62,-1.00,-1.0,2366
4509,2139509,14188,1880,2148,14472.31,24.58,-1.00,-1.0,2441
4511,2139511,20484,5888,-2360,21443.70,24.62,-1.00,-1.0,2368
4514,2139514,15000,2368,-1540,15263.65,24.58,-1.00,-1.0,2439
4517,2139517,19004,-6796,1048,20209.80,24.62,-1.00,-1.0,2366
4520,2139520,15740,-3932,3744,16650.10,24.67,-1.00,-1.0,2443
4522,2139522,19360,540,-560,19375.62,24.62,-1.00,-1.0,2367
4527,2139527,16936,2956,296,17194.58,24.53,-1.00,-1.0,2441
4530,2139530,17780,-4500,1512,18402.84,24.72,-1.00,-1.0,2353
4533,2139533,18628,-6068,-896,19611.88,24.72,-1.00,-1.0,2440
4536,2139536,16280,3048,500,16570.42,24.62,-1.00,-1.0,2365
4538,2139538,20164,3792,-1740,20591.11,24.72,-1.00,-1.0,2362
4541,2139541,12008,264,120,12011.50,24.67,-1.00,-1.0,2434
4544,2139544,22816,-4672,284,23291.16,24.62,-1.00,-1.0,2366
4546,2139546,15296,-4612,660,15989.80,24.58,-1.00,-1.0,2435
4549,2139549,18472,-548,-1372,18530.99,24.72,-1.00,-1.0,2375
4554,2139554,15968,1848,1024,16107.16,24.62,-1.00,-1.0,2448
4557,2139557,17272,-2928,480,17525.00,24.67,-1.00,-1.0,2366
4560,2139560,16828,-3776,-848,17267.28,24.62,-1.00,-1.0,2439
4562,2139562,18096,-316,1840,18192.05,24.62,-1.00,-1.0,2373
4565,2139565,17412,20,-1028,17442.33,24.62,-1.00,-1.0,2435
4568,2139568,13880,652,-1980,14035.67,24.53,-1.00,-1.0,2367
4571,2139571,21168,-1184,-1636,21264.12,24.62,-1.00,-1.0,2444
4573,2139573,13220,-2452,2632,13700.66,24.62,-1.00,-1.0,2374
4578,2139578,14352,-1188,-856,14426.50,24.67,-1.00,-1.0,2442
4581,2139581,19112,5672,1384,19983.88,24.62,-1.00,-1.0,2367
4584,2139584,14620,48,-1156,14665.71,24.67,-1.00,-1.0,2437
4586,2139586,14872,-2544,4384,15712.03,24.62,-1.00,-1.0,2367
4589,2139589,20020,-4660,3184,20800.33,24.58,-1.00,-1.0,2360
4592,2139592,15820,916,-120,15846.95,24.67,-1.00,-1.0,2439
4594,2139594,17548,2564,-5720,18633.97,24.67,-1.00,-1.0,2365
4597,2139597,16252,4032,1836,16845.04,24.67,-1.00,-1.0,2437
4600,2139600,18860,-4444,4220,19830.71,24.62,-1.00,-1.0,2368
4605,2139605,14148,-620,-2236,14337.01,24.72,-1.00,-1.0,2451
4608,2139608,20268,8916,124,22142.77,24.62,-1.00,-1.0,2381
4611,2139611,12932,1340,732,13021.83,24.58,-1.00,-1.0,2441
4614,2139614,22480,-8488,4408,24430.04,24.72,-1.00,-1.0,2371
4616,2139616,13240,-7952,2220,15603.21,24.58,-1.00,-1.0,2425
4619,2139619,22196,3992,-1080,22577.97,24.53,-1.00,-1.0,2379
4622,2139622,11496,6724,-4260,13982.77,24.67,-1.00,-1.0,2436
4625,2139625,20572,-860,1060,20617.23,24.62,-1.00,-1.0,2375
4630,2139630,15240,-6420,2620,16743.31,24.72,-1.00,-1.0,2442
4632,2139632,19152,712,-1564,19228.94,24.62,-1.00,-1.0,2366
4635,2139635,14916,9412,1332,17687.48,24.72,-1.00,-1.0,2453
4638,2139638,17176,692,744,17206.03,24.62,-1.00,-1.0,2374
4640,2139640,19412,-5776,5388,20957.54,24.67,-1.00,-1.0,2368
4643,2139643,13588,-7756,596,15657.09,24.67,-1.00,-1.0,2436
4646,2139646,21096,6612,1600,22165.73,24.62,-1.00,-1.0,2367
4649,2139649,11928,5212,-2900,13336.12,24.67,-1.00,-1.0,2444
4651,2139651,19172,588,3156,19438.92,24.58,-1.00,-1.0,2365
4656,2139656,13392,-2912,4524,14432.32,24.67,-1.00,-1.0,2429
4659,2139659,20296,3900,-4688,21192.33,24.58,-1.00,-1.0,2373
4662,2139662,13372,4484,608,14116.88,24.58,-1.00,-1.0,2442
4665,2139665,18352,-3764,268,18735.94,24.67,-1.00,-1.0,2367
4667,2139667,13664,-4616,4364,15068.41,24.58,-1.00,-1.0,2441
4670,2139670,19560,-3432,-2220,19982.51,24.67,-1.00,-1.0,2369
4673,2139673,15556,4804,1668,16366.12,24.58,-1.00,-1.0,2436
4676,2139676,16984,1132,-384,17026.01,24.67,-1.00,-1.0,2370
4681,2139681,17384,-5084,-2000,18222.25,24.67,-1.00,-1.0,2445
4683,2139683,14420,-324,3176,14769.17,24.62,-1.00,-1.0,2369
4686,2139686,18992,380,-1500,19054.93,24.67,-1.00,-1.0,2449
4689,2139689,15224,1244,2156,15426.15,24.72,-1.00,-1.0,2374
4691,2139691,19160,-2792,-2288,19497.07,24.67,-1.00,-1.0,2363
4694,2139694,15200,280,3836,15679.07,24.67,-1.00,-1.0,2436
4697,2139697,17680,-1380,-964,17759.96,24.67,-1.00,-1.0,2368
4700,2139700,16988,-200,1920,17097.33,24.67,-1.00,-1.0,2429
4702,2139702,16472,-656,-1444,16548.18,24.62,-1.00,-1.0,2365
4707,2139707,17844,-1528,-2684,18109.31,24.62,-1.00,-1.0,2441
4710,2139710,16088,-1352,3084,16436.63,24.67,-1.00,-1.0,2366
4713,2139713,18700,-5444,-1408,19527.15,24.62,-1.00,-1.0,2439
4716,2139716,13904,3524,2016,14484.61,24.77,-1.00,-1.0,2365
4718,2139718,19292,2572,-3996,19868.68,24.62,-1.00,-1.0,2437
4721,2139721,14264,404,2384,14467.49,24.62,-1.00,-1.0,2366
4724,2139724,17864,-6572,2100,19150.03,24.72,-1.00,-1.0,2437
4727,2139727,16992,-2480,1820,17268.20,24.67,-1.00,-1.0,2365
4732,2139732,13500,6248,1276,14930.36,24.67,-1.00,-1.0,2443
4734,2139734,21232,508,-296,21240.14,24.58,-1.00,-1.0,2374
4737,2139737,15104,-4804,5220,16687.05,24.62,-1.00,-1.0,2440
4740,2139740,20956,-5304,-1104,21644.98,24.67,-1.00,-1.0,2365
4743,2139743,10768,5688,-80,12178.24,24.77,-1.00,-1.0,2445
4745,2139745,22556,5640,-2620,23397.59,24.67,-1.00,-1.0,2375
4748,2139748,13328,-1620,2168,13600.01,24.72,-1.00,-1.0,2361
4751,2139751,20044,-7864,3024,21742.79,24.72,-1.00,-1.0,2441
4753,2139753,13424,336,2852,13727.73,24.67,-1.00,-1.0,2365
4759,2139759,16376,3708,-380,16794.85,24.67,-1.00,-1.0,2441
4761,2139761,16344,-1844,604,16458.78,24.72,-1.00,-1.0,2368
4764,2139764,18604,-5400,2080,19483.20,24.67,-1.00,-1.0,2439
4767,2139767,17676,-1600,-1912,17850.96,24.62,-1.00,-1.0,2373
4770,2139770,17156,4936,788,17869.34,24.67,-1.00,-1.0,2437
4772,2139772,21772,1020,-1116,21824.43,24.67,-1.00,-1.0,2366
4775,2139775,11272,-2628,1048,11621.65,24.67,-1.00,-1.0,2435
4778,2139778,22852,-3300,776,23102.08,24.62,-1.00,-1.0,2373
4783,2139783,20312,1300,980,20377.14,24.77,-1.00,-1.0,2441
4785,2139785,16248,796,-552,16276.85,24.58,-1.00,-1.0,2370
4788,2139788,18424,376,1040,18457.16,24.67,-1.00,-1.0,2455
4791,2139791,15544,-1888,-552,15667.97,24.67,-1.00,-1.0,2360
4794,2139794,19560,-1648,1480,19685.02,24.67,-1.00,-1.0,2437
4796,2139796,17096,-1232,768,17157.53,24.77,-1.00,-1.0,2368
4799,2139799,18108,-368,60,18111.84,24.67,-1.00,-1.0,2364
4802,2139802,14792,432,-132,14798.90,24.62,-1.00,-1.0,2446
4805,2139805,20004,-384,44,20007.73,24.58,-1.00,-1.0,2375
4810,2139810,20076,-2596,1204,20278.92,24.67,-1.00,-1.0,2440
4812,2139812,15916,-1824,-712,16035.99,24.67,-1.00,-1.0,2369
4815,2139815,17800,3464,3660,18499.59,24.62,-1.00,-1.0,2456
4818,2139818,16280,-1380,-2080,16470.25,24.58,-1.00,-1.0,2376
4821,2139821,17544,-2480,1516,17783.15,24.58,-1.00,-1.0,2451
4823,2139823,19120,-1600,1888,19279.50,24.67,-1.00,-1.0,2367
4826,2139826,16216,492,992,16253.76,24.62,-1.00,-1.0,2451
4829,2139829,15156,1648,-1020,15279.42,24.77,-1.00,-1.0,2373
4834,2139834,18300,-3128,2516,18735.12,24.77,-1.00,-1.0,2447
4836,2139836,16956,-3692,1632,17429.87,24.58,-1.00,-1.0,2365
4839,2139839,15228,68,-2052,15365.78,24.67,-1.00,-1.0,2441
4842,2139842,18216,7004,3328,19797.83,24.67,-1.00,-1.0,2366
4845,2139845,13056,-664,928,13105.77,24.67,-1.00,-1.0,2443
4847,2139847,22712,-7080,4048,24131.88,24.67,-1.00,-1.0,2366
4850,2139850,14896,-6664,-556,16328.16,24.67,-1.00,-1.0,2361
4853,2139853,18696,5852,444,19595.50,24.62,-1.00,-1.0,2444
4856,2139856,14800,4456,-2596,15672.75,24.72,-1.00,-1.0,2366
4861,2139861,19140,-8200,2656,20991.28,24.72,-1.00,-1.0,2445
4863,2139863,15908,-324,3020,16195.37,24.72,-1.00,-1.0,2374
4866,2139866,20608,3016,-5472,21534.36,24.72,-1.00,-1.0,2449
4869,2139869,14120,4736,980,14925.30,24.72,-1.00,-1.0,2369
4872,2139872,18108,-5224,548,18854.45,24.62,-1.00,-1.0,2447
4874,2139874,16776,-3332,4444,17671.60,24.62,-1.00,-1.0,2375
4877,2139877,21236,-1664,-1984,21393.29,24.72,-1.00,-1.0,2442
4880,2139880,13044,4432,1040,13815.58,24.62,-1.00,-1.0,2371
4885,2139885,15496,-2060,2540,15837.34,24.62,-1.00,-1.0,2447
4887,2139887,18956,-4756,-1532,19603.48,24.67,-1.00,-1.0,2366
4890,2139890,14100,3316,2332,14671.20,24.72,-1.00,-1.0,2456
4893,2139893,19332,2720,-784,19538.15,24.62,-1.00,-1.0,2367
4896,2139896,15048,-1212,2132,15246.53,24.62,-1.00,-1.0,2442
4898,2139898,16032,-4428,556,16641.55,24.67,-1.00,-1.0,2366
4901,2139901,19660,-664,2968,19893.86,24.62,-1.00,-1.0,2368
4904,2139904,15116,884,-2360,15324.64,24.67,-1.00,-1.0,2437
4907,2139907,16884,2652,1284,17139.17,24.58,-1.00,-1.0,2366
4912,2139912,15104,-2912,3824,15850.35,24.58,-1.00,-1.0,2442
4914,2139914,20364,-3088,-1152,20628.99,24.58,-1.00,-1.0,2373
4917,2139917,9800,1544,-2316,10187.63,24.58,-1.00,-1.0,2439
4920,2139920,23672,4144,-216,24032.96,24.58,-1.00,-1.0,2369
4923,2139923,11792,-2844,2640,12414.07,24.67,-1.00,-1.0,2429
4925,2139925,20536,-5804,2020,21435.81,24.48,-1.00,-1.0,2372
4928,2139928,17516,-1728,604,17611.39,24.67,-1.00,-1.0,2436
4931,2139931,17444,4004,-1172,17935.96,24.67,-1.00,-1.0,2369
4936,2139936,17216,-1640,1376,17348.59,24.62,-1.00,-1.0,2447
4938,2139938,18540,-4916,4112,19616.50,24.72,-1.00,-1.0,2365
4941,2139941,17848,-2696,-692,18063.73,24.67,-1.00,-1.0,2454
4944,2139944,13116,2524,-2868,13661.09,24.62,-1.00,-1.0,2373
4947,2139947,20964,5240,28,21608.97,24.67,-1.00,-1.0,2438
4949,2139949,13088,-2844,1548,13482.60,24.62,-1.00,-1.0,2365
4952,2139952,22092,-6184,2920,23126.28,24.58,-1.00,-1.0,2449
4955,2139955,15576,-3268,-1360,15973.14,24.62,-1.00,-1.0,2374
4958,2139958,19132,4996,-1596,19837.86,24.72,-1.00,-1.0,2368
4963,2139963,18688,-4584,1856,19331.30,24.67,-1.00,-1.0,2466
4966,2139966,16696,-5496,592,17587.29,24.58,-1.00,-1.0,2380
4969,2139969,17988,828,-568,18016.00,24.58,-1.00,-1.0,2439
4972,2139972,18172,3460,720,18512.47,24.67,-1.00,-1.0,2367
4974,2139974,17396,-3536,-2428,17917.01,24.77,-1.00,-1.0,2438
4977,2139977,11224,-1824,676,11391.32,24.67,-1.00,-1.0,2369
4980,2139980,23564,2192,2948,23848.64,24.67,-1.00,-1.0,2436
4983,2139983,8812,168,1800,8995.53,24.58,-1.00,-1.0,2362
4987,2139987,12872,-3660,1028,13421.65,24.58,-1.00,-1.0,2442
4990,2139990,12532,2452,1748,12888.71,24.67,-1.00,-1.0,2366
4993,2139993,21256,2524,-4916,21962.59,24.53,-1.00,-1.0,2441
4996,2139996,12160,1716,2600,12552.70,24.67,-1.00,-1.0,2365
4998,2139998,23676,-5436,3652,24565.02,24.62,-1.00,-1.0,2437
5001,2140001,12196,-3900,2168,12986.63,24.62,-1.00,-1.0,2367
5004,2140004,18348,224,-4152,18813.25,24.62,-1.00,-1.0,2435
5007,2140007,16140,8220,2024,18225.38,24.58,-1.00,-1.0,2365
5009,2140009,16712,-120,2404,16884.45,24.53,-1.00,-1.0,2359
5014,2140014,9744,-5824,-124,11352.53,24.62,-1.00,-1.0,2441
5017,2140017,18024,4768,2976,18880.02,24.62,-1.00,-1.0,2368
5020,2140020,14460,4988,-4680,15996.07,24.72,-1.00,-1.0,2435
5022,2140022,20312,-1876,3012,20619.62,24.67,-1.00,-1.0,2367
5025,2140025,15208,-10012,752,18223.31,24.62,-1.00,-1.0,2436
5028,2140028,9560,-820,4416,10562.53,24.62,-1.00,-1.0,2368
5031,2140031,23760,6196,-4424,24949.95,24.62,-1.00,-1.0,2433
5033,2140033,9364,3144,2256,10132.07,24.67,-1.00,-1.0,2373
5038,2140038,14828,-5924,4784,16668.83,24.67,-1.00,-1.0,2451
5041,2140041,17576,-3148,-608,17866.04,24.67,-1.00,-1.0,2382
5044,2140044,15300,5316,-264,16199.37,24.62,-1.00,-1.0,2439
5047,2140047,15336,1868,-3564,15855.11,24.67,-1.00,-1.0,2369
5049,2140049,21684,-4076,5316,22695.14,24.67,-1.00,-1.0,2424
5052,2140052,16732,-9420,156,19202.10,24.77,-1.00,-1.0,2381
5055,2140055,14140,2764,2512,14624.96,24.72,-1.00,-1.0,2435
5058,2140058,19576,5540,-4136,20760.97,24.67,-1.00,-1.0,2376
5063,2140063,22492,-8064,1572,23945.55,24.67,-1.00,-1.0,2442
5065,2140065,12256,-2820,4244,13273.04,24.58,-1.00,-1.0,2368
5068,2140068,22928,2824,-32,23101.28,24.62,-1.00,-1.0,2361
5071,2140071,9668,4744,-2960,11168.59,24.62,-1.00,-1.0,2449
5073,2140073,22360,-684,-44,22370.50,24.67,-1.00,-1.0,2374
5076,2140076,14988,-6220,5884,17261.23,24.53,-1.00,-1.0,2436
5079,2140079,18288,-5088,1704,19058.92,24.81,-1.00,-1.0,2366
5082,2140082,13344,2648,-2072,13761.08,24.72,-1.00,-1.0,2445
5084,2140084,20684,5040,-2860,21480.43,24.67,-1.00,-1.0,2376
5089,2140089,18296,-6304,3748,19711.20,24.67,-1.00,-1.0,2451
5092,2140092,17232,-5568,-612,18119.57,24.67,-1.00,-1.0,2372
5095,2140095,17928,5152,2900,18877.67,24.62,-1.00,-1.0,2442
5098,2140098,14692,2752,-1172,14993.40,24.67,-1.00,-1.0,2370
5100,2140100,18544,-2888,2224,18898.85,24.62,-1.00,-1.0,2445
5103,2140103,14640,-3812,1164,15172.87,24.67,-1.00,-1.0,2372
5106,2140106,19368,2408,5816,20365.26,24.62,-1.00,-1.0,2424
5108,2140108,13428,2752,1376,13776.00,24.58,-1.00,-1.0,2366
5113,2140113,15012,-3548,-1184,15470.95,24.67,-1.00,-1.0,2440
5116,2140116,18528,1064,2516,18728.30,24.67,-1.00,-1.0,2366
5119,2140119,21536,204,-3392,21802.44,24.67,-1.00,-1.0,2440
5122,2140122,13612,1084,5452,14703.26,24.67,-1.00,-1.0,2374
5124,2140124,21524,-6188,-1092,22422.45,24.67,-1.00,-1.0,2368
5127,2140127,11040,2668,2376,11603.67,24.72,-1.00,-1.0,2445
5130,2140130,24208,3772,-3296,24720.82,24.62,-1.00,-1.0,2373
5133,2140133,10828,1568,2420,11205.38,24.62,-1.00,-1.0,2442
5135,2140135,19288,-6976,1520,20567.01,24.67,-1.00,-1.0,2373
5140,2140140,16964,-316,-3400,17304.25,24.67,-1.00,-1.0,2441
5143,2140143,16444,4600,-3740,17480.07,24.58,-1.00,-1.0,2366
5146,2140146,17808,3736,-976,18221.83,24.62,-1.00,-1.0,2447
5148,2140148,17412,-3204,8204,19512.79,24.67,-1.00,-1.0,2369
5151,2140151,19188,-9280,984,21336.96,24.53,-1.00,-1.0,2454
5154,2140154,9156,-192,260,9161.70,24.58,-1.00,-1.0,2366
5157,2140157,25544,9152,-4808,27556.70,24.72,-1.00,-1.0,2443
5159,2140159,7836,1008,-1032,7967.68,24.67,-1.00,-1.0,2364
5164,2140164,15976,-8920,2324,18444.51,24.62,-1.00,-1.0,2451
5167,2140167,19968,2640,904,20162.04,24.72,-1.00,-1.0,2374
5170,2140170,20260,6252,-3552,21498.18,24.62,-1.00,-1.0,2443
5173,2140173,13444,3240,1500,13910.02,24.62,-1.00,-1.0,2367
5175,2140175,18764,-5712,2080,19724.12,24.62,-1.00,-1.0,2347
5178,2140178,14224,-5136,5392,16055.35,24.58,-1.00,-1.0,2436
5181,2140181,17672,-1028,-1360,17754.04,24.72,-1.00,-1.0,2372
5183,2140183,18352,3972,-488,18783.26,24.67,-1.00,-1.0,2425
5186,2140186,14844,-248,-2440,15045.25,24.72,-1.00,-1.0,2380
5191,2140191,18484,-4388,-672,19009.59,24.67,-1.00,-1.0,2455
5194,2140194,15148,-1156,3224,15530.37,24.62,-1.00,-1.0,2374
5197,2140197,18392,-1100,-3624,18777.89,24.58,-1.00,-1.0,2450
5199,2140199,15720,3448,2504,16287.33,24.58,-1.00,-1.0,2374
5202,2140202,17832,-2124,-2000,18069.08,24.58,-1.00,-1.0,2443
5205,2140205,12980,-1744,2568,13346.03,24.62,-1.00,-1.0,2369
5208,2140208,21352,-2936,-736,21565.47,24.67,-1.00,-1.0,2447
5210,2140210,14780,1624,2456,15070.42,24.58,-1.00,-1.0,2374
5215,2140215,13192,1476,1420,13350.05,24.62,-1.00,-1.0,2444
5218,2140218,21068,-3132,-2320,21425.51,24.62,-1.00,-1.0,2366
5221,2140221,14308,-2100,3288,14830.37,24.67,-1.00,-1.0,2447
5223,2140223,21076,-3644,-1664,21453.33,24.72,-1.00,-1.0,2366
5226,2140226,11876,3360,648,12359.16,24.58,-1.00,-1.0,2452
5229,2140229,22036,1608,-2516,22237.38,24.62,-1.00,-1.0,2366
5232,2140232,17696,-1624,284,17772.63,24.67,-1.00,-1.0,2363
5234,2140234,17100,-5740,660,18049.74,24.67,-1.00,-1.0,2438
5237,2140237,18392,84,2404,18548.64,24.67,-1.00,-1.0,2374
5242,2140242,14552,3272,-800,14936.76,24.72,-1.00,-1.0,2439
5245,2140245,19680,1656,3592,20073.54,24.62,-1.00,-1.0,2368
5248,2140248,14700,-5472,3236,16015.76,24.58,-1.00,-1.0,2446
5250,2140250,21048,-4032,1004,21454.21,24.62,-1.00,-1.0,2367
5253,2140253,11204,4176,-1196,12016.61,24.67,-1.00,-1.0,2450
5256,2140256,17708,7464,620,19226.78,24.62,-1.00,-1.0,2361
5259,2140259,13500,-852,408,13533.01,24.58,-1.00,-1.0,2437
5261,2140261,22568,-8688,2652,24327.54,24.72,-1.00,-1.0,2369
5266,2140266,14048,5160,-456,14972.64,24.72,-1.00,-1.0,2440
5269,2140269,18544,5792,-4228,19882.23,24.62,-1.00,-1.0,2365
5272,2140272,11136,644,3068,11568.83,24.72,-1.00,-1.0,2446
5274,2140274,20788,-9140,2600,22856.96,24.72,-1.00,-1.0,2366
5277,2140277,14852,-2652,2548,15300.57,24.62,-1.00,-1.0,2440
5280,2140280,18688,5428,-5312,20172.30,24.72,-1.00,-1.0,2353
5282,2140282,11256,6692,216,13096.83,24.72,-1.00,-1.0,2360
5285,2140285,19004,-3136,-1104,19292.62,24.67,-1.00,-1.0,2437
5288,2140288,18312,-8100,4576,20539.70,24.67,-1.00,-1.0,2373
5293,2140293,13644,5612,-668,14768.19,24.67,-1.00,-1.0,2440
5296,2140296,19376,8244,-2792,21241.19,24.72,-1.00,-1.0,2373
5299,2140299,15520,-276,2444,15713.68,24.67,-1.00,-1.0,2441
5301,2140301,19708,-10720,1492,22484.43,24.62,-1.00,-1.0,2366
5304,2140304,12572,676,5020,13554.06,24.67,-1.00,-1.0,2435
5307,2140307,24252,6684,-1444,25197.63,24.72,-1.00,-1.0,2373
5310,2140310,8764,3092,-3056,9783.01,24.67,-1.00,-1.0,2437
5312,2140312,24556,-4084,1076,24916.54,24.72,-1.00,-1.0,2366
5317,2140317,20364,-1256,1420,20452.05,24.72,-1.00,-1.0,2440
5320,2140320,11212,3952,-2416,12131.13,24.72,-1.00,-1.0,2368
5323,2140323,15868,5908,1528,17000.96,24.72,-1.00,-1.0,2439
5325,2140325,17492,-2972,2728,17951.18,24.62,-1.00,-1.0,2353
5328,2140328,16984,-5396,3284,18120.64,24.62,-1.00,-1.0,2436
5331,2140331,15624,836,1592,15727.13,24.62,-1.00,-1.0,2367
5334,2140334,17140,4660,548,17770.64,24.72,-1.00,-1.0,2429
5336,2140336,14640,1620,-1320,14788.39,24.72,-1.00,-1.0,2373
5339,2140339,20196,-1944,3260,20549.58,24.67,-1.00,-1.0,2368
5344,2140344,17928,-272,3136,18202.24,24.67,-1.00,-1.0,2455
5347,2140347,18640,348,-3804,19027.38,24.67,-1.00,-1.0,2371
5350,2140350,15896,4164,1932,16545.52,24.62,-1.00,-1.0,2452
5352,2140352,18224,-4108,-1564,18746.62,24.67,-1.00,-1.0,2371
5355,2140355,15348,-2172,4960,16275.14,24.67,-1.00,-1.0,2471
5358,2140358,18352,368,504,18362.61,24.67,-1.00,-1.0,2363
5361,2140361,14356,2672,1068,14641.55,24.67,-1.00,-1.0,2450
5363,2140363,17500,-484,-2316,17659.22,24.67,-1.00,-1.0,2351
5368,2140368,20400,-3080,-1464,20683.08,24.58,-1.00,-1.0,2444
5371,2140371,15380,-880,4204,15968.48,24.67,-1.00,-1.0,2363
5374,2140374,19364,-2008,-1164,19502.60,24.67,-1.00,-1.0,2450
5376,2140376,13944,3764,2104,14595.54,24.67,-1.00,-1.0,2364
5379,2140379,19776,-908,-3588,20119.35,24.67,-1.00,-1.0,2442
5382,2140382,15768,-2452,3480,16332.56,24.67,-1.00,-1.0,2363
5385,2140385,19216,-4744,984,19817.38,24.77,-1.00,-1.0,2450
5387,2140387,15704,1032,2540,15941.53,24.67,-1.00,-1.0,2350
5390,2140390,19272,240,-4572,19808.35,24.72,-1.00,-1.0,2361
5395,2140395,21276,-296,2712,21450.19,24.67,-1.00,-1.0,2445
5398,2140398,17144,-4244,1520,17726.78,24.67,-1.00,-1.0,2363
5400,2140400,18652,-3312,1428,18997.52,24.67,-1.00,-1.0,2430
5403,2140403,14156,2564,384,14391.45,24.67,-1.00,-1.0,2364
5406,2140406,19932,3424,-1804,20304.26,24.67,-1.00,-1.0,2438
5409,2140409,16096,-96,-116,16096.70,24.58,-1.00,-1.0,2362
5411,2140411,19316,-5544,2336,20231.18,24.58,-1.00,-1.0,2440
5414,2140414,15292,-2668,1628,15608.13,24.58,-1.00,-1.0,2364
5419,2140419,16336,3696,-2512,16936.22,24.67,-1.00,-1.0,2449
5422,2140422,18192,-1856,2216,18420.21,24.62,-1.00,-1.0,2364
5425,2140425,18036,-6520,452,19183.64,24.58,-1.00,-1.0,2443
5427,2140427,16744,320,5784,17717.75,24.67,-1.00,-1.0,2366
5430,2140430,15300,3140,-556,15628.78,24.58,-1.00,-1.0,2440
5433,2140433,18516,1144,516,18558.48,24.62,-1.00,-1.0,2365
5436,2140436,17328,-3268,-1372,17686.77,24.58,-1.00,-1.0,2433
5438,2140438,17596,-1608,4164,18153.34,24.62,-1.00,-1.0,2372
5443,2140443,11572,2400,924,11854.32,24.62,-1.00,-1.0,2452
5446,2140446,22920,-480,-1940,23006.96,24.62,-1.00,-1.0,2377
5449,2140449,13748,-1556,1468,13913.43,24.67,-1.00,-1.0,2361
5451,2140451,19472,-4944,-2820,20286.80,24.67,-1.00,-1.0,2444
5454,2140454,16420,592,1112,16468.25,24.77,-1.00,-1.0,2364
5457,2140457,18812,496,-2764,19020.44,24.58,-1.00,-1.0,2438
5460,2140460,14636,1144,896,14707.96,24.58,-1.00,-1.0,2363
5462,2140462,19160,-2156,208,19282.04,24.67,-1.00,-1.0,2440
5465,2140465,15476,-684,3860,15964.77,24.53,-1.00,-1.0,2363
5470,2140470,10400,1676,1304,10614.58,24.67,-1.00,-1.0,2430
5473,2140473,24252,840,440,24270.53,24.77,-1.00,-1.0,2363
5476,2140476,12944,-2576,-1804,13320.56,24.67,-1.00,-1.0,2439
5478,2140478,20468,-1880,876,20572.82,24.67,-1.00,-1.0,2365
5481,2140481,16452,-396,1172,16498.45,24.58,-1.00,-1.0,2439
5484,2140484,18236,1400,828,18308.39,24.67,-1.00,-1.0,2364
5487,2140487,18112,408,-1272,18161.20,24.67,-1.00,-1.0,2439
5489,2140489,16300,4,1880,16408.06,24.77,-1.00,-1.0,2351
5492,2140492,17228,-2544,1988,17527.92,24.62,-1.00,-1.0,2363
5497,2140497,17408,-1504,-3412,17802.87,24.72,-1.00,-1.0,2446
5500,2140500,18416,1180,-464,18459.60,24.67,-1.00,-1.0,2362
5503,2140503,15300,-432,348,15310.05,24.72,-1.00,-1.0,2449
5505,2140505,13084,-276,2604,13343.46,24.72,-1.00,-1.0,2365
5508,2140508,21512,-2144,-856,21635.52,24.81,-1.00,-1.0,2441
5511,2140511,13476,364,3860,14022.65,24.67,-1.00,-1.0,2364
5514,2140514,18640,288,836,18660.96,24.62,-1.00,-1.0,2446
5516,2140516,13292,1932,1208,13485.89,24.72,-1.00,-1.0,2365
5521,2140521,15184,-1204,2664,15462.87,24.62,-1.00,-1.0,2443
5524,2140524,19296,-3496,-1368,19657.80,24.58,-1.00,-1.0,2363
5527,2140527,17004,1296,1768,17144.72,24.67,-1.00,-1.0,2441
5530,2140530,19732,-32,-2748,19922.46,24.67,-1.00,-1.0,2364
5532,2140532,12588,1592,572,12701.16,24.62,-1.00,-1.0,2437
5535,2140535,22992,-1616,380,23051.85,24.67,-1.00,-1.0,2364
5538,2140538,13288,-2272,4124,14097.53,24.77,-1.00,-1.0,2438
5541,2140541,21048,-2916,580,21256.95,24.77,-1.00,-1.0,2366
5543,2140543,11560,3064,1112,12010.75,24.77,-1.00,-1.0,2362
5548,2140548,16124,-1204,600,16180.02,24.67,-1.00,-1.0,2443
5551,2140551,17332,-5868,2476,18465.16,24.62,-1.00,-1.0,2365
5554,2140554,17296,-764,1544,17381.58,24.58,-1.00,-1.0,2449
5556,2140556,13828,4276,1536,14555.31,24.62,-1.00,-1.0,2365
5559,2140559,17132,2620,-1828,17427.32,24.58,-1.00,-1.0,2446
5562,2140562,18040,-3248,1360,18380.44,24.72,-1.00,-1.0,2365
5565,2140565,15432,-4876,312,16187.01,24.67,-1.00,-1.0,2444
5567,2140567,17392,2580,5284,18359.16,24.62,-1.00,-1.0,2364
5572,2140572,17516,1600,1148,17626.35,24.58,-1.00,-1.0,2452
5575,2140575,16740,-4808,-244,17418.50,24.67,-1.00,-1.0,2372
5578,2140578,17576,564,3028,17843.84,24.58,-1.00,-1.0,2444
5581,2140581,22552,1004,-2144,22675.92,24.77,-1.00,-1.0,2371
5583,2140583,9748,3156,3068,10695.63,24.62,-1.00,-1.0,2447
5586,2140586,24616,-3380,-692,24856.60,24.67,-1.00,-1.0,2380
5589,2140589,11236,-616,5264,12423.24,24.67,-1.00,-1.0,2440
5592,2140592,22592,-2012,-2552,22824.53,24.58,-1.00,-1.0,2369
5594,2140594,12756,1736,-288,12876.81,24.62,-1.00,-1.0,2368
5599,2140599,15504,-792,3108,15832.28,24.72,-1.00,-1.0,2447
5602,2140602,19376,-2652,124,19557.04,24.72,-1.00,-1.0,2373
5605,2140605,13436,1296,204,13499.90,24.62,-1.00,-1.0,2442
5608,2140608,21936,1700,-680,22012.28,24.72,-1.00,-1.0,2364
5610,2140610,15920,-1464,2424,16169.89,24.62,-1.00,-1.0,2441
5613,2140613,18544,-4192,3332,19301.68,24.72,-1.00,-1.0,2368
5616,2140616,14104,828,1504,14208.11,24.62,-1.00,-1.0,2440
5619,2140619,19492,3132,-2432,19891.26,24.62,-1.00,-1.0,2366
5624,2140624,14416,-1808,2632,14765.41,24.58,-1.00,-1.0,2444
5626,2140626,19340,-6556,180,20421.78,24.67,-1.00,-1.0,2369
5629,2140629,16036,1876,2824,16390.47,24.62,-1.00,-1.0,2456
5632,2140632,17316,2384,-2308,17631.06,24.58,-1.00,-1.0,2372
5635,2140635,16692,92,1720,16780.63,24.53,-1.00,-1.0,2450
5637,2140637,19732,-4720,-816,20305.08,24.58,-1.00,-1.0,2371
5640,2140640,16416,-2564,652,16627.82,24.62,-1.00,-1.0,2453
5643,2140643,17972,244,-2048,18089.96,24.67,-1.00,-1.0,2371
5645,2140645,11124,3860,1912,11928.90,24.62,-1.00,-1.0,2361
5650,2140650,10384,-2744,3496,11295.09,24.62,-1.00,-1.0,2451
5653,2140653,22056,-1848,988,22155.32,24.53,-1.00,-1.0,2371
5656,2140656,12824,1716,1136,12988.08,24.62,-1.00,-1.0,2442
5659,2140659,20928,144,-2224,21046.33,24.72,-1.00,-1.0,2361
5661,2140661,15852,628,2572,16071.57,24.62,-1.00,-1.0,2441
5664,2140664,18952,-1744,2404,19183.30,24.62,-1.00,-1.0,2368
5667,2140667,14992,-12,3604,15419.11,24.72,-1.00,-1.0,2439
5670,2140670,19916,-236,-488,19923.38,24.72,-1.00,-1.0,2374
5675,2140675,19564,308,1660,19636.71,24.62,-1.00,-1.0,2476
5677,2140677,18984,-3180,-1756,19328.43,24.58,-1.00,-1.0,2364
5680,2140680,15444,-1508,1128,15558.39,24.67,-1.00,-1.0,2441
5683,2140683,17696,424,136,17701.60,24.58,-1.00,-1.0,2364
5686,2140686,17988,1424,1984,18153.02,24.67,-1.00,-1.0,2448
5688,2140688,19688,-2704,-2772,20065.22,24.67,-1.00,-1.0,2365
5691,2140691,14652,-1240,1584,14789.45,24.67,-1.00,-1.0,2362
5694,2140694,20636,-1496,-924,20710.78,24.58,-1.00,-1.0,2448
5696,2140696,10756,1168,2156,11031.96,24.67,-1.00,-1.0,2364
5701,2140701,13300,716,2448,13542.35,24.67,-1.00,-1.0,2449
5704,2140704,20456,-1604,972,20541.80,24.67,-1.00,-1.0,2365
5707,2140707,13544,1108,3680,14078.71,24.58,-1.00,-1.0,2439
5710,2140710,19848,-1276,-484,19894.86,24.67,-1.00,-1.0,2364
5712,2140712,14528,24,2388,14722.97,24.67,-1.00,-1.0,2441
5715,2140715,19924,-1840,-140,20009.27,24.77,-1.00,-1.0,2364
5718,2140718,13084,1260,1148,13194.57,24.67,-1.00,-1.0,2440
5721,2140721,20272,688,-784,20298.82,24.67,-1.00,-1.0,2365
5726,2140726,18560,-4208,1180,19067.60,24.72,-1.00,-1.0,2450
5728,2140728,16964,-3360,-688,17307.23,24.72,-1.00,-1.0,2376
5731,2140731,17220,2792,-640,17456.61,24.67,-1.00,-1.0,2448
5734,2140734,13744,1852,-56,13868.33,24.62,-1.00,-1.0,2367
5737,2140737,21600,-4736,752,22125.89,24.67,-1.00,-1.0,2451
5739,2140739,18044,-6824,-564,19299.51,24.77,-1.00,-1.0,2373
5742,2140742,15808,1708,196,15901.21,24.67,-1.00,-1.0,2362
5745,2140745,18888,4260,-3924,19756.06,24.67,-1.00,-1.0,2436
5747,2140747,16736,-876,1628,16837.80,24.62,-1.00,-1.0,2364
5752,2140752,12988,-2664,3376,13681.46,24.72,-1.00,-1.0,2448
5755,2140755,21620,652,-3412,21897.29,24.67,-1.00,-1.0,2365
5758,2140758,14292,4312,-1816,15038.37,24.62,-1.00,-1.0,2440
5761,2140761,20068,-2144,-888,20201.73,24.67,-1.00,-1.0,2364
5763,2140763,16008,-2836,4596,16894.44,24.62,-1.00,-1.0,2428
5766,2140766,21136,-2848,1732,21397.23,24.67,-1.00,-1.0,2365
5769,2140769,12608,3688,2220,13322.59,24.62,-1.00,-1.0,2442
5772,2140772,19716,2972,-364,19942.06,24.58,-1.00,-1.0,2364
5778,2140778,15264,-3388,3260,15971.72,24.62,-1.00,-1.0,2449
5781,2140781,18612,1784,1508,18758.02,24.72,-1.00,-1.0,2365
5784,2140784,15972,2936,-3384,16588.44,24.62,-1.00,-1.0,2440
5787,2140787,15056,1700,3576,15567.95,24.67,-1.00,-1.0,2364
5789,2140789,16012,-5176,2608,17028.71,24.62,-1.00,-1.0,2428
5792,2140792,18212,-4472,3704,19115.32,24.62,-1.00,-1.0,2366
5795,2140795,17720,-2872,-2552,18131.73,24.62,-1.00,-1.0,2442
5798,2140798,14384,7952,484,16442.87,24.77,-1.00,-1.0,2364
5800,2140800,23552,5024,-3200,24293.56,24.62,-1.00,-1.0,2362
5805,2140805,22188,-7432,3796,23705.52,24.67,-1.00,-1.0,2463
5808,2140808,11508,-2764,4180,12551.74,24.58,-1.00,-1.0,2368
5811,2140811,23844,4548,-2064,24361.46,24.67,-1.00,-1.0,2455
5813,2140813,15224,3432,-4364,16204.73,24.67,-1.00,-1.0,2374
5816,2140816,17808,-92,1264,17853.04,24.67,-1.00,-1.0,2446
5819,2140819,17388,-6400,2336,18675.10,24.67,-1.00,-1.0,2355
5822,2140822,17628,-1520,1232,17736.25,24.67,-1.00,-1.0,2452
5824,2140824,21224,2020,-2804,21503.51,24.58,-1.00,-1.0,2375
5829,2140829,22432,-1060,-1184,22488.22,24.67,-1.00,-1.0,2450
5832,2140832,12900,-4584,4656,14460.34,24.53,-1.00,-1.0,2364
5835,2140835,20928,-3528,-1716,21292.55,24.67,-1.00,-1.0,2445
5837,2140837,14844,3508,112,15253.29,24.67,-1.00,-1.0,2366
5840,2140840,18820,2008,-4680,19496.84,24.77,-1.00,-1.0,2449
5843,2140843,14428,404,588,14445.63,24.58,-1.00,-1.0,2365
5846,2140846,20392,-5932,-1384,21282.33,24.58,-1.00,-1.0,2446
5848,2140848,15280,-1984,4368,16015.43,24.58,-1.00,-1.0,2364
5853,2140853,8540,5084,2136,10165.68,24.62,-1.00,-1.0,2449
5856,2140856,21708,2556,-2512,22001.83,24.72,-1.00,-1.0,2365
5859,2140859,13580,-2424,504,13803.85,24.67,-1.00,-1.0,2370
5862,2140862,18700,-1996,3628,19152.97,24.67,-1.00,-1.0,2440
5864,2140864,22356,-2416,-628,22494.94,24.67,-1.00,-1.0,2368
5867,2140867,14724,-68,-124,14724.68,24.67,-1.00,-1.0,2440
5870,2140870,18688,-412,-784,18708.97,24.67,-1.00,-1.0,2372
5873,2140873,14784,1508,1368,14923.54,24.67,-1.00,-1.0,2440
5875,2140875,21268,-876,-1808,21362.68,24.67,-1.00,-1.0,2365
5880,2140880,18848,-4416,-784,19374.28,24.62,-1.00,-1.0,2448
5883,2140883,14840,1332,1132,14942.60,24.62,-1.00,-1.0,2364
5886,2140886,19524,1736,-4304,20068.00,24.67,-1.00,-1.0,2447
5888,2140888,16912,-1368,2840,17203.28,24.62,-1.00,-1.0,2365
5891,2140891,20584,-6620,1236,21657.63,24.67,-1.00,-1.0,2441
5894,2140894,13064,-784,3404,13522.94,24.62,-1.00,-1.0,2364
5897,2140897,20564,3444,-4608,21353.52,24.62,-1.00,-1.0,2437
5899,2140899,13756,2352,500,13964.58,24.62,-1.00,-1.0,2352
5904,2140904,12896,-4716,5700,14867.33,24.62,-1.00,-1.0,2456
5907,2140907,19916,-1580,932,20000.30,24.72,-1.00,-1.0,2380
5910,2140910,13872,3852,-2584,14626.94,24.72,-1.00,-1.0,2362
5912,2140912,17976,3856,1348,18434.27,24.58,-1.00,-1.0,2440
5915,2140915,22340,-3452,-1004,22627.42,24.62,-1.00,-1.0,2365
5918,2140918,14912,-7284,2224,16744.27,24.58,-1.00,-1.0,2440
5921,2140921,18552,-1432,-544,18615.13,24.62,-1.00,-1.0,2364
5923,2140923,16288,5752,-3056,17542.05,24.67,-1.00,-1.0,2440
5926,2140926,22092,3464,-3700,22665.96,24.72,-1.00,-1.0,2365
5931,2140931,22516,-7092,2532,23741.90,24.62,-1.00,-1.0,2458
5934,2140934,12772,-1040,1980,12966.34,24.62,-1.00,-1.0,2353
5937,2140937,20240,5296,-4712,21445.47,24.62,-1.00,-1.0,2453
5939,2140939,15424,1488,856,15519.24,24.62,-1.00,-1.0,2375
5942,2140942,17932,-5264,1964,18791.58,24.72,-1.00,-1.0,2448
5945,2140945,15144,-4248,4212,16282.73,24.62,-1.00,-1.0,2354
5948,2140948,18972,2592,-1844,19236.83,24.62,-1.00,-1.0,2452
5950,2140950,15712,4572,1072,16398.76,24.72,-1.00,-1.0,2376
5955,2140955,13064,-3708,4124,14192.42,24.62,-1.00,-1.0,2448
5958,2140958,21108,-1204,1964,21233.34,24.62,-1.00,-1.0,2363
5961,2140961,12524,1132,-3080,12946.75,24.62,-1.00,-1.0,2448
5963,2140963,18580,3448,2912,19120.27,24.67,-1.00,-1.0,2365
5966,2140966,15632,-2428,2788,16063.24,24.72,-1.00,-1.0,2455
5969,2140969,14912,-4068,3164,15777.43,24.62,-1.00,-1.0,2364
5972,2140972,18988,-2048,-1396,19149.08,24.53,-1.00,-1.0,2363
5974,2140974,14580,5380,-260,15543.11,24.67,-1.00,-1.0,2444
5977,2140977,23272,2172,-4224,23751.75,24.62,-1.00,-1.0,2373
5982,2140982,20960,-6912,2944,22265.77,24.67,-1.00,-1.0,2450
5985,2140985,14280,-220,2592,14515.00,24.67,-1.00,-1.0,2364
5987,2140987,19704,4072,-5140,20766.52,24.67,-1.00,-1.0,2441
5990,2140990,15372,4124,364,15919.74,24.67,-1.00,-1.0,2366
5993,2140993,18288,-4192,2244,18896.01,24.67,-1.00,-1.0,2440
5996,2140996,14800,-4488,4108,16001.81,24.67,-1.00,-1.0,2367
5998,2140998,20540,1688,-720,20621.82,24.67,-1.00,-1.0,2440
6001,2141001,13424,3492,-2648,14121.25,24.77,-1.00,-1.0,2352
6006,2141006,18744,-5224,-696,19470.80,24.67,-1.00,-1.0,2449
6009,2141009,15924,-2880,1796,16281.70,24.67,-1.00,-1.0,2364
6011,2141011,16960,1156,-1428,17059.22,24.77,-1.00,-1.0,2441
6014,2141014,13128,3464,120,13577.85,24.67,-1.00,-1.0,2365
6017,2141017,20560,-2720,-2724,20917.27,24.67,-1.00,-1.0,2439
6020,2141020,13768,-2560,2772,14275.69,24.67,-1.00,-1.0,2365
6022,2141022,21408,-1456,-680,21468.23,24.67,-1.00,-1.0,2440
6025,2141025,12404,2460,2244,12843.14,24.58,-1.00,-1.0,2353
6028,2141028,21632,-824,-3544,21935.87,24.77,-1.00,-1.0,2363
