timestamp_ms,global_ms,accel_x,accel_y,accel_z,accel_mag,temp_c,voltage,soc,loop_us
3,2135003,9236,-36,-1980,9445.92,24.77,-1.00,-1.0,2481
9,2135009,10752,-3916,2812,11783.37,24.72,-1.00,-1.0,2473
12,2135012,23212,872,248,23229.70,24.62,-1.00,-1.0,2366
15,2135015,12448,3804,-2924,13340.65,24.58,-1.00,-1.0,2365
17,2135017,20916,1664,-5128,21599.64,24.67,-1.00,-1.0,2431
20,2135020,16388,-5080,368,17161.25,24.58,-1.00,-1.0,2365
23,2135023,20744,-6100,3320,21875.69,24.67,-1.00,-1.0,2432
26,2135026,23716,-3244,1592,23989.72,24.67,-1.00,-1.0,2362
28,2135028,9596,5528,-2980,11468.32,24.67,-1.00,-1.0,2433
31,2135031,22196,5264,-1388,22853.85,24.58,-1.00,-1.0,2365
36,2135036,19464,-7408,6308,21760.44,24.67,-1.00,-1.0,2449
39,2135039,22836,-6716,3080,24001.54,24.67,-1.00,-1.0,2363
41,2135041,12280,3228,-760,12719.91,24.62,-1.00,-1.0,2433
44,2135044,19912,7256,-3080,21415.50,24.58,-1.00,-1.0,2365
47,2135047,13416,-16,-2236,13601.07,24.58,-1.00,-1.0,2437
50,2135050,21372,-5080,5040,22538.20,24.58,-1.00,-1.0,2363
52,2135052,13852,-7952,4908,16709.30,24.62,-1.00,-1.0,2355
55,2135055,20484,924,-560,20512.47,24.58,-1.00,-1.0,2439
58,2135058,16532,6072,-3492,17954.67,24.67,-1.00,-1.0,2364
63,2135063,21244,-644,3636,21562.53,24.67,-1.00,-1.0,2448
65,2135065,13044,-7980,5988,16422.01,24.67,-1.00,-1.0,2362
68,2135068,21344,-2844,2176,21642.31,24.58,-1.00,-1.0,2440
71,2135071,12368,5924,-2692,13975.27,24.67,-1.00,-1.0,2362
74,2135074,17840,6176,-5004,19530.71,24.67,-1.00,-1.0,2446
76,2135076,17672,-768,1856,17785.79,24.58,-1.00,-1.0,2366
79,2135079,17380,-8524,2840,19564.98,24.67,-1.00,-1.0,2439
82,2135082,19232,-3532,848,19572.02,24.58,-1.00,-1.0,2360
84,2135084,11720,3320,-520,12192.26,24.67,-1.00,-1.0,2364
89,2135089,13488,2412,-708,13720.25,24.58,-1.00,-1.0,2456
92,2135092,20080,-4420,4368,21019.57,24.67,-1.00,-1.0,2375
95,2135095,14820,-6924,3308,16688.83,24.67,-1.00,-1.0,2441
98,2135098,15924,-1040,2668,16179.42,24.58,-1.00,-1.0,2369
100,2135100,18756,3980,-4044,19595.46,24.58,-1.00,-1.0,2442
103,2135103,13768,4636,-1080,14567.66,24.58,-1.00,-1.0,2375
106,2135106,21876,-1684,5156,22538.40,24.67,-1.00,-1.0,2439
109,2135109,10284,-6268,4888,12997.73,24.58,-1.00,-1.0,2366
113,2135113,15712,1056,-204,15748.77,24.53,-1.00,-1.0,2447
116,2135116,15864,6496,-2140,17275.54,24.62,-1.00,-1.0,2361
119,2135119,18016,2196,2540,18326.22,24.62,-1.00,-1.0,2438
122,2135122,14700,-6080,3984,16399.04,24.62,-1.00,-1.0,2365
124,2135124,24528,-5256,6572,25931.44,24.72,-1.00,-1.0,2433
127,2135127,9204,416,912,9258.42,24.53,-1.00,-1.0,2351
130,2135130,22796,5836,-2724,23688.32,24.62,-1.00,-1.0,2365
133,2135133,14452,3968,-2576,15206.61,24.67,-1.00,-1.0,2439
135,2135135,17740,-3036,2940,18236.46,24.53,-1.00,-1.0,2359
140,2135140,12128,-3308,2588,12834.68,24.53,-1.00,-1.0,2447
143,2135143,23548,3384,-3364,24026.57,24.58,-1.00,-1.0,2360
146,2135146,10940,6116,0,12533.52,24.53,-1.00,-1.0,2438
148,2135148,20648,-660,-2432,20801.21,24.62,-1.00,-1.0,2363
151,2135151,14184,-7160,1104,15927.03,24.62,-1.00,-1.0,2439
154,2135154,21844,-4028,700,22223.30,24.67,-1.00,-1.0,2361
157,2135157,14892,2128,-1548,15122.71,24.62,-1.00,-1.0,2439
159,2135159,12304,4844,-1980,13370.61,24.58,-1.00,-1.0,2374
164,2135164,12612,-3552,1112,13149.75,24.58,-1.00,-1.0,2456
167,2135167,21688,-5232,2932,22502.00,24.67,-1.00,-1.0,2365
170,2135170,13520,-600,536,13543.92,24.72,-1.00,-1.0,2362
172,2135172,14492,3824,-600,15000.03,24.62,-1.00,-1.0,2434
175,2135175,19620,3920,-140,20008.26,24.62,-1.00,-1.0,2368
178,2135178,13380,-2172,1968,13697.26,24.67,-1.00,-1.0,2439
181,2135181,23168,-4256,4960,24072.21,24.58,-1.00,-1.0,2362
183,2135183,11176,-2492,2748,11775.59,24.62,-1.00,-1.0,2441
186,2135186,22616,1744,-1812,22755.40,24.58,-1.00,-1.0,2375
191,2135191,17160,1084,-524,17202.19,24.58,-1.00,-1.0,2448
194,2135194,18724,-5112,1620,19476.78,24.67,-1.00,-1.0,2371
197,2135197,12344,-5440,3416,13915.35,24.67,-1.00,-1.0,2434
199,2135199,21860,-516,336,21868.67,24.67,-1.00,-1.0,2367
202,2135202,12248,5092,-1324,13330.23,24.58,-1.00,-1.0,2432
205,2135205,20916,2840,2592,21266.48,24.67,-1.00,-1.0,2371
207,2135207,14512,-4000,812,15075.06,24.58,-1.00,-1.0,2358
210,2135210,20296,-5924,1804,21219.70,24.62,-1.00,-1.0,2448
213,2135213,15520,-40,1328,15576.76,24.67,-1.00,-1.0,2360
218,2135218,20492,4476,-28,20975.16,24.58,-1.00,-1.0,2456
221,2135221,12112,-804,-200,12140.30,24.67,-1.00,-1.0,2361
223,2135223,21224,-5144,3068,22052.93,24.53,-1.00,-1.0,2447
226,2135226,15336,-2800,1264,15640.67,24.67,-1.00,-1.0,2369
229,2135229,19160,2640,-392,19345.00,24.67,-1.00,-1.0,2449
231,2135231,17140,3428,-3144,17759.94,24.58,-1.00,-1.0,2359
234,2135234,17036,-204,-2736,17255.51,24.72,-1.00,-1.0,2451
237,2135237,18716,-5140,940,19431.72,24.62,-1.00,-1.0,2368
242,2135242,19572,-732,108,19585.98,24.72,-1.00,-1.0,2436
245,2135245,13736,4728,-1732,14629.82,24.62,-1.00,-1.0,2370
247,2135247,19472,3656,-2156,19929.21,24.53,-1.00,-1.0,2446
250,2135250,14452,-2284,2332,14816.04,24.62,-1.00,-1.0,2375
253,2135253,19136,-4864,6360,20743.54,24.53,-1.00,-1.0,2361
255,2135255,18644,-4004,1052,19098.10,24.67,-1.00,-1.0,2432
258,2135258,17644,2700,-2164,17980.09,24.62,-1.00,-1.0,2368
261,2135261,16496,4588,-2104,17250.93,24.72,-1.00,-1.0,2438
264,2135264,16948,-240,1356,17003.85,24.62,-1.00,-1.0,2380
269,2135269,16036,-4572,3156,16971.06,24.62,-1.00,-1.0,2448
272,2135272,18260,448,-616,18275.88,24.58,-1.00,-1.0,2368
275,2135275,16648,4400,-1300,17268.64,24.62,-1.00,-1.0,2448
277,2135277,17164,2184,-1268,17348.79,24.53,-1.00,-1.0,2363
280,2135280,15184,-1340,3184,15572.00,24.62,-1.00,-1.0,2454
283,2135283,16912,-3956,4212,17871.95,24.67,-1.00,-1.0,2371
286,2135286,14400,-1676,1892,14620.14,24.62,-1.00,-1.0,2440
288,2135288,20092,1064,140,20120.64,24.62,-1.00,-1.0,2360
291,2135291,13972,1688,-260,14076.00,24.62,-1.00,-1.0,2363
296,2135296,18112,-1964,-276,18220.26,24.62,-1.00,-1.0,2464
299,2135299,15080,-1988,1272,15263.57,24.62,-1.00,-1.0,2368
302,2135302,21092,-680,2568,21258.63,24.53,-1.00,-1.0,2447
304,2135304,12872,-836,468,12907.61,24.72,-1.00,-1.0,2365
307,2135307,20784,1352,-740,20841.07,24.62,-1.00,-1.0,2454
310,2135310,12260,752,-748,12305.80,24.62,-1.00,-1.0,2367
313,2135313,20340,-2100,-1264,20487.15,24.72,-1.00,-1.0,2451
315,2135315,20180,-1428,3308,20499.13,24.72,-1.00,-1.0,2365
320,2135320,22424,-944,-64,22443.95,24.62,-1.00,-1.0,2450
323,2135323,11036,2688,-56,11358.78,24.58,-1.00,-1.0,2361
326,2135326,21236,188,-960,21258.52,24.67,-1.00,-1.0,2441
328,2135328,17340,-1860,1180,17479.35,24.58,-1.00,-1.0,2360
331,2135331,17232,-3684,1900,17723.54,24.62,-1.00,-1.0,2361
334,2135334,17424,-1128,404,17465.15,24.62,-1.00,-1.0,2447
336,2135336,16364,2080,-1392,16554.29,24.62,-1.00,-1.0,2360
339,2135339,20352,1252,-616,20399.78,24.62,-1.00,-1.0,2444
342,2135342,13580,-996,964,13650.56,24.67,-1.00,-1.0,2359
347,2135347,15476,-2252,1096,15677.35,24.67,-1.00,-1.0,2457
350,2135350,19124,612,24,19133.80,24.58,-1.00,-1.0,2363
353,2135353,12716,2132,232,12895.58,24.67,-1.00,-1.0,2448
355,2135355,18156,600,-332,18168.95,24.58,-1.00,-1.0,2368
358,2135358,17408,-2228,1872,17649.56,24.67,-1.00,-1.0,2446
361,2135361,16264,-2180,1868,16515.43,24.58,-1.00,-1.0,2365
364,2135364,17044,352,-436,17053.21,24.67,-1.00,-1.0,2449
366,2135366,14548,1808,88,14660.18,24.77,-1.00,-1.0,2370
369,2135369,19368,-720,1168,19416.54,24.67,-1.00,-1.0,2361
374,2135374,20408,-1012,508,20439.39,24.58,-1.00,-1.0,2456
377,2135377,13772,228,548,13784.78,24.67,-1.00,-1.0,2362
380,2135380,19276,-1144,-104,19310.20,24.67,-1.00,-1.0,2438
382,2135382,19128,-1332,424,19179.01,24.58,-1.00,-1.0,2371
385,2135385,15420,-876,64,15445.00,24.67,-1.00,-1.0,2433
388,2135388,18756,-188,-280,18759.03,24.67,-1.00,-1.0,2366
391,2135391,15000,108,820,15022.79,24.58,-1.00,-1.0,2442
393,2135393,21120,-1012,1504,21197.65,24.67,-1.00,-1.0,2372
398,2135398,18648,-780,-224,18665.65,24.58,-1.00,-1.0,2449
401,2135401,15516,-668,16,15530.38,24.72,-1.00,-1.0,2360
404,2135404,17768,52,1656,17845.08,24.67,-1.00,-1.0,2366
406,2135406,19648,-636,356,19661.51,24.58,-1.00,-1.0,2441
409,2135409,16048,-928,-612,16086.46,24.58,-1.00,-1.0,2382
412,2135412,18840,-340,1088,18874.45,24.58,-1.00,-1.0,2438
415,2135415,15176,-360,236,15182.10,24.58,-1.00,-1.0,2368
417,2135417,19952,104,1620,20017.93,24.58,-1.00,-1.0,2449
420,2135420,13640,0,2632,13891.62,24.62,-1.00,-1.0,2361
425,2135425,16200,-208,748,16218.59,24.58,-1.00,-1.0,2448
428,2135428,18036,216,304,18039.86,24.62,-1.00,-1.0,2371
431,2135431,15148,-552,804,15179.36,24.67,-1.00,-1.0,2434
433,2135433,16132,-1152,392,16177.83,24.62,-1.00,-1.0,2365
436,2135436,19524,-1084,1148,19587.74,24.67,-1.00,-1.0,2363
439,2135439,14788,-280,-284,14793.38,24.67,-1.00,-1.0,2450
441,2135441,20356,1176,812,20406.10,24.67,-1.00,-1.0,2363
444,2135444,14116,-532,772,14147.10,24.58,-1.00,-1.0,2451
447,2135447,19924,-2356,1636,20129.41,24.58,-1.00,-1.0,2361
452,2135452,18324,868,748,18359.79,24.67,-1.00,-1.0,2462
455,2135455,15120,192,-260,15123.45,24.48,-1.00,-1.0,2367
458,2135458,18596,-1520,536,18665.71,24.67,-1.00,-1.0,2450
460,2135460,19192,-1616,1240,19299.79,24.67,-1.00,-1.0,2363
463,2135463,15628,-756,396,15651.29,24.62,-1.00,-1.0,2454
466,2135466,18100,-36,-396,18104.37,24.58,-1.00,-1.0,2366
468,2135468,16636,-292,1124,16676.48,24.62,-1.00,-1.0,2370
471,2135471,16956,-1136,-308,16996.80,24.62,-1.00,-1.0,2441
474,2135474,13816,196,36,13817.44,24.58,-1.00,-1.0,2372
479,2135479,13264,-1800,1000,13422.88,24.58,-1.00,-1.0,2450
482,2135482,21116,-2532,44,21267.31,24.67,-1.00,-1.0,2359
485,2135485,13568,1020,-500,13615.47,24.67,-1.00,-1.0,2442
487,2135487,21180,2840,1836,21448.29,24.67,-1.00,-1.0,2360
490,2135490,15520,-1412,-776,15603.41,24.58,-1.00,-1.0,2440
493,2135493,19456,-4152,-996,19919.01,24.62,-1.00,-1.0,2362
496,2135496,17908,-1912,-696,18023.22,24.67,-1.00,-1.0,2445
498,2135498,17780,2672,-572,17988.75,24.62,-1.00,-1.0,2360
503,2135503,13184,-940,1036,13258.01,24.62,-1.00,-1.0,2455
506,2135506,20972,-3312,2244,21350.17,24.62,-1.00,-1.0,2367
509,2135509,13300,-2464,720,13545.47,24.62,-1.00,-1.0,2440
512,2135512,21352,1680,-324,21420.44,24.67,-1.00,-1.0,2373
514,2135514,16072,1976,-836,16214.58,24.62,-1.00,-1.0,2362
517,2135517,16660,-940,-1460,16750.25,24.58,-1.00,-1.0,2434
520,2135520,19248,-3832,440,19630.67,24.72,-1.00,-1.0,2364
522,2135522,16960,-1044,1976,17106.61,24.58,-1.00,-1.0,2433
525,2135525,16400,2080,388,16535.93,24.62,-1.00,-1.0,2375
530,2135530,21048,128,1652,21113.12,24.62,-1.00,-1.0,2448
533,2135533,13272,-2952,2812,13884.08,24.67,-1.00,-1.0,2360
536,2135536,19960,-2724,2016,20245.64,24.62,-1.00,-1.0,2445
538,2135538,13708,1464,-620,13799.89,24.67,-1.00,-1.0,2363
541,2135541,20080,2840,48,20279.90,24.62,-1.00,-1.0,2445
544,2135544,16140,-108,1052,16174.61,24.67,-1.00,-1.0,2361
547,2135547,18576,-4036,1120,19042.36,24.58,-1.00,-1.0,2368
549,2135549,16192,-2060,412,16327.71,24.67,-1.00,-1.0,2433
552,2135552,18576,3044,-1108,18856.34,24.62,-1.00,-1.0,2373
557,2135557,15096,-1944,588,15232.01,24.72,-1.00,-1.0,2459
560,2135560,21240,-3724,3152,21793.14,24.62,-1.00,-1.0,2366
563,2135563,12816,-1620,2132,13092.73,24.72,-1.00,-1.0,2442
566,2135566,20632,1764,-884,20726.13,24.67,-1.00,-1.0,2361
568,2135568,12480,1740,-176,12601.94,24.53,-1.00,-1.0,2450
571,2135571,18984,-720,1040,19026.09,24.72,-1.00,-1.0,2366
574,2135574,15120,-2900,2752,15639.63,24.62,-1.00,-1.0,2450
576,2135576,19264,-680,1804,19360.23,24.67,-1.00,-1.0,2360
581,2135581,15592,1596,-1268,15724.68,24.67,-1.00,-1.0,2448
584,2135584,20896,708,1068,20935.25,24.58,-1.00,-1.0,2359
587,2135587,13916,-1972,1312,14116.13,24.67,-1.00,-1.0,2439
590,2135590,20828,-1664,2924,21097.97,24.67,-1.00,-1.0,2363
592,2135592,12676,492,816,12711.76,24.62,-1.00,-1.0,2357
595,2135595,18988,1660,-1064,19090.10,24.53,-1.00,-1.0,2438
598,2135598,15148,656,912,15189.60,24.58,-1.00,-1.0,2364
600,2135600,19492,-1764,2484,19728.66,24.67,-1.00,-1.0,2433
603,2135603,14072,-1668,1600,14260.55,24.58,-1.00,-1.0,2365
608,2135608,17680,664,-904,17715.54,24.67,-1.00,-1.0,2458
611,2135611,13844,-12,-340,13848.18,24.67,-1.00,-1.0,2368
614,2135614,19920,-1476,1536,20033.58,24.67,-1.00,-1.0,2441
617,2135617,14800,-1100,348,14844.90,24.67,-1.00,-1.0,2369
619,2135619,19924,-888,-332,19946.54,24.58,-1.00,-1.0,2446
622,2135622,13608,-372,-420,13619.56,24.58,-1.00,-1.0,2375
625,2135625,20024,412,956,20051.04,24.58,-1.00,-1.0,2440
628,2135628,15504,-924,676,15546.21,24.58,-1.00,-1.0,2369
630,2135630,19692,-1704,1768,19844.50,24.58,-1.00,-1.0,2361
635,2135635,18572,948,-712,18609.80,24.62,-1.00,-1.0,2450
638,2135638,19000,244,-672,19013.45,24.53,-1.00,-1.0,2359
641,2135641,16688,-2188,460,16837.11,24.62,-1.00,-1.0,2445
643,2135643,18276,-2404,1676,18509.47,24.67,-1.00,-1.0,2359
646,2135646,16552,1340,644,16618.63,24.53,-1.00,-1.0,2438
649,2135649,19888,1096,-1240,19956.74,24.62,-1.00,-1.0,2360
652,2135652,13560,-232,-1636,13660.30,24.62,-1.00,-1.0,2445
654,2135654,21808,-2344,1596,21991.60,24.62,-1.00,-1.0,2359
659,2135659,18688,-768,460,18709.43,24.62,-1.00,-1.0,2452
662,2135662,17496,1268,-1252,17586.51,24.62,-1.00,-1.0,2360
665,2135665,16468,1352,-1472,16588.84,24.58,-1.00,-1.0,2446
667,2135667,17504,-1768,908,17616.48,24.53,-1.00,-1.0,2359
670,2135670,14408,-3464,1684,14913.94,24.67,-1.00,-1.0,2369
673,2135673,20232,-2896,1184,20472.48,24.67,-1.00,-1.0,2447
676,2135676,13308,2416,-96,13525.87,24.67,-1.00,-1.0,2361
679,2135679,20020,3720,2020,20462.63,24.67,-1.00,-1.0,2439
681,2135681,13308,-1516,2816,13686.89,24.62,-1.00,-1.0,2359
686,2135686,14560,-2684,100,14805.66,24.62,-1.00,-1.0,2449
689,2135689,19844,3040,-548,20082.98,24.62,-1.00,-1.0,2360
692,2135692,16280,3412,-524,16641.96,24.53,-1.00,-1.0,2439
695,2135695,16596,-112,1744,16687.76,24.62,-1.00,-1.0,2364
697,2135697,17188,-4276,1720,17795.22,24.62,-1.00,-1.0,2434
700,2135700,17744,-2028,2592,18046.63,24.72,-1.00,-1.0,2366
703,2135703,18984,16,-556,18992.15,24.62,-1.00,-1.0,2432
706,2135706,14448,3520,-968,14902.08,24.72,-1.00,-1.0,2366
708,2135708,19112,-604,156,19122.18,24.67,-1.00,-1.0,2356
713,2135713,19552,-3788,2324,20050.70,24.62,-1.00,-1.0,2448
716,2135716,14500,1892,60,14623.04,24.62,-1.00,-1.0,2360
719,2135719,18504,3880,-1356,18954.98,24.58,-1.00,-1.0,2438
722,2135722,14776,580,288,14790.18,24.62,-1.00,-1.0,2363
724,2135724,19888,-3668,3428,20511.90,24.72,-1.00,-1.0,2435
727,2135727,13888,-2264,3696,14548.63,24.62,-1.00,-1.0,2366
730,2135730,18856,576,-1108,18897.31,24.62,-1.00,-1.0,2432
733,2135733,15244,3792,-2084,15846.19,24.62,-1.00,-1.0,2363
738,2135738,17316,-3700,3432,18036.42,24.62,-1.00,-1.0,2450
740,2135740,17472,-4136,1492,18016.75,24.67,-1.00,-1.0,2368
743,2135743,17668,1172,-772,17723.65,24.62,-1.00,-1.0,2446
746,2135746,13684,4040,-1192,14317.62,24.67,-1.00,-1.0,2363
748,2135748,19780,2000,84,19881.03,24.72,-1.00,-1.0,2363
751,2135751,14844,-4004,3280,15720.52,24.62,-1.00,-1.0,2433
754,2135754,20848,-5728,2328,21745.54,24.62,-1.00,-1.0,2368
757,2135757,13824,-308,-60,13827.56,24.62,-1.00,-1.0,2438
760,2135760,19744,5196,40,20416.31,24.72,-1.00,-1.0,2373
765,2135765,18036,-3748,180,18422.19,24.67,-1.00,-1.0,2449
767,2135767,17428,-5596,2116,18426.28,24.58,-1.00,-1.0,2363
770,2135770,17672,956,-1504,17761.63,24.62,-1.00,-1.0,2453
773,2135773,20380,4664,-196,20907.79,24.58,-1.00,-1.0,2355
776,2135776,13136,1716,-1572,13340.55,24.58,-1.00,-1.0,2439
778,2135778,20532,-4868,2272,21223.16,24.58,-1.00,-1.0,2360
781,2135781,14236,-5192,3344,15517.83,24.58,-1.00,-1.0,2438
784,2135784,20096,-284,1884,20186.12,24.58,-1.00,-1.0,2372
787,2135787,12324,3608,-1388,12916.08,24.62,-1.00,-1.0,2358
792,2135792,17320,-1920,2904,17666.41,24.62,-1.00,-1.0,2448
794,2135794,16788,-5576,3404,18014.33,24.67,-1.00,-1.0,2362
797,2135797,15804,932,1284,15883.44,24.72,-1.00,-1.0,2453
800,2135800,16372,3572,-2644,16964.44,24.72,-1.00,-1.0,2371
803,2135803,15660,2628,-336,15882.53,24.62,-1.00,-1.0,2450
805,2135805,18408,-4208,1748,18963.58,24.67,-1.00,-1.0,2365
808,2135808,15592,-4712,3100,16580.81,24.72,-1.00,-1.0,2454
811,2135811,16424,-964,304,16455.07,24.62,-1.00,-1.0,2368
816,2135816,12536,2944,-2388,13096.60,24.67,-1.00,-1.0,2456
818,2135818,21236,-2672,1204,21437.28,24.67,-1.00,-1.0,2361
821,2135821,15036,-6048,1616,16287.14,24.67,-1.00,-1.0,2440
824,2135824,19844,-3588,1228,20203.12,24.58,-1.00,-1.0,2359
827,2135827,13916,2984,-2168,14396.51,24.58,-1.00,-1.0,2447
829,2135829,20148,6268,708,21112.34,24.58,-1.00,-1.0,2361
832,2135832,16144,-284,1808,16247.41,24.67,-1.00,-1.0,2362
835,2135835,17672,-8144,1452,19512.37,24.53,-1.00,-1.0,2444
838,2135838,18316,-3556,1176,18695.03,24.67,-1.00,-1.0,2358
842,2135842,18516,5948,-3252,19717.92,24.67,-1.00,-1.0,2448
845,2135845,16688,-2160,-1032,16858.82,24.67,-1.00,-1.0,2361
848,2135848,19944,-7000,4828,21681.16,24.67,-1.00,-1.0,2438
851,2135851,14392,-4764,3468,15551.60,24.67,-1.00,-1.0,2364
853,2135853,19504,3812,-2216,19996.20,24.67,-1.00,-1.0,2433
856,2135856,13216,5072,-2860,14441.86,24.67,-1.00,-1.0,2367
859,2135859,20816,888,324,20837.45,24.58,-1.00,-1.0,2433
862,2135862,16060,-7264,3832,18038.11,24.77,-1.00,-1.0,2361
866,2135866,16004,2152,-480,16155.17,24.62,-1.00,-1.0,2449
869,2135869,16724,7520,-2700,18534.63,24.67,-1.00,-1.0,2360
872,2135872,18240,2988,-1920,18582.58,24.62,-1.00,-1.0,2372
875,2135875,17224,-5684,4492,18685.61,24.62,-1.00,-1.0,2440
877,2135877,18440,-6844,6188,20619.54,24.62,-1.00,-1.0,2369
880,2135880,16140,3236,-1680,16546.71,24.62,-1.00,-1.0,2448
883,2135883,16604,8000,-5244,19162.26,24.62,-1.00,-1.0,2362
886,2135886,17392,3096,-3888,18088.21,24.62,-1.00,-1.0,2440
889,2135889,18088,-7520,3580,19913.38,24.62,-1.00,-1.0,2364
894,2135894,20516,-2308,-672,20656.35,24.67,-1.00,-1.0,2449
896,2135896,12608,8844,-3232,15736.07,24.67,-1.00,-1.0,2362
899,2135899,20564,6256,608,21503.15,24.67,-1.00,-1.0,2439
902,2135902,12668,-3352,2772,13393.96,24.67,-1.00,-1.0,2363
905,2135905,21840,-10844,5040,24899.39,24.67,-1.00,-1.0,2444
907,2135907,13832,-1884,1364,14026.20,24.58,-1.00,-1.0,2366
910,2135910,19004,9468,-1768,21305.42,24.58,-1.00,-1.0,2439
913,2135913,16944,7692,-4276,19093.20,24.58,-1.00,-1.0,2360
918,2135918,21316,-10036,6296,24387.14,24.67,-1.00,-1.0,2454
920,2135920,13648,-5292,2496,14849.35,24.62,-1.00,-1.0,2359
923,2135923,20368,6588,-3608,21708.87,24.67,-1.00,-1.0,2376
926,2135926,13404,8352,-3564,16190.28,24.58,-1.00,-1.0,2443
929,2135929,17980,-1452,532,18046.38,24.67,-1.00,-1.0,2371
931,2135931,17896,-9448,4032,20634.64,24.67,-1.00,-1.0,2441
934,2135934,17348,-3396,832,17696.84,24.67,-1.00,-1.0,2375
937,2135937,16540,4692,-1272,17239.62,24.58,-1.00,-1.0,2440
940,2135940,17348,8372,-1240,19302.36,24.62,-1.00,-1.0,2367
945,2135945,19928,-9072,2792,22073.10,24.62,-1.00,-1.0,2448
947,2135947,14836,-4732,3904,16054.28,24.62,-1.00,-1.0,2359
950,2135950,19344,4844,-2688,20121.63,24.72,-1.00,-1.0,2439
953,2135953,12512,6108,-2084,14078.38,24.72,-1.00,-1.0,2363
956,2135956,17748,400,240,17754.13,24.72,-1.00,-1.0,2436
958,2135958,17164,-8044,4772,19546.89,24.67,-1.00,-1.0,2363
961,2135961,17140,-4120,464,17634.32,24.58,-1.00,-1.0,2440
964,2135964,20984,2648,-452,21155.25,24.67,-1.00,-1.0,2362
967,2135967,12492,5936,-2280,14017.29,24.67,-1.00,-1.0,2369
972,2135972,14908,-5908,2612,16247.32,24.72,-1.00,-1.0,2455
974,2135974,19464,-4304,2856,20137.74,24.72,-1.00,-1.0,2360
977,2135977,14192,2648,-1308,14496.06,24.58,-1.00,-1.0,2441
980,2135980,17936,4256,-1892,18530.88,24.62,-1.00,-1.0,2359
983,2135983,18392,76,428,18397.14,24.67,-1.00,-1.0,2472
986,2135986,16704,-5604,2368,17777.40,24.67,-1.00,-1.0,2371
988,2135988,17244,-2128,2780,17595.80,24.62,-1.00,-1.0,2427
991,2135991,17096,3912,0,17537.87,24.67,-1.00,-1.0,2373
996,2135996,19632,-924,692,19665.91,24.67,-1.00,-1.0,2448
999,2135999,15628,-4212,3384,16535.62,24.58,-1.00,-1.0,2367
1002,2136002,18404,-3496,768,18748.84,24.67,-1.00,-1.0,2432
1004,2136004,16200,1724,-2620,16500.80,24.58,-1.00,-1.0,2365
1007,2136007,13836,5408,2620,15084.62,24.67,-1.00,-1.0,2363
1010,2136010,16900,84,1876,17004.01,24.72,-1.00,-1.0,2447
1012,2136012,16756,-5304,1640,17651.79,24.67,-1.00,-1.0,2370
1015,2136015,18160,-2824,652,18389.83,24.58,-1.00,-1.0,2449
1018,2136018,14108,1916,-720,14255.71,24.67,-1.00,-1.0,2348
1023,2136023,14812,1136,1720,14954.74,24.67,-1.00,-1.0,2451
1025,2136025,19452,-4868,3176,20301.84,24.58,-1.00,-1.0,2360
1028,2136028,15028,-3100,2396,15530.34,24.67,-1.00,-1.0,2441
1031,2136031,18164,2476,-1144,18367.64,24.58,-1.00,-1.0,2359
1034,2136034,14984,4100,-2948,15812.05,24.58,-1.00,-1.0,2447
1036,2136036,19500,380,-84,19503.88,24.58,-1.00,-1.0,2360
1039,2136039,16696,-4852,4240,17896.25,24.67,-1.00,-1.0,2440
1042,2136042,17820,-4040,1712,18352.25,24.67,-1.00,-1.0,2362
1047,2136047,14664,6588,688,16090.62,24.58,-1.00,-1.0,2456
1049,2136049,16580,2868,728,16841.96,24.58,-1.00,-1.0,2361
1052,2136052,16668,-6096,2152,17877.77,24.67,-1.00,-1.0,2442
1055,2136055,18092,-5540,2520,19088.28,24.67,-1.00,-1.0,2359
1057,2136057,16264,-236,-556,16275.21,24.67,-1.00,-1.0,2361
1060,2136060,17008,4996,-3516,18071.92,24.62,-1.00,-1.0,2440
1063,2136063,17520,1784,-968,17637.18,24.58,-1.00,-1.0,2366
1066,2136066,17776,-5372,4404,19085.07,24.58,-1.00,-1.0,2426
1069,2136069,15988,-3056,3940,16747.50,24.53,-1.00,-1.0,2364
1074,2136074,14020,4736,-408,14803.94,24.58,-1.00,-1.0,2456
1076,2136076,18820,1436,-624,18885.02,24.67,-1.00,-1.0,2360
1079,2136079,14540,-3884,1880,15166.79,24.58,-1.00,-1.0,2441
1082,2136082,20596,-3060,2108,20928.51,24.67,-1.00,-1.0,2347
1085,2136085,16084,-628,240,16098.04,24.67,-1.00,-1.0,2436
1087,2136087,17148,2412,-1804,17410.52,24.62,-1.00,-1.0,2363
1090,2136090,17696,272,-696,17711.77,24.58,-1.00,-1.0,2439
1093,2136093,17924,-3896,-40,18342.58,24.67,-1.00,-1.0,2360
1098,2136098,16672,-56,368,16676.15,24.58,-1.00,-1.0,2454
1101,2136101,17288,2068,-536,17419.50,24.62,-1.00,-1.0,2365
1103,2136103,17292,1232,1732,17422.14,24.67,-1.00,-1.0,2427
1106,2136106,15220,-2364,2672,15632.55,24.62,-1.00,-1.0,2373
1109,2136109,17496,-2872,548,17738.62,24.67,-1.00,-1.0,2361
1111,2136111,18260,-108,-8,18260.32,24.67,-1.00,-1.0,2433
1114,2136114,15888,2296,-792,16072.57,24.58,-1.00,-1.0,2366
1117,2136117,18208,-260,-132,18210.33,24.58,-1.00,-1.0,2432
1120,2136120,16332,-3676,1096,16776.42,24.67,-1.00,-1.0,2365
1125,2136125,13608,1180,136,13659.74,24.67,-1.00,-1.0,2449
1128,2136128,19196,3276,-1084,19503.68,24.67,-1.00,-1.0,2364
1130,2136130,14984,1064,484,15029.52,24.67,-1.00,-1.0,2433
1133,2136133,18892,-3476,2632,19388.60,24.58,-1.00,-1.0,2352
1136,2136136,15524,-3192,1600,15929.33,24.77,-1.00,-1.0,2441
1139,2136139,17680,-192,-416,17685.94,24.67,-1.00,-1.0,2365
1141,2136141,16284,2808,-1188,16566.98,24.67,-1.00,-1.0,2441
1144,2136144,17512,612,-172,17523.54,24.58,-1.00,-1.0,2374
1149,2136149,16768,-4536,1508,17436.03,24.72,-1.00,-1.0,2448
1152,2136152,17004,-444,-1424,17069.30,24.62,-1.00,-1.0,2371
1154,2136154,17164,4340,1880,17803.73,24.67,-1.00,-1.0,2371
1157,2136157,15724,1852,1872,15942.98,24.58,-1.00,-1.0,2440
1160,2136160,17596,-3596,1604,18031.17,24.58,-1.00,-1.0,2368
1163,2136163,16636,-3508,1852,17102.41,24.58,-1.00,-1.0,2442
1165,2136165,18044,1624,2496,18288.06,24.58,-1.00,-1.0,2374
1168,2136168,14828,2620,-84,15057.92,24.67,-1.00,-1.0,2443
1171,2136171,17960,-352,1164,18001.12,24.72,-1.00,-1.0,2365
1176,2136176,16976,-1932,1576,17158.12,24.67,-1.00,-1.0,2447
1179,2136179,17172,1104,-240,17209.12,24.58,-1.00,-1.0,2364
1182,2136182,13828,2108,-408,13993.70,24.58,-1.00,-1.0,2462
1184,2136184,19884,-104,964,19907.62,24.67,-1.00,-1.0,2377
1187,2136187,15648,-2964,2580,16133.87,24.62,-1.00,-1.0,2451
1190,2136190,17836,-1812,1264,17972.31,24.58,-1.00,-1.0,2349
1193,2136193,16212,1288,-2248,16417.71,24.62,-1.00,-1.0,2440
1195,2136195,17928,3024,644,18192.65,24.67,-1.00,-1.0,2366
1200,2136200,17284,-3544,912,17667.15,24.58,-1.00,-1.0,2449
1203,2136203,16996,-1412,2928,17304.07,24.58,-1.00,-1.0,2369
1206,2136206,18164,1124,36,18198.78,24.62,-1.00,-1.0,2359
1208,2136208,14828,2240,-176,14997.27,24.62,-1.00,-1.0,2444
1211,2136211,18344,304,384,18350.54,24.62,-1.00,-1.0,2363
1214,2136214,15376,-2512,1144,15621.79,24.62,-1.00,-1.0,2440
1217,2136217,18768,-2552,-204,18941.81,24.72,-1.00,-1.0,2362
1219,2136219,16796,152,1128,16834.52,24.72,-1.00,-1.0,2440
1222,2136222,17080,1420,732,17154.55,24.62,-1.00,-1.0,2363
1227,2136227,16704,-456,1704,16796.88,24.58,-1.00,-1.0,2451
1230,2136230,17564,-1388,2740,17830.54,24.58,-1.00,-1.0,2370
1233,2136233,16448,-1992,-64,16568.31,24.72,-1.00,-1.0,2455
1235,2136235,17256,664,316,17271.66,24.58,-1.00,-1.0,2373
1238,2136238,17260,1984,560,17382.68,24.62,-1.00,-1.0,2447
1241,2136241,16212,-1264,728,16277.49,24.67,-1.00,-1.0,2352
1244,2136244,17172,-2148,2384,17469.26,24.62,-1.00,-1.0,2451
1246,2136246,17768,-1716,1168,17888.84,24.67,-1.00,-1.0,2374
1249,2136249,15940,2384,1132,16157.00,24.58,-1.00,-1.0,2376
1254,2136254,14704,-404,2188,14871.39,24.67,-1.00,-1.0,2447
1257,2136257,18624,-3472,1024,18972.53,24.58,-1.00,-1.0,2376
1259,2136259,15908,-2464,44,16097.75,24.72,-1.00,-1.0,2431
1262,2136262,19176,1108,-1180,19244.20,24.67,-1.00,-1.0,2370
1265,2136265,16396,1624,-644,16488.81,24.58,-1.00,-1.0,2439
1268,2136268,17040,-904,604,17074.65,24.77,-1.00,-1.0,2369
1270,2136270,16340,-2296,1500,16568.56,24.62,-1.00,-1.0,2443
1273,2136273,18696,-852,608,18725.28,24.62,-1.00,-1.0,2371
1278,2136278,18400,-676,-616,18422.71,24.62,-1.00,-1.0,2444
1281,2136281,14800,-828,660,14837.83,24.62,-1.00,-1.0,2363
1283,2136283,17756,-464,884,17784.04,24.62,-1.00,-1.0,2444
1286,2136286,16568,-580,-56,16578.24,24.62,-1.00,-1.0,2363
1289,2136289,18168,-256,1188,18208.60,24.62,-1.00,-1.0,2438
1292,2136292,17052,-284,1800,17149.09,24.53,-1.00,-1.0,2364
1294,2136294,15308,-968,-96,15338.88,24.62,-1.00,-1.0,2441
1297,2136297,18312,-684,-1924,18425.50,24.62,-1.00,-1.0,2365
1300,2136300,16920,820,1932,17049.68,24.62,-1.00,-1.0,2364
1305,2136305,18068,-2436,412,18236.13,24.62,-1.00,-1.0,2460
1308,2136308,16072,-56,-600,16083.29,24.67,-1.00,-1.0,2370
1311,2136311,19412,2548,180,19579.34,24.62,-1.00,-1.0,2452
1313,2136313,14684,696,600,14712.72,24.53,-1.00,-1.0,2364
1316,2136316,19136,-2884,1352,19399.28,24.62,-1.00,-1.0,2448
1319,2136319,15296,-3328,864,15677.68,24.67,-1.00,-1.0,2370
1322,2136322,19128,1484,-644,19196.29,24.62,-1.00,-1.0,2447
1324,2136324,18628,2524,-1140,18832.75,24.53,-1.00,-1.0,2369
1329,2136329,20504,-3276,1136,20795.11,24.67,-1.00,-1.0,2445
1332,2136332,14040,-2964,2760,14612.48,24.67,-1.00,-1.0,2363
1335,2136335,19748,788,-304,19766.05,24.67,-1.00,-1.0,2449
1337,2136337,14972,2892,-52,15248.84,24.67,-1.00,-1.0,2363
1340,2136340,17180,232,-444,17187.30,24.67,-1.00,-1.0,2439
1343,2136343,17560,-3164,2132,17969.70,24.67,-1.00,-1.0,2364
1345,2136345,15928,-4244,760,16501.22,24.67,-1.00,-1.0,2360
1348,2136348,17072,728,1312,17137.81,24.62,-1.00,-1.0,2443
1351,2136351,16296,1768,-1952,16507.45,24.77,-1.00,-1.0,2364
1356,2136356,17892,-3552,1112,18275.04,24.62,-1.00,-1.0,2442
1359,2136359,15068,-2200,1504,15301.85,24.72,-1.00,-1.0,2370
1362,2136362,19596,12,-1880,19685.98,24.62,-1.00,-1.0,2454
1364,2136364,13256,2376,1112,13513.08,24.62,-1.00,-1.0,2372
1367,2136367,19428,-528,624,19445.19,24.67,-1.00,-1.0,2445
1370,2136370,13816,-1796,1348,13997.31,24.62,-1.00,-1.0,2350
1373,2136373,20380,-2120,-1088,20518.83,24.62,-1.00,-1.0,2451
1375,2136375,15548,328,1364,15611.16,24.62,-1.00,-1.0,2376
1380,2136380,17916,-716,-372,17934.16,24.72,-1.00,-1.0,2443
1383,2136383,17072,-888,448,17100.95,24.67,-1.00,-1.0,2362
1386,2136386,17052,-564,1504,17127.49,24.62,-1.00,-1.0,2452
1388,2136388,17992,-772,-160,18009.27,24.72,-1.00,-1.0,2363
1391,2136391,16404,240,1044,16438.94,24.62,-1.00,-1.0,2368
1394,2136394,16912,-88,304,16914.96,24.62,-1.00,-1.0,2433
1396,2136396,16676,-1836,-628,16788.52,24.62,-1.00,-1.0,2362
1399,2136399,16968,-364,3688,17367.98,24.62,-1.00,-1.0,2448
1402,2136402,16416,-724,2008,16554.19,24.67,-1.00,-1.0,2363
1407,2136407,17916,460,-1228,17963.93,24.58,-1.00,-1.0,2443
1410,2136410,16244,1144,2784,16520.50,24.58,-1.00,-1.0,2366
1413,2136413,17020,-1340,1604,17147.85,24.67,-1.00,-1.0,2443
1415,2136415,16796,-2036,872,16941.41,24.58,-1.00,-1.0,2350
1418,2136418,17444,-788,-52,17461.87,24.67,-1.00,-1.0,2440
1421,2136421,16868,1980,1748,17073.53,24.58,-1.00,-1.0,2363
1424,2136424,15804,236,1488,15875.65,24.67,-1.00,-1.0,2437
1426,2136426,16564,-1620,1304,16694.04,24.58,-1.00,-1.0,2371
1431,2136431,15392,-508,1608,15484.10,24.67,-1.00,-1.0,2454
1434,2136434,18288,364,-792,18308.76,24.62,-1.00,-1.0,2361
1437,2136437,15648,468,832,15677.09,24.58,-1.00,-1.0,2362
1439,2136439,18684,-1132,548,18726.28,24.67,-1.00,-1.0,2431
1442,2136442,16020,-1496,1680,16177.17,24.58,-1.00,-1.0,2370
1445,2136445,17276,-1140,-996,17342.20,24.67,-1.00,-1.0,2441
1448,2136448,16588,864,276,16612.78,24.67,-1.00,-1.0,2369
1450,2136450,18280,-272,-112,18282.37,24.58,-1.00,-1.0,2442
1453,2136453,15560,-1064,1416,15660.48,24.62,-1.00,-1.0,2367
1458,2136458,15644,-392,104,15649.26,24.58,-1.00,-1.0,2459
1461,2136461,19348,-236,-496,19355.79,24.67,-1.00,-1.0,2370
1464,2136464,14824,68,1248,14876.60,24.67,-1.00,-1.0,2452
1466,2136466,19168,-1060,664,19208.77,24.67,-1.00,-1.0,2374
1469,2136469,15008,-1128,800,15071.58,24.58,-1.00,-1.0,2450
1472,2136472,19592,-976,-508,19622.87,24.67,-1.00,-1.0,2370
1475,2136475,14920,-12,-108,14920.40,24.77,-1.00,-1.0,2450
1477,2136477,17840,-36,1180,17879.02,24.58,-1.00,-1.0,2372
1480,2136480,15668,-736,1184,15729.90,24.67,-1.00,-1.0,2366
1485,2136485,16756,24,748,16772.71,24.58,-1.00,-1.0,2451
1488,2136488,17444,232,1192,17486.22,24.58,-1.00,-1.0,2364
1491,2136491,15960,-972,592,16000.53,24.67,-1.00,-1.0,2453
1493,2136493,17256,-468,1788,17354.70,24.58,-1.00,-1.0,2371
1496,2136496,17588,-632,1320,17648.78,24.53,-1.00,-1.0,2438
1499,2136499,16544,232,1532,16616.40,24.67,-1.00,-1.0,2363
1502,2136502,16212,-96,764,16230.28,24.67,-1.00,-1.0,2448
1504,2136504,17560,0,628,17571.23,24.58,-1.00,-1.0,2374
1509,2136509,16556,-1036,2192,16732.58,24.58,-1.00,-1.0,2454
1512,2136512,16200,-1072,-1492,16303.84,24.67,-1.00,-1.0,2363
1515,2136515,19208,904,1348,19276.45,24.58,-1.00,-1.0,2444
1517,2136517,15468,-492,1960,15599.45,24.67,-1.00,-1.0,2364
1520,2136520,18260,-1748,1220,18384.00,24.67,-1.00,-1.0,2367
1523,2136523,16052,-1448,-2120,16256.01,24.72,-1.00,-1.0,2441
1526,2136526,19796,1576,784,19874.11,24.67,-1.00,-1.0,2367
1528,2136528,15252,-236,204,15255.19,24.62,-1.00,-1.0,2440
1531,2136531,16832,-1084,2044,16990.27,24.67,-1.00,-1.0,2371
1536,2136536,15608,1632,3760,16137.25,24.58,-1.00,-1.0,2452
1539,2136539,17460,268,56,17462.15,24.67,-1.00,-1.0,2370
1542,2136542,16596,-1000,1600,16702.91,24.67,-1.00,-1.0,2446
1545,2136545,16660,-1524,332,16732.85,24.67,-1.00,-1.0,2364
1547,2136547,18708,636,1100,18751.10,24.53,-1.00,-1.0,2451
1550,2136550,16156,-100,-456,16162.74,24.67,-1.00,-1.0,2371
1553,2136553,17892,-840,664,17924.01,24.62,-1.00,-1.0,2448
1556,2136556,15900,-1304,268,15955.63,24.58,-1.00,-1.0,2363
1560,2136560,17548,-576,-856,17578.30,24.67,-1.00,-1.0,2447
1563,2136563,14892,692,2812,15170.96,24.58,-1.00,-1.0,2362
1566,2136566,18032,-1320,900,18102.64,24.67,-1.00,-1.0,2443
1569,2136569,15428,-256,892,15455.88,24.58,-1.00,-1.0,2372
1571,2136571,18684,168,-584,18693.88,24.58,-1.00,-1.0,2364
1574,2136574,15980,1144,2420,16202.64,24.62,-1.00,-1.0,2454
1577,2136577,17320,-1716,1444,17464.60,24.58,-1.00,-1.0,2370
1580,2136580,16836,-1168,1908,16983.98,24.58,-1.00,-1.0,2448
1582,2136582,15784,-92,-1268,15835.12,24.62,-1.00,-1.0,2349
1587,2136587,17088,-604,892,17121.92,24.62,-1.00,-1.0,2454
1590,2136590,15924,-2060,2188,16205.08,24.72,-1.00,-1.0,2379
1593,2136593,17936,-2760,-600,18157.03,24.62,-1.00,-1.0,2443
1596,2136596,16528,1716,820,16637.06,24.62,-1.00,-1.0,2369
1598,2136598,17424,852,-1272,17491.13,24.72,-1.00,-1.0,2442
1601,2136601,15332,132,1952,15456.32,24.62,-1.00,-1.0,2371
1604,2136604,17296,-2872,1216,17574.94,24.53,-1.00,-1.0,2440
1607,2136607,17200,-1544,800,17287.68,24.62,-1.00,-1.0,2370
1612,2136612,15952,1684,1144,16081.38,24.67,-1.00,-1.0,2444
1614,2136614,18860,-176,-372,18864.49,24.67,-1.00,-1.0,2366
1617,2136617,16000,-1644,1116,16122.91,24.72,-1.00,-1.0,2361
1620,2136620,18468,-2208,-888,18620.71,24.67,-1.00,-1.0,2453
1622,2136622,16112,940,276,16141.76,24.62,-1.00,-1.0,2371
1625,2136625,18852,652,116,18863.63,24.58,-1.00,-1.0,2441
1628,2136628,14312,-244,2040,14458.72,24.62,-1.00,-1.0,2363
1631,2136631,19004,-2608,232,19183.52,24.67,-1.00,-1.0,2449
1633,2136633,15420,-748,1300,15492.77,24.58,-1.00,-1.0,2363
1638,2136638,15532,1260,1148,15625.25,24.58,-1.00,-1.0,2445
1641,2136641,17632,-228,-676,17646.43,24.67,-1.00,-1.0,2363
1644,2136644,17552,-1176,904,17614.56,24.67,-1.00,-1.0,2443
1647,2136647,17040,-1364,840,17115.13,24.67,-1.00,-1.0,2364
1649,2136649,16784,1064,1980,16933.85,24.67,-1.00,-1.0,2439
1652,2136652,18608,48,-1116,18641.50,24.58,-1.00,-1.0,2364
1655,2136655,16480,-96,1264,16528.68,24.58,-1.00,-1.0,2440
1658,2136658,18108,-1692,1084,18219.15,24.72,-1.00,-1.0,2365
1660,2136660,14740,1140,3512,15195.44,24.58,-1.00,-1.0,2361
1665,2136665,15620,4,136,15620.59,24.62,-1.00,-1.0,2469
1668,2136668,17404,-1040,1568,17505.41,24.72,-1.00,-1.0,2378
1671,2136671,15792,-968,1732,15916.16,24.48,-1.00,-1.0,2442
1674,2136674,17480,-144,268,17482.65,24.72,-1.00,-1.0,2370
1676,2136676,16828,-444,784,16852.10,24.67,-1.00,-1.0,2443
1679,2136679,16656,-1368,404,16716.97,24.67,-1.00,-1.0,2372
1682,2136682,17456,-756,16,17472.37,24.58,-1.00,-1.0,2441
1685,2136685,18380,-812,-2144,18522.43,24.62,-1.00,-1.0,2368
1689,2136689,19456,-1248,688,19508.12,24.67,-1.00,-1.0,2446
1692,2136692,15248,-1084,420,15292.25,24.67,-1.00,-1.0,2364
1695,2136695,19300,-516,816,19324.13,24.62,-1.00,-1.0,2440
1698,2136698,14684,-372,-256,14690.94,24.58,-1.00,-1.0,2364
1700,2136700,19824,-740,-848,19855.92,24.58,-1.00,-1.0,2440
1703,2136703,17244,-576,992,17282.11,24.67,-1.00,-1.0,2364
1706,2136706,16520,-352,1572,16598.36,24.62,-1.00,-1.0,2362
1709,2136709,16388,-140,996,16418.84,24.67,-1.00,-1.0,2453
1711,2136711,17556,-1112,-724,17606.07,24.62,-1.00,-1.0,2363
1716,2136716,17208,-1264,716,17269.21,24.62,-1.00,-1.0,2445
1719,2136719,17008,-88,524,17016.30,24.53,-1.00,-1.0,2362
1722,2136722,18228,76,964,18253.63,24.62,-1.00,-1.0,2441
1725,2136725,14724,-380,44,14728.97,24.72,-1.00,-1.0,2365
1727,2136727,19688,-916,344,19712.30,24.62,-1.00,-1.0,2438
1730,2136730,14876,-1104,144,14917.60,24.62,-1.00,-1.0,2362
1733,2136733,18220,120,1580,18288.77,24.72,-1.00,-1.0,2439
1736,2136736,16124,108,24,16124.38,24.67,-1.00,-1.0,2365
1741,2136741,16568,-1388,620,16637.60,24.58,-1.00,-1.0,2448
1743,2136743,17356,-1368,496,17416.89,24.58,-1.00,-1.0,2373
1746,2136746,17344,-88,208,17345.47,24.62,-1.00,-1.0,2361
1749,2136749,17604,988,1876,17731.22,24.62,-1.00,-1.0,2439
1751,2136751,15672,-452,96,15678.81,24.58,-1.00,-1.0,2364
1754,2136754,18672,-1276,496,18722.12,24.62,-1.00,-1.0,2439
1757,2136757,16132,-760,1260,16198.97,24.58,-1.00,-1.0,2367
1760,2136760,17884,-584,820,17912.31,24.62,-1.00,-1.0,2439
1763,2136763,15712,-396,-296,15719.78,24.67,-1.00,-1.0,2370
1768,2136768,17144,-1528,512,17219.57,24.67,-1.00,-1.0,2445
1770,2136770,16712,-992,752,16758.30,24.62,-1.00,-1.0,2366
1773,2136773,18320,-556,-1416,18383.05,24.58,-1.00,-1.0,2441
1776,2136776,16832,216,8,16833.39,24.62,-1.00,-1.0,2372
1779,2136779,17964,-388,856,17988.57,24.67,-1.00,-1.0,2439
1781,2136781,16852,-1388,1480,16973.71,24.62,-1.00,-1.0,2363
1784,2136784,16368,-1276,-532,16426.28,24.67,-1.00,-1.0,2362
1787,2136787,19048,1048,1496,19135.38,24.62,-1.00,-1.0,2440
1790,2136790,15172,268,1920,15295.35,24.58,-1.00,-1.0,2366
1795,2136795,15560,-1680,-708,15666.44,24.58,-1.00,-1.0,2445
1797,2136797,19796,232,16,19797.37,24.67,-1.00,-1.0,2364
1800,2136800,16464,188,392,16469.74,24.67,-1.00,-1.0,2456
1803,2136803,17012,-416,1464,17079.94,24.67,-1.00,-1.0,2373
1806,2136806,16656,-1492,456,16728.91,24.67,-1.00,-1.0,2453
1808,2136808,17148,-1172,-56,17188.10,24.58,-1.00,-1.0,2367
1811,2136811,17216,-392,320,17223.44,24.62,-1.00,-1.0,2453
1814,2136814,16300,-440,888,16330.10,24.58,-1.00,-1.0,2372
1819,2136819,17716,128,1592,17787.85,24.58,-1.00,-1.0,2453
1821,2136821,14696,-96,772,14716.58,24.58,-1.00,-1.0,2350
1824,2136824,18428,284,1996,18537.96,24.58,-1.00,-1.0,2360
1827,2136827,15276,-1120,792,15337.46,24.62,-1.00,-1.0,2450
1829,2136829,18600,-240,1316,18648.04,24.67,-1.00,-1.0,2363
1832,2136832,14964,-352,24,14968.16,24.67,-1.00,-1.0,2455
1835,2136835,16368,316,1676,16456.62,24.67,-1.00,-1.0,2371
1838,2136838,18236,-1180,736,18288.95,24.72,-1.00,-1.0,2450
1841,2136841,15932,-848,2004,16079.92,24.72,-1.00,-1.0,2363
1846,2136846,16292,516,280,16302.57,24.62,-1.00,-1.0,2450
1848,2136848,18124,-100,216,18125.56,24.58,-1.00,-1.0,2374
1851,2136851,17068,-1764,1156,17197.81,24.62,-1.00,-1.0,2447
1854,2136854,15296,-1296,948,15380.05,24.62,-1.00,-1.0,2369
1857,2136857,18952,-100,772,18967.98,24.72,-1.00,-1.0,2448
1859,2136859,13756,224,652,13773.26,24.72,-1.00,-1.0,2371
1862,2136862,19820,-716,296,19835.14,24.62,-1.00,-1.0,2445
1865,2136865,16152,-1296,224,16205.46,24.62,-1.00,-1.0,2352
1868,2136868,18300,-648,1232,18352.87,24.58,-1.00,-1.0,2361
1872,2136872,16276,492,444,16289.49,24.58,-1.00,-1.0,2444
1875,2136875,18460,-832,1044,18508.21,24.58,-1.00,-1.0,2350
1878,2136878,15456,-1952,1468,15647.79,24.67,-1.00,-1.0,2441
1881,2136881,18000,-1304,-108,18047.49,24.67,-1.00,-1.0,2364
1883,2136883,17108,872,296,17132.77,24.67,-1.00,-1.0,2427
1886,2136886,16296,1064,1652,16414.04,24.58,-1.00,-1.0,2363
1889,2136889,18472,-892,388,18497.59,24.67,-1.00,-1.0,2437
1892,2136892,15816,-1092,1240,15902.07,24.58,-1.00,-1.0,2364
1897,2136897,15892,48,-400,15897.11,24.62,-1.00,-1.0,2446
1899,2136899,18428,448,1328,18481.22,24.58,-1.00,-1.0,2366
1902,2136902,15824,-1056,1860,15967.90,24.62,-1.00,-1.0,2440
1905,2136905,15656,-1916,624,15785.14,24.58,-1.00,-1.0,2371
1908,2136908,18376,-252,-332,18380.73,24.53,-1.00,-1.0,2440
1910,2136910,16168,420,-432,16179.22,24.67,-1.00,-1.0,2364
1913,2136913,17972,116,632,17983.48,24.62,-1.00,-1.0,2369
1916,2136916,16548,-1712,652,16649.09,24.72,-1.00,-1.0,2445
1919,2136919,17580,-1492,-384,17647.38,24.67,-1.00,-1.0,2370
1924,2136924,14548,-120,916,14577.30,24.58,-1.00,-1.0,2452
1926,2136926,18960,-640,484,18976.97,24.67,-1.00,-1.0,2362
1929,2136929,14472,-92,1900,14596.48,24.58,-1.00,-1.0,2445
1932,2136932,18448,-512,960,18480.05,24.67,-1.00,-1.0,2363
1935,2136935,15432,-348,800,15456.64,24.67,-1.00,-1.0,2445
1937,2136937,17980,-336,-100,17983.42,24.67,-1.00,-1.0,2363
1940,2136940,16604,-196,1044,16637.94,24.67,-1.00,-1.0,2425
1943,2136943,15040,-472,1148,15091.13,24.67,-1.00,-1.0,2367
1948,2136948,16608,-1368,1344,16718.36,24.58,-1.00,-1.0,2446
1951,2136951,17356,4,1304,17404.92,24.62,-1.00,-1.0,2372
1953,2136953,17416,-16,-916,17440.08,24.58,-1.00,-1.0,2360
1956,2136956,14020,832,-12,14044.67,24.58,-1.00,-1.0,2440
1959,2136959,20616,-1084,164,20645.13,24.58,-1.00,-1.0,2365
1961,2136961,14452,-1556,1156,14581.42,24.67,-1.00,-1.0,2438
1964,2136964,20256,-1072,-116,20284.68,24.67,-1.00,-1.0,2365
1967,2136967,15576,-80,980,15607.00,24.58,-1.00,-1.0,2437
1970,2136970,17216,-892,-720,17254.12,24.62,-1.00,-1.0,2373
1975,2136975,15024,-772,1120,15085.46,24.62,-1.00,-1.0,2450
1977,2136977,18376,952,2616,18585.67,24.62,-1.00,-1.0,2364
1980,2136980,14848,-4,320,14851.45,24.62,-1.00,-1.0,2442
1983,2136983,18168,380,3420,18491.00,24.62,-1.00,-1.0,2365
1986,2136986,17124,-1536,-280,17195.03,24.62,-1.00,-1.0,2445
1988,2136988,17600,-864,1268,17666.76,24.72,-1.00,-1.0,2364
1991,2136991,17536,-1032,-640,17578.00,24.62,-1.00,-1.0,2440
1994,2136994,16252,1804,2260,16507.26,24.62,-1.00,-1.0,2364
1997,2136997,19508,-280,-560,19518.04,24.58,-1.00,-1.0,2368
2002,2137002,17908,-1616,556,17989.36,24.62,-1.00,-1.0,2453
2004,2137004,16200,676,1584,16291.29,24.62,-1.00,-1.0,2364
2007,2137007,17416,-180,-940,17442.28,24.67,-1.00,-1.0,2457
2010,2137010,17000,-504,1532,17076.33,24.53,-1.00,-1.0,2363
2013,2137013,15944,-1992,980,16097.81,24.67,-1.00,-1.0,2446
2015,2137015,17792,-1116,1460,17886.65,24.62,-1.00,-1.0,2365
2018,2137018,15624,-644,-1996,15764.14,24.58,-1.00,-1.0,2447
2021,2137021,18768,1152,1096,18835.24,24.62,-1.00,-1.0,2364
2026,2137026,16540,-1468,1648,16686.60,24.62,-1.00,-1.0,2445
2029,2137029,18664,-1448,592,18729.44,24.62,-1.00,-1.0,2365
2031,2137031,15056,1036,1536,15169.57,24.62,-1.00,-1.0,2440
2034,2137034,18924,-732,-1296,18982.45,24.53,-1.00,-1.0,2363
2037,2137037,14964,-1356,832,15048.33,24.72,-1.00,-1.0,2437
2040,2137040,17828,-1640,440,17908.68,24.53,-1.00,-1.0,2364
2042,2137042,16656,-252,1312,16709.49,24.62,-1.00,-1.0,2439
2045,2137045,16848,-4,204,16849.24,24.67,-1.00,-1.0,2364
2048,2137048,18736,-124,420,18741.12,24.58,-1.00,-1.0,2360
2053,2137053,17568,-588,1744,17664.14,24.67,-1.00,-1.0,2452
2056,2137056,15724,-1624,-664,15821.58,24.67,-1.00,-1.0,2365
2058,2137058,17840,-700,524,17861.42,24.67,-1.00,-1.0,2454
2061,2137061,16540,-748,88,16557.14,24.58,-1.00,-1.0,2371
2064,2137064,16072,-532,964,16109.67,24.58,-1.00,-1.0,2447
2067,2137067,17196,-328,-368,17203.06,24.67,-1.00,-1.0,2365
2069,2137069,16776,-164,268,16778.94,24.58,-1.00,-1.0,2449
2072,2137072,17736,44,2616,17927.94,24.58,-1.00,-1.0,2370
2077,2137077,17720,-888,92,17742.47,24.77,-1.00,-1.0,2454
2080,2137080,17408,244,1972,17521.04,24.58,-1.00,-1.0,2374
2082,2137082,15268,-172,1356,15329.06,24.58,-1.00,-1.0,2364
2085,2137085,17676,-852,352,17700.02,24.72,-1.00,-1.0,2439
2088,2137088,16828,-848,204,16850.59,24.62,-1.00,-1.0,2366
2090,2137090,17700,-624,628,17722.13,24.62,-1.00,-1.0,2439
2093,2137093,16380,280,104,16382.72,24.62,-1.00,-1.0,2366
2096,2137096,17644,-304,104,17646.93,24.58,-1.00,-1.0,2437
2099,2137099,16608,-600,3508,16985.04,24.81,-1.00,-1.0,2363
2104,2137104,17976,-1148,544,18020.83,24.67,-1.00,-1.0,2452
2106,2137106,16736,496,320,16746.41,24.67,-1.00,-1.0,2365
2109,2137109,16656,1216,1376,16756.92,24.67,-1.00,-1.0,2444
2112,2137112,16828,-956,1252,16901.57,24.58,-1.00,-1.0,2364
2115,2137115,16200,-2128,-96,16339.45,24.67,-1.00,-1.0,2446
2117,2137117,18244,-912,268,18268.75,24.67,-1.00,-1.0,2365
2120,2137120,16628,864,1680,16734.97,24.58,-1.00,-1.0,2440
2123,2137123,17452,-296,300,17457.09,24.67,-1.00,-1.0,2366
2126,2137126,16308,-560,1880,16425.55,24.67,-1.00,-1.0,2364
2131,2137131,16472,560,2048,16608.27,24.62,-1.00,-1.0,2446
2134,2137134,17332,-568,-524,17349.22,24.62,-1.00,-1.0,2363
2136,2137136,16232,96,1000,16263.06,24.53,-1.00,-1.0,2439
2139,2137139,17640,-820,500,17666.12,24.62,-1.00,-1.0,2368
2142,2137142,16048,-900,2040,16202.16,24.58,-1.00,-1.0,2461
2145,2137145,17640,-1524,-72,17705.86,24.58,-1.00,-1.0,2374
2148,2137148,17028,292,1936,17140.19,24.62,-1.00,-1.0,2438
2150,2137150,16476,-328,372,16483.46,24.67,-1.00,-1.0,2366
2155,2137155,16788,-440,808,16813.19,24.58,-1.00,-1.0,2446
2158,2137158,17036,-8,1500,17101.91,24.58,-1.00,-1.0,2364
2161,2137161,16784,-944,-380,16814.82,24.67,-1.00,-1.0,2446
2163,2137163,16612,-372,712,16631.41,24.67,-1.00,-1.0,2363
2166,2137166,17836,-1872,-1048,17964.56,24.67,-1.00,-1.0,2359
2169,2137169,16764,-888,508,16795.19,24.72,-1.00,-1.0,2447
2171,2137171,17120,-404,384,17129.07,24.67,-1.00,-1.0,2351
2174,2137174,17392,-200,-64,17393.27,24.62,-1.00,-1.0,2442
2177,2137177,17288,-668,740,17316.72,24.58,-1.00,-1.0,2363
2182,2137182,16252,-1096,-908,16314.20,24.67,-1.00,-1.0,2446
2185,2137185,18252,996,1656,18354.02,24.67,-1.00,-1.0,2363
2187,2137187,15400,-376,2104,15547.61,24.67,-1.00,-1.0,2440
2190,2137190,17256,-1576,1456,17388.88,24.58,-1.00,-1.0,2363
2193,2137193,16164,-712,796,16199.24,24.67,-1.00,-1.0,2438
2196,2137196,16704,372,340,16711.60,24.67,-1.00,-1.0,2363
2198,2137198,17112,516,168,17120.60,24.67,-1.00,-1.0,2438
2201,2137201,16324,-1116,424,16367.60,24.58,-1.00,-1.0,2363
2206,2137206,16236,-624,1380,16306.49,24.72,-1.00,-1.0,2461
2209,2137209,16864,-312,368,16870.90,24.72,-1.00,-1.0,2371
2211,2137211,18088,0,944,18112.62,24.58,-1.00,-1.0,2363
2214,2137214,15924,-168,1252,15974.03,24.58,-1.00,-1.0,2441
2217,2137217,18104,-904,144,18127.13,24.67,-1.00,-1.0,2364
2220,2137220,15528,-432,660,15548.02,24.58,-1.00,-1.0,2438
2222,2137222,18332,-408,468,18342.51,24.67,-1.00,-1.0,2370
2225,2137225,15800,-284,-112,15802.95,24.67,-1.00,-1.0,2441
2228,2137228,19380,-1176,-1708,19490.63,24.53,-1.00,-1.0,2369
2233,2137233,16188,-1876,1108,16333.96,24.53,-1.00,-1.0,2444
2236,2137236,17384,-1032,72,17414.75,24.62,-1.00,-1.0,2369
2238,2137238,15920,776,536,15947.91,24.72,-1.00,-1.0,2442
2241,2137241,17324,1440,1564,17453.96,24.62,-1.00,-1.0,2364
2244,2137244,16304,-1080,740,16356.48,24.62,-1.00,-1.0,2439
2247,2137247,17444,-1644,1692,17602.80,24.72,-1.00,-1.0,2362
2249,2137249,17180,-844,616,17211.75,24.62,-1.00,-1.0,2360
2252,2137252,16976,600,948,17013.03,24.58,-1.00,-1.0,2448
2255,2137255,17228,-272,288,17232.55,24.67,-1.00,-1.0,2378
2260,2137260,17620,-1484,-136,17682.91,24.62,-1.00,-1.0,2444
2263,2137263,16456,-168,828,16477.67,24.62,-1.00,-1.0,2369
2266,2137266,17216,-140,-332,17219.77,24.67,-1.00,-1.0,2442
2268,2137268,16888,-268,200,16891.31,24.62,-1.00,-1.0,2366
2271,2137271,17040,-780,512,17065.53,24.58,-1.00,-1.0,2439
2274,2137274,16960,-648,1976,17087.02,24.62,-1.00,-1.0,2370
2277,2137277,15968,-1516,-528,16048.49,24.62,-1.00,-1.0,2440
2279,2137279,19152,24,1060,19181.33,24.62,-1.00,-1.0,2363
2284,2137284,17592,-468,28,17598.25,24.58,-1.00,-1.0,2445
2287,2137287,17168,-248,488,17176.72,24.72,-1.00,-1.0,2369
2289,2137289,15440,-288,1124,15483.54,24.58,-1.00,-1.0,2368
2292,2137292,18264,-852,244,18285.49,24.67,-1.00,-1.0,2449
2295,2137295,15544,-352,564,15558.21,24.58,-1.00,-1.0,2368
2298,2137298,18184,-436,668,18201.49,24.67,-1.00,-1.0,2452
2300,2137300,15940,-772,1300,16011.54,24.67,-1.00,-1.0,2373
2303,2137303,17428,-480,912,17458.45,24.53,-1.00,-1.0,2439
2306,2137306,16940,88,512,16947.96,24.67,-1.00,-1.0,2350
2311,2137311,18212,-888,372,18237.43,24.58,-1.00,-1.0,2444
2314,2137314,14728,-176,940,14759.02,24.62,-1.00,-1.0,2362
2316,2137316,19084,-132,-116,19084.81,24.72,-1.00,-1.0,2443
2319,2137319,15460,-560,764,15488.99,24.62,-1.00,-1.0,2363
2322,2137322,17544,-580,1948,17661.34,24.62,-1.00,-1.0,2439
2325,2137325,16200,-984,580,16240.22,24.62,-1.00,-1.0,2365
2327,2137327,16008,-124,1080,16044.87,24.72,-1.00,-1.0,2440
2330,2137330,17916,144,864,17937.40,24.62,-1.00,-1.0,2363
2333,2137333,15568,-320,1096,15609.81,24.62,-1.00,-1.0,2361
2338,2137338,16864,-568,764,16890.85,24.62,-1.00,-1.0,2454
2341,2137341,16960,-512,112,16968.10,24.67,-1.00,-1.0,2365
2344,2137344,17220,-764,304,17239.62,24.62,-1.00,-1.0,2453
2346,2137346,15436,-496,920,15471.34,24.62,-1.00,-1.0,2369
2349,2137349,19080,-520,1472,19143.76,24.72,-1.00,-1.0,2440
2352,2137352,14756,-828,856,14803.98,24.67,-1.00,-1.0,2365
2355,2137355,19204,-560,304,19214.57,24.72,-1.00,-1.0,2449
2357,2137357,15856,-44,208,15857.42,24.62,-1.00,-1.0,2371
2362,2137362,18416,-104,928,18439.66,24.58,-1.00,-1.0,2455
2365,2137365,15208,-1272,1752,15361.34,24.58,-1.00,-1.0,2371
2368,2137368,19220,-1268,680,19273.78,24.58,-1.00,-1.0,2445
2371,2137371,15564,-108,1092,15602.63,24.67,-1.00,-1.0,2366
2373,2137373,17808,320,-404,17815.46,24.62,-1.00,-1.0,2361
2376,2137376,16828,-744,52,16844.52,24.62,-1.00,-1.0,2440
2379,2137379,17300,-1108,660,17348.00,24.62,-1.00,-1.0,2364
2381,2137381,18628,-884,932,18672.24,24.62,-1.00,-1.0,2442
2384,2137384,15168,-384,108,15173.24,24.58,-1.00,-1.0,2362
2389,2137389,16252,-1448,-380,16320.80,24.62,-1.00,-1.0,2445
2392,2137392,17332,-932,544,17365.56,24.62,-1.00,-1.0,2366
2395,2137395,17012,-712,52,17026.97,24.67,-1.00,-1.0,2440
2397,2137397,15776,-308,460,15785.71,24.62,-1.00,-1.0,2365
2400,2137400,18640,-1056,-464,18675.65,24.67,-1.00,-1.0,2440
2403,2137403,15764,-476,564,15781.27,24.62,-1.00,-1.0,2364
2406,2137406,18288,92,1880,18384.61,24.72,-1.00,-1.0,2434
2408,2137408,16296,-1344,-48,16351.40,24.62,-1.00,-1.0,2370
2411,2137411,17880,-684,884,17914.90,24.58,-1.00,-1.0,2359
2416,2137416,16232,-748,-432,16254.97,24.58,-1.00,-1.0,2446
2419,2137419,18560,-484,200,18567.39,24.67,-1.00,-1.0,2363
2422,2137422,15440,-332,1288,15497.19,24.58,-1.00,-1.0,2447
2424,2137424,17196,-896,248,17221.11,24.67,-1.00,-1.0,2363
2427,2137427,17016,-460,220,17023.64,24.67,-1.00,-1.0,2440
2430,2137430,17340,-648,168,17352.92,24.67,-1.00,-1.0,2363
2433,2137433,17432,-556,616,17451.74,24.67,-1.00,-1.0,2438
2435,2137435,15088,-556,860,15122.71,24.67,-1.00,-1.0,2365
2440,2137440,16076,-616,976,16117.38,24.62,-1.00,-1.0,2454
2443,2137443,17668,-780,1152,17722.69,24.62,-1.00,-1.0,2371
2446,2137446,15788,-148,1320,15843.78,24.58,-1.00,-1.0,2445
2449,2137449,17544,528,1364,17604.86,24.62,-1.00,-1.0,2364
2451,2137451,17100,-316,184,17103.91,24.77,-1.00,-1.0,2359
2454,2137454,16676,-540,2312,16844.17,24.67,-1.00,-1.0,2442
2457,2137457,16964,-620,968,17002.90,24.67,-1.00,-1.0,2363
2459,2137459,16984,72,796,17002.79,24.58,-1.00,-1.0,2439
2462,2137462,17376,308,312,17381.53,24.72,-1.00,-1.0,2365
2467,2137467,16592,-1160,56,16632.59,24.62,-1.00,-1.0,2448
2470,2137470,17888,-724,812,17921.05,24.67,-1.00,-1.0,2364
2473,2137473,16548,-352,344,16555.32,24.67,-1.00,-1.0,2448
2475,2137475,17076,28,1160,17115.38,24.58,-1.00,-1.0,2363
2478,2137478,16712,-692,292,16728.87,24.62,-1.00,-1.0,2441
2481,2137481,17724,-656,1144,17772.99,24.58,-1.00,-1.0,2364
2484,2137484,16524,-792,1180,16585.00,24.48,-1.00,-1.0,2445
2486,2137486,17276,-312,1116,17314.82,24.67,-1.00,-1.0,2364
2489,2137489,17188,252,204,17191.06,24.53,-1.00,-1.0,2365
2495,2137495,17552,-1124,940,17613.05,24.67,-1.00,-1.0,2454
2498,2137498,16420,-1952,740,16552.17,24.62,-1.00,-1.0,2372
2500,2137500,18024,-1208,952,18089.50,24.58,-1.00,-1.0,2450
2503,2137503,16396,476,444,16408.92,24.67,-1.00,-1.0,2378
2506,2137506,17400,884,948,17448.21,24.67,-1.00,-1.0,2440
2509,2137509,16008,-1196,496,16060.28,24.67,-1.00,-1.0,2372
2511,2137511,16620,-1428,1000,16711.18,24.77,-1.00,-1.0,2445
2514,2137514,18124,-484,1356,18181.10,24.48,-1.00,-1.0,2377
2519,2137519,18080,152,504,18087.66,24.67,-1.00,-1.0,2446
2522,2137522,15968,-444,2224,16128.25,24.67,-1.00,-1.0,2364
2524,2137524,17420,-1552,1216,17531.22,24.62,-1.00,-1.0,2440
2527,2137527,17408,-564,652,17429.33,24.67,-1.00,-1.0,2363
2530,2137530,16708,624,752,16736.55,24.62,-1.00,-1.0,2439
2533,2137533,16928,528,1368,16991.39,24.67,-1.00,-1.0,2367
2535,2137535,16648,-1088,28,16683.54,24.72,-1.00,-1.0,2347
2538,2137538,17552,-804,1764,17658.73,24.62,-1.00,-1.0,2440
2541,2137541,16664,-664,936,16703.47,24.67,-1.00,-1.0,2363
2546,2137546,16424,-112,1016,16455.78,24.67,-1.00,-1.0,2447
2548,2137548,16700,-528,304,16711.11,24.58,-1.00,-1.0,2372
2551,2137551,17700,-696,552,17722.28,24.58,-1.00,-1.0,2448
2554,2137554,16112,-480,1156,16160.55,24.67,-1.00,-1.0,2365
2557,2137557,17836,-116,1036,17866.44,24.67,-1.00,-1.0,2452
2559,2137559,16352,-28,744,16368.94,24.67,-1.00,-1.0,2371
2562,2137562,17316,-576,-120,17325.99,24.62,-1.00,-1.0,2438
2565,2137565,17080,-1020,384,17114.74,24.58,-1.00,-1.0,2367
2570,2137570,17896,100,1092,17929.56,24.58,-1.00,-1.0,2452
2572,2137572,16456,-404,200,16462.17,24.67,-1.00,-1.0,2364
2575,2137575,17896,-564,1068,17936.71,24.58,-1.00,-1.0,2368
2578,2137578,15200,-836,1360,15283.60,24.72,-1.00,-1.0,2443
2581,2137581,18120,20,1104,18153.61,24.58,-1.00,-1.0,2367
2583,2137583,16156,-828,-804,16197.17,24.62,-1.00,-1.0,2440
2586,2137586,16928,172,2484,17110.14,24.67,-1.00,-1.0,2372
2589,2137589,16252,-672,1288,16316.80,24.62,-1.00,-1.0,2439
2592,2137592,16724,-736,112,16740.56,24.58,-1.00,-1.0,2367
2597,2137597,16468,172,1808,16567.84,24.58,-1.00,-1.0,2445
2599,2137599,16692,-1004,140,16722.75,24.58,-1.00,-1.0,2366
2602,2137602,17824,-96,1220,17865.96,24.67,-1.00,-1.0,2441
2605,2137605,16056,-408,196,16062.38,24.58,-1.00,-1.0,2373
2608,2137608,17900,-468,872,17927.34,24.67,-1.00,-1.0,2438
2610,2137610,16424,-852,864,16468.76,24.67,-1.00,-1.0,2364
2613,2137613,17580,-844,1244,17644.16,24.67,-1.00,-1.0,2367
2616,2137616,16588,-496,404,16600.33,24.77,-1.00,-1.0,2451
2618,2137618,17344,-212,364,17349.12,24.62,-1.00,-1.0,2365
2623,2137623,17012,-328,368,17019.14,24.62,-1.00,-1.0,2448
2626,2137626,17332,-596,752,17358.54,24.53,-1.00,-1.0,2365
2629,2137629,16088,-716,1804,16204.65,24.62,-1.00,-1.0,2443
2632,2137632,18116,-1384,-476,18175.02,24.67,-1.00,-1.0,2361
2634,2137634,16712,-668,-380,16729.66,24.72,-1.00,-1.0,2440
2637,2137637,16072,-88,0,16072.24,24.62,-1.00,-1.0,2371
2640,2137640,18264,-704,140,18278.10,24.62,-1.00,-1.0,2439
2643,2137643,15764,-788,636,15796.49,24.58,-1.00,-1.0,2369
2648,2137648,15816,-760,132,15834.80,24.58,-1.00,-1.0,2444
2650,2137650,16260,208,1700,16349.95,24.67,-1.00,-1.0,2366
2653,2137653,17828,-1128,-332,17866.73,24.67,-1.00,-1.0,2442
2656,2137656,15556,-844,376,15583.42,24.67,-1.00,-1.0,2373
2658,2137658,18660,-744,-120,18675.21,24.72,-1.00,-1.0,2370
2661,2137661,15664,-172,1344,15722.49,24.62,-1.00,-1.0,2447
2664,2137664,18224,-996,512,18258.38,24.62,-1.00,-1.0,2368
2667,2137667,15760,-1024,-44,15793.29,24.53,-1.00,-1.0,2450
2669,2137669,18104,-196,692,18118.28,24.58,-1.00,-1.0,2364
2674,2137674,16756,-648,1252,16815.20,24.58,-1.00,-1.0,2446
2677,2137677,18016,-732,584,18040.32,24.72,-1.00,-1.0,2365
2680,2137680,16184,-656,304,16200.14,24.58,-1.00,-1.0,2440
2683,2137683,18292,-660,-996,18330.98,24.62,-1.00,-1.0,2363
2685,2137685,16112,-256,884,16138.26,24.58,-1.00,-1.0,2438
2688,2137688,16616,-660,944,16655.88,24.53,-1.00,-1.0,2364
2691,2137691,16940,-712,1332,17007.20,24.58,-1.00,-1.0,2460
2694,2137694,16156,-1136,-260,16197.98,24.67,-1.00,-1.0,2373
2696,2137696,17472,-144,800,17490.90,24.77,-1.00,-1.0,2360
2701,2137701,18168,200,1636,18242.61,24.62,-1.00,-1.0,2455
2704,2137704,16496,-916,472,16528.15,24.62,-1.00,-1.0,2371
2707,2137707,17156,-1012,860,17207.33,24.62,-1.00,-1.0,2445
2710,2137710,16628,-328,288,16633.73,24.62,-1.00,-1.0,2371
2712,2137712,17256,952,1692,17364.87,24.72,-1.00,-1.0,2449
2715,2137715,16740,-656,308,16755.68,24.62,-1.00,-1.0,2372
2718,2137718,16996,-1036,2068,17152.67,24.62,-1.00,-1.0,2429
2721,2137721,16844,-1036,864,16897.93,24.67,-1.00,-1.0,2362
2725,2137725,16968,428,284,16975.77,24.62,-1.00,-1.0,2454
2728,2137728,17036,28,1008,17065.82,24.72,-1.00,-1.0,2377
2731,2137731,16372,-1672,196,16458.32,24.58,-1.00,-1.0,2446
2734,2137734,17236,-600,1288,17294.47,24.72,-1.00,-1.0,2368
2736,2137736,16664,-668,-880,16700.58,24.67,-1.00,-1.0,2443
2739,2137739,16876,868,1880,17002.56,24.62,-1.00,-1.0,2378
2742,2137742,16568,-456,948,16601.36,24.67,-1.00,-1.0,2361
2745,2137745,16924,-712,1868,17041.66,24.67,-1.00,-1.0,2451
2748,2137748,16700,-1160,376,16744.46,24.62,-1.00,-1.0,2368
2753,2137753,16988,20,-36,16988.05,24.53,-1.00,-1.0,2444
2755,2137755,17152,-488,-160,17159.69,24.72,-1.00,-1.0,2365
2758,2137758,17292,-1056,664,17336.93,24.53,-1.00,-1.0,2441
2761,2137761,16340,-1228,2172,16529.40,24.53,-1.00,-1.0,2371
2764,2137764,17664,-1000,-152,17692.94,24.62,-1.00,-1.0,2439
2766,2137766,16772,276,-628,16786.02,24.72,-1.00,-1.0,2362
2769,2137769,16232,316,228,16236.68,24.62,-1.00,-1.0,2440
2772,2137772,17508,-1456,636,17579.95,24.62,-1.00,-1.0,2370
2777,2137777,18132,104,1616,18204.17,24.62,-1.00,-1.0,2445
2779,2137779,16040,276,676,16056.61,24.67,-1.00,-1.0,2363
2782,2137782,16760,-64,760,16777.34,24.62,-1.00,-1.0,2359
2785,2137785,17260,-1200,252,17303.50,24.53,-1.00,-1.0,2450
2787,2137787,16464,-936,592,16501.21,24.58,-1.00,-1.0,2363
2790,2137790,17756,-476,56,17762.47,24.62,-1.00,-1.0,2441
2793,2137793,16060,-120,1424,16123.45,24.72,-1.00,-1.0,2363
2796,2137796,17960,-912,644,17994.67,24.62,-1.00,-1.0,2443
2799,2137799,15944,-896,-228,15970.78,24.67,-1.00,-1.0,2365
2804,2137804,16708,-420,244,16715.06,24.58,-1.00,-1.0,2450
2806,2137806,17344,-828,1116,17399.58,24.58,-1.00,-1.0,2366
2809,2137809,17272,-836,1224,17335.49,24.67,-1.00,-1.0,2452
2812,2137812,16200,-412,680,16219.50,24.67,-1.00,-1.0,2371
2815,2137815,17748,-536,-628,17767.19,24.67,-1.00,-1.0,2451
2817,2137817,16128,-448,460,16140.78,24.58,-1.00,-1.0,2373
2820,2137820,17100,-412,1392,17161.51,24.67,-1.00,-1.0,2450
2823,2137823,16596,-472,1344,16657.02,24.58,-1.00,-1.0,2366
2826,2137826,16660,-732,-204,16677.32,24.67,-1.00,-1.0,2361
2831,2137831,15888,-512,864,15919.71,24.67,-1.00,-1.0,2448
2833,2137833,17712,-92,2100,17836.29,24.67,-1.00,-1.0,2373
2836,2137836,16340,-780,628,16370.66,24.72,-1.00,-1.0,2450
2839,2137839,17428,-496,660,17447.54,24.58,-1.00,-1.0,2365
2842,2137842,16808,-480,-324,16817.97,24.62,-1.00,-1.0,2450
2844,2137844,17588,1024,2272,17763.68,24.67,-1.00,-1.0,2372
2847,2137847,16304,-564,548,16322.95,24.62,-1.00,-1.0,2448
2850,2137850,17420,-848,1600,17513.87,24.67,-1.00,-1.0,2366
2855,2137855,16780,-460,772,16804.05,24.67,-1.00,-1.0,2452
2857,2137857,17992,-164,-1444,18050.60,24.67,-1.00,-1.0,2363
2860,2137860,17152,624,1800,17257.48,24.58,-1.00,-1.0,2454
2863,2137863,15868,-1356,220,15927.35,24.67,-1.00,-1.0,2370
2866,2137866,17984,-856,1512,18067.74,24.67,-1.00,-1.0,2361
2868,2137868,16520,-1332,-1044,16606.46,24.58,-1.00,-1.0,2439
2871,2137871,17944,200,916,17968.48,24.62,-1.00,-1.0,2365
2874,2137874,16748,-692,-344,16765.82,24.62,-1.00,-1.0,2440
2877,2137877,17192,-736,1472,17270.59,24.62,-1.00,-1.0,2357
2883,2137883,17292,-160,744,17308.74,24.67,-1.00,-1.0,2446
2886,2137886,16072,1080,2332,16276.17,24.67,-1.00,-1.0,2363
2889,2137889,17060,-776,-900,17101.34,24.67,-1.00,-1.0,2442
2892,2137892,17380,-164,2396,17545.14,24.58,-1.00,-1.0,2369
2894,2137894,17400,-1548,520,17476.46,24.58,-1.00,-1.0,2440
2897,2137897,16712,-12,1572,16785.78,24.67,-1.00,-1.0,2363
2900,2137900,16408,-304,-1012,16441.99,24.67,-1.00,-1.0,2439
2903,2137903,17948,588,1840,18051.65,24.62,-1.00,-1.0,2363
2907,2137907,17504,-492,1856,17609.00,24.58,-1.00,-1.0,2446
2910,2137910,17444,-244,-176,17446.59,24.58,-1.00,-1.0,2363
2913,2137913,15272,528,1456,15350.33,24.67,-1.00,-1.0,2443
2916,2137916,18620,-1116,-576,18662.30,24.58,-1.00,-1.0,2362
2918,2137918,15332,-348,2064,15474.22,24.58,-1.00,-1.0,2361
2921,2137921,19080,-752,-168,19095.55,24.53,-1.00,-1.0,2455
2924,2137924,16448,116,1800,16546.61,24.58,-1.00,-1.0,2372
2927,2137927,17404,-640,232,17417.31,24.72,-1.00,-1.0,2453
2929,2137929,16452,-648,864,16487.41,24.67,-1.00,-1.0,2364
2934,2137934,17432,-176,1280,17479.82,24.62,-1.00,-1.0,2454
2937,2137937,16572,-1268,-584,16630.70,24.62,-1.00,-1.0,2371
2940,2137940,17516,-496,1548,17591.26,24.62,-1.00,-1.0,2455
2942,2137942,16860,-776,-220,16879.28,24.62,-1.00,-1.0,2373
2945,2137945,17496,-564,-492,17512.00,24.72,-1.00,-1.0,2448
2948,2137948,17860,-276,836,17881.69,24.62,-1.00,-1.0,2350
2951,2137951,15672,-852,1408,15758.17,24.62,-1.00,-1.0,2451
2953,2137953,17860,-780,904,17899.87,24.67,-1.00,-1.0,2373
2958,2137958,17572,224,1548,17641.48,24.67,-1.00,-1.0,2446
2961,2137961,17536,-940,348,17564.62,24.58,-1.00,-1.0,2363
2964,2137964,16800,-1284,-356,16852.76,24.62,-1.00,-1.0,2368
2966,2137966,17568,-828,56,17587.59,24.62,-1.00,-1.0,2449
2969,2137969,16932,-136,1248,16978.47,24.62,-1.00,-1.0,2379
2972,2137972,16548,-304,908,16575.68,24.62,-1.00,-1.0,2442
2975,2137975,17176,-356,64,17179.81,24.62,-1.00,-1.0,2365
2977,2137977,16540,-1012,-300,16573.65,24.62,-1.00,-1.0,2448
2980,2137980,17568,-224,2856,17800.04,24.62,-1.00,-1.0,2379
2985,2137985,17276,-524,864,17305.53,24.62,-1.00,-1.0,2445
2988,2137988,16508,444,1248,16561.06,24.67,-1.00,-1.0,2370
2991,2137991,16468,588,1992,16598.46,24.62,-1.00,-1.0,2442
2993,2137993,16100,-1936,-760,16233.78,24.67,-1.00,-1.0,2366
2996,2137996,17520,-752,1568,17606.09,24.62,-1.00,-1.0,2439
2999,2137999,17304,-564,276,17315.39,24.67,-1.00,-1.0,2371
3001,2138001,16196,832,1836,16320.95,24.62,-1.00,-1.0,2360
3004,2138004,17708,-740,-916,17747.11,24.62,-1.00,-1.0,2450
3007,2138007,16568,112,2480,16752.96,24.62,-1.00,-1.0,2371
3012,2138012,17816,-888,2256,17980.21,24.53,-1.00,-1.0,2451
3014,2138014,16132,-76,504,16140.05,24.58,-1.00,-1.0,2350
3017,2138017,17016,1816,2804,17340.83,24.58,-1.00,-1.0,2445
3020,2138020,16920,-532,-976,16956.47,24.67,-1.00,-1.0,2364
3023,2138023,16800,-800,2572,17014.56,24.72,-1.00,-1.0,2442
3025,2138025,17488,-1588,-168,17560.75,24.58,-1.00,-1.0,2362
3028,2138028,16812,888,1284,16884.33,24.67,-1.00,-1.0,2442
3031,2138031,16776,48,-968,16803.97,24.58,-1.00,-1.0,2363
3036,2138036,17148,-1464,1124,17247.04,24.67,-1.00,-1.0,2448
3039,2138039,16592,-40,2852,16835.38,24.58,-1.00,-1.0,2364
3041,2138041,17032,96,-496,17039.49,24.67,-1.00,-1.0,2442
3044,2138044,16556,112,1120,16594.22,24.67,-1.00,-1.0,2366
3047,2138047,17472,-1472,-220,17535.28,24.67,-1.00,-1.0,2361
3049,2138049,16708,-556,2832,16955.43,24.62,-1.00,-1.0,2426
3052,2138052,17888,-740,-856,17923.75,24.67,-1.00,-1.0,2364
3055,2138055,16704,-164,520,16712.90,24.53,-1.00,-1.0,2441
3058,2138058,17080,-1284,-604,17138.84,24.58,-1.00,-1.0,2363
3063,2138063,17144,-716,-8,17158.95,24.67,-1.00,-1.0,2447
3065,2138065,16808,292,1216,16854.46,24.58,-1.00,-1.0,2371
3068,2138068,17604,-924,-184,17629.19,24.58,-1.00,-1.0,2448
3071,2138071,16396,-192,2564,16596.38,24.67,-1.00,-1.0,2366
3074,2138074,17028,-1020,104,17058.84,24.67,-1.00,-1.0,2451
3076,2138076,16964,-392,-296,16971.11,24.77,-1.00,-1.0,2372
3079,2138079,17744,-44,976,17770.88,24.58,-1.00,-1.0,2448
3082,2138082,16124,-764,1548,16216.15,24.67,-1.00,-1.0,2350
3084,2138084,17556,-1072,280,17590.93,24.58,-1.00,-1.0,2363
3089,2138089,16996,-260,-108,16998.33,24.67,-1.00,-1.0,2455
3092,2138092,17260,-1140,156,17298.31,24.67,-1.00,-1.0,2378
3095,2138095,16744,-1344,84,16798.06,24.67,-1.00,-1.0,2445
3098,2138098,17644,-820,800,17681.15,24.67,-1.00,-1.0,2370
3100,2138100,17284,-264,356,17289.68,24.58,-1.00,-1.0,2448
3103,2138103,17324,-956,-1312,17399.89,24.67,-1.00,-1.0,2380
3106,2138106,16716,-212,560,16726.72,24.67,-1.00,-1.0,2444
3109,2138109,17056,-936,-360,17085.46,24.58,-1.00,-1.0,2365
3113,2138113,17084,-1220,832,17147.70,24.58,-1.00,-1.0,2448
3116,2138116,16744,-912,780,16786.95,24.58,-1.00,-1.0,2371
3119,2138119,17760,-376,-888,17786.16,24.72,-1.00,-1.0,2442
3122,2138122,16588,-128,-144,16589.12,24.58,-1.00,-1.0,2362
3124,2138124,16508,-1568,-1020,16613.64,24.62,-1.00,-1.0,2427
3127,2138127,17248,-284,2140,17382.57,24.67,-1.00,-1.0,2379
3130,2138130,17160,-1376,-620,17226.24,24.72,-1.00,-1.0,2442
3133,2138133,15704,96,864,15728.04,24.58,-1.00,-1.0,2368
3135,2138135,17872,-68,-460,17878.05,24.67,-1.00,-1.0,2360
3140,2138140,18072,-2184,-776,18220.02,24.62,-1.00,-1.0,2446
3143,2138143,17812,-1236,1800,17945.33,24.62,-1.00,-1.0,2366
3145,2138145,15704,-632,736,15733.94,24.62,-1.00,-1.0,2442
3148,2138148,17684,1068,924,17740.30,24.62,-1.00,-1.0,2362
3151,2138151,16512,-360,-828,16536.67,24.62,-1.00,-1.0,2440
3154,2138154,17636,-724,1080,17683.87,24.62,-1.00,-1.0,2363
3156,2138156,16812,-2132,-152,16947.33,24.62,-1.00,-1.0,2440
3159,2138159,18012,344,1904,18115.62,24.72,-1.00,-1.0,2363
3164,2138164,16192,480,996,16229.70,24.62,-1.00,-1.0,2451
3167,2138167,17808,-1372,-592,17870.58,24.62,-1.00,-1.0,2364
3170,2138170,16008,-1196,1488,16121.43,24.62,-1.00,-1.0,2453
3172,2138172,18352,-1004,-84,18379.63,24.62,-1.00,-1.0,2370
3175,2138175,15376,920,1996,15532.28,24.62,-1.00,-1.0,2440
3178,2138178,18252,-488,608,18268.64,24.62,-1.00,-1.0,2363
3180,2138180,16940,-1252,1172,17026.59,24.53,-1.00,-1.0,2360
3183,2138183,16836,-1628,-660,16927.40,24.67,-1.00,-1.0,2439
3186,2138186,17100,1096,1820,17231.47,24.67,-1.00,-1.0,2363
3191,2138191,17404,-140,2252,17549.65,24.58,-1.00,-1.0,2448
3194,2138194,16944,-1632,124,17022.87,24.67,-1.00,-1.0,2363
3196,2138196,17132,-192,1704,17217.60,24.67,-1.00,-1.0,2443
3199,2138199,17760,144,552,17769.16,24.67,-1.00,-1.0,2364
3202,2138202,15684,308,2056,15821.18,24.58,-1.00,-1.0,2439
3205,2138205,17840,-1324,-972,17915.45,24.72,-1.00,-1.0,2363
3207,2138207,17276,-240,1656,17356.85,24.67,-1.00,-1.0,2440
3210,2138210,17748,-464,512,17761.45,24.67,-1.00,-1.0,2363
3215,2138215,17452,-276,504,17461.46,24.62,-1.00,-1.0,2453
3218,2138218,16908,-36,1264,16955.22,24.62,-1.00,-1.0,2349
3221,2138221,16660,-1080,-200,16696.17,24.72,-1.00,-1.0,2455
3223,2138223,17028,-700,392,17046.89,24.62,-1.00,-1.0,2370
3226,2138226,16756,-900,-492,16787.37,24.58,-1.00,-1.0,2361
3229,2138229,17740,488,2052,17864.95,24.77,-1.00,-1.0,2445
3231,2138231,16472,-388,1832,16578.11,24.67,-1.00,-1.0,2363
3234,2138234,16844,-1064,916,16902.41,24.58,-1.00,-1.0,2440
3237,2138237,16152,-352,-688,16170.48,24.67,-1.00,-1.0,2370
3242,2138242,16492,-744,1352,16564.04,24.67,-1.00,-1.0,2445
3245,2138245,17104,-2096,980,17259.79,24.67,-1.00,-1.0,2370
3248,2138248,17872,-1716,912,17977.34,24.62,-1.00,-1.0,2443
3250,2138250,17080,1232,1236,17168.92,24.58,-1.00,-1.0,2363
3253,2138253,16216,1444,1292,16331.35,24.67,-1.00,-1.0,2439
3256,2138256,16772,-532,-60,16780.54,24.58,-1.00,-1.0,2370
3259,2138259,17924,-1492,728,18000.72,24.72,-1.00,-1.0,2440
3261,2138261,17260,-1172,660,17312.33,24.67,-1.00,-1.0,2364
3266,2138266,17152,1000,1156,17219.97,24.67,-1.00,-1.0,2445
3269,2138269,16328,-452,1480,16401.17,24.67,-1.00,-1.0,2362
3271,2138271,17076,-1364,1568,17202.00,24.58,-1.00,-1.0,2347
3274,2138274,16580,-712,972,16623.72,24.62,-1.00,-1.0,2444
3277,2138277,16824,-124,548,16833.38,24.58,-1.00,-1.0,2363
3280,2138280,16676,488,1148,16722.59,24.53,-1.00,-1.0,2446
3282,2138282,16956,-568,592,16975.84,24.58,-1.00,-1.0,2362
3285,2138285,16884,-1056,1652,16997.46,24.62,-1.00,-1.0,2443
3288,2138288,17376,-1244,-148,17421.10,24.67,-1.00,-1.0,2371
3293,2138293,16476,244,-36,16477.85,24.62,-1.00,-1.0,2460
3296,2138296,16924,244,1716,17012.52,24.62,-1.00,-1.0,2369
3299,2138299,17096,-832,1052,17148.53,24.58,-1.00,-1.0,2454
3301,2138301,16864,-1240,816,16929.21,24.62,-1.00,-1.0,2373
3304,2138304,17620,-500,-424,17632.19,24.58,-1.00,-1.0,2450
3307,2138307,16076,424,688,16096.30,24.62,-1.00,-1.0,2368
3310,2138310,18124,-304,476,18132.80,24.67,-1.00,-1.0,2455
3312,2138312,16068,-952,1520,16167.79,24.67,-1.00,-1.0,2373
3315,2138315,17892,-1372,-312,17947.24,24.58,-1.00,-1.0,2363
3321,2138321,17092,-112,208,17093.63,24.62,-1.00,-1.0,2460
3323,2138323,17864,-508,1108,17905.54,24.53,-1.00,-1.0,2361
3326,2138326,16692,-1244,1172,16779.27,24.62,-1.00,-1.0,2442
3329,2138329,17120,-296,1180,17163.17,24.67,-1.00,-1.0,2363
3332,2138332,16788,-56,-244,16789.87,24.72,-1.00,-1.0,2442
3334,2138334,17048,392,1620,17129.28,24.62,-1.00,-1.0,2362
3337,2138337,16296,-700,1488,16378.76,24.62,-1.00,-1.0,2440
3340,2138340,16720,-1304,524,16778.96,24.67,-1.00,-1.0,2364
3345,2138345,16892,300,1216,16938.37,24.62,-1.00,-1.0,2447
3347,2138347,18072,-720,-644,18097.80,24.72,-1.00,-1.0,2362
3350,2138350,16496,-360,1216,16544.68,24.62,-1.00,-1.0,2445
3353,2138353,18356,-252,1824,18448.12,24.62,-1.00,-1.0,2363
3356,2138356,15552,-612,1320,15619.91,24.67,-1.00,-1.0,2449
3358,2138358,17616,-356,44,17619.65,24.62,-1.00,-1.0,2362
3361,2138361,16540,-324,104,16543.50,24.58,-1.00,-1.0,2368
3364,2138364,17688,-624,780,17716.18,24.67,-1.00,-1.0,2448
3367,2138367,16824,-816,772,16861.46,24.67,-1.00,-1.0,2363
3371,2138371,17356,92,544,17364.77,24.72,-1.00,-1.0,2445
3374,2138374,16872,-572,1368,16937.03,24.62,-1.00,-1.0,2362
3377,2138377,16548,-1476,488,16620.86,24.62,-1.00,-1.0,2442
3380,2138380,17420,-832,720,17454.71,24.53,-1.00,-1.0,2363
3382,2138382,16784,180,1252,16831.59,24.72,-1.00,-1.0,2439
3385,2138385,17048,368,2080,17178.36,24.53,-1.00,-1.0,2361
3388,2138388,15796,-1308,-196,15851.27,24.62,-1.00,-1.0,2440
3391,2138391,17660,-988,544,17695.98,24.62,-1.00,-1.0,2363
3396,2138396,16120,-776,-76,16138.85,24.72,-1.00,-1.0,2451
3398,2138398,17596,-216,544,17605.73,24.67,-1.00,-1.0,2370
3401,2138401,16192,-92,2104,16328.38,24.67,-1.00,-1.0,2349
3404,2138404,17676,-1208,216,17718.55,24.72,-1.00,-1.0,2439
3406,2138406,17052,-640,1256,17110.17,24.72,-1.00,-1.0,2366
3409,2138409,16444,76,852,16466.23,24.62,-1.00,-1.0,2441
3412,2138412,17384,692,1180,17437.74,24.67,-1.00,-1.0,2363
3415,2138415,16592,-1036,96,16624.59,24.53,-1.00,-1.0,2438
3417,2138417,17352,-744,2192,17505.72,24.62,-1.00,-1.0,2366
3422,2138422,17080,-276,1428,17141.81,24.67,-1.00,-1.0,2452
3425,2138425,17308,132,-244,17310.22,24.67,-1.00,-1.0,2370
3428,2138428,16748,288,1084,16785.52,24.67,-1.00,-1.0,2436
3431,2138431,17424,-708,856,17459.38,24.67,-1.00,-1.0,2368
3433,2138433,16556,-608,2048,16693.27,24.62,-1.00,-1.0,2464
3436,2138436,16776,-692,684,16804.19,24.62,-1.00,-1.0,2365
3439,2138439,16800,-584,-592,16820.57,24.67,-1.00,-1.0,2368
3442,2138442,18272,44,1520,18335.17,24.67,-1.00,-1.0,2445
3444,2138444,16044,-388,1576,16125.89,24.58,-1.00,-1.0,2365
3449,2138449,16044,268,1756,16142.04,24.58,-1.00,-1.0,2445
3452,2138452,17600,-612,-576,17620.05,24.62,-1.00,-1.0,2363
3455,2138455,17356,-324,744,17374.96,24.67,-1.00,-1.0,2447
3457,2138457,16316,-952,1112,16381.54,24.62,-1.00,-1.0,2363
3460,2138460,16980,-704,876,17017.15,24.67,-1.00,-1.0,2439
3463,2138463,16884,-484,-268,16893.06,24.62,-1.00,-1.0,2352
3466,2138466,17452,-492,696,17472.80,24.67,-1.00,-1.0,2436
3468,2138468,16172,-776,92,16190.87,24.62,-1.00,-1.0,2366
3473,2138473,16736,-364,728,16755.78,24.62,-1.00,-1.0,2458
3476,2138476,16840,-620,232,16853.01,24.62,-1.00,-1.0,2370
3479,2138479,16568,-1156,-524,16616.54,24.62,-1.00,-1.0,2364
3481,2138481,15600,224,1968,15725.24,24.77,-1.00,-1.0,2443
3484,2138484,18900,-720,960,18938.06,24.62,-1.00,-1.0,2363
3487,2138487,14328,-1012,756,14383.58,24.58,-1.00,-1.0,2438
3490,2138490,19044,-468,1048,19078.55,24.62,-1.00,-1.0,2366
3492,2138492,15476,-616,640,15501.47,24.67,-1.00,-1.0,2440
3495,2138495,18908,-660,852,18938.69,24.62,-1.00,-1.0,2366
3500,2138500,17240,400,128,17245.12,24.77,-1.00,-1.0,2445
3503,2138503,16440,-580,40,16450.28,24.58,-1.00,-1.0,2365
3506,2138506,17536,-1424,840,17613.76,24.67,-1.00,-1.0,2451
3508,2138508,18224,-1152,1164,18297.44,24.67,-1.00,-1.0,2351
3511,2138511,16512,32,1696,16598.90,24.58,-1.00,-1.0,2443
3514,2138514,17312,388,952,17342.50,24.58,-1.00,-1.0,2362
3516,2138516,16412,-148,1040,16445.58,24.62,-1.00,-1.0,2360
3519,2138519,17356,-848,296,17379.22,24.58,-1.00,-1.0,2427
3522,2138522,16392,-1440,512,16463.09,24.62,-1.00,-1.0,2372
3527,2138527,16904,212,936,16931.22,24.67,-1.00,-1.0,2452
3530,2138530,15872,-44,-148,15872.75,24.62,-1.00,-1.0,2350
3533,2138533,17788,-1104,16,17822.23,24.58,-1.00,-1.0,2453
3535,2138535,15908,-1408,1572,16047.37,24.62,-1.00,-1.0,2372
3538,2138538,18336,-1248,1488,18438.56,24.58,-1.00,-1.0,2439
3541,2138541,15128,628,1044,15176.98,24.53,-1.00,-1.0,2362
3544,2138544,18020,460,-480,18032.26,24.67,-1.00,-1.0,2450
3546,2138546,17276,-48,560,17285.14,24.67,-1.00,-1.0,2371
3551,2138551,18716,-2128,0,18836.59,24.58,-1.00,-1.0,2445
3554,2138554,15848,-256,204,15851.38,24.58,-1.00,-1.0,2365
3557,2138557,18248,536,-620,18266.39,24.67,-1.00,-1.0,2438
3559,2138559,17808,280,972,17836.71,24.48,-1.00,-1.0,2351
3562,2138562,15684,-872,1328,15764.26,24.58,-1.00,-1.0,2360
3565,2138565,19692,-464,2132,19812.51,24.58,-1.00,-1.0,2445
3567,2138567,13552,-712,928,13602.38,24.67,-1.00,-1.0,2362
3570,2138570,19320,-708,-912,19354.47,24.58,-1.00,-1.0,2440
3573,2138573,15124,132,660,15138.97,24.58,-1.00,-1.0,2366
3578,2138578,17796,-1740,300,17883.38,24.58,-1.00,-1.0,2454
3581,2138581,15884,-952,664,15926.35,24.67,-1.00,-1.0,2376
3584,2138584,18472,308,308,18477.13,24.67,-1.00,-1.0,2443
3587,2138587,15828,364,-212,15833.60,24.67,-1.00,-1.0,2368
3589,2138589,19260,-376,1312,19308.30,24.58,-1.00,-1.0,2446
3592,2138592,14480,-1776,932,14618.25,24.58,-1.00,-1.0,2370
3595,2138595,19644,-972,1084,19697.88,24.67,-1.00,-1.0,2440
3598,2138598,15260,-340,-116,15264.23,24.67,-1.00,-1.0,2368
3600,2138600,15832,548,508,15849.62,24.58,-1.00,-1.0,2361
3605,2138605,14924,-1124,1240,15017.55,24.58,-1.00,-1.0,2447
3608,2138608,19120,-796,1920,19232.64,24.67,-1.00,-1.0,2366
3611,2138611,13848,-348,364,13857.15,24.58,-1.00,-1.0,2441
3614,2138614,18860,-392,-568,18872.62,24.58,-1.00,-1.0,2360
3616,2138616,18116,-56,956,18141.29,24.58,-1.00,-1.0,2443
3619,2138619,14916,-1320,1068,15012.33,24.67,-1.00,-1.0,2379
3622,2138622,19000,-992,676,19037.88,24.67,-1.00,-1.0,2441
3625,2138625,15220,-348,884,15249.62,24.58,-1.00,-1.0,2369
3630,2138630,15004,96,172,15005.29,24.67,-1.00,-1.0,2446
3632,2138632,17320,88,968,17347.25,24.72,-1.00,-1.0,2365
3635,2138635,16264,-1496,748,16349.78,24.58,-1.00,-1.0,2456
3638,2138638,17192,-1152,1192,17271.73,24.58,-1.00,-1.0,2372
3640,2138640,18912,-740,520,18933.61,24.67,-1.00,-1.0,2368
3643,2138643,15740,-12,784,15759.52,24.62,-1.00,-1.0,2439
3646,2138646,18308,-72,172,18308.95,24.58,-1.00,-1.0,2365
3649,2138649,16632,-688,772,16664.12,24.58,-1.00,-1.0,2449
3651,2138651,17628,4,1704,17710.17,24.62,-1.00,-1.0,2362
3656,2138656,16024,-236,768,16044.13,24.62,-1.00,-1.0,2446
3659,2138659,17996,-600,1040,18036.01,24.62,-1.00,-1.0,2363
3662,2138662,15796,-1372,-164,15856.32,24.72,-1.00,-1.0,2427
3665,2138665,17492,-372,1192,17536.51,24.67,-1.00,-1.0,2365
3667,2138667,16416,-440,724,16437.85,24.62,-1.00,-1.0,2440
3670,2138670,17368,-356,720,17386.56,24.72,-1.00,-1.0,2366
3673,2138673,16932,-328,1032,16966.59,24.62,-1.00,-1.0,2438
3676,2138676,17036,64,732,17051.84,24.67,-1.00,-1.0,2364
3678,2138678,16812,-716,552,16836.29,24.62,-1.00,-1.0,2360
3683,2138683,17552,-432,1392,17612.41,24.53,-1.00,-1.0,2444
3686,2138686,16960,-508,592,16977.93,24.62,-1.00,-1.0,2364
3689,2138689,17648,-248,564,17658.75,24.62,-1.00,-1.0,2441
3692,2138692,16752,-288,992,16783.82,24.62,-1.00,-1.0,2363
3694,2138694,16048,-1040,-288,16084.24,24.62,-1.00,-1.0,2440
3697,2138697,19596,-20,1060,19624.66,24.62,-1.00,-1.0,2363
3700,2138700,15328,-304,1212,15378.85,24.72,-1.00,-1.0,2438
3703,2138703,18512,-904,708,18547.58,24.62,-1.00,-1.0,2363
3708,2138708,17416,-160,612,17427.48,24.58,-1.00,-1.0,2447
3710,2138710,17332,-164,1096,17367.39,24.62,-1.00,-1.0,2372
3713,2138713,15068,-704,1296,15140.01,24.62,-1.00,-1.0,2449
3716,2138716,17968,24,1568,18036.30,24.62,-1.00,-1.0,2362
3718,2138718,15268,-716,504,15293.09,24.62,-1.00,-1.0,2363
3721,2138721,17916,-816,-428,17939.68,24.67,-1.00,-1.0,2439
3724,2138724,16652,-212,1696,16739.49,24.62,-1.00,-1.0,2366
3727,2138727,16900,-508,1532,16976.90,24.62,-1.00,-1.0,2437
3730,2138730,17108,-708,312,17125.49,24.58,-1.00,-1.0,2363
3734,2138734,17512,-136,708,17526.83,24.53,-1.00,-1.0,2452
3737,2138737,16720,-312,196,16724.06,24.62,-1.00,-1.0,2378
3740,2138740,17636,404,2668,17841.24,24.62,-1.00,-1.0,2442
3743,2138743,15808,-380,1896,15925.83,24.58,-1.00,-1.0,2364
3745,2138745,17384,-1516,-540,17458.33,24.62,-1.00,-1.0,2443
3748,2138748,17992,312,2192,18127.72,24.62,-1.00,-1.0,2378
3751,2138751,15712,-236,792,15733.72,24.62,-1.00,-1.0,2444
3754,2138754,18700,-1200,-212,18739.66,24.58,-1.00,-1.0,2368
3758,2138758,17912,-332,1380,17968.15,24.62,-1.00,-1.0,2449
3761,2138761,17488,-200,152,17489.80,24.72,-1.00,-1.0,2366
3764,2138764,16712,616,1660,16805.54,24.67,-1.00,-1.0,2361
3766,2138766,16468,-472,980,16503.88,24.67,-1.00,-1.0,2442
3769,2138769,16676,-724,856,16713.64,24.58,-1.00,-1.0,2364
3772,2138772,17696,-956,968,17748.22,24.67,-1.00,-1.0,2439
3775,2138775,15920,-724,908,15962.30,24.67,-1.00,-1.0,2362
3778,2138778,17880,-248,-100,17882.00,24.58,-1.00,-1.0,2448
3781,2138781,17112,-300,-376,17118.76,24.53,-1.00,-1.0,2369
3786,2138786,16404,-1284,824,16474.79,24.77,-1.00,-1.0,2444
3788,2138788,16680,-1144,-580,16729.24,24.62,-1.00,-1.0,2364
3791,2138791,18068,612,1168,18116.05,24.72,-1.00,-1.0,2458
3794,2138794,15700,-308,328,15706.45,24.62,-1.00,-1.0,2372
3797,2138797,17988,-928,564,18020.75,24.62,-1.00,-1.0,2452
3799,2138799,16336,-960,2088,16496.86,24.62,-1.00,-1.0,2367
3802,2138802,16996,-1308,-144,17046.87,24.53,-1.00,-1.0,2453
3805,2138805,17896,256,-420,17902.76,24.62,-1.00,-1.0,2373
3808,2138808,16564,432,692,16584.08,24.62,-1.00,-1.0,2361
3813,2138813,17284,-2040,1084,17437.70,24.62,-1.00,-1.0,2445
3815,2138815,16848,-500,1272,16903.35,24.62,-1.00,-1.0,2370
3818,2138818,17240,-128,-408,17245.30,24.62,-1.00,-1.0,2455
3821,2138821,17232,1004,1004,17290.40,24.62,-1.00,-1.0,2370
3824,2138824,16916,-640,1468,16991.63,24.67,-1.00,-1.0,2449
3826,2138826,16660,-1376,700,16731.38,24.62,-1.00,-1.0,2366
3829,2138829,18920,-364,796,18940.23,24.58,-1.00,-1.0,2454
3832,2138832,15416,896,1564,15521.02,24.72,-1.00,-1.0,2370
3837,2138837,16140,-1228,476,16193.65,24.62,-1.00,-1.0,2448
3839,2138839,17672,-716,1044,17717.29,24.67,-1.00,-1.0,2351
3842,2138842,16220,536,2068,16360.08,24.72,-1.00,-1.0,2446
3845,2138845,16216,-428,416,16226.98,24.53,-1.00,-1.0,2361
3848,2138848,17516,172,2044,17635.70,24.62,-1.00,-1.0,2447
3850,2138850,15532,-780,704,15567.50,24.58,-1.00,-1.0,2364
3853,2138853,17924,-568,252,17934.77,24.62,-1.00,-1.0,2361
3856,2138856,16804,148,1312,16855.79,24.62,-1.00,-1.0,2445
3859,2138859,16812,172,2288,16967.85,24.67,-1.00,-1.0,2362
3864,2138864,16520,-156,1140,16560.02,24.67,-1.00,-1.0,2448
3866,2138866,18092,-388,48,18096.22,24.67,-1.00,-1.0,2374
3869,2138869,15572,-288,1148,15616.92,24.67,-1.00,-1.0,2449
3872,2138872,18180,116,1808,18270.05,24.67,-1.00,-1.0,2363
3875,2138875,15648,-372,1600,15733.99,24.58,-1.00,-1.0,2449
3877,2138877,18172,-1380,-752,18239.83,24.67,-1.00,-1.0,2373
3880,2138880,18004,132,1836,18097.85,24.58,-1.00,-1.0,2447
3883,2138883,15796,-104,752,15814.23,24.58,-1.00,-1.0,2362
3888,2138888,14988,-388,1252,15045.21,24.67,-1.00,-1.0,2453
3890,2138890,17736,-328,1812,17831.34,24.62,-1.00,-1.0,2364
3893,2138893,17984,-496,40,17990.88,24.67,-1.00,-1.0,2376
3896,2138896,16088,-192,960,16117.76,24.67,-1.00,-1.0,2446
3899,2138899,17680,-264,512,17689.38,24.58,-1.00,-1.0,2370
3901,2138901,16112,-572,776,16140.81,24.77,-1.00,-1.0,2443
3904,2138904,17932,-1216,580,17982.54,24.58,-1.00,-1.0,2378
3907,2138907,16292,-976,548,16330.41,24.58,-1.00,-1.0,2445
3910,2138910,17500,0,172,17500.85,24.62,-1.00,-1.0,2370
3915,2138915,16556,-64,2196,16701.13,24.62,-1.00,-1.0,2445
3917,2138917,16796,-1232,1844,16941.78,24.58,-1.00,-1.0,2353
3920,2138920,16552,-1420,-36,16612.84,24.62,-1.00,-1.0,2442
3923,2138923,17356,404,628,17372.06,24.67,-1.00,-1.0,2363
3926,2138926,16792,388,400,16801.24,24.62,-1.00,-1.0,2438
3928,2138928,17444,-1584,-168,17516.58,24.58,-1.00,-1.0,2371
3931,2138931,17088,-1572,2360,17321.68,24.62,-1.00,-1.0,2361
3934,2138934,16216,-1020,1112,16286.06,24.67,-1.00,-1.0,2444
3937,2138937,17620,1252,220,17665.79,24.62,-1.00,-1.0,2371
3942,2138942,16088,-968,704,16132.46,24.67,-1.00,-1.0,2445
3944,2138944,18716,-2124,352,18839.43,24.58,-1.00,-1.0,2365
3947,2138947,16160,-800,2228,16332.47,24.58,-1.00,-1.0,2457
3950,2138950,16616,-380,-352,16624.07,24.67,-1.00,-1.0,2372
3953,2138953,17168,412,644,17185.01,24.67,-1.00,-1.0,2454
3955,2138955,16864,-332,1924,16976.65,24.67,-1.00,-1.0,2364
3958,2138958,17944,-2184,72,18076.56,24.67,-1.00,-1.0,2452
3961,2138961,14988,-1392,-584,15063.83,24.67,-1.00,-1.0,2373
3966,2138966,17192,-568,104,17201.70,24.67,-1.00,-1.0,2451
3968,2138968,15792,-636,1528,15878.49,24.67,-1.00,-1.0,2376
3971,2138971,18612,-1332,300,18662.01,24.62,-1.00,-1.0,2451
3974,2138974,14772,-48,1792,14880.38,24.67,-1.00,-1.0,2365
3976,2138976,19244,-548,-332,19254.66,24.67,-1.00,-1.0,2418
3979,2138979,14932,372,648,14950.68,24.62,-1.00,-1.0,2447
3982,2138982,19120,-372,596,19132.90,24.62,-1.00,-1.0,2350
3985,2138985,16888,-1424,644,16960.16,24.62,-1.00,-1.0,2439
3988,2138988,17264,-1452,804,17343.60,24.67,-1.00,-1.0,2370
3993,2138993,14268,-112,-116,14268.91,24.67,-1.00,-1.0,2454
3995,2138995,19552,284,444,19559.10,24.58,-1.00,-1.0,2363
3998,2138998,15244,-1428,184,15311.84,24.58,-1.00,-1.0,2460
4001,2139001,16224,-1468,472,16297.12,24.67,-1.00,-1.0,2362
4004,2139004,19080,-456,620,19095.52,24.53,-1.00,-1.0,2446
4006,2139006,14920,996,1512,15029.46,24.67,-1.00,-1.0,2363
4009,2139009,19268,-816,-212,19286.44,24.58,-1.00,-1.0,2457
4012,2139012,13712,-840,624,13751.87,24.67,-1.00,-1.0,2362
4015,2139015,20244,-536,1800,20330.93,24.72,-1.00,-1.0,2362
4020,2139020,17052,-940,-684,17091.58,24.62,-1.00,-1.0,2452
4022,2139022,17944,-172,80,17945.00,24.58,-1.00,-1.0,2363
4025,2139025,15796,64,996,15827.50,24.67,-1.00,-1.0,2458
4028,2139028,19512,-768,332,19529.93,24.58,-1.00,-1.0,2362
4031,2139031,14604,-1328,556,14674.79,24.62,-1.00,-1.0,2445
4033,2139033,19320,-780,1304,19379.66,24.58,-1.00,-1.0,2363
4036,2139036,14500,-372,920,14533.92,24.53,-1.00,-1.0,2456
4039,2139039,16880,-72,816,16899.87,24.67,-1.00,-1.0,2362
4044,2139044,14556,-476,528,14573.35,24.67,-1.00,-1.0,2445
4047,2139047,19636,428,2544,19804.74,24.58,-1.00,-1.0,2364
4049,2139049,14208,-520,1272,14274.30,24.67,-1.00,-1.0,2443
4052,2139052,19320,-684,124,19332.50,24.67,-1.00,-1.0,2362
4055,2139055,16948,-28,1452,17010.11,24.62,-1.00,-1.0,2371
4058,2139058,16092,380,2788,16336.15,24.62,-1.00,-1.0,2455
4060,2139060,17800,-1264,172,17845.65,24.67,-1.00,-1.0,2370
4063,2139063,16500,-1184,-144,16543.05,24.53,-1.00,-1.0,2453
4066,2139066,18084,208,744,18100.49,24.53,-1.00,-1.0,2363
4071,2139071,16788,-688,-104,16802.41,24.62,-1.00,-1.0,2455
4074,2139074,16816,-1336,1148,16908.01,24.53,-1.00,-1.0,2368
4076,2139076,17276,-1332,-888,17350.01,24.58,-1.00,-1.0,2451
4079,2139079,18016,-44,472,18022.24,24.62,-1.00,-1.0,2376
4082,2139082,15736,-788,-208,15757.09,24.67,-1.00,-1.0,2445
4085,2139085,17696,-388,1764,17787.94,24.72,-1.00,-1.0,2369
4087,2139087,15900,-1036,-600,15945.01,24.77,-1.00,-1.0,2446
4090,2139090,18780,696,1344,18840.89,24.53,-1.00,-1.0,2376
4095,2139095,17096,-1264,-16,17142.67,24.62,-1.00,-1.0,2445
4098,2139098,18288,-936,824,18330.47,24.62,-1.00,-1.0,2372
4100,2139100,15892,-756,328,15913.35,24.67,-1.00,-1.0,2368
4103,2139103,18740,-1108,-1348,18821.06,24.67,-1.00,-1.0,2442
4106,2139106,16184,532,2672,16411.72,24.67,-1.00,-1.0,2364
4109,2139109,16972,-1132,296,17012.29,24.58,-1.00,-1.0,2448
4111,2139111,16976,-504,136,16984.03,24.58,-1.00,-1.0,2369
4114,2139114,17384,-308,104,17387.04,24.67,-1.00,-1.0,2439
4117,2139117,16476,-40,1912,16586.62,24.67,-1.00,-1.0,2362
4122,2139122,17224,-24,2212,17365.47,24.67,-1.00,-1.0,2445
4125,2139125,16096,-428,76,16101.87,24.58,-1.00,-1.0,2365
4127,2139127,16784,24,196,16785.16,24.67,-1.00,-1.0,2442
4130,2139130,17016,-772,744,17049.74,24.67,-1.00,-1.0,2351
4133,2139133,16312,-940,1216,16384.25,24.67,-1.00,-1.0,2439
4136,2139136,17480,-552,36,17488.75,24.67,-1.00,-1.0,2365
4138,2139138,16300,-212,268,16303.58,24.67,-1.00,-1.0,2360
4141,2139141,17584,-100,2320,17736.67,24.62,-1.00,-1.0,2440
4144,2139144,16268,-996,548,16307.67,24.62,-1.00,-1.0,2363
4149,2139149,16172,280,1056,16208.86,24.72,-1.00,-1.0,2446
4152,2139152,16416,200,2052,16544.96,24.53,-1.00,-1.0,2361
4155,2139155,17328,-1140,-208,17366.71,24.62,-1.00,-1.0,2441
4158,2139158,17284,-28,1440,17343.90,24.62,-1.00,-1.0,2370
4160,2139160,16948,-380,388,16956.70,24.62,-1.00,-1.0,2439
4163,2139163,17276,-308,1464,17340.66,24.53,-1.00,-1.0,2361
4166,2139166,17088,-1372,-24,17143.01,24.62,-1.00,-1.0,2440
4169,2139169,16816,-352,1284,16868.62,24.62,-1.00,-1.0,2363
4174,2139174,17668,464,620,17684.96,24.58,-1.00,-1.0,2444
4176,2139176,17280,-1072,308,17315.96,24.72,-1.00,-1.0,2365
4179,2139179,17300,-1176,928,17364.74,24.58,-1.00,-1.0,2457
4182,2139182,16644,-772,216,16663.29,24.58,-1.00,-1.0,2370
4184,2139184,17776,212,868,17798.44,24.58,-1.00,-1.0,2369
4187,2139187,16452,-968,-184,16481.48,24.58,-1.00,-1.0,2438
4190,2139190,17324,-424,1856,17428.29,24.67,-1.00,-1.0,2363
4193,2139193,16816,-1132,752,16870.83,24.62,-1.00,-1.0,2449
4195,2139195,16696,-236,868,16720.21,24.67,-1.00,-1.0,2370
4200,2139200,17264,-144,904,17288.25,24.67,-1.00,-1.0,2455
4203,2139203,16776,-888,-156,16800.21,24.67,-1.00,-1.0,2370
4206,2139206,17416,-60,1736,17502.41,24.77,-1.00,-1.0,2445
4209,2139209,16084,-1068,508,16127.42,24.67,-1.00,-1.0,2363
4211,2139211,17092,-1196,104,17134.11,24.58,-1.00,-1.0,2451
4214,2139214,16804,-168,800,16823.87,24.58,-1.00,-1.0,2371
4217,2139217,16984,492,1316,17042.01,24.67,-1.00,-1.0,2441
4220,2139220,16132,-508,-504,16147.86,24.67,-1.00,-1.0,2362
4224,2139224,16996,-848,1456,17079.32,24.62,-1.00,-1.0,2433
4227,2139227,16884,-1676,480,16973.77,24.53,-1.00,-1.0,2362
4230,2139230,17744,-1096,544,17786.14,24.67,-1.00,-1.0,2369
4233,2139233,16208,120,1440,16272.29,24.67,-1.00,-1.0,2441
4235,2139235,17196,340,688,17213.12,24.58,-1.00,-1.0,2366
4238,2139238,16696,-1184,-100,16738.23,24.58,-1.00,-1.0,2447
4241,2139241,16556,-576,1256,16613.56,24.58,-1.00,-1.0,2369
4244,2139244,17240,-384,1172,17284.06,24.67,-1.00,-1.0,2440
4246,2139246,16448,268,780,16468.66,24.67,-1.00,-1.0,2364
4251,2139251,16108,-596,1236,16166.34,24.53,-1.00,-1.0,2431
4254,2139254,17544,-1168,68,17582.97,24.62,-1.00,-1.0,2363
4257,2139257,16628,360,2220,16779.40,24.58,-1.00,-1.0,2438
4259,2139259,16352,-80,868,16375.22,24.62,-1.00,-1.0,2364
4262,2139262,16304,-336,1020,16339.33,24.67,-1.00,-1.0,2440
4265,2139265,17392,-496,124,17399.51,24.62,-1.00,-1.0,2366
4267,2139267,17740,264,1884,17841.71,24.58,-1.00,-1.0,2360
4270,2139270,16408,-940,336,16438.34,24.67,-1.00,-1.0,2441
4273,2139273,17356,-456,1852,17460.49,24.58,-1.00,-1.0,2371
4278,2139278,17980,768,1720,18078.40,24.67,-1.00,-1.0,2444
4281,2139281,16280,-268,1112,16320.13,24.58,-1.00,-1.0,2365
4284,2139284,17340,-1256,1040,17416.51,24.62,-1.00,-1.0,2442
4286,2139286,17052,-1160,-1280,17139.27,24.58,-1.00,-1.0,2365
4289,2139289,17252,984,144,17280.64,24.58,-1.00,-1.0,2455
4292,2139292,17036,140,-656,17049.20,24.67,-1.00,-1.0,2358
4295,2139295,17480,-1212,2280,17669.68,24.72,-1.00,-1.0,2440
4297,2139297,17540,-2468,664,17725.22,24.58,-1.00,-1.0,2365
4302,2139302,17920,716,-2180,18066.31,24.67,-1.00,-1.0,2431
4305,2139305,16924,188,-248,16926.86,24.62,-1.00,-1.0,2362
4308,2139308,16556,-1416,1400,16675.32,24.67,-1.00,-1.0,2446
4310,2139310,17264,-2028,1236,17426.59,24.67,-1.00,-1.0,2364
4313,2139313,16320,-484,140,16327.78,24.58,-1.00,-1.0,2360
4316,2139316,17620,808,632,17649.84,24.58,-1.00,-1.0,2442
4318,2139318,17444,-1232,-996,17515.79,24.67,-1.00,-1.0,2362
4321,2139321,17208,-1392,2064,17387.15,24.67,-1.00,-1.0,2441
4324,2139324,16356,-728,944,16399.39,24.62,-1.00,-1.0,2363
4329,2139329,18140,-332,-1056,18173.74,24.62,-1.00,-1.0,2459
4332,2139332,16512,-1236,1328,16611.37,24.53,-1.00,-1.0,2369
4335,2139335,17036,-2140,-256,17171.79,24.58,-1.00,-1.0,2458
4337,2139337,17348,860,2208,17509.08,24.62,-1.00,-1.0,2372
4340,2139340,15456,752,2616,15693.85,24.48,-1.00,-1.0,2446
4343,2139343,15740,-1276,2112,15932.24,24.62,-1.00,-1.0,2368
4346,2139346,19400,-2056,-528,19515.79,24.58,-1.00,-1.0,2450
4348,2139348,17096,220,1100,17132.76,24.62,-1.00,-1.0,2372
4353,2139353,17124,724,-216,17140.66,24.58,-1.00,-1.0,2444
4356,2139356,16824,-1496,2256,17040.38,24.58,-1.00,-1.0,2364
4359,2139359,16904,-3192,1796,17296.23,24.58,-1.00,-1.0,2436
4361,2139361,17432,-1424,536,17498.28,24.58,-1.00,-1.0,2371
4364,2139364,16496,1480,-180,16563.24,24.58,-1.00,-1.0,2361
4367,2139367,16588,1984,1660,16788.50,24.72,-1.00,-1.0,2446
4369,2139369,16884,-1028,520,16923.26,24.58,-1.00,-1.0,2363
4372,2139372,18120,-2212,2832,18472.89,24.53,-1.00,-1.0,2442
4375,2139375,16088,-664,944,16129.34,24.58,-1.00,-1.0,2363
4380,2139380,17312,1636,-40,17389.18,24.58,-1.00,-1.0,2444
4383,2139383,16244,-1724,3236,16652.67,24.62,-1.00,-1.0,2363
4385,2139385,17004,-3588,2536,17562.49,24.72,-1.00,-1.0,2442
4388,2139388,17228,-128,1668,17309.03,24.62,-1.00,-1.0,2364
4391,2139391,17252,2224,-1556,17464.21,24.62,-1.00,-1.0,2439
4394,2139394,16396,1272,1440,16508.19,24.67,-1.00,-1.0,2363
4396,2139396,15360,-1444,1476,15498.17,24.62,-1.00,-1.0,2440
4399,2139399,19916,-1800,3496,20300.47,24.62,-1.00,-1.0,2363
4404,2139404,17468,1256,592,17523.10,24.58,-1.00,-1.0,2444
4407,2139407,16524,-188,-2220,16673.52,24.67,-1.00,-1.0,2364
4410,2139410,18120,-312,2140,18248.60,24.62,-1.00,-1.0,2440
4412,2139412,17772,-2064,2320,18041.24,24.67,-1.00,-1.0,2351
4415,2139415,14528,-220,3764,15009.29,24.67,-1.00,-1.0,2361
4418,2139418,19200,-488,-2528,19371.86,24.62,-1.00,-1.0,2443
4420,2139420,15228,2584,1916,15564.06,24.62,-1.00,-1.0,2363
4423,2139423,17248,272,532,17258.35,24.58,-1.00,-1.0,2448
4426,2139426,16484,-1060,4196,17042.66,24.62,-1.00,-1.0,2364
4431,2139431,17268,204,1576,17340.97,24.62,-1.00,-1.0,2444
4434,2139434,16624,1028,-2308,16814.90,24.67,-1.00,-1.0,2362
4437,2139437,18776,1360,1800,18911.05,24.72,-1.00,-1.0,2448
4439,2139439,14932,-1908,1348,15113.64,24.72,-1.00,-1.0,2363
4442,2139442,17352,-1520,3516,17769.77,24.72,-1.00,-1.0,2440
4445,2139445,15964,-996,-664,16008.82,24.67,-1.00,-1.0,2350
4448,2139448,18348,680,-196,18361.64,24.72,-1.00,-1.0,2436
4450,2139450,18052,-8,72,18052.14,24.58,-1.00,-1.0,2352
4455,2139455,18932,-2120,-644,19061.21,24.67,-1.00,-1.0,2453
4458,2139458,16600,824,2880,16868.12,24.67,-1.00,-1.0,2377
4461,2139461,17228,524,548,17244.68,24.72,-1.00,-1.0,2360
4463,2139463,17224,708,1908,17343.81,24.72,-1.00,-1.0,2443
4466,2139466,16592,-1160,-860,16654.72,24.62,-1.00,-1.0,2363
4469,2139469,17332,-432,1432,17396.42,24.72,-1.00,-1.0,2438
4472,2139472,16804,-1364,-1576,16932.77,24.62,-1.00,-1.0,2363
4474,2139474,17088,1196,4156,17626.76,24.62,-1.00,-1.0,2440
4477,2139477,16268,-672,1512,16351.93,24.77,-1.00,-1.0,2366
4482,2139482,17848,-616,-592,17868.44,24.67,-1.00,-1.0,2444
4485,2139485,17128,1028,1608,17234.00,24.62,-1.00,-1.0,2364
4488,2139488,17460,-640,-308,17474.44,24.67,-1.00,-1.0,2451
4490,2139490,15740,-96,3048,16032.69,24.58,-1.00,-1.0,2363
4493,2139493,17768,-1772,460,17862.07,24.58,-1.00,-1.0,2440
4496,2139496,17204,-1044,1088,17269.95,24.62,-1.00,-1.0,2366
4499,2139499,16284,364,-428,16293.69,24.67,-1.00,-1.0,2450
4501,2139501,17572,1984,2024,17799.10,24.53,-1.00,-1.0,2362
4506,2139506,17880,-1604,1704,18032.49,24.62,-1.00,-1.0,2446
4509,2139509,16452,-1440,840,16536.25,24.72,-1.00,-1.0,2363
4512,2139512,16376,2904,2064,16759.08,24.77,-1.00,-1.0,2367
4515,2139515,19204,1612,-556,19279.56,24.67,-1.00,-1.0,2442
4517,2139517,14784,-1620,2460,15074.57,24.67,-1.00,-1.0,2363
4520,2139520,18076,-3292,2108,18493.86,24.58,-1.00,-1.0,2438
4523,2139523,15656,588,836,15689.33,24.58,-1.00,-1.0,2370
4525,2139525,17356,2180,-304,17495.02,24.67,-1.00,-1.0,2440
4528,2139528,16344,1640,2000,16547.38,24.72,-1.00,-1.0,2373
4533,2139533,19728,-1304,3140,20018.84,24.62,-1.00,-1.0,2454
4536,2139536,13292,-600,1740,13418.83,24.67,-1.00,-1.0,2369
4539,2139539,18636,1064,1244,18707.76,24.58,-1.00,-1.0,2446
4542,2139542,18560,-252,-740,18576.46,24.67,-1.00,-1.0,2368
4544,2139544,15172,136,2188,15329.56,24.62,-1.00,-1.0,2449
4547,2139547,18140,-948,2560,18344.26,24.58,-1.00,-1.0,2368
4550,2139550,14060,-568,3844,14587.07,24.58,-1.00,-1.0,2442
4553,2139553,20800,-1196,-1284,20873.88,24.58,-1.00,-1.0,2365
4555,2139555,14000,2536,1616,14319.31,24.62,-1.00,-1.0,2369
4560,2139560,17584,-1796,520,17683.13,24.67,-1.00,-1.0,2444
4563,2139563,16656,-3584,364,17041.12,24.62,-1.00,-1.0,2362
4566,2139566,18420,-608,980,18456.07,24.67,-1.00,-1.0,2448
4568,2139568,14808,1260,356,14865.77,24.67,-1.00,-1.0,2363
4571,2139571,17712,1408,-528,17775.72,24.67,-1.00,-1.0,2426
4574,2139574,14964,-2384,-320,15156.09,24.72,-1.00,-1.0,2363
4577,2139577,19456,-3148,1372,19756.73,24.58,-1.00,-1.0,2438
4579,2139579,18384,-2204,572,18524.48,24.62,-1.00,-1.0,2353
4584,2139584,20268,1036,-2456,20442.53,24.67,-1.00,-1.0,2444
4587,2139587,16768,-2140,-708,16918.83,24.58,-1.00,-1.0,2352
4590,2139590,18428,-3052,2644,18865.22,24.67,-1.00,-1.0,2439
4592,2139592,16852,-2228,-800,17017.46,24.67,-1.00,-1.0,2362
4595,2139595,17216,1960,-2632,17525.97,24.58,-1.00,-1.0,2440
4598,2139598,18652,-40,-1816,18740.24,24.67,-1.00,-1.0,2363
4601,2139601,17532,-4100,712,18019.10,24.67,-1.00,-1.0,2438
4603,2139603,16448,-3428,2704,17017.62,24.67,-1.00,-1.0,2364
4608,2139608,16408,2652,-1232,16666.54,24.67,-1.00,-1.0,2453
4611,2139611,17768,940,1400,17847.84,24.62,-1.00,-1.0,2365
4614,2139614,17208,-2628,3836,17825.17,24.58,-1.00,-1.0,2359
4616,2139616,18260,-4048,1084,18734.70,24.67,-1.00,-1.0,2429
4619,2139619,15884,524,-1792,15993.35,24.67,-1.00,-1.0,2363
4622,2139622,19532,3544,-1696,19923.24,24.67,-1.00,-1.0,2440
4625,2139625,15920,-544,1140,15970.03,24.58,-1.00,-1.0,2362
4627,2139627,17720,-3516,3792,18459.14,24.62,-1.00,-1.0,2439
4630,2139630,18620,-3784,708,19013.79,24.67,-1.00,-1.0,2363
4635,2139635,16964,3368,1068,17328.05,24.67,-1.00,-1.0,2448
4638,2139638,15544,496,676,15566.60,24.58,-1.00,-1.0,2365
4641,2139641,17944,-3172,1500,18283.84,24.67,-1.00,-1.0,2445
4644,2139644,18116,-2664,864,18331.20,24.48,-1.00,-1.0,2366
4646,2139646,15328,280,1100,15369.97,24.67,-1.00,-1.0,2443
4649,2139649,17544,2940,68,17788.77,24.67,-1.00,-1.0,2366
4652,2139652,16316,-16,872,16339.29,24.67,-1.00,-1.0,2440
4655,2139655,17292,-3772,2108,17823.72,24.58,-1.00,-1.0,2366
4657,2139657,16452,-2096,832,16605.83,24.62,-1.00,-1.0,2361
4662,2139662,16520,1740,-712,16626.63,24.67,-1.00,-1.0,2445
4665,2139665,17556,-564,-848,17585.52,24.58,-1.00,-1.0,2363
4668,2139668,17232,-2116,808,17380.22,24.58,-1.00,-1.0,2441
4671,2139671,18044,868,3776,18455.29,24.67,-1.00,-1.0,2365
4673,2139673,17464,-572,-1832,17569.14,24.67,-1.00,-1.0,2439
4676,2139676,19292,-1308,-2156,19456.12,24.67,-1.00,-1.0,2363
4679,2139679,17112,-1920,940,17245.02,24.77,-1.00,-1.0,2438
4682,2139682,15484,1092,1424,15587.64,24.48,-1.00,-1.0,2364
4687,2139687,15188,-1020,1516,15297.52,24.58,-1.00,-1.0,2447
4689,2139689,18296,-2748,3360,18803.85,24.62,-1.00,-1.0,2368
4692,2139692,15496,-1908,832,15635.17,24.67,-1.00,-1.0,2451
4695,2139695,17976,2492,-2340,18298.15,24.77,-1.00,-1.0,2370
4698,2139698,16896,1748,-592,16996.49,24.67,-1.00,-1.0,2449
4700,2139700,14644,-1360,2348,14893.27,24.58,-1.00,-1.0,2367
4703,2139703,19652,-4692,4404,20678.76,24.58,-1.00,-1.0,2455
4706,2139706,14504,-920,1080,14573.22,24.58,-1.00,-1.0,2370
4708,2139708,18152,3744,-2256,18670.89,24.62,-1.00,-1.0,2360
4713,2139713,16044,-1244,3636,16497.82,24.62,-1.00,-1.0,2446
4716,2139716,20284,-5320,1808,21047.85,24.62,-1.00,-1.0,2364
4719,2139719,15152,-2548,-8,15364.75,24.72,-1.00,-1.0,2441
4722,2139722,20092,3296,-88,20360.74,24.58,-1.00,-1.0,2362
4724,2139724,14024,2008,1088,14208.74,24.62,-1.00,-1.0,2440
4727,2139727,18480,-2792,28,18689.74,24.62,-1.00,-1.0,2364
4730,2139730,17480,-4300,856,18021.46,24.62,-1.00,-1.0,2438
4733,2139733,17656,1940,2596,17950.96,24.67,-1.00,-1.0,2362
4738,2139738,17020,-16,-876,17042.54,24.67,-1.00,-1.0,2449
4740,2139740,17804,-2440,2540,18149.04,24.67,-1.00,-1.0,2373
4743,2139743,15532,-2424,1908,15835.38,24.62,-1.00,-1.0,2450
4746,2139746,17372,588,-1000,17410.69,24.58,-1.00,-1.0,2365
4749,2139749,17156,1036,-340,17190.62,24.67,-1.00,-1.0,2450
4751,2139751,16468,-684,1024,16513.98,24.67,-1.00,-1.0,2372
4754,2139754,17296,-2404,1816,17556.44,24.72,-1.00,-1.0,2447
4757,2139757,17156,-100,912,17180.51,24.58,-1.00,-1.0,2366
4760,2139760,15924,1920,1148,16080.36,24.67,-1.00,-1.0,2369
4764,2139764,15416,-484,2532,15630.05,24.53,-1.00,-1.0,2447
4767,2139767,17476,-2148,1248,17651.69,24.72,-1.00,-1.0,2371
4770,2139770,16940,-1836,-776,17056.87,24.72,-1.00,-1.0,2443
4773,2139773,17604,-840,-68,17624.16,24.58,-1.00,-1.0,2363
4775,2139775,16040,1052,1388,16134.28,24.53,-1.00,-1.0,2427
4778,2139778,17852,-576,-984,17888.38,24.62,-1.00,-1.0,2379
4781,2139781,16804,-1452,796,16885.39,24.58,-1.00,-1.0,2466
4784,2139784,18488,-1612,504,18564.99,24.58,-1.00,-1.0,2364
4789,2139789,17760,856,-1388,17834.71,24.67,-1.00,-1.0,2447
4791,2139791,17436,1400,756,17508.45,24.58,-1.00,-1.0,2366
4794,2139794,15968,-1640,696,16067.08,24.62,-1.00,-1.0,2456
4797,2139797,17480,-2304,1540,17698.32,24.67,-1.00,-1.0,2369
4800,2139800,17208,-332,916,17235.56,24.58,-1.00,-1.0,2453
4802,2139802,16836,544,184,16845.79,24.67,-1.00,-1.0,2364
4805,2139805,16684,860,1052,16739.24,24.72,-1.00,-1.0,2347
4808,2139808,17076,-368,2112,17210.05,24.62,-1.00,-1.0,2439
4811,2139811,16176,-1356,1792,16331.35,24.62,-1.00,-1.0,2364
4816,2139816,16076,244,752,16095.43,24.67,-1.00,-1.0,2449
4818,2139818,16976,152,2068,17102.17,24.62,-1.00,-1.0,2363
4821,2139821,15888,-1024,-644,15933.98,24.53,-1.00,-1.0,2436
4824,2139824,20008,-172,1160,20042.34,24.72,-1.00,-1.0,2370
4827,2139827,14408,-760,2096,14579.48,24.53,-1.00,-1.0,2447
4829,2139829,18124,-780,1540,18206.03,24.62,-1.00,-1.0,2367
4832,2139832,16816,44,-1316,16867.47,24.62,-1.00,-1.0,2450
4835,2139835,18860,1476,556,18925.84,24.62,-1.00,-1.0,2370
4840,2139840,16332,-2736,676,16573.38,24.58,-1.00,-1.0,2447
4842,2139842,18508,-1248,872,18570.51,24.67,-1.00,-1.0,2362
4845,2139845,16728,2204,1492,16938.41,24.62,-1.00,-1.0,2446
4848,2139848,17284,1100,-196,17320.08,24.58,-1.00,-1.0,2363
4851,2139851,17236,-1508,60,17301.95,24.67,-1.00,-1.0,2369
4853,2139853,17648,-2260,1228,17834.45,24.62,-1.00,-1.0,2448
4856,2139856,15228,-784,600,15259.97,24.62,-1.00,-1.0,2371
4859,2139859,19284,1476,-108,19340.71,24.72,-1.00,-1.0,2427
4862,2139862,14900,564,1480,14983.94,24.67,-1.00,-1.0,2362
4867,2139867,14512,-2300,1208,14742.71,24.67,-1.00,-1.0,2447
4869,2139869,18648,812,692,18678.49,24.62,-1.00,-1.0,2370
4872,2139872,17356,1536,-796,17442.01,24.67,-1.00,-1.0,2442
4875,2139875,17484,364,1732,17573.35,24.62,-1.00,-1.0,2363
4878,2139878,16092,-2908,1784,16449.67,24.58,-1.00,-1.0,2438
4880,2139880,16892,-1456,268,16956.75,24.53,-1.00,-1.0,2370
4883,2139883,19124,1556,940,19210.21,24.58,-1.00,-1.0,2441
4886,2139886,14632,1648,764,14744.32,24.72,-1.00,-1.0,2363
4891,2139891,17444,-2640,1100,17676.90,24.62,-1.00,-1.0,2456
4894,2139894,17284,-1172,968,17350.71,24.72,-1.00,-1.0,2370
4896,2139896,17776,580,116,17785.84,24.58,-1.00,-1.0,2360
4899,2139899,16000,1524,-4,16072.42,24.67,-1.00,-1.0,2442
4902,2139902,18088,-716,1552,18168.57,24.58,-1.00,-1.0,2364
4904,2139904,15904,-2428,1428,16151.52,24.58,-1.00,-1.0,2440
4907,2139907,17420,-1288,656,17479.87,24.67,-1.00,-1.0,2351
4910,2139910,17528,900,388,17555.38,24.58,-1.00,-1.0,2439
4913,2139913,16916,332,80,16919.45,24.62,-1.00,-1.0,2369
4918,2139918,16536,-720,2308,16711.81,24.67,-1.00,-1.0,2446
4920,2139920,17236,-1492,468,17306.79,24.58,-1.00,-1.0,2364
4923,2139923,16724,-348,1492,16794.03,24.62,-1.00,-1.0,2443
4926,2139926,16384,1404,2684,16661.65,24.58,-1.00,-1.0,2362
4929,2139929,15880,-52,600,15891.42,24.67,-1.00,-1.0,2436
4931,2139931,17424,-2156,-1372,17610.41,24.67,-1.00,-1.0,2350
4934,2139934,16232,-380,2960,16504.05,24.58,-1.00,-1.0,2440
4937,2139937,16732,-8,2700,16948.45,24.67,-1.00,-1.0,2364
4940,2139940,14764,12,804,14785.88,24.62,-1.00,-1.0,2367
4945,2139945,16316,-440,1148,16362.25,24.62,-1.00,-1.0,2453
4947,2139947,17568,-648,2356,17737.12,24.58,-1.00,-1.0,2363
4950,2139950,15792,-272,568,15804.55,24.62,-1.00,-1.0,2443
4953,2139953,15716,-12,-384,15720.70,24.62,-1.00,-1.0,2362
4956,2139956,18044,-520,-80,18051.67,24.62,-1.00,-1.0,2445
4958,2139958,16260,-1736,28,16352.43,24.58,-1.00,-1.0,2364
4961,2139961,17908,-916,740,17946.67,24.62,-1.00,-1.0,2440
4964,2139964,14916,-8,-96,14916.31,24.58,-1.00,-1.0,2365
4970,2139970,14652,-852,2164,14835.43,24.62,-1.00,-1.0,2462
4972,2139972,18572,-2132,1252,18735.85,24.72,-1.00,-1.0,2366
4975,2139975,14608,-144,440,14615.33,24.58,-1.00,-1.0,2456
4978,2139978,19956,2004,668,20067.49,24.67,-1.00,-1.0,2369
4980,2139980,13396,72,1852,13523.61,24.67,-1.00,-1.0,2363
4983,2139983,19040,-3132,2416,19446.54,24.62,-1.00,-1.0,2439
4986,2139986,17924,-2380,1424,18137.31,24.58,-1.00,-1.0,2350
4989,2139989,17376,1476,1252,17483.46,24.72,-1.00,-1.0,2448
4991,2139991,14488,2052,1332,14693.10,24.67,-1.00,-1.0,2369
4996,2139996,18292,-2316,2172,18565.53,24.62,-1.00,-1.0,2445
4999,2139999,14476,-2600,-184,14708.79,24.72,-1.00,-1.0,2364
5002,2140002,19776,812,104,19792.94,24.72,-1.00,-1.0,2447
5004,2140004,15976,1244,212,16025.76,24.72,-1.00,-1.0,2362
5007,2140007,18076,-1640,1056,18180.94,24.62,-1.00,-1.0,2443
5010,2140010,15040,-2056,732,15197.52,24.72,-1.00,-1.0,2363
5013,2140013,19892,-636,424,19906.68,24.62,-1.00,-1.0,2446
5015,2140015,15068,648,192,15083.15,24.77,-1.00,-1.0,2362
5020,2140020,14976,-1284,616,15043.56,24.67,-1.00,-1.0,2449
5023,2140023,16792,-352,716,16810.94,24.67,-1.00,-1.0,2366
5026,2140026,18108,620,1964,18224.75,24.72,-1.00,-1.0,2362
5028,2140028,14808,376,2148,14967.70,24.53,-1.00,-1.0,2440
5031,2140031,17220,-676,1636,17310.74,24.62,-1.00,-1.0,2363
5034,2140034,16156,-1188,172,16200.53,24.62,-1.00,-1.0,2440
5037,2140037,18304,-324,1636,18379.82,24.62,-1.00,-1.0,2362
5039,2140039,15960,-376,308,15967.40,24.53,-1.00,-1.0,2439
5042,2140042,16952,504,1512,17026.76,24.62,-1.00,-1.0,2364
5047,2140047,16776,-724,1228,16836.46,24.62,-1.00,-1.0,2451
5050,2140050,17628,-1240,-20,17671.57,24.72,-1.00,-1.0,2363
5053,2140053,18320,-112,1412,18374.68,24.62,-1.00,-1.0,2452
5055,2140055,16920,-740,540,16944.78,24.67,-1.00,-1.0,2371
5058,2140058,16184,-292,88,16186.87,24.62,-1.00,-1.0,2439
5061,2140061,17368,312,648,17382.88,24.72,-1.00,-1.0,2363
5063,2140063,17184,-1428,8,17243.23,24.72,-1.00,-1.0,2360
5066,2140066,17704,-2268,-1336,17898.61,24.62,-1.00,-1.0,2426
5069,2140069,17216,708,2648,17432.84,24.72,-1.00,-1.0,2363
5074,2140074,18704,-140,-1044,18733.64,24.72,-1.00,-1.0,2452
5077,2140077,15992,-1088,2236,16184.17,24.62,-1.00,-1.0,2369
5079,2140079,18052,-760,3440,18392.55,24.62,-1.00,-1.0,2450
5082,2140082,13780,-20,1140,13827.09,24.72,-1.00,-1.0,2378
5085,2140085,17992,740,-620,18017.88,24.53,-1.00,-1.0,2438
5088,2140088,16544,228,1416,16606.05,24.72,-1.00,-1.0,2369
5090,2140090,16540,-968,2404,16741.80,24.62,-1.00,-1.0,2443
5093,2140093,15956,-1468,104,16023.73,24.62,-1.00,-1.0,2377
5098,2140098,18804,72,-228,18805.52,24.58,-1.00,-1.0,2444
5101,2140101,16072,-704,-124,16087.89,24.67,-1.00,-1.0,2370
5104,2140104,18864,-1152,816,18916.75,24.62,-1.00,-1.0,2442
5106,2140106,15760,296,680,15777.44,24.58,-1.00,-1.0,2365
5109,2140109,18476,748,344,18494.33,24.53,-1.00,-1.0,2363
5112,2140112,16060,-28,2384,16236.00,24.62,-1.00,-1.0,2452
5114,2140114,18132,-2008,972,18268.72,24.72,-1.00,-1.0,2371
5117,2140117,15064,200,-204,15066.71,24.62,-1.00,-1.0,2450
5120,2140120,19604,2112,1216,19754.90,24.67,-1.00,-1.0,2362
5125,2140125,19104,-3456,-676,19425.85,24.62,-1.00,-1.0,2449
5128,2140128,15812,-2164,1236,16007.18,24.62,-1.00,-1.0,2362
5130,2140130,18428,1888,572,18533.29,24.58,-1.00,-1.0,2444
5133,2140133,13992,960,-60,14025.02,24.53,-1.00,-1.0,2364
5136,2140136,15748,-764,212,15767.95,24.58,-1.00,-1.0,2441
5139,2140139,18624,-1784,4108,19154.94,24.62,-1.00,-1.0,2370
5141,2140141,13076,120,1808,13200.95,24.58,-1.00,-1.0,2442
5144,2140144,17380,1440,316,17442.42,24.62,-1.00,-1.0,2378
5147,2140147,17080,120,372,17084.47,24.67,-1.00,-1.0,2361
5152,2140152,15924,-1480,-592,16003.58,24.67,-1.00,-1.0,2446
5155,2140155,20660,1972,-292,20755.96,24.58,-1.00,-1.0,2364
5157,2140157,14156,676,2336,14363.36,24.58,-1.00,-1.0,2442
5160,2140160,18724,-3336,2276,19154.56,24.67,-1.00,-1.0,2363
5163,2140163,14692,-2060,908,14863.48,24.67,-1.00,-1.0,2439
5166,2140166,20760,1704,-124,20830.19,24.67,-1.00,-1.0,2363
5168,2140168,12816,924,260,12851.90,24.67,-1.00,-1.0,2439
5171,2140171,19524,-3180,1296,19823.69,24.67,-1.00,-1.0,2365
5176,2140176,13668,-2172,-576,13851.48,24.58,-1.00,-1.0,2448
5179,2140179,20672,1524,-1592,20789.15,24.58,-1.00,-1.0,2364
5181,2140181,14324,836,-944,14379.40,24.67,-1.00,-1.0,2442
5184,2140184,19620,-2140,1904,19827.99,24.58,-1.00,-1.0,2362
5187,2140187,13720,-2596,1460,14039.56,24.67,-1.00,-1.0,2439
5190,2140190,19684,-468,724,19702.87,24.67,-1.00,-1.0,2366
5192,2140192,14084,1296,-1032,14181.10,24.67,-1.00,-1.0,2439
5195,2140195,19704,-796,220,19721.30,24.58,-1.00,-1.0,2365
5198,2140198,15420,-1700,1868,15625.49,24.53,-1.00,-1.0,2359
5203,2140203,18036,244,1364,18089.15,24.62,-1.00,-1.0,2453
5205,2140205,17904,900,4,17926.61,24.53,-1.00,-1.0,2363
5208,2140208,16248,-68,1504,16317.60,24.58,-1.00,-1.0,2455
5211,2140211,17532,-1348,1056,17615.43,24.72,-1.00,-1.0,2370
5214,2140214,17032,-212,2144,17167.72,24.58,-1.00,-1.0,2447
5217,2140217,17200,368,1556,17274.16,24.62,-1.00,-1.0,2363
5219,2140219,15680,-844,840,15725.15,24.58,-1.00,-1.0,2451
5222,2140222,18456,-1996,-220,18564.92,24.62,-1.00,-1.0,2370
5227,2140227,18012,1088,688,18057.94,24.62,-1.00,-1.0,2445
5230,2140230,17768,428,952,17798.63,24.62,-1.00,-1.0,2371
5232,2140232,16676,-1716,252,16765.95,24.62,-1.00,-1.0,2441
5235,2140235,18336,-1600,660,18417.51,24.62,-1.00,-1.0,2362
5238,2140238,13008,48,1068,13051.86,24.67,-1.00,-1.0,2366
5241,2140241,20128,556,-1444,20187.39,24.58,-1.00,-1.0,2454
5243,2140243,14560,-1228,428,14617.96,24.58,-1.00,-1.0,2370
5246,2140246,19776,-2040,1752,19957.99,24.58,-1.00,-1.0,2449
5249,2140249,15116,-324,480,15127.09,24.58,-1.00,-1.0,2369
5254,2140254,14628,1136,1624,14761.65,24.62,-1.00,-1.0,2445
5257,2140257,18908,-2108,320,19027.84,24.62,-1.00,-1.0,2370
5260,2140260,15148,-1692,1200,15289.37,24.58,-1.00,-1.0,2442
5262,2140262,18704,-308,-12,18706.54,24.62,-1.00,-1.0,2362
5265,2140265,14612,808,260,14636.63,24.58,-1.00,-1.0,2439
5268,2140268,17912,92,1560,17980.04,24.62,-1.00,-1.0,2369
5270,2140270,15824,-1164,2760,16105.01,24.58,-1.00,-1.0,2439
5273,2140273,17528,-488,1828,17629.82,24.62,-1.00,-1.0,2362
5278,2140278,17508,-408,-1480,17575.18,24.72,-1.00,-1.0,2445
5281,2140281,17872,-528,1376,17932.67,24.53,-1.00,-1.0,2363
5283,2140283,13392,-464,2120,13566.70,24.62,-1.00,-1.0,2361
5286,2140286,18652,-532,188,18660.53,24.58,-1.00,-1.0,2441
5289,2140289,16060,-976,-348,16093.39,24.53,-1.00,-1.0,2363
5292,2140292,18296,-864,636,18327.43,24.67,-1.00,-1.0,2441
5294,2140294,15112,-44,632,15125.27,24.62,-1.00,-1.0,2362
5297,2140297,18756,-752,-488,18777.41,24.67,-1.00,-1.0,2441
5300,2140300,16576,-1248,1324,16675.56,24.77,-1.00,-1.0,2365
5305,2140305,14972,144,88,14972.95,24.58,-1.00,-1.0,2459
5308,2140308,18808,1604,408,18880.68,24.58,-1.00,-1.0,2369
5311,2140311,15536,-336,1676,15629.75,24.62,-1.00,-1.0,2454
5313,2140313,17880,-3060,1044,18169.97,24.67,-1.00,-1.0,2372
5316,2140316,15400,-644,1276,15466.19,24.58,-1.00,-1.0,2448
5319,2140319,17724,1044,904,17777.72,24.67,-1.00,-1.0,2365
5322,2140322,14412,1076,1688,14550.36,24.62,-1.00,-1.0,2453
5324,2140324,19132,-2520,-104,19297.53,24.53,-1.00,-1.0,2373
5327,2140327,14840,-1800,-252,14950.89,24.62,-1.00,-1.0,2363
5332,2140332,15036,1720,2152,15286.29,24.67,-1.00,-1.0,2453
5335,2140335,17436,-1920,400,17545.95,24.62,-1.00,-1.0,2368
5338,2140338,19004,-2024,1208,19149.62,24.72,-1.00,-1.0,2452
5340,2140340,15816,-944,-228,15845.79,24.72,-1.00,-1.0,2370
5343,2140343,17928,248,-560,17938.46,24.53,-1.00,-1.0,2446
5346,2140346,16476,-532,24,16484.60,24.72,-1.00,-1.0,2350
5349,2140349,19592,-1816,672,19687.46,24.53,-1.00,-1.0,2452
5351,2140351,14372,-592,2124,14540.16,24.53,-1.00,-1.0,2371
5356,2140356,16276,12,-540,16284.96,24.58,-1.00,-1.0,2447
5359,2140359,18116,-780,1128,18167.84,24.67,-1.00,-1.0,2362
5362,2140362,16208,-1200,-308,16255.28,24.62,-1.00,-1.0,2449
5364,2140364,18364,500,1840,18462.72,24.67,-1.00,-1.0,2363
5367,2140367,14316,888,2872,14628.22,24.62,-1.00,-1.0,2456
5370,2140370,19060,-2104,-1284,19218.72,24.67,-1.00,-1.0,2362
5373,2140373,16108,-164,1960,16227.64,24.62,-1.00,-1.0,2363
5375,2140375,17360,244,668,17374.56,24.53,-1.00,-1.0,2442
5378,2140378,16652,-544,-468,16667.46,24.67,-1.00,-1.0,2363
5383,2140383,17428,-924,2572,17640.98,24.67,-1.00,-1.0,2445
5386,2140386,16532,-1272,276,16583.16,24.67,-1.00,-1.0,2362
5388,2140388,17332,144,-40,17332.64,24.58,-1.00,-1.0,2442
5391,2140391,15776,680,1244,15839.57,24.58,-1.00,-1.0,2363
5394,2140394,17744,-1676,1016,17851.91,24.67,-1.00,-1.0,2438
5397,2140397,16896,-1864,1356,17052.51,24.67,-1.00,-1.0,2362
5399,2140399,16696,268,1520,16767.19,24.67,-1.00,-1.0,2440
5402,2140402,16360,944,-1808,16486.65,24.67,-1.00,-1.0,2363
5407,2140407,15752,-1740,3068,16142.05,24.67,-1.00,-1.0,2444
5410,2140410,19164,-4076,956,19615.98,24.67,-1.00,-1.0,2370
5413,2140413,14452,-856,504,14486.10,24.62,-1.00,-1.0,2443
5415,2140415,20444,2488,40,20594.88,24.58,-1.00,-1.0,2365
5418,2140418,12172,1348,1652,12357.34,24.58,-1.00,-1.0,2406
5421,2140421,20164,-2872,1336,20411.28,24.62,-1.00,-1.0,2455
5424,2140424,17884,-2876,920,18137.12,24.62,-1.00,-1.0,2363
5426,2140426,16828,1288,2524,17064.91,24.72,-1.00,-1.0,2450
5429,2140429,18000,1280,1092,18078.46,24.67,-1.00,-1.0,2362
5434,2140434,18352,-1748,180,18435.94,24.62,-1.00,-1.0,2448
5437,2140437,16496,880,1996,16639.60,24.67,-1.00,-1.0,2363
5440,2140440,16972,608,1840,17082.27,24.62,-1.00,-1.0,2443
5442,2140442,16556,-992,548,16594.74,24.58,-1.00,-1.0,2364
5445,2140445,17296,-1040,1004,17356.30,24.62,-1.00,-1.0,2441
5448,2140448,17456,-332,-376,17463.21,24.67,-1.00,-1.0,2363
5451,2140451,15940,-764,-960,15987.15,24.62,-1.00,-1.0,2445
5453,2140453,16456,-168,2664,16671.08,24.67,-1.00,-1.0,2363
5458,2140458,13720,128,756,13741.41,24.67,-1.00,-1.0,2448
5461,2140461,20532,948,-940,20575.36,24.48,-1.00,-1.0,2366
5464,2140464,14468,544,1316,14537.91,24.58,-1.00,-1.0,2361
5466,2140466,19104,-2456,1132,19294.46,24.62,-1.00,-1.0,2441
5469,2140469,15036,-2140,1248,15238.71,24.62,-1.00,-1.0,2364
5472,2140472,18828,524,-492,18841.71,24.62,-1.00,-1.0,2438
5475,2140475,17848,1540,576,17923.57,24.58,-1.00,-1.0,2361
5477,2140477,15608,-440,656,15627.97,24.62,-1.00,-1.0,2439
5480,2140480,18064,-1524,1844,18221.72,24.62,-1.00,-1.0,2368
5485,2140485,16824,440,704,16844.47,24.62,-1.00,-1.0,2448
5488,2140488,17424,-236,-212,17426.89,24.58,-1.00,-1.0,2363
5491,2140491,16688,-1456,1908,16859.71,24.62,-1.00,-1.0,2444
5493,2140493,16148,-1916,668,16274.99,24.62,-1.00,-1.0,2364
5496,2140496,17992,-40,120,17992.45,24.62,-1.00,-1.0,2439
5499,2140499,16804,1396,660,16874.80,24.67,-1.00,-1.0,2364
5502,2140502,17340,-584,1672,17430.21,24.62,-1.00,-1.0,2446
5504,2140504,15356,-2012,460,15494.08,24.62,-1.00,-1.0,2364
5507,2140507,20356,-956,1076,20406.82,24.58,-1.00,-1.0,2369
5512,2140512,19044,-168,-784,19060.87,24.72,-1.00,-1.0,2446
5515,2140515,16064,-144,992,16095.24,24.72,-1.00,-1.0,2363
5518,2140518,18192,-620,888,18224.21,24.58,-1.00,-1.0,2447
5520,2140520,17512,-536,452,17526.03,24.62,-1.00,-1.0,2365
5523,2140523,17184,-396,1100,17223.72,24.67,-1.00,-1.0,2442
5526,2140526,17320,-240,1276,17368.60,24.62,-1.00,-1.0,2366
5529,2140529,17160,-1564,-1220,17274.26,24.72,-1.00,-1.0,2442
5531,2140531,16328,384,2148,16473.16,24.53,-1.00,-1.0,2363
5536,2140536,18136,-1040,-396,18170.11,24.53,-1.00,-1.0,2443
5539,2140539,18140,-1324,668,18200.52,24.67,-1.00,-1.0,2363
5542,2140542,15692,220,2176,15843.68,24.62,-1.00,-1.0,2442
5545,2140545,16812,492,-1116,16856.18,24.72,-1.00,-1.0,2363
5547,2140547,19988,712,608,20009.92,24.72,-1.00,-1.0,2438
5550,2140550,15044,-1664,2664,15368.40,24.62,-1.00,-1.0,2365
5553,2140553,18560,-2220,2140,18814.40,24.72,-1.00,-1.0,2360
5555,2140555,14744,-296,-220,14748.61,24.72,-1.00,-1.0,2439
5558,2140558,19768,1944,-260,19865.06,24.72,-1.00,-1.0,2371
5563,2140563,18620,-1740,2260,18837.19,24.58,-1.00,-1.0,2452
5566,2140566,15624,-2504,1528,15896.99,24.67,-1.00,-1.0,2371
5569,2140569,18148,1000,1048,18205.72,24.58,-1.00,-1.0,2430
5572,2140572,17252,1716,44,17337.19,24.67,-1.00,-1.0,2369
5574,2140574,17308,-528,56,17316.14,24.62,-1.00,-1.0,2448
5577,2140577,16668,-2396,24,16839.35,24.67,-1.00,-1.0,2371
5580,2140580,18072,-916,-572,18104.24,24.58,-1.00,-1.0,2442
5583,2140583,18272,604,1048,18311.99,24.67,-1.00,-1.0,2365
5587,2140587,19820,-1376,176,19868.49,24.62,-1.00,-1.0,2454
5590,2140590,15000,-876,932,15054.43,24.58,-1.00,-1.0,2379
5593,2140593,18856,-100,876,18876.60,24.58,-1.00,-1.0,2443
5596,2140596,14700,-236,-280,14704.56,24.67,-1.00,-1.0,2374
5598,2140598,19732,-544,512,19746.14,24.62,-1.00,-1.0,2361
5601,2140601,15312,-1072,1980,15476.66,24.62,-1.00,-1.0,2425
5604,2140604,18500,-688,1112,18546.16,24.62,-1.00,-1.0,2366
5606,2140606,17116,380,336,17123.51,24.67,-1.00,-1.0,2425
5609,2140609,18404,760,368,18423.36,24.62,-1.00,-1.0,2363
5614,2140614,15352,-1480,864,15447.36,24.58,-1.00,-1.0,2448
5617,2140617,18208,-832,348,18230.32,24.58,-1.00,-1.0,2364
5620,2140620,16540,-628,-888,16575.72,24.67,-1.00,-1.0,2448
5622,2140622,18004,388,1928,18111.09,24.58,-1.00,-1.0,2363
5625,2140625,15084,-500,1460,15162.74,24.67,-1.00,-1.0,2442
5628,2140628,17356,-1444,-332,17419.13,24.58,-1.00,-1.0,2364
5631,2140631,17608,-572,268,17619.33,24.67,-1.00,-1.0,2445
5633,2140633,16576,-480,1456,16646.74,24.58,-1.00,-1.0,2363
5638,2140638,18228,-116,68,18228.50,24.62,-1.00,-1.0,2448
5641,2140641,16192,848,2004,16337.56,24.62,-1.00,-1.0,2365
5644,2140644,16728,-952,1192,16797.42,24.58,-1.00,-1.0,2361
5646,2140646,17192,-1500,660,17269.93,24.58,-1.00,-1.0,2441
5649,2140649,19492,-592,1288,19543.48,24.67,-1.00,-1.0,2351
5652,2140652,14116,1088,1520,14239.23,24.58,-1.00,-1.0,2438
5655,2140655,18504,520,592,18520.77,24.67,-1.00,-1.0,2365
5658,2140658,14148,-1276,1592,14294.35,24.72,-1.00,-1.0,2438
5660,2140660,18948,-2084,792,19078.71,24.77,-1.00,-1.0,2364
5665,2140665,15596,776,-56,15615.39,24.67,-1.00,-1.0,2445
5668,2140668,18680,-132,-328,18683.35,24.58,-1.00,-1.0,2363
5671,2140671,16796,-1664,336,16881.57,24.58,-1.00,-1.0,2441
5674,2140674,17248,-292,2680,17457.41,24.67,-1.00,-1.0,2363
5676,2140676,14928,-128,-704,14945.14,24.48,-1.00,-1.0,2437
5679,2140679,19020,412,-332,19027.36,24.67,-1.00,-1.0,2363
5682,2140682,16468,-1836,-432,16575.66,24.67,-1.00,-1.0,2360
5685,2140685,17084,-1860,828,17204.89,24.62,-1.00,-1.0,2439
5687,2140687,16940,552,-672,16962.31,24.72,-1.00,-1.0,2368
5692,2140692,14304,-104,1160,14351.34,24.67,-1.00,-1.0,2445
5695,2140695,19132,-2828,1408,19391.07,24.67,-1.00,-1.0,2363
5698,2140698,14332,-1300,576,14402.36,24.62,-1.00,-1.0,2442
5701,2140701,21016,1832,-484,21101.25,24.58,-1.00,-1.0,2363
5703,2140703,13336,1564,1216,13482.35,24.67,-1.00,-1.0,2425
5706,2140706,18044,-1568,1204,18151.97,24.67,-1.00,-1.0,2364
5709,2140709,15600,-3428,792,15991.82,24.58,-1.00,-1.0,2439
5712,2140712,19160,564,760,19183.36,24.77,-1.00,-1.0,2363
5717,2140717,16492,20,-1956,16607.60,24.58,-1.00,-1.0,2446
5719,2140719,19544,-1556,2328,19743.57,24.67,-1.00,-1.0,2371
5722,2140722,12624,-2168,2052,12972.14,24.58,-1.00,-1.0,2442
5725,2140725,21004,252,-688,21016.78,24.67,-1.00,-1.0,2351
5728,2140728,14592,860,320,14620.82,24.67,-1.00,-1.0,2451
5730,2140730,18604,-968,884,18650.13,24.67,-1.00,-1.0,2371
5733,2140733,14636,-1712,648,14750.03,24.58,-1.00,-1.0,2348
5736,2140736,20352,-776,-88,20366.98,24.58,-1.00,-1.0,2437
5739,2140739,14196,132,816,14220.05,24.62,-1.00,-1.0,2369
5743,2140743,17000,-252,2124,17134.03,24.62,-1.00,-1.0,2445
5746,2140746,14732,-1300,-1604,14875.98,24.62,-1.00,-1.0,2364
5749,2140749,19344,24,236,19345.46,24.62,-1.00,-1.0,2441
5752,2140752,15900,-596,68,15911.31,24.62,-1.00,-1.0,2371
5755,2140755,17516,-1408,1620,17647.01,24.62,-1.00,-1.0,2438
5757,2140757,15280,-1480,-1228,15400.54,24.62,-1.00,-1.0,2363
5760,2140760,19480,692,2524,19655.02,24.62,-1.00,-1.0,2439
5763,2140763,13504,900,2256,13720.70,24.58,-1.00,-1.0,2363
5768,2140768,16224,-1368,220,16283.06,24.58,-1.00,-1.0,2446
5770,2140770,15724,-916,2304,15918.28,24.58,-1.00,-1.0,2362
5773,2140773,16708,-16,1340,16761.66,24.62,-1.00,-1.0,2362
5776,2140776,17472,84,156,17472.90,24.62,-1.00,-1.0,2449
5778,2140778,15012,-584,1304,15079.84,24.53,-1.00,-1.0,2349
5781,2140781,17024,-1016,592,17064.56,24.62,-1.00,-1.0,2443
5784,2140784,17136,-672,1600,17223.65,24.62,-1.00,-1.0,2362
5787,2140787,16300,-684,-256,16316.35,24.62,-1.00,-1.0,2443
5790,2140790,17404,-64,640,17415.88,24.67,-1.00,-1.0,2363
5796,2140796,15728,-700,808,15764.29,24.58,-1.00,-1.0,2453
5799,2140799,18080,-2176,-1060,18241.30,24.67,-1.00,-1.0,2365
5802,2140802,16048,-192,948,16077.12,24.62,-1.00,-1.0,2444
5805,2140805,18596,452,1040,18630.54,24.67,-1.00,-1.0,2366
5807,2140807,14216,76,1876,14339.45,24.53,-1.00,-1.0,2439
5810,2140810,15960,-912,-300,15988.85,24.58,-1.00,-1.0,2364
5813,2140813,19192,-1124,1192,19261.80,24.53,-1.00,-1.0,2440
5816,2140816,14768,-768,384,14792.94,24.58,-1.00,-1.0,2365
5818,2140818,20488,-360,-284,20493.13,24.72,-1.00,-1.0,2361
5823,2140823,18576,568,1336,18632.64,24.58,-1.00,-1.0,2445
5826,2140826,16620,-1408,1832,16779.84,24.62,-1.00,-1.0,2370
5829,2140829,18152,-1464,1944,18314.41,24.67,-1.00,-1.0,2443
5831,2140831,16680,-196,428,16686.64,24.58,-1.00,-1.0,2364
5834,2140834,17544,2160,-420,17681.46,24.67,-1.00,-1.0,2440
5837,2140837,15952,100,1876,16062.24,24.58,-1.00,-1.0,2371
5840,2140840,17992,-4160,1460,18524.29,24.58,-1.00,-1.0,2439
5842,2140842,17932,-2736,1816,18230.20,24.58,-1.00,-1.0,2362
5847,2140847,19160,3008,152,19395.28,24.62,-1.00,-1.0,2446
5850,2140850,14904,256,1632,14995.27,24.62,-1.00,-1.0,2363
5853,2140853,17928,-3776,3184,18595.95,24.72,-1.00,-1.0,2449
5855,2140855,14920,-2184,-656,15093.26,24.62,-1.00,-1.0,2361
5858,2140858,20192,2636,804,20379.20,24.62,-1.00,-1.0,2440
5861,2140861,13540,3204,2788,14190.50,24.62,-1.00,-1.0,2363
5863,2140863,19588,-3004,988,19841.62,24.67,-1.00,-1.0,2361
5866,2140866,14988,-3516,412,15400.39,24.58,-1.00,-1.0,2441
5869,2140869,19100,-604,-1472,19166.16,24.67,-1.00,-1.0,2363
5874,2140874,14460,132,1048,14498.53,24.53,-1.00,-1.0,2444
5877,2140877,19864,-3352,1880,20232.37,24.72,-1.00,-1.0,2362
5879,2140879,14096,-1700,-1360,14263.13,24.67,-1.00,-1.0,2443
5882,2140882,22284,1712,1012,22372.57,24.53,-1.00,-1.0,2362
5885,2140885,10924,1068,-436,10984.74,24.62,-1.00,-1.0,2426
5888,2140888,22224,-1592,1780,22351.94,24.72,-1.00,-1.0,2365
5890,2140890,13204,-3256,440,13606.64,24.72,-1.00,-1.0,2440
5893,2140893,17456,-1000,408,17489.38,24.62,-1.00,-1.0,2364
5898,2140898,12864,1784,-8,12987.12,24.62,-1.00,-1.0,2461
5901,2140901,20144,-2328,664,20288.94,24.62,-1.00,-1.0,2369
5904,2140904,14948,-3692,-636,15410.32,24.62,-1.00,-1.0,2454
5906,2140906,20044,-96,-752,20058.33,24.62,-1.00,-1.0,2374
5909,2140909,14260,2448,436,14475.17,24.62,-1.00,-1.0,2451
5912,2140912,18888,628,-256,18900.17,24.72,-1.00,-1.0,2366
5914,2140914,16504,-2828,1648,16825.44,24.62,-1.00,-1.0,2347
5917,2140917,17800,-3440,1392,18182.72,24.58,-1.00,-1.0,2440
5920,2140920,15272,1348,2568,15544.96,24.62,-1.00,-1.0,2364
5925,2140925,15748,292,-340,15754.38,24.72,-1.00,-1.0,2451
5927,2140927,20028,-2764,2416,20361.67,24.67,-1.00,-1.0,2362
5930,2140930,13612,-564,3764,14134.08,24.53,-1.00,-1.0,2453
5933,2140933,17960,-376,-3692,18339.41,24.62,-1.00,-1.0,2370
5936,2140936,18476,2428,-400,18639.15,24.44,-1.00,-1.0,2441
5938,2140938,17200,-828,888,17242.80,24.67,-1.00,-1.0,2362
5941,2140941,16188,-3292,2492,16706.25,24.62,-1.00,-1.0,2453
5944,2140944,13856,-1448,712,13949.64,24.62,-1.00,-1.0,2370
5949,2140949,13536,1156,116,13585.77,24.58,-1.00,-1.0,2445
5952,2140952,19640,-676,1144,19684.90,24.58,-1.00,-1.0,2361
5954,2140954,14824,-2828,1120,15132.84,24.67,-1.00,-1.0,2442
5957,2140957,13040,-940,1168,13125.91,24.67,-1.00,-1.0,2350
5960,2140960,20080,1016,700,20117.87,24.58,-1.00,-1.0,2440
5963,2140963,14248,-472,-3368,14648.27,24.67,-1.00,-1.0,2363
5965,2140965,21364,-808,1448,21428.25,24.53,-1.00,-1.0,2361
5968,2140968,11200,-1980,764,11399.30,24.62,-1.00,-1.0,2440
5971,2140971,21936,-1224,-668,21980.28,24.67,-1.00,-1.0,2370
5976,2140976,16992,600,2952,17256.95,24.58,-1.00,-1.0,2448
5978,2140978,14040,-1168,-1200,14139.51,24.67,-1.00,-1.0,2365
5981,2140981,16956,940,1504,17048.51,24.58,-1.00,-1.0,2442
5984,2140984,15896,-1584,3128,16278.09,24.67,-1.00,-1.0,2363
5987,2140987,16740,-2892,-212,16989.30,24.58,-1.00,-1.0,2437
5989,2140989,17068,-444,-1292,17122.59,24.67,-1.00,-1.0,2350
5992,2140992,13112,2080,784,13299.08,24.58,-1.00,-1.0,2440
5995,2140995,18312,912,652,18346.29,24.67,-1.00,-1.0,2364
6000,2141000,20272,-4920,1496,20914.07,24.58,-1.00,-1.0,2449
6002,2141002,12796,760,-712,12838.31,24.58,-1.00,-1.0,2365
6005,2141005,19604,4444,-336,20104.20,24.67,-1.00,-1.0,2443
6008,2141008,12932,1736,824,13073.99,24.58,-1.00,-1.0,2364
6010,2141010,20996,-5448,644,21700.86,24.58,-1.00,-1.0,2361
6013,2141013,13840,-4228,1176,14519.11,24.72,-1.00,-1.0,2441
6016,2141016,13872,1756,1052,14022.22,24.58,-1.00,-1.0,2363
6019,2141019,19132,5644,404,19951.22,24.62,-1.00,-1.0,2447
6021,2141021,12792,-788,1868,12951.67,24.58,-1.00,-1.0,2362
6026,2141026,11008,-3612,3876,12216.63,24.72,-1.00,-1.0,2448
6029,2141029,17936,908,-3232,18247.48,24.62,-1.00,-1.0,2363
6032,2141032,17232,5452,-2732,18279.22,24.62,-1.00,-1.0,2447
6034,2141034,16108,80,936,16135.37,24.67,-1.00,-1.0,2364
6037,2141037,19120,-6764,4100,20691.45,24.62,-1.00,-1.0,2442
6040,2141040,13116,-6012,1460,14501.90,24.62,-1.00,-1.0,2364
6043,2141043,21788,2248,212,21904.69,24.62,-1.00,-1.0,2445
6045,2141045,10948,5676,-2116,12512.12,24.67,-1.00,-1.0,2363
