timestamp_ms,accel_x,accel_y,accel_z,voltage,soc
2,17604,132,1368,-1.00,-1.0
4,17024,-44,944,-1.00,-1.0
6,15836,-180,-700,-1.00,-1.0
11,18004,356,-632,-1.00,-1.0
13,17076,1588,1716,-1.00,-1.0
15,16624,368,-2920,-1.00,-1.0
17,17088,-1396,2004,-1.00,-1.0
19,15536,612,608,-1.00,-1.0
21,15908,-1424,-2008,-1.00,-1.0
23,17656,-616,3708,-1.00,-1.0
25,18132,-1768,988,-1.00,-1.0
27,16112,232,-628,-1.00,-1.0
29,16588,76,688,-1.00,-1.0
31,16620,-1056,-156,-1.00,-1.0
33,17124,884,2732,-1.00,-1.0
34,17476,228,784,-1.00,-1.0
36,16196,1180,-1320,-1.00,-1.0
38,16716,472,2276,-1.00,-1.0
40,16764,-2360,1528,-1.00,-1.0
42,18112,-60,1912,-1.00,-1.0
44,18168,-3648,-796,-1.00,-1.0
48,14996,-560,424,-1.00,-1.0
50,16524,-1828,808,-1.00,-1.0
52,17344,-644,52,-1.00,-1.0
54,16392,2484,1448,-1.00,-1.0
56,15156,64,-2744,-1.00,-1.0
58,15180,476,2816,-1.00,-1.0
60,17404,336,-1792,-1.00,-1.0
62,15800,1360,-1548,-1.00,-1.0
64,16652,1176,1924,-1.00,-1.0
66,17400,-1164,-936,-1.00,-1.0
68,18004,884,1364,-1.00,-1.0
70,17060,1676,-2580,-1.00,-1.0
72,17020,628,-3320,-1.00,-1.0
74,17088,196,2928,-1.00,-1.0
75,16192,-828,2052,-1.00,-1.0
77,17244,1160,348,-1.00,-1.0
79,16736,556,144,-1.00,-1.0
83,17344,1012,2680,-1.00,-1.0
85,18008,-484,1924,-1.00,-1.0
87,16800,188,-1688,-1.00,-1.0
89,16688,-124,2360,-1.00,-1.0
91,15904,-1740,-1876,-1.00,-1.0
93,16096,876,3136,-1.00,-1.0
95,17188,-252,-260,-1.00,-1.0
97,17908,676,512,-1.00,-1.0
99,17140,1392,1544,-1.00,-1.0
101,16492,-516,-2636,-1.00,-1.0
103,17324,788,4136,-1.00,-1.0
105,15596,424,-492,-1.00,-1.0
107,16520,-2048,1068,-1.00,-1.0
109,17968,336,1868,-1.00,-1.0
111,17616,-684,-24,-1.00,-1.0
113,17004,-216,-220,-1.00,-1.0
115,16200,536,3032,-1.00,-1.0
119,17472,872,916,-1.00,-1.0
121,18572,-72,-204,-1.00,-1.0
123,17572,936,-2416,-1.00,-1.0
125,16524,736,3908,-1.00,-1.0
127,16652,-1496,-1280,-1.00,-1.0
129,17384,1520,2940,-1.00,-1.0
130,17624,-1388,-1832,-1.00,-1.0
132,16548,-528,768,-1.00,-1.0
134,15488,968,1956,-1.00,-1.0
136,16532,-484,932,-1.00,-1.0
138,18660,1184,2312,-1.00,-1.0
140,17120,-376,-648,-1.00,-1.0
142,17012,-188,-464,-1.00,-1.0
144,16156,1008,2328,-1.00,-1.0
146,17516,-2164,660,-1.00,-1.0
148,19508,280,1204,-1.00,-1.0
152,16016,528,-2188,-1.00,-1.0
154,17024,1244,3392,-1.00,-1.0
156,17348,-2116,-1320,-1.00,-1.0
158,17704,64,992,-1.00,-1.0
160,17104,988,3964,-1.00,-1.0
162,18688,-856,-8,-1.00,-1.0
164,17580,1820,-1372,-1.00,-1.0
166,16596,-44,1136,-1.00,-1.0
168,16188,-1232,380,-1.00,-1.0
170,16640,1016,4072,-1.00,-1.0
172,17436,-3116,-1200,-1.00,-1.0
174,17940,-972,1000,-1.00,-1.0
175,16612,12,-472,-1.00,-1.0
178,16396,-2064,-2016,-1.00,-1.0
179,16720,856,1608,-1.00,-1.0
181,17348,-1320,2360,-1.00,-1.0
183,16224,-752,908,-1.00,-1.0
187,17924,-396,-488,-1.00,-1.0
189,18144,224,2148,-1.00,-1.0
191,16672,-2868,-1752,-1.00,-1.0
193,16848,-1508,1724,-1.00,-1.0
195,15608,-1628,2460,-1.00,-1.0
197,16324,-2960,856,-1.00,-1.0
199,16236,872,-516,-1.00,-1.0
201,17780,484,2740,-1.00,-1.0
203,18004,628,-3832,-1.00,-1.0
205,16504,2132,3468,-1.00,-1.0
207,18260,-956,-1776,-1.00,-1.0
209,16016,-100,568,-1.00,-1.0
211,16460,-528,-920,-1.00,-1.0
213,15228,-876,-1536,-1.00,-1.0
215,18140,1176,968,-1.00,-1.0
217,17232,540,1204,-1.00,-1.0
219,16752,-532,-364,-1.00,-1.0
223,16584,-1916,1268,-1.00,-1.0
225,17956,-96,1216,-1.00,-1.0
227,17120,1096,2000,-1.00,-1.0
229,16644,28,-5816,-1.00,-1.0
231,16780,1400,4064,-1.00,-1.0
233,18908,-1532,2512,-1.00,-1.0
234,16956,256,884,-1.00,-1.0
236,16436,1892,-1428,-1.00,-1.0
238,15752,-136,-2096,-1.00,-1.0
240,18104,1232,4536,-1.00,-1.0
242,18516,-484,-2824,-1.00,-1.0
244,17240,332,332,-1.00,-1.0
246,16372,-320,-1100,-1.00,-1.0
248,15764,-2240,-280,-1.00,-1.0
250,17396,60,3480,-1.00,-1.0
252,16428,656,400,-1.00,-1.0
256,16836,320,972,-1.00,-1.0
258,17652,-1268,1512,-1.00,-1.0
260,17044,164,1940,-1.00,-1.0
262,16872,-128,-1360,-1.00,-1.0
264,17304,148,-1408,-1.00,-1.0
266,17944,1092,5724,-1.00,-1.0
268,16580,640,-2568,-1.00,-1.0
270,17880,-2824,3928,-1.00,-1.0
272,19612,284,1828,-1.00,-1.0
274,14620,-968,-2172,-1.00,-1.0
276,17740,688,1932,-1.00,-1.0
278,18140,-1764,-1596,-1.00,-1.0
279,17688,12,1260,-1.00,-1.0
282,16300,2152,1580,-1.00,-1.0
283,15680,224,-2164,-1.00,-1.0
285,18496,1268,2204,-1.00,-1.0
287,17392,520,1024,-1.00,-1.0
292,17084,2352,3120,-1.00,-1.0
294,17704,-716,-884,-1.00,-1.0
295,18428,740,2556,-1.00,-1.0
297,18632,-356,1920,-1.00,-1.0
299,16004,392,-632,-1.00,-1.0
301,15520,852,1424,-1.00,-1.0
303,17524,-1924,1540,-1.00,-1.0
305,18336,112,2304,-1.00,-1.0
307,16712,-28,820,-1.00,-1.0
309,14668,-172,-2300,-1.00,-1.0
311,16428,920,3716,-1.00,-1.0
313,18496,-1840,692,-1.00,-1.0
315,18092,1308,400,-1.00,-1.0
317,16880,284,-328,-1.00,-1.0
319,16460,788,-2480,-1.00,-1.0
321,17556,-272,1872,-1.00,-1.0
325,17112,316,-1980,-1.00,-1.0
327,16860,272,1492,-1.00,-1.0
329,16764,-728,2588,-1.00,-1.0
331,17724,948,436,-1.00,-1.0
332,16392,1364,1140,-1.00,-1.0
334,17888,1180,-568,-1.00,-1.0
336,17512,1372,3584,-1.00,-1.0
338,17604,-1032,424,-1.00,-1.0
340,17720,560,-296,-1.00,-1.0
342,17444,-552,1980,-1.00,-1.0
344,15676,-1364,-1212,-1.00,-1.0
346,16068,1484,2728,-1.00,-1.0
348,17504,72,-464,-1.00,-1.0
350,18276,560,-528,-1.00,-1.0
352,17044,1144,2244,-1.00,-1.0
354,15956,-816,-2476,-1.00,-1.0
356,16876,276,4048,-1.00,-1.0
360,16496,-484,-1232,-1.00,-1.0
362,16280,-64,152,-1.00,-1.0
364,16156,-1812,-1164,-1.00,-1.0
366,18208,52,2628,-1.00,-1.0
368,17156,-516,-2720,-1.00,-1.0
370,16884,-368,84,-1.00,-1.0
372,16184,488,2248,-1.00,-1.0
374,17948,-16,-1540,-1.00,-1.0
376,17460,-212,-2552,-1.00,-1.0
378,16860,76,4944,-1.00,-1.0
380,16392,-680,-192,-1.00,-1.0
381,16784,2060,256,-1.00,-1.0
383,18152,96,-2192,-1.00,-1.0
385,17636,-556,104,-1.00,-1.0
387,15788,560,3136,-1.00,-1.0
389,15764,-952,-640,-1.00,-1.0
391,18200,260,1608,-1.00,-1.0
395,17072,276,-840,-1.00,-1.0
397,16280,1188,1384,-1.00,-1.0
399,17692,-2044,1680,-1.00,-1.0
401,18320,-256,1304,-1.00,-1.0
403,16196,-912,-408,-1.00,-1.0
405,16184,-236,-832,-1.00,-1.0
407,16520,1252,2548,-1.00,-1.0
409,17368,-856,-2132,-1.00,-1.0
411,18452,468,532,-1.00,-1.0
413,17008,448,704,-1.00,-1.0
415,16668,-92,-1556,-1.00,-1.0
417,16940,3132,1680,-1.00,-1.0
419,18056,-428,-4212,-1.00,-1.0
421,19364,740,-32,-1.00,-1.0
423,15748,1620,3900,-1.00,-1.0
425,18644,-1892,-3980,-1.00,-1.0
426,19820,-1384,2000,-1.00,-1.0
431,15560,216,-716,-1.00,-1.0
433,16652,2132,2456,-1.00,-1.0
435,18016,-1312,-180,-1.00,-1.0
436,18612,-416,1092,-1.00,-1.0
438,16600,360,380,-1.00,-1.0
440,15664,-584,-140,-1.00,-1.0
442,16260,836,2692,-1.00,-1.0
444,17452,-2104,-1680,-1.00,-1.0
446,18404,-804,1648,-1.00,-1.0
448,16924,-704,1244,-1.00,-1.0
450,16424,-348,-1576,-1.00,-1.0
452,16476,1320,1044,-1.00,-1.0
454,17356,-612,1808,-1.00,-1.0
456,17704,-372,-708,-1.00,-1.0
458,16428,1156,4324,-1.00,-1.0
460,16764,1648,-4524,-1.00,-1.0
464,18936,404,1036,-1.00,-1.0
466,17596,20,236,-1.00,-1.0
468,16516,1764,4360,-1.00,-1.0
470,15100,-124,-4012,-1.00,-1.0
472,17628,1012,2648,-1.00,-1.0
474,18116,-44,-340,-1.00,-1.0
476,17588,548,-1048,-1.00,-1.0
478,17152,692,2408,-1.00,-1.0
480,17548,-220,-232,-1.00,-1.0
482,17132,-112,-2660,-1.00,-1.0
483,16408,1204,2680,-1.00,-1.0
485,17736,-1080,708,-1.00,-1.0
487,17936,1252,972,-1.00,-1.0
489,17648,1284,-660,-1.00,-1.0
491,16264,648,-2204,-1.00,-1.0
493,16400,1352,4608,-1.00,-1.0
495,17536,-208,-1512,-1.00,-1.0
499,18080,444,-704,-1.00,-1.0
501,16304,-540,-2508,-1.00,-1.0
503,16572,416,5268,-1.00,-1.0
505,16092,-864,-2160,-1.00,-1.0
507,17088,1332,588,-1.00,-1.0
509,18364,-696,-700,-1.00,-1.0
511,17236,-1036,-676,-1.00,-1.0
513,15656,512,2928,-1.00,-1.0
515,16156,-464,-300,-1.00,-1.0
517,18124,572,1332,-1.00,-1.0
519,17584,-924,2132,-1.00,-1.0
521,17348,-1200,-3664,-1.00,-1.0
523,16164,1736,2444,-1.00,-1.0
525,18888,-1280,408,-1.00,-1.0
526,14520,-192,-1508,-1.00,-1.0
528,16364,1216,4360,-1.00,-1.0
533,16272,608,3708,-1.00,-1.0
535,17132,-960,-1624,-1.00,-1.0
536,16604,-900,1492,-1.00,-1.0
538,16472,808,4316,-1.00,-1.0
540,16916,-1400,-660,-1.00,-1.0
542,17696,888,-200,-1.00,-1.0
544,17220,-604,3840,-1.00,-1.0
546,15540,-1284,-1160,-1.00,-1.0
548,15760,196,3132,-1.00,-1.0
550,18148,-2500,-1000,-1.00,-1.0
552,18488,-948,2152,-1.00,-1.0
554,16264,-56,-388,-1.00,-1.0
556,15660,-256,-1700,-1.00,-1.0
558,16968,1060,2956,-1.00,-1.0
560,17884,-2028,-96,-1.00,-1.0
562,17280,-256,328,-1.00,-1.0
564,16544,-800,-484,-1.00,-1.0
568,16392,1204,2572,-1.00,-1.0
570,17256,-1308,-3860,-1.00,-1.0
572,18704,124,1236,-1.00,-1.0
573,15668,1128,2776,-1.00,-1.0
576,17704,-1960,304,-1.00,-1.0
577,17792,-364,856,-1.00,-1.0
579,17020,544,644,-1.00,-1.0
581,15424,-1184,-2620,-1.00,-1.0
583,17132,712,3484,-1.00,-1.0
585,18180,-1768,-1588,-1.00,-1.0
587,17416,-1500,1112,-1.00,-1.0
589,16060,-1432,-560,-1.00,-1.0
591,14956,-220,920,-1.00,-1.0
593,16172,1624,1800,-1.00,-1.0
595,18420,-716,-4336,-1.00,-1.0
597,19908,-204,1052,-1.00,-1.0
601,14676,-16,-1736,-1.00,-1.0
603,16280,1940,3104,-1.00,-1.0
605,18680,-1700,456,-1.00,-1.0
607,18568,28,704,-1.00,-1.0
609,15724,1876,-832,-1.00,-1.0
611,16032,452,-512,-1.00,-1.0
613,18240,656,3156,-1.00,-1.0
614,15300,688,-872,-1.00,-1.0
617,17568,728,-2216,-1.00,-1.0
619,15916,1604,1476,-1.00,-1.0
620,18452,-2028,-2192,-1.00,-1.0
622,17612,-312,476,-1.00,-1.0
624,15504,404,320,-1.00,-1.0
626,15108,-848,548,-1.00,-1.0
628,17484,484,3828,-1.00,-1.0
630,18636,-1884,-2528,-1.00,-1.0
632,18124,-4,720,-1.00,-1.0
636,15096,372,-752,-1.00,-1.0
638,16832,1916,2248,-1.00,-1.0
640,19176,-1800,-72,-1.00,-1.0
642,18524,-456,60,-1.00,-1.0
644,16036,1836,2504,-1.00,-1.0
646,15120,580,-4028,-1.00,-1.0
648,18152,1500,3144,-1.00,-1.0
650,19424,-448,1340,-1.00,-1.0
652,17272,920,-1388,-1.00,-1.0
654,15916,636,2204,-1.00,-1.0
656,15564,124,232,-1.00,-1.0
658,16568,1528,2388,-1.00,-1.0
660,18592,-2212,-1716,-1.00,-1.0
662,18732,-1268,236,-1.00,-1.0
663,16568,1816,1832,-1.00,-1.0
665,19060,-1360,924,-1.00,-1.0
667,18480,136,-184,-1.00,-1.0
671,15552,316,-2380,-1.00,-1.0
673,18724,908,5560,-1.00,-1.0
675,19472,-1952,452,-1.00,-1.0
677,17260,-280,1536,-1.00,-1.0
679,15552,624,236,-1.00,-1.0
681,16208,56,-812,-1.00,-1.0
683,17820,1784,616,-1.00,-1.0
685,18208,-3300,1004,-1.00,-1.0
687,16568,-1560,3116,-1.00,-1.0
689,14800,232,2472,-1.00,-1.0
691,15364,356,-1780,-1.00,-1.0
693,19096,940,2060,-1.00,-1.0
695,19452,-3312,600,-1.00,-1.0
697,16444,-832,1052,-1.00,-1.0
699,14992,1432,852,-1.00,-1.0
701,16684,172,-2088,-1.00,-1.0
705,18372,-504,1028,-1.00,-1.0
707,17200,796,-1828,-1.00,-1.0
709,16020,2204,3164,-1.00,-1.0
711,16584,1452,-4960,-1.00,-1.0
713,19048,1504,2056,-1.00,-1.0
715,18956,-1704,944,-1.00,-1.0
717,16556,64,72,-1.00,-1.0
718,18596,-204,3620,-1.00,-1.0
720,18292,-2648,676,-1.00,-1.0
722,16944,-576,1808,-1.00,-1.0
724,15644,1744,-520,-1.00,-1.0
726,16448,-1600,-788,-1.00,-1.0
728,18120,364,3636,-1.00,-1.0
730,17320,-2824,1416,-1.00,-1.0
732,16240,-1088,-340,-1.00,-1.0
734,15816,1652,300,-1.00,-1.0
736,16584,-1792,-2368,-1.00,-1.0
740,17568,300,992,-1.00,-1.0
742,16180,-736,-2304,-1.00,-1.0
744,16052,1908,2472,-1.00,-1.0
746,17460,256,-1616,-1.00,-1.0
748,17912,1740,1804,-1.00,-1.0
750,18752,296,-404,-1.00,-1.0
752,17484,-68,-864,-1.00,-1.0
754,16436,792,4044,-1.00,-1.0
756,15360,-964,-1200,-1.00,-1.0
758,16804,1584,1856,-1.00,-1.0
760,19344,-2316,916,-1.00,-1.0
762,17664,-1084,760,-1.00,-1.0
764,14732,2308,-1296,-1.00,-1.0
766,16884,0,-924,-1.00,-1.0
767,19256,-328,3996,-1.00,-1.0
769,15484,2704,-476,-1.00,-1.0
774,16588,2176,932,-1.00,-1.0
776,19412,-852,-72,-1.00,-1.0
777,19208,1064,1000,-1.00,-1.0
779,15960,340,3300,-1.00,-1.0
781,17228,-1308,-1896,-1.00,-1.0
783,18264,464,1456,-1.00,-1.0
785,18028,-1432,64,-1.00,-1.0
787,16272,-756,1424,-1.00,-1.0
789,15476,728,1596,-1.00,-1.0
791,17420,-2200,-1692,-1.00,-1.0
793,17820,-520,3108,-1.00,-1.0
795,16420,-1188,1488,-1.00,-1.0
797,15392,-604,-1248,-1.00,-1.0
799,15892,932,1332,-1.00,-1.0
801,18240,-2656,-988,-1.00,-1.0
803,18340,-1476,3404,-1.00,-1.0
805,15816,-504,-1232,-1.00,-1.0
809,17556,1972,2040,-1.00,-1.0
811,18192,-984,-3088,-1.00,-1.0
813,18008,344,136,-1.00,-1.0
815,17016,-1112,1664,-1.00,-1.0
817,15616,-672,336,-1.00,-1.0
819,15680,1848,1956,-1.00,-1.0
821,17272,-828,-4568,-1.00,-1.0
822,18936,712,2664,-1.00,-1.0
825,18180,704,1140,-1.00,-1.0
826,16456,2060,-1664,-1.00,-1.0
828,16976,2532,416,-1.00,-1.0
830,16628,-172,1340,-1.00,-1.0
832,15956,164,-3028,-1.00,-1.0
834,16772,1648,1344,-1.00,-1.0
836,18584,-2504,-2300,-1.00,-1.0
838,18244,-2000,3252,-1.00,-1.0
842,13644,764,-1748,-1.00,-1.0
844,17364,1464,2292,-1.00,-1.0
846,19376,-2096,-3716,-1.00,-1.0
848,18328,-288,1692,-1.00,-1.0
850,16124,48,1060,-1.00,-1.0
852,15444,-272,-332,-1.00,-1.0
854,17000,1948,1556,-1.00,-1.0
856,18644,-1392,-3136,-1.00,-1.0
858,18584,-196,1280,-1.00,-1.0
860,16732,592,2172,-1.00,-1.0
862,15000,1044,-2476,-1.00,-1.0
864,16872,1792,2260,-1.00,-1.0
866,19056,-1116,1508,-1.00,-1.0
868,18544,-196,220,-1.00,-1.0
870,16144,-208,2348,-1.00,-1.0
871,14184,-396,-188,-1.00,-1.0
873,15844,544,2812,-1.00,-1.0
877,19356,84,-2320,-1.00,-1.0
879,16888,-24,932,-1.00,-1.0
881,15132,192,688,-1.00,-1.0
883,18876,-380,-488,-1.00,-1.0
885,17584,-228,2384,-1.00,-1.0
887,14700,-1276,296,-1.00,-1.0
889,14960,660,2368,-1.00,-1.0
891,19064,-1204,1064,-1.00,-1.0
893,18592,-376,1048,-1.00,-1.0
895,16868,1664,2176,-1.00,-1.0
897,15556,568,-4816,-1.00,-1.0
899,17320,660,3048,-1.00,-1.0
901,19784,-1324,1680,-1.00,-1.0
903,16904,-84,-92,-1.00,-1.0
905,15308,428,-108,-1.00,-1.0
907,15432,-24,-548,-1.00,-1.0
908,17660,588,2748,-1.00,-1.0
913,17172,-616,-64,-1.00,-1.0
915,15628,528,616,-1.00,-1.0
917,15800,-920,-1188,-1.00,-1.0
918,17540,340,4176,-1.00,-1.0
921,18148,-1296,-732,-1.00,-1.0
923,17220,816,-28,-1.00,-1.0
924,16232,2288,-956,-1.00,-1.0
926,16860,1020,-2336,-1.00,-1.0
928,18192,624,2984,-1.00,-1.0
930,16928,-1700,616,-1.00,-1.0
932,17212,-1172,-1792,-1.00,-1.0
934,17756,48,3028,-1.00,-1.0
936,17596,-2204,632,-1.00,-1.0
938,15964,-588,1076,-1.00,-1.0
940,15628,80,1564,-1.00,-1.0
942,16260,-196,-1620,-1.00,-1.0
946,19284,-2500,-888,-1.00,-1.0
948,17160,-656,1920,-1.00,-1.0
950,15544,308,1388,-1.00,-1.0
952,14956,-128,-960,-1.00,-1.0
954,17404,-408,1952,-1.00,-1.0
956,18608,-3056,3192,-1.00,-1.0
958,16520,-1348,-68,-1.00,-1.0
960,15096,1956,476,-1.00,-1.0
962,16540,1192,-4992,-1.00,-1.0
964,19056,268,1676,-1.00,-1.0
966,18944,-1476,2748,-1.00,-1.0
967,16016,736,384,-1.00,-1.0
969,14928,3464,2072,-1.00,-1.0
971,16852,476,-4908,-1.00,-1.0
973,19224,-372,4104,-1.00,-1.0
975,17944,-1320,-88,-1.00,-1.0
977,16828,-1304,-96,-1.00,-1.0
981,16748,-232,-1364,-1.00,-1.0
983,17852,1512,1904,-1.00,-1.0
985,15480,344,1476,-1.00,-1.0
987,15388,-860,-1388,-1.00,-1.0
989,18072,664,1864,-1.00,-1.0
991,17992,-260,532,-1.00,-1.0
993,17968,516,-700,-1.00,-1.0
995,16460,1204,2452,-1.00,-1.0
997,16308,448,-1244,-1.00,-1.0
999,17288,820,2452,-1.00,-1.0
1001,18888,-620,-184,-1.00,-1.0
1003,18032,244,-1108,-1.00,-1.0
1005,16184,1504,1320,-1.00,-1.0
1007,15748,312,-1768,-1.00,-1.0
1009,17888,2356,3332,-1.00,-1.0
1011,18776,-2140,-1600,-1.00,-1.0
1015,15844,1316,-796,-1.00,-1.0
1017,15652,-60,-488,-1.00,-1.0
1019,18276,1280,556,-1.00,-1.0
1021,18524,-1616,2732,-1.00,-1.0
1023,16912,-120,48,-1.00,-1.0
1025,14836,2184,-768,-1.00,-1.0
1026,17404,-620,824,-1.00,-1.0
1028,18848,-212,2116,-1.00,-1.0
1030,17860,-272,-912,-1.00,-1.0
1032,16860,1612,-444,-1.00,-1.0
1034,16564,2640,760,-1.00,-1.0
1036,17720,-2444,-1292,-1.00,-1.0
1038,17296,576,2848,-1.00,-1.0
1040,16452,600,704,-1.00,-1.0
1042,16480,-1812,-852,-1.00,-1.0
1044,17116,980,3312,-1.00,-1.0
1046,17668,-1048,-640,-1.00,-1.0
1050,16412,1956,-408,-1.00,-1.0
1052,17156,-628,-2372,-1.00,-1.0
1054,18304,384,2896,-1.00,-1.0
1056,16456,-1084,-924,-1.00,-1.0
1058,16284,996,-280,-1.00,-1.0
1060,16752,2828,1680,-1.00,-1.0
1062,17300,628,-2360,-1.00,-1.0
1064,18340,740,1460,-1.00,-1.0
1066,18024,-1928,-28,-1.00,-1.0
1068,17288,368,2016,-1.00,-1.0
1070,15676,1144,824,-1.00,-1.0
1071,15452,-28,-2900,-1.00,-1.0
1074,17836,508,1088,-1.00,-1.0
1075,19116,-2008,728,-1.00,-1.0
1077,17932,484,1736,-1.00,-1.0
1079,15540,3564,-864,-1.00,-1.0
1084,18952,828,3548,-1.00,-1.0
1085,19400,-2304,2636,-1.00,-1.0
1087,16168,-600,2308,-1.00,-1.0
1089,14404,2844,-1268,-1.00,-1.0
1091,16872,-312,8,-1.00,-1.0
1093,18848,-544,3096,-1.00,-1.0
1095,18020,-2436,-604,-1.00,-1.0
1097,16780,-300,-4096,-1.00,-1.0
1099,15276,688,776,-1.00,-1.0
1101,18104,-608,236,-1.00,-1.0
1103,17476,776,-660,-1.00,-1.0
1105,16564,2416,2272,-1.00,-1.0
1107,15992,376,-2624,-1.00,-1.0
1109,18140,2024,1628,-1.00,-1.0
1111,20452,-1340,2812,-1.00,-1.0
1113,17444,-116,-1492,-1.00,-1.0
1117,16012,-1384,780,-1.00,-1.0
1119,17764,12,3148,-1.00,-1.0
1121,18200,-1936,-1140,-1.00,-1.0
1123,16792,-1404,1240,-1.00,-1.0
1125,15764,1860,-64,-1.00,-1.0
1127,16012,72,-1284,-1.00,-1.0
1128,17528,636,1800,-1.00,-1.0
1130,18796,-772,-316,-1.00,-1.0
1132,18120,-448,8,-1.00,-1.0
1134,16488,1680,3444,-1.00,-1.0
1136,15304,-576,-2364,-1.00,-1.0
1138,15740,172,3532,-1.00,-1.0
1140,18868,-1632,1036,-1.00,-1.0
1142,17516,-664,-24,-1.00,-1.0
1144,18012,1480,2504,-1.00,-1.0
1146,18500,-2144,2760,-1.00,-1.0
1150,14696,2304,-924,-1.00,-1.0
1152,17432,-568,-444,-1.00,-1.0
1154,19052,-236,3344,-1.00,-1.0
1156,18064,560,-2112,-1.00,-1.0
1158,16848,1468,-268,-1.00,-1.0
1160,17076,2284,1936,-1.00,-1.0
1162,17020,360,-1112,-1.00,-1.0
1164,16340,248,1888,-1.00,-1.0
1166,17228,-1252,988,-1.00,-1.0
1168,17644,-700,-208,-1.00,-1.0
1170,16284,1680,1868,-1.00,-1.0
1171,15788,-268,-5960,-1.00,-1.0
1173,17852,560,1412,-1.00,-1.0
1175,19156,-1400,4612,-1.00,-1.0
1177,15868,208,-1080,-1.00,-1.0
1179,15372,3028,-312,-1.00,-1.0
1183,18976,-684,4016,-1.00,-1.0
1185,17628,-1496,3812,-1.00,-1.0
1187,14144,308,-1444,-1.00,-1.0
1189,15484,2116,756,-1.00,-1.0
1191,18044,-1128,-1220,-1.00,-1.0
1193,19124,-288,3600,-1.00,-1.0
1195,18148,-1496,480,-1.00,-1.0
1197,17444,-824,-2264,-1.00,-1.0
1199,15568,2088,1192,-1.00,-1.0
1201,17540,-532,2572,-1.00,-1.0
1203,15576,428,-2032,-1.00,-1.0
1205,16096,1360,592,-1.00,-1.0
1207,17972,-2612,1436,-1.00,-1.0
1209,17740,-976,968,-1.00,-1.0
1211,17268,-40,3260,-1.00,-1.0
1213,14496,-260,-1740,-1.00,-1.0
1217,19656,-1816,1752,-1.00,-1.0
1219,18700,-1320,2468,-1.00,-1.0
1221,16064,648,-292,-1.00,-1.0
1223,14472,640,-2988,-1.00,-1.0
1225,16920,1204,1316,-1.00,-1.0
1227,18548,-1644,880,-1.00,-1.0
1229,17280,308,3404,-1.00,-1.0
1230,16296,1176,-4,-1.00,-1.0
1232,15952,260,-968,-1.00,-1.0
1234,17232,496,2408,-1.00,-1.0
1236,17988,-1744,996,-1.00,-1.0
1238,18024,572,1548,-1.00,-1.0
1240,16356,1408,-932,-1.00,-1.0
1242,15496,-1820,-2948,-1.00,-1.0
1244,16812,-752,5268,-1.00,-1.0
1246,16900,-2128,-1544,-1.00,-1.0
1250,17176,1248,-1428,-1.00,-1.0
1252,15332,-648,400,-1.00,-1.0
1254,16660,2220,4420,-1.00,-1.0
1256,18108,308,-2684,-1.00,-1.0
1258,19292,672,-276,-1.00,-1.0
1260,17716,-484,4128,-1.00,-1.0
1262,17972,-1316,-4816,-1.00,-1.0
1264,19532,-248,2016,-1.00,-1.0
1266,16868,844,-136,-1.00,-1.0
1268,14616,944,-308,-1.00,-1.0
1270,16740,1020,1312,-1.00,-1.0
1272,18320,-2528,252,-1.00,-1.0
1274,18672,-1408,2600,-1.00,-1.0
1276,15536,1716,-1244,-1.00,-1.0
1278,14708,-308,-752,-1.00,-1.0
1279,17400,416,2264,-1.00,-1.0
1284,18180,-460,688,-1.00,-1.0
1286,15600,1636,884,-1.00,-1.0
1288,15392,228,-2272,-1.00,-1.0
1289,17392,36,3624,-1.00,-1.0
1292,18152,-1284,2660,-1.00,-1.0
1294,17748,336,-1624,-1.00,-1.0
1295,16500,472,1792,-1.00,-1.0
1297,14980,-988,-2052,-1.00,-1.0
1299,16112,76,2336,-1.00,-1.0
1301,19428,-1792,3964,-1.00,-1.0
1303,17588,-1508,152,-1.00,-1.0
1305,15564,2852,-624,-1.00,-1.0
1307,16668,316,-3728,-1.00,-1.0
1309,18380,-280,4220,-1.00,-1.0
1311,18800,-1308,2540,-1.00,-1.0
1313,16548,-740,-1720,-1.00,-1.0
1317,16876,-144,-2620,-1.00,-1.0
1319,18140,0,4248,-1.00,-1.0
1321,18556,-1320,792,-1.00,-1.0
1323,16460,-1524,-2924,-1.00,-1.0
1325,15740,2060,-512,-1.00,-1.0
1327,17684,-508,2408,-1.00,-1.0
1329,16316,396,-2064,-1.00,-1.0
1331,16476,1960,-568,-1.00,-1.0
1333,17472,-2688,-1908,-1.00,-1.0
1335,18236,-716,4032,-1.00,-1.0
1337,16996,628,2440,-1.00,-1.0
1339,15140,1480,-2496,-1.00,-1.0
1341,17068,2476,-124,-1.00,-1.0
1343,19308,-2108,1084,-1.00,-1.0
1344,17672,-1332,4308,-1.00,-1.0
1346,15820,420,-532,-1.00,-1.0
1351,17744,1556,792,-1.00,-1.0
1353,18440,-676,1004,-1.00,-1.0
1354,17708,896,2020,-1.00,-1.0
1356,17032,-108,252,-1.00,-1.0
1358,15524,-1620,216,-1.00,-1.0
1360,15488,-8,2520,-1.00,-1.0
1362,16764,-2448,-92,-1.00,-1.0
1364,17848,-1412,1888,-1.00,-1.0
1366,17228,404,-620,-1.00,-1.0
1368,15620,-892,-3764,-1.00,-1.0
1370,16128,1404,3260,-1.00,-1.0
1372,16732,620,-2396,-1.00,-1.0
1374,18780,-52,-304,-1.00,-1.0
1376,17500,328,1216,-1.00,-1.0
1378,18012,-1976,-100,-1.00,-1.0
1380,17988,-1676,1708,-1.00,-1.0
1384,18916,108,512,-1.00,-1.0
1386,17384,-284,2584,-1.00,-1.0
1388,13996,-1792,-1524,-1.00,-1.0
1390,20224,1152,1744,-1.00,-1.0
1392,17716,1892,-888,-1.00,-1.0
1394,15316,816,-2012,-1.00,-1.0
1396,17008,1364,2228,-1.00,-1.0
1398,18172,-3100,1100,-1.00,-1.0
1400,17468,-2236,2744,-1.00,-1.0
1402,15144,1752,-1428,-1.00,-1.0
1404,15152,-680,-1660,-1.00,-1.0
1405,17532,88,3908,-1.00,-1.0
1407,17936,-812,-2644,-1.00,-1.0
1409,18400,248,632,-1.00,-1.0
1411,16740,1132,648,-1.00,-1.0
1413,15540,124,-1052,-1.00,-1.0
1417,17616,-1224,928,-1.00,-1.0
1419,18276,232,-1768,-1.00,-1.0
1421,16944,1208,2208,-1.00,-1.0
1423,15736,-592,-2972,-1.00,-1.0
1425,16396,1388,4500,-1.00,-1.0
1427,19312,292,4652,-1.00,-1.0
1429,17888,912,-1880,-1.00,-1.0
1431,16848,4176,-120,-1.00,-1.0
1433,17388,-432,-1656,-1.00,-1.0
1435,18636,-1320,6116,-1.00,-1.0
1437,16568,2672,-1392,-1.00,-1.0
1439,17708,-760,544,-1.00,-1.0
1441,18212,632,1736,-1.00,-1.0
1443,17496,-1408,-276,-1.00,-1.0
1445,17524,-872,1200,-1.00,-1.0
1446,15780,1348,1408,-1.00,-1.0
1451,18164,-28,1928,-1.00,-1.0
1453,18372,152,2596,-1.00,-1.0
1455,16936,1244,-2620,-1.00,-1.0
1456,16488,3224,-632,-1.00,-1.0
1459,18352,-1712,588,-1.00,-1.0
1461,18392,-552,4020,-1.00,-1.0
1462,17136,1120,312,-1.00,-1.0
1464,15812,-348,-4816,-1.00,-1.0
1466,16712,700,924,-1.00,-1.0
1468,17628,-1628,1364,-1.00,-1.0
1470,16944,-100,2080,-1.00,-1.0
1472,16836,820,84,-1.00,-1.0
1474,15504,264,-800,-1.00,-1.0
1476,17168,1708,700,-1.00,-1.0
1478,18280,-308,-1280,-1.00,-1.0
1480,17732,920,1448,-1.00,-1.0
1484,15388,-788,1084,-1.00,-1.0
1486,15556,1764,688,-1.00,-1.0
1488,17956,-976,1196,-1.00,-1.0
1490,19176,88,-588,-1.00,-1.0
1492,17016,2148,-884,-1.00,-1.0
1494,15768,-3008,-2900,-1.00,-1.0
1496,18132,1256,-1408,-1.00,-1.0
1498,17556,2612,-196,-1.00,-1.0
1500,16664,-508,952,-1.00,-1.0
1502,17156,260,3716,-1.00,-1.0
1504,17460,-1440,-2384,-1.00,-1.0
1506,17256,-572,-1532,-1.00,-1.0
1508,17040,472,2416,-1.00,-1.0
1510,14824,-484,1560,-1.00,-1.0
1511,16052,2684,500,-1.00,-1.0
1513,18844,-1992,-5208,-1.00,-1.0
1518,15268,1396,-236,-1.00,-1.0
1520,13584,-388,-1600,-1.00,-1.0
1521,17564,-112,1184,-1.00,-1.0
1523,18148,-1992,3980,-1.00,-1.0
1525,16932,232,-2232,-1.00,-1.0
1527,16196,4252,-1804,-1.00,-1.0
1529,17736,-532,176,-1.00,-1.0
1531,18484,-196,4476,-1.00,-1.0
1533,16656,412,-1612,-1.00,-1.0
1535,16680,108,560,-1.00,-1.0
1537,17776,1852,904,-1.00,-1.0
1539,16876,-80,-2448,-1.00,-1.0
1541,16984,960,2728,-1.00,-1.0
1543,17768,464,1652,-1.00,-1.0
1545,18368,-168,-2336,-1.00,-1.0
1547,16800,500,2844,-1.00,-1.0
1551,18100,112,3292,-1.00,-1.0
1553,18848,1200,2580,-1.00,-1.0
1555,15960,840,-4896,-1.00,-1.0
1557,18108,-2896,2492,-1.00,-1.0
1559,17928,-1636,1536,-1.00,-1.0
1561,17096,-700,5532,-1.00,-1.0
1563,17880,1984,2332,-1.00,-1.0
1565,18172,-892,-1400,-1.00,-1.0
1567,17472,-316,-1668,-1.00,-1.0
1569,17184,412,2780,-1.00,-1.0
1570,16184,-472,-500,-1.00,-1.0
1572,15792,1776,1948,-1.00,-1.0
1574,17244,-628,-2688,-1.00,-1.0
1576,18932,-364,2736,-1.00,-1.0
1578,18044,1396,972,-1.00,-1.0
1580,15880,364,-1832,-1.00,-1.0
1584,17048,-1388,3908,-1.00,-1.0
1586,17320,300,400,-1.00,-1.0
1588,16904,2788,1636,-1.00,-1.0
1590,16392,-352,-3784,-1.00,-1.0
1592,18176,-600,3000,-1.00,-1.0
1594,17708,-1848,3120,-1.00,-1.0
1596,16724,964,1372,-1.00,-1.0
1598,16024,1672,-3028,-1.00,-1.0
1600,15864,256,-700,-1.00,-1.0
1602,18496,-944,1852,-1.00,-1.0
1604,17388,-1920,1388,-1.00,-1.0
1606,17768,920,-3436,-1.00,-1.0
1608,16728,780,2304,-1.00,-1.0
1610,16492,-1280,-932,-1.00,-1.0
1612,17292,-468,-1204,-1.00,-1.0
1614,16104,1120,3784,-1.00,-1.0
1618,16068,2208,-792,-1.00,-1.0
1620,15596,-128,-752,-1.00,-1.0
1622,18064,-544,-3884,-1.00,-1.0
1624,17868,3672,52,-1.00,-1.0
1626,15912,1208,-4108,-1.00,-1.0
1628,16876,-780,4116,-1.00,-1.0
1629,17380,408,3792,-1.00,-1.0
1631,16212,276,-4356,-1.00,-1.0
1633,17160,1876,608,-1.00,-1.0
1635,17716,-1256,-752,-1.00,-1.0
1637,17640,-332,2580,-1.00,-1.0
1639,16672,-2036,4132,-1.00,-1.0
1641,14772,-668,-1840,-1.00,-1.0
1643,15400,1080,-724,-1.00,-1.0
1645,19248,-672,1908,-1.00,-1.0
1647,19220,-508,1188,-1.00,-1.0
1651,15464,-64,-4716,-1.00,-1.0
1653,16624,448,1716,-1.00,-1.0
1655,18532,-1916,3460,-1.00,-1.0
1657,17224,72,-352,-1.00,-1.0
1659,16844,1276,-1692,-1.00,-1.0
1661,16756,-696,-552,-1.00,-1.0
1663,16048,-144,2776,-1.00,-1.0
1665,17728,2424,492,-1.00,-1.0
1667,16108,-524,-3264,-1.00,-1.0
1669,17020,-400,3652,-1.00,-1.0
1670,17340,-72,3024,-1.00,-1.0
1672,17820,608,-2956,-1.00,-1.0
1674,16688,1260,2392,-1.00,-1.0
1676,16320,-1652,-3056,-1.00,-1.0
1678,17028,-732,3572,-1.00,-1.0
1680,18116,304,2068,-1.00,-1.0
1684,17524,1924,2728,-1.00,-1.0
1686,17268,-748,-2040,-1.00,-1.0
1688,16524,-976,4500,-1.00,-1.0
1690,17488,-224,1904,-1.00,-1.0
1692,15880,-452,-1848,-1.00,-1.0
1694,16152,936,1012,-1.00,-1.0
1696,17088,-1708,-608,-1.00,-1.0
1698,17532,-1220,4824,-1.00,-1.0
1700,17160,-1196,652,-1.00,-1.0
1702,15884,-992,-3064,-1.00,-1.0
1704,16392,1396,-488,-1.00,-1.0
1706,17204,728,1484,-1.00,-1.0
1708,17924,-728,3164,-1.00,-1.0
1710,16308,12,28,-1.00,-1.0
1712,17680,-1204,1332,-1.00,-1.0
1713,17020,-340,2284,-1.00,-1.0
1718,17428,-1356,1880,-1.00,-1.0
1720,15108,2300,-912,-1.00,-1.0
1722,18468,-2028,4504,-1.00,-1.0
1723,16976,244,2120,-1.00,-1.0
1725,16104,1160,-3176,-1.00,-1.0
1727,15656,-1388,-176,-1.00,-1.0
1729,17328,-1448,2084,-1.00,-1.0
1731,17624,-2016,1320,-1.00,-1.0
1733,16800,-348,816,-1.00,-1.0
1735,16364,1336,988,-1.00,-1.0
1737,16200,-664,-3352,-1.00,-1.0
1739,16768,544,2832,-1.00,-1.0
1741,18100,-2256,5156,-1.00,-1.0
1743,17316,-1408,52,-1.00,-1.0
1745,15284,2944,-2020,-1.00,-1.0
1747,16452,-2016,652,-1.00,-1.0
1751,17596,-944,2512,-1.00,-1.0
1753,16828,-1064,-1308,-1.00,-1.0
1755,16512,1928,-1256,-1.00,-1.0
1757,18336,-2276,1096,-1.00,-1.0
1759,16964,-756,2904,-1.00,-1.0
1761,16384,1176,928,-1.00,-1.0
1763,16332,784,-2936,-1.00,-1.0
1765,17628,3308,1976,-1.00,-1.0
1767,18520,-932,-2660,-1.00,-1.0
1769,18048,-548,4640,-1.00,-1.0
1771,15944,-328,496,-1.00,-1.0
1773,19456,88,2428,-1.00,-1.0
1775,17352,280,3020,-1.00,-1.0
1777,16660,2708,3184,-1.00,-1.0
1778,16316,1092,-3664,-1.00,-1.0
1780,16912,1200,424,-1.00,-1.0
1785,17304,-112,4368,-1.00,-1.0
1787,17532,-952,-656,-1.00,-1.0
1788,15788,-364,-1036,-1.00,-1.0
1790,15988,-64,2976,-1.00,-1.0
1792,17908,-2084,36,-1.00,-1.0
1794,17104,-656,-524,-1.00,-1.0
1796,16560,1512,-456,-1.00,-1.0
1798,16052,-1340,164,-1.00,-1.0
1800,17500,180,1576,-1.00,-1.0
1802,17568,-916,3164,-1.00,-1.0
1804,17244,-328,-708,-1.00,-1.0
1806,15044,2184,-1272,-1.00,-1.0
1808,17248,-1168,3472,-1.00,-1.0
1810,18016,-1812,1144,-1.00,-1.0
1812,15408,-696,1456,-1.00,-1.0
1814,16268,-288,-2292,-1.00,-1.0
1818,18568,-1272,72,-1.00,-1.0
1820,17128,-1264,1012,-1.00,-1.0
1822,15756,1384,3636,-1.00,-1.0
1824,16688,1540,-3256,-1.00,-1.0
1826,17972,2560,-1028,-1.00,-1.0
1828,18876,-576,-40,-1.00,-1.0
1830,17456,40,2676,-1.00,-1.0
1832,16236,1992,1624,-1.00,-1.0
1834,15916,-48,-864,-1.00,-1.0
1836,17504,404,-1088,-1.00,-1.0
1837,15692,1276,260,-1.00,-1.0
1839,16556,-1256,-2940,-1.00,-1.0
1841,18476,192,2976,-1.00,-1.0
1843,18048,-2288,1988,-1.00,-1.0
1845,16304,-864,752,-1.00,-1.0
1847,14972,1904,-1092,-1.00,-1.0
1851,18740,-2268,3904,-1.00,-1.0
1853,17236,-516,-488,-1.00,-1.0
1855,15400,748,-1148,-1.00,-1.0
1857,17592,3308,1104,-1.00,-1.0
1859,18840,896,-3368,-1.00,-1.0
1861,18364,-848,3920,-1.00,-1.0
1863,16836,-292,1904,-1.00,-1.0
1865,15548,136,-2716,-1.00,-1.0
1867,16380,2168,380,-1.00,-1.0
1869,18096,-2396,2252,-1.00,-1.0
1871,17880,-2052,3656,-1.00,-1.0
1873,15864,1764,-628,-1.00,-1.0
1875,16392,-1364,-4696,-1.00,-1.0
1877,18592,-828,2880,-1.00,-1.0
1879,16964,-1680,1156,-1.00,-1.0
1881,15912,96,2272,-1.00,-1.0
1885,17740,-624,-2972,-1.00,-1.0
1887,19568,-112,572,-1.00,-1.0
1889,18156,-460,1336,-1.00,-1.0
1891,16348,676,-804,-1.00,-1.0
1893,16852,4156,4040,-1.00,-1.0
1895,17024,-140,-6676,-1.00,-1.0
1897,17984,-964,3468,-1.00,-1.0
1898,15108,2140,-1120,-1.00,-1.0
1900,17368,-112,1332,-1.00,-1.0
1902,18472,-788,860,-1.00,-1.0
1904,16736,-792,6148,-1.00,-1.0
1906,15512,-216,-6060,-1.00,-1.0
1908,16508,2976,-332,-1.00,-1.0
1910,19400,-1372,932,-1.00,-1.0
1912,17448,-1648,1800,-1.00,-1.0
1914,15228,64,1004,-1.00,-1.0
1918,16828,208,936,-1.00,-1.0
1920,19372,-1872,104,-1.00,-1.0
1922,17296,-1160,308,-1.00,-1.0
1924,15124,1812,4,-1.00,-1.0
1926,16112,-456,1024,-1.00,-1.0
1928,18144,-1132,2360,-1.00,-1.0
1930,16716,-1000,3968,-1.00,-1.0
1932,16640,760,-1040,-1.00,-1.0
1934,15676,2856,-1228,-1.00,-1.0
1936,18436,160,4564,-1.00,-1.0
1938,18068,-2488,1144,-1.00,-1.0
1940,15628,-200,2644,-1.00,-1.0
1942,16332,-1472,-2528,-1.00,-1.0
1944,17088,604,2544,-1.00,-1.0
1946,18704,-1500,-2044,-1.00,-1.0
1947,17132,-1688,680,-1.00,-1.0
1952,15636,280,-5344,-1.00,-1.0
1954,17820,520,-12,-1.00,-1.0
1955,19900,-2464,1424,-1.00,-1.0
1957,15460,-324,-3404,-1.00,-1.0
1959,19028,-488,1168,-1.00,-1.0
1961,19016,-1200,3200,-1.00,-1.0
1963,16708,600,-308,-1.00,-1.0
1965,15704,3588,-968,-1.00,-1.0
1967,17484,-204,-996,-1.00,-1.0
1969,18136,-1072,4040,-1.00,-1.0
1971,17560,84,2080,-1.00,-1.0
1973,15532,-80,-2032,-1.00,-1.0
1975,17056,1004,-2000,-1.00,-1.0
1977,18096,-2420,2716,-1.00,-1.0
1979,16956,-1828,5728,-1.00,-1.0
1981,14964,-420,-1500,-1.00,-1.0
1985,18176,-736,-924,-1.00,-1.0
1987,18788,-1728,1600,-1.00,-1.0
1989,17236,-692,2116,-1.00,-1.0
1991,14060,2716,1328,-1.00,-1.0
1993,16564,-356,-4964,-1.00,-1.0
1995,18564,-1456,2132,-1.00,-1.0
1997,17376,-1372,4192,-1.00,-1.0
1999,15600,-520,-336,-1.00,-1.0
2001,15892,2352,-3296,-1.00,-1.0
2003,17952,-324,1504,-1.00,-1.0
2004,18092,-2052,2040,-1.00,-1.0
2007,16420,-384,2808,-1.00,-1.0
2009,15664,264,-2324,-1.00,-1.0
2010,16784,1620,-1412,-1.00,-1.0
2012,15404,1196,1816,-1.00,-1.0
2017,15376,2616,3052,-1.00,-1.0
2019,16052,-424,-5444,-1.00,-1.0
2020,18000,-1440,604,-1.00,-1.0
2022,15728,4256,484,-1.00,-1.0
2024,14932,-544,-120,-1.00,-1.0
2026,19372,-1448,3692,-1.00,-1.0
2028,16608,-1640,1928,-1.00,-1.0
2030,14800,724,-676,-1.00,-1.0
2032,16852,3876,-1000,-1.00,-1.0
2034,18480,-1828,-2896,-1.00,-1.0
2036,19040,-2872,5688,-1.00,-1.0
2038,15400,104,1612,-1.00,-1.0
2040,14248,976,-476,-1.00,-1.0
2042,18396,1208,-3136,-1.00,-1.0
2044,18940,-928,-400,-1.00,-1.0
2046,18396,-632,3872,-1.00,-1.0
2050,15168,1072,-3028,-1.00,-1.0
2052,18608,-740,124,-1.00,-1.0
2054,19056,-1332,5584,-1.00,-1.0
2056,15928,940,-4040,-1.00,-1.0
2058,15672,4184,-1560,-1.00,-1.0
2060,18704,-2520,-956,-1.00,-1.0
2062,17940,-4440,5892,-1.00,-1.0
2063,15080,-364,968,-1.00,-1.0
2066,14188,-616,96,-1.00,-1.0
2068,18244,308,-2944,-1.00,-1.0
2069,18756,-764,1188,-1.00,-1.0
2071,15044,-132,-2124,-1.00,-1.0
2073,14912,2812,2748,-1.00,-1.0
2075,19988,-1856,388,-1.00,-1.0
2077,17188,-748,-480,-1.00,-1.0
2079,15324,2432,512,-1.00,-1.0
2083,18644,-1832,3580,-1.00,-1.0
2085,17712,-1840,4552,-1.00,-1.0
2087,14160,-52,-3992,-1.00,-1.0
2089,15840,3704,-2432,-1.00,-1.0
2091,18888,-496,1348,-1.00,-1.0
2093,19064,-1588,5672,-1.00,-1.0
2095,15856,576,1300,-1.00,-1.0
2097,15440,-108,-2596,-1.00,-1.0
2099,17520,228,928,-1.00,-1.0
2101,19652,-2660,2688,-1.00,-1.0
2103,16596,-1600,-412,-1.00,-1.0
2105,14128,1952,-2268,-1.00,-1.0
2107,16772,-720,-296,-1.00,-1.0
2109,18928,-2200,6948,-1.00,-1.0
2111,17104,-1696,84,-1.00,-1.0
2113,14624,56,-540,-1.00,-1.0
2117,18776,-1716,660,-1.00,-1.0
2119,18052,-2524,4548,-1.00,-1.0
2121,14952,-88,1436,-1.00,-1.0
2123,15096,-1596,-4024,-1.00,-1.0
2125,17616,708,624,-1.00,-1.0
2127,17828,-1416,3852,-1.00,-1.0
2128,16588,-692,-60,-1.00,-1.0
2130,15592,2500,-1360,-1.00,-1.0
2132,16656,-404,884,-1.00,-1.0
2134,18532,-1892,1380,-1.00,-1.0
2136,16428,3276,512,-1.00,-1.0
2138,17548,40,-3192,-1.00,-1.0
2140,19184,-1792,4596,-1.00,-1.0
2142,16100,328,3240,-1.00,-1.0
2144,14912,-264,-3188,-1.00,-1.0
2146,17200,816,-816,-1.00,-1.0
2150,17192,-520,1784,-1.00,-1.0
2152,16112,4296,1328,-1.00,-1.0
2154,17780,-448,-5992,-1.00,-1.0
2156,19360,-1612,2624,-1.00,-1.0
2158,17112,-2384,2768,-1.00,-1.0
2160,14216,-468,988,-1.00,-1.0
2162,15780,3512,-436,-1.00,-1.0
2164,17584,-868,-3908,-1.00,-1.0
2166,19588,-2104,4036,-1.00,-1.0
2168,16956,-172,1976,-1.00,-1.0
2170,14520,-56,-516,-1.00,-1.0
2172,16992,1084,-2160,-1.00,-1.0
2174,17828,-1316,-1476,-1.00,-1.0
2176,18460,-564,3332,-1.00,-1.0
2177,15636,1384,2196,-1.00,-1.0
2179,15200,280,-1952,-1.00,-1.0
2184,18632,-236,4588,-1.00,-1.0
2186,17044,1624,-4516,-1.00,-1.0
2187,16292,3776,-716,-1.00,-1.0
2189,18032,-2144,-1092,-1.00,-1.0
2191,17596,-3764,6508,-1.00,-1.0
2193,14272,-184,1724,-1.00,-1.0
2195,14144,-312,556,-1.00,-1.0
2197,17992,-1560,2328,-1.00,-1.0
2199,14576,1344,3272,-1.00,-1.0
2201,14756,488,-1716,-1.00,-1.0
2203,18408,-288,1528,-1.00,-1.0
2205,19884,-1772,248,-1.00,-1.0
2207,16744,-664,-620,-1.00,-1.0
2209,15164,2856,1696,-1.00,-1.0
2211,16380,136,-4212,-1.00,-1.0
2213,18816,-1024,4336,-1.00,-1.0
2217,14728,-424,-2880,-1.00,-1.0
2219,16124,2224,-2404,-1.00,-1.0
2221,18284,-904,872,-1.00,-1.0
2223,18380,-1088,4060,-1.00,-1.0
2225,16024,864,1612,-1.00,-1.0
2227,15720,-504,-2068,-1.00,-1.0
2228,17500,-424,1136,-1.00,-1.0
2230,18896,-508,3288,-1.00,-1.0
2232,16396,-20,-3804,-1.00,-1.0
2234,15612,1988,-1132,-1.00,-1.0
2236,17740,-596,1280,-1.00,-1.0
2238,16092,728,-1724,-1.00,-1.0
2240,16848,-648,-1180,-1.00,-1.0
2242,16032,-588,816,-1.00,-1.0
2244,16780,-1168,1508,-1.00,-1.0
2246,16224,1224,3948,-1.00,-1.0
2250,15068,1748,1664,-1.00,-1.0
2252,16796,-632,-2968,-1.00,-1.0
2254,16572,-428,-80,-1.00,-1.0
2256,15980,3956,936,-1.00,-1.0
2258,17300,-616,-1936,-1.00,-1.0
2260,18436,-1808,3816,-1.00,-1.0
2262,17300,-456,2336,-1.00,-1.0
2264,15048,-308,-308,-1.00,-1.0
2266,17356,2576,-1100,-1.00,-1.0
2268,18140,-1308,-1480,-1.00,-1.0
2270,17960,-2124,4368,-1.00,-1.0
2272,15176,2544,1752,-1.00,-1.0
2274,16592,244,-3948,-1.00,-1.0
2276,18436,-988,-72,-1.00,-1.0
2278,17516,-1084,3824,-1.00,-1.0
2279,16408,236,-2168,-1.00,-1.0
2284,17768,-2068,-5828,-1.00,-1.0
2286,18088,-1880,5168,-1.00,-1.0
2288,15712,184,2812,-1.00,-1.0
2290,13916,-824,-536,-1.00,-1.0
2292,17860,1904,-2172,-1.00,-1.0
2293,19244,-1664,1812,-1.00,-1.0
2295,17296,-1348,2752,-1.00,-1.0
2297,14404,3224,600,-1.00,-1.0
2299,17084,884,1372,-1.00,-1.0
2301,18976,-1808,-1768,-1.00,-1.0
2303,17572,-1624,2336,-1.00,-1.0
2305,16796,40,160,-1.00,-1.0
2307,14788,2020,872,-1.00,-1.0
2309,17436,980,-1488,-1.00,-1.0
2311,15572,-2104,140,-1.00,-1.0
2315,16608,-632,-3720,-1.00,-1.0
2317,17324,144,612,-1.00,-1.0
2319,16760,-1784,2356,-1.00,-1.0
2321,17948,-812,-2272,-1.00,-1.0
2323,16556,2980,-240,-1.00,-1.0
2325,16960,-1480,2016,-1.00,-1.0
2327,15276,-712,1288,-1.00,-1.0
2329,15808,1876,-2244,-1.00,-1.0
2331,17584,1064,-1368,-1.00,-1.0
2333,19308,-396,3000,-1.00,-1.0
2335,18132,-64,1756,-1.00,-1.0
2337,15936,-1516,980,-1.00,-1.0
2339,15868,696,-856,-1.00,-1.0
2341,17248,-1664,-804,-1.00,-1.0
2343,17940,-1212,3532,-1.00,-1.0
2345,14940,1144,2364,-1.00,-1.0
2349,18376,-400,-428,-1.00,-1.0
2351,18320,-1544,4416,-1.00,-1.0
2353,16044,264,564,-1.00,-1.0
2355,15884,3288,-2136,-1.00,-1.0
2357,18212,188,-1760,-1.00,-1.0
2359,18676,-872,4116,-1.00,-1.0
2360,16044,680,2964,-1.00,-1.0
2362,15364,-384,-1836,-1.00,-1.0
2364,17564,140,644,-1.00,-1.0
2366,18648,-2480,-160,-1.00,-1.0
2368,17152,-936,2132,-1.00,-1.0
2370,15384,1576,2156,-1.00,-1.0
2372,14848,-96,-3436,-1.00,-1.0
2374,17852,-1488,1604,-1.00,-1.0
2376,17780,-1444,4172,-1.00,-1.0
2378,17312,-128,-1672,-1.00,-1.0
2382,17976,-304,2276,-1.00,-1.0
2384,17704,-272,-640,-1.00,-1.0
2386,16372,2880,2532,-1.00,-1.0
2388,16956,-1552,3064,-1.00,-1.0
2390,16224,-864,312,-1.00,-1.0
2392,15752,1540,-1500,-1.00,-1.0
2394,17196,716,108,-1.00,-1.0
2396,18768,-1244,-796,-1.00,-1.0
2398,17780,-1788,4032,-1.00,-1.0
2400,15372,-1048,-284,-1.00,-1.0
2402,14820,2080,12,-1.00,-1.0
2404,18360,-28,-1876,-1.00,-1.0
2406,18696,-932,1024,-1.00,-1.0
2408,17516,132,3984,-1.00,-1.0
2410,15328,-1548,-2336,-1.00,-1.0
2411,16360,-28,1396,-1.00,-1.0
2416,16412,-668,1664,-1.00,-1.0
2418,16392,3236,-1004,-1.00,-1.0
2420,18344,1464,-2868,-1.00,-1.0
2421,19640,-376,-804,-1.00,-1.0
2424,17924,-128,5568,-1.00,-1.0
2425,15148,-204,-1260,-1.00,-1.0
2427,15096,1968,-468,-1.00,-1.0
2429,18320,256,-1140,-1.00,-1.0
2431,18244,-2100,772,-1.00,-1.0
2433,16788,156,3188,-1.00,-1.0
2435,14400,-284,-1376,-1.00,-1.0
2437,16692,448,924,-1.00,-1.0
2439,18944,-1224,56,-1.00,-1.0
2441,17364,-2220,1344,-1.00,-1.0
2443,17316,-336,-552,-1.00,-1.0
2445,18792,-984,4428,-1.00,-1.0
2449,16876,-32,3552,-1.00,-1.0
2451,16496,0,-1188,-1.00,-1.0
2453,17404,872,-1576,-1.00,-1.0
2455,16200,460,1236,-1.00,-1.0
2457,16156,896,2356,-1.00,-1.0
2459,18056,-168,-2252,-1.00,-1.0
2461,18712,-1252,1560,-1.00,-1.0
2463,17532,4,336,-1.00,-1.0
2465,15880,1300,1152,-1.00,-1.0
2467,16656,1788,-1592,-1.00,-1.0
2469,17488,280,-416,-1.00,-1.0
2471,17408,-620,4240,-1.00,-1.0
2473,16592,140,764,-1.00,-1.0
2475,15764,2008,1092,-1.00,-1.0
2476,17900,-80,-1704,-1.00,-1.0
2478,18244,-1640,632,-1.00,-1.0
2480,16860,452,1848,-1.00,-1.0
2484,17376,180,824,-1.00,-1.0
2486,17488,-2772,1652,-1.00,-1.0
2488,16340,-864,1892,-1.00,-1.0
2490,15784,1600,-296,-1.00,-1.0
2492,16496,728,-1988,-1.00,-1.0
2494,18524,-308,760,-1.00,-1.0
2496,15436,1252,248,-1.00,-1.0
2498,17756,96,-3024,-1.00,-1.0
2500,18760,-204,1380,-1.00,-1.0
2502,17356,412,2044,-1.00,-1.0
2504,15384,-188,-516,-1.00,-1.0
2506,16644,1120,-924,-1.00,-1.0
2508,18212,-1824,2028,-1.00,-1.0
2510,16940,-1744,2496,-1.00,-1.0
2512,15604,1308,196,-1.00,-1.0
2513,16480,-116,-2160,-1.00,-1.0
2518,17428,-168,5300,-1.00,-1.0
2520,16000,-612,-764,-1.00,-1.0
2522,15936,1252,-620,-1.00,-1.0
2524,17964,128,-512,-1.00,-1.0
2526,17844,-2228,1044,-1.00,-1.0
2528,16660,436,3968,-1.00,-1.0
2529,14964,-88,-2996,-1.00,-1.0
2531,17104,960,-204,-1.00,-1.0
2533,18504,-2268,2324,-1.00,-1.0
2535,16288,-1800,3112,-1.00,-1.0
2537,15620,2204,-528,-1.00,-1.0
2539,16828,308,-912,-1.00,-1.0
2541,18168,-1100,1256,-1.00,-1.0
2543,17560,1236,3552,-1.00,-1.0
2545,17172,356,-2276,-1.00,-1.0
2547,17092,-1432,3172,-1.00,-1.0
2551,17188,-1204,720,-1.00,-1.0
2553,15520,756,2492,-1.00,-1.0
2555,15728,-780,-3400,-1.00,-1.0
2557,17404,-576,1444,-1.00,-1.0
2559,17776,-880,-500,-1.00,-1.0
2561,16928,588,1468,-1.00,-1.0
2563,17812,-228,-1816,-1.00,-1.0
2565,17508,-1920,3508,-1.00,-1.0
2567,16696,-984,480,-1.00,-1.0
2569,15208,1180,1888,-1.00,-1.0
2571,16904,928,-1980,-1.00,-1.0
2573,18760,-244,-988,-1.00,-1.0
2575,17844,124,2948,-1.00,-1.0
2577,16248,172,-1016,-1.00,-1.0
2578,17364,976,1068,-1.00,-1.0
2580,16772,-2072,2592,-1.00,-1.0
2585,16624,2052,-44,-1.00,-1.0
2587,17820,976,408,-1.00,-1.0
2588,18556,-1096,-888,-1.00,-1.0
2590,17660,-1440,3068,-1.00,-1.0
2592,15352,-828,424,-1.00,-1.0
2594,14920,320,964,-1.00,-1.0
2596,17056,-432,-508,-1.00,-1.0
2598,17764,-1016,-444,-1.00,-1.0
2600,17060,252,3480,-1.00,-1.0
2602,16456,1316,-2360,-1.00,-1.0
2604,16932,2192,364,-1.00,-1.0
2606,19692,-280,256,-1.00,-1.0
2608,17564,-1604,1828,-1.00,-1.0
2610,15484,1236,1176,-1.00,-1.0
2612,15500,432,-2148,-1.00,-1.0
2614,17612,-288,1664,-1.00,-1.0
2618,15696,-1120,540,-1.00,-1.0
2620,16012,1604,-704,-1.00,-1.0
2622,17448,-628,2752,-1.00,-1.0
2624,15900,100,-104,-1.00,-1.0
2626,15984,1156,592,-1.00,-1.0
2628,18184,-1168,-2652,-1.00,-1.0
2630,18352,-1520,2056,-1.00,-1.0
2632,16328,432,1500,-1.00,-1.0
2634,15084,-264,-916,-1.00,-1.0
2636,17204,152,-524,-1.00,-1.0
2637,17724,-1140,3048,-1.00,-1.0
2639,17016,-604,1260,-1.00,-1.0
2641,15644,1472,-840,-1.00,-1.0
2643,17632,-80,-836,-1.00,-1.0
2645,18096,-1304,-240,-1.00,-1.0
2647,16088,268,3712,-1.00,-1.0
2651,16364,272,676,-1.00,-1.0
2653,17808,-52,-1444,-1.00,-1.0
2655,17412,-1468,-316,-1.00,-1.0
2657,16932,440,3196,-1.00,-1.0
2659,15740,576,-2092,-1.00,-1.0
2661,16920,1912,-224,-1.00,-1.0
2663,18700,-1088,1092,-1.00,-1.0
2665,17132,-1640,2800,-1.00,-1.0
2667,16444,1048,408,-1.00,-1.0
2669,16244,-564,-820,-1.00,-1.0
2671,17416,-624,-1384,-1.00,-1.0
2673,17072,1432,1432,-1.00,-1.0
2675,17120,-1000,-1192,-1.00,-1.0
2677,16788,-1888,2800,-1.00,-1.0
2679,16236,-580,284,-1.00,-1.0
2680,15668,-1596,2780,-1.00,-1.0
2685,17628,484,-148,-1.00,-1.0
2687,18148,-1408,1672,-1.00,-1.0
2689,16824,-520,1660,-1.00,-1.0
2690,16060,320,1860,-1.00,-1.0
2693,16736,4,-2420,-1.00,-1.0
2695,17508,-1300,1592,-1.00,-1.0
2696,17720,-1628,2532,-1.00,-1.0
2698,15008,216,1956,-1.00,-1.0
2700,16112,728,-1292,-1.00,-1.0
2702,18188,-508,-628,-1.00,-1.0
2704,18080,-304,2780,-1.00,-1.0
2706,16852,-588,156,-1.00,-1.0
2708,15664,764,1220,-1.00,-1.0
2710,17052,-120,-660,-1.00,-1.0
2712,17388,-1164,1900,-1.00,-1.0
2714,16876,-144,1512,-1.00,-1.0
2718,17696,1280,-96,-1.00,-1.0
2720,18384,212,-2060,-1.00,-1.0
2722,15220,-420,156,-1.00,-1.0
2724,16276,552,344,-1.00,-1.0
2726,18064,-940,84,-1.00,-1.0
2728,18040,-1128,-316,-1.00,-1.0
2730,16408,880,3024,-1.00,-1.0
2731,16136,964,-3592,-1.00,-1.0
2734,17572,900,160,-1.00,-1.0
2735,18868,-1132,1456,-1.00,-1.0
2737,16564,-920,3048,-1.00,-1.0
2739,15316,1364,-1604,-1.00,-1.0
2741,16564,656,-408,-1.00,-1.0
2743,18388,-1512,1168,-1.00,-1.0
2745,17280,104,1388,-1.00,-1.0
2747,16196,292,-1448,-1.00,-1.0
2751,18368,100,660,-1.00,-1.0
2753,17988,-1184,188,-1.00,-1.0
2755,16212,312,2584,-1.00,-1.0
2757,16092,588,-2588,-1.00,-1.0
2759,17148,1340,-124,-1.00,-1.0
2761,19832,620,1548,-1.00,-1.0
2763,15268,-1444,776,-1.00,-1.0
2765,17044,-740,400,-1.00,-1.0
2767,17340,-452,1556,-1.00,-1.0
2769,17924,88,344,-1.00,-1.0
2771,16496,768,-688,-1.00,-1.0
2772,16736,-928,1260,-1.00,-1.0
2775,17172,-168,784,-1.00,-1.0
2776,16448,1180,1648,-1.00,-1.0
2778,17960,-360,-640,-1.00,-1.0
2780,17148,-12,1644,-1.00,-1.0
2784,17188,-244,1380,-1.00,-1.0
2786,17508,44,276,-1.00,-1.0
2788,16280,-304,816,-1.00,-1.0
2790,16524,1856,624,-1.00,-1.0
2792,16920,-1088,-212,-1.00,-1.0
2794,17420,-1052,4556,-1.00,-1.0
2796,16928,536,800,-1.00,-1.0
2798,15556,-944,-688,-1.00,-1.0
2800,17576,868,292,-1.00,-1.0
2802,17136,324,2588,-1.00,-1.0
2804,18468,108,1584,-1.00,-1.0
2806,16488,1736,-788,-1.00,-1.0
2808,16636,1692,-640,-1.00,-1.0
2810,18436,476,-140,-1.00,-1.0
2812,18852,-636,2276,-1.00,-1.0
2814,15980,1196,-1812,-1.00,-1.0
2816,18896,-396,-360,-1.00,-1.0
2820,18396,-1384,516,-1.00,-1.0
2822,18328,-800,968,-1.00,-1.0
2824,16364,-80,1212,-1.00,-1.0
2826,18384,-1404,56,-1.00,-1.0
2828,17336,-1088,1084,-1.00,-1.0
2830,16860,256,-88,-1.00,-1.0
2832,15736,324,260,-1.00,-1.0
2833,16648,-228,1148,-1.00,-1.0
2835,18636,-1596,-364,-1.00,-1.0
2837,16380,-300,2100,-1.00,-1.0
2839,16444,268,-2208,-1.00,-1.0
2841,15828,-864,-340,-1.00,-1.0
2843,17440,-156,1336,-1.00,-1.0
2845,17680,-140,1216,-1.00,-1.0
2847,16880,-540,1348,-1.00,-1.0
2849,15980,48,-1708,-1.00,-1.0
2853,18880,-1328,2200,-1.00,-1.0
2855,17828,-1436,-184,-1.00,-1.0
2857,15204,576,1980,-1.00,-1.0
2859,15500,-48,-2444,-1.00,-1.0
2861,17516,124,1180,-1.00,-1.0
2863,18536,-964,1816,-1.00,-1.0
2865,16640,-512,-232,-1.00,-1.0
2867,16100,1192,-844,-1.00,-1.0
2869,15860,568,488,-1.00,-1.0
2871,17952,-524,864,-1.00,-1.0
2873,18412,-484,1876,-1.00,-1.0
2875,16408,-592,-1236,-1.00,-1.0
2877,18196,-1020,2536,-1.00,-1.0
2879,18020,-352,1948,-1.00,-1.0
2881,15272,-72,-60,-1.00,-1.0
2882,15840,1516,1268,-1.00,-1.0
2887,18412,-1220,2420,-1.00,-1.0
2889,17168,868,-36,-1.00,-1.0
2891,15484,-1848,-2468,-1.00,-1.0
2892,15908,-716,2280,-1.00,-1.0
2894,16900,-1376,1120,-1.00,-1.0
2896,17964,-384,2384,-1.00,-1.0
2898,17024,1552,-852,-1.00,-1.0
2900,16704,60,-1364,-1.00,-1.0
2902,17244,0,1500,-1.00,-1.0
2904,17200,640,4572,-1.00,-1.0
2906,17600,-664,-3380,-1.00,-1.0
2908,17000,-384,1024,-1.00,-1.0
2910,16112,-756,-1028,-1.00,-1.0
2912,15288,-1220,1964,-1.00,-1.0
2914,17768,-420,1764,-1.00,-1.0
2916,17844,-1576,-1012,-1.00,-1.0
2920,17008,-128,-2592,-1.00,-1.0
2922,16896,-212,4360,-1.00,-1.0
2924,17520,112,2924,-1.00,-1.0
2926,16424,-664,-2908,-1.00,-1.0
2928,16924,-484,1824,-1.00,-1.0
2930,17288,-1488,1324,-1.00,-1.0
2932,16552,-440,2552,-1.00,-1.0
2934,16764,1468,-2864,-1.00,-1.0
2936,17104,-148,1256,-1.00,-1.0
2938,17724,-24,624,-1.00,-1.0
2940,16616,284,1580,-1.00,-1.0
2941,16396,-100,-1460,-1.00,-1.0
2944,17300,192,3508,-1.00,-1.0
2945,18240,-960,-1348,-1.00,-1.0
2947,17992,792,3644,-1.00,-1.0
2949,17452,1520,-1004,-1.00,-1.0
2953,17552,904,1352,-1.00,-1.0
2955,18024,-1260,1660,-1.00,-1.0
2957,16584,28,1696,-1.00,-1.0
2959,15684,836,-2004,-1.00,-1.0
2961,16252,424,-632,-1.00,-1.0
2963,18316,708,2920,-1.00,-1.0
2965,17040,-228,-700,-1.00,-1.0
2967,17452,540,1584,-1.00,-1.0
2969,17188,256,-1692,-1.00,-1.0
2971,17020,-432,-692,-1.00,-1.0
2973,16416,-768,896,-1.00,-1.0
2975,15460,-2232,2240,-1.00,-1.0
2977,15476,-344,48,-1.00,-1.0
2979,16744,220,-948,-1.00,-1.0
2981,19732,-1188,-1124,-1.00,-1.0
2983,18172,-164,1552,-1.00,-1.0
2987,15500,1684,-820,-1.00,-1.0
2989,17748,860,2916,-1.00,-1.0
2991,18948,-2108,596,-1.00,-1.0
2993,16444,-552,3688,-1.00,-1.0
2995,15696,2216,-916,-1.00,-1.0
2997,16672,1680,-2296,-1.00,-1.0
2999,16224,-648,1416,-1.00,-1.0
3000,14072,812,176,-1.00,-1.0
3002,17072,324,-2552,-1.00,-1.0
3004,18304,-1640,2924,-1.00,-1.0
3006,17552,-2256,2316,-1.00,-1.0
3008,15816,0,936,-1.00,-1.0
3010,15512,572,-1440,-1.00,-1.0
3012,18628,-444,-2440,-1.00,-1.0
3014,18448,-588,3468,-1.00,-1.0
3016,16732,-1484,1956,-1.00,-1.0
3020,16680,804,-892,-1.00,-1.0
3022,18028,-2400,344,-1.00,-1.0
3024,17488,-2436,1756,-1.00,-1.0
3026,14596,-624,1524,-1.00,-1.0
3028,15040,272,240,-1.00,-1.0
3030,17372,-32,-3228,-1.00,-1.0
3032,18872,-1640,2264,-1.00,-1.0
3034,16940,216,1008,-1.00,-1.0
3036,14740,1564,-1664,-1.00,-1.0
3038,17936,2104,-1192,-1.00,-1.0
3040,18676,-712,-1392,-1.00,-1.0
3041,15908,2272,-1460,-1.00,-1.0
3043,17300,1504,-1120,-1.00,-1.0
3045,19736,-392,748,-1.00,-1.0
3047,17900,-1868,1688,-1.00,-1.0
3049,15264,316,1612,-1.00,-1.0
3053,17272,312,-3988,-1.00,-1.0
3055,19400,-16,2676,-1.00,-1.0
3057,17400,-1924,2008,-1.00,-1.0
3059,15916,-848,-2864,-1.00,-1.0
3061,16596,620,-168,-1.00,-1.0
3063,17580,-2648,1008,-1.00,-1.0
3065,15496,-1220,1580,-1.00,-1.0
3067,15868,1844,2128,-1.00,-1.0
3069,16768,-340,-3192,-1.00,-1.0
3071,19328,-432,812,-1.00,-1.0
3073,18604,-620,1816,-1.00,-1.0
3075,15868,-472,2376,-1.00,-1.0
3077,15924,-344,1292,-1.00,-1.0
3079,17060,1524,908,-1.00,-1.0
3081,18152,-264,856,-1.00,-1.0
3083,18800,-272,-752,-1.00,-1.0
3087,16468,1748,1260,-1.00,-1.0
3089,16700,540,-776,-1.00,-1.0
3091,17892,-52,4988,-1.00,-1.0
3093,17244,136,1928,-1.00,-1.0
3095,16576,396,-2508,-1.00,-1.0
3097,16868,1028,-160,-1.00,-1.0
3099,18076,-3272,2100,-1.00,-1.0
3100,17012,2708,-1396,-1.00,-1.0
3103,14536,-1432,3540,-1.00,-1.0
3105,15652,160,-3348,-1.00,-1.0
3106,16764,-64,5616,-1.00,-1.0
3108,14496,-368,464,-1.00,-1.0
3110,15236,4,1028,-1.00,-1.0
3112,17832,-792,992,-1.00,-1.0
3114,17516,-1684,-3348,-1.00,-1.0
3116,17520,184,780,-1.00,-1.0
3120,15952,1084,-1844,-1.00,-1.0
3122,16796,1436,960,-1.00,-1.0
3124,18368,-2164,2172,-1.00,-1.0
3126,17556,-636,2408,-1.00,-1.0
3128,15524,2836,-2308,-1.00,-1.0
3130,17240,-184,-4144,-1.00,-1.0
3132,17628,-676,4388,-1.00,-1.0
3134,17164,-1528,2120,-1.00,-1.0
3136,15572,-204,504,-1.00,-1.0
3138,16776,1636,-2708,-1.00,-1.0
3140,18684,-632,-1252,-1.00,-1.0
3142,17828,-76,4976,-1.00,-1.0
3144,15228,-536,-2704,-1.00,-1.0
3146,15660,-440,2216,-1.00,-1.0
3148,17780,884,548,-1.00,-1.0
3150,16624,-1160,-4788,-1.00,-1.0
3154,16600,508,2468,-1.00,-1.0
3156,15664,1488,-472,-1.00,-1.0
3158,16468,3084,-288,-1.00,-1.0
3160,18748,-1160,1116,-1.00,-1.0
3162,18880,-316,548,-1.00,-1.0
3164,16020,2980,-1420,-1.00,-1.0
3165,16196,-1580,-2940,-1.00,-1.0
3167,18112,1056,-496,-1.00,-1.0
3169,17360,-2368,-1084,-1.00,-1.0
3171,16120,724,-656,-1.00,-1.0
3173,17032,796,3148,-1.00,-1.0
3175,18232,-2948,1732,-1.00,-1.0
3177,16708,-1132,248,-1.00,-1.0
3179,15716,1532,864,-1.00,-1.0
3181,16616,-576,-1744,-1.00,-1.0
3183,17860,2504,1856,-1.00,-1.0
3187,17580,-1936,1812,-1.00,-1.0
3189,14088,812,488,-1.00,-1.0
3191,16304,-592,104,-1.00,-1.0
3193,18412,288,520,-1.00,-1.0
3195,17736,2048,2280,-1.00,-1.0
3197,17272,-508,-7628,-1.00,-1.0
3199,17372,1208,4248,-1.00,-1.0
3201,16932,-3944,-28,-1.00,-1.0
3203,16236,-604,1248,-1.00,-1.0
3205,15592,1232,-168,-1.00,-1.0
3207,15608,-452,-640,-1.00,-1.0
3209,17428,716,2264,-1.00,-1.0
3211,17980,-2528,-552,-1.00,-1.0
3213,16860,-396,184,-1.00,-1.0
3214,16664,1760,1868,-1.00,-1.0
3216,17288,-1276,1976,-1.00,-1.0
3221,17280,-2300,-900,-1.00,-1.0
3223,17460,-1204,2260,-1.00,-1.0
3224,15260,1452,-376,-1.00,-1.0
3226,18952,452,4512,-1.00,-1.0
3228,18816,-1204,4132,-1.00,-1.0
3230,16244,3188,-480,-1.00,-1.0
3232,18480,-1936,140,-1.00,-1.0
3234,18064,-1052,4372,-1.00,-1.0
3236,16072,796,1984,-1.00,-1.0
3238,14596,-216,-3560,-1.00,-1.0
3240,17120,416,1108,-1.00,-1.0
3242,19136,-2892,776,-1.00,-1.0
3244,17200,-52,3124,-1.00,-1.0
3246,15324,2512,-604,-1.00,-1.0
3248,16176,908,-2892,-1.00,-1.0
3250,18348,496,2440,-1.00,-1.0
3254,17728,-1060,2136,-1.00,-1.0
3256,18028,-748,4240,-1.00,-1.0
3258,16564,-1468,-2604,-1.00,-1.0
3260,18740,-1388,4968,-1.00,-1.0
3262,17228,-2852,3824,-1.00,-1.0
3264,14120,-308,-744,-1.00,-1.0
3266,15388,3604,-2732,-1.00,-1.0
3268,19728,-172,1224,-1.00,-1.0
3270,19020,-1116,3116,-1.00,-1.0
3272,16844,120,4112,-1.00,-1.0
3274,15124,148,-792,-1.00,-1.0
3276,16036,2448,1172,-1.00,-1.0
3278,18416,-420,-1536,-1.00,-1.0
3280,18224,408,1496,-1.00,-1.0
3282,17152,-2268,4480,-1.00,-1.0
3284,15160,-40,64,-1.00,-1.0
3288,19564,-172,-1776,-1.00,-1.0
3290,19184,-392,352,-1.00,-1.0
3292,16744,472,1384,-1.00,-1.0
3293,15316,-344,796,-1.00,-1.0
3296,15864,944,2672,-1.00,-1.0
3297,18028,-2284,-2872,-1.00,-1.0
3299,18184,-2544,2760,-1.00,-1.0
3301,16864,2180,-708,-1.00,-1.0
3303,18488,-2132,1456,-1.00,-1.0
3305,19048,-744,1392,-1.00,-1.0
3307,16680,1596,1684,-1.00,-1.0
3309,15032,-120,-2956,-1.00,-1.0
3311,16436,2572,596,-1.00,-1.0
3313,19248,-1652,-808,-1.00,-1.0
3315,18560,-1364,2216,-1.00,-1.0
3317,15236,944,-2160,-1.00,-1.0
3321,17332,1416,2960,-1.00,-1.0
3323,17672,-672,-804,-1.00,-1.0
3325,18008,408,168,-1.00,-1.0
3327,16864,3376,592,-1.00,-1.0
3329,16696,1500,-5716,-1.00,-1.0
3331,18772,416,2712,-1.00,-1.0
3333,17328,-1164,1512,-1.00,-1.0
3335,16640,676,-172,-1.00,-1.0
3337,17284,4244,2196,-1.00,-1.0
3339,15964,900,-5532,-1.00,-1.0
3341,19380,1340,1832,-1.00,-1.0
3342,19132,-764,-128,-1.00,-1.0
3345,16856,-160,1840,-1.00,-1.0
3346,16324,3164,952,-1.00,-1.0
3348,15084,-496,-5396,-1.00,-1.0
3350,16988,-480,1360,-1.00,-1.0
3354,15256,1264,-5496,-1.00,-1.0
3356,15772,1108,-388,-1.00,-1.0
3358,17748,-1848,5088,-1.00,-1.0
3360,17348,-460,-3024,-1.00,-1.0
3362,17120,1328,-680,-1.00,-1.0
3364,17100,140,720,-1.00,-1.0
3366,16880,-612,260,-1.00,-1.0
3368,17348,1104,156,-1.00,-1.0
3370,16976,840,-1752,-1.00,-1.0
3372,16920,1732,572,-1.00,-1.0
3374,17236,-920,1496,-1.00,-1.0
3376,18000,252,644,-1.00,-1.0
3378,17284,2424,-208,-1.00,-1.0
3380,16676,400,-2648,-1.00,-1.0
3382,17932,208,684,-1.00,-1.0
3384,16952,-576,1852,-1.00,-1.0
3388,16372,556,528,-1.00,-1.0
3390,15820,240,-972,-1.00,-1.0
3392,17104,160,1976,-1.00,-1.0
3394,17388,-220,80,-1.00,-1.0
3396,17348,40,-528,-1.00,-1.0
3398,16924,-112,3064,-1.00,-1.0
3400,15292,48,-2060,-1.00,-1.0
3401,16028,1012,2296,-1.00,-1.0
3403,18560,-616,2840,-1.00,-1.0
3405,17244,132,812,-1.00,-1.0
3407,16680,356,960,-1.00,-1.0
3409,16940,104,2036,-1.00,-1.0
3411,16940,-1208,-568,-1.00,-1.0
3413,16652,1328,900,-1.00,-1.0
3415,17452,-792,-504,-1.00,-1.0
3417,17496,-2128,276,-1.00,-1.0
3419,16140,368,1688,-1.00,-1.0
3423,16588,1044,-240,-1.00,-1.0
3425,18416,-716,2080,-1.00,-1.0
3427,16956,-716,912,-1.00,-1.0
3429,17084,1040,464,-1.00,-1.0
3431,16764,-348,-1920,-1.00,-1.0
3433,17060,356,624,-1.00,-1.0
3435,17704,728,-120,-1.00,-1.0
3437,18048,1412,1500,-1.00,-1.0
3439,17552,2000,1916,-1.00,-1.0
3441,16024,724,32,-1.00,-1.0
3443,17812,-440,476,-1.00,-1.0
3445,17708,-836,2244,-1.00,-1.0
3447,16552,408,980,-1.00,-1.0
3449,15344,1916,-3136,-1.00,-1.0
3450,18200,-520,1708,-1.00,-1.0
3452,19000,-1636,92,-1.00,-1.0
3457,15568,880,-1296,-1.00,-1.0
3459,15800,868,-1724,-1.00,-1.0
3460,19596,-1288,1408,-1.00,-1.0
3462,17144,-1060,444,-1.00,-1.0
3464,16520,-1308,2732,-1.00,-1.0
3466,15188,-2588,44,-1.00,-1.0
3468,14956,-540,1000,-1.00,-1.0
3470,17864,-1160,540,-1.00,-1.0
3472,17628,220,400,-1.00,-1.0
3474,17088,1908,2488,-1.00,-1.0
3476,16840,-2564,1044,-1.00,-1.0
3478,17940,-1108,-1944,-1.00,-1.0
3480,16244,2348,2260,-1.00,-1.0
3482,15836,-940,-172,-1.00,-1.0
3484,16492,-1284,5064,-1.00,-1.0
3486,17596,2020,460,-1.00,-1.0
3490,19016,868,864,-1.00,-1.0
3492,17604,36,1224,-1.00,-1.0
3494,16460,444,2944,-1.00,-1.0
3496,16856,752,-108,-1.00,-1.0
3498,15860,332,-804,-1.00,-1.0
3500,18248,-520,-68,-1.00,-1.0
3502,17288,-1540,712,-1.00,-1.0
3504,17332,-304,832,-1.00,-1.0
3506,15664,2788,-1440,-1.00,-1.0
3508,16720,736,-712,-1.00,-1.0
3510,17924,-496,372,-1.00,-1.0
3511,18576,-652,3812,-1.00,-1.0
3514,16696,-1652,-972,-1.00,-1.0
3515,15004,996,68,-1.00,-1.0
3517,16892,20,-2212,-1.00,-1.0
3519,18400,-152,2724,-1.00,-1.0
3523,16460,444,2204,-1.00,-1.0
3525,17448,128,-896,-1.00,-1.0
3527,16260,-1160,-1244,-1.00,-1.0
3529,16212,-1172,-1948,-1.00,-1.0
3531,16820,2584,-1792,-1.00,-1.0
3533,16616,212,888,-1.00,-1.0
3535,15924,-2004,-2640,-1.00,-1.0
3537,16800,628,424,-1.00,-1.0
3539,16724,440,-2600,-1.00,-1.0
3541,18412,1212,3832,-1.00,-1.0
3543,17468,492,3328,-1.00,-1.0
3545,15896,-604,2240,-1.00,-1.0
3547,17432,1108,-660,-1.00,-1.0
3549,17236,-680,1252,-1.00,-1.0
3551,18472,-280,-528,-1.00,-1.0
3553,16060,932,-1480,-1.00,-1.0
3557,17864,1204,-560,-1.00,-1.0
3559,17772,-896,4368,-1.00,-1.0
3561,16420,332,-708,-1.00,-1.0
3563,16020,1172,-124,-1.00,-1.0
3565,16456,-2624,-2840,-1.00,-1.0
3567,18300,-1524,5188,-1.00,-1.0
3569,15668,1244,244,-1.00,-1.0
3570,16108,1296,-1412,-1.00,-1.0
3572,18776,1408,-6704,-1.00,-1.0
3574,18888,-1908,8784,-1.00,-1.0
3576,18032,-188,-1184,-1.00,-1.0
3578,14480,1236,1028,-1.00,-1.0
3580,17436,-1672,188,-1.00,-1.0
3582,16892,-2672,-2468,-1.00,-1.0
3584,16816,-4,3408,-1.00,-1.0
3586,17960,400,8260,-1.00,-1.0
3590,17360,-1800,-764,-1.00,-1.0
3592,15128,-992,5356,-1.00,-1.0
3594,16844,2196,-1824,-1.00,-1.0
3596,16880,624,4992,-1.00,-1.0
3598,15680,-468,-4680,-1.00,-1.0
3600,16896,688,3732,-1.00,-1.0
3602,18616,208,-708,-1.00,-1.0
3604,17568,-1856,1940,-1.00,-1.0
3606,16576,-124,1732,-1.00,-1.0
3608,16320,-2400,3644,-1.00,-1.0
3610,14924,-2464,-272,-1.00,-1.0
3612,16224,308,2736,-1.00,-1.0
3614,16148,1136,-2252,-1.00,-1.0
3616,18160,1612,4480,-1.00,-1.0
3618,18728,3312,-1352,-1.00,-1.0
3619,17768,1020,3188,-1.00,-1.0
3624,17460,-1380,4396,-1.00,-1.0
3626,17828,-248,956,-1.00,-1.0
3628,15484,-840,-3424,-1.00,-1.0
3629,17288,-2260,1076,-1.00,-1.0
3631,17328,-2224,-2488,-1.00,-1.0
3633,15804,840,2616,-1.00,-1.0
3635,15660,520,-6456,-1.00,-1.0
3637,18640,-236,4864,-1.00,-1.0
3639,18232,-1072,-1576,-1.00,-1.0
3641,15920,-1132,3940,-1.00,-1.0
3643,15820,1448,-4364,-1.00,-1.0
3645,18568,1852,4508,-1.00,-1.0
3647,16556,-3424,-1024,-1.00,-1.0
3649,14748,1316,1284,-1.00,-1.0
3651,18532,-424,3312,-1.00,-1.0
3653,15380,-2312,-460,-1.00,-1.0
3657,17560,-492,4012,-1.00,-1.0
3659,17416,1052,-268,-1.00,-1.0
3661,17500,2112,-1292,-1.00,-1.0
3663,17008,-1808,-1088,-1.00,-1.0
3665,19048,208,2916,-1.00,-1.0
3667,16132,956,-3160,-1.00,-1.0
3669,16368,744,1356,-1.00,-1.0
3671,17100,-676,-1696,-1.00,-1.0
3673,17804,908,8148,-1.00,-1.0
3675,16216,68,-9560,-1.00,-1.0
3677,17844,2116,3796,-1.00,-1.0
3679,19180,-1476,612,-1.00,-1.0
3681,16036,272,2500,-1.00,-1.0
3683,16912,3164,-4800,-1.00,-1.0
3684,16892,-240,4848,-1.00,-1.0
3686,18368,-1336,-2152,-1.00,-1.0
3691,16760,-972,-992,-1.00,-1.0
3693,16836,-2052,2608,-1.00,-1.0
3694,16480,156,3656,-1.00,-1.0
3696,15724,-856,-2580,-1.00,-1.0
3698,17256,516,2204,-1.00,-1.0
3700,18700,-1512,6028,-1.00,-1.0
3702,15420,-112,-3164,-1.00,-1.0
3704,16540,1188,2356,-1.00,-1.0
3706,18984,904,1592,-1.00,-1.0
3708,17528,-1780,-984,-1.00,-1.0
3710,16432,1796,-1960,-1.00,-1.0
3712,17252,-240,5056,-1.00,-1.0
3714,18692,896,864,-1.00,-1.0
3716,16888,1924,4320,-1.00,-1.0
3718,17680,-732,-3284,-1.00,-1.0
3720,16892,-1028,3912,-1.00,-1.0
3724,17052,1836,4188,-1.00,-1.0
3726,18188,560,-3948,-1.00,-1.0
3728,16784,668,4456,-1.00,-1.0
3730,17416,-608,-920,-1.00,-1.0
3732,17460,524,2412,-1.00,-1.0
3734,17628,2628,-180,-1.00,-1.0
3736,17020,-1528,580,-1.00,-1.0
3738,17704,-592,3244,-1.00,-1.0
3740,15788,-244,1652,-1.00,-1.0
3742,16340,72,2148,-1.00,-1.0
3743,17080,-720,-1028,-1.00,-1.0
3745,16980,-1784,4620,-1.00,-1.0
3747,16760,-2404,-2352,-1.00,-1.0
3749,16860,-872,-1676,-1.00,-1.0
3751,16936,-2348,5848,-1.00,-1.0
3753,15652,-920,-3032,-1.00,-1.0
3757,17896,1724,-3148,-1.00,-1.0
3759,18484,-1196,764,-1.00,-1.0
3761,17520,2336,-1964,-1.00,-1.0
3763,17024,320,2408,-1.00,-1.0
3765,17344,1164,-2920,-1.00,-1.0
3767,15852,776,5700,-1.00,-1.0
3769,17456,960,-1892,-1.00,-1.0
3771,18080,860,1108,-1.00,-1.0
3773,17880,3092,1224,-1.00,-1.0
3775,17428,504,1556,-1.00,-1.0
3777,16180,-3392,-5512,-1.00,-1.0
3779,16364,1384,3456,-1.00,-1.0
3781,16360,-1940,-4716,-1.00,-1.0
3783,16784,-1812,1680,-1.00,-1.0
3785,16196,668,-3480,-1.00,-1.0
3789,16892,-1764,-2464,-1.00,-1.0
3791,16472,1124,2524,-1.00,-1.0
3793,17196,192,-2692,-1.00,-1.0
3795,17884,-292,-716,-1.00,-1.0
3797,16620,1540,4568,-1.00,-1.0
3799,15748,-528,-2988,-1.00,-1.0
3800,17112,888,4380,-1.00,-1.0
3802,17760,2220,-1772,-1.00,-1.0
3804,17420,-440,2460,-1.00,-1.0
3806,18476,2008,-2112,-1.00,-1.0
3808,15992,-248,4292,-1.00,-1.0
3810,17984,1208,2140,-1.00,-1.0
3812,16712,768,416,-1.00,-1.0
3814,17792,1796,944,-1.00,-1.0
3816,18188,-568,4356,-1.00,-1.0
3818,17128,2768,-3040,-1.00,-1.0
3822,19028,-740,2328,-1.00,-1.0
3824,16876,356,880,-1.00,-1.0
3826,17096,220,196,-1.00,-1.0
3828,17424,-1792,2136,-1.00,-1.0
3830,16564,-2100,-1744,-1.00,-1.0
3832,16028,172,2760,-1.00,-1.0
3834,16136,-1804,-48,-1.00,-1.0
3836,17760,80,532,-1.00,-1.0
3838,16720,8,-428,-1.00,-1.0
3840,17068,-1088,2368,-1.00,-1.0
3842,16932,160,-1724,-1.00,-1.0
3843,17176,1172,2036,-1.00,-1.0
3845,17072,-2744,4328,-1.00,-1.0
3847,15980,120,-2340,-1.00,-1.0
3849,16952,296,2920,-1.00,-1.0
3851,17364,1124,-860,-1.00,-1.0
3853,17652,-1572,-2212,-1.00,-1.0
3857,16416,-4540,6404,-1.00,-1.0
3859,15996,152,-1900,-1.00,-1.0
3861,15808,1148,792,-1.00,-1.0
3863,17904,-452,-1548,-1.00,-1.0
3865,18840,996,260,-1.00,-1.0
3867,17876,1108,1156,-1.00,-1.0
3869,16244,-2236,4328,-1.00,-1.0
3871,16044,-524,-508,-1.00,-1.0
3873,16808,80,3116,-1.00,-1.0
3875,16120,-2000,-472,-1.00,-1.0
3877,17424,132,-1276,-1.00,-1.0
3879,17188,-512,1352,-1.00,-1.0
3881,16936,-840,4864,-1.00,-1.0
3883,18160,-1184,952,-1.00,-1.0
3885,17540,1476,-420,-1.00,-1.0
3889,16812,-4,-680,-1.00,-1.0
3891,16656,-224,1692,-1.00,-1.0
3893,16912,696,-2656,-1.00,-1.0
3895,17736,-1284,2848,-1.00,-1.0
3897,16684,476,208,-1.00,-1.0
3899,16008,584,-1364,-1.00,-1.0
3901,17680,-1836,4932,-1.00,-1.0
3903,16684,408,-1456,-1.00,-1.0
3904,16492,-20,2308,-1.00,-1.0
3906,17260,-212,-4780,-1.00,-1.0
3908,17888,-856,1996,-1.00,-1.0
3910,16876,-1148,-2812,-1.00,-1.0
3912,15804,-2284,6904,-1.00,-1.0
3914,15696,-760,-2820,-1.00,-1.0
3916,16096,928,696,-1.00,-1.0
3918,17868,-1868,-3576,-1.00,-1.0
3922,14992,-1120,40,-1.00,-1.0
3924,15756,-1828,3324,-1.00,-1.0
3926,15628,-1292,-128,-1.00,-1.0
3928,16512,1024,1060,-1.00,-1.0
3930,17504,-1716,376,-1.00,-1.0
3932,19204,-548,104,-1.00,-1.0
3934,16088,-412,2112,-1.00,-1.0
3936,16792,680,1148,-1.00,-1.0
3938,16124,320,832,-1.00,-1.0
3940,17724,1588,-292,-1.00,-1.0
3942,17496,-56,1852,-1.00,-1.0
3944,16248,-1952,-1080,-1.00,-1.0
3946,16556,-292,828,-1.00,-1.0
3948,17088,784,1932,-1.00,-1.0
3950,16996,-1448,440,-1.00,-1.0
3952,17844,-280,2680,-1.00,-1.0
3953,15392,620,-4,-1.00,-1.0
3958,17140,612,-2152,-1.00,-1.0
3960,17292,1148,1668,-1.00,-1.0
3962,18508,-744,-2464,-1.00,-1.0
3963,18036,-1792,2128,-1.00,-1.0
3966,15960,-1348,1584,-1.00,-1.0
3968,14968,368,4072,-1.00,-1.0
3969,16456,292,-3832,-1.00,-1.0
3971,18704,368,-396,-1.00,-1.0
3973,18604,-1880,-380,-1.00,-1.0
3975,16460,-300,480,-1.00,-1.0
3977,15584,672,448,-1.00,-1.0
3979,16268,528,-704,-1.00,-1.0
3981,17768,-744,780,-1.00,-1.0
3983,17232,1076,-2044,-1.00,-1.0
3985,17208,-216,2508,-1.00,-1.0
3987,17932,396,-1092,-1.00,-1.0
3991,16812,420,-2964,-1.00,-1.0
3993,18608,-880,2896,-1.00,-1.0
3995,17112,472,-1456,-1.00,-1.0
3997,15204,-440,1464,-1.00,-1.0
3999,17020,-972,-1224,-1.00,-1.0
4001,16756,-88,-664,-1.00,-1.0
4003,16924,-180,2000,-1.00,-1.0
4005,17200,368,2868,-1.00,-1.0
4007,16948,-116,1528,-1.00,-1.0
4009,16208,428,-1476,-1.00,-1.0
4011,16956,320,1440,-1.00,-1.0
4013,17524,80,104,-1.00,-1.0
4015,17664,1688,-644,-1.00,-1.0
4017,17232,-1768,3116,-1.00,-1.0
4018,17148,-432,-1480,-1.00,-1.0
4020,16540,-304,2036,-1.00,-1.0
4025,17828,-776,416,-1.00,-1.0
4027,17316,1264,-2136,-1.00,-1.0
4028,16712,-1636,2900,-1.00,-1.0
4030,16808,-916,368,-1.00,-1.0
4032,15640,-296,2312,-1.00,-1.0
4034,15680,652,-1104,-1.00,-1.0
4036,18264,-1800,108,-1.00,-1.0
4038,17580,-852,-2728,-1.00,-1.0
4040,16148,-1684,3924,-1.00,-1.0
4042,15764,-1504,552,-1.00,-1.0
4044,15668,1284,736,-1.00,-1.0
4046,17368,716,-600,-1.00,-1.0
4048,19100,-1036,2688,-1.00,-1.0
4050,17652,404,-72,-1.00,-1.0
4052,16600,1152,1096,-1.00,-1.0
4054,17136,-1880,2680,-1.00,-1.0
4058,16716,296,568,-1.00,-1.0
4060,18040,1004,-1240,-1.00,-1.0
4062,18280,-396,1036,-1.00,-1.0
4064,16172,120,1028,-1.00,-1.0
4066,16864,1156,-2012,-1.00,-1.0
4068,18924,-932,520,-1.00,-1.0
4070,17768,276,-1200,-1.00,-1.0
4071,15936,-420,4576,-1.00,-1.0
4073,16068,540,-380,-1.00,-1.0
4075,17768,124,328,-1.00,-1.0
4077,17768,596,-456,-1.00,-1.0
4079,17160,-1168,932,-1.00,-1.0
4081,16308,-1652,-1976,-1.00,-1.0
4083,16072,-784,2264,-1.00,-1.0
4085,16196,-1848,88,-1.00,-1.0
4087,16312,32,692,-1.00,-1.0
4091,17600,-180,2348,-1.00,-1.0
4093,16784,-228,-1396,-1.00,-1.0
4095,16324,880,136,-1.00,-1.0
4097,17556,-2628,2696,-1.00,-1.0
4099,16492,-580,1128,-1.00,-1.0
4101,14772,144,-492,-1.00,-1.0
4103,17124,40,260,-1.00,-1.0
4105,19032,-1252,24,-1.00,-1.0
4107,16448,-300,2452,-1.00,-1.0
4109,16488,-2860,1520,-1.00,-1.0
4111,15316,980,876,-1.00,-1.0
4113,16696,1072,4,-1.00,-1.0
4115,18036,-784,-1448,-1.00,-1.0
4117,19408,-1140,752,-1.00,-1.0
4119,15528,1544,388,-1.00,-1.0
4121,18096,1164,-2152,-1.00,-1.0
4125,17992,964,2728,-1.00,-1.0
4127,18120,-1468,1568,-1.00,-1.0
4129,17572,60,-784,-1.00,-1.0
4131,17228,-808,2452,-1.00,-1.0
4133,16784,780,-3060,-1.00,-1.0
4135,17612,1580,572,-1.00,-1.0
4136,17624,952,-3948,-1.00,-1.0
4138,17036,1072,2048,-1.00,-1.0
4140,17180,-544,-1032,-1.00,-1.0
4142,16220,272,1668,-1.00,-1.0
4144,16568,1372,-3320,-1.00,-1.0
4146,18088,1088,1112,-1.00,-1.0
4148,17872,752,-2224,-1.00,-1.0
4150,16900,1880,-1488,-1.00,-1.0
4152,17956,-1216,-1796,-1.00,-1.0
4154,17144,-92,2568,-1.00,-1.0
4158,16380,1452,236,-1.00,-1.0
4160,18292,696,-3668,-1.00,-1.0
4162,17632,792,-1728,-1.00,-1.0
4164,17872,-1400,1288,-1.00,-1.0
4166,16544,744,-696,-1.00,-1.0
4168,15704,1124,380,-1.00,-1.0
4170,17364,-780,-1056,-1.00,-1.0
4172,18564,996,-64,-1.00,-1.0
4174,17496,468,-2980,-1.00,-1.0
4176,17540,708,1552,-1.00,-1.0
4178,17564,1124,-3120,-1.00,-1.0
4180,16984,-324,964,-1.00,-1.0
4182,17412,-636,-1992,-1.00,-1.0
4184,17016,-1364,40,-1.00,-1.0
4185,15992,-136,4176,-1.00,-1.0
4187,16812,-56,-424,-1.00,-1.0
4192,17560,-408,1244,-1.00,-1.0
4194,16020,-1292,2324,-1.00,-1.0
4195,16108,-1564,460,-1.00,-1.0
4197,16032,-1336,2512,-1.00,-1.0
4199,16716,524,328,-1.00,-1.0
4201,16880,-2096,-1332,-1.00,-1.0
4203,17628,-860,2540,-1.00,-1.0
4205,16012,-1408,1968,-1.00,-1.0
4207,16204,-296,1044,-1.00,-1.0
4209,16740,1900,-716,-1.00,-1.0
4211,18024,-536,1680,-1.00,-1.0
4213,17828,-820,-1260,-1.00,-1.0
4215,16860,-1596,1536,-1.00,-1.0
4217,15932,188,1404,-1.00,-1.0
4219,16060,-1912,-112,-1.00,-1.0
4221,17192,2068,372,-1.00,-1.0
4225,18296,-360,3556,-1.00,-1.0
4227,16728,368,-1588,-1.00,-1.0
4229,16628,1996,4368,-1.00,-1.0
4231,17048,-104,-4612,-1.00,-1.0
4233,17776,2736,1696,-1.00,-1.0
4235,19308,-1720,-1248,-1.00,-1.0
4237,17576,-1828,2016,-1.00,-1.0
4239,15356,-316,-1016,-1.00,-1.0
4241,15432,-944,292,-1.00,-1.0
4243,17680,-2232,-844,-1.00,-1.0
4245,16732,2752,-1716,-1.00,-1.0
4246,17008,676,3284,-1.00,-1.0
4248,17748,-1160,-1216,-1.00,-1.0
4250,16716,-196,16,-1.00,-1.0
4252,16900,-132,1364,-1.00,-1.0
4254,16656,-1536,2332,-1.00,-1.0
4258,17608,2080,4028,-1.00,-1.0
4260,17412,612,-6072,-1.00,-1.0
4262,18256,1204,3248,-1.00,-1.0
4264,18140,-1236,32,-1.00,-1.0
4266,16600,-2036,1720,-1.00,-1.0
4268,15040,-640,-796,-1.00,-1.0
4270,15972,-932,4548,-1.00,-1.0
4272,17184,-2144,-3456,-1.00,-1.0
4274,17512,116,2748,-1.00,-1.0
4276,17128,-1440,-252,-1.00,-1.0
4278,16720,-1240,52,-1.00,-1.0
4280,15988,-704,168,-1.00,-1.0
4282,16444,-1020,1880,-1.00,-1.0
4284,17300,-1868,-2724,-1.00,-1.0
4286,16668,-428,2380,-1.00,-1.0
4288,16920,-2564,2332,-1.00,-1.0
4292,15612,1332,-1712,-1.00,-1.0
4294,17904,512,760,-1.00,-1.0
4296,18732,-644,-428,-1.00,-1.0
4298,15972,1064,1292,-1.00,-1.0
4300,16624,-1888,1676,-1.00,-1.0
4302,16644,924,2348,-1.00,-1.0
4304,15744,2608,2300,-1.00,-1.0
4305,17416,-1556,1564,-1.00,-1.0
4307,15892,-1496,1176,-1.00,-1.0
4309,14968,2328,-2032,-1.00,-1.0
4311,17448,-196,1752,-1.00,-1.0
4313,19624,-892,364,-1.00,-1.0
4315,16852,680,2328,-1.00,-1.0
4317,15836,1808,1508,-1.00,-1.0
4319,17532,1596,-4904,-1.00,-1.0
4321,18636,1168,1504,-1.00,-1.0
4326,19344,-16,888,-1.00,-1.0
4328,17724,-356,852,-1.00,-1.0
4330,16228,72,864,-1.00,-1.0
4332,15536,2156,-1956,-1.00,-1.0
4334,17436,964,7140,-1.00,-1.0
4336,17612,-212,-5976,-1.00,-1.0
4338,17840,1560,1092,-1.00,-1.0
4339,14588,1084,1400,-1.00,-1.0
4342,16904,-1864,-232,-1.00,-1.0
4343,15556,2360,-348,-1.00,-1.0
4345,17768,368,1924,-1.00,-1.0
4347,16664,-1456,-2168,-1.00,-1.0
4349,16192,680,660,-1.00,-1.0
4351,17044,300,6972,-1.00,-1.0
4353,16512,232,-5912,-1.00,-1.0
4355,17416,1756,1068,-1.00,-1.0
4359,18212,-700,3420,-1.00,-1.0
4361,15808,1580,-2584,-1.00,-1.0
4363,15812,24,3808,-1.00,-1.0
4365,18220,-1944,-1548,-1.00,-1.0
4367,17096,-864,5032,-1.00,-1.0
4369,16724,-2000,2704,-1.00,-1.0
4371,15560,-720,-160,-1.00,-1.0
4373,16716,2224,-3052,-1.00,-1.0
4375,18688,-508,1908,-1.00,-1.0
4377,19172,-1224,-632,-1.00,-1.0
4379,15236,288,1584,-1.00,-1.0
4381,15340,-3324,720,-1.00,-1.0
4383,15640,-784,3064,-1.00,-1.0
4385,17120,3172,2604,-1.00,-1.0
4386,16776,-2164,4676,-1.00,-1.0
4388,15900,-1868,1440,-1.00,-1.0
4393,15456,-860,1164,-1.00,-1.0
4395,15892,172,1240,-1.00,-1.0
4396,16120,2136,1844,-1.00,-1.0
4398,16472,-2908,3664,-1.00,-1.0
4400,15132,-1280,1748,-1.00,-1.0
4402,15564,2804,1184,-1.00,-1.0
4404,17328,-1312,-3360,-1.00,-1.0
4406,19532,-784,152,-1.00,-1.0
4408,17912,1240,88,-1.00,-1.0
4410,15732,1068,-1516,-1.00,-1.0
4412,16532,2004,-152,-1.00,-1.0
4414,18548,1580,10516,-1.00,-1.0
4416,17148,1212,-5372,-1.00,-1.0
4418,17188,3524,488,-1.00,-1.0
4420,18652,416,-572,-1.00,-1.0
4422,18356,-952,2732,-1.00,-1.0
4426,15064,528,4080,-1.00,-1.0
4428,17088,-580,-5664,-1.00,-1.0
4430,16792,48,3668,-1.00,-1.0
4432,16820,-2464,1276,-1.00,-1.0
4434,16148,-1840,624,-1.00,-1.0
4436,17012,624,-1140,-1.00,-1.0
4438,15988,-1736,24,-1.00,-1.0
4440,17908,-308,-1904,-1.00,-1.0
4442,17304,1956,1700,-1.00,-1.0
4444,16444,-472,-6232,-1.00,-1.0
4445,17972,292,1976,-1.00,-1.0
4447,16144,880,-68,-1.00,-1.0
4449,17448,-2052,-364,-1.00,-1.0
4451,16456,-2588,1456,-1.00,-1.0
4453,16700,172,416,-1.00,-1.0
4455,15696,-1212,-100,-1.00,-1.0
4459,16944,2116,-692,-1.00,-1.0
4461,18636,-1468,-3828,-1.00,-1.0
4463,17168,-1016,1784,-1.00,-1.0
4465,16148,1684,3184,-1.00,-1.0
4467,14992,1412,-5148,-1.00,-1.0
4469,19060,3136,1776,-1.00,-1.0
4471,19020,2268,3384,-1.00,-1.0
4473,17536,1256,-1648,-1.00,-1.0
4475,16756,1924,-1896,-1.00,-1.0
4477,17840,-1440,8564,-1.00,-1.0
4479,16104,-3552,652,-1.00,-1.0
4481,14128,-292,600,-1.00,-1.0
4483,17852,-740,1460,-1.00,-1.0
4485,18676,-1312,-2676,-1.00,-1.0
4487,17000,1168,212,-1.00,-1.0
4488,18204,-1340,-5540,-1.00,-1.0
4493,16172,1180,2540,-1.00,-1.0
4495,14652,-276,-6028,-1.00,-1.0
4497,18664,1124,3720,-1.00,-1.0
4499,18440,1708,228,-1.00,-1.0
4501,17044,1512,-2484,-1.00,-1.0
4503,18020,2644,-940,-1.00,-1.0
4504,16680,-292,7632,-1.00,-1.0
4506,17084,-1080,-2296,-1.00,-1.0
4508,16744,932,1680,-1.00,-1.0
4510,18104,-1172,3124,-1.00,-1.0
4512,16968,-1176,-2404,-1.00,-1.0
4514,17712,-1080,2692,-1.00,-1.0
4516,15688,904,8076,-1.00,-1.0
4518,15460,1412,-4528,-1.00,-1.0
4520,18632,2656,2332,-1.00,-1.0
4522,19784,532,2216,-1.00,-1.0
4526,17528,1032,-1860,-1.00,-1.0
4528,16384,-3344,3928,-1.00,-1.0
4530,15492,-2072,1936,-1.00,-1.0
4532,15396,716,-2248,-1.00,-1.0
4534,17228,-3120,856,-1.00,-1.0
4536,18700,-1644,524,-1.00,-1.0
4538,14700,1324,-708,-1.00,-1.0
4540,16180,-436,616,-1.00,-1.0
4542,18044,-80,96,-1.00,-1.0
4544,17612,824,5536,-1.00,-1.0
4546,16360,-616,-3444,-1.00,-1.0
4548,17400,-324,4280,-1.00,-1.0
4550,17548,1896,3692,-1.00,-1.0
4552,15852,188,-3560,-1.00,-1.0
4553,18136,748,-3672,-1.00,-1.0
4555,18580,-960,6168,-1.00,-1.0
4560,14872,1040,1628,-1.00,-1.0
4562,16968,-4636,2372,-1.00,-1.0
4563,16484,-2752,2820,-1.00,-1.0
4565,15244,1656,-3152,-1.00,-1.0
4567,16500,524,-1152,-1.00,-1.0
4569,19724,-1668,1136,-1.00,-1.0
4571,15816,1560,-2508,-1.00,-1.0
4573,15136,-300,2536,-1.00,-1.0
4575,16040,368,-788,-1.00,-1.0
4577,17608,1788,3560,-1.00,-1.0
4579,15228,-2172,-4120,-1.00,-1.0
4581,16456,-2832,3304,-1.00,-1.0
4583,16160,472,-128,-1.00,-1.0
4585,15504,172,-252,-1.00,-1.0
4587,18820,392,-16,-1.00,-1.0
4589,17124,2060,2732,-1.00,-1.0
4593,18316,612,1156,-1.00,-1.0
4595,18508,792,5468,-1.00,-1.0
4597,15808,1008,-4164,-1.00,-1.0
4599,16308,760,-1364,-1.00,-1.0
4601,18716,-520,2628,-1.00,-1.0
4603,17540,-108,-428,-1.00,-1.0
4605,17036,1188,-1268,-1.00,-1.0
4606,16264,-1488,-1048,-1.00,-1.0
4608,18120,-1120,3604,-1.00,-1.0
4610,14756,-64,136,-1.00,-1.0
4612,16456,-960,64,-1.00,-1.0
4614,16480,-292,432,-1.00,-1.0
4616,17792,380,5220,-1.00,-1.0
4618,16004,-380,-4304,-1.00,-1.0
4620,18420,-216,1320,-1.00,-1.0
4622,15684,152,-304,-1.00,-1.0
4626,16844,-1988,1776,-1.00,-1.0
4628,16920,80,1828,-1.00,-1.0
4630,15832,-372,-392,-1.00,-1.0
4632,17460,968,-768,-1.00,-1.0
4634,18172,-632,7504,-1.00,-1.0
4636,17940,1240,-1900,-1.00,-1.0
4638,15676,2456,-1480,-1.00,-1.0
4640,18964,-1144,2712,-1.00,-1.0
4642,17616,-696,-348,-1.00,-1.0
4644,16880,852,2588,-1.00,-1.0
4646,15132,-1072,-2816,-1.00,-1.0
4648,17052,144,5048,-1.00,-1.0
4650,17420,2820,-428,-1.00,-1.0
4652,17532,-200,-5076,-1.00,-1.0
4653,18900,-1032,0,-1.00,-1.0
4655,16188,-296,6744,-1.00,-1.0
4660,16644,1820,-1980,-1.00,-1.0
4662,19608,-1504,3356,-1.00,-1.0
4664,16188,-2168,608,-1.00,-1.0
4666,15160,912,984,-1.00,-1.0
4668,16516,-1420,-1996,-1.00,-1.0
4670,17968,-3204,2952,-1.00,-1.0
4671,15716,-420,-1420,-1.00,-1.0
4673,15240,-3656,-732,-1.00,-1.0
4675,17420,-2896,2876,-1.00,-1.0
4677,16252,-560,1052,-1.00,-1.0
4679,14876,380,676,-1.00,-1.0
4681,17620,-1736,-1804,-1.00,-1.0
4683,18248,1816,8012,-1.00,-1.0
4685,14396,-2712,-3340,-1.00,-1.0
4687,16828,-3372,5512,-1.00,-1.0
4691,15528,-2436,904,-1.00,-1.0
4693,15020,2048,-900,-1.00,-1.0
4695,18444,248,8300,-1.00,-1.0
4697,16088,792,-2672,-1.00,-1.0
4699,15856,2528,-952,-1.00,-1.0
4701,19204,-1052,6696,-1.00,-1.0
4703,16260,-680,-2476,-1.00,-1.0
4705,16712,2540,-2028,-1.00,-1.0
4707,17312,-1136,148,-1.00,-1.0
4709,18160,-1284,5056,-1.00,-1.0
4711,15948,804,-1400,-1.00,-1.0
4713,16368,120,1140,-1.00,-1.0
4715,18520,-1648,-2668,-1.00,-1.0
4717,17012,700,8468,-1.00,-1.0
4719,15796,504,-4684,-1.00,-1.0
4720,16984,1840,-1984,-1.00,-1.0
4725,17696,-28,-1504,-1.00,-1.0
4727,16760,2116,152,-1.00,-1.0
4729,17104,-1680,-944,-1.00,-1.0
4730,15908,-552,-388,-1.00,-1.0
4733,16856,440,2988,-1.00,-1.0
4735,15488,872,-3156,-1.00,-1.0
4736,18988,540,1900,-1.00,-1.0
4738,17856,1488,960,-1.00,-1.0
4740,17408,-492,664,-1.00,-1.0
4742,17480,-636,156,-1.00,-1.0
4744,15472,368,3856,-1.00,-1.0
4746,17436,-1068,376,-1.00,-1.0
4748,16808,-828,1036,-1.00,-1.0
4750,17520,2296,-2128,-1.00,-1.0
4752,18012,1580,3376,-1.00,-1.0
4754,17560,1192,-4524,-1.00,-1.0
4758,17556,284,-5172,-1.00,-1.0
4760,16940,1660,3160,-1.00,-1.0
4762,18200,924,1912,-1.00,-1.0
4764,15916,-816,-1288,-1.00,-1.0
4766,18624,1644,2456,-1.00,-1.0
4768,17148,-1684,-1204,-1.00,-1.0
4770,16716,-1932,1108,-1.00,-1.0
4772,17740,1184,-480,-1.00,-1.0
4774,15552,-744,-3016,-1.00,-1.0
4776,17124,-420,2652,-1.00,-1.0
4778,16200,1544,-320,-1.00,-1.0
4780,17628,1112,624,-1.00,-1.0
4782,18740,2332,-3836,-1.00,-1.0
4784,17208,280,4192,-1.00,-1.0
4785,16856,-1784,1036,-1.00,-1.0
4787,14988,268,1960,-1.00,-1.0
4792,16712,-2804,292,-1.00,-1.0
4794,17456,-644,-684,-1.00,-1.0
4795,16496,-1904,2496,-1.00,-1.0
4797,17072,-1108,-1588,-1.00,-1.0
4799,16652,-284,-1144,-1.00,-1.0
4801,17212,-1140,1564,-1.00,-1.0
4803,16364,-1552,-2660,-1.00,-1.0
4805,16696,488,4312,-1.00,-1.0
4807,16460,-800,-2332,-1.00,-1.0
4809,16452,648,1020,-1.00,-1.0
4811,16696,-184,1008,-1.00,-1.0
4813,15924,-1896,3576,-1.00,-1.0
4815,15864,48,-3472,-1.00,-1.0
4817,17356,-340,-288,-1.00,-1.0
4819,18012,-2296,2940,-1.00,-1.0
4821,16260,-980,-2876,-1.00,-1.0
4825,15920,-2052,1548,-1.00,-1.0
4827,16904,-876,2896,-1.00,-1.0
4829,17104,3976,140,-1.00,-1.0
4831,18312,2516,-3216,-1.00,-1.0
4833,20480,2268,-2616,-1.00,-1.0
4835,18612,1420,6376,-1.00,-1.0
4837,15704,-820,-1628,-1.00,-1.0
4839,15948,200,2372,-1.00,-1.0
4841,16832,952,4540,-1.00,-1.0
4843,16652,-1112,-4948,-1.00,-1.0
4844,17904,-216,-120,-1.00,-1.0
4846,16688,-3220,4512,-1.00,-1.0
4848,15728,-1708,912,-1.00,-1.0
4850,15772,84,-2300,-1.00,-1.0
4852,17292,-1700,3260,-1.00,-1.0
4854,17392,-2092,-3092,-1.00,-1.0
4858,16904,-1172,-3260,-1.00,-1.0
4860,16888,-484,1656,-1.00,-1.0
4862,17000,816,1400,-1.00,-1.0
4864,17244,-1012,4496,-1.00,-1.0
4866,16876,-1108,-1260,-1.00,-1.0
4868,16956,720,-1284,-1.00,-1.0
4870,16872,-3900,-1464,-1.00,-1.0
4872,15816,-4048,1536,-1.00,-1.0
4874,14980,-1384,680,-1.00,-1.0
4876,14888,-572,-2148,-1.00,-1.0
4878,17004,-296,-920,-1.00,-1.0
4880,17784,2024,1076,-1.00,-1.0
4882,17652,-1040,-1680,-1.00,-1.0
4884,17668,-340,416,-1.00,-1.0
4885,15888,1244,2996,-1.00,-1.0
4887,16460,-436,-1976,-1.00,-1.0
4891,17828,1748,5144,-1.00,-1.0
4893,16620,860,-2928,-1.00,-1.0
4895,17420,1792,320,-1.00,-1.0
4897,18100,-2372,1328,-1.00,-1.0
4899,17644,-1136,1852,-1.00,-1.0
4901,15680,92,-2360,-1.00,-1.0
4903,16212,-2048,2416,-1.00,-1.0
4905,17496,-1668,-1200,-1.00,-1.0
4907,16156,1340,472,-1.00,-1.0
4909,17188,-1192,-3316,-1.00,-1.0
4911,16560,-244,880,-1.00,-1.0
4913,17564,1456,-3572,-1.00,-1.0
4915,18168,-3388,2748,-1.00,-1.0
4917,15956,-2468,4184,-1.00,-1.0
4919,14332,2628,-2048,-1.00,-1.0
4923,19412,-1360,1396,-1.00,-1.0
4925,17440,1392,2044,-1.00,-1.0
4927,16116,356,-1624,-1.00,-1.0
4929,15880,1040,3112,-1.00,-1.0
4931,17540,2620,4732,-1.00,-1.0
4933,17844,252,-4412,-1.00,-1.0
4935,18924,996,1140,-1.00,-1.0
4937,17500,-76,5184,-1.00,-1.0
4939,15336,372,-572,-1.00,-1.0
4941,17292,888,-1652,-1.00,-1.0
4942,17464,-2640,1684,-1.00,-1.0
4944,16632,-2088,-368,-1.00,-1.0
4946,16132,1804,-584,-1.00,-1.0
4948,17208,-932,-3268,-1.00,-1.0
4950,16940,460,3900,-1.00,-1.0
4952,17728,3828,720,-1.00,-1.0
4956,18456,1240,4668,-1.00,-1.0
4958,17184,3452,3632,-1.00,-1.0
4960,16736,1844,-2476,-1.00,-1.0
4962,19256,1436,2024,-1.00,-1.0
4964,18408,1168,6268,-1.00,-1.0
4966,16404,1284,-4140,-1.00,-1.0
4968,17632,620,-1084,-1.00,-1.0
4970,16268,2920,2376,-1.00,-1.0
4972,15104,-2908,1456,-1.00,-1.0
4974,20028,1440,928,-1.00,-1.0
4976,18424,972,7664,-1.00,-1.0
4978,15796,1444,-6196,-1.00,-1.0
4980,18140,1020,-776,-1.00,-1.0
4982,17744,-2140,6856,-1.00,-1.0
4984,15200,-1712,-1436,-1.00,-1.0
4986,15984,416,-2008,-1.00,-1.0
4990,16612,-1980,1052,-1.00,-1.0
4992,15404,1588,-2444,-1.00,-1.0
4994,17732,-644,-3120,-1.00,-1.0
4996,18760,-2184,1848,-1.00,-1.0
4998,15120,1348,2672,-1.00,-1.0
5000,15448,1016,-2292,-1.00,-1.0
5001,18876,-396,2336,-1.00,-1.0
5003,17548,152,5804,-1.00,-1.0
5005,15484,-172,-2848,-1.00,-1.0
5007,17816,1412,-316,-1.00,-1.0
5009,18428,-3792,4932,-1.00,-1.0
5011,15060,-2808,2104,-1.00,-1.0
5013,15136,1572,-4048,-1.00,-1.0
5015,18156,-628,276,-1.00,-1.0
5017,18224,-768,1732,-1.00,-1.0
5019,16048,1804,-772,-1.00,-1.0
5023,17536,-1060,3164,-1.00,-1.0
5025,16260,1836,484,-1.00,-1.0
5027,16248,-496,-4500,-1.00,-1.0
5029,18612,-28,1580,-1.00,-1.0
5031,17268,1568,2860,-1.00,-1.0
5033,16136,736,-1520,-1.00,-1.0
5035,18076,-1196,-852,-1.00,-1.0
5037,16788,1236,-1184,-1.00,-1.0
5039,16392,-1960,-7144,-1.00,-1.0
5041,17832,-2040,2816,-1.00,-1.0
5043,15800,804,3044,-1.00,-1.0
5045,15552,640,-1112,-1.00,-1.0
5047,16992,1640,536,-1.00,-1.0
5049,18796,2220,7324,-1.00,-1.0
5050,17284,2244,-5152,-1.00,-1.0
5052,17700,2076,-560,-1.00,-1.0
5057,16624,-2432,2224,-1.00,-1.0
5059,16388,-420,-1756,-1.00,-1.0
5060,16364,-2416,-1372,-1.00,-1.0
5062,17088,-1712,-572,-1.00,-1.0
5064,17388,1844,-16,-1.00,-1.0
5066,17712,-1160,-2752,-1.00,-1.0
5068,17160,-308,2568,-1.00,-1.0
5070,16168,3532,2700,-1.00,-1.0
5072,16920,2936,-836,-1.00,-1.0
5074,18164,2936,952,-1.00,-1.0
5076,19056,3336,5164,-1.00,-1.0
5078,17968,800,-2688,-1.00,-1.0
5080,17800,-288,-640,-1.00,-1.0
5082,16312,-3068,6364,-1.00,-1.0
5084,18708,1672,-4288,-1.00,-1.0
5086,19180,2172,2084,-1.00,-1.0
5090,15580,-3612,-716,-1.00,-1.0
5092,15668,-1480,-1380,-1.00,-1.0
5094,17952,3476,6564,-1.00,-1.0
5096,16776,916,-5144,-1.00,-1.0
5098,17844,-428,2096,-1.00,-1.0
5100,16748,-3520,6880,-1.00,-1.0
5102,14520,-2968,-1864,-1.00,-1.0
5104,15700,-2364,-2480,-1.00,-1.0
5106,16804,-5300,4828,-1.00,-1.0
5108,15236,-3052,-3792,-1.00,-1.0
5110,15868,-688,-1312,-1.00,-1.0
5112,17584,-2872,-1876,-1.00,-1.0
5114,16976,-772,2016,-1.00,-1.0
5115,16724,3276,-240,-1.00,-1.0
5117,16844,32,-1076,-1.00,-1.0
5121,17004,3124,3552,-1.00,-1.0
5123,16900,408,-3120,-1.00,-1.0
5125,17672,1048,2140,-1.00,-1.0
5127,17284,1408,3608,-1.00,-1.0
5129,16380,208,-2672,-1.00,-1.0
5131,17696,656,888,-1.00,-1.0
5133,16816,-2232,3208,-1.00,-1.0
5135,15744,-2700,-392,-1.00,-1.0
5137,15720,-2144,-236,-1.00,-1.0
5139,15976,-3992,2556,-1.00,-1.0
5141,15888,-3924,-380,-1.00,-1.0
5143,18132,2744,1460,-1.00,-1.0
5145,16764,-1760,728,-1.00,-1.0
5147,16660,128,-608,-1.00,-1.0
5149,17560,132,844,-1.00,-1.0
5151,16240,-1844,3000,-1.00,-1.0
5155,15748,-556,-676,-1.00,-1.0
5157,17152,-2340,1176,-1.00,-1.0
5159,16472,-2756,832,-1.00,-1.0
5160,16100,-740,424,-1.00,-1.0
5162,16536,-1596,-940,-1.00,-1.0
5164,16596,-412,2204,-1.00,-1.0
5166,17052,2236,1528,-1.00,-1.0
5168,17656,836,-3460,-1.00,-1.0
5170,19092,1716,444,-1.00,-1.0
5172,18244,1908,2104,-1.00,-1.0
5174,17072,620,-352,-1.00,-1.0
5176,16876,1904,848,-1.00,-1.0
5178,16664,856,3532,-1.00,-1.0
5180,17256,340,-1700,-1.00,-1.0
5182,17676,68,872,-1.00,-1.0
5184,17376,-3420,3444,-1.00,-1.0
5188,15280,-736,-2368,-1.00,-1.0
5190,16744,-4000,972,-1.00,-1.0
5192,16568,-3448,1736,-1.00,-1.0
5194,15700,-296,-1744,-1.00,-1.0
5196,16100,-2028,708,-1.00,-1.0
5198,16988,136,896,-1.00,-1.0
5200,16632,2520,2284,-1.00,-1.0
5202,18524,2160,-184,-1.00,-1.0
5204,17840,1840,868,-1.00,-1.0
5206,18148,2528,4868,-1.00,-1.0
5208,15884,-2832,-332,-1.00,-1.0
5210,17036,-920,700,-1.00,-1.0
5212,16560,1436,172,-1.00,-1.0
5214,17376,492,-2800,-1.00,-1.0
5216,17776,848,2764,-1.00,-1.0
5217,17660,3368,3716,-1.00,-1.0
5222,18388,2492,2088,-1.00,-1.0
5224,17592,1376,2812,-1.00,-1.0
5226,17536,440,668,-1.00,-1.0
5227,17184,272,-216,-1.00,-1.0
5229,16216,-1852,7276,-1.00,-1.0
5231,15512,-1668,-3264,-1.00,-1.0
5233,16860,340,-1292,-1.00,-1.0
5235,18164,-2400,668,-1.00,-1.0
5237,16412,-1688,1044,-1.00,-1.0
5239,16664,860,-108,-1.00,-1.0
5241,17612,-492,-2636,-1.00,-1.0
5243,17380,-412,2852,-1.00,-1.0
5245,17148,2536,1256,-1.00,-1.0
5247,17264,776,-2000,-1.00,-1.0
5249,18348,1168,2588,-1.00,-1.0
5251,16960,2156,2460,-1.00,-1.0
5255,17952,868,1636,-1.00,-1.0
5257,17440,556,4892,-1.00,-1.0
5259,16416,400,-2496,-1.00,-1.0
5261,17612,304,2288,-1.00,-1.0
5263,17652,-856,2904,-1.00,-1.0
5265,16356,-284,-360,-1.00,-1.0
5267,17352,-540,3320,-1.00,-1.0
5269,16920,1464,3160,-1.00,-1.0
5271,16476,1708,-2024,-1.00,-1.0
5273,18500,2356,2352,-1.00,-1.0
5275,17940,108,2904,-1.00,-1.0
5276,17616,856,216,-1.00,-1.0
5278,17464,-284,-392,-1.00,-1.0
5280,16272,-2744,1268,-1.00,-1.0
5282,16936,-1896,-1484,-1.00,-1.0
5284,15824,-692,-1504,-1.00,-1.0
5288,17060,-36,-1072,-1.00,-1.0
5290,16808,288,1132,-1.00,-1.0
5292,17408,-1488,-2344,-1.00,-1.0
5294,16328,-1488,3268,-1.00,-1.0
5296,15880,1768,2720,-1.00,-1.0
5298,16072,424,-1920,-1.00,-1.0
5300,18372,1588,2016,-1.00,-1.0
5302,18212,604,2812,-1.00,-1.0
5304,17836,1148,-992,-1.00,-1.0
5306,17940,484,-436,-1.00,-1.0
5308,16924,-1852,5068,-1.00,-1.0
5310,15928,-1348,-1552,-1.00,-1.0
5312,16296,-380,212,-1.00,-1.0
5314,17452,-1612,-868,-1.00,-1.0
5316,16544,-288,816,-1.00,-1.0
5318,17612,192,44,-1.00,-1.0
5322,17908,-172,1208,-1.00,-1.0
5324,16736,240,-384,-1.00,-1.0
5326,17176,-756,-520,-1.00,-1.0
5328,16664,936,-792,-1.00,-1.0
5330,18208,1684,-1712,-1.00,-1.0
5332,17956,-1220,-1824,-1.00,-1.0
5333,17188,200,1820,-1.00,-1.0
5335,16352,1492,-2220,-1.00,-1.0
5337,16236,-368,60,-1.00,-1.0
5339,17804,876,1704,-1.00,-1.0
5341,16836,1244,68,-1.00,-1.0
5343,17416,496,-832,-1.00,-1.0
5345,17648,-144,1980,-1.00,-1.0
5347,16220,-1016,4412,-1.00,-1.0
5349,15388,-376,-1668,-1.00,-1.0
5351,16728,1060,376,-1.00,-1.0
5353,17288,-484,-296,-1.00,-1.0
5357,17936,904,-1760,-1.00,-1.0
5359,17160,-424,1656,-1.00,-1.0
5361,16380,-404,-1288,-1.00,-1.0
5363,16440,652,868,-1.00,-1.0
5365,17524,-1312,-36,-1.00,-1.0
5367,16636,-1056,2228,-1.00,-1.0
5369,16052,1720,2808,-1.00,-1.0
5371,16116,1388,-3012,-1.00,-1.0
5373,17844,356,2196,-1.00,-1.0
5375,18636,372,1948,-1.00,-1.0
5377,15888,-1096,1072,-1.00,-1.0
5378,16596,-448,672,-1.00,-1.0
5380,17216,1216,1784,-1.00,-1.0
5382,18256,308,-1996,-1.00,-1.0
5384,17272,-376,1404,-1.00,-1.0
5386,16700,64,3848,-1.00,-1.0
5391,16960,284,552,-1.00,-1.0
5393,16844,-1224,-1236,-1.00,-1.0
5395,16508,-1064,1904,-1.00,-1.0
5397,16140,-532,2092,-1.00,-1.0
5399,15948,-424,-60,-1.00,-1.0
5401,17176,468,1000,-1.00,-1.0
5403,17432,224,704,-1.00,-1.0
5405,17396,400,332,-1.00,-1.0
5407,17720,792,-648,-1.00,-1.0
5409,17016,-1124,548,-1.00,-1.0
5411,17400,664,-560,-1.00,-1.0
5412,17564,1400,1112,-1.00,-1.0
5415,17576,452,264,-1.00,-1.0
5416,17112,200,2268,-1.00,-1.0
5418,17084,820,720,-1.00,-1.0
5420,16704,-344,1796,-1.00,-1.0
5424,17860,-532,-856,-1.00,-1.0
5426,16996,-1356,2184,-1.00,-1.0
5428,16748,-376,36,-1.00,-1.0
5430,16552,324,-1012,-1.00,-1.0
5432,17180,-1344,1104,-1.00,-1.0
5434,16860,136,-128,-1.00,-1.0
5436,16436,484,1204,-1.00,-1.0
5438,16924,440,-1984,-1.00,-1.0
5440,17240,136,1912,-1.00,-1.0
5442,17148,872,1556,-1.00,-1.0
5444,16992,800,12,-1.00,-1.0
5446,17896,444,316,-1.00,-1.0
5448,17612,-668,616,-1.00,-1.0
5450,17492,-164,1304,-1.00,-1.0
5452,16668,-8,-1224,-1.00,-1.0
5453,17624,448,856,-1.00,-1.0
5458,16860,1108,3032,-1.00,-1.0
5460,16780,1168,-2808,-1.00,-1.0
5462,17516,1240,2300,-1.00,-1.0
5463,16180,-940,-2136,-1.00,-1.0
5465,16868,-2280,1288,-1.00,-1.0
5467,16508,-1396,-1144,-1.00,-1.0
5469,16576,388,2504,-1.00,-1.0
5471,16812,480,-2248,-1.00,-1.0
5473,17084,1276,1140,-1.00,-1.0
5475,17900,2024,3148,-1.00,-1.0
5477,17148,2364,-1456,-1.00,-1.0
5479,18068,592,388,-1.00,-1.0
5481,18188,-248,3008,-1.00,-1.0
5483,16148,-1784,1280,-1.00,-1.0
5485,16508,-116,748,-1.00,-1.0
5487,16244,-2864,-252,-1.00,-1.0
5491,16968,-456,-176,-1.00,-1.0
5493,16776,128,-1604,-1.00,-1.0
5495,17032,252,-1036,-1.00,-1.0
5497,16860,1336,3556,-1.00,-1.0
5499,17400,1148,-484,-1.00,-1.0
5501,17260,1260,-556,-1.00,-1.0
5503,17792,-448,2356,-1.00,-1.0
5505,16596,-1304,1868,-1.00,-1.0
5507,16672,-588,268,-1.00,-1.0
5509,16336,-1684,-636,-1.00,-1.0
5511,16728,-1048,2196,-1.00,-1.0
5512,17192,652,1632,-1.00,-1.0
5514,17228,264,3584,-1.00,-1.0
5516,15712,-1396,464,-1.00,-1.0
5518,16708,28,756,-1.00,-1.0
5520,17784,-372,724,-1.00,-1.0
5524,17208,344,2208,-1.00,-1.0
5526,17008,808,-3288,-1.00,-1.0
5528,17676,92,1920,-1.00,-1.0
5530,16964,1804,1128,-1.00,-1.0
5532,17532,1968,116,-1.00,-1.0
5534,18336,832,-792,-1.00,-1.0
5536,16748,-668,3080,-1.00,-1.0
5538,16564,-244,1092,-1.00,-1.0
5540,16488,-416,1268,-1.00,-1.0
5542,16632,-1348,1392,-1.00,-1.0
5544,16300,-728,-1260,-1.00,-1.0
5546,17764,592,1556,-1.00,-1.0
5548,17500,-372,-2228,-1.00,-1.0
5550,17448,120,1596,-1.00,-1.0
5552,16612,1144,232,-1.00,-1.0
5554,15884,308,2428,-1.00,-1.0
5555,17768,188,340,-1.00,-1.0
5560,17516,-660,344,-1.00,-1.0
5562,17404,-1524,-2300,-1.00,-1.0
5564,16512,-1880,3220,-1.00,-1.0
5566,16180,-1156,1460,-1.00,-1.0
5568,15320,1144,-2296,-1.00,-1.0
5570,17724,-1360,1036,-1.00,-1.0
5571,15824,-324,-1056,-1.00,-1.0
5574,16464,664,1516,-1.00,-1.0
5575,16536,376,-28,-1.00,-1.0
5577,17028,-64,1624,-1.00,-1.0
5579,16492,396,-568,-1.00,-1.0
5581,16904,-520,-180,-1.00,-1.0
5583,17540,180,-948,-1.00,-1.0
5585,16724,16,2532,-1.00,-1.0
5587,16296,4,-384,-1.00,-1.0
5589,17164,-444,-76,-1.00,-1.0
5593,16196,-1288,-36,-1.00,-1.0
5595,16872,-12,812,-1.00,-1.0
5597,16872,-72,-592,-1.00,-1.0
5599,17060,924,1304,-1.00,-1.0
5601,17876,1008,-1004,-1.00,-1.0
5603,17268,532,2876,-1.00,-1.0
5605,17580,1900,-1568,-1.00,-1.0
5607,17532,264,132,-1.00,-1.0
5609,17904,-612,1716,-1.00,-1.0
5611,17124,-760,-804,-1.00,-1.0
5613,15584,-1608,1164,-1.00,-1.0
5615,15960,-1876,1376,-1.00,-1.0
5617,16112,-644,-1708,-1.00,-1.0
5619,17744,-912,1184,-1.00,-1.0
5620,16852,-112,-2124,-1.00,-1.0
5622,17852,580,1472,-1.00,-1.0
5627,16936,872,772,-1.00,-1.0
5629,17100,-324,820,-1.00,-1.0
5630,16644,-384,340,-1.00,-1.0
5632,16328,408,-1544,-1.00,-1.0
5634,16596,-1212,280,-1.00,-1.0
5636,15700,4,452,-1.00,-1.0
5638,17908,-52,1712,-1.00,-1.0
5640,16740,-700,1632,-1.00,-1.0
5642,14936,-936,1276,-1.00,-1.0
5644,17104,-228,512,-1.00,-1.0
5646,17372,-820,-1984,-1.00,-1.0
5648,16660,276,1904,-1.00,-1.0
5650,17760,960,-3416,-1.00,-1.0
5652,17536,1064,2696,-1.00,-1.0
5654,18104,1052,700,-1.00,-1.0
5656,16104,204,1636,-1.00,-1.0
5660,16940,-700,240,-1.00,-1.0
5662,16168,-1976,432,-1.00,-1.0
5664,16044,-1204,1256,-1.00,-1.0
5666,16192,-1068,228,-1.00,-1.0
5668,17464,-640,688,-1.00,-1.0
5670,17180,708,-1832,-1.00,-1.0
5672,17140,208,2104,-1.00,-1.0
5673,16972,-200,1076,-1.00,-1.0
5675,16668,-316,1104,-1.00,-1.0
5677,16500,-1700,2644,-1.00,-1.0
5679,18240,1344,-112,-1.00,-1.0
5681,17480,948,-228,-1.00,-1.0
5683,16020,-16,3420,-1.00,-1.0
5685,16760,312,1828,-1.00,-1.0
5687,17092,-736,-280,-1.00,-1.0
5689,17588,-212,852,-1.00,-1.0
5693,16984,-1104,3064,-1.00,-1.0
5695,16224,-1676,-1148,-1.00,-1.0
5697,14780,396,2792,-1.00,-1.0
5699,16960,836,1328,-1.00,-1.0
5701,17636,-484,-444,-1.00,-1.0
5703,18408,-508,852,-1.00,-1.0
5705,17120,-1636,2368,-1.00,-1.0
5707,15156,-1444,-668,-1.00,-1.0
5709,16560,-1372,2428,-1.00,-1.0
5711,16388,-956,-2000,-1.00,-1.0
5712,17272,-160,656,-1.00,-1.0
5714,16600,192,-1200,-1.00,-1.0
5716,16476,-576,1272,-1.00,-1.0
5718,16940,-132,-2496,-1.00,-1.0
5720,17368,292,1488,-1.00,-1.0
5722,17228,-132,-628,-1.00,-1.0
5726,16468,-860,1664,-1.00,-1.0
5728,16324,-476,-20,-1.00,-1.0
5730,17752,-8,-196,-1.00,-1.0
5732,16772,-424,-1764,-1.00,-1.0
5734,16696,920,1772,-1.00,-1.0
5736,17432,148,-1624,-1.00,-1.0
5738,16908,436,2916,-1.00,-1.0
5740,17764,1008,-376,-1.00,-1.0
5742,17000,632,832,-1.00,-1.0
5744,17936,-600,-12,-1.00,-1.0
5746,17532,-780,-208,-1.00,-1.0
5748,16048,-1300,-1216,-1.00,-1.0
5750,16100,-456,1976,-1.00,-1.0
5752,16184,1268,-912,-1.00,-1.0
5754,17432,868,356,-1.00,-1.0
5755,18568,1056,708,-1.00,-1.0
5757,17344,440,384,-1.00,-1.0
5762,16372,-188,-3184,-1.00,-1.0
5764,17432,352,2140,-1.00,-1.0
5766,16488,176,-552,-1.00,-1.0
5768,16024,680,1728,-1.00,-1.0
5770,18248,972,-284,-1.00,-1.0
5772,17872,-272,424,-1.00,-1.0
5773,17340,-2208,1524,-1.00,-1.0
5775,15496,-1168,168,-1.00,-1.0
5777,16228,20,932,-1.00,-1.0
5779,16496,-668,-2368,-1.00,-1.0
5781,17468,232,2100,-1.00,-1.0
5783,16960,72,-1544,-1.00,-1.0
5785,16100,-568,-928,-1.00,-1.0
5787,17440,-620,312,-1.00,-1.0
5789,16948,216,1484,-1.00,-1.0
5791,17184,212,-1248,-1.00,-1.0
5795,16880,-1012,2824,-1.00,-1.0
5797,16464,-992,2792,-1.00,-1.0
5799,16520,-172,-1028,-1.00,-1.0
5801,17552,588,-888,-1.00,-1.0
5803,17296,-396,-2008,-1.00,-1.0
5805,17600,-152,2192,-1.00,-1.0
5807,17368,360,44,-1.00,-1.0
5809,16464,-1056,-428,-1.00,-1.0
5811,16832,-1592,2836,-1.00,-1.0
5813,15952,-644,-224,-1.00,-1.0
5815,16656,272,1076,-1.00,-1.0
5817,16752,404,-2968,-1.00,-1.0
5819,17404,260,3484,-1.00,-1.0
5821,16976,-164,2148,-1.00,-1.0
5822,15800,-912,860,-1.00,-1.0
5824,17688,408,2344,-1.00,-1.0
5829,16664,-436,1560,-1.00,-1.0
5831,17908,1232,368,-1.00,-1.0
5832,16604,-36,-2240,-1.00,-1.0
5834,17376,-872,3052,-1.00,-1.0
5836,16996,-1028,3700,-1.00,-1.0
5838,15912,-1732,-20,-1.00,-1.0
5840,17144,396,828,-1.00,-1.0
5842,17000,-76,3344,-1.00,-1.0
5844,16548,-852,2456,-1.00,-1.0
5846,16560,108,-1748,-1.00,-1.0
5848,17548,-1232,792,-1.00,-1.0
5850,16344,-1324,-784,-1.00,-1.0
5852,16412,-80,1096,-1.00,-1.0
5854,16824,364,-2640,-1.00,-1.0
5856,16988,-776,3160,-1.00,-1.0
5858,16868,-1756,2128,-1.00,-1.0
5862,17240,1260,1300,-1.00,-1.0
5864,17092,436,-3492,-1.00,-1.0
5866,18244,756,2100,-1.00,-1.0
5868,17764,796,1392,-1.00,-1.0
5870,16352,144,256,-1.00,-1.0
5872,17692,856,1328,-1.00,-1.0
5874,17324,-460,368,-1.00,-1.0
5876,16964,-96,1868,-1.00,-1.0
5878,17472,1884,160,-1.00,-1.0
5880,17312,1900,-3032,-1.00,-1.0
5881,18820,620,1192,-1.00,-1.0
5883,17688,796,1548,-1.00,-1.0
5885,15996,-380,2112,-1.00,-1.0
5887,16868,1696,1720,-1.00,-1.0
5889,17360,188,-4484,-1.00,-1.0
5891,15952,-728,1008,-1.00,-1.0
5895,16208,1160,-44,-1.00,-1.0
5897,18868,628,52,-1.00,-1.0
5899,17756,-212,1056,-1.00,-1.0
5901,16876,24,-1540,-1.00,-1.0
5903,17832,-736,1564,-1.00,-1.0
5905,17516,-1876,1496,-1.00,-1.0
5907,15632,-1380,1440,-1.00,-1.0
5909,16164,624,632,-1.00,-1.0
5911,17280,-228,-2724,-1.00,-1.0
5913,17608,-836,2228,-1.00,-1.0
5915,17488,452,788,-1.00,-1.0
5917,16144,304,-832,-1.00,-1.0
5919,16836,-360,1228,-1.00,-1.0
5921,17704,-472,1284,-1.00,-1.0
5923,16944,-700,1372,-1.00,-1.0
5925,16156,488,1660,-1.00,-1.0
5926,16820,672,-2292,-1.00,-1.0
5930,17280,-780,2224,-1.00,-1.0
5932,14804,-420,-40,-1.00,-1.0
5934,16272,-240,920,-1.00,-1.0
5936,17812,-212,-812,-1.00,-1.0
5938,18624,-860,1180,-1.00,-1.0
5940,16804,1224,-1544,-1.00,-1.0
5942,17380,-1204,1464,-1.00,-1.0
5944,16668,-1076,-1412,-1.00,-1.0
5946,16624,148,1444,-1.00,-1.0
5948,16012,712,-872,-1.00,-1.0
5950,17236,-708,2140,-1.00,-1.0
5952,17700,-472,1884,-1.00,-1.0
5954,16696,512,-944,-1.00,-1.0
5956,16676,-344,-372,-1.00,-1.0
5958,17168,-92,-1080,-1.00,-1.0
5960,17792,-1356,1508,-1.00,-1.0
5964,15072,448,-1020,-1.00,-1.0
5966,17664,-384,-388,-1.00,-1.0
5967,18960,-188,2024,-1.00,-1.0
5969,17176,648,-1316,-1.00,-1.0
5971,16808,924,1520,-1.00,-1.0
5973,16448,156,1008,-1.00,-1.0
5975,17224,-492,888,-1.00,-1.0
5977,17500,-1284,124,-1.00,-1.0
5979,16744,-732,-1192,-1.00,-1.0
5981,16920,516,408,-1.00,-1.0
5983,17348,-676,1188,-1.00,-1.0
5985,17096,200,1200,-1.00,-1.0
5987,16660,140,-1692,-1.00,-1.0
5989,16488,-240,-16,-1.00,-1.0
5991,18076,-32,508,-1.00,-1.0
5993,17436,-272,948,-1.00,-1.0
5997,16984,304,-512,-1.00,-1.0
5999,17092,1536,280,-1.00,-1.0
6001,17992,1968,112,-1.00,-1.0
6003,18392,580,-416,-1.00,-1.0
6005,17128,1148,1660,-1.00,-1.0
6007,17332,368,400,-1.00,-1.0
6009,16660,1244,-560,-1.00,-1.0
6010,17864,428,1784,-1.00,-1.0
6013,16832,1276,-128,-1.00,-1.0
6014,16516,544,1388,-1.00,-1.0
6016,17168,-584,2272,-1.00,-1.0
6018,17388,-288,-2532,-1.00,-1.0
6020,17908,-116,832,-1.00,-1.0
6022,16744,1156,-716,-1.00,-1.0
6024,16372,1500,120,-1.00,-1.0
6026,16576,-640,492,-1.00,-1.0
6030,16016,-704,2732,-1.00,-1.0
6032,14416,-480,452,-1.00,-1.0
6034,15560,568,1784,-1.00,-1.0
6036,16256,228,484,-1.00,-1.0
6038,18492,-1156,-348,-1.00,-1.0
6040,15892,1400,-792,-1.00,-1.0
6042,18580,-476,736,-1.00,-1.0
6044,17924,-1344,1268,-1.00,-1.0
6046,16044,0,1504,-1.00,-1.0
6048,15852,80,1504,-1.00,-1.0
6050,16616,-4,48,-1.00,-1.0
6052,18100,-1180,-1912,-1.00,-1.0
6053,17556,-1676,2008,-1.00,-1.0
6056,15484,368,824,-1.00,-1.0
6057,16036,1364,-992,-1.00,-1.0
6059,19084,1024,-224,-1.00,-1.0
6061,18756,-252,344,-1.00,-1.0
6066,15156,772,1564,-1.00,-1.0
6067,15968,-600,200,-1.00,-1.0
6069,17740,-336,-344,-1.00,-1.0
6071,18244,-1012,-1400,-1.00,-1.0
6073,16896,-740,1840,-1.00,-1.0
6075,14988,712,-12,-1.00,-1.0
6077,16676,392,20,-1.00,-1.0
6079,19212,436,132,-1.00,-1.0
6081,17880,1172,776,-1.00,-1.0
6083,16608,1116,388,-1.00,-1.0
6085,17508,-1984,-580,-1.00,-1.0
6087,15684,-900,2540,-1.00,-1.0
6089,15440,656,988,-1.00,-1.0
6091,17040,1768,-2832,-1.00,-1.0
6093,19964,-684,-304,-1.00,-1.0
6095,18120,-492,776,-1.00,-1.0
6099,16296,944,1768,-1.00,-1.0
6101,17560,1004,-1464,-1.00,-1.0
6103,19364,616,1288,-1.00,-1.0
6105,18500,856,-300,-1.00,-1.0
6107,16160,764,680,-1.00,-1.0
6109,16804,-708,2208,-1.00,-1.0
6111,16440,896,668,-1.00,-1.0
6113,17196,108,60,-1.00,-1.0
6115,18120,644,-1292,-1.00,-1.0
6117,17436,696,700,-1.00,-1.0
6118,17188,-1048,1984,-1.00,-1.0
6120,16096,1112,-804,-1.00,-1.0
6122,17396,1472,376,-1.00,-1.0
6124,18788,396,-1864,-1.00,-1.0
6126,17832,476,740,-1.00,-1.0
6128,16540,-828,2180,-1.00,-1.0
6132,16480,-2032,-340,-1.00,-1.0
6134,17200,-840,368,-1.00,-1.0
6136,16604,620,628,-1.00,-1.0
6138,16056,-2536,888,-1.00,-1.0
6140,16072,-212,1464,-1.00,-1.0
6142,17344,552,-1044,-1.00,-1.0
6144,17908,-580,-904,-1.00,-1.0
6146,15956,912,-784,-1.00,-1.0
6148,16372,-184,2288,-1.00,-1.0
6150,18152,-944,-2164,-1.00,-1.0
6152,17312,372,744,-1.00,-1.0
6154,16768,184,3456,-1.00,-1.0
6156,15728,920,-2336,-1.00,-1.0
6158,17984,876,-1648,-1.00,-1.0
6160,18332,-640,128,-1.00,-1.0
6162,15492,832,1712,-1.00,-1.0
6163,16616,880,2716,-1.00,-1.0
6168,18356,-68,1180,-1.00,-1.0
6170,17804,-1344,376,-1.00,-1.0
6172,16508,960,2560,-1.00,-1.0
6173,16288,-1192,1964,-1.00,-1.0
6175,15632,-336,288,-1.00,-1.0
6177,17324,-684,-1524,-1.00,-1.0
6179,18000,-1488,856,-1.00,-1.0
6181,16460,396,1908,-1.00,-1.0
6183,16208,-68,748,-1.00,-1.0
6185,17812,556,572,-1.00,-1.0
6187,18304,-212,-296,-1.00,-1.0
6189,17204,-1968,796,-1.00,-1.0
6191,16136,96,2068,-1.00,-1.0
6193,16084,-8,2456,-1.00,-1.0
6195,17932,-1476,-576,-1.00,-1.0
6197,15860,-236,2192,-1.00,-1.0
6201,15868,-140,-1752,-1.00,-1.0
6203,17556,-792,728,-1.00,-1.0
6205,17416,-2548,-1420,-1.00,-1.0
6207,15752,712,708,-1.00,-1.0
6209,16580,528,1480,-1.00,-1.0
6211,17396,880,-1216,-1.00,-1.0
6213,18696,240,-312,-1.00,-1.0
6214,17696,-128,224,-1.00,-1.0
6216,16000,1804,1440,-1.00,-1.0
6218,16872,-668,1052,-1.00,-1.0
6220,16976,-828,1504,-1.00,-1.0
6222,16732,-1260,136,-1.00,-1.0
6224,16348,-1520,1612,-1.00,-1.0
6226,16408,356,216,-1.00,-1.0
6228,17320,616,924,-1.00,-1.0
6230,18296,984,-196,-1.00,-1.0
6234,16816,-1828,356,-1.00,-1.0
6236,16240,-84,3452,-1.00,-1.0
6238,15732,-524,280,-1.00,-1.0
6240,18432,-636,448,-1.00,-1.0
6242,18436,-692,-508,-1.00,-1.0
6244,16056,284,2164,-1.00,-1.0
6246,17020,1404,-1456,-1.00,-1.0
6248,18868,948,1000,-1.00,-1.0
6250,18564,-812,-692,-1.00,-1.0
6252,16344,604,1552,-1.00,-1.0
6254,15800,-860,3192,-1.00,-1.0
6256,15548,-1228,1240,-1.00,-1.0
6258,17420,-1272,-40,-1.00,-1.0
6260,17532,-2572,1168,-1.00,-1.0
6261,15596,-708,1052,-1.00,-1.0
6263,16216,-692,992,-1.00,-1.0
6268,17800,-264,-912,-1.00,-1.0
6270,17836,-2228,1280,-1.00,-1.0
6271,16396,-472,2672,-1.00,-1.0
6273,15400,76,400,-1.00,-1.0
6275,17100,892,-868,-1.00,-1.0
6277,18672,-348,-816,-1.00,-1.0
6279,17244,-2012,656,-1.00,-1.0
6281,15308,288,2696,-1.00,-1.0
6283,15548,-392,848,-1.00,-1.0
6285,16568,-1092,232,-1.00,-1.0
6287,18368,-480,-780,-1.00,-1.0
6289,17812,-1024,-204,-1.00,-1.0
6291,16156,724,1392,-1.00,-1.0
6293,16552,-96,1124,-1.00,-1.0
6295,17848,-1224,876,-1.00,-1.0
6297,16608,52,2384,-1.00,-1.0
6301,15800,312,2432,-1.00,-1.0
6303,16164,468,540,-1.00,-1.0
6305,16504,444,-1572,-1.00,-1.0
6307,18884,-368,2652,-1.00,-1.0
6309,15956,68,-404,-1.00,-1.0
6311,15128,760,1172,-1.00,-1.0
6313,16748,-1416,2792,-1.00,-1.0
6315,17568,312,-1868,-1.00,-1.0
6317,16864,788,448,-1.00,-1.0
6319,16724,332,512,-1.00,-1.0
6321,17836,980,220,-1.00,-1.0
6323,17216,36,-1432,-1.00,-1.0
6324,17028,-1156,1628,-1.00,-1.0
6327,16116,228,2872,-1.00,-1.0
6328,15540,64,-36,-1.00,-1.0
6330,17808,-44,-712,-1.00,-1.0
6332,18836,588,-700,-1.00,-1.0
6336,15316,1108,1228,-1.00,-1.0
6338,16480,804,660,-1.00,-1.0
6340,18040,128,904,-1.00,-1.0
6342,18096,700,1816,-1.00,-1.0
6344,17140,80,-2236,-1.00,-1.0
6346,16304,508,2564,-1.00,-1.0
6348,17384,196,1420,-1.00,-1.0
6350,16608,320,-1280,-1.00,-1.0
6352,17824,-292,2936,-1.00,-1.0
6354,17100,-2012,-696,-1.00,-1.0
6356,15788,720,5016,-1.00,-1.0
6358,17588,-1024,360,-1.00,-1.0
6360,16456,-816,-1416,-1.00,-1.0
6362,17988,616,3960,-1.00,-1.0
6364,16316,-344,2388,-1.00,-1.0
6366,17952,-16,492,-1.00,-1.0
6370,15668,-156,-1256,-1.00,-1.0
6372,18488,2252,3468,-1.00,-1.0
6374,16240,352,3256,-1.00,-1.0
6376,17088,1284,-3524,-1.00,-1.0
6378,16312,-116,-4380,-1.00,-1.0
6380,18024,-3008,4336,-1.00,-1.0
6382,15880,140,2020,-1.00,-1.0
6383,16540,832,-1696,-1.00,-1.0
6385,15948,-100,-4824,-1.00,-1.0
6387,18368,2368,3536,-1.00,-1.0
6389,18348,-772,-756,-1.00,-1.0
6391,16652,980,7648,-1.00,-1.0
6393,16484,1180,-3620,-1.00,-1.0
6395,16568,-756,276,-1.00,-1.0
6397,19212,872,-1228,-1.00,-1.0
6399,16784,-100,884,-1.00,-1.0
6403,17132,2300,-4152,-1.00,-1.0
6405,17896,-248,3008,-1.00,-1.0
6407,18104,-8,-904,-1.00,-1.0
6409,15032,-1220,1584,-1.00,-1.0
6411,16608,0,1052,-1.00,-1.0
6413,17040,204,-3844,-1.00,-1.0
6415,18668,-1488,2740,-1.00,-1.0
6417,15768,-1040,-2512,-1.00,-1.0
6419,15560,-260,5584,-1.00,-1.0
6421,16264,-840,-1620,-1.00,-1.0
6423,18000,128,1656,-1.00,-1.0
6425,15800,724,1200,-1.00,-1.0
6427,16280,-1576,-3628,-1.00,-1.0
6429,17184,-1920,4496,-1.00,-1.0
6431,16688,1452,2676,-1.00,-1.0
6432,14936,352,-2640,-1.00,-1.0
6437,18684,-2056,-4452,-1.00,-1.0
6439,17052,-1456,10308,-1.00,-1.0
6441,15680,64,-3280,-1.00,-1.0
6442,14776,756,-168,-1.00,-1.0
6444,19300,920,-2780,-1.00,-1.0
6446,17592,-104,-908,-1.00,-1.0
6448,17544,480,4376,-1.00,-1.0
6450,15500,1208,-1780,-1.00,-1.0
6452,16680,-208,2304,-1.00,-1.0
6454,18176,-1544,-824,-1.00,-1.0
6456,16340,-2708,3152,-1.00,-1.0
6458,16484,-452,-3676,-1.00,-1.0
6460,15468,968,-476,-1.00,-1.0
6462,18156,-736,-324,-1.00,-1.0
6464,16080,212,2472,-1.00,-1.0
6466,17188,184,2600,-1.00,-1.0
6471,18324,-584,-2908,-1.00,-1.0
6473,17188,-3064,2704,-1.00,-1.0
6475,16316,-220,380,-1.00,-1.0
6477,15416,268,-1908,-1.00,-1.0
6479,17656,920,-584,-1.00,-1.0
6481,16660,-560,-960,-1.00,-1.0
6482,17760,632,8556,-1.00,-1.0
6484,16304,216,-2904,-1.00,-1.0
6486,16332,1412,3480,-1.00,-1.0
6488,19196,-2672,460,-1.00,-1.0
6490,16044,-1396,3392,-1.00,-1.0
6492,16376,1144,-1240,-1.00,-1.0
6494,16048,1184,-5924,-1.00,-1.0
6496,18268,1696,2516,-1.00,-1.0
6498,19176,776,904,-1.00,-1.0
6500,16560,1224,448,-1.00,-1.0
6504,17908,-1820,7024,-1.00,-1.0
6506,17176,-1928,-1916,-1.00,-1.0
6508,15412,-1308,2448,-1.00,-1.0
6510,16604,-1332,-2652,-1.00,-1.0
6512,17144,-1188,916,-1.00,-1.0
6514,16668,-392,3208,-1.00,-1.0
6516,17896,-936,-3240,-1.00,-1.0
6518,17772,-1888,5452,-1.00,-1.0
6520,16460,2584,-1936,-1.00,-1.0
6522,16540,-640,-6492,-1.00,-1.0
6523,19592,1316,3892,-1.00,-1.0
6525,16888,208,-1420,-1.00,-1.0
6527,16404,1752,2928,-1.00,-1.0
6529,17840,1360,-2004,-1.00,-1.0
6531,17564,-1828,4432,-1.00,-1.0
6533,16464,-3460,100,-1.00,-1.0
6537,16440,-1212,-4860,-1.00,-1.0
6539,16972,-556,552,-1.00,-1.0
6541,18168,1064,148,-1.00,-1.0
6543,17144,400,-820,-1.00,-1.0
6545,17600,3372,1064,-1.00,-1.0
6547,18108,620,712,-1.00,-1.0
6549,17676,448,4720,-1.00,-1.0
6551,17404,1092,-3156,-1.00,-1.0
6553,16356,-1688,3400,-1.00,-1.0
6555,17272,-1752,-1404,-1.00,-1.0
6557,15100,-948,1276,-1.00,-1.0
6559,15760,-1264,396,-1.00,-1.0
6561,18220,464,-3308,-1.00,-1.0
6563,17376,-504,1724,-1.00,-1.0
6565,17784,876,-1328,-1.00,-1.0
6567,17176,-1896,4472,-1.00,-1.0
6571,15948,-452,-960,-1.00,-1.0
6573,17084,1444,2060,-1.00,-1.0
6575,17572,-1196,-688,-1.00,-1.0
6577,16596,-168,-1852,-1.00,-1.0
6579,16784,-684,-136,-1.00,-1.0
6581,18508,400,-2436,-1.00,-1.0
6582,17648,-332,580,-1.00,-1.0
6584,17768,2644,1600,-1.00,-1.0
6586,15812,-840,-1968,-1.00,-1.0
6588,17864,528,2320,-1.00,-1.0
6590,16676,112,-1532,-1.00,-1.0
6592,17012,-1732,1172,-1.00,-1.0
6594,17916,1324,-1192,-1.00,-1.0
6596,16016,-420,1688,-1.00,-1.0
6598,17748,284,-1012,-1.00,-1.0
6600,16896,2916,-1904,-1.00,-1.0
6604,17576,2212,-1108,-1.00,-1.0
6606,16468,1948,2880,-1.00,-1.0
6608,18492,172,2572,-1.00,-1.0
6610,17152,-1260,-3200,-1.00,-1.0
6612,16604,-1180,5996,-1.00,-1.0
6614,15604,-2556,-2008,-1.00,-1.0
6616,16172,-36,3624,-1.00,-1.0
6618,18248,740,-1872,-1.00,-1.0
6620,17100,-304,-1080,-1.00,-1.0
6622,18736,2032,-2196,-1.00,-1.0
6624,16804,1324,2404,-1.00,-1.0
6626,18056,1672,-2984,-1.00,-1.0
6628,15960,1764,1520,-1.00,-1.0
6630,17664,36,984,-1.00,-1.0
6632,16520,-368,2564,-1.00,-1.0
6633,17268,972,-4200,-1.00,-1.0
6638,17348,-384,6336,-1.00,-1.0
6640,16728,-516,-3776,-1.00,-1.0
6642,18476,-812,3668,-1.00,-1.0
6644,18888,2020,-392,-1.00,-1.0
6646,15380,-1720,4504,-1.00,-1.0
6647,16360,-2860,-1296,-1.00,-1.0
6649,15560,-2120,-60,-1.00,-1.0
6651,16672,-1904,3672,-1.00,-1.0
6653,16016,-1648,-5052,-1.00,-1.0
6655,17232,-212,4708,-1.00,-1.0
6657,18344,412,-3356,-1.00,-1.0
6659,15268,24,848,-1.00,-1.0
6661,18944,2336,760,-1.00,-1.0
6663,16148,892,-1232,-1.00,-1.0
6665,18956,2604,2724,-1.00,-1.0
6669,18452,724,4000,-1.00,-1.0
6671,16464,-576,-2444,-1.00,-1.0
6673,16956,-1344,8784,-1.00,-1.0
6675,16000,-2612,-3052,-1.00,-1.0
6677,15972,388,6988,-1.00,-1.0
6679,17428,-1344,-6924,-1.00,-1.0
6681,17864,-132,4664,-1.00,-1.0
6683,17668,752,-6752,-1.00,-1.0
6685,15896,-300,3704,-1.00,-1.0
6687,17236,492,-4040,-1.00,-1.0
6689,16828,1204,2460,-1.00,-1.0
6691,18428,884,184,-1.00,-1.0
6693,16672,384,-2456,-1.00,-1.0
6695,16892,148,6124,-1.00,-1.0
6696,16684,-1624,-3432,-1.00,-1.0
6698,17332,-508,3224,-1.00,-1.0
6703,15972,-1332,-4636,-1.00,-1.0
6705,16932,-1072,8720,-1.00,-1.0
6706,16156,2368,-108,-1.00,-1.0
6708,18920,1012,-1440,-1.00,-1.0
6710,15720,44,616,-1.00,-1.0
6712,17100,2444,4772,-1.00,-1.0
6714,16256,1008,-1076,-1.00,-1.0
6716,18848,3456,3376,-1.00,-1.0
6718,17620,1440,-1052,-1.00,-1.0
6720,18648,2000,784,-1.00,-1.0
6722,17900,-428,-4388,-1.00,-1.0
6724,16480,-1484,8292,-1.00,-1.0
6726,14504,-4276,-4236,-1.00,-1.0
6728,15544,-1624,8584,-1.00,-1.0
6730,16392,-3672,-5028,-1.00,-1.0
6732,16076,-1144,3272,-1.00,-1.0
6736,17044,-1120,2724,-1.00,-1.0
6738,18036,116,-3100,-1.00,-1.0
6740,16072,660,2020,-1.00,-1.0
6742,17480,-92,-48,-1.00,-1.0
6744,17316,952,704,-1.00,-1.0
6746,16276,1868,3776,-1.00,-1.0
6747,16928,-2764,532,-1.00,-1.0
6749,15320,-2364,3456,-1.00,-1.0
6751,15804,-92,-4640,-1.00,-1.0
6753,16052,-844,2264,-1.00,-1.0
6755,18756,-2080,-5536,-1.00,-1.0
6757,16404,-1100,7376,-1.00,-1.0
6759,16264,-756,-5220,-1.00,-1.0
6761,14900,-476,4472,-1.00,-1.0
6763,18376,1464,-3372,-1.00,-1.0
6765,16176,396,1592,-1.00,-1.0
6769,16996,1116,1348,-1.00,-1.0
6771,19528,556,-1840,-1.00,-1.0
6773,16064,276,936,-1.00,-1.0
6775,16700,2404,1836,-1.00,-1.0
6777,16036,884,-1524,-1.00,-1.0
6779,19532,3428,2220,-1.00,-1.0
6781,17976,1156,-2752,-1.00,-1.0
6782,19308,2244,2420,-1.00,-1.0
6785,18252,812,-572,-1.00,-1.0
6787,16884,1100,6180,-1.00,-1.0
6788,17696,-968,1280,-1.00,-1.0
6790,17848,540,-260,-1.00,-1.0
6792,16532,892,-3680,-1.00,-1.0
6794,17648,192,940,-1.00,-1.0
6796,17864,2460,1948,-1.00,-1.0
6798,16772,516,-748,-1.00,-1.0
6802,16712,-924,1044,-1.00,-1.0
6804,17728,760,2444,-1.00,-1.0
6806,15676,-472,-592,-1.00,-1.0
6808,16476,1428,2344,-1.00,-1.0
6810,17444,636,716,-1.00,-1.0
6812,18920,1416,-16,-1.00,-1.0
6814,17924,1072,-680,-1.00,-1.0
6816,18952,932,4304,-1.00,-1.0
6818,16148,-2340,-3008,-1.00,-1.0
6820,15364,2004,5500,-1.00,-1.0
6822,15732,-1164,-3048,-1.00,-1.0
6824,18508,1656,3448,-1.00,-1.0
6826,19156,-88,-4420,-1.00,-1.0
6828,18108,364,4612,-1.00,-1.0
6830,16280,-944,-4164,-1.00,-1.0
6831,16044,892,5600,-1.00,-1.0
6836,16020,480,1648,-1.00,-1.0
6838,18032,276,-1360,-1.00,-1.0
6840,17176,-2496,2380,-1.00,-1.0
6841,17152,-960,1532,-1.00,-1.0
6844,16192,512,-2564,-1.00,-1.0
6845,16452,-2196,4016,-1.00,-1.0
6847,17040,560,-648,-1.00,-1.0
6849,17860,2012,1224,-1.00,-1.0
6851,16980,-592,-124,-1.00,-1.0
6853,18244,1304,1192,-1.00,-1.0
6855,17800,240,-672,-1.00,-1.0
6857,18136,416,2684,-1.00,-1.0
6859,16040,-984,-252,-1.00,-1.0
6861,15864,1992,1932,-1.00,-1.0
6863,17732,-24,-940,-1.00,-1.0
6865,19036,2612,1180,-1.00,-1.0
6869,18652,1188,2440,-1.00,-1.0
6871,16080,-1616,-2048,-1.00,-1.0
6873,15852,1412,3540,-1.00,-1.0
6875,16364,-584,-340,-1.00,-1.0
6877,18032,2732,768,-1.00,-1.0
6879,18920,2236,-3340,-1.00,-1.0
6881,20460,1732,928,-1.00,-1.0
6883,17380,-848,-792,-1.00,-1.0
6885,15348,1964,2376,-1.00,-1.0
6887,15784,-1028,192,-1.00,-1.0
6889,17652,1616,1840,-1.00,-1.0
6891,18188,1060,-3244,-1.00,-1.0
6893,18288,1408,992,-1.00,-1.0
6895,16964,1488,1220,-1.00,-1.0
6897,17404,1544,-1448,-1.00,-1.0
6898,18652,-1816,1872,-1.00,-1.0
6903,15376,664,344,-1.00,-1.0
6905,16140,-440,-1676,-1.00,-1.0
6907,16680,1256,652,-1.00,-1.0
6908,18872,588,-2428,-1.00,-1.0
6910,19020,-528,1260,-1.00,-1.0
6912,17364,-700,-880,-1.00,-1.0
6914,17824,264,-1484,-1.00,-1.0
6916,17640,-2148,5172,-1.00,-1.0
6918,17980,1080,-292,-1.00,-1.0
6920,16644,-816,1168,-1.00,-1.0
6922,16348,-988,2236,-1.00,-1.0
6924,15432,-292,1308,-1.00,-1.0
6926,16900,580,-1284,-1.00,-1.0
6928,18188,-692,3720,-1.00,-1.0
6930,18112,-912,-1328,-1.00,-1.0
6932,15988,-540,3496,-1.00,-1.0
6936,15696,-792,1384,-1.00,-1.0
6938,16672,732,-20,-1.00,-1.0
6940,17932,-2072,1912,-1.00,-1.0
6942,17880,180,1808,-1.00,-1.0
6944,15992,1836,-2432,-1.00,-1.0
6946,17028,-620,4436,-1.00,-1.0
6948,18628,504,-96,-1.00,-1.0
6949,17336,-604,4272,-1.00,-1.0
6952,15608,-488,712,-1.00,-1.0
6953,16012,1872,932,-1.00,-1.0
6955,18336,880,-3652,-1.00,-1.0
6957,14628,1096,-680,-1.00,-1.0
6959,16612,-568,-1300,-1.00,-1.0
6961,18368,-464,368,-1.00,-1.0
6963,17520,-600,-1420,-1.00,-1.0
6965,18584,-628,-436,-1.00,-1.0
6969,14828,2136,-116,-1.00,-1.0
6971,16700,-1164,-892,-1.00,-1.0
6973,18840,320,-84,-1.00,-1.0
6975,18148,-1016,624,-1.00,-1.0
6977,17728,172,-380,-1.00,-1.0
6979,15304,-628,944,-1.00,-1.0
6981,14860,192,-1500,-1.00,-1.0
6983,17456,-2604,4892,-1.00,-1.0
6985,18192,-808,-1112,-1.00,-1.0
6987,17376,-1944,672,-1.00,-1.0
6989,16164,-376,1444,-1.00,-1.0
6991,16244,-2368,372,-1.00,-1.0
6993,15112,-188,836,-1.00,-1.0
6995,16344,-1112,1292,-1.00,-1.0
6996,17260,-1360,2732,-1.00,-1.0
6998,16412,-1216,-808,-1.00,-1.0
7002,15788,-1496,236,-1.00,-1.0
7004,17044,-916,2956,-1.00,-1.0
7006,16532,-232,-1892,-1.00,-1.0
7008,17680,-888,3272,-1.00,-1.0
7010,16492,-1204,-1724,-1.00,-1.0
7012,15816,440,-2212,-1.00,-1.0
7014,17244,-1520,464,-1.00,-1.0
7016,17704,-1208,-620,-1.00,-1.0
7018,16828,-960,1260,-1.00,-1.0
7020,16324,736,-200,-1.00,-1.0
7022,16672,-768,-1964,-1.00,-1.0
7024,17288,-424,-548,-1.00,-1.0
7026,16972,-2272,5448,-1.00,-1.0
7028,15908,-608,-2264,-1.00,-1.0
7030,16460,320,1004,-1.00,-1.0
7032,17492,-224,1896,-1.00,-1.0
7036,15600,-788,-2900,-1.00,-1.0
7038,15764,-408,7248,-1.00,-1.0
7039,17548,616,-416,-1.00,-1.0
7041,18492,-688,-892,-1.00,-1.0
7043,17560,908,2356,-1.00,-1.0
7045,17240,332,-148,-1.00,-1.0
7047,17404,1128,64,-1.00,-1.0
7049,16864,1432,1932,-1.00,-1.0
7051,17828,-2136,1328,-1.00,-1.0
7053,16892,-1684,296,-1.00,-1.0
7055,15320,-940,-872,-1.00,-1.0
7057,15952,32,5204,-1.00,-1.0
7059,17044,-588,-2372,-1.00,-1.0
7061,17364,-728,1260,-1.00,-1.0
7063,17768,-340,2112,-1.00,-1.0
7065,16720,456,1124,-1.00,-1.0
7069,17272,-848,3924,-1.00,-1.0
7071,18560,-740,2316,-1.00,-1.0
7073,16908,428,-436,-1.00,-1.0
7075,15412,1080,576,-1.00,-1.0
7077,16884,500,1548,-1.00,-1.0
7079,18168,1384,-3060,-1.00,-1.0
7081,18212,604,1784,-1.00,-1.0
7082,18160,-88,88,-1.00,-1.0
7084,16108,1576,-1644,-1.00,-1.0
7086,15904,416,1644,-1.00,-1.0
7088,17132,-1032,1668,-1.00,-1.0
7090,17680,-1976,-2580,-1.00,-1.0
7092,16960,-72,1648,-1.00,-1.0
7094,16600,-960,0,-1.00,-1.0
7096,17900,1108,1556,-1.00,-1.0
7098,16548,984,-5432,-1.00,-1.0
7100,17952,-200,5100,-1.00,-1.0
7104,15912,2188,-1452,-1.00,-1.0
7106,15892,2116,-432,-1.00,-1.0
7108,17932,-592,736,-1.00,-1.0
7110,19092,-252,-3372,-1.00,-1.0
7112,17472,36,2932,-1.00,-1.0
7114,16000,180,-1228,-1.00,-1.0
7116,16012,-608,-3244,-1.00,-1.0
7118,16204,-524,2084,-1.00,-1.0
7120,17140,-3104,3552,-1.00,-1.0
7122,16700,-1672,-1100,-1.00,-1.0
7124,15756,24,1132,-1.00,-1.0
7126,15928,-1068,1944,-1.00,-1.0
7128,17768,-1752,-1700,-1.00,-1.0
7130,16976,-684,3072,-1.00,-1.0
7131,16868,-644,2712,-1.00,-1.0
7136,16508,1680,-2664,-1.00,-1.0
7138,17856,-404,5296,-1.00,-1.0
7140,18908,120,144,-1.00,-1.0
7141,16468,992,-280,-1.00,-1.0
7144,16724,1772,-52,-1.00,-1.0
7146,17924,-492,960,-1.00,-1.0
7147,16176,1132,-3268,-1.00,-1.0
7149,16652,-408,2600,-1.00,-1.0
7151,17548,1012,444,-1.00,-1.0
7153,17460,1944,-4232,-1.00,-1.0
7155,18168,1596,2208,-1.00,-1.0
7157,15760,-960,3216,-1.00,-1.0
7159,16528,-3256,-1328,-1.00,-1.0
7161,17036,40,4040,-1.00,-1.0
7163,17116,152,304,-1.00,-1.0
7165,17728,1280,-1368,-1.00,-1.0
7167,17316,1760,-1852,-1.00,-1.0
7171,19144,1644,96,-1.00,-1.0
7173,17068,2008,-2728,-1.00,-1.0
7175,16540,452,-356,-1.00,-1.0
7177,18064,-432,1932,-1.00,-1.0
7179,16676,1356,-3452,-1.00,-1.0
7181,16524,808,1604,-1.00,-1.0
7183,17604,-520,-612,-1.00,-1.0
7185,16756,852,-3620,-1.00,-1.0
7187,15968,-60,1592,-1.00,-1.0
7189,16824,-2480,3624,-1.00,-1.0
7190,16604,-1484,-820,-1.00,-1.0
7192,16308,-900,672,-1.00,-1.0
7194,16340,-1240,1944,-1.00,-1.0
7196,16948,-220,-2564,-1.00,-1.0
7198,16484,-756,2448,-1.00,-1.0
7200,16940,-468,2032,-1.00,-1.0
7204,17200,1940,3156,-1.00,-1.0
7206,17388,-972,3124,-1.00,-1.0
7208,17624,120,-152,-1.00,-1.0
7210,15892,-316,112,-1.00,-1.0
7212,16944,-480,6316,-1.00,-1.0
7214,18164,-1264,-1068,-1.00,-1.0
7216,15752,380,-2616,-1.00,-1.0
7218,15832,400,3200,-1.00,-1.0
7220,16788,-2452,2016,-1.00,-1.0
7222,17324,-1864,-1756,-1.00,-1.0
7224,16724,-1356,3192,-1.00,-1.0
7226,15080,-524,-304,-1.00,-1.0
7228,15672,-1580,-1688,-1.00,-1.0
7230,16432,-540,2236,-1.00,-1.0
7232,18280,-1176,2536,-1.00,-1.0
7236,16004,-56,1060,-1.00,-1.0
7238,15932,-436,3772,-1.00,-1.0
7240,18152,-508,-1088,-1.00,-1.0
7242,17420,844,312,-1.00,-1.0
7244,18028,588,452,-1.00,-1.0
7246,17676,196,1932,-1.00,-1.0
7248,16324,2448,-2588,-1.00,-1.0
7250,17104,456,2920,-1.00,-1.0
7252,18784,332,2244,-1.00,-1.0
7254,16436,484,-3904,-1.00,-1.0
7255,17236,936,3992,-1.00,-1.0
7257,18444,-1188,660,-1.00,-1.0
7259,16560,1324,676,-1.00,-1.0
7261,16648,1904,840,-1.00,-1.0
7263,17820,2032,-544,-1.00,-1.0
7265,18856,2592,-4452,-1.00,-1.0
7267,14164,-900,1192,-1.00,-1.0
7271,15368,2340,-3696,-1.00,-1.0
7273,16456,1124,148,-1.00,-1.0
7275,16548,188,2312,-1.00,-1.0
7277,17016,612,-1184,-1.00,-1.0
7279,16976,1012,912,-1.00,-1.0
7281,17144,-532,2440,-1.00,-1.0
7283,18548,-720,-368,-1.00,-1.0
7285,16756,220,1060,-1.00,-1.0
7287,17040,-96,2496,-1.00,-1.0
7289,17332,-192,1776,-1.00,-1.0
7291,16956,1912,-1956,-1.00,-1.0
7293,17848,28,4296,-1.00,-1.0
7295,19964,268,-1932,-1.00,-1.0
7297,17712,1136,1024,-1.00,-1.0
7298,15740,1748,-524,-1.00,-1.0
7300,17348,108,32,-1.00,-1.0
7304,16632,-940,3304,-1.00,-1.0
7306,17508,788,404,-1.00,-1.0
7308,17368,2336,-1296,-1.00,-1.0
7310,17756,596,4224,-1.00,-1.0
7312,18688,380,-832,-1.00,-1.0
7314,17364,804,-676,-1.00,-1.0
7316,15988,1216,276,-1.00,-1.0
7318,17608,-1396,2708,-1.00,-1.0
7320,17568,956,-1072,-1.00,-1.0
7322,16076,72,100,-1.00,-1.0
7324,16656,-1044,1704,-1.00,-1.0
7326,17532,-864,-388,-1.00,-1.0
7328,17040,-396,928,-1.00,-1.0
7330,17412,-668,2384,-1.00,-1.0
7332,16616,-824,-3392,-1.00,-1.0
7334,16184,300,24,-1.00,-1.0
7338,17252,-2196,468,-1.00,-1.0
7340,15940,192,1128,-1.00,-1.0
7342,16764,-128,568,-1.00,-1.0
7344,17580,364,-276,-1.00,-1.0
7346,17028,652,-1356,-1.00,-1.0
7348,17152,-368,2372,-1.00,-1.0
7350,18076,-124,-472,-1.00,-1.0
7351,16992,-856,2876,-1.00,-1.0
7353,16100,60,-868,-1.00,-1.0
7355,16228,-328,-12,-1.00,-1.0
7357,17252,612,412,-1.00,-1.0
7359,18076,-2468,2836,-1.00,-1.0
7361,16200,-924,-2236,-1.00,-1.0
7363,14520,-1608,1720,-1.00,-1.0
7365,16256,-1600,-232,-1.00,-1.0
7367,17372,-656,-60,-1.00,-1.0
7371,18496,-812,372,-1.00,-1.0
7373,16224,624,-1212,-1.00,-1.0
7375,15376,572,2168,-1.00,-1.0
7377,16844,-1232,-720,-1.00,-1.0
7379,17252,-484,1900,-1.00,-1.0
7381,16660,-328,-1612,-1.00,-1.0
7383,15728,684,1412,-1.00,-1.0
7385,16372,880,-468,-1.00,-1.0
7387,19288,512,864,-1.00,-1.0
7389,17456,-1432,3608,-1.00,-1.0
7391,16172,972,-2700,-1.00,-1.0
7393,15544,648,88,-1.00,-1.0
7395,16392,-1160,2896,-1.00,-1.0
7397,17264,-860,700,-1.00,-1.0
7399,17116,1068,-1508,-1.00,-1.0
7400,17504,-2292,3976,-1.00,-1.0
7405,16660,1144,-1344,-1.00,-1.0
7407,17236,-292,2600,-1.00,-1.0
7409,18292,-436,-152,-1.00,-1.0
7411,15752,616,2092,-1.00,-1.0
7413,15600,184,252,-1.00,-1.0
7415,16876,-372,-88,-1.00,-1.0
7417,19296,552,1216,-1.00,-1.0
7418,16880,-612,1420,-1.00,-1.0
7420,16940,852,-1524,-1.00,-1.0
7422,16436,-416,2412,-1.00,-1.0
7424,15768,-372,3068,-1.00,-1.0
7426,15904,-604,-384,-1.00,-1.0
7428,17868,-520,64,-1.00,-1.0
7430,17664,-2112,2660,-1.00,-1.0
7432,16592,600,-332,-1.00,-1.0
7434,16288,1536,-456,-1.00,-1.0
7436,16976,-888,2904,-1.00,-1.0
7440,18644,728,556,-1.00,-1.0
7442,16612,-420,1692,-1.00,-1.0
7444,16392,824,-1548,-1.00,-1.0
7446,17720,-1156,-428,-1.00,-1.0
7448,17256,876,-100,-1.00,-1.0
7450,18688,140,544,-1.00,-1.0
7452,15404,-1524,-1076,-1.00,-1.0
7454,16480,560,-692,-1.00,-1.0
7456,18756,-2320,2608,-1.00,-1.0
7458,16844,-440,-184,-1.00,-1.0
7460,15324,-1232,-304,-1.00,-1.0
7462,16504,-656,1396,-1.00,-1.0
7464,17072,-1480,960,-1.00,-1.0
7466,17920,-80,2624,-1.00,-1.0
7467,17892,-224,-144,-1.00,-1.0
7469,16252,1068,-1976,-1.00,-1.0
7474,17088,-1476,3108,-1.00,-1.0
7476,17272,184,-200,-1.00,-1.0
7477,17648,-892,628,-1.00,-1.0
7479,17708,-1412,1612,-1.00,-1.0
7481,16136,-168,-152,-1.00,-1.0
7483,15604,-800,1220,-1.00,-1.0
7485,16824,-724,2800,-1.00,-1.0
7487,17988,-1888,28,-1.00,-1.0
7489,16908,-316,3280,-1.00,-1.0
7491,16732,-212,-584,-1.00,-1.0
7493,16560,760,284,-1.00,-1.0
7495,17904,-84,-860,-1.00,-1.0
7497,17644,-1584,5384,-1.00,-1.0
7499,17184,504,-36,-1.00,-1.0
7501,17324,428,-632,-1.00,-1.0
7503,16956,-980,772,-1.00,-1.0
7507,17408,824,3124,-1.00,-1.0
7509,17128,1284,308,-1.00,-1.0
7511,17512,-2700,8,-1.00,-1.0
7513,16520,88,-996,-1.00,-1.0
7515,16328,-1420,-1516,-1.00,-1.0
7517,17212,-812,1004,-1.00,-1.0
7519,16104,-1632,-1044,-1.00,-1.0
7520,15956,-188,3404,-1.00,-1.0
7523,16812,-656,-1108,-1.00,-1.0
7525,16776,-1420,440,-1.00,-1.0
7526,16452,-1424,1692,-1.00,-1.0
7528,16316,-1416,124,-1.00,-1.0
7530,15480,-852,-1452,-1.00,-1.0
7532,16656,-2076,2816,-1.00,-1.0
7534,18104,-1844,1524,-1.00,-1.0
7536,16388,-1568,-712,-1.00,-1.0
7542,16688,-1276,1104,-1.00,-1.0
7544,16736,8,4336,-1.00,-1.0
7546,17916,-88,-1724,-1.00,-1.0
7548,17412,104,1368,-1.00,-1.0
7550,17008,644,1200,-1.00,-1.0
7552,17100,-1392,2088,-1.00,-1.0
7554,18092,-564,3112,-1.00,-1.0
7556,16416,584,-2392,-1.00,-1.0
7558,16940,-424,1980,-1.00,-1.0
7560,17660,344,-656,-1.00,-1.0
7562,15488,1320,-3836,-1.00,-1.0
7564,16892,728,-192,-1.00,-1.0
7566,18108,-1204,1232,-1.00,-1.0
7568,17240,-240,-104,-1.00,-1.0
7569,16344,200,-1184,-1.00,-1.0
7571,17348,180,-2032,-1.00,-1.0
7575,15900,-784,1928,-1.00,-1.0
7577,16468,-1504,836,-1.00,-1.0
7579,15824,-1436,-960,-1.00,-1.0
7581,16624,-940,736,-1.00,-1.0
7583,16940,-1196,-2092,-1.00,-1.0
7585,16340,-2012,-1524,-1.00,-1.0
7587,15844,-1892,2680,-1.00,-1.0
7589,17192,-1768,1104,-1.00,-1.0
7591,16032,-2672,476,-1.00,-1.0
7593,16064,-628,2144,-1.00,-1.0
7595,16868,48,-424,-1.00,-1.0
7597,17996,-776,-2136,-1.00,-1.0
7599,18316,-1568,5256,-1.00,-1.0
7601,17528,-560,1492,-1.00,-1.0
7603,18416,732,-1152,-1.00,-1.0
7605,18476,580,-1392,-1.00,-1.0
7609,18240,-568,1268,-1.00,-1.0
7611,17016,-1404,2160,-1.00,-1.0
7613,17608,-164,912,-1.00,-1.0
7615,18392,1128,-3496,-1.00,-1.0
7617,17304,40,-1528,-1.00,-1.0
7619,16724,80,1744,-1.00,-1.0
7621,16220,-1220,-452,-1.00,-1.0
7622,15460,-292,-1164,-1.00,-1.0
7624,16996,-1044,-84,-1.00,-1.0
7626,17968,-68,-1668,-1.00,-1.0
7628,15956,220,-2300,-1.00,-1.0
7630,15928,-248,80,-1.00,-1.0
7632,17332,-1228,916,-1.00,-1.0
7634,16644,-1208,-1608,-1.00,-1.0
7636,16828,-576,1288,-1.00,-1.0
7638,15764,-456,-2684,-1.00,-1.0
7642,17780,-1720,3140,-1.00,-1.0
7644,18012,-1300,-364,-1.00,-1.0
7646,15072,-296,1084,-1.00,-1.0
7648,15724,24,644,-1.00,-1.0
7650,17196,-372,-1208,-1.00,-1.0
7652,18656,-480,-656,-1.00,-1.0
7654,17580,-2048,3452,-1.00,-1.0
7656,16812,460,-160,-1.00,-1.0
7658,16180,60,-664,-1.00,-1.0
7660,17112,536,4340,-1.00,-1.0
7662,16252,716,-612,-1.00,-1.0
7664,16260,-52,176,-1.00,-1.0
7666,15984,1688,-1344,-1.00,-1.0
7668,17320,496,1360,-1.00,-1.0
7669,18160,1780,-2348,-1.00,-1.0
7671,17576,728,-1212,-1.00,-1.0
7676,16764,-368,-960,-1.00,-1.0
7678,16356,112,-2652,-1.00,-1.0
7679,17068,-692,268,-1.00,-1.0
7681,17508,-256,-2024,-1.00,-1.0
7683,16000,344,184,-1.00,-1.0
7685,15916,804,-1184,-1.00,-1.0
7687,17596,-344,-516,-1.00,-1.0
7689,17420,-764,-848,-1.00,-1.0
7691,17080,-624,728,-1.00,-1.0
7693,16544,68,-3328,-1.00,-1.0
7695,16684,-620,-40,-1.00,-1.0
7697,16324,-968,2680,-1.00,-1.0
7699,17240,-336,-2196,-1.00,-1.0
7701,17392,-268,2072,-1.00,-1.0
7703,16992,-988,2428,-1.00,-1.0
7705,17964,-720,1772,-1.00,-1.0
7709,16924,-2892,2388,-1.00,-1.0
7711,15792,320,444,-1.00,-1.0
7713,15652,-1128,-16,-1.00,-1.0
7715,17124,72,2656,-1.00,-1.0
7717,16008,624,-1596,-1.00,-1.0
7719,16044,164,72,-1.00,-1.0
7721,17056,868,508,-1.00,-1.0
7722,17724,-1348,3748,-1.00,-1.0
7724,16656,1984,-2936,-1.00,-1.0
7726,16780,1368,268,-1.00,-1.0
7728,17616,668,-700,-1.00,-1.0
7730,17920,-256,-1064,-1.00,-1.0
7732,17064,-108,-1436,-1.00,-1.0
7734,16352,-680,2716,-1.00,-1.0
7736,15096,1016,-4304,-1.00,-1.0
7738,16992,1280,456,-1.00,-1.0
7742,18192,584,-2016,-1.00,-1.0
7744,17180,900,-452,-1.00,-1.0
7746,16768,-644,1868,-1.00,-1.0
7748,16372,364,-2096,-1.00,-1.0
7750,16792,284,-324,-1.00,-1.0
7752,17168,-1112,460,-1.00,-1.0
7754,17236,-624,-1632,-1.00,-1.0
7756,16984,100,-96,-1.00,-1.0
7758,16276,-1260,-796,-1.00,-1.0
7760,15824,-1760,-2044,-1.00,-1.0
7762,17364,1680,2616,-1.00,-1.0
7764,16108,-72,1188,-1.00,-1.0
7766,17456,-408,3576,-1.00,-1.0
7768,17240,-340,-444,-1.00,-1.0
7769,15836,-584,5048,-1.00,-1.0
7771,16860,808,-1724,-1.00,-1.0
7776,17652,1308,-844,-1.00,-1.0
7778,17560,-1532,2464,-1.00,-1.0
7779,16500,-88,-24,-1.00,-1.0
7781,15696,492,4796,-1.00,-1.0
7783,16640,736,-2488,-1.00,-1.0
7785,17212,-268,2460,-1.00,-1.0
7787,16768,1048,1192,-1.00,-1.0
7789,17056,-92,2608,-1.00,-1.0
7791,17104,-396,-496,-1.00,-1.0
7793,16336,-216,4516,-1.00,-1.0
7795,15972,848,-920,-1.00,-1.0
7797,16052,1412,680,-1.00,-1.0
7799,17152,348,-836,-1.00,-1.0
7801,18288,-1120,3104,-1.00,-1.0
7803,16972,1012,-1468,-1.00,-1.0
7805,15996,348,2688,-1.00,-1.0
7809,17644,-16,-2108,-1.00,-1.0
7811,17180,1072,3436,-1.00,-1.0
7813,16712,1076,2324,-1.00,-1.0
7814,18456,-912,424,-1.00,-1.0
7817,17488,1476,-1144,-1.00,-1.0
7818,18372,-1136,528,-1.00,-1.0
7820,18024,180,-1860,-1.00,-1.0
7822,16980,-192,-1188,-1.00,-1.0
7824,16604,228,2472,-1.00,-1.0
7826,17560,672,-16,-1.00,-1.0
7828,17588,248,424,-1.00,-1.0
7830,18016,664,1140,-1.00,-1.0
7832,17752,884,-2244,-1.00,-1.0
7834,17472,1136,1400,-1.00,-1.0
7836,17036,76,372,-1.00,-1.0
7838,18952,516,40,-1.00,-1.0
7840,17776,-204,1196,-1.00,-1.0
7844,17532,400,-2280,-1.00,-1.0
7846,17908,176,1096,-1.00,-1.0
7848,16544,436,780,-1.00,-1.0
7850,17172,-1428,168,-1.00,-1.0
7852,18208,-76,1940,-1.00,-1.0
7854,17356,8,1040,-1.00,-1.0
7855,17612,-912,760,-1.00,-1.0
7857,18400,-880,1924,-1.00,-1.0
7859,16164,-408,856,-1.00,-1.0
7861,16532,264,816,-1.00,-1.0
7863,17128,-748,-1192,-1.00,-1.0
7865,16760,-2252,4348,-1.00,-1.0
7867,15904,268,-600,-1.00,-1.0
7869,15296,-68,-1204,-1.00,-1.0
7871,16128,464,652,-1.00,-1.0
7873,17812,-2196,2836,-1.00,-1.0
7877,15124,-284,1936,-1.00,-1.0
