timestamp_ms,accel_x,accel_y,accel_z,voltage,soc
2,17040,-60,504,-1.00,-1.0
4,16960,-128,592,-1.00,-1.0
6,17012,20,652,-1.00,-1.0
11,17020,-68,548,-1.00,-1.0
14,17064,-64,592,-1.00,-1.0
15,16976,-16,492,-1.00,-1.0
17,17004,-28,644,-1.00,-1.0
19,16956,-64,704,-1.00,-1.0
21,17020,24,432,-1.00,-1.0
23,17032,16,604,-1.00,-1.0
25,17068,4,548,-1.00,-1.0
27,17008,56,612,-1.00,-1.0
29,16980,-36,652,-1.00,-1.0
31,17040,4,528,-1.00,-1.0
33,17044,-20,528,-1.00,-1.0
35,16980,-112,528,-1.00,-1.0
37,16908,12,656,-1.00,-1.0
39,16912,-4,616,-1.00,-1.0
41,17076,-68,564,-1.00,-1.0
43,17016,28,612,-1.00,-1.0
44,17000,0,560,-1.00,-1.0
46,17072,-48,556,-1.00,-1.0
50,17048,-40,556,-1.00,-1.0
52,17060,-40,568,-1.00,-1.0
54,17052,56,508,-1.00,-1.0
56,16984,24,592,-1.00,-1.0
58,16960,44,492,-1.00,-1.0
60,16892,-44,620,-1.00,-1.0
62,17056,-32,608,-1.00,-1.0
64,17080,-48,588,-1.00,-1.0
66,17000,-12,580,-1.00,-1.0
68,16992,-28,548,-1.00,-1.0
70,16992,12,672,-1.00,-1.0
72,16920,24,680,-1.00,-1.0
74,17012,4,500,-1.00,-1.0
76,17076,28,640,-1.00,-1.0
78,17008,52,604,-1.00,-1.0
80,17000,-84,628,-1.00,-1.0
81,16976,-40,512,-1.00,-1.0
83,17040,12,504,-1.00,-1.0
85,16900,-8,668,-1.00,-1.0
89,16876,-32,572,-1.00,-1.0
91,17036,-8,568,-1.00,-1.0
93,16884,32,544,-1.00,-1.0
95,16920,-24,600,-1.00,-1.0
97,16956,-20,636,-1.00,-1.0
99,17048,60,652,-1.00,-1.0
101,17052,-12,672,-1.00,-1.0
103,16992,44,504,-1.00,-1.0
105,17048,40,648,-1.00,-1.0
107,16988,-100,564,-1.00,-1.0
109,17008,28,604,-1.00,-1.0
111,17004,-84,572,-1.00,-1.0
113,16984,-28,704,-1.00,-1.0
115,17040,-16,656,-1.00,-1.0
117,16964,-24,696,-1.00,-1.0
119,17036,-52,540,-1.00,-1.0
120,17020,-64,628,-1.00,-1.0
122,16956,-40,672,-1.00,-1.0
127,17096,4,664,-1.00,-1.0
129,16992,12,476,-1.00,-1.0
130,16888,8,680,-1.00,-1.0
132,16952,12,604,-1.00,-1.0
134,17064,-20,652,-1.00,-1.0
136,16984,28,692,-1.00,-1.0
138,17004,20,556,-1.00,-1.0
140,16920,-24,636,-1.00,-1.0
142,16992,-64,604,-1.00,-1.0
144,16988,-32,552,-1.00,-1.0
146,16984,12,480,-1.00,-1.0
148,17020,-56,616,-1.00,-1.0
150,17108,-68,584,-1.00,-1.0
152,16992,-44,576,-1.00,-1.0
154,16968,-156,720,-1.00,-1.0
156,17064,-40,548,-1.00,-1.0
158,17072,-56,596,-1.00,-1.0
160,16936,-88,448,-1.00,-1.0
164,17112,-64,520,-1.00,-1.0
166,16932,-32,548,-1.00,-1.0
168,16964,-92,672,-1.00,-1.0
170,17020,-4,512,-1.00,-1.0
172,17080,-100,564,-1.00,-1.0
174,17044,-56,492,-1.00,-1.0
175,17004,-32,544,-1.00,-1.0
177,16980,-4,568,-1.00,-1.0
179,17012,-96,568,-1.00,-1.0
181,17080,-136,548,-1.00,-1.0
183,16988,-20,572,-1.00,-1.0
185,16960,68,452,-1.00,-1.0
187,16980,12,436,-1.00,-1.0
189,16992,12,640,-1.00,-1.0
191,16960,24,660,-1.00,-1.0
193,16992,12,652,-1.00,-1.0
195,16992,84,620,-1.00,-1.0
197,17020,-60,480,-1.00,-1.0
201,17012,56,524,-1.00,-1.0
203,17016,-20,672,-1.00,-1.0
205,17012,-76,532,-1.00,-1.0
207,16992,0,540,-1.00,-1.0
209,16876,56,672,-1.00,-1.0
211,16960,32,720,-1.00,-1.0
213,17084,-8,488,-1.00,-1.0
215,17048,36,540,-1.00,-1.0
216,16908,-16,516,-1.00,-1.0
218,17016,-60,532,-1.00,-1.0
220,17008,-68,716,-1.00,-1.0
222,17036,36,576,-1.00,-1.0
224,16964,44,624,-1.00,-1.0
226,16976,-48,500,-1.00,-1.0
228,17036,-96,512,-1.00,-1.0
230,17004,56,668,-1.00,-1.0
232,16904,16,624,-1.00,-1.0
234,16996,-132,632,-1.00,-1.0
238,16976,12,704,-1.00,-1.0
240,16940,56,576,-1.00,-1.0
242,17020,-76,564,-1.00,-1.0
244,17076,-60,624,-1.00,-1.0
246,17020,-48,516,-1.00,-1.0
248,16976,-56,628,-1.00,-1.0
250,17004,-192,788,-1.00,-1.0
252,17088,-76,512,-1.00,-1.0
254,16956,-28,576,-1.00,-1.0
256,16916,-16,616,-1.00,-1.0
258,17004,-20,704,-1.00,-1.0
259,17028,76,644,-1.00,-1.0
261,16952,0,720,-1.00,-1.0
263,16912,-48,520,-1.00,-1.0
265,17044,-12,544,-1.00,-1.0
267,17040,-12,644,-1.00,-1.0
269,16964,48,708,-1.00,-1.0
273,16928,60,628,-1.00,-1.0
275,17064,-8,624,-1.00,-1.0
277,17096,40,444,-1.00,-1.0
279,17004,44,548,-1.00,-1.0
281,17008,-32,552,-1.00,-1.0
283,17000,-36,644,-1.00,-1.0
285,17048,-88,548,-1.00,-1.0
287,17008,-56,452,-1.00,-1.0
289,17044,-48,568,-1.00,-1.0
291,16964,8,616,-1.00,-1.0
293,16964,-92,560,-1.00,-1.0
295,17032,-4,500,-1.00,-1.0
297,16928,8,592,-1.00,-1.0
299,16928,-24,516,-1.00,-1.0
301,16956,-52,628,-1.00,-1.0
303,17004,-24,536,-1.00,-1.0
304,16976,64,644,-1.00,-1.0
306,17004,12,616,-1.00,-1.0
310,17016,-12,512,-1.00,-1.0
312,17036,24,476,-1.00,-1.0
314,17096,-52,460,-1.00,-1.0
316,16924,4,628,-1.00,-1.0
318,17048,40,652,-1.00,-1.0
320,16980,-36,560,-1.00,-1.0
322,16996,16,472,-1.00,-1.0
324,16984,-112,640,-1.00,-1.0
326,17068,-28,512,-1.00,-1.0
328,16980,-60,584,-1.00,-1.0
330,17112,-4,732,-1.00,-1.0
332,17040,32,704,-1.00,-1.0
334,17024,-96,520,-1.00,-1.0
336,17004,-64,568,-1.00,-1.0
338,16992,36,652,-1.00,-1.0
340,16952,-76,476,-1.00,-1.0
341,17004,16,492,-1.00,-1.0
343,16948,84,568,-1.00,-1.0
347,17020,-32,632,-1.00,-1.0
349,17080,-36,452,-1.00,-1.0
351,17032,-76,528,-1.00,-1.0
353,17012,-16,556,-1.00,-1.0
355,16976,-68,704,-1.00,-1.0
357,17008,48,472,-1.00,-1.0
359,16956,-20,560,-1.00,-1.0
361,16976,-60,576,-1.00,-1.0
363,17036,-112,628,-1.00,-1.0
365,17008,-76,676,-1.00,-1.0
367,16960,-12,528,-1.00,-1.0
369,16912,-76,600,-1.00,-1.0
371,16952,-72,688,-1.00,-1.0
373,17088,92,628,-1.00,-1.0
375,16976,72,612,-1.00,-1.0
377,16860,-76,712,-1.00,-1.0
378,16856,0,528,-1.00,-1.0
380,16948,-76,532,-1.00,-1.0
385,16984,4,608,-1.00,-1.0
387,17000,-28,564,-1.00,-1.0
388,16992,-112,500,-1.00,-1.0
390,16976,-44,536,-1.00,-1.0
392,17068,-16,464,-1.00,-1.0
394,16920,-44,608,-1.00,-1.0
396,17028,-76,568,-1.00,-1.0
398,17152,-12,568,-1.00,-1.0
400,17116,-36,632,-1.00,-1.0
402,16960,16,624,-1.00,-1.0
404,16992,56,508,-1.00,-1.0
406,16964,-32,528,-1.00,-1.0
408,16952,-20,612,-1.00,-1.0
410,17044,60,416,-1.00,-1.0
412,16920,76,500,-1.00,-1.0
414,17076,-28,636,-1.00,-1.0
416,16988,-56,620,-1.00,-1.0
418,16984,40,528,-1.00,-1.0
422,16876,-16,544,-1.00,-1.0
424,16988,-24,632,-1.00,-1.0
426,16972,28,600,-1.00,-1.0
428,16892,-128,756,-1.00,-1.0
430,16992,-16,524,-1.00,-1.0
432,17116,0,752,-1.00,-1.0
433,16948,-32,552,-1.00,-1.0
435,17024,32,416,-1.00,-1.0
437,16948,36,512,-1.00,-1.0
439,16940,-56,592,-1.00,-1.0
441,17044,-36,652,-1.00,-1.0
443,16964,40,564,-1.00,-1.0
445,16984,-52,648,-1.00,-1.0
447,17056,0,668,-1.00,-1.0
449,17012,-60,688,-1.00,-1.0
451,17020,-16,700,-1.00,-1.0
453,16984,16,600,-1.00,-1.0
455,16980,-36,468,-1.00,-1.0
459,16940,12,544,-1.00,-1.0
461,16976,44,620,-1.00,-1.0
463,17024,0,536,-1.00,-1.0
465,16984,-72,608,-1.00,-1.0
467,16948,-4,520,-1.00,-1.0
469,17060,-8,484,-1.00,-1.0
471,16912,-52,432,-1.00,-1.0
472,16956,100,520,-1.00,-1.0
474,16912,68,548,-1.00,-1.0
476,16976,48,652,-1.00,-1.0
478,17044,12,548,-1.00,-1.0
480,17024,-48,624,-1.00,-1.0
482,17020,-112,532,-1.00,-1.0
484,17028,40,720,-1.00,-1.0
486,17004,-16,480,-1.00,-1.0
488,17012,-48,560,-1.00,-1.0
490,16940,48,468,-1.00,-1.0
492,16976,-24,568,-1.00,-1.0
496,16992,-56,636,-1.00,-1.0
498,17112,-32,580,-1.00,-1.0
500,16948,28,612,-1.00,-1.0
502,17044,-44,664,-1.00,-1.0
504,16980,40,572,-1.00,-1.0
506,16988,24,612,-1.00,-1.0
508,17016,12,668,-1.00,-1.0
510,16984,-44,644,-1.00,-1.0
512,17040,-20,524,-1.00,-1.0
514,17020,48,656,-1.00,-1.0
516,17004,-72,584,-1.00,-1.0
517,17024,24,600,-1.00,-1.0
519,16904,20,624,-1.00,-1.0
521,16988,8,504,-1.00,-1.0
523,16956,-12,496,-1.00,-1.0
525,16984,-68,520,-1.00,-1.0
527,17060,12,564,-1.00,-1.0
529,17032,-56,572,-1.00,-1.0
533,17044,-36,536,-1.00,-1.0
535,17072,-56,504,-1.00,-1.0
537,17016,-36,800,-1.00,-1.0
539,17036,-112,612,-1.00,-1.0
541,17124,16,552,-1.00,-1.0
543,17000,24,556,-1.00,-1.0
545,16980,-32,576,-1.00,-1.0
547,16868,-96,496,-1.00,-1.0
549,16900,24,548,-1.00,-1.0
551,17000,-28,656,-1.00,-1.0
553,17020,-44,628,-1.00,-1.0
555,16984,-72,644,-1.00,-1.0
557,16988,-8,508,-1.00,-1.0
559,17020,-40,536,-1.00,-1.0
561,17028,-20,572,-1.00,-1.0
562,16968,-120,492,-1.00,-1.0
564,17052,-4,636,-1.00,-1.0
566,16952,-92,592,-1.00,-1.0
570,16944,-40,620,-1.00,-1.0
572,16948,-148,548,-1.00,-1.0
574,16944,-116,556,-1.00,-1.0
576,17028,-12,680,-1.00,-1.0
578,17028,0,696,-1.00,-1.0
580,16952,24,720,-1.00,-1.0
582,17020,-88,632,-1.00,-1.0
584,17052,-52,700,-1.00,-1.0
586,17088,-64,620,-1.00,-1.0
588,17000,-44,612,-1.00,-1.0
590,17072,24,648,-1.00,-1.0
592,17076,16,616,-1.00,-1.0
594,16928,24,536,-1.00,-1.0
596,17052,72,616,-1.00,-1.0
598,17032,-4,624,-1.00,-1.0
600,16976,40,484,-1.00,-1.0
601,17088,-24,500,-1.00,-1.0
603,16972,-80,512,-1.00,-1.0
607,16844,-152,596,-1.00,-1.0
609,17064,-100,524,-1.00,-1.0
611,17004,-40,652,-1.00,-1.0
613,16948,-28,568,-1.00,-1.0
615,16992,-16,632,-1.00,-1.0
617,17020,8,528,-1.00,-1.0
619,16988,-40,556,-1.00,-1.0
621,17068,-56,412,-1.00,-1.0
623,16940,-20,644,-1.00,-1.0
625,16984,24,620,-1.00,-1.0
627,16904,-64,560,-1.00,-1.0
629,16960,-24,552,-1.00,-1.0
631,17084,-68,544,-1.00,-1.0
633,17104,40,568,-1.00,-1.0
635,17056,-60,468,-1.00,-1.0
637,16976,28,648,-1.00,-1.0
638,17012,48,564,-1.00,-1.0
642,17000,-64,652,-1.00,-1.0
644,16992,-152,752,-1.00,-1.0
646,17028,-36,644,-1.00,-1.0
648,16988,-52,540,-1.00,-1.0
650,16924,48,524,-1.00,-1.0
652,17124,-28,592,-1.00,-1.0
654,17028,72,616,-1.00,-1.0
656,17000,-160,580,-1.00,-1.0
658,17008,-140,556,-1.00,-1.0
660,17080,32,624,-1.00,-1.0
662,16912,60,632,-1.00,-1.0
664,16956,-92,676,-1.00,-1.0
666,16976,0,708,-1.00,-1.0
668,16936,-92,592,-1.00,-1.0
670,17036,12,600,-1.00,-1.0
672,17016,-108,708,-1.00,-1.0
673,16976,-24,616,-1.00,-1.0
675,16928,-8,640,-1.00,-1.0
680,17004,-112,564,-1.00,-1.0
682,16944,-64,612,-1.00,-1.0
683,17048,-32,456,-1.00,-1.0
685,16992,0,612,-1.00,-1.0
687,16908,-24,600,-1.00,-1.0
689,16984,-56,524,-1.00,-1.0
691,16932,-80,668,-1.00,-1.0
693,17008,-72,528,-1.00,-1.0
695,17004,-16,548,-1.00,-1.0
697,16944,-4,640,-1.00,-1.0
699,16952,0,624,-1.00,-1.0
701,17004,-112,668,-1.00,-1.0
703,17020,-104,584,-1.00,-1.0
705,17016,-92,748,-1.00,-1.0
707,16988,-124,596,-1.00,-1.0
709,17004,-88,680,-1.00,-1.0
711,17016,-124,544,-1.00,-1.0
713,16916,-148,556,-1.00,-1.0
717,17012,-32,612,-1.00,-1.0
719,16956,84,644,-1.00,-1.0
721,16928,-56,504,-1.00,-1.0
723,16984,-36,564,-1.00,-1.0
725,16992,36,652,-1.00,-1.0
727,16984,4,608,-1.00,-1.0
728,17016,-64,652,-1.00,-1.0
730,17124,-52,584,-1.00,-1.0
732,16976,32,596,-1.00,-1.0
734,17048,-80,552,-1.00,-1.0
736,17012,-108,548,-1.00,-1.0
738,17004,52,564,-1.00,-1.0
740,16940,16,588,-1.00,-1.0
742,16940,-40,696,-1.00,-1.0
744,16936,-40,608,-1.00,-1.0
746,16948,-96,476,-1.00,-1.0
748,16912,-100,616,-1.00,-1.0
750,16988,-100,628,-1.00,-1.0
754,17044,36,692,-1.00,-1.0
756,17000,20,720,-1.00,-1.0
758,17008,-56,516,-1.00,-1.0
760,16920,-20,664,-1.00,-1.0
762,16852,-52,508,-1.00,-1.0
764,17004,8,592,-1.00,-1.0
766,16972,32,576,-1.00,-1.0
768,16968,8,616,-1.00,-1.0
769,16964,-20,544,-1.00,-1.0
771,16976,-20,664,-1.00,-1.0
773,17032,-48,428,-1.00,-1.0
775,17036,-176,444,-1.00,-1.0
777,17040,-176,452,-1.00,-1.0
779,17048,-16,800,-1.00,-1.0
781,16984,-80,628,-1.00,-1.0
783,17036,36,568,-1.00,-1.0
785,16972,-48,572,-1.00,-1.0
787,17020,44,524,-1.00,-1.0
791,16956,-80,548,-1.00,-1.0
793,17068,20,492,-1.00,-1.0
795,17080,-28,588,-1.00,-1.0
797,17040,32,532,-1.00,-1.0
799,16956,116,636,-1.00,-1.0
801,16960,-12,532,-1.00,-1.0
803,16976,32,608,-1.00,-1.0
805,16968,-8,448,-1.00,-1.0
807,16996,-64,552,-1.00,-1.0
809,16984,-32,596,-1.00,-1.0
811,16936,20,496,-1.00,-1.0
813,17016,36,572,-1.00,-1.0
814,17000,-28,500,-1.00,-1.0
816,17024,-72,548,-1.00,-1.0
818,16992,-40,660,-1.00,-1.0
820,17068,-56,736,-1.00,-1.0
822,16984,-64,640,-1.00,-1.0
826,16952,-88,644,-1.00,-1.0
828,17052,-52,724,-1.00,-1.0
830,16976,-20,644,-1.00,-1.0
832,17000,48,676,-1.00,-1.0
834,16972,52,560,-1.00,-1.0
836,16956,-4,692,-1.00,-1.0
838,17028,-44,652,-1.00,-1.0
840,16952,52,520,-1.00,-1.0
842,17028,-64,496,-1.00,-1.0
844,17020,16,472,-1.00,-1.0
846,16988,-92,468,-1.00,-1.0
848,17080,-64,580,-1.00,-1.0
850,17024,-48,472,-1.00,-1.0
852,17008,-40,604,-1.00,-1.0
854,17020,-76,656,-1.00,-1.0
856,17000,48,584,-1.00,-1.0
857,16980,-60,624,-1.00,-1.0
859,17056,-124,792,-1.00,-1.0
864,17144,8,524,-1.00,-1.0
866,17084,-180,576,-1.00,-1.0
867,17052,36,572,-1.00,-1.0
869,16956,-48,536,-1.00,-1.0
871,16936,-36,620,-1.00,-1.0
873,16980,68,716,-1.00,-1.0
875,17020,-76,476,-1.00,-1.0
877,16996,-36,756,-1.00,-1.0
879,17040,-68,716,-1.00,-1.0
881,16984,-28,628,-1.00,-1.0
883,17048,-112,580,-1.00,-1.0
885,16992,8,540,-1.00,-1.0
887,16884,40,524,-1.00,-1.0
889,17000,-48,496,-1.00,-1.0
891,16980,20,512,-1.00,-1.0
893,16876,-72,600,-1.00,-1.0
895,16952,-64,580,-1.00,-1.0
897,16956,-40,556,-1.00,-1.0
901,17100,-4,504,-1.00,-1.0
903,17096,-44,664,-1.00,-1.0
904,16940,-4,632,-1.00,-1.0
906,16964,36,688,-1.00,-1.0
908,16988,-80,532,-1.00,-1.0
910,16924,-92,344,-1.00,-1.0
912,17104,-84,464,-1.00,-1.0
914,16916,-72,592,-1.00,-1.0
916,17020,-112,684,-1.00,-1.0
918,17072,-108,572,-1.00,-1.0
920,16984,-8,608,-1.00,-1.0
922,16992,8,684,-1.00,-1.0
924,17012,76,628,-1.00,-1.0
926,16964,-112,524,-1.00,-1.0
928,17044,36,556,-1.00,-1.0
930,17020,-32,660,-1.00,-1.0
932,16984,-108,508,-1.00,-1.0
934,16988,36,700,-1.00,-1.0
938,17008,12,600,-1.00,-1.0
940,17024,-56,736,-1.00,-1.0
941,16924,28,444,-1.00,-1.0
943,17016,-64,536,-1.00,-1.0
945,16904,-28,636,-1.00,-1.0
947,16952,-56,492,-1.00,-1.0
949,17016,12,624,-1.00,-1.0
951,16992,24,576,-1.00,-1.0
953,17032,-76,628,-1.00,-1.0
955,16984,-12,604,-1.00,-1.0
957,16880,16,592,-1.00,-1.0
959,17020,12,508,-1.00,-1.0
961,16940,-20,608,-1.00,-1.0
963,16976,-64,500,-1.00,-1.0
965,17008,-92,588,-1.00,-1.0
967,17004,-60,624,-1.00,-1.0
969,16992,-4,484,-1.00,-1.0
971,17024,-36,560,-1.00,-1.0
975,17072,4,560,-1.00,-1.0
977,16976,-16,704,-1.00,-1.0
979,17028,128,552,-1.00,-1.0
981,17020,-16,520,-1.00,-1.0
983,17032,108,468,-1.00,-1.0
985,17016,0,580,-1.00,-1.0
986,16988,72,612,-1.00,-1.0
988,17060,-24,716,-1.00,-1.0
990,16988,-32,640,-1.00,-1.0
992,17032,12,536,-1.00,-1.0
994,16972,80,600,-1.00,-1.0
996,16896,-28,520,-1.00,-1.0
998,16952,36,632,-1.00,-1.0
1000,16996,-108,648,-1.00,-1.0
1002,16964,-4,592,-1.00,-1.0
1004,16960,40,616,-1.00,-1.0
1006,16932,-28,700,-1.00,-1.0
1008,16944,-96,624,-1.00,-1.0
1012,17088,0,596,-1.00,-1.0
1014,16992,-4,556,-1.00,-1.0
1016,17080,-56,580,-1.00,-1.0
1018,16920,-12,588,-1.00,-1.0
1020,17000,-76,584,-1.00,-1.0
1022,16984,-24,580,-1.00,-1.0
1024,17012,4,656,-1.00,-1.0
1025,16992,-132,604,-1.00,-1.0
1028,16992,-104,560,-1.00,-1.0
1030,17004,16,580,-1.00,-1.0
1031,16972,-64,536,-1.00,-1.0
1033,16924,-16,568,-1.00,-1.0
1035,16988,-80,512,-1.00,-1.0
1037,17064,60,584,-1.00,-1.0
1039,17040,36,512,-1.00,-1.0
1041,17020,-16,508,-1.00,-1.0
1043,17100,-76,536,-1.00,-1.0
1047,16992,28,624,-1.00,-1.0
1049,17140,-16,496,-1.00,-1.0
1051,16968,40,680,-1.00,-1.0
1053,17056,-44,532,-1.00,-1.0
1055,17100,-48,632,-1.00,-1.0
1057,17048,-88,708,-1.00,-1.0
1059,17060,12,596,-1.00,-1.0
1061,17080,12,596,-1.00,-1.0
1063,17000,-76,608,-1.00,-1.0
1065,17028,-20,508,-1.00,-1.0
1067,17048,44,716,-1.00,-1.0
1069,17012,28,704,-1.00,-1.0
1070,16956,40,548,-1.00,-1.0
1073,17000,20,704,-1.00,-1.0
1075,16888,52,696,-1.00,-1.0
1076,17000,36,580,-1.00,-1.0
1078,17004,-8,696,-1.00,-1.0
1083,17004,20,768,-1.00,-1.0
1085,17088,28,668,-1.00,-1.0
1086,16920,64,544,-1.00,-1.0
1088,16992,-24,516,-1.00,-1.0
1090,16980,-16,636,-1.00,-1.0
1092,16944,-48,664,-1.00,-1.0
1094,16948,-76,720,-1.00,-1.0
1096,16948,-60,568,-1.00,-1.0
1098,17060,-68,624,-1.00,-1.0
1100,16908,-32,592,-1.00,-1.0
1102,17024,24,520,-1.00,-1.0
1104,16992,-24,552,-1.00,-1.0
1106,17076,-92,556,-1.00,-1.0
1108,17020,24,568,-1.00,-1.0
1110,17020,16,688,-1.00,-1.0
1112,17008,-100,700,-1.00,-1.0
1114,16900,-16,572,-1.00,-1.0
1115,17088,40,624,-1.00,-1.0
1120,16960,-32,636,-1.00,-1.0
1122,16944,0,520,-1.00,-1.0
1123,17040,-116,592,-1.00,-1.0
1125,16948,12,512,-1.00,-1.0
1127,16948,8,552,-1.00,-1.0
1129,17128,-80,588,-1.00,-1.0
1131,16952,12,572,-1.00,-1.0
1133,16880,-28,628,-1.00,-1.0
1135,16916,-40,508,-1.00,-1.0
1137,16932,-72,576,-1.00,-1.0
1139,17000,20,448,-1.00,-1.0
1141,16924,-60,592,-1.00,-1.0
1143,16940,-4,548,-1.00,-1.0
1145,17020,-72,772,-1.00,-1.0
1147,16996,-16,448,-1.00,-1.0
1149,17032,92,612,-1.00,-1.0
1151,17004,-20,624,-1.00,-1.0
1155,17000,-40,588,-1.00,-1.0
1157,17068,48,628,-1.00,-1.0
1159,16976,-20,600,-1.00,-1.0
1161,16956,-40,548,-1.00,-1.0
1163,16948,-56,672,-1.00,-1.0
1165,16944,-36,616,-1.00,-1.0
1167,16964,60,492,-1.00,-1.0
1168,16920,-16,552,-1.00,-1.0
1170,17024,-32,504,-1.00,-1.0
1172,17004,24,532,-1.00,-1.0
1174,17036,-28,780,-1.00,-1.0
1176,16964,-28,624,-1.00,-1.0
1178,17000,-24,628,-1.00,-1.0
1180,17016,-72,676,-1.00,-1.0
1182,16924,36,708,-1.00,-1.0
1184,16996,-28,608,-1.00,-1.0
1186,17044,0,632,-1.00,-1.0
1190,16976,-104,740,-1.00,-1.0
1192,17068,36,692,-1.00,-1.0
1194,17068,-52,576,-1.00,-1.0
1196,17064,-4,600,-1.00,-1.0
1198,16964,8,660,-1.00,-1.0
1200,17008,28,648,-1.00,-1.0
1202,16896,44,600,-1.00,-1.0
1204,17000,-32,536,-1.00,-1.0
1205,17036,40,580,-1.00,-1.0
1207,17028,-48,608,-1.00,-1.0
1209,16976,-16,632,-1.00,-1.0
1211,16984,-156,716,-1.00,-1.0
1213,16924,-112,548,-1.00,-1.0
1215,16952,72,656,-1.00,-1.0
1217,16892,-32,684,-1.00,-1.0
1219,16932,32,708,-1.00,-1.0
1221,16984,-16,600,-1.00,-1.0
1225,17072,72,556,-1.00,-1.0
1227,16984,-8,708,-1.00,-1.0
1229,17036,36,612,-1.00,-1.0
1231,16900,36,640,-1.00,-1.0
1233,16928,-24,536,-1.00,-1.0
1235,17084,-76,560,-1.00,-1.0
1237,17040,-12,544,-1.00,-1.0
1239,16996,-88,592,-1.00,-1.0
1241,16916,-64,476,-1.00,-1.0
1243,17000,28,592,-1.00,-1.0
1245,16984,20,720,-1.00,-1.0
1246,16940,-124,676,-1.00,-1.0
1248,16964,-64,740,-1.00,-1.0
1250,17084,-52,620,-1.00,-1.0
1252,16976,-8,700,-1.00,-1.0
1254,17132,-84,564,-1.00,-1.0
1256,17080,-44,728,-1.00,-1.0
1258,17028,20,616,-1.00,-1.0
1262,16932,-4,600,-1.00,-1.0
1264,17060,-12,548,-1.00,-1.0
1266,17100,-40,696,-1.00,-1.0
1268,16976,-120,664,-1.00,-1.0
1270,16984,-64,620,-1.00,-1.0
1272,17056,8,600,-1.00,-1.0
1274,17068,36,680,-1.00,-1.0
1276,16880,-24,428,-1.00,-1.0
1278,16940,-40,476,-1.00,-1.0
1280,16892,-100,580,-1.00,-1.0
1282,16976,-44,632,-1.00,-1.0
1284,16968,4,628,-1.00,-1.0
1285,17040,68,540,-1.00,-1.0
1288,16964,-20,532,-1.00,-1.0
1289,16972,-56,508,-1.00,-1.0
1291,16916,-16,544,-1.00,-1.0
1293,17020,-124,524,-1.00,-1.0
1297,17072,24,508,-1.00,-1.0
1299,17064,-36,568,-1.00,-1.0
1301,17016,28,532,-1.00,-1.0
1303,17004,-20,460,-1.00,-1.0
1305,17060,-28,516,-1.00,-1.0
1307,16984,-116,592,-1.00,-1.0
1309,17016,-32,628,-1.00,-1.0
1311,16932,72,508,-1.00,-1.0
1313,16928,56,504,-1.00,-1.0
1315,16936,-100,608,-1.00,-1.0
1317,16928,-84,664,-1.00,-1.0
1319,16980,32,448,-1.00,-1.0
1321,16996,-60,692,-1.00,-1.0
1323,16996,12,668,-1.00,-1.0
1325,17064,-72,672,-1.00,-1.0
1327,17024,20,720,-1.00,-1.0
1329,16896,-20,556,-1.00,-1.0
1333,16916,-68,640,-1.00,-1.0
1335,16992,-56,556,-1.00,-1.0
1337,16984,-24,512,-1.00,-1.0
1339,17000,0,644,-1.00,-1.0
1340,17036,148,624,-1.00,-1.0
1342,16996,56,596,-1.00,-1.0
1344,16984,-16,700,-1.00,-1.0
1346,16888,-40,656,-1.00,-1.0
1348,16828,60,528,-1.00,-1.0
1350,16996,-64,660,-1.00,-1.0
1352,17068,64,580,-1.00,-1.0
1354,16984,44,616,-1.00,-1.0
1356,17012,12,596,-1.00,-1.0
1358,17056,-40,528,-1.00,-1.0
1360,16956,28,580,-1.00,-1.0
1362,16980,-60,660,-1.00,-1.0
1364,16968,4,544,-1.00,-1.0
1366,17004,-44,648,-1.00,-1.0
1370,16976,-44,628,-1.00,-1.0
1372,16864,-100,656,-1.00,-1.0
1374,16964,-80,644,-1.00,-1.0
1376,17036,-40,612,-1.00,-1.0
1378,16992,24,684,-1.00,-1.0
1380,17000,4,424,-1.00,-1.0
1382,17000,-8,696,-1.00,-1.0
1384,17000,0,536,-1.00,-1.0
1386,16972,4,520,-1.00,-1.0
1388,16956,-44,520,-1.00,-1.0
1389,17056,-12,668,-1.00,-1.0
1391,16976,-68,612,-1.00,-1.0
1393,16976,-16,524,-1.00,-1.0
1395,17008,72,584,-1.00,-1.0
1397,16984,-116,652,-1.00,-1.0
1399,16948,-144,808,-1.00,-1.0
1401,17100,-108,576,-1.00,-1.0
1405,16916,-24,648,-1.00,-1.0
1407,17052,60,652,-1.00,-1.0
1409,17032,20,720,-1.00,-1.0
1411,17052,32,612,-1.00,-1.0
1413,17036,-20,468,-1.00,-1.0
1415,17044,-40,612,-1.00,-1.0
1417,16968,-64,600,-1.00,-1.0
1419,16928,24,608,-1.00,-1.0
1421,17024,-16,612,-1.00,-1.0
1423,16960,-56,664,-1.00,-1.0
1425,17008,-108,556,-1.00,-1.0
1427,16984,-48,592,-1.00,-1.0
1429,16948,20,564,-1.00,-1.0
1431,16984,-100,664,-1.00,-1.0
1433,17072,-32,544,-1.00,-1.0
1434,17016,-24,448,-1.00,-1.0
1436,16984,84,660,-1.00,-1.0
1441,17116,-132,488,-1.00,-1.0
1443,17096,-116,624,-1.00,-1.0
1444,17048,-24,640,-1.00,-1.0
1446,16976,52,768,-1.00,-1.0
1448,16924,36,536,-1.00,-1.0
1450,17036,-88,556,-1.00,-1.0
1452,16964,-4,608,-1.00,-1.0
1454,16956,-52,648,-1.00,-1.0
1456,16992,-44,636,-1.00,-1.0
1458,17016,0,496,-1.00,-1.0
1460,17084,-32,636,-1.00,-1.0
1462,17012,-92,624,-1.00,-1.0
1464,17076,-52,648,-1.00,-1.0
1466,16928,-100,560,-1.00,-1.0
1468,16928,-4,560,-1.00,-1.0
1470,17012,-40,504,-1.00,-1.0
1472,17040,60,576,-1.00,-1.0
1476,16964,20,420,-1.00,-1.0
1478,16968,-84,660,-1.00,-1.0
1480,16988,8,492,-1.00,-1.0
1481,17060,-24,572,-1.00,-1.0
1483,16984,-20,696,-1.00,-1.0
1485,16996,-12,548,-1.00,-1.0
1487,17056,-8,484,-1.00,-1.0
1489,16992,-84,564,-1.00,-1.0
1491,17076,-12,540,-1.00,-1.0
1493,17008,52,620,-1.00,-1.0
1495,17080,-120,560,-1.00,-1.0
1497,17004,80,536,-1.00,-1.0
1499,16964,-60,592,-1.00,-1.0
1501,17092,-100,620,-1.00,-1.0
1503,16896,-24,592,-1.00,-1.0
1505,16964,0,536,-1.00,-1.0
1507,17032,0,528,-1.00,-1.0
1509,17000,-128,640,-1.00,-1.0
1513,16972,-80,556,-1.00,-1.0
1515,17000,108,540,-1.00,-1.0
1517,16984,36,544,-1.00,-1.0
1519,16948,-28,560,-1.00,-1.0
1521,16980,-16,624,-1.00,-1.0
1523,17060,-60,648,-1.00,-1.0
1524,16996,0,584,-1.00,-1.0
1526,16968,-48,348,-1.00,-1.0
1528,17028,-72,556,-1.00,-1.0
1530,16976,-96,676,-1.00,-1.0
1532,17080,-64,676,-1.00,-1.0
1534,17020,-16,556,-1.00,-1.0
1536,16988,76,716,-1.00,-1.0
1538,17028,92,588,-1.00,-1.0
1540,17012,-64,688,-1.00,-1.0
1542,17036,-56,580,-1.00,-1.0
1544,17000,20,704,-1.00,-1.0
1548,16968,36,612,-1.00,-1.0
1550,16996,24,660,-1.00,-1.0
1552,17000,-16,428,-1.00,-1.0
1554,17028,-136,608,-1.00,-1.0
1556,17068,4,520,-1.00,-1.0
1558,17024,64,684,-1.00,-1.0
1560,17032,-76,556,-1.00,-1.0
1562,16972,24,512,-1.00,-1.0
1563,16996,-64,684,-1.00,-1.0
1566,17016,-116,596,-1.00,-1.0
1567,16992,-44,556,-1.00,-1.0
1569,16932,4,728,-1.00,-1.0
1571,17016,-24,644,-1.00,-1.0
1573,17020,68,520,-1.00,-1.0
1575,16928,-40,656,-1.00,-1.0
1577,16944,0,576,-1.00,-1.0
1579,16936,-80,576,-1.00,-1.0
1583,17044,40,692,-1.00,-1.0
1585,17020,-20,732,-1.00,-1.0
1587,17036,4,612,-1.00,-1.0
1589,17104,-16,600,-1.00,-1.0
1591,17008,-76,572,-1.00,-1.0
1593,16888,-148,620,-1.00,-1.0
1595,16924,-88,640,-1.00,-1.0
1597,16984,-20,528,-1.00,-1.0
1599,17040,-96,440,-1.00,-1.0
1601,16928,16,564,-1.00,-1.0
1603,17028,-76,584,-1.00,-1.0
1605,16976,8,416,-1.00,-1.0
1607,16900,-56,760,-1.00,-1.0
1609,16956,-96,640,-1.00,-1.0
1611,17000,-40,632,-1.00,-1.0
1612,16948,32,472,-1.00,-1.0
1614,16944,-8,588,-1.00,-1.0
1619,17072,4,600,-1.00,-1.0
1621,17012,52,536,-1.00,-1.0
1622,16984,-20,536,-1.00,-1.0
1624,16924,60,576,-1.00,-1.0
1626,17044,-56,556,-1.00,-1.0
1628,16936,-104,628,-1.00,-1.0
1630,17000,-24,676,-1.00,-1.0
1632,17048,-44,600,-1.00,-1.0
1634,16972,-80,640,-1.00,-1.0
1636,17060,-48,516,-1.00,-1.0
1638,17072,-24,552,-1.00,-1.0
1640,17012,-60,604,-1.00,-1.0
1642,16984,0,456,-1.00,-1.0
1644,17052,44,540,-1.00,-1.0
1646,16904,-160,560,-1.00,-1.0
1648,16912,-100,688,-1.00,-1.0
1650,17000,-12,632,-1.00,-1.0
1651,17048,-12,536,-1.00,-1.0
1656,16948,-52,692,-1.00,-1.0
1658,16944,-64,640,-1.00,-1.0
1660,17008,-52,748,-1.00,-1.0
1661,17000,32,592,-1.00,-1.0
1664,17124,-108,592,-1.00,-1.0
1665,17000,-68,744,-1.00,-1.0
1667,16964,-128,644,-1.00,-1.0
1669,17012,-112,532,-1.00,-1.0
1671,16928,72,688,-1.00,-1.0
1673,16948,-28,600,-1.00,-1.0
1675,16960,-72,704,-1.00,-1.0
1677,16992,-52,504,-1.00,-1.0
1679,16988,-36,532,-1.00,-1.0
1681,17000,16,600,-1.00,-1.0
1683,16948,-24,520,-1.00,-1.0
1685,16920,0,652,-1.00,-1.0
1687,16968,-52,608,-1.00,-1.0
1691,17072,8,564,-1.00,-1.0
1693,16936,72,588,-1.00,-1.0
1695,16988,-64,704,-1.00,-1.0
1697,17024,-88,652,-1.00,-1.0
1699,16996,-36,480,-1.00,-1.0
1701,17008,-60,672,-1.00,-1.0
1703,17036,-28,616,-1.00,-1.0
1705,16980,0,556,-1.00,-1.0
1706,17008,-184,676,-1.00,-1.0
1708,17036,-64,680,-1.00,-1.0
1710,17008,16,576,-1.00,-1.0
1712,16960,16,580,-1.00,-1.0
1714,16888,-8,508,-1.00,-1.0
1716,17008,-64,732,-1.00,-1.0
1718,17012,-24,668,-1.00,-1.0
1720,16936,28,568,-1.00,-1.0
1722,17028,-20,528,-1.00,-1.0
1726,17056,0,604,-1.00,-1.0
1728,17020,24,648,-1.00,-1.0
1730,17000,-60,580,-1.00,-1.0
1732,16932,0,616,-1.00,-1.0
1734,17024,16,696,-1.00,-1.0
1736,17044,-140,604,-1.00,-1.0
1738,16976,-32,576,-1.00,-1.0
1740,17072,-92,556,-1.00,-1.0
1742,16964,-108,572,-1.00,-1.0
1744,17000,12,680,-1.00,-1.0
1746,16952,28,532,-1.00,-1.0
1748,16980,12,468,-1.00,-1.0
1749,16976,-40,556,-1.00,-1.0
1752,17068,-124,536,-1.00,-1.0
1754,16944,-8,632,-1.00,-1.0
1755,17084,-12,664,-1.00,-1.0
1757,16956,112,724,-1.00,-1.0
1761,16948,-48,608,-1.00,-1.0
1763,17016,-128,568,-1.00,-1.0
1765,17044,-84,608,-1.00,-1.0
1767,17048,-84,652,-1.00,-1.0
1769,16992,-48,600,-1.00,-1.0
1771,17016,-100,680,-1.00,-1.0
1773,16932,56,532,-1.00,-1.0
1775,16972,0,632,-1.00,-1.0
1777,16984,64,568,-1.00,-1.0
1779,16988,-28,616,-1.00,-1.0
1781,16976,-28,580,-1.00,-1.0
1783,16976,4,696,-1.00,-1.0
1785,16968,20,600,-1.00,-1.0
1787,17032,-96,628,-1.00,-1.0
1789,16984,-92,472,-1.00,-1.0
1791,17036,-32,532,-1.00,-1.0
1792,16856,8,480,-1.00,-1.0
1794,16936,24,576,-1.00,-1.0
1798,16932,-40,672,-1.00,-1.0
1800,16976,0,652,-1.00,-1.0
1802,17016,-12,624,-1.00,-1.0
1804,17004,0,600,-1.00,-1.0
1806,17024,-96,632,-1.00,-1.0
1808,16972,-28,440,-1.00,-1.0
1810,16980,-56,572,-1.00,-1.0
1812,16964,-24,540,-1.00,-1.0
1814,16988,-16,768,-1.00,-1.0
1816,17076,-36,556,-1.00,-1.0
1818,16940,100,544,-1.00,-1.0
1820,16984,-4,596,-1.00,-1.0
1822,16896,-28,596,-1.00,-1.0
1824,17096,-12,556,-1.00,-1.0
1826,17096,-32,628,-1.00,-1.0
1827,16976,-108,492,-1.00,-1.0
1829,17012,88,624,-1.00,-1.0
1834,16972,28,584,-1.00,-1.0
1836,16996,-84,512,-1.00,-1.0
1837,16952,-8,472,-1.00,-1.0
1839,16932,12,552,-1.00,-1.0
1841,17008,52,512,-1.00,-1.0
1843,16960,12,584,-1.00,-1.0
1845,16988,0,564,-1.00,-1.0
1847,17036,44,748,-1.00,-1.0
1849,17052,-72,608,-1.00,-1.0
1851,16956,-68,496,-1.00,-1.0
1853,16916,-192,488,-1.00,-1.0
1855,16992,40,532,-1.00,-1.0
1857,17040,28,696,-1.00,-1.0
1859,16996,-20,552,-1.00,-1.0
1861,17016,-56,508,-1.00,-1.0
1863,17052,88,588,-1.00,-1.0
1865,16996,24,680,-1.00,-1.0
1869,17036,24,592,-1.00,-1.0
1871,16892,8,472,-1.00,-1.0
1873,16948,12,576,-1.00,-1.0
1875,17048,-28,524,-1.00,-1.0
1877,17068,-4,592,-1.00,-1.0
1879,16888,-92,660,-1.00,-1.0
1881,17016,-80,664,-1.00,-1.0
1882,17128,-20,584,-1.00,-1.0
1884,17080,-8,604,-1.00,-1.0
1886,17020,28,484,-1.00,-1.0
1888,17100,-60,612,-1.00,-1.0
1890,16976,0,576,-1.00,-1.0
1892,17000,44,608,-1.00,-1.0
1894,17000,-40,616,-1.00,-1.0
1896,16900,12,604,-1.00,-1.0
1898,16956,12,532,-1.00,-1.0
1900,17088,4,516,-1.00,-1.0
1902,17016,-12,692,-1.00,-1.0
1906,16932,-112,516,-1.00,-1.0
1908,16904,12,652,-1.00,-1.0
1910,16996,-16,560,-1.00,-1.0
1912,17032,-76,536,-1.00,-1.0
1914,16996,36,584,-1.00,-1.0
1916,16908,-92,548,-1.00,-1.0
1918,17020,28,552,-1.00,-1.0
1920,16972,56,712,-1.00,-1.0
1922,16964,12,652,-1.00,-1.0
1924,17104,-36,488,-1.00,-1.0
1926,17016,52,508,-1.00,-1.0
1927,17008,-32,544,-1.00,-1.0
1929,17044,16,572,-1.00,-1.0
1931,16952,-36,504,-1.00,-1.0
1933,17008,-104,488,-1.00,-1.0
1935,16996,-28,596,-1.00,-1.0
1937,16944,-8,556,-1.00,-1.0
1941,16968,-16,624,-1.00,-1.0
1943,16972,-72,572,-1.00,-1.0
1945,16936,-68,516,-1.00,-1.0
1947,17084,-76,644,-1.00,-1.0
1949,16960,-12,524,-1.00,-1.0
1951,16960,-32,592,-1.00,-1.0
1953,16940,-132,668,-1.00,-1.0
1955,16988,-52,452,-1.00,-1.0
1957,16920,-8,720,-1.00,-1.0
1959,16932,-24,368,-1.00,-1.0
1961,17028,24,504,-1.00,-1.0
1963,17044,48,580,-1.00,-1.0
1965,17016,-4,464,-1.00,-1.0
1967,17012,24,492,-1.00,-1.0
1969,17020,0,456,-1.00,-1.0
1971,17116,-96,512,-1.00,-1.0
1972,17044,-24,492,-1.00,-1.0
1974,17008,-44,560,-1.00,-1.0
1979,16968,-124,536,-1.00,-1.0
1981,16944,-104,476,-1.00,-1.0
1982,16920,-24,592,-1.00,-1.0
1984,17020,-32,588,-1.00,-1.0
1986,16976,-64,516,-1.00,-1.0
1988,16932,64,532,-1.00,-1.0
1990,17072,12,620,-1.00,-1.0
1992,16944,-140,728,-1.00,-1.0
1994,16920,-48,732,-1.00,-1.0
1996,16976,-104,728,-1.00,-1.0
1998,17072,-84,588,-1.00,-1.0
2000,17000,-4,684,-1.00,-1.0
2002,16984,-40,632,-1.00,-1.0
2004,16980,-36,752,-1.00,-1.0
2006,17028,28,540,-1.00,-1.0
2008,17000,-12,656,-1.00,-1.0
2010,17020,-44,548,-1.00,-1.0
2014,16888,-56,532,-1.00,-1.0
2016,16984,-16,448,-1.00,-1.0
2018,16948,-16,696,-1.00,-1.0
2020,16976,20,580,-1.00,-1.0
2022,16972,84,592,-1.00,-1.0
2024,16972,-24,608,-1.00,-1.0
2025,17052,-28,644,-1.00,-1.0
2027,17056,-64,548,-1.00,-1.0
2029,17008,-68,676,-1.00,-1.0
2031,16916,-12,688,-1.00,-1.0
2033,17028,40,716,-1.00,-1.0
2035,17020,36,640,-1.00,-1.0
2037,16968,-36,580,-1.00,-1.0
2039,17020,68,540,-1.00,-1.0
2041,16964,-60,656,-1.00,-1.0
2043,16872,100,500,-1.00,-1.0
2045,17100,-16,548,-1.00,-1.0
2049,16964,-8,524,-1.00,-1.0
2051,17148,-12,540,-1.00,-1.0
2053,16964,-40,564,-1.00,-1.0
2055,16892,-32,800,-1.00,-1.0
2057,17008,4,644,-1.00,-1.0
2059,16944,-68,656,-1.00,-1.0
2061,17180,-52,648,-1.00,-1.0
2062,17020,-60,616,-1.00,-1.0
2065,16992,0,580,-1.00,-1.0
2067,16932,-48,452,-1.00,-1.0
2068,16960,-44,548,-1.00,-1.0
2070,16940,12,576,-1.00,-1.0
2072,16960,-48,656,-1.00,-1.0
2074,17064,-8,600,-1.00,-1.0
2076,17020,-92,552,-1.00,-1.0
2078,16984,-136,612,-1.00,-1.0
2080,17024,-88,608,-1.00,-1.0
2084,16944,44,536,-1.00,-1.0
2086,17020,-76,536,-1.00,-1.0
2088,16960,-64,572,-1.00,-1.0
2090,17136,36,572,-1.00,-1.0
2092,17000,-28,580,-1.00,-1.0
2094,17052,-120,644,-1.00,-1.0
2096,16972,-12,464,-1.00,-1.0
2098,16948,-40,584,-1.00,-1.0
2099,16972,-48,560,-1.00,-1.0
2102,16940,4,600,-1.00,-1.0
2104,16956,0,508,-1.00,-1.0
2105,17004,24,560,-1.00,-1.0
2107,17056,-28,496,-1.00,-1.0
2109,17004,52,704,-1.00,-1.0
2111,17096,48,656,-1.00,-1.0
2113,16972,-48,592,-1.00,-1.0
2115,17020,-28,540,-1.00,-1.0
2119,17064,-72,488,-1.00,-1.0
2121,17024,88,608,-1.00,-1.0
2123,16988,12,492,-1.00,-1.0
2125,16980,-72,756,-1.00,-1.0
2127,16932,-208,588,-1.00,-1.0
2129,16956,-44,500,-1.00,-1.0
2131,17020,-60,492,-1.00,-1.0
2133,17072,92,620,-1.00,-1.0
2135,17068,-36,540,-1.00,-1.0
2137,16932,-44,676,-1.00,-1.0
2139,16964,-64,624,-1.00,-1.0
2141,16960,-48,456,-1.00,-1.0
2143,16984,-16,588,-1.00,-1.0
2145,17008,-32,564,-1.00,-1.0
2147,17044,-52,484,-1.00,-1.0
2149,17044,20,600,-1.00,-1.0
2150,16996,-8,556,-1.00,-1.0
2152,16964,-24,580,-1.00,-1.0
2157,16988,-120,684,-1.00,-1.0
2159,17032,-36,640,-1.00,-1.0
2160,16960,-24,652,-1.00,-1.0
2162,16944,-76,616,-1.00,-1.0
2164,16956,-32,560,-1.00,-1.0
2166,16988,-24,576,-1.00,-1.0
2168,16984,-24,560,-1.00,-1.0
2170,17060,-64,608,-1.00,-1.0
2172,16984,-8,568,-1.00,-1.0
2174,17036,84,712,-1.00,-1.0
2176,17072,-28,616,-1.00,-1.0
2178,17072,-36,512,-1.00,-1.0
2180,17040,-72,504,-1.00,-1.0
2182,16948,72,480,-1.00,-1.0
2184,16988,-96,656,-1.00,-1.0
2186,17012,-32,568,-1.00,-1.0
2188,16888,24,556,-1.00,-1.0
2192,16980,-32,676,-1.00,-1.0
2194,17024,-24,512,-1.00,-1.0
2196,16964,-12,620,-1.00,-1.0
2198,17140,60,584,-1.00,-1.0
2200,16920,-48,616,-1.00,-1.0
2202,17060,-76,528,-1.00,-1.0
2203,17020,-112,600,-1.00,-1.0
2205,17016,-128,528,-1.00,-1.0
2207,17008,-48,636,-1.00,-1.0
2209,17068,-68,576,-1.00,-1.0
2211,17028,-96,588,-1.00,-1.0
2213,17020,-8,532,-1.00,-1.0
2215,17000,-32,612,-1.00,-1.0
2217,16960,16,636,-1.00,-1.0
2219,17100,-72,572,-1.00,-1.0
2221,16984,16,624,-1.00,-1.0
2223,17032,-40,652,-1.00,-1.0
2227,17016,-60,564,-1.00,-1.0
2229,16964,-8,536,-1.00,-1.0
2231,17008,12,524,-1.00,-1.0
2233,17020,-60,592,-1.00,-1.0
2235,16996,24,500,-1.00,-1.0
2237,17068,28,528,-1.00,-1.0
2239,17032,60,588,-1.00,-1.0
2241,16952,-88,608,-1.00,-1.0
2242,16996,-12,684,-1.00,-1.0
2245,17088,-100,528,-1.00,-1.0
2247,16976,24,460,-1.00,-1.0
2248,17020,36,480,-1.00,-1.0
2250,16980,12,632,-1.00,-1.0
2252,16976,-116,568,-1.00,-1.0
2254,16936,-76,620,-1.00,-1.0
2256,16996,-72,556,-1.00,-1.0
2258,16952,-112,496,-1.00,-1.0
2262,17004,60,660,-1.00,-1.0
2264,16952,100,624,-1.00,-1.0
2266,16996,-64,608,-1.00,-1.0
2268,16968,-40,704,-1.00,-1.0
2270,16944,-44,732,-1.00,-1.0
2272,17060,12,756,-1.00,-1.0
2274,17012,-28,736,-1.00,-1.0
2276,17048,44,596,-1.00,-1.0
2278,16960,64,784,-1.00,-1.0
2280,16940,-48,564,-1.00,-1.0
2282,17028,44,624,-1.00,-1.0
2284,17124,-116,452,-1.00,-1.0
2286,17020,-76,660,-1.00,-1.0
2288,17016,-52,676,-1.00,-1.0
2290,17036,-20,524,-1.00,-1.0
2291,17028,-100,544,-1.00,-1.0
2293,16992,44,600,-1.00,-1.0
2298,17060,-40,592,-1.00,-1.0
2300,16864,-8,448,-1.00,-1.0
2301,17020,-88,580,-1.00,-1.0
2303,17056,-56,608,-1.00,-1.0
2305,16988,-40,564,-1.00,-1.0
2307,17028,-24,564,-1.00,-1.0
2309,17068,12,612,-1.00,-1.0
2311,16996,-76,524,-1.00,-1.0
2313,17032,-20,664,-1.00,-1.0
2315,16932,64,680,-1.00,-1.0
2317,17088,-16,616,-1.00,-1.0
2319,16956,-76,660,-1.00,-1.0
2321,16980,-56,552,-1.00,-1.0
2323,16984,40,532,-1.00,-1.0
2325,16948,-36,552,-1.00,-1.0
2327,17024,-100,540,-1.00,-1.0
2329,17092,40,620,-1.00,-1.0
2331,16896,-84,544,-1.00,-1.0
2335,17048,24,596,-1.00,-1.0
2337,17056,0,520,-1.00,-1.0
2339,17044,-60,652,-1.00,-1.0
2340,17020,-116,608,-1.00,-1.0
2343,16992,-20,640,-1.00,-1.0
2345,16948,-56,648,-1.00,-1.0
2346,17008,-28,512,-1.00,-1.0
2348,16976,-40,628,-1.00,-1.0
2350,16940,-40,656,-1.00,-1.0
2352,17044,-152,668,-1.00,-1.0
2354,16984,-16,540,-1.00,-1.0
2356,16924,68,536,-1.00,-1.0
2358,16912,-32,592,-1.00,-1.0
2360,17008,-48,560,-1.00,-1.0
2362,17000,-136,544,-1.00,-1.0
2364,17020,-124,620,-1.00,-1.0
2366,16956,-72,480,-1.00,-1.0
2370,17076,-64,484,-1.00,-1.0
2372,16964,16,584,-1.00,-1.0
2374,16972,-60,632,-1.00,-1.0
2376,17068,-44,516,-1.00,-1.0
2378,16960,-40,628,-1.00,-1.0
2380,17092,-24,472,-1.00,-1.0
2382,17004,-16,524,-1.00,-1.0
2383,17056,-92,584,-1.00,-1.0
2385,16944,-60,568,-1.00,-1.0
2387,17044,-4,484,-1.00,-1.0
2389,16980,-76,772,-1.00,-1.0
2391,16976,-120,592,-1.00,-1.0
2393,17004,-28,608,-1.00,-1.0
2395,16984,-48,556,-1.00,-1.0
2397,16976,-188,640,-1.00,-1.0
2399,17068,16,560,-1.00,-1.0
2401,16960,-16,624,-1.00,-1.0
2405,16912,0,704,-1.00,-1.0
2407,17060,-88,568,-1.00,-1.0
2409,17020,12,556,-1.00,-1.0
2411,16956,16,600,-1.00,-1.0
2413,17004,0,444,-1.00,-1.0
2415,16964,-64,712,-1.00,-1.0
2417,16940,52,580,-1.00,-1.0
2419,17020,16,528,-1.00,-1.0
2421,17060,-76,520,-1.00,-1.0
2423,17144,24,544,-1.00,-1.0
2425,17056,-36,592,-1.00,-1.0
2426,17100,-40,600,-1.00,-1.0
2428,17052,-28,544,-1.00,-1.0
2430,17000,52,468,-1.00,-1.0
2432,16976,-68,480,-1.00,-1.0
2434,16964,56,436,-1.00,-1.0
2436,16924,84,708,-1.00,-1.0
2440,16924,-68,644,-1.00,-1.0
2442,17000,48,652,-1.00,-1.0
2444,16960,8,476,-1.00,-1.0
2446,17016,-88,524,-1.00,-1.0
2448,17020,20,668,-1.00,-1.0
2450,17048,-64,536,-1.00,-1.0
2452,16992,-40,500,-1.00,-1.0
2454,17008,-16,556,-1.00,-1.0
2456,17016,-40,512,-1.00,-1.0
2458,17036,-28,720,-1.00,-1.0
2460,17072,-80,492,-1.00,-1.0
2462,17008,-32,528,-1.00,-1.0
2464,16996,-80,460,-1.00,-1.0
2466,17020,32,600,-1.00,-1.0
2468,16976,-32,704,-1.00,-1.0
2470,16976,-68,524,-1.00,-1.0
2471,16964,-68,684,-1.00,-1.0
2476,17000,-108,676,-1.00,-1.0
2478,16992,-24,652,-1.00,-1.0
2480,17008,-100,564,-1.00,-1.0
2481,17056,-76,676,-1.00,-1.0
2483,17052,40,600,-1.00,-1.0
2485,17100,-12,424,-1.00,-1.0
2487,16980,-76,568,-1.00,-1.0
2489,17032,-80,612,-1.00,-1.0
2491,17068,48,664,-1.00,-1.0
2493,16964,-72,720,-1.00,-1.0
2495,16976,-76,644,-1.00,-1.0
2497,17012,-84,552,-1.00,-1.0
2499,17044,-104,576,-1.00,-1.0
2501,17000,12,496,-1.00,-1.0
2503,16952,-44,616,-1.00,-1.0
2505,17088,44,348,-1.00,-1.0
2507,16964,-64,664,-1.00,-1.0
2509,16944,-12,556,-1.00,-1.0
2513,17024,-44,584,-1.00,-1.0
2515,16940,0,656,-1.00,-1.0
2517,16952,-4,708,-1.00,-1.0
2519,17016,-16,524,-1.00,-1.0
2521,16964,8,452,-1.00,-1.0
2523,16940,-64,600,-1.00,-1.0
2525,17028,-32,544,-1.00,-1.0
2526,16948,40,624,-1.00,-1.0
2529,16896,-8,556,-1.00,-1.0
2531,16956,16,700,-1.00,-1.0
2532,16924,-4,600,-1.00,-1.0
2534,16888,-12,616,-1.00,-1.0
2536,16828,-40,644,-1.00,-1.0
2538,16984,-136,640,-1.00,-1.0
2540,16940,-56,700,-1.00,-1.0
2542,17020,36,612,-1.00,-1.0
2544,17040,28,676,-1.00,-1.0
2548,17032,-56,596,-1.00,-1.0
2550,16940,44,540,-1.00,-1.0
2552,16992,-56,516,-1.00,-1.0
2554,17032,52,532,-1.00,-1.0
2556,16968,-32,700,-1.00,-1.0
2558,16952,-8,704,-1.00,-1.0
2560,16980,-8,492,-1.00,-1.0
2562,16924,-68,596,-1.00,-1.0
2564,16940,-64,528,-1.00,-1.0
2566,16964,12,540,-1.00,-1.0
2568,16972,28,520,-1.00,-1.0
2570,16996,-20,444,-1.00,-1.0
2571,16928,-64,652,-1.00,-1.0
2574,17028,12,640,-1.00,-1.0
2576,16968,148,632,-1.00,-1.0
2577,16976,40,640,-1.00,-1.0
2579,16976,-56,516,-1.00,-1.0
2584,16964,-4,508,-1.00,-1.0
2586,16956,16,500,-1.00,-1.0
2587,17064,-28,780,-1.00,-1.0
2589,17088,-44,556,-1.00,-1.0
2591,17068,-84,444,-1.00,-1.0
2593,17040,-40,760,-1.00,-1.0
2595,16976,-16,632,-1.00,-1.0
2597,16940,-8,696,-1.00,-1.0
2599,16916,32,496,-1.00,-1.0
2601,16988,-4,608,-1.00,-1.0
2603,17008,-168,480,-1.00,-1.0
2605,16992,36,536,-1.00,-1.0
2607,17052,28,660,-1.00,-1.0
2609,16964,-40,520,-1.00,-1.0
2611,17004,68,608,-1.00,-1.0
2613,16996,-4,536,-1.00,-1.0
2615,17032,-104,644,-1.00,-1.0
2617,17060,48,528,-1.00,-1.0
2621,16940,-40,548,-1.00,-1.0
2623,16932,-76,596,-1.00,-1.0
2624,17040,-24,532,-1.00,-1.0
2626,16912,-28,560,-1.00,-1.0
2628,16924,-104,364,-1.00,-1.0
2630,16940,-104,524,-1.00,-1.0
2632,17076,-60,528,-1.00,-1.0
2634,16952,-68,676,-1.00,-1.0
2636,17132,-76,560,-1.00,-1.0
2638,16956,28,520,-1.00,-1.0
2640,16888,140,548,-1.00,-1.0
2642,17080,44,456,-1.00,-1.0
2644,16976,4,584,-1.00,-1.0
2646,17044,-88,672,-1.00,-1.0
2648,17036,-48,548,-1.00,-1.0
2650,17044,-76,648,-1.00,-1.0
2652,17008,4,728,-1.00,-1.0
2656,16964,40,760,-1.00,-1.0
2658,17048,-8,584,-1.00,-1.0
2660,17032,44,768,-1.00,-1.0
2661,16968,-44,456,-1.00,-1.0
2664,16900,-16,536,-1.00,-1.0
2665,16992,44,620,-1.00,-1.0
2667,16952,-72,592,-1.00,-1.0
2669,16940,-48,568,-1.00,-1.0
2671,16992,-76,728,-1.00,-1.0
2673,17052,0,644,-1.00,-1.0
2675,16992,-44,660,-1.00,-1.0
2677,16992,-84,508,-1.00,-1.0
2679,17020,-48,528,-1.00,-1.0
2681,17000,-56,588,-1.00,-1.0
2683,17016,20,576,-1.00,-1.0
2685,17028,32,548,-1.00,-1.0
2687,17060,-44,684,-1.00,-1.0
2691,16940,-56,676,-1.00,-1.0
2693,17024,-68,500,-1.00,-1.0
2695,16968,48,564,-1.00,-1.0
2697,16960,-72,532,-1.00,-1.0
2699,17048,-32,572,-1.00,-1.0
2701,16936,72,608,-1.00,-1.0
2703,17092,-8,584,-1.00,-1.0
2705,16948,-40,636,-1.00,-1.0
2706,17044,-60,464,-1.00,-1.0
2708,16992,-80,708,-1.00,-1.0
2710,16964,-40,572,-1.00,-1.0
2712,17140,-68,524,-1.00,-1.0
2714,17020,-36,524,-1.00,-1.0
2716,16932,100,592,-1.00,-1.0
2718,16952,-40,552,-1.00,-1.0
2720,16968,4,564,-1.00,-1.0
2722,17032,4,668,-1.00,-1.0
2726,17060,-52,588,-1.00,-1.0
2728,16960,-28,608,-1.00,-1.0
2730,17028,-44,600,-1.00,-1.0
2732,16904,28,444,-1.00,-1.0
2734,16984,-56,584,-1.00,-1.0
2736,17008,-28,608,-1.00,-1.0
2738,16984,-16,536,-1.00,-1.0
2740,17000,-88,588,-1.00,-1.0
2742,17004,-28,596,-1.00,-1.0
2744,17048,-24,568,-1.00,-1.0
2746,17032,4,456,-1.00,-1.0
2748,17048,-92,616,-1.00,-1.0
2750,16864,-4,456,-1.00,-1.0
2752,16992,-24,600,-1.00,-1.0
2754,16992,44,488,-1.00,-1.0
2755,16976,-40,644,-1.00,-1.0
2757,16988,36,564,-1.00,-1.0
2759,16880,-40,604,-1.00,-1.0
2763,17020,8,636,-1.00,-1.0
2765,17012,0,544,-1.00,-1.0
2767,17032,92,424,-1.00,-1.0
2769,16976,-40,720,-1.00,-1.0
2771,17004,4,524,-1.00,-1.0
2773,17052,-64,500,-1.00,-1.0
2775,17020,-88,648,-1.00,-1.0
2777,16976,12,596,-1.00,-1.0
2779,16956,-12,680,-1.00,-1.0
2781,16960,-76,496,-1.00,-1.0
2783,16948,56,576,-1.00,-1.0
2785,16968,-56,564,-1.00,-1.0
2787,16980,-36,580,-1.00,-1.0
2789,16948,-84,724,-1.00,-1.0
2791,16964,8,552,-1.00,-1.0
2793,16992,-20,620,-1.00,-1.0
2794,16840,-88,552,-1.00,-1.0
2799,16988,-36,624,-1.00,-1.0
2801,16944,-92,452,-1.00,-1.0
2803,16988,-152,648,-1.00,-1.0
2804,16992,-20,528,-1.00,-1.0
2807,17012,44,692,-1.00,-1.0
2809,16984,-52,520,-1.00,-1.0
2810,16984,-92,580,-1.00,-1.0
2812,17048,-80,700,-1.00,-1.0
2814,17112,60,536,-1.00,-1.0
2816,17016,-68,528,-1.00,-1.0
2818,17060,12,588,-1.00,-1.0
2820,17060,-64,600,-1.00,-1.0
2822,17024,-72,652,-1.00,-1.0
2824,17032,-80,536,-1.00,-1.0
2826,17036,-48,608,-1.00,-1.0
2828,16968,0,584,-1.00,-1.0
2830,17008,-96,504,-1.00,-1.0
2834,17004,-36,616,-1.00,-1.0
2836,17072,8,644,-1.00,-1.0
2838,17036,-68,700,-1.00,-1.0
2840,17052,-124,556,-1.00,-1.0
2842,17028,-56,596,-1.00,-1.0
2844,16984,44,608,-1.00,-1.0
2846,17000,-76,612,-1.00,-1.0
2848,16932,0,596,-1.00,-1.0
2850,17048,-4,476,-1.00,-1.0
2852,17024,-64,712,-1.00,-1.0
2854,16952,60,612,-1.00,-1.0
2855,17020,-36,668,-1.00,-1.0
2857,16952,56,516,-1.00,-1.0
2859,16960,4,560,-1.00,-1.0
2861,16940,4,572,-1.00,-1.0
2863,17008,28,548,-1.00,-1.0
2865,16884,28,676,-1.00,-1.0
2867,17036,-72,652,-1.00,-1.0
2871,16980,92,576,-1.00,-1.0
2873,17056,-56,520,-1.00,-1.0
2875,16912,32,492,-1.00,-1.0
2877,16968,-8,624,-1.00,-1.0
2879,17000,-92,540,-1.00,-1.0
2881,17064,32,696,-1.00,-1.0
2883,16960,4,556,-1.00,-1.0
2885,17000,-36,484,-1.00,-1.0
2887,17000,80,680,-1.00,-1.0
2889,16996,-28,592,-1.00,-1.0
2891,17036,24,696,-1.00,-1.0
2893,17000,16,556,-1.00,-1.0
2894,16928,16,708,-1.00,-1.0
2897,16992,-16,684,-1.00,-1.0
2899,17000,-68,596,-1.00,-1.0
2900,16988,-92,616,-1.00,-1.0
2902,16936,4,640,-1.00,-1.0
2906,16968,-40,600,-1.00,-1.0
2908,17040,48,624,-1.00,-1.0
2910,17056,-28,704,-1.00,-1.0
2912,17052,36,524,-1.00,-1.0
2914,17052,32,736,-1.00,-1.0
2916,17020,-124,636,-1.00,-1.0
2918,16928,-68,592,-1.00,-1.0
2920,17060,-76,548,-1.00,-1.0
2922,17108,-92,508,-1.00,-1.0
2924,16932,60,548,-1.00,-1.0
2926,16988,88,608,-1.00,-1.0
2928,17000,-52,644,-1.00,-1.0
2930,17024,-40,668,-1.00,-1.0
2932,16972,12,584,-1.00,-1.0
2934,17028,-20,632,-1.00,-1.0
2936,17068,-96,676,-1.00,-1.0
2937,16936,-72,704,-1.00,-1.0
2939,16992,-52,588,-1.00,-1.0
2943,16944,-56,476,-1.00,-1.0
2945,16968,-56,564,-1.00,-1.0
2947,17008,-80,516,-1.00,-1.0
2949,16980,-20,596,-1.00,-1.0
2951,16940,-96,608,-1.00,-1.0
2953,17052,20,616,-1.00,-1.0
2955,16888,-20,644,-1.00,-1.0
2957,16876,-128,636,-1.00,-1.0
2959,17068,52,632,-1.00,-1.0
2961,16992,-44,620,-1.00,-1.0
2963,17024,-80,696,-1.00,-1.0
2965,16940,-52,520,-1.00,-1.0
2967,17016,-44,472,-1.00,-1.0
2969,16916,-32,636,-1.00,-1.0
2971,16992,-96,584,-1.00,-1.0
2973,16960,-52,600,-1.00,-1.0
2974,17036,-92,688,-1.00,-1.0
2979,17068,-24,568,-1.00,-1.0
2981,17052,-108,572,-1.00,-1.0
2983,16904,-40,408,-1.00,-1.0
2984,17076,-4,720,-1.00,-1.0
2986,16916,12,496,-1.00,-1.0
2988,16980,12,628,-1.00,-1.0
2990,17064,-52,488,-1.00,-1.0
2992,16984,-40,468,-1.00,-1.0
2994,16996,-100,532,-1.00,-1.0
2996,16944,-76,572,-1.00,-1.0
2998,17024,28,620,-1.00,-1.0
3000,16992,-40,700,-1.00,-1.0
3002,17004,-8,628,-1.00,-1.0
3004,17108,0,576,-1.00,-1.0
3006,17068,8,532,-1.00,-1.0
3008,17080,60,720,-1.00,-1.0
3010,16992,-40,676,-1.00,-1.0
3014,16992,-28,728,-1.00,-1.0
3016,16964,-48,532,-1.00,-1.0
3018,17080,-160,608,-1.00,-1.0
3020,16980,24,460,-1.00,-1.0
3022,16984,52,672,-1.00,-1.0
3024,16992,-12,540,-1.00,-1.0
3026,16916,-28,624,-1.00,-1.0
3027,16872,-36,672,-1.00,-1.0
3029,17032,-28,512,-1.00,-1.0
3031,16928,36,444,-1.00,-1.0
3033,17008,-88,660,-1.00,-1.0
3035,16968,8,520,-1.00,-1.0
3037,17008,20,632,-1.00,-1.0
3039,17064,24,500,-1.00,-1.0
3041,17020,-124,652,-1.00,-1.0
3043,17040,-28,660,-1.00,-1.0
3045,16980,32,484,-1.00,-1.0
3049,16964,-152,604,-1.00,-1.0
3051,17028,-80,684,-1.00,-1.0
3053,17036,16,748,-1.00,-1.0
3055,17068,-36,528,-1.00,-1.0
3057,17060,-80,584,-1.00,-1.0
3059,17076,-56,628,-1.00,-1.0
3061,17044,-140,636,-1.00,-1.0
3063,16972,-92,588,-1.00,-1.0
3065,17096,-88,676,-1.00,-1.0
3067,17012,-52,592,-1.00,-1.0
3069,16976,4,564,-1.00,-1.0
3071,17068,-52,564,-1.00,-1.0
3072,16976,4,532,-1.00,-1.0
3075,16900,-52,580,-1.00,-1.0
3077,16912,52,592,-1.00,-1.0
3078,17008,20,544,-1.00,-1.0
3080,16992,12,552,-1.00,-1.0
3085,17004,-152,464,-1.00,-1.0
3086,16984,-68,636,-1.00,-1.0
3088,16944,-92,548,-1.00,-1.0
3090,16940,4,676,-1.00,-1.0
3092,17056,-28,608,-1.00,-1.0
3094,17000,-24,468,-1.00,-1.0
3096,16956,24,592,-1.00,-1.0
3098,16872,-24,704,-1.00,-1.0
3100,16908,4,736,-1.00,-1.0
3102,17060,-8,704,-1.00,-1.0
3104,16888,-132,736,-1.00,-1.0
3106,17044,-8,396,-1.00,-1.0
3108,16948,-24,608,-1.00,-1.0
3110,17056,-16,620,-1.00,-1.0
3112,16960,36,540,-1.00,-1.0
3114,17008,-44,616,-1.00,-1.0
3116,17020,-8,556,-1.00,-1.0
3117,16960,-16,628,-1.00,-1.0
3122,16948,-68,552,-1.00,-1.0
3124,17000,-60,512,-1.00,-1.0
3126,17004,-16,508,-1.00,-1.0
3127,17016,-12,556,-1.00,-1.0
3129,17016,-40,668,-1.00,-1.0
3131,16984,-52,528,-1.00,-1.0
3133,16952,8,652,-1.00,-1.0
3135,16956,-36,500,-1.00,-1.0
3137,17048,-92,608,-1.00,-1.0
3139,17060,76,512,-1.00,-1.0
3141,17024,80,524,-1.00,-1.0
3143,16992,-40,616,-1.00,-1.0
3145,16956,-68,504,-1.00,-1.0
3147,17064,44,596,-1.00,-1.0
3149,16912,-128,692,-1.00,-1.0
3151,16992,-44,476,-1.00,-1.0
3153,17016,-64,664,-1.00,-1.0
3157,16992,-40,616,-1.00,-1.0
3159,16976,36,640,-1.00,-1.0
3161,16944,28,648,-1.00,-1.0
3163,17028,-72,608,-1.00,-1.0
3165,17068,108,552,-1.00,-1.0
3167,17044,-60,536,-1.00,-1.0
3169,16952,-28,560,-1.00,-1.0
3170,16980,-76,652,-1.00,-1.0
3172,16976,4,592,-1.00,-1.0
3174,16996,-84,724,-1.00,-1.0
3176,16896,0,704,-1.00,-1.0
3178,17028,-40,520,-1.00,-1.0
3180,17036,-104,600,-1.00,-1.0
3182,17108,12,576,-1.00,-1.0
3184,16976,-8,524,-1.00,-1.0
3186,17008,44,612,-1.00,-1.0
3188,17012,-68,628,-1.00,-1.0
3192,16972,-16,516,-1.00,-1.0
3194,17004,-80,548,-1.00,-1.0
3196,17064,-52,600,-1.00,-1.0
3198,17000,-68,616,-1.00,-1.0
3200,17032,-104,648,-1.00,-1.0
3202,16992,-80,600,-1.00,-1.0
3204,16940,-48,588,-1.00,-1.0
3206,16988,136,636,-1.00,-1.0
3208,16952,-52,684,-1.00,-1.0
3210,17056,-16,604,-1.00,-1.0
3212,16964,64,668,-1.00,-1.0
3213,16960,44,592,-1.00,-1.0
3215,17000,180,456,-1.00,-1.0
3217,17004,-24,612,-1.00,-1.0
3219,16892,-24,752,-1.00,-1.0
3221,16984,56,488,-1.00,-1.0
3223,17048,36,612,-1.00,-1.0
3227,16992,-144,548,-1.00,-1.0
3229,16904,-152,584,-1.00,-1.0
3231,17016,-16,536,-1.00,-1.0
3233,16964,4,596,-1.00,-1.0
3235,17020,-28,580,-1.00,-1.0
3237,16996,16,604,-1.00,-1.0
3239,17036,-116,588,-1.00,-1.0
3241,17088,12,532,-1.00,-1.0
3243,17052,-76,512,-1.00,-1.0
3245,17024,48,744,-1.00,-1.0
3247,17016,-72,572,-1.00,-1.0
3249,17044,36,656,-1.00,-1.0
3250,17132,-12,528,-1.00,-1.0
3252,17028,0,580,-1.00,-1.0
3254,17068,-36,544,-1.00,-1.0
3256,17032,-68,576,-1.00,-1.0
3258,17016,-124,676,-1.00,-1.0
3260,16992,-124,576,-1.00,-1.0
3264,16980,-68,536,-1.00,-1.0
3266,16984,12,664,-1.00,-1.0
3268,16972,-20,560,-1.00,-1.0
3270,17016,-24,532,-1.00,-1.0
3272,17008,-104,596,-1.00,-1.0
3274,16976,-32,468,-1.00,-1.0
3276,17000,-60,604,-1.00,-1.0
3278,17032,76,572,-1.00,-1.0
3280,16988,-12,632,-1.00,-1.0
3282,17040,-28,600,-1.00,-1.0
3284,17176,12,556,-1.00,-1.0
3286,16988,-20,624,-1.00,-1.0
3288,17008,-4,584,-1.00,-1.0
3290,17104,-16,420,-1.00,-1.0
3292,16952,-24,632,-1.00,-1.0
3293,17044,28,652,-1.00,-1.0
3295,17040,-84,628,-1.00,-1.0
3300,17008,-12,580,-1.00,-1.0
3302,17100,-100,528,-1.00,-1.0
3303,16908,-40,484,-1.00,-1.0
3305,16936,-108,556,-1.00,-1.0
3307,16976,0,588,-1.00,-1.0
3309,17040,-84,520,-1.00,-1.0
3311,16928,-56,544,-1.00,-1.0
3313,16956,-84,596,-1.00,-1.0
3315,17100,68,604,-1.00,-1.0
3317,16932,-80,684,-1.00,-1.0
3319,17012,-36,736,-1.00,-1.0
3321,16932,-48,704,-1.00,-1.0
3323,17064,-88,564,-1.00,-1.0
3325,16944,-108,620,-1.00,-1.0
3327,16992,-48,608,-1.00,-1.0
3329,17024,-4,608,-1.00,-1.0
3331,16900,12,536,-1.00,-1.0
3335,17064,-28,556,-1.00,-1.0
3337,17012,-84,584,-1.00,-1.0
3339,16996,-72,476,-1.00,-1.0
3341,17028,-60,616,-1.00,-1.0
3343,16996,128,556,-1.00,-1.0
3345,17096,-100,776,-1.00,-1.0
3346,17008,96,668,-1.00,-1.0
3348,17040,-20,652,-1.00,-1.0
3350,17024,-44,660,-1.00,-1.0
3352,17024,-12,664,-1.00,-1.0
3354,17028,-36,536,-1.00,-1.0
3356,17004,-44,472,-1.00,-1.0
3358,17056,-60,452,-1.00,-1.0
3360,16956,-84,596,-1.00,-1.0
3362,16992,-8,668,-1.00,-1.0
3364,16912,-124,644,-1.00,-1.0
3366,16948,16,592,-1.00,-1.0
3370,17028,-56,524,-1.00,-1.0
3372,16972,0,676,-1.00,-1.0
3374,17012,-36,624,-1.00,-1.0
3376,16960,60,480,-1.00,-1.0
3378,16992,40,592,-1.00,-1.0
3380,17044,4,592,-1.00,-1.0
3382,16976,60,484,-1.00,-1.0
3384,16912,0,644,-1.00,-1.0
3386,17012,24,576,-1.00,-1.0
3388,16932,24,540,-1.00,-1.0
3390,16996,-72,500,-1.00,-1.0
3391,17060,32,508,-1.00,-1.0
3393,16988,-4,396,-1.00,-1.0
3395,16920,-12,524,-1.00,-1.0
3397,16992,56,456,-1.00,-1.0
3399,17008,48,568,-1.00,-1.0
3401,17060,-68,684,-1.00,-1.0
3403,17120,-24,584,-1.00,-1.0
3407,16968,60,716,-1.00,-1.0
3409,17008,-48,632,-1.00,-1.0
3411,16960,-60,548,-1.00,-1.0
3413,17000,-52,388,-1.00,-1.0
3415,17036,-76,676,-1.00,-1.0
3417,17028,-32,572,-1.00,-1.0
3419,17000,-52,660,-1.00,-1.0
3421,16956,12,716,-1.00,-1.0
3423,16972,-92,604,-1.00,-1.0
3425,16948,-68,564,-1.00,-1.0
3427,17000,-68,600,-1.00,-1.0
3429,17016,-76,720,-1.00,-1.0
3431,17076,-88,524,-1.00,-1.0
3433,17068,68,580,-1.00,-1.0
3435,17048,-32,576,-1.00,-1.0
3436,16980,-60,592,-1.00,-1.0
3438,17044,-8,504,-1.00,-1.0
3443,16976,-64,520,-1.00,-1.0
3445,17056,-40,688,-1.00,-1.0
3446,16948,-40,480,-1.00,-1.0
3448,17052,0,604,-1.00,-1.0
3450,16904,-84,572,-1.00,-1.0
3452,16992,-12,616,-1.00,-1.0
3454,17060,-64,564,-1.00,-1.0
3456,17016,-108,580,-1.00,-1.0
3458,16932,-28,740,-1.00,-1.0
3460,16980,-4,688,-1.00,-1.0
3462,17068,-72,528,-1.00,-1.0
3464,17012,-48,664,-1.00,-1.0
3466,17028,-24,588,-1.00,-1.0
3468,17004,4,624,-1.00,-1.0
3470,17024,0,476,-1.00,-1.0
3472,16992,-20,704,-1.00,-1.0
3474,17000,-32,632,-1.00,-1.0
3478,17000,-72,604,-1.00,-1.0
3480,17020,-28,608,-1.00,-1.0
3482,16956,48,636,-1.00,-1.0
3484,16964,-60,576,-1.00,-1.0
3486,16920,72,532,-1.00,-1.0
3488,17040,-116,580,-1.00,-1.0
3490,16960,-40,588,-1.00,-1.0
3492,17000,12,544,-1.00,-1.0
3494,17028,-4,720,-1.00,-1.0
3496,16984,-4,632,-1.00,-1.0
3498,16992,-48,564,-1.00,-1.0
3500,17040,-64,772,-1.00,-1.0
3502,17028,-36,744,-1.00,-1.0
3504,17008,-44,672,-1.00,-1.0
3506,17028,-96,664,-1.00,-1.0
3508,16880,-136,476,-1.00,-1.0
3509,17020,-68,688,-1.00,-1.0
3514,16924,-68,636,-1.00,-1.0
3516,16968,-36,668,-1.00,-1.0
3517,16944,80,588,-1.00,-1.0
3519,16996,-32,672,-1.00,-1.0
3521,17064,-84,504,-1.00,-1.0
3523,16996,4,492,-1.00,-1.0
3525,16992,-52,532,-1.00,-1.0
3527,17016,-64,400,-1.00,-1.0
3529,16984,-40,572,-1.00,-1.0
3531,17072,0,520,-1.00,-1.0
3533,16988,-128,560,-1.00,-1.0
3535,16912,-64,600,-1.00,-1.0
3537,16948,-80,668,-1.00,-1.0
3539,16960,20,628,-1.00,-1.0
3541,16936,-24,628,-1.00,-1.0
3543,17016,-156,520,-1.00,-1.0
3545,16972,-136,572,-1.00,-1.0
3549,16944,-56,624,-1.00,-1.0
3551,17016,16,592,-1.00,-1.0
3553,17000,-40,496,-1.00,-1.0
3555,17020,-8,512,-1.00,-1.0
3557,16932,12,408,-1.00,-1.0
3559,17144,4,612,-1.00,-1.0
3561,17032,-96,568,-1.00,-1.0
3562,17020,-108,460,-1.00,-1.0
3564,17028,-40,508,-1.00,-1.0
3566,16888,24,564,-1.00,-1.0
3568,16976,-8,592,-1.00,-1.0
3570,17044,44,620,-1.00,-1.0
3572,16980,-152,552,-1.00,-1.0
3574,16948,-16,632,-1.00,-1.0
3576,17000,-92,652,-1.00,-1.0
3578,17064,-8,576,-1.00,-1.0
3580,16972,-28,580,-1.00,-1.0
3582,17024,68,624,-1.00,-1.0
3586,16976,72,680,-1.00,-1.0
3588,17064,-84,444,-1.00,-1.0
3590,17072,-32,604,-1.00,-1.0
3592,16976,-100,492,-1.00,-1.0
3594,17068,-16,576,-1.00,-1.0
3596,17080,-76,572,-1.00,-1.0
3598,16984,24,512,-1.00,-1.0
3600,17000,-92,624,-1.00,-1.0
3602,16920,-40,624,-1.00,-1.0
3604,17036,-16,672,-1.00,-1.0
3606,16932,-12,624,-1.00,-1.0
3607,16916,40,536,-1.00,-1.0
3609,17036,-32,600,-1.00,-1.0
3611,16956,-8,592,-1.00,-1.0
3613,16960,20,552,-1.00,-1.0
3615,17020,-20,540,-1.00,-1.0
3617,16860,-36,620,-1.00,-1.0
3621,17096,16,592,-1.00,-1.0
3623,16952,-52,536,-1.00,-1.0
3625,17100,44,556,-1.00,-1.0
3627,16964,0,504,-1.00,-1.0
3629,17108,-20,576,-1.00,-1.0
3631,16996,68,540,-1.00,-1.0
3633,17000,60,496,-1.00,-1.0
3635,16984,-12,580,-1.00,-1.0
3637,16952,-32,568,-1.00,-1.0
3639,17004,36,560,-1.00,-1.0
3641,16928,20,544,-1.00,-1.0
3643,16964,-28,536,-1.00,-1.0
3645,16880,-68,520,-1.00,-1.0
3647,16988,-128,536,-1.00,-1.0
3649,17008,32,560,-1.00,-1.0
3651,16972,-40,620,-1.00,-1.0
3652,16912,-4,680,-1.00,-1.0
3657,17084,8,584,-1.00,-1.0
3659,17016,-44,680,-1.00,-1.0
3661,17052,60,624,-1.00,-1.0
3662,16896,72,368,-1.00,-1.0
3664,16976,16,604,-1.00,-1.0
3666,17016,-8,492,-1.00,-1.0
3668,16984,28,572,-1.00,-1.0
3670,17064,0,468,-1.00,-1.0
3672,17048,-68,676,-1.00,-1.0
3674,17060,-72,612,-1.00,-1.0
3676,16988,-72,488,-1.00,-1.0
3678,17048,-104,692,-1.00,-1.0
3680,16952,-32,624,-1.00,-1.0
3682,16976,-124,512,-1.00,-1.0
3684,17008,-16,596,-1.00,-1.0
3686,17044,48,572,-1.00,-1.0
3688,16908,32,708,-1.00,-1.0
3690,16936,8,628,-1.00,-1.0
3694,16964,16,568,-1.00,-1.0
3696,17004,-52,704,-1.00,-1.0
3698,16976,-32,548,-1.00,-1.0
3700,17032,12,660,-1.00,-1.0
3702,16948,-64,612,-1.00,-1.0
3704,16976,28,644,-1.00,-1.0
3706,16964,-32,628,-1.00,-1.0
3707,16924,-48,468,-1.00,-1.0
3710,17028,20,576,-1.00,-1.0
3711,17000,-60,596,-1.00,-1.0
3713,16848,-8,624,-1.00,-1.0
3715,17080,0,532,-1.00,-1.0
3717,17072,36,708,-1.00,-1.0
3719,16932,-36,528,-1.00,-1.0
3721,17056,-92,652,-1.00,-1.0
3723,16900,16,728,-1.00,-1.0
3725,16920,-56,584,-1.00,-1.0
3729,16980,-8,580,-1.00,-1.0
3731,17124,-88,644,-1.00,-1.0
3733,16992,-88,660,-1.00,-1.0
3735,16952,-92,568,-1.00,-1.0
3737,16992,-20,408,-1.00,-1.0
3739,17044,-88,532,-1.00,-1.0
3741,17024,-24,620,-1.00,-1.0
3743,16920,76,568,-1.00,-1.0
3745,17032,-40,580,-1.00,-1.0
3747,17112,-112,572,-1.00,-1.0
3749,17056,-8,548,-1.00,-1.0
3750,17064,-120,616,-1.00,-1.0
3752,17008,-8,608,-1.00,-1.0
3754,17012,-8,512,-1.00,-1.0
3756,17036,-104,548,-1.00,-1.0
3758,16976,-120,736,-1.00,-1.0
3760,17044,-64,636,-1.00,-1.0
3764,17036,0,460,-1.00,-1.0
3766,17044,-80,428,-1.00,-1.0
3768,17008,-8,560,-1.00,-1.0
3770,16968,-148,588,-1.00,-1.0
3772,17032,-28,536,-1.00,-1.0
3774,17028,44,472,-1.00,-1.0
3776,16964,12,560,-1.00,-1.0
3778,17012,24,580,-1.00,-1.0
3780,17004,80,608,-1.00,-1.0
3782,17084,-40,512,-1.00,-1.0
3784,16960,-72,620,-1.00,-1.0
3786,17048,-56,576,-1.00,-1.0
3787,17052,-148,620,-1.00,-1.0
3790,17028,-16,460,-1.00,-1.0
3792,16916,60,524,-1.00,-1.0
3793,16956,16,608,-1.00,-1.0
3795,16932,24,624,-1.00,-1.0
3797,17016,80,656,-1.00,-1.0
3801,17000,-36,568,-1.00,-1.0
3803,17096,-56,600,-1.00,-1.0
3805,17044,-24,448,-1.00,-1.0
3807,17064,-120,576,-1.00,-1.0
3809,17056,68,516,-1.00,-1.0
3811,17020,28,468,-1.00,-1.0
3813,16980,-8,620,-1.00,-1.0
3815,17012,-32,552,-1.00,-1.0
3817,17080,-120,624,-1.00,-1.0
3819,16988,8,476,-1.00,-1.0
3821,16992,-24,684,-1.00,-1.0
3823,17020,-28,748,-1.00,-1.0
3825,16956,-64,464,-1.00,-1.0
3827,16996,-40,664,-1.00,-1.0
3829,16928,-44,520,-1.00,-1.0
3830,17028,-8,392,-1.00,-1.0
3832,16988,-124,568,-1.00,-1.0
3837,17016,-60,628,-1.00,-1.0
3839,17036,-12,620,-1.00,-1.0
3840,17072,-120,476,-1.00,-1.0
3842,17072,-140,616,-1.00,-1.0
3844,16976,-88,684,-1.00,-1.0
3846,17076,64,584,-1.00,-1.0
3848,17016,20,516,-1.00,-1.0
3850,16968,-4,612,-1.00,-1.0
3852,16992,44,632,-1.00,-1.0
3854,17040,12,652,-1.00,-1.0
3856,17104,-84,480,-1.00,-1.0
3858,16932,-96,576,-1.00,-1.0
3860,16996,16,608,-1.00,-1.0
3862,17020,-112,592,-1.00,-1.0
3864,17016,-16,496,-1.00,-1.0
3866,17036,-48,528,-1.00,-1.0
3868,17008,-36,596,-1.00,-1.0
3872,17044,-48,572,-1.00,-1.0
3874,16940,-20,528,-1.00,-1.0
3876,16996,-104,568,-1.00,-1.0
3878,16944,-40,512,-1.00,-1.0
3880,16964,40,572,-1.00,-1.0
3882,16888,-16,696,-1.00,-1.0
3883,17004,28,652,-1.00,-1.0
3885,16940,88,576,-1.00,-1.0
3887,16956,-48,620,-1.00,-1.0
3889,17052,-60,764,-1.00,-1.0
3891,16960,8,600,-1.00,-1.0
3893,16996,-80,556,-1.00,-1.0
3895,16940,-100,620,-1.00,-1.0
3897,16972,-72,624,-1.00,-1.0
3899,16992,-72,592,-1.00,-1.0
3901,16996,8,816,-1.00,-1.0
3903,16976,-52,704,-1.00,-1.0
3907,16888,-44,604,-1.00,-1.0
3909,17040,32,468,-1.00,-1.0
3911,16980,12,640,-1.00,-1.0
3913,17048,-48,664,-1.00,-1.0
3915,17024,0,808,-1.00,-1.0
3917,17012,-88,552,-1.00,-1.0
3919,16972,44,604,-1.00,-1.0
3921,17024,12,656,-1.00,-1.0
3923,17008,-16,672,-1.00,-1.0
3925,17008,-100,624,-1.00,-1.0
3927,17028,48,484,-1.00,-1.0
3928,16892,0,700,-1.00,-1.0
3930,16980,-64,556,-1.00,-1.0
3932,16924,28,580,-1.00,-1.0
3934,16992,16,476,-1.00,-1.0
3936,16948,-52,664,-1.00,-1.0
3938,16944,-104,508,-1.00,-1.0
3940,17060,-16,588,-1.00,-1.0
3944,17008,28,600,-1.00,-1.0
3946,16936,88,520,-1.00,-1.0
3948,16976,-44,660,-1.00,-1.0
3950,17032,16,516,-1.00,-1.0
3952,17052,36,648,-1.00,-1.0
3954,16900,-64,520,-1.00,-1.0
3956,17024,64,600,-1.00,-1.0
3958,16864,-60,676,-1.00,-1.0
3960,16940,-20,596,-1.00,-1.0
3962,16980,-52,624,-1.00,-1.0
3964,16940,0,676,-1.00,-1.0
3966,17016,-36,468,-1.00,-1.0
3967,17008,-44,580,-1.00,-1.0
3970,17020,4,704,-1.00,-1.0
3971,17080,16,512,-1.00,-1.0
3973,16988,32,592,-1.00,-1.0
3975,16984,-56,564,-1.00,-1.0
3979,17068,24,620,-1.00,-1.0
3981,17016,-84,664,-1.00,-1.0
3983,16964,16,576,-1.00,-1.0
3985,16924,-80,656,-1.00,-1.0
3987,17064,12,552,-1.00,-1.0
3989,17008,-92,620,-1.00,-1.0
3991,16940,8,616,-1.00,-1.0
3993,16984,-96,576,-1.00,-1.0
3995,16976,-76,560,-1.00,-1.0
3997,17000,-64,604,-1.00,-1.0
3999,16960,-108,544,-1.00,-1.0
4001,17008,60,564,-1.00,-1.0
4003,16992,-16,472,-1.00,-1.0
4005,16996,16,520,-1.00,-1.0
4007,16904,28,652,-1.00,-1.0
4009,16956,-44,556,-1.00,-1.0
4011,16940,-52,624,-1.00,-1.0
4015,17076,0,436,-1.00,-1.0
4017,17008,-32,532,-1.00,-1.0
4019,17096,-48,652,-1.00,-1.0
4021,17048,12,516,-1.00,-1.0
4022,16956,-24,692,-1.00,-1.0
4024,17028,36,496,-1.00,-1.0
4026,16964,-12,648,-1.00,-1.0
4028,16952,28,548,-1.00,-1.0
4030,16860,4,508,-1.00,-1.0
4032,16968,80,592,-1.00,-1.0
4034,17036,140,580,-1.00,-1.0
4036,17032,44,508,-1.00,-1.0
4038,17000,-72,604,-1.00,-1.0
4040,17072,-52,504,-1.00,-1.0
4042,16956,12,496,-1.00,-1.0
4044,16920,-36,632,-1.00,-1.0
4046,17072,-12,444,-1.00,-1.0
4048,16984,24,560,-1.00,-1.0
4052,17028,-108,752,-1.00,-1.0
4054,16896,-48,580,-1.00,-1.0
4056,16948,-68,640,-1.00,-1.0
4058,16996,-56,600,-1.00,-1.0
4060,17048,-96,624,-1.00,-1.0
4062,17044,-40,528,-1.00,-1.0
4063,16988,-8,536,-1.00,-1.0
4065,17052,-64,656,-1.00,-1.0
4067,16968,8,528,-1.00,-1.0
4069,17012,-36,632,-1.00,-1.0
4071,17008,-136,476,-1.00,-1.0
4073,17020,16,508,-1.00,-1.0
4075,16924,80,572,-1.00,-1.0
4077,17036,-56,524,-1.00,-1.0
4079,16912,-64,632,-1.00,-1.0
4081,16960,-56,532,-1.00,-1.0
4083,16960,32,580,-1.00,-1.0
4087,17020,-44,544,-1.00,-1.0
4089,16948,-128,552,-1.00,-1.0
4091,16964,24,520,-1.00,-1.0
4093,16996,-84,660,-1.00,-1.0
4095,16888,-104,400,-1.00,-1.0
4097,16976,-92,592,-1.00,-1.0
4099,16992,-40,480,-1.00,-1.0
4100,16992,-84,708,-1.00,-1.0
4102,16932,-4,656,-1.00,-1.0
4104,16944,24,608,-1.00,-1.0
4106,16944,-16,528,-1.00,-1.0
4108,17040,-32,536,-1.00,-1.0
4110,16984,-16,572,-1.00,-1.0
4112,16980,-120,552,-1.00,-1.0
4114,17068,-4,512,-1.00,-1.0
4116,16928,-44,564,-1.00,-1.0
4118,16912,24,684,-1.00,-1.0
4122,16968,32,432,-1.00,-1.0
4124,16984,8,564,-1.00,-1.0
4126,16992,12,696,-1.00,-1.0
4128,17028,-28,672,-1.00,-1.0
4130,16992,0,520,-1.00,-1.0
4132,17068,-4,544,-1.00,-1.0
4134,16956,-48,672,-1.00,-1.0
4136,16996,-92,620,-1.00,-1.0
4138,17120,-132,608,-1.00,-1.0
4140,17032,-36,596,-1.00,-1.0
4142,17108,-20,536,-1.00,-1.0
4143,17044,40,632,-1.00,-1.0
4145,16908,-12,636,-1.00,-1.0
4147,16936,16,540,-1.00,-1.0
4149,17028,-56,620,-1.00,-1.0
4151,16924,-8,584,-1.00,-1.0
4153,17020,84,520,-1.00,-1.0
4157,17112,-44,456,-1.00,-1.0
4159,17012,-76,592,-1.00,-1.0
4161,17024,-80,580,-1.00,-1.0
4163,17088,8,588,-1.00,-1.0
4165,16980,-28,624,-1.00,-1.0
4167,17044,-20,632,-1.00,-1.0
4169,17148,4,584,-1.00,-1.0
4171,17008,-92,636,-1.00,-1.0
4173,16992,-44,632,-1.00,-1.0
4175,16920,8,608,-1.00,-1.0
4177,16936,8,568,-1.00,-1.0
4179,16940,-32,560,-1.00,-1.0
4181,16932,12,612,-1.00,-1.0
4183,17060,-16,688,-1.00,-1.0
4185,16932,-52,736,-1.00,-1.0
4187,17052,-24,568,-1.00,-1.0
4188,17036,-56,516,-1.00,-1.0
4190,16972,-12,728,-1.00,-1.0
4195,16992,-68,616,-1.00,-1.0
4197,17036,-36,688,-1.00,-1.0
4198,16948,-20,608,-1.00,-1.0
4200,17000,-20,524,-1.00,-1.0
4202,17028,60,508,-1.00,-1.0
4204,16952,48,588,-1.00,-1.0
4206,16880,-32,644,-1.00,-1.0
4208,17000,-28,600,-1.00,-1.0
4210,17012,-16,512,-1.00,-1.0
4212,17016,-96,596,-1.00,-1.0
4214,17020,-108,620,-1.00,-1.0
4216,16964,80,592,-1.00,-1.0
4218,16936,4,676,-1.00,-1.0
4220,16988,-44,604,-1.00,-1.0
4222,16980,96,552,-1.00,-1.0
4224,17008,8,616,-1.00,-1.0
4226,17020,4,504,-1.00,-1.0
4230,17032,-48,436,-1.00,-1.0
4232,16964,28,668,-1.00,-1.0
4234,16984,-20,512,-1.00,-1.0
4236,16956,32,580,-1.00,-1.0
4237,16984,-64,544,-1.00,-1.0
4240,17092,-28,704,-1.00,-1.0
4242,16936,-68,508,-1.00,-1.0
4243,17040,-52,536,-1.00,-1.0
4245,17036,-24,428,-1.00,-1.0
4247,17060,68,556,-1.00,-1.0
4249,17040,-76,584,-1.00,-1.0
4251,17040,-40,584,-1.00,-1.0
4253,17012,-68,668,-1.00,-1.0
4255,17052,-12,604,-1.00,-1.0
4257,17000,8,632,-1.00,-1.0
4259,16968,36,644,-1.00,-1.0
4261,17044,-76,508,-1.00,-1.0
4265,16972,-72,516,-1.00,-1.0
4267,17036,-16,644,-1.00,-1.0
4269,16888,-116,640,-1.00,-1.0
4271,16964,44,572,-1.00,-1.0
4273,17040,-12,536,-1.00,-1.0
4275,16860,4,536,-1.00,-1.0
4277,17004,4,568,-1.00,-1.0
4279,16940,28,512,-1.00,-1.0
4281,16972,-28,420,-1.00,-1.0
4283,17080,-4,616,-1.00,-1.0
4285,17032,-132,508,-1.00,-1.0
4287,17004,-12,792,-1.00,-1.0
4288,16976,-40,696,-1.00,-1.0
4290,16980,-32,484,-1.00,-1.0
4292,17092,-36,544,-1.00,-1.0
4294,17004,72,672,-1.00,-1.0
4296,16992,64,552,-1.00,-1.0
4298,16900,-44,544,-1.00,-1.0
4302,16932,-4,500,-1.00,-1.0
4304,17004,24,476,-1.00,-1.0
4306,17008,-48,644,-1.00,-1.0
4308,16988,24,444,-1.00,-1.0
4310,17012,-52,616,-1.00,-1.0
4312,16932,-56,480,-1.00,-1.0
4314,16940,-116,652,-1.00,-1.0
4316,17024,16,560,-1.00,-1.0
4318,16972,-64,596,-1.00,-1.0
4320,16968,-156,500,-1.00,-1.0
4322,16928,-16,596,-1.00,-1.0
4324,16988,8,612,-1.00,-1.0
4326,16904,44,628,-1.00,-1.0
4328,16920,-52,568,-1.00,-1.0
4330,17028,40,688,-1.00,-1.0
4331,16984,0,504,-1.00,-1.0
4333,16916,-40,680,-1.00,-1.0
4337,16960,-140,700,-1.00,-1.0
4339,16924,8,748,-1.00,-1.0
4341,16952,4,492,-1.00,-1.0
4343,17116,4,696,-1.00,-1.0
4345,17012,-48,636,-1.00,-1.0
4347,17116,16,592,-1.00,-1.0
4349,17052,-96,636,-1.00,-1.0
4351,17044,28,536,-1.00,-1.0
4353,17044,-44,604,-1.00,-1.0
4355,17012,-4,692,-1.00,-1.0
4357,17016,-32,584,-1.00,-1.0
4359,16996,12,548,-1.00,-1.0
4361,17128,-52,532,-1.00,-1.0
4363,17000,-76,544,-1.00,-1.0
4365,16932,-80,572,-1.00,-1.0
4367,16912,4,652,-1.00,-1.0
4368,16988,28,340,-1.00,-1.0
4370,16992,64,536,-1.00,-1.0
4374,16980,44,668,-1.00,-1.0
4376,16976,-36,688,-1.00,-1.0
4378,16992,-80,556,-1.00,-1.0
4380,16948,-100,532,-1.00,-1.0
4382,17016,-88,696,-1.00,-1.0
4384,17020,-116,548,-1.00,-1.0
4386,17112,40,600,-1.00,-1.0
4388,17072,-60,760,-1.00,-1.0
4390,17024,-4,648,-1.00,-1.0
4392,16960,64,504,-1.00,-1.0
4394,17020,36,512,-1.00,-1.0
4396,16996,-16,632,-1.00,-1.0
4398,17056,-36,640,-1.00,-1.0
4400,16976,24,420,-1.00,-1.0
4402,16992,-12,592,-1.00,-1.0
4404,17056,84,628,-1.00,-1.0
4405,17068,-20,628,-1.00,-1.0
4410,17044,16,468,-1.00,-1.0
4412,16976,-136,672,-1.00,-1.0
4414,16888,-4,652,-1.00,-1.0
4415,17000,8,692,-1.00,-1.0
4418,16972,24,580,-1.00,-1.0
4420,16916,52,624,-1.00,-1.0
4421,17056,-104,632,-1.00,-1.0
4423,16964,-108,648,-1.00,-1.0
4425,17028,-156,652,-1.00,-1.0
4427,16936,-72,476,-1.00,-1.0
4429,17004,-84,532,-1.00,-1.0
4431,16884,-12,528,-1.00,-1.0
4433,17024,-28,576,-1.00,-1.0
4435,16972,16,548,-1.00,-1.0
4437,17068,-72,644,-1.00,-1.0
4439,16956,24,692,-1.00,-1.0
4441,17032,12,556,-1.00,-1.0
4445,17032,24,516,-1.00,-1.0
4447,17016,-80,672,-1.00,-1.0
4449,16956,-104,524,-1.00,-1.0
4451,16924,8,616,-1.00,-1.0
4453,17020,-8,544,-1.00,-1.0
4455,16952,56,480,-1.00,-1.0
4457,17084,-56,740,-1.00,-1.0
4459,17008,-28,744,-1.00,-1.0
4460,16948,-44,520,-1.00,-1.0
4463,16908,12,648,-1.00,-1.0
4464,16980,-92,544,-1.00,-1.0
4466,16924,68,596,-1.00,-1.0
4468,16980,-28,632,-1.00,-1.0
4470,16928,-44,612,-1.00,-1.0
4472,16996,-44,620,-1.00,-1.0
4474,17024,-36,580,-1.00,-1.0
4476,17084,-44,632,-1.00,-1.0
4480,16932,-128,612,-1.00,-1.0
4482,16868,-28,592,-1.00,-1.0
4484,16932,-148,552,-1.00,-1.0
4486,16968,24,692,-1.00,-1.0
4488,16992,32,684,-1.00,-1.0
4490,17000,-44,704,-1.00,-1.0
4492,17000,-4,432,-1.00,-1.0
4494,16924,-88,376,-1.00,-1.0
4496,16988,-88,572,-1.00,-1.0
4498,16984,-68,476,-1.00,-1.0
4500,16936,0,592,-1.00,-1.0
4502,17008,36,652,-1.00,-1.0
4504,16976,-60,640,-1.00,-1.0
4506,17064,-56,644,-1.00,-1.0
4508,17036,-12,564,-1.00,-1.0
4509,17012,-24,696,-1.00,-1.0
4511,17032,-68,472,-1.00,-1.0
4513,16980,-28,548,-1.00,-1.0
4517,16988,44,692,-1.00,-1.0
4519,17032,56,540,-1.00,-1.0
4521,17016,12,600,-1.00,-1.0
4523,17104,-116,556,-1.00,-1.0
4525,16956,-32,604,-1.00,-1.0
4527,16984,-40,676,-1.00,-1.0
4529,17036,-88,524,-1.00,-1.0
4531,16888,32,540,-1.00,-1.0
4533,16964,0,560,-1.00,-1.0
4535,17044,36,552,-1.00,-1.0
4537,17036,-4,476,-1.00,-1.0
4539,16976,-24,620,-1.00,-1.0
4541,16964,-32,640,-1.00,-1.0
4543,17052,16,584,-1.00,-1.0
4545,16996,0,564,-1.00,-1.0
4547,16956,-52,448,-1.00,-1.0
4548,16992,-36,644,-1.00,-1.0
4553,16984,4,564,-1.00,-1.0
4555,17056,24,636,-1.00,-1.0
4557,17028,8,536,-1.00,-1.0
4558,17032,24,568,-1.00,-1.0
4560,17020,24,548,-1.00,-1.0
4562,17052,40,364,-1.00,-1.0
4564,16964,-16,436,-1.00,-1.0
4566,16984,16,692,-1.00,-1.0
4568,16976,28,488,-1.00,-1.0
4570,16952,-40,652,-1.00,-1.0
4572,16992,-20,800,-1.00,-1.0
4574,17008,16,500,-1.00,-1.0
4576,16960,0,496,-1.00,-1.0
4578,17036,-156,496,-1.00,-1.0
4580,16964,12,620,-1.00,-1.0
4582,17024,-40,572,-1.00,-1.0
4584,17068,-192,608,-1.00,-1.0
4588,16916,4,580,-1.00,-1.0
4590,17004,24,616,-1.00,-1.0
4592,16984,20,528,-1.00,-1.0
4594,17064,-20,600,-1.00,-1.0
4596,16924,8,500,-1.00,-1.0
4598,17068,16,728,-1.00,-1.0
4600,17024,0,612,-1.00,-1.0
4601,17036,-36,544,-1.00,-1.0
4603,17068,-64,648,-1.00,-1.0
4605,16984,-16,536,-1.00,-1.0
4607,16992,60,604,-1.00,-1.0
4609,17080,24,604,-1.00,-1.0
4611,17036,24,548,-1.00,-1.0
4613,17080,28,588,-1.00,-1.0
4615,16996,-20,548,-1.00,-1.0
4617,17052,44,580,-1.00,-1.0
4619,16940,-32,644,-1.00,-1.0
4621,17028,-12,544,-1.00,-1.0
4626,16952,32,692,-1.00,-1.0
4628,16932,-16,540,-1.00,-1.0
4630,16960,-64,512,-1.00,-1.0
4632,16968,-68,464,-1.00,-1.0
4634,17052,-60,476,-1.00,-1.0
4636,17020,-44,516,-1.00,-1.0
4637,17000,0,600,-1.00,-1.0
4639,16976,-68,572,-1.00,-1.0
4641,16992,-24,540,-1.00,-1.0
4643,16892,-8,572,-1.00,-1.0
4645,16976,-28,608,-1.00,-1.0
4647,17008,32,616,-1.00,-1.0
4649,16976,0,520,-1.00,-1.0
4651,17064,-16,500,-1.00,-1.0
4653,17104,-88,592,-1.00,-1.0
4655,17040,-88,644,-1.00,-1.0
4657,17044,20,520,-1.00,-1.0
4661,17024,36,620,-1.00,-1.0
4663,17092,52,528,-1.00,-1.0
4665,16948,60,392,-1.00,-1.0
4667,17020,-60,560,-1.00,-1.0
4669,17052,-16,492,-1.00,-1.0
4671,17040,64,652,-1.00,-1.0
4673,16992,16,472,-1.00,-1.0
4674,16924,-96,648,-1.00,-1.0
4676,16940,-100,560,-1.00,-1.0
4678,16952,0,580,-1.00,-1.0
4680,17008,32,584,-1.00,-1.0
4682,16904,-8,540,-1.00,-1.0
4684,16920,-40,644,-1.00,-1.0
4686,16996,-36,532,-1.00,-1.0
4688,17024,-4,628,-1.00,-1.0
4690,16964,-148,608,-1.00,-1.0
4692,16948,-108,616,-1.00,-1.0
4694,17036,-60,588,-1.00,-1.0
4698,16992,-60,564,-1.00,-1.0
4700,16956,-56,544,-1.00,-1.0
4702,17016,-140,684,-1.00,-1.0
4704,16948,-36,728,-1.00,-1.0
4706,16996,12,528,-1.00,-1.0
4708,17020,4,600,-1.00,-1.0
4710,16968,-48,476,-1.00,-1.0
4712,17080,-4,760,-1.00,-1.0
4714,17028,-28,648,-1.00,-1.0
4716,16904,8,492,-1.00,-1.0
4718,16996,-4,660,-1.00,-1.0
4719,17008,24,624,-1.00,-1.0
4721,16976,-56,584,-1.00,-1.0
4723,16992,52,596,-1.00,-1.0
4725,17000,-36,616,-1.00,-1.0
4727,17016,28,648,-1.00,-1.0
4729,16948,-64,720,-1.00,-1.0
4733,16948,8,640,-1.00,-1.0
4735,16948,28,548,-1.00,-1.0
4737,17008,-60,772,-1.00,-1.0
4739,16940,20,508,-1.00,-1.0
4741,17036,4,364,-1.00,-1.0
4743,17000,16,464,-1.00,-1.0
4745,16960,-24,620,-1.00,-1.0
4747,16996,0,644,-1.00,-1.0
4749,17056,68,584,-1.00,-1.0
4751,16972,4,564,-1.00,-1.0
4753,17044,8,660,-1.00,-1.0
4755,17016,-152,428,-1.00,-1.0
4757,17068,-28,504,-1.00,-1.0
4759,16948,20,528,-1.00,-1.0
4761,17056,24,616,-1.00,-1.0
4763,16996,-48,600,-1.00,-1.0
4764,17036,20,540,-1.00,-1.0
4766,16972,-76,528,-1.00,-1.0
4771,17080,-36,536,-1.00,-1.0
4773,17020,-76,540,-1.00,-1.0
4774,17024,-68,648,-1.00,-1.0
4776,17056,-100,628,-1.00,-1.0
4778,16872,104,632,-1.00,-1.0
4780,16952,20,460,-1.00,-1.0
4782,17004,-164,600,-1.00,-1.0
4784,16908,-64,700,-1.00,-1.0
4786,16960,-24,564,-1.00,-1.0
4788,17032,-4,600,-1.00,-1.0
4790,17020,-52,640,-1.00,-1.0
4792,16976,-48,568,-1.00,-1.0
4794,17140,-156,628,-1.00,-1.0
4796,17036,4,596,-1.00,-1.0
4798,17056,4,484,-1.00,-1.0
4800,17044,-92,656,-1.00,-1.0
4802,17048,4,652,-1.00,-1.0
4806,17012,24,484,-1.00,-1.0
4808,17068,80,600,-1.00,-1.0
4810,16896,-8,512,-1.00,-1.0
4812,17056,-104,660,-1.00,-1.0
4814,16932,-152,652,-1.00,-1.0
4816,17060,4,476,-1.00,-1.0
4817,16932,-68,544,-1.00,-1.0
4819,16992,-36,584,-1.00,-1.0
4821,17132,12,600,-1.00,-1.0
4823,16844,-48,532,-1.00,-1.0
4825,16956,-8,696,-1.00,-1.0
4827,16984,-152,548,-1.00,-1.0
4829,16908,-12,568,-1.00,-1.0
4831,17052,60,556,-1.00,-1.0
4833,17044,-72,688,-1.00,-1.0
4835,17000,-24,664,-1.00,-1.0
4837,17016,-36,608,-1.00,-1.0
4841,17044,-84,564,-1.00,-1.0
4843,16928,4,684,-1.00,-1.0
4845,17068,20,504,-1.00,-1.0
4847,17000,-88,540,-1.00,-1.0
4849,16956,-120,572,-1.00,-1.0
4851,17016,60,604,-1.00,-1.0
4853,17028,-28,684,-1.00,-1.0
4855,16992,-28,596,-1.00,-1.0
4857,17012,-92,500,-1.00,-1.0
4859,16964,-16,472,-1.00,-1.0
4861,17080,-128,528,-1.00,-1.0
4862,17104,-52,420,-1.00,-1.0
4864,16976,-32,552,-1.00,-1.0
4866,17064,48,624,-1.00,-1.0
4868,17012,-8,788,-1.00,-1.0
4870,16984,-68,612,-1.00,-1.0
4872,17020,-8,424,-1.00,-1.0
4876,17040,-8,680,-1.00,-1.0
4878,17000,-12,528,-1.00,-1.0
4880,17008,-24,724,-1.00,-1.0
4882,16924,24,508,-1.00,-1.0
4884,17000,-92,712,-1.00,-1.0
4886,16952,-56,748,-1.00,-1.0
4888,16944,-12,716,-1.00,-1.0
4890,16956,-68,728,-1.00,-1.0
4892,16976,12,696,-1.00,-1.0
4894,16992,-20,652,-1.00,-1.0
4896,17068,-64,556,-1.00,-1.0
4898,17012,-44,592,-1.00,-1.0
4900,17064,-4,620,-1.00,-1.0
4902,17004,36,552,-1.00,-1.0
4904,16920,16,528,-1.00,-1.0
4906,17000,48,524,-1.00,-1.0
4907,16964,-64,508,-1.00,-1.0
4909,17060,-28,608,-1.00,-1.0
4913,16984,12,680,-1.00,-1.0
4915,16992,20,584,-1.00,-1.0
4917,17056,-36,676,-1.00,-1.0
4919,16952,-172,608,-1.00,-1.0
4921,16952,-36,532,-1.00,-1.0
4923,17072,-80,660,-1.00,-1.0
4925,16996,32,596,-1.00,-1.0
4927,16980,44,696,-1.00,-1.0
4929,17048,-44,740,-1.00,-1.0
4931,17088,-56,480,-1.00,-1.0
4933,16984,56,748,-1.00,-1.0
4935,17040,-48,628,-1.00,-1.0
4937,17008,52,628,-1.00,-1.0
4939,17100,16,520,-1.00,-1.0
4941,17024,-16,548,-1.00,-1.0
4943,16924,-64,728,-1.00,-1.0
4945,16936,-68,532,-1.00,-1.0
4949,16996,-56,660,-1.00,-1.0
4951,16976,-108,556,-1.00,-1.0
4952,17008,-44,520,-1.00,-1.0
4954,16988,-84,616,-1.00,-1.0
4956,17052,-80,484,-1.00,-1.0
4958,16964,12,680,-1.00,-1.0
4960,17008,-44,528,-1.00,-1.0
4962,17028,56,468,-1.00,-1.0
4964,17080,-48,692,-1.00,-1.0
4966,16992,24,608,-1.00,-1.0
4968,16952,-44,460,-1.00,-1.0
4970,16924,-28,524,-1.00,-1.0
4972,17116,-12,564,-1.00,-1.0
4974,17060,24,580,-1.00,-1.0
4976,17008,-16,600,-1.00,-1.0
4978,17044,-8,436,-1.00,-1.0
4980,17068,4,424,-1.00,-1.0
4984,16964,-4,572,-1.00,-1.0
4986,17052,12,504,-1.00,-1.0
4988,17076,-48,408,-1.00,-1.0
4990,17024,0,468,-1.00,-1.0
4992,17072,-44,656,-1.00,-1.0
4994,17068,-84,536,-1.00,-1.0
4995,17052,12,676,-1.00,-1.0
4997,17048,-56,452,-1.00,-1.0
4999,17032,40,556,-1.00,-1.0
5001,16904,-8,600,-1.00,-1.0
5003,16892,12,616,-1.00,-1.0
5005,17064,-132,516,-1.00,-1.0
5007,17000,-64,656,-1.00,-1.0
5009,16980,4,528,-1.00,-1.0
5011,17052,12,632,-1.00,-1.0
5013,16940,-12,692,-1.00,-1.0
5015,16944,0,452,-1.00,-1.0
5017,17036,56,408,-1.00,-1.0
5021,16992,-152,540,-1.00,-1.0
5023,17028,-68,580,-1.00,-1.0
5025,16984,-12,720,-1.00,-1.0
5027,17008,-64,672,-1.00,-1.0
5029,17004,-56,572,-1.00,-1.0
5031,16984,-32,504,-1.00,-1.0
5033,16952,-68,492,-1.00,-1.0
5035,16964,-68,420,-1.00,-1.0
5037,17008,-48,544,-1.00,-1.0
5039,16944,-28,632,-1.00,-1.0
5040,16988,-76,548,-1.00,-1.0
5042,17076,0,440,-1.00,-1.0
5044,16972,12,568,-1.00,-1.0
5046,16972,76,432,-1.00,-1.0
5048,17028,44,548,-1.00,-1.0
5050,17076,-72,668,-1.00,-1.0
5052,16988,-12,580,-1.00,-1.0
5056,16936,16,576,-1.00,-1.0
5058,17076,20,652,-1.00,-1.0
5060,17012,-36,756,-1.00,-1.0
5062,16932,-36,608,-1.00,-1.0
5064,16932,-36,660,-1.00,-1.0
5066,16944,-76,544,-1.00,-1.0
5068,17072,-100,604,-1.00,-1.0
5070,16948,-48,612,-1.00,-1.0
5072,17008,-88,584,-1.00,-1.0
5074,17036,-52,628,-1.00,-1.0
5076,17020,4,696,-1.00,-1.0
5078,16972,4,712,-1.00,-1.0
5080,16976,-76,400,-1.00,-1.0
5082,17084,-56,644,-1.00,-1.0
5084,16948,-112,568,-1.00,-1.0
5085,16984,-60,580,-1.00,-1.0
5087,17016,48,488,-1.00,-1.0
5092,16956,-72,628,-1.00,-1.0
5094,17104,-100,588,-1.00,-1.0
5095,17068,-116,540,-1.00,-1.0
5097,17016,-60,652,-1.00,-1.0
5099,17064,-56,600,-1.00,-1.0
5101,16932,-76,564,-1.00,-1.0
5103,17096,28,644,-1.00,-1.0
5105,17044,-32,460,-1.00,-1.0
5107,16992,-40,696,-1.00,-1.0
5109,16964,-12,536,-1.00,-1.0
5111,16984,-48,692,-1.00,-1.0
5113,16956,12,728,-1.00,-1.0
5115,17096,44,736,-1.00,-1.0
5117,17032,88,584,-1.00,-1.0
5119,17088,56,544,-1.00,-1.0
5121,17012,28,644,-1.00,-1.0
5123,17036,-24,696,-1.00,-1.0
5127,16956,-100,608,-1.00,-1.0
5129,17000,76,452,-1.00,-1.0
5131,16968,28,572,-1.00,-1.0
5133,16972,40,428,-1.00,-1.0
5134,16944,-48,592,-1.00,-1.0
5137,17112,-80,560,-1.00,-1.0
5138,16984,48,680,-1.00,-1.0
5140,17028,32,540,-1.00,-1.0
5142,16956,-36,624,-1.00,-1.0
5144,16940,-60,756,-1.00,-1.0
5146,17060,-36,528,-1.00,-1.0
5148,17068,-116,596,-1.00,-1.0
5150,16996,48,592,-1.00,-1.0
5152,17040,-48,580,-1.00,-1.0
5154,17088,-4,532,-1.00,-1.0
5156,17012,-8,624,-1.00,-1.0
5158,16968,-64,608,-1.00,-1.0
5162,17028,32,564,-1.00,-1.0
5164,16952,-40,540,-1.00,-1.0
5166,16956,12,572,-1.00,-1.0
5168,16992,-40,612,-1.00,-1.0
5170,16960,-8,608,-1.00,-1.0
5172,16984,-44,448,-1.00,-1.0
5174,17004,-8,580,-1.00,-1.0
5176,16948,12,720,-1.00,-1.0
5178,16992,24,708,-1.00,-1.0
5180,17072,-4,580,-1.00,-1.0
5182,16992,16,396,-1.00,-1.0
5183,16932,-80,624,-1.00,-1.0
5185,17048,0,528,-1.00,-1.0
5187,16924,-100,484,-1.00,-1.0
5189,17104,-28,520,-1.00,-1.0
5191,17048,-204,584,-1.00,-1.0
5193,16924,44,584,-1.00,-1.0
5195,17004,56,656,-1.00,-1.0
5199,16992,-20,580,-1.00,-1.0
5201,16976,-64,416,-1.00,-1.0
5203,16992,-48,588,-1.00,-1.0
5205,16928,-112,548,-1.00,-1.0
5207,17072,-180,664,-1.00,-1.0
5209,16980,-44,612,-1.00,-1.0
5211,16984,-4,532,-1.00,-1.0
5213,16964,-44,624,-1.00,-1.0
5215,16960,-8,448,-1.00,-1.0
5217,17028,4,520,-1.00,-1.0
5219,16992,-76,412,-1.00,-1.0
5220,16976,16,456,-1.00,-1.0
5222,16980,52,644,-1.00,-1.0
5224,17020,48,636,-1.00,-1.0
5226,17032,44,556,-1.00,-1.0
5228,17024,-40,640,-1.00,-1.0
5230,17056,-52,556,-1.00,-1.0
5234,16988,20,568,-1.00,-1.0
5236,17020,-16,664,-1.00,-1.0
5238,17080,-60,564,-1.00,-1.0
5240,17072,-64,660,-1.00,-1.0
5242,17040,-36,564,-1.00,-1.0
5244,16968,36,576,-1.00,-1.0
5246,16968,-52,652,-1.00,-1.0
5248,16988,-24,552,-1.00,-1.0
5250,17056,16,644,-1.00,-1.0
5252,17004,68,728,-1.00,-1.0
5254,17020,-60,720,-1.00,-1.0
5256,16956,-16,664,-1.00,-1.0
5257,16984,88,672,-1.00,-1.0
5260,17008,-12,524,-1.00,-1.0
5261,16976,-20,516,-1.00,-1.0
5263,17024,-20,576,-1.00,-1.0
5265,17020,-4,492,-1.00,-1.0
5269,17056,0,444,-1.00,-1.0
5271,16972,-44,528,-1.00,-1.0
5273,17052,-4,668,-1.00,-1.0
5275,16952,-36,656,-1.00,-1.0
5277,16988,-32,664,-1.00,-1.0
5279,16992,-16,572,-1.00,-1.0
5281,17076,-8,488,-1.00,-1.0
5283,17036,-40,552,-1.00,-1.0
5285,16984,-36,688,-1.00,-1.0
5287,16980,-124,584,-1.00,-1.0
5289,17064,-20,632,-1.00,-1.0
5291,17020,20,548,-1.00,-1.0
5293,17060,4,528,-1.00,-1.0
5295,16968,8,644,-1.00,-1.0
5297,17080,-104,480,-1.00,-1.0
5299,16912,-60,720,-1.00,-1.0
5300,16976,-76,624,-1.00,-1.0
5302,17100,-12,544,-1.00,-1.0
5307,17024,-36,560,-1.00,-1.0
5309,17016,64,624,-1.00,-1.0
5310,17032,24,568,-1.00,-1.0
5312,16940,-4,556,-1.00,-1.0
5314,16904,-12,600,-1.00,-1.0
5316,16976,-56,508,-1.00,-1.0
5318,16912,12,608,-1.00,-1.0
5320,17072,4,520,-1.00,-1.0
5322,17036,-168,540,-1.00,-1.0
5324,17052,-64,464,-1.00,-1.0
5326,17068,-16,716,-1.00,-1.0
5328,17052,-80,636,-1.00,-1.0
5330,16900,-8,584,-1.00,-1.0
5332,17020,-68,584,-1.00,-1.0
5334,17088,0,328,-1.00,-1.0
5336,17060,-24,588,-1.00,-1.0
5338,17072,-136,528,-1.00,-1.0
5342,16976,-60,632,-1.00,-1.0
5344,16916,24,680,-1.00,-1.0
5346,16964,60,584,-1.00,-1.0
5348,17020,44,596,-1.00,-1.0
5350,16924,-112,536,-1.00,-1.0
5352,16984,-28,572,-1.00,-1.0
5353,17104,-52,596,-1.00,-1.0
5355,16936,24,548,-1.00,-1.0
5357,17004,-32,628,-1.00,-1.0
5359,16996,12,616,-1.00,-1.0
5361,17040,-112,568,-1.00,-1.0
5363,17052,-84,712,-1.00,-1.0
5365,17056,-40,548,-1.00,-1.0
5367,17000,0,608,-1.00,-1.0
5369,17088,-32,524,-1.00,-1.0
5371,16948,-72,608,-1.00,-1.0
5373,17016,-88,592,-1.00,-1.0
5377,17100,52,604,-1.00,-1.0
5379,17000,-4,596,-1.00,-1.0
5381,16980,-12,648,-1.00,-1.0
5383,17056,-52,528,-1.00,-1.0
5385,16988,12,580,-1.00,-1.0
5387,16992,-4,496,-1.00,-1.0
5389,16904,-16,532,-1.00,-1.0
5391,17008,-16,548,-1.00,-1.0
5393,17060,24,704,-1.00,-1.0
5395,16872,-116,412,-1.00,-1.0
5397,17112,24,536,-1.00,-1.0
5398,17008,-16,504,-1.00,-1.0
5400,17032,80,624,-1.00,-1.0
5402,17032,-8,620,-1.00,-1.0
5404,16936,56,556,-1.00,-1.0
5406,17052,32,500,-1.00,-1.0
5408,16956,-16,768,-1.00,-1.0
5410,17072,-16,552,-1.00,-1.0
5414,17120,-72,516,-1.00,-1.0
5416,17028,-92,608,-1.00,-1.0
5418,16992,24,636,-1.00,-1.0
5420,16912,-56,564,-1.00,-1.0
5422,16968,-76,684,-1.00,-1.0
5424,16944,4,564,-1.00,-1.0
5426,16996,-40,608,-1.00,-1.0
5428,16976,-152,652,-1.00,-1.0
5430,16924,-80,644,-1.00,-1.0
5432,17048,8,600,-1.00,-1.0
5434,17036,60,672,-1.00,-1.0
5436,17028,-16,556,-1.00,-1.0
5438,17024,-8,660,-1.00,-1.0
5440,16972,-76,532,-1.00,-1.0
5442,17040,-80,644,-1.00,-1.0
5443,16988,-136,564,-1.00,-1.0
5445,17056,-60,644,-1.00,-1.0
5450,16976,-64,492,-1.00,-1.0
5452,16936,16,688,-1.00,-1.0
5453,17064,-40,656,-1.00,-1.0
5455,16948,36,588,-1.00,-1.0
5457,17032,56,368,-1.00,-1.0
5459,17012,48,476,-1.00,-1.0
5461,17008,16,632,-1.00,-1.0
5463,17040,-12,588,-1.00,-1.0
5465,17016,-4,512,-1.00,-1.0
5467,17028,-40,576,-1.00,-1.0
5469,17080,16,492,-1.00,-1.0
5471,17112,-8,616,-1.00,-1.0
5473,17004,-32,588,-1.00,-1.0
5475,16960,-8,492,-1.00,-1.0
5477,16972,108,748,-1.00,-1.0
5479,17068,-56,536,-1.00,-1.0
5481,16976,12,528,-1.00,-1.0
5485,17048,16,492,-1.00,-1.0
5487,17080,-48,508,-1.00,-1.0
5489,17140,104,684,-1.00,-1.0
5490,17044,-88,632,-1.00,-1.0
5492,16920,-8,612,-1.00,-1.0
5494,17072,-60,576,-1.00,-1.0
5496,17008,-48,752,-1.00,-1.0
5498,17004,-12,632,-1.00,-1.0
5500,16924,-28,588,-1.00,-1.0
5502,17004,-56,628,-1.00,-1.0
5504,16988,44,696,-1.00,-1.0
5506,17036,-136,580,-1.00,-1.0
5508,17020,68,484,-1.00,-1.0
5510,16984,108,572,-1.00,-1.0
5512,17040,-100,552,-1.00,-1.0
5514,17100,-16,512,-1.00,-1.0
5516,16860,-88,556,-1.00,-1.0
5520,17032,-32,616,-1.00,-1.0
5522,17040,24,516,-1.00,-1.0
5524,17000,-124,528,-1.00,-1.0
5526,17088,-8,588,-1.00,-1.0
5527,16956,-92,652,-1.00,-1.0
5530,17008,8,596,-1.00,-1.0
5532,16944,-64,684,-1.00,-1.0
5533,17064,-20,620,-1.00,-1.0
5535,16968,-8,532,-1.00,-1.0
5537,17032,-112,672,-1.00,-1.0
5539,17004,-20,536,-1.00,-1.0
5541,16980,-60,544,-1.00,-1.0
5543,16956,-24,572,-1.00,-1.0
5545,16940,-44,716,-1.00,-1.0
5547,16984,-76,632,-1.00,-1.0
5549,17008,44,540,-1.00,-1.0
5551,16976,0,600,-1.00,-1.0
5553,16876,-140,564,-1.00,-1.0
5557,16956,-40,592,-1.00,-1.0
5559,16924,-76,540,-1.00,-1.0
5561,16928,-88,564,-1.00,-1.0
5563,16984,-44,540,-1.00,-1.0
5565,16984,28,528,-1.00,-1.0
5567,16992,8,624,-1.00,-1.0
5569,17072,-64,600,-1.00,-1.0
5571,16904,-20,548,-1.00,-1.0
5573,16992,-24,540,-1.00,-1.0
5575,17064,-84,612,-1.00,-1.0
5576,17032,92,424,-1.00,-1.0
5578,16988,16,564,-1.00,-1.0
5580,17000,-32,564,-1.00,-1.0
5582,17024,52,596,-1.00,-1.0
5584,16976,-16,684,-1.00,-1.0
5586,17036,-36,576,-1.00,-1.0
5588,17048,68,612,-1.00,-1.0
5592,16980,104,540,-1.00,-1.0
5594,16988,4,632,-1.00,-1.0
5596,16940,-60,552,-1.00,-1.0
5598,16924,20,652,-1.00,-1.0
5600,16996,-32,652,-1.00,-1.0
5602,16976,44,564,-1.00,-1.0
5604,16888,-88,512,-1.00,-1.0
5606,16980,-68,540,-1.00,-1.0
5608,16956,8,588,-1.00,-1.0
5610,16980,-100,536,-1.00,-1.0
5612,17000,-40,540,-1.00,-1.0
5614,16956,-136,564,-1.00,-1.0
5616,17088,-152,500,-1.00,-1.0
5618,17068,-80,540,-1.00,-1.0
5620,17036,36,396,-1.00,-1.0
5621,16984,-12,632,-1.00,-1.0
5623,17060,-16,512,-1.00,-1.0
5628,17016,-92,624,-1.00,-1.0
5630,16964,-64,640,-1.00,-1.0
5631,16940,-100,540,-1.00,-1.0
5633,16960,44,552,-1.00,-1.0
5635,17068,-84,600,-1.00,-1.0
5637,16992,8,572,-1.00,-1.0
5639,17000,-8,544,-1.00,-1.0
5641,17020,40,656,-1.00,-1.0
5643,16908,-80,536,-1.00,-1.0
5645,16956,-64,552,-1.00,-1.0
5647,16944,-48,496,-1.00,-1.0
5649,16948,-76,408,-1.00,-1.0
5651,16988,-100,536,-1.00,-1.0
5653,16992,-4,552,-1.00,-1.0
5655,17000,84,556,-1.00,-1.0
5657,17084,-8,684,-1.00,-1.0
5659,17028,-96,720,-1.00,-1.0
5663,17024,-32,500,-1.00,-1.0
5665,16976,-48,476,-1.00,-1.0
5667,17012,-24,500,-1.00,-1.0
5669,17068,-44,668,-1.00,-1.0
5670,16984,24,636,-1.00,-1.0
5673,16948,-24,616,-1.00,-1.0
5675,16964,24,616,-1.00,-1.0
5676,17000,100,672,-1.00,-1.0
5678,17096,40,500,-1.00,-1.0
5680,16984,-120,448,-1.00,-1.0
5682,17052,4,488,-1.00,-1.0
5684,16948,-48,648,-1.00,-1.0
5686,17024,-52,656,-1.00,-1.0
5688,17012,-4,548,-1.00,-1.0
5690,16992,84,516,-1.00,-1.0
5692,17048,16,668,-1.00,-1.0
5694,16968,-28,616,-1.00,-1.0
5696,17072,-8,548,-1.00,-1.0
5700,17104,8,636,-1.00,-1.0
5702,16976,24,548,-1.00,-1.0
5704,17064,52,612,-1.00,-1.0
5706,17056,-80,560,-1.00,-1.0
5708,17100,48,584,-1.00,-1.0
5710,17036,44,440,-1.00,-1.0
5712,16984,-52,676,-1.00,-1.0
5714,17048,0,524,-1.00,-1.0
5716,16968,-48,660,-1.00,-1.0
5718,17136,-12,464,-1.00,-1.0
5719,16912,-16,764,-1.00,-1.0
5721,16956,-116,660,-1.00,-1.0
5723,16924,20,448,-1.00,-1.0
5725,16992,12,616,-1.00,-1.0
5727,16912,20,496,-1.00,-1.0
5729,17012,16,540,-1.00,-1.0
5731,17028,28,584,-1.00,-1.0
5735,16996,-120,700,-1.00,-1.0
5737,16964,64,484,-1.00,-1.0
5739,16976,12,468,-1.00,-1.0
5741,16944,88,492,-1.00,-1.0
5743,17028,-144,484,-1.00,-1.0
5745,17008,-16,464,-1.00,-1.0
5747,16968,-36,600,-1.00,-1.0
5749,17080,64,664,-1.00,-1.0
5751,17008,28,520,-1.00,-1.0
5753,16984,-100,532,-1.00,-1.0
5755,17088,-60,612,-1.00,-1.0
5757,17044,-16,592,-1.00,-1.0
5759,17036,24,588,-1.00,-1.0
5761,17028,4,636,-1.00,-1.0
5763,17024,-20,624,-1.00,-1.0
5764,16964,-56,600,-1.00,-1.0
5766,17068,-40,580,-1.00,-1.0
5772,16984,36,716,-1.00,-1.0
5774,17092,-12,596,-1.00,-1.0
5776,17036,12,632,-1.00,-1.0
5778,17076,-36,572,-1.00,-1.0
5780,16920,48,528,-1.00,-1.0
5782,17060,-20,608,-1.00,-1.0
5784,17000,-44,652,-1.00,-1.0
5786,17048,-64,600,-1.00,-1.0
5788,17020,-4,608,-1.00,-1.0
5790,17040,-56,640,-1.00,-1.0
5792,16948,-116,512,-1.00,-1.0
5794,17040,-88,520,-1.00,-1.0
5796,17024,-20,472,-1.00,-1.0
5798,16920,-88,692,-1.00,-1.0
5800,17068,56,632,-1.00,-1.0
5801,16996,-76,724,-1.00,-1.0
5803,17016,-20,548,-1.00,-1.0
5805,17044,28,704,-1.00,-1.0
5809,16988,-32,636,-1.00,-1.0
5811,16972,0,588,-1.00,-1.0
5813,17020,52,596,-1.00,-1.0
5815,17060,8,704,-1.00,-1.0
5817,16980,-60,604,-1.00,-1.0
5819,16928,-12,604,-1.00,-1.0
5821,17036,0,564,-1.00,-1.0
5823,17076,-12,664,-1.00,-1.0
5825,17016,-12,516,-1.00,-1.0
5827,17012,-24,588,-1.00,-1.0
5829,16912,48,604,-1.00,-1.0
5831,16964,-104,624,-1.00,-1.0
5833,17032,-48,632,-1.00,-1.0
5835,17028,0,600,-1.00,-1.0
5837,17004,-52,524,-1.00,-1.0
5838,16964,0,568,-1.00,-1.0
5840,17028,-16,512,-1.00,-1.0
5845,17040,-144,584,-1.00,-1.0
5847,17000,-8,620,-1.00,-1.0
5848,17008,-56,624,-1.00,-1.0
5850,16964,-88,548,-1.00,-1.0
5852,16984,-16,548,-1.00,-1.0
5854,17044,-48,644,-1.00,-1.0
5856,17024,-76,488,-1.00,-1.0
5858,17040,-28,440,-1.00,-1.0
5860,16972,-64,444,-1.00,-1.0
5862,16924,0,632,-1.00,-1.0
5864,17004,8,664,-1.00,-1.0
5866,17012,0,712,-1.00,-1.0
5868,17024,-64,568,-1.00,-1.0
5870,17048,-20,760,-1.00,-1.0
5872,16904,-88,644,-1.00,-1.0
5874,17000,-76,456,-1.00,-1.0
5876,17060,12,448,-1.00,-1.0
5880,17068,-44,520,-1.00,-1.0
5882,17000,12,664,-1.00,-1.0
5884,17024,44,660,-1.00,-1.0
5886,17048,0,668,-1.00,-1.0
5887,17008,-44,600,-1.00,-1.0
5890,17004,-32,440,-1.00,-1.0
5892,16972,48,572,-1.00,-1.0
5893,16960,-128,704,-1.00,-1.0
5895,17008,-84,528,-1.00,-1.0
5897,17024,-80,572,-1.00,-1.0
5899,17040,-60,524,-1.00,-1.0
5901,17028,-60,604,-1.00,-1.0
5903,17028,52,592,-1.00,-1.0
5905,16952,0,552,-1.00,-1.0
5907,17040,-8,548,-1.00,-1.0
5909,17040,-8,624,-1.00,-1.0
5911,17012,-4,608,-1.00,-1.0
5913,17092,56,640,-1.00,-1.0
5917,17012,-40,620,-1.00,-1.0
5919,16968,36,708,-1.00,-1.0
5921,16924,8,640,-1.00,-1.0
5923,16928,-20,604,-1.00,-1.0
5925,16928,24,700,-1.00,-1.0
5927,16964,84,564,-1.00,-1.0
5929,17028,-28,612,-1.00,-1.0
5931,17028,24,616,-1.00,-1.0
5932,17020,-92,616,-1.00,-1.0
5934,16948,48,672,-1.00,-1.0
5936,16952,-12,504,-1.00,-1.0
5938,16892,84,692,-1.00,-1.0
5940,16980,24,432,-1.00,-1.0
5942,17016,-48,600,-1.00,-1.0
5944,16964,-48,532,-1.00,-1.0
5946,17032,-152,564,-1.00,-1.0
5948,16928,-92,468,-1.00,-1.0
5952,17040,-20,628,-1.00,-1.0
5954,16976,8,736,-1.00,-1.0
5956,17016,0,488,-1.00,-1.0
5958,16956,-64,568,-1.00,-1.0
5960,17036,72,480,-1.00,-1.0
5962,16932,-28,616,-1.00,-1.0
5964,16880,-44,660,-1.00,-1.0
5966,16996,-124,508,-1.00,-1.0
5968,17048,-12,520,-1.00,-1.0
5970,16964,-56,684,-1.00,-1.0
5972,17176,-56,688,-1.00,-1.0
5974,17040,12,680,-1.00,-1.0
5976,17016,-60,632,-1.00,-1.0
5978,16976,20,600,-1.00,-1.0
5980,16900,0,608,-1.00,-1.0
5981,16984,-20,540,-1.00,-1.0
5983,16908,12,672,-1.00,-1.0
5988,17096,12,552,-1.00,-1.0
5990,16992,0,504,-1.00,-1.0
5991,17024,-16,608,-1.00,-1.0
5993,16984,-40,492,-1.00,-1.0
5995,17000,-108,416,-1.00,-1.0
5997,17044,44,540,-1.00,-1.0
5999,16996,52,548,-1.00,-1.0
6001,16896,-32,536,-1.00,-1.0
6003,17036,12,736,-1.00,-1.0
6005,17024,76,584,-1.00,-1.0
6007,16984,-80,496,-1.00,-1.0
6009,17096,-48,552,-1.00,-1.0
6011,17020,-28,640,-1.00,-1.0
6013,17040,-20,632,-1.00,-1.0
6015,16984,4,552,-1.00,-1.0
6017,16916,0,568,-1.00,-1.0
6019,16984,-16,592,-1.00,-1.0
6021,16952,-68,472,-1.00,-1.0
6025,16968,-60,508,-1.00,-1.0
6027,17024,60,620,-1.00,-1.0
6029,16984,-52,364,-1.00,-1.0
6031,16984,-40,608,-1.00,-1.0
6033,17052,-72,600,-1.00,-1.0
6035,16960,0,544,-1.00,-1.0
6036,17052,-104,544,-1.00,-1.0
6038,17016,12,704,-1.00,-1.0
6040,17020,-84,592,-1.00,-1.0
6042,16928,-24,632,-1.00,-1.0
6044,16936,-8,568,-1.00,-1.0
6046,16920,-44,568,-1.00,-1.0
6048,16948,112,548,-1.00,-1.0
6050,17032,-28,508,-1.00,-1.0
6052,16936,60,440,-1.00,-1.0
6054,16872,-40,644,-1.00,-1.0
6056,17148,-28,648,-1.00,-1.0
6060,16988,8,556,-1.00,-1.0
6062,16896,48,580,-1.00,-1.0
6064,17036,-4,552,-1.00,-1.0
6066,17008,-76,676,-1.00,-1.0
6068,16992,-100,676,-1.00,-1.0
6070,16956,-100,560,-1.00,-1.0
6072,16976,72,636,-1.00,-1.0
6073,16996,72,700,-1.00,-1.0
6075,17040,48,628,-1.00,-1.0
6077,16996,-76,704,-1.00,-1.0
6079,16960,-44,588,-1.00,-1.0
6081,16964,-60,668,-1.00,-1.0
6083,17076,-96,608,-1.00,-1.0
6085,16972,24,432,-1.00,-1.0
6087,16980,40,512,-1.00,-1.0
6089,16988,-28,532,-1.00,-1.0
6091,16936,36,548,-1.00,-1.0
6095,16996,-4,636,-1.00,-1.0
6097,16948,-64,512,-1.00,-1.0
6099,16956,-72,592,-1.00,-1.0
6101,16944,-72,720,-1.00,-1.0
6103,17112,60,660,-1.00,-1.0
6105,16980,-120,524,-1.00,-1.0
6107,16988,-8,632,-1.00,-1.0
6109,17020,24,552,-1.00,-1.0
6110,16992,44,640,-1.00,-1.0
6113,16960,36,728,-1.00,-1.0
6115,16984,-48,512,-1.00,-1.0
6116,16956,-64,572,-1.00,-1.0
6118,17036,20,548,-1.00,-1.0
6120,17088,-16,644,-1.00,-1.0
6122,16964,-44,592,-1.00,-1.0
6124,16992,-76,484,-1.00,-1.0
6126,16904,36,608,-1.00,-1.0
6128,16976,-36,508,-1.00,-1.0
6132,17080,48,760,-1.00,-1.0
6134,17032,12,548,-1.00,-1.0
6136,17052,-4,640,-1.00,-1.0
6138,16972,-76,524,-1.00,-1.0
6140,16976,-20,536,-1.00,-1.0
6142,16904,-56,640,-1.00,-1.0
6144,17004,-80,580,-1.00,-1.0
6146,16968,-48,492,-1.00,-1.0
6148,16912,76,632,-1.00,-1.0
6150,17008,-56,608,-1.00,-1.0
6152,17024,-16,524,-1.00,-1.0
6154,16952,-16,532,-1.00,-1.0
6156,16968,-60,516,-1.00,-1.0
6158,17020,-120,492,-1.00,-1.0
6160,17060,-148,528,-1.00,-1.0
6161,17048,36,624,-1.00,-1.0
6163,16964,-92,344,-1.00,-1.0
6168,16948,8,616,-1.00,-1.0
6170,17044,-72,508,-1.00,-1.0
6171,16936,-80,560,-1.00,-1.0
6173,16996,24,524,-1.00,-1.0
6175,16968,-68,572,-1.00,-1.0
6177,16964,-112,496,-1.00,-1.0
6179,16916,-4,600,-1.00,-1.0
6181,16988,4,648,-1.00,-1.0
6183,16900,-88,508,-1.00,-1.0
6185,17104,-84,508,-1.00,-1.0
6187,17028,-36,640,-1.00,-1.0
6189,16940,-44,684,-1.00,-1.0
6191,16992,28,580,-1.00,-1.0
6193,16944,-8,604,-1.00,-1.0
6195,17004,-84,456,-1.00,-1.0
6197,16984,32,400,-1.00,-1.0
6199,16976,-28,612,-1.00,-1.0
6203,16988,40,672,-1.00,-1.0
6205,16988,24,580,-1.00,-1.0
6207,17044,-48,580,-1.00,-1.0
6209,16952,-16,520,-1.00,-1.0
6211,16964,-44,812,-1.00,-1.0
6213,17064,24,576,-1.00,-1.0
6215,16944,-108,496,-1.00,-1.0
6216,17032,-96,676,-1.00,-1.0
6218,17012,-40,620,-1.00,-1.0
6220,17008,-52,492,-1.00,-1.0
6222,16944,-64,604,-1.00,-1.0
6224,16944,32,712,-1.00,-1.0
6226,16972,4,560,-1.00,-1.0
6228,16976,-56,672,-1.00,-1.0
6230,16980,32,656,-1.00,-1.0
6232,16984,-92,616,-1.00,-1.0
6234,17096,-44,564,-1.00,-1.0
6236,16976,-64,536,-1.00,-1.0
6240,16996,-64,628,-1.00,-1.0
6242,16920,-48,672,-1.00,-1.0
6244,17052,-44,520,-1.00,-1.0
6246,16936,-24,652,-1.00,-1.0
6248,17048,-52,660,-1.00,-1.0
6250,16856,24,668,-1.00,-1.0
6252,17024,-12,812,-1.00,-1.0
6254,17116,20,596,-1.00,-1.0
6256,17028,-44,632,-1.00,-1.0
6258,17008,-44,496,-1.00,-1.0
6260,16996,-40,536,-1.00,-1.0
6261,17012,0,520,-1.00,-1.0
6264,17024,-4,492,-1.00,-1.0
6265,16980,-4,572,-1.00,-1.0
6267,17068,-52,632,-1.00,-1.0
6269,16996,28,544,-1.00,-1.0
6271,17012,-88,388,-1.00,-1.0
6275,16884,-32,588,-1.00,-1.0
6277,16964,-140,536,-1.00,-1.0
6279,16996,12,480,-1.00,-1.0
6281,17000,-104,556,-1.00,-1.0
6283,17048,-28,532,-1.00,-1.0
6285,16948,-44,460,-1.00,-1.0
6287,16940,-52,652,-1.00,-1.0
6289,16988,-64,556,-1.00,-1.0
6291,16984,-24,604,-1.00,-1.0
6293,17004,-28,556,-1.00,-1.0
6295,16956,-12,628,-1.00,-1.0
6297,16988,-32,584,-1.00,-1.0
6299,16944,-56,568,-1.00,-1.0
6301,16864,-32,640,-1.00,-1.0
6303,16908,-44,544,-1.00,-1.0
6304,17056,-76,736,-1.00,-1.0
6306,16964,-8,660,-1.00,-1.0
6311,16964,68,652,-1.00,-1.0
6313,16912,-4,580,-1.00,-1.0
6314,16944,-24,516,-1.00,-1.0
6316,17072,-112,548,-1.00,-1.0
6318,17020,-36,696,-1.00,-1.0
6320,17096,32,564,-1.00,-1.0
6322,17040,24,504,-1.00,-1.0
6324,16952,-56,548,-1.00,-1.0
6326,16988,-4,536,-1.00,-1.0
6328,16972,-96,600,-1.00,-1.0
6330,16988,-32,652,-1.00,-1.0
6332,16900,80,568,-1.00,-1.0
6334,16960,-64,528,-1.00,-1.0
6336,17004,-40,608,-1.00,-1.0
6338,17012,-52,468,-1.00,-1.0
6340,16984,-36,660,-1.00,-1.0
6342,16992,-44,456,-1.00,-1.0
6346,16960,-64,612,-1.00,-1.0
6348,17104,-116,488,-1.00,-1.0
6350,17064,-32,564,-1.00,-1.0
6351,17004,12,648,-1.00,-1.0
6354,16980,-104,432,-1.00,-1.0
6355,17004,24,484,-1.00,-1.0
6357,16872,-72,584,-1.00,-1.0
6359,17004,-84,544,-1.00,-1.0
6361,16968,12,576,-1.00,-1.0
6363,17024,-40,544,-1.00,-1.0
6365,17004,-28,660,-1.00,-1.0
6367,16972,-160,604,-1.00,-1.0
6369,17064,-56,604,-1.00,-1.0
6371,17000,-72,636,-1.00,-1.0
6373,17036,-84,700,-1.00,-1.0
6375,16972,20,572,-1.00,-1.0
6377,16996,-20,540,-1.00,-1.0
6381,16932,-8,508,-1.00,-1.0
6383,17004,24,640,-1.00,-1.0
6385,17084,-8,528,-1.00,-1.0
6387,16976,-64,556,-1.00,-1.0
6388,17092,-28,552,-1.00,-1.0
6390,16980,-28,556,-1.00,-1.0
6392,16956,-56,512,-1.00,-1.0
6394,16988,-8,648,-1.00,-1.0
6396,16956,-52,528,-1.00,-1.0
6398,16900,-80,456,-1.00,-1.0
6400,16956,-116,672,-1.00,-1.0
6402,17024,-20,604,-1.00,-1.0
6404,16952,-64,552,-1.00,-1.0
6406,17032,-52,668,-1.00,-1.0
6408,16932,-40,456,-1.00,-1.0
6410,17012,24,488,-1.00,-1.0
6412,17076,-108,524,-1.00,-1.0
6416,17072,112,536,-1.00,-1.0
6418,17028,-8,608,-1.00,-1.0
6420,17032,-56,496,-1.00,-1.0
6422,17024,-12,764,-1.00,-1.0
6424,16984,-4,528,-1.00,-1.0
6426,17060,4,472,-1.00,-1.0
6428,16972,-56,688,-1.00,-1.0
6430,17008,-56,648,-1.00,-1.0
6432,17080,36,592,-1.00,-1.0
6434,16992,-48,668,-1.00,-1.0
6436,16976,8,536,-1.00,-1.0
6437,16996,16,500,-1.00,-1.0
6439,17024,-48,584,-1.00,-1.0
6441,17036,-64,516,-1.00,-1.0
6443,17052,-24,552,-1.00,-1.0
6445,16980,8,484,-1.00,-1.0
6447,16976,-100,704,-1.00,-1.0
6449,17032,-40,736,-1.00,-1.0
6453,17000,-52,536,-1.00,-1.0
6455,16984,-24,660,-1.00,-1.0
6457,16984,-48,568,-1.00,-1.0
6459,17080,12,840,-1.00,-1.0
6461,16996,4,692,-1.00,-1.0
6463,16952,-112,584,-1.00,-1.0
6465,17068,100,644,-1.00,-1.0
6467,16948,56,684,-1.00,-1.0
6469,17084,-56,688,-1.00,-1.0
6471,16964,-20,540,-1.00,-1.0
6473,16964,-28,644,-1.00,-1.0
6475,16960,20,720,-1.00,-1.0
6476,16964,-8,660,-1.00,-1.0
6478,17004,44,644,-1.00,-1.0
6480,16964,56,672,-1.00,-1.0
6482,17020,-40,704,-1.00,-1.0
6484,16980,-88,520,-1.00,-1.0
6488,17008,-16,620,-1.00,-1.0
6490,17040,-40,600,-1.00,-1.0
6492,17028,8,652,-1.00,-1.0
6494,16952,52,524,-1.00,-1.0
6496,17040,-16,572,-1.00,-1.0
6498,17116,-76,636,-1.00,-1.0
6500,16996,4,504,-1.00,-1.0
6502,16912,-28,712,-1.00,-1.0
6504,16980,28,608,-1.00,-1.0
6506,16912,-16,432,-1.00,-1.0
6508,17060,-84,424,-1.00,-1.0
6510,16904,-8,536,-1.00,-1.0
6512,16988,24,536,-1.00,-1.0
6514,16976,-84,528,-1.00,-1.0
6516,17032,32,604,-1.00,-1.0
6518,17020,-24,584,-1.00,-1.0
6519,16976,32,652,-1.00,-1.0
6524,17072,-40,444,-1.00,-1.0
6526,16992,48,552,-1.00,-1.0
6528,16968,92,452,-1.00,-1.0
6529,17024,-68,512,-1.00,-1.0
6531,17032,-112,524,-1.00,-1.0
6533,16980,36,528,-1.00,-1.0
6535,17020,4,620,-1.00,-1.0
6537,17008,68,576,-1.00,-1.0
6539,16972,-44,596,-1.00,-1.0
6541,16968,4,588,-1.00,-1.0
6543,17036,-64,660,-1.00,-1.0
6545,17000,4,528,-1.00,-1.0
6547,17028,8,624,-1.00,-1.0
6549,16912,-68,468,-1.00,-1.0
6551,17052,32,800,-1.00,-1.0
6553,17044,0,488,-1.00,-1.0
6555,17004,-28,540,-1.00,-1.0
6557,17008,28,544,-1.00,-1.0
6561,17028,-4,616,-1.00,-1.0
6563,17036,-76,632,-1.00,-1.0
6565,17004,72,640,-1.00,-1.0
6567,17024,-40,536,-1.00,-1.0
6569,16872,-28,664,-1.00,-1.0
6571,17008,-24,608,-1.00,-1.0
6573,17060,-60,648,-1.00,-1.0
6574,16916,0,580,-1.00,-1.0
6576,16872,-192,444,-1.00,-1.0
6578,16932,-8,644,-1.00,-1.0
6580,16900,-84,576,-1.00,-1.0
6582,16940,-40,676,-1.00,-1.0
6584,17028,4,624,-1.00,-1.0
6586,17036,-12,548,-1.00,-1.0
6588,16920,24,592,-1.00,-1.0
6590,17024,-176,620,-1.00,-1.0
6592,16940,64,512,-1.00,-1.0
6596,16984,12,716,-1.00,-1.0
6598,16968,-60,548,-1.00,-1.0
6600,17072,-12,588,-1.00,-1.0
6602,16996,0,696,-1.00,-1.0
6604,17012,-60,648,-1.00,-1.0
6606,17012,-44,560,-1.00,-1.0
6608,17008,36,764,-1.00,-1.0
6610,16984,-40,484,-1.00,-1.0
6612,17096,-48,556,-1.00,-1.0
6614,17068,-44,680,-1.00,-1.0
6616,17052,-64,452,-1.00,-1.0
6618,17100,-16,560,-1.00,-1.0
6619,17032,-40,652,-1.00,-1.0
6622,17060,-96,660,-1.00,-1.0
6623,16992,44,528,-1.00,-1.0
6625,17012,-56,432,-1.00,-1.0
6627,17052,-112,488,-1.00,-1.0
6629,16968,-88,716,-1.00,-1.0
6633,16872,-40,488,-1.00,-1.0
6635,16984,8,568,-1.00,-1.0
6637,16940,-72,652,-1.00,-1.0
6639,17020,68,696,-1.00,-1.0
6641,17000,-76,644,-1.00,-1.0
6643,17000,112,460,-1.00,-1.0
6645,17020,-8,596,-1.00,-1.0
6647,17012,-28,660,-1.00,-1.0
6649,17028,-88,704,-1.00,-1.0
6651,17056,24,492,-1.00,-1.0
6653,16900,-36,620,-1.00,-1.0
6655,16964,64,536,-1.00,-1.0
6657,16916,56,644,-1.00,-1.0
6659,17084,-12,536,-1.00,-1.0
6661,17052,-60,644,-1.00,-1.0
6662,17084,4,532,-1.00,-1.0
6664,16992,-24,708,-1.00,-1.0
6668,17036,-72,488,-1.00,-1.0
6670,16972,-88,460,-1.00,-1.0
6672,16980,-32,624,-1.00,-1.0
6674,16952,-12,584,-1.00,-1.0
6676,16984,96,480,-1.00,-1.0
6678,17008,-28,536,-1.00,-1.0
6680,16924,20,528,-1.00,-1.0
6682,16984,28,608,-1.00,-1.0
6684,17104,-88,516,-1.00,-1.0
6686,17008,4,544,-1.00,-1.0
6688,17044,-44,644,-1.00,-1.0
6690,16964,-16,704,-1.00,-1.0
6692,16924,-52,536,-1.00,-1.0
6694,16892,-20,660,-1.00,-1.0
6696,16988,-24,668,-1.00,-1.0
6698,16972,-52,636,-1.00,-1.0
6699,16952,-24,504,-1.00,-1.0
6704,16944,28,612,-1.00,-1.0
6706,16956,-60,648,-1.00,-1.0
6707,16968,-116,504,-1.00,-1.0
6709,17052,0,472,-1.00,-1.0
6711,16960,-80,620,-1.00,-1.0
6713,17064,-8,548,-1.00,-1.0
6715,16964,-64,588,-1.00,-1.0
6717,16988,0,628,-1.00,-1.0
6719,16964,4,608,-1.00,-1.0
6721,16876,104,540,-1.00,-1.0
6723,16960,8,520,-1.00,-1.0
6725,16940,8,716,-1.00,-1.0
6727,17040,-12,640,-1.00,-1.0
6729,17068,0,596,-1.00,-1.0
6731,16920,-8,636,-1.00,-1.0
6733,17088,56,752,-1.00,-1.0
6735,17076,-40,664,-1.00,-1.0
6737,16956,-60,592,-1.00,-1.0
6741,16888,104,724,-1.00,-1.0
6743,17076,-64,556,-1.00,-1.0
6745,17052,12,520,-1.00,-1.0
6747,16988,52,660,-1.00,-1.0
6749,16960,-64,512,-1.00,-1.0
6751,16968,-76,528,-1.00,-1.0
6752,17004,20,644,-1.00,-1.0
6754,16924,-72,432,-1.00,-1.0
6756,16964,-80,712,-1.00,-1.0
6758,16908,-40,564,-1.00,-1.0
6760,17012,-12,488,-1.00,-1.0
6762,16988,4,668,-1.00,-1.0
6764,17080,-88,644,-1.00,-1.0
6766,17032,-124,504,-1.00,-1.0
6768,16928,-44,584,-1.00,-1.0
6770,17172,-4,524,-1.00,-1.0
6772,16976,-16,540,-1.00,-1.0
6776,17112,24,668,-1.00,-1.0
6778,17052,-52,600,-1.00,-1.0
6780,16992,-4,556,-1.00,-1.0
6782,17040,-48,716,-1.00,-1.0
6784,17000,-48,648,-1.00,-1.0
6786,17104,-8,788,-1.00,-1.0
6788,17092,-32,548,-1.00,-1.0
6790,17036,-80,556,-1.00,-1.0
6792,16956,-84,608,-1.00,-1.0
6794,17012,-20,504,-1.00,-1.0
6796,16996,-4,452,-1.00,-1.0
6797,16976,-108,656,-1.00,-1.0
6799,17000,-36,696,-1.00,-1.0
6801,17120,104,480,-1.00,-1.0
6803,16896,-132,584,-1.00,-1.0
6805,17044,-8,676,-1.00,-1.0
6807,16960,8,712,-1.00,-1.0
6811,17016,-64,604,-1.00,-1.0
6813,16964,-100,676,-1.00,-1.0
6815,17100,36,572,-1.00,-1.0
6817,17100,44,592,-1.00,-1.0
6819,16920,-84,624,-1.00,-1.0
6821,16932,-96,552,-1.00,-1.0
6823,16984,-28,612,-1.00,-1.0
6825,17016,-8,644,-1.00,-1.0
6827,16928,-28,580,-1.00,-1.0
6829,17044,12,516,-1.00,-1.0
6831,16992,-112,556,-1.00,-1.0
6833,17104,-28,516,-1.00,-1.0
6835,16980,-28,620,-1.00,-1.0
6837,17048,-72,664,-1.00,-1.0
6839,16976,-28,704,-1.00,-1.0
6841,17004,-84,644,-1.00,-1.0
6842,16960,152,544,-1.00,-1.0
6847,17016,-24,576,-1.00,-1.0
6849,17004,20,560,-1.00,-1.0
6850,17016,32,592,-1.00,-1.0
6852,16940,-84,476,-1.00,-1.0
6854,17060,-4,520,-1.00,-1.0
6856,16912,-20,616,-1.00,-1.0
6858,16972,40,584,-1.00,-1.0
6860,16984,176,684,-1.00,-1.0
6862,16996,28,556,-1.00,-1.0
6864,17080,-120,512,-1.00,-1.0
6866,17052,-88,472,-1.00,-1.0
6868,16992,-108,648,-1.00,-1.0
6870,16984,-4,524,-1.00,-1.0
6872,17024,-4,656,-1.00,-1.0
6874,17032,-72,524,-1.00,-1.0
6876,16988,-4,556,-1.00,-1.0
6878,17032,-24,580,-1.00,-1.0
6880,17008,32,624,-1.00,-1.0
6884,16964,-124,532,-1.00,-1.0
6886,17032,4,676,-1.00,-1.0
6888,17100,44,608,-1.00,-1.0
6890,16996,-80,632,-1.00,-1.0
6892,16956,28,672,-1.00,-1.0
6894,17020,-100,480,-1.00,-1.0
6895,17024,-28,448,-1.00,-1.0
6897,16968,-48,548,-1.00,-1.0
6899,17056,-16,476,-1.00,-1.0
6901,17044,44,596,-1.00,-1.0
6903,16980,-16,644,-1.00,-1.0
6905,17028,-64,648,-1.00,-1.0
6907,17040,-16,700,-1.00,-1.0
6909,16996,4,676,-1.00,-1.0
6911,17060,20,696,-1.00,-1.0
6913,16984,-44,640,-1.00,-1.0
6915,16956,-56,460,-1.00,-1.0
6921,17080,-12,592,-1.00,-1.0
6923,17056,-68,524,-1.00,-1.0
6925,17080,-124,512,-1.00,-1.0
6927,16928,0,664,-1.00,-1.0
6929,16940,40,552,-1.00,-1.0
6931,17004,-64,600,-1.00,-1.0
6933,17004,20,512,-1.00,-1.0
6934,17064,-96,476,-1.00,-1.0
6937,16968,-24,576,-1.00,-1.0
6938,17028,-64,488,-1.00,-1.0
6940,16996,-4,568,-1.00,-1.0
6942,16964,-8,468,-1.00,-1.0
6944,16940,-64,612,-1.00,-1.0
6946,17008,-96,496,-1.00,-1.0
6948,17028,-4,520,-1.00,-1.0
6950,17064,28,604,-1.00,-1.0
6952,17020,-24,536,-1.00,-1.0
6956,16980,-100,600,-1.00,-1.0
6958,16928,-100,644,-1.00,-1.0
6960,16940,-12,584,-1.00,-1.0
6962,17020,-8,612,-1.00,-1.0
6964,16992,28,620,-1.00,-1.0
6966,16988,-52,668,-1.00,-1.0
6968,17056,-128,564,-1.00,-1.0
6970,17028,-40,676,-1.00,-1.0
6971,17008,-64,508,-1.00,-1.0
6974,16964,72,656,-1.00,-1.0
6976,16848,-48,516,-1.00,-1.0
6977,17012,32,576,-1.00,-1.0
6979,16852,16,616,-1.00,-1.0
6981,17072,-24,420,-1.00,-1.0
6983,17020,8,560,-1.00,-1.0
6985,17028,-104,464,-1.00,-1.0
6987,17028,-64,552,-1.00,-1.0
6991,17036,-136,508,-1.00,-1.0
6993,17008,-156,528,-1.00,-1.0
6995,16984,0,568,-1.00,-1.0
6997,16952,-132,548,-1.00,-1.0
6999,17028,-176,536,-1.00,-1.0
7001,17016,-28,536,-1.00,-1.0
7003,16980,-28,584,-1.00,-1.0
7005,17008,-140,540,-1.00,-1.0
7007,16992,-52,652,-1.00,-1.0
7009,16916,28,548,-1.00,-1.0
7011,16964,4,544,-1.00,-1.0
7013,17028,-12,464,-1.00,-1.0
7015,16988,-64,708,-1.00,-1.0
7017,17000,80,576,-1.00,-1.0
7019,16972,44,608,-1.00,-1.0
7021,16996,-64,504,-1.00,-1.0
7022,17016,-44,544,-1.00,-1.0
7027,16900,16,704,-1.00,-1.0
7029,16976,48,656,-1.00,-1.0
7031,17048,-28,320,-1.00,-1.0
7032,16960,-80,656,-1.00,-1.0
7034,16972,-52,652,-1.00,-1.0
7036,17076,32,636,-1.00,-1.0
7038,17056,-140,428,-1.00,-1.0
7040,16936,84,596,-1.00,-1.0
7042,17072,40,532,-1.00,-1.0
7044,17012,36,468,-1.00,-1.0
7046,16964,8,536,-1.00,-1.0
7048,16916,-36,592,-1.00,-1.0
7050,17020,-112,740,-1.00,-1.0
7052,17028,-8,560,-1.00,-1.0
7054,16996,-16,572,-1.00,-1.0
7056,16956,16,612,-1.00,-1.0
7058,17044,12,528,-1.00,-1.0
7060,16884,4,628,-1.00,-1.0
7064,17036,4,612,-1.00,-1.0
7066,16996,0,520,-1.00,-1.0
7068,16980,0,560,-1.00,-1.0
7070,16984,16,580,-1.00,-1.0
7072,16940,-36,688,-1.00,-1.0
7074,16992,-64,652,-1.00,-1.0
7075,17092,28,640,-1.00,-1.0
7077,16968,-60,612,-1.00,-1.0
7079,17052,-20,504,-1.00,-1.0
7081,16964,56,536,-1.00,-1.0
7083,17048,20,616,-1.00,-1.0
7085,17028,120,564,-1.00,-1.0
7087,17072,-80,504,-1.00,-1.0
7089,16896,-8,624,-1.00,-1.0
7091,16912,48,752,-1.00,-1.0
7093,16888,-56,600,-1.00,-1.0
7095,16960,0,656,-1.00,-1.0
7099,16996,12,672,-1.00,-1.0
7101,16980,-80,652,-1.00,-1.0
7103,17004,56,572,-1.00,-1.0
7105,17008,108,528,-1.00,-1.0
7107,17036,-8,548,-1.00,-1.0
7109,16988,-36,676,-1.00,-1.0
7111,16888,-8,644,-1.00,-1.0
7113,17008,-76,664,-1.00,-1.0
7115,17040,48,628,-1.00,-1.0
7117,17060,-28,616,-1.00,-1.0
7119,17016,-156,580,-1.00,-1.0
7120,16972,56,640,-1.00,-1.0
7122,17004,-40,568,-1.00,-1.0
7124,16948,-100,612,-1.00,-1.0
7126,17052,84,564,-1.00,-1.0
7128,16976,-52,600,-1.00,-1.0
7130,17036,-28,500,-1.00,-1.0
7132,16920,-20,548,-1.00,-1.0
7136,17048,24,684,-1.00,-1.0
7138,17040,-40,480,-1.00,-1.0
7140,17004,-36,600,-1.00,-1.0
7142,17016,-92,640,-1.00,-1.0
7144,17008,-76,544,-1.00,-1.0
7146,16964,36,540,-1.00,-1.0
7148,16948,28,644,-1.00,-1.0
7150,17000,28,756,-1.00,-1.0
7152,17008,24,636,-1.00,-1.0
7154,17056,0,652,-1.00,-1.0
7156,17020,28,548,-1.00,-1.0
7158,16992,-64,604,-1.00,-1.0
7160,16956,-64,612,-1.00,-1.0
7162,17032,-16,536,-1.00,-1.0
7164,17044,24,596,-1.00,-1.0
7165,16964,-52,648,-1.00,-1.0
7167,17048,-72,716,-1.00,-1.0
7172,16936,12,552,-1.00,-1.0
7174,17068,-28,736,-1.00,-1.0
7175,17004,-28,576,-1.00,-1.0
7177,17008,16,556,-1.00,-1.0
7179,17060,0,460,-1.00,-1.0
7181,17008,12,596,-1.00,-1.0
7183,17012,24,584,-1.00,-1.0
7185,16988,-52,572,-1.00,-1.0
7187,16992,-64,520,-1.00,-1.0
7189,17012,-64,624,-1.00,-1.0
7191,17028,-20,484,-1.00,-1.0
7193,17120,24,576,-1.00,-1.0
7195,17140,56,536,-1.00,-1.0
7197,16828,-36,480,-1.00,-1.0
7199,17048,-40,640,-1.00,-1.0
7201,16976,56,576,-1.00,-1.0
7203,16960,-96,564,-1.00,-1.0
7207,16968,-32,596,-1.00,-1.0
7209,17004,12,512,-1.00,-1.0
7211,16900,-52,584,-1.00,-1.0
7212,17060,-64,608,-1.00,-1.0
7214,16976,4,640,-1.00,-1.0
7216,17004,-4,608,-1.00,-1.0
7218,16912,80,536,-1.00,-1.0
7220,17004,-44,500,-1.00,-1.0
7222,17000,72,576,-1.00,-1.0
7224,16968,28,520,-1.00,-1.0
7226,17012,-40,484,-1.00,-1.0
7228,16952,-76,696,-1.00,-1.0
7230,16908,36,564,-1.00,-1.0
7232,17008,-28,592,-1.00,-1.0
7234,16976,-64,740,-1.00,-1.0
7236,17032,-40,540,-1.00,-1.0
7238,16956,-4,564,-1.00,-1.0
7240,16992,52,512,-1.00,-1.0
7244,17012,-16,392,-1.00,-1.0
7246,16992,-40,512,-1.00,-1.0
7247,16968,-24,576,-1.00,-1.0
7249,16980,-64,636,-1.00,-1.0
7251,17028,8,676,-1.00,-1.0
7253,16960,48,572,-1.00,-1.0
7255,16852,8,588,-1.00,-1.0
7257,16964,24,548,-1.00,-1.0
7259,17008,-20,468,-1.00,-1.0
7261,17000,-12,672,-1.00,-1.0
7263,16972,-132,484,-1.00,-1.0
7265,16984,-80,720,-1.00,-1.0
7267,17024,-112,556,-1.00,-1.0
7269,17040,36,692,-1.00,-1.0
7271,16968,-88,568,-1.00,-1.0
7273,16960,-64,616,-1.00,-1.0
7275,16904,20,716,-1.00,-1.0
7279,16968,20,684,-1.00,-1.0
7281,17060,-64,672,-1.00,-1.0
7283,17040,24,572,-1.00,-1.0
7285,17068,-40,640,-1.00,-1.0
7287,16956,-28,688,-1.00,-1.0
7289,16972,8,604,-1.00,-1.0
7291,17028,56,688,-1.00,-1.0
7292,17044,-48,476,-1.00,-1.0
7294,17072,-40,480,-1.00,-1.0
7296,16992,-8,580,-1.00,-1.0
7298,17104,-72,636,-1.00,-1.0
7300,17008,-136,648,-1.00,-1.0
7302,16992,-56,620,-1.00,-1.0
7304,16920,-40,592,-1.00,-1.0
7306,17048,-124,420,-1.00,-1.0
7308,17076,-16,572,-1.00,-1.0
7310,17060,-28,644,-1.00,-1.0
7314,16888,28,608,-1.00,-1.0
7316,16988,-84,616,-1.00,-1.0
7318,16984,16,720,-1.00,-1.0
7320,16992,96,600,-1.00,-1.0
7322,16980,-16,612,-1.00,-1.0
7324,16944,-36,548,-1.00,-1.0
7326,16996,-8,568,-1.00,-1.0
7328,16876,-32,548,-1.00,-1.0
7330,16972,-68,584,-1.00,-1.0
7332,16948,24,568,-1.00,-1.0
7334,17068,-64,568,-1.00,-1.0
7336,16880,-64,528,-1.00,-1.0
7337,16984,-28,580,-1.00,-1.0
7340,17052,-16,528,-1.00,-1.0
7341,17028,-52,580,-1.00,-1.0
7343,17068,20,476,-1.00,-1.0
7345,17112,-4,572,-1.00,-1.0
7347,16992,-48,508,-1.00,-1.0
7351,16980,48,812,-1.00,-1.0
7353,16980,-28,420,-1.00,-1.0
7355,17052,-16,628,-1.00,-1.0
7357,16972,-28,624,-1.00,-1.0
7359,16924,24,588,-1.00,-1.0
7361,16908,-52,636,-1.00,-1.0
7363,16988,-72,576,-1.00,-1.0
7365,16976,4,740,-1.00,-1.0
7367,16964,20,684,-1.00,-1.0
7369,16924,60,480,-1.00,-1.0
7371,16956,12,480,-1.00,-1.0
7373,17000,-8,608,-1.00,-1.0
7375,16968,28,580,-1.00,-1.0
7377,16972,-108,576,-1.00,-1.0
7379,16992,-68,472,-1.00,-1.0
7381,17028,80,440,-1.00,-1.0
7382,16888,-16,608,-1.00,-1.0
7387,17004,-64,668,-1.00,-1.0
7389,17044,0,688,-1.00,-1.0
7391,17056,-24,584,-1.00,-1.0
7392,17068,-12,680,-1.00,-1.0
7395,16940,-44,520,-1.00,-1.0
7396,17068,-44,676,-1.00,-1.0
7398,17012,8,404,-1.00,-1.0
7400,17004,-4,560,-1.00,-1.0
7402,17080,4,696,-1.00,-1.0
7404,16924,-16,496,-1.00,-1.0
7406,17052,-52,552,-1.00,-1.0
7408,16880,60,576,-1.00,-1.0
7410,17000,-24,456,-1.00,-1.0
7412,16948,-36,488,-1.00,-1.0
7414,16984,-20,532,-1.00,-1.0
7416,17076,-32,548,-1.00,-1.0
7418,16956,-24,624,-1.00,-1.0
7422,17020,-80,636,-1.00,-1.0
7424,17008,-72,656,-1.00,-1.0
7426,17056,-8,684,-1.00,-1.0
7428,17048,-36,644,-1.00,-1.0
7430,17064,-8,604,-1.00,-1.0
7432,16976,-16,356,-1.00,-1.0
7434,16908,48,564,-1.00,-1.0
7436,16952,-16,524,-1.00,-1.0
7438,16920,-24,676,-1.00,-1.0
7440,16968,36,692,-1.00,-1.0
7442,16936,-12,572,-1.00,-1.0
7444,17044,-52,680,-1.00,-1.0
7445,17000,-16,520,-1.00,-1.0
7447,16928,-32,704,-1.00,-1.0
7449,17052,8,524,-1.00,-1.0
7451,17192,-116,380,-1.00,-1.0
7453,17088,-16,556,-1.00,-1.0
7457,16992,20,512,-1.00,-1.0
7459,16972,-20,628,-1.00,-1.0
7461,16984,-56,632,-1.00,-1.0
7463,17016,-36,612,-1.00,-1.0
7465,16980,-84,620,-1.00,-1.0
7467,16964,36,556,-1.00,-1.0
7469,16964,-40,560,-1.00,-1.0
7471,16896,60,464,-1.00,-1.0
7473,17028,-16,628,-1.00,-1.0
7475,17048,-36,512,-1.00,-1.0
7477,17052,-24,448,-1.00,-1.0
7479,17028,68,516,-1.00,-1.0
7481,17020,-100,636,-1.00,-1.0
7483,16964,60,508,-1.00,-1.0
7485,17068,-108,584,-1.00,-1.0
7487,16960,-20,548,-1.00,-1.0
7488,16928,60,672,-1.00,-1.0
7490,16992,12,596,-1.00,-1.0
7494,17044,-40,656,-1.00,-1.0
7496,17000,-4,600,-1.00,-1.0
7498,16988,-64,512,-1.00,-1.0
7500,17024,36,592,-1.00,-1.0
7502,16984,-80,564,-1.00,-1.0
7504,17024,52,444,-1.00,-1.0
7506,16956,-48,528,-1.00,-1.0
7508,16988,44,504,-1.00,-1.0
7510,17024,32,648,-1.00,-1.0
7512,17088,-8,476,-1.00,-1.0
7514,16988,12,604,-1.00,-1.0
7516,16996,-60,528,-1.00,-1.0
7518,16968,36,608,-1.00,-1.0
7520,16960,-76,516,-1.00,-1.0
7522,16936,-36,512,-1.00,-1.0
7524,16924,-36,496,-1.00,-1.0
7525,16944,-20,596,-1.00,-1.0
7529,16952,0,468,-1.00,-1.0
7531,17060,4,656,-1.00,-1.0
7533,17020,12,540,-1.00,-1.0
7535,17040,-12,632,-1.00,-1.0
7537,17068,-16,600,-1.00,-1.0
7539,17044,-56,600,-1.00,-1.0
7541,16936,-16,628,-1.00,-1.0
7543,16972,-28,572,-1.00,-1.0
7545,16988,36,528,-1.00,-1.0
7547,17028,-4,684,-1.00,-1.0
7549,17028,-28,632,-1.00,-1.0
7551,16852,12,604,-1.00,-1.0
7553,17000,-28,624,-1.00,-1.0
7555,17032,4,588,-1.00,-1.0
7557,16992,-32,704,-1.00,-1.0
7559,17076,-84,468,-1.00,-1.0
7561,16876,-28,548,-1.00,-1.0
7565,17012,16,580,-1.00,-1.0
7567,16924,-108,628,-1.00,-1.0
7569,17016,-92,672,-1.00,-1.0
7570,17000,-80,580,-1.00,-1.0
7572,17024,-8,668,-1.00,-1.0
7574,16976,-56,640,-1.00,-1.0
7576,17036,-64,628,-1.00,-1.0
7578,16988,40,572,-1.00,-1.0
7580,17004,-24,592,-1.00,-1.0
7582,17008,24,512,-1.00,-1.0
7584,17052,40,344,-1.00,-1.0
7586,17008,-56,504,-1.00,-1.0
7588,17028,28,560,-1.00,-1.0
7590,16956,-32,512,-1.00,-1.0
7592,16932,-56,568,-1.00,-1.0
7594,17032,-28,516,-1.00,-1.0
7596,17048,20,592,-1.00,-1.0
7598,17028,4,560,-1.00,-1.0
7602,16956,-60,616,-1.00,-1.0
7604,17004,-64,592,-1.00,-1.0
7606,17044,-40,668,-1.00,-1.0
7608,16936,-8,688,-1.00,-1.0
7610,16848,-44,492,-1.00,-1.0
7612,17044,-28,508,-1.00,-1.0
7614,16944,-52,552,-1.00,-1.0
7615,16952,-40,664,-1.00,-1.0
7618,16964,0,496,-1.00,-1.0
7619,16996,16,644,-1.00,-1.0
7621,16940,72,660,-1.00,-1.0
7623,16984,-64,624,-1.00,-1.0
7625,17000,68,564,-1.00,-1.0
7627,16988,0,656,-1.00,-1.0
7629,16964,-24,476,-1.00,-1.0
7631,17008,52,668,-1.00,-1.0
7633,17020,-64,584,-1.00,-1.0
7637,17048,-84,640,-1.00,-1.0
7639,16992,-32,732,-1.00,-1.0
7641,17020,-48,688,-1.00,-1.0
7643,16956,8,556,-1.00,-1.0
7645,17004,-12,464,-1.00,-1.0
7647,16872,-48,404,-1.00,-1.0
7649,16936,60,528,-1.00,-1.0
7651,17064,-24,576,-1.00,-1.0
7653,17032,-64,508,-1.00,-1.0
7655,17028,20,592,-1.00,-1.0
7657,16960,4,452,-1.00,-1.0
7658,16944,-44,644,-1.00,-1.0
7660,16972,28,600,-1.00,-1.0
7662,16928,0,584,-1.00,-1.0
7664,17012,-32,604,-1.00,-1.0
7666,17052,-8,580,-1.00,-1.0
7668,17000,-76,780,-1.00,-1.0
7670,17072,48,608,-1.00,-1.0
7674,17048,-32,536,-1.00,-1.0
7676,17036,32,564,-1.00,-1.0
7678,16912,12,692,-1.00,-1.0
7680,16940,-32,592,-1.00,-1.0
7682,17012,0,696,-1.00,-1.0
7684,17048,28,580,-1.00,-1.0
7686,16980,36,504,-1.00,-1.0
7688,17008,32,580,-1.00,-1.0
7690,16932,-56,620,-1.00,-1.0
7692,16964,48,576,-1.00,-1.0
7694,16992,-36,660,-1.00,-1.0
7696,17000,-20,556,-1.00,-1.0
7698,16956,-32,556,-1.00,-1.0
7700,16992,28,580,-1.00,-1.0
7702,17092,-16,676,-1.00,-1.0
7703,16972,20,472,-1.00,-1.0
7705,16976,-44,604,-1.00,-1.0
7710,16944,-44,380,-1.00,-1.0
7712,16992,-52,532,-1.00,-1.0
7713,16992,12,572,-1.00,-1.0
7715,16948,-16,564,-1.00,-1.0
7717,16868,-100,500,-1.00,-1.0
7719,16988,-24,524,-1.00,-1.0
7721,16948,-24,708,-1.00,-1.0
7723,17112,12,604,-1.00,-1.0
7725,16932,-12,652,-1.00,-1.0
7727,16948,-32,656,-1.00,-1.0
7729,16944,-92,612,-1.00,-1.0
7731,17028,16,576,-1.00,-1.0
7733,17004,-88,604,-1.00,-1.0
7735,17176,12,700,-1.00,-1.0
7737,17004,40,496,-1.00,-1.0
7739,17120,0,600,-1.00,-1.0
7741,17028,-28,540,-1.00,-1.0
7745,17008,-64,568,-1.00,-1.0
7747,16936,-92,572,-1.00,-1.0
7749,17128,-84,716,-1.00,-1.0
7751,16944,-76,564,-1.00,-1.0
7752,17044,-72,500,-1.00,-1.0
7755,16972,-32,492,-1.00,-1.0
7757,16992,32,652,-1.00,-1.0
7758,17028,-76,384,-1.00,-1.0
7760,16992,-100,608,-1.00,-1.0
7762,16960,36,580,-1.00,-1.0
7764,17032,-56,616,-1.00,-1.0
7766,16924,32,512,-1.00,-1.0
7768,16988,-12,608,-1.00,-1.0
7770,16980,52,608,-1.00,-1.0
7772,16964,0,476,-1.00,-1.0
7774,17040,52,656,-1.00,-1.0
7776,16948,52,676,-1.00,-1.0
7778,17084,0,660,-1.00,-1.0
7782,16880,-96,680,-1.00,-1.0
7784,17032,-52,484,-1.00,-1.0
7786,17052,-16,548,-1.00,-1.0
7788,17120,-20,588,-1.00,-1.0
7790,16976,44,712,-1.00,-1.0
7792,17032,-44,648,-1.00,-1.0
7794,17140,4,396,-1.00,-1.0
7795,16980,-16,620,-1.00,-1.0
7797,17016,-92,564,-1.00,-1.0
7799,17020,-28,636,-1.00,-1.0
7801,16944,76,620,-1.00,-1.0
7803,17000,72,612,-1.00,-1.0
7805,16956,-92,564,-1.00,-1.0
7807,16960,0,620,-1.00,-1.0
7809,17024,-20,604,-1.00,-1.0
7811,17048,-40,484,-1.00,-1.0
7813,17088,-52,664,-1.00,-1.0
7817,17064,20,616,-1.00,-1.0
7819,16968,80,720,-1.00,-1.0
7821,16936,-36,492,-1.00,-1.0
7823,17032,-44,592,-1.00,-1.0
7825,16888,-20,552,-1.00,-1.0
7827,16932,-4,452,-1.00,-1.0
7829,17028,0,652,-1.00,-1.0
7830,16968,-8,528,-1.00,-1.0
7832,17032,-8,532,-1.00,-1.0
7834,16908,-132,620,-1.00,-1.0
7836,17068,-60,520,-1.00,-1.0
7838,17012,-40,668,-1.00,-1.0
7840,16948,-24,720,-1.00,-1.0
7842,17064,-88,516,-1.00,-1.0
7844,16980,-68,476,-1.00,-1.0
7846,17052,-40,524,-1.00,-1.0
7848,17020,8,600,-1.00,-1.0
7852,17048,-4,596,-1.00,-1.0
7854,17032,-48,624,-1.00,-1.0
7856,17064,-40,520,-1.00,-1.0
7858,17000,-28,524,-1.00,-1.0
7860,16960,-112,648,-1.00,-1.0
7862,16968,-88,652,-1.00,-1.0
7864,17072,12,608,-1.00,-1.0
7866,17004,-4,532,-1.00,-1.0
7868,16996,-40,504,-1.00,-1.0
7870,17004,28,728,-1.00,-1.0
7872,17028,72,636,-1.00,-1.0
7874,16992,-120,472,-1.00,-1.0
7876,17020,-60,636,-1.00,-1.0
7878,17008,4,536,-1.00,-1.0
7880,17044,36,616,-1.00,-1.0
7881,17028,-52,424,-1.00,-1.0
7883,17028,-60,400,-1.00,-1.0
7885,16940,-52,460,-1.00,-1.0
7889,16944,-40,532,-1.00,-1.0
7891,17000,-28,480,-1.00,-1.0
7893,16916,44,572,-1.00,-1.0
7895,17056,-28,536,-1.00,-1.0
7897,16936,-48,568,-1.00,-1.0
7899,17100,52,584,-1.00,-1.0
7901,16960,-36,568,-1.00,-1.0
7903,16896,16,540,-1.00,-1.0
7905,16960,-52,468,-1.00,-1.0
7907,17008,-28,472,-1.00,-1.0
7909,17128,24,352,-1.00,-1.0
7911,17000,-24,640,-1.00,-1.0
7913,16980,64,484,-1.00,-1.0
7915,17008,-36,472,-1.00,-1.0
7917,17004,-156,528,-1.00,-1.0
7919,17012,-100,532,-1.00,-1.0
7921,16964,36,480,-1.00,-1.0
7925,17004,28,592,-1.00,-1.0
7927,16964,4,620,-1.00,-1.0
7929,16920,24,528,-1.00,-1.0
7931,16916,-60,512,-1.00,-1.0
7933,17000,-12,572,-1.00,-1.0
7935,17052,-100,564,-1.00,-1.0
7936,16844,-84,612,-1.00,-1.0
7938,16952,28,644,-1.00,-1.0
7940,17060,-76,568,-1.00,-1.0
7942,17048,-64,388,-1.00,-1.0
7944,17028,-64,656,-1.00,-1.0
7946,17076,-20,628,-1.00,-1.0
7948,17044,8,528,-1.00,-1.0
7950,17116,-44,592,-1.00,-1.0
7952,17056,-36,644,-1.00,-1.0
7954,16896,-32,528,-1.00,-1.0
7956,17020,-84,580,-1.00,-1.0
7960,16892,-40,588,-1.00,-1.0
7962,16960,4,544,-1.00,-1.0
7964,16908,-152,436,-1.00,-1.0
7966,17068,-4,488,-1.00,-1.0
7968,16984,-56,520,-1.00,-1.0
7970,16932,-76,636,-1.00,-1.0
7972,17028,-16,524,-1.00,-1.0
7974,17108,24,572,-1.00,-1.0
7976,16984,-12,516,-1.00,-1.0
7978,17068,-36,576,-1.00,-1.0
7980,17000,-64,544,-1.00,-1.0
7981,16960,-4,560,-1.00,-1.0
7983,17012,-20,572,-1.00,-1.0
7985,17016,-124,544,-1.00,-1.0
7987,16948,-44,676,-1.00,-1.0
7989,17020,-64,544,-1.00,-1.0
7991,16996,116,600,-1.00,-1.0
7996,16992,8,592,-1.00,-1.0
7998,16852,-112,692,-1.00,-1.0
7999,17008,-40,424,-1.00,-1.0
8001,17052,64,704,-1.00,-1.0
8003,16996,36,612,-1.00,-1.0
8005,17036,0,612,-1.00,-1.0
8007,17016,76,600,-1.00,-1.0
8009,16980,-8,504,-1.00,-1.0
8011,17008,-108,592,-1.00,-1.0
8013,16976,-12,648,-1.00,-1.0
8015,17068,16,712,-1.00,-1.0
8017,17024,-8,576,-1.00,-1.0
8019,17088,32,620,-1.00,-1.0
8021,16980,-16,680,-1.00,-1.0
8023,16920,-76,592,-1.00,-1.0
8025,16988,76,684,-1.00,-1.0
8027,16980,-36,628,-1.00,-1.0
8028,17004,-52,460,-1.00,-1.0
8033,17072,-28,540,-1.00,-1.0
8035,16980,-8,712,-1.00,-1.0
8037,17016,-12,580,-1.00,-1.0
8038,17016,-88,632,-1.00,-1.0
8041,17008,88,656,-1.00,-1.0
8043,17012,-40,584,-1.00,-1.0
8044,16916,8,552,-1.00,-1.0
8046,16964,-84,644,-1.00,-1.0
8048,17004,0,524,-1.00,-1.0
8050,16980,0,632,-1.00,-1.0
8052,17032,48,512,-1.00,-1.0
8054,16940,-64,496,-1.00,-1.0
8056,17036,-60,548,-1.00,-1.0
8058,16996,-60,580,-1.00,-1.0
8060,16920,40,620,-1.00,-1.0
8062,17064,-20,552,-1.00,-1.0
8064,16996,80,632,-1.00,-1.0
8070,17036,-40,504,-1.00,-1.0
8072,17032,12,468,-1.00,-1.0
8074,17060,-124,520,-1.00,-1.0
8076,17040,-68,552,-1.00,-1.0
8078,17072,0,528,-1.00,-1.0
8080,17052,0,720,-1.00,-1.0
8081,17036,-48,612,-1.00,-1.0
8083,17032,-100,584,-1.00,-1.0
8085,17028,-36,584,-1.00,-1.0
8087,16984,-12,608,-1.00,-1.0
8089,16956,-40,568,-1.00,-1.0
8091,16976,60,676,-1.00,-1.0
8093,16964,-88,540,-1.00,-1.0
8095,16964,-28,668,-1.00,-1.0
8097,17040,4,596,-1.00,-1.0
8099,16992,-32,540,-1.00,-1.0
8101,17028,12,640,-1.00,-1.0
8105,17016,-28,556,-1.00,-1.0
8107,17036,-28,460,-1.00,-1.0
8109,17000,-20,616,-1.00,-1.0
8111,16996,-56,548,-1.00,-1.0
8113,16948,-24,460,-1.00,-1.0
8115,16992,-64,528,-1.00,-1.0
8117,17040,48,448,-1.00,-1.0
8119,16980,-56,556,-1.00,-1.0
8120,16992,-36,600,-1.00,-1.0
8122,17016,-44,624,-1.00,-1.0
8124,16996,-64,480,-1.00,-1.0
8126,16984,-72,644,-1.00,-1.0
8128,16968,-52,520,-1.00,-1.0
8130,17156,-60,664,-1.00,-1.0
8132,16928,-20,628,-1.00,-1.0
8134,16992,-32,496,-1.00,-1.0
8136,17040,-60,592,-1.00,-1.0
8140,16880,-84,600,-1.00,-1.0
8142,17000,40,608,-1.00,-1.0
8144,17012,-120,660,-1.00,-1.0
8146,16940,-40,528,-1.00,-1.0
8148,16976,0,580,-1.00,-1.0
8150,16992,28,572,-1.00,-1.0
8152,16940,-16,608,-1.00,-1.0
8154,16940,-60,516,-1.00,-1.0
8156,16908,16,568,-1.00,-1.0
8158,16988,-104,552,-1.00,-1.0
8160,17028,12,672,-1.00,-1.0
8162,16920,-136,556,-1.00,-1.0
8164,17000,-92,684,-1.00,-1.0
8166,17112,20,664,-1.00,-1.0
8168,17088,-16,836,-1.00,-1.0
8169,17040,-40,548,-1.00,-1.0
8171,17008,-72,496,-1.00,-1.0
8173,17072,-40,544,-1.00,-1.0
8177,16964,-48,656,-1.00,-1.0
8179,16936,-52,680,-1.00,-1.0
8181,17036,-16,568,-1.00,-1.0
8183,16972,12,536,-1.00,-1.0
8185,17028,8,620,-1.00,-1.0
8187,16876,-40,580,-1.00,-1.0
8189,16976,-52,428,-1.00,-1.0
8191,17096,-44,628,-1.00,-1.0
8193,16916,-76,524,-1.00,-1.0
8195,17020,-76,692,-1.00,-1.0
8197,17044,-84,592,-1.00,-1.0
8199,16964,-56,412,-1.00,-1.0
8201,16948,60,600,-1.00,-1.0
8203,16952,-68,660,-1.00,-1.0
8205,16948,-96,424,-1.00,-1.0
8207,17008,-24,568,-1.00,-1.0
8208,16940,-88,668,-1.00,-1.0
8213,17020,-68,572,-1.00,-1.0
8215,16972,-32,536,-1.00,-1.0
8216,16900,-68,548,-1.00,-1.0
8218,16968,-40,500,-1.00,-1.0
8220,17088,-52,616,-1.00,-1.0
8222,16992,-92,600,-1.00,-1.0
8224,16900,12,660,-1.00,-1.0
8226,17044,-12,488,-1.00,-1.0
8228,17072,-28,640,-1.00,-1.0
8230,16940,-76,652,-1.00,-1.0
8232,17076,-20,544,-1.00,-1.0
8234,16932,0,492,-1.00,-1.0
8236,16932,-60,600,-1.00,-1.0
8238,17028,56,532,-1.00,-1.0
8240,17012,-16,640,-1.00,-1.0
8242,16988,24,796,-1.00,-1.0
8244,16968,-80,588,-1.00,-1.0
8248,16896,-76,612,-1.00,-1.0
8250,16912,8,660,-1.00,-1.0
8252,16900,36,520,-1.00,-1.0
8254,17052,-44,588,-1.00,-1.0
8256,16968,-80,524,-1.00,-1.0
8258,17020,-24,620,-1.00,-1.0
8260,16976,4,612,-1.00,-1.0
8261,16976,-76,568,-1.00,-1.0
8263,17008,24,736,-1.00,-1.0
8265,17060,12,612,-1.00,-1.0
8267,17020,-8,424,-1.00,-1.0
8269,17092,20,500,-1.00,-1.0
8271,17060,0,552,-1.00,-1.0
8273,16952,-64,480,-1.00,-1.0
8275,16976,-52,632,-1.00,-1.0
8277,16944,-96,584,-1.00,-1.0
8279,17044,-28,568,-1.00,-1.0
8285,16960,8,548,-1.00,-1.0
8287,16976,120,652,-1.00,-1.0
8288,17124,-28,568,-1.00,-1.0
8290,17024,-56,556,-1.00,-1.0
8292,17000,-8,512,-1.00,-1.0
8294,17064,-52,532,-1.00,-1.0
8296,16896,44,620,-1.00,-1.0
8298,16996,-24,440,-1.00,-1.0
8300,16988,16,496,-1.00,-1.0
8302,16988,-24,548,-1.00,-1.0
8304,16976,36,656,-1.00,-1.0
8306,16896,-56,576,-1.00,-1.0
8308,17000,-52,464,-1.00,-1.0
8310,16956,96,556,-1.00,-1.0
8312,16984,-36,576,-1.00,-1.0
8314,17012,-64,556,-1.00,-1.0
8316,16984,-16,664,-1.00,-1.0
8318,17016,-108,608,-1.00,-1.0
8322,17072,0,648,-1.00,-1.0
8324,17020,-64,536,-1.00,-1.0
8326,17088,-36,492,-1.00,-1.0
8328,17036,-56,600,-1.00,-1.0
8330,16960,24,640,-1.00,-1.0
8332,17048,-16,592,-1.00,-1.0
8333,16996,96,416,-1.00,-1.0
8335,16992,-84,688,-1.00,-1.0
8337,16992,76,548,-1.00,-1.0
8339,16996,-32,668,-1.00,-1.0
8341,17020,28,516,-1.00,-1.0
8343,16992,-72,552,-1.00,-1.0
8345,16956,-36,604,-1.00,-1.0
8347,17012,-52,496,-1.00,-1.0
8349,16932,-36,584,-1.00,-1.0
8351,17048,4,548,-1.00,-1.0
8353,17056,76,700,-1.00,-1.0
8357,16976,-56,468,-1.00,-1.0
8359,17060,-40,568,-1.00,-1.0
8361,16976,-100,616,-1.00,-1.0
8363,17052,-32,580,-1.00,-1.0
8365,16964,-40,728,-1.00,-1.0
8367,17060,-8,640,-1.00,-1.0
8369,17024,-48,604,-1.00,-1.0
8370,16932,-44,536,-1.00,-1.0
8372,16948,-52,608,-1.00,-1.0
8374,16976,20,528,-1.00,-1.0
8376,17060,-92,564,-1.00,-1.0
8378,17008,28,608,-1.00,-1.0
8380,17036,12,452,-1.00,-1.0
8382,17048,-8,616,-1.00,-1.0
8384,17060,36,672,-1.00,-1.0
8386,17104,-128,544,-1.00,-1.0
8388,16996,-12,592,-1.00,-1.0
8392,17012,-20,456,-1.00,-1.0
8394,17100,24,500,-1.00,-1.0
8396,16964,64,520,-1.00,-1.0
8398,16828,36,476,-1.00,-1.0
8400,17104,-8,576,-1.00,-1.0
8402,16972,44,540,-1.00,-1.0
8404,16952,-68,620,-1.00,-1.0
8406,16996,-16,464,-1.00,-1.0
8407,17000,12,608,-1.00,-1.0
8409,17080,8,568,-1.00,-1.0
8411,17012,12,588,-1.00,-1.0
8413,16960,52,548,-1.00,-1.0
8415,16912,-96,452,-1.00,-1.0
8417,17024,16,716,-1.00,-1.0
8419,16996,-88,688,-1.00,-1.0
8421,17028,-116,536,-1.00,-1.0
8423,17008,-32,624,-1.00,-1.0
8425,16964,-32,596,-1.00,-1.0
8429,16896,-64,476,-1.00,-1.0
