timestamp_ms,global_ms,accel_x,accel_y,accel_z,accel_mag,temp_c,voltage,soc,loop_us
2,2135002,13948,-4040,6768,16021.05,24.95,-1.00,-1.0,2479
9,2135009,14820,-4252,12692,19969.95,24.91,-1.00,-1.0,2467
11,2135011,20140,5172,-10212,23165.80,24.91,-1.00,-1.0,2372
14,2135014,14760,-4832,8636,17770.38,24.91,-1.00,-1.0,2435
17,2135017,16628,1624,1868,16811.22,24.81,-1.00,-1.0,2363
19,2135019,23940,3632,-6008,24948.17,24.91,-1.00,-1.0,2362
22,2135022,7792,-4616,13012,15853.54,25.00,-1.00,-1.0,2429
25,2135025,19272,8348,-11788,24084.35,24.91,-1.00,-1.0,2368
28,2135028,17380,-7276,6388,19895.00,24.86,-1.00,-1.0,2442
30,2135030,15212,3540,536,15627.66,24.91,-1.00,-1.0,2364
35,2135035,13112,-7352,13380,20124.63,24.91,-1.00,-1.0,2445
38,2135038,20084,9276,-11832,25087.99,24.91,-1.00,-1.0,2363
41,2135041,16464,-784,328,16485.92,24.86,-1.00,-1.0,2442
43,2135043,17172,-1628,6260,18349.81,24.91,-1.00,-1.0,2365
46,2135046,21788,6416,-10292,24936.06,24.91,-1.00,-1.0,2422
49,2135049,14780,-4476,8860,17804.00,25.00,-1.00,-1.0,2365
52,2135052,21684,4500,-2272,22262.25,24.86,-1.00,-1.0,2434
54,2135054,20420,1548,92,20478.80,24.91,-1.00,-1.0,2370
57,2135057,10444,-2020,5012,11759.15,24.95,-1.00,-1.0,2360
62,2135062,13264,480,2020,13425.52,24.91,-1.00,-1.0,2445
65,2135065,19184,1540,4436,19750.33,24.91,-1.00,-1.0,2366
67,2135067,25060,3856,-6312,26128.79,24.95,-1.00,-1.0,2434
70,2135070,9380,-4192,8308,13212.88,24.91,-1.00,-1.0,2365
73,2135073,15236,4060,-6292,16976.71,24.95,-1.00,-1.0,2436
76,2135076,17864,1944,824,17988.35,24.91,-1.00,-1.0,2371
78,2135078,9024,-652,3616,9743.36,24.95,-1.00,-1.0,2446
81,2135081,25528,3712,-4172,26131.65,24.91,-1.00,-1.0,2371
86,2135086,17692,4756,-4044,18761.14,24.91,-1.00,-1.0,2458
89,2135089,19524,4404,-3640,20342.85,24.91,-1.00,-1.0,2372
91,2135091,14628,-2536,9024,17373.61,25.05,-1.00,-1.0,2364
94,2135094,20408,4904,-9680,23113.59,24.95,-1.00,-1.0,2426
97,2135097,18004,-3372,4964,18977.77,24.91,-1.00,-1.0,2370
100,2135100,14992,3284,-3564,15755.85,24.95,-1.00,-1.0,2437
102,2135102,19588,-1800,1612,19736.47,24.91,-1.00,-1.0,2377
105,2135105,14924,1116,2236,15131.79,24.91,-1.00,-1.0,2428
108,2135108,18324,7000,-13028,23547.78,24.91,-1.00,-1.0,2367
113,2135113,11736,1604,2256,12058.03,24.81,-1.00,-1.0,2457
116,2135116,24816,4484,-5068,25722.07,24.91,-1.00,-1.0,2363
118,2135118,10464,-4640,11080,15930.83,24.86,-1.00,-1.0,2445
121,2135121,19512,8244,-13436,25084.01,24.91,-1.00,-1.0,2370
124,2135124,16732,-3292,10116,19827.52,24.91,-1.00,-1.0,2442
126,2135126,10524,2188,-2124,10956.88,24.81,-1.00,-1.0,2362
129,2135129,25780,2924,-2772,26092.95,24.91,-1.00,-1.0,2449
132,2135132,12864,-2876,7552,15191.66,24.91,-1.00,-1.0,2363
135,2135135,20952,8080,-10328,24717.21,24.95,-1.00,-1.0,2366
140,2135140,17144,868,1028,17196.71,24.91,-1.00,-1.0,2449
142,2135142,19308,1464,-3284,19639.93,24.91,-1.00,-1.0,2371
145,2135145,12548,-1624,9256,15676.84,24.91,-1.00,-1.0,2448
148,2135148,16300,7604,-10444,20798.75,25.00,-1.00,-1.0,2370
151,2135151,16420,-6036,8308,19366.79,24.77,-1.00,-1.0,2445
153,2135153,16784,3356,-3968,17570.16,24.91,-1.00,-1.0,2384
156,2135156,19872,1640,-340,19942.46,24.95,-1.00,-1.0,2440
159,2135159,11748,-788,5896,13168.12,24.86,-1.00,-1.0,2381
164,2135164,15168,-4636,8960,18216.54,24.86,-1.00,-1.0,2455
166,2135166,16616,-1304,2276,16821.77,25.00,-1.00,-1.0,2363
169,2135169,19716,4184,-6988,21332.10,24.95,-1.00,-1.0,2445
172,2135172,12912,-3672,10828,17246.71,25.00,-1.00,-1.0,2363
175,2135175,17472,5232,-8644,20183.24,24.86,-1.00,-1.0,2440
177,2135177,19348,1324,2848,19601.25,24.91,-1.00,-1.0,2363
180,2135180,9252,832,3492,9924.00,24.91,-1.00,-1.0,2378
183,2135183,25896,3200,-3644,26346.19,24.86,-1.00,-1.0,2436
186,2135186,7952,-5332,8596,12866.85,24.86,-1.00,-1.0,2384
191,2135191,19732,1516,-2652,19967.05,24.91,-1.00,-1.0,2447
193,2135193,8300,-2388,9228,12639.17,24.81,-1.00,-1.0,2350
196,2135196,23168,7156,-9880,26183.56,24.91,-1.00,-1.0,2436
199,2135199,14948,-5928,9496,18675.06,24.91,-1.00,-1.0,2362
202,2135202,15228,3728,-704,15693.49,25.00,-1.00,-1.0,2442
204,2135204,22500,1020,-360,22525.98,24.91,-1.00,-1.0,2363
207,2135207,14852,-636,5568,15874.16,24.81,-1.00,-1.0,2436
210,2135210,16384,4616,-6796,18328.35,25.00,-1.00,-1.0,2363
215,2135215,15024,368,5256,15921.10,24.91,-1.00,-1.0,2451
217,2135217,22292,5264,-5508,23558.04,24.91,-1.00,-1.0,2363
220,2135220,12224,-4544,8032,15316.24,24.91,-1.00,-1.0,2362
223,2135223,18116,5012,-8340,20563.69,24.95,-1.00,-1.0,2442
225,2135225,20340,660,2564,20511.59,24.91,-1.00,-1.0,2362
228,2135228,12408,416,2844,12736.56,24.95,-1.00,-1.0,2436
231,2135231,20936,2348,-4856,21619.67,24.81,-1.00,-1.0,2363
234,2135234,17600,-76,9720,20105.82,24.86,-1.00,-1.0,2442
236,2135236,14380,4504,-10120,18151.72,24.81,-1.00,-1.0,2363
241,2135241,8868,-1500,5204,10391.01,24.91,-1.00,-1.0,2456
244,2135244,20128,4968,-5456,21437.94,25.00,-1.00,-1.0,2363
247,2135247,18868,-988,8900,20885.10,24.95,-1.00,-1.0,2442
249,2135249,14224,5240,-5220,16032.10,25.00,-1.00,-1.0,2362
252,2135252,21424,-3256,2440,21806.95,24.86,-1.00,-1.0,2435
255,2135255,15452,-780,408,15477.05,24.91,-1.00,-1.0,2363
258,2135258,16776,5404,-6712,18859.70,24.91,-1.00,-1.0,2436
260,2135260,14456,-4892,5760,16312.12,24.81,-1.00,-1.0,2350
263,2135263,19436,2588,-6440,20638.06,24.91,-1.00,-1.0,2361
268,2135268,16152,-904,7152,17687.72,24.91,-1.00,-1.0,2452
271,2135271,18820,6304,-7740,21303.53,24.91,-1.00,-1.0,2363
274,2135274,18672,-4576,3868,19609.81,24.91,-1.00,-1.0,2442
276,2135276,18048,2592,-1736,18315.63,24.91,-1.00,-1.0,2371
279,2135279,17464,1100,-1584,17570.15,24.81,-1.00,-1.0,2444
282,2135282,14712,-1148,6696,16204.85,25.00,-1.00,-1.0,2369
285,2135285,15884,4100,-7332,17968.57,24.91,-1.00,-1.0,2451
287,2135287,20292,-2296,5600,21175.38,24.91,-1.00,-1.0,2372
292,2135292,23792,7044,-9144,26444.09,24.86,-1.00,-1.0,2445
295,2135295,14016,-2984,12484,19005.34,24.95,-1.00,-1.0,2364
298,2135298,11088,3100,-8728,14447.55,24.91,-1.00,-1.0,2440
300,2135300,21860,928,-784,21893.73,24.95,-1.00,-1.0,2367
303,2135303,7572,-668,2692,8064.01,24.86,-1.00,-1.0,2440
306,2135306,26080,4996,-2616,26682.76,24.95,-1.00,-1.0,2368
309,2135309,8740,-4492,8608,13063.82,24.91,-1.00,-1.0,2371
311,2135311,18564,5160,-7916,20830.53,24.91,-1.00,-1.0,2440
314,2135314,21932,-5172,5972,23311.52,24.95,-1.00,-1.0,2374
319,2135319,20948,5828,-11068,24398.46,24.95,-1.00,-1.0,2442
322,2135322,14704,-7024,12532,20557.12,24.91,-1.00,-1.0,2363
325,2135325,15868,8048,-12208,21577.74,24.95,-1.00,-1.0,2441
327,2135327,19640,940,-164,19663.17,24.86,-1.00,-1.0,2364
330,2135330,12384,-2436,7104,14483.24,24.95,-1.00,-1.0,2434
333,2135333,21392,6020,-11236,24901.92,25.00,-1.00,-1.0,2368
336,2135336,12608,-7196,13052,19521.75,24.86,-1.00,-1.0,2443
338,2135338,17948,4884,-5056,19275.56,24.95,-1.00,-1.0,2367
343,2135343,13544,-7676,12972,20264.10,24.81,-1.00,-1.0,2452
346,2135346,20232,6628,-11808,24345.29,24.91,-1.00,-1.0,2371
349,2135349,20140,-3636,8808,22280.51,24.91,-1.00,-1.0,2437
352,2135352,14044,-1232,4564,14818.29,24.91,-1.00,-1.0,2378
354,2135354,28668,7132,-7736,30537.93,24.86,-1.00,-1.0,2362
357,2135357,7516,-5152,12820,15728.50,24.95,-1.00,-1.0,2428
360,2135360,14876,8256,-9176,19330.18,24.95,-1.00,-1.0,2368
362,2135362,19352,188,-172,19353.68,24.95,-1.00,-1.0,2428
365,2135365,8724,-1508,5816,10592.83,24.91,-1.00,-1.0,2374
372,2135372,15576,408,3984,16082.61,24.86,-1.00,-1.0,2452
375,2135375,24012,4812,-6680,25384.13,24.95,-1.00,-1.0,2368
377,2135377,14976,-6832,6628,17745.06,24.95,-1.00,-1.0,2428
380,2135380,20888,4812,-3728,21756.88,24.95,-1.00,-1.0,2367
383,2135383,16732,1092,2216,16913.39,24.95,-1.00,-1.0,2429
386,2135386,13836,980,3140,14221.63,24.86,-1.00,-1.0,2368
388,2135388,18648,2908,-9204,20998.05,24.95,-1.00,-1.0,2428
391,2135391,13856,-5472,8148,16980.03,24.86,-1.00,-1.0,2357
396,2135396,18604,1716,-2004,18790.14,25.00,-1.00,-1.0,2466
399,2135399,11564,-2136,8580,14556.96,25.00,-1.00,-1.0,2371
401,2135401,16112,5852,-8820,19277.83,24.86,-1.00,-1.0,2364
404,2135404,20052,-5016,5060,21280.19,25.05,-1.00,-1.0,2428
407,2135407,15372,4164,312,15929.05,24.81,-1.00,-1.0,2369
410,2135410,13168,-20,-2576,13417.62,25.05,-1.00,-1.0,2436
412,2135412,24836,-3864,12620,28125.11,24.95,-1.00,-1.0,2376
415,2135415,5428,6832,-9408,12831.60,24.95,-1.00,-1.0,2428
418,2135418,19712,-3880,8376,21766.37,24.91,-1.00,-1.0,2373
423,2135423,13760,6632,-11268,18981.28,24.86,-1.00,-1.0,2449
425,2135425,20096,-5512,4448,21307.65,24.95,-1.00,-1.0,2366
428,2135428,18212,2220,-2152,18472.59,24.86,-1.00,-1.0,2434
431,2135431,14612,600,608,14636.95,24.95,-1.00,-1.0,2351
434,2135434,13552,1592,6212,14992.67,24.95,-1.00,-1.0,2442
436,2135436,13040,6864,-10804,18272.45,24.86,-1.00,-1.0,2371
439,2135439,18168,-6860,9544,21638.48,24.86,-1.00,-1.0,2441
442,2135442,16460,4200,-1556,17058.51,24.91,-1.00,-1.0,2362
444,2135444,14024,7956,-12900,20648.98,24.95,-1.00,-1.0,2374
449,2135449,13248,2096,360,13417.61,24.91,-1.00,-1.0,2442
452,2135452,19300,1220,-4268,19803.89,24.86,-1.00,-1.0,2365
455,2135455,16016,-3364,9000,18676.96,24.81,-1.00,-1.0,2433
457,2135457,13244,9232,-11780,19985.04,24.95,-1.00,-1.0,2366
460,2135460,22240,-6260,9036,24808.36,24.81,-1.00,-1.0,2435
463,2135463,14696,2992,-1320,15055.46,24.86,-1.00,-1.0,2370
466,2135466,17968,3888,-5520,19194.69,24.91,-1.00,-1.0,2439
468,2135468,19212,-8216,13576,24918.09,24.95,-1.00,-1.0,2357
473,2135473,20428,2736,-6356,21568.21,24.95,-1.00,-1.0,2452
476,2135476,16128,-3736,9596,19135.13,24.86,-1.00,-1.0,2371
479,2135479,14604,6856,-11816,19997.48,24.81,-1.00,-1.0,2437
482,2135482,16428,-7760,13708,22759.75,24.86,-1.00,-1.0,2374
484,2135484,12748,2572,-2812,13305.41,24.91,-1.00,-1.0,2438
487,2135487,18308,2968,-4240,19025.50,24.95,-1.00,-1.0,2379
490,2135490,15044,-2724,12760,19913.81,24.95,-1.00,-1.0,2436
493,2135493,18216,7008,-11076,22441.31,24.95,-1.00,-1.0,2389
495,2135495,18692,-3912,5532,19882.09,24.91,-1.00,-1.0,2369
500,2135500,17892,7716,-7808,20991.07,24.91,-1.00,-1.0,2438
503,2135503,15152,-5452,11080,19546.71,25.00,-1.00,-1.0,2370
506,2135506,17396,5644,-7680,19835.78,24.91,-1.00,-1.0,2427
508,2135508,17480,2036,-3712,17985.40,24.91,-1.00,-1.0,2377
511,2135511,14320,-2264,8788,16953.38,24.91,-1.00,-1.0,2428
514,2135514,15724,4752,-8056,18295.49,24.95,-1.00,-1.0,2370
517,2135517,17488,-7492,5232,19731.55,24.91,-1.00,-1.0,2435
519,2135519,12272,604,2444,12527.57,24.95,-1.00,-1.0,2377
524,2135524,18928,-3952,9440,21517.46,24.95,-1.00,-1.0,2439
527,2135527,8224,3548,-5976,10767.31,24.86,-1.00,-1.0,2369
530,2135530,25576,-3048,-196,25757.73,24.95,-1.00,-1.0,2434
532,2135532,18456,-76,1032,18484.99,24.95,-1.00,-1.0,2368
535,2135535,16568,5856,-8768,19638.46,24.86,-1.00,-1.0,2436
538,2135538,25380,-2456,8172,26776.07,24.86,-1.00,-1.0,2370
541,2135541,9600,3664,-4452,11198.45,24.95,-1.00,-1.0,2371
543,2135543,23536,3384,-5796,24474.24,24.91,-1.00,-1.0,2439
546,2135546,14156,-6232,9512,18157.87,24.81,-1.00,-1.0,2385
551,2135551,19540,744,2236,19681.59,25.00,-1.00,-1.0,2459
554,2135554,15612,-748,5120,16447.14,24.86,-1.00,-1.0,2370
557,2135557,20084,4496,-7532,21916.02,24.91,-1.00,-1.0,2446
559,2135559,17576,-5784,10204,21130.36,24.86,-1.00,-1.0,2371
562,2135562,17316,5616,-9136,20367.86,24.81,-1.00,-1.0,2445
565,2135565,19968,-4160,5588,21148.34,24.86,-1.00,-1.0,2368
568,2135568,13300,3048,-480,13653.23,24.91,-1.00,-1.0,2446
570,2135570,18068,6996,-12928,23292.27,24.95,-1.00,-1.0,2385
575,2135575,12680,3184,-972,13109.73,24.95,-1.00,-1.0,2438
578,2135578,17508,1172,-3176,17832.29,24.86,-1.00,-1.0,2369
581,2135581,18656,-3772,7212,20354.05,24.91,-1.00,-1.0,2437
583,2135583,17180,6044,-10404,20974.40,24.95,-1.00,-1.0,2370
586,2135586,18596,-4696,6784,20344.20,24.91,-1.00,-1.0,2377
589,2135589,20288,1524,-3984,20731.56,24.91,-1.00,-1.0,2416
592,2135592,16008,364,-3244,16337.44,24.95,-1.00,-1.0,2369
594,2135594,21060,-4436,10684,24028.10,24.91,-1.00,-1.0,2443
597,2135597,14800,6320,-6048,17191.88,24.86,-1.00,-1.0,2370
602,2135602,13500,-3328,7736,15911.36,24.86,-1.00,-1.0,2437
605,2135605,18220,3136,-10680,21351.00,24.86,-1.00,-1.0,2369
608,2135608,19988,-7332,10080,23555.99,24.86,-1.00,-1.0,2429
610,2135610,12440,8408,-9552,17795.75,24.81,-1.00,-1.0,2357
613,2135613,21360,2944,-5948,22367.29,24.95,-1.00,-1.0,2429
616,2135616,13096,-4520,12296,18523.69,24.91,-1.00,-1.0,2372
619,2135619,18232,7816,-13320,23893.89,24.91,-1.00,-1.0,2423
621,2135621,16404,-3940,6752,18171.53,24.91,-1.00,-1.0,2385
626,2135626,13944,6692,-11044,19004.95,24.95,-1.00,-1.0,2436
629,2135629,17936,-6692,12208,22705.03,24.95,-1.00,-1.0,2370
632,2135632,16048,8044,-8008,19656.36,24.95,-1.00,-1.0,2430
634,2135634,21120,-1160,3612,21458.02,24.95,-1.00,-1.0,2377
637,2135637,15404,-6368,12412,20782.02,24.86,-1.00,-1.0,2361
640,2135640,17756,7784,-12144,22876.69,24.86,-1.00,-1.0,2435
642,2135642,20720,-6108,9864,23747.10,24.86,-1.00,-1.0,2370
645,2135645,14488,884,3888,15026.65,24.95,-1.00,-1.0,2428
648,2135648,21128,4336,-7744,22916.43,24.95,-1.00,-1.0,2370
653,2135653,17940,5492,-6328,19800.23,24.95,-1.00,-1.0,2437
655,2135655,17596,-72,-476,17602.58,24.95,-1.00,-1.0,2371
658,2135658,19936,-8224,12948,25154.11,24.95,-1.00,-1.0,2428
661,2135661,17524,9176,-11652,22957.76,24.95,-1.00,-1.0,2370
664,2135664,16460,-4268,10208,19833.07,25.05,-1.00,-1.0,2427
666,2135666,12540,4432,-2748,13581.08,24.86,-1.00,-1.0,2377
669,2135669,16596,4908,-11604,20836.71,24.95,-1.00,-1.0,2428
672,2135672,13772,-9744,11916,20654.41,24.95,-1.00,-1.0,2357
677,2135677,15016,2268,-3320,15544.98,25.00,-1.00,-1.0,2444
679,2135679,16788,-1492,10616,19918.90,24.91,-1.00,-1.0,2368
682,2135682,12916,6892,-10256,17874.79,25.00,-1.00,-1.0,2441
685,2135685,20232,-4536,6696,21788.66,24.91,-1.00,-1.0,2370
688,2135688,16812,3828,-924,17267.04,24.91,-1.00,-1.0,2364
690,2135690,14648,632,-2724,14912.53,24.95,-1.00,-1.0,2430
693,2135693,23104,-5608,11428,26378.85,24.95,-1.00,-1.0,2391
696,2135696,11364,6264,-10720,16831.42,24.95,-1.00,-1.0,2428
699,2135699,20200,-3924,5892,21404.52,24.95,-1.00,-1.0,2370
704,2135704,17040,7456,-12132,22206.73,24.91,-1.00,-1.0,2444
706,2135706,22284,-5636,11264,25597.24,24.86,-1.00,-1.0,2380
709,2135709,13036,1020,-52,13075.95,24.95,-1.00,-1.0,2438
712,2135712,23904,1772,-5432,24577.38,24.95,-1.00,-1.0,2376
715,2135715,15948,-1300,9512,18614.70,24.86,-1.00,-1.0,2437
717,2135717,10436,7756,-7272,14897.91,24.95,-1.00,-1.0,2381
720,2135720,24120,-2512,1928,24326.97,24.86,-1.00,-1.0,2427
723,2135723,13728,-988,4452,14465.63,24.95,-1.00,-1.0,2375
728,2135728,21624,-1972,8204,23211.89,24.91,-1.00,-1.0,2460
730,2135730,9344,4592,-5088,11588.12,25.00,-1.00,-1.0,2362
733,2135733,22440,-2648,2052,22688.68,24.95,-1.00,-1.0,2442
736,2135736,15112,-7076,10368,19645.30,24.91,-1.00,-1.0,2361
739,2135739,15740,10376,-11252,21954.87,25.00,-1.00,-1.0,2364
741,2135741,20352,-5652,11584,24090.21,24.95,-1.00,-1.0,2440
744,2135744,15940,-92,7532,17630.18,24.95,-1.00,-1.0,2375
747,2135747,17916,5380,-11928,22185.69,24.86,-1.00,-1.0,2438
750,2135750,15692,-7808,12832,21722.43,24.91,-1.00,-1.0,2361
755,2135755,18220,-1392,-900,18295.25,24.95,-1.00,-1.0,2447
757,2135757,16148,-1248,8944,18501.64,24.95,-1.00,-1.0,2370
760,2135760,13200,8744,-14560,21510.26,24.91,-1.00,-1.0,2437
763,2135763,22800,-5648,8984,25148.60,24.86,-1.00,-1.0,2366
766,2135766,10756,4460,216,11646.02,24.81,-1.00,-1.0,2447
768,2135768,19332,328,-5724,20164.28,24.95,-1.00,-1.0,2371
771,2135771,14256,-9592,15076,22858.82,24.91,-1.00,-1.0,2444
774,2135774,13436,8844,-10992,19482.47,24.86,-1.00,-1.0,2368
779,2135779,11020,-6412,10080,16253.02,24.95,-1.00,-1.0,2459
781,2135781,21760,9148,-14340,27619.18,24.91,-1.00,-1.0,2363
784,2135784,20876,-8332,12352,25647.64,24.95,-1.00,-1.0,2449
787,2135787,15012,76,6064,16190.68,24.86,-1.00,-1.0,2362
790,2135790,20208,6484,-10980,23894.89,24.95,-1.00,-1.0,2366
792,2135792,16864,-9148,13336,23365.13,24.91,-1.00,-1.0,2437
795,2135795,15780,6276,-3840,17410.98,24.86,-1.00,-1.0,2384
798,2135798,18840,2300,-540,18987.55,25.00,-1.00,-1.0,2437
801,2135801,15028,-4336,7776,17467.34,24.95,-1.00,-1.0,2378
806,2135806,18828,-4472,5372,20083.59,24.91,-1.00,-1.0,2438
808,2135808,15464,1912,612,15593.77,24.81,-1.00,-1.0,2370
811,2135811,13384,5976,-10464,18009.42,24.91,-1.00,-1.0,2429
814,2135814,23252,-5692,7204,24999.04,25.00,-1.00,-1.0,2370
817,2135817,13744,5668,-3076,15181.75,25.00,-1.00,-1.0,2427
819,2135819,14640,-908,644,14682.26,24.91,-1.00,-1.0,2377
822,2135822,21076,-3580,11960,24496.04,24.91,-1.00,-1.0,2429
825,2135825,8072,7432,-5828,12424.07,24.81,-1.00,-1.0,2369
830,2135830,5848,-3492,6688,9545.81,24.81,-1.00,-1.0,2432
832,2135832,20644,5224,-8980,23110.72,24.91,-1.00,-1.0,2378
835,2135835,11808,-4044,8528,15116.53,24.86,-1.00,-1.0,2357
838,2135838,15024,2304,-2564,15414.38,24.86,-1.00,-1.0,2433
840,2135840,20496,-1168,-6708,21597.40,25.00,-1.00,-1.0,2369
843,2135843,18328,-4308,6452,19902.33,24.95,-1.00,-1.0,2429
846,2135846,13464,6480,-1332,15001.46,24.91,-1.00,-1.0,2373
849,2135849,22076,3900,2516,22558.59,24.91,-1.00,-1.0,2452
852,2135852,13704,-1308,4440,14464.58,24.95,-1.00,-1.0,2370
857,2135857,20088,-4600,6736,21680.90,24.91,-1.00,-1.0,2446
859,2135859,12692,6124,-5532,15139.13,24.86,-1.00,-1.0,2364
862,2135862,19636,2444,-7088,21018.69,24.91,-1.00,-1.0,2450
865,2135865,20248,-4308,10896,23393.66,24.86,-1.00,-1.0,2372
868,2135868,12040,9164,-10152,18220.97,24.91,-1.00,-1.0,2447
870,2135870,19076,-5004,8976,21668.00,24.86,-1.00,-1.0,2362
873,2135873,17640,-2688,4312,18357.24,25.00,-1.00,-1.0,2451
876,2135876,15052,5716,-4312,16668.20,25.00,-1.00,-1.0,2369
879,2135879,17748,-2556,5912,18880.58,25.00,-1.00,-1.0,2369
884,2135884,14832,-1232,776,14903.30,24.91,-1.00,-1.0,2455
886,2135886,14168,-3512,2504,14810.01,24.86,-1.00,-1.0,2362
889,2135889,23052,8404,-5432,25130.23,24.91,-1.00,-1.0,2441
892,2135892,10064,-3212,364,10570.41,24.95,-1.00,-1.0,2361
895,2135895,24108,496,4564,24541.23,25.00,-1.00,-1.0,2439
897,2135897,13468,3588,-5480,14976.35,24.95,-1.00,-1.0,2362
900,2135900,17636,-2404,5052,18502.17,24.95,-1.00,-1.0,2439
903,2135903,15332,2040,3184,15791.44,24.95,-1.00,-1.0,2361
908,2135908,22928,-4272,6604,24239.55,24.86,-1.00,-1.0,2446
911,2135911,12700,6364,-3876,14724.60,24.86,-1.00,-1.0,2367
913,2135913,18152,-784,1332,18217.68,24.86,-1.00,-1.0,2429
916,2135916,14944,-1072,5168,15848.68,24.95,-1.00,-1.0,2369
919,2135919,16448,7728,-12536,22077.36,24.86,-1.00,-1.0,2431
922,2135922,16164,-7036,7968,19346.04,24.91,-1.00,-1.0,2365
924,2135924,17040,4172,-3428,17875.08,24.95,-1.00,-1.0,2362
927,2135927,13496,5688,-4356,15279.73,24.77,-1.00,-1.0,2429
930,2135930,21256,-4368,6460,22641.30,24.86,-1.00,-1.0,2366
935,2135935,15352,2844,-2536,15817.82,25.00,-1.00,-1.0,2452
938,2135938,23848,-5280,4624,24859.34,24.91,-1.00,-1.0,2364
940,2135940,13420,5876,-4108,15215.11,24.91,-1.00,-1.0,2445
943,2135943,18216,3448,-2368,18690.07,24.81,-1.00,-1.0,2370
946,2135946,18540,-4764,6080,20084.66,24.95,-1.00,-1.0,2443
948,2135948,13692,5588,-7892,16762.47,24.91,-1.00,-1.0,2361
951,2135951,22856,-5032,2612,23548.68,24.91,-1.00,-1.0,2450
954,2135954,13372,-4536,4968,14968.86,24.91,-1.00,-1.0,2362
959,2135959,16600,-2032,2900,16973.48,24.91,-1.00,-1.0,2445
962,2135962,13748,-820,2148,13938.93,25.00,-1.00,-1.0,2365
964,2135964,17920,3508,-8008,19938.92,24.91,-1.00,-1.0,2431
967,2135967,22052,-7752,7616,24584.30,25.00,-1.00,-1.0,2367
970,2135970,11700,4872,1808,12802.16,24.91,-1.00,-1.0,2430
973,2135973,19264,4720,-2232,19959.01,24.95,-1.00,-1.0,2365
975,2135975,21932,-5248,7080,23636.42,24.91,-1.00,-1.0,2356
978,2135978,11484,5736,-2196,13023.30,25.09,-1.00,-1.0,2437
981,2135981,21704,2844,-4,21889.54,24.95,-1.00,-1.0,2366
986,2135986,17196,7480,-4824,19362.95,24.95,-1.00,-1.0,2449
989,2135989,17024,-2988,4108,17765.71,24.95,-1.00,-1.0,2367
991,2135991,15108,400,-1368,15175.08,24.95,-1.00,-1.0,2432
994,2135994,16840,1524,-4340,17456.91,24.86,-1.00,-1.0,2373
997,2135997,20444,-4248,4060,21271.72,24.86,-1.00,-1.0,2439
1000,2136000,12520,2288,-80,12727.60,24.86,-1.00,-1.0,2367
1002,2136002,17444,3948,-2028,17999.79,24.86,-1.00,-1.0,2433
1005,2136005,21736,-3440,7160,23142.02,24.86,-1.00,-1.0,2369
1010,2136010,22160,3496,-804,22448.47,24.91,-1.00,-1.0,2447
1013,2136013,13572,-5352,4968,15411.82,25.00,-1.00,-1.0,2361
1016,2136016,17968,7444,-2952,19671.72,24.95,-1.00,-1.0,2447
1018,2136018,21572,-1612,5892,22420.20,24.81,-1.00,-1.0,2362
1021,2136021,12324,972,-2220,12560.02,24.95,-1.00,-1.0,2369
1024,2136024,18028,6700,-4476,19746.73,24.95,-1.00,-1.0,2443
1026,2136026,20164,-3348,4792,20994.27,24.95,-1.00,-1.0,2361
1029,2136029,10616,880,-1552,10764.88,24.95,-1.00,-1.0,2451
1032,2136032,17756,-592,-4332,18286.39,24.95,-1.00,-1.0,2362
1037,2136037,15640,2764,4364,16471.00,24.95,-1.00,-1.0,2452
1040,2136040,15772,2192,-3452,16293.47,24.95,-1.00,-1.0,2363
1042,2136042,20152,-5348,-1568,20908.44,24.95,-1.00,-1.0,2446
1045,2136045,15256,3628,-1288,15734.26,24.86,-1.00,-1.0,2368
1048,2136048,16012,-544,-3036,16306.36,24.86,-1.00,-1.0,2443
1050,2136050,21728,-4140,2396,22248.29,24.95,-1.00,-1.0,2360
1053,2136053,13648,6160,-2004,15107.27,24.95,-1.00,-1.0,2450
1056,2136056,18560,516,2792,18775.92,24.95,-1.00,-1.0,2362
1061,2136061,10896,3728,-2956,11889.44,24.86,-1.00,-1.0,2451
1063,2136063,20816,1224,168,20852.63,24.86,-1.00,-1.0,2360
1066,2136066,16208,-2436,7304,17943.85,24.86,-1.00,-1.0,2451
1069,2136069,16764,5648,-6992,19021.56,24.86,-1.00,-1.0,2361
1072,2136072,15800,-3852,4132,16779.49,24.95,-1.00,-1.0,2443
1074,2136074,16608,1164,-1496,16715.82,24.86,-1.00,-1.0,2360
1077,2136077,18048,2636,-3140,18507.79,24.95,-1.00,-1.0,2376
1080,2136080,16960,-6756,3992,18687.46,24.95,-1.00,-1.0,2451
1083,2136083,17740,7812,-3244,19653.46,24.86,-1.00,-1.0,2361
1088,2136088,23788,-5720,4464,24869.96,25.05,-1.00,-1.0,2443
1091,2136091,10460,2960,-1960,11046.03,24.91,-1.00,-1.0,2370
1093,2136093,17196,964,-1448,17283.76,24.95,-1.00,-1.0,2430
1096,2136096,21776,-520,4696,22282.66,25.00,-1.00,-1.0,2367
1099,2136099,13488,4632,-3212,14618.43,24.95,-1.00,-1.0,2429
1102,2136102,21804,-968,2748,21997.79,24.91,-1.00,-1.0,2366
1104,2136104,16488,-1960,864,16626.55,24.91,-1.00,-1.0,2430
1107,2136107,12156,4392,-4984,13852.73,24.91,-1.00,-1.0,2370
1112,2136112,10788,64,6836,12771.68,24.91,-1.00,-1.0,2458
1115,2136115,19136,5680,-6864,21108.37,24.91,-1.00,-1.0,2368
1118,2136118,17256,-5192,1540,18085.85,25.00,-1.00,-1.0,2449
1120,2136120,13656,1872,264,13786.24,25.00,-1.00,-1.0,2364
1123,2136123,13460,180,-4472,14184.60,25.00,-1.00,-1.0,2445
1126,2136126,26892,-4052,5380,27722.60,24.91,-1.00,-1.0,2367
1129,2136129,5432,4148,-720,6872.48,24.91,-1.00,-1.0,2446
1131,2136131,15708,1420,-2288,15937.15,24.91,-1.00,-1.0,2380
1134,2136134,29268,-2980,7844,30447.08,24.91,-1.00,-1.0,2368
1139,2136139,23188,1404,-2556,23370.66,24.95,-1.00,-1.0,2437
1142,2136142,14580,-8188,5856,17717.58,24.95,-1.00,-1.0,2380
1145,2136145,16040,6488,-2188,17440.27,25.00,-1.00,-1.0,2423
1147,2136147,17952,1092,2220,18121.68,24.86,-1.00,-1.0,2373
1150,2136150,17664,-2360,500,17827.97,24.77,-1.00,-1.0,2422
1153,2136153,11280,5580,-2588,12848.06,24.95,-1.00,-1.0,2372
1155,2136155,15864,600,5348,16751.94,24.86,-1.00,-1.0,2424
1158,2136158,20804,1428,4108,21253.73,24.86,-1.00,-1.0,2374
1163,2136163,19268,-1608,5872,20206.98,24.91,-1.00,-1.0,2437
1166,2136166,18836,-5964,4060,20170.47,24.91,-1.00,-1.0,2370
1169,2136169,14928,7392,-5700,17606.16,24.95,-1.00,-1.0,2422
1171,2136171,17984,-896,5100,18714.62,25.00,-1.00,-1.0,2382
1174,2136174,14044,2284,2832,14507.61,24.81,-1.00,-1.0,2424
1177,2136177,17340,6484,-1364,18562.82,24.91,-1.00,-1.0,2377
1180,2136180,16260,-1480,4048,16821.54,24.86,-1.00,-1.0,2437
1182,2136182,16464,2548,1132,16698.41,24.91,-1.00,-1.0,2384
1185,2136185,17924,1180,-3096,18227.65,24.91,-1.00,-1.0,2364
1190,2136190,11344,1888,1336,11577.38,24.91,-1.00,-1.0,2444
1193,2136193,17620,6844,-4692,19476.13,24.91,-1.00,-1.0,2374
1196,2136196,20468,-4852,6924,22145.49,24.91,-1.00,-1.0,2443
1198,2136198,12904,6580,-1724,14587.04,24.91,-1.00,-1.0,2378
1201,2136201,17392,320,-692,17408.70,24.91,-1.00,-1.0,2445
1204,2136204,19476,-8616,8912,23086.22,25.00,-1.00,-1.0,2375
1207,2136207,11780,7416,-7976,16043.13,24.91,-1.00,-1.0,2443
1209,2136209,16000,-3084,3572,16681.43,25.00,-1.00,-1.0,2379
1214,2136214,10144,7116,-3188,12794.59,24.91,-1.00,-1.0,2438
1217,2136217,14200,-884,1888,14352.21,24.91,-1.00,-1.0,2371
1220,2136220,25360,-5520,2828,26107.42,24.91,-1.00,-1.0,2432
1222,2136222,8804,6592,-1916,11164.05,24.91,-1.00,-1.0,2369
1225,2136225,14876,-472,1996,15016.73,25.00,-1.00,-1.0,2431
1228,2136228,22572,-224,3348,22820.04,24.95,-1.00,-1.0,2368
1231,2136231,8952,7624,-2868,12103.27,24.91,-1.00,-1.0,2437
1233,2136233,16760,-388,3748,17178.35,24.95,-1.00,-1.0,2368
1238,2136238,11248,9852,-5260,15850.77,24.91,-1.00,-1.0,2448
1241,2136241,15204,-1728,6044,16452.28,24.91,-1.00,-1.0,2368
1244,2136244,25244,-7928,6676,27288.86,24.91,-1.00,-1.0,2361
1246,2136246,9228,9508,-7136,15049.27,24.95,-1.00,-1.0,2438
1249,2136249,16248,-3156,7156,18032.37,24.91,-1.00,-1.0,2375
1252,2136252,17484,912,916,17531.71,24.86,-1.00,-1.0,2436
1254,2136254,12936,9768,-5700,17182.66,24.91,-1.00,-1.0,2368
1257,2136257,15312,-2132,8284,17539.31,25.05,-1.00,-1.0,2438
1260,2136260,17392,476,808,17417.26,25.00,-1.00,-1.0,2368
1265,2136265,12000,-4248,5184,13744.79,24.91,-1.00,-1.0,2437
1268,2136268,27572,-1816,5272,28130.18,24.91,-1.00,-1.0,2373
1270,2136270,5496,8228,-2612,10233.70,24.91,-1.00,-1.0,2424
1273,2136273,19472,-2016,3456,19878.81,24.91,-1.00,-1.0,2374
1276,2136276,18588,240,2460,18751.61,24.91,-1.00,-1.0,2423
1279,2136279,14224,7788,-5492,17121.25,24.95,-1.00,-1.0,2373
1281,2136281,16256,-4612,5720,17839.46,24.81,-1.00,-1.0,2424
1284,2136284,16736,1028,-3576,17144.63,24.91,-1.00,-1.0,2374
1289,2136289,14464,-2776,6972,16294.85,24.91,-1.00,-1.0,2437
1292,2136292,19900,3184,-844,20170.78,24.91,-1.00,-1.0,2367
1294,2136294,10036,3404,-3100,11041.67,24.91,-1.00,-1.0,2348
1297,2136297,18400,-2340,4700,19134.41,24.91,-1.00,-1.0,2426
1300,2136300,14948,292,-816,14973.10,25.00,-1.00,-1.0,2374
1303,2136303,14336,6172,-3224,15937.65,24.91,-1.00,-1.0,2437
1305,2136305,14196,-824,4904,15041.76,25.00,-1.00,-1.0,2367
1308,2136308,17168,1536,2732,17451.74,24.86,-1.00,-1.0,2433
1311,2136311,21296,4884,-752,21861.81,25.00,-1.00,-1.0,2368
1316,2136316,16520,-856,5304,17371.69,24.91,-1.00,-1.0,2437
1319,2136319,15600,5852,-5172,17445.79,24.91,-1.00,-1.0,2368
1322,2136322,18744,2044,2228,18986.30,24.91,-1.00,-1.0,2436
1324,2136324,10832,-4056,7460,13763.54,25.00,-1.00,-1.0,2369
1327,2136327,24888,8980,-10436,28442.28,25.00,-1.00,-1.0,2430
1330,2136330,23196,-7596,9340,26134.06,24.91,-1.00,-1.0,2370
1333,2136333,14928,-1408,3808,15470.25,24.91,-1.00,-1.0,2445
1335,2136335,24324,7660,-11304,27894.68,24.91,-1.00,-1.0,2361
1340,2136340,16176,-576,-1060,16220.92,24.91,-1.00,-1.0,2446
1343,2136343,24584,7712,-5932,26439.30,24.91,-1.00,-1.0,2367
1346,2136346,17600,-6052,9320,20814.64,24.81,-1.00,-1.0,2438
1349,2136349,22652,3660,224,22946.87,24.91,-1.00,-1.0,2369
1351,2136351,18372,4508,-1492,18975.73,24.91,-1.00,-1.0,2362
1354,2136354,17788,-2708,3456,18321.85,24.81,-1.00,-1.0,2429
1357,2136357,22196,-1452,-716,22254.96,24.91,-1.00,-1.0,2366
1359,2136359,17292,3568,-3416,17983.69,24.91,-1.00,-1.0,2431
1362,2136362,17908,-3036,3256,18453.06,24.95,-1.00,-1.0,2369
1367,2136367,21092,6320,-7160,23153.41,24.86,-1.00,-1.0,2452
1370,2136370,17004,-4664,10912,20735.49,24.91,-1.00,-1.0,2361
1373,2136373,6728,5420,-4428,9708.22,24.95,-1.00,-1.0,2444
1375,2136375,22692,6288,-3796,23851.11,24.86,-1.00,-1.0,2360
1378,2136378,12036,-2764,7996,14711.93,24.95,-1.00,-1.0,2435
1381,2136381,11740,6244,-512,13307.04,24.91,-1.00,-1.0,2361
1384,2136384,25280,1684,124,25336.33,24.95,-1.00,-1.0,2443
1386,2136386,16400,-476,3272,16729.99,24.91,-1.00,-1.0,2360
1391,2136391,21188,7864,-3760,22910.95,24.91,-1.00,-1.0,2446
1394,2136394,17036,-796,7260,18535.55,24.91,-1.00,-1.0,2364
1397,2136397,7632,5448,3968,10182.00,24.91,-1.00,-1.0,2437
1400,2136400,21640,7040,-7232,23877.88,24.91,-1.00,-1.0,2368
1402,2136402,18636,-3684,6748,20159.56,24.91,-1.00,-1.0,2424
1405,2136405,3912,1600,828,4306.89,24.81,-1.00,-1.0,2381
1408,2136408,23380,9976,-5940,26104.19,24.91,-1.00,-1.0,2362
1410,2136410,13860,-3648,8624,16726.65,24.95,-1.00,-1.0,2430
1413,2136413,5976,3920,3668,8033.26,24.91,-1.00,-1.0,2374
1418,2136418,10456,-6092,5760,13402.16,24.86,-1.00,-1.0,2443
1421,2136421,9712,2152,936,9991.50,24.86,-1.00,-1.0,2362
1424,2136424,26340,4912,-5416,27335.99,24.81,-1.00,-1.0,2438
1427,2136427,22368,-8840,6052,24801.21,24.95,-1.00,-1.0,2365
1429,2136429,13572,4528,84,14307.66,24.86,-1.00,-1.0,2429
1432,2136432,24176,3448,-4912,24909.75,24.86,-1.00,-1.0,2365
1435,2136435,24680,-5344,6576,26094.15,24.95,-1.00,-1.0,2433
1438,2136438,620,6536,-4080,7729.82,24.95,-1.00,-1.0,2365
1442,2136442,11872,-4352,9056,15552.99,24.95,-1.00,-1.0,2443
1445,2136445,16284,2248,-28,16438.46,24.86,-1.00,-1.0,2360
1448,2136448,26020,4288,-8244,27629.53,24.86,-1.00,-1.0,2438
1451,2136451,18088,-4708,11228,21803.88,24.86,-1.00,-1.0,2366
1453,2136453,20984,1268,-2956,21229.08,24.86,-1.00,-1.0,2427
1456,2136456,23976,4840,-3884,24766.10,24.91,-1.00,-1.0,2441
1459,2136459,12316,-3732,8136,15225.18,24.95,-1.00,-1.0,2366
1462,2136462,9356,5700,-1292,11031.50,24.91,-1.00,-1.0,2446
1464,2136464,18252,4100,-960,18731.45,24.86,-1.00,-1.0,2352
1469,2136469,29356,-1632,-2944,29548.36,25.00,-1.00,-1.0,2452
1472,2136472,13700,1000,-1840,13859.13,24.91,-1.00,-1.0,2366
1475,2136475,12316,-1040,20,12359.85,24.91,-1.00,-1.0,2442
1477,2136477,24680,-5320,248,25248.10,24.86,-1.00,-1.0,2352
1480,2136480,17396,5532,-5256,18996.04,25.00,-1.00,-1.0,2438
1483,2136483,13060,-36,8740,15714.72,24.86,-1.00,-1.0,2366
1486,2136486,9132,3048,2380,9917.06,24.81,-1.00,-1.0,2443
1488,2136488,18828,6576,-8868,21826.10,24.86,-1.00,-1.0,2365
1493,2136493,32767,-5100,-1048,33178.07,24.95,-1.00,-1.0,2451
1496,2136496,10876,5872,-5276,13438.90,24.95,-1.00,-1.0,2366
1499,2136499,4480,-3164,4924,7370.69,24.91,-1.00,-1.0,2434
1502,2136502,24100,-1376,3808,24437.76,24.86,-1.00,-1.0,2365
1504,2136504,2376,6924,-1792,7536.47,25.00,-1.00,-1.0,2359
1507,2136507,12856,928,-168,12890.54,24.91,-1.00,-1.0,2435
1510,2136510,23832,-2972,5880,24725.93,25.00,-1.00,-1.0,2366
1512,2136512,7424,10568,-1856,13047.73,24.91,-1.00,-1.0,2435
1515,2136515,14568,-1540,4884,15441.88,24.91,-1.00,-1.0,2365
1520,2136520,8356,8156,-4172,12399.54,24.95,-1.00,-1.0,2451
1523,2136523,15348,-404,4400,15971.36,24.95,-1.00,-1.0,2368
1526,2136526,20652,-3196,728,20910.51,24.91,-1.00,-1.0,2434
1529,2136529,19344,6868,-6232,21452.22,24.86,-1.00,-1.0,2367
1531,2136531,15556,-2304,4184,16272.78,25.00,-1.00,-1.0,2436
1534,2136534,27568,-1256,1016,27615.29,24.95,-1.00,-1.0,2354
1537,2136537,13588,6144,-7524,16703.09,24.86,-1.00,-1.0,2436
1540,2136540,5208,-8500,9868,14026.78,24.95,-1.00,-1.0,2377
1545,2136545,-3108,5776,-584,6585.05,24.86,-1.00,-1.0,2451
1547,2136547,32352,992,-1916,32423.87,24.95,-1.00,-1.0,2369
1550,2136550,22196,-3820,3384,22775.12,24.95,-1.00,-1.0,2446
1553,2136553,-1424,6948,3700,7999.53,24.91,-1.00,-1.0,2371
1555,2136555,25156,5484,-5976,26431.25,24.95,-1.00,-1.0,2363
1558,2136558,19616,-6644,6588,21733.20,24.91,-1.00,-1.0,2437
1561,2136561,5568,6024,1440,8328.55,24.95,-1.00,-1.0,2369
1564,2136564,18228,4692,-2676,19011.46,25.00,-1.00,-1.0,2434
1566,2136566,19892,-3840,6148,21171.56,25.00,-1.00,-1.0,2365
1571,2136571,25516,4040,-4772,26270.89,25.00,-1.00,-1.0,2447
1574,2136574,11240,-3156,3316,12136.47,25.00,-1.00,-1.0,2366
1577,2136577,5336,3712,1120,6595.93,24.91,-1.00,-1.0,2435
1580,2136580,29600,2636,-2452,29818.13,25.00,-1.00,-1.0,2366
1582,2136582,9016,-3296,4984,10816.29,25.00,-1.00,-1.0,2436
1585,2136585,9944,2284,784,10233.01,24.91,-1.00,-1.0,2367
1588,2136588,28220,4320,-6844,29357.64,25.00,-1.00,-1.0,2434
1591,2136591,22712,-6768,10124,25770.84,24.91,-1.00,-1.0,2366
1596,2136596,24628,3712,-5888,25592.69,24.91,-1.00,-1.0,2445
1598,2136598,11676,-4560,9888,15965.44,24.95,-1.00,-1.0,2376
1601,2136601,18592,2584,1532,18833.12,24.91,-1.00,-1.0,2436
1604,2136604,23148,5060,-4532,24124.11,24.86,-1.00,-1.0,2367
1607,2136607,14196,-8072,796,16349.84,24.91,-1.00,-1.0,2446
1609,2136609,22456,-3024,-388,22662.02,24.91,-1.00,-1.0,2375
1612,2136612,17696,6908,-2968,19227.01,24.91,-1.00,-1.0,2348
1615,2136615,17572,-3388,3124,18166.26,24.91,-1.00,-1.0,2431
1618,2136618,7808,564,3476,8565.37,24.95,-1.00,-1.0,2365
1622,2136622,15856,-7248,8988,19614.54,24.95,-1.00,-1.0,2444
1625,2136625,21668,-1896,5896,22535.75,24.86,-1.00,-1.0,2366
1628,2136628,15928,8620,-10868,21121.53,24.95,-1.00,-1.0,2434
1631,2136631,14924,-8580,13216,21702.65,24.91,-1.00,-1.0,2366
1633,2136633,15492,3100,-7400,17446.26,24.86,-1.00,-1.0,2436
1636,2136636,8300,8528,-5688,13189.77,24.81,-1.00,-1.0,2353
1639,2136639,14364,-7484,6412,17419.77,24.95,-1.00,-1.0,2450
1642,2136642,32767,2148,-240,32838.21,24.91,-1.00,-1.0,2372
1647,2136647,29044,152,-4560,29400.18,24.95,-1.00,-1.0,2451
1649,2136649,10700,-6888,6952,14500.51,24.91,-1.00,-1.0,2385
1652,2136652,10152,6072,780,11854.99,24.81,-1.00,-1.0,2437
1655,2136655,26896,4616,-4152,27603.29,24.91,-1.00,-1.0,2360
1658,2136658,16864,-7000,8044,19952.46,25.00,-1.00,-1.0,2439
1660,2136660,21744,2640,-428,21907.86,24.91,-1.00,-1.0,2381
1663,2136663,18376,5004,-4060,19473.08,24.91,-1.00,-1.0,2423
1666,2136666,18784,-5164,3684,19826.18,24.91,-1.00,-1.0,2389
1669,2136669,8488,3952,880,9404.19,25.00,-1.00,-1.0,2373
1673,2136673,15160,-2528,2080,15509.44,24.95,-1.00,-1.0,2449
1676,2136676,25012,-504,-1596,25067.94,24.95,-1.00,-1.0,2365
1679,2136679,23112,3012,-1420,23350.65,24.95,-1.00,-1.0,2436
1682,2136682,6524,-2016,4688,8282.76,24.91,-1.00,-1.0,2364
1684,2136684,11276,4016,-1084,12018.80,24.95,-1.00,-1.0,2424
1687,2136687,14996,2404,-4068,15722.84,24.95,-1.00,-1.0,2365
1690,2136690,6000,-4256,7904,10797.53,24.86,-1.00,-1.0,2436
1693,2136693,17752,2240,-2600,18080.68,24.81,-1.00,-1.0,2365
1698,2136698,9696,-4044,7700,13025.22,24.91,-1.00,-1.0,2448
1700,2136700,28400,-6208,3440,29273.42,24.81,-1.00,-1.0,2376
1703,2136703,5044,8492,-4600,10895.69,24.95,-1.00,-1.0,2437
1706,2136706,13480,-3572,868,13972.22,24.81,-1.00,-1.0,2365
1709,2136709,26224,-2956,468,26394.22,24.91,-1.00,-1.0,2445
1711,2136711,3112,10808,-1084,11299.22,24.91,-1.00,-1.0,2376
1714,2136714,18268,-1124,860,18322.74,24.95,-1.00,-1.0,2437
1717,2136717,27588,-2620,5956,28344.95,24.91,-1.00,-1.0,2365
1720,2136720,9756,8504,-8376,15416.06,24.91,-1.00,-1.0,2360
1725,2136725,23664,-2124,4168,24121.95,25.00,-1.00,-1.0,2447
1727,2136727,13380,10380,-7064,18348.54,24.91,-1.00,-1.0,2375
1730,2136730,22088,-1936,3856,22505.48,24.95,-1.00,-1.0,2444
1733,2136733,15148,-2528,1652,15446.09,24.91,-1.00,-1.0,2367
1736,2136736,12764,3968,-1424,13442.19,25.00,-1.00,-1.0,2446
1738,2136738,12912,40,1804,13037.48,25.00,-1.00,-1.0,2373
1741,2136741,12636,-3060,-108,13001.68,24.95,-1.00,-1.0,2444
1744,2136744,22816,716,-288,22829.05,24.91,-1.00,-1.0,2356
1749,2136749,15672,-620,616,15696.35,24.91,-1.00,-1.0,2456
1751,2136751,23032,-1672,-924,23111.09,24.91,-1.00,-1.0,2366
1754,2136754,7488,2572,2092,8189.13,24.95,-1.00,-1.0,2446
1757,2136757,12316,-1704,-392,12439.50,25.00,-1.00,-1.0,2374
1760,2136760,31220,-956,-4448,31549.76,24.91,-1.00,-1.0,2438
1762,2136762,14800,156,176,14801.87,24.91,-1.00,-1.0,2367
1765,2136765,1876,-540,4352,4769.79,24.86,-1.00,-1.0,2451
1768,2136768,32767,84,-1732,32812.85,24.91,-1.00,-1.0,2366
1771,2136771,4492,4504,-1360,6504.90,24.95,-1.00,-1.0,2359
1776,2136776,29484,-4520,2516,29934.38,24.86,-1.00,-1.0,2443
1778,2136778,2620,7288,-4960,9196.79,24.86,-1.00,-1.0,2368
1781,2136781,29376,1008,-2988,29544.77,24.91,-1.00,-1.0,2436
1784,2136784,27640,-1224,4756,28072.89,24.95,-1.00,-1.0,2369
1787,2136787,-2016,6560,-880,6918.98,24.95,-1.00,-1.0,2435
1789,2136789,20732,1708,-720,20814.69,24.95,-1.00,-1.0,2373
1792,2136792,20360,-5024,3336,21234.38,25.00,-1.00,-1.0,2435
1795,2136795,7128,5976,2408,9608.30,25.05,-1.00,-1.0,2371
1800,2136800,16584,-4352,3416,17482.51,24.95,-1.00,-1.0,2456
1803,2136803,11544,7220,-1012,13653.44,24.86,-1.00,-1.0,2365
1805,2136805,17148,1300,3180,17488.75,24.95,-1.00,-1.0,2439
1808,2136808,23684,-3244,2616,24047.85,24.86,-1.00,-1.0,2367
1811,2136811,7056,5176,-336,8757.34,24.95,-1.00,-1.0,2437
1814,2136814,17048,-2172,-1396,17242.41,24.86,-1.00,-1.0,2369
1816,2136816,21320,-3844,10960,24278.39,24.91,-1.00,-1.0,2361
1819,2136819,2816,9796,-5208,11446.17,24.91,-1.00,-1.0,2436
1822,2136822,26080,-2300,2264,26278.93,24.91,-1.00,-1.0,2372
1827,2136827,10936,8932,-7044,15779.56,24.91,-1.00,-1.0,2444
1830,2136830,25412,-1268,1024,25464.21,24.86,-1.00,-1.0,2364
1832,2136832,19348,-2344,3464,19794.92,24.91,-1.00,-1.0,2437
1835,2136835,20656,3484,-2460,21091.71,24.95,-1.00,-1.0,2365
1838,2136838,19648,2956,-2488,20024.29,24.91,-1.00,-1.0,2436
1841,2136841,13820,-4876,5396,15616.80,24.86,-1.00,-1.0,2366
1843,2136843,17816,3664,2876,18414.83,24.91,-1.00,-1.0,2441
1846,2136846,10036,4300,-4260,11720.02,24.91,-1.00,-1.0,2367
1851,2136851,20028,-2660,680,20215.31,24.91,-1.00,-1.0,2433
1854,2136854,13128,2652,788,13416.35,24.91,-1.00,-1.0,2366
1856,2136856,17104,-752,120,17120.94,25.00,-1.00,-1.0,2436
1859,2136859,21284,-1840,-1648,21426.86,24.91,-1.00,-1.0,2367
1862,2136862,14096,2168,956,14293.75,25.00,-1.00,-1.0,2434
1865,2136865,14364,-284,1856,14486.20,24.91,-1.00,-1.0,2366
1867,2136867,23024,1776,-908,23110.24,24.91,-1.00,-1.0,2436
1870,2136870,8124,1140,-1492,8338.17,24.91,-1.00,-1.0,2367
1873,2136873,20740,-880,1932,20848.37,24.95,-1.00,-1.0,2367
1878,2136878,10512,3400,-4716,12012.61,24.86,-1.00,-1.0,2447
1880,2136880,25256,-980,-1108,25299.28,24.95,-1.00,-1.0,2377
1883,2136883,11324,-4340,6956,13980.50,24.91,-1.00,-1.0,2443
1886,2136886,17000,1180,-3836,17467.32,24.95,-1.00,-1.0,2368
1889,2136889,23388,264,-3552,23657.66,24.81,-1.00,-1.0,2447
1891,2136891,14760,-4564,5212,16304.99,24.95,-1.00,-1.0,2374
1894,2136894,19436,3552,1644,19826.18,24.91,-1.00,-1.0,2444
1897,2136897,15112,4788,-808,15872.94,24.95,-1.00,-1.0,2363
1902,2136902,14852,-476,-2516,15071.12,24.95,-1.00,-1.0,2460
1904,2136904,10996,2676,2472,11583.77,24.86,-1.00,-1.0,2365
1907,2136907,31840,832,436,31853.85,24.91,-1.00,-1.0,2448
1910,2136910,4400,-3092,928,5457.26,24.95,-1.00,-1.0,2372
1913,2136913,26356,3884,-6852,27507.71,25.00,-1.00,-1.0,2439
1915,2136915,20048,-6640,5988,21951.49,24.86,-1.00,-1.0,2365
1918,2136918,1208,5020,-2528,5748.95,25.00,-1.00,-1.0,2451
1921,2136921,18612,9992,-9908,23332.70,24.86,-1.00,-1.0,2364
1924,2136924,15844,-13792,17376,27261.27,24.91,-1.00,-1.0,2360
1929,2136929,7456,9832,-13380,18201.22,24.95,-1.00,-1.0,2451
1931,2136931,26144,-15628,8340,31580.04,24.95,-1.00,-1.0,2365
1934,2136934,10732,4244,-6280,13138.71,24.91,-1.00,-1.0,2451
1937,2136937,21552,12096,-7004,25687.70,24.86,-1.00,-1.0,2364
1940,2136940,11824,-4840,6852,14497.67,24.91,-1.00,-1.0,2445
1942,2136942,17116,1108,1800,17246.02,25.05,-1.00,-1.0,2365
1945,2136945,26968,6088,-2548,27763.81,24.81,-1.00,-1.0,2453
1948,2136948,12852,-4616,-208,13657.40,24.95,-1.00,-1.0,2365
1953,2136953,9160,6316,-680,11147.19,24.95,-1.00,-1.0,2444
1956,2136956,28900,-5052,9792,30929.21,24.95,-1.00,-1.0,2365
1958,2136958,10144,3228,-11432,15620.86,24.95,-1.00,-1.0,2436
1961,2136961,12204,-156,2416,12441.83,24.95,-1.00,-1.0,2364
1964,2136964,21084,-4808,9192,23497.76,24.95,-1.00,-1.0,2436
1967,2136967,6864,-1480,-1292,7139.62,24.95,-1.00,-1.0,2365
1969,2136969,25472,6484,-6964,27191.22,24.95,-1.00,-1.0,2424
1972,2136972,15340,-6508,9432,19147.64,25.05,-1.00,-1.0,2365
1977,2136977,-644,8636,-2228,8941.99,24.81,-1.00,-1.0,2453
1980,2136980,23792,2024,-5092,24414.84,24.91,-1.00,-1.0,2369
1982,2136982,26568,-8528,10992,29990.16,25.00,-1.00,-1.0,2360
1985,2136985,588,14824,-4344,15458.56,24.86,-1.00,-1.0,2435
1988,2136988,22456,10820,-7084,25913.85,24.95,-1.00,-1.0,2367
1991,2136991,14732,-16464,16944,27842.31,24.86,-1.00,-1.0,2432
1993,2136993,17816,15784,-6808,24756.68,24.91,-1.00,-1.0,2366
1996,2136996,17276,5264,3212,18343.58,24.86,-1.00,-1.0,2437
1999,2136999,25976,-13884,7208,30322.82,24.95,-1.00,-1.0,2352
2004,2137004,12240,8064,-8784,17088.13,24.95,-1.00,-1.0,2448
2007,2137007,28188,-3428,7108,29271.80,25.00,-1.00,-1.0,2371
2009,2137009,3000,2780,-708,4150.86,24.95,-1.00,-1.0,2439
2012,2137012,22960,7424,-9228,25834.73,25.00,-1.00,-1.0,2367
2015,2137015,13624,-9556,12320,20705.38,24.95,-1.00,-1.0,2436
2018,2137018,11004,9268,-8364,16641.53,25.00,-1.00,-1.0,2366
2020,2137020,25672,2620,256,25806.62,24.95,-1.00,-1.0,2440
2023,2137023,11372,-10796,14024,21036.84,24.95,-1.00,-1.0,2379
2028,2137028,372,6596,-3308,7388.40,24.91,-1.00,-1.0,2462
2031,2137031,19684,-744,-2328,19835.14,24.91,-1.00,-1.0,2371
2034,2137034,30868,-3452,6592,31752.23,24.95,-1.00,-1.0,2445
2036,2137036,3016,10036,-6288,12221.15,25.00,-1.00,-1.0,2369
2039,2137039,20108,-3372,-5200,21041.44,24.95,-1.00,-1.0,2446
2042,2137042,19248,-12472,12220,25987.78,25.00,-1.00,-1.0,2371
2045,2137045,13656,13136,-3860,19337.54,24.95,-1.00,-1.0,2447
2047,2137047,14988,468,5452,15955.67,25.00,-1.00,-1.0,2374
2050,2137050,27996,-8396,7136,30086.40,24.91,-1.00,-1.0,2360
2055,2137055,21032,4936,-9888,23758.82,24.91,-1.00,-1.0,2457
2057,2137057,23096,-7924,8840,25968.45,24.91,-1.00,-1.0,2363
2060,2137060,824,4052,-5140,6596.76,24.91,-1.00,-1.0,2452
2063,2137063,19876,7424,-7872,22630.50,25.00,-1.00,-1.0,2365
2066,2137066,12812,-13336,11376,21711.97,24.95,-1.00,-1.0,2449
2068,2137068,18224,8696,-7248,21453.86,24.91,-1.00,-1.0,2375
2071,2137071,17888,6304,272,18968.26,24.86,-1.00,-1.0,2443
2074,2137074,20332,-6272,13580,25241.72,24.95,-1.00,-1.0,2381
2079,2137079,8724,8484,-7432,14259.07,25.05,-1.00,-1.0,2447
2082,2137082,15896,-4400,2132,16630.94,24.95,-1.00,-1.0,2369
2084,2137084,22820,724,1924,22912.41,24.95,-1.00,-1.0,2428
2087,2137087,10328,6944,-3488,12924.89,24.95,-1.00,-1.0,2375
2090,2137090,20424,-1416,-3168,20716.69,24.86,-1.00,-1.0,2431
2093,2137093,17400,-7236,6432,19912.06,24.86,-1.00,-1.0,2373
2095,2137095,16768,11992,-6732,21686.26,24.91,-1.00,-1.0,2443
2098,2137098,15284,-4116,6912,17271.88,24.95,-1.00,-1.0,2367
2103,2137103,12180,8368,-6132,15999.29,24.95,-1.00,-1.0,2441
2106,2137106,20284,4452,-3048,20989.31,24.95,-1.00,-1.0,2358
2108,2137108,22580,-3712,7040,23941.53,24.95,-1.00,-1.0,2347
2111,2137111,5348,2024,-2372,6190.64,25.00,-1.00,-1.0,2437
2114,2137114,15988,4888,-4448,17300.10,24.86,-1.00,-1.0,2367
2117,2137117,17280,-6620,5344,19260.87,25.00,-1.00,-1.0,2431
2119,2137119,13296,4268,640,13978.88,24.86,-1.00,-1.0,2372
2122,2137122,20544,7260,-4860,22324.50,25.00,-1.00,-1.0,2437
2125,2137125,17876,-6680,12316,22712.50,24.86,-1.00,-1.0,2373
2130,2137130,12852,2872,-3664,13669.21,24.86,-1.00,-1.0,2450
2133,2137133,19508,-1928,1392,19652.40,25.05,-1.00,-1.0,2375
2136,2137136,22140,-3592,3764,22743.12,24.95,-1.00,-1.0,2452
2138,2137138,13816,9648,-6120,17928.20,24.91,-1.00,-1.0,2423
2141,2137141,15824,-5608,4204,17306.71,25.05,-1.00,-1.0,2449
2144,2137144,16028,-2680,128,16251.02,24.95,-1.00,-1.0,2373
2147,2137147,13040,9508,-7228,17682.98,24.95,-1.00,-1.0,2438
2149,2137149,12168,-3352,6212,14067.16,24.86,-1.00,-1.0,2384
2154,2137154,6172,4068,-1308,7506.87,24.95,-1.00,-1.0,2436
2157,2137157,22680,-384,-1588,22738.77,24.91,-1.00,-1.0,2374
2160,2137160,17300,-6804,3332,18886.15,24.86,-1.00,-1.0,2425
2163,2137163,14004,5752,-844,15162.78,24.95,-1.00,-1.0,2382
2165,2137165,15772,3816,1676,16313.39,24.95,-1.00,-1.0,2363
2168,2137168,24916,-1868,6204,25744.63,24.81,-1.00,-1.0,2440
2171,2137171,7988,384,-7400,10895.67,24.95,-1.00,-1.0,2381
2174,2137174,22468,188,-1828,22543.03,25.00,-1.00,-1.0,2433
2176,2137176,19380,-1020,4176,19851.04,24.86,-1.00,-1.0,2386
2181,2137181,17596,3520,-2796,18161.15,24.95,-1.00,-1.0,2441
2184,2137184,11392,-6036,3172,13276.77,24.86,-1.00,-1.0,2375
2187,2137187,26604,-2356,6148,27406.60,24.91,-1.00,-1.0,2432
2189,2137189,4612,7200,-7536,11397.45,24.95,-1.00,-1.0,2373
2192,2137192,20404,-6996,2248,21686.88,24.91,-1.00,-1.0,2444
2195,2137195,17524,-2232,80,17665.75,24.95,-1.00,-1.0,2375
2198,2137198,16948,13496,-4168,22062.39,24.91,-1.00,-1.0,2439
2200,2137200,13388,-624,7644,15429.15,24.86,-1.00,-1.0,2377
2205,2137205,12340,868,-3748,12925.81,24.95,-1.00,-1.0,2437
2208,2137208,12036,1344,-2572,12380.91,24.86,-1.00,-1.0,2375
2211,2137211,22900,-512,6924,23929.35,24.86,-1.00,-1.0,2423
2214,2137214,12012,5204,3100,13452.87,24.86,-1.00,-1.0,2381
2217,2137217,16824,-1416,-420,16888.71,24.95,-1.00,-1.0,2427
2219,2137219,19408,-2308,1684,19617.17,24.95,-1.00,-1.0,2375
2222,2137222,13352,8168,-6884,17099.17,25.00,-1.00,-1.0,2367
2225,2137225,16596,-864,5900,17634.73,25.00,-1.00,-1.0,2435
2227,2137227,21708,-3084,2884,22114.83,25.00,-1.00,-1.0,2383
2232,2137232,18144,-616,208,18155.64,25.05,-1.00,-1.0,2436
2235,2137235,20420,-80,3408,20702.59,24.86,-1.00,-1.0,2374
2238,2137238,10092,1812,-2648,10589.79,24.95,-1.00,-1.0,2425
2241,2137241,20656,504,-1804,20740.75,24.86,-1.00,-1.0,2375
2243,2137243,15424,-2112,2428,15756.13,24.95,-1.00,-1.0,2412
2246,2137246,14224,2968,4796,15301.40,24.91,-1.00,-1.0,2375
2249,2137249,21736,2048,-3744,22150.97,24.86,-1.00,-1.0,2425
2252,2137252,13732,-5340,880,14760.01,24.95,-1.00,-1.0,2375
2256,2137256,12432,4948,-2780,13666.23,24.95,-1.00,-1.0,2437
2259,2137259,17972,-1144,3052,18265.16,24.95,-1.00,-1.0,2374
2262,2137262,18636,-668,1252,18689.95,24.86,-1.00,-1.0,2427
2265,2137265,15472,1560,-1300,15604.69,24.95,-1.00,-1.0,2375
2267,2137267,15572,1620,-1820,15761.47,24.95,-1.00,-1.0,2425
2270,2137270,17188,-1356,2812,17469.21,25.00,-1.00,-1.0,2374
2273,2137273,17944,1564,3500,18348.93,24.95,-1.00,-1.0,2367
2276,2137276,14872,1280,-1904,15047.92,24.91,-1.00,-1.0,2427
2278,2137278,15828,-1024,1072,15897.27,24.95,-1.00,-1.0,2375
2283,2137283,14788,8,2060,14930.79,24.91,-1.00,-1.0,2439
2286,2137286,19976,-2292,3644,20434.59,24.91,-1.00,-1.0,2369
2289,2137289,15324,3412,-5292,16567.20,25.00,-1.00,-1.0,2434
2291,2137291,17224,-488,3056,17499.81,24.91,-1.00,-1.0,2376
2294,2137294,17888,1020,2812,18136.38,24.81,-1.00,-1.0,2440
2297,2137297,19360,3112,-1612,19674.67,24.91,-1.00,-1.0,2369
2300,2137300,15264,3028,-856,15584.97,25.00,-1.00,-1.0,2426
2302,2137302,18344,720,3176,18630.83,24.91,-1.00,-1.0,2381
2307,2137307,17668,4416,-4552,18771.79,24.91,-1.00,-1.0,2450
2310,2137310,14208,-236,3272,14581.80,25.00,-1.00,-1.0,2366
2313,2137313,21672,516,1348,21720.01,25.00,-1.00,-1.0,2441
2315,2137315,16896,880,800,16937.80,24.91,-1.00,-1.0,2367
2318,2137318,12388,1448,1800,12601.56,24.91,-1.00,-1.0,2435
2321,2137321,19668,1492,-2580,19892.53,24.91,-1.00,-1.0,2366
2324,2137324,13976,-1984,6124,15387.27,25.00,-1.00,-1.0,2360
2326,2137326,16384,4916,-1028,17136.49,24.95,-1.00,-1.0,2445
2329,2137329,16728,208,2836,16967.97,24.91,-1.00,-1.0,2370
2334,2137334,16176,1920,1036,16322.46,24.91,-1.00,-1.0,2449
2337,2137337,15776,252,3140,16087.43,24.91,-1.00,-1.0,2366
2340,2137340,17600,3336,-5128,18632.91,24.91,-1.00,-1.0,2443
2342,2137342,15340,-1088,4776,16103.09,24.91,-1.00,-1.0,2367
2345,2137345,16764,2436,632,16951.85,24.91,-1.00,-1.0,2436
2348,2137348,17560,-164,-2508,17738.96,24.91,-1.00,-1.0,2367
2351,2137351,14840,-2228,4400,15638.08,24.91,-1.00,-1.0,2441
2353,2137353,16792,1680,-1052,16908.59,25.00,-1.00,-1.0,2367
2358,2137358,15736,-952,156,15765.54,24.91,-1.00,-1.0,2445
2361,2137361,14376,-128,-1596,14464.89,24.95,-1.00,-1.0,2367
2364,2137364,18064,-1412,-208,18120.29,24.91,-1.00,-1.0,2420
2367,2137367,17992,-924,740,18030.90,24.95,-1.00,-1.0,2368
2369,2137369,16276,4280,-428,16834.78,25.00,-1.00,-1.0,2433
2372,2137372,12908,-1516,2272,13193.81,24.95,-1.00,-1.0,2368
2375,2137375,19944,-496,500,19956.43,25.00,-1.00,-1.0,2360
2377,2137377,12220,1128,-784,12296.97,25.00,-1.00,-1.0,2422
2380,2137380,15664,748,732,15698.92,24.95,-1.00,-1.0,2388
2385,2137385,14192,-968,2528,14447.86,24.95,-1.00,-1.0,2439
2388,2137388,18664,4772,-2408,19414.31,24.91,-1.00,-1.0,2374
2391,2137391,18056,56,5104,18763.61,24.95,-1.00,-1.0,2433
2393,2137393,17456,-624,1520,17533.16,24.95,-1.00,-1.0,2375
2396,2137396,16188,2824,-3832,16873.37,24.86,-1.00,-1.0,2440
2399,2137399,19128,-524,4868,19744.68,24.91,-1.00,-1.0,2375
2402,2137402,16244,3304,-488,16583.79,24.86,-1.00,-1.0,2431
2404,2137404,16644,2724,-180,16866.40,25.05,-1.00,-1.0,2374
2409,2137409,15004,632,-3076,15329.10,25.00,-1.00,-1.0,2433
2412,2137412,18040,1268,2524,18259.79,24.91,-1.00,-1.0,2374
2415,2137415,18828,1368,-1300,18922.34,24.91,-1.00,-1.0,2425
2418,2137418,18180,-1520,-1596,18313.11,24.91,-1.00,-1.0,2375
2420,2137420,16960,584,488,16977.07,24.95,-1.00,-1.0,2364
2423,2137423,17116,468,-2320,17278.86,24.95,-1.00,-1.0,2424
2426,2137426,16448,64,5588,17371.43,24.86,-1.00,-1.0,2382
2429,2137429,15788,2200,-4676,16612.22,24.95,-1.00,-1.0,2425
2431,2137431,17896,-1924,904,18021.81,25.00,-1.00,-1.0,2372
2436,2137436,17372,4284,-3240,18183.42,24.91,-1.00,-1.0,2459
2439,2137439,18900,448,4924,19536.03,24.86,-1.00,-1.0,2382
2442,2137442,15992,2260,-584,16161.46,24.81,-1.00,-1.0,2435
2445,2137445,16956,2340,-1636,17194.71,24.91,-1.00,-1.0,2376
2447,2137447,18076,-1152,3548,18456.90,24.91,-1.00,-1.0,2429
2450,2137450,18160,3052,-1548,18479.63,24.91,-1.00,-1.0,2383
2453,2137453,13692,-872,1868,13846.32,24.91,-1.00,-1.0,2436
2456,2137456,17864,176,-316,17867.66,25.00,-1.00,-1.0,2387
2461,2137461,15528,2220,1872,15797.20,24.91,-1.00,-1.0,2452
2464,2137464,17764,-164,-496,17771.68,24.91,-1.00,-1.0,2369
2467,2137467,19228,1228,3968,19671.53,24.91,-1.00,-1.0,2431
2469,2137469,12452,1364,-2664,12806.63,25.00,-1.00,-1.0,2374
2472,2137472,22056,-84,2032,22149.56,24.91,-1.00,-1.0,2360
2475,2137475,13028,1780,616,13163.46,24.95,-1.00,-1.0,2440
2477,2137477,21548,4972,-4092,22489.59,24.95,-1.00,-1.0,2367
2480,2137480,17828,-2432,9156,20188.72,24.95,-1.00,-1.0,2433
2483,2137483,14292,5936,-8228,17527.05,24.91,-1.00,-1.0,2355
2488,2137488,15172,-1864,3672,15720.93,24.95,-1.00,-1.0,2444
2490,2137490,20308,7980,-7092,22943.23,24.86,-1.00,-1.0,2367
2493,2137493,14208,-2588,7868,16445.98,24.86,-1.00,-1.0,2434
2496,2137496,18140,300,-5964,19097.62,24.95,-1.00,-1.0,2366
2499,2137499,16324,-3276,1824,16749.09,24.95,-1.00,-1.0,2435
2501,2137501,16912,128,-124,16912.94,24.95,-1.00,-1.0,2367
2504,2137504,19796,2988,840,20037.85,24.95,-1.00,-1.0,2435
2507,2137507,14084,1528,3828,14674.72,24.95,-1.00,-1.0,2377
2512,2137512,19784,-2676,-828,19981.32,24.95,-1.00,-1.0,2437
2515,2137515,13648,1324,-92,13712.38,24.77,-1.00,-1.0,2375
2517,2137517,17412,5064,-5684,19003.41,24.86,-1.00,-1.0,2425
2520,2137520,17352,-4252,9664,20311.68,24.86,-1.00,-1.0,2374
2523,2137523,19044,6068,-3264,20252.12,24.95,-1.00,-1.0,2367
2526,2137526,12364,2832,-2656,12959.28,24.91,-1.00,-1.0,2427
2528,2137528,18608,-2872,892,18849.45,24.95,-1.00,-1.0,2375
2531,2137531,19628,1716,-2856,19908.79,24.91,-1.00,-1.0,2424
2534,2137534,11840,-1956,548,12012.99,24.95,-1.00,-1.0,2393
2539,2137539,15756,280,2580,15968.29,24.95,-1.00,-1.0,2456
2541,2137541,17512,1524,544,17586.60,24.95,-1.00,-1.0,2367
2544,2137544,17856,-2608,-1652,18120.91,24.91,-1.00,-1.0,2436
2547,2137547,14916,2124,-3804,15539.27,24.95,-1.00,-1.0,2368
2550,2137550,17328,-1140,232,17367.01,24.91,-1.00,-1.0,2442
2552,2137552,19476,-4020,7128,21125.42,24.95,-1.00,-1.0,2366
2555,2137555,12984,4412,-1552,13800.68,24.91,-1.00,-1.0,2434
2558,2137558,20752,800,-1788,20844.24,24.95,-1.00,-1.0,2353
2563,2137563,16400,7432,-2160,18134.50,24.95,-1.00,-1.0,2445
2566,2137566,19404,-2324,2608,19715.93,24.95,-1.00,-1.0,2368
2568,2137568,17792,-1464,4540,18420.37,24.95,-1.00,-1.0,2432
2571,2137571,16356,5884,-836,17402.27,24.86,-1.00,-1.0,2374
2574,2137574,17032,-3392,2968,17618.28,24.95,-1.00,-1.0,2434
2577,2137577,16240,-20,-4488,16848.74,24.86,-1.00,-1.0,2378
2579,2137579,13040,4572,-4956,14680.15,24.95,-1.00,-1.0,2371
2582,2137582,19736,-3896,2828,20314.68,24.91,-1.00,-1.0,2424
2585,2137585,17512,1124,2348,17704.42,24.95,-1.00,-1.0,2375
2590,2137590,21640,-3464,-184,21916.27,24.95,-1.00,-1.0,2435
2592,2137592,14040,-3884,2752,14825.00,25.05,-1.00,-1.0,2361
2595,2137595,17604,7276,-2008,19153.93,25.05,-1.00,-1.0,2426
2598,2137598,19828,452,5304,20530.13,24.95,-1.00,-1.0,2377
2601,2137601,14944,1452,-1080,15053.17,24.86,-1.00,-1.0,2424
2603,2137603,18496,1088,984,18554.08,24.95,-1.00,-1.0,2373
2606,2137606,15976,116,-792,15996.04,24.91,-1.00,-1.0,2438
2609,2137609,18376,1192,1144,18450.12,24.95,-1.00,-1.0,2370
2614,2137614,17984,1908,-2624,18274.30,24.95,-1.00,-1.0,2444
2617,2137617,17764,-1200,3888,18224.06,24.95,-1.00,-1.0,2376
2619,2137619,15692,3572,228,16095.03,24.95,-1.00,-1.0,2436
2622,2137622,18088,944,728,18127.24,24.86,-1.00,-1.0,2384
2625,2137625,16492,-1472,2772,16788.00,24.95,-1.00,-1.0,2435
2628,2137628,16100,2688,-5580,17250.27,24.86,-1.00,-1.0,2378
2630,2137630,15748,-2800,2992,16272.42,24.91,-1.00,-1.0,2371
2633,2137633,16744,776,288,16764.45,24.81,-1.00,-1.0,2424
2636,2137636,18244,2696,-3052,18692.96,25.00,-1.00,-1.0,2375
2641,2137641,18480,1504,1628,18612.44,24.91,-1.00,-1.0,2436
2643,2137643,14192,4944,-68,15028.66,25.00,-1.00,-1.0,2377
2646,2137646,16616,-2744,2212,16985.70,24.91,-1.00,-1.0,2425
2649,2137649,17512,2360,-920,17694.24,24.91,-1.00,-1.0,2376
2652,2137652,18592,3020,-1980,18939.46,24.91,-1.00,-1.0,2421
2654,2137654,16716,-3700,5560,18000.79,24.95,-1.00,-1.0,2381
2657,2137657,17680,1692,-2240,17901.48,24.81,-1.00,-1.0,2425
2660,2137660,17076,1684,-2728,17374.34,24.86,-1.00,-1.0,2377
2665,2137665,16236,424,-1144,16281.78,24.91,-1.00,-1.0,2448
2668,2137668,20060,4132,-2972,20695.65,24.91,-1.00,-1.0,2367
2670,2137670,14900,-2748,1564,15231.80,25.00,-1.00,-1.0,2435
2673,2137673,19452,-72,3144,19704.57,24.91,-1.00,-1.0,2370
2676,2137676,18392,3816,-4804,19388.29,24.91,-1.00,-1.0,2432
2679,2137679,15280,-3800,3824,16203.13,24.95,-1.00,-1.0,2368
2681,2137681,20344,-112,112,20344.62,24.91,-1.00,-1.0,2360
2684,2137684,15828,3944,-2920,16571.27,24.95,-1.00,-1.0,2449
2687,2137687,16836,-1268,4272,17415.76,24.91,-1.00,-1.0,2375
2691,2137691,14260,4428,-3184,15267.37,24.95,-1.00,-1.0,2436
2694,2137694,19992,200,-2628,20164.98,25.05,-1.00,-1.0,2374
2697,2137697,21020,-1280,4032,21441.45,24.95,-1.00,-1.0,2425
2700,2137700,13884,5856,-932,15097.25,25.00,-1.00,-1.0,2382
2703,2137703,17284,-360,1564,17358.35,24.95,-1.00,-1.0,2425
2705,2137705,19140,-3920,-1436,19590.00,24.86,-1.00,-1.0,2374
2708,2137708,17168,2468,504,17351.81,24.95,-1.00,-1.0,2424
2711,2137711,14244,1440,-1732,14420.99,25.00,-1.00,-1.0,2375
2716,2137716,14984,3484,996,15415.92,25.00,-1.00,-1.0,2426
2718,2137718,18008,1328,-3404,18374.95,24.91,-1.00,-1.0,2381
2721,2137721,23060,-2984,3836,23566.56,24.91,-1.00,-1.0,2425
2724,2137724,11508,4440,-4220,13036.72,24.91,-1.00,-1.0,2378
2727,2137727,16828,-740,3088,17124.98,24.91,-1.00,-1.0,2424
2729,2137729,20032,-2668,8092,21768.78,24.91,-1.00,-1.0,2381
2732,2137732,14380,6596,-4452,16435.08,24.91,-1.00,-1.0,2426
2735,2137735,15652,-2632,2944,16142.48,24.91,-1.00,-1.0,2375
2738,2137738,17436,-2368,-1208,17637.48,25.00,-1.00,-1.0,2360
2743,2137743,13672,-1308,-792,13757.24,24.91,-1.00,-1.0,2435
2745,2137745,20824,-3348,628,21100.77,24.91,-1.00,-1.0,2383
2748,2137748,15556,1380,820,15638.60,25.00,-1.00,-1.0,2425
2751,2137751,14552,924,-2300,14761.59,24.81,-1.00,-1.0,2377
2754,2137754,19184,-688,3952,19598.92,25.00,-1.00,-1.0,2435
2756,2137756,13700,2084,336,13861.67,24.91,-1.00,-1.0,2384
2759,2137759,17316,1608,-1020,17420.39,24.91,-1.00,-1.0,2432
2762,2137762,19240,-2304,3920,19769.99,24.91,-1.00,-1.0,2377
2767,2137767,17668,940,2000,17805.67,24.91,-1.00,-1.0,2456
2769,2137769,18548,-1896,1748,18726.42,24.95,-1.00,-1.0,2367
2772,2137772,15260,5452,-2756,16437.38,24.91,-1.00,-1.0,2444
2775,2137775,17504,216,1572,17575.78,24.91,-1.00,-1.0,2366
2778,2137778,16972,-2152,2452,17282.71,24.91,-1.00,-1.0,2437
2780,2137780,15708,5080,-3064,16790.94,24.95,-1.00,-1.0,2367
2783,2137783,18692,-684,-716,18718.21,24.91,-1.00,-1.0,2449
2786,2137786,19368,-892,2132,19505.40,24.91,-1.00,-1.0,2367
2789,2137789,13580,2888,-1140,13930.42,24.95,-1.00,-1.0,2381
2794,2137794,17656,-1364,444,17714.17,24.95,-1.00,-1.0,2448
2796,2137796,14524,2848,-712,14817.71,24.95,-1.00,-1.0,2368
2799,2137799,14324,1292,416,14388.17,24.95,-1.00,-1.0,2432
2802,2137802,18872,-1444,-1364,18976.25,24.95,-1.00,-1.0,2368
2805,2137805,14948,1760,1636,15139.91,24.95,-1.00,-1.0,2431
2807,2137807,19576,880,832,19613.42,24.95,-1.00,-1.0,2371
2810,2137810,18488,-2236,4356,19125.39,24.86,-1.00,-1.0,2432
2813,2137813,15872,4976,-4860,17329.18,24.95,-1.00,-1.0,2373
2818,2137818,19040,-2008,5520,19925.46,25.00,-1.00,-1.0,2452
2821,2137821,15860,5616,-5932,17840.06,25.00,-1.00,-1.0,2376
2823,2137823,15808,-2452,5636,16960.83,24.95,-1.00,-1.0,2435
2826,2137826,19568,-1248,372,19611.29,25.00,-1.00,-1.0,2381
2829,2137829,16532,1424,936,16619.59,24.86,-1.00,-1.0,2436
2832,2137832,14608,1108,-2228,14818.41,25.00,-1.00,-1.0,2387
2834,2137834,19732,-56,896,19752.41,24.95,-1.00,-1.0,2433
2837,2137837,14856,-956,5992,16047.39,24.95,-1.00,-1.0,2369
2840,2137840,17720,4148,-4980,18868.09,25.00,-1.00,-1.0,2367
2845,2137845,15736,2264,264,15900.22,25.00,-1.00,-1.0,2452
2847,2137847,15440,412,-1124,15486.34,24.95,-1.00,-1.0,2367
2850,2137850,20072,-4900,10528,23189.09,24.91,-1.00,-1.0,2434
2853,2137853,13880,6712,-9300,18005.43,24.95,-1.00,-1.0,2369
2856,2137856,17940,-3328,6264,19291.37,24.91,-1.00,-1.0,2442
2858,2137858,16932,32,-1464,16995.20,24.86,-1.00,-1.0,2367
2861,2137861,17884,6248,-5644,19766.88,25.00,-1.00,-1.0,2433
2864,2137864,14364,-1640,3564,14890.14,24.95,-1.00,-1.0,2353
2869,2137869,13648,1524,4268,14380.76,24.91,-1.00,-1.0,2449
2871,2137871,15600,2668,-4252,16387.73,24.95,-1.00,-1.0,2366
2874,2137874,21880,-2476,-220,22020.75,25.00,-1.00,-1.0,2434
2877,2137877,14068,3836,1900,14704.88,24.95,-1.00,-1.0,2366
2880,2137880,15608,1456,-792,15695.76,24.91,-1.00,-1.0,2441
2882,2137882,19364,-2848,3972,19971.29,24.86,-1.00,-1.0,2367
2885,2137885,13480,4476,-5368,15184.22,24.91,-1.00,-1.0,2433
2888,2137888,16132,-664,4248,16695.14,24.95,-1.00,-1.0,2368
2893,2137893,13224,5424,-2924,14589.17,24.91,-1.00,-1.0,2456
2895,2137895,16524,-664,3856,16980.94,25.00,-1.00,-1.0,2368
2898,2137898,18668,-1824,1436,18811.79,24.91,-1.00,-1.0,2360
2901,2137901,14544,2008,-900,14709.52,24.86,-1.00,-1.0,2438
2903,2137903,16488,-188,240,16490.82,24.91,-1.00,-1.0,2368
2906,2137906,17208,-1564,-12,17278.93,24.86,-1.00,-1.0,2450
2909,2137909,15012,2284,1896,15302.67,24.91,-1.00,-1.0,2369
2912,2137912,14716,1876,-2000,14969.30,24.95,-1.00,-1.0,2433
2915,2137915,20284,-1888,5564,21117.84,24.95,-1.00,-1.0,2378
2920,2137920,16604,832,-1192,16667.51,24.95,-1.00,-1.0,2446
2923,2137923,18332,-2312,3960,18896.80,24.95,-1.00,-1.0,2383
2925,2137925,18056,4572,-5016,19289.44,24.95,-1.00,-1.0,2433
2928,2137928,16608,-1276,1804,16754.35,24.95,-1.00,-1.0,2388
2931,2137931,18268,1096,2504,18471.36,24.86,-1.00,-1.0,2426
2934,2137934,17092,3932,-1812,17631.80,24.95,-1.00,-1.0,2387
2936,2137936,18764,-2196,4256,19365.53,24.91,-1.00,-1.0,2427
2939,2137939,17468,2060,-3184,17874.91,24.95,-1.00,-1.0,2381
2944,2137944,17784,744,2108,17923.95,24.95,-1.00,-1.0,2461
2947,2137947,15292,1384,1052,15390.50,24.95,-1.00,-1.0,2374
2949,2137949,16392,1540,552,16473.43,24.91,-1.00,-1.0,2363
2952,2137952,18348,8,-1640,18421.15,25.00,-1.00,-1.0,2432
2955,2137955,13392,-472,2864,13702.95,24.91,-1.00,-1.0,2369
2958,2137958,17828,2888,-4016,18501.52,24.91,-1.00,-1.0,2432
2960,2137960,18716,-4556,4372,19752.47,24.91,-1.00,-1.0,2374
2963,2137963,13772,1556,1416,13931.77,25.00,-1.00,-1.0,2433
2966,2137966,14612,1940,-4796,15500.83,24.91,-1.00,-1.0,2368
2971,2137971,11784,3688,-1700,12464.11,24.91,-1.00,-1.0,2452
2974,2137974,16504,188,-628,16517.01,25.00,-1.00,-1.0,2365
2976,2137976,18340,-1472,2580,18578.99,25.00,-1.00,-1.0,2437
2979,2137979,14432,4312,-3396,15440.49,24.91,-1.00,-1.0,2377
2982,2137982,16876,-2192,2420,17188.97,24.91,-1.00,-1.0,2435
2985,2137985,18108,1556,976,18200.92,24.91,-1.00,-1.0,2373
2987,2137987,15888,2696,-1832,16218.91,24.91,-1.00,-1.0,2439
2990,2137990,19208,-1932,4460,19813.42,24.91,-1.00,-1.0,2371
2995,2137995,14520,5188,-3624,15839.16,24.91,-1.00,-1.0,2456
2998,2137998,19680,-3332,2848,20162.23,25.00,-1.00,-1.0,2370
3000,2138000,16388,2020,1452,16575.74,25.00,-1.00,-1.0,2362
3003,2138003,16620,1632,-3796,17125.93,24.86,-1.00,-1.0,2432
3006,2138006,20116,-3936,5560,21238.15,24.91,-1.00,-1.0,2371
3009,2138009,15024,6892,-2900,16781.84,24.95,-1.00,-1.0,2431
3011,2138011,18916,-1184,2716,19146.63,24.91,-1.00,-1.0,2374
3014,2138014,14556,-2420,1496,14831.44,24.86,-1.00,-1.0,2432
3017,2138017,16232,6464,-6936,18798.12,24.86,-1.00,-1.0,2369
3022,2138022,18416,-1648,7468,19940.81,24.86,-1.00,-1.0,2439
3025,2138025,15344,6368,-6400,17803.08,24.91,-1.00,-1.0,2368
3027,2138027,19816,-4616,4736,20890.45,24.91,-1.00,-1.0,2434
3030,2138030,15132,-716,1968,15276.23,25.00,-1.00,-1.0,2368
3033,2138033,14704,4372,-3096,15649.51,24.95,-1.00,-1.0,2418
3036,2138036,20812,-3964,4848,21733.75,24.91,-1.00,-1.0,2370
3038,2138038,15196,4908,-3272,16300.70,25.00,-1.00,-1.0,2438
3041,2138041,16312,2436,-3264,16812.77,25.00,-1.00,-1.0,2357
3046,2138046,13580,3052,-2408,14125.49,24.91,-1.00,-1.0,2456
3049,2138049,20756,448,-3676,21083.77,24.91,-1.00,-1.0,2371
3052,2138052,14892,-2920,7612,16977.65,24.91,-1.00,-1.0,2441
3054,2138054,14380,6680,-6324,17070.44,24.91,-1.00,-1.0,2379
3057,2138057,23452,-4616,7600,25081.14,24.95,-1.00,-1.0,2438
3060,2138060,12024,468,2516,12293.33,24.91,-1.00,-1.0,2370
3062,2138062,18496,4428,-5668,19845.29,25.00,-1.00,-1.0,2362
3065,2138065,18088,-5112,7080,20085.68,24.95,-1.00,-1.0,2431
3068,2138068,15608,4016,-2384,16291.76,24.95,-1.00,-1.0,2369
3073,2138073,18940,-6340,7796,21440.54,25.00,-1.00,-1.0,2443
3076,2138076,14984,5656,-5140,16820.53,24.95,-1.00,-1.0,2374
3079,2138079,20180,-780,2900,20402.22,25.00,-1.00,-1.0,2434
3081,2138081,14956,136,2312,15134.26,24.95,-1.00,-1.0,2367
3084,2138084,17744,7424,-5648,20046.58,25.00,-1.00,-1.0,2432
3087,2138087,14616,-5032,6556,16790.76,24.86,-1.00,-1.0,2359
3090,2138090,17984,4196,-4472,19000.78,24.91,-1.00,-1.0,2439
3092,2138092,21372,-1184,-292,21406.76,24.95,-1.00,-1.0,2369
3097,2138097,16536,2896,-3328,17114.37,24.91,-1.00,-1.0,2443
3100,2138100,15400,280,-1764,15503.23,24.91,-1.00,-1.0,2378
3103,2138103,17288,-1988,5968,18396.85,24.95,-1.00,-1.0,2444
3105,2138105,16660,5048,-5564,18275.56,24.91,-1.00,-1.0,2371
3108,2138108,17732,-5092,4464,18981.03,24.86,-1.00,-1.0,2446
3111,2138111,14128,908,1636,14251.36,24.91,-1.00,-1.0,2375
3114,2138114,19112,1496,-5512,19947.15,24.86,-1.00,-1.0,2440
3116,2138116,16216,-4176,9288,19148.49,24.91,-1.00,-1.0,2383
3119,2138119,17432,4496,-6352,19090.22,25.00,-1.00,-1.0,2368
3124,2138124,16376,-4856,9572,19580.02,25.00,-1.00,-1.0,2436
3127,2138127,18584,7016,-7976,21405.74,25.00,-1.00,-1.0,2382
3130,2138130,16188,-3108,7112,17952.48,25.00,-1.00,-1.0,2426
3132,2138132,14516,3372,-4740,15638.17,24.91,-1.00,-1.0,2378
3135,2138135,18900,3988,-4888,19925.03,24.91,-1.00,-1.0,2426
3138,2138138,13000,-6224,10012,17549.31,24.91,-1.00,-1.0,2375
3140,2138140,16932,7580,-9516,20849.54,25.00,-1.00,-1.0,2424
3143,2138143,21876,-3492,8012,23557.28,24.91,-1.00,-1.0,2361
3148,2138148,20260,5800,-8252,22631.90,24.95,-1.00,-1.0,2434
3151,2138151,15884,-5852,6052,17977.04,25.05,-1.00,-1.0,2379
3154,2138154,18512,4552,-1932,19161.09,24.95,-1.00,-1.0,2423
3156,2138156,18932,824,-2040,19059.41,24.86,-1.00,-1.0,2382
3159,2138159,13388,-2668,7120,15396.47,24.91,-1.00,-1.0,2425
3162,2138162,16976,7104,-8028,20077.36,25.05,-1.00,-1.0,2361
3165,2138165,16816,-4236,4580,17935.94,25.05,-1.00,-1.0,2431
3167,2138167,19888,3484,1228,20228.17,24.95,-1.00,-1.0,2382
3172,2138172,21728,-5588,9024,24181.90,25.00,-1.00,-1.0,2437
3175,2138175,10944,220,1900,11109.88,25.00,-1.00,-1.0,2375
3178,2138178,20220,3180,-7516,21804.84,24.86,-1.00,-1.0,2365
3180,2138180,18796,-3860,10412,21831.15,24.95,-1.00,-1.0,2427
3183,2138183,12876,7564,-9708,17811.53,24.95,-1.00,-1.0,2390
3186,2138186,23448,-1408,2028,23577.62,24.95,-1.00,-1.0,2427
3189,2138189,16312,1064,4364,16919.16,24.95,-1.00,-1.0,2381
3191,2138191,15324,4192,-8724,18124.73,24.91,-1.00,-1.0,2430
3194,2138194,15924,-6624,12512,21307.31,24.95,-1.00,-1.0,2377
3199,2138199,16184,-2132,2724,16549.54,24.95,-1.00,-1.0,2448
3202,2138202,16520,-5184,13108,21716.44,24.95,-1.00,-1.0,2382
3205,2138205,11592,7932,-11096,17900.06,24.95,-1.00,-1.0,2434
3207,2138207,20092,-5888,10808,23562.04,24.95,-1.00,-1.0,2383
3210,2138210,17768,6112,-8088,20456.64,24.91,-1.00,-1.0,2436
3213,2138213,18332,4044,-7864,20353.35,24.95,-1.00,-1.0,2380
3216,2138216,19544,-4748,11312,23075.37,24.91,-1.00,-1.0,2447
3218,2138218,14580,7128,-10560,19362.29,24.95,-1.00,-1.0,2375
3223,2138223,16260,-800,3456,16642.46,24.86,-1.00,-1.0,2454
3226,2138226,17992,3424,-8088,20021.28,24.95,-1.00,-1.0,2372
3229,2138229,15296,-6092,10136,19334.39,24.91,-1.00,-1.0,2435
3232,2138232,16288,6180,-6960,18759.88,24.95,-1.00,-1.0,2373
3234,2138234,21852,-780,4600,22344.54,25.00,-1.00,-1.0,2458
3237,2138237,13100,648,4180,13765.98,24.91,-1.00,-1.0,2353
3240,2138240,19020,3760,-8364,21115.27,24.95,-1.00,-1.0,2438
3243,2138243,15376,-5360,8944,18578.11,24.91,-1.00,-1.0,2365
3245,2138245,15236,6072,-5088,17172.44,24.95,-1.00,-1.0,2365
3250,2138250,14596,-4000,11324,18901.75,24.91,-1.00,-1.0,2446
3253,2138253,17112,5080,-6800,19101.49,24.91,-1.00,-1.0,2365
3256,2138256,19152,-2052,4416,19761.35,24.86,-1.00,-1.0,2442
3258,2138258,14168,380,2664,14421.29,24.95,-1.00,-1.0,2363
3261,2138261,18176,3296,-6176,19477.51,24.95,-1.00,-1.0,2438
3264,2138264,18632,-2048,9208,20883.80,24.95,-1.00,-1.0,2381
3267,2138267,14800,5104,-8052,17604.70,24.95,-1.00,-1.0,2436
3269,2138269,18972,-2700,7192,20468.31,24.95,-1.00,-1.0,2371
3275,2138275,19512,2756,-384,19709.42,24.95,-1.00,-1.0,2450
3278,2138278,15572,-6000,11944,20521.85,24.91,-1.00,-1.0,2380
3281,2138281,19020,6268,-11008,22852.23,25.00,-1.00,-1.0,2435
3283,2138283,16080,-4668,7732,18442.90,24.91,-1.00,-1.0,2381
3286,2138286,14904,3648,-4760,16065.33,24.91,-1.00,-1.0,2436
3289,2138289,22196,4980,-7064,23819.38,24.91,-1.00,-1.0,2375
3292,2138292,14800,-4200,12064,19550.45,25.00,-1.00,-1.0,2455
3294,2138294,15784,6716,-12964,21501.27,25.00,-1.00,-1.0,2368
3299,2138299,13216,660,1276,13293.85,24.86,-1.00,-1.0,2449
3302,2138302,16588,3188,-4824,17566.90,24.95,-1.00,-1.0,2365
3305,2138305,16908,-4112,10100,20119.62,24.95,-1.00,-1.0,2443
3307,2138307,15596,5328,-7592,18145.56,24.95,-1.00,-1.0,2365
3310,2138310,14976,-4604,8212,17689.38,24.95,-1.00,-1.0,2359
3313,2138313,15168,-988,4640,15892.58,25.00,-1.00,-1.0,2443
3315,2138315,16984,3644,-9188,19650.81,24.95,-1.00,-1.0,2365
3318,2138318,16396,-3788,11756,20527.57,24.91,-1.00,-1.0,2448
3321,2138321,20216,5352,-11404,23819.78,24.95,-1.00,-1.0,2365
3326,2138326,16892,2256,2092,17169.91,24.86,-1.00,-1.0,2444
3329,2138329,16932,5704,-9484,20228.06,24.95,-1.00,-1.0,2366
3331,2138331,16324,-4504,11080,20236.73,24.91,-1.00,-1.0,2435
3334,2138334,19268,4876,-10072,22281.75,24.95,-1.00,-1.0,2365
3337,2138337,13976,-3788,5480,15482.50,25.00,-1.00,-1.0,2436
3340,2138340,18576,-2152,7836,20275.64,24.95,-1.00,-1.0,2366
3342,2138342,20232,6608,-8580,22948.11,24.86,-1.00,-1.0,2435
3345,2138345,10028,-5620,12376,16891.14,24.95,-1.00,-1.0,2365
3350,2138350,11604,-2236,1616,11927.45,24.95,-1.00,-1.0,2444
3353,2138353,16212,-304,3040,16497.36,24.95,-1.00,-1.0,2369
3356,2138356,18348,6452,-12068,22889.17,24.95,-1.00,-1.0,2434
3358,2138358,12892,-4636,11160,17670.36,25.05,-1.00,-1.0,2368
3361,2138361,21024,4312,-10508,23896.03,24.95,-1.00,-1.0,2436
3364,2138364,14972,-5128,7476,17502.79,24.95,-1.00,-1.0,2370
3367,2138367,15468,-192,4424,16089.37,24.95,-1.00,-1.0,2442
3369,2138369,17852,5380,-6104,19618.79,24.95,-1.00,-1.0,2365
3374,2138374,18252,2992,-6472,19595.26,24.95,-1.00,-1.0,2451
3377,2138377,15400,-2204,4016,16066.92,24.91,-1.00,-1.0,2359
3380,2138380,13752,-1304,4796,14622.57,24.95,-1.00,-1.0,2361
3382,2138382,19852,5452,-6288,21525.92,24.91,-1.00,-1.0,2424
3385,2138385,15212,-4040,11396,19431.81,24.95,-1.00,-1.0,2365
3388,2138388,20120,5464,-11608,23862.43,25.00,-1.00,-1.0,2438
3391,2138391,15116,-2196,2768,15523.46,24.95,-1.00,-1.0,2364
3393,2138393,16776,2304,-720,16948.78,24.91,-1.00,-1.0,2437
3396,2138396,15744,676,1172,15802.03,25.05,-1.00,-1.0,2376
3401,2138401,18132,5044,-11668,22143.93,24.95,-1.00,-1.0,2446
3404,2138404,12420,-5320,11292,17608.75,24.95,-1.00,-1.0,2375
3407,2138407,18400,760,460,18421.43,24.95,-1.00,-1.0,2422
3409,2138409,13928,2692,-1472,14261.94,24.95,-1.00,-1.0,2380
3412,2138412,14940,-324,5884,16060.20,24.86,-1.00,-1.0,2430
3415,2138415,23436,4176,-5804,24502.48,24.95,-1.00,-1.0,2372
3418,2138418,11968,-4636,9420,15920.49,24.95,-1.00,-1.0,2436
3420,2138420,19784,4244,-7832,21696.97,24.95,-1.00,-1.0,2380
3425,2138425,13372,-1208,7880,15568.05,24.95,-1.00,-1.0,2442
3428,2138428,21592,4900,-6348,23033.05,24.91,-1.00,-1.0,2386
3431,2138431,16144,-3152,8032,18305.11,24.95,-1.00,-1.0,2435
3434,2138434,18996,3044,-5236,19938.15,24.86,-1.00,-1.0,2381
3436,2138436,18988,-192,3776,19360.76,24.86,-1.00,-1.0,2436
3439,2138439,11620,1044,-576,11681.01,24.86,-1.00,-1.0,2386
3442,2138442,25368,5720,-6280,26752.42,24.95,-1.00,-1.0,2360
3444,2138444,12804,-3724,8612,15873.79,24.91,-1.00,-1.0,2429
3447,2138447,15308,4328,-7976,17795.59,24.86,-1.00,-1.0,2372
3452,2138452,11232,308,-1344,11316.32,24.95,-1.00,-1.0,2444
3455,2138455,18656,-1140,228,18692.19,24.95,-1.00,-1.0,2373
3458,2138458,13484,-4532,7244,15963.48,25.00,-1.00,-1.0,2437
3460,2138460,16216,5140,-9820,19642.06,24.95,-1.00,-1.0,2379
3463,2138463,16696,-2976,10548,19971.81,24.91,-1.00,-1.0,2429
3466,2138466,20936,4552,-7940,22849.08,24.95,-1.00,-1.0,2373
3469,2138469,15560,616,260,15574.36,24.91,-1.00,-1.0,2437
3471,2138471,15728,12,1924,15845.25,24.95,-1.00,-1.0,2383
3476,2138476,14728,-4712,11792,19446.55,25.00,-1.00,-1.0,2436
3479,2138479,19360,6468,-10100,22773.99,25.00,-1.00,-1.0,2374
3482,2138482,16968,916,-2652,17198.41,24.91,-1.00,-1.0,2426
3484,2138484,13640,-1800,5464,14803.54,24.91,-1.00,-1.0,2374
3487,2138487,20980,4276,-6512,22379.70,24.91,-1.00,-1.0,2430
3490,2138490,14104,-2624,10784,17947.22,25.00,-1.00,-1.0,2374
3493,2138493,20312,6864,-10516,23880.50,24.91,-1.00,-1.0,2442
3495,2138495,16896,-3668,10240,20094.44,24.91,-1.00,-1.0,2367
3498,2138498,16356,3808,-6536,18020.51,25.00,-1.00,-1.0,2360
3503,2138503,15036,-3940,11852,19546.73,24.91,-1.00,-1.0,2448
3506,2138506,18628,7152,-9800,22230.46,24.91,-1.00,-1.0,2364
3508,2138508,16012,-5344,10544,19902.72,24.86,-1.00,-1.0,2437
3511,2138511,19760,4636,-9116,22249.75,24.91,-1.00,-1.0,2365
3514,2138514,13896,-3296,4712,15038.80,24.91,-1.00,-1.0,2437
3517,2138517,15968,-4608,12012,20506.07,25.00,-1.00,-1.0,2363
3519,2138519,21904,8008,-12296,26364.84,24.95,-1.00,-1.0,2440
3522,2138522,11908,-5028,16112,20656.18,25.00,-1.00,-1.0,2365
3527,2138527,15252,-3812,4840,16449.33,24.91,-1.00,-1.0,2444
3530,2138530,15916,364,-3396,16278.34,25.00,-1.00,-1.0,2367
3533,2138533,19604,7604,-12608,24517.33,24.91,-1.00,-1.0,2436
3535,2138535,15272,-4908,14704,21760.75,24.91,-1.00,-1.0,2367
3538,2138538,21916,8604,-10760,25886.63,25.00,-1.00,-1.0,2438
3541,2138541,11968,-4552,14016,18984.26,24.91,-1.00,-1.0,2366
3544,2138544,18488,1656,-4860,19187.71,24.91,-1.00,-1.0,2444
3546,2138546,15840,-1284,852,15914.78,24.91,-1.00,-1.0,2368
3551,2138551,21276,8612,-13368,26561.97,24.91,-1.00,-1.0,2455
3554,2138554,14028,-4644,15728,21580.58,24.91,-1.00,-1.0,2372
3557,2138557,20876,9760,-11596,25797.91,24.91,-1.00,-1.0,2437
3560,2138560,16540,-1808,2644,16847.29,24.91,-1.00,-1.0,2365
3562,2138562,15976,428,412,15987.04,24.91,-1.00,-1.0,2424
3565,2138565,17292,1016,-4996,18027.91,24.91,-1.00,-1.0,2379
3568,2138568,15076,-4264,7292,17281.22,24.91,-1.00,-1.0,2439
3571,2138571,19812,8448,-12240,24773.00,25.00,-1.00,-1.0,2383
3573,2138573,14344,-5568,12100,19574.55,24.95,-1.00,-1.0,2368
3578,2138578,16040,1068,-2972,16347.94,25.09,-1.00,-1.0,2447
3581,2138581,16688,-4092,5268,17971.80,25.00,-1.00,-1.0,2374
3584,2138584,18040,3292,-10052,20912.23,24.95,-1.00,-1.0,2421
3586,2138586,15060,-3884,12052,19675.87,25.00,-1.00,-1.0,2379
3589,2138589,22352,6236,-9404,25038.67,24.95,-1.00,-1.0,2429
3592,2138592,11848,-4212,9460,15735.55,24.91,-1.00,-1.0,2359
3595,2138595,19136,-2412,1816,19372.71,24.86,-1.00,-1.0,2436
3597,2138597,18232,3076,-6212,19505.29,24.91,-1.00,-1.0,2380
3602,2138602,24864,8536,-10208,28200.80,24.91,-1.00,-1.0,2438
3605,2138605,9524,-5252,11288,15675.11,25.00,-1.00,-1.0,2372
3608,2138608,19212,7408,-8664,22339.30,25.00,-1.00,-1.0,2434
3610,2138610,17724,2024,-5616,18702.30,25.00,-1.00,-1.0,2371
3613,2138613,8536,-5684,7704,12826.64,24.91,-1.00,-1.0,2442
3616,2138616,23356,4500,-10692,26078.18,25.00,-1.00,-1.0,2372
3619,2138619,15020,-4444,11360,19349.40,24.91,-1.00,-1.0,2435
3621,2138621,19660,8224,-9884,23491.34,24.91,-1.00,-1.0,2375
3626,2138626,13388,-3444,4144,14431.65,24.86,-1.00,-1.0,2440
3629,2138629,21056,4860,-7704,22941.80,24.95,-1.00,-1.0,2360
3632,2138632,12700,-4168,9976,16678.81,24.91,-1.00,-1.0,2429
3635,2138635,18576,5828,-9448,21640.20,24.95,-1.00,-1.0,2371
3637,2138637,15268,-4368,10292,18923.97,24.95,-1.00,-1.0,2430
3640,2138640,17792,6060,-8520,20636.60,24.86,-1.00,-1.0,2372
3643,2138643,16192,-2860,7708,18159.67,25.00,-1.00,-1.0,2368
3646,2138646,12804,-2968,8456,15628.67,24.91,-1.00,-1.0,2428
3648,2138648,18936,5196,-8524,21406.29,25.00,-1.00,-1.0,2372
3653,2138653,17208,7380,-9308,20909.77,24.95,-1.00,-1.0,2423
3656,2138656,17200,-2716,10660,20416.96,24.95,-1.00,-1.0,2371
3659,2138659,21108,4072,-6732,22526.62,24.86,-1.00,-1.0,2428
3661,2138661,17916,4668,-6800,19723.42,24.95,-1.00,-1.0,2375
3664,2138664,17072,-3376,8824,19511.88,24.95,-1.00,-1.0,2417
3667,2138667,19484,5480,-10096,22618.26,24.95,-1.00,-1.0,2375
3670,2138670,10836,-4644,12956,17516.95,24.91,-1.00,-1.0,2455
3672,2138672,23060,5544,-9820,25669.67,24.95,-1.00,-1.0,2372
3677,2138677,16148,-2624,6840,17732.14,24.91,-1.00,-1.0,2440
3680,2138680,21780,5568,-8432,24009.78,24.91,-1.00,-1.0,2372
3683,2138683,11140,-4116,11380,16448.27,25.00,-1.00,-1.0,2437
3685,2138685,23396,6596,-12016,27115.76,24.91,-1.00,-1.0,2372
3688,2138688,13156,-6192,10744,18079.12,25.00,-1.00,-1.0,2428
3691,2138691,19016,5620,-8364,21520.90,24.86,-1.00,-1.0,2445
3694,2138694,16628,-1608,5708,17653.82,24.91,-1.00,-1.0,2424
3697,2138697,14668,96,-2448,14871.18,24.95,-1.00,-1.0,2380
3701,2138701,12284,-5032,12672,18352.04,24.81,-1.00,-1.0,2430
3704,2138704,20612,7288,-10680,24331.71,24.91,-1.00,-1.0,2373
3707,2138707,15616,-5104,8492,18493.90,24.91,-1.00,-1.0,2425
3710,2138710,18352,2412,-4608,19074.78,24.91,-1.00,-1.0,2378
3712,2138712,19148,6820,-12408,23814.21,24.91,-1.00,-1.0,2364
3715,2138715,14596,-5108,13872,20774.20,24.86,-1.00,-1.0,2422
3718,2138718,21920,7940,-13472,26926.29,24.91,-1.00,-1.0,2383
3721,2138721,11416,-7156,15828,20786.03,24.86,-1.00,-1.0,2425
3723,2138723,19424,4152,-8160,21473.62,24.91,-1.00,-1.0,2375
3728,2138728,15008,-5164,15380,22100.94,25.00,-1.00,-1.0,2433
3731,2138731,19968,8340,-13828,25680.54,24.91,-1.00,-1.0,2375
3734,2138734,11800,-6308,13352,18902.56,24.91,-1.00,-1.0,2424
3736,2138736,19804,4656,-6280,21291.20,25.00,-1.00,-1.0,2375
3739,2138739,12704,-2428,6104,14301.94,24.81,-1.00,-1.0,2424
3742,2138742,18384,-72,-2088,18502.33,25.00,-1.00,-1.0,2377
3745,2138745,18500,-40,-3968,18920.80,25.00,-1.00,-1.0,2432
3747,2138747,11752,-4660,12900,18061.98,25.00,-1.00,-1.0,2373
3752,2138752,12252,-4280,5468,14082.93,24.91,-1.00,-1.0,2435
3755,2138755,18716,1092,-6528,19851.85,24.86,-1.00,-1.0,2382
3758,2138758,18208,-488,1712,18294.82,24.91,-1.00,-1.0,2428
3761,2138761,10528,-544,3080,10982.76,24.86,-1.00,-1.0,2377
3763,2138763,25704,8856,-11812,29641.99,24.91,-1.00,-1.0,2412
3766,2138766,9020,-6068,13892,17639.97,24.86,-1.00,-1.0,2390
3769,2138769,20900,9760,-12880,26418.97,25.00,-1.00,-1.0,2426
3772,2138772,18240,-4372,15380,24256.06,24.95,-1.00,-1.0,2390
3777,2138777,22744,1616,-4964,23335.43,25.00,-1.00,-1.0,2445
3779,2138779,8792,-7104,16220,19770.04,24.95,-1.00,-1.0,2371
3782,2138782,22408,10604,-13976,28458.60,24.91,-1.00,-1.0,2362
3785,2138785,15024,-6656,15192,22379.00,24.91,-1.00,-1.0,2431
3787,2138787,15472,-904,-2544,15705.79,24.81,-1.00,-1.0,2374
3790,2138790,21176,2252,-3516,21583.71,24.91,-1.00,-1.0,2433
3793,2138793,11712,-1968,7540,14067.54,24.91,-1.00,-1.0,2371
3796,2138796,18348,4828,-6884,20182.87,24.91,-1.00,-1.0,2440
3798,2138798,13120,-6404,12636,19308.39,24.91,-1.00,-1.0,2370
3803,2138803,18524,804,-904,18563.46,24.91,-1.00,-1.0,2449
3806,2138806,13188,-1984,4676,14132.39,25.00,-1.00,-1.0,2375
3809,2138809,19812,3300,-4780,20645.91,24.91,-1.00,-1.0,2432
3812,2138812,15628,-1508,7120,17239.57,24.91,-1.00,-1.0,2365
3814,2138814,20936,8184,-13256,26096.27,24.91,-1.00,-1.0,2436
3817,2138817,14660,-4860,14824,21407.62,24.91,-1.00,-1.0,2383
3820,2138820,21060,7084,-11652,25089.36,24.91,-1.00,-1.0,2432
3823,2138823,12380,-6264,10304,17282.20,24.91,-1.00,-1.0,2385
3828,2138828,19184,2840,-6464,20441.98,24.81,-1.00,-1.0,2446
3830,2138830,14272,-6808,16076,22549.43,24.91,-1.00,-1.0,2375
3833,2138833,21484,9064,-15376,27930.98,24.91,-1.00,-1.0,2435
3836,2138836,13780,-6376,13880,20571.73,24.91,-1.00,-1.0,2353
3839,2138839,19688,6788,-10080,23136.57,24.91,-1.00,-1.0,2444
3841,2138841,20184,3400,-5340,21153.47,24.91,-1.00,-1.0,2377
3844,2138844,14496,-2396,8156,16804.62,24.91,-1.00,-1.0,2442
3847,2138847,18508,4848,-10152,21659.00,24.91,-1.00,-1.0,2371
3852,2138852,20216,7172,-11188,24192.88,25.00,-1.00,-1.0,2458
3855,2138855,14832,-3524,8740,17572.55,25.00,-1.00,-1.0,2368
3857,2138857,13724,-1960,5800,15027.63,24.91,-1.00,-1.0,2441
3860,2138860,20340,3120,-5984,21430.31,24.91,-1.00,-1.0,2375
3863,2138863,14360,-3860,8468,17111.87,24.91,-1.00,-1.0,2361
3865,2138865,21032,6908,-11720,25048.43,24.95,-1.00,-1.0,2434
3868,2138868,12796,-6028,13180,19333.57,25.00,-1.00,-1.0,2355
3871,2138871,23384,6392,-10048,26241.79,24.95,-1.00,-1.0,2432
3874,2138874,11820,-4884,8748,15494.95,24.91,-1.00,-1.0,2371
3878,2138878,20196,4216,-9492,22710.15,24.95,-1.00,-1.0,2446
3881,2138881,12540,-7104,14724,20603.75,24.95,-1.00,-1.0,2368
3884,2138884,23444,7372,-14488,28528.40,24.95,-1.00,-1.0,2431
3887,2138887,10856,-6668,12056,17540.30,24.91,-1.00,-1.0,2367
3889,2138889,20352,5628,-9232,23045.78,24.95,-1.00,-1.0,2434
3892,2138892,18440,3768,-6420,19885.87,24.95,-1.00,-1.0,2371
3895,2138895,10768,-4244,9368,14890.29,24.95,-1.00,-1.0,2431
3898,2138898,24296,6656,-12748,28233.13,24.91,-1.00,-1.0,2367
3903,2138903,21316,6972,-11232,25082.63,25.09,-1.00,-1.0,2450
3905,2138905,15436,-4752,8868,18425.34,24.86,-1.00,-1.0,2371
3908,2138908,13572,-2048,6784,15310.65,24.95,-1.00,-1.0,2433
3911,2138911,20564,4948,-8212,22689.15,24.95,-1.00,-1.0,2370
3914,2138914,13156,-4760,10960,17772.44,24.95,-1.00,-1.0,2435
3916,2138916,21176,7340,-11892,25371.60,25.05,-1.00,-1.0,2376
3919,2138919,14144,-5360,12676,19734.82,24.95,-1.00,-1.0,2433
3922,2138922,19236,7196,-9476,22618.59,24.95,-1.00,-1.0,2372
3927,2138927,14712,-2532,7356,16642.26,24.86,-1.00,-1.0,2450
3930,2138930,17280,5664,-9064,20318.35,24.91,-1.00,-1.0,2373
3932,2138932,14028,-5448,13176,20001.81,24.95,-1.00,-1.0,2442
3935,2138935,19888,8688,-13136,25368.65,24.95,-1.00,-1.0,2381
3938,2138938,9304,-6800,13204,17525.70,24.95,-1.00,-1.0,2360
3940,2138940,23392,7188,-11008,26833.36,24.91,-1.00,-1.0,2435
3943,2138943,17316,2772,-6652,18755.72,24.95,-1.00,-1.0,2367
3946,2138946,14784,-3976,10532,18582.20,24.91,-1.00,-1.0,2433
3949,2138949,22008,8408,-14200,27507.94,24.95,-1.00,-1.0,2367
3954,2138954,24648,7484,-10548,27835.13,24.91,-1.00,-1.0,2447
3956,2138956,11248,-6140,10784,16748.48,25.05,-1.00,-1.0,2376
3959,2138959,16372,-2540,6120,17662.06,24.95,-1.00,-1.0,2442
3962,2138962,20484,6688,-10340,23900.61,24.95,-1.00,-1.0,2373
3965,2138965,11820,-5152,14252,19219.13,25.05,-1.00,-1.0,2444
3967,2138967,22384,7060,-12172,26439.45,24.95,-1.00,-1.0,2375
3970,2138970,12332,-6220,9856,16967.83,24.95,-1.00,-1.0,2441
3973,2138973,18548,6436,-12072,23047.42,24.86,-1.00,-1.0,2370
3978,2138978,12980,-3412,10380,16966.63,24.86,-1.00,-1.0,2456
3980,2138980,20228,7260,-12800,25014.39,24.91,-1.00,-1.0,2368
3983,2138983,12564,-5916,14068,19767.70,24.95,-1.00,-1.0,2442
3986,2138986,19892,8304,-12312,24824.05,25.00,-1.00,-1.0,2367
3989,2138989,13760,-5952,13088,19901.25,24.95,-1.00,-1.0,2442
3991,2138991,18864,5512,-10720,22386.40,25.00,-1.00,-1.0,2368
3994,2138994,15272,-4024,7128,17327.29,24.95,-1.00,-1.0,2445
3997,2138997,13212,-6168,13752,20042.92,24.91,-1.00,-1.0,2368
4002,2139002,12996,-6076,11432,18344.06,24.91,-1.00,-1.0,2441
4005,2139005,20704,6448,-10056,23903.04,24.91,-1.00,-1.0,2369
4007,2139007,13232,-4088,10212,17207.05,24.91,-1.00,-1.0,2431
4010,2139010,13780,-4472,10004,17605.88,24.91,-1.00,-1.0,2367
4013,2139013,19752,6720,-14300,25294.07,25.00,-1.00,-1.0,2433
4016,2139016,12940,-6216,14844,20650.10,24.91,-1.00,-1.0,2368
4018,2139018,25244,8320,-14656,30352.60,24.91,-1.00,-1.0,2432
4021,2139021,12568,-5676,10648,17422.73,25.00,-1.00,-1.0,2367
4024,2139024,19512,4600,-9628,22239.08,24.95,-1.00,-1.0,2367
4029,2139029,10812,-7408,15784,20516.15,24.91,-1.00,-1.0,2449
4031,2139031,28068,10720,-17752,34897.91,24.91,-1.00,-1.0,2368
4034,2139034,10040,-7508,12812,17925.37,24.95,-1.00,-1.0,2432
4037,2139037,21800,6044,-9676,24604.77,25.00,-1.00,-1.0,2354
4040,2139040,15932,-2012,8820,18321.28,25.00,-1.00,-1.0,2441
4042,2139042,12704,1276,-4468,13527.11,24.91,-1.00,-1.0,2371
4045,2139045,28648,8244,-17784,34712.28,24.91,-1.00,-1.0,2433
4048,2139048,7608,-7616,19784,22523.14,25.00,-1.00,-1.0,2370
4053,2139053,16016,-7916,12460,21781.34,24.91,-1.00,-1.0,2454
4056,2139056,13556,3936,-9244,16873.31,24.91,-1.00,-1.0,2377
4058,2139058,20452,-2200,3232,20822.35,24.91,-1.00,-1.0,2433
4061,2139061,7784,-8964,23956,26736.38,25.00,-1.00,-1.0,2373
4064,2139064,27120,15592,-23776,39292.53,24.91,-1.00,-1.0,2434
4067,2139067,8064,-12208,27136,30828.98,24.91,-1.00,-1.0,2372
4069,2139069,24704,13984,-23976,37157.62,24.91,-1.00,-1.0,2440
4072,2139072,18120,232,2168,18250.71,24.91,-1.00,-1.0,2370
4078,2139078,23928,5156,-11728,27141.84,25.00,-1.00,-1.0,2449
4080,2139080,10208,-6496,15360,19553.28,24.91,-1.00,-1.0,2368
4083,2139083,24580,11324,-18260,32647.16,24.86,-1.00,-1.0,2433
4086,2139086,13496,-8288,19784,25342.45,25.00,-1.00,-1.0,2367
4089,2139089,20848,6736,-15976,27115.41,24.95,-1.00,-1.0,2441
4091,2139091,12324,-6544,12148,18500.78,24.91,-1.00,-1.0,2369
4094,2139094,16216,4056,-7556,18344.02,24.95,-1.00,-1.0,2433
4097,2139097,24956,8144,-15420,30445.08,24.91,-1.00,-1.0,2373
4102,2139102,22024,10828,-18380,30661.48,24.86,-1.00,-1.0,2449
4104,2139104,12468,-7612,16628,22133.32,24.86,-1.00,-1.0,2367
4107,2139107,16872,4044,-8168,19176.41,24.95,-1.00,-1.0,2435
4110,2139110,23268,9608,-17444,30626.89,24.95,-1.00,-1.0,2366
4113,2139113,7468,-7128,21408,23767.24,24.91,-1.00,-1.0,2362
4115,2139115,29804,12892,-20156,38219.71,24.91,-1.00,-1.0,2444
4118,2139118,12012,-5888,14896,20021.18,25.00,-1.00,-1.0,2375
4121,2139121,17212,3064,-8996,19661.36,24.91,-1.00,-1.0,2436
4123,2139123,21444,-1212,2112,21581.81,24.91,-1.00,-1.0,2367
4128,2139128,29500,11560,-20340,37651.02,24.95,-1.00,-1.0,2444
4131,2139131,8504,-10360,22180,25915.25,24.86,-1.00,-1.0,2368
4134,2139134,14784,4260,-9320,17988.24,24.91,-1.00,-1.0,2433
4137,2139137,21980,-2596,3300,22377.44,24.86,-1.00,-1.0,2366
4139,2139139,11200,-564,5768,12610.63,25.00,-1.00,-1.0,2435
4142,2139142,22992,6536,-11112,26359.59,24.95,-1.00,-1.0,2354
4145,2139145,9972,-12092,24476,29064.27,24.95,-1.00,-1.0,2430
4148,2139148,22208,13284,-23548,34988.12,24.95,-1.00,-1.0,2374
4153,2139153,13652,-912,7000,15369.09,24.95,-1.00,-1.0,2434
4155,2139155,23300,7132,-14408,28308.05,25.00,-1.00,-1.0,2363
4158,2139158,8592,-5732,18612,21285.79,24.95,-1.00,-1.0,2426
4161,2139161,22440,10020,-21396,32584.39,24.86,-1.00,-1.0,2374
4164,2139164,12672,-8152,17944,23431.21,24.95,-1.00,-1.0,2431
4166,2139166,18176,5924,-13820,23589.26,25.00,-1.00,-1.0,2382
4169,2139169,17456,-4376,8176,19766.34,24.86,-1.00,-1.0,2426
4172,2139172,9896,-6416,19844,23084.20,24.95,-1.00,-1.0,2375
4177,2139177,13404,-7396,16888,22794.13,25.05,-1.00,-1.0,2455
4180,2139180,16076,5072,-12084,20740.93,24.91,-1.00,-1.0,2366
4182,2139182,20156,-5028,7436,22064.43,24.95,-1.00,-1.0,2436
4185,2139185,11992,652,-1828,12148.04,24.95,-1.00,-1.0,2373
4188,2139188,25696,12036,-24488,37480.82,24.95,-1.00,-1.0,2360
4190,2139190,10360,-11244,24696,29045.65,25.00,-1.00,-1.0,2422
4193,2139193,25044,14032,-22940,36747.01,24.95,-1.00,-1.0,2367
4196,2139196,19408,-3532,3060,19962.69,25.00,-1.00,-1.0,2433
4199,2139199,14440,-1712,1488,14617.07,24.95,-1.00,-1.0,2389
4204,2139204,12276,-10336,25120,29808.51,24.95,-1.00,-1.0,2437
4206,2139206,24952,12432,-22844,36041.71,24.95,-1.00,-1.0,2374
4209,2139209,10212,-10128,22296,26532.49,25.05,-1.00,-1.0,2434
4212,2139212,14636,-752,5284,15578.79,24.86,-1.00,-1.0,2367
4215,2139215,23136,5664,-11208,26324.41,24.86,-1.00,-1.0,2435
4217,2139217,7388,-5648,17908,20178.67,25.05,-1.00,-1.0,2374
4220,2139220,27736,11584,-21388,36890.67,25.00,-1.00,-1.0,2434
4223,2139223,12788,-8072,19016,24296.06,24.95,-1.00,-1.0,2368
4228,2139228,21464,7308,-13880,26585.04,24.86,-1.00,-1.0,2452
4231,2139231,9432,-7996,18680,22401.81,24.95,-1.00,-1.0,2382
4233,2139233,26524,11576,-21992,36347.96,24.95,-1.00,-1.0,2434
4236,2139236,9176,-9508,22156,25797.08,24.95,-1.00,-1.0,2375
4239,2139239,17708,4088,-6832,19415.49,24.95,-1.00,-1.0,2432
4242,2139242,18604,-1432,3272,18943.74,24.86,-1.00,-1.0,2373
4244,2139244,12740,88,2356,12956.31,24.95,-1.00,-1.0,2440
4247,2139247,24264,4728,-7652,25877.57,24.95,-1.00,-1.0,2369
4252,2139252,23808,10452,-21288,33604.23,24.95,-1.00,-1.0,2455
4255,2139255,18144,-1548,1348,18259.74,24.95,-1.00,-1.0,2376
4258,2139258,14892,-424,5428,15856.06,24.86,-1.00,-1.0,2441
4260,2139260,24852,4928,-10460,27410.19,25.05,-1.00,-1.0,2378
4263,2139263,6332,-5996,18044,20040.76,24.86,-1.00,-1.0,2439
4266,2139266,22292,10752,-21656,32886.49,24.95,-1.00,-1.0,2373
4269,2139269,12152,-9012,17008,22763.11,24.91,-1.00,-1.0,2452
4271,2139271,16740,5580,-9232,19914.66,24.95,-1.00,-1.0,2382
4274,2139274,20896,7528,-15584,27132.54,25.00,-1.00,-1.0,2366
4279,2139279,18208,7328,-15996,25320.01,24.95,-1.00,-1.0,2450
4281,2139281,12680,-5448,13712,19454.62,24.91,-1.00,-1.0,2367
4284,2139284,18432,4836,-6420,20108.26,24.95,-1.00,-1.0,2448
4287,2139287,21384,356,2320,21512.43,24.95,-1.00,-1.0,2366
4290,2139290,11716,-6512,21056,24960.49,25.05,-1.00,-1.0,2441
4292,2139292,26812,9828,-19672,34676.51,24.91,-1.00,-1.0,2367
4295,2139295,10800,-8892,19640,24113.01,24.86,-1.00,-1.0,2439
4298,2139298,16920,9756,-20212,28106.78,24.95,-1.00,-1.0,2371
4303,2139303,9856,-9428,24124,27712.73,24.95,-1.00,-1.0,2450
4306,2139306,23808,12076,-23024,35252.73,25.05,-1.00,-1.0,2374
4308,2139308,13952,-10844,20672,27195.26,24.91,-1.00,-1.0,2442
4311,2139311,16580,8860,-16260,24855.25,24.95,-1.00,-1.0,2380
4314,2139314,23016,3968,-7896,24654.17,25.00,-1.00,-1.0,2434
4317,2139317,12596,-4456,12636,18389.77,25.05,-1.00,-1.0,2394
4319,2139319,20952,8104,-20088,30136.17,25.00,-1.00,-1.0,2434
4322,2139322,11440,-8148,21640,25798.32,24.91,-1.00,-1.0,2355
4327,2139327,17124,-3788,7232,18970.56,24.86,-1.00,-1.0,2444
4330,2139330,14268,1680,-1860,14486.47,24.95,-1.00,-1.0,2367
4333,2139333,22840,8980,-16860,29775.25,24.95,-1.00,-1.0,2440
4335,2139335,12268,-7360,20200,24753.05,24.95,-1.00,-1.0,2366
4338,2139338,21392,10036,-19496,30633.85,24.95,-1.00,-1.0,2441
4341,2139341,12428,-8392,19620,24694.64,24.95,-1.00,-1.0,2373
4344,2139344,14572,2136,2664,14966.72,24.95,-1.00,-1.0,2441
4346,2139346,20836,3148,-5860,21872.09,24.95,-1.00,-1.0,2377
4351,2139351,19328,9908,-20012,29533.38,24.95,-1.00,-1.0,2422
4354,2139354,14600,-7444,18128,24437.62,24.91,-1.00,-1.0,2446
4357,2139357,13868,6416,-10616,18606.07,24.91,-1.00,-1.0,2417
4360,2139360,25244,7468,-12208,29018.37,25.00,-1.00,-1.0,2424
4363,2139363,9592,-5552,17852,21012.50,24.91,-1.00,-1.0,2378
4365,2139365,22400,10324,-19372,31362.71,25.00,-1.00,-1.0,2423
4368,2139368,15012,-9052,20980,27339.70,25.00,-1.00,-1.0,2383
4371,2139371,11000,3976,-4436,12509.46,25.00,-1.00,-1.0,2422
4374,2139374,22416,-1648,-1020,22499.63,24.91,-1.00,-1.0,2382
4379,2139379,18020,10600,-19908,28868.82,24.91,-1.00,-1.0,2451
4381,2139381,17684,-7992,20112,27947.96,24.91,-1.00,-1.0,2370
4384,2139384,14616,6708,-16124,22772.97,25.00,-1.00,-1.0,2445
4387,2139387,24524,4556,-7412,26021.56,24.91,-1.00,-1.0,2369
4390,2139390,10356,-4836,13684,17829.34,24.81,-1.00,-1.0,2444
4392,2139392,20952,8156,-16904,28129.20,24.91,-1.00,-1.0,2376
4395,2139395,16456,-7940,19348,26611.81,24.91,-1.00,-1.0,2441
4398,2139398,11748,3324,-9036,15189.27,25.00,-1.00,-1.0,2370
4403,2139403,8492,-6900,16520,19815.01,25.00,-1.00,-1.0,2453
4405,2139405,22280,8516,-18508,30190.51,24.95,-1.00,-1.0,2368
4408,2139408,15692,-6720,18224,24970.21,25.09,-1.00,-1.0,2449
4411,2139411,16012,7732,-14216,22765.38,24.91,-1.00,-1.0,2368
4414,2139414,23012,2484,-1136,23173.54,24.91,-1.00,-1.0,2442
4416,2139416,9764,-1600,7340,12319.55,24.91,-1.00,-1.0,2369
4419,2139419,23888,5440,-11588,27101.88,24.91,-1.00,-1.0,2446
4422,2139422,14908,-4252,15608,21998.58,24.91,-1.00,-1.0,2367
4427,2139427,22896,-5244,8464,24967.29,24.86,-1.00,-1.0,2438
4430,2139430,9400,-4420,11868,15771.68,24.95,-1.00,-1.0,2368
4432,2139432,24032,8400,-14580,29337.24,24.81,-1.00,-1.0,2436
4435,2139435,12968,-8240,16108,22260.60,24.95,-1.00,-1.0,2367
4438,2139438,16648,3992,-8648,19180.20,24.91,-1.00,-1.0,2355
4441,2139441,19204,-1812,2176,19411.64,24.91,-1.00,-1.0,2434
4443,2139443,14480,2396,1348,14738.67,25.00,-1.00,-1.0,2368
4446,2139446,22124,4140,-732,22519.92,24.91,-1.00,-1.0,2431
4449,2139449,13096,-6496,14364,20494.58,25.05,-1.00,-1.0,2376
4454,2139454,17460,684,1688,17554.74,24.95,-1.00,-1.0,2438
4456,2139456,16408,2124,4336,17103.65,24.95,-1.00,-1.0,2371
4459,2139459,22716,3496,-3708,23280.63,24.95,-1.00,-1.0,2437
4462,2139462,11408,-2376,9068,14765.38,24.95,-1.00,-1.0,2370
4465,2139465,19180,6292,-12872,23940.55,24.95,-1.00,-1.0,2442
4467,2139467,17060,-4016,10904,20641.44,24.95,-1.00,-1.0,2370
4470,2139470,14232,4260,-5176,15731.76,24.86,-1.00,-1.0,2433
4473,2139473,20440,-884,1408,20507.50,24.95,-1.00,-1.0,2370
4478,2139478,18636,5836,-9016,21509.25,24.91,-1.00,-1.0,2454
4480,2139480,18276,-3892,8480,20520.00,24.95,-1.00,-1.0,2367
4483,2139483,14252,2380,-3960,14982.17,25.00,-1.00,-1.0,2439
4486,2139486,20288,-224,-1088,20318.39,24.86,-1.00,-1.0,2366
4489,2139489,13764,-4344,14216,20258.64,24.91,-1.00,-1.0,2443
4491,2139491,18308,5940,-12432,22913.34,24.95,-1.00,-1.0,2367
4494,2139494,16304,-6820,11260,20955.20,24.91,-1.00,-1.0,2435
4497,2139497,15304,6104,-11024,19824.22,24.95,-1.00,-1.0,2353
4502,2139502,12624,-6716,13964,19986.58,25.00,-1.00,-1.0,2446
4504,2139504,17436,5132,-12512,22065.85,25.00,-1.00,-1.0,2366
4507,2139507,17604,-5732,8736,20471.30,25.00,-1.00,-1.0,2360
4510,2139510,15576,4368,-7520,17839.33,25.05,-1.00,-1.0,2443
4512,2139512,21552,4924,-6044,22918.65,24.91,-1.00,-1.0,2366
4515,2139515,14084,-4188,11988,18963.40,24.95,-1.00,-1.0,2443
4518,2139518,20436,7332,-13480,25555.80,24.91,-1.00,-1.0,2367
4521,2139521,14624,-4948,14392,21106.25,24.95,-1.00,-1.0,2439
4523,2139523,14972,2344,-2720,15396.54,25.00,-1.00,-1.0,2366
4528,2139528,10636,-4680,12636,17166.69,24.91,-1.00,-1.0,2440
4531,2139531,22332,7316,-13488,27095.54,25.00,-1.00,-1.0,2367
4534,2139534,16140,-5176,14960,22607.35,24.91,-1.00,-1.0,2436
4537,2139537,13428,1776,412,13551.20,24.91,-1.00,-1.0,2366
4539,2139539,24312,2772,-3564,24727.71,24.91,-1.00,-1.0,2435
4542,2139542,12640,-1104,8860,15475.40,25.00,-1.00,-1.0,2367
4545,2139545,20412,6244,-9300,23283.63,24.91,-1.00,-1.0,2433
4548,2139548,16900,-6372,13916,22800.60,25.00,-1.00,-1.0,2389
4553,2139553,20928,5724,-7300,22891.82,24.91,-1.00,-1.0,2442
4555,2139555,11904,-3516,12084,17323.12,25.00,-1.00,-1.0,2374
4558,2139558,22432,7960,-11816,26573.94,25.00,-1.00,-1.0,2438
4561,2139561,14580,-6736,13980,21292.97,25.00,-1.00,-1.0,2370
4564,2139564,16156,928,-6260,17351.23,24.91,-1.00,-1.0,2434
4566,2139566,19104,-696,-248,19118.28,24.91,-1.00,-1.0,2370
4569,2139569,12344,-836,3648,12898.88,24.91,-1.00,-1.0,2434
4572,2139572,23596,4584,-4592,24471.84,25.00,-1.00,-1.0,2370
4574,2139574,11464,-6120,11980,17674.79,25.00,-1.00,-1.0,2370
4579,2139579,18636,-144,176,18637.39,25.00,-1.00,-1.0,2446
4582,2139582,10840,-452,6464,12629.06,24.91,-1.00,-1.0,2367
4585,2139585,23888,5212,-7732,25643.43,24.91,-1.00,-1.0,2437
4588,2139588,10440,-5664,12904,17538.18,25.00,-1.00,-1.0,2366
4590,2139590,16400,6356,-12340,21485.68,25.00,-1.00,-1.0,2435
4593,2139593,19672,-6992,11412,23793.05,24.91,-1.00,-1.0,2367
4596,2139596,16128,4224,-8152,18558.28,25.00,-1.00,-1.0,2431
4599,2139599,21860,6648,-9000,24557.19,25.00,-1.00,-1.0,2366
4604,2139604,17624,5964,-11644,21948.97,25.00,-1.00,-1.0,2446
4606,2139606,15024,-3368,8164,17427.42,25.00,-1.00,-1.0,2376
4609,2139609,16348,3176,-5672,17593.06,25.00,-1.00,-1.0,2437
4612,2139612,19860,-2116,4084,20385.68,25.00,-1.00,-1.0,2370
4615,2139615,11428,-5268,14092,18892.74,24.91,-1.00,-1.0,2443
4617,2139617,20444,7984,-15568,26908.44,24.91,-1.00,-1.0,2378
4620,2139620,16260,-5076,13568,21777.14,25.00,-1.00,-1.0,2434
4623,2139623,18540,7144,-11580,22997.06,24.91,-1.00,-1.0,2371
4628,2139628,14568,332,-140,14572.46,24.91,-1.00,-1.0,2449
4631,2139631,21052,8596,-15352,27436.51,24.86,-1.00,-1.0,2367
4633,2139633,14356,-6508,17076,23238.73,24.91,-1.00,-1.0,2447
4636,2139636,18940,7828,-15044,25422.89,24.95,-1.00,-1.0,2373
4639,2139639,13852,-7308,12076,19776.62,24.91,-1.00,-1.0,2421
4641,2139641,14416,-1316,3260,14838.48,24.95,-1.00,-1.0,2367
4644,2139644,19700,3856,-6284,21034.43,24.91,-1.00,-1.0,2446
4647,2139647,14496,-2832,12372,19267.09,24.95,-1.00,-1.0,2366
4650,2139650,19176,8556,-15628,26175.53,25.00,-1.00,-1.0,2362
4655,2139655,13028,-1256,6708,14707.26,24.91,-1.00,-1.0,2451
4657,2139657,21168,5168,-7528,23053.49,24.91,-1.00,-1.0,2372
4660,2139660,12152,-4352,10752,16799.30,24.91,-1.00,-1.0,2429
4663,2139663,24624,8948,-13104,29293.73,25.00,-1.00,-1.0,2373
4666,2139666,12700,-6956,12844,19355.73,25.00,-1.00,-1.0,2442
4668,2139668,17636,2776,-9728,20331.47,24.91,-1.00,-1.0,2373
4671,2139671,18168,-3624,2776,18732.75,25.00,-1.00,-1.0,2441
4674,2139674,13116,1312,-844,13208.45,24.91,-1.00,-1.0,2376
4679,2139679,13336,-7204,11200,18846.39,25.00,-1.00,-1.0,2445
4681,2139681,17152,2300,-10092,20033.21,24.91,-1.00,-1.0,2377
4684,2139684,18120,-2844,2116,18463.48,24.95,-1.00,-1.0,2443
4687,2139687,10996,592,3784,11643.93,24.91,-1.00,-1.0,2355
4690,2139690,24776,3748,-5556,25666.45,24.95,-1.00,-1.0,2443
4692,2139692,8332,-6524,18676,21465.73,25.00,-1.00,-1.0,2378
4695,2139695,22500,10140,-16836,29875.08,24.95,-1.00,-1.0,2439
4698,2139698,17764,-6676,16568,25191.81,24.91,-1.00,-1.0,2374
4703,2139703,25896,3532,-8220,27397.92,24.95,-1.00,-1.0,2448
4705,2139705,9328,-7844,18852,22448.56,25.05,-1.00,-1.0,2375
4708,2139708,20396,10604,-16160,28099.60,24.86,-1.00,-1.0,2438
4711,2139711,18140,-6976,15608,24926.57,25.00,-1.00,-1.0,2367
4714,2139714,13816,3760,-11740,18516.13,24.95,-1.00,-1.0,2434
4716,2139716,24432,6460,-10420,27335.52,24.95,-1.00,-1.0,2370
4719,2139719,10968,-5232,14428,18863.67,25.05,-1.00,-1.0,2434
4722,2139722,20952,10036,-14004,27126.00,25.00,-1.00,-1.0,2368
4724,2139724,15184,-7268,10088,19625.12,24.95,-1.00,-1.0,2369
4730,2139730,19120,-824,2940,19362.26,24.95,-1.00,-1.0,2448
4732,2139732,10272,-5812,15220,19259.85,24.95,-1.00,-1.0,2374
4735,2139735,23560,8756,-13300,28436.44,24.95,-1.00,-1.0,2438
4738,2139738,13332,-4544,15880,21226.51,25.00,-1.00,-1.0,2367
4741,2139741,19664,9784,-14032,26063.32,24.86,-1.00,-1.0,2434
4743,2139743,20384,-1984,4512,20971.45,25.05,-1.00,-1.0,2370
4746,2139746,11144,748,2364,11416.51,25.05,-1.00,-1.0,2434
4749,2139749,20128,2220,-5820,21069.82,24.91,-1.00,-1.0,2371
4754,2139754,17020,9424,-14368,24185.36,24.91,-1.00,-1.0,2454
4757,2139757,22032,-3012,4536,22694.86,24.91,-1.00,-1.0,2370
4759,2139759,11324,-16,1012,11369.14,24.95,-1.00,-1.0,2447
4762,2139762,20060,3592,-6620,21427.33,25.00,-1.00,-1.0,2375
4765,2139765,15504,-4168,11308,19637.14,24.86,-1.00,-1.0,2420
4768,2139768,19508,9048,-14552,25965.15,24.91,-1.00,-1.0,2369
4770,2139770,13964,-5612,12300,19436.51,25.05,-1.00,-1.0,2444
4773,2139773,18760,5212,-11884,22810.79,24.91,-1.00,-1.0,2376
4778,2139778,13052,-3736,10040,16885.32,24.91,-1.00,-1.0,2445
4781,2139781,19448,6912,-14140,25018.79,24.91,-1.00,-1.0,2376
4784,2139784,15104,-3904,13540,20656.81,24.95,-1.00,-1.0,2435
4786,2139786,16296,5024,-9432,19487.50,25.00,-1.00,-1.0,2367
4789,2139789,14972,-5756,9544,18664.95,24.91,-1.00,-1.0,2432
4792,2139792,18108,3700,-8756,20451.34,25.00,-1.00,-1.0,2375
4795,2139795,19820,6676,-14328,25351.39,25.00,-1.00,-1.0,2431
4797,2139797,14252,-5016,17636,23223.01,24.91,-1.00,-1.0,2368
4800,2139800,24560,11312,-14796,30823.31,24.91,-1.00,-1.0,2368
4805,2139805,18336,2916,-6024,19519.23,24.91,-1.00,-1.0,2445
4807,2139807,19524,7032,-12068,24005.67,24.91,-1.00,-1.0,2369
4810,2139810,12932,-5864,17968,22901.36,24.86,-1.00,-1.0,2437
4813,2139813,24448,10728,-17284,31804.58,24.91,-1.00,-1.0,2368
4816,2139816,12964,-6468,18116,23196.76,24.91,-1.00,-1.0,2435
4818,2139818,16252,1868,-4168,16881.62,24.91,-1.00,-1.0,2368
4821,2139821,19684,-1220,-48,19721.83,25.00,-1.00,-1.0,2433
4824,2139824,11856,-1296,2588,12204.18,24.91,-1.00,-1.0,2379
4829,2139829,12688,-6592,18032,23012.88,25.00,-1.00,-1.0,2434
4832,2139832,21440,9768,-13852,27330.67,24.91,-1.00,-1.0,2376
4834,2139834,17912,-1084,-532,17952.65,24.91,-1.00,-1.0,2428
4837,2139837,14464,-788,3508,14904.17,25.00,-1.00,-1.0,2374
4840,2139840,21228,3928,-6644,22587.61,24.91,-1.00,-1.0,2426
4843,2139843,12788,-3956,10868,17242.28,24.91,-1.00,-1.0,2377
4845,2139845,20964,9932,-14844,27540.48,25.00,-1.00,-1.0,2425
4848,2139848,15644,-5924,13744,21650.08,25.09,-1.00,-1.0,2377
4853,2139853,24364,3492,-7800,25819.34,24.95,-1.00,-1.0,2446
4856,2139856,12664,-3724,10728,17009.85,24.95,-1.00,-1.0,2383
4859,2139859,19716,8052,-12860,24878.40,25.00,-1.00,-1.0,2443
4861,2139861,16068,-5020,14292,22082.62,24.95,-1.00,-1.0,2384
4864,2139864,16348,5988,-8576,19407.76,24.95,-1.00,-1.0,2450
4867,2139867,15612,-5116,7076,17887.92,25.00,-1.00,-1.0,2375
4870,2139870,16512,3040,-4548,17394.60,25.05,-1.00,-1.0,2439
4872,2139872,18780,-1864,-528,18879.66,24.95,-1.00,-1.0,2358
4875,2139875,13612,-5288,16860,22304.91,24.95,-1.00,-1.0,2377
4881,2139881,13284,-7220,16764,22574.87,24.91,-1.00,-1.0,2450
4883,2139883,16612,1648,-452,16699.66,24.91,-1.00,-1.0,2372
4886,2139886,16104,256,-2072,16238.77,24.95,-1.00,-1.0,2438
4889,2139889,15576,-2480,4996,16544.55,25.00,-1.00,-1.0,2372
4892,2139892,21372,4972,-9492,23907.77,25.00,-1.00,-1.0,2438
4894,2139894,11392,-5012,11872,17200.06,24.91,-1.00,-1.0,2372
4897,2139897,21612,6012,-11428,25175.82,24.95,-1.00,-1.0,2430
4900,2139900,11812,-6188,8796,15974.49,25.00,-1.00,-1.0,2372
4905,2139905,19852,3732,-7020,21384.81,24.95,-1.00,-1.0,2437
4907,2139907,10752,-4708,11152,16190.67,24.95,-1.00,-1.0,2359
4910,2139910,21752,7440,-13504,26661.98,24.95,-1.00,-1.0,2436
4913,2139913,11716,-6188,9984,16590.25,24.86,-1.00,-1.0,2371
4916,2139916,15904,4600,-8456,18590.35,24.95,-1.00,-1.0,2433
4918,2139918,19120,-5224,5576,20590.20,25.05,-1.00,-1.0,2373
4921,2139921,12004,-3872,10960,16709.58,24.95,-1.00,-1.0,2432
4924,2139924,21004,8876,-12476,25992.34,25.05,-1.00,-1.0,2376
4929,2139929,16600,3520,-7720,18642.66,24.95,-1.00,-1.0,2437
4932,2139932,15144,-3248,2828,15744.45,25.00,-1.00,-1.0,2373
4934,2139934,17204,1520,-3296,17582.71,24.95,-1.00,-1.0,2432
4937,2139937,21144,6720,-8760,23852.98,25.05,-1.00,-1.0,2372
4940,2139940,15452,-6532,15008,22509.36,24.95,-1.00,-1.0,2430
4943,2139943,18324,7964,-14464,24665.80,25.00,-1.00,-1.0,2372
4945,2139945,14820,-4132,11044,18938.74,24.95,-1.00,-1.0,2429
4948,2139948,13632,984,-2296,13858.98,25.00,-1.00,-1.0,2372
4951,2139951,16680,-3424,2272,17178.71,24.95,-1.00,-1.0,2351
4956,2139956,17324,7172,-15352,24233.09,25.00,-1.00,-1.0,2449
4958,2139958,15112,-5212,15628,22355.58,24.91,-1.00,-1.0,2353
4961,2139961,14372,1916,-3800,14988.84,24.95,-1.00,-1.0,2442
4964,2139964,14252,-2076,1096,14444.05,24.95,-1.00,-1.0,2366
4967,2139967,19428,812,-1020,19471.70,25.05,-1.00,-1.0,2436
4969,2139969,18964,-240,-2676,19153.38,24.95,-1.00,-1.0,2373
4972,2139972,14556,-5204,17776,23557.27,24.95,-1.00,-1.0,2438
4975,2139975,23792,9452,-14844,29592.97,24.95,-1.00,-1.0,2367
4980,2139980,16852,-572,-4,16861.71,25.00,-1.00,-1.0,2443
4983,2139983,18356,-284,-4032,18795.76,25.00,-1.00,-1.0,2375
4985,2139985,12620,-2504,5152,13859.20,24.95,-1.00,-1.0,2442
4988,2139988,22184,9080,-13992,27755.22,24.91,-1.00,-1.0,2373
4991,2139991,13784,-5952,14964,21197.79,24.86,-1.00,-1.0,2440
4994,2139994,20132,7436,-10424,23858.99,25.00,-1.00,-1.0,2371
4996,2139996,14768,-3576,8984,17652.02,25.05,-1.00,-1.0,2444
4999,2139999,14904,-1668,5208,15875.60,24.95,-1.00,-1.0,2368
5004,2140004,11928,-5584,15008,19967.43,24.95,-1.00,-1.0,2454
5007,2140007,23728,8920,-12208,28135.74,25.00,-1.00,-1.0,2374
5010,2140010,16364,-4140,11056,20178.09,24.95,-1.00,-1.0,2451
5012,2140012,14468,4928,-6640,16664.27,24.95,-1.00,-1.0,2374
5015,2140015,25100,4052,-5848,26088.84,24.95,-1.00,-1.0,2444
5018,2140018,12376,-3860,8476,15488.95,24.86,-1.00,-1.0,2369
5020,2140020,17132,6252,-11332,21471.08,24.86,-1.00,-1.0,2361
5023,2140023,17516,-4504,12228,21831.63,24.95,-1.00,-1.0,2423
5026,2140026,16620,5332,-8300,19327.30,24.86,-1.00,-1.0,2370
5031,2140031,13892,-3652,7068,16008.79,24.95,-1.00,-1.0,2453
5034,2140034,18232,4388,-10496,21490.15,25.00,-1.00,-1.0,2369
5036,2140036,14040,-4252,13004,19603.70,24.95,-1.00,-1.0,2442
5039,2140039,16004,6920,-11524,20900.17,24.95,-1.00,-1.0,2367
5042,2140042,15928,-4268,8844,18711.85,24.86,-1.00,-1.0,2437
5045,2140045,21172,3644,-2952,21685.17,24.91,-1.00,-1.0,2367
5047,2140047,13084,-2260,1148,13327.29,24.95,-1.00,-1.0,2445
5050,2140050,17396,-4124,12108,21592.40,24.95,-1.00,-1.0,2353
5055,2140055,15956,-1964,8740,18298.60,24.95,-1.00,-1.0,2457
5058,2140058,20656,3048,-3364,21148.93,24.95,-1.00,-1.0,2372
5061,2140061,12716,-2576,1824,13101.89,25.05,-1.00,-1.0,2451
5063,2140063,16668,312,-712,16686.12,24.86,-1.00,-1.0,2373
5066,2140066,19600,7376,-10156,23274.66,24.95,-1.00,-1.0,2445
5069,2140069,12080,-5084,14544,19578.08,24.95,-1.00,-1.0,2362
5072,2140072,24812,8568,-13504,29519.55,24.95,-1.00,-1.0,2453
5074,2140074,12864,-4944,14352,19897.38,25.05,-1.00,-1.0,2372
5079,2140079,20312,-960,-1044,20361.46,24.95,-1.00,-1.0,2465
5082,2140082,12444,-5692,13924,19522.54,24.95,-1.00,-1.0,2367
5085,2140085,23240,9864,-13768,28756.81,24.95,-1.00,-1.0,2443
5088,2140088,12884,-6524,15256,21007.27,25.00,-1.00,-1.0,2365
5090,2140090,19888,7444,-12112,24446.80,24.95,-1.00,-1.0,2449
5093,2140093,17340,-128,-1548,17409.43,24.95,-1.00,-1.0,2372
5096,2140096,13100,-340,3672,13609.16,25.05,-1.00,-1.0,2375
5098,2140098,22828,3496,-4832,23594.23,25.00,-1.00,-1.0,2440
5101,2140101,9964,-6372,15224,19278.33,25.00,-1.00,-1.0,2366
5106,2140106,15140,-528,-412,15154.81,24.91,-1.00,-1.0,2450
5109,2140109,12392,388,3828,12975.58,24.91,-1.00,-1.0,2365
5111,2140111,25252,2316,-3660,25620.75,24.91,-1.00,-1.0,2426
5114,2140114,8764,-5600,15332,18526.68,24.91,-1.00,-1.0,2366
5117,2140117,21472,8536,-14932,27511.36,25.00,-1.00,-1.0,2441
5120,2140120,15804,-6372,13324,21630.95,24.91,-1.00,-1.0,2365
5122,2140122,16724,6320,-9308,20156.23,25.00,-1.00,-1.0,2439
5125,2140125,22564,3692,-5880,23608.04,24.91,-1.00,-1.0,2378
5130,2140130,21396,8844,-13660,26881.23,24.91,-1.00,-1.0,2449
5133,2140133,15556,-6916,13192,21537.15,25.00,-1.00,-1.0,2372
5136,2140136,17492,6492,-10524,21421.27,24.91,-1.00,-1.0,2430
5138,2140138,15584,-3416,8904,18270.50,24.91,-1.00,-1.0,2376
5141,2140141,14492,-2844,9904,17781.89,25.00,-1.00,-1.0,2432
5144,2140144,21648,7364,-10000,24957.25,24.91,-1.00,-1.0,2375
5147,2140147,11048,-5120,13296,18029.32,24.91,-1.00,-1.0,2445
5149,2140149,22832,8672,-13568,27939.12,24.91,-1.00,-1.0,2354
5155,2140155,15120,1900,-1880,15354.44,24.95,-1.00,-1.0,2450
5157,2140157,20680,516,-2220,20805.22,24.95,-1.00,-1.0,2366
5160,2140160,10908,-4948,13248,17859.92,24.91,-1.00,-1.0,2454
5163,2140163,21400,7492,-12768,26021.37,24.95,-1.00,-1.0,2372
5165,2140165,15396,-7016,13352,21553.12,24.91,-1.00,-1.0,2369
5168,2140168,13396,1088,-1744,13552.79,25.00,-1.00,-1.0,2438
5171,2140171,18884,-240,-3288,19169.61,25.00,-1.00,-1.0,2353
5174,2140174,15804,-1960,5708,16917.13,24.91,-1.00,-1.0,2447
5176,2140176,22880,5432,-7316,24627.73,24.91,-1.00,-1.0,2374
5181,2140181,21644,5792,-14204,26528.54,25.00,-1.00,-1.0,2447
5184,2140184,17012,2196,-2180,17291.12,24.95,-1.00,-1.0,2365
5187,2140187,15648,-1000,7244,17272.39,25.00,-1.00,-1.0,2449
5189,2140189,24496,5924,-7700,26352.19,24.95,-1.00,-1.0,2364
5192,2140192,11364,-4168,14180,18643.63,24.91,-1.00,-1.0,2454
5195,2140195,20764,7132,-12572,25299.49,24.95,-1.00,-1.0,2366
5198,2140198,15960,-5652,8476,18934.34,25.00,-1.00,-1.0,2445
5200,2140200,13376,2432,-6384,15019.57,24.95,-1.00,-1.0,2376
5205,2140205,10712,-5328,14172,18546.70,24.95,-1.00,-1.0,2429
5208,2140208,23788,8740,-12476,28247.25,24.86,-1.00,-1.0,2373
5211,2140211,12384,-5132,6712,14991.73,24.95,-1.00,-1.0,2430
5214,2140214,15372,2124,-3528,15914.04,25.05,-1.00,-1.0,2373
5216,2140216,22536,1340,-240,22577.08,25.05,-1.00,-1.0,2419
5219,2140219,12352,-876,3700,12923.98,25.05,-1.00,-1.0,2374
5222,2140222,24332,7956,-12644,28551.97,24.95,-1.00,-1.0,2433
5225,2140225,13364,-6016,13596,19991.00,24.95,-1.00,-1.0,2373
5230,2140230,21112,940,936,21153.63,25.00,-1.00,-1.0,2442
5232,2140232,11016,-1200,4344,11902.21,25.00,-1.00,-1.0,2383
5235,2140235,25152,9372,-12976,29813.32,24.95,-1.00,-1.0,2362
5238,2140238,12036,-6028,14196,19563.45,24.95,-1.00,-1.0,2436
5240,2140240,16364,6768,-13580,22315.97,24.91,-1.00,-1.0,2373
5243,2140243,17360,-6588,11456,21817.68,24.95,-1.00,-1.0,2418
5246,2140246,12336,-840,4012,12999.18,24.95,-1.00,-1.0,2375
5249,2140249,21028,5324,-6100,22532.90,24.95,-1.00,-1.0,2444
5251,2140251,16000,-3192,11560,19995.56,25.00,-1.00,-1.0,2363
5256,2140256,16228,-4984,10032,19718.75,24.91,-1.00,-1.0,2457
5259,2140259,13264,120,4516,14012.22,24.91,-1.00,-1.0,2368
5262,2140262,22992,4568,-4696,23907.13,24.95,-1.00,-1.0,2440
5265,2140265,13236,-3984,10328,17254.90,25.00,-1.00,-1.0,2371
5267,2140267,18184,6600,-12696,23138.85,25.00,-1.00,-1.0,2425
5270,2140270,16572,-4516,10072,19911.57,25.00,-1.00,-1.0,2380
5273,2140273,13880,5168,-6588,16210.01,24.95,-1.00,-1.0,2440
5276,2140276,16464,-4684,6932,18467.70,24.91,-1.00,-1.0,2388
5280,2140280,16964,5940,-12612,21957.31,24.95,-1.00,-1.0,2450
5283,2140283,16980,-5452,15656,23730.89,24.95,-1.00,-1.0,2365
5286,2140286,13748,4820,-8376,16804.68,25.05,-1.00,-1.0,2425
5289,2140289,14572,-3544,4808,15748.65,24.95,-1.00,-1.0,2366
5291,2140291,21972,2688,-4112,22514.50,25.05,-1.00,-1.0,2439
5294,2140294,15152,-1636,1532,15316.87,24.95,-1.00,-1.0,2353
5297,2140297,16932,-4624,15252,23252.90,24.95,-1.00,-1.0,2439
5300,2140300,23900,7480,-14536,28956.10,24.95,-1.00,-1.0,2362
5304,2140304,18192,2216,-3292,18619.79,25.05,-1.00,-1.0,2457
5307,2140307,16940,-1880,136,17044.54,24.86,-1.00,-1.0,2367
5310,2140310,13196,-4984,11756,18362.41,24.91,-1.00,-1.0,2361
5312,2140312,20736,7308,-13244,25666.95,24.81,-1.00,-1.0,2437
5315,2140315,15232,-5988,15308,22409.93,24.91,-1.00,-1.0,2366
5318,2140318,14736,1640,-4336,15447.98,25.00,-1.00,-1.0,2437
5321,2140321,16828,-668,-680,16854.98,25.00,-1.00,-1.0,2366
5323,2140323,17492,-344,1204,17536.76,25.00,-1.00,-1.0,2438
5326,2140326,19448,2728,-2720,19825.87,24.91,-1.00,-1.0,2367
5331,2140331,23592,8328,-13292,28330.47,24.95,-1.00,-1.0,2451
5334,2140334,13996,-2404,1436,14273.38,24.95,-1.00,-1.0,2367
5337,2140337,15972,1788,1284,16122.98,25.00,-1.00,-1.0,2436
5339,2140339,20768,1184,-1804,20879.80,24.95,-1.00,-1.0,2369
5342,2140342,13212,-2080,6100,14700.11,24.91,-1.00,-1.0,2439
5345,2140345,22208,8760,-12932,27150.87,24.95,-1.00,-1.0,2372
5348,2140348,13944,-5052,12796,19588.15,24.91,-1.00,-1.0,2439
5350,2140350,20496,7660,-8784,23577.96,24.95,-1.00,-1.0,2373
5355,2140355,14992,-1812,3972,15614.74,24.95,-1.00,-1.0,2460
5358,2140358,18768,2880,-7220,20314.05,24.95,-1.00,-1.0,2380
5361,2140361,15076,-4644,13428,20716.27,24.91,-1.00,-1.0,2441
5364,2140364,19004,8660,-10212,23247.21,24.86,-1.00,-1.0,2375
5366,2140366,14296,-4640,10220,18175.63,25.00,-1.00,-1.0,2427
5369,2140369,21080,5060,-6276,22568.96,24.95,-1.00,-1.0,2379
5372,2140372,16612,2192,-6244,17881.58,24.91,-1.00,-1.0,2440
5375,2140375,15112,-3676,8332,17643.92,24.86,-1.00,-1.0,2384
5377,2140377,19668,6260,-9584,22756.78,24.91,-1.00,-1.0,2370
5382,2140382,21188,5296,-6036,22658.60,25.00,-1.00,-1.0,2441
5385,2140385,16696,476,-3092,16986.57,24.91,-1.00,-1.0,2376
5388,2140388,16808,-2260,3636,17344.65,24.91,-1.00,-1.0,2430
5390,2140390,18632,2820,-5600,19658.68,24.91,-1.00,-1.0,2376
5393,2140393,12972,-2892,7368,15196.18,25.00,-1.00,-1.0,2431
5396,2140396,21924,6656,-7988,24264.63,24.91,-1.00,-1.0,2375
5399,2140399,13560,-2600,8820,16383.71,24.91,-1.00,-1.0,2431
5401,2140401,19080,5440,-6344,20829.94,24.91,-1.00,-1.0,2380
5406,2140406,15444,-1252,3512,15887.69,24.91,-1.00,-1.0,2448
5409,2140409,18032,2996,-5432,19069.23,24.95,-1.00,-1.0,2386
5412,2140412,14692,-4524,9904,18286.90,25.00,-1.00,-1.0,2433
5415,2140415,19124,6008,-7468,21391.46,24.91,-1.00,-1.0,2385
5417,2140417,14604,-2736,6964,16409.14,25.00,-1.00,-1.0,2434
5420,2140420,21268,4348,-4536,22176.75,25.00,-1.00,-1.0,2389
5423,2140423,15272,652,-1304,15341.43,25.00,-1.00,-1.0,2431
5426,2140426,18760,-1980,2228,18995.31,24.91,-1.00,-1.0,2384
5431,2140431,15176,-704,6796,16643.08,25.00,-1.00,-1.0,2456
5433,2140433,24196,3424,-3332,24663.18,24.91,-1.00,-1.0,2376
5436,2140436,12008,-1468,3236,12522.73,24.91,-1.00,-1.0,2363
5439,2140439,20564,2148,-3832,21027.99,24.95,-1.00,-1.0,2435
5441,2140441,19516,-720,728,19542.84,24.91,-1.00,-1.0,2367
5444,2140444,13108,-240,1532,13199.41,25.00,-1.00,-1.0,2439
5447,2140447,23208,4248,-6548,24485.37,25.00,-1.00,-1.0,2368
5450,2140450,16368,-3156,5028,17411.28,24.91,-1.00,-1.0,2443
5452,2140452,13604,4324,-5128,15167.80,24.91,-1.00,-1.0,2369
5457,2140457,17140,1464,-3812,17619.71,24.91,-1.00,-1.0,2459
5460,2140460,12188,-160,1072,12236.10,25.00,-1.00,-1.0,2369
5463,2140463,17800,-2524,5868,18911.48,25.00,-1.00,-1.0,2440
5466,2140466,17984,3372,-3832,18694.35,24.91,-1.00,-1.0,2363
5468,2140468,12960,-1984,5020,14039.17,24.91,-1.00,-1.0,2427
5471,2140471,19368,5124,-6384,21026.89,25.09,-1.00,-1.0,2381
5474,2140474,15308,-1952,5312,16320.62,24.91,-1.00,-1.0,2438
5477,2140477,18376,2064,-1216,18531.49,24.91,-1.00,-1.0,2389
5481,2140481,15812,-1324,3204,16187.59,24.86,-1.00,-1.0,2451
5484,2140484,19472,3568,-2700,19979.47,24.91,-1.00,-1.0,2365
5487,2140487,13376,-1544,7304,15318.28,24.95,-1.00,-1.0,2438
5490,2140490,20940,4296,-6892,22459.72,24.91,-1.00,-1.0,2365
5492,2140492,16288,-1868,5380,17254.94,24.95,-1.00,-1.0,2439
5495,2140495,17716,4272,-3140,18492.33,25.00,-1.00,-1.0,2365
5498,2140498,19124,652,-1732,19213.34,24.95,-1.00,-1.0,2356
5500,2140500,15544,-3824,1696,16097.06,24.95,-1.00,-1.0,2442
5503,2140503,16288,3520,-5740,17624.90,24.95,-1.00,-1.0,2366
5508,2140508,20968,4516,-4800,21979.34,24.91,-1.00,-1.0,2452
5511,2140511,15888,332,212,15892.88,25.00,-1.00,-1.0,2362
5514,2140514,17344,-988,-224,17373.56,24.91,-1.00,-1.0,2439
5516,2140516,18796,-284,-1884,18892.32,24.91,-1.00,-1.0,2369
5519,2140519,12336,-1320,1560,12504.12,24.91,-1.00,-1.0,2437
5522,2140522,21364,6400,-8656,23922.94,25.00,-1.00,-1.0,2374
5525,2140525,12024,-3504,9696,15838.78,25.00,-1.00,-1.0,2438
5527,2140527,19316,5976,-5468,20945.63,24.91,-1.00,-1.0,2367
5532,2140532,14024,-488,-28,14032.52,24.91,-1.00,-1.0,2448
5535,2140535,20064,2636,-3484,20534.14,24.95,-1.00,-1.0,2366
5538,2140538,11448,-4240,9744,15619.85,25.00,-1.00,-1.0,2444
5540,2140540,19864,6376,-6260,21781.17,25.05,-1.00,-1.0,2369
5543,2140543,17976,-2124,7572,19620.99,24.91,-1.00,-1.0,2439
5546,2140546,17484,3868,-5448,18717.17,24.95,-1.00,-1.0,2369
5549,2140549,17760,300,1656,17839.56,24.91,-1.00,-1.0,2445
5551,2140551,19756,968,-860,19798.39,25.05,-1.00,-1.0,2368
5554,2140554,14680,24,-476,14687.73,24.91,-1.00,-1.0,2362
5559,2140559,18716,1756,-4812,19404.32,24.95,-1.00,-1.0,2446
5562,2140562,15084,-1240,5912,16248.58,25.05,-1.00,-1.0,2369
5565,2140565,18968,3856,-3012,19588.92,24.95,-1.00,-1.0,2435
5567,2140567,15556,-1916,4124,16207.02,25.05,-1.00,-1.0,2371
5570,2140570,16816,2148,-3272,17265.51,24.95,-1.00,-1.0,2437
5573,2140573,17376,260,1112,17413.49,25.05,-1.00,-1.0,2370
5576,2140576,15208,-1392,4120,15817.56,25.05,-1.00,-1.0,2444
5578,2140578,18204,2604,-1268,18432.97,25.05,-1.00,-1.0,2356
5583,2140583,16240,3268,-3908,17020.28,24.95,-1.00,-1.0,2460
5586,2140586,17480,1692,2432,17729.29,24.91,-1.00,-1.0,2382
5589,2140589,21792,1620,780,21866.05,24.95,-1.00,-1.0,2441
5592,2140592,15040,-236,2388,15230.23,25.05,-1.00,-1.0,2377
5594,2140594,19936,1300,-1564,20039.47,24.95,-1.00,-1.0,2439
5597,2140597,17804,604,-248,17815.97,24.95,-1.00,-1.0,2374
5600,2140600,13604,-60,1800,13722.70,24.95,-1.00,-1.0,2441
5603,2140603,22300,2736,-2852,22647.51,24.86,-1.00,-1.0,2389
5605,2140605,16008,-1776,3228,16426.51,25.00,-1.00,-1.0,2370
5610,2140610,19936,-2008,4920,20632.08,24.95,-1.00,-1.0,2449
5613,2140613,17308,1012,-2900,17578.42,24.95,-1.00,-1.0,2376
5616,2140616,18628,3964,-5424,19802.41,24.91,-1.00,-1.0,2430
5618,2140618,15968,-2008,4228,16639.86,24.95,-1.00,-1.0,2375
5621,2140621,18688,2808,-3872,19290.38,25.00,-1.00,-1.0,2431
5624,2140624,13976,-3048,6536,15726.99,24.91,-1.00,-1.0,2425
5627,2140627,18884,5932,-7388,21127.63,24.95,-1.00,-1.0,2437
5630,2140630,15644,-1204,3316,16036.84,24.95,-1.00,-1.0,2388
5635,2140635,19252,2212,-4372,19865.72,24.95,-1.00,-1.0,2453
5637,2140637,15816,-1172,3984,16352.12,24.95,-1.00,-1.0,2377
5640,2140640,18380,4432,-3876,19300.01,25.00,-1.00,-1.0,2441
5643,2140643,14024,-1828,9620,17104.34,24.95,-1.00,-1.0,2376
5646,2140646,19608,4396,-6312,21062.76,25.00,-1.00,-1.0,2445
5648,2140648,15168,-1948,3916,15786.01,25.05,-1.00,-1.0,2379
5651,2140651,19112,4236,-3004,19804.96,24.91,-1.00,-1.0,2443
5654,2140654,15556,-3184,5080,16671.33,24.95,-1.00,-1.0,2371
5659,2140659,17020,5272,-8704,19830.13,25.05,-1.00,-1.0,2452
5661,2140661,14800,-2476,6252,16256.02,25.14,-1.00,-1.0,2369
5664,2140664,20792,3964,-3576,21466.45,24.95,-1.00,-1.0,2375
5667,2140667,14568,-1788,4780,15436.06,25.00,-1.00,-1.0,2439
5670,2140670,17480,-1344,2076,17654.08,24.95,-1.00,-1.0,2374
5672,2140672,17968,1464,-2948,18266.99,24.91,-1.00,-1.0,2443
5675,2140675,12064,-2464,4520,13116.47,24.95,-1.00,-1.0,2385
5678,2140678,21372,4528,-7512,23101.85,24.91,-1.00,-1.0,2437
5681,2140681,11368,-3316,7156,13836.03,25.05,-1.00,-1.0,2381
5687,2140687,18372,-3460,8356,20477.42,25.00,-1.00,-1.0,2450
5690,2140690,18908,5472,-9240,21744.72,24.91,-1.00,-1.0,2373
5693,2140693,11384,-3488,7616,14133.83,25.00,-1.00,-1.0,2420
5696,2140696,21216,1424,-804,21278.93,24.91,-1.00,-1.0,2371
5698,2140698,13452,-1560,40,13542.21,24.91,-1.00,-1.0,2436
5701,2140701,16172,976,808,16221.56,25.00,-1.00,-1.0,2372
5704,2140704,19796,1044,-240,19824.96,24.91,-1.00,-1.0,2434
5707,2140707,11864,-2512,7528,14273.59,24.91,-1.00,-1.0,2376
5711,2140711,15008,-676,3744,15482.72,24.95,-1.00,-1.0,2436
5714,2140714,16964,3000,-2608,17423.52,25.00,-1.00,-1.0,2370
5717,2140717,16424,-2800,4308,17208.91,24.86,-1.00,-1.0,2432
5720,2140720,15252,-1292,3940,15805.58,25.00,-1.00,-1.0,2369
5722,2140722,16616,3412,-4468,17541.27,24.95,-1.00,-1.0,2361
5725,2140725,17304,-1472,6124,18414.63,24.95,-1.00,-1.0,2433
5728,2140728,18108,3932,-5556,19345.01,25.05,-1.00,-1.0,2378
5731,2140731,15784,-696,4972,16563.21,24.86,-1.00,-1.0,2433
5733,2140733,19956,3976,-1344,20392.57,24.86,-1.00,-1.0,2369
5738,2140738,17816,-1816,2792,18124.65,24.95,-1.00,-1.0,2443
5741,2140741,15680,2624,-5688,16884.94,24.91,-1.00,-1.0,2371
5744,2140744,14412,-300,4240,15025.76,25.05,-1.00,-1.0,2432
5746,2140746,20988,948,-920,21029.53,24.91,-1.00,-1.0,2376
5749,2140749,14608,-2604,3404,15223.72,24.95,-1.00,-1.0,2433
5752,2140752,16880,3220,-5620,18080.02,25.00,-1.00,-1.0,2376
5755,2140755,16288,-192,4420,16878.16,24.95,-1.00,-1.0,2439
5757,2140757,15964,164,2364,16138.92,25.00,-1.00,-1.0,2355
5762,2140762,17120,-1692,2148,17336.99,24.91,-1.00,-1.0,2454
5765,2140765,14920,2840,-4612,15872.70,24.91,-1.00,-1.0,2383
5768,2140768,14756,-1636,7988,16858.95,24.91,-1.00,-1.0,2439
5771,2140771,19072,2264,-3512,19524.37,24.91,-1.00,-1.0,2374
5773,2140773,12588,-944,1604,12724.85,24.95,-1.00,-1.0,2443
5776,2140776,19244,1892,-1300,19380.43,25.00,-1.00,-1.0,2385
5779,2140779,17820,-576,3400,18150.60,24.95,-1.00,-1.0,2362
5781,2140781,14412,-1028,5672,15522.05,24.95,-1.00,-1.0,2434
5784,2140784,20032,5508,-5320,21445.78,24.86,-1.00,-1.0,2369
5789,2140789,18408,3276,-2860,18914.71,25.00,-1.00,-1.0,2451
5792,2140792,15068,-1516,3356,15511.47,25.00,-1.00,-1.0,2370
5795,2140795,19008,2044,-3624,19458.04,24.95,-1.00,-1.0,2445
5797,2140797,18068,4004,-2536,18679.29,25.00,-1.00,-1.0,2378
5800,2140800,14620,-2108,7868,16735.99,24.86,-1.00,-1.0,2442
5803,2140803,19488,4320,-8548,21714.35,24.91,-1.00,-1.0,2381
5806,2140806,14344,-1900,7180,16152.79,24.86,-1.00,-1.0,2449
5808,2140808,19692,3932,-3292,20348.78,24.95,-1.00,-1.0,2379
5813,2140813,15024,-2412,5344,16127.51,25.00,-1.00,-1.0,2451
5816,2140816,18228,4788,-7732,20370.78,25.00,-1.00,-1.0,2376
5819,2140819,14072,-2620,6484,15713.94,24.91,-1.00,-1.0,2421
5821,2140821,20924,4720,-3872,21796.44,24.91,-1.00,-1.0,2370
5824,2140824,16260,-1756,5864,17374.05,24.95,-1.00,-1.0,2445
5827,2140827,16712,1952,-4004,17295.47,25.00,-1.00,-1.0,2369
5830,2140830,17800,-1948,3104,18173.32,24.91,-1.00,-1.0,2444
5832,2140832,12420,-3008,5200,13796.54,25.00,-1.00,-1.0,2376
5837,2140837,14764,-2612,6056,16170.14,24.91,-1.00,-1.0,2442
5840,2140840,21232,4384,-2972,21882.64,25.00,-1.00,-1.0,2378
5843,2140843,16324,-1828,5344,17273.47,25.00,-1.00,-1.0,2368
5846,2140846,16124,2648,-2872,16590.47,24.95,-1.00,-1.0,2436
5848,2140848,19512,4336,-6556,21035.69,25.00,-1.00,-1.0,2385
5851,2140851,12840,-3388,6880,14955.89,24.95,-1.00,-1.0,2437
5854,2140854,18992,4452,-5552,20281.54,25.00,-1.00,-1.0,2384
5857,2140857,17620,-2196,6372,18865.03,24.95,-1.00,-1.0,2439
5859,2140859,16740,3296,-2792,17288.33,24.95,-1.00,-1.0,2386
5864,2140864,12348,-812,3080,12752.21,24.86,-1.00,-1.0,2441
5867,2140867,17176,2104,-4248,17818.17,25.00,-1.00,-1.0,2376
5870,2140870,17052,-1136,4976,17799.49,24.91,-1.00,-1.0,2434
5872,2140872,17860,4632,-5420,19230.48,25.00,-1.00,-1.0,2377
5875,2140875,15288,-3456,7668,17448.93,25.05,-1.00,-1.0,2432
5878,2140878,21008,6392,-6600,22929.32,24.91,-1.00,-1.0,2376
5881,2140881,14752,-3564,6504,16511.38,24.91,-1.00,-1.0,2434
5883,2140883,17152,-640,4516,17748.10,25.00,-1.00,-1.0,2377
5888,2140888,15432,-1192,9020,17914.46,24.95,-1.00,-1.0,2436
5891,2140891,21016,6344,-2952,22150.23,24.91,-1.00,-1.0,2376
5894,2140894,14316,-3584,6688,16202.54,25.00,-1.00,-1.0,2435
5896,2140896,17592,88,972,17619.05,25.00,-1.00,-1.0,2378
5899,2140899,14648,1872,-4316,15384.93,24.95,-1.00,-1.0,2377
5902,2140902,14324,-688,4192,14940.66,24.95,-1.00,-1.0,2429
5905,2140905,20612,-100,-2356,20746.45,24.95,-1.00,-1.0,2386
5907,2140907,12316,-3720,6356,14349.95,24.91,-1.00,-1.0,2441
5910,2140910,18720,4092,-9452,21366.40,24.95,-1.00,-1.0,2376
5915,2140915,13360,-496,1684,13474.85,24.91,-1.00,-1.0,2444
5918,2140918,17852,672,-1484,17926.18,25.00,-1.00,-1.0,2368
5920,2140920,14084,-3648,5292,15481.35,25.00,-1.00,-1.0,2435
5923,2140923,16280,4464,-7020,18282.40,25.00,-1.00,-1.0,2369
5926,2140926,15680,-3328,9048,18406.64,25.00,-1.00,-1.0,2421
5929,2140929,22092,5516,-7976,24126.73,24.95,-1.00,-1.0,2371
5931,2140931,14020,-48,320,14023.73,25.00,-1.00,-1.0,2440
5934,2140934,17208,-128,716,17223.37,24.95,-1.00,-1.0,2357
