timestamp_ms,accel_x,accel_y,accel_z,voltage,soc
2,10928,2300,-5476,-1.00,-1.0
4,24356,-2340,9396,-1.00,-1.0
6,19444,-6596,1500,-1.00,-1.0
12,14132,84,-984,-1.00,-1.0
14,16116,-3232,2588,-1.00,-1.0
16,14212,3312,-560,-1.00,-1.0
18,16608,3968,-1524,-1.00,-1.0
20,18516,-7416,-156,-1.00,-1.0
22,11324,-1344,-3388,-1.00,-1.0
24,17924,3176,8020,-1.00,-1.0
26,18488,-800,-1248,-1.00,-1.0
28,19436,392,-116,-1.00,-1.0
30,18816,-316,456,-1.00,-1.0
32,16072,1328,-1832,-1.00,-1.0
33,18736,-2252,6440,-1.00,-1.0
35,11792,464,-5252,-1.00,-1.0
37,15892,364,4360,-1.00,-1.0
39,18316,-2852,2236,-1.00,-1.0
41,19284,-668,1340,-1.00,-1.0
43,17820,-1124,-984,-1.00,-1.0
47,15772,-1952,-4128,-1.00,-1.0
49,16280,-1788,4172,-1.00,-1.0
51,16084,4852,1448,-1.00,-1.0
53,17736,-284,780,-1.00,-1.0
55,21688,-3904,1652,-1.00,-1.0
57,14408,972,-832,-1.00,-1.0
59,20108,700,4404,-1.00,-1.0
61,17852,-1944,-1396,-1.00,-1.0
63,10060,4784,-7656,-1.00,-1.0
65,19752,8368,2116,-1.00,-1.0
67,15652,780,-7024,-1.00,-1.0
69,12304,-3268,-812,-1.00,-1.0
71,18256,2292,6312,-1.00,-1.0
73,14320,2668,-1844,-1.00,-1.0
75,18156,-1736,-1624,-1.00,-1.0
76,16836,-2704,1760,-1.00,-1.0
78,20468,3056,3636,-1.00,-1.0
83,13552,948,-4644,-1.00,-1.0
85,17768,2824,3016,-1.00,-1.0
86,17704,-2740,4228,-1.00,-1.0
88,19644,-1812,3100,-1.00,-1.0
90,14072,1416,-1564,-1.00,-1.0
92,17688,948,744,-1.00,-1.0
94,19048,-3712,2460,-1.00,-1.0
96,11960,3828,-6884,-1.00,-1.0
98,18280,1516,5784,-1.00,-1.0
100,18056,-6868,4788,-1.00,-1.0
102,18704,-620,1724,-1.00,-1.0
104,19524,-2280,2976,-1.00,-1.0
106,17812,-800,-4548,-1.00,-1.0
108,20132,-5168,5708,-1.00,-1.0
110,14620,-1048,-4404,-1.00,-1.0
112,15516,4420,-448,-1.00,-1.0
116,20104,-2536,4568,-1.00,-1.0
118,18944,-3320,3428,-1.00,-1.0
120,15068,5756,-5476,-1.00,-1.0
122,23104,-1068,10260,-1.00,-1.0
124,17260,-4640,-368,-1.00,-1.0
126,13432,3012,-4956,-1.00,-1.0
128,20044,1212,3812,-1.00,-1.0
130,15776,-2784,256,-1.00,-1.0
132,16840,-3192,852,-1.00,-1.0
134,13804,7352,-4196,-1.00,-1.0
135,20192,-1820,3652,-1.00,-1.0
137,17764,-9248,3976,-1.00,-1.0
139,13280,8720,-3484,-1.00,-1.0
141,16904,2992,-1488,-1.00,-1.0
143,16692,-7668,3060,-1.00,-1.0
145,16908,1492,1092,-1.00,-1.0
149,20688,-816,-2424,-1.00,-1.0
151,20140,-5724,5268,-1.00,-1.0
153,15568,4036,-3236,-1.00,-1.0
155,18032,1420,3528,-1.00,-1.0
157,15604,-2868,-2176,-1.00,-1.0
159,14444,1864,1232,-1.00,-1.0
161,17920,1552,2636,-1.00,-1.0
163,19408,-1560,756,-1.00,-1.0
165,14852,-2556,-5320,-1.00,-1.0
167,18992,4844,2392,-1.00,-1.0
169,21840,-36,4360,-1.00,-1.0
171,18520,-5156,4204,-1.00,-1.0
173,12928,-508,-3868,-1.00,-1.0
175,16624,4884,468,-1.00,-1.0
177,18508,-2540,2520,-1.00,-1.0
178,21668,-1992,5664,-1.00,-1.0
180,16732,-184,-240,-1.00,-1.0
185,18464,-2536,-64,-1.00,-1.0
187,14884,4540,-5236,-1.00,-1.0
188,18912,-1424,4304,-1.00,-1.0
190,16884,-4316,4572,-1.00,-1.0
192,17520,872,960,-1.00,-1.0
194,18192,84,-1428,-1.00,-1.0
196,18280,-376,-672,-1.00,-1.0
198,18084,-1468,2864,-1.00,-1.0
200,17244,5584,-2320,-1.00,-1.0
202,19304,-2428,2748,-1.00,-1.0
204,14772,-5832,2152,-1.00,-1.0
206,14616,5632,1224,-1.00,-1.0
208,18140,2324,-2308,-1.00,-1.0
210,10436,364,-7344,-1.00,-1.0
212,20644,-1960,12608,-1.00,-1.0
214,15380,-316,-2536,-1.00,-1.0
218,18440,72,3452,-1.00,-1.0
220,24372,-4448,12884,-1.00,-1.0
222,15180,-1176,-6848,-1.00,-1.0
224,12384,8752,-9520,-1.00,-1.0
226,24460,-4368,9404,-1.00,-1.0
228,17468,-7776,4536,-1.00,-1.0
230,14616,1032,-2300,-1.00,-1.0
232,22876,1248,8580,-1.00,-1.0
234,17812,-6196,120,-1.00,-1.0
236,17836,3216,-360,-1.00,-1.0
237,17792,2904,-848,-1.00,-1.0
239,18448,-1580,2544,-1.00,-1.0
241,17988,-1976,1632,-1.00,-1.0
243,14312,4912,-3916,-1.00,-1.0
245,18112,-808,2976,-1.00,-1.0
247,16860,-4636,3364,-1.00,-1.0
251,17072,588,-3784,-1.00,-1.0
253,11576,2200,-5704,-1.00,-1.0
255,21244,-928,11264,-1.00,-1.0
257,14004,-2652,-4732,-1.00,-1.0
259,15908,2316,1440,-1.00,-1.0
261,18684,-1112,1352,-1.00,-1.0
263,14692,988,-332,-1.00,-1.0
265,17708,1316,-1536,-1.00,-1.0
267,15028,3792,-2552,-1.00,-1.0
269,19920,-404,4504,-1.00,-1.0
271,16164,-3400,1240,-1.00,-1.0
273,14668,2772,-1396,-1.00,-1.0
275,19472,908,1988,-1.00,-1.0
277,15236,-1024,-1952,-1.00,-1.0
279,18836,552,2248,-1.00,-1.0
280,17668,356,-756,-1.00,-1.0
285,17196,-1960,-1840,-1.00,-1.0
287,15524,-3724,1044,-1.00,-1.0
288,19776,2632,5048,-1.00,-1.0
290,17000,32,-2200,-1.00,-1.0
292,15992,888,-3892,-1.00,-1.0
294,18436,2412,2652,-1.00,-1.0
296,18496,3680,700,-1.00,-1.0
298,16304,-500,-700,-1.00,-1.0
300,12352,-1424,-1268,-1.00,-1.0
302,21304,1500,10116,-1.00,-1.0
304,16488,-2096,-5768,-1.00,-1.0
306,14556,1720,-4440,-1.00,-1.0
308,19996,-624,2680,-1.00,-1.0
310,14276,-1336,-1196,-1.00,-1.0
312,20596,1108,6188,-1.00,-1.0
314,15652,216,-6020,-1.00,-1.0
316,16844,-2464,316,-1.00,-1.0
320,15548,2244,-3996,-1.00,-1.0
322,18000,-1352,452,-1.00,-1.0
324,18072,-1308,388,-1.00,-1.0
325,15684,4380,-3596,-1.00,-1.0
327,18428,-960,548,-1.00,-1.0
329,18660,-4752,5400,-1.00,-1.0
331,16172,2936,-2148,-1.00,-1.0
333,18804,152,1904,-1.00,-1.0
335,18392,536,148,-1.00,-1.0
337,15456,652,-1388,-1.00,-1.0
339,17288,3348,-708,-1.00,-1.0
341,17348,860,-116,-1.00,-1.0
343,15460,-3080,3636,-1.00,-1.0
345,19448,1056,4920,-1.00,-1.0
347,15104,1084,-5696,-1.00,-1.0
349,13160,1108,-3624,-1.00,-1.0
353,13772,8,-2624,-1.00,-1.0
355,18424,2816,2716,-1.00,-1.0
357,16652,-1672,-2616,-1.00,-1.0
359,15164,2280,-176,-1.00,-1.0
361,19892,828,4080,-1.00,-1.0
363,13148,468,-5028,-1.00,-1.0
365,18068,-416,4344,-1.00,-1.0
367,18512,548,660,-1.00,-1.0
369,17244,600,1520,-1.00,-1.0
371,16960,-304,2932,-1.00,-1.0
372,17152,-3220,4628,-1.00,-1.0
374,16540,1948,-656,-1.00,-1.0
376,16796,184,-612,-1.00,-1.0
378,19160,2300,1000,-1.00,-1.0
380,16908,-516,-308,-1.00,-1.0
382,13464,-936,-1348,-1.00,-1.0
384,19848,2536,5100,-1.00,-1.0
388,14396,-244,-3692,-1.00,-1.0
390,19972,1600,6236,-1.00,-1.0
392,14572,1096,-6260,-1.00,-1.0
394,18076,-2664,5352,-1.00,-1.0
396,14396,-1468,40,-1.00,-1.0
398,16172,2804,2848,-1.00,-1.0
400,18216,-3052,-3560,-1.00,-1.0
402,14288,1244,-2676,-1.00,-1.0
404,19240,1880,4848,-1.00,-1.0
406,16088,-2148,504,-1.00,-1.0
408,17492,436,224,-1.00,-1.0
410,17708,-324,828,-1.00,-1.0
412,17720,1484,364,-1.00,-1.0
414,18820,220,1152,-1.00,-1.0
416,16328,-3040,4316,-1.00,-1.0
417,18668,-1512,3088,-1.00,-1.0
422,18560,4680,1672,-1.00,-1.0
424,17384,664,-5364,-1.00,-1.0
426,15028,748,-2004,-1.00,-1.0
427,15492,1296,-884,-1.00,-1.0
429,20088,-640,1220,-1.00,-1.0
431,16116,-1096,-3412,-1.00,-1.0
433,21700,-2128,9612,-1.00,-1.0
435,15096,-1372,-3032,-1.00,-1.0
437,13604,1500,728,-1.00,-1.0
439,17176,-1540,3308,-1.00,-1.0
441,18964,-2292,5696,-1.00,-1.0
443,16780,-1876,-2708,-1.00,-1.0
445,14816,6232,-6872,-1.00,-1.0
447,23352,-3948,8912,-1.00,-1.0
449,17648,-7356,6312,-1.00,-1.0
451,11856,4748,-4420,-1.00,-1.0
455,16008,-2752,128,-1.00,-1.0
457,16300,-1060,1716,-1.00,-1.0
459,12460,3640,-5296,-1.00,-1.0
461,15552,1188,808,-1.00,-1.0
463,20728,-6332,10044,-1.00,-1.0
465,17568,2268,-1604,-1.00,-1.0
467,16008,2016,-5764,-1.00,-1.0
469,18324,-3612,3348,-1.00,-1.0
471,17724,1652,3196,-1.00,-1.0
473,15336,968,-1668,-1.00,-1.0
475,17872,572,-1420,-1.00,-1.0
476,19552,-520,5100,-1.00,-1.0
478,12704,-816,-6436,-1.00,-1.0
480,15076,4208,3524,-1.00,-1.0
482,22208,-2868,6448,-1.00,-1.0
484,15856,-2416,-3692,-1.00,-1.0
488,13872,2448,-2788,-1.00,-1.0
490,19020,-3264,4272,-1.00,-1.0
492,17820,-3164,2784,-1.00,-1.0
494,14144,6776,-6068,-1.00,-1.0
496,21328,-1404,5260,-1.00,-1.0
498,16680,-5876,-8,-1.00,-1.0
500,19720,3004,5456,-1.00,-1.0
502,17228,652,-4112,-1.00,-1.0
504,11912,760,-3488,-1.00,-1.0
506,21160,-1044,7692,-1.00,-1.0
508,13932,-696,-3568,-1.00,-1.0
510,16160,4412,532,-1.00,-1.0
512,17060,-1952,-1972,-1.00,-1.0
514,16260,-828,4696,-1.00,-1.0
516,19448,896,3052,-1.00,-1.0
518,13824,4804,-8540,-1.00,-1.0
519,19608,-984,2052,-1.00,-1.0
524,18364,2472,6412,-1.00,-1.0
526,15192,-2052,-6272,-1.00,-1.0
528,12220,228,-7504,-1.00,-1.0
529,22252,2232,10364,-1.00,-1.0
532,19920,-3908,1260,-1.00,-1.0
533,18316,1344,372,-1.00,-1.0
535,19016,-1880,6328,-1.00,-1.0
537,12100,1068,-4660,-1.00,-1.0
539,16292,1948,192,-1.00,-1.0
541,18000,-3488,1992,-1.00,-1.0
543,15560,512,-1184,-1.00,-1.0
545,18540,1104,2788,-1.00,-1.0
547,15244,-628,-1092,-1.00,-1.0
549,18780,-1428,2784,-1.00,-1.0
551,18056,-1692,1096,-1.00,-1.0
553,15620,3872,-3536,-1.00,-1.0
557,15652,-3612,-1476,-1.00,-1.0
559,17700,3240,4012,-1.00,-1.0
561,17056,-656,-384,-1.00,-1.0
563,17084,-1064,2104,-1.00,-1.0
565,17696,-2320,388,-1.00,-1.0
567,15872,3164,-1896,-1.00,-1.0
569,19900,928,2600,-1.00,-1.0
570,20144,-6000,5784,-1.00,-1.0
573,13952,1992,-4068,-1.00,-1.0
574,16380,3176,1648,-1.00,-1.0
576,17572,-1588,-1340,-1.00,-1.0
578,18592,-2056,4532,-1.00,-1.0
580,18424,-2372,-824,-1.00,-1.0
582,15448,4452,-4144,-1.00,-1.0
584,20816,-1088,2464,-1.00,-1.0
586,16964,-5124,3548,-1.00,-1.0
590,15080,668,-3404,-1.00,-1.0
592,15160,-556,-1880,-1.00,-1.0
594,20736,-928,5988,-1.00,-1.0
596,13860,-900,-1384,-1.00,-1.0
598,17088,3176,2476,-1.00,-1.0
600,16256,-2524,-2352,-1.00,-1.0
602,15608,556,1048,-1.00,-1.0
604,19264,3176,2652,-1.00,-1.0
606,14980,-1240,-2464,-1.00,-1.0
608,17284,40,456,-1.00,-1.0
610,17384,-64,980,-1.00,-1.0
611,20728,1816,4748,-1.00,-1.0
614,18652,-2604,-2012,-1.00,-1.0
616,13104,-888,-4524,-1.00,-1.0
617,20416,2716,7352,-1.00,-1.0
619,18352,948,1704,-1.00,-1.0
621,17008,-840,-1708,-1.00,-1.0
625,14524,-1472,-2604,-1.00,-1.0
627,20868,1264,1624,-1.00,-1.0
629,19432,72,5732,-1.00,-1.0
631,15472,-2032,-2676,-1.00,-1.0
633,17708,4396,904,-1.00,-1.0
635,17036,-1424,-2216,-1.00,-1.0
637,17492,676,3876,-1.00,-1.0
639,19368,-1960,328,-1.00,-1.0
641,14904,3040,-5320,-1.00,-1.0
643,19872,360,2736,-1.00,-1.0
645,17464,-108,1328,-1.00,-1.0
647,17044,472,1488,-1.00,-1.0
649,16816,-16,304,-1.00,-1.0
651,14724,6448,-8532,-1.00,-1.0
653,21472,-1040,6408,-1.00,-1.0
655,17392,-6156,1752,-1.00,-1.0
659,17104,2300,-5880,-1.00,-1.0
661,11672,-1716,-4640,-1.00,-1.0
663,22880,-1144,12772,-1.00,-1.0
665,13604,776,-4904,-1.00,-1.0
667,13332,3412,-3932,-1.00,-1.0
669,20096,-1304,2792,-1.00,-1.0
670,20148,1316,5408,-1.00,-1.0
672,17428,-1348,-3668,-1.00,-1.0
674,13852,20,-1320,-1.00,-1.0
676,19300,404,3780,-1.00,-1.0
678,17824,-16,2908,-1.00,-1.0
680,15580,372,88,-1.00,-1.0
682,19956,-780,5404,-1.00,-1.0
684,16540,-4296,-1580,-1.00,-1.0
686,13492,4752,-4712,-1.00,-1.0
688,20628,-416,5400,-1.00,-1.0
692,19244,1336,2616,-1.00,-1.0
694,15616,-60,-652,-1.00,-1.0
696,17688,-860,2400,-1.00,-1.0
698,18432,-2856,2100,-1.00,-1.0
700,12836,3540,-6824,-1.00,-1.0
702,20908,48,5980,-1.00,-1.0
704,18316,-5952,4020,-1.00,-1.0
706,14460,2924,1376,-1.00,-1.0
708,17096,1100,-1256,-1.00,-1.0
710,14260,-1020,-5616,-1.00,-1.0
712,20596,-1240,8380,-1.00,-1.0
714,16032,-580,-1836,-1.00,-1.0
716,15316,1424,2352,-1.00,-1.0
718,18564,-3296,1044,-1.00,-1.0
719,15724,2584,-4028,-1.00,-1.0
721,21776,-288,6340,-1.00,-1.0
723,16688,-2632,-476,-1.00,-1.0
727,18240,-1264,324,-1.00,-1.0
729,12924,-600,-3852,-1.00,-1.0
731,20660,524,8844,-1.00,-1.0
733,18604,332,2704,-1.00,-1.0
735,16480,316,1128,-1.00,-1.0
737,17348,-284,792,-1.00,-1.0
739,13552,2496,-3940,-1.00,-1.0
741,17788,500,2816,-1.00,-1.0
743,16216,-4232,1840,-1.00,-1.0
745,17888,4284,2796,-1.00,-1.0
747,18212,-448,-2344,-1.00,-1.0
749,15612,-5332,-124,-1.00,-1.0
751,20480,1872,4004,-1.00,-1.0
753,17896,-568,536,-1.00,-1.0
755,13940,576,-6144,-1.00,-1.0
757,21196,-2172,10124,-1.00,-1.0
761,19000,260,8604,-1.00,-1.0
763,16824,-5124,-400,-1.00,-1.0
765,10340,3400,-3084,-1.00,-1.0
767,17608,1584,2204,-1.00,-1.0
769,15644,384,668,-1.00,-1.0
771,18488,-1368,1108,-1.00,-1.0
773,15276,-1260,424,-1.00,-1.0
774,17336,2944,1284,-1.00,-1.0
776,19744,-4468,2640,-1.00,-1.0
778,16480,-2504,-2560,-1.00,-1.0
780,19632,3512,3948,-1.00,-1.0
782,16800,3448,-2440,-1.00,-1.0
784,16212,-1432,-2556,-1.00,-1.0
786,21328,-2160,4132,-1.00,-1.0
788,14464,1320,-3112,-1.00,-1.0
790,14836,5360,-3096,-1.00,-1.0
794,14100,1828,-4764,-1.00,-1.0
796,18032,3408,880,-1.00,-1.0
798,19460,-3876,3908,-1.00,-1.0
800,14060,1528,-4888,-1.00,-1.0
802,16492,2268,-628,-1.00,-1.0
804,16632,4660,-2340,-1.00,-1.0
806,16848,936,1076,-1.00,-1.0
808,11952,-760,-1764,-1.00,-1.0
810,17088,5444,4712,-1.00,-1.0
812,16412,-2840,-1604,-1.00,-1.0
814,12596,-120,-3264,-1.00,-1.0
816,20840,3212,4172,-1.00,-1.0
818,18432,-2472,2240,-1.00,-1.0
820,15460,920,-6144,-1.00,-1.0
821,19744,-804,6616,-1.00,-1.0
823,14036,2832,-6628,-1.00,-1.0
827,17384,-3140,1472,-1.00,-1.0
829,13888,3052,1152,-1.00,-1.0
831,16616,360,-548,-1.00,-1.0
833,15832,-368,3184,-1.00,-1.0
835,17420,304,1324,-1.00,-1.0
837,15680,-2356,-1088,-1.00,-1.0
839,16644,6320,-4796,-1.00,-1.0
841,22324,-1492,5708,-1.00,-1.0
843,17980,-8512,2920,-1.00,-1.0
845,12400,6116,-1640,-1.00,-1.0
847,15288,4544,-2072,-1.00,-1.0
849,16096,1728,-2000,-1.00,-1.0
851,18696,-1140,2996,-1.00,-1.0
853,11016,3044,-3320,-1.00,-1.0
855,15248,5484,3424,-1.00,-1.0
857,14284,-3668,-2492,-1.00,-1.0
858,13632,1200,-692,-1.00,-1.0
863,18480,-2820,1348,-1.00,-1.0
865,18144,1800,-5532,-1.00,-1.0
866,18732,-24,1200,-1.00,-1.0
868,17328,4164,-2840,-1.00,-1.0
870,18228,1288,2652,-1.00,-1.0
872,16068,-3408,-2404,-1.00,-1.0
874,14344,3160,2244,-1.00,-1.0
876,19124,1480,864,-1.00,-1.0
878,16492,-40,-2144,-1.00,-1.0
880,17028,-24,-2864,-1.00,-1.0
882,16404,-2552,2836,-1.00,-1.0
884,18460,7024,-5860,-1.00,-1.0
886,22944,-4488,7600,-1.00,-1.0
888,17464,-9568,2156,-1.00,-1.0
890,14560,6964,3148,-1.00,-1.0
892,14448,4760,-8576,-1.00,-1.0
896,19228,-1316,8760,-1.00,-1.0
898,8536,5864,-6464,-1.00,-1.0
900,15816,2100,852,-1.00,-1.0
902,18620,-7196,5196,-1.00,-1.0
904,13564,4120,-3812,-1.00,-1.0
906,21104,2396,1564,-1.00,-1.0
908,19868,-5568,4008,-1.00,-1.0
909,18140,3356,-2916,-1.00,-1.0
912,17184,2980,-3260,-1.00,-1.0
913,14920,1268,-5096,-1.00,-1.0
915,20668,-600,10548,-1.00,-1.0
917,13020,-612,-4700,-1.00,-1.0
919,14732,-188,4544,-1.00,-1.0
921,17568,-3796,1152,-1.00,-1.0
923,13256,3128,-6948,-1.00,-1.0
925,18212,1780,2616,-1.00,-1.0
929,18180,28,7176,-1.00,-1.0
931,15484,-4632,-1696,-1.00,-1.0
933,13636,4396,-7456,-1.00,-1.0
935,18060,4964,10200,-1.00,-1.0
937,20004,-7164,4036,-1.00,-1.0
939,10920,3152,-4748,-1.00,-1.0
941,21208,576,5948,-1.00,-1.0
943,15560,-1204,1120,-1.00,-1.0
945,16520,2468,-1924,-1.00,-1.0
947,15580,-424,-2176,-1.00,-1.0
949,18020,3720,2228,-1.00,-1.0
951,22172,-2808,3352,-1.00,-1.0
953,16420,-4980,-764,-1.00,-1.0
955,17040,4700,1536,-1.00,-1.0
957,17324,892,-2072,-1.00,-1.0
958,14796,580,-5524,-1.00,-1.0
963,10752,2756,-6216,-1.00,-1.0
965,15600,2972,5368,-1.00,-1.0
967,17332,-5492,0,-1.00,-1.0
968,12640,2488,-4856,-1.00,-1.0
971,19936,1856,5040,-1.00,-1.0
972,15040,-1512,-392,-1.00,-1.0
974,18384,-2156,3620,-1.00,-1.0
976,14796,-1900,-1828,-1.00,-1.0
978,16068,6588,-3624,-1.00,-1.0
980,24712,-5828,6572,-1.00,-1.0
982,18712,-7544,1284,-1.00,-1.0
984,17540,5688,2024,-1.00,-1.0
986,19556,4248,4312,-1.00,-1.0
988,15652,-3652,3000,-1.00,-1.0
990,20164,-684,1952,-1.00,-1.0
992,15688,404,-4352,-1.00,-1.0
994,19172,5684,100,-1.00,-1.0
998,16584,-5060,-1968,-1.00,-1.0
1000,13720,6236,-1140,-1.00,-1.0
1002,17352,2568,-28,-1.00,-1.0
1004,16508,-1580,-3384,-1.00,-1.0
1006,21188,-5072,11664,-1.00,-1.0
1008,9660,2600,-9780,-1.00,-1.0
1010,15496,4096,6880,-1.00,-1.0
1012,17896,-5536,-264,-1.00,-1.0
1014,13664,504,-608,-1.00,-1.0
1016,17948,2060,2596,-1.00,-1.0
1017,13768,1996,-1768,-1.00,-1.0
1019,19684,-4188,2104,-1.00,-1.0
1021,15304,-3192,2212,-1.00,-1.0
1023,16776,5696,-2180,-1.00,-1.0
1025,21180,-4896,4160,-1.00,-1.0
1029,21084,3580,7868,-1.00,-1.0
1031,18756,-1064,-2748,-1.00,-1.0
1033,12352,-332,-8060,-1.00,-1.0
1035,20944,-3068,9556,-1.00,-1.0
1037,15656,-320,-164,-1.00,-1.0
1039,16132,2160,944,-1.00,-1.0
1041,16632,-2184,-1824,-1.00,-1.0
1043,20896,884,8912,-1.00,-1.0
1045,18984,-4208,-604,-1.00,-1.0
1047,12492,-2116,-1480,-1.00,-1.0
1049,11624,3780,-8408,-1.00,-1.0
1051,18968,1348,4732,-1.00,-1.0
1053,15604,-1720,1088,-1.00,-1.0
1055,16432,628,2816,-1.00,-1.0
1057,9856,2516,-7536,-1.00,-1.0
1059,20056,2108,7952,-1.00,-1.0
1063,12992,-272,-4488,-1.00,-1.0
1065,20076,4988,2196,-1.00,-1.0
1067,22588,-4772,4972,-1.00,-1.0
1069,14244,804,-10972,-1.00,-1.0
1071,19812,2424,8584,-1.00,-1.0
1073,12352,2476,-5508,-1.00,-1.0
1075,16380,564,7684,-1.00,-1.0
1076,15032,-4376,-3448,-1.00,-1.0
1078,10980,5448,-2068,-1.00,-1.0
1080,21000,-984,4524,-1.00,-1.0
1082,16420,-4868,3380,-1.00,-1.0
1084,18556,220,2200,-1.00,-1.0
1086,14100,2708,-4876,-1.00,-1.0
1088,21040,788,3436,-1.00,-1.0
1090,24548,-9184,6172,-1.00,-1.0
1092,14704,-1076,-2544,-1.00,-1.0
1096,16980,-2380,-2248,-1.00,-1.0
1098,19472,-488,3500,-1.00,-1.0
1100,20128,-2560,4552,-1.00,-1.0
1102,14040,104,-3080,-1.00,-1.0
1104,18380,4504,-1152,-1.00,-1.0
1106,22960,-6048,4748,-1.00,-1.0
1108,16704,-4924,-1240,-1.00,-1.0
1110,18784,5468,3820,-1.00,-1.0
1112,18180,296,-4388,-1.00,-1.0
1114,16876,-1100,-3608,-1.00,-1.0
1116,21348,-4920,9364,-1.00,-1.0
1117,9880,1976,-5480,-1.00,-1.0
1120,14600,4464,2048,-1.00,-1.0
1121,17964,-6136,536,-1.00,-1.0
1123,13188,396,-772,-1.00,-1.0
1125,20428,3300,5296,-1.00,-1.0
1129,18656,-2616,3676,-1.00,-1.0
1131,13828,-1776,-1296,-1.00,-1.0
1133,17544,9804,-1708,-1.00,-1.0
1135,25696,-7380,5500,-1.00,-1.0
1137,17944,-9688,2556,-1.00,-1.0
1139,16140,7448,1784,-1.00,-1.0
1141,16412,5368,-5768,-1.00,-1.0
1143,19116,-2060,588,-1.00,-1.0
1145,18960,-3332,7820,-1.00,-1.0
1147,8628,7272,-5928,-1.00,-1.0
1149,18512,6304,-2796,-1.00,-1.0
1151,14748,-7916,-1592,-1.00,-1.0
1153,12792,3588,-456,-1.00,-1.0
1155,14728,6796,740,-1.00,-1.0
1157,16656,1380,-1484,-1.00,-1.0
1161,15296,1548,-5332,-1.00,-1.0
1163,13172,5320,-6060,-1.00,-1.0
1165,12176,5576,-3688,-1.00,-1.0
1167,18920,-4440,1084,-1.00,-1.0
1169,20108,-596,5708,-1.00,-1.0
1171,16640,1964,-2392,-1.00,-1.0
1173,12992,1768,-1856,-1.00,-1.0
1174,19036,1056,3116,-1.00,-1.0
1177,17132,-3100,252,-1.00,-1.0
1179,15480,6908,-5972,-1.00,-1.0
1180,21912,1220,3840,-1.00,-1.0
1182,13300,-4192,-2084,-1.00,-1.0
1184,15768,4696,4104,-1.00,-1.0
1186,15372,-72,-2376,-1.00,-1.0
1188,13324,1108,-3288,-1.00,-1.0
1190,21080,-292,4256,-1.00,-1.0
1194,16476,4732,-1668,-1.00,-1.0
1196,18200,-2684,1084,-1.00,-1.0
1198,14232,3644,-6416,-1.00,-1.0
1200,21080,2100,4508,-1.00,-1.0
1202,17016,-3200,-352,-1.00,-1.0
1204,14076,5456,-1040,-1.00,-1.0
1206,17704,-64,-108,-1.00,-1.0
1208,14692,-656,-1628,-1.00,-1.0
1210,21260,-260,7064,-1.00,-1.0
1212,12684,-128,-6124,-1.00,-1.0
1214,14188,1864,-4224,-1.00,-1.0
1216,19820,1104,5820,-1.00,-1.0
1218,17084,-3188,-1404,-1.00,-1.0
1220,12300,4108,-4420,-1.00,-1.0
1222,18332,1208,4448,-1.00,-1.0
1223,17172,1188,208,-1.00,-1.0
1228,11284,664,-4768,-1.00,-1.0
1230,19588,6392,5932,-1.00,-1.0
1232,21084,-6936,1704,-1.00,-1.0
1233,14320,-3896,-2936,-1.00,-1.0
1236,19400,5976,3932,-1.00,-1.0
1238,16820,764,-3664,-1.00,-1.0
1239,18896,-972,-1352,-1.00,-1.0
1241,21052,-4084,7308,-1.00,-1.0
1243,11036,2408,-5540,-1.00,-1.0
1245,17296,2644,3080,-1.00,-1.0
1247,18432,-6072,952,-1.00,-1.0
1249,12568,2440,-2560,-1.00,-1.0
1251,19900,3388,4700,-1.00,-1.0
1253,16484,2116,-1312,-1.00,-1.0
1255,19812,-3500,3756,-1.00,-1.0
1259,15972,9776,1352,-1.00,-1.0
1261,22480,-4636,2348,-1.00,-1.0
1263,16168,-7220,1268,-1.00,-1.0
1265,16852,5480,2380,-1.00,-1.0
1267,15228,2752,-3712,-1.00,-1.0
1269,17336,1812,-5900,-1.00,-1.0
1271,22612,-4312,8660,-1.00,-1.0
1273,12992,-356,-740,-1.00,-1.0
1275,14572,7836,1880,-1.00,-1.0
1277,15352,-2848,-4612,-1.00,-1.0
1279,21728,-7588,4312,-1.00,-1.0
1281,11788,4812,-8440,-1.00,-1.0
1283,17148,2324,2044,-1.00,-1.0
1285,18656,-1464,1568,-1.00,-1.0
1287,19716,-5900,4980,-1.00,-1.0
1288,12760,2028,-4668,-1.00,-1.0
1293,18600,-6568,3312,-1.00,-1.0
1295,15748,-192,212,-1.00,-1.0
1297,18184,2300,1616,-1.00,-1.0
1298,14400,-704,-2476,-1.00,-1.0
1301,16952,5188,-2668,-1.00,-1.0
1303,20844,-3028,3388,-1.00,-1.0
1304,13576,-1108,-1288,-1.00,-1.0
1306,18264,3860,7708,-1.00,-1.0
1308,13160,-540,-7088,-1.00,-1.0
1310,16000,3408,-3620,-1.00,-1.0
1312,24428,-4828,10364,-1.00,-1.0
1314,16292,-3004,-516,-1.00,-1.0
1316,17140,1120,1196,-1.00,-1.0
1318,15112,-36,-5096,-1.00,-1.0
1320,15512,2180,-1800,-1.00,-1.0
1322,23272,-3996,10168,-1.00,-1.0
1326,18208,-616,7964,-1.00,-1.0
1328,15180,-5276,-2276,-1.00,-1.0
1330,10840,3452,-4392,-1.00,-1.0
1332,22648,-728,7596,-1.00,-1.0
1334,16540,-1688,712,-1.00,-1.0
1336,18784,-1164,4416,-1.00,-1.0
1338,12960,-1652,-4364,-1.00,-1.0
1340,14504,7800,-3836,-1.00,-1.0
1342,25516,-4388,10368,-1.00,-1.0
1344,17752,-8100,-2404,-1.00,-1.0
1346,11448,300,-3556,-1.00,-1.0
1348,20420,4728,5652,-1.00,-1.0
1350,16748,-852,-544,-1.00,-1.0
1351,21596,-3104,5640,-1.00,-1.0
1353,18908,-4424,264,-1.00,-1.0
1357,26396,-3720,13924,-1.00,-1.0
1359,17440,-8484,-628,-1.00,-1.0
1361,7452,8528,-5332,-1.00,-1.0
1363,18884,4852,3208,-1.00,-1.0
1365,13876,-6340,1832,-1.00,-1.0
1367,20880,-2888,9920,-1.00,-1.0
1369,10940,3576,-9476,-1.00,-1.0
1371,15888,7104,-3872,-1.00,-1.0
1373,28868,-12428,13512,-1.00,-1.0
1375,19036,-6684,1496,-1.00,-1.0
1377,13936,7460,-4392,-1.00,-1.0
1379,21000,2332,6724,-1.00,-1.0
1381,18680,-4612,-2664,-1.00,-1.0
1383,20072,-4104,10964,-1.00,-1.0
1385,14996,2708,-1552,-1.00,-1.0
1386,19520,6280,-2972,-1.00,-1.0
1391,15388,-3056,-2660,-1.00,-1.0
1393,15812,6640,228,-1.00,-1.0
1394,17832,-992,504,-1.00,-1.0
1396,11308,-1584,-5952,-1.00,-1.0
1398,21476,-364,12308,-1.00,-1.0
1400,9868,1104,-5908,-1.00,-1.0
1402,15736,3120,2004,-1.00,-1.0
1404,19912,-6756,1504,-1.00,-1.0
1406,18668,-1640,3664,-1.00,-1.0
1408,20848,1660,2868,-1.00,-1.0
1410,16768,1704,-3688,-1.00,-1.0
1412,17440,600,-3780,-1.00,-1.0
1414,20972,-3184,9780,-1.00,-1.0
1416,15748,600,-3468,-1.00,-1.0
1418,16236,3268,2324,-1.00,-1.0
1422,19068,3240,7544,-1.00,-1.0
1424,20004,-3004,-152,-1.00,-1.0
1426,13188,-1312,-1540,-1.00,-1.0
1428,16880,2000,1968,-1.00,-1.0
1430,15956,580,-32,-1.00,-1.0
1432,16040,4292,-4692,-1.00,-1.0
1434,21772,-2524,7536,-1.00,-1.0
1436,16136,-5524,-5008,-1.00,-1.0
1438,17468,6560,4644,-1.00,-1.0
1440,24820,-2644,13376,-1.00,-1.0
1442,18672,-5808,488,-1.00,-1.0
1443,10112,2960,-6888,-1.00,-1.0
1445,18384,2380,5256,-1.00,-1.0
1447,17168,-2100,1892,-1.00,-1.0
1449,19696,-5556,5012,-1.00,-1.0
1451,9328,3612,-9488,-1.00,-1.0
1455,21912,-9360,3292,-1.00,-1.0
1457,13696,-2932,-468,-1.00,-1.0
1459,18024,5052,1460,-1.00,-1.0
1461,17420,-612,-96,-1.00,-1.0
1463,17688,-2012,-5272,-1.00,-1.0
1465,20544,-2680,7304,-1.00,-1.0
1467,12884,2820,-5112,-1.00,-1.0
1469,18560,3100,8356,-1.00,-1.0
1471,17920,-8200,-3120,-1.00,-1.0
1473,10888,-556,-1116,-1.00,-1.0
1475,20152,3652,6748,-1.00,-1.0
1477,16708,416,-3144,-1.00,-1.0
1479,20412,-1684,812,-1.00,-1.0
1481,20868,-2928,5424,-1.00,-1.0
1483,11192,6276,-5992,-1.00,-1.0
1485,15016,6632,-1072,-1.00,-1.0
1489,10420,4880,-4628,-1.00,-1.0
1491,20388,3252,5196,-1.00,-1.0
1493,16496,-560,-2792,-1.00,-1.0
1495,16184,-2648,-1588,-1.00,-1.0
1497,15464,-560,-2144,-1.00,-1.0
1499,13400,4240,-5936,-1.00,-1.0
1500,19388,1904,6260,-1.00,-1.0
1502,19844,-8320,2956,-1.00,-1.0
1504,12320,40,-3004,-1.00,-1.0
1506,18656,3432,3448,-1.00,-1.0
1508,15676,-944,-3300,-1.00,-1.0
1510,16760,796,-3516,-1.00,-1.0
1512,19740,-3084,5472,-1.00,-1.0
1514,14940,652,-1328,-1.00,-1.0
1516,18816,632,7064,-1.00,-1.0
1518,17464,-1624,-4768,-1.00,-1.0
1522,22496,244,10844,-1.00,-1.0
1524,14916,288,-4340,-1.00,-1.0
1526,18076,-1624,7396,-1.00,-1.0
1528,16944,-2812,-188,-1.00,-1.0
1530,10288,4000,-3308,-1.00,-1.0
1532,19828,-780,3548,-1.00,-1.0
1534,17880,-876,1448,-1.00,-1.0
1536,14944,5956,-7796,-1.00,-1.0
1538,21864,-1160,7112,-1.00,-1.0
1540,14900,-676,-3552,-1.00,-1.0
1542,17128,3940,5952,-1.00,-1.0
1544,16460,-432,-5112,-1.00,-1.0
1546,11548,1928,-2880,-1.00,-1.0
1548,18732,2040,3996,-1.00,-1.0
1549,18024,-20,2920,-1.00,-1.0
1554,17808,-964,3240,-1.00,-1.0
1556,13524,5280,-4764,-1.00,-1.0
1558,19664,-2196,2836,-1.00,-1.0
1559,18688,-6008,3620,-1.00,-1.0
1562,17720,5192,2452,-1.00,-1.0
1563,20152,-452,5400,-1.00,-1.0
1565,14968,-5376,-1788,-1.00,-1.0
1567,16252,184,664,-1.00,-1.0
1569,19008,-348,1792,-1.00,-1.0
1571,13064,-460,-4068,-1.00,-1.0
1573,20352,-224,8692,-1.00,-1.0
1575,19688,-2896,804,-1.00,-1.0
1577,14752,2356,-916,-1.00,-1.0
1579,19180,-488,3280,-1.00,-1.0
1581,13520,-2184,-1144,-1.00,-1.0
1583,19612,1244,5132,-1.00,-1.0
1587,11272,768,-6124,-1.00,-1.0
1589,23968,-392,13024,-1.00,-1.0
1591,20952,-4052,-156,-1.00,-1.0
1593,7468,2120,-11800,-1.00,-1.0
1595,22920,528,13936,-1.00,-1.0
1597,16508,-4828,956,-1.00,-1.0
1599,10412,5204,-8524,-1.00,-1.0
1601,23120,1460,5256,-1.00,-1.0
1603,18948,-6368,5240,-1.00,-1.0
1605,15716,3056,272,-1.00,-1.0
1607,15200,6476,-6068,-1.00,-1.0
1608,19168,-2996,4680,-1.00,-1.0
1611,18576,-4152,4620,-1.00,-1.0
1613,8476,8108,-14972,-1.00,-1.0
1614,16940,7072,3276,-1.00,-1.0
1616,17904,-5040,-2004,-1.00,-1.0
1620,17052,6152,4116,-1.00,-1.0
1622,19516,2940,-2548,-1.00,-1.0
1624,13720,-2764,-7524,-1.00,-1.0
1626,25064,1576,15772,-1.00,-1.0
1628,16116,-676,-6556,-1.00,-1.0
1630,10368,4808,-8692,-1.00,-1.0
1632,21976,-1424,10156,-1.00,-1.0
1634,19248,-4616,5200,-1.00,-1.0
1636,10856,3140,-6300,-1.00,-1.0
1638,16328,6624,-2012,-1.00,-1.0
1640,18172,1084,-4540,-1.00,-1.0
1642,22360,-2572,10832,-1.00,-1.0
1644,13336,-512,-5296,-1.00,-1.0
1646,15076,7952,44,-1.00,-1.0
1648,18724,-5036,-264,-1.00,-1.0
1652,16772,4236,-636,-1.00,-1.0
1654,17936,4724,-2856,-1.00,-1.0
1656,14980,-3080,-5648,-1.00,-1.0
1658,25888,-276,19516,-1.00,-1.0
1660,16404,-2260,-7812,-1.00,-1.0
1662,7208,6012,-7880,-1.00,-1.0
1664,22372,-216,9376,-1.00,-1.0
1665,18560,-5188,6380,-1.00,-1.0
1668,9960,2084,-9164,-1.00,-1.0
1670,17768,6788,912,-1.00,-1.0
1671,15900,1936,-3536,-1.00,-1.0
1673,17924,-208,2444,-1.00,-1.0
1675,18804,-2720,-748,-1.00,-1.0
1677,10712,4912,-6252,-1.00,-1.0
1679,22044,1344,12236,-1.00,-1.0
1681,18604,-3784,-2336,-1.00,-1.0
1685,21524,2960,11280,-1.00,-1.0
1687,20644,-6996,480,-1.00,-1.0
1689,11088,1804,-8824,-1.00,-1.0
1691,21924,1892,7548,-1.00,-1.0
1693,14816,-2784,1072,-1.00,-1.0
1695,16276,520,3324,-1.00,-1.0
1697,19880,668,-3708,-1.00,-1.0
1699,15372,-4052,-1112,-1.00,-1.0
1701,20912,1724,8576,-1.00,-1.0
1703,18280,540,-4140,-1.00,-1.0
1705,15984,848,-7352,-1.00,-1.0
1707,24024,-5180,14296,-1.00,-1.0
1709,14440,-2440,-1300,-1.00,-1.0
1711,15456,2924,4168,-1.00,-1.0
1713,20012,548,-2724,-1.00,-1.0
1714,13656,-4592,-2596,-1.00,-1.0
1719,19008,1808,-2440,-1.00,-1.0
1721,10464,2300,-9528,-1.00,-1.0
1723,23292,-628,17536,-1.00,-1.0
1724,19524,-3876,708,-1.00,-1.0
1727,5204,3268,-11408,-1.00,-1.0
1729,19188,4924,3812,-1.00,-1.0
1730,17388,-5040,4076,-1.00,-1.0
1732,15728,2092,416,-1.00,-1.0
1734,16664,3080,-8952,-1.00,-1.0
1736,15688,-4116,-3796,-1.00,-1.0
1738,9548,5100,-2188,-1.00,-1.0
1740,20888,-144,-24,-1.00,-1.0
1742,16212,-4352,4040,-1.00,-1.0
1744,16772,1760,2372,-1.00,-1.0
1746,18724,5592,-3624,-1.00,-1.0
1750,26680,-4412,20720,-1.00,-1.0
1752,18112,-5608,-3496,-1.00,-1.0
1754,8052,6988,-8492,-1.00,-1.0
1756,20204,1792,3768,-1.00,-1.0
1758,21064,-9472,9320,-1.00,-1.0
1760,9496,4240,-6648,-1.00,-1.0
1762,17556,7644,-3440,-1.00,-1.0
1764,11400,-3204,-3188,-1.00,-1.0
1766,20828,-940,19864,-1.00,-1.0
1768,14776,936,-13000,-1.00,-1.0
1770,6912,1320,-9584,-1.00,-1.0
1772,24468,364,13844,-1.00,-1.0
1774,24212,-4352,6740,-1.00,-1.0
1776,8988,372,-18052,-1.00,-1.0
1778,22468,1348,10776,-1.00,-1.0
1779,14964,-2864,172,-1.00,-1.0
1784,15528,-564,-15560,-1.00,-1.0
1786,13360,-5120,6720,-1.00,-1.0
1788,19196,3116,9240,-1.00,-1.0
1790,19836,2348,-3816,-1.00,-1.0
1792,14708,-7980,-6940,-1.00,-1.0
1794,26916,3320,19624,-1.00,-1.0
1795,18004,92,-8404,-1.00,-1.0
1797,12536,-384,-2088,-1.00,-1.0
1799,26152,-5540,10288,-1.00,-1.0
1801,13904,-3148,2332,-1.00,-1.0
1803,10632,2656,-4060,-1.00,-1.0
1805,18272,2928,4920,-1.00,-1.0
1807,22064,-5192,5152,-1.00,-1.0
1809,9216,504,-9048,-1.00,-1.0
1811,18440,7748,1048,-1.00,-1.0
1813,12284,3484,-4944,-1.00,-1.0
1817,19080,-4128,-4000,-1.00,-1.0
1819,7952,7724,-8004,-1.00,-1.0
1821,26268,-1368,16344,-1.00,-1.0
1823,26596,-10688,2688,-1.00,-1.0
1825,9192,2648,-13912,-1.00,-1.0
1827,21396,6132,7976,-1.00,-1.0
1829,15656,-3916,-12,-1.00,-1.0
1831,18288,1592,1764,-1.00,-1.0
1833,22404,-4068,-108,-1.00,-1.0
1835,12400,-6284,1216,-1.00,-1.0
1837,17432,2116,9540,-1.00,-1.0
1839,22236,772,-1988,-1.00,-1.0
1841,13256,-8456,-3264,-1.00,-1.0
1843,18004,5976,9400,-1.00,-1.0
1844,16468,4072,-8816,-1.00,-1.0
1849,26936,-4544,13364,-1.00,-1.0
1851,15724,-5060,1664,-1.00,-1.0
1853,12248,3640,-1976,-1.00,-1.0
1854,18676,2600,-2608,-1.00,-1.0
1857,16844,-10080,3828,-1.00,-1.0
1858,13840,6552,-996,-1.00,-1.0
1860,17880,8312,-8396,-1.00,-1.0
1862,16704,-4224,-2096,-1.00,-1.0
1864,22076,-1096,15660,-1.00,-1.0
1866,16044,624,-2580,-1.00,-1.0
1868,11496,-2280,-536,-1.00,-1.0
1870,20156,112,9256,-1.00,-1.0
1872,21324,-3376,-2700,-1.00,-1.0
1874,10620,-4024,-4596,-1.00,-1.0
1876,21196,5344,11988,-1.00,-1.0
1878,18336,1048,-6228,-1.00,-1.0
1882,27528,-6652,15912,-1.00,-1.0
1884,12720,-5504,2624,-1.00,-1.0
1886,10660,8800,1312,-1.00,-1.0
1888,19724,-76,-7500,-1.00,-1.0
1890,17348,-14660,7336,-1.00,-1.0
1892,15228,7092,3160,-1.00,-1.0
1894,15124,10856,-15020,-1.00,-1.0
1896,14380,-792,-6432,-1.00,-1.0
1898,27652,-4592,24260,-1.00,-1.0
1900,14860,520,-5916,-1.00,-1.0
1901,7656,11140,-8708,-1.00,-1.0
1904,21980,884,3672,-1.00,-1.0
1905,20432,-12392,11508,-1.00,-1.0
1907,7524,6964,-9080,-1.00,-1.0
1909,14020,11276,-9396,-1.00,-1.0
1913,23396,-4036,15280,-1.00,-1.0
1915,15488,1748,-12600,-1.00,-1.0
1917,7184,7268,-10032,-1.00,-1.0
1919,14956,2100,3688,-1.00,-1.0
1921,22924,-3728,-584,-1.00,-1.0
1923,15772,-11480,1024,-1.00,-1.0
1925,16664,5928,4376,-1.00,-1.0
1927,19084,5536,-8172,-1.00,-1.0
1929,14204,1176,-7560,-1.00,-1.0
1931,28672,-5632,26240,-1.00,-1.0
1933,11852,-2832,-5472,-1.00,-1.0
1935,6404,12516,-4608,-1.00,-1.0
1937,23024,-1428,1148,-1.00,-1.0
1939,20640,-15792,13744,-1.00,-1.0
1941,9420,5776,-7300,-1.00,-1.0
1943,16060,12924,-11080,-1.00,-1.0
1947,26812,-5348,23452,-1.00,-1.0
1949,15732,2888,-13680,-1.00,-1.0
1951,4976,8684,-14052,-1.00,-1.0
1953,28488,-3088,19236,-1.00,-1.0
1955,22912,-10464,8920,-1.00,-1.0
1957,3112,5556,-16456,-1.00,-1.0
1958,19768,7616,7224,-1.00,-1.0
1961,17532,-9364,4468,-1.00,-1.0
1963,13476,1700,-2724,-1.00,-1.0
1964,22456,5040,-3456,-1.00,-1.0
1966,13480,-6524,2716,-1.00,-1.0
1968,19772,3284,11480,-1.00,-1.0
1970,22232,1300,-6512,-1.00,-1.0
1972,12952,-9144,-868,-1.00,-1.0
1974,2488,4316,-16792,-1.00,-1.0
1978,12016,-1008,-10704,-1.00,-1.0
1980,28164,-8008,20032,-1.00,-1.0
1982,14048,-4812,1404,-1.00,-1.0
1984,6228,7736,-4028,-1.00,-1.0
1986,24208,-2524,-2044,-1.00,-1.0
1988,21492,-7960,3492,-1.00,-1.0
1990,3360,584,-17744,-1.00,-1.0
1992,22292,7084,11212,-1.00,-1.0
1994,16512,-4296,-2200,-1.00,-1.0
1996,19160,-2316,3648,-1.00,-1.0
1998,19840,632,-10108,-1.00,-1.0
2000,11816,-976,2360,-1.00,-1.0
2002,20616,2840,8260,-1.00,-1.0
2004,24536,-2924,1688,-1.00,-1.0
2006,11164,-4360,-7568,-1.00,-1.0
2010,16208,-1144,-12288,-1.00,-1.0
2012,9208,3572,-9724,-1.00,-1.0
2014,28564,-936,14832,-1.00,-1.0
2016,18856,-6064,4908,-1.00,-1.0
2018,6148,4408,-9268,-1.00,-1.0
2020,19652,6724,-304,-1.00,-1.0
2022,18432,-9380,7112,-1.00,-1.0
2023,17236,5808,-2116,-1.00,-1.0
2025,21016,2488,-6828,-1.00,-1.0
2027,10328,-4796,-2804,-1.00,-1.0
2029,25568,-372,25708,-1.00,-1.0
2031,15624,280,-12692,-1.00,-1.0
2033,4820,-3932,-8876,-1.00,-1.0
2035,22520,3600,11760,-1.00,-1.0
2037,19184,10008,-2980,-1.00,-1.0
2039,17172,-10144,5676,-1.00,-1.0
2043,14180,-2504,-152,-1.00,-1.0
2045,9932,4188,-2444,-1.00,-1.0
2047,27532,-4364,16932,-1.00,-1.0
2049,18572,-3760,-648,-1.00,-1.0
2051,10004,1276,-5088,-1.00,-1.0
2053,20048,3756,3492,-1.00,-1.0
2055,15244,-5060,-3324,-1.00,-1.0
2057,18104,1316,2852,-1.00,-1.0
2059,20480,2432,-4392,-1.00,-1.0
2061,4748,3604,-8192,-1.00,-1.0
2063,20676,-1372,17584,-1.00,-1.0
2065,17684,-6532,132,-1.00,-1.0
2067,3460,2372,-11392,-1.00,-1.0
2069,19768,7136,5788,-1.00,-1.0
2070,25588,-7796,7528,-1.00,-1.0
2075,20120,5940,1140,-1.00,-1.0
2077,12228,-508,-240,-1.00,-1.0
2079,19512,1320,16216,-1.00,-1.0
2080,16152,-2376,-14324,-1.00,-1.0
2082,9256,-1588,-2632,-1.00,-1.0
2084,21976,2792,10464,-1.00,-1.0
2086,22544,-976,-1872,-1.00,-1.0
2088,7808,-2144,-12316,-1.00,-1.0
2090,19512,4992,11264,-1.00,-1.0
2092,17896,1476,2756,-1.00,-1.0
2094,15564,3900,-1500,-1.00,-1.0
2096,31188,-15772,30932,-1.00,-1.0
2098,16868,-2584,8648,-1.00,-1.0
2100,17932,5268,5644,-1.00,-1.0
2102,23392,1304,7240,-1.00,-1.0
2104,22108,-10924,6220,-1.00,-1.0
2108,13328,8804,-10268,-1.00,-1.0
2110,25184,2936,5704,-1.00,-1.0
2112,30260,-14632,27068,-1.00,-1.0
2114,13176,-8404,-9628,-1.00,-1.0
2116,220,17760,-13120,-1.00,-1.0
2118,25820,1268,12668,-1.00,-1.0
2120,26924,-20536,12308,-1.00,-1.0
2122,2312,6112,-19824,-1.00,-1.0
2124,15928,18784,-2648,-1.00,-1.0
2126,18200,-3760,488,-1.00,-1.0
2128,24708,-2404,13628,-1.00,-1.0
2130,18860,2016,-12076,-1.00,-1.0
2132,10648,652,-1128,-1.00,-1.0
2134,18916,2092,9104,-1.00,-1.0
2135,19944,-2372,-1140,-1.00,-1.0
2140,17296,6720,6988,-1.00,-1.0
2142,14032,9720,-12764,-1.00,-1.0
2143,14440,-2924,1556,-1.00,-1.0
2145,21804,-4468,12004,-1.00,-1.0
2147,8804,6236,-5120,-1.00,-1.0
2149,10304,5004,-5320,-1.00,-1.0
2151,26924,-8576,12080,-1.00,-1.0
2153,18656,-6300,-848,-1.00,-1.0
2155,11820,10632,-9324,-1.00,-1.0
2157,21212,3084,-1236,-1.00,-1.0
2159,12484,3288,-9584,-1.00,-1.0
2161,24956,-1356,11704,-1.00,-1.0
2163,15404,-6592,2412,-1.00,-1.0
2165,1708,8888,-8116,-1.00,-1.0
2167,23424,2552,16512,-1.00,-1.0
2169,23164,-1404,-2092,-1.00,-1.0
2173,15208,15084,-6160,-1.00,-1.0
2175,15756,3504,-5880,-1.00,-1.0
2177,32767,-12964,28216,-1.00,-1.0
2179,15632,-5860,-11568,-1.00,-1.0
2181,1964,14748,-10356,-1.00,-1.0
2183,14912,10552,2592,-1.00,-1.0
2185,22012,-3912,-688,-1.00,-1.0
2187,17828,-13660,1376,-1.00,-1.0
2189,17524,9256,6524,-1.00,-1.0
2191,16444,8124,-11624,-1.00,-1.0
2193,9844,-3736,-9132,-1.00,-1.0
2195,31920,-8068,30792,-1.00,-1.0
2197,13764,-2424,-6500,-1.00,-1.0
2199,2460,5552,-12512,-1.00,-1.0
2200,25712,996,11328,-1.00,-1.0
2205,6968,1032,-16124,-1.00,-1.0
2207,17496,12368,-1136,-1.00,-1.0
2209,13932,1736,-3052,-1.00,-1.0
2210,30596,-10476,27176,-1.00,-1.0
2213,14208,-5908,-15492,-1.00,-1.0
2214,1208,11552,-10908,-1.00,-1.0
2216,27904,-368,18484,-1.00,-1.0
2218,24968,-15000,6724,-1.00,-1.0
2220,4732,-1748,-16948,-1.00,-1.0
2222,17112,15052,3912,-1.00,-1.0
2224,15400,1788,-3904,-1.00,-1.0
2226,23104,-4716,8556,-1.00,-1.0
2228,18160,-8,-8264,-1.00,-1.0
2230,8128,6548,-1224,-1.00,-1.0
2232,20712,3468,10656,-1.00,-1.0
2236,10028,-4300,-5716,-1.00,-1.0
2238,19504,11032,7072,-1.00,-1.0
2240,17488,344,-10004,-1.00,-1.0
2242,6612,452,-13832,-1.00,-1.0
2244,30200,-1356,24208,-1.00,-1.0
2246,17080,-8032,1980,-1.00,-1.0
2248,10056,-6472,-1120,-1.00,-1.0
2250,21660,3016,15868,-1.00,-1.0
2252,20472,1128,-1920,-1.00,-1.0
2254,10828,-8676,-8328,-1.00,-1.0
2256,17856,6304,6956,-1.00,-1.0
2258,17216,6228,-4244,-1.00,-1.0
2260,16608,3000,-4100,-1.00,-1.0
2262,20020,-3356,176,-1.00,-1.0
2263,14536,-3264,8000,-1.00,-1.0
2265,12140,10556,536,-1.00,-1.0
2270,19132,-12800,6456,-1.00,-1.0
2272,15744,6000,1704,-1.00,-1.0
2273,17536,9936,-7348,-1.00,-1.0
2275,11860,-1192,-7640,-1.00,-1.0
2277,30636,-10356,24076,-1.00,-1.0
2279,14808,-6180,-888,-1.00,-1.0
2281,2772,9500,-11536,-1.00,-1.0
2283,26312,-132,9244,-1.00,-1.0
2285,26716,-15748,10440,-1.00,-1.0
2287,9772,292,-9692,-1.00,-1.0
2289,17252,13568,-2384,-1.00,-1.0
2291,15312,3340,-5852,-1.00,-1.0
2293,27716,-11936,21040,-1.00,-1.0
2295,15568,-3304,-6632,-1.00,-1.0
2297,10176,2188,-1284,-1.00,-1.0
2301,23704,-18316,9876,-1.00,-1.0
2303,4348,2456,-12552,-1.00,-1.0
2305,17636,14980,2604,-1.00,-1.0
2307,19600,-6784,-1508,-1.00,-1.0
2309,12956,3660,-8984,-1.00,-1.0
2311,24440,4520,4448,-1.00,-1.0
2313,15300,-372,-7048,-1.00,-1.0
2315,2268,-1064,-14348,-1.00,-1.0
2317,28144,-904,17948,-1.00,-1.0
2319,25360,-6576,8144,-1.00,-1.0
2321,5356,-192,-18928,-1.00,-1.0
2323,17052,10480,1964,-1.00,-1.0
2325,23760,1692,6088,-1.00,-1.0
2327,18308,-4316,2396,-1.00,-1.0
2328,13912,1692,-6676,-1.00,-1.0
2330,12848,3636,4860,-1.00,-1.0
2335,19272,-6484,488,-1.00,-1.0
2337,13068,-2688,128,-1.00,-1.0
2338,14428,11300,-5676,-1.00,-1.0
2340,20152,-1708,1064,-1.00,-1.0
2342,12960,2104,-12228,-1.00,-1.0
2344,25356,-220,16204,-1.00,-1.0
2346,17476,-7376,3696,-1.00,-1.0
2348,5076,5924,-5524,-1.00,-1.0
2350,18556,7976,-4552,-1.00,-1.0
2352,22140,-10464,13092,-1.00,-1.0
2354,10448,-272,-6812,-1.00,-1.0
2356,16776,13716,-5992,-1.00,-1.0
2358,13720,2560,-5448,-1.00,-1.0
2360,32044,-12308,28032,-1.00,-1.0
2362,16408,-7308,-7324,-1.00,-1.0
2366,27188,-1120,15096,-1.00,-1.0
2368,25148,-15312,9872,-1.00,-1.0
2370,3128,992,-18204,-1.00,-1.0
2372,16520,15232,2372,-1.00,-1.0
2374,18376,-3552,2520,-1.00,-1.0
2376,16460,960,-2528,-1.00,-1.0
2378,32767,-8768,32400,-1.00,-1.0
2380,14792,-3356,-5724,-1.00,-1.0
2382,800,5244,-15264,-1.00,-1.0
2384,26972,-256,14892,-1.00,-1.0
2386,25132,-9888,10528,-1.00,-1.0
2387,6920,-1532,-15104,-1.00,-1.0
2390,15736,13648,-2588,-1.00,-1.0
2392,12492,948,-1256,-1.00,-1.0
2393,26552,-1108,15096,-1.00,-1.0
2397,9640,-148,388,-1.00,-1.0
2399,25256,5452,18068,-1.00,-1.0
2401,22216,-7480,-2900,-1.00,-1.0
2403,10644,-9712,-11136,-1.00,-1.0
2405,19280,11236,12192,-1.00,-1.0
2407,14208,6828,-7940,-1.00,-1.0
2409,15120,-3364,-2696,-1.00,-1.0
2411,28884,-8060,16000,-1.00,-1.0
2413,12724,-4128,6600,-1.00,-1.0
2415,8044,6732,-5464,-1.00,-1.0
2417,22904,-2712,2712,-1.00,-1.0
2419,19116,-15708,8772,-1.00,-1.0
2421,10820,5004,-4972,-1.00,-1.0
2423,17652,11492,-7024,-1.00,-1.0
2425,18340,1084,-1540,-1.00,-1.0
2427,9484,-5176,-4600,-1.00,-1.0
2431,13488,-5880,-6188,-1.00,-1.0
2433,5504,2608,-9352,-1.00,-1.0
2435,27664,-76,11100,-1.00,-1.0
2437,21560,-10032,10132,-1.00,-1.0
2439,5568,1436,-14452,-1.00,-1.0
2441,19116,11592,1620,-1.00,-1.0
2442,12228,-4476,-4744,-1.00,-1.0
2444,23464,184,5876,-1.00,-1.0
2446,24044,-4168,712,-1.00,-1.0
2448,11096,-5484,288,-1.00,-1.0
2450,17880,4984,7444,-1.00,-1.0
2452,22180,-2008,3236,-1.00,-1.0
2454,13024,-9156,-6644,-1.00,-1.0
2456,16292,9312,2684,-1.00,-1.0
2458,13456,9400,-6520,-1.00,-1.0
2462,26944,-2172,5660,-1.00,-1.0
2464,16608,-1368,1248,-1.00,-1.0
2466,14060,4284,-6496,-1.00,-1.0
2468,23116,1212,3368,-1.00,-1.0
2470,17716,-9284,2444,-1.00,-1.0
2472,11812,3548,-1484,-1.00,-1.0
2474,17312,10596,-5464,-1.00,-1.0
2476,13064,-5296,-3192,-1.00,-1.0
2478,24220,988,8192,-1.00,-1.0
2480,23680,-2500,7620,-1.00,-1.0
2482,6536,-8660,-8056,-1.00,-1.0
2484,3456,4688,-10796,-1.00,-1.0
2486,25052,5796,9832,-1.00,-1.0
2488,25392,-11296,11516,-1.00,-1.0
2490,9972,-3052,-15160,-1.00,-1.0
2491,17668,15636,-1312,-1.00,-1.0
2496,23044,-1900,8880,-1.00,-1.0
2498,22812,348,2184,-1.00,-1.0
2500,9160,-3724,-3704,-1.00,-1.0
2501,14860,2500,4568,-1.00,-1.0
2504,20660,-200,2140,-1.00,-1.0
2505,14964,-9648,-1988,-1.00,-1.0
2507,13976,7136,-3328,-1.00,-1.0
2509,17456,8736,-1640,-1.00,-1.0
2511,13648,-5560,-2084,-1.00,-1.0
2513,24432,-820,13456,-1.00,-1.0
2515,16908,-2564,1760,-1.00,-1.0
2517,8340,-2192,-4540,-1.00,-1.0
2519,19088,2876,7072,-1.00,-1.0
2521,19576,-5636,5012,-1.00,-1.0
2523,11248,-3328,-7664,-1.00,-1.0
2527,20932,-1112,4184,-1.00,-1.0
2529,14248,260,-11308,-1.00,-1.0
2531,27860,240,17440,-1.00,-1.0
2533,17208,-10324,1528,-1.00,-1.0
2535,5512,5740,-7308,-1.00,-1.0
2537,21380,6132,-908,-1.00,-1.0
2539,22840,-12100,10776,-1.00,-1.0
2541,11160,-232,-9528,-1.00,-1.0
2543,11776,16224,-5444,-1.00,-1.0
2545,10732,1108,-5160,-1.00,-1.0
2547,24712,-2728,15660,-1.00,-1.0
2549,28836,-5300,18352,-1.00,-1.0
2551,14568,-7064,5200,-1.00,-1.0
2553,4532,6588,-7848,-1.00,-1.0
2555,20268,2688,3280,-1.00,-1.0
2556,21180,-12724,8472,-1.00,-1.0
2561,12264,12932,-5968,-1.00,-1.0
2563,23384,-6112,6468,-1.00,-1.0
2564,12080,-7088,-3724,-1.00,-1.0
2566,21916,7584,8752,-1.00,-1.0
2568,20128,-8580,1548,-1.00,-1.0
2570,8620,-4460,-8792,-1.00,-1.0
2572,20464,3212,8832,-1.00,-1.0
2574,23460,-2192,5596,-1.00,-1.0
2576,14464,-4228,-10860,-1.00,-1.0
2578,14404,8312,-1912,-1.00,-1.0
2580,18092,996,3584,-1.00,-1.0
2582,16176,6080,-7140,-1.00,-1.0
2584,26164,-6040,12396,-1.00,-1.0
2586,16192,-11872,4632,-1.00,-1.0
2588,9640,10760,-1476,-1.00,-1.0
2592,23132,-15748,6100,-1.00,-1.0
2594,12764,3532,-3452,-1.00,-1.0
2596,12496,17432,-8948,-1.00,-1.0
2598,10212,-1404,-4888,-1.00,-1.0
2600,22988,744,10920,-1.00,-1.0
2602,21424,-2032,1568,-1.00,-1.0
2604,8460,-3192,-9832,-1.00,-1.0
2606,20768,6608,10336,-1.00,-1.0
2608,25196,-4720,0,-1.00,-1.0
2610,14500,-8660,-7996,-1.00,-1.0
2612,8052,2440,-9492,-1.00,-1.0
2613,15696,11660,-4852,-1.00,-1.0
2616,19196,-8656,3220,-1.00,-1.0
2618,15736,-3484,1476,-1.00,-1.0
2619,26852,1288,17604,-1.00,-1.0
2621,12168,-10144,-5816,-1.00,-1.0
2626,25184,2016,8844,-1.00,-1.0
2628,20932,-8960,1600,-1.00,-1.0
2629,13124,-2908,-6464,-1.00,-1.0
2631,14620,9804,-1672,-1.00,-1.0
2633,15100,-2824,1060,-1.00,-1.0
2635,23724,-64,1908,-1.00,-1.0
2637,24696,-5796,10572,-1.00,-1.0
2639,11212,-9472,-392,-1.00,-1.0
2641,15976,6108,7260,-1.00,-1.0
2643,21280,764,-2884,-1.00,-1.0
2645,17524,-12504,-1516,-1.00,-1.0
2647,13616,4044,684,-1.00,-1.0
2649,16704,11648,-68,-1.00,-1.0
2651,10828,-7248,-6064,-1.00,-1.0
2653,20432,656,7612,-1.00,-1.0
2655,20640,2240,208,-1.00,-1.0
2659,20652,-532,7596,-1.00,-1.0
2661,23520,100,4780,-1.00,-1.0
2663,14792,-4460,-8412,-1.00,-1.0
2665,12320,-2208,-5320,-1.00,-1.0
2667,19416,6432,5192,-1.00,-1.0
2669,11304,-4880,-7512,-1.00,-1.0
2670,15248,-5580,2320,-1.00,-1.0
2673,25216,9272,17756,-1.00,-1.0
2674,12980,-7160,-11472,-1.00,-1.0
2676,6292,-5404,-2532,-1.00,-1.0
2678,18180,7440,10600,-1.00,-1.0
2680,19708,-2148,2040,-1.00,-1.0
2682,10588,-7804,-13288,-1.00,-1.0
2684,14940,8992,1720,-1.00,-1.0
2686,23532,996,6128,-1.00,-1.0
2690,24436,-136,15920,-1.00,-1.0
2692,13888,-5596,1296,-1.00,-1.0
2694,7076,4316,-2032,-1.00,-1.0
2696,17244,5276,-1272,-1.00,-1.0
2698,18292,-9904,2200,-1.00,-1.0
2700,11728,-2160,-2612,-1.00,-1.0
2702,13728,12824,-5000,-1.00,-1.0
2704,20464,-4820,524,-1.00,-1.0
2706,21652,-4128,7608,-1.00,-1.0
2708,27160,-68,13200,-1.00,-1.0
2710,14320,-9132,-3396,-1.00,-1.0
2712,9964,336,-352,-1.00,-1.0
2714,20832,4880,5728,-1.00,-1.0
2716,15844,-5756,-2396,-1.00,-1.0
2717,18716,-8804,-5768,-1.00,-1.0
2719,13860,7960,-6944,-1.00,-1.0
2724,24864,-1144,7356,-1.00,-1.0
2726,28264,-7804,14780,-1.00,-1.0
2727,16132,-6900,-1308,-1.00,-1.0
2730,13336,7544,3912,-1.00,-1.0
2731,23804,4184,14928,-1.00,-1.0
2733,27932,-10760,8032,-1.00,-1.0
2735,12276,-3860,-15740,-1.00,-1.0
2737,15768,12884,-1732,-1.00,-1.0
2739,19172,3148,932,-1.00,-1.0
2741,12864,2808,-5304,-1.00,-1.0
2743,24136,3836,15228,-1.00,-1.0
2745,13852,-5280,-3344,-1.00,-1.0
2747,7852,1908,-6148,-1.00,-1.0
2749,21368,3084,5744,-1.00,-1.0
2751,24200,-9752,8400,-1.00,-1.0
2755,15268,16888,-6016,-1.00,-1.0
2757,23728,-1412,1548,-1.00,-1.0
2759,13992,-5880,-372,-1.00,-1.0
2761,21236,12884,8536,-1.00,-1.0
2763,17296,-1740,-5220,-1.00,-1.0
2765,10820,-10368,-4252,-1.00,-1.0
2767,20676,2676,12032,-1.00,-1.0
2769,22792,2208,1776,-1.00,-1.0
2771,13888,-7020,-13484,-1.00,-1.0
2773,14980,4940,992,-1.00,-1.0
2775,22244,5916,2024,-1.00,-1.0
2776,12348,6384,-6884,-1.00,-1.0
2779,21384,3352,12724,-1.00,-1.0
2781,15012,-6616,-244,-1.00,-1.0
2782,9692,-8756,-9916,-1.00,-1.0
2784,15488,5316,9012,-1.00,-1.0
2789,12688,-3108,-12556,-1.00,-1.0
2791,15768,15076,-4348,-1.00,-1.0
2792,14172,10568,-3748,-1.00,-1.0
2794,17832,392,1404,-1.00,-1.0
2796,26484,-6120,17388,-1.00,-1.0
2798,19248,-2988,1412,-1.00,-1.0
2800,11780,-2632,-6844,-1.00,-1.0
2802,18764,-852,4272,-1.00,-1.0
2804,21120,-3460,5136,-1.00,-1.0
2806,13508,-1832,-5256,-1.00,-1.0
2808,10276,8288,-4648,-1.00,-1.0
2810,23576,2248,6508,-1.00,-1.0
2812,16948,-13032,-4084,-1.00,-1.0
2814,15424,9628,-2304,-1.00,-1.0
2816,29528,-2016,19960,-1.00,-1.0
2820,5356,4932,-8928,-1.00,-1.0
2822,18884,13208,2212,-1.00,-1.0
2824,20208,-9960,2728,-1.00,-1.0
2826,12304,-3504,-1640,-1.00,-1.0
2828,14952,16532,-4660,-1.00,-1.0
2830,13800,-348,996,-1.00,-1.0
2832,27328,-9352,15940,-1.00,-1.0
2834,23228,-9952,6896,-1.00,-1.0
2836,8244,-2744,-14148,-1.00,-1.0
2838,21396,3032,13924,-1.00,-1.0
2840,22000,-3584,-1880,-1.00,-1.0
2841,11968,-6508,-5564,-1.00,-1.0
2844,13912,8156,1732,-1.00,-1.0
2846,17664,5800,820,-1.00,-1.0
2847,17000,-11032,-1476,-1.00,-1.0
2852,20312,-2040,3128,-1.00,-1.0
2854,11524,-7132,-4884,-1.00,-1.0
2856,15428,268,2736,-1.00,-1.0
2857,17268,2220,4532,-1.00,-1.0
2859,13292,-2296,-3808,-1.00,-1.0
2861,12308,5088,-4408,-1.00,-1.0
2863,17356,9536,-2016,-1.00,-1.0
2865,18760,-1640,4368,-1.00,-1.0
2867,10908,-1032,-1700,-1.00,-1.0
2869,17808,8332,8464,-1.00,-1.0
2871,18368,-2772,-3476,-1.00,-1.0
2873,14292,-8980,-2380,-1.00,-1.0
2875,18624,3788,5276,-1.00,-1.0
2877,20396,1992,-640,-1.00,-1.0
2879,14924,-4476,-5964,-1.00,-1.0
2881,16420,14600,-3920,-1.00,-1.0
2885,9448,-8764,-1472,-1.00,-1.0
2887,11976,18952,2472,-1.00,-1.0
2889,20288,-100,-4748,-1.00,-1.0
2891,16308,-19360,2156,-1.00,-1.0
2893,17976,6708,6336,-1.00,-1.0
2895,19652,10344,-9496,-1.00,-1.0
2897,16012,-9008,-8844,-1.00,-1.0
2899,14052,6880,1556,-1.00,-1.0
2901,22844,8364,7484,-1.00,-1.0
2903,4408,-632,-9708,-1.00,-1.0
2904,13076,6020,4464,-1.00,-1.0
2906,21248,-2884,2424,-1.00,-1.0
2908,13432,-6556,-6988,-1.00,-1.0
2910,23052,2132,5972,-1.00,-1.0
2912,15820,5284,12,-1.00,-1.0
2914,15984,-7296,2664,-1.00,-1.0
2918,16820,11240,-2452,-1.00,-1.0
2920,20184,-5728,-528,-1.00,-1.0
2922,23356,-7644,9808,-1.00,-1.0
2924,19808,-1204,5188,-1.00,-1.0
2926,12212,-1992,-2608,-1.00,-1.0
2928,10916,2352,-6488,-1.00,-1.0
2930,19940,52,8564,-1.00,-1.0
2932,17032,-4368,-3912,-1.00,-1.0
2934,11948,2872,-3632,-1.00,-1.0
2936,22268,6916,4828,-1.00,-1.0
2938,21100,-11744,3044,-1.00,-1.0
2940,13704,16,-4556,-1.00,-1.0
2942,30732,832,26720,-1.00,-1.0
2944,12496,-10576,-12720,-1.00,-1.0
2946,4632,2680,-2456,-1.00,-1.0
2950,19072,-6776,5404,-1.00,-1.0
2952,9992,-3328,-7848,-1.00,-1.0
2953,19684,11864,4228,-1.00,-1.0
2955,22292,-7016,3236,-1.00,-1.0
2957,19272,-7012,8004,-1.00,-1.0
2959,25548,1084,6160,-1.00,-1.0
2961,21940,-2988,9000,-1.00,-1.0
2963,10596,-7004,-9044,-1.00,-1.0
2965,15248,5340,-768,-1.00,-1.0
2967,26664,-620,5032,-1.00,-1.0
2969,18216,-6320,-3276,-1.00,-1.0
2971,11332,8216,-6316,-1.00,-1.0
2973,20412,7240,6204,-1.00,-1.0
2975,8444,-372,-5904,-1.00,-1.0
2977,21684,208,14988,-1.00,-1.0
2979,19576,-5568,-4340,-1.00,-1.0
2983,22580,3292,6732,-1.00,-1.0
2985,26220,-4292,8720,-1.00,-1.0
2987,11976,-4376,-15232,-1.00,-1.0
2989,11160,10972,1260,-1.00,-1.0
2991,21476,2772,6324,-1.00,-1.0
2993,10612,-4252,-5324,-1.00,-1.0
2995,19384,2956,6344,-1.00,-1.0
2997,21260,-6372,6616,-1.00,-1.0
2999,10352,-7636,-10548,-1.00,-1.0
3001,19116,3492,6748,-1.00,-1.0
3002,25860,-1196,5292,-1.00,-1.0
3005,14116,-5140,-9380,-1.00,-1.0
3006,12828,8580,-3064,-1.00,-1.0
3008,17536,6172,2140,-1.00,-1.0
3010,20972,-6576,9848,-1.00,-1.0
3014,18268,-1156,5404,-1.00,-1.0
3016,19304,-9848,1700,-1.00,-1.0
3018,16192,636,1964,-1.00,-1.0
3020,21052,-288,10212,-1.00,-1.0
3022,18420,-2832,3328,-1.00,-1.0
3024,10008,3352,-4056,-1.00,-1.0
3026,16108,11644,-4900,-1.00,-1.0
3028,27176,-4192,13220,-1.00,-1.0
3030,8320,-3232,-3148,-1.00,-1.0
3032,19340,8432,17196,-1.00,-1.0
3034,15312,-3068,-7960,-1.00,-1.0
3036,7884,-8656,-4272,-1.00,-1.0
3038,21772,4804,9156,-1.00,-1.0
3040,21872,-832,-1428,-1.00,-1.0
3042,12116,-4924,-10644,-1.00,-1.0
3044,15876,5928,4556,-1.00,-1.0
3048,25272,3332,4168,-1.00,-1.0
3050,20392,-5832,-904,-1.00,-1.0
3052,12856,-7216,2000,-1.00,-1.0
3054,10808,9820,1904,-1.00,-1.0
3056,15408,3488,-3484,-1.00,-1.0
3058,17208,-14184,4196,-1.00,-1.0
3060,13932,4476,-1620,-1.00,-1.0
3062,14756,17776,-10648,-1.00,-1.0
3064,26076,-9208,6520,-1.00,-1.0
3065,10428,-4048,-2112,-1.00,-1.0
3067,18672,16932,13088,-1.00,-1.0
3069,16292,-8280,-7268,-1.00,-1.0
3071,6428,-10100,-5392,-1.00,-1.0
3073,18696,9700,6924,-1.00,-1.0
3075,18916,14224,-2060,-1.00,-1.0
3079,15632,5196,1560,-1.00,-1.0
3081,22284,7040,3804,-1.00,-1.0
3083,13912,7216,-5936,-1.00,-1.0
3085,26248,-5240,12296,-1.00,-1.0
3087,11220,-5288,-6280,-1.00,-1.0
3089,10392,-6828,-6752,-1.00,-1.0
3091,18936,7376,8600,-1.00,-1.0
3093,25796,-2896,652,-1.00,-1.0
3095,15156,-10956,-10260,-1.00,-1.0
3097,16244,8028,7716,-1.00,-1.0
3099,14860,8932,-5044,-1.00,-1.0
3101,5976,-1000,-7996,-1.00,-1.0
3103,26232,-4084,22620,-1.00,-1.0
3105,15268,-5824,416,-1.00,-1.0
3107,5540,3616,-14556,-1.00,-1.0
3109,24100,1080,10844,-1.00,-1.0
3113,10516,2624,-12252,-1.00,-1.0
3115,13920,12596,-2236,-1.00,-1.0
3117,19812,-3524,4864,-1.00,-1.0
3119,15568,-11336,244,-1.00,-1.0
3121,13344,10760,-6636,-1.00,-1.0
3123,25916,-1772,13600,-1.00,-1.0
3124,18588,-17412,-800,-1.00,-1.0
3127,9564,3332,-3948,-1.00,-1.0
3129,19100,10848,1408,-1.00,-1.0
3130,22400,-7656,4916,-1.00,-1.0
3132,2312,4220,-13132,-1.00,-1.0
3134,22644,8180,16928,-1.00,-1.0
3136,16252,-11880,-5592,-1.00,-1.0
3138,6708,6784,-12140,-1.00,-1.0
3140,22068,12120,24088,-1.00,-1.0
3144,5896,3376,-13712,-1.00,-1.0
3146,17664,15208,-2232,-1.00,-1.0
3148,22316,-8928,4316,-1.00,-1.0
3150,10132,-7268,-11312,-1.00,-1.0
3152,19556,14656,1364,-1.00,-1.0
3154,8920,-1112,-10668,-1.00,-1.0
3156,12584,-4388,-3564,-1.00,-1.0
3158,18652,3004,12264,-1.00,-1.0
3160,11816,-3672,-4792,-1.00,-1.0
3162,5528,1708,-3164,-1.00,-1.0
3164,20300,2864,4684,-1.00,-1.0
3166,19980,-7312,2348,-1.00,-1.0
3168,11160,-1000,-8020,-1.00,-1.0
3170,15272,15216,-2812,-1.00,-1.0
3172,26048,-9100,12648,-1.00,-1.0
3176,23872,1908,9336,-1.00,-1.0
3178,15252,-12744,-5916,-1.00,-1.0
3180,15080,5048,1100,-1.00,-1.0
3182,20760,9044,-1300,-1.00,-1.0
3184,18856,-6992,-3304,-1.00,-1.0
3186,12256,3768,-4188,-1.00,-1.0
3188,18652,12712,2944,-1.00,-1.0
3190,24156,-4572,6384,-1.00,-1.0
3192,16936,-2404,-2144,-1.00,-1.0
3194,22876,-1480,10016,-1.00,-1.0
3196,14492,-9440,2512,-1.00,-1.0
3198,6256,2276,-3936,-1.00,-1.0
3200,17520,6232,2104,-1.00,-1.0
3202,20360,-8280,1540,-1.00,-1.0
3204,10136,-788,-3036,-1.00,-1.0
3206,18372,10168,5072,-1.00,-1.0
3210,12132,-2428,-3052,-1.00,-1.0
3212,27160,-1588,19000,-1.00,-1.0
3214,17480,-15088,-1956,-1.00,-1.0
3216,6752,1468,-7892,-1.00,-1.0
3218,21728,4884,6252,-1.00,-1.0
3220,22012,-9796,4176,-1.00,-1.0
3221,13980,-3136,-4048,-1.00,-1.0
3224,12488,14464,-4768,-1.00,-1.0
3225,9844,-692,-1172,-1.00,-1.0
3227,26548,-7228,18788,-1.00,-1.0
3229,19288,-8484,-68,-1.00,-1.0
3231,6172,-992,-12556,-1.00,-1.0
3233,24524,2052,13588,-1.00,-1.0
3235,23828,-6640,2524,-1.00,-1.0
3237,11280,-4348,-11256,-1.00,-1.0
3241,17248,5092,1956,-1.00,-1.0
3243,11648,-4528,-5788,-1.00,-1.0
3245,22008,4184,10296,-1.00,-1.0
3247,16996,-1920,-420,-1.00,-1.0
3249,9392,-4448,-5996,-1.00,-1.0
3251,18052,5108,2532,-1.00,-1.0
3253,22040,1888,7564,-1.00,-1.0
3255,17084,-7748,-2620,-1.00,-1.0
3257,10912,1980,-5692,-1.00,-1.0
3259,21288,7984,5528,-1.00,-1.0
3261,19444,-12340,1964,-1.00,-1.0
3263,7216,4784,-9508,-1.00,-1.0
3265,26400,7132,22404,-1.00,-1.0
3267,20224,-16620,2020,-1.00,-1.0
3269,1916,-228,-14308,-1.00,-1.0
3270,17808,11852,5992,-1.00,-1.0
3275,5924,-7904,-7420,-1.00,-1.0
3277,27144,8732,14720,-1.00,-1.0
3279,21836,-10852,-4052,-1.00,-1.0
3281,4484,-3596,-15380,-1.00,-1.0
3283,32767,4032,32767,-1.00,-1.0
3285,19948,-14892,-5972,-1.00,-1.0
3286,-2524,-148,-16692,-1.00,-1.0
3289,19428,10928,9912,-1.00,-1.0
3290,24140,-8844,9584,-1.00,-1.0
3292,4656,-8392,-11188,-1.00,-1.0
3294,21504,16808,8468,-1.00,-1.0
3296,20424,-5508,-4076,-1.00,-1.0
3298,10308,-696,-7332,-1.00,-1.0
3300,28940,2572,16560,-1.00,-1.0
3302,18636,-13092,1440,-1.00,-1.0
3306,19348,9856,4132,-1.00,-1.0
3308,24452,-12876,7520,-1.00,-1.0
3310,12540,-2436,-4976,-1.00,-1.0
3312,10424,19096,-7128,-1.00,-1.0
3314,15824,-1996,2396,-1.00,-1.0
3316,12268,824,280,-1.00,-1.0
3318,32767,-120,24600,-1.00,-1.0
3320,17684,-9612,-956,-1.00,-1.0
3322,3032,-1804,-12712,-1.00,-1.0
3324,22008,9544,12468,-1.00,-1.0
3326,18416,-4748,-928,-1.00,-1.0
3328,7864,-8304,-8864,-1.00,-1.0
3330,14056,13236,548,-1.00,-1.0
3332,19652,1780,-60,-1.00,-1.0
3334,21300,-1588,-4644,-1.00,-1.0
3338,11192,-8184,-1468,-1.00,-1.0
3340,6712,8652,-3912,-1.00,-1.0
3342,18156,1644,304,-1.00,-1.0
3344,18416,-14572,7756,-1.00,-1.0
3346,10812,3080,-8152,-1.00,-1.0
3348,19204,14148,-256,-1.00,-1.0
3350,18448,-13184,-4724,-1.00,-1.0
3351,22648,-5788,9360,-1.00,-1.0
3353,22976,4296,7384,-1.00,-1.0
3355,13108,-8796,-5580,-1.00,-1.0
3357,13512,-2404,-1452,-1.00,-1.0
3359,19972,2176,7316,-1.00,-1.0
3361,15676,-6836,-1464,-1.00,-1.0
3363,10240,4588,-7316,-1.00,-1.0
3365,22356,5580,9480,-1.00,-1.0
3367,15476,-15032,-3064,-1.00,-1.0
3371,25112,8076,16644,-1.00,-1.0
3373,20936,-19412,3160,-1.00,-1.0
3375,6324,-472,-12088,-1.00,-1.0
3377,17272,15204,3316,-1.00,-1.0
3379,23992,-6924,3768,-1.00,-1.0
3381,2720,-1124,-11916,-1.00,-1.0
3383,25480,10900,4892,-1.00,-1.0
3385,15588,-12408,-7420,-1.00,-1.0
3387,7800,-14800,-6120,-1.00,-1.0
3389,20208,16524,18956,-1.00,-1.0
3391,16340,3408,-8276,-1.00,-1.0
3393,9104,-17760,-3492,-1.00,-1.0
3395,18180,5320,8244,-1.00,-1.0
3397,18624,10440,-7472,-1.00,-1.0
3399,13580,-11088,-8208,-1.00,-1.0
3403,22520,3988,-1992,-1.00,-1.0
3405,5940,-7496,-11836,-1.00,-1.0
3407,26660,7160,23612,-1.00,-1.0
3409,15188,-4264,-4808,-1.00,-1.0
3411,2360,-4748,-12404,-1.00,-1.0
3413,21492,6200,12116,-1.00,-1.0
3414,21392,-1548,-764,-1.00,-1.0
3416,8880,-6908,-14080,-1.00,-1.0
3418,15816,11928,6112,-1.00,-1.0
3420,19060,3724,4640,-1.00,-1.0
3422,21080,2176,-3064,-1.00,-1.0
3424,23524,-7432,5604,-1.00,-1.0
3426,11872,-8784,3148,-1.00,-1.0
3428,12912,11888,1932,-1.00,-1.0
3430,20248,2864,-4488,-1.00,-1.0
3434,12960,5504,-20,-1.00,-1.0
3436,12996,17136,-5120,-1.00,-1.0
3438,9800,-4652,-5244,-1.00,-1.0
3440,20744,-6236,4104,-1.00,-1.0
3442,20340,-1932,5536,-1.00,-1.0
3444,10932,-2164,-340,-1.00,-1.0
3446,10924,1740,-1896,-1.00,-1.0
3448,21492,960,5884,-1.00,-1.0
3450,17644,-8448,4156,-1.00,-1.0
3452,10268,2224,-7324,-1.00,-1.0
3454,21076,7900,4508,-1.00,-1.0
3455,18360,-10056,596,-1.00,-1.0
3458,12020,268,-3416,-1.00,-1.0
3460,27464,3312,21576,-1.00,-1.0
3461,15440,-11668,-2588,-1.00,-1.0
3463,6572,-792,-8088,-1.00,-1.0
3467,20760,-7604,5152,-1.00,-1.0
3469,8456,-4600,-9384,-1.00,-1.0
3471,22032,9920,10400,-1.00,-1.0
3473,19272,-8296,-468,-1.00,-1.0
3475,15164,-1052,-3084,-1.00,-1.0
3477,27660,1072,13660,-1.00,-1.0
3479,17740,-11256,1060,-1.00,-1.0
3481,9228,2856,-5268,-1.00,-1.0
3483,17436,7588,3728,-1.00,-1.0
3485,19500,-8116,1016,-1.00,-1.0
3487,11736,-5880,-14048,-1.00,-1.0
3489,15452,6916,4488,-1.00,-1.0
3491,22420,3512,3820,-1.00,-1.0
3493,17376,-2792,-716,-1.00,-1.0
3495,23944,-2376,11564,-1.00,-1.0
3496,16400,-7196,2852,-1.00,-1.0
3501,18768,1512,3520,-1.00,-1.0
3503,19248,-8552,4324,-1.00,-1.0
3505,9388,-148,-7884,-1.00,-1.0
3507,15200,8056,2364,-1.00,-1.0
3509,20988,-6004,5980,-1.00,-1.0
3511,14576,-4700,-3596,-1.00,-1.0
3512,23600,-1348,15508,-1.00,-1.0
3515,18364,-11036,2552,-1.00,-1.0
3516,10280,528,-5968,-1.00,-1.0
3518,21936,1488,3480,-1.00,-1.0
3520,22008,-7764,6616,-1.00,-1.0
3522,12512,-192,-9016,-1.00,-1.0
3524,15236,9164,548,-1.00,-1.0
3526,12460,-1684,-2656,-1.00,-1.0
3528,25444,-4428,18760,-1.00,-1.0
3532,7268,-1508,-7552,-1.00,-1.0
3534,24404,1908,10600,-1.00,-1.0
3536,25180,-5352,8900,-1.00,-1.0
3538,11516,-5192,-14240,-1.00,-1.0
3540,13212,12180,-2032,-1.00,-1.0
3542,21248,2176,4348,-1.00,-1.0
3544,15580,-3192,-2796,-1.00,-1.0
3546,25500,2028,11420,-1.00,-1.0
3548,17160,-5524,2208,-1.00,-1.0
3550,8516,-1704,-5156,-1.00,-1.0
3552,16020,2168,2688,-1.00,-1.0
3554,24168,-344,8008,-1.00,-1.0
3556,16348,-7460,-6164,-1.00,-1.0
3558,13588,5796,-3848,-1.00,-1.0
3560,17100,9908,-1592,-1.00,-1.0
3561,17340,-7904,4912,-1.00,-1.0
3566,19424,3776,7504,-1.00,-1.0
3568,17548,-11744,884,-1.00,-1.0
3570,14068,2264,1372,-1.00,-1.0
3571,17452,7204,-3364,-1.00,-1.0
3574,19844,-7164,2044,-1.00,-1.0
3575,14424,1544,-6452,-1.00,-1.0
3577,20612,8620,3420,-1.00,-1.0
3579,10924,3024,-12224,-1.00,-1.0
3581,22252,2940,14904,-1.00,-1.0
3583,20424,-4664,2636,-1.00,-1.0
3585,8024,0,-8340,-1.00,-1.0
3587,19152,6188,1652,-1.00,-1.0
3589,25412,-5920,9888,-1.00,-1.0
3591,13084,-5616,-13024,-1.00,-1.0
3593,13844,12336,-2668,-1.00,-1.0
3597,16984,-5296,3080,-1.00,-1.0
3599,22588,552,9824,-1.00,-1.0
3601,16432,-5828,2340,-1.00,-1.0
3603,10052,-1324,-5676,-1.00,-1.0
3605,20780,1544,5672,-1.00,-1.0
3607,19088,-5672,1948,-1.00,-1.0
3609,8352,-160,-7068,-1.00,-1.0
3611,20752,6984,4540,-1.00,-1.0
3613,17104,-9168,-1964,-1.00,-1.0
3615,18108,-2204,936,-1.00,-1.0
3617,19588,9852,9512,-1.00,-1.0
3619,18352,-804,-352,-1.00,-1.0
3621,8804,-5596,-8216,-1.00,-1.0
3623,21972,3608,8708,-1.00,-1.0
3624,23280,-152,2660,-1.00,-1.0
3626,10000,-4944,-12260,-1.00,-1.0
3631,20640,-3380,-3640,-1.00,-1.0
3633,9664,-2972,-6900,-1.00,-1.0
3634,26492,5988,18004,-1.00,-1.0
3636,14140,-6376,-752,-1.00,-1.0
3638,1740,-1124,-12652,-1.00,-1.0
3640,19464,5736,10940,-1.00,-1.0
3642,21532,-6248,3980,-1.00,-1.0
3644,8288,-428,-11892,-1.00,-1.0
3646,21192,7072,5660,-1.00,-1.0
3648,15556,-5292,2560,-1.00,-1.0
3650,13412,1556,-4136,-1.00,-1.0
3652,23092,-896,10460,-1.00,-1.0
3654,14636,-8296,32,-1.00,-1.0
3656,14272,4836,-4536,-1.00,-1.0
3658,22944,1596,3924,-1.00,-1.0
3662,10720,7176,-3416,-1.00,-1.0
3664,20604,8416,2828,-1.00,-1.0
3666,10384,-7560,-5376,-1.00,-1.0
3668,19344,5024,4576,-1.00,-1.0
3670,22480,624,5308,-1.00,-1.0
3672,13024,-5416,-6648,-1.00,-1.0
3674,23052,2172,8184,-1.00,-1.0
3676,19096,2984,3324,-1.00,-1.0
3678,11272,-3832,-8760,-1.00,-1.0
3680,25100,6704,9452,-1.00,-1.0
3682,20580,5676,6824,-1.00,-1.0
3683,12852,-7920,-3900,-1.00,-1.0
3686,18924,6044,3420,-1.00,-1.0
3688,24304,-1084,2336,-1.00,-1.0
3689,14304,-9108,-2136,-1.00,-1.0
3691,21356,5304,3284,-1.00,-1.0
3695,9800,-4828,-9888,-1.00,-1.0
3697,23416,6276,11828,-1.00,-1.0
3699,17504,2592,-3808,-1.00,-1.0
3701,6932,-92,-10104,-1.00,-1.0
3703,26336,5288,13988,-1.00,-1.0
3705,19044,-6420,2340,-1.00,-1.0
3707,5616,-952,-10764,-1.00,-1.0
3709,22476,7156,10064,-1.00,-1.0
3711,19396,-4440,2044,-1.00,-1.0
3713,5396,-2024,-10184,-1.00,-1.0
3715,27076,5460,14416,-1.00,-1.0
3717,17056,-9112,-620,-1.00,-1.0
3719,7912,2068,-13624,-1.00,-1.0
3721,30196,2708,18120,-1.00,-1.0
3723,19836,-12776,3728,-1.00,-1.0
3725,9936,-9648,-4916,-1.00,-1.0
3729,21908,3060,-808,-1.00,-1.0
3731,8428,-3100,-15452,-1.00,-1.0
3732,28968,872,21228,-1.00,-1.0
3734,17604,-4432,-2280,-1.00,-1.0
3736,6012,5312,-13204,-1.00,-1.0
3738,26120,1704,9992,-1.00,-1.0
3740,19500,-11528,10984,-1.00,-1.0
3742,5976,4220,-12020,-1.00,-1.0
3744,18296,8000,4592,-1.00,-1.0
3746,15076,-10448,3500,-1.00,-1.0
3748,16144,660,3968,-1.00,-1.0
3750,19988,3888,-3196,-1.00,-1.0
3752,11324,-6400,-5332,-1.00,-1.0
3754,22908,2920,7764,-1.00,-1.0
3756,24604,608,3112,-1.00,-1.0
3760,19220,9568,3860,-1.00,-1.0
3762,20124,4420,-3228,-1.00,-1.0
3764,7800,-7424,-7960,-1.00,-1.0
3766,28128,6364,20404,-1.00,-1.0
3768,15896,644,-7852,-1.00,-1.0
3770,3152,-4952,-11268,-1.00,-1.0
3772,27292,5016,15428,-1.00,-1.0
3774,22636,-2892,4160,-1.00,-1.0
3776,3856,-5312,-16296,-1.00,-1.0
3778,29896,5704,19580,-1.00,-1.0
3780,19004,-6260,-3580,-1.00,-1.0
3781,11152,-13236,-1108,-1.00,-1.0
3784,16512,10796,4924,-1.00,-1.0
3786,19336,6556,-2960,-1.00,-1.0
3787,13488,-15044,-1568,-1.00,-1.0
3789,21032,5884,7328,-1.00,-1.0
3794,8536,-6064,-12580,-1.00,-1.0
3796,29508,372,21708,-1.00,-1.0
3797,18180,-1040,-4016,-1.00,-1.0
3799,-304,-456,-16516,-1.00,-1.0
3801,27016,4424,17556,-1.00,-1.0
3803,21280,-7944,6572,-1.00,-1.0
3805,3872,-2784,-17572,-1.00,-1.0
3807,23484,6076,12168,-1.00,-1.0
3809,20824,-6936,5516,-1.00,-1.0
3811,9724,272,-14268,-1.00,-1.0
3813,29204,404,14688,-1.00,-1.0
3815,17036,-11800,2072,-1.00,-1.0
3817,8888,5364,-3544,-1.00,-1.0
3819,20800,7864,764,-1.00,-1.0
3821,19936,-13804,9676,-1.00,-1.0
3825,19752,10532,7460,-1.00,-1.0
3827,9340,-10428,-5940,-1.00,-1.0
3829,20592,10200,11652,-1.00,-1.0
3831,21592,3428,-6248,-1.00,-1.0
3833,11552,-13684,-2136,-1.00,-1.0
3835,18328,5444,3072,-1.00,-1.0
3837,18816,7112,3800,-1.00,-1.0
3839,10324,-8968,-9300,-1.00,-1.0
3841,22204,4544,6860,-1.00,-1.0
3843,23052,4956,592,-1.00,-1.0
3845,11248,-6348,-7804,-1.00,-1.0
3847,26132,-2480,13520,-1.00,-1.0
3849,16868,-5708,3608,-1.00,-1.0
3851,6840,-840,-9456,-1.00,-1.0
3852,15852,3952,-584,-1.00,-1.0
3854,21084,52,4876,-1.00,-1.0
3859,19108,9116,2400,-1.00,-1.0
3861,8244,896,-6640,-1.00,-1.0
3862,14744,4928,-8496,-1.00,-1.0
3864,28536,-5804,17556,-1.00,-1.0
3866,13372,-9808,416,-1.00,-1.0
3868,4316,11896,-4244,-1.00,-1.0
3870,21608,4072,-644,-1.00,-1.0
3872,20944,-16580,9968,-1.00,-1.0
3874,11076,692,-8988,-1.00,-1.0
3876,17068,14544,-2840,-1.00,-1.0
3878,9820,-3280,-6292,-1.00,-1.0
3880,24264,-4948,16900,-1.00,-1.0
3882,20676,-1816,-5444,-1.00,-1.0
3884,7676,-2972,-7704,-1.00,-1.0
3886,21960,3816,5920,-1.00,-1.0
3890,12532,-7932,-10124,-1.00,-1.0
3892,19660,12068,4680,-1.00,-1.0
3894,19184,5068,-4336,-1.00,-1.0
3896,10080,-5400,-5892,-1.00,-1.0
3898,28632,4280,19016,-1.00,-1.0
3900,15432,-156,-4044,-1.00,-1.0
3902,4264,-2716,-8272,-1.00,-1.0
3904,23144,1948,12476,-1.00,-1.0
3906,20380,-4476,3264,-1.00,-1.0
3908,8836,-2848,-10920,-1.00,-1.0
3910,22368,10292,3740,-1.00,-1.0
3912,18864,-4204,516,-1.00,-1.0
3914,16700,-332,-5264,-1.00,-1.0
3916,28176,556,19432,-1.00,-1.0
3917,22868,-3808,1948,-1.00,-1.0
3919,10884,-5804,-4020,-1.00,-1.0
3924,18184,-11692,4708,-1.00,-1.0
3926,11860,-1108,-7504,-1.00,-1.0
3927,15028,14484,-2588,-1.00,-1.0
3929,19156,4056,-12,-1.00,-1.0
3931,17384,-2916,5008,-1.00,-1.0
3933,22496,-4144,4784,-1.00,-1.0
3935,13708,-5188,4600,-1.00,-1.0
3937,12672,4364,-3496,-1.00,-1.0
3939,21536,-1956,6008,-1.00,-1.0
3941,15904,-11480,1480,-1.00,-1.0
3943,9868,6620,-5172,-1.00,-1.0
3945,18392,7376,-960,-1.00,-1.0
3947,15168,-10976,1600,-1.00,-1.0
3949,18984,5884,-1436,-1.00,-1.0
3951,23856,-28,5440,-1.00,-1.0
3955,14596,7844,5340,-1.00,-1.0
3957,22512,6208,1588,-1.00,-1.0
3959,17808,-14956,-880,-1.00,-1.0
3961,12216,7976,-4940,-1.00,-1.0
3963,19460,12672,2028,-1.00,-1.0
3965,6028,-3892,-10800,-1.00,-1.0
3967,24948,3804,17812,-1.00,-1.0
3968,21024,-1968,124,-1.00,-1.0
3971,5664,-4664,-10044,-1.00,-1.0
3973,22180,4404,8756,-1.00,-1.0
3974,23788,-2512,6660,-1.00,-1.0
3976,20224,-11280,2620,-1.00,-1.0
3978,14264,312,-2920,-1.00,-1.0
3980,15188,13660,-6148,-1.00,-1.0
3982,13560,1376,-5964,-1.00,-1.0
3984,25892,-1716,12412,-1.00,-1.0
3988,5172,2212,-10048,-1.00,-1.0
3990,18900,6372,5744,-1.00,-1.0
3992,23052,-8624,7084,-1.00,-1.0
3994,12876,-5948,-5996,-1.00,-1.0
3996,13644,12160,-7364,-1.00,-1.0
3998,18120,3228,-148,-1.00,-1.0
4000,16992,2916,-5692,-1.00,-1.0
4002,31208,-2684,21448,-1.00,-1.0
4004,12960,-8004,-392,-1.00,-1.0
4006,2872,13796,-4912,-1.00,-1.0
4008,21576,4508,-892,-1.00,-1.0
4010,20540,-18080,10708,-1.00,-1.0
4012,9372,3208,-10652,-1.00,-1.0
4014,15104,15432,-3748,-1.00,-1.0
4016,10288,-6340,-5340,-1.00,-1.0
4020,22516,-628,-1504,-1.00,-1.0
4022,8168,-3308,-9856,-1.00,-1.0
4024,23312,-500,10124,-1.00,-1.0
4026,26220,-3128,8192,-1.00,-1.0
4028,11736,-5408,-11668,-1.00,-1.0
4030,16748,6924,3600,-1.00,-1.0
4031,16772,8872,-4076,-1.00,-1.0
4033,20572,-1092,2556,-1.00,-1.0
4035,20928,-292,2752,-1.00,-1.0
4037,18784,1592,4392,-1.00,-1.0
4039,16164,-1748,2640,-1.00,-1.0
4041,14020,-648,-3236,-1.00,-1.0
4043,19432,-3596,3860,-1.00,-1.0
4045,17956,-3696,2760,-1.00,-1.0
4047,9584,5532,-10100,-1.00,-1.0
4049,21620,56,9564,-1.00,-1.0
4053,22340,7728,8072,-1.00,-1.0
4055,23012,-5632,-3328,-1.00,-1.0
4057,9684,-9328,-5648,-1.00,-1.0
4059,21376,6456,11044,-1.00,-1.0
4061,23288,824,5892,-1.00,-1.0
4063,12020,-10156,-13392,-1.00,-1.0
4065,17980,9640,4716,-1.00,-1.0
4067,20680,6140,-1332,-1.00,-1.0
4069,12500,1772,-7368,-1.00,-1.0
4071,24428,2136,14396,-1.00,-1.0
4073,14380,-4472,3248,-1.00,-1.0
4075,4576,2524,-4920,-1.00,-1.0
4077,19280,5720,5596,-1.00,-1.0
4079,20080,-8124,3324,-1.00,-1.0
4080,10592,-556,-9492,-1.00,-1.0
4085,20432,-3780,5500,-1.00,-1.0
4087,14956,-4692,-1464,-1.00,-1.0
4089,22916,-560,10556,-1.00,-1.0
4090,16976,-8760,528,-1.00,-1.0
4093,13956,-464,-1740,-1.00,-1.0
4094,23212,92,3236,-1.00,-1.0
4096,20224,-8044,3412,-1.00,-1.0
4098,12528,-1760,-9224,-1.00,-1.0
4100,17800,6784,2148,-1.00,-1.0
4102,17200,2460,2168,-1.00,-1.0
4104,20796,6092,-3232,-1.00,-1.0
4106,27736,-7140,13720,-1.00,-1.0
4108,11584,-10904,-392,-1.00,-1.0
4110,9656,13376,1772,-1.00,-1.0
4112,21896,3388,-3076,-1.00,-1.0
4114,19500,-18284,5284,-1.00,-1.0
4118,13596,16060,-5860,-1.00,-1.0
4120,7684,460,-8156,-1.00,-1.0
4122,24732,-5060,18480,-1.00,-1.0
4124,16916,116,-4076,-1.00,-1.0
4126,6744,6264,-10876,-1.00,-1.0
4128,25900,-508,10424,-1.00,-1.0
4130,26752,-10116,7204,-1.00,-1.0
4132,12208,2140,-12528,-1.00,-1.0
4134,17836,12232,-1828,-1.00,-1.0
4136,17020,1296,-1084,-1.00,-1.0
4138,13076,248,-2148,-1.00,-1.0
4140,23868,6948,11324,-1.00,-1.0
4142,12600,-844,-4312,-1.00,-1.0
4144,9740,1564,-3536,-1.00,-1.0
4145,21908,2216,6416,-1.00,-1.0
4147,18900,-6972,7156,-1.00,-1.0
4152,21936,11384,-3236,-1.00,-1.0
4154,23348,-9488,2324,-1.00,-1.0
4155,16956,1600,-2320,-1.00,-1.0
4158,25400,4980,15580,-1.00,-1.0
4159,13280,-9980,-1948,-1.00,-1.0
4161,5868,1452,-5648,-1.00,-1.0
4163,20764,6756,5624,-1.00,-1.0
4165,20252,-8744,1980,-1.00,-1.0
4167,7224,12,-10436,-1.00,-1.0
4169,19704,9104,5404,-1.00,-1.0
4171,23080,2256,964,-1.00,-1.0
4173,10396,-3016,-6180,-1.00,-1.0
4175,22400,4520,13348,-1.00,-1.0
4177,15148,-5088,1276,-1.00,-1.0
4179,4692,-1356,-7852,-1.00,-1.0
4183,20780,-6112,1200,-1.00,-1.0
4185,8760,-1748,-12320,-1.00,-1.0
4187,20024,9844,3880,-1.00,-1.0
4189,20480,-8600,4232,-1.00,-1.0
4191,18432,-2108,-1240,-1.00,-1.0
4193,24432,1400,11496,-1.00,-1.0
4195,14396,-10604,-496,-1.00,-1.0
4197,13996,1688,4228,-1.00,-1.0
4199,21112,4864,-1028,-1.00,-1.0
4201,17272,-9640,1120,-1.00,-1.0
4203,11272,1580,-3008,-1.00,-1.0
4205,16760,9704,2372,-1.00,-1.0
4207,6220,212,-8368,-1.00,-1.0
4209,27488,-2380,21108,-1.00,-1.0
4210,17160,-4748,-5108,-1.00,-1.0
4212,4048,1880,-12352,-1.00,-1.0
4217,18604,-14356,3016,-1.00,-1.0
4219,13764,4768,-2964,-1.00,-1.0
4221,17292,11968,3620,-1.00,-1.0
4223,23192,544,3080,-1.00,-1.0
4225,15380,-6040,-4004,-1.00,-1.0
4227,27508,552,10492,-1.00,-1.0
4229,16224,-5636,3204,-1.00,-1.0
4231,4936,-1140,-7656,-1.00,-1.0
4233,20640,1200,8964,-1.00,-1.0
4235,18580,-6344,4116,-1.00,-1.0
4237,11504,-132,-9676,-1.00,-1.0
4239,16656,9040,-1592,-1.00,-1.0
4241,10996,1096,-3528,-1.00,-1.0
4243,28456,-1760,14828,-1.00,-1.0
4245,20280,-6968,-2388,-1.00,-1.0
4249,26844,3012,17672,-1.00,-1.0
4251,22976,-9636,340,-1.00,-1.0
4253,7680,-3212,-13468,-1.00,-1.0
4254,18912,10384,6272,-1.00,-1.0
4256,18684,-328,-88,-1.00,-1.0
4258,8288,-3156,-6828,-1.00,-1.0
4260,25336,7684,13264,-1.00,-1.0
4262,16504,-2968,-3632,-1.00,-1.0
4264,6916,-844,-6792,-1.00,-1.0
4266,25908,6220,11352,-1.00,-1.0
4268,22848,120,5596,-1.00,-1.0
4270,14340,-13808,-2564,-1.00,-1.0
4272,15380,6084,-304,-1.00,-1.0
4274,16328,9144,-6836,-1.00,-1.0
4276,13016,-5120,-2892,-1.00,-1.0
4278,24988,2816,12660,-1.00,-1.0
4282,9512,-3320,-4408,-1.00,-1.0
4284,21512,5456,8128,-1.00,-1.0
4286,22256,-3612,4576,-1.00,-1.0
4288,13748,-6516,-6860,-1.00,-1.0
4290,17060,9828,140,-1.00,-1.0
4292,17976,3216,-1728,-1.00,-1.0
4294,14736,4368,-7984,-1.00,-1.0
4296,24476,1492,13536,-1.00,-1.0
4298,10904,-6924,-3216,-1.00,-1.0
4300,9516,6308,104,-1.00,-1.0
4301,21400,3016,1992,-1.00,-1.0
4303,19148,-13112,6508,-1.00,-1.0
4305,12208,2108,-9988,-1.00,-1.0
4307,17008,11856,-1464,-1.00,-1.0
4309,12872,-3760,-2444,-1.00,-1.0
4313,19460,-2420,-4404,-1.00,-1.0
4315,8952,-2856,-4528,-1.00,-1.0
4317,21252,5868,5344,-1.00,-1.0
4319,23720,-3620,4044,-1.00,-1.0
4321,12212,-6024,-7556,-1.00,-1.0
4323,16532,8552,4308,-1.00,-1.0
4325,18268,9880,-3212,-1.00,-1.0
4327,18552,-5408,1476,-1.00,-1.0
4329,18444,992,2788,-1.00,-1.0
4331,20208,524,3572,-1.00,-1.0
4333,12536,-5712,4576,-1.00,-1.0
4335,11112,7432,-3872,-1.00,-1.0
4337,19544,1024,4744,-1.00,-1.0
4339,16368,-7776,1244,-1.00,-1.0
4341,11524,9524,-6948,-1.00,-1.0
4343,19092,5504,1380,-1.00,-1.0
4347,21652,4016,8100,-1.00,-1.0
4349,19340,-2856,-204,-1.00,-1.0
4351,11376,-2936,-1396,-1.00,-1.0
4353,19232,4656,1884,-1.00,-1.0
4355,20760,-2728,6264,-1.00,-1.0
4357,11764,-2632,-9648,-1.00,-1.0
4358,19968,6672,4968,-1.00,-1.0
4360,17008,-2944,-2788,-1.00,-1.0
4362,20144,-592,6088,-1.00,-1.0
4364,21040,-732,-964,-1.00,-1.0
4366,11512,-5196,-176,-1.00,-1.0
4368,16416,1932,4724,-1.00,-1.0
4370,19352,604,712,-1.00,-1.0
4372,12764,-5724,-3484,-1.00,-1.0
4374,11308,-756,-8932,-1.00,-1.0
4376,19188,7288,1252,-1.00,-1.0
4380,23480,4960,9792,-1.00,-1.0
4382,17924,-912,-4272,-1.00,-1.0
4384,12368,-8528,684,-1.00,-1.0
4386,8820,3084,-4948,-1.00,-1.0
4388,22732,1484,7752,-1.00,-1.0
4390,17444,-9604,1624,-1.00,-1.0
4392,9640,6228,-8236,-1.00,-1.0
4394,21592,6480,6864,-1.00,-1.0
4396,8772,-4244,-5244,-1.00,-1.0
4398,18616,4324,6496,-1.00,-1.0
4400,21972,-752,2896,-1.00,-1.0
4401,11596,-4476,-3112,-1.00,-1.0
4404,20172,4816,2352,-1.00,-1.0
4406,22904,-1836,4208,-1.00,-1.0
4407,13012,-5868,-5248,-1.00,-1.0
4412,16388,-1004,-3260,-1.00,-1.0
4414,15632,-3160,3320,-1.00,-1.0
4416,24480,72,5020,-1.00,-1.0
4417,14084,-5692,-3960,-1.00,-1.0
4419,12820,1344,-1608,-1.00,-1.0
4421,22036,1416,6752,-1.00,-1.0
4423,15136,-5756,-860,-1.00,-1.0
4425,11676,4208,-5684,-1.00,-1.0
4427,22992,5456,6700,-1.00,-1.0
4429,11156,-3496,-6820,-1.00,-1.0
4431,23120,2180,10008,-1.00,-1.0
4433,20640,-1532,-1828,-1.00,-1.0
4435,7884,-1196,-5104,-1.00,-1.0
4437,21456,2784,6916,-1.00,-1.0
4439,22064,4136,1496,-1.00,-1.0
4441,16740,-7336,904,-1.00,-1.0
4445,17672,-5280,-4920,-1.00,-1.0
4447,15468,-1040,-124,-1.00,-1.0
4449,18908,5864,9052,-1.00,-1.0
4451,21604,-2596,916,-1.00,-1.0
4453,9492,-5412,-6648,-1.00,-1.0
4455,19620,5220,3100,-1.00,-1.0
4457,22556,-1200,4420,-1.00,-1.0
4459,9180,-1876,-9768,-1.00,-1.0
4461,23140,1460,11112,-1.00,-1.0
4463,13796,-2008,-4336,-1.00,-1.0
4465,15284,1176,2344,-1.00,-1.0
4466,26152,-3584,4820,-1.00,-1.0
4469,14492,-6984,1080,-1.00,-1.0
4471,14552,3388,-688,-1.00,-1.0
4472,22852,2868,3412,-1.00,-1.0
4474,16156,-9036,84,-1.00,-1.0
4478,22000,2796,2932,-1.00,-1.0
4480,3892,-4208,-8108,-1.00,-1.0
4482,21556,5248,18456,-1.00,-1.0
4484,17316,-3056,-3836,-1.00,-1.0
4486,3520,-3068,-8476,-1.00,-1.0
4488,23520,3436,9048,-1.00,-1.0
4490,23472,-3316,4628,-1.00,-1.0
4492,15164,-10836,2452,-1.00,-1.0
4494,25984,5480,18108,-1.00,-1.0
4496,20152,6052,-5192,-1.00,-1.0
4498,5064,-4760,-8272,-1.00,-1.0
4500,22932,4028,17644,-1.00,-1.0
4502,18516,-3364,-756,-1.00,-1.0
4504,4784,-4316,-10912,-1.00,-1.0
4506,21892,3912,8368,-1.00,-1.0
4510,6848,-44,-14968,-1.00,-1.0
4512,24592,2728,13668,-1.00,-1.0
4514,14440,-2928,-1044,-1.00,-1.0
4515,8460,6344,-8160,-1.00,-1.0
4518,25640,2844,6700,-1.00,-1.0
4519,17596,-10688,4080,-1.00,-1.0
4521,10252,6560,-6916,-1.00,-1.0
4523,20588,7432,2620,-1.00,-1.0
4525,17828,-10400,4116,-1.00,-1.0
4527,17804,8228,-5384,-1.00,-1.0
4529,21592,5872,-316,-1.00,-1.0
4531,7516,-3612,-5084,-1.00,-1.0
4533,23428,3484,20704,-1.00,-1.0
4535,15424,-3944,-9108,-1.00,-1.0
4537,5340,-3172,-6016,-1.00,-1.0
4539,10864,5560,-6100,-1.00,-1.0
4543,6572,-1040,-15052,-1.00,-1.0
4545,21776,7916,10380,-1.00,-1.0
4547,11824,2172,-4848,-1.00,-1.0
4549,15144,1200,-2028,-1.00,-1.0
4551,20756,-4132,-2972,-1.00,-1.0
4553,14372,-3916,1880,-1.00,-1.0
4555,10680,5528,-2288,-1.00,-1.0
4557,20128,1040,908,-1.00,-1.0
4559,15032,-8936,-1132,-1.00,-1.0
4561,15876,4800,856,-1.00,-1.0
4563,20180,6360,-5432,-1.00,-1.0
4564,10900,928,-2664,-1.00,-1.0
4567,20880,1460,10168,-1.00,-1.0
4569,17244,764,-1488,-1.00,-1.0
4570,5716,1828,-7996,-1.00,-1.0
4572,19984,5520,8256,-1.00,-1.0
4577,7000,-848,-6800,-1.00,-1.0
4579,25720,7644,5596,-1.00,-1.0
4580,20808,-7668,-2540,-1.00,-1.0
4582,7420,3520,-11764,-1.00,-1.0
4584,28716,5088,17692,-1.00,-1.0
4586,18652,-10252,-144,-1.00,-1.0
4588,4332,3324,-11388,-1.00,-1.0
4590,21848,9236,4524,-1.00,-1.0
4592,19816,-9316,5860,-1.00,-1.0
4594,13596,4980,-7636,-1.00,-1.0
4596,19420,8380,1280,-1.00,-1.0
4598,8980,-4756,-3452,-1.00,-1.0
4600,13600,4148,5448,-1.00,-1.0
4602,19480,648,616,-1.00,-1.0
4604,18756,-4080,4532,-1.00,-1.0
4608,21324,-2692,-1204,-1.00,-1.0
4610,10540,2304,-8976,-1.00,-1.0
4612,23756,2692,10904,-1.00,-1.0
4614,21408,1256,-4560,-1.00,-1.0
4616,11600,3472,-6840,-1.00,-1.0
4618,24236,468,11924,-1.00,-1.0
4620,18676,-748,1676,-1.00,-1.0
4622,7088,3196,-10920,-1.00,-1.0
4624,23484,2784,10988,-1.00,-1.0
4626,19756,-5980,3448,-1.00,-1.0
4628,11428,2392,-4816,-1.00,-1.0
4629,20840,3168,712,-1.00,-1.0
4632,14224,-7912,3088,-1.00,-1.0
4634,18984,-1676,5760,-1.00,-1.0
4635,19400,1736,-6588,-1.00,-1.0
4637,13556,-4140,-128,-1.00,-1.0
4642,19280,2288,-1628,-1.00,-1.0
4644,9132,280,-5832,-1.00,-1.0
4645,18920,4096,7280,-1.00,-1.0
4647,18704,-2712,3544,-1.00,-1.0
4649,10796,2752,-5236,-1.00,-1.0
4651,20968,100,3684,-1.00,-1.0
4653,17220,-4756,2504,-1.00,-1.0
4655,13920,1368,-908,-1.00,-1.0
4657,17804,2368,-2452,-1.00,-1.0
4659,13064,-5392,-28,-1.00,-1.0
4661,19504,1220,5408,-1.00,-1.0
4663,18908,404,-6256,-1.00,-1.0
4665,12164,-880,-3600,-1.00,-1.0
4667,21556,2312,7556,-1.00,-1.0
4669,20128,660,216,-1.00,-1.0
4671,14984,-5252,2144,-1.00,-1.0
4675,17668,-4396,664,-1.00,-1.0
4677,11772,3580,-1696,-1.00,-1.0
4679,21708,2428,6852,-1.00,-1.0
4681,19564,-228,-404,-1.00,-1.0
4683,8540,-56,-5684,-1.00,-1.0
4685,22864,3524,11908,-1.00,-1.0
4687,18560,-3828,-72,-1.00,-1.0
4688,12024,984,-4252,-1.00,-1.0
4691,23660,1636,4932,-1.00,-1.0
4692,17932,-5976,1036,-1.00,-1.0
4694,13340,688,-2040,-1.00,-1.0
4696,20736,1280,4400,-1.00,-1.0
4698,11136,-4644,-4148,-1.00,-1.0
4700,19172,1524,5252,-1.00,-1.0
4702,20284,-308,-5852,-1.00,-1.0
4704,13408,-1672,-560,-1.00,-1.0
4708,20068,-84,2844,-1.00,-1.0
4710,15092,1596,-2432,-1.00,-1.0
4712,21488,-620,8028,-1.00,-1.0
4714,15208,-3920,1596,-1.00,-1.0
4716,16408,1108,3280,-1.00,-1.0
4718,18436,-1464,-3996,-1.00,-1.0
4720,12900,-3812,16,-1.00,-1.0
4722,20524,1544,5968,-1.00,-1.0
4724,18052,720,-7000,-1.00,-1.0
4726,11804,1524,-4712,-1.00,-1.0
4728,17300,-696,3680,-1.00,-1.0
4730,18592,-2148,2752,-1.00,-1.0
4732,14020,4064,-1220,-1.00,-1.0
4734,22116,-2652,9528,-1.00,-1.0
4736,18696,-1600,-1160,-1.00,-1.0
4740,21492,408,8304,-1.00,-1.0
4742,19116,-5504,-172,-1.00,-1.0
4744,18320,1060,3312,-1.00,-1.0
4745,20560,-208,-1060,-1.00,-1.0
4747,13264,-4340,-1480,-1.00,-1.0
4749,19628,1728,6068,-1.00,-1.0
4751,19012,-8,-5540,-1.00,-1.0
4753,13948,-4840,380,-1.00,-1.0
4755,21644,4912,6648,-1.00,-1.0
4757,18144,968,-1556,-1.00,-1.0
4759,11440,636,-5128,-1.00,-1.0
4761,23152,1564,14332,-1.00,-1.0
4763,16412,-3268,-2016,-1.00,-1.0
4765,8280,2528,-4776,-1.00,-1.0
4767,20556,1292,3576,-1.00,-1.0
4769,16672,-6376,872,-1.00,-1.0
4773,18228,1744,-4416,-1.00,-1.0
4775,12004,-2732,-1412,-1.00,-1.0
4777,22976,2192,11540,-1.00,-1.0
4779,22244,1056,2768,-1.00,-1.0
4781,15868,-7132,2052,-1.00,-1.0
4783,15864,3880,-1016,-1.00,-1.0
4785,18852,3624,-292,-1.00,-1.0
4786,11332,-1600,-5760,-1.00,-1.0
4788,23556,1552,13160,-1.00,-1.0
4790,18560,-1832,-7760,-1.00,-1.0
4792,6084,1828,-4440,-1.00,-1.0
4794,22124,1716,11560,-1.00,-1.0
4796,17888,-4448,-600,-1.00,-1.0
4798,5680,3712,-12600,-1.00,-1.0
4800,23100,1884,10296,-1.00,-1.0
4802,18368,-10136,2164,-1.00,-1.0
4806,23312,2920,1112,-1.00,-1.0
4808,19868,-11072,9108,-1.00,-1.0
4810,19560,4120,5804,-1.00,-1.0
4812,16256,6856,-12480,-1.00,-1.0
4814,9132,-2964,-4888,-1.00,-1.0
4816,26496,-4256,23240,-1.00,-1.0
4818,12668,668,-13328,-1.00,-1.0
4820,7192,7044,-8660,-1.00,-1.0
4822,23352,-484,7772,-1.00,-1.0
4824,20192,-6216,7448,-1.00,-1.0
4826,19072,3952,-900,-1.00,-1.0
4828,17356,4132,-5888,-1.00,-1.0
4830,13904,-1312,1848,-1.00,-1.0
4832,25352,-1604,18696,-1.00,-1.0
4834,22288,-2772,5520,-1.00,-1.0
4838,23840,-2608,9068,-1.00,-1.0
4840,18552,-6076,2520,-1.00,-1.0
4842,13956,5060,-4892,-1.00,-1.0
4844,24068,-1356,15616,-1.00,-1.0
4846,11652,-2088,-412,-1.00,-1.0
4848,16224,6368,-3912,-1.00,-1.0
4850,23400,-3160,3108,-1.00,-1.0
4851,17664,-4824,4380,-1.00,-1.0
4853,17704,4704,3412,-1.00,-1.0
4855,17124,4364,-7740,-1.00,-1.0
4857,10740,-3772,-2220,-1.00,-1.0
4859,23348,-3676,19304,-1.00,-1.0
4861,12976,-660,-10228,-1.00,-1.0
4863,12668,6156,-9128,-1.00,-1.0
4865,25316,-6648,9600,-1.00,-1.0
4867,19484,-5300,3492,-1.00,-1.0
4871,17788,3344,-2912,-1.00,-1.0
4873,11880,-4592,-372,-1.00,-1.0
4875,22568,-2848,16500,-1.00,-1.0
4877,12728,-1416,-11264,-1.00,-1.0
4879,10400,6288,-8184,-1.00,-1.0
4881,26120,-7072,15052,-1.00,-1.0
4883,17664,-8128,2544,-1.00,-1.0
4885,11256,5384,-4128,-1.00,-1.0
4887,18224,5436,-276,-1.00,-1.0
4889,16200,-8580,1772,-1.00,-1.0
4891,24680,-1652,13636,-1.00,-1.0
4893,16284,1620,-12780,-1.00,-1.0
4895,12596,6812,-6628,-1.00,-1.0
4897,27208,-7432,17228,-1.00,-1.0
4899,17296,-4892,-10920,-1.00,-1.0
4903,19264,5680,3224,-1.00,-1.0
4905,20276,-10320,4576,-1.00,-1.0
4907,17572,1204,3868,-1.00,-1.0
4909,18636,4388,9416,-1.00,-1.0
4911,20824,436,7052,-1.00,-1.0
4913,22320,-8016,7988,-1.00,-1.0
4914,14300,-4608,-5800,-1.00,-1.0
4916,15020,8824,5440,-1.00,-1.0
4918,22644,-3848,5948,-1.00,-1.0
4920,16468,-8372,-1936,-1.00,-1.0
4922,16340,3984,-188,-1.00,-1.0
4924,17684,4104,-112,-1.00,-1.0
4926,13788,-1272,-5960,-1.00,-1.0
4928,24372,-1904,13776,-1.00,-1.0
4930,17892,-3596,-4848,-1.00,-1.0
4934,21616,1020,8124,-1.00,-1.0
4936,19216,-3536,380,-1.00,-1.0
4938,9696,1156,-8800,-1.00,-1.0
4940,18656,4160,8652,-1.00,-1.0
4942,12124,4052,-9952,-1.00,-1.0
4944,21640,-2860,11232,-1.00,-1.0
4946,17984,-4492,-3236,-1.00,-1.0
4948,9652,6556,-4304,-1.00,-1.0
4950,21556,1508,7092,-1.00,-1.0
4952,20756,-6432,3568,-1.00,-1.0
4954,8844,2280,-9700,-1.00,-1.0
4956,15812,7180,4564,-1.00,-1.0
4958,16088,36,-4272,-1.00,-1.0
4960,22932,-5832,7176,-1.00,-1.0
4962,18288,-3224,-1924,-1.00,-1.0
4963,9456,3692,-6052,-1.00,-1.0
4968,18360,-8076,-96,-1.00,-1.0
4970,10460,5136,-6612,-1.00,-1.0
4972,19412,3736,5072,-1.00,-1.0
4974,14136,1672,-10956,-1.00,-1.0
4976,21824,840,5672,-1.00,-1.0
4978,19496,-2176,-2900,-1.00,-1.0
4979,12980,-1444,-8016,-1.00,-1.0
4981,12548,6380,-4116,-1.00,-1.0
4983,21788,-52,5032,-1.00,-1.0
4985,19876,-8144,5136,-1.00,-1.0
4987,16248,5788,-5052,-1.00,-1.0
4989,16828,5604,-7016,-1.00,-1.0
4991,15596,724,92,-1.00,-1.0
4993,21540,-2880,13120,-1.00,-1.0
4995,12768,968,-9488,-1.00,-1.0
4997,9768,6172,-4948,-1.00,-1.0
5001,18636,-4792,3244,-1.00,-1.0
5003,19876,3120,1704,-1.00,-1.0
5005,15996,3384,-6572,-1.00,-1.0
5007,17372,-3016,3204,-1.00,-1.0
5009,21912,-5284,8000,-1.00,-1.0
5011,13780,1528,-8092,-1.00,-1.0
5013,16184,2480,-832,-1.00,-1.0
5015,20160,-3720,5124,-1.00,-1.0
5017,14140,-1480,-4544,-1.00,-1.0
5019,16416,4744,3424,-1.00,-1.0
5020,20768,-416,4620,-1.00,-1.0
5022,14688,-152,-7196,-1.00,-1.0
5024,20160,5024,1700,-1.00,-1.0
5026,19240,-2940,312,-1.00,-1.0
5028,11948,-148,-2876,-1.00,-1.0
5030,20432,3972,10100,-1.00,-1.0
5034,9252,-1876,-5804,-1.00,-1.0
5036,22356,-2212,16504,-1.00,-1.0
5038,11256,-2492,-10428,-1.00,-1.0
5040,14672,2964,-1476,-1.00,-1.0
5042,23348,-3468,5612,-1.00,-1.0
5044,16172,-3672,584,-1.00,-1.0
5046,17724,3384,1224,-1.00,-1.0
5048,17476,2568,-1776,-1.00,-1.0
5050,20856,-3484,4052,-1.00,-1.0
5052,21368,-4236,6324,-1.00,-1.0
5054,11068,1936,-11080,-1.00,-1.0
5056,19560,3204,8288,-1.00,-1.0
5058,17408,-6852,-288,-1.00,-1.0
5060,10740,-1584,176,-1.00,-1.0
5061,18076,4892,4584,-1.00,-1.0
5066,11668,-1880,-4056,-1.00,-1.0
5068,23416,16,15372,-1.00,-1.0
5070,14924,-3396,-7164,-1.00,-1.0
5071,8528,5336,-10412,-1.00,-1.0
5074,23944,-2308,10996,-1.00,-1.0
5076,19344,-6712,3560,-1.00,-1.0
5077,9796,-1700,-2676,-1.00,-1.0
5079,22864,844,12592,-1.00,-1.0
5081,16024,-1276,-7112,-1.00,-1.0
5083,11508,2552,-11544,-1.00,-1.0
5085,21996,-988,11456,-1.00,-1.0
5087,13836,-3080,-3192,-1.00,-1.0
5089,19936,4784,7136,-1.00,-1.0
5091,19048,-2960,-6128,-1.00,-1.0
5093,13172,-5840,4412,-1.00,-1.0
5095,22544,2032,9020,-1.00,-1.0
5099,15368,-2736,-1768,-1.00,-1.0
5101,22744,-4556,14864,-1.00,-1.0
5103,9228,648,-9812,-1.00,-1.0
5105,19444,4740,7292,-1.00,-1.0
5107,21428,-6324,-1312,-1.00,-1.0
5109,12960,-4340,2652,-1.00,-1.0
5111,17832,4768,3356,-1.00,-1.0
5113,19440,1228,-2016,-1.00,-1.0
5115,8132,740,-6824,-1.00,-1.0
5117,21848,-824,16900,-1.00,-1.0
5119,13076,-3712,-9428,-1.00,-1.0
5121,10136,9432,-11244,-1.00,-1.0
5123,26304,-2928,8448,-1.00,-1.0
5125,21564,-11640,9900,-1.00,-1.0
5126,10728,6916,-5056,-1.00,-1.0
5131,16696,-7640,4880,-1.00,-1.0
5133,24924,-7372,17684,-1.00,-1.0
5135,9916,1972,-16124,-1.00,-1.0
5136,12268,8292,-2312,-1.00,-1.0
5139,25836,-7136,12208,-1.00,-1.0
5140,17424,-8048,1912,-1.00,-1.0
5142,9628,-980,-1716,-1.00,-1.0
5144,21348,4336,8420,-1.00,-1.0
5146,14092,-1004,-8752,-1.00,-1.0
5148,14412,-584,-1840,-1.00,-1.0
5150,20432,-16,8216,-1.00,-1.0
5152,9416,392,-8648,-1.00,-1.0
5154,20688,2856,8784,-1.00,-1.0
5156,21848,-4864,-3196,-1.00,-1.0
5158,12880,-4168,1144,-1.00,-1.0
5160,18768,5312,5884,-1.00,-1.0
5164,10836,1032,-6028,-1.00,-1.0
5166,23276,-988,13708,-1.00,-1.0
5168,13872,-4336,-7120,-1.00,-1.0
5170,10668,7360,-3580,-1.00,-1.0
5172,22804,352,3836,-1.00,-1.0
5174,21516,-10076,8224,-1.00,-1.0
5176,17116,4352,-1480,-1.00,-1.0
5178,16644,6704,-7668,-1.00,-1.0
5180,16516,-1428,3748,-1.00,-1.0
5182,23104,-5720,13680,-1.00,-1.0
5184,11560,-528,-10076,-1.00,-1.0
5186,10576,8840,-3088,-1.00,-1.0
5188,23044,-896,7760,-1.00,-1.0
5190,17572,-8100,1304,-1.00,-1.0
5191,17828,6448,452,-1.00,-1.0
5196,12416,-3848,148,-1.00,-1.0
5198,25828,-2020,18488,-1.00,-1.0
5200,16856,-1180,-9940,-1.00,-1.0
5201,8064,1628,-6516,-1.00,-1.0
5203,22568,836,11476,-1.00,-1.0
5205,19216,-3400,180,-1.00,-1.0
5207,17496,-7804,4604,-1.00,-1.0
5209,23588,-44,10996,-1.00,-1.0
5211,11984,3220,-15288,-1.00,-1.0
5213,15996,2692,3352,-1.00,-1.0
5215,26028,-5656,11408,-1.00,-1.0
5217,14180,-3920,-5008,-1.00,-1.0
5219,13804,4264,-2192,-1.00,-1.0
5221,22044,868,3948,-1.00,-1.0
5223,17404,-9680,-344,-1.00,-1.0
5225,20444,4160,6120,-1.00,-1.0
5229,13148,1740,100,-1.00,-1.0
5231,20752,-6436,7464,-1.00,-1.0
5233,12544,-1616,-4372,-1.00,-1.0
5235,11044,6392,-1988,-1.00,-1.0
5237,21292,-556,5952,-1.00,-1.0
5239,17544,-9120,-812,-1.00,-1.0
5241,16784,7600,-1852,-1.00,-1.0
5243,20708,4700,-2848,-1.00,-1.0
5245,9564,-108,-4580,-1.00,-1.0
5247,25220,-5016,17408,-1.00,-1.0
5248,18148,-5736,-4168,-1.00,-1.0
5250,6076,2240,-9392,-1.00,-1.0
5252,23540,2168,9620,-1.00,-1.0
5254,24352,-8128,2668,-1.00,-1.0
5256,15540,-9576,652,-1.00,-1.0
5258,17092,6240,220,-1.00,-1.0
5264,22252,-6232,5864,-1.00,-1.0
5266,11300,60,-5948,-1.00,-1.0
5268,14412,5368,2316,-1.00,-1.0
5270,23352,-2424,4728,-1.00,-1.0
5272,17300,-8448,-2424,-1.00,-1.0
5274,13452,6952,-1556,-1.00,-1.0
5276,16716,6756,-1552,-1.00,-1.0
5278,19068,-1964,1836,-1.00,-1.0
5280,28160,-11708,12196,-1.00,-1.0
5282,13724,-2860,-3688,-1.00,-1.0
5284,15532,4104,4348,-1.00,-1.0
5286,23252,-4048,3380,-1.00,-1.0
5288,16020,-9812,-2220,-1.00,-1.0
5290,12864,7472,1948,-1.00,-1.0
5292,18748,6628,-1056,-1.00,-1.0
5296,28424,-3388,15328,-1.00,-1.0
5298,17600,-5112,-2240,-1.00,-1.0
5300,5312,5728,-5172,-1.00,-1.0
5301,19904,5032,6232,-1.00,-1.0
5303,21272,-10316,3620,-1.00,-1.0
5305,7256,-292,-6772,-1.00,-1.0
5307,19388,10100,3472,-1.00,-1.0
5309,17808,4352,-4504,-1.00,-1.0
5311,14276,-2116,-4596,-1.00,-1.0
5313,23968,-4044,13156,-1.00,-1.0
5315,14432,-3764,-236,-1.00,-1.0
5317,8824,3520,-416,-1.00,-1.0
5319,20292,1916,2468,-1.00,-1.0
5321,21220,-8980,3568,-1.00,-1.0
5323,14408,2180,-4708,-1.00,-1.0
5325,17208,13016,-4952,-1.00,-1.0
5329,28292,-4844,18804,-1.00,-1.0
5331,13028,-756,-7568,-1.00,-1.0
5333,6424,5380,-2240,-1.00,-1.0
5335,21232,2328,5232,-1.00,-1.0
5337,19648,-8416,960,-1.00,-1.0
5339,9748,-2064,-7272,-1.00,-1.0
5341,17340,9080,-228,-1.00,-1.0
5343,10744,3532,-6092,-1.00,-1.0
5345,24468,-2148,12544,-1.00,-1.0
5347,18644,-3844,-5116,-1.00,-1.0
5348,5796,8116,-8800,-1.00,-1.0
5350,23852,4316,12444,-1.00,-1.0
5352,23924,-10452,3124,-1.00,-1.0
5354,8252,-1024,-8760,-1.00,-1.0
5356,18412,9760,4732,-1.00,-1.0
5360,14860,928,-5280,-1.00,-1.0
5362,27780,-1072,8672,-1.00,-1.0
5364,13224,-6700,60,-1.00,-1.0
5366,9284,3724,240,-1.00,-1.0
5368,22244,4528,3140,-1.00,-1.0
5370,18804,-10164,3960,-1.00,-1.0
5372,10164,-6940,-8868,-1.00,-1.0
5374,15692,6264,1420,-1.00,-1.0
5376,16044,2592,876,-1.00,-1.0
5378,12548,-660,-1924,-1.00,-1.0
5380,20264,-3676,748,-1.00,-1.0
5382,14336,-2048,1420,-1.00,-1.0
5384,15324,5520,1612,-1.00,-1.0
5386,24096,-2892,5628,-1.00,-1.0
5388,18276,-8492,276,-1.00,-1.0
5390,15332,8880,-1976,-1.00,-1.0
5394,13732,4532,-7076,-1.00,-1.0
5396,25300,-2548,11944,-1.00,-1.0
5398,13716,-6124,-1388,-1.00,-1.0
5400,8944,8012,720,-1.00,-1.0
5402,23456,2112,2272,-1.00,-1.0
5404,20132,-12096,5164,-1.00,-1.0
5406,9972,4364,-9504,-1.00,-1.0
5407,17904,11420,64,-1.00,-1.0
5410,10512,2832,-7752,-1.00,-1.0
5411,22436,800,15808,-1.00,-1.0
5413,15388,-1068,-6540,-1.00,-1.0
5415,5300,5292,-4756,-1.00,-1.0
5417,20496,5488,4312,-1.00,-1.0
5419,23552,-7532,4820,-1.00,-1.0
5421,16808,-9536,848,-1.00,-1.0
5423,14148,5720,-868,-1.00,-1.0
5427,15168,-132,-1960,-1.00,-1.0
5429,21388,-2412,-148,-1.00,-1.0
5431,14868,-3760,2872,-1.00,-1.0
5433,5656,3056,-5732,-1.00,-1.0
5435,23164,664,7724,-1.00,-1.0
5437,20540,-7520,1272,-1.00,-1.0
5439,10544,-748,-5640,-1.00,-1.0
5441,17516,8836,-2460,-1.00,-1.0
5443,10180,1036,-4032,-1.00,-1.0
5445,24768,-4600,13784,-1.00,-1.0
5447,19692,-4692,-2372,-1.00,-1.0
5449,5976,5920,-11344,-1.00,-1.0
5451,23720,2660,12300,-1.00,-1.0
5453,24412,-11692,5380,-1.00,-1.0
5455,6660,612,-9632,-1.00,-1.0
5459,18104,-6028,616,-1.00,-1.0
5461,19900,-4608,5792,-1.00,-1.0
5463,22460,-1720,616,-1.00,-1.0
5465,9876,-2076,-3308,-1.00,-1.0
5467,20164,1648,7708,-1.00,-1.0
5469,23608,-4164,2124,-1.00,-1.0
5471,13132,-7256,-2108,-1.00,-1.0
5472,15628,8608,1828,-1.00,-1.0
5474,19488,4468,-3072,-1.00,-1.0
5476,9756,-3744,-4760,-1.00,-1.0
5478,25664,2664,16416,-1.00,-1.0
5480,19036,-4220,-1008,-1.00,-1.0
5482,4676,-2552,-7652,-1.00,-1.0
5484,22404,3908,9380,-1.00,-1.0
5486,22512,-6336,5332,-1.00,-1.0
5488,16672,-10276,-120,-1.00,-1.0
5492,13800,216,-2868,-1.00,-1.0
5494,18280,-1344,2820,-1.00,-1.0
5496,21744,-3576,4440,-1.00,-1.0
5498,16512,-5556,-2500,-1.00,-1.0
5500,9440,5764,-572,-1.00,-1.0
5502,22456,2196,4968,-1.00,-1.0
5504,17308,-8708,1688,-1.00,-1.0
5506,6656,5436,-11412,-1.00,-1.0
5508,19364,8856,3228,-1.00,-1.0
5510,12364,-4272,-4912,-1.00,-1.0
5512,18900,4032,4580,-1.00,-1.0
5514,22412,-2496,3816,-1.00,-1.0
5516,8540,-5688,-3100,-1.00,-1.0
5518,18056,4828,4580,-1.00,-1.0
5519,23340,-1040,1576,-1.00,-1.0
5521,11408,-9164,-5220,-1.00,-1.0
5525,17864,2384,-2144,-1.00,-1.0
5527,13996,-916,-5940,-1.00,-1.0
5529,25568,-4656,9564,-1.00,-1.0
5531,13928,-5188,464,-1.00,-1.0
5533,11300,5356,-740,-1.00,-1.0
5535,23492,1860,4256,-1.00,-1.0
5537,18780,-10196,1852,-1.00,-1.0
5539,12896,6108,-2416,-1.00,-1.0
5541,18012,10012,-3772,-1.00,-1.0
5543,15184,1316,-3472,-1.00,-1.0
5545,15956,-1820,4120,-1.00,-1.0
5547,22116,-4596,2784,-1.00,-1.0
5549,7828,172,-5080,-1.00,-1.0
5551,14976,5120,2324,-1.00,-1.0
5553,26208,-5372,9332,-1.00,-1.0
5557,19356,6140,5012,-1.00,-1.0
5559,18916,1256,-2648,-1.00,-1.0
5561,13420,-4268,104,-1.00,-1.0
5563,29012,-4404,13084,-1.00,-1.0
5565,15416,-5412,-5392,-1.00,-1.0
5567,13100,-1264,2248,-1.00,-1.0
5568,23704,-144,5928,-1.00,-1.0
5570,16888,-6112,-368,-1.00,-1.0
5572,10636,1392,-6792,-1.00,-1.0
5574,22084,7312,5728,-1.00,-1.0
5576,12020,2720,-8220,-1.00,-1.0
5578,26612,584,19324,-1.00,-1.0
5580,17680,-4880,-6804,-1.00,-1.0
5582,4668,4412,-1784,-1.00,-1.0
5584,20976,4380,3696,-1.00,-1.0
5586,24772,792,5828,-1.00,-1.0
5590,17084,9812,740,-1.00,-1.0
5592,14488,2004,-5260,-1.00,-1.0
5594,14272,632,-2980,-1.00,-1.0
5596,28908,-6576,13408,-1.00,-1.0
5598,17228,-6100,-584,-1.00,-1.0
5600,11220,3440,644,-1.00,-1.0
5602,23144,884,4992,-1.00,-1.0
5604,18176,-9180,-2580,-1.00,-1.0
5606,14296,4384,-1984,-1.00,-1.0
5608,19820,7756,-964,-1.00,-1.0
5610,10360,-1620,-7460,-1.00,-1.0
5611,18340,7920,5764,-1.00,-1.0
5614,22640,1180,3736,-1.00,-1.0
5616,9180,-4792,-3168,-1.00,-1.0
5617,17936,5388,5088,-1.00,-1.0
5619,21752,-384,432,-1.00,-1.0
5623,22844,4004,6168,-1.00,-1.0
5625,15960,968,-7900,-1.00,-1.0
5627,14864,808,-348,-1.00,-1.0
5629,24020,-1704,4640,-1.00,-1.0
5631,13184,-3848,-2572,-1.00,-1.0
5633,12856,4644,-1836,-1.00,-1.0
5635,23780,1496,7076,-1.00,-1.0
5637,17888,-8312,-956,-1.00,-1.0
5639,17368,5484,184,-1.00,-1.0
5641,16724,6052,-3392,-1.00,-1.0
5643,16400,-1136,1552,-1.00,-1.0
5645,23376,-3772,10264,-1.00,-1.0
5647,20960,-5008,-1580,-1.00,-1.0
5649,9932,5340,836,-1.00,-1.0
5651,21216,3452,4264,-1.00,-1.0
5653,22288,-10532,4256,-1.00,-1.0
5657,16824,6972,2736,-1.00,-1.0
5659,16284,-2372,-3360,-1.00,-1.0
5661,10240,1220,-2580,-1.00,-1.0
5663,21248,-2288,6332,-1.00,-1.0
5665,12960,-6188,-2804,-1.00,-1.0
5667,13132,4472,3140,-1.00,-1.0
5669,23216,756,2172,-1.00,-1.0
5671,18556,-8892,2044,-1.00,-1.0
5673,16948,7784,-5900,-1.00,-1.0
5674,20868,5148,1952,-1.00,-1.0
5676,8624,416,-6636,-1.00,-1.0
5678,22832,-1156,16140,-1.00,-1.0
5680,16804,-7092,-2044,-1.00,-1.0
5682,6956,1136,-6032,-1.00,-1.0
5684,22504,1960,5568,-1.00,-1.0
5688,10208,2012,-6280,-1.00,-1.0
5690,19040,10692,1740,-1.00,-1.0
5692,14548,3340,-8408,-1.00,-1.0
5694,28984,-4836,18292,-1.00,-1.0
5696,20652,-5728,-424,-1.00,-1.0
5698,8304,4452,-1944,-1.00,-1.0
5700,19732,3592,-12,-1.00,-1.0
5702,21000,-10272,2236,-1.00,-1.0
5704,9524,-1780,-3948,-1.00,-1.0
5706,15880,9732,-2316,-1.00,-1.0
5708,19220,4652,-1908,-1.00,-1.0
5710,12600,2172,-3428,-1.00,-1.0
5712,23552,-7660,7928,-1.00,-1.0
5714,15512,-6092,2064,-1.00,-1.0
5716,10276,7872,-732,-1.00,-1.0
5718,22252,1828,1688,-1.00,-1.0
5722,12536,6164,-5144,-1.00,-1.0
5724,19484,11460,496,-1.00,-1.0
5726,10392,1656,-10024,-1.00,-1.0
5728,27008,-5364,21952,-1.00,-1.0
5730,20404,-5660,2164,-1.00,-1.0
5732,5704,3816,-5460,-1.00,-1.0
5733,21296,2840,1564,-1.00,-1.0
5735,23888,-10300,3492,-1.00,-1.0
5737,10248,-3644,-5700,-1.00,-1.0
5739,14844,10628,-452,-1.00,-1.0
5741,17056,4612,-7012,-1.00,-1.0
5743,23504,-872,8948,-1.00,-1.0
5745,16528,-940,-8692,-1.00,-1.0
5747,11108,4232,3212,-1.00,-1.0
5749,17780,7136,4976,-1.00,-1.0
5753,11320,-3120,-5280,-1.00,-1.0
5755,16920,9420,232,-1.00,-1.0
5757,14260,2504,-7156,-1.00,-1.0
5759,18968,396,4652,-1.00,-1.0
5761,18872,-6064,1240,-1.00,-1.0
5763,7136,-1700,-5992,-1.00,-1.0
5765,19000,5316,9400,-1.00,-1.0
5767,21372,2060,7176,-1.00,-1.0
5769,14084,-8536,-2408,-1.00,-1.0
5771,18156,7444,2948,-1.00,-1.0
5773,17144,10636,-1548,-1.00,-1.0
5775,11784,484,-7800,-1.00,-1.0
5777,23288,616,12348,-1.00,-1.0
5779,19808,-1812,-7608,-1.00,-1.0
5781,8712,1184,-3808,-1.00,-1.0
5782,20420,4672,8344,-1.00,-1.0
5787,8608,-4832,-7460,-1.00,-1.0
5789,18480,6448,7696,-1.00,-1.0
5790,17432,-1800,-3920,-1.00,-1.0
5792,9516,248,-5252,-1.00,-1.0
5794,23992,-1196,7452,-1.00,-1.0
5796,17248,-7692,4956,-1.00,-1.0
5798,8644,4384,-7008,-1.00,-1.0
5800,22032,3000,5708,-1.00,-1.0
5802,21736,-10720,4420,-1.00,-1.0
5804,13488,3348,-1144,-1.00,-1.0
5806,19972,7792,-268,-1.00,-1.0
5808,9344,532,-8688,-1.00,-1.0
5810,27764,-5132,18648,-1.00,-1.0
5812,20888,-7888,3672,-1.00,-1.0
5814,8392,-2884,-6004,-1.00,-1.0
5816,16616,4328,9268,-1.00,-1.0
5820,13772,-8216,-3376,-1.00,-1.0
5822,13488,6072,-3540,-1.00,-1.0
5823,17112,6752,888,-1.00,-1.0
5825,18084,2104,432,-1.00,-1.0
5827,20756,-5180,1936,-1.00,-1.0
5829,14032,-2364,24,-1.00,-1.0
5831,12972,7308,1672,-1.00,-1.0
5833,20200,-644,-352,-1.00,-1.0
5835,18680,-10656,4184,-1.00,-1.0
5837,17908,6720,-1168,-1.00,-1.0
5839,19688,6184,-4860,-1.00,-1.0
5841,12624,-2300,-6200,-1.00,-1.0
5843,28876,-3684,20424,-1.00,-1.0
5845,16076,-2116,-4352,-1.00,-1.0
5847,5720,3736,-7748,-1.00,-1.0
5851,21972,-8572,3136,-1.00,-1.0
5853,8680,664,-7032,-1.00,-1.0
5855,17940,9432,-2336,-1.00,-1.0
5857,16688,-1016,-560,-1.00,-1.0
5859,25384,-2228,9068,-1.00,-1.0
5861,20328,-2652,-2948,-1.00,-1.0
5863,14964,-4676,1488,-1.00,-1.0
5865,9872,7316,-5132,-1.00,-1.0
5867,22040,60,916,-1.00,-1.0
5869,22500,-11748,6960,-1.00,-1.0
5871,12332,4140,-3180,-1.00,-1.0
5872,18976,7692,-488,-1.00,-1.0
5875,15096,-4804,-1228,-1.00,-1.0
5877,22336,-2636,10724,-1.00,-1.0
5878,18584,-952,-2908,-1.00,-1.0
5880,8920,2996,-5872,-1.00,-1.0
5885,20104,-5868,5180,-1.00,-1.0
5887,8032,1716,-9592,-1.00,-1.0
5888,20788,6072,3872,-1.00,-1.0
5890,16816,-3084,-1800,-1.00,-1.0
5892,24572,-1084,10844,-1.00,-1.0
5894,21000,-2976,-6224,-1.00,-1.0
5896,10584,-2296,792,-1.00,-1.0
5898,21800,720,12112,-1.00,-1.0
5900,18832,-2308,-1244,-1.00,-1.0
5902,7056,-3300,-9720,-1.00,-1.0
5904,19204,4556,5648,-1.00,-1.0
5906,17908,-280,-4652,-1.00,-1.0
5908,16092,620,-4240,-1.00,-1.0
5910,22592,-1748,6180,-1.00,-1.0
5912,14648,-2552,1380,-1.00,-1.0
5914,8668,4104,-5548,-1.00,-1.0
5918,12888,-2884,-884,-1.00,-1.0
5920,19752,652,7976,-1.00,-1.0
5922,12080,4136,-9220,-1.00,-1.0
5924,19308,516,1640,-1.00,-1.0
5926,25288,-7320,12152,-1.00,-1.0
5928,12932,-2768,-4768,-1.00,-1.0
5930,9888,4992,-1064,-1.00,-1.0
5931,20060,1204,8792,-1.00,-1.0
5934,17072,-5608,-2088,-1.00,-1.0
5936,9984,2980,-5224,-1.00,-1.0
5937,21480,3468,6676,-1.00,-1.0
5939,14624,-3884,-4800,-1.00,-1.0
5941,17760,5276,2336,-1.00,-1.0
5943,21724,-768,-1976,-1.00,-1.0
5945,12432,-3576,368,-1.00,-1.0
5949,20104,60,812,-1.00,-1.0
5951,11316,-5124,-6292,-1.00,-1.0
5953,22832,-1004,12712,-1.00,-1.0
5955,14144,532,-9204,-1.00,-1.0
5957,16064,-1128,-1696,-1.00,-1.0
5959,23980,-6772,9268,-1.00,-1.0
5961,10128,-256,-5056,-1.00,-1.0
5963,18124,3428,5964,-1.00,-1.0
5965,21976,-5012,2204,-1.00,-1.0
5967,10960,-624,-3684,-1.00,-1.0
5969,20832,2704,8160,-1.00,-1.0
5971,15300,-2116,-4416,-1.00,-1.0
5973,13188,1636,-1916,-1.00,-1.0
5975,24116,-2772,10788,-1.00,-1.0
5977,18320,-1496,-3092,-1.00,-1.0
5979,11192,2772,300,-1.00,-1.0
5983,12904,-1752,-2980,-1.00,-1.0
5985,19332,1112,5084,-1.00,-1.0
5987,17120,8,-2196,-1.00,-1.0
5989,11772,2624,-8884,-1.00,-1.0
5991,22092,692,10480,-1.00,-1.0
5993,18444,-4084,-3608,-1.00,-1.0
5994,9040,5016,-3300,-1.00,-1.0
5996,21080,2760,8444,-1.00,-1.0
5998,17376,-4592,-1760,-1.00,-1.0
6000,14236,-1632,-1008,-1.00,-1.0
6002,18076,2596,984,-1.00,-1.0
6004,12908,2048,-8200,-1.00,-1.0
6006,20872,1268,4552,-1.00,-1.0
6008,20864,-3224,1500,-1.00,-1.0
6010,12808,3884,-412,-1.00,-1.0
6012,19800,3336,7528,-1.00,-1.0
6016,16740,588,1352,-1.00,-1.0
6018,19364,2452,996,-1.00,-1.0
6020,12360,-2108,-7012,-1.00,-1.0
6022,19384,4300,3512,-1.00,-1.0
6024,24196,-428,4716,-1.00,-1.0
6026,10288,-1332,-6288,-1.00,-1.0
6028,20256,1376,10628,-1.00,-1.0
6030,17156,-1020,-3084,-1.00,-1.0
6032,10252,872,-4916,-1.00,-1.0
6034,20812,-1892,10068,-1.00,-1.0
6036,14576,-1556,-5656,-1.00,-1.0
6038,17668,3804,2612,-1.00,-1.0
6040,22788,-1140,2384,-1.00,-1.0
6042,15748,-1908,-4272,-1.00,-1.0
6043,13328,4224,-6372,-1.00,-1.0
6048,13264,-2156,-6064,-1.00,-1.0
6050,21636,44,14016,-1.00,-1.0
6051,19308,-1620,-2852,-1.00,-1.0
6053,7064,708,-8644,-1.00,-1.0
6055,23732,-3428,12776,-1.00,-1.0
6057,17732,-4400,-3364,-1.00,-1.0
6059,13704,3696,-6120,-1.00,-1.0
6061,20548,32,4464,-1.00,-1.0
6063,15840,-5452,-1676,-1.00,-1.0
6065,18516,316,7196,-1.00,-1.0
6067,16440,4036,-4172,-1.00,-1.0
6069,10932,-60,-6012,-1.00,-1.0
6071,23940,-3276,14628,-1.00,-1.0
6073,17332,1648,-5860,-1.00,-1.0
6075,13268,2440,-1864,-1.00,-1.0
6077,21276,-2096,8976,-1.00,-1.0
6081,16956,2036,-1536,-1.00,-1.0
6083,19736,-1776,4008,-1.00,-1.0
6084,17004,-2236,2440,-1.00,-1.0
6086,13984,1192,-112,-1.00,-1.0
6088,15732,904,1652,-1.00,-1.0
6090,11332,2812,-12340,-1.00,-1.0
6092,20536,-240,10060,-1.00,-1.0
6094,19932,-1072,-3800,-1.00,-1.0
6096,19344,676,940,-1.00,-1.0
6098,20656,-1808,2700,-1.00,-1.0
6100,18908,-2852,4212,-1.00,-1.0
6102,15920,-2132,-2364,-1.00,-1.0
6104,15772,3140,-1252,-1.00,-1.0
6106,18500,364,-2208,-1.00,-1.0
6108,18584,-1260,5844,-1.00,-1.0
6110,16308,1992,-3952,-1.00,-1.0
6114,17016,-1636,1692,-1.00,-1.0
6116,16724,708,812,-1.00,-1.0
6118,16088,1064,-132,-1.00,-1.0
6120,16792,-276,1812,-1.00,-1.0
6122,17288,-1232,1068,-1.00,-1.0
6124,16568,-200,944,-1.00,-1.0
6126,16780,320,-120,-1.00,-1.0
6127,17408,-120,-256,-1.00,-1.0
6130,16896,-104,1328,-1.00,-1.0
6132,17280,576,392,-1.00,-1.0
6133,17024,-384,616,-1.00,-1.0
6135,16884,-384,1044,-1.00,-1.0
6137,17048,-156,-256,-1.00,-1.0
6139,17204,208,840,-1.00,-1.0
6141,17060,40,1200,-1.00,-1.0
6143,17324,-36,832,-1.00,-1.0
6147,16776,-36,564,-1.00,-1.0
6149,17024,-76,204,-1.00,-1.0
6151,17068,-72,904,-1.00,-1.0
6153,17032,-388,376,-1.00,-1.0
6155,16992,-72,248,-1.00,-1.0
6157,17060,-136,824,-1.00,-1.0
6159,17032,-508,416,-1.00,-1.0
6161,16792,-252,236,-1.00,-1.0
6163,16884,-408,924,-1.00,-1.0
6165,17148,-176,376,-1.00,-1.0
6167,16988,-200,952,-1.00,-1.0
6169,16920,148,376,-1.00,-1.0
6171,17084,24,208,-1.00,-1.0
6173,17104,-292,876,-1.00,-1.0
6175,16992,-88,412,-1.00,-1.0
6176,17012,-72,448,-1.00,-1.0
6178,17192,-324,1092,-1.00,-1.0
6183,16948,-296,832,-1.00,-1.0
6185,17112,56,748,-1.00,-1.0
6186,17004,96,392,-1.00,-1.0
6188,16976,-88,488,-1.00,-1.0
6190,17044,-276,764,-1.00,-1.0
6192,17092,12,580,-1.00,-1.0
6194,16828,88,624,-1.00,-1.0
6196,16972,40,548,-1.00,-1.0
6198,16944,-212,572,-1.00,-1.0
6200,16944,144,860,-1.00,-1.0
6202,17176,172,600,-1.00,-1.0
6204,16940,-36,420,-1.00,-1.0
6206,16924,184,552,-1.00,-1.0
6208,17000,40,564,-1.00,-1.0
6210,17080,-220,1164,-1.00,-1.0
6212,17100,-224,584,-1.00,-1.0
6214,16948,-188,512,-1.00,-1.0
6218,17128,136,372,-1.00,-1.0
6220,16884,240,432,-1.00,-1.0
6222,16944,48,428,-1.00,-1.0
6224,16876,-56,664,-1.00,-1.0
6226,17052,-16,644,-1.00,-1.0
6228,17088,-128,720,-1.00,-1.0
6229,16788,-44,504,-1.00,-1.0
6231,16900,-40,872,-1.00,-1.0
6233,17012,48,736,-1.00,-1.0
6235,17028,96,652,-1.00,-1.0
6237,16984,172,520,-1.00,-1.0
6239,17020,-40,428,-1.00,-1.0
6241,16972,-168,808,-1.00,-1.0
6243,17068,-152,804,-1.00,-1.0
6245,17020,-172,684,-1.00,-1.0
6247,16980,-128,424,-1.00,-1.0
6249,16884,-100,332,-1.00,-1.0
6253,17088,152,740,-1.00,-1.0
6255,16932,-144,540,-1.00,-1.0
6257,16932,-48,648,-1.00,-1.0
6259,17048,-24,668,-1.00,-1.0
6261,17000,-176,632,-1.00,-1.0
6263,16792,60,684,-1.00,-1.0
6265,16960,-36,504,-1.00,-1.0
6267,16932,-40,652,-1.00,-1.0
6269,16992,-44,828,-1.00,-1.0
6271,16924,32,520,-1.00,-1.0
6272,16940,36,548,-1.00,-1.0
6274,16940,-152,608,-1.00,-1.0
6276,16960,-60,576,-1.00,-1.0
6278,17060,-144,632,-1.00,-1.0
6280,17020,-108,444,-1.00,-1.0
6282,17012,12,736,-1.00,-1.0
6284,17008,72,476,-1.00,-1.0
6288,16940,-32,652,-1.00,-1.0
6290,16984,20,584,-1.00,-1.0
6292,17060,-32,580,-1.00,-1.0
6294,16972,-28,564,-1.00,-1.0
6296,16940,36,716,-1.00,-1.0
6298,16988,-4,736,-1.00,-1.0
6300,17004,28,584,-1.00,-1.0
6302,16920,-36,660,-1.00,-1.0
6304,16852,-52,704,-1.00,-1.0
6306,17096,48,544,-1.00,-1.0
6308,16996,-100,616,-1.00,-1.0
6310,16940,-8,516,-1.00,-1.0
6311,16984,20,644,-1.00,-1.0
6313,16844,4,764,-1.00,-1.0
6315,16960,-88,644,-1.00,-1.0
6317,16976,-52,372,-1.00,-1.0
6319,16848,-80,520,-1.00,-1.0
6325,17000,-20,668,-1.00,-1.0
6327,16904,-188,668,-1.00,-1.0
6329,17024,-124,784,-1.00,-1.0
6331,17060,88,632,-1.00,-1.0
6333,17152,-16,644,-1.00,-1.0
6335,17012,8,492,-1.00,-1.0
6337,16940,48,536,-1.00,-1.0
6339,16996,0,544,-1.00,-1.0
6341,17044,-116,556,-1.00,-1.0
6343,17040,-40,620,-1.00,-1.0
6345,16980,-68,484,-1.00,-1.0
6347,16948,-124,716,-1.00,-1.0
6349,17008,-116,752,-1.00,-1.0
6351,17048,-136,596,-1.00,-1.0
6353,16952,-136,568,-1.00,-1.0
6355,16972,-68,548,-1.00,-1.0
6356,17012,28,604,-1.00,-1.0
6360,16928,-24,588,-1.00,-1.0
6362,16984,-40,704,-1.00,-1.0
6364,16976,-28,760,-1.00,-1.0
6366,17004,52,668,-1.00,-1.0
6368,17080,0,540,-1.00,-1.0
6370,17060,-48,596,-1.00,-1.0
6372,17004,-80,608,-1.00,-1.0
6374,17072,-124,608,-1.00,-1.0
6376,17000,-32,520,-1.00,-1.0
6378,17000,32,640,-1.00,-1.0
6380,16912,-112,596,-1.00,-1.0
6382,17052,-60,636,-1.00,-1.0
6384,16968,84,592,-1.00,-1.0
6386,16872,32,452,-1.00,-1.0
6388,16948,48,528,-1.00,-1.0
6390,17024,20,612,-1.00,-1.0
6392,16944,-100,548,-1.00,-1.0
6396,16908,-52,660,-1.00,-1.0
6398,17008,-16,616,-1.00,-1.0
6400,17056,-116,704,-1.00,-1.0
6401,17044,-12,612,-1.00,-1.0
6403,17016,-4,424,-1.00,-1.0
6405,17108,-124,620,-1.00,-1.0
6407,16956,-52,604,-1.00,-1.0
6409,16964,4,660,-1.00,-1.0
6411,17008,0,684,-1.00,-1.0
6413,16996,16,768,-1.00,-1.0
6415,17000,-108,716,-1.00,-1.0
6417,17008,40,564,-1.00,-1.0
6419,16916,0,676,-1.00,-1.0
6421,17076,-48,668,-1.00,-1.0
6423,16948,16,500,-1.00,-1.0
6425,17004,-16,768,-1.00,-1.0
6427,17008,-52,592,-1.00,-1.0
6429,16980,-20,524,-1.00,-1.0
6433,16968,-76,632,-1.00,-1.0
6435,17020,-92,708,-1.00,-1.0
6437,17076,128,628,-1.00,-1.0
6439,16912,-100,572,-1.00,-1.0
6441,17032,-168,720,-1.00,-1.0
6443,17072,-52,632,-1.00,-1.0
6445,17064,-48,608,-1.00,-1.0
6446,16960,-12,612,-1.00,-1.0
6449,16944,-56,652,-1.00,-1.0
6450,17028,-24,712,-1.00,-1.0
6452,17048,-84,444,-1.00,-1.0
6454,16964,-40,488,-1.00,-1.0
6456,16884,44,600,-1.00,-1.0
6458,17040,72,528,-1.00,-1.0
6460,16956,112,620,-1.00,-1.0
6462,16956,-28,612,-1.00,-1.0
6464,17020,-48,648,-1.00,-1.0
6468,16872,60,620,-1.00,-1.0
6470,16964,60,628,-1.00,-1.0
6472,16964,72,568,-1.00,-1.0
6474,16976,56,344,-1.00,-1.0
6476,17024,132,572,-1.00,-1.0
6478,16996,-32,568,-1.00,-1.0
6480,17020,-172,508,-1.00,-1.0
6482,16808,-28,444,-1.00,-1.0
6484,16912,28,528,-1.00,-1.0
6486,16984,20,476,-1.00,-1.0
6488,16964,-100,656,-1.00,-1.0
6490,17056,-136,500,-1.00,-1.0
6491,16992,-52,600,-1.00,-1.0
6493,16984,-72,780,-1.00,-1.0
6495,17104,12,704,-1.00,-1.0
6497,16912,32,544,-1.00,-1.0
6499,17068,-80,528,-1.00,-1.0
6503,17032,56,676,-1.00,-1.0
6505,16944,140,704,-1.00,-1.0
6507,16888,-72,608,-1.00,-1.0
6509,16932,40,556,-1.00,-1.0
6511,16968,28,608,-1.00,-1.0
6513,16932,-36,716,-1.00,-1.0
6515,16948,-4,620,-1.00,-1.0
6517,16956,28,600,-1.00,-1.0
6519,16988,-108,620,-1.00,-1.0
6521,17036,-52,660,-1.00,-1.0
6523,16924,-8,756,-1.00,-1.0
6525,16980,-40,608,-1.00,-1.0
6527,17068,-68,548,-1.00,-1.0
6529,16984,-108,480,-1.00,-1.0
6531,16972,-128,664,-1.00,-1.0
6533,17040,-56,548,-1.00,-1.0
6534,17024,-40,636,-1.00,-1.0
6539,17020,-80,712,-1.00,-1.0
6541,16984,-84,536,-1.00,-1.0
6542,16960,-8,544,-1.00,-1.0
6544,16892,-44,596,-1.00,-1.0
6546,17052,32,628,-1.00,-1.0
6548,17060,-36,464,-1.00,-1.0
6550,16968,-96,388,-1.00,-1.0
6552,16968,-28,512,-1.00,-1.0
6554,16952,-60,624,-1.00,-1.0
6556,16932,-80,532,-1.00,-1.0
6558,16984,8,656,-1.00,-1.0
6560,17048,-8,672,-1.00,-1.0
6562,16924,-84,596,-1.00,-1.0
6564,17036,-32,620,-1.00,-1.0
6566,16908,-60,600,-1.00,-1.0
6568,17104,8,648,-1.00,-1.0
6570,16948,24,708,-1.00,-1.0
6575,17056,-120,576,-1.00,-1.0
6577,16944,8,576,-1.00,-1.0
6579,16924,-32,632,-1.00,-1.0
6581,17044,12,552,-1.00,-1.0
6583,16992,0,540,-1.00,-1.0
6585,16896,-88,632,-1.00,-1.0
6587,17008,-84,620,-1.00,-1.0
6589,16992,-56,576,-1.00,-1.0
6591,16936,-128,620,-1.00,-1.0
6593,17060,-48,548,-1.00,-1.0
6595,16984,-124,496,-1.00,-1.0
6597,17004,-120,496,-1.00,-1.0
6599,17008,-92,640,-1.00,-1.0
6601,17068,-76,504,-1.00,-1.0
6603,16944,-84,420,-1.00,-1.0
6605,16980,-48,588,-1.00,-1.0
6606,17012,-52,548,-1.00,-1.0
6608,16960,-40,600,-1.00,-1.0
6612,16928,-136,680,-1.00,-1.0
6614,16980,16,524,-1.00,-1.0
6616,16964,-80,592,-1.00,-1.0
6618,16952,40,636,-1.00,-1.0
6620,16936,112,596,-1.00,-1.0
6622,16912,-28,572,-1.00,-1.0
6624,16912,-72,584,-1.00,-1.0
6626,17052,4,608,-1.00,-1.0
6628,17004,20,640,-1.00,-1.0
6630,16924,-64,676,-1.00,-1.0
6632,16980,-40,568,-1.00,-1.0
6634,16928,28,564,-1.00,-1.0
6636,16992,-48,484,-1.00,-1.0
6638,16948,-8,504,-1.00,-1.0
6640,17056,-104,572,-1.00,-1.0
6642,17032,-60,516,-1.00,-1.0
6643,17044,12,652,-1.00,-1.0
6648,16996,-76,712,-1.00,-1.0
6650,16936,0,536,-1.00,-1.0
6651,17044,-40,512,-1.00,-1.0
6653,16912,-12,524,-1.00,-1.0
6655,16980,-160,648,-1.00,-1.0
6657,17028,-64,576,-1.00,-1.0
6659,16980,-96,564,-1.00,-1.0
6661,16988,-20,504,-1.00,-1.0
6663,16992,-32,656,-1.00,-1.0
6665,16928,-116,548,-1.00,-1.0
6667,17024,-148,508,-1.00,-1.0
6669,17000,-56,612,-1.00,-1.0
6671,16972,-92,628,-1.00,-1.0
6673,17044,-32,644,-1.00,-1.0
6675,17080,16,576,-1.00,-1.0
6677,16988,-64,504,-1.00,-1.0
6679,17008,-44,512,-1.00,-1.0
6683,16996,-156,704,-1.00,-1.0
6685,16928,-76,496,-1.00,-1.0
6687,16956,4,604,-1.00,-1.0
6689,16940,-36,536,-1.00,-1.0
6691,17096,-8,448,-1.00,-1.0
6693,16984,-16,596,-1.00,-1.0
6694,17020,8,668,-1.00,-1.0
6696,17032,-16,644,-1.00,-1.0
6698,16960,-132,516,-1.00,-1.0
6700,16972,-196,516,-1.00,-1.0
6702,16932,-100,712,-1.00,-1.0
6704,16996,-16,496,-1.00,-1.0
6706,16956,-64,608,-1.00,-1.0
6708,17044,-92,472,-1.00,-1.0
6710,17032,72,508,-1.00,-1.0
6712,16968,-48,624,-1.00,-1.0
6714,17048,48,568,-1.00,-1.0
6718,17020,-16,696,-1.00,-1.0
6720,17004,-20,636,-1.00,-1.0
6722,17032,4,588,-1.00,-1.0
6724,17056,-28,716,-1.00,-1.0
6726,17052,-16,608,-1.00,-1.0
6728,17004,36,516,-1.00,-1.0
6730,17076,-48,604,-1.00,-1.0
6732,16984,-112,604,-1.00,-1.0
6733,17048,-76,656,-1.00,-1.0
6736,17072,-104,632,-1.00,-1.0
6738,16984,28,504,-1.00,-1.0
6739,16984,16,552,-1.00,-1.0
6741,17024,-8,608,-1.00,-1.0
6743,17004,-8,612,-1.00,-1.0
6745,17044,-112,556,-1.00,-1.0
6747,17036,-32,628,-1.00,-1.0
6749,16856,48,468,-1.00,-1.0
6753,16928,-68,564,-1.00,-1.0
6755,17072,-96,564,-1.00,-1.0
6757,16988,-196,564,-1.00,-1.0
6759,16964,-84,572,-1.00,-1.0
6761,17032,-100,676,-1.00,-1.0
6763,17020,12,616,-1.00,-1.0
6765,17012,4,724,-1.00,-1.0
6767,16992,16,532,-1.00,-1.0
6769,16932,-40,568,-1.00,-1.0
6771,17000,-16,564,-1.00,-1.0
6773,16980,-44,564,-1.00,-1.0
6775,16976,-156,528,-1.00,-1.0
6777,16912,-144,592,-1.00,-1.0
6779,17032,-24,484,-1.00,-1.0
6781,16992,-20,608,-1.00,-1.0
6782,17088,-24,556,-1.00,-1.0
6784,16948,0,580,-1.00,-1.0
6789,16976,-44,636,-1.00,-1.0
6791,17012,-24,564,-1.00,-1.0
6792,16948,-24,608,-1.00,-1.0
6794,17068,-28,736,-1.00,-1.0
6796,17052,-36,716,-1.00,-1.0
6798,16992,-120,536,-1.00,-1.0
6800,16976,-44,676,-1.00,-1.0
6802,16976,-32,496,-1.00,-1.0
6804,17004,12,436,-1.00,-1.0
6806,17028,-48,656,-1.00,-1.0
6808,17032,60,572,-1.00,-1.0
6810,17036,48,640,-1.00,-1.0
6812,17060,-44,652,-1.00,-1.0
6814,16932,-76,592,-1.00,-1.0
6816,16924,-44,604,-1.00,-1.0
6818,16976,-16,724,-1.00,-1.0
6820,16976,4,352,-1.00,-1.0
6821,17028,0,672,-1.00,-1.0
6826,16988,-64,652,-1.00,-1.0
6828,17000,-72,408,-1.00,-1.0
6830,16964,-24,548,-1.00,-1.0
6831,17000,4,696,-1.00,-1.0
6833,17020,16,636,-1.00,-1.0
6835,17024,-132,564,-1.00,-1.0
6837,17012,-44,580,-1.00,-1.0
6839,16964,-40,548,-1.00,-1.0
6841,17012,16,728,-1.00,-1.0
6843,17068,-60,680,-1.00,-1.0
6845,16904,-32,580,-1.00,-1.0
6847,17016,-60,564,-1.00,-1.0
6849,16964,-40,456,-1.00,-1.0
6851,17008,-60,504,-1.00,-1.0
6853,16984,32,596,-1.00,-1.0
6855,17024,36,592,-1.00,-1.0
6857,16996,-80,616,-1.00,-1.0
6861,16880,-124,568,-1.00,-1.0
6863,16932,-36,516,-1.00,-1.0
6865,16924,-44,684,-1.00,-1.0
6867,17068,-76,516,-1.00,-1.0
6869,16992,-24,416,-1.00,-1.0
6871,17044,48,628,-1.00,-1.0
6873,16976,-164,644,-1.00,-1.0
6874,17048,-16,500,-1.00,-1.0
6877,17012,64,472,-1.00,-1.0
6878,17056,-16,556,-1.00,-1.0
6880,16968,-32,592,-1.00,-1.0
6882,17080,-108,796,-1.00,-1.0
6884,17012,-52,608,-1.00,-1.0
6886,16916,-60,544,-1.00,-1.0
6888,17104,-80,472,-1.00,-1.0
6890,16932,-112,544,-1.00,-1.0
6892,17112,8,588,-1.00,-1.0
6896,17000,12,644,-1.00,-1.0
6898,17008,20,624,-1.00,-1.0
6900,16972,12,556,-1.00,-1.0
6902,16904,44,548,-1.00,-1.0
6904,16992,-104,672,-1.00,-1.0
6906,16988,-20,540,-1.00,-1.0
6908,17104,0,572,-1.00,-1.0
6910,17008,8,624,-1.00,-1.0
6911,17036,-124,612,-1.00,-1.0
6913,17032,-36,548,-1.00,-1.0
6915,17116,36,580,-1.00,-1.0
6917,16824,-16,580,-1.00,-1.0
6919,16984,-40,708,-1.00,-1.0
6921,17052,-76,636,-1.00,-1.0
6923,17124,36,484,-1.00,-1.0
6925,17004,-4,644,-1.00,-1.0
6927,16928,-48,636,-1.00,-1.0
6931,16940,-12,712,-1.00,-1.0
6933,16976,48,432,-1.00,-1.0
6935,17028,-60,536,-1.00,-1.0
6937,16976,-80,624,-1.00,-1.0
6939,16968,-16,676,-1.00,-1.0
6941,17088,-56,612,-1.00,-1.0
6943,17040,-68,572,-1.00,-1.0
6945,16976,12,500,-1.00,-1.0
6946,17020,8,640,-1.00,-1.0
6949,17052,-124,576,-1.00,-1.0
6951,17036,20,576,-1.00,-1.0
6952,16924,12,572,-1.00,-1.0
6954,17008,-12,604,-1.00,-1.0
6956,17000,-80,572,-1.00,-1.0
6958,17016,-84,496,-1.00,-1.0
6960,17016,-40,608,-1.00,-1.0
6962,16876,-4,624,-1.00,-1.0
6964,17036,-12,644,-1.00,-1.0
6968,17080,-96,520,-1.00,-1.0
6970,16988,-8,556,-1.00,-1.0
6972,16996,-64,508,-1.00,-1.0
6974,16940,-16,568,-1.00,-1.0
6976,16928,-8,616,-1.00,-1.0
6978,16948,-64,616,-1.00,-1.0
6980,17068,-56,576,-1.00,-1.0
6982,16952,-76,528,-1.00,-1.0
6984,16872,-116,692,-1.00,-1.0
6986,16944,8,652,-1.00,-1.0
6988,17044,32,564,-1.00,-1.0
6990,17024,-64,552,-1.00,-1.0
6991,17032,8,636,-1.00,-1.0
6993,16968,-40,496,-1.00,-1.0
6995,16948,-80,616,-1.00,-1.0
6997,16976,-152,456,-1.00,-1.0
6999,17000,-48,612,-1.00,-1.0
7003,16956,-12,772,-1.00,-1.0
7005,16956,72,580,-1.00,-1.0
7007,17036,-20,628,-1.00,-1.0
7009,16972,-16,484,-1.00,-1.0
7011,17060,-88,572,-1.00,-1.0
7013,16980,28,460,-1.00,-1.0
7015,16944,-28,724,-1.00,-1.0
7017,16992,12,676,-1.00,-1.0
7019,16956,-68,580,-1.00,-1.0
7021,17052,-120,612,-1.00,-1.0
7023,17016,-100,616,-1.00,-1.0
7025,17004,-8,624,-1.00,-1.0
7027,16992,-48,556,-1.00,-1.0
7029,17132,60,584,-1.00,-1.0
7031,16984,-120,724,-1.00,-1.0
7033,17060,-76,772,-1.00,-1.0
7034,17064,-76,656,-1.00,-1.0
7039,17056,-88,636,-1.00,-1.0
7041,16996,-84,492,-1.00,-1.0
7043,17032,24,620,-1.00,-1.0
7044,16980,52,696,-1.00,-1.0
7046,17020,-72,692,-1.00,-1.0
7048,16972,-72,648,-1.00,-1.0
7050,17008,44,588,-1.00,-1.0
7052,17004,-16,600,-1.00,-1.0
7054,16920,-8,628,-1.00,-1.0
7056,17000,60,616,-1.00,-1.0
7058,17076,-60,716,-1.00,-1.0
7060,17072,-36,692,-1.00,-1.0
7062,17088,88,584,-1.00,-1.0
7064,16980,-124,572,-1.00,-1.0
7066,16980,-84,632,-1.00,-1.0
7068,17032,-28,548,-1.00,-1.0
7070,17116,-64,600,-1.00,-1.0
7074,17040,-28,700,-1.00,-1.0
7076,16976,-32,532,-1.00,-1.0
7078,17008,-8,588,-1.00,-1.0
7080,16980,36,592,-1.00,-1.0
7082,16936,24,756,-1.00,-1.0
7084,17020,36,584,-1.00,-1.0
7086,17040,-28,676,-1.00,-1.0
7087,16980,20,580,-1.00,-1.0
7089,16980,-36,580,-1.00,-1.0
7091,16904,-88,548,-1.00,-1.0
7093,17004,36,636,-1.00,-1.0
7095,16900,-84,704,-1.00,-1.0
7097,16900,84,416,-1.00,-1.0
7099,17000,-40,548,-1.00,-1.0
7101,16976,-44,584,-1.00,-1.0
7103,17032,-88,584,-1.00,-1.0
7105,17032,-44,652,-1.00,-1.0
7107,16984,-84,688,-1.00,-1.0
7111,17032,12,628,-1.00,-1.0
7113,17056,-12,612,-1.00,-1.0
7115,16984,-92,560,-1.00,-1.0
7117,16920,-64,612,-1.00,-1.0
7119,17072,4,500,-1.00,-1.0
7121,17092,-76,572,-1.00,-1.0
7123,16972,-60,516,-1.00,-1.0
7125,17008,-108,660,-1.00,-1.0
7127,17000,-56,632,-1.00,-1.0
7129,17032,-124,456,-1.00,-1.0
7131,16976,-4,448,-1.00,-1.0
7132,16916,-48,528,-1.00,-1.0
7135,16996,-60,668,-1.00,-1.0
7137,17076,4,620,-1.00,-1.0
7138,17012,-12,644,-1.00,-1.0
7140,16948,36,488,-1.00,-1.0
7142,16948,16,612,-1.00,-1.0
7146,16960,8,588,-1.00,-1.0
7148,17112,-44,636,-1.00,-1.0
7150,16960,-92,540,-1.00,-1.0
7152,17044,-188,456,-1.00,-1.0
7154,17008,-108,720,-1.00,-1.0
7156,17084,-28,512,-1.00,-1.0
7158,17044,-72,496,-1.00,-1.0
7160,17080,-44,616,-1.00,-1.0
7162,17000,-44,496,-1.00,-1.0
7164,16984,-136,632,-1.00,-1.0
7166,17004,36,596,-1.00,-1.0
7168,16960,32,504,-1.00,-1.0
7170,16952,-28,548,-1.00,-1.0
7172,17028,-64,656,-1.00,-1.0
7174,16920,-72,484,-1.00,-1.0
7176,16944,-76,704,-1.00,-1.0
7177,17060,-68,720,-1.00,-1.0
7181,16944,-88,580,-1.00,-1.0
7183,17024,-48,652,-1.00,-1.0
7185,17012,-64,792,-1.00,-1.0
7187,17036,8,564,-1.00,-1.0
7189,16996,-148,584,-1.00,-1.0
7191,16920,144,596,-1.00,-1.0
7193,17032,-68,640,-1.00,-1.0
7195,16992,-84,540,-1.00,-1.0
7197,16992,-56,748,-1.00,-1.0
7199,16988,-88,684,-1.00,-1.0
7201,16916,-76,588,-1.00,-1.0
7203,17096,-40,628,-1.00,-1.0
7205,17096,56,716,-1.00,-1.0
7207,16988,-64,712,-1.00,-1.0
7209,16988,-56,676,-1.00,-1.0
7211,17072,8,596,-1.00,-1.0
7213,17016,-52,512,-1.00,-1.0
7217,17000,-28,596,-1.00,-1.0
7219,16972,-56,540,-1.00,-1.0
7220,17020,-76,804,-1.00,-1.0
7222,17016,-112,608,-1.00,-1.0
7224,17020,-128,536,-1.00,-1.0
7226,16968,-8,608,-1.00,-1.0
7228,17032,-40,456,-1.00,-1.0
7230,17044,-4,580,-1.00,-1.0
7232,16912,16,460,-1.00,-1.0
7234,16920,4,484,-1.00,-1.0
7236,16976,-64,624,-1.00,-1.0
7238,16920,-88,632,-1.00,-1.0
7240,17000,36,776,-1.00,-1.0
7242,16956,-44,560,-1.00,-1.0
7244,16972,-28,544,-1.00,-1.0
7246,16948,-36,592,-1.00,-1.0
7248,16948,-164,592,-1.00,-1.0
7252,16988,12,640,-1.00,-1.0
7254,17052,-92,592,-1.00,-1.0
7256,17060,-72,748,-1.00,-1.0
7258,17056,-112,656,-1.00,-1.0
7259,17044,-72,664,-1.00,-1.0
7262,16992,-68,740,-1.00,-1.0
7264,17020,16,780,-1.00,-1.0
7265,16952,-60,664,-1.00,-1.0
7267,17040,-164,672,-1.00,-1.0
7269,16992,-4,564,-1.00,-1.0
7271,17080,-16,676,-1.00,-1.0
7273,17008,-76,572,-1.00,-1.0
7275,17008,8,548,-1.00,-1.0
7277,17052,4,604,-1.00,-1.0
7279,16924,-36,540,-1.00,-1.0
7281,17032,-52,428,-1.00,-1.0
7283,16968,-40,616,-1.00,-1.0
7285,17032,-108,676,-1.00,-1.0
7289,16980,-8,720,-1.00,-1.0
7291,16908,-100,620,-1.00,-1.0
7293,16980,0,564,-1.00,-1.0
7295,17028,60,532,-1.00,-1.0
7297,16984,-28,596,-1.00,-1.0
7299,16956,-112,632,-1.00,-1.0
7301,17008,-8,436,-1.00,-1.0
7303,16968,-132,680,-1.00,-1.0
7305,17060,4,796,-1.00,-1.0
7307,16904,-128,544,-1.00,-1.0
7308,16988,-20,552,-1.00,-1.0
7310,16976,20,720,-1.00,-1.0
7312,16972,-60,648,-1.00,-1.0
7314,17048,24,664,-1.00,-1.0
7316,17000,-28,732,-1.00,-1.0
7318,16940,-100,676,-1.00,-1.0
7320,17044,-20,624,-1.00,-1.0
7324,17092,-4,544,-1.00,-1.0
7326,17104,16,572,-1.00,-1.0
7328,17060,-24,504,-1.00,-1.0
7330,17032,-68,612,-1.00,-1.0
7332,17008,0,588,-1.00,-1.0
7334,17040,-12,636,-1.00,-1.0
7336,17076,76,540,-1.00,-1.0
7338,17064,12,660,-1.00,-1.0
7340,16960,40,676,-1.00,-1.0
7342,17036,-80,588,-1.00,-1.0
7344,16912,-104,648,-1.00,-1.0
7346,16924,-140,448,-1.00,-1.0
7347,17004,-140,644,-1.00,-1.0
7349,16976,40,624,-1.00,-1.0
7351,17064,-84,696,-1.00,-1.0
7353,16968,-80,596,-1.00,-1.0
7355,17064,-72,624,-1.00,-1.0
7359,17004,-128,728,-1.00,-1.0
7361,17000,-36,572,-1.00,-1.0
7363,16924,0,612,-1.00,-1.0
7365,16956,28,684,-1.00,-1.0
7367,16984,-80,596,-1.00,-1.0
7369,16988,4,488,-1.00,-1.0
7371,17060,-68,628,-1.00,-1.0
7373,17064,-32,708,-1.00,-1.0
7375,17044,-92,592,-1.00,-1.0
7377,16968,-52,800,-1.00,-1.0
7379,16956,16,660,-1.00,-1.0
7381,17024,-128,596,-1.00,-1.0
7383,16992,64,456,-1.00,-1.0
7385,16976,32,460,-1.00,-1.0
7387,17028,112,588,-1.00,-1.0
7389,16976,-68,752,-1.00,-1.0
7390,17024,-112,676,-1.00,-1.0
7395,17044,48,532,-1.00,-1.0
7397,17048,-108,536,-1.00,-1.0
7399,17036,0,596,-1.00,-1.0
7400,16968,-88,660,-1.00,-1.0
7403,17056,-120,612,-1.00,-1.0
7405,16984,44,560,-1.00,-1.0
7406,16940,8,672,-1.00,-1.0
7408,17044,-36,528,-1.00,-1.0
7410,16976,124,664,-1.00,-1.0
7412,16984,20,612,-1.00,-1.0
7414,16920,-72,588,-1.00,-1.0
7416,17000,-32,432,-1.00,-1.0
7418,16940,-92,576,-1.00,-1.0
7420,17032,-72,412,-1.00,-1.0
7422,16928,16,612,-1.00,-1.0
7424,17060,32,504,-1.00,-1.0
7426,16984,-64,672,-1.00,-1.0
7430,17012,-16,564,-1.00,-1.0
7432,16876,-36,584,-1.00,-1.0
7434,17028,-140,552,-1.00,-1.0
7436,17008,-72,616,-1.00,-1.0
7438,17076,-60,536,-1.00,-1.0
7440,16984,4,540,-1.00,-1.0
7442,16992,-124,632,-1.00,-1.0
7444,16888,-60,572,-1.00,-1.0
7445,16984,-28,432,-1.00,-1.0
7447,17016,36,528,-1.00,-1.0
7449,16948,-80,512,-1.00,-1.0
7451,16976,-164,656,-1.00,-1.0
7453,16956,-72,552,-1.00,-1.0
7455,16984,36,616,-1.00,-1.0
7457,16996,8,540,-1.00,-1.0
7459,17068,-120,532,-1.00,-1.0
7461,17028,16,516,-1.00,-1.0
7463,17028,-76,460,-1.00,-1.0
7469,16964,-12,668,-1.00,-1.0
7471,17040,48,556,-1.00,-1.0
7473,16940,-76,476,-1.00,-1.0
7475,17036,-116,624,-1.00,-1.0
7477,17000,-124,700,-1.00,-1.0
7479,16936,12,624,-1.00,-1.0
7481,16984,-28,584,-1.00,-1.0
7483,17060,-52,664,-1.00,-1.0
7485,17088,-32,580,-1.00,-1.0
7487,16928,-64,644,-1.00,-1.0
7489,16952,28,568,-1.00,-1.0
7490,16996,-16,684,-1.00,-1.0
7493,17032,-52,656,-1.00,-1.0
7495,16964,80,568,-1.00,-1.0
7496,16852,80,500,-1.00,-1.0
7498,16908,12,556,-1.00,-1.0
7500,17072,8,528,-1.00,-1.0
7504,17096,0,652,-1.00,-1.0
7506,17044,-28,548,-1.00,-1.0
7508,16932,-88,760,-1.00,-1.0
7510,17052,4,684,-1.00,-1.0
7512,17004,-36,444,-1.00,-1.0
7514,17024,-72,628,-1.00,-1.0
7516,16944,-24,660,-1.00,-1.0
7518,16984,-4,496,-1.00,-1.0
7520,16912,0,688,-1.00,-1.0
7522,16940,0,536,-1.00,-1.0
7524,17020,-40,444,-1.00,-1.0
7526,16900,-12,512,-1.00,-1.0
7528,17072,-24,656,-1.00,-1.0
7530,17016,84,632,-1.00,-1.0
7532,16996,-72,512,-1.00,-1.0
7533,16984,-16,620,-1.00,-1.0
7535,16876,-64,616,-1.00,-1.0
7540,16968,4,432,-1.00,-1.0
7541,17032,-28,536,-1.00,-1.0
7543,17036,16,620,-1.00,-1.0
7545,16968,-44,608,-1.00,-1.0
7547,16908,68,484,-1.00,-1.0
7549,17016,-172,584,-1.00,-1.0
7551,16996,-56,684,-1.00,-1.0
7553,16988,-44,796,-1.00,-1.0
7555,16956,-136,620,-1.00,-1.0
7557,16992,-48,568,-1.00,-1.0
7559,16932,0,716,-1.00,-1.0
7561,16924,96,532,-1.00,-1.0
7563,17036,-32,532,-1.00,-1.0
7565,17036,-40,840,-1.00,-1.0
7567,16956,-28,684,-1.00,-1.0
7569,16968,32,548,-1.00,-1.0
7571,17148,-88,592,-1.00,-1.0
7572,17048,-12,652,-1.00,-1.0
7577,17072,-112,484,-1.00,-1.0
7579,17052,-16,572,-1.00,-1.0
7581,16940,40,488,-1.00,-1.0
7582,17008,-60,600,-1.00,-1.0
7584,16932,8,504,-1.00,-1.0
7586,17004,-124,572,-1.00,-1.0
7588,16976,-88,552,-1.00,-1.0
7590,17008,-28,612,-1.00,-1.0
7592,16916,-24,528,-1.00,-1.0
7594,17032,-36,636,-1.00,-1.0
7596,17052,-36,620,-1.00,-1.0
7598,16984,-136,696,-1.00,-1.0
7600,16960,68,736,-1.00,-1.0
7602,17044,-80,716,-1.00,-1.0
7604,17036,-64,544,-1.00,-1.0
7606,16932,-132,552,-1.00,-1.0
7608,17052,-64,600,-1.00,-1.0
7612,17008,-4,724,-1.00,-1.0
7614,17072,-24,656,-1.00,-1.0
7616,17012,-32,688,-1.00,-1.0
7618,17036,-24,436,-1.00,-1.0
7620,16976,-96,492,-1.00,-1.0
7622,16960,8,536,-1.00,-1.0
7624,16972,-64,568,-1.00,-1.0
7625,16984,-48,572,-1.00,-1.0
7627,16976,4,584,-1.00,-1.0
7629,16920,-48,544,-1.00,-1.0
7631,16960,-104,616,-1.00,-1.0
7633,17008,-108,532,-1.00,-1.0
7635,16940,-88,568,-1.00,-1.0
7637,16972,0,608,-1.00,-1.0
7639,17000,-16,612,-1.00,-1.0
7641,17044,-28,616,-1.00,-1.0
7643,17000,-32,708,-1.00,-1.0
7647,16984,-12,548,-1.00,-1.0
7649,17100,56,656,-1.00,-1.0
7651,16996,-84,592,-1.00,-1.0
7653,16916,-32,728,-1.00,-1.0
7655,16956,-140,684,-1.00,-1.0
7657,16980,-68,720,-1.00,-1.0
7659,16944,-36,756,-1.00,-1.0
7661,17060,24,676,-1.00,-1.0
7663,17068,4,624,-1.00,-1.0
7665,17020,-24,528,-1.00,-1.0
7667,17048,-52,588,-1.00,-1.0
7668,16956,-60,612,-1.00,-1.0
7670,16908,-24,668,-1.00,-1.0
7672,16960,36,588,-1.00,-1.0
7674,16976,-8,484,-1.00,-1.0
7676,16964,4,580,-1.00,-1.0
7678,16940,16,692,-1.00,-1.0
7682,16984,-40,632,-1.00,-1.0
7684,16984,-132,696,-1.00,-1.0
7686,16964,-148,584,-1.00,-1.0
7688,17004,-76,696,-1.00,-1.0
7690,16996,-108,528,-1.00,-1.0
7692,17080,-60,652,-1.00,-1.0
7694,17024,-40,560,-1.00,-1.0
7696,17052,-76,648,-1.00,-1.0
7698,16964,-104,660,-1.00,-1.0
7700,17060,-16,652,-1.00,-1.0
7702,16964,-112,496,-1.00,-1.0
7704,17048,-44,652,-1.00,-1.0
7706,17032,40,724,-1.00,-1.0
7708,16936,-52,656,-1.00,-1.0
7710,16984,-28,620,-1.00,-1.0
7712,17000,0,724,-1.00,-1.0
7713,16980,-92,680,-1.00,-1.0
7718,17052,-88,608,-1.00,-1.0
7720,16988,-60,604,-1.00,-1.0
7721,16668,-28,336,-1.00,-1.0
7723,18024,-364,2164,-1.00,-1.0
7725,16748,-568,-348,-1.00,-1.0
7727,15808,196,-104,-1.00,-1.0
7729,17660,228,1476,-1.00,-1.0
7731,17488,-832,992,-1.00,-1.0
7733,15976,940,-680,-1.00,-1.0
7735,18016,-156,2084,-1.00,-1.0
7737,16696,-372,-724,-1.00,-1.0
7739,15756,-604,-392,-1.00,-1.0
7741,17960,528,2052,-1.00,-1.0
7743,17728,-284,612,-1.00,-1.0
7745,15780,-904,-808,-1.00,-1.0
7747,18108,320,2020,-1.00,-1.0
7749,17480,-572,224,-1.00,-1.0
7753,17720,376,1892,-1.00,-1.0
7755,17424,-412,676,-1.00,-1.0
7757,15968,-404,-188,-1.00,-1.0
7758,17604,540,1568,-1.00,-1.0
7761,17352,-500,792,-1.00,-1.0
7763,16504,-332,184,-1.00,-1.0
7764,17564,612,1276,-1.00,-1.0
7766,17188,-484,508,-1.00,-1.0
7768,15960,-16,-8,-1.00,-1.0
7770,18288,200,2496,-1.00,-1.0
7772,16864,-1036,-240,-1.00,-1.0
7774,16840,-1280,544,-1.00,-1.0
7776,18056,516,2252,-1.00,-1.0
7778,17652,-976,824,-1.00,-1.0
7780,17052,-1184,676,-1.00,-1.0
7782,16848,372,444,-1.00,-1.0
7786,16996,-548,188,-1.00,-1.0
7788,17056,12,620,-1.00,-1.0
7790,17200,492,1060,-1.00,-1.0
7792,17252,-412,76,-1.00,-1.0
7794,16428,-76,548,-1.00,-1.0
7796,17360,-96,1328,-1.00,-1.0
7798,17168,-620,372,-1.00,-1.0
7799,16648,-304,-72,-1.00,-1.0
7802,17364,68,1044,-1.00,-1.0
7803,17448,-300,512,-1.00,-1.0
7805,16948,-252,1016,-1.00,-1.0
7807,16976,564,300,-1.00,-1.0
7809,17036,-16,216,-1.00,-1.0
7811,16944,-492,1268,-1.00,-1.0
7813,16728,412,520,-1.00,-1.0
7815,17008,4,616,-1.00,-1.0
7817,17240,-376,328,-1.00,-1.0
7821,17484,-152,1488,-1.00,-1.0
