timestamp_ms,accel_x,accel_y,accel_z,voltage,soc
2,16996,-64,616,-1.00,-1.0
4,16972,36,696,-1.00,-1.0
6,17004,-68,656,-1.00,-1.0
11,16992,-56,696,-1.00,-1.0
13,17004,-52,504,-1.00,-1.0
15,16964,-40,664,-1.00,-1.0
17,17056,-32,588,-1.00,-1.0
19,16940,-32,588,-1.00,-1.0
21,16984,-48,632,-1.00,-1.0
23,17060,0,472,-1.00,-1.0
25,16968,-80,600,-1.00,-1.0
27,17100,-84,480,-1.00,-1.0
29,17048,-32,624,-1.00,-1.0
31,17004,0,512,-1.00,-1.0
33,17048,-76,592,-1.00,-1.0
35,16976,-76,504,-1.00,-1.0
36,16972,48,512,-1.00,-1.0
39,17008,-76,596,-1.00,-1.0
40,16968,-36,572,-1.00,-1.0
42,17016,-196,452,-1.00,-1.0
44,17000,-140,528,-1.00,-1.0
46,17032,-56,644,-1.00,-1.0
50,17044,-52,800,-1.00,-1.0
52,17040,16,716,-1.00,-1.0
54,17008,-24,548,-1.00,-1.0
56,17076,-64,560,-1.00,-1.0
58,17032,-8,544,-1.00,-1.0
60,17080,-92,632,-1.00,-1.0
62,16972,52,784,-1.00,-1.0
64,16996,0,608,-1.00,-1.0
66,16928,-36,616,-1.00,-1.0
68,17004,-116,592,-1.00,-1.0
70,16928,-36,508,-1.00,-1.0
72,17044,-72,560,-1.00,-1.0
73,16988,-72,636,-1.00,-1.0
75,16972,-84,544,-1.00,-1.0
77,17020,-144,548,-1.00,-1.0
79,17052,-76,524,-1.00,-1.0
81,17080,-84,572,-1.00,-1.0
83,17052,-44,612,-1.00,-1.0
87,16976,-40,736,-1.00,-1.0
89,16932,-120,512,-1.00,-1.0
91,17112,-56,620,-1.00,-1.0
93,16984,-84,508,-1.00,-1.0
95,16980,8,540,-1.00,-1.0
97,17092,12,600,-1.00,-1.0
99,16984,-28,484,-1.00,-1.0
101,17012,-64,536,-1.00,-1.0
103,17044,-56,540,-1.00,-1.0
105,17024,-48,552,-1.00,-1.0
107,17084,100,392,-1.00,-1.0
109,17016,-72,580,-1.00,-1.0
111,16996,-8,596,-1.00,-1.0
112,17068,0,488,-1.00,-1.0
115,16948,-36,532,-1.00,-1.0
117,17044,-20,552,-1.00,-1.0
118,16960,-88,588,-1.00,-1.0
120,16976,-60,500,-1.00,-1.0
125,16884,-64,512,-1.00,-1.0
127,17000,-56,580,-1.00,-1.0
128,17012,-28,532,-1.00,-1.0
130,17020,36,524,-1.00,-1.0
132,17068,-44,648,-1.00,-1.0
134,16964,-12,644,-1.00,-1.0
136,16880,-28,632,-1.00,-1.0
138,16972,-40,588,-1.00,-1.0
140,17076,4,580,-1.00,-1.0
142,17068,40,716,-1.00,-1.0
144,16988,-124,536,-1.00,-1.0
146,16968,-76,548,-1.00,-1.0
148,16956,0,572,-1.00,-1.0
150,16948,-4,624,-1.00,-1.0
152,17076,-28,640,-1.00,-1.0
154,16992,12,540,-1.00,-1.0
156,17060,-52,664,-1.00,-1.0
157,17016,-64,484,-1.00,-1.0
162,16988,-4,624,-1.00,-1.0
164,16960,-44,632,-1.00,-1.0
166,16956,-92,700,-1.00,-1.0
168,16984,-56,572,-1.00,-1.0
169,17044,24,672,-1.00,-1.0
171,17020,24,784,-1.00,-1.0
173,16964,-12,472,-1.00,-1.0
175,17020,4,592,-1.00,-1.0
177,17044,-72,712,-1.00,-1.0
179,16980,-220,808,-1.00,-1.0
181,17036,-92,552,-1.00,-1.0
183,17008,-64,596,-1.00,-1.0
185,16964,-4,572,-1.00,-1.0
187,17056,-64,696,-1.00,-1.0
189,16932,-100,640,-1.00,-1.0
191,16904,-44,708,-1.00,-1.0
193,17056,-24,644,-1.00,-1.0
195,17088,-16,588,-1.00,-1.0
199,16880,48,540,-1.00,-1.0
201,16976,4,680,-1.00,-1.0
203,17060,-20,500,-1.00,-1.0
205,17044,-60,512,-1.00,-1.0
207,16944,-68,560,-1.00,-1.0
209,16944,-116,528,-1.00,-1.0
211,16980,-112,424,-1.00,-1.0
213,17000,-64,532,-1.00,-1.0
214,16992,12,620,-1.00,-1.0
216,16944,-24,568,-1.00,-1.0
218,16968,-84,460,-1.00,-1.0
220,16980,-124,652,-1.00,-1.0
222,16968,-28,588,-1.00,-1.0
224,16912,-48,676,-1.00,-1.0
226,16968,-72,656,-1.00,-1.0
228,17044,-96,756,-1.00,-1.0
230,17028,-32,676,-1.00,-1.0
232,16976,0,684,-1.00,-1.0
236,16988,-60,648,-1.00,-1.0
238,17020,4,636,-1.00,-1.0
240,17076,-132,628,-1.00,-1.0
242,17100,-32,516,-1.00,-1.0
244,16948,36,692,-1.00,-1.0
246,16996,20,752,-1.00,-1.0
248,16968,-112,652,-1.00,-1.0
250,16992,-32,604,-1.00,-1.0
252,16968,48,636,-1.00,-1.0
254,17016,-132,672,-1.00,-1.0
256,16976,44,444,-1.00,-1.0
258,17076,-24,656,-1.00,-1.0
259,16936,20,568,-1.00,-1.0
261,17044,40,564,-1.00,-1.0
263,16956,12,568,-1.00,-1.0
265,17008,-76,556,-1.00,-1.0
267,17076,-116,472,-1.00,-1.0
269,16980,76,676,-1.00,-1.0
273,17088,-72,564,-1.00,-1.0
275,17036,80,532,-1.00,-1.0
277,17056,-140,624,-1.00,-1.0
279,17024,4,568,-1.00,-1.0
281,17080,-48,636,-1.00,-1.0
283,17028,56,592,-1.00,-1.0
285,16976,88,572,-1.00,-1.0
287,17028,-20,504,-1.00,-1.0
289,17036,-24,592,-1.00,-1.0
291,16924,-20,524,-1.00,-1.0
293,17020,-56,768,-1.00,-1.0
295,16976,-40,572,-1.00,-1.0
297,16896,-56,624,-1.00,-1.0
299,17008,-44,624,-1.00,-1.0
301,16984,-100,528,-1.00,-1.0
302,17032,0,660,-1.00,-1.0
304,16992,32,688,-1.00,-1.0
308,16948,-112,664,-1.00,-1.0
310,16924,-96,628,-1.00,-1.0
312,17000,-48,696,-1.00,-1.0
314,17044,-56,568,-1.00,-1.0
316,16984,-24,608,-1.00,-1.0
318,16972,-12,568,-1.00,-1.0
320,16896,-4,632,-1.00,-1.0
322,16908,-28,492,-1.00,-1.0
324,17008,-48,548,-1.00,-1.0
326,16940,-52,536,-1.00,-1.0
328,16984,-44,548,-1.00,-1.0
330,16980,-60,712,-1.00,-1.0
332,17020,-112,588,-1.00,-1.0
334,16932,-120,652,-1.00,-1.0
336,17052,-124,540,-1.00,-1.0
338,16948,-80,496,-1.00,-1.0
339,16996,-124,648,-1.00,-1.0
341,16984,-76,744,-1.00,-1.0
345,17024,-140,476,-1.00,-1.0
347,16956,-64,472,-1.00,-1.0
349,16964,-36,552,-1.00,-1.0
351,16960,-100,644,-1.00,-1.0
353,16992,-140,616,-1.00,-1.0
355,16980,-16,504,-1.00,-1.0
357,17032,-60,644,-1.00,-1.0
359,17004,-68,608,-1.00,-1.0
361,16976,40,640,-1.00,-1.0
363,16988,-104,580,-1.00,-1.0
365,16940,-40,536,-1.00,-1.0
367,17028,-64,596,-1.00,-1.0
369,16936,-28,560,-1.00,-1.0
371,16992,12,548,-1.00,-1.0
373,16992,-84,528,-1.00,-1.0
375,16928,-12,552,-1.00,-1.0
376,17020,-24,380,-1.00,-1.0
378,16948,-36,484,-1.00,-1.0
383,16944,-64,652,-1.00,-1.0
385,16952,-40,524,-1.00,-1.0
387,16920,-124,536,-1.00,-1.0
389,17008,-48,684,-1.00,-1.0
391,17060,0,612,-1.00,-1.0
393,17004,12,580,-1.00,-1.0
394,16984,-76,512,-1.00,-1.0
396,17044,-8,500,-1.00,-1.0
398,17000,0,592,-1.00,-1.0
400,17092,28,692,-1.00,-1.0
402,17056,20,576,-1.00,-1.0
404,16948,-16,536,-1.00,-1.0
406,17040,-48,680,-1.00,-1.0
408,17076,-44,640,-1.00,-1.0
410,17084,-28,656,-1.00,-1.0
412,16936,56,600,-1.00,-1.0
414,16964,-104,728,-1.00,-1.0
418,17028,-72,632,-1.00,-1.0
420,16984,12,720,-1.00,-1.0
422,16940,8,640,-1.00,-1.0
424,17032,-172,564,-1.00,-1.0
426,17064,-28,512,-1.00,-1.0
428,17032,32,524,-1.00,-1.0
430,17028,-128,552,-1.00,-1.0
432,16996,-52,572,-1.00,-1.0
434,17060,12,544,-1.00,-1.0
436,16968,28,608,-1.00,-1.0
438,16948,-4,516,-1.00,-1.0
439,16936,-64,700,-1.00,-1.0
441,17016,-164,748,-1.00,-1.0
443,16944,-16,572,-1.00,-1.0
445,17000,-80,488,-1.00,-1.0
447,16944,-12,584,-1.00,-1.0
449,17000,0,568,-1.00,-1.0
451,17024,-140,532,-1.00,-1.0
455,17028,-112,492,-1.00,-1.0
457,16976,-64,732,-1.00,-1.0
459,16844,-96,556,-1.00,-1.0
461,17012,-136,588,-1.00,-1.0
463,16968,-84,624,-1.00,-1.0
465,16976,4,464,-1.00,-1.0
467,17012,-72,484,-1.00,-1.0
469,17076,-120,744,-1.00,-1.0
471,16964,-64,600,-1.00,-1.0
473,17044,-88,604,-1.00,-1.0
475,17072,-84,552,-1.00,-1.0
477,16980,-60,724,-1.00,-1.0
479,16968,-108,592,-1.00,-1.0
481,16996,20,612,-1.00,-1.0
483,16948,-40,552,-1.00,-1.0
484,16972,-96,640,-1.00,-1.0
486,17020,24,556,-1.00,-1.0
488,17004,-112,452,-1.00,-1.0
492,16924,-28,460,-1.00,-1.0
494,17072,-140,628,-1.00,-1.0
496,16996,-36,620,-1.00,-1.0
498,16960,-76,520,-1.00,-1.0
500,17020,24,720,-1.00,-1.0
502,17060,-52,428,-1.00,-1.0
504,16972,36,516,-1.00,-1.0
506,16948,-60,604,-1.00,-1.0
508,16908,-92,672,-1.00,-1.0
510,17068,-64,556,-1.00,-1.0
512,17008,-8,332,-1.00,-1.0
514,16912,-4,480,-1.00,-1.0
516,16952,0,512,-1.00,-1.0
518,17040,-64,720,-1.00,-1.0
520,16924,-64,728,-1.00,-1.0
522,16992,-16,560,-1.00,-1.0
523,16940,-60,564,-1.00,-1.0
525,16960,-64,696,-1.00,-1.0
530,16936,-96,676,-1.00,-1.0
532,16992,-168,588,-1.00,-1.0
533,16936,-136,440,-1.00,-1.0
535,16968,-32,596,-1.00,-1.0
537,16928,-120,764,-1.00,-1.0
539,17096,-124,468,-1.00,-1.0
541,16972,-68,540,-1.00,-1.0
543,17060,-104,520,-1.00,-1.0
545,17060,44,660,-1.00,-1.0
547,16972,8,628,-1.00,-1.0
549,16960,-124,772,-1.00,-1.0
551,16916,-44,516,-1.00,-1.0
553,17140,-84,564,-1.00,-1.0
555,16924,-104,524,-1.00,-1.0
557,16988,-120,524,-1.00,-1.0
559,16916,-108,540,-1.00,-1.0
561,17008,-60,732,-1.00,-1.0
565,17020,72,572,-1.00,-1.0
567,16984,-108,548,-1.00,-1.0
569,17032,-124,560,-1.00,-1.0
571,16948,-20,652,-1.00,-1.0
572,17008,-44,584,-1.00,-1.0
575,16952,-4,604,-1.00,-1.0
577,16932,-20,644,-1.00,-1.0
578,17060,-48,600,-1.00,-1.0
580,17024,-84,636,-1.00,-1.0
582,17052,-20,576,-1.00,-1.0
584,16832,-60,676,-1.00,-1.0
586,16960,-12,672,-1.00,-1.0
588,17000,-8,508,-1.00,-1.0
590,16976,-124,700,-1.00,-1.0
592,17004,-92,652,-1.00,-1.0
594,17024,-140,620,-1.00,-1.0
596,16940,-84,472,-1.00,-1.0
598,17008,-40,472,-1.00,-1.0
602,17048,-68,504,-1.00,-1.0
604,17028,84,540,-1.00,-1.0
606,17044,-24,536,-1.00,-1.0
608,17040,-136,444,-1.00,-1.0
610,16992,-48,556,-1.00,-1.0
612,16992,-112,540,-1.00,-1.0
614,17052,-72,508,-1.00,-1.0
615,17040,-68,512,-1.00,-1.0
617,16980,-48,540,-1.00,-1.0
619,17036,-116,552,-1.00,-1.0
621,17072,-32,520,-1.00,-1.0
623,17016,-108,580,-1.00,-1.0
625,17084,-80,724,-1.00,-1.0
627,16968,-60,648,-1.00,-1.0
629,17060,-28,512,-1.00,-1.0
631,17012,-136,736,-1.00,-1.0
633,17008,-136,596,-1.00,-1.0
637,17076,-28,636,-1.00,-1.0
639,17044,-32,548,-1.00,-1.0
641,17056,-92,564,-1.00,-1.0
643,16940,-28,520,-1.00,-1.0
645,17024,56,576,-1.00,-1.0
647,16940,-76,668,-1.00,-1.0
649,16988,-80,648,-1.00,-1.0
651,16912,-40,708,-1.00,-1.0
652,17052,-88,588,-1.00,-1.0
654,17000,-88,576,-1.00,-1.0
656,17008,-52,628,-1.00,-1.0
658,17048,-72,580,-1.00,-1.0
660,17112,-4,580,-1.00,-1.0
662,16932,36,760,-1.00,-1.0
664,17088,-124,608,-1.00,-1.0
666,17000,16,576,-1.00,-1.0
668,17004,-8,600,-1.00,-1.0
670,16976,-28,572,-1.00,-1.0
674,16996,8,608,-1.00,-1.0
676,16980,-124,728,-1.00,-1.0
678,16904,-40,628,-1.00,-1.0
680,16992,56,444,-1.00,-1.0
682,16920,-8,612,-1.00,-1.0
684,17052,-28,740,-1.00,-1.0
686,16984,4,684,-1.00,-1.0
688,17076,-32,720,-1.00,-1.0
690,16880,-8,568,-1.00,-1.0
692,17056,32,632,-1.00,-1.0
694,16976,4,608,-1.00,-1.0
695,16936,-112,656,-1.00,-1.0
697,17052,-60,536,-1.00,-1.0
699,16956,-40,448,-1.00,-1.0
701,16968,24,640,-1.00,-1.0
703,17044,0,588,-1.00,-1.0
705,16964,-48,628,-1.00,-1.0
707,16976,-48,788,-1.00,-1.0
711,16920,16,588,-1.00,-1.0
713,16964,-44,588,-1.00,-1.0
715,16964,-44,768,-1.00,-1.0
717,17012,4,576,-1.00,-1.0
719,17080,-68,608,-1.00,-1.0
721,17072,-20,560,-1.00,-1.0
723,16972,-8,528,-1.00,-1.0
725,16980,-80,556,-1.00,-1.0
727,17008,-8,592,-1.00,-1.0
729,16964,8,592,-1.00,-1.0
731,16956,-28,596,-1.00,-1.0
733,16948,16,512,-1.00,-1.0
735,16976,-52,484,-1.00,-1.0
736,16956,-112,660,-1.00,-1.0
738,16980,20,532,-1.00,-1.0
740,16996,28,572,-1.00,-1.0
742,16948,-60,556,-1.00,-1.0
744,16992,-120,600,-1.00,-1.0
748,17036,112,528,-1.00,-1.0
750,16872,-84,616,-1.00,-1.0
752,17068,-108,640,-1.00,-1.0
754,16976,-84,572,-1.00,-1.0
756,16880,80,600,-1.00,-1.0
758,16888,-24,732,-1.00,-1.0
760,17056,36,656,-1.00,-1.0
762,16964,-24,644,-1.00,-1.0
764,17024,12,452,-1.00,-1.0
766,16960,-48,404,-1.00,-1.0
768,17032,-8,620,-1.00,-1.0
770,16968,-148,644,-1.00,-1.0
772,16964,-48,652,-1.00,-1.0
774,16988,-32,564,-1.00,-1.0
776,16964,-52,576,-1.00,-1.0
778,16916,-60,500,-1.00,-1.0
779,17012,16,700,-1.00,-1.0
781,16912,84,588,-1.00,-1.0
786,16988,-84,720,-1.00,-1.0
788,16952,-20,540,-1.00,-1.0
790,16992,-44,876,-1.00,-1.0
791,16992,44,496,-1.00,-1.0
793,17008,44,600,-1.00,-1.0
795,16984,-16,712,-1.00,-1.0
797,16968,8,580,-1.00,-1.0
799,16976,12,580,-1.00,-1.0
801,17120,-72,548,-1.00,-1.0
803,17004,-60,612,-1.00,-1.0
805,17064,-52,620,-1.00,-1.0
807,17020,-88,628,-1.00,-1.0
809,17112,48,528,-1.00,-1.0
811,17012,-32,496,-1.00,-1.0
813,17024,-48,640,-1.00,-1.0
815,17008,8,784,-1.00,-1.0
817,17044,40,472,-1.00,-1.0
819,17064,-120,584,-1.00,-1.0
824,16880,8,608,-1.00,-1.0
826,16936,-76,652,-1.00,-1.0
828,16984,-56,648,-1.00,-1.0
830,17084,-168,516,-1.00,-1.0
832,17104,-136,548,-1.00,-1.0
834,17016,-172,596,-1.00,-1.0
836,17024,-88,636,-1.00,-1.0
838,17060,-208,524,-1.00,-1.0
840,16956,-48,532,-1.00,-1.0
842,17004,-124,604,-1.00,-1.0
844,16972,-88,628,-1.00,-1.0
846,16988,-140,580,-1.00,-1.0
848,17008,-104,560,-1.00,-1.0
850,16976,-144,712,-1.00,-1.0
852,17016,-60,580,-1.00,-1.0
854,17048,-44,600,-1.00,-1.0
855,17092,-104,576,-1.00,-1.0
860,17004,-16,344,-1.00,-1.0
862,17052,0,488,-1.00,-1.0
864,16912,-68,484,-1.00,-1.0
865,17032,-112,356,-1.00,-1.0
867,17028,-100,508,-1.00,-1.0
869,17012,-16,484,-1.00,-1.0
871,16920,-80,536,-1.00,-1.0
873,16964,-40,612,-1.00,-1.0
875,16860,0,684,-1.00,-1.0
877,16896,28,580,-1.00,-1.0
879,16984,12,588,-1.00,-1.0
881,17028,12,712,-1.00,-1.0
883,16964,28,644,-1.00,-1.0
885,16984,8,616,-1.00,-1.0
887,17108,-80,668,-1.00,-1.0
889,16904,-104,656,-1.00,-1.0
891,16940,4,692,-1.00,-1.0
893,17032,-36,624,-1.00,-1.0
897,16956,84,600,-1.00,-1.0
899,17024,-100,528,-1.00,-1.0
901,17044,-64,564,-1.00,-1.0
903,17080,-28,604,-1.00,-1.0
904,16996,-36,540,-1.00,-1.0
906,17036,-48,616,-1.00,-1.0
908,16920,-24,584,-1.00,-1.0
910,16972,-8,556,-1.00,-1.0
912,16936,0,600,-1.00,-1.0
914,17020,-112,444,-1.00,-1.0
916,17016,-24,608,-1.00,-1.0
918,17004,-72,676,-1.00,-1.0
920,16908,-48,548,-1.00,-1.0
922,17108,-140,640,-1.00,-1.0
924,17068,-32,668,-1.00,-1.0
926,16952,-48,544,-1.00,-1.0
928,17044,-16,508,-1.00,-1.0
930,16980,-96,624,-1.00,-1.0
934,16940,-96,504,-1.00,-1.0
936,17036,-156,600,-1.00,-1.0
938,17012,-56,628,-1.00,-1.0
940,17000,-28,552,-1.00,-1.0
942,16908,-24,528,-1.00,-1.0
944,16964,-8,612,-1.00,-1.0
945,16988,-104,576,-1.00,-1.0
947,16976,-124,676,-1.00,-1.0
949,16996,-72,644,-1.00,-1.0
951,17072,-4,664,-1.00,-1.0
953,16952,40,580,-1.00,-1.0
955,16924,-32,552,-1.00,-1.0
957,16940,-8,652,-1.00,-1.0
959,16984,48,444,-1.00,-1.0
961,17036,-120,608,-1.00,-1.0
963,17076,-8,580,-1.00,-1.0
965,17028,-28,720,-1.00,-1.0
967,16988,-32,748,-1.00,-1.0
971,16976,-112,524,-1.00,-1.0
973,17044,-92,520,-1.00,-1.0
975,17008,4,576,-1.00,-1.0
977,17032,-56,656,-1.00,-1.0
979,17044,-72,528,-1.00,-1.0
981,17064,-32,636,-1.00,-1.0
983,16924,-20,600,-1.00,-1.0
985,16908,32,568,-1.00,-1.0
987,17072,20,512,-1.00,-1.0
989,16980,-20,556,-1.00,-1.0
991,16896,20,572,-1.00,-1.0
993,17032,-68,520,-1.00,-1.0
994,16968,-84,536,-1.00,-1.0
996,17012,-64,652,-1.00,-1.0
998,16972,-36,740,-1.00,-1.0
1000,17020,24,504,-1.00,-1.0
1002,16964,4,712,-1.00,-1.0
1006,16988,-64,664,-1.00,-1.0
1008,17000,16,836,-1.00,-1.0
1010,17044,-52,624,-1.00,-1.0
1012,17084,-80,736,-1.00,-1.0
1014,16976,4,768,-1.00,-1.0
1016,17012,24,732,-1.00,-1.0
1018,17076,-4,732,-1.00,-1.0
1020,16920,-60,656,-1.00,-1.0
1022,16896,16,540,-1.00,-1.0
1024,16996,-156,656,-1.00,-1.0
1026,17028,-172,544,-1.00,-1.0
1028,17012,-56,572,-1.00,-1.0
1030,16996,-104,500,-1.00,-1.0
1032,16968,-128,408,-1.00,-1.0
1034,16904,12,484,-1.00,-1.0
1036,16968,-40,568,-1.00,-1.0
1037,16916,-68,388,-1.00,-1.0
1039,16888,-20,428,-1.00,-1.0
1044,16976,-100,420,-1.00,-1.0
1046,16888,-108,508,-1.00,-1.0
1047,17020,-124,616,-1.00,-1.0
1049,17032,-84,584,-1.00,-1.0
1051,16976,-84,488,-1.00,-1.0
1053,16920,-92,536,-1.00,-1.0
1055,16928,-28,560,-1.00,-1.0
1057,17016,-56,468,-1.00,-1.0
1059,17020,-24,528,-1.00,-1.0
1061,17044,-64,592,-1.00,-1.0
1063,16964,-60,544,-1.00,-1.0
1065,16944,-72,556,-1.00,-1.0
1067,16984,-36,376,-1.00,-1.0
1069,16940,-60,620,-1.00,-1.0
1071,17092,32,552,-1.00,-1.0
1073,17068,40,532,-1.00,-1.0
1075,17140,24,576,-1.00,-1.0
1079,17052,-52,576,-1.00,-1.0
1081,16932,-176,540,-1.00,-1.0
1083,16932,-92,588,-1.00,-1.0
1085,16948,-96,692,-1.00,-1.0
1087,16976,-80,612,-1.00,-1.0
1089,16960,-116,568,-1.00,-1.0
1091,16996,-44,400,-1.00,-1.0
1092,16900,-68,600,-1.00,-1.0
1094,17060,-72,580,-1.00,-1.0
1096,16964,-56,536,-1.00,-1.0
1098,16924,-128,616,-1.00,-1.0
1100,17048,-8,704,-1.00,-1.0
1102,17016,-88,584,-1.00,-1.0
1104,16920,8,568,-1.00,-1.0
1106,17008,-68,472,-1.00,-1.0
1108,16944,-4,504,-1.00,-1.0
1110,16948,-24,556,-1.00,-1.0
1114,17008,-48,628,-1.00,-1.0
1116,16952,-124,432,-1.00,-1.0
1118,16940,-100,576,-1.00,-1.0
1120,17000,-16,664,-1.00,-1.0
1122,16940,-84,524,-1.00,-1.0
1124,16996,0,660,-1.00,-1.0
1126,17008,-72,712,-1.00,-1.0
1128,17008,-52,600,-1.00,-1.0
1130,17032,-64,676,-1.00,-1.0
1132,16956,-36,552,-1.00,-1.0
1134,16976,-72,628,-1.00,-1.0
1135,17008,-28,636,-1.00,-1.0
1137,17036,-8,732,-1.00,-1.0
1139,16968,24,580,-1.00,-1.0
1141,16960,-40,560,-1.00,-1.0
1143,17108,-136,556,-1.00,-1.0
1145,17012,56,748,-1.00,-1.0
1149,16992,-40,676,-1.00,-1.0
1151,16824,-104,608,-1.00,-1.0
1153,16992,-76,584,-1.00,-1.0
1155,16992,-36,464,-1.00,-1.0
1157,16948,44,568,-1.00,-1.0
1159,17060,-60,500,-1.00,-1.0
1161,17000,12,544,-1.00,-1.0
1163,17060,-40,612,-1.00,-1.0
1165,16952,28,600,-1.00,-1.0
1167,16892,92,488,-1.00,-1.0
1169,17080,-24,452,-1.00,-1.0
1171,16896,24,648,-1.00,-1.0
1173,16952,44,536,-1.00,-1.0
1175,17080,-16,560,-1.00,-1.0
1177,17064,-36,600,-1.00,-1.0
1178,17108,-60,544,-1.00,-1.0
1180,17044,112,580,-1.00,-1.0
1184,17000,-76,524,-1.00,-1.0
1186,17060,-68,576,-1.00,-1.0
1188,16932,-24,572,-1.00,-1.0
1190,16912,0,556,-1.00,-1.0
1192,17020,-44,572,-1.00,-1.0
1194,16984,-108,600,-1.00,-1.0
1196,16992,-140,512,-1.00,-1.0
1198,17016,-60,604,-1.00,-1.0
1200,17008,-188,684,-1.00,-1.0
1202,17036,-132,556,-1.00,-1.0
1204,16912,-80,564,-1.00,-1.0
1206,16952,-120,528,-1.00,-1.0
1208,16968,-20,592,-1.00,-1.0
1210,17112,-124,520,-1.00,-1.0
1212,16960,-112,644,-1.00,-1.0
1214,17076,-160,620,-1.00,-1.0
1216,17048,-92,404,-1.00,-1.0
1220,17060,8,580,-1.00,-1.0
1222,16948,-72,680,-1.00,-1.0
1223,17040,-120,760,-1.00,-1.0
1225,17004,-64,588,-1.00,-1.0
1227,17104,-96,612,-1.00,-1.0
1229,17068,-28,540,-1.00,-1.0
1231,17100,-156,676,-1.00,-1.0
1233,17000,-120,624,-1.00,-1.0
1235,17020,-20,488,-1.00,-1.0
1237,17016,-68,452,-1.00,-1.0
1239,16960,-112,600,-1.00,-1.0
1241,16924,-100,652,-1.00,-1.0
1243,17000,-140,656,-1.00,-1.0
1245,16948,-104,520,-1.00,-1.0
1247,17044,16,548,-1.00,-1.0
1249,16968,-52,584,-1.00,-1.0
1251,16912,-104,568,-1.00,-1.0
1255,17008,-24,572,-1.00,-1.0
1257,16972,52,532,-1.00,-1.0
1259,17020,-52,560,-1.00,-1.0
1261,16956,-12,576,-1.00,-1.0
1263,17024,-20,632,-1.00,-1.0
1265,16976,-4,512,-1.00,-1.0
1267,17020,36,560,-1.00,-1.0
1268,16976,-56,752,-1.00,-1.0
1270,17032,-136,592,-1.00,-1.0
1272,16944,4,588,-1.00,-1.0
1274,17044,-44,588,-1.00,-1.0
1276,17040,-64,568,-1.00,-1.0
1278,16972,-44,560,-1.00,-1.0
1280,17040,-80,596,-1.00,-1.0
1282,16916,-60,516,-1.00,-1.0
1284,17028,-64,592,-1.00,-1.0
1286,16932,-64,596,-1.00,-1.0
1290,16996,-28,556,-1.00,-1.0
1292,17164,36,572,-1.00,-1.0
1294,16904,-92,592,-1.00,-1.0
1296,17040,-20,556,-1.00,-1.0
1298,16916,-32,608,-1.00,-1.0
1300,17052,-80,604,-1.00,-1.0
1302,17016,-28,732,-1.00,-1.0
1304,17008,-72,576,-1.00,-1.0
1306,16968,8,640,-1.00,-1.0
1308,17012,44,644,-1.00,-1.0
1310,17056,-100,584,-1.00,-1.0
1311,17072,-16,608,-1.00,-1.0
1313,16904,-40,644,-1.00,-1.0
1315,17088,-32,632,-1.00,-1.0
1317,17056,-8,488,-1.00,-1.0
1319,17036,-12,648,-1.00,-1.0
1321,17068,-16,596,-1.00,-1.0
1325,16964,-80,592,-1.00,-1.0
1327,17004,40,624,-1.00,-1.0
1329,16972,-16,580,-1.00,-1.0
1331,17012,16,728,-1.00,-1.0
1333,16964,8,564,-1.00,-1.0
1335,16944,-100,512,-1.00,-1.0
1337,17020,48,524,-1.00,-1.0
1339,16920,-112,560,-1.00,-1.0
1341,16944,-52,620,-1.00,-1.0
1343,17036,-64,516,-1.00,-1.0
1345,17016,-40,588,-1.00,-1.0
1347,17012,-60,496,-1.00,-1.0
1349,16952,-124,548,-1.00,-1.0
1351,16992,-64,472,-1.00,-1.0
1353,16952,-80,596,-1.00,-1.0
1355,17052,-60,652,-1.00,-1.0
1356,17020,4,556,-1.00,-1.0
1361,17044,-124,608,-1.00,-1.0
1363,16952,-156,652,-1.00,-1.0
1365,17064,-40,628,-1.00,-1.0
1366,16992,-112,500,-1.00,-1.0
1368,16940,-108,660,-1.00,-1.0
1370,17012,20,536,-1.00,-1.0
1372,17068,-40,520,-1.00,-1.0
1374,17000,-60,780,-1.00,-1.0
1376,17028,-112,620,-1.00,-1.0
1378,17036,-32,536,-1.00,-1.0
1380,16972,-140,572,-1.00,-1.0
1382,16932,-140,644,-1.00,-1.0
1384,17096,-32,668,-1.00,-1.0
1386,17036,-160,668,-1.00,-1.0
1388,17028,-84,600,-1.00,-1.0
1390,16932,-92,704,-1.00,-1.0
1392,17008,-20,640,-1.00,-1.0
1396,17080,-164,664,-1.00,-1.0
1398,16952,-28,556,-1.00,-1.0
1400,17016,12,584,-1.00,-1.0
1402,16928,-108,564,-1.00,-1.0
1404,16940,-112,512,-1.00,-1.0
1406,16948,-28,584,-1.00,-1.0
1408,16856,36,720,-1.00,-1.0
1410,16964,-92,536,-1.00,-1.0
1412,17020,-72,636,-1.00,-1.0
1414,17084,-76,664,-1.00,-1.0
1416,17036,-16,560,-1.00,-1.0
1417,17096,0,488,-1.00,-1.0
1419,16932,44,548,-1.00,-1.0
1421,17008,20,608,-1.00,-1.0
1423,17028,-92,684,-1.00,-1.0
1425,16980,-28,528,-1.00,-1.0
1427,16956,-112,416,-1.00,-1.0
1431,17016,-92,648,-1.00,-1.0
1433,16988,-116,708,-1.00,-1.0
1435,17068,-124,560,-1.00,-1.0
1437,17020,-44,512,-1.00,-1.0
1439,16936,-48,712,-1.00,-1.0
1441,17016,-44,648,-1.00,-1.0
1443,16968,-40,628,-1.00,-1.0
1445,17052,-4,500,-1.00,-1.0
1447,16948,-48,636,-1.00,-1.0
1449,16988,0,624,-1.00,-1.0
1451,16964,-120,540,-1.00,-1.0
1453,17000,-148,488,-1.00,-1.0
1455,17048,-40,684,-1.00,-1.0
1457,16888,-80,524,-1.00,-1.0
1459,17020,-164,632,-1.00,-1.0
1461,17080,-8,476,-1.00,-1.0
1462,17004,-100,564,-1.00,-1.0
1467,16932,-72,528,-1.00,-1.0
1469,16944,-72,684,-1.00,-1.0
1470,17060,-36,496,-1.00,-1.0
1472,17012,20,528,-1.00,-1.0
1474,16892,-32,684,-1.00,-1.0
1476,17060,4,652,-1.00,-1.0
1478,17020,-108,464,-1.00,-1.0
1480,17072,-100,624,-1.00,-1.0
1482,16896,-88,692,-1.00,-1.0
1484,17004,-96,488,-1.00,-1.0
1486,17024,-76,536,-1.00,-1.0
1488,17064,-88,516,-1.00,-1.0
1490,17028,0,536,-1.00,-1.0
1492,16992,-84,588,-1.00,-1.0
1494,16992,20,600,-1.00,-1.0
1496,16916,-12,568,-1.00,-1.0
1498,17080,-28,620,-1.00,-1.0
1500,16936,-28,600,-1.00,-1.0
1504,17000,-16,544,-1.00,-1.0
1506,16992,32,536,-1.00,-1.0
1507,17040,-68,616,-1.00,-1.0
1509,16948,24,588,-1.00,-1.0
1511,16996,-88,560,-1.00,-1.0
1513,16992,8,580,-1.00,-1.0
1515,17040,8,556,-1.00,-1.0
1517,17008,-4,660,-1.00,-1.0
1519,16940,-28,580,-1.00,-1.0
1521,16940,-80,668,-1.00,-1.0
1523,17036,-96,728,-1.00,-1.0
1525,16988,-104,592,-1.00,-1.0
1527,17016,48,640,-1.00,-1.0
1529,16932,36,544,-1.00,-1.0
1531,16972,4,592,-1.00,-1.0
1533,17092,28,636,-1.00,-1.0
1535,17048,-48,640,-1.00,-1.0
1539,16940,4,620,-1.00,-1.0
1541,17008,-24,724,-1.00,-1.0
1543,17060,-12,756,-1.00,-1.0
1545,16924,12,540,-1.00,-1.0
1547,16972,-88,652,-1.00,-1.0
1549,16972,-136,516,-1.00,-1.0
1551,17072,-136,532,-1.00,-1.0
1553,16920,12,564,-1.00,-1.0
1555,17032,52,612,-1.00,-1.0
1557,16976,-140,524,-1.00,-1.0
1559,17036,-32,520,-1.00,-1.0
1560,16908,-52,720,-1.00,-1.0
1562,16888,-40,664,-1.00,-1.0
1564,16984,-72,504,-1.00,-1.0
1566,16948,-64,668,-1.00,-1.0
1568,16988,56,508,-1.00,-1.0
1570,17024,-44,732,-1.00,-1.0
1574,16984,48,640,-1.00,-1.0
1576,17020,-72,492,-1.00,-1.0
1578,17000,-112,544,-1.00,-1.0
1580,16996,-16,536,-1.00,-1.0
1582,16948,-88,688,-1.00,-1.0
1584,16988,-12,548,-1.00,-1.0
1586,16996,-44,736,-1.00,-1.0
1588,16968,88,536,-1.00,-1.0
1590,17012,-56,636,-1.00,-1.0
1592,16988,-60,744,-1.00,-1.0
1594,16956,-24,688,-1.00,-1.0
1596,17028,-124,500,-1.00,-1.0
1598,16952,-152,628,-1.00,-1.0
1600,17024,-152,684,-1.00,-1.0
1602,16992,-52,636,-1.00,-1.0
1604,16976,-88,584,-1.00,-1.0
1605,17008,-32,628,-1.00,-1.0
1610,17060,-12,600,-1.00,-1.0
1612,16940,40,720,-1.00,-1.0
1613,17040,-164,560,-1.00,-1.0
1615,16964,-104,560,-1.00,-1.0
1617,16976,0,552,-1.00,-1.0
1619,17028,-20,492,-1.00,-1.0
1621,17048,24,648,-1.00,-1.0
1623,16976,8,572,-1.00,-1.0
1625,16992,-124,504,-1.00,-1.0
1627,16956,108,368,-1.00,-1.0
1629,17028,0,592,-1.00,-1.0
1631,16936,-20,564,-1.00,-1.0
1633,16980,-136,640,-1.00,-1.0
1635,16988,-40,616,-1.00,-1.0
1637,16968,-44,408,-1.00,-1.0
1639,16912,48,544,-1.00,-1.0
1641,16936,-40,524,-1.00,-1.0
1645,17008,-56,504,-1.00,-1.0
1647,17000,-72,628,-1.00,-1.0
1649,16888,-32,644,-1.00,-1.0
1651,16988,-16,668,-1.00,-1.0
1653,16952,-72,672,-1.00,-1.0
1655,16964,4,520,-1.00,-1.0
1657,17004,-16,496,-1.00,-1.0
1658,16956,44,596,-1.00,-1.0
1660,17000,20,684,-1.00,-1.0
1662,17016,-68,684,-1.00,-1.0
1664,16924,-76,640,-1.00,-1.0
1666,16992,48,608,-1.00,-1.0
1668,16928,-104,572,-1.00,-1.0
1670,16916,28,588,-1.00,-1.0
1672,16996,-76,664,-1.00,-1.0
1674,17000,36,592,-1.00,-1.0
1676,17092,-48,704,-1.00,-1.0
1678,17028,-88,760,-1.00,-1.0
1682,17000,-60,640,-1.00,-1.0
1684,17024,-80,604,-1.00,-1.0
1686,16992,-72,620,-1.00,-1.0
1688,16996,-76,628,-1.00,-1.0
1690,16964,24,580,-1.00,-1.0
1692,16960,-32,644,-1.00,-1.0
1694,17008,-32,676,-1.00,-1.0
1696,17052,0,548,-1.00,-1.0
1698,16980,68,540,-1.00,-1.0
1700,16964,-72,672,-1.00,-1.0
1702,17036,-4,556,-1.00,-1.0
1703,17000,-112,628,-1.00,-1.0
1705,16960,-136,684,-1.00,-1.0
1707,16964,-36,680,-1.00,-1.0
1709,17016,-116,504,-1.00,-1.0
1711,16992,-44,492,-1.00,-1.0
1713,16940,-104,688,-1.00,-1.0
1717,17032,-172,636,-1.00,-1.0
1719,17104,-56,548,-1.00,-1.0
1721,17020,-68,776,-1.00,-1.0
1723,16996,12,540,-1.00,-1.0
1725,17036,0,632,-1.00,-1.0
1727,17064,56,632,-1.00,-1.0
1729,17020,-116,596,-1.00,-1.0
1731,16916,-100,684,-1.00,-1.0
1733,17004,-96,532,-1.00,-1.0
1735,17024,-112,496,-1.00,-1.0
1737,16992,-136,576,-1.00,-1.0
1739,16956,-44,576,-1.00,-1.0
1741,17008,20,592,-1.00,-1.0
1743,16976,-24,576,-1.00,-1.0
1745,17028,60,556,-1.00,-1.0
1746,17060,-12,504,-1.00,-1.0
1748,16988,28,580,-1.00,-1.0
1752,17068,0,504,-1.00,-1.0
1754,16996,-24,528,-1.00,-1.0
1756,17020,-84,660,-1.00,-1.0
1758,17112,-64,644,-1.00,-1.0
1760,16868,-100,532,-1.00,-1.0
1762,16980,-68,444,-1.00,-1.0
1764,16984,-32,716,-1.00,-1.0
1766,17104,-148,544,-1.00,-1.0
1768,16988,-40,572,-1.00,-1.0
1770,17064,-80,592,-1.00,-1.0
1772,17004,-44,620,-1.00,-1.0
1774,17104,-72,704,-1.00,-1.0
1776,16956,16,604,-1.00,-1.0
1778,17016,-92,580,-1.00,-1.0
1780,16992,-136,568,-1.00,-1.0
1782,17020,-28,668,-1.00,-1.0
1784,16988,-72,576,-1.00,-1.0
1788,17060,-68,424,-1.00,-1.0
1790,17032,-56,568,-1.00,-1.0
1791,16968,-108,640,-1.00,-1.0
1793,17092,-36,496,-1.00,-1.0
1795,16916,-88,640,-1.00,-1.0
1797,17004,-88,740,-1.00,-1.0
1799,17000,-60,632,-1.00,-1.0
1801,17000,-52,608,-1.00,-1.0
1803,16980,-32,616,-1.00,-1.0
1805,17080,-112,644,-1.00,-1.0
1807,17000,-4,424,-1.00,-1.0
1809,16984,-128,476,-1.00,-1.0
1811,17084,-156,476,-1.00,-1.0
1813,16932,-8,696,-1.00,-1.0
1815,16976,-96,716,-1.00,-1.0
1817,17064,-76,564,-1.00,-1.0
1819,16932,-140,656,-1.00,-1.0
1823,17036,-92,460,-1.00,-1.0
1825,17060,-24,424,-1.00,-1.0
1827,16920,-44,728,-1.00,-1.0
1829,17080,-72,728,-1.00,-1.0
1831,17028,-64,604,-1.00,-1.0
1833,17020,48,552,-1.00,-1.0
1835,16976,-68,508,-1.00,-1.0
1836,17056,-76,500,-1.00,-1.0
1838,17048,-12,600,-1.00,-1.0
1840,16968,-96,604,-1.00,-1.0
1842,16980,-68,732,-1.00,-1.0
1844,16832,-64,488,-1.00,-1.0
1846,17092,-12,624,-1.00,-1.0
1848,17092,-48,712,-1.00,-1.0
1850,17008,-76,652,-1.00,-1.0
1852,16948,-24,512,-1.00,-1.0
1854,16952,24,612,-1.00,-1.0
1858,17036,-44,600,-1.00,-1.0
1860,17072,-136,520,-1.00,-1.0
1862,17028,48,584,-1.00,-1.0
1864,16928,-40,556,-1.00,-1.0
1866,16988,60,540,-1.00,-1.0
1868,17016,-76,512,-1.00,-1.0
1870,16960,-60,504,-1.00,-1.0
1872,16948,0,648,-1.00,-1.0
1874,16988,8,584,-1.00,-1.0
1876,16956,-40,592,-1.00,-1.0
1878,16956,4,452,-1.00,-1.0
1880,16996,12,516,-1.00,-1.0
1881,16960,-76,588,-1.00,-1.0
1883,16928,-136,588,-1.00,-1.0
1885,17044,-60,484,-1.00,-1.0
1887,16980,-92,560,-1.00,-1.0
1889,16892,-36,616,-1.00,-1.0
1893,16940,16,704,-1.00,-1.0
1895,16996,-104,564,-1.00,-1.0
1897,16992,-64,572,-1.00,-1.0
1899,16960,-72,616,-1.00,-1.0
1901,17000,-92,588,-1.00,-1.0
1903,17020,-28,528,-1.00,-1.0
1905,16984,40,632,-1.00,-1.0
1907,16940,-64,580,-1.00,-1.0
1909,16988,-76,584,-1.00,-1.0
1911,17108,-68,520,-1.00,-1.0
1913,16964,-40,648,-1.00,-1.0
1915,16948,-56,544,-1.00,-1.0
1917,17048,-20,528,-1.00,-1.0
1919,17016,-84,540,-1.00,-1.0
1921,17016,-40,484,-1.00,-1.0
1923,16956,-84,552,-1.00,-1.0
1924,16984,-88,548,-1.00,-1.0
1926,16864,-116,516,-1.00,-1.0
1931,16876,-44,612,-1.00,-1.0
1933,17028,-60,464,-1.00,-1.0
1934,17104,-56,552,-1.00,-1.0
1936,16960,12,512,-1.00,-1.0
1938,16996,-16,536,-1.00,-1.0
1940,16936,-92,704,-1.00,-1.0
1942,17028,-8,684,-1.00,-1.0
1944,16964,-92,536,-1.00,-1.0
1946,16928,-60,616,-1.00,-1.0
1948,17072,-16,508,-1.00,-1.0
1950,16872,-8,704,-1.00,-1.0
1952,17012,-52,612,-1.00,-1.0
1954,16980,4,400,-1.00,-1.0
1956,16860,-52,472,-1.00,-1.0
1958,17008,-36,580,-1.00,-1.0
1960,16912,36,628,-1.00,-1.0
1962,17000,-96,652,-1.00,-1.0
1966,17016,-44,604,-1.00,-1.0
1968,16924,-84,604,-1.00,-1.0
1970,17068,-60,464,-1.00,-1.0
1972,17072,20,536,-1.00,-1.0
1974,16988,16,644,-1.00,-1.0
1976,17032,-48,632,-1.00,-1.0
1978,17068,-76,592,-1.00,-1.0
1979,16924,112,520,-1.00,-1.0
1982,17028,-16,632,-1.00,-1.0
1983,17044,-36,568,-1.00,-1.0
1985,16924,-116,612,-1.00,-1.0
1987,16984,-68,604,-1.00,-1.0
1989,16952,-12,580,-1.00,-1.0
1991,16976,-36,484,-1.00,-1.0
1993,16960,52,488,-1.00,-1.0
1995,17004,36,688,-1.00,-1.0
1997,16956,-112,628,-1.00,-1.0
2001,17060,-20,572,-1.00,-1.0
2003,17056,-24,524,-1.00,-1.0
2005,17048,-36,432,-1.00,-1.0
2007,17024,-16,720,-1.00,-1.0
2009,16952,-8,560,-1.00,-1.0
2011,16956,-156,564,-1.00,-1.0
2013,17028,28,688,-1.00,-1.0
2015,17056,-96,508,-1.00,-1.0
2017,16980,-44,584,-1.00,-1.0
2019,16936,-40,592,-1.00,-1.0
2021,17052,-92,760,-1.00,-1.0
2023,16932,-112,608,-1.00,-1.0
2024,16936,-84,672,-1.00,-1.0
2026,16996,-112,584,-1.00,-1.0
2028,16992,-88,580,-1.00,-1.0
2030,16992,0,652,-1.00,-1.0
2032,17088,48,524,-1.00,-1.0
2036,16972,-24,656,-1.00,-1.0
2038,16876,-68,624,-1.00,-1.0
2040,16976,-168,548,-1.00,-1.0
2042,16964,-32,580,-1.00,-1.0
2044,17060,-76,600,-1.00,-1.0
2046,17020,-84,592,-1.00,-1.0
2048,16976,-48,412,-1.00,-1.0
2050,16984,-24,544,-1.00,-1.0
2052,17096,-104,636,-1.00,-1.0
2054,16932,-48,612,-1.00,-1.0
2056,17064,-40,604,-1.00,-1.0
2058,16960,-172,596,-1.00,-1.0
2060,16992,-124,564,-1.00,-1.0
2062,16984,-92,620,-1.00,-1.0
2064,17040,-148,544,-1.00,-1.0
2066,16996,-16,568,-1.00,-1.0
2067,16992,40,756,-1.00,-1.0
2071,16996,-64,556,-1.00,-1.0
2073,16952,-80,732,-1.00,-1.0
2075,16952,-108,712,-1.00,-1.0
2077,17036,-16,500,-1.00,-1.0
2079,16968,-32,624,-1.00,-1.0
2081,16944,-116,476,-1.00,-1.0
2083,16928,-24,540,-1.00,-1.0
2085,16984,0,456,-1.00,-1.0
2087,16948,68,620,-1.00,-1.0
2089,16920,28,536,-1.00,-1.0
2091,16960,-56,672,-1.00,-1.0
2093,17020,0,592,-1.00,-1.0
2095,16960,-104,540,-1.00,-1.0
2097,17012,-88,664,-1.00,-1.0
2099,16940,-116,520,-1.00,-1.0
2101,17000,-100,556,-1.00,-1.0
2103,16980,-60,624,-1.00,-1.0
2107,16972,-16,712,-1.00,-1.0
2109,16932,-96,592,-1.00,-1.0
2111,16984,-40,668,-1.00,-1.0
2113,16956,-80,660,-1.00,-1.0
2115,17036,-16,648,-1.00,-1.0
2117,17064,-92,660,-1.00,-1.0
2119,16948,24,728,-1.00,-1.0
2121,16904,-12,504,-1.00,-1.0
2122,17000,-92,496,-1.00,-1.0
2124,17044,20,524,-1.00,-1.0
2126,17100,-32,688,-1.00,-1.0
2128,17108,-92,576,-1.00,-1.0
2130,16976,-60,568,-1.00,-1.0
2132,17016,-140,536,-1.00,-1.0
2134,16964,-60,632,-1.00,-1.0
2136,17016,-128,660,-1.00,-1.0
2138,17032,-80,688,-1.00,-1.0
2142,17028,-72,596,-1.00,-1.0
2144,16992,-76,608,-1.00,-1.0
2146,17032,-92,596,-1.00,-1.0
2148,16980,-104,612,-1.00,-1.0
2150,16988,-148,664,-1.00,-1.0
2152,16940,0,576,-1.00,-1.0
2154,16948,-16,616,-1.00,-1.0
2156,16952,-8,548,-1.00,-1.0
2158,16956,12,536,-1.00,-1.0
2160,16936,96,504,-1.00,-1.0
2162,17024,-20,564,-1.00,-1.0
2164,16948,-28,548,-1.00,-1.0
2166,17032,-8,612,-1.00,-1.0
2168,16856,-88,572,-1.00,-1.0
2170,16972,-136,584,-1.00,-1.0
2171,16952,-68,612,-1.00,-1.0
2173,16908,-128,632,-1.00,-1.0
2178,17012,-32,556,-1.00,-1.0
2180,17008,-36,824,-1.00,-1.0
2181,17008,-140,576,-1.00,-1.0
2183,17000,-52,720,-1.00,-1.0
2185,16992,-48,488,-1.00,-1.0
2187,17000,-64,488,-1.00,-1.0
2189,16968,-104,568,-1.00,-1.0
2191,17004,-72,668,-1.00,-1.0
2193,16988,-164,548,-1.00,-1.0
2195,16992,-64,668,-1.00,-1.0
2197,17056,-204,536,-1.00,-1.0
2199,17040,-32,564,-1.00,-1.0
2201,16984,-112,412,-1.00,-1.0
2203,16904,-76,728,-1.00,-1.0
2205,16972,-120,472,-1.00,-1.0
2207,17036,-52,536,-1.00,-1.0
2209,17092,-112,632,-1.00,-1.0
2213,17012,-8,568,-1.00,-1.0
2215,16968,32,504,-1.00,-1.0
2217,17060,-4,628,-1.00,-1.0
2219,16984,0,532,-1.00,-1.0
2220,16996,40,440,-1.00,-1.0
2223,17064,-92,684,-1.00,-1.0
2225,17016,-20,776,-1.00,-1.0
2226,17028,32,488,-1.00,-1.0
2228,16984,-148,592,-1.00,-1.0
2230,16984,-120,644,-1.00,-1.0
2232,17048,-36,628,-1.00,-1.0
2234,17032,-68,496,-1.00,-1.0
2236,16968,-12,544,-1.00,-1.0
2238,16992,-60,680,-1.00,-1.0
2240,17028,-116,580,-1.00,-1.0
2242,17008,-112,596,-1.00,-1.0
2244,16960,-60,528,-1.00,-1.0
2248,17028,-16,644,-1.00,-1.0
2250,16988,-76,476,-1.00,-1.0
2252,17096,-52,548,-1.00,-1.0
2254,17036,-20,656,-1.00,-1.0
2256,16976,-60,536,-1.00,-1.0
2258,16976,-48,520,-1.00,-1.0
2260,17076,0,432,-1.00,-1.0
2262,17140,-36,628,-1.00,-1.0
2264,16944,-80,568,-1.00,-1.0
2266,16940,-36,668,-1.00,-1.0
2268,16976,-44,688,-1.00,-1.0
2270,17056,-48,696,-1.00,-1.0
2271,17056,-52,612,-1.00,-1.0
2274,17036,-64,660,-1.00,-1.0
2275,16984,-164,692,-1.00,-1.0
2277,17028,-60,752,-1.00,-1.0
2279,17080,-32,620,-1.00,-1.0
2283,16956,-24,528,-1.00,-1.0
2285,16916,-60,572,-1.00,-1.0
2287,17044,-24,556,-1.00,-1.0
2289,17108,4,572,-1.00,-1.0
2291,17088,-48,616,-1.00,-1.0
2293,16984,-128,636,-1.00,-1.0
2295,17068,-68,580,-1.00,-1.0
2297,17088,48,668,-1.00,-1.0
2299,16992,44,552,-1.00,-1.0
2301,16912,-44,580,-1.00,-1.0
2303,17016,-4,736,-1.00,-1.0
2305,17036,-36,708,-1.00,-1.0
2307,16980,-16,544,-1.00,-1.0
2309,17084,-40,536,-1.00,-1.0
2311,17000,-132,524,-1.00,-1.0
2313,17076,-52,672,-1.00,-1.0
2315,17060,-116,704,-1.00,-1.0
2319,16920,-112,540,-1.00,-1.0
2321,17020,-88,640,-1.00,-1.0
2323,17076,12,468,-1.00,-1.0
2324,16928,-88,744,-1.00,-1.0
2326,16960,36,536,-1.00,-1.0
2328,16916,-88,504,-1.00,-1.0
2330,16932,-52,684,-1.00,-1.0
2332,16956,24,728,-1.00,-1.0
2334,16984,-100,596,-1.00,-1.0
2336,16936,-80,624,-1.00,-1.0
2338,17000,60,540,-1.00,-1.0
2340,17028,-12,600,-1.00,-1.0
2342,16972,-48,696,-1.00,-1.0
2344,17024,-68,528,-1.00,-1.0
2346,16968,-100,712,-1.00,-1.0
2348,17036,-32,608,-1.00,-1.0
2350,17052,-60,596,-1.00,-1.0
2352,16900,16,612,-1.00,-1.0
2356,17020,-36,620,-1.00,-1.0
2358,17020,-52,648,-1.00,-1.0
2360,17072,-108,772,-1.00,-1.0
2362,16932,-88,548,-1.00,-1.0
2364,16948,-104,584,-1.00,-1.0
2366,17036,-76,484,-1.00,-1.0
2367,16988,-80,712,-1.00,-1.0
2369,16992,-180,444,-1.00,-1.0
2371,16916,-160,532,-1.00,-1.0
2373,17088,-40,536,-1.00,-1.0
2375,16988,-56,728,-1.00,-1.0
2377,17020,-32,484,-1.00,-1.0
2379,17048,-84,612,-1.00,-1.0
2381,16924,24,528,-1.00,-1.0
2383,17000,-116,644,-1.00,-1.0
2385,16940,-4,576,-1.00,-1.0
2387,17040,-144,500,-1.00,-1.0
2391,16992,-52,640,-1.00,-1.0
2393,16948,24,596,-1.00,-1.0
2395,17032,-112,660,-1.00,-1.0
2397,16932,-104,564,-1.00,-1.0
2399,17088,16,616,-1.00,-1.0
2401,16936,-92,600,-1.00,-1.0
2403,17008,-84,648,-1.00,-1.0
2405,17008,-8,456,-1.00,-1.0
2407,16952,-80,588,-1.00,-1.0
2409,16996,-92,660,-1.00,-1.0
2411,16944,-28,720,-1.00,-1.0
2412,16936,0,548,-1.00,-1.0
2414,16980,88,608,-1.00,-1.0
2416,17068,-76,536,-1.00,-1.0
2418,16948,-84,748,-1.00,-1.0
2420,16916,-16,584,-1.00,-1.0
2422,17084,-48,648,-1.00,-1.0
2426,17008,-76,564,-1.00,-1.0
2428,16872,-140,592,-1.00,-1.0
2430,16984,-20,620,-1.00,-1.0
2432,16996,-80,532,-1.00,-1.0
2434,16984,-76,676,-1.00,-1.0
2436,17032,-80,548,-1.00,-1.0
2438,16964,-4,520,-1.00,-1.0
2440,17016,32,664,-1.00,-1.0
2442,16992,-76,508,-1.00,-1.0
2444,17120,-16,528,-1.00,-1.0
2446,16948,-56,516,-1.00,-1.0
2448,17000,-16,552,-1.00,-1.0
2450,17068,32,660,-1.00,-1.0
2452,16992,-88,636,-1.00,-1.0
2454,16968,-72,656,-1.00,-1.0
2455,16936,16,556,-1.00,-1.0
2457,17104,-36,668,-1.00,-1.0
2462,16892,-48,584,-1.00,-1.0
2464,17008,40,696,-1.00,-1.0
2465,16936,-96,648,-1.00,-1.0
2467,16968,-52,592,-1.00,-1.0
2469,17004,-68,540,-1.00,-1.0
2471,16960,32,432,-1.00,-1.0
2473,17104,-64,628,-1.00,-1.0
2475,16996,-112,596,-1.00,-1.0
2477,16936,48,528,-1.00,-1.0
2479,16980,-16,660,-1.00,-1.0
2481,17024,0,364,-1.00,-1.0
2483,17008,-24,744,-1.00,-1.0
2485,17092,-52,528,-1.00,-1.0
2487,16980,-72,624,-1.00,-1.0
2489,17108,-28,632,-1.00,-1.0
2491,16968,4,592,-1.00,-1.0
2493,17048,-16,700,-1.00,-1.0
2497,16892,-4,644,-1.00,-1.0
2499,17020,-24,544,-1.00,-1.0
2501,16936,-8,564,-1.00,-1.0
2503,16992,-104,584,-1.00,-1.0
2505,16988,-180,696,-1.00,-1.0
2507,16984,-36,536,-1.00,-1.0
2509,16988,-76,608,-1.00,-1.0
2510,17000,-112,532,-1.00,-1.0
2512,17020,-44,604,-1.00,-1.0
2514,16936,-148,716,-1.00,-1.0
2516,17076,-76,544,-1.00,-1.0
2518,16984,-80,528,-1.00,-1.0
2520,16920,-28,608,-1.00,-1.0
2522,16944,-32,468,-1.00,-1.0
2524,16960,64,624,-1.00,-1.0
2526,16960,-64,388,-1.00,-1.0
2528,17024,-168,516,-1.00,-1.0
2532,17032,-76,744,-1.00,-1.0
2534,17016,-116,516,-1.00,-1.0
2536,17004,-12,548,-1.00,-1.0
2538,16992,-12,624,-1.00,-1.0
2540,16936,-92,620,-1.00,-1.0
2542,16924,4,568,-1.00,-1.0
2544,16944,-212,548,-1.00,-1.0
2546,17032,16,644,-1.00,-1.0
2548,17008,-100,468,-1.00,-1.0
2550,16892,-4,476,-1.00,-1.0
2552,16888,-92,420,-1.00,-1.0
2554,16868,240,560,-1.00,-1.0
2555,16740,-600,520,-1.00,-1.0
2558,17112,288,1224,-1.00,-1.0
2559,16348,-120,-540,-1.00,-1.0
2561,16512,260,1420,-1.00,-1.0
2563,18160,-2172,1860,-1.00,-1.0
2568,20504,-3152,5220,-1.00,-1.0
2569,15296,1280,-3724,-1.00,-1.0
2571,17252,-1392,116,-1.00,-1.0
2573,20128,-1416,5500,-1.00,-1.0
2575,16808,-1244,-1204,-1.00,-1.0
2577,14676,1336,-888,-1.00,-1.0
2579,19268,-2032,2908,-1.00,-1.0
2581,15168,1288,-6760,-1.00,-1.0
2583,16896,-480,-1552,-1.00,-1.0
2585,17312,1404,2468,-1.00,-1.0
2587,16348,-248,3348,-1.00,-1.0
2589,17996,-1072,-1228,-1.00,-1.0
2591,16624,612,2696,-1.00,-1.0
2593,16428,388,-3408,-1.00,-1.0
2595,18116,-1496,4060,-1.00,-1.0
2597,17240,-556,-696,-1.00,-1.0
2601,14684,576,-5772,-1.00,-1.0
2603,17856,-1036,4964,-1.00,-1.0
2605,18664,-796,128,-1.00,-1.0
2607,16344,356,1096,-1.00,-1.0
2609,15988,108,-1632,-1.00,-1.0
2611,17888,104,3588,-1.00,-1.0
2612,16352,-620,-1332,-1.00,-1.0
2614,17176,252,1692,-1.00,-1.0
2616,16776,540,-236,-1.00,-1.0
2618,16060,168,272,-1.00,-1.0
2620,17268,-340,1592,-1.00,-1.0
2622,16752,1192,-652,-1.00,-1.0
2624,15924,-728,-384,-1.00,-1.0
2626,18328,120,3004,-1.00,-1.0
2628,17700,-828,1588,-1.00,-1.0
2630,17872,-520,1676,-1.00,-1.0
2634,16008,160,-240,-1.00,-1.0
2636,18628,-432,2680,-1.00,-1.0
2638,15688,120,-1896,-1.00,-1.0
2640,17632,-472,2092,-1.00,-1.0
2642,16856,896,92,-1.00,-1.0
2644,16108,-284,248,-1.00,-1.0
2646,17072,368,880,-1.00,-1.0
2648,17068,-36,1200,-1.00,-1.0
2650,16040,1528,-1416,-1.00,-1.0
2652,16588,-864,460,-1.00,-1.0
2653,17036,2048,400,-1.00,-1.0
2655,15256,-2592,-200,-1.00,-1.0
2657,18488,956,4072,-1.00,-1.0
2659,14372,572,-4868,-1.00,-1.0
2661,18024,308,3344,-1.00,-1.0
2663,18464,-1844,388,-1.00,-1.0
2668,16492,-364,-2752,-1.00,-1.0
2670,17908,-360,5388,-1.00,-1.0
2671,16780,80,-2440,-1.00,-1.0
2673,17568,32,3212,-1.00,-1.0
2675,17964,-736,-628,-1.00,-1.0
2677,15888,428,1756,-1.00,-1.0
2679,19056,-1084,1652,-1.00,-1.0
2681,16060,-96,-208,-1.00,-1.0
2683,17540,-672,1112,-1.00,-1.0
2685,17808,-4,1688,-1.00,-1.0
2687,18084,-1504,1244,-1.00,-1.0
2689,16616,-40,-1548,-1.00,-1.0
2691,20024,-656,3996,-1.00,-1.0
2693,16924,-1316,-1300,-1.00,-1.0
2695,17576,-228,3740,-1.00,-1.0
2697,15840,700,-4300,-1.00,-1.0
2701,17624,-412,-1664,-1.00,-1.0
2703,16060,836,1652,-1.00,-1.0
2705,17536,-564,-1092,-1.00,-1.0
2707,19612,-2884,7556,-1.00,-1.0
2709,14744,1492,-5124,-1.00,-1.0
2711,20444,-260,5460,-1.00,-1.0
2713,15580,-592,-5308,-1.00,-1.0
2715,18792,-1316,6128,-1.00,-1.0
2717,18100,-524,164,-1.00,-1.0
2719,14816,628,-1448,-1.00,-1.0
2720,16124,-616,-244,-1.00,-1.0
2722,19344,-164,3704,-1.00,-1.0
2724,15072,40,-3052,-1.00,-1.0
2726,17584,828,1776,-1.00,-1.0
2728,15892,1112,-452,-1.00,-1.0
2730,16300,476,1132,-1.00,-1.0
2734,17692,2236,2128,-1.00,-1.0
2736,13944,-1084,-4432,-1.00,-1.0
2738,19520,-196,8064,-1.00,-1.0
2740,13540,2504,-8268,-1.00,-1.0
2742,17236,-1044,5524,-1.00,-1.0
2744,19420,-628,-480,-1.00,-1.0
2746,15052,1464,1304,-1.00,-1.0
2748,19168,-1528,4024,-1.00,-1.0
2750,18388,-1184,6908,-1.00,-1.0
2752,16948,-436,648,-1.00,-1.0
2754,18052,3852,-288,-1.00,-1.0
2756,12444,-2188,-4988,-1.00,-1.0
2758,21432,468,9244,-1.00,-1.0
2760,13416,1976,-6140,-1.00,-1.0
2762,14152,2596,-732,-1.00,-1.0
2763,19632,-2612,2764,-1.00,-1.0
2768,15336,-1392,-3692,-1.00,-1.0
2770,17500,716,4540,-1.00,-1.0
2772,13764,1232,-5040,-1.00,-1.0
2774,20200,-4068,8328,-1.00,-1.0
2776,17976,-484,-2016,-1.00,-1.0
2778,13044,2156,-2824,-1.00,-1.0
2779,22428,-3108,6708,-1.00,-1.0
2781,17404,-1944,904,-1.00,-1.0
2783,15344,652,-2104,-1.00,-1.0
2785,20280,-2124,4096,-1.00,-1.0
2787,17008,-1700,1688,-1.00,-1.0
2789,15180,392,-1848,-1.00,-1.0
2791,22340,-100,6380,-1.00,-1.0
2793,13360,-220,-7116,-1.00,-1.0
2795,18824,-328,6540,-1.00,-1.0
2797,19596,2160,728,-1.00,-1.0
2801,19700,-1096,6472,-1.00,-1.0
2803,16652,1364,944,-1.00,-1.0
2805,12756,2152,-4736,-1.00,-1.0
2807,17348,-836,416,-1.00,-1.0
2809,18292,2860,3032,-1.00,-1.0
2811,14564,-2292,-3272,-1.00,-1.0
2813,14720,-844,-4320,-1.00,-1.0
2815,17760,-388,4444,-1.00,-1.0
2817,20220,512,2404,-1.00,-1.0
2819,13700,-92,-3824,-1.00,-1.0
2821,16996,-236,2352,-1.00,-1.0
2823,19528,-608,4004,-1.00,-1.0
2825,14216,1380,-3320,-1.00,-1.0
2827,15748,172,-1376,-1.00,-1.0
2828,18716,2652,2652,-1.00,-1.0
2830,14720,-2920,-2604,-1.00,-1.0
2835,13028,2732,-6576,-1.00,-1.0
2837,17208,-1804,5076,-1.00,-1.0
2838,19424,-1292,1784,-1.00,-1.0
2840,14380,3432,-2984,-1.00,-1.0
2842,17488,-556,-1340,-1.00,-1.0
2844,19588,-1596,6560,-1.00,-1.0
2846,14812,1972,-2248,-1.00,-1.0
2848,21184,-3572,6916,-1.00,-1.0
2850,14136,656,-5640,-1.00,-1.0
2852,16312,220,1120,-1.00,-1.0
2854,21256,-2204,5884,-1.00,-1.0
2856,16612,-1148,-960,-1.00,-1.0
2858,14932,2356,-1348,-1.00,-1.0
2860,18796,-656,596,-1.00,-1.0
2862,15468,-176,-5744,-1.00,-1.0
2866,18632,2620,2868,-1.00,-1.0
2868,12996,-1068,-6192,-1.00,-1.0
2870,16448,516,-4056,-1.00,-1.0
2872,14244,1184,-360,-1.00,-1.0
2874,22480,-2444,7116,-1.00,-1.0
2876,15268,-792,-3656,-1.00,-1.0
2878,16252,756,768,-1.00,-1.0
2879,22284,-940,5772,-1.00,-1.0
2882,12916,-332,-4496,-1.00,-1.0
2884,17488,232,2396,-1.00,-1.0
2885,20160,300,2728,-1.00,-1.0
2887,13056,-60,-4812,-1.00,-1.0
2889,17680,288,3364,-1.00,-1.0
2891,18760,2536,1800,-1.00,-1.0
2893,11968,-724,-6232,-1.00,-1.0
2895,19776,-116,7064,-1.00,-1.0
2899,14148,-2212,304,-1.00,-1.0
2901,20596,-916,4864,-1.00,-1.0
2903,13448,3616,-4292,-1.00,-1.0
2905,17436,-2064,908,-1.00,-1.0
2907,19720,-1308,4652,-1.00,-1.0
2909,13920,4260,-4040,-1.00,-1.0
2911,23700,24,8416,-1.00,-1.0
2913,9404,52,-12904,-1.00,-1.0
2915,19924,-1008,8432,-1.00,-1.0
2917,18180,808,736,-1.00,-1.0
2919,13320,1216,-2696,-1.00,-1.0
2921,16480,712,-1716,-1.00,-1.0
2923,19624,1204,5496,-1.00,-1.0
2925,15028,-1336,-4924,-1.00,-1.0
2926,17468,344,3028,-1.00,-1.0
2928,15160,3996,-3804,-1.00,-1.0
2933,19428,-668,2868,-1.00,-1.0
2935,13392,3612,-4060,-1.00,-1.0
2936,17184,-1688,84,-1.00,-1.0
2938,20536,-2960,6900,-1.00,-1.0
2940,13696,2984,-5556,-1.00,-1.0
2942,18072,-1100,2332,-1.00,-1.0
2944,18268,-1864,2832,-1.00,-1.0
2946,15836,2536,592,-1.00,-1.0
2948,18928,-3752,1356,-1.00,-1.0
2950,17208,-556,1792,-1.00,-1.0
2952,14656,448,-4160,-1.00,-1.0
2954,20132,-2196,7548,-1.00,-1.0
2956,17736,-2544,-280,-1.00,-1.0
2958,12748,3284,-1204,-1.00,-1.0
2960,23260,-4328,7232,-1.00,-1.0
2962,11864,-1244,-11440,-1.00,-1.0
2966,24036,-3364,12856,-1.00,-1.0
2968,13796,-924,-6768,-1.00,-1.0
2970,14488,1572,-800,-1.00,-1.0
2972,14156,3140,-956,-1.00,-1.0
2974,15948,-996,1960,-1.00,-1.0
2976,13292,1760,-6092,-1.00,-1.0
2978,18220,3512,300,-1.00,-1.0
2980,13264,-2392,-4220,-1.00,-1.0
2982,19520,-600,7948,-1.00,-1.0
2984,13380,3724,-6028,-1.00,-1.0
2985,17068,-4268,3320,-1.00,-1.0
2987,21716,-2084,5212,-1.00,-1.0
2989,13028,2544,-4736,-1.00,-1.0
2991,17464,420,-1220,-1.00,-1.0
2993,20484,-3080,8224,-1.00,-1.0
2995,15076,3092,-3656,-1.00,-1.0
2999,16232,72,1624,-1.00,-1.0
3001,16772,3276,-1176,-1.00,-1.0
3003,17064,-5320,2772,-1.00,-1.0
3005,20384,-1764,7424,-1.00,-1.0
3007,10452,3568,-9664,-1.00,-1.0
3009,18872,-1828,4932,-1.00,-1.0
3011,20228,-3620,4868,-1.00,-1.0
3013,15104,3124,-1656,-1.00,-1.0
3015,15708,-4,-5232,-1.00,-1.0
3017,18788,-2400,9924,-1.00,-1.0
3019,16376,3504,-5584,-1.00,-1.0
3021,15960,-3004,2688,-1.00,-1.0
3023,20976,-1360,4620,-1.00,-1.0
3025,13552,3056,-3236,-1.00,-1.0
3027,21648,-1972,6364,-1.00,-1.0
3031,16560,3696,-2968,-1.00,-1.0
3033,15136,-1172,-4248,-1.00,-1.0
3035,19884,-1756,8820,-1.00,-1.0
3037,15008,1944,-848,-1.00,-1.0
3039,14964,-1424,-564,-1.00,-1.0
3041,20392,-1444,5668,-1.00,-1.0
3043,14808,1364,-884,-1.00,-1.0
3044,23248,-3908,9540,-1.00,-1.0
3047,13728,812,-4792,-1.00,-1.0
3049,13132,1556,-4160,-1.00,-1.0
3050,24412,-5028,13344,-1.00,-1.0
3052,14408,-656,-5884,-1.00,-1.0
3054,13128,3236,-4480,-1.00,-1.0
3056,22360,-6480,9628,-1.00,-1.0
3058,16920,-424,2020,-1.00,-1.0
3060,10916,4352,-9688,-1.00,-1.0
3064,19768,-2244,4536,-1.00,-1.0
3066,12152,5576,-8804,-1.00,-1.0
3068,18564,-2468,3336,-1.00,-1.0
3070,20032,-2344,6120,-1.00,-1.0
3072,15108,4504,-4400,-1.00,-1.0
3074,15552,-1484,-1468,-1.00,-1.0
3076,20152,-1532,7824,-1.00,-1.0
3078,17200,4144,-3604,-1.00,-1.0
3080,12892,116,-5608,-1.00,-1.0
3082,21956,-2720,9392,-1.00,-1.0
3084,17384,2760,-312,-1.00,-1.0
3086,11696,1588,-7228,-1.00,-1.0
3088,18016,-1028,4660,-1.00,-1.0
3090,22576,-2876,9124,-1.00,-1.0
3092,15668,-2772,-1036,-1.00,-1.0
3096,21688,-2328,7712,-1.00,-1.0
3098,15444,-660,-2232,-1.00,-1.0
3100,14048,3188,-6572,-1.00,-1.0
3102,20556,2272,6072,-1.00,-1.0
3104,17328,-780,2240,-1.00,-1.0
3106,12544,4552,-8452,-1.00,-1.0
3108,22288,-1076,4172,-1.00,-1.0
3109,10420,900,-6844,-1.00,-1.0
3112,16688,860,-648,-1.00,-1.0
3113,19696,-3220,8284,-1.00,-1.0
3115,16132,-448,-1848,-1.00,-1.0
3117,13528,2388,-6016,-1.00,-1.0
3119,21104,-2576,8608,-1.00,-1.0
3121,16184,-1204,-1444,-1.00,-1.0
3123,17084,2756,296,-1.00,-1.0
3125,15876,-116,-4496,-1.00,-1.0
3129,19244,1188,-840,-1.00,-1.0
3131,12100,1532,-4764,-1.00,-1.0
3133,17772,236,2116,-1.00,-1.0
3135,21368,-3240,8408,-1.00,-1.0
3137,13048,2048,-6220,-1.00,-1.0
3139,13828,1672,-3920,-1.00,-1.0
3141,21952,-3724,10308,-1.00,-1.0
3143,16116,-1940,-1128,-1.00,-1.0
3145,14596,4104,-5192,-1.00,-1.0
3147,18000,-2004,784,-1.00,-1.0
3149,19060,-1380,7260,-1.00,-1.0
3151,17620,-112,3132,-1.00,-1.0
3153,20720,-1200,4628,-1.00,-1.0
3155,14576,-732,-3644,-1.00,-1.0
3156,17532,1040,-56,-1.00,-1.0
3158,17672,-876,1732,-1.00,-1.0
3162,17884,-192,992,-1.00,-1.0
3164,16132,1772,-480,-1.00,-1.0
3166,16212,704,-1424,-1.00,-1.0
3168,19472,-3260,5572,-1.00,-1.0
3170,16716,344,116,-1.00,-1.0
3172,13288,1572,-5912,-1.00,-1.0
3174,20968,-4056,7236,-1.00,-1.0
3176,17780,-1040,1612,-1.00,-1.0
3178,15584,3376,-3576,-1.00,-1.0
3180,15712,-436,-2872,-1.00,-1.0
3182,20880,-1580,11696,-1.00,-1.0
3184,15172,664,-6440,-1.00,-1.0
3186,16036,332,2372,-1.00,-1.0
3188,16792,-644,-1624,-1.00,-1.0
3190,17688,-2912,4864,-1.00,-1.0
3194,16424,1872,660,-1.00,-1.0
3196,14856,1856,-4716,-1.00,-1.0
3198,21500,-56,9676,-1.00,-1.0
3200,16964,-1644,-3228,-1.00,-1.0
3202,15808,380,984,-1.00,-1.0
3204,14288,380,-2960,-1.00,-1.0
3206,18804,-3376,5800,-1.00,-1.0
3208,15764,56,-1820,-1.00,-1.0
3210,17908,2240,1288,-1.00,-1.0
3212,14380,844,-5744,-1.00,-1.0
3214,19400,560,7316,-1.00,-1.0
3216,18740,680,-16,-1.00,-1.0
3217,14064,1724,-3972,-1.00,-1.0
3219,19232,-2060,4632,-1.00,-1.0
3221,18172,984,2380,-1.00,-1.0
3223,13972,1292,-4088,-1.00,-1.0
3225,17080,1228,2980,-1.00,-1.0
3229,17072,1296,3216,-1.00,-1.0
3231,17900,1816,-1992,-1.00,-1.0
3233,13180,2652,-4456,-1.00,-1.0
3235,20532,-1112,6080,-1.00,-1.0
3237,17016,-360,288,-1.00,-1.0
3239,15252,-112,-8,-1.00,-1.0
3241,16908,2500,380,-1.00,-1.0
3243,13844,-800,-4240,-1.00,-1.0
3245,19764,544,6288,-1.00,-1.0
3247,17664,-1208,-252,-1.00,-1.0
3249,15224,2116,-1460,-1.00,-1.0
3251,15328,-592,-1036,-1.00,-1.0
3253,19144,-3464,5888,-1.00,-1.0
3255,16472,876,-668,-1.00,-1.0
3257,15860,2736,-1876,-1.00,-1.0
3261,21452,-2184,9248,-1.00,-1.0
3263,15740,-1084,-4696,-1.00,-1.0
3265,15796,1224,1540,-1.00,-1.0
3267,17524,640,-32,-1.00,-1.0
3269,15600,-444,-1124,-1.00,-1.0
3271,17724,1108,1272,-1.00,-1.0
3273,19372,-3456,4176,-1.00,-1.0
3275,14208,2504,-2668,-1.00,-1.0
3277,16132,152,-36,-1.00,-1.0
3279,17316,-292,836,-1.00,-1.0
3280,14252,2004,-704,-1.00,-1.0
3282,17348,-1176,-332,-1.00,-1.0
3284,17680,-224,4396,-1.00,-1.0
3286,17420,1204,-300,-1.00,-1.0
3288,17000,-340,764,-1.00,-1.0
3290,15284,-260,-2620,-1.00,-1.0
3294,16224,1444,-4704,-1.00,-1.0
3296,16660,1392,1356,-1.00,-1.0
3298,18648,-2140,3684,-1.00,-1.0
3300,16156,-212,-348,-1.00,-1.0
3302,15192,616,-4116,-1.00,-1.0
3304,17088,-3088,1080,-1.00,-1.0
3306,19948,1540,6284,-1.00,-1.0
3308,13728,1352,-5664,-1.00,-1.0
3310,15840,124,928,-1.00,-1.0
3312,20740,-3256,4760,-1.00,-1.0
3314,15656,1036,-1332,-1.00,-1.0
3316,15656,3376,-3516,-1.00,-1.0
3318,18200,-1568,5144,-1.00,-1.0
3320,17244,-248,-288,-1.00,-1.0
3322,16924,244,268,-1.00,-1.0
3324,16032,212,-2032,-1.00,-1.0
3328,16684,-1760,660,-1.00,-1.0
3330,16268,-352,364,-1.00,-1.0
3332,16296,-652,-20,-1.00,-1.0
3334,17456,-384,940,-1.00,-1.0
3336,17840,2852,1584,-1.00,-1.0
3338,17264,-1396,1872,-1.00,-1.0
3339,15460,-472,-936,-1.00,-1.0
3341,17704,2860,2724,-1.00,-1.0
3343,16044,-920,-1824,-1.00,-1.0
3345,17044,-728,4508,-1.00,-1.0
3347,16480,-408,-2744,-1.00,-1.0
3349,16272,2516,1004,-1.00,-1.0
3351,19420,1832,1036,-1.00,-1.0
3353,17128,-3096,2668,-1.00,-1.0
3355,15908,1312,-2256,-1.00,-1.0
3357,17552,1328,1448,-1.00,-1.0
3361,20036,1192,5444,-1.00,-1.0
3363,13616,-1716,-5192,-1.00,-1.0
3365,17836,396,4312,-1.00,-1.0
3367,18536,708,-1204,-1.00,-1.0
3369,15972,128,-520,-1.00,-1.0
3371,18980,-1352,2320,-1.00,-1.0
3373,13488,-1144,-1164,-1.00,-1.0
3375,18056,1440,2336,-1.00,-1.0
3377,17200,1224,-996,-1.00,-1.0
3379,18344,-812,3036,-1.00,-1.0
3381,16444,-872,-1612,-1.00,-1.0
3383,15704,-496,432,-1.00,-1.0
3385,18912,4124,1576,-1.00,-1.0
3387,15568,-1716,-1344,-1.00,-1.0
3388,17688,-976,4028,-1.00,-1.0
3390,18116,2000,4848,-1.00,-1.0
3395,18244,432,448,-1.00,-1.0
3397,16820,-1884,3308,-1.00,-1.0
3399,15728,76,-2724,-1.00,-1.0
3401,17260,1952,1304,-1.00,-1.0
3403,17552,-456,-1532,-1.00,-1.0
3405,17812,-1148,5476,-1.00,-1.0
3407,15164,-776,-2276,-1.00,-1.0
3409,16608,2200,1072,-1.00,-1.0
3411,18964,-2020,484,-1.00,-1.0
3413,16576,-716,436,-1.00,-1.0
3415,17420,204,1144,-1.00,-1.0
3416,15616,2056,-2660,-1.00,-1.0
3419,19240,1356,2784,-1.00,-1.0
3421,15256,-356,-1340,-1.00,-1.0
3422,16412,92,2068,-1.00,-1.0
3424,17476,-1276,508,-1.00,-1.0
3428,19700,-1632,6236,-1.00,-1.0
3430,15228,892,-2452,-1.00,-1.0
3432,20788,-2436,4092,-1.00,-1.0
3434,16612,-288,716,-1.00,-1.0
3436,14004,1796,-3676,-1.00,-1.0
3438,20256,1172,4120,-1.00,-1.0
3440,15792,-1000,-972,-1.00,-1.0
3442,16612,308,1872,-1.00,-1.0
3444,17456,660,1784,-1.00,-1.0
3446,18084,-108,-48,-1.00,-1.0
3448,17044,-1572,-1464,-1.00,-1.0
3450,16572,-2108,3368,-1.00,-1.0
3452,17708,1152,564,-1.00,-1.0
3454,15616,744,-1548,-1.00,-1.0
3456,18560,-1188,1948,-1.00,-1.0
3458,16608,-1184,1028,-1.00,-1.0
3462,17276,1984,-2604,-1.00,-1.0
3464,16360,-1764,2336,-1.00,-1.0
3466,17268,-984,1520,-1.00,-1.0
3468,15616,1132,724,-1.00,-1.0
3470,15748,1340,-4020,-1.00,-1.0
3472,18648,-1368,5080,-1.00,-1.0
3473,16164,-400,-736,-1.00,-1.0
3475,15972,2148,-1176,-1.00,-1.0
3477,17000,520,-904,-1.00,-1.0
3479,17820,-1232,3228,-1.00,-1.0
3481,17656,468,-1060,-1.00,-1.0
3483,17528,-2104,2540,-1.00,-1.0
3485,17968,-372,3384,-1.00,-1.0
3487,16368,2272,-1276,-1.00,-1.0
3489,17348,-1712,-412,-1.00,-1.0
3491,20680,-2424,7028,-1.00,-1.0
3495,17232,-60,1680,-1.00,-1.0
3497,17536,-84,-536,-1.00,-1.0
3499,15420,-1064,1396,-1.00,-1.0
3501,18548,-240,3088,-1.00,-1.0
3503,13852,2684,-4260,-1.00,-1.0
3505,18928,-356,2832,-1.00,-1.0
3507,18656,-2200,3516,-1.00,-1.0
3509,14980,2468,-2604,-1.00,-1.0
3511,16496,-316,-116,-1.00,-1.0
3513,18396,200,3004,-1.00,-1.0
3515,15824,-176,-1600,-1.00,-1.0
3517,19440,-108,3568,-1.00,-1.0
3519,16576,736,-4208,-1.00,-1.0
3521,16664,164,2628,-1.00,-1.0
3522,18620,-308,-24,-1.00,-1.0
3524,15984,-820,1196,-1.00,-1.0
3529,16000,-172,1220,-1.00,-1.0
3531,17392,-224,1456,-1.00,-1.0
3532,17124,1548,-792,-1.00,-1.0
3534,15316,764,-1704,-1.00,-1.0
3536,17168,220,1564,-1.00,-1.0
3538,18628,-1544,4384,-1.00,-1.0
3540,15244,-556,-680,-1.00,-1.0
3542,20124,16,6176,-1.00,-1.0
3544,15208,-308,-3240,-1.00,-1.0
3546,15852,-116,1416,-1.00,-1.0
3548,18388,-2220,2352,-1.00,-1.0
3550,16564,-92,1812,-1.00,-1.0
3552,17696,-1856,-724,-1.00,-1.0
3554,16492,292,1836,-1.00,-1.0
3556,16816,1200,-2024,-1.00,-1.0
3558,17984,-2160,3296,-1.00,-1.0
3562,16156,408,1660,-1.00,-1.0
3564,19948,-688,4180,-1.00,-1.0
3566,15416,148,-4500,-1.00,-1.0
3568,16388,-2428,1812,-1.00,-1.0
3570,20276,-216,4272,-1.00,-1.0
3572,14068,1044,-3532,-1.00,-1.0
3574,15528,-148,-1768,-1.00,-1.0
3575,20296,-1908,7028,-1.00,-1.0
3578,15800,1496,-3904,-1.00,-1.0
3579,16624,1244,-1056,-1.00,-1.0
3581,16776,-1764,2260,-1.00,-1.0
3583,18804,1524,3612,-1.00,-1.0
3585,13040,868,-6796,-1.00,-1.0
3587,19188,368,4588,-1.00,-1.0
3589,17260,848,588,-1.00,-1.0
3591,16660,144,-2276,-1.00,-1.0
3595,17908,-1132,6044,-1.00,-1.0
3597,17276,592,-2852,-1.00,-1.0
3599,19300,-484,5512,-1.00,-1.0
3601,15584,-752,-2020,-1.00,-1.0
3603,17432,956,2756,-1.00,-1.0
3605,17544,-728,-2684,-1.00,-1.0
3607,15924,-276,3036,-1.00,-1.0
3609,18212,-1600,612,-1.00,-1.0
3611,15096,1584,-1360,-1.00,-1.0
3613,19188,-1532,3068,-1.00,-1.0
3615,16004,1532,-320,-1.00,-1.0
3617,18464,20,2040,-1.00,-1.0
3619,16732,328,-2356,-1.00,-1.0
3621,17008,-1916,4084,-1.00,-1.0
3623,18300,300,1444,-1.00,-1.0
3624,15024,-168,-2980,-1.00,-1.0
3629,16216,-644,-840,-1.00,-1.0
3631,17688,1248,2148,-1.00,-1.0
3633,15096,1604,-5512,-1.00,-1.0
3635,16972,-580,5904,-1.00,-1.0
3637,18624,-48,1268,-1.00,-1.0
3639,15020,1944,-3316,-1.00,-1.0
3640,18460,-1744,2340,-1.00,-1.0
3643,16736,-232,2076,-1.00,-1.0
3645,17316,-112,728,-1.00,-1.0
3646,15884,188,-3916,-1.00,-1.0
3648,17384,1676,3884,-1.00,-1.0
3650,17132,-492,-136,-1.00,-1.0
3652,17728,532,2004,-1.00,-1.0
3654,15272,-1236,-2792,-1.00,-1.0
3656,17076,-64,-1852,-1.00,-1.0
3660,14516,-280,-3260,-1.00,-1.0
3662,17768,-224,1036,-1.00,-1.0
3664,16088,-628,-260,-1.00,-1.0
3666,16268,1328,1296,-1.00,-1.0
3668,16120,336,-728,-1.00,-1.0
3670,19872,-2680,5200,-1.00,-1.0
3672,16564,1744,-4420,-1.00,-1.0
3674,14600,48,-152,-1.00,-1.0
3676,19440,-1312,2572,-1.00,-1.0
3678,15740,-2020,2272,-1.00,-1.0
3680,17560,1884,48,-1.00,-1.0
3682,16596,1244,-2812,-1.00,-1.0
3684,20108,-6084,7220,-1.00,-1.0
3686,18504,-432,1212,-1.00,-1.0
3687,11644,2068,-4328,-1.00,-1.0
3689,17676,-1180,-932,-1.00,-1.0
3693,16136,2380,-3364,-1.00,-1.0
3695,14124,3300,-5688,-1.00,-1.0
3697,20288,-2996,7024,-1.00,-1.0
3699,18332,-64,3148,-1.00,-1.0
3701,15060,404,-1512,-1.00,-1.0
3703,16108,740,-3636,-1.00,-1.0
3705,18936,1156,2156,-1.00,-1.0
3707,14136,2732,-8736,-1.00,-1.0
3709,17348,-1736,6468,-1.00,-1.0
3711,20836,-1556,5128,-1.00,-1.0
3713,11788,2292,-8180,-1.00,-1.0
3715,18608,-24,1852,-1.00,-1.0
3717,16092,-1376,1312,-1.00,-1.0
3719,19156,728,4852,-1.00,-1.0
3721,13900,3200,-11008,-1.00,-1.0
3723,17480,-592,6264,-1.00,-1.0
3727,13556,2772,-3704,-1.00,-1.0
3729,17164,-716,-2832,-1.00,-1.0
3731,16832,-1248,4668,-1.00,-1.0
3733,20704,-4128,5572,-1.00,-1.0
3735,12332,2092,-7332,-1.00,-1.0
3737,17216,-244,2004,-1.00,-1.0
3739,20768,-1656,1584,-1.00,-1.0
3740,15284,-496,-796,-1.00,-1.0
3743,19228,1116,2496,-1.00,-1.0
3745,13476,1664,-3492,-1.00,-1.0
3746,19856,-2984,9460,-1.00,-1.0
3748,17580,1140,-3160,-1.00,-1.0
3750,13640,816,-1660,-1.00,-1.0
3752,22408,-3008,4708,-1.00,-1.0
3754,14644,592,812,-1.00,-1.0
3756,19232,-1284,1312,-1.00,-1.0
3761,19236,-4700,8660,-1.00,-1.0
3763,14560,128,-4736,-1.00,-1.0
3764,18756,-1204,5952,-1.00,-1.0
3766,16224,40,-6092,-1.00,-1.0
3768,17532,-944,5108,-1.00,-1.0
3770,21424,-2024,3924,-1.00,-1.0
3772,12448,4228,-7336,-1.00,-1.0
3774,15664,-2232,52,-1.00,-1.0
3776,21956,-612,9300,-1.00,-1.0
3778,13884,-472,-4352,-1.00,-1.0
3780,16812,-500,1632,-1.00,-1.0
3782,18328,-2676,4128,-1.00,-1.0
3784,15808,2588,-6768,-1.00,-1.0
3786,12116,800,-2940,-1.00,-1.0
3788,24292,-2144,11140,-1.00,-1.0
3790,12348,156,-7308,-1.00,-1.0
3794,12188,604,-8892,-1.00,-1.0
3796,18724,-500,10972,-1.00,-1.0
3798,20576,-1180,-4816,-1.00,-1.0
3800,9444,3612,-5424,-1.00,-1.0
3802,20916,-1768,3296,-1.00,-1.0
3804,16780,52,6904,-1.00,-1.0
3806,18684,1376,-2920,-1.00,-1.0
3808,12224,2980,-9440,-1.00,-1.0
3810,21956,-4212,13196,-1.00,-1.0
3812,18832,208,1052,-1.00,-1.0
3813,9112,2676,-10580,-1.00,-1.0
3816,21604,-2752,5612,-1.00,-1.0
3817,16108,-1172,3632,-1.00,-1.0
3819,17908,1028,372,-1.00,-1.0
3821,15868,1956,-5332,-1.00,-1.0
3826,21528,-2668,4656,-1.00,-1.0
3827,13308,1024,-5564,-1.00,-1.0
3829,18244,248,2416,-1.00,-1.0
3831,14324,-496,-1448,-1.00,-1.0
3833,19232,-96,4796,-1.00,-1.0
3835,15128,940,-7332,-1.00,-1.0
3837,16500,372,4040,-1.00,-1.0
3839,18432,-1724,1348,-1.00,-1.0
3841,15208,2368,-340,-1.00,-1.0
3843,17200,-88,-2596,-1.00,-1.0
3845,16372,-1392,1536,-1.00,-1.0
3847,18264,2372,-1656,-1.00,-1.0
3849,12236,3064,-5564,-1.00,-1.0
3851,24668,-5864,14856,-1.00,-1.0
3853,14164,2188,-6248,-1.00,-1.0
3855,12168,1340,-3716,-1.00,-1.0
3859,13824,-2768,-512,-1.00,-1.0
3861,18000,2584,-864,-1.00,-1.0
3863,13252,1332,-5952,-1.00,-1.0
3865,20608,-1956,10468,-1.00,-1.0
3867,14692,-352,-6020,-1.00,-1.0
3869,17304,1668,5396,-1.00,-1.0
3871,14904,472,-7032,-1.00,-1.0
3872,15200,1252,8816,-1.00,-1.0
3875,21372,-1048,-2420,-1.00,-1.0
3877,11012,3404,-6740,-1.00,-1.0
3878,21660,164,3580,-1.00,-1.0
3880,15352,644,1120,-1.00,-1.0
3882,19944,-108,4760,-1.00,-1.0
3884,12304,3408,-12904,-1.00,-1.0
3886,15912,-1092,7892,-1.00,-1.0
3888,26400,-4236,12244,-1.00,-1.0
3892,17408,-1184,96,-1.00,-1.0
3894,21420,-1320,9376,-1.00,-1.0
3896,15632,524,-3868,-1.00,-1.0
3898,15624,1452,-3952,-1.00,-1.0
3900,16176,516,2716,-1.00,-1.0
3902,19004,184,4552,-1.00,-1.0
3904,13412,-540,-3520,-1.00,-1.0
3906,16916,772,-1244,-1.00,-1.0
3908,17384,-3780,3704,-1.00,-1.0
3910,17704,-160,3148,-1.00,-1.0
3912,13508,3408,-3668,-1.00,-1.0
3914,18532,-4524,4688,-1.00,-1.0
3916,20348,-1976,4996,-1.00,-1.0
3918,14032,2464,-4520,-1.00,-1.0
3920,16100,1336,-5784,-1.00,-1.0
3921,19944,-5464,12300,-1.00,-1.0
3926,8120,5644,-15236,-1.00,-1.0
3928,21932,-6448,13988,-1.00,-1.0
3929,22356,-28,6540,-1.00,-1.0
3932,8848,4184,-12636,-1.00,-1.0
3933,21644,-1796,4496,-1.00,-1.0
3935,19432,-1736,8012,-1.00,-1.0
3937,11524,684,-8688,-1.00,-1.0
3939,21680,-2948,8148,-1.00,-1.0
3941,15292,836,-1424,-1.00,-1.0
3943,12980,2176,-3920,-1.00,-1.0
3945,25236,-4132,12188,-1.00,-1.0
3947,14188,2032,-7096,-1.00,-1.0
3949,13496,1884,-2188,-1.00,-1.0
3951,22328,-3808,9792,-1.00,-1.0
3953,12820,2208,-6604,-1.00,-1.0
3957,22392,-2236,11376,-1.00,-1.0
3959,19264,-2964,2360,-1.00,-1.0
3961,16692,-912,5432,-1.00,-1.0
3963,24252,-4708,13000,-1.00,-1.0
3965,10936,5488,-13452,-1.00,-1.0
3967,13304,-548,-4928,-1.00,-1.0
3969,27092,-4968,19796,-1.00,-1.0
3971,11340,1512,-12188,-1.00,-1.0
3973,15292,2056,120,-1.00,-1.0
3975,17132,-856,136,-1.00,-1.0
3976,20616,-1544,9528,-1.00,-1.0
3978,15660,772,-8816,-1.00,-1.0
3980,15848,3240,3640,-1.00,-1.0
3982,19488,-2860,-596,-1.00,-1.0
3984,18356,-116,4124,-1.00,-1.0
3986,15184,32,-5836,-1.00,-1.0
3990,18456,-4376,3456,-1.00,-1.0
3992,14912,792,544,-1.00,-1.0
3994,15184,2420,-3824,-1.00,-1.0
3996,19916,-1696,3064,-1.00,-1.0
3998,18504,-1116,3176,-1.00,-1.0
4000,15820,1936,-2972,-1.00,-1.0
4002,11936,2488,-5448,-1.00,-1.0
4004,25056,-6172,17500,-1.00,-1.0
4006,13428,2312,-7356,-1.00,-1.0
4008,12940,2352,-3740,-1.00,-1.0
4010,12600,-384,-7964,-1.00,-1.0
4012,16976,-1380,2052,-1.00,-1.0
4014,17328,744,-3092,-1.00,-1.0
4016,19228,-2748,11536,-1.00,-1.0
4018,17424,412,-7488,-1.00,-1.0
4022,17984,3080,4672,-1.00,-1.0
4024,13376,-1740,-10816,-1.00,-1.0
4026,15256,-112,-4588,-1.00,-1.0
4028,16716,3596,3436,-1.00,-1.0
4030,17772,-5192,520,-1.00,-1.0
4032,20908,-1496,8084,-1.00,-1.0
4034,12736,1924,-8496,-1.00,-1.0
4035,18972,-952,3288,-1.00,-1.0
4038,19080,-2276,5776,-1.00,-1.0
4039,13776,896,-2480,-1.00,-1.0
4041,15448,1732,-996,-1.00,-1.0
4043,20100,-5220,7892,-1.00,-1.0
4045,17860,1880,172,-1.00,-1.0
4047,12996,-160,-6576,-1.00,-1.0
4049,22060,-1368,7816,-1.00,-1.0
4051,14896,-1484,-3188,-1.00,-1.0
4055,18096,44,172,-1.00,-1.0
4057,15444,-1852,2724,-1.00,-1.0
4059,17124,-1352,-2536,-1.00,-1.0
4061,19024,1304,5296,-1.00,-1.0
4063,13980,756,-7508,-1.00,-1.0
4065,18268,148,7512,-1.00,-1.0
4067,17964,116,108,-1.00,-1.0
4069,14868,2704,-1684,-1.00,-1.0
4071,18572,-2104,1132,-1.00,-1.0
4073,20096,276,5876,-1.00,-1.0
4075,19176,-1548,3776,-1.00,-1.0
4077,17872,-1452,4344,-1.00,-1.0
4079,18136,2132,208,-1.00,-1.0
4081,13380,2720,-8732,-1.00,-1.0
4083,22668,-5456,12268,-1.00,-1.0
4085,18340,1472,-1552,-1.00,-1.0
4089,23128,-3440,12196,-1.00,-1.0
4091,15904,-2520,12,-1.00,-1.0
4093,13764,2060,-4916,-1.00,-1.0
4095,18132,-308,-724,-1.00,-1.0
4097,18700,80,5224,-1.00,-1.0
4099,15416,-1480,-4080,-1.00,-1.0
4100,16200,1604,3628,-1.00,-1.0
4102,15008,-508,-2476,-1.00,-1.0
4104,15984,668,3792,-1.00,-1.0
4106,22048,-1136,-384,-1.00,-1.0
4108,13212,1316,-5968,-1.00,-1.0
4110,19524,-1948,4464,-1.00,-1.0
4112,17444,540,4840,-1.00,-1.0
4114,12668,4472,-6208,-1.00,-1.0
4116,15212,2020,-3788,-1.00,-1.0
4118,24284,-7344,17472,-1.00,-1.0
4122,5588,4352,-17752,-1.00,-1.0
4124,28976,-5616,22592,-1.00,-1.0
4126,14052,-964,-5004,-1.00,-1.0
4128,11008,2924,-4912,-1.00,-1.0
4130,23244,-2064,8260,-1.00,-1.0
4132,15896,-192,2784,-1.00,-1.0
4134,16008,-664,-7680,-1.00,-1.0
4136,21720,-500,9496,-1.00,-1.0
4138,14372,648,-7220,-1.00,-1.0
4140,22352,-96,5836,-1.00,-1.0
4142,13692,76,-8344,-1.00,-1.0
4144,17464,596,1640,-1.00,-1.0
4146,20520,-1792,4832,-1.00,-1.0
4148,10032,4400,-7488,-1.00,-1.0
4149,20480,-3596,6244,-1.00,-1.0
4154,12716,2736,-7716,-1.00,-1.0
4156,18552,-100,1256,-1.00,-1.0
4158,20748,-3916,5888,-1.00,-1.0
4160,14808,2696,-2468,-1.00,-1.0
4162,10948,300,-6576,-1.00,-1.0
4164,24676,-3024,17472,-1.00,-1.0
4165,11860,536,-12024,-1.00,-1.0
4167,16668,344,3096,-1.00,-1.0
4169,22920,-3144,4716,-1.00,-1.0
4171,10604,3844,-5772,-1.00,-1.0
4173,18188,-3572,1368,-1.00,-1.0
4175,20220,-32,9536,-1.00,-1.0
4177,9480,2968,-12012,-1.00,-1.0
4179,22912,-3412,13096,-1.00,-1.0
4181,17112,928,-2500,-1.00,-1.0
4183,13588,4452,-4652,-1.00,-1.0
4187,19076,-2012,8624,-1.00,-1.0
4189,11696,2008,-8588,-1.00,-1.0
4191,17852,-1104,5048,-1.00,-1.0
4193,19292,-1876,3528,-1.00,-1.0
4195,15840,2896,-5884,-1.00,-1.0
4197,14700,-832,-1520,-1.00,-1.0
4199,11872,4128,-8788,-1.00,-1.0
4201,16908,-3572,492,-1.00,-1.0
4203,25696,-1216,13232,-1.00,-1.0
4205,8740,2760,-15872,-1.00,-1.0
4206,18820,-616,8140,-1.00,-1.0
4208,17904,-2740,3248,-1.00,-1.0
4210,16980,580,5420,-1.00,-1.0
4212,13948,884,-12184,-1.00,-1.0
4214,20988,-140,11788,-1.00,-1.0
4216,15304,-932,-9688,-1.00,-1.0
4220,14496,424,-6620,-1.00,-1.0
4222,12308,4020,2452,-1.00,-1.0
4224,23956,-3680,6284,-1.00,-1.0
4226,13780,2460,-5312,-1.00,-1.0
4228,17172,524,-2516,-1.00,-1.0
4230,18164,-952,3228,-1.00,-1.0
4232,15140,-292,1892,-1.00,-1.0
4234,15500,2700,-4332,-1.00,-1.0
4236,15944,-1776,3932,-1.00,-1.0
4238,22332,-260,5940,-1.00,-1.0
4240,10592,3644,-13536,-1.00,-1.0
4242,19684,1028,4080,-1.00,-1.0
4244,19044,-804,1056,-1.00,-1.0
4246,9448,2596,-6100,-1.00,-1.0
4248,20668,1164,3260,-1.00,-1.0
4249,10108,2672,-12044,-1.00,-1.0
4254,22488,-3168,7712,-1.00,-1.0
4256,19448,692,-556,-1.00,-1.0
4258,23256,-912,12012,-1.00,-1.0
4260,18156,-880,6956,-1.00,-1.0
4262,15544,1316,1024,-1.00,-1.0
4264,22020,-1860,2788,-1.00,-1.0
4265,13388,848,-436,-1.00,-1.0
4268,14748,-880,-700,-1.00,-1.0
4270,18300,124,6640,-1.00,-1.0
4271,15956,3224,-5100,-1.00,-1.0
4273,16880,412,-3140,-1.00,-1.0
4275,22160,-1916,7396,-1.00,-1.0
4277,15832,2108,-1568,-1.00,-1.0
4279,11232,1244,-6036,-1.00,-1.0
4281,23160,-4236,13488,-1.00,-1.0
4286,16120,1716,-2500,-1.00,-1.0
4288,18936,-1432,172,-1.00,-1.0
4289,18784,-540,5104,-1.00,-1.0
4291,13752,548,-5824,-1.00,-1.0
4293,17292,-192,6472,-1.00,-1.0
4295,17396,1220,-1064,-1.00,-1.0
4297,17468,-2812,3240,-1.00,-1.0
4299,18400,568,140,-1.00,-1.0
4301,14280,1392,-2572,-1.00,-1.0
4303,21664,-1784,7296,-1.00,-1.0
4305,15072,-1344,-1784,-1.00,-1.0
4307,15200,528,884,-1.00,-1.0
4309,19452,-1080,1412,-1.00,-1.0
4311,17436,-2588,3908,-1.00,-1.0
4313,17788,3268,-5816,-1.00,-1.0
4315,11892,244,-4072,-1.00,-1.0
4319,9956,4576,-11980,-1.00,-1.0
4321,13924,-1244,2500,-1.00,-1.0
4323,23808,-2200,9724,-1.00,-1.0
4325,12268,2164,-5176,-1.00,-1.0
4327,16184,652,-5324,-1.00,-1.0
4329,22744,-2172,11628,-1.00,-1.0
4331,13140,1204,-8116,-1.00,-1.0
4333,22556,-88,11708,-1.00,-1.0
4335,20164,-688,4988,-1.00,-1.0
4337,18076,468,7340,-1.00,-1.0
4338,18348,-1672,1936,-1.00,-1.0
4340,13232,4708,-588,-1.00,-1.0
4342,20692,-1004,784,-1.00,-1.0
4344,15528,1604,-668,-1.00,-1.0
4346,17820,720,-580,-1.00,-1.0
4348,16988,-484,848,-1.00,-1.0
4352,13680,3116,-6524,-1.00,-1.0
4354,14732,-2980,1188,-1.00,-1.0
4356,26040,-1640,12496,-1.00,-1.0
4358,8076,4760,-18892,-1.00,-1.0
4360,19844,-1736,8832,-1.00,-1.0
4362,20636,-2932,5696,-1.00,-1.0
4364,9176,4008,-5380,-1.00,-1.0
4366,21112,-4752,4036,-1.00,-1.0
4368,17972,464,4600,-1.00,-1.0
4370,12240,1748,-11468,-1.00,-1.0
4372,21612,-2676,8992,-1.00,-1.0
4374,18756,876,-2396,-1.00,-1.0
4376,12944,-328,-1696,-1.00,-1.0
4378,18536,-1512,4868,-1.00,-1.0
4380,16240,1660,2668,-1.00,-1.0
4382,23112,-2916,6596,-1.00,-1.0
4386,13176,2780,-8820,-1.00,-1.0
4388,16288,-384,1420,-1.00,-1.0
4390,21772,-4204,9160,-1.00,-1.0
4392,14336,1984,-2396,-1.00,-1.0
4394,14420,2692,-6068,-1.00,-1.0
4396,20296,-5148,7980,-1.00,-1.0
4397,8992,3104,-14492,-1.00,-1.0
4400,9168,3024,-15332,-1.00,-1.0
4402,21044,-1976,11456,-1.00,-1.0
4403,12112,4736,-7496,-1.00,-1.0
4405,23704,-1400,4768,-1.00,-1.0
4407,17800,-360,1760,-1.00,-1.0
4409,13824,-528,-2840,-1.00,-1.0
4411,18300,1180,4248,-1.00,-1.0
4413,14616,2240,-1392,-1.00,-1.0
4417,18928,208,2616,-1.00,-1.0
4419,13164,2448,-6328,-1.00,-1.0
4421,20784,-3196,8368,-1.00,-1.0
4423,17528,-2268,1740,-1.00,-1.0
4425,12324,1848,-5128,-1.00,-1.0
4427,19996,-2440,2404,-1.00,-1.0
4429,18844,-2696,5676,-1.00,-1.0
4431,17476,3348,-4064,-1.00,-1.0
4433,11576,1308,-7628,-1.00,-1.0
4435,23636,-2996,15172,-1.00,-1.0
4437,13132,3496,-8716,-1.00,-1.0
4439,14564,-492,916,-1.00,-1.0
4441,21732,708,5084,-1.00,-1.0
4443,13096,1672,-2652,-1.00,-1.0
4445,18284,736,-1844,-1.00,-1.0
4447,17960,-1068,4676,-1.00,-1.0
4451,18100,-1728,2604,-1.00,-1.0
4453,18260,2356,-8,-1.00,-1.0
4455,13860,-956,-6592,-1.00,-1.0
4457,22544,-888,11872,-1.00,-1.0
4459,14540,1080,-8244,-1.00,-1.0
4461,13828,-3244,5144,-1.00,-1.0
4463,19300,-2560,2896,-1.00,-1.0
4465,15164,3348,2060,-1.00,-1.0
4467,15892,-372,-9548,-1.00,-1.0
4469,20524,-2136,11400,-1.00,-1.0
4471,21136,-1888,2988,-1.00,-1.0
4473,7832,4704,-13752,-1.00,-1.0
4475,23312,-7380,14632,-1.00,-1.0
4477,19260,576,1596,-1.00,-1.0
4479,10552,1644,-8700,-1.00,-1.0
4483,17072,496,2376,-1.00,-1.0
4485,13760,-2332,-2436,-1.00,-1.0
4487,20116,-132,5412,-1.00,-1.0
4489,14076,3068,-2972,-1.00,-1.0
4491,15020,-2088,-2448,-1.00,-1.0
4493,24428,620,10168,-1.00,-1.0
4495,12108,1248,-12716,-1.00,-1.0
4496,16452,1548,2540,-1.00,-1.0
4499,22444,-3216,9276,-1.00,-1.0
4500,10264,4496,-7000,-1.00,-1.0
4502,23104,-3536,11272,-1.00,-1.0
4504,12412,308,-7204,-1.00,-1.0
4506,16052,168,1988,-1.00,-1.0
4508,21996,-2092,7496,-1.00,-1.0
4510,13544,1512,-6276,-1.00,-1.0
4512,15700,-724,-260,-1.00,-1.0
4516,9984,5036,-13976,-1.00,-1.0
4518,17080,-2936,5308,-1.00,-1.0
4520,21124,-2672,7564,-1.00,-1.0
4522,13220,3764,-4792,-1.00,-1.0
4524,17840,-468,-2464,-1.00,-1.0
4526,19416,-904,4784,-1.00,-1.0
4528,13596,-1168,-2404,-1.00,-1.0
4530,19396,1024,3812,-1.00,-1.0
4532,15172,3200,-4064,-1.00,-1.0
4534,16824,-3592,4072,-1.00,-1.0
4536,19888,-792,4568,-1.00,-1.0
4538,14684,2032,-3492,-1.00,-1.0
4540,15264,-672,-2528,-1.00,-1.0
4542,22912,-4956,12976,-1.00,-1.0
4544,11724,2076,-9456,-1.00,-1.0
4545,17988,-40,2152,-1.00,-1.0
4550,17372,912,1332,-1.00,-1.0
4552,12920,-2004,-3720,-1.00,-1.0
4554,22884,-616,11868,-1.00,-1.0
4556,10520,6044,-15492,-1.00,-1.0
4558,19392,-4668,8532,-1.00,-1.0
4560,21544,-1496,5760,-1.00,-1.0
4561,11660,3472,-5876,-1.00,-1.0
4564,15040,1820,-5876,-1.00,-1.0
4565,23068,-2988,14040,-1.00,-1.0
4567,14544,896,-11080,-1.00,-1.0
4569,18976,92,12428,-1.00,-1.0
4571,18736,-3796,-1708,-1.00,-1.0
4573,14760,4192,-1976,-1.00,-1.0
4575,17400,-3008,-2284,-1.00,-1.0
4577,19968,276,8000,-1.00,-1.0
4581,21552,-564,11452,-1.00,-1.0
4583,12644,-1532,-11528,-1.00,-1.0
4585,19664,3092,9512,-1.00,-1.0
4587,14348,-1928,-10016,-1.00,-1.0
4589,21552,440,13616,-1.00,-1.0
4591,11272,2936,-17008,-1.00,-1.0
4593,16276,-1728,12736,-1.00,-1.0
4595,24132,-604,1316,-1.00,-1.0
4597,5740,7048,-14976,-1.00,-1.0
4599,25772,-2056,10584,-1.00,-1.0
4601,15744,4436,1096,-1.00,-1.0
4603,14580,-1536,-2052,-1.00,-1.0
4605,19112,2092,-500,-1.00,-1.0
4607,14148,-2804,876,-1.00,-1.0
4609,20356,1460,616,-1.00,-1.0
4611,12132,4248,-6288,-1.00,-1.0
4615,17208,3252,-412,-1.00,-1.0
4617,14812,-3424,1668,-1.00,-1.0
4619,19000,1532,1764,-1.00,-1.0
4621,14280,4052,-1048,-1.00,-1.0
4623,17084,-544,-3312,-1.00,-1.0
4625,20352,-1144,8652,-1.00,-1.0
4626,16176,2504,-3680,-1.00,-1.0
4628,14896,-1788,64,-1.00,-1.0
4630,19984,-1536,5560,-1.00,-1.0
4632,14012,-3328,-2584,-1.00,-1.0
4634,14808,-92,-7980,-1.00,-1.0
4636,18384,-1092,10340,-1.00,-1.0
4638,19504,276,-4380,-1.00,-1.0
4640,11828,568,-2004,-1.00,-1.0
4642,19908,552,1400,-1.00,-1.0
4644,13284,1252,-2420,-1.00,-1.0
4648,14728,2148,-4144,-1.00,-1.0
4650,20544,-1628,8796,-1.00,-1.0
4652,13296,148,-8236,-1.00,-1.0
4654,19344,-3656,12144,-1.00,-1.0
4656,16560,-1828,-6920,-1.00,-1.0
4658,9024,4616,-1052,-1.00,-1.0
4660,27124,-3332,6512,-1.00,-1.0
4662,9044,2816,-9212,-1.00,-1.0
4664,19688,-1904,5096,-1.00,-1.0
4666,20028,2460,2676,-1.00,-1.0
4668,12132,-1496,-3712,-1.00,-1.0
4670,23340,-2752,5396,-1.00,-1.0
4672,14480,-272,-2396,-1.00,-1.0
4674,18140,-268,1696,-1.00,-1.0
4676,15852,-144,-1316,-1.00,-1.0
4680,13412,4496,-8768,-1.00,-1.0
4682,13540,-1072,592,-1.00,-1.0
4684,24784,-1448,11836,-1.00,-1.0
4686,10404,5012,-10648,-1.00,-1.0
4688,17820,-1096,2112,-1.00,-1.0
4690,18140,-1452,2676,-1.00,-1.0
4691,22340,-1580,8972,-1.00,-1.0
4693,10520,2116,-19068,-1.00,-1.0
4695,21028,-1584,16192,-1.00,-1.0
4697,21636,-3024,-1280,-1.00,-1.0
4699,18648,-1864,8900,-1.00,-1.0
4701,17192,-1880,2240,-1.00,-1.0
4703,22208,2064,6856,-1.00,-1.0
4705,8764,-164,-23840,-1.00,-1.0
4707,25316,-2888,24488,-1.00,-1.0
4711,7392,5748,-6812,-1.00,-1.0
4713,20076,-1964,-1456,-1.00,-1.0
4715,20824,-4296,21852,-1.00,-1.0
4717,12024,-760,-14576,-1.00,-1.0
4719,11220,7396,-4328,-1.00,-1.0
4721,20960,-7980,5280,-1.00,-1.0
4723,21276,-2312,12476,-1.00,-1.0
4725,7548,4956,-20384,-1.00,-1.0
4727,20548,-2452,11244,-1.00,-1.0
4729,17708,-2724,2260,-1.00,-1.0
4731,21948,1700,6916,-1.00,-1.0
4733,8928,2652,-20144,-1.00,-1.0
4735,24644,-2720,20784,-1.00,-1.0
4737,19760,0,-3044,-1.00,-1.0
4738,13504,3088,-1084,-1.00,-1.0
4740,18996,2288,-6800,-1.00,-1.0
4744,20340,320,-528,-1.00,-1.0
4746,7952,7448,-11908,-1.00,-1.0
4748,23392,-2960,13340,-1.00,-1.0
4750,9252,4784,-924,-1.00,-1.0
4752,19244,-1380,-12160,-1.00,-1.0
4754,18436,-3688,20944,-1.00,-1.0
4756,16952,-1984,-10624,-1.00,-1.0
4758,4396,13560,-12000,-1.00,-1.0
4760,28160,-11032,16600,-1.00,-1.0
4762,16848,2288,3604,-1.00,-1.0
4764,8584,5172,-15680,-1.00,-1.0
4766,20216,-884,6220,-1.00,-1.0
4768,22568,-4696,9852,-1.00,-1.0
4770,14400,948,-11360,-1.00,-1.0
4772,15796,-1352,1380,-1.00,-1.0
4776,17756,2356,-1360,-1.00,-1.0
4778,14004,1056,-7424,-1.00,-1.0
4780,19800,880,5480,-1.00,-1.0
4782,17124,-2644,4716,-1.00,-1.0
4784,15696,2920,-644,-1.00,-1.0
4786,12408,3076,-9028,-1.00,-1.0
4788,17732,-4636,4784,-1.00,-1.0
4789,21632,-2596,8604,-1.00,-1.0
4792,14404,2692,-6108,-1.00,-1.0
4794,13880,2044,-5852,-1.00,-1.0
4795,19208,-4140,9388,-1.00,-1.0
4797,25984,-1172,8276,-1.00,-1.0
4799,5524,4076,-21616,-1.00,-1.0
4801,20196,-456,11288,-1.00,-1.0
4803,22320,-688,6892,-1.00,-1.0
4805,22224,-4480,8352,-1.00,-1.0
4809,13520,564,-44,-1.00,-1.0
4811,18616,176,4184,-1.00,-1.0
4813,17688,-1300,-1656,-1.00,-1.0
4815,17460,-2288,-3424,-1.00,-1.0
4817,17136,-1148,7500,-1.00,-1.0
4819,20608,1808,536,-1.00,-1.0
4821,7860,3716,-12832,-1.00,-1.0
4823,26292,-6596,20508,-1.00,-1.0
4825,15548,2464,-10524,-1.00,-1.0
4827,10520,548,-2804,-1.00,-1.0
4829,21684,520,2560,-1.00,-1.0
4831,11660,544,2480,-1.00,-1.0
4833,19420,1476,-2736,-1.00,-1.0
4835,12240,3132,-4428,-1.00,-1.0
4837,22104,-3096,7160,-1.00,-1.0
4839,12900,1560,-5680,-1.00,-1.0
4843,12636,1112,-13228,-1.00,-1.0
4845,15764,-452,8244,-1.00,-1.0
4847,24656,-5624,3588,-1.00,-1.0
4849,9504,7380,-6288,-1.00,-1.0
4851,21392,-4292,-1168,-1.00,-1.0
4853,17576,468,5256,-1.00,-1.0
4855,15000,-1644,-3000,-1.00,-1.0
4857,19516,1280,3236,-1.00,-1.0
4859,14052,-2040,-3376,-1.00,-1.0
4861,20036,-20,7756,-1.00,-1.0
4862,14916,-3244,-4336,-1.00,-1.0
4865,17260,240,6092,-1.00,-1.0
4866,17388,2068,-3856,-1.00,-1.0
4868,14632,-704,-808,-1.00,-1.0
4870,24036,-3304,9408,-1.00,-1.0
4875,17232,-2260,4344,-1.00,-1.0
4877,18788,2232,1468,-1.00,-1.0
4878,11648,-1004,-6036,-1.00,-1.0
4880,20956,-132,8260,-1.00,-1.0
4882,15684,2596,-3084,-1.00,-1.0
4884,14512,1788,-2884,-1.00,-1.0
4886,17700,-1212,0,-1.00,-1.0
4888,21528,-3780,14232,-1.00,-1.0
4890,12692,1776,-10976,-1.00,-1.0
4892,12300,6604,-3132,-1.00,-1.0
4894,20012,1076,3604,-1.00,-1.0
4896,8272,1792,-14420,-1.00,-1.0
4898,21108,-1728,10812,-1.00,-1.0
4900,18212,-1132,2288,-1.00,-1.0
4902,17176,1812,292,-1.00,-1.0
4904,16368,3244,-6148,-1.00,-1.0
4908,22600,-2948,12008,-1.00,-1.0
4910,12280,2560,-10460,-1.00,-1.0
4912,15216,-792,3172,-1.00,-1.0
4914,20880,-912,5472,-1.00,-1.0
4916,12640,-240,-4308,-1.00,-1.0
4918,19580,1228,1356,-1.00,-1.0
4920,18012,-2264,2388,-1.00,-1.0
4922,17808,-688,4008,-1.00,-1.0
4924,11964,3596,-9360,-1.00,-1.0
4926,20344,-2636,9684,-1.00,-1.0
4927,17656,2280,-3572,-1.00,-1.0
4929,16544,464,2328,-1.00,-1.0
4931,19036,-1044,-1440,-1.00,-1.0
4933,13944,680,1036,-1.00,-1.0
4935,18092,-576,-36,-1.00,-1.0
4937,17156,372,2244,-1.00,-1.0
4941,15800,-816,-1724,-1.00,-1.0
4943,18980,-404,5728,-1.00,-1.0
4945,15932,-2088,-2316,-1.00,-1.0
4947,15000,1716,2620,-1.00,-1.0
4949,20228,-40,2424,-1.00,-1.0
4951,10736,2012,-7616,-1.00,-1.0
4953,18372,3952,2124,-1.00,-1.0
4955,9204,1508,-10524,-1.00,-1.0
4957,23816,-3796,13928,-1.00,-1.0
4959,15232,-52,-5044,-1.00,-1.0
4961,16212,2624,2212,-1.00,-1.0
4963,16280,2032,-7512,-1.00,-1.0
4965,20928,-3972,15756,-1.00,-1.0
4967,15668,208,-9980,-1.00,-1.0
4969,13036,3248,476,-1.00,-1.0
4971,22656,-3940,7068,-1.00,-1.0
4975,16592,-2804,-272,-1.00,-1.0
4977,20472,-1272,6416,-1.00,-1.0
4978,14276,2540,-3164,-1.00,-1.0
4981,19660,-2200,4340,-1.00,-1.0
4983,17096,-1388,404,-1.00,-1.0
4984,16224,1608,536,-1.00,-1.0
4986,15464,-792,-2624,-1.00,-1.0
4988,21436,-312,9300,-1.00,-1.0
4990,13092,2348,-12212,-1.00,-1.0
4992,16536,-2892,7092,-1.00,-1.0
4994,21692,684,5604,-1.00,-1.0
4996,8604,4148,-9848,-1.00,-1.0
4998,23004,560,7288,-1.00,-1.0
5000,13144,1024,-3336,-1.00,-1.0
5002,18544,-172,-5152,-1.00,-1.0
5006,14864,-3072,6708,-1.00,-1.0
5008,22400,-844,4836,-1.00,-1.0
5010,19076,-788,8180,-1.00,-1.0
5012,21668,-3768,4388,-1.00,-1.0
5014,12592,844,-1812,-1.00,-1.0
5016,20016,-2180,908,-1.00,-1.0
5018,16620,1292,3616,-1.00,-1.0
5020,15488,2260,-5484,-1.00,-1.0
5022,18224,-1648,6360,-1.00,-1.0
5024,19252,888,2768,-1.00,-1.0
5026,11748,3624,-4432,-1.00,-1.0
5027,18552,-1588,3952,-1.00,-1.0
5029,17464,536,824,-1.00,-1.0
5031,15892,-1120,1404,-1.00,-1.0
5033,19432,2172,-1668,-1.00,-1.0
5035,11056,1460,-5468,-1.00,-1.0
5039,15644,2564,-2688,-1.00,-1.0
5041,12672,776,-3412,-1.00,-1.0
5043,19800,1004,2024,-1.00,-1.0
5045,16504,-2800,2580,-1.00,-1.0
5047,18916,-1108,2696,-1.00,-1.0
5049,14024,3160,-5832,-1.00,-1.0
5051,16008,-1164,2056,-1.00,-1.0
5053,19488,-1592,3456,-1.00,-1.0
5055,16688,1352,944,-1.00,-1.0
5057,15988,-1496,-2720,-1.00,-1.0
5059,14732,600,-4688,-1.00,-1.0
5061,16748,480,1892,-1.00,-1.0
5063,19320,-160,4380,-1.00,-1.0
5065,15080,700,-1300,-1.00,-1.0
5067,18716,-568,2368,-1.00,-1.0
5069,15248,1552,-3556,-1.00,-1.0
5073,16516,-484,-856,-1.00,-1.0
5075,16548,456,932,-1.00,-1.0
5077,15248,628,-5072,-1.00,-1.0
5079,20752,-4408,10516,-1.00,-1.0
5081,18472,828,-1320,-1.00,-1.0
5083,11876,-456,-5500,-1.00,-1.0
5085,21884,-1512,8604,-1.00,-1.0
5086,13604,-1172,-3668,-1.00,-1.0
5088,20188,-1576,8148,-1.00,-1.0
5090,15196,-1896,-6028,-1.00,-1.0
5092,14264,616,4836,-1.00,-1.0
5094,19804,-3320,980,-1.00,-1.0
5096,16748,1168,3404,-1.00,-1.0
5098,17392,-3724,-2700,-1.00,-1.0
5100,18956,680,7596,-1.00,-1.0
5102,15236,908,-6896,-1.00,-1.0
5106,17888,-1456,-2232,-1.00,-1.0
5108,13432,3944,-1576,-1.00,-1.0
5110,17868,-3820,-188,-1.00,-1.0
5112,21060,-2152,10760,-1.00,-1.0
5114,14560,4072,-10440,-1.00,-1.0
5116,10628,-44,-4872,-1.00,-1.0
5118,29604,-1408,19980,-1.00,-1.0
5120,5612,4360,-21436,-1.00,-1.0
5122,22208,-984,13536,-1.00,-1.0
5124,11240,1236,-6792,-1.00,-1.0
5126,21352,44,424,-1.00,-1.0
5128,14232,2152,-112,-1.00,-1.0
5130,19780,-3468,9020,-1.00,-1.0
5132,16516,2920,-3772,-1.00,-1.0
5134,13948,2968,-1516,-1.00,-1.0
5138,19316,2472,6628,-1.00,-1.0
5140,13468,-1396,-10136,-1.00,-1.0
5142,16844,432,7304,-1.00,-1.0
5144,21648,-4308,5340,-1.00,-1.0
5146,12328,3688,-6780,-1.00,-1.0
5148,17916,-1084,-2440,-1.00,-1.0
5149,21284,-1340,8772,-1.00,-1.0
5151,14504,-88,-3124,-1.00,-1.0
5153,16088,344,1604,-1.00,-1.0
5155,17884,-284,60,-1.00,-1.0
5157,15164,-2108,1632,-1.00,-1.0
5159,23464,-1836,5952,-1.00,-1.0
5161,9364,2888,-12428,-1.00,-1.0
5163,20448,-2868,10644,-1.00,-1.0
5165,16984,-852,-1640,-1.00,-1.0
5167,16148,968,3356,-1.00,-1.0
5171,14680,2240,-348,-1.00,-1.0
5173,19120,-3616,2876,-1.00,-1.0
5175,18544,2036,4064,-1.00,-1.0
5177,12116,3900,-8928,-1.00,-1.0
5179,20560,-2396,6980,-1.00,-1.0
5181,17568,416,-436,-1.00,-1.0
5183,17920,1488,5344,-1.00,-1.0
5185,18120,-748,256,-1.00,-1.0
5187,17056,-324,1592,-1.00,-1.0
5189,17828,-324,-1560,-1.00,-1.0
5191,14620,1864,808,-1.00,-1.0
5192,19828,-520,4396,-1.00,-1.0
5195,14116,1264,-4076,-1.00,-1.0
5196,20540,16,5632,-1.00,-1.0
5198,13960,700,-6472,-1.00,-1.0
5200,19072,-696,6952,-1.00,-1.0
5204,15208,-3968,3044,-1.00,-1.0
5206,19864,384,2784,-1.00,-1.0
5208,12852,1948,-4680,-1.00,-1.0
5210,18776,320,1692,-1.00,-1.0
5212,17380,-3256,4344,-1.00,-1.0
5214,17724,-8,4460,-1.00,-1.0
5216,14056,448,-6508,-1.00,-1.0
5218,18300,1372,3500,-1.00,-1.0
5220,18996,-5220,1892,-1.00,-1.0
5222,17924,648,5736,-1.00,-1.0
5224,12076,3204,-10972,-1.00,-1.0
5226,21280,-1724,15320,-1.00,-1.0
5228,17468,-2928,-6556,-1.00,-1.0
5230,15612,4164,2312,-1.00,-1.0
5232,17084,852,3924,-1.00,-1.0
5234,13960,1712,-7848,-1.00,-1.0
5238,25100,-4460,15308,-1.00,-1.0
5240,8316,3888,-17904,-1.00,-1.0
5242,16956,-3176,7896,-1.00,-1.0
5243,22320,-1908,4864,-1.00,-1.0
5246,11216,64,-4336,-1.00,-1.0
5248,22864,-116,1820,-1.00,-1.0
5249,13024,3300,-5436,-1.00,-1.0
5251,18188,-4268,5396,-1.00,-1.0
5253,19460,-96,2016,-1.00,-1.0
5255,13780,3016,-3108,-1.00,-1.0
5257,15512,-892,-6656,-1.00,-1.0
5259,21784,356,11936,-1.00,-1.0
5261,15280,-1264,-7028,-1.00,-1.0
5263,12956,3380,344,-1.00,-1.0
5265,21796,-5492,7272,-1.00,-1.0
5267,14068,2572,-1960,-1.00,-1.0
5271,23288,-1308,10360,-1.00,-1.0
5273,13476,460,-6912,-1.00,-1.0
5275,22360,-420,5508,-1.00,-1.0
5277,14440,352,-5296,-1.00,-1.0
5279,19028,-308,3012,-1.00,-1.0
5281,15500,1392,-2596,-1.00,-1.0
5283,14664,-3560,3936,-1.00,-1.0
5285,20204,-1716,5356,-1.00,-1.0
5287,12756,-280,-4760,-1.00,-1.0
5288,18936,1600,520,-1.00,-1.0
5290,17408,-2240,-1472,-1.00,-1.0
5292,19684,-3640,8312,-1.00,-1.0
5294,15592,16,-3056,-1.00,-1.0
5296,14652,1864,1264,-1.00,-1.0
5298,15932,-664,-3552,-1.00,-1.0
5302,13056,236,-10744,-1.00,-1.0
5304,15564,2548,6484,-1.00,-1.0
5306,21104,-328,236,-1.00,-1.0
5308,13304,-40,-2132,-1.00,-1.0
5310,22444,-2452,5596,-1.00,-1.0
5312,13840,4592,-5052,-1.00,-1.0
5314,16156,-2304,2120,-1.00,-1.0
5316,19444,-1480,3480,-1.00,-1.0
5318,16480,-264,3400,-1.00,-1.0
5320,14704,1036,-7484,-1.00,-1.0
5322,19992,-2644,9080,-1.00,-1.0
5324,19036,1348,-1852,-1.00,-1.0
5326,12896,-2036,-4180,-1.00,-1.0
5328,21920,-1696,10372,-1.00,-1.0
5330,13920,508,-4704,-1.00,-1.0
5332,20160,-1680,-176,-1.00,-1.0
5336,14396,1084,2164,-1.00,-1.0
5338,17880,-4380,-12,-1.00,-1.0
5340,16556,1676,4296,-1.00,-1.0
5342,22424,1108,10676,-1.00,-1.0
5344,19336,-696,6560,-1.00,-1.0
5346,14836,1628,3944,-1.00,-1.0
5348,20000,884,1364,-1.00,-1.0
5349,15476,-1224,420,-1.00,-1.0
5352,15644,-396,-3772,-1.00,-1.0
5354,18340,-1208,6528,-1.00,-1.0
5355,15216,1340,-4100,-1.00,-1.0
5357,15940,-520,1052,-1.00,-1.0
5359,22896,-1624,8740,-1.00,-1.0
5361,10420,3596,-13388,-1.00,-1.0
5363,20180,-4616,9556,-1.00,-1.0
5365,19068,356,940,-1.00,-1.0
5370,21596,668,-36,-1.00,-1.0
5371,14112,144,-1620,-1.00,-1.0
5373,22124,-1936,7244,-1.00,-1.0
5375,11776,3548,-8804,-1.00,-1.0
5377,18848,148,9940,-1.00,-1.0
5379,15920,-1320,-6108,-1.00,-1.0
5381,15564,2916,3360,-1.00,-1.0
5383,21036,-3840,-572,-1.00,-1.0
5385,14996,3224,2528,-1.00,-1.0
5387,17160,-400,-5172,-1.00,-1.0
5389,15680,-288,3848,-1.00,-1.0
5391,20720,-3320,4124,-1.00,-1.0
5393,13152,3412,-4896,-1.00,-1.0
5395,15948,-1196,968,-1.00,-1.0
5397,21004,-988,5820,-1.00,-1.0
5399,12920,924,-5436,-1.00,-1.0
5403,20640,-428,3036,-1.00,-1.0
5405,10648,1768,-8664,-1.00,-1.0
5407,21492,-2704,8772,-1.00,-1.0
5409,13124,368,-5620,-1.00,-1.0
5411,16880,2092,2480,-1.00,-1.0
5413,15040,1276,-5760,-1.00,-1.0
5415,17300,-60,1276,-1.00,-1.0
5416,13976,688,-4928,-1.00,-1.0
5419,20032,-1664,9376,-1.00,-1.0
5421,13924,240,-7940,-1.00,-1.0
5422,18792,-1576,5672,-1.00,-1.0
5424,20540,-4424,3244,-1.00,-1.0
5426,12512,3244,-4016,-1.00,-1.0
5428,16292,1088,-2892,-1.00,-1.0
5430,20588,-3020,8756,-1.00,-1.0
5434,9488,2844,-7836,-1.00,-1.0
5436,23788,-3476,16712,-1.00,-1.0
5438,12844,1996,-7876,-1.00,-1.0
5440,13052,3140,-4172,-1.00,-1.0
5442,21240,-3388,4172,-1.00,-1.0
5444,17444,2056,3384,-1.00,-1.0
5446,10160,3716,-14616,-1.00,-1.0
5448,22700,-3768,17760,-1.00,-1.0
5450,14608,76,-7004,-1.00,-1.0
5452,13608,4384,-4112,-1.00,-1.0
5454,17940,904,-4012,-1.00,-1.0
5456,22440,-2332,14084,-1.00,-1.0
5458,13440,2608,-11480,-1.00,-1.0
5460,14068,3068,-84,-1.00,-1.0
5462,20548,-1284,4208,-1.00,-1.0
5464,15500,244,5024,-1.00,-1.0
5468,18112,48,3384,-1.00,-1.0
5470,14396,3492,-3112,-1.00,-1.0
5472,17876,-3852,924,-1.00,-1.0
5474,12416,44,-8352,-1.00,-1.0
5476,14876,2076,-4060,-1.00,-1.0
5478,12664,196,-4372,-1.00,-1.0
5480,15592,3872,-3852,-1.00,-1.0
5481,13148,-532,-3756,-1.00,-1.0
5483,23324,-2748,16236,-1.00,-1.0
5485,10932,5164,-13452,-1.00,-1.0
5487,14120,828,-2160,-1.00,-1.0
5489,24100,-836,8432,-1.00,-1.0
5491,13936,836,-16,-1.00,-1.0
5493,17224,3600,-2068,-1.00,-1.0
5495,12588,2052,-3872,-1.00,-1.0
5497,22836,-3048,10648,-1.00,-1.0
5502,15036,392,-3444,-1.00,-1.0
5504,19312,-868,1776,-1.00,-1.0
5506,17480,584,516,-1.00,-1.0
5508,14392,-1368,2388,-1.00,-1.0
5510,17140,212,844,-1.00,-1.0
5512,17216,640,1252,-1.00,-1.0
5514,17060,-1336,4288,-1.00,-1.0
5515,16756,1808,-1996,-1.00,-1.0
5517,13096,-8,-5296,-1.00,-1.0
5519,19952,-4468,11204,-1.00,-1.0
5521,18380,588,460,-1.00,-1.0
5523,11444,4560,-8432,-1.00,-1.0
5525,19752,-3232,3576,-1.00,-1.0
5527,22112,-1208,8300,-1.00,-1.0
5529,9036,2468,-11972,-1.00,-1.0
5531,23148,-2168,14660,-1.00,-1.0
5535,16524,1640,2884,-1.00,-1.0
5537,18844,-1764,-3536,-1.00,-1.0
5539,19904,-2624,12284,-1.00,-1.0
5541,14980,-1088,-5812,-1.00,-1.0
5543,16512,-84,5176,-1.00,-1.0
5545,16220,-280,-3988,-1.00,-1.0
5547,19280,-2796,6688,-1.00,-1.0
5549,22836,-5904,6288,-1.00,-1.0
5551,13648,2072,-5884,-1.00,-1.0
5553,12512,1588,-4884,-1.00,-1.0
5555,25924,-6148,15464,-1.00,-1.0
5557,15576,2076,-6032,-1.00,-1.0
5559,10692,1328,-6920,-1.00,-1.0
5561,24512,-1836,12844,-1.00,-1.0
5562,13676,1716,-2528,-1.00,-1.0
5567,19736,-3908,4948,-1.00,-1.0
5569,15284,1120,2676,-1.00,-1.0
5571,12608,3032,-8024,-1.00,-1.0
5572,17940,240,1044,-1.00,-1.0
5575,14484,-1192,-1548,-1.00,-1.0
5576,17552,-696,2172,-1.00,-1.0
5578,16656,-216,1276,-1.00,-1.0
5580,13924,1824,-4792,-1.00,-1.0
5582,22640,-3484,8964,-1.00,-1.0
5584,13820,3444,-4524,-1.00,-1.0
5586,16096,156,-2268,-1.00,-1.0
5588,18184,-1508,4180,-1.00,-1.0
5590,16516,1144,-440,-1.00,-1.0
5592,15864,752,208,-1.00,-1.0
5594,16176,-620,312,-1.00,-1.0
5596,16744,2884,872,-1.00,-1.0
5600,22300,-520,9740,-1.00,-1.0
5602,10680,1964,-12260,-1.00,-1.0
5604,19796,-2380,8676,-1.00,-1.0
5606,18296,-2116,-396,-1.00,-1.0
5608,14696,-352,1608,-1.00,-1.0
5610,17160,-888,-1456,-1.00,-1.0
5612,18704,804,6284,-1.00,-1.0
5614,14884,-628,-7304,-1.00,-1.0
5616,20004,-792,7620,-1.00,-1.0
5618,17976,-2180,992,-1.00,-1.0
5620,15048,1256,-428,-1.00,-1.0
5621,16056,112,-1848,-1.00,-1.0
5624,20260,-3780,7936,-1.00,-1.0
5626,15440,1592,-2932,-1.00,-1.0
5627,19408,888,9348,-1.00,-1.0
5629,15932,-1284,-6328,-1.00,-1.0
5634,18956,-2776,4448,-1.00,-1.0
5636,15084,1332,-3844,-1.00,-1.0
5637,19444,-1272,3620,-1.00,-1.0
5639,19036,3256,2248,-1.00,-1.0
5641,10584,784,-10284,-1.00,-1.0
5643,26316,-2288,15168,-1.00,-1.0
5645,11556,2316,-13164,-1.00,-1.0
5647,16696,2500,3748,-1.00,-1.0
5649,20176,-2864,3488,-1.00,-1.0
5651,16880,3308,4628,-1.00,-1.0
5653,11348,1464,-12776,-1.00,-1.0
5655,23652,-1728,16132,-1.00,-1.0
5657,14264,3084,-12824,-1.00,-1.0
5659,16712,-204,6336,-1.00,-1.0
5661,19332,-1012,-32,-1.00,-1.0
5665,18308,-964,-3932,-1.00,-1.0
5667,19924,-972,8368,-1.00,-1.0
5669,15580,-612,-3724,-1.00,-1.0
5671,14948,1120,-2696,-1.00,-1.0
5673,17960,-620,3556,-1.00,-1.0
5675,16192,-620,-2188,-1.00,-1.0
5677,17208,-1492,5444,-1.00,-1.0
5679,17308,232,-316,-1.00,-1.0
5681,14776,5584,-3352,-1.00,-1.0
5683,19044,-2600,-588,-1.00,-1.0
5685,22324,-2352,10920,-1.00,-1.0
5686,11348,2852,-9588,-1.00,-1.0
5689,17508,1740,1956,-1.00,-1.0
5691,15180,-2340,-1788,-1.00,-1.0
5692,21424,-1236,10384,-1.00,-1.0
5694,17488,-940,1744,-1.00,-1.0
5699,17600,464,-1640,-1.00,-1.0
5701,18828,-72,5644,-1.00,-1.0
5702,16172,1516,-6184,-1.00,-1.0
5704,19776,-2260,8056,-1.00,-1.0
5706,17128,-1824,-3856,-1.00,-1.0
5708,15188,1632,2268,-1.00,-1.0
5710,19376,-3364,2156,-1.00,-1.0
5712,14688,924,2820,-1.00,-1.0
5714,18588,-1444,-2048,-1.00,-1.0
5716,16036,-308,2376,-1.00,-1.0
5718,19452,-816,4008,-1.00,-1.0
5720,15552,-1184,376,-1.00,-1.0
5722,15700,-704,-584,-1.00,-1.0
5724,17512,1140,992,-1.00,-1.0
5726,18028,-4812,5104,-1.00,-1.0
5728,18724,652,2620,-1.00,-1.0
5732,16252,-2044,-244,-1.00,-1.0
5734,24172,-5624,12300,-1.00,-1.0
5736,13404,2272,-6664,-1.00,-1.0
5738,12040,364,-3700,-1.00,-1.0
5740,23048,-768,8612,-1.00,-1.0
5742,15884,-2828,-1180,-1.00,-1.0
5744,17200,2360,-44,-1.00,-1.0
5746,16432,-2096,1128,-1.00,-1.0
5748,16924,2548,4144,-1.00,-1.0
5750,12892,100,-8128,-1.00,-1.0
5751,23364,-3072,15268,-1.00,-1.0
5753,12380,-348,-3292,-1.00,-1.0
5755,18056,1636,5596,-1.00,-1.0
5757,14900,-2020,-7228,-1.00,-1.0
5759,16712,2448,-1536,-1.00,-1.0
5763,21632,-6456,13904,-1.00,-1.0
5765,16376,-484,-4908,-1.00,-1.0
5767,11592,5000,-6236,-1.00,-1.0
5769,22356,-7300,6492,-1.00,-1.0
5771,20256,144,7756,-1.00,-1.0
5773,9540,640,-12404,-1.00,-1.0
5775,19708,728,9916,-1.00,-1.0
5777,18532,-4192,2564,-1.00,-1.0
5779,15204,1688,-1804,-1.00,-1.0
5781,16528,-1976,-2484,-1.00,-1.0
5783,21420,384,6800,-1.00,-1.0
5785,11072,700,-10144,-1.00,-1.0
5787,24668,-2432,15468,-1.00,-1.0
5789,12692,-2120,-10468,-1.00,-1.0
5791,16420,2720,6016,-1.00,-1.0
5792,19360,-2536,-2476,-1.00,-1.0
5797,14924,-76,-10932,-1.00,-1.0
5799,20056,596,11636,-1.00,-1.0
5800,13456,-1244,-8088,-1.00,-1.0
5802,16984,2020,1336,-1.00,-1.0
5804,14356,1080,-11824,-1.00,-1.0
5806,16828,-124,6512,-1.00,-1.0
5808,13096,-736,-8436,-1.00,-1.0
5810,16700,3856,4312,-1.00,-1.0
5812,19600,-4484,164,-1.00,-1.0
5814,17076,1572,4892,-1.00,-1.0
5816,12700,844,-10248,-1.00,-1.0
5818,17932,1460,9420,-1.00,-1.0
5820,15828,-2840,-3376,-1.00,-1.0
5822,17452,3192,6052,-1.00,-1.0
5824,15584,-1200,-7744,-1.00,-1.0
5826,18004,-396,7440,-1.00,-1.0
5830,18448,72,6436,-1.00,-1.0
5832,13980,-284,-7060,-1.00,-1.0
5834,18900,824,7284,-1.00,-1.0
5836,19304,-3488,244,-1.00,-1.0
5838,16232,1788,2532,-1.00,-1.0
5840,17672,-1900,-2572,-1.00,-1.0
5842,16884,-1012,3888,-1.00,-1.0
5844,18820,-1860,-640,-1.00,-1.0
5846,16468,84,2020,-1.00,-1.0
5848,17188,724,-236,-1.00,-1.0
5849,20540,-1008,7864,-1.00,-1.0
5851,13380,1168,-8756,-1.00,-1.0
5853,17644,124,6096,-1.00,-1.0
5855,23236,-2328,4328,-1.00,-1.0
5857,18132,-3324,5024,-1.00,-1.0
5859,19116,-2544,5632,-1.00,-1.0
5863,20316,392,7372,-1.00,-1.0
5865,10776,3656,-10672,-1.00,-1.0
5867,21604,-1688,92,-1.00,-1.0
5869,11436,208,-5012,-1.00,-1.0
5871,22924,2688,4820,-1.00,-1.0
5873,10612,-832,-6872,-1.00,-1.0
5875,23488,-1824,14652,-1.00,-1.0
5877,14532,-2680,-7184,-1.00,-1.0
5879,15912,2868,5276,-1.00,-1.0
5881,13964,-2040,-10688,-1.00,-1.0
5883,21860,-3960,18360,-1.00,-1.0
5885,16008,-1360,-13732,-1.00,-1.0
5887,13448,6000,2132,-1.00,-1.0
5889,17424,-4716,-5520,-1.00,-1.0
5891,17408,2128,14744,-1.00,-1.0
5895,9148,3148,-492,-1.00,-1.0
5897,22312,-6152,7004,-1.00,-1.0
5899,18984,5156,-1880,-1.00,-1.0
5901,10392,-2112,-13284,-1.00,-1.0
5903,28688,-680,18696,-1.00,-1.0
5905,9196,2068,-12772,-1.00,-1.0
5907,16684,3516,6072,-1.00,-1.0
5908,18952,-3560,2200,-1.00,-1.0
5911,17920,72,6440,-1.00,-1.0
5913,11828,-1180,-13028,-1.00,-1.0
5914,21884,-856,10548,-1.00,-1.0
5916,13648,-1592,-9732,-1.00,-1.0
5918,22652,1856,11032,-1.00,-1.0
5920,11052,-952,-16012,-1.00,-1.0
5922,17212,1588,-1368,-1.00,-1.0
5924,12720,1280,-4012,-1.00,-1.0
5929,18492,-1612,-7756,-1.00,-1.0
5931,17836,-1980,12952,-1.00,-1.0
5932,16988,-1932,-6500,-1.00,-1.0
5934,12864,7364,-1396,-1.00,-1.0
5936,16340,-2164,-4720,-1.00,-1.0
5938,23280,-2132,17460,-1.00,-1.0
5940,12316,2284,-12028,-1.00,-1.0
5942,15016,3924,-60,-1.00,-1.0
5944,23476,-5292,7456,-1.00,-1.0
5946,12520,2536,-3656,-1.00,-1.0
5948,18760,-2232,4768,-1.00,-1.0
5950,15960,1192,1164,-1.00,-1.0
5952,18828,-2396,20,-1.00,-1.0
5954,16660,1120,-940,-1.00,-1.0
5956,17424,960,-2064,-1.00,-1.0
5960,21432,536,6768,-1.00,-1.0
5962,10300,6540,-10768,-1.00,-1.0
5964,18392,-2052,6300,-1.00,-1.0
5966,19300,-804,4640,-1.00,-1.0
5968,15472,2240,-2184,-1.00,-1.0
5970,12552,1500,-9832,-1.00,-1.0
5972,20360,-4168,12904,-1.00,-1.0
5974,17944,-328,-2452,-1.00,-1.0
5976,11200,2100,-6260,-1.00,-1.0
5978,22636,1520,3740,-1.00,-1.0
5980,14168,-36,-4108,-1.00,-1.0
5981,20468,632,8028,-1.00,-1.0
5984,17628,-1000,-512,-1.00,-1.0
5986,10572,3300,-4332,-1.00,-1.0
5987,18968,-816,1632,-1.00,-1.0
5989,20888,-4824,8364,-1.00,-1.0
5994,13932,4200,-5272,-1.00,-1.0
5996,21344,-5396,8144,-1.00,-1.0
5997,18064,772,2508,-1.00,-1.0
5999,13508,5188,-5908,-1.00,-1.0
6001,17148,84,2176,-1.00,-1.0
6003,16648,-1188,5112,-1.00,-1.0
6005,20440,108,3684,-1.00,-1.0
6007,17948,-4236,7520,-1.00,-1.0
6009,20512,-2596,9676,-1.00,-1.0
6011,19608,-2132,-784,-1.00,-1.0
6013,16988,-76,3244,-1.00,-1.0
6015,17072,-3268,4220,-1.00,-1.0
6017,20256,-1136,5788,-1.00,-1.0
6019,10304,1760,-15408,-1.00,-1.0
6021,19336,-1848,10672,-1.00,-1.0
6023,23532,-3896,4364,-1.00,-1.0
6027,18576,3104,-3192,-1.00,-1.0
6029,23420,-4232,15728,-1.00,-1.0
6031,15124,816,-4472,-1.00,-1.0
6033,11376,6500,-8212,-1.00,-1.0
6035,21964,-6572,14496,-1.00,-1.0
6037,15856,-788,-96,-1.00,-1.0
6039,12976,-2696,-3560,-1.00,-1.0
6041,19408,-1772,1756,-1.00,-1.0
6043,17628,-868,-116,-1.00,-1.0
6044,17252,-1956,-2488,-1.00,-1.0
6046,18844,-968,4564,-1.00,-1.0
6048,15292,3640,248,-1.00,-1.0
6050,16080,0,-1036,-1.00,-1.0
6052,16548,1500,2528,-1.00,-1.0
6054,22488,-3556,6996,-1.00,-1.0
6058,15300,-488,-972,-1.00,-1.0
6060,19280,-1932,2820,-1.00,-1.0
6062,15016,2996,2716,-1.00,-1.0
6064,14860,384,-4988,-1.00,-1.0
6066,24236,-6164,21100,-1.00,-1.0
6068,14180,60,-12648,-1.00,-1.0
6070,11232,4292,-1512,-1.00,-1.0
6072,26328,-6648,8400,-1.00,-1.0
6074,18888,-480,4944,-1.00,-1.0
6076,13176,956,-12228,-1.00,-1.0
6078,16444,3616,1436,-1.00,-1.0
6080,22332,-3848,11480,-1.00,-1.0
6082,16984,1372,-3524,-1.00,-1.0
6084,12804,-272,-3700,-1.00,-1.0
6085,19048,-592,6120,-1.00,-1.0
6087,17864,-2436,1336,-1.00,-1.0
6092,18892,-308,-372,-1.00,-1.0
6094,18552,-1676,6220,-1.00,-1.0
6095,13248,2796,-6636,-1.00,-1.0
6097,18088,3928,3700,-1.00,-1.0
6099,17616,-1072,-3076,-1.00,-1.0
6101,17524,452,6720,-1.00,-1.0
6103,17860,640,-2512,-1.00,-1.0
6105,12576,980,-2236,-1.00,-1.0
6107,16668,232,-148,-1.00,-1.0
6109,18708,-3996,4720,-1.00,-1.0
6111,15420,1224,-3268,-1.00,-1.0
6113,20684,-1884,12920,-1.00,-1.0
6115,19420,-2780,1516,-1.00,-1.0
6117,11484,1760,-5704,-1.00,-1.0
6119,16604,-868,-2620,-1.00,-1.0
6121,19572,-7516,8900,-1.00,-1.0
6125,13680,6356,-8872,-1.00,-1.0
6127,17860,-2428,3784,-1.00,-1.0
6129,21080,-2076,8992,-1.00,-1.0
6131,18412,5872,-1288,-1.00,-1.0
6133,10076,2188,-11092,-1.00,-1.0
6135,22360,-3368,14700,-1.00,-1.0
6137,17960,-2868,-800,-1.00,-1.0
6139,13752,-1452,-1096,-1.00,-1.0
6141,15612,2268,-9728,-1.00,-1.0
6143,17996,-6444,10704,-1.00,-1.0
6145,20452,-2884,3380,-1.00,-1.0
6147,13424,4220,-5088,-1.00,-1.0
6149,14108,1232,-6520,-1.00,-1.0
6150,22092,-4140,14700,-1.00,-1.0
6152,24004,1228,4744,-1.00,-1.0
6157,21996,-3180,18972,-1.00,-1.0
6159,21272,-5936,6464,-1.00,-1.0
6160,8964,3600,-9012,-1.00,-1.0
6162,16564,1900,-11304,-1.00,-1.0
6164,23704,-6416,20344,-1.00,-1.0
6166,16604,-1912,-7752,-1.00,-1.0
6168,8024,8028,-9364,-1.00,-1.0
6170,25200,-3688,11664,-1.00,-1.0
6172,12028,2332,-96,-1.00,-1.0
6174,19812,-3500,5260,-1.00,-1.0
6176,16840,-152,192,-1.00,-1.0
6178,18244,-296,4824,-1.00,-1.0
6180,20924,-4752,3080,-1.00,-1.0
6182,17872,-4184,3552,-1.00,-1.0
6184,16732,1888,-1752,-1.00,-1.0
6186,18960,-388,11632,-1.00,-1.0
6190,24064,4912,3776,-1.00,-1.0
6192,5552,5068,-19300,-1.00,-1.0
6194,16736,-2368,1060,-1.00,-1.0
6196,10032,2728,-11452,-1.00,-1.0
6198,19964,-1540,3376,-1.00,-1.0
6200,22832,-3672,11064,-1.00,-1.0
6202,16668,7304,-12716,-1.00,-1.0
6204,9340,3984,-13744,-1.00,-1.0
6206,25416,-2420,25480,-1.00,-1.0
6208,17080,60,588,-1.00,-1.0
6210,5616,6248,-15644,-1.00,-1.0
6212,20444,-4268,6316,-1.00,-1.0
6214,22868,-2860,15872,-1.00,-1.0
6215,11988,4032,-13292,-1.00,-1.0
6217,11260,5604,-11632,-1.00,-1.0
6222,18148,-116,7332,-1.00,-1.0
6224,11936,4720,-13272,-1.00,-1.0
6226,15128,2680,-2016,-1.00,-1.0
6227,24328,-5336,11752,-1.00,-1.0
6229,17504,7552,-4188,-1.00,-1.0
6231,10488,1556,-12168,-1.00,-1.0
6233,21116,1948,15268,-1.00,-1.0
6235,16384,-4816,3352,-1.00,-1.0
6237,11352,3668,-6608,-1.00,-1.0
6239,17012,-2904,-532,-1.00,-1.0
6241,24756,-4252,18048,-1.00,-1.0
6243,9676,-920,-15644,-1.00,-1.0
6245,20640,2888,5032,-1.00,-1.0
6247,11676,-5924,-14536,-1.00,-1.0
6249,12544,3572,-17576,-1.00,-1.0
6253,10628,3780,5936,-1.00,-1.0
6255,21924,-5064,1572,-1.00,-1.0
6257,13632,4344,10664,-1.00,-1.0
6259,19104,-3772,5036,-1.00,-1.0
6261,11780,8792,3752,-1.00,-1.0
6263,26236,-10116,11544,-1.00,-1.0
6265,7772,1164,-9960,-1.00,-1.0
6267,27248,-5692,22356,-1.00,-1.0
6269,17496,8260,-8168,-1.00,-1.0
6271,8792,2632,-17004,-1.00,-1.0
6273,24384,-1876,15232,-1.00,-1.0
6275,19712,-444,9728,-1.00,-1.0
6277,7660,6776,-14744,-1.00,-1.0
6279,11252,2052,-4840,-1.00,-1.0
6280,31848,-13344,32767,-1.00,-1.0
6282,6656,1700,-21496,-1.00,-1.0
6286,24528,-11536,10508,-1.00,-1.0
6288,23896,-4628,16512,-1.00,-1.0
6290,6960,2864,-32768,-1.00,-1.0
6292,20920,-1848,16980,-1.00,-1.0
6294,21184,-3436,728,-1.00,-1.0
6296,18472,5932,1136,-1.00,-1.0
6298,12024,232,-18936,-1.00,-1.0
6300,23216,256,28824,-1.00,-1.0
6302,13884,3688,-16036,-1.00,-1.0
6304,12036,2148,1988,-1.00,-1.0
6306,24284,-3360,3568,-1.00,-1.0
6308,12472,2708,1880,-1.00,-1.0
6310,24548,-4600,-936,-1.00,-1.0
6312,9056,1356,-116,-1.00,-1.0
6314,26012,-3624,3704,-1.00,-1.0
6318,21928,-2600,9856,-1.00,-1.0
6320,16380,3628,-3388,-1.00,-1.0
6322,16456,-660,556,-1.00,-1.0
6324,14904,4996,-10544,-1.00,-1.0
6326,21660,-1908,16748,-1.00,-1.0
6328,13048,2660,-11896,-1.00,-1.0
6329,11372,6048,2752,-1.00,-1.0
6331,25576,-5916,11360,-1.00,-1.0
6333,13836,740,1480,-1.00,-1.0
6335,12344,2212,-12052,-1.00,-1.0
6337,23660,-2928,17716,-1.00,-1.0
6339,16344,-660,-3184,-1.00,-1.0
6341,14108,3936,-6356,-1.00,-1.0
6343,20356,-8872,13928,-1.00,-1.0
6345,18060,-3768,9836,-1.00,-1.0
6347,10836,5352,-9440,-1.00,-1.0
6351,27712,-8208,18532,-1.00,-1.0
6353,13864,1672,-11952,-1.00,-1.0
6355,9560,1500,-7304,-1.00,-1.0
6357,26000,-3500,13644,-1.00,-1.0
6359,14952,-1336,-1200,-1.00,-1.0
6361,16020,-2652,-1604,-1.00,-1.0
6363,14720,1356,-2504,-1.00,-1.0
6365,16628,4240,-2808,-1.00,-1.0
6367,15160,-1300,2076,-1.00,-1.0
6369,19916,-856,5692,-1.00,-1.0
6371,10832,2892,-6660,-1.00,-1.0
6373,25420,-6900,24148,-1.00,-1.0
6375,7832,376,-18052,-1.00,-1.0
6377,15616,3964,8748,-1.00,-1.0
6379,21500,-10732,3092,-1.00,-1.0
6383,10516,-3388,-21280,-1.00,-1.0
6385,20720,-1232,20188,-1.00,-1.0
6387,14492,-5284,-8900,-1.00,-1.0
6389,20008,4820,6848,-1.00,-1.0
6391,11232,-7452,-16464,-1.00,-1.0
6393,25208,-4,27032,-1.00,-1.0
6394,11140,-88,-23768,-1.00,-1.0
6396,17304,-2132,12668,-1.00,-1.0
6398,16972,-4332,-7076,-1.00,-1.0
6400,19996,3976,14556,-1.00,-1.0
6402,8660,-3020,-29572,-1.00,-1.0
6404,20092,-808,21748,-1.00,-1.0
6406,24748,-1716,-7456,-1.00,-1.0
6408,5036,2528,-8160,-1.00,-1.0
6410,27804,-3760,9080,-1.00,-1.0
6412,14512,6316,-1048,-1.00,-1.0
6416,19332,220,6184,-1.00,-1.0
6418,21664,960,4656,-1.00,-1.0
6420,9240,1808,-15136,-1.00,-1.0
6422,23156,-1300,10748,-1.00,-1.0
6424,19592,-792,-6556,-1.00,-1.0
6426,13228,-96,-4500,-1.00,-1.0
6428,20352,-1200,928,-1.00,-1.0
6430,12812,2700,-5008,-1.00,-1.0
6432,7808,-148,-21980,-1.00,-1.0
6434,23948,1404,15504,-1.00,-1.0
6436,12980,2984,-4668,-1.00,-1.0
6438,20124,-5276,11280,-1.00,-1.0
6440,17960,-4428,3852,-1.00,-1.0
6442,12900,4348,-4624,-1.00,-1.0
6444,20772,-7032,6784,-1.00,-1.0
6448,17156,1764,-10500,-1.00,-1.0
6450,15500,1056,200,-1.00,-1.0
6452,20804,2616,-768,-1.00,-1.0
6454,16992,-1964,6296,-1.00,-1.0
6456,17448,520,-2304,-1.00,-1.0
6458,13888,-940,-1452,-1.00,-1.0
6460,18196,-3148,588,-1.00,-1.0
6462,20032,-6896,8516,-1.00,-1.0
6464,16236,-832,-392,-1.00,-1.0
6466,13484,1800,-3744,-1.00,-1.0
6467,19352,-6024,10728,-1.00,-1.0
6469,16144,-2040,1448,-1.00,-1.0
6471,16420,-848,1992,-1.00,-1.0
6473,18532,-7148,2888,-1.00,-1.0
6475,18132,-936,4960,-1.00,-1.0
6477,15860,-1812,-3756,-1.00,-1.0
6481,16304,-2888,864,-1.00,-1.0
6483,15744,2236,1600,-1.00,-1.0
6485,17644,-6236,860,-1.00,-1.0
6487,18552,888,6148,-1.00,-1.0
6489,17368,-2132,-2712,-1.00,-1.0
6491,18036,-4524,8772,-1.00,-1.0
6493,15440,-2208,-1876,-1.00,-1.0
6495,17868,1260,6200,-1.00,-1.0
6497,15940,-6252,-4840,-1.00,-1.0
6499,21092,-1064,11060,-1.00,-1.0
6501,14936,-3032,-5828,-1.00,-1.0
6503,18384,280,-6132,-1.00,-1.0
6505,15356,376,-2328,-1.00,-1.0
6507,18792,-1692,9652,-1.00,-1.0
6509,14116,-1824,-2576,-1.00,-1.0
6511,18992,168,1236,-1.00,-1.0
6515,15284,-3092,352,-1.00,-1.0
6517,16856,0,1608,-1.00,-1.0
6519,20832,4168,7348,-1.00,-1.0
6521,19204,2596,-9456,-1.00,-1.0
6523,11844,1500,-7128,-1.00,-1.0
6525,22940,356,10312,-1.00,-1.0
6526,18064,1852,1764,-1.00,-1.0
6528,7532,5604,-15976,-1.00,-1.0
6530,23748,-852,10396,-1.00,-1.0
6532,18776,1896,-2552,-1.00,-1.0
6534,13672,3716,-7780,-1.00,-1.0
6536,17632,5876,-668,-1.00,-1.0
6538,18688,-1864,5780,-1.00,-1.0
6540,13440,2084,-4180,-1.00,-1.0
6542,18276,3636,-32,-1.00,-1.0
6548,18820,4840,560,-1.00,-1.0
6550,17320,252,-2724,-1.00,-1.0
6552,13532,1424,-2688,-1.00,-1.0
6554,16612,2768,424,-1.00,-1.0
6556,22292,4144,2684,-1.00,-1.0
6558,8612,-2460,-15780,-1.00,-1.0
6560,25768,276,19960,-1.00,-1.0
6562,14844,2880,-14684,-1.00,-1.0
6564,12240,2760,-4060,-1.00,-1.0
6566,23096,-2796,4120,-1.00,-1.0
6568,18992,2608,6956,-1.00,-1.0
6570,23636,-3916,15200,-1.00,-1.0
6572,13212,2572,-4568,-1.00,-1.0
6574,16148,1748,3316,-1.00,-1.0
6576,20344,-1996,5744,-1.00,-1.0
6577,13108,1264,-1600,-1.00,-1.0
6582,22616,-5868,7104,-1.00,-1.0
6584,12068,4044,-6320,-1.00,-1.0
6585,19788,2072,4916,-1.00,-1.0
6587,18456,-2040,2088,-1.00,-1.0
6589,15076,340,-2388,-1.00,-1.0
6591,17252,2620,252,-1.00,-1.0
6593,22812,-3204,6708,-1.00,-1.0
6595,11848,2188,-8708,-1.00,-1.0
6597,20756,1392,6216,-1.00,-1.0
6599,19204,1904,-3388,-1.00,-1.0
6601,14564,200,-4472,-1.00,-1.0
6603,21644,528,5740,-1.00,-1.0
6605,15720,424,-796,-1.00,-1.0
6607,13796,2388,-4216,-1.00,-1.0
6609,19268,-460,1384,-1.00,-1.0
6611,18680,596,-1444,-1.00,-1.0
6615,23712,1756,11352,-1.00,-1.0
6617,14328,2152,-10796,-1.00,-1.0
6619,15804,1980,-1364,-1.00,-1.0
6621,22752,528,2612,-1.00,-1.0
6623,17124,1148,956,-1.00,-1.0
6625,10460,2772,-10268,-1.00,-1.0
6627,16508,1552,2096,-1.00,-1.0
6628,17064,-852,-512,-1.00,-1.0
6631,19796,-3716,9896,-1.00,-1.0
6633,12384,-244,-4200,-1.00,-1.0
6634,15512,2776,776,-1.00,-1.0
6636,22076,-6424,4716,-1.00,-1.0
6638,14504,2260,-480,-1.00,-1.0
6640,17756,260,1528,-1.00,-1.0
6642,18204,280,2124,-1.00,-1.0
6644,13380,-388,-5784,-1.00,-1.0
6648,20596,-3508,2328,-1.00,-1.0
6650,10572,5208,-6052,-1.00,-1.0
6652,19876,-348,5300,-1.00,-1.0
6654,19348,-1792,2532,-1.00,-1.0
6656,11200,3064,-9716,-1.00,-1.0
6658,25276,740,10140,-1.00,-1.0
6660,14832,-3516,-6956,-1.00,-1.0
6662,17684,1752,2288,-1.00,-1.0
6664,17764,1636,-5116,-1.00,-1.0
6666,20368,-2392,8624,-1.00,-1.0
6668,13816,-1116,-8352,-1.00,-1.0
6670,20672,4060,8340,-1.00,-1.0
6672,18628,-1136,-9444,-1.00,-1.0
6674,14764,24,-1996,-1.00,-1.0
6676,22696,212,5756,-1.00,-1.0
6677,14704,2260,1972,-1.00,-1.0
6682,23168,-468,8888,-1.00,-1.0
6684,16404,488,-5312,-1.00,-1.0
6686,16716,1928,-2276,-1.00,-1.0
6687,13860,-1140,-2432,-1.00,-1.0
6690,19680,380,6188,-1.00,-1.0
6692,16620,-3988,-4636,-1.00,-1.0
6693,16756,1664,6244,-1.00,-1.0
6695,17280,52,-1468,-1.00,-1.0
6697,17524,-2364,5024,-1.00,-1.0
6699,15216,-788,-3844,-1.00,-1.0
6701,20224,2280,5384,-1.00,-1.0
6703,16920,-4824,-3736,-1.00,-1.0
6705,19536,-536,5732,-1.00,-1.0
6707,15460,3740,-7792,-1.00,-1.0
6709,24748,-4660,14252,-1.00,-1.0
6713,17920,2812,11700,-1.00,-1.0
6715,21664,-3988,332,-1.00,-1.0
6717,15048,2656,-360,-1.00,-1.0
6719,15556,876,-10180,-1.00,-1.0
6721,24732,-2084,14592,-1.00,-1.0
6723,13156,-536,-10204,-1.00,-1.0
6725,18680,2300,6344,-1.00,-1.0
6727,19048,-492,-3512,-1.00,-1.0
6729,14848,1796,-2120,-1.00,-1.0
6731,20428,356,-1312,-1.00,-1.0
6733,22792,-2524,6900,-1.00,-1.0
6735,9508,2040,-11580,-1.00,-1.0
6737,20312,2932,5280,-1.00,-1.0
6739,18792,-2460,-1116,-1.00,-1.0
6741,16632,-580,188,-1.00,-1.0
6742,16380,-2452,1392,-1.00,-1.0
6747,13568,-644,-4984,-1.00,-1.0
6749,19372,1356,3328,-1.00,-1.0
6751,17508,-228,-5552,-1.00,-1.0
6752,17160,-3796,5572,-1.00,-1.0
6755,16312,3040,-2784,-1.00,-1.0
6757,12160,2108,-1776,-1.00,-1.0
6758,17156,-804,-3620,-1.00,-1.0
6760,16172,20,-428,-1.00,-1.0
6762,19704,-3148,2248,-1.00,-1.0
6764,21756,-1760,5584,-1.00,-1.0
6766,9452,2488,-13540,-1.00,-1.0
6768,21964,-520,12056,-1.00,-1.0
6770,20112,-2768,2228,-1.00,-1.0
6772,13268,3968,-5544,-1.00,-1.0
6774,19136,1684,-2032,-1.00,-1.0
6776,21568,-3680,6776,-1.00,-1.0
6780,18308,3656,2472,-1.00,-1.0
6782,16060,248,-3528,-1.00,-1.0
6784,17464,-1544,2228,-1.00,-1.0
6786,19288,1980,484,-1.00,-1.0
6788,19244,268,-124,-1.00,-1.0
6790,10904,856,-8768,-1.00,-1.0
6792,24208,56,11316,-1.00,-1.0
6794,14164,2044,-11508,-1.00,-1.0
6796,16012,-360,1972,-1.00,-1.0
6798,20044,2560,792,-1.00,-1.0
6800,16908,696,3076,-1.00,-1.0
6802,10944,1916,-11460,-1.00,-1.0
6804,23640,1532,11100,-1.00,-1.0
6806,14084,884,-11832,-1.00,-1.0
6807,19996,-2460,7260,-1.00,-1.0
6812,13176,76,-3372,-1.00,-1.0
6814,17324,-292,-2112,-1.00,-1.0
6815,15616,1660,2844,-1.00,-1.0
6817,17324,-748,-3900,-1.00,-1.0
6819,21024,-4092,12472,-1.00,-1.0
6821,12708,0,-8832,-1.00,-1.0
6823,19652,2300,10092,-1.00,-1.0
6825,19052,-3912,-368,-1.00,-1.0
6827,13432,1788,-2580,-1.00,-1.0
6829,19948,828,376,-1.00,-1.0
6831,20684,-3348,7600,-1.00,-1.0
6833,12576,2144,-5172,-1.00,-1.0
6835,20136,292,7132,-1.00,-1.0
6837,15672,-80,-3664,-1.00,-1.0
6839,16924,28,1192,-1.00,-1.0
6841,19212,2088,1412,-1.00,-1.0
6845,11888,2792,-4916,-1.00,-1.0
6847,19924,1324,5936,-1.00,-1.0
6849,18044,-2300,160,-1.00,-1.0
6850,16044,-156,-2372,-1.00,-1.0
6853,17072,4896,-1260,-1.00,-1.0
6855,20084,-3520,5404,-1.00,-1.0
6856,14220,1900,-3968,-1.00,-1.0
6858,19524,-632,11488,-1.00,-1.0
6860,17612,3560,-6860,-1.00,-1.0
6862,14564,-5472,2780,-1.00,-1.0
6864,21216,-604,5796,-1.00,-1.0
6866,14644,1808,-2944,-1.00,-1.0
6868,16668,-4904,1584,-1.00,-1.0
6870,18952,-3272,5976,-1.00,-1.0
6872,16260,1596,824,-1.00,-1.0
6874,15744,-3048,-3404,-1.00,-1.0
6878,13840,-1420,-6144,-1.00,-1.0
6880,19180,-4180,12080,-1.00,-1.0
6882,14980,-1420,-4548,-1.00,-1.0
6884,15568,1268,4652,-1.00,-1.0
6886,19976,-8004,452,-1.00,-1.0
6888,17384,1932,7252,-1.00,-1.0
6890,14764,-1416,-7452,-1.00,-1.0
6892,17700,-2152,8860,-1.00,-1.0
6894,16560,-3036,-640,-1.00,-1.0
6896,16480,2448,4464,-1.00,-1.0
6898,16952,-5828,-2812,-1.00,-1.0
6900,16500,1896,6492,-1.00,-1.0
6902,16500,-1612,-1624,-1.00,-1.0
6904,19628,-2164,9408,-1.00,-1.0
6905,13048,-1120,-7364,-1.00,-1.0
6910,18012,-2788,-1580,-1.00,-1.0
6912,19024,-2236,7276,-1.00,-1.0
6914,16224,-684,-5476,-1.00,-1.0
6915,17640,-4140,7448,-1.00,-1.0
6918,17408,-1676,684,-1.00,-1.0
6919,14540,2040,-944,-1.00,-1.0
6921,17508,-3580,3820,-1.00,-1.0
6923,15444,2396,-1708,-1.00,-1.0
6925,17432,1680,-4452,-1.00,-1.0
6927,20636,-224,7700,-1.00,-1.0
6929,11312,1424,-11672,-1.00,-1.0
6931,20104,2316,8036,-1.00,-1.0
6933,16756,-716,-6712,-1.00,-1.0
6935,17124,1044,3244,-1.00,-1.0
6937,16092,1968,-4656,-1.00,-1.0
6939,21320,1684,7996,-1.00,-1.0
6943,23772,2144,15044,-1.00,-1.0
6945,15708,1028,-13304,-1.00,-1.0
6947,14704,1572,976,-1.00,-1.0
6949,19452,600,132,-1.00,-1.0
6951,19624,2596,6964,-1.00,-1.0
6953,8952,1780,-17792,-1.00,-1.0
6955,23668,904,14360,-1.00,-1.0
6957,16732,-604,-8896,-1.00,-1.0
6959,13668,1728,-196,-1.00,-1.0
6961,22420,3116,-956,-1.00,-1.0
6963,13316,92,-1300,-1.00,-1.0
6965,19876,-24,720,-1.00,-1.0
6967,14148,3716,-988,-1.00,-1.0
6969,18820,1444,2756,-1.00,-1.0
6970,13400,172,-6532,-1.00,-1.0
6972,15440,824,-3480,-1.00,-1.0
6977,14092,148,-852,-1.00,-1.0
6979,21284,664,6032,-1.00,-1.0
6980,17144,2344,3444,-1.00,-1.0
6982,11164,1848,-11252,-1.00,-1.0
6984,22704,-324,10288,-1.00,-1.0
6986,16932,268,-4968,-1.00,-1.0
6988,17312,-1020,6580,-1.00,-1.0
6990,16488,-2968,-156,-1.00,-1.0
6992,19020,-16,3576,-1.00,-1.0
6994,17364,-5644,-3024,-1.00,-1.0
6996,17048,1192,5944,-1.00,-1.0
6998,16112,-352,-3528,-1.00,-1.0
7000,17084,-2316,4504,-1.00,-1.0
7002,15928,-1180,-1560,-1.00,-1.0
7004,21060,1344,7720,-1.00,-1.0
7006,13008,-3216,-9032,-1.00,-1.0
7010,18376,2664,-5448,-1.00,-1.0
7012,14664,-5680,2268,-1.00,-1.0
7014,20712,-1620,4736,-1.00,-1.0
7016,14196,3644,-2500,-1.00,-1.0
7018,16704,-2200,-1428,-1.00,-1.0
7020,20088,-2904,7124,-1.00,-1.0
7022,17180,2800,-1020,-1.00,-1.0
7024,14448,-3276,-4444,-1.00,-1.0
7026,21696,-1788,10352,-1.00,-1.0
7028,12624,2320,-9448,-1.00,-1.0
7030,17672,-2264,6156,-1.00,-1.0
7032,19116,-2400,892,-1.00,-1.0
7034,15104,3472,1156,-1.00,-1.0
7036,15268,-3732,-7080,-1.00,-1.0
7037,21992,316,12048,-1.00,-1.0
7042,17232,-848,3556,-1.00,-1.0
7044,19172,-1388,1768,-1.00,-1.0
7046,16648,4488,1704,-1.00,-1.0
7047,15136,-2768,-5700,-1.00,-1.0
7050,21408,732,9688,-1.00,-1.0
7051,14640,2132,-9892,-1.00,-1.0
7053,18008,-2924,6588,-1.00,-1.0
7055,17744,-948,928,-1.00,-1.0
7057,14280,3780,-168,-1.00,-1.0
7059,18316,-84,-4680,-1.00,-1.0
7061,18156,-1548,1788,-1.00,-1.0
7063,12148,3032,-6692,-1.00,-1.0
7065,19752,-3340,7656,-1.00,-1.0
7067,16464,-1488,792,-1.00,-1.0
7069,13868,2444,-4092,-1.00,-1.0
7071,17072,-1360,2876,-1.00,-1.0
7075,16264,2200,-428,-1.00,-1.0
7077,15116,-1560,-4288,-1.00,-1.0
7079,20168,428,9576,-1.00,-1.0
7081,14520,1796,-6332,-1.00,-1.0
7083,15652,-856,2644,-1.00,-1.0
7085,19920,-3596,2836,-1.00,-1.0
7087,14824,5180,-1380,-1.00,-1.0
7089,17392,-5140,-2512,-1.00,-1.0
7091,21036,1624,4540,-1.00,-1.0
7093,12500,408,-10048,-1.00,-1.0
7094,19736,-1836,10384,-1.00,-1.0
7096,16596,-1380,-784,-1.00,-1.0
7098,13444,6000,-2084,-1.00,-1.0
7100,16976,-3288,-3872,-1.00,-1.0
7102,22948,-1524,14384,-1.00,-1.0
7104,16308,1872,3668,-1.00,-1.0
7108,12112,2188,-5676,-1.00,-1.0
7110,21612,716,5600,-1.00,-1.0
7112,15172,-428,-660,-1.00,-1.0
7114,16764,-440,2976,-1.00,-1.0
7116,14560,1136,-3256,-1.00,-1.0
7118,21236,-1984,10164,-1.00,-1.0
7120,11356,976,-10532,-1.00,-1.0
7122,18096,980,6572,-1.00,-1.0
7124,20496,-4292,3084,-1.00,-1.0
7126,12664,756,-4872,-1.00,-1.0
7128,17588,1516,780,-1.00,-1.0
7130,20100,-3424,6868,-1.00,-1.0
7132,14616,-36,-2296,-1.00,-1.0
7134,16028,1100,-1376,-1.00,-1.0
7135,17528,-216,3576,-1.00,-1.0
7140,16824,3908,-736,-1.00,-1.0
7142,15312,-3168,-3884,-1.00,-1.0
7144,21284,-444,8680,-1.00,-1.0
7145,14456,1512,-8672,-1.00,-1.0
7148,17648,-1304,4808,-1.00,-1.0
7149,18720,-1912,-372,-1.00,-1.0
7151,17704,1880,4488,-1.00,-1.0
7153,14116,-2096,-8160,-1.00,-1.0
7155,19764,-632,11164,-1.00,-1.0
7157,18272,3408,-6596,-1.00,-1.0
7159,24580,-3588,12608,-1.00,-1.0
7161,9668,352,-11032,-1.00,-1.0
7163,17332,1728,4168,-1.00,-1.0
7165,19980,-2364,4204,-1.00,-1.0
7167,14628,-848,696,-1.00,-1.0
7169,15144,2224,-4012,-1.00,-1.0
7173,15260,-1992,-3768,-1.00,-1.0
7175,14456,388,-2064,-1.00,-1.0
7177,21848,-2372,9392,-1.00,-1.0
7179,13380,-600,-7144,-1.00,-1.0
7181,17316,852,2376,-1.00,-1.0
7183,19884,-4596,1896,-1.00,-1.0
7185,16688,2224,1412,-1.00,-1.0
7187,13252,1412,-9756,-1.00,-1.0
7189,21620,-3216,12160,-1.00,-1.0
7191,15792,-1568,-5736,-1.00,-1.0
7193,14772,4480,-580,-1.00,-1.0
7194,20188,-2356,164,-1.00,-1.0
7197,18424,1292,3236,-1.00,-1.0
7199,14284,4236,-9592,-1.00,-1.0
7200,19732,-1952,8896,-1.00,-1.0
7202,16680,-308,-448,-1.00,-1.0
7207,20924,-400,2556,-1.00,-1.0
7209,13692,-1588,-3808,-1.00,-1.0
7210,22376,232,8440,-1.00,-1.0
7212,14232,1160,-7000,-1.00,-1.0
7214,15972,1584,1464,-1.00,-1.0
7216,16748,-904,372,-1.00,-1.0
7218,21336,-1152,10412,-1.00,-1.0
7220,16624,-2128,-2532,-1.00,-1.0
7222,19652,-132,10200,-1.00,-1.0
7224,17932,-164,-364,-1.00,-1.0
7226,19156,128,9480,-1.00,-1.0
7228,18876,-1640,-3096,-1.00,-1.0
7230,16000,1712,2144,-1.00,-1.0
7232,15372,-2332,-9308,-1.00,-1.0
7234,21820,2648,12372,-1.00,-1.0
7238,21344,2596,8688,-1.00,-1.0
7240,10980,1276,-17036,-1.00,-1.0
7242,20688,112,14448,-1.00,-1.0
7244,20064,-2568,-2728,-1.00,-1.0
7246,10900,8132,-4848,-1.00,-1.0
7248,16840,-2048,-4580,-1.00,-1.0
7250,21312,-760,13964,-1.00,-1.0
7252,13088,1496,-9756,-1.00,-1.0
7254,14304,4140,1000,-1.00,-1.0
7256,20648,-2024,3868,-1.00,-1.0
7258,13768,1176,-892,-1.00,-1.0
7259,16308,396,-1812,-1.00,-1.0
7261,16784,1292,3296,-1.00,-1.0
7263,18236,1600,-624,-1.00,-1.0
7265,11896,-356,-5652,-1.00,-1.0
7267,22456,-6532,12824,-1.00,-1.0
7271,8324,2668,-13324,-1.00,-1.0
7273,23864,-4716,13976,-1.00,-1.0
7275,20344,-1992,2340,-1.00,-1.0
7277,10604,2752,-9768,-1.00,-1.0
7279,20388,-3688,5020,-1.00,-1.0
7281,20488,-804,8892,-1.00,-1.0
7283,12580,-1276,-9448,-1.00,-1.0
7285,16704,-64,-1380,-1.00,-1.0
7287,15648,1508,912,-1.00,-1.0
7289,17348,128,-8,-1.00,-1.0
7291,16596,-684,1888,-1.00,-1.0
7293,15136,1184,-1668,-1.00,-1.0
7295,17616,-488,2192,-1.00,-1.0
7297,18124,-648,2872,-1.00,-1.0
7299,15604,316,-3804,-1.00,-1.0
7301,15336,788,-436,-1.00,-1.0
7305,19288,616,636,-1.00,-1.0
7307,11072,2644,-9912,-1.00,-1.0
7309,19788,-3432,9188,-1.00,-1.0
7311,22348,-476,6220,-1.00,-1.0
7313,8336,5676,-15792,-1.00,-1.0
7315,20852,-2576,7720,-1.00,-1.0
7317,19316,184,1360,-1.00,-1.0
7318,12088,360,-2588,-1.00,-1.0
7320,17140,3048,-2864,-1.00,-1.0
7322,18732,-528,8040,-1.00,-1.0
7324,17020,1988,-5900,-1.00,-1.0
7326,16768,-220,-1068,-1.00,-1.0
7328,19744,-396,4048,-1.00,-1.0
7330,16732,1600,-1308,-1.00,-1.0
7332,12612,3208,-3736,-1.00,-1.0
7334,19900,-820,7564,-1.00,-1.0
7338,16328,132,-3952,-1.00,-1.0
7340,16620,2492,2152,-1.00,-1.0
7342,19240,-960,8640,-1.00,-1.0
7344,15208,-136,-6884,-1.00,-1.0
7346,19500,-1856,9180,-1.00,-1.0
7348,15552,-236,-6104,-1.00,-1.0
7350,18356,4,6248,-1.00,-1.0
7352,19316,308,-3676,-1.00,-1.0
7354,15864,-1956,2332,-1.00,-1.0
7356,19100,-716,1996,-1.00,-1.0
7358,14340,1692,-2192,-1.00,-1.0
7359,18432,-1148,2068,-1.00,-1.0
7362,17488,-1800,1804,-1.00,-1.0
7364,16812,-968,3224,-1.00,-1.0
7365,16124,1484,-1764,-1.00,-1.0
7367,16212,-888,-1156,-1.00,-1.0
7371,20544,-2424,5860,-1.00,-1.0
7373,15312,1784,-1348,-1.00,-1.0
7375,14020,-980,-2596,-1.00,-1.0
7377,19712,-876,8608,-1.00,-1.0
7379,16452,-4644,-1892,-1.00,-1.0
7381,14964,836,760,-1.00,-1.0
7383,19756,1524,9884,-1.00,-1.0
7385,18376,1556,5636,-1.00,-1.0
7387,18744,148,9924,-1.00,-1.0
7389,15752,184,-7248,-1.00,-1.0
7391,15800,452,1192,-1.00,-1.0
7393,17560,-1108,-2272,-1.00,-1.0
7395,18720,-264,8324,-1.00,-1.0
7397,12848,1784,-8820,-1.00,-1.0
7399,16544,1304,5332,-1.00,-1.0
7403,12232,1088,-5776,-1.00,-1.0
7405,16148,2152,1784,-1.00,-1.0
7407,18648,-1644,6588,-1.00,-1.0
7409,13620,1116,-3716,-1.00,-1.0
7411,15228,68,-1968,-1.00,-1.0
7413,21868,-1016,5888,-1.00,-1.0
7414,14672,-936,-3188,-1.00,-1.0
7416,13884,1748,-2104,-1.00,-1.0
7418,20464,-1084,8068,-1.00,-1.0
7420,13848,1384,-5788,-1.00,-1.0
7422,17728,76,1608,-1.00,-1.0
7424,20492,2172,1172,-1.00,-1.0
7426,14588,1772,-4696,-1.00,-1.0
7428,19388,4028,2116,-1.00,-1.0
7430,14376,2036,-4792,-1.00,-1.0
7432,17008,164,6584,-1.00,-1.0
7436,14424,940,696,-1.00,-1.0
7438,18392,-1308,-2788,-1.00,-1.0
7440,18952,2568,2204,-1.00,-1.0
7442,16972,-4424,-764,-1.00,-1.0
7444,17652,84,5036,-1.00,-1.0
7446,12096,2828,-6904,-1.00,-1.0
7448,19216,5104,-1056,-1.00,-1.0
7450,15160,-5276,1840,-1.00,-1.0
7452,19056,-920,6368,-1.00,-1.0
7454,13832,4808,-3528,-1.00,-1.0
7456,14492,2800,-5016,-1.00,-1.0
7458,22780,-1480,4128,-1.00,-1.0
7460,16468,2560,700,-1.00,-1.0
7462,13720,924,-5824,-1.00,-1.0
7463,21860,888,9396,-1.00,-1.0
7465,14224,-60,-9660,-1.00,-1.0
7470,19672,16,-1364,-1.00,-1.0
7472,14728,1736,1060,-1.00,-1.0
7473,14868,-1396,-3816,-1.00,-1.0
7475,16720,1664,5156,-1.00,-1.0
7477,17404,-4416,2072,-1.00,-1.0
7479,19484,4,3664,-1.00,-1.0
7481,11944,1588,-8272,-1.00,-1.0
7483,21884,-3464,9372,-1.00,-1.0
7485,16312,-2920,-2072,-1.00,-1.0
7487,14328,1808,1016,-1.00,-1.0
7489,16428,-1272,1124,-1.00,-1.0
7491,16688,-1092,5008,-1.00,-1.0
7493,13772,2636,-6764,-1.00,-1.0
7495,19740,-976,5724,-1.00,-1.0
7497,20104,276,648,-1.00,-1.0
7499,20240,-3596,9184,-1.00,-1.0
7503,16336,952,132,-1.00,-1.0
7505,14372,2656,-5428,-1.00,-1.0
7507,20124,-1332,3536,-1.00,-1.0
7509,14248,692,-3800,-1.00,-1.0
7511,16560,1196,-1948,-1.00,-1.0
7513,18728,-4196,5656,-1.00,-1.0
7515,14720,1704,-2964,-1.00,-1.0
7517,17192,-160,2948,-1.00,-1.0
7519,16984,-604,2764,-1.00,-1.0
7521,15924,-2796,2068,-1.00,-1.0
7523,17868,1168,2308,-1.00,-1.0
7524,15168,-512,-3876,-1.00,-1.0
7526,18548,-1660,4064,-1.00,-1.0
7528,19556,-1572,1020,-1.00,-1.0
7530,13736,1532,-1108,-1.00,-1.0
7532,15896,-1912,-1212,-1.00,-1.0
7537,14056,32,-7076,-1.00,-1.0
7539,19408,28,4860,-1.00,-1.0
7541,16236,-2460,-3320,-1.00,-1.0
7542,20020,-696,8364,-1.00,-1.0
7544,16452,1172,-7156,-1.00,-1.0
7546,18660,-4116,7920,-1.00,-1.0
7548,18748,-1224,-3324,-1.00,-1.0
7550,14688,4220,-5272,-1.00,-1.0
7552,19940,-2456,1672,-1.00,-1.0
7554,19236,-408,6032,-1.00,-1.0
7556,14780,4288,-3560,-1.00,-1.0
7558,13584,2604,-3700,-1.00,-1.0
7560,22568,-1236,8140,-1.00,-1.0
7562,14696,4588,-7364,-1.00,-1.0
7564,18116,-968,4492,-1.00,-1.0
7568,13664,3096,180,-1.00,-1.0
7570,16200,512,-2000,-1.00,-1.0
7572,19832,332,7148,-1.00,-1.0
7574,15496,2996,-5128,-1.00,-1.0
7576,16200,1840,-1352,-1.00,-1.0
7578,19244,420,5136,-1.00,-1.0
7580,16384,1512,3156,-1.00,-1.0
7582,18328,-3840,-1624,-1.00,-1.0
7584,18468,1656,3072,-1.00,-1.0
7586,13576,960,-10240,-1.00,-1.0
7588,23532,-2980,15436,-1.00,-1.0
7590,13392,1728,-11676,-1.00,-1.0
7592,12932,2796,-592,-1.00,-1.0
7594,24628,-1660,4992,-1.00,-1.0
7595,13980,1524,-8252,-1.00,-1.0
7597,16496,1160,-2192,-1.00,-1.0
7603,9036,5004,-13460,-1.00,-1.0
7605,25296,-2596,16628,-1.00,-1.0
7607,14236,1508,-6728,-1.00,-1.0
7609,15228,-148,2468,-1.00,-1.0
7611,18456,308,-1420,-1.00,-1.0
7613,16392,-2532,8056,-1.00,-1.0
7615,15540,452,-7100,-1.00,-1.0
7617,16524,-512,10032,-1.00,-1.0
7619,18556,296,456,-1.00,-1.0
7621,14040,1520,-2736,-1.00,-1.0
7623,17688,-588,-492,-1.00,-1.0
7625,16368,5756,5480,-1.00,-1.0
7627,15592,2876,420,-1.00,-1.0
7629,22784,796,19084,-1.00,-1.0
7631,15544,-1164,-14560,-1.00,-1.0
7633,15448,5024,6352,-1.00,-1.0
7636,18564,1252,15584,-1.00,-1.0
7638,14764,620,-15868,-1.00,-1.0
7640,12716,5180,3680,-1.00,-1.0
7642,22936,-3836,5316,-1.00,-1.0
7644,14328,544,5596,-1.00,-1.0
7646,13544,1904,-7576,-1.00,-1.0
7648,17496,-376,7540,-1.00,-1.0
7650,20600,-1552,4828,-1.00,-1.0
7652,14636,696,-4648,-1.00,-1.0
7654,18468,-1232,4616,-1.00,-1.0
7656,17532,-1096,1148,-1.00,-1.0
7658,12500,-196,0,-1.00,-1.0
7660,21176,-3128,5968,-1.00,-1.0
7662,14280,-12,-536,-1.00,-1.0
7664,17424,-148,-1156,-1.00,-1.0
7666,16436,888,628,-1.00,-1.0
7670,15200,2444,-6192,-1.00,-1.0
7672,16400,-3448,3376,-1.00,-1.0
7674,20468,-2244,7260,-1.00,-1.0
7676,17364,-80,4780,-1.00,-1.0
7678,21180,-2872,5796,-1.00,-1.0
7680,12992,652,-992,-1.00,-1.0
7682,14532,-384,-2576,-1.00,-1.0
7683,20804,-2140,9280,-1.00,-1.0
7686,12748,-1548,-7296,-1.00,-1.0
7687,18540,-1504,5956,-1.00,-1.0
7689,18716,152,1040,-1.00,-1.0
7691,13188,-720,-2692,-1.00,-1.0
7693,18276,-5576,5080,-1.00,-1.0
7695,20404,-2956,7284,-1.00,-1.0
7697,11340,864,-10808,-1.00,-1.0
7701,20500,-4384,5344,-1.00,-1.0
7703,15460,1152,-496,-1.00,-1.0
7705,14952,532,-5928,-1.00,-1.0
7707,18160,-2820,7260,-1.00,-1.0
7709,21300,-724,2296,-1.00,-1.0
7711,15992,3164,-5648,-1.00,-1.0
7713,16448,-916,-1500,-1.00,-1.0
7715,20944,-748,9016,-1.00,-1.0
7717,14996,3480,-5208,-1.00,-1.0
7719,13908,1816,-1096,-1.00,-1.0
7721,20888,648,3932,-1.00,-1.0
7723,17296,4484,-3572,-1.00,-1.0
7725,14908,1348,-5568,-1.00,-1.0
7727,21884,460,8864,-1.00,-1.0
7729,14760,-1016,-528,-1.00,-1.0
7731,20500,-5436,5924,-1.00,-1.0
7735,19064,156,2328,-1.00,-1.0
7737,8528,4664,-13968,-1.00,-1.0
7739,21796,616,4188,-1.00,-1.0
7741,12308,5336,-13228,-1.00,-1.0
7743,16696,-4772,564,-1.00,-1.0
7745,24600,-3036,18452,-1.00,-1.0
7746,10680,5272,-12244,-1.00,-1.0
7748,11608,1848,-4648,-1.00,-1.0
7750,26340,-2484,11816,-1.00,-1.0
7752,16664,2460,-3268,-1.00,-1.0
7754,15564,1636,-7460,-1.00,-1.0
7756,19180,1908,3560,-1.00,-1.0
7758,18612,-984,4156,-1.00,-1.0
7760,13160,2328,-4572,-1.00,-1.0
7762,19448,252,5404,-1.00,-1.0
7764,14836,2712,-3748,-1.00,-1.0
7768,21692,1432,5412,-1.00,-1.0
7770,14280,480,-5600,-1.00,-1.0
7772,15324,1552,1228,-1.00,-1.0
7774,19400,-1220,5920,-1.00,-1.0
7776,14272,700,168,-1.00,-1.0
7778,14668,228,-5032,-1.00,-1.0
7780,20200,848,7168,-1.00,-1.0
7782,14880,-4164,-3820,-1.00,-1.0
7784,17900,948,4360,-1.00,-1.0
7786,16884,1556,-3220,-1.00,-1.0
7788,15776,-2508,1612,-1.00,-1.0
7790,14892,1052,-2144,-1.00,-1.0
7792,17120,4300,-2196,-1.00,-1.0
7794,18424,-1360,1840,-1.00,-1.0
7795,17876,504,1340,-1.00,-1.0
7797,17728,3576,-1840,-1.00,-1.0
7802,17608,-1200,5584,-1.00,-1.0
7804,19272,68,6000,-1.00,-1.0
7805,10560,3128,-8692,-1.00,-1.0
7807,13636,804,200,-1.00,-1.0
7809,25244,-4276,13624,-1.00,-1.0
7811,11752,1924,-11888,-1.00,-1.0
7813,15148,1480,-1380,-1.00,-1.0
7815,24652,-4180,11440,-1.00,-1.0
7817,12564,-1560,-3772,-1.00,-1.0
7819,11916,2124,-6372,-1.00,-1.0
7821,21948,-5828,14692,-1.00,-1.0
7823,15740,-1584,-2356,-1.00,-1.0
7825,12732,3140,-8856,-1.00,-1.0
7827,21420,-6680,8336,-1.00,-1.0
7829,23184,-2556,8376,-1.00,-1.0
7833,17920,-4304,6320,-1.00,-1.0
7835,24872,-2640,13648,-1.00,-1.0
7837,12056,6252,-15416,-1.00,-1.0
7839,15800,-3772,1080,-1.00,-1.0
7841,22680,-5092,13316,-1.00,-1.0
7843,16512,5304,-1716,-1.00,-1.0
7845,7776,1768,-16696,-1.00,-1.0
7847,25508,-3844,18892,-1.00,-1.0
7849,17620,1336,-1280,-1.00,-1.0
7851,14920,3744,-6112,-1.00,-1.0
7853,14448,556,-7180,-1.00,-1.0
7854,15048,6192,-6408,-1.00,-1.0
7857,9040,612,-19152,-1.00,-1.0
7859,25936,-2516,17584,-1.00,-1.0
7860,14216,3020,-11652,-1.00,-1.0
7862,14872,-956,2568,-1.00,-1.0
7866,14408,5160,-140,-1.00,-1.0
7868,13864,-3936,-9528,-1.00,-1.0
7870,23356,-1760,16060,-1.00,-1.0
7872,15912,1920,-12800,-1.00,-1.0
7874,13288,-976,1524,-1.00,-1.0
7876,22824,-5000,7420,-1.00,-1.0
7878,17256,5316,2748,-1.00,-1.0
7880,7552,-596,-17724,-1.00,-1.0
7882,24256,-2688,20720,-1.00,-1.0
7884,18548,2640,-4732,-1.00,-1.0
7886,9000,3568,-11108,-1.00,-1.0
7888,21168,-5012,8492,-1.00,-1.0
7890,21500,216,9480,-1.00,-1.0
7892,8312,-624,-12456,-1.00,-1.0
7894,18472,108,5228,-1.00,-1.0
7898,12528,8,-5732,-1.00,-1.0
7900,21892,1152,5212,-1.00,-1.0
7901,19856,-3220,8508,-1.00,-1.0
7903,18388,4300,-6676,-1.00,-1.0
7905,9396,2140,-5688,-1.00,-1.0
7907,22596,-148,12524,-1.00,-1.0
7909,19188,-2792,7600,-1.00,-1.0
7911,8916,5436,-17552,-1.00,-1.0
7913,20248,360,5448,-1.00,-1.0
7915,24484,-4632,12072,-1.00,-1.0
7917,12380,4876,-12008,-1.00,-1.0
7919,12344,5304,-7244,-1.00,-1.0
7921,25476,-6412,15636,-1.00,-1.0
7923,10220,2424,-8748,-1.00,-1.0
7925,19804,4168,884,-1.00,-1.0
7927,18212,-392,484,-1.00,-1.0
7931,13568,4464,-7508,-1.00,-1.0
