timestamp_ms,accel_x,accel_y,accel_z,voltage,soc
2,14384,4772,-10200,-1.00,-1.0
4,6796,3440,-11460,-1.00,-1.0
6,21648,-5692,20860,-1.00,-1.0
11,17368,-604,-12480,-1.00,-1.0
14,23976,-520,11076,-1.00,-1.0
15,11984,3576,-7208,-1.00,-1.0
17,25856,-3136,10604,-1.00,-1.0
19,19176,-12,-10136,-1.00,-1.0
21,16740,3040,-3512,-1.00,-1.0
23,16896,1976,2676,-1.00,-1.0
25,12276,-2972,15852,-1.00,-1.0
27,12864,1156,-4752,-1.00,-1.0
29,13288,4876,-8588,-1.00,-1.0
31,29208,-6064,7776,-1.00,-1.0
33,16396,2064,-10576,-1.00,-1.0
35,14328,596,-624,-1.00,-1.0
37,16032,-3316,11220,-1.00,-1.0
39,14504,-1340,10976,-1.00,-1.0
41,8564,4048,-19572,-1.00,-1.0
45,30944,-3896,7744,-1.00,-1.0
47,4332,2204,-17540,-1.00,-1.0
49,19416,-1452,16556,-1.00,-1.0
51,15572,-444,6516,-1.00,-1.0
52,13632,772,-4972,-1.00,-1.0
55,20080,-296,-11336,-1.00,-1.0
57,24932,-212,8768,-1.00,-1.0
58,7932,6412,-7928,-1.00,-1.0
60,27572,-7232,13672,-1.00,-1.0
62,18236,-12,-13256,-1.00,-1.0
64,17588,3668,-1208,-1.00,-1.0
66,18552,-2040,5344,-1.00,-1.0
68,11136,-3188,10864,-1.00,-1.0
70,16040,-240,-1228,-1.00,-1.0
72,13268,4616,-10148,-1.00,-1.0
74,28424,-5784,4464,-1.00,-1.0
76,16896,-3444,-2564,-1.00,-1.0
80,9364,2956,-4336,-1.00,-1.0
82,17992,-3884,11676,-1.00,-1.0
84,22256,-1864,-7844,-1.00,-1.0
86,19712,4596,-4840,-1.00,-1.0
88,20344,-3672,-3272,-1.00,-1.0
90,14492,-808,12160,-1.00,-1.0
92,10760,496,-332,-1.00,-1.0
94,15248,1304,6796,-1.00,-1.0
96,23268,-3468,-2084,-1.00,-1.0
98,12868,2212,-15288,-1.00,-1.0
100,27124,-3556,14704,-1.00,-1.0
102,17540,-988,5240,-1.00,-1.0
104,3516,1892,-8744,-1.00,-1.0
106,20816,-1764,9868,-1.00,-1.0
107,20828,1336,-960,-1.00,-1.0
109,13264,1660,6904,-1.00,-1.0
114,25740,-1456,26980,-1.00,-1.0
116,2800,5276,-15164,-1.00,-1.0
117,12568,-2024,1448,-1.00,-1.0
119,8428,2352,-8520,-1.00,-1.0
121,17356,4444,-8176,-1.00,-1.0
123,15064,1688,6916,-1.00,-1.0
125,21004,-1996,3324,-1.00,-1.0
127,17608,324,-15220,-1.00,-1.0
129,24548,340,12580,-1.00,-1.0
131,18384,-1972,2052,-1.00,-1.0
133,6692,696,-1408,-1.00,-1.0
135,19528,-1556,7112,-1.00,-1.0
137,14644,5544,-5460,-1.00,-1.0
139,20928,-1576,-4976,-1.00,-1.0
141,20244,-2752,6332,-1.00,-1.0
143,16160,2592,4540,-1.00,-1.0
147,20552,-5880,11192,-1.00,-1.0
149,16108,1420,-9936,-1.00,-1.0
151,20152,952,-772,-1.00,-1.0
153,19560,-68,-1036,-1.00,-1.0
155,14080,-6344,12096,-1.00,-1.0
157,20164,12,4800,-1.00,-1.0
159,4428,9272,-21948,-1.00,-1.0
161,26436,-6500,10836,-1.00,-1.0
162,26224,-8232,12020,-1.00,-1.0
164,11184,6728,-5032,-1.00,-1.0
166,7776,3616,-11228,-1.00,-1.0
168,25744,-4976,21780,-1.00,-1.0
170,16368,184,-15464,-1.00,-1.0
172,14604,4368,-2420,-1.00,-1.0
174,10880,3440,-6492,-1.00,-1.0
176,17848,96,-5596,-1.00,-1.0
178,21836,-3196,2308,-1.00,-1.0
182,22072,-4096,2180,-1.00,-1.0
184,16572,-104,368,-1.00,-1.0
186,16900,1148,3572,-1.00,-1.0
188,17620,1768,772,-1.00,-1.0
190,21048,-3680,6544,-1.00,-1.0
192,16192,-3132,5520,-1.00,-1.0
194,10188,6248,-10436,-1.00,-1.0
196,16792,-476,-1500,-1.00,-1.0
198,25280,-6452,12072,-1.00,-1.0
200,16472,1300,-1896,-1.00,-1.0
202,15720,3592,796,-1.00,-1.0
204,14840,2152,-4764,-1.00,-1.0
206,19504,-412,404,-1.00,-1.0
208,18640,-2436,-1552,-1.00,-1.0
210,20780,-2484,12404,-1.00,-1.0
212,11120,3180,-4660,-1.00,-1.0
216,22156,-2656,5544,-1.00,-1.0
218,22908,-5272,8780,-1.00,-1.0
220,13576,-488,1696,-1.00,-1.0
222,11864,2632,-4780,-1.00,-1.0
224,16572,3092,564,-1.00,-1.0
226,18700,-4800,-3424,-1.00,-1.0
228,24436,-5852,15812,-1.00,-1.0
229,15756,48,-2012,-1.00,-1.0
232,8904,7412,-7640,-1.00,-1.0
233,17676,-1236,-6404,-1.00,-1.0
235,26168,-7152,14284,-1.00,-1.0
237,12344,2524,-3692,-1.00,-1.0
239,16492,4936,3960,-1.00,-1.0
241,20308,-6240,2172,-1.00,-1.0
243,21592,-3512,13200,-1.00,-1.0
245,10952,3672,-10260,-1.00,-1.0
249,6556,8096,-16284,-1.00,-1.0
251,25188,-7320,17592,-1.00,-1.0
253,9324,3272,-13296,-1.00,-1.0
255,14024,5952,-416,-1.00,-1.0
257,15336,-144,-7544,-1.00,-1.0
259,23808,-6224,13928,-1.00,-1.0
261,22288,-5180,2972,-1.00,-1.0
263,11860,7880,-3528,-1.00,-1.0
265,9952,4068,-14988,-1.00,-1.0
267,23164,-6316,13900,-1.00,-1.0
269,20912,-2292,3332,-1.00,-1.0
271,17308,3100,4152,-1.00,-1.0
273,11104,6552,-12716,-1.00,-1.0
275,12840,1828,-2748,-1.00,-1.0
277,25816,-6640,13344,-1.00,-1.0
279,20864,-1260,9456,-1.00,-1.0
283,7396,6016,-16224,-1.00,-1.0
285,23488,-6800,15312,-1.00,-1.0
286,28796,-4040,15056,-1.00,-1.0
288,6848,8136,-15324,-1.00,-1.0
290,11296,2484,-4716,-1.00,-1.0
292,21844,-888,10952,-1.00,-1.0
294,16436,-3764,-1620,-1.00,-1.0
296,15736,3808,-3616,-1.00,-1.0
298,16352,1956,-2308,-1.00,-1.0
300,22828,-6132,8280,-1.00,-1.0
302,18544,3700,2484,-1.00,-1.0
304,7604,7368,-13300,-1.00,-1.0
306,16376,-1868,1308,-1.00,-1.0
308,22576,-2992,8108,-1.00,-1.0
310,18800,-2348,3192,-1.00,-1.0
312,17352,2504,2852,-1.00,-1.0
316,16296,-1660,2612,-1.00,-1.0
318,29936,-7644,17684,-1.00,-1.0
320,13704,1720,-3136,-1.00,-1.0
322,10044,2892,-8872,-1.00,-1.0
324,19944,2736,3896,-1.00,-1.0
326,15956,-3948,-5288,-1.00,-1.0
327,23464,-3664,13048,-1.00,-1.0
329,17004,916,-2616,-1.00,-1.0
331,7828,6808,-6588,-1.00,-1.0
333,19460,-2332,-760,-1.00,-1.0
335,22972,-6184,8932,-1.00,-1.0
337,14992,2196,796,-1.00,-1.0
339,14628,-796,-3348,-1.00,-1.0
341,25348,-2396,10132,-1.00,-1.0
343,14236,896,-5896,-1.00,-1.0
345,17272,-56,9420,-1.00,-1.0
349,16492,-2472,3736,-1.00,-1.0
351,27812,-4832,11960,-1.00,-1.0
353,14228,3464,-2872,-1.00,-1.0
355,7892,5784,-12064,-1.00,-1.0
357,20432,-1048,12860,-1.00,-1.0
359,22000,-2804,3596,-1.00,-1.0
361,15328,3944,-8836,-1.00,-1.0
363,16268,-1620,108,-1.00,-1.0
365,17916,-2228,10500,-1.00,-1.0
367,13508,-1272,-2048,-1.00,-1.0
369,15372,152,-4328,-1.00,-1.0
370,21984,672,3012,-1.00,-1.0
372,16940,-1016,-2744,-1.00,-1.0
374,16484,-2528,2452,-1.00,-1.0
376,17388,1352,3124,-1.00,-1.0
378,11064,3104,-4616,-1.00,-1.0
382,15964,-424,-8692,-1.00,-1.0
384,18072,2088,1676,-1.00,-1.0
386,18684,-2072,1428,-1.00,-1.0
388,15744,-508,6648,-1.00,-1.0
390,13456,1340,-6740,-1.00,-1.0
392,16816,-372,3288,-1.00,-1.0
394,11972,1872,-4484,-1.00,-1.0
396,18208,-2028,7720,-1.00,-1.0
398,12936,-480,-4500,-1.00,-1.0
400,18380,244,3420,-1.00,-1.0
402,22068,1552,68,-1.00,-1.0
404,11292,1412,-7652,-1.00,-1.0
406,19284,-4536,11552,-1.00,-1.0
408,16748,1180,2880,-1.00,-1.0
410,10636,5704,-11052,-1.00,-1.0
412,17952,-3472,-636,-1.00,-1.0
416,10540,5392,-14280,-1.00,-1.0
418,12060,1464,-3884,-1.00,-1.0
420,21240,-2880,9384,-1.00,-1.0
422,16668,-660,6440,-1.00,-1.0
424,14528,2300,-10600,-1.00,-1.0
426,18056,2224,1544,-1.00,-1.0
427,22872,-3856,5092,-1.00,-1.0
429,18448,2008,-1444,-1.00,-1.0
431,13824,-3124,-976,-1.00,-1.0
433,17644,1416,4116,-1.00,-1.0
435,11948,1612,-2596,-1.00,-1.0
437,20348,-768,1628,-1.00,-1.0
439,18872,-752,508,-1.00,-1.0
441,21084,1456,3424,-1.00,-1.0
443,14452,-1456,2564,-1.00,-1.0
445,21584,-2576,9108,-1.00,-1.0
449,10992,4276,-5256,-1.00,-1.0
451,16552,188,696,-1.00,-1.0
453,16596,-1580,1912,-1.00,-1.0
455,15356,1964,-4088,-1.00,-1.0
457,15212,644,1992,-1.00,-1.0
459,16648,-280,3440,-1.00,-1.0
461,12908,756,-3008,-1.00,-1.0
463,22244,-444,11084,-1.00,-1.0
465,14624,3104,-10232,-1.00,-1.0
467,12388,-1232,-1400,-1.00,-1.0
469,27492,-4520,10136,-1.00,-1.0
470,14132,1100,-4136,-1.00,-1.0
472,15836,-336,-4420,-1.00,-1.0
474,18504,-1208,5840,-1.00,-1.0
476,18240,3128,2080,-1.00,-1.0
478,15588,-1268,-3620,-1.00,-1.0
482,15492,1188,524,-1.00,-1.0
484,15784,456,2756,-1.00,-1.0
486,16720,-572,-4024,-1.00,-1.0
488,19844,-364,6404,-1.00,-1.0
490,17228,2608,-8600,-1.00,-1.0
492,15964,-2680,2972,-1.00,-1.0
494,22344,1004,4504,-1.00,-1.0
496,18148,308,3116,-1.00,-1.0
498,20476,-1548,4640,-1.00,-1.0
500,14628,908,-6220,-1.00,-1.0
502,19492,-1384,4332,-1.00,-1.0
504,19568,1180,-840,-1.00,-1.0
506,15592,-2652,2040,-1.00,-1.0
508,19208,2468,-752,-1.00,-1.0
510,13596,-1096,900,-1.00,-1.0
512,21376,-3528,6864,-1.00,-1.0
513,11640,3808,-6820,-1.00,-1.0
518,20052,-3276,7632,-1.00,-1.0
520,16184,732,-992,-1.00,-1.0
522,11080,4112,-8868,-1.00,-1.0
523,23528,-3000,11264,-1.00,-1.0
526,16692,-1940,-1944,-1.00,-1.0
528,17052,1760,320,-1.00,-1.0
529,18108,356,-1924,-1.00,-1.0
531,19308,-1732,5564,-1.00,-1.0
533,14860,-16,-3580,-1.00,-1.0
535,18492,2232,5060,-1.00,-1.0
537,14700,1064,-4320,-1.00,-1.0
539,15924,172,3324,-1.00,-1.0
541,18828,-116,108,-1.00,-1.0
543,16200,860,1668,-1.00,-1.0
545,20664,-2736,6144,-1.00,-1.0
547,18232,1572,-1456,-1.00,-1.0
551,20156,-1392,4944,-1.00,-1.0
553,15628,-1260,1160,-1.00,-1.0
555,12980,3308,-3740,-1.00,-1.0
557,16644,-236,2932,-1.00,-1.0
559,13476,-780,136,-1.00,-1.0
561,17288,-404,3920,-1.00,-1.0
563,16668,1580,-2116,-1.00,-1.0
564,14900,364,-2028,-1.00,-1.0
567,18308,512,2012,-1.00,-1.0
568,18804,12,4600,-1.00,-1.0
570,17692,2004,-3356,-1.00,-1.0
572,12820,1920,-5464,-1.00,-1.0
574,22532,-1228,10316,-1.00,-1.0
576,21004,404,944,-1.00,-1.0
578,13056,1720,-8600,-1.00,-1.0
580,18656,-912,1252,-1.00,-1.0
584,14996,3348,-6552,-1.00,-1.0
586,14888,-732,-1800,-1.00,-1.0
588,12560,1580,-8932,-1.00,-1.0
590,18156,68,3816,-1.00,-1.0
592,18976,-1340,1300,-1.00,-1.0
594,15508,2340,288,-1.00,-1.0
596,17596,-1008,-616,-1.00,-1.0
598,17908,-532,1848,-1.00,-1.0
599,19280,-4324,4316,-1.00,-1.0
602,17268,-268,-2260,-1.00,-1.0
604,13996,-2260,-1480,-1.00,-1.0
605,20148,-1372,5416,-1.00,-1.0
607,15308,-520,-1544,-1.00,-1.0
609,16068,-2844,5476,-1.00,-1.0
611,16928,1576,-428,-1.00,-1.0
613,13596,1544,1468,-1.00,-1.0
615,17068,-2564,-132,-1.00,-1.0
619,8240,5348,-14780,-1.00,-1.0
621,23244,-2672,12876,-1.00,-1.0
623,17472,1160,-2700,-1.00,-1.0
625,14424,4616,-4928,-1.00,-1.0
627,19956,-1752,1316,-1.00,-1.0
629,20764,844,6772,-1.00,-1.0
631,14136,1364,-9468,-1.00,-1.0
633,17704,-452,4400,-1.00,-1.0
635,17648,-3216,-500,-1.00,-1.0
637,19560,2004,1776,-1.00,-1.0
639,19296,-1460,5444,-1.00,-1.0
641,15488,256,308,-1.00,-1.0
643,16384,968,-2048,-1.00,-1.0
645,16916,696,2208,-1.00,-1.0
647,18976,-1580,328,-1.00,-1.0
649,15688,984,-2724,-1.00,-1.0
653,21424,-692,2740,-1.00,-1.0
655,15440,88,-6512,-1.00,-1.0
657,19464,348,2760,-1.00,-1.0
659,21036,-2708,1764,-1.00,-1.0
661,14568,512,-1312,-1.00,-1.0
663,17804,8,720,-1.00,-1.0
664,15948,2060,1320,-1.00,-1.0
666,17672,-1120,-296,-1.00,-1.0
668,14992,2048,-492,-1.00,-1.0
670,16764,-188,1200,-1.00,-1.0
672,17160,3892,-1788,-1.00,-1.0
674,14388,-896,-3600,-1.00,-1.0
676,19628,-3184,7984,-1.00,-1.0
678,15928,-1176,2960,-1.00,-1.0
680,13096,4464,-5888,-1.00,-1.0
682,16496,-732,756,-1.00,-1.0
686,17816,968,820,-1.00,-1.0
688,14080,4980,-5828,-1.00,-1.0
690,17820,-4068,6756,-1.00,-1.0
692,19264,-1224,4432,-1.00,-1.0
694,14256,1544,-4364,-1.00,-1.0
696,18040,-912,880,-1.00,-1.0
698,15652,1008,-3076,-1.00,-1.0
700,16012,-792,-572,-1.00,-1.0
702,19000,1440,2572,-1.00,-1.0
704,16112,896,-1952,-1.00,-1.0
706,17392,1616,-1720,-1.00,-1.0
708,17576,4,464,-1.00,-1.0
709,16876,1860,1332,-1.00,-1.0
712,17216,956,1136,-1.00,-1.0
713,15300,2240,-2872,-1.00,-1.0
715,16404,-1568,1496,-1.00,-1.0
717,18836,1112,292,-1.00,-1.0
722,20248,-724,6188,-1.00,-1.0
724,13576,2796,-8048,-1.00,-1.0
726,18236,-600,4072,-1.00,-1.0
727,21396,-4492,4464,-1.00,-1.0
730,15016,3160,2440,-1.00,-1.0
732,12144,4296,-11744,-1.00,-1.0
733,22464,-3708,14772,-1.00,-1.0
735,17600,-1860,-5680,-1.00,-1.0
737,13780,1936,-96,-1.00,-1.0
739,17092,1928,-4280,-1.00,-1.0
741,18464,-2304,8180,-1.00,-1.0
743,15728,-2512,-2060,-1.00,-1.0
745,17940,-140,4332,-1.00,-1.0
747,15336,2512,-4384,-1.00,-1.0
749,19028,-2896,3584,-1.00,-1.0
751,19524,-1804,2496,-1.00,-1.0
755,15488,276,-2252,-1.00,-1.0
757,21024,-3964,7048,-1.00,-1.0
759,15332,1064,-1920,-1.00,-1.0
761,16856,-208,-1900,-1.00,-1.0
763,19512,-1036,5344,-1.00,-1.0
765,16452,-3144,344,-1.00,-1.0
767,15280,684,-3992,-1.00,-1.0
769,19820,1076,4868,-1.00,-1.0
771,13236,256,-6464,-1.00,-1.0
773,18156,-692,9592,-1.00,-1.0
775,15440,3632,-9800,-1.00,-1.0
776,14740,788,-256,-1.00,-1.0
779,21108,-5472,6888,-1.00,-1.0
781,16824,316,5984,-1.00,-1.0
782,10908,7592,-17032,-1.00,-1.0
784,17980,-1176,5996,-1.00,-1.0
789,13932,2928,-5524,-1.00,-1.0
791,16208,-868,-512,-1.00,-1.0
792,20056,-5384,10364,-1.00,-1.0
794,14520,496,-3640,-1.00,-1.0
796,16840,-2204,-2204,-1.00,-1.0
798,22260,-24,6304,-1.00,-1.0
800,12760,872,-5312,-1.00,-1.0
802,16876,-108,4420,-1.00,-1.0
804,20712,-1912,4512,-1.00,-1.0
806,15612,2300,-2520,-1.00,-1.0
808,17260,-5828,956,-1.00,-1.0
810,21756,-3792,13116,-1.00,-1.0
812,11360,2024,-11416,-1.00,-1.0
814,12948,1724,-1156,-1.00,-1.0
816,24656,-5752,10308,-1.00,-1.0
818,10716,428,-12108,-1.00,-1.0
822,13300,-896,-8896,-1.00,-1.0
824,19908,-1652,8216,-1.00,-1.0
826,15876,3600,-8320,-1.00,-1.0
828,16712,-2584,7768,-1.00,-1.0
830,21176,-3648,-824,-1.00,-1.0
832,15740,2096,3144,-1.00,-1.0
833,13288,1896,-10528,-1.00,-1.0
835,22392,-580,14744,-1.00,-1.0
837,13340,1796,-8836,-1.00,-1.0
839,17208,1572,2748,-1.00,-1.0
841,18732,-2480,3248,-1.00,-1.0
843,14796,1724,536,-1.00,-1.0
845,11988,404,-5512,-1.00,-1.0
847,21816,-1012,6660,-1.00,-1.0
849,12420,1144,-8536,-1.00,-1.0
851,20836,1416,5212,-1.00,-1.0
853,17836,1020,-6124,-1.00,-1.0
857,21568,-4848,9552,-1.00,-1.0
859,18164,1412,-1760,-1.00,-1.0
861,23604,-3552,8576,-1.00,-1.0
863,13500,2680,196,-1.00,-1.0
865,12016,3128,-6740,-1.00,-1.0
867,18704,-1232,7076,-1.00,-1.0
868,18048,188,-596,-1.00,-1.0
870,11760,3300,-7264,-1.00,-1.0
872,24292,-2900,7316,-1.00,-1.0
874,14424,2264,-5532,-1.00,-1.0
876,14972,-136,-424,-1.00,-1.0
878,24888,328,6680,-1.00,-1.0
880,14976,-616,-7716,-1.00,-1.0
882,18584,-1264,852,-1.00,-1.0
884,21316,-3700,10144,-1.00,-1.0
886,13012,1996,-4472,-1.00,-1.0
890,20476,-3908,8900,-1.00,-1.0
892,17280,-3044,-1044,-1.00,-1.0
894,15308,2764,-2432,-1.00,-1.0
896,19032,-4956,5132,-1.00,-1.0
898,20740,-2220,7732,-1.00,-1.0
900,11220,2140,-8184,-1.00,-1.0
902,17600,1144,5852,-1.00,-1.0
904,17852,-2836,2256,-1.00,-1.0
906,13652,2716,-2028,-1.00,-1.0
908,14484,4716,-3900,-1.00,-1.0
910,18568,-824,-1120,-1.00,-1.0
912,15156,-2176,-3020,-1.00,-1.0
914,19500,-1924,6188,-1.00,-1.0
916,17084,-300,52,-1.00,-1.0
917,15936,-632,-592,-1.00,-1.0
919,16304,-8,516,-1.00,-1.0
924,19060,-2220,2268,-1.00,-1.0
926,13348,-1284,-2380,-1.00,-1.0
927,18132,-2148,5716,-1.00,-1.0
929,17696,876,-1512,-1.00,-1.0
931,16208,56,1460,-1.00,-1.0
933,20788,-4956,7780,-1.00,-1.0
935,15540,1992,-768,-1.00,-1.0
937,11324,2592,-10736,-1.00,-1.0
939,24792,-1560,12552,-1.00,-1.0
941,17312,-1700,-4052,-1.00,-1.0
943,12784,3312,-4608,-1.00,-1.0
945,15680,5072,-4376,-1.00,-1.0
947,20680,-1688,8464,-1.00,-1.0
949,16816,-1712,-3408,-1.00,-1.0
951,16444,4164,460,-1.00,-1.0
953,12464,1692,-6620,-1.00,-1.0
957,14180,1064,-7596,-1.00,-1.0
959,15016,3952,-3068,-1.00,-1.0
961,19968,-3228,8024,-1.00,-1.0
963,16992,1652,1204,-1.00,-1.0
965,11224,1284,-5660,-1.00,-1.0
967,20508,-2384,5472,-1.00,-1.0
969,13628,2868,-9184,-1.00,-1.0
971,20432,1512,3432,-1.00,-1.0
973,18840,-3148,-80,-1.00,-1.0
975,17500,572,1852,-1.00,-1.0
976,18172,2136,-1152,-1.00,-1.0
978,15796,60,-2832,-1.00,-1.0
980,15860,-1828,576,-1.00,-1.0
982,21712,1496,8188,-1.00,-1.0
984,15840,2040,-7496,-1.00,-1.0
986,12296,1184,-5356,-1.00,-1.0
990,17472,2796,1808,-1.00,-1.0
992,9032,104,-10448,-1.00,-1.0
994,18848,-3220,9668,-1.00,-1.0
996,13560,-1188,1552,-1.00,-1.0
998,17680,-28,3904,-1.00,-1.0
1000,12496,140,-6420,-1.00,-1.0
1002,17424,1224,6060,-1.00,-1.0
1004,16724,-3972,3524,-1.00,-1.0
1006,17180,2836,3136,-1.00,-1.0
1008,10740,-120,-7592,-1.00,-1.0
1010,22912,-3244,11796,-1.00,-1.0
1012,15276,-540,-3800,-1.00,-1.0
1014,15872,2644,-3964,-1.00,-1.0
1016,20676,-5532,1840,-1.00,-1.0
1018,21868,-1348,8040,-1.00,-1.0
1020,19100,-4,4220,-1.00,-1.0
1024,20544,-3684,1916,-1.00,-1.0
1026,16816,3156,-1096,-1.00,-1.0
1028,17164,-1176,-6616,-1.00,-1.0
1030,11916,988,-5340,-1.00,-1.0
1032,12708,2592,-10476,-1.00,-1.0
1034,18396,4332,108,-1.00,-1.0
1035,15000,-2712,-5460,-1.00,-1.0
1037,18916,-5844,5404,-1.00,-1.0
1039,18228,-1220,7232,-1.00,-1.0
1041,13672,5272,-10248,-1.00,-1.0
1043,18804,-3480,676,-1.00,-1.0
1045,24616,-2904,8360,-1.00,-1.0
1047,17660,384,-5668,-1.00,-1.0
1049,17548,1964,-2944,-1.00,-1.0
1051,19160,-2104,4488,-1.00,-1.0
1053,16056,1156,-492,-1.00,-1.0
1057,17836,1656,1032,-1.00,-1.0
1059,15244,-232,-1664,-1.00,-1.0
1061,17408,700,744,-1.00,-1.0
1063,13796,900,-3480,-1.00,-1.0
1065,19168,1320,6836,-1.00,-1.0
1067,14192,412,-3452,-1.00,-1.0
1069,13100,3524,2100,-1.00,-1.0
1071,16924,2856,-1908,-1.00,-1.0
1073,18088,-784,6332,-1.00,-1.0
1075,16156,-780,-3232,-1.00,-1.0
1077,14172,2708,2192,-1.00,-1.0
1079,20744,-3688,3412,-1.00,-1.0
1081,14564,-2020,168,-1.00,-1.0
1083,17168,-212,-528,-1.00,-1.0
1084,11508,4028,-4476,-1.00,-1.0
1086,19364,-1836,8668,-1.00,-1.0
1090,15004,784,5564,-1.00,-1.0
1092,20664,2184,-3624,-1.00,-1.0
1094,10996,2552,-3252,-1.00,-1.0
1096,18048,-184,3308,-1.00,-1.0
1098,21748,-980,11712,-1.00,-1.0
1100,9204,2092,-11872,-1.00,-1.0
1102,20260,524,4496,-1.00,-1.0
1104,20396,-5716,5816,-1.00,-1.0
1106,20280,1832,208,-1.00,-1.0
1108,12536,1512,-12116,-1.00,-1.0
1110,22912,-2092,11732,-1.00,-1.0
1112,16104,-4084,-3288,-1.00,-1.0
1114,15952,3632,3616,-1.00,-1.0
1116,16472,1600,-7492,-1.00,-1.0
1118,15916,-68,2688,-1.00,-1.0
1122,18896,2636,6788,-1.00,-1.0
1124,12452,1112,-10372,-1.00,-1.0
1126,13780,1796,4540,-1.00,-1.0
1127,15940,3084,-2804,-1.00,-1.0
1129,15856,-928,-2080,-1.00,-1.0
1131,22032,-5296,7404,-1.00,-1.0
1133,12028,1268,-4572,-1.00,-1.0
1135,20300,-2892,7304,-1.00,-1.0
1137,16124,3700,-5244,-1.00,-1.0
1139,12712,1052,-3996,-1.00,-1.0
1141,25048,-5164,12396,-1.00,-1.0
1143,14236,192,-1116,-1.00,-1.0
1145,10540,6584,-12244,-1.00,-1.0
1147,22780,-2992,10368,-1.00,-1.0
1149,15740,-600,-4796,-1.00,-1.0
1151,13932,1084,808,-1.00,-1.0
1155,15304,-2012,2072,-1.00,-1.0
1157,19268,-1116,2184,-1.00,-1.0
1159,18148,2376,776,-1.00,-1.0
1161,12724,-484,-5228,-1.00,-1.0
1163,21740,-3200,10792,-1.00,-1.0
1165,12752,2152,-9772,-1.00,-1.0
1167,18476,-2852,7276,-1.00,-1.0
1169,19508,-2504,1924,-1.00,-1.0
1171,14852,3816,496,-1.00,-1.0
1173,18820,-1612,-6212,-1.00,-1.0
1175,22292,-3404,7616,-1.00,-1.0
1176,13924,2064,-2708,-1.00,-1.0
1179,22360,-1508,11048,-1.00,-1.0
1181,12308,-744,-9216,-1.00,-1.0
1182,19508,276,7344,-1.00,-1.0
1184,15972,4700,-7416,-1.00,-1.0
1189,11232,5612,-9824,-1.00,-1.0
1191,21472,-3856,11300,-1.00,-1.0
1192,12040,624,-15456,-1.00,-1.0
1195,9256,5736,-10752,-1.00,-1.0
1196,18232,4436,2164,-1.00,-1.0
1198,16292,-28,-596,-1.00,-1.0
1200,14580,-1688,-9832,-1.00,-1.0
1202,21424,-2724,14336,-1.00,-1.0
1204,16620,-1452,-512,-1.00,-1.0
1206,17696,-1980,2504,-1.00,-1.0
1208,16048,1244,-3688,-1.00,-1.0
1210,22724,-2208,7692,-1.00,-1.0
1212,16868,-4928,-340,-1.00,-1.0
1214,17632,2160,2532,-1.00,-1.0
1216,12592,260,-3828,-1.00,-1.0
1220,12076,1156,-7080,-1.00,-1.0
1222,20928,2376,3488,-1.00,-1.0
1224,14760,-3088,-6112,-1.00,-1.0
1226,20184,-660,12924,-1.00,-1.0
1228,14092,5232,-11488,-1.00,-1.0
1230,17416,48,2984,-1.00,-1.0
1232,17192,-1448,-2824,-1.00,-1.0
1234,19476,5644,4860,-1.00,-1.0
1236,12452,-420,-11572,-1.00,-1.0
1238,19688,84,11416,-1.00,-1.0
1240,11552,4740,-9436,-1.00,-1.0
1242,20840,-1340,12264,-1.00,-1.0
1244,13288,-1268,-11736,-1.00,-1.0
1246,15676,3952,9140,-1.00,-1.0
1247,18988,-580,-7240,-1.00,-1.0
1249,17748,-2360,6572,-1.00,-1.0
1254,18732,1720,6732,-1.00,-1.0
1256,14200,-1252,-4940,-1.00,-1.0
1258,16840,-1052,10964,-1.00,-1.0
1260,14588,-1180,-1688,-1.00,-1.0
1262,14324,2836,-1428,-1.00,-1.0
1264,20040,-1800,2612,-1.00,-1.0
1265,25536,-2388,9340,-1.00,-1.0
1268,10504,-1308,-12528,-1.00,-1.0
1270,18440,224,9272,-1.00,-1.0
1271,20684,-1364,1492,-1.00,-1.0
1273,17500,-612,3288,-1.00,-1.0
1275,18936,-6144,8096,-1.00,-1.0
1277,13476,3912,-1320,-1.00,-1.0
1279,15684,1724,-4412,-1.00,-1.0
1281,16292,-2768,3948,-1.00,-1.0
1285,13248,3352,-6648,-1.00,-1.0
1287,20072,-5728,8076,-1.00,-1.0
1289,16524,-16,-460,-1.00,-1.0
1291,14688,-1192,-732,-1.00,-1.0
1293,24464,-2256,5048,-1.00,-1.0
1295,13432,-1600,-6872,-1.00,-1.0
1297,19220,864,5368,-1.00,-1.0
1299,17644,-1128,156,-1.00,-1.0
1301,13176,3632,-1740,-1.00,-1.0
1303,19004,-452,-88,-1.00,-1.0
1305,17896,-1916,6580,-1.00,-1.0
1307,13384,-280,-5792,-1.00,-1.0
1309,16436,7068,-2984,-1.00,-1.0
1311,17028,-5676,268,-1.00,-1.0
1313,19416,-772,4728,-1.00,-1.0
1315,14708,4416,-3384,-1.00,-1.0
1319,19540,-4964,4256,-1.00,-1.0
1321,16280,1864,388,-1.00,-1.0
1323,20040,1708,2812,-1.00,-1.0
1325,11136,752,-8840,-1.00,-1.0
1327,17432,1064,6708,-1.00,-1.0
1329,21872,-340,-140,-1.00,-1.0
1330,14968,-456,-2020,-1.00,-1.0
1332,16748,1100,1876,-1.00,-1.0
1334,23896,-852,13108,-1.00,-1.0
1336,8480,64,-15420,-1.00,-1.0
1338,20296,-1316,5708,-1.00,-1.0
1340,11700,5876,-9220,-1.00,-1.0
1342,16520,-2184,2024,-1.00,-1.0
1344,19468,-2492,5164,-1.00,-1.0
1346,14000,5524,-2720,-1.00,-1.0
1348,18152,-768,-5256,-1.00,-1.0
1352,17632,2764,4176,-1.00,-1.0
1354,17148,1228,-1120,-1.00,-1.0
1356,14876,-2760,-4356,-1.00,-1.0
1358,21112,-2832,10312,-1.00,-1.0
1360,14908,2396,-6212,-1.00,-1.0
1362,18780,-5704,7232,-1.00,-1.0
1364,17400,932,-232,-1.00,-1.0
1366,16636,2848,-604,-1.00,-1.0
1368,18532,-5036,2532,-1.00,-1.0
1370,20808,1356,4184,-1.00,-1.0
1372,11636,1404,-5836,-1.00,-1.0
1374,24896,632,6256,-1.00,-1.0
1376,11372,700,-9148,-1.00,-1.0
1377,20500,2680,9288,-1.00,-1.0
1379,18352,-4280,68,-1.00,-1.0
1381,15832,-3756,-1044,-1.00,-1.0
1385,14600,5292,-6516,-1.00,-1.0
1387,15980,-4820,1220,-1.00,-1.0
1389,21108,-1444,9032,-1.00,-1.0
1391,14100,4852,-8604,-1.00,-1.0
1393,18556,-6160,4888,-1.00,-1.0
1395,20892,-3976,5544,-1.00,-1.0
1397,14744,5980,-5748,-1.00,-1.0
1399,20448,-8100,720,-1.00,-1.0
1401,20220,-2028,5912,-1.00,-1.0
1403,13960,2032,-1712,-1.00,-1.0
1405,19472,2424,452,-1.00,-1.0
1407,13144,-3208,-4764,-1.00,-1.0
1409,19896,2908,4852,-1.00,-1.0
1411,17488,-996,-3204,-1.00,-1.0
1412,15604,-3004,5724,-1.00,-1.0
1417,13460,4172,-2040,-1.00,-1.0
1419,18300,-2988,584,-1.00,-1.0
1421,18988,4848,-1772,-1.00,-1.0
1423,16064,-4152,2696,-1.00,-1.0
1425,15660,2076,312,-1.00,-1.0
1427,11316,4492,-1748,-1.00,-1.0
1428,24348,-1628,3808,-1.00,-1.0
1430,14976,-5896,-3636,-1.00,-1.0
1432,19004,2048,6888,-1.00,-1.0
1434,14208,6732,-8976,-1.00,-1.0
1436,17968,-6824,11152,-1.00,-1.0
1438,12140,-2876,-8908,-1.00,-1.0
1440,18264,468,11504,-1.00,-1.0
1442,20488,6912,-4064,-1.00,-1.0
1444,4376,-1816,-11128,-1.00,-1.0
1446,27968,-5080,18744,-1.00,-1.0
1450,12376,-4404,412,-1.00,-1.0
1452,22332,-880,6888,-1.00,-1.0
1454,12956,4420,-368,-1.00,-1.0
1456,17324,-1712,-7644,-1.00,-1.0
1458,21116,-2952,11244,-1.00,-1.0
1460,14384,3988,-6904,-1.00,-1.0
1462,18060,-3260,5344,-1.00,-1.0
1464,19128,-940,3716,-1.00,-1.0
1466,15692,1912,-2380,-1.00,-1.0
1468,16524,-4724,-1040,-1.00,-1.0
1470,22016,-2276,9052,-1.00,-1.0
1472,13196,6988,-14008,-1.00,-1.0
1474,22060,-12280,14652,-1.00,-1.0
1476,18076,-468,2824,-1.00,-1.0
1478,8188,9716,-8268,-1.00,-1.0
1482,19420,-3872,104,-1.00,-1.0
1484,12560,4416,-3908,-1.00,-1.0
1486,23664,1736,1644,-1.00,-1.0
1488,14576,-3332,3480,-1.00,-1.0
1490,15548,1700,-1088,-1.00,-1.0
1492,20060,3284,4900,-1.00,-1.0
1493,11520,-356,-9948,-1.00,-1.0
1495,17028,-484,8552,-1.00,-1.0
1497,20648,-2096,7300,-1.00,-1.0
1499,8072,7356,-14252,-1.00,-1.0
1501,16408,-776,1928,-1.00,-1.0
1503,11632,5608,-16916,-1.00,-1.0
1505,11688,-1524,-9800,-1.00,-1.0
1507,20428,-1928,9496,-1.00,-1.0
1509,12420,8232,-1776,-1.00,-1.0
1511,16972,1432,-4684,-1.00,-1.0
1515,14736,2448,4716,-1.00,-1.0
1517,25980,5792,252,-1.00,-1.0
1519,6704,-2108,-14048,-1.00,-1.0
1521,24256,-1132,18216,-1.00,-1.0
1523,13160,3792,-7172,-1.00,-1.0
1525,13768,-704,-628,-1.00,-1.0
1527,19308,-2540,-1640,-1.00,-1.0
1529,14748,756,8128,-1.00,-1.0
1531,22292,-1472,1680,-1.00,-1.0
1533,11656,1212,-7784,-1.00,-1.0
1535,19880,-1000,4000,-1.00,-1.0
1537,24740,-6960,9236,-1.00,-1.0
1539,12616,1176,-7456,-1.00,-1.0
1541,12388,2664,-3956,-1.00,-1.0
1543,28568,-3768,17852,-1.00,-1.0
1547,13300,3260,-976,-1.00,-1.0
1549,26240,-4180,13764,-1.00,-1.0
1551,7768,1476,-7952,-1.00,-1.0
1553,13808,3248,-1252,-1.00,-1.0
1555,24476,-1048,9620,-1.00,-1.0
1557,11584,-4432,-7136,-1.00,-1.0
1558,18580,-796,6356,-1.00,-1.0
1560,15832,4620,-1956,-1.00,-1.0
1562,14644,-2944,-1364,-1.00,-1.0
1564,17892,124,664,-1.00,-1.0
1566,18224,-1532,7940,-1.00,-1.0
1568,20944,-728,1732,-1.00,-1.0
1570,11400,2364,-11248,-1.00,-1.0
1572,20244,-964,7204,-1.00,-1.0
1574,14896,6836,-5148,-1.00,-1.0
1576,14088,-3996,-4224,-1.00,-1.0
1580,26596,-5920,13180,-1.00,-1.0
1582,14728,-2112,-5704,-1.00,-1.0
1584,21304,-2400,7520,-1.00,-1.0
1586,14832,2880,-2904,-1.00,-1.0
1588,21256,-6560,4728,-1.00,-1.0
1590,17348,540,-1480,-1.00,-1.0
1592,11672,5740,-5740,-1.00,-1.0
1594,25720,-5112,7996,-1.00,-1.0
1596,14880,-2720,-5144,-1.00,-1.0
1598,15192,3228,4068,-1.00,-1.0
1600,23820,1496,1612,-1.00,-1.0
1602,7144,-48,-9364,-1.00,-1.0
1604,20664,-636,9636,-1.00,-1.0
1606,24000,4356,3632,-1.00,-1.0
1607,2956,-668,-18400,-1.00,-1.0
1609,24248,-1812,19340,-1.00,-1.0
1613,10308,-2416,-4104,-1.00,-1.0
1615,23188,-1904,6288,-1.00,-1.0
1617,14200,5552,820,-1.00,-1.0
1619,18764,-4548,-1500,-1.00,-1.0
1621,18700,-2040,3452,-1.00,-1.0
1623,13284,3040,-5416,-1.00,-1.0
1625,22856,-5060,7156,-1.00,-1.0
1627,15936,-1348,-3656,-1.00,-1.0
1629,10824,4608,-5996,-1.00,-1.0
1631,28444,-7860,16720,-1.00,-1.0
1633,10376,-4312,-6976,-1.00,-1.0
1635,25436,-2116,16384,-1.00,-1.0
1637,10124,6956,-13592,-1.00,-1.0
1639,17652,-5832,5604,-1.00,-1.0
1641,21232,-1744,1068,-1.00,-1.0
1645,26052,-6112,6536,-1.00,-1.0
1647,13848,-800,-3212,-1.00,-1.0
1649,13648,4180,-1132,-1.00,-1.0
1651,26008,-1172,6240,-1.00,-1.0
1653,8184,-2940,-10208,-1.00,-1.0
1655,18580,28,11620,-1.00,-1.0
1656,18364,2536,-2328,-1.00,-1.0
1658,8872,-236,-4948,-1.00,-1.0
1660,19972,-2424,6316,-1.00,-1.0
1662,17820,4108,3760,-1.00,-1.0
1664,13744,-4312,-3744,-1.00,-1.0
1666,20364,-392,8476,-1.00,-1.0
1668,12844,3568,-9700,-1.00,-1.0
1670,21120,-5956,7560,-1.00,-1.0
1672,10412,-1312,-3268,-1.00,-1.0
1676,28076,-4844,11148,-1.00,-1.0
1678,10444,2112,-10076,-1.00,-1.0
1680,15676,600,2220,-1.00,-1.0
1682,9112,7080,-15292,-1.00,-1.0
1684,8324,-368,-10796,-1.00,-1.0
1686,15132,-796,4292,-1.00,-1.0
1688,9772,6164,-6712,-1.00,-1.0
1690,27404,-4152,7720,-1.00,-1.0
1692,13708,-432,-3564,-1.00,-1.0
1694,12924,2308,-3924,-1.00,-1.0
1696,26972,-3532,11364,-1.00,-1.0
1698,9172,472,-12944,-1.00,-1.0
1700,13552,1496,4416,-1.00,-1.0
1702,23456,836,7416,-1.00,-1.0
1704,7164,-3640,-5540,-1.00,-1.0
1705,19240,-100,5180,-1.00,-1.0
1710,19324,-6704,5364,-1.00,-1.0
1712,16304,828,-2312,-1.00,-1.0
1714,19268,6396,-4036,-1.00,-1.0
1716,18096,-6468,-872,-1.00,-1.0
1718,24644,-2660,12932,-1.00,-1.0
1720,8728,7624,-13692,-1.00,-1.0
1721,20616,-1516,7732,-1.00,-1.0
1723,17136,-3276,-2936,-1.00,-1.0
1725,18536,4516,2028,-1.00,-1.0
1727,16860,2556,-11708,-1.00,-1.0
1729,15372,-1816,9564,-1.00,-1.0
1731,16436,2896,2948,-1.00,-1.0
1733,10872,7868,-6692,-1.00,-1.0
1735,13588,-3304,-5200,-1.00,-1.0
1737,23664,-980,18436,-1.00,-1.0
1739,13868,4264,-5016,-1.00,-1.0
1743,22748,-3208,8832,-1.00,-1.0
1745,13188,4976,-4924,-1.00,-1.0
1747,21272,-2796,-2040,-1.00,-1.0
1749,19320,-196,3472,-1.00,-1.0
1751,16272,3572,-376,-1.00,-1.0
1753,20852,1556,-1484,-1.00,-1.0
1755,19712,-7148,11976,-1.00,-1.0
1757,12916,3756,-11524,-1.00,-1.0
1759,14912,3288,-964,-1.00,-1.0
1761,26824,-5988,10184,-1.00,-1.0
1763,16400,1364,-1912,-1.00,-1.0
1765,8068,8612,-13436,-1.00,-1.0
1767,31300,-9288,25160,-1.00,-1.0
1769,11260,980,-13212,-1.00,-1.0
1771,11520,5052,-4292,-1.00,-1.0
1775,7336,404,-11032,-1.00,-1.0
1777,17408,924,8052,-1.00,-1.0
1779,18064,6544,-2608,-1.00,-1.0
1781,8124,-2836,-3264,-1.00,-1.0
1783,23704,-2044,11112,-1.00,-1.0
1785,11928,7524,-4000,-1.00,-1.0
1787,15292,-4880,-2372,-1.00,-1.0
1789,22040,-1208,11172,-1.00,-1.0
1791,15028,6644,-8908,-1.00,-1.0
1793,18508,-6584,-192,-1.00,-1.0
1794,24200,-2732,11232,-1.00,-1.0
1796,7544,8384,-14820,-1.00,-1.0
1798,26728,-3404,11424,-1.00,-1.0
1800,14832,-1124,-10400,-1.00,-1.0
1802,15024,3880,7076,-1.00,-1.0
1804,25976,-308,2968,-1.00,-1.0
1808,19232,-216,8232,-1.00,-1.0
1810,19256,3860,5316,-1.00,-1.0
1812,8296,-4508,-9744,-1.00,-1.0
1814,20336,-144,11168,-1.00,-1.0
1816,13724,4272,-6788,-1.00,-1.0
1818,17648,-7108,8488,-1.00,-1.0
1820,21860,-2008,1316,-1.00,-1.0
1822,9420,6428,-8676,-1.00,-1.0
1824,31404,-10348,16516,-1.00,-1.0
1826,15172,1004,-6548,-1.00,-1.0
1828,23700,-1532,19520,-1.00,-1.0
1830,31632,-4324,13088,-1.00,-1.0
1832,13228,-4888,3232,-1.00,-1.0
1834,24648,-1840,4504,-1.00,-1.0
1836,11504,8000,-6208,-1.00,-1.0
1840,23396,-1916,16556,-1.00,-1.0
1842,10256,4616,-12788,-1.00,-1.0
1844,27336,-3756,12388,-1.00,-1.0
1846,12804,-1364,-8916,-1.00,-1.0
1848,13176,3700,2028,-1.00,-1.0
1850,23004,1528,2840,-1.00,-1.0
1852,5600,-916,-6704,-1.00,-1.0
1853,20364,-124,10772,-1.00,-1.0
1856,16932,5340,2500,-1.00,-1.0
1858,7484,-2772,-7380,-1.00,-1.0
1859,22072,880,10760,-1.00,-1.0
1861,14292,3588,-5436,-1.00,-1.0
1863,17276,-3328,-2160,-1.00,-1.0
1865,22032,-784,4036,-1.00,-1.0
1867,12840,7576,-8628,-1.00,-1.0
1869,24420,-2688,4492,-1.00,-1.0
1873,13120,4208,-16,-1.00,-1.0
1875,23932,-2864,7488,-1.00,-1.0
1877,6132,-496,-9720,-1.00,-1.0
1879,14956,2740,7384,-1.00,-1.0
1881,18984,1580,4496,-1.00,-1.0
1883,12228,-4668,364,-1.00,-1.0
1885,15488,-2720,-6092,-1.00,-1.0
1887,11260,8896,-12436,-1.00,-1.0
1889,24436,-7396,7400,-1.00,-1.0
1891,5908,-1792,-7408,-1.00,-1.0
1893,15356,2468,4696,-1.00,-1.0
1895,16172,1068,5512,-1.00,-1.0
1897,16728,-1768,-872,-1.00,-1.0
1899,18308,1884,920,-1.00,-1.0
1900,17356,4752,-2752,-1.00,-1.0
1904,21396,-2480,7272,-1.00,-1.0
1906,16804,4652,-3832,-1.00,-1.0
1908,19776,-1012,1964,-1.00,-1.0
1910,12652,-424,-8952,-1.00,-1.0
1912,18500,1472,12580,-1.00,-1.0
1914,20332,2460,-380,-1.00,-1.0
1916,9104,-1932,-4552,-1.00,-1.0
1918,17676,2688,6656,-1.00,-1.0
1920,15772,6916,-3652,-1.00,-1.0
1922,19296,-9056,1824,-1.00,-1.0
1924,23392,-1084,2428,-1.00,-1.0
1926,16900,-76,7676,-1.00,-1.0
1928,21304,2680,-4424,-1.00,-1.0
1930,14008,-8472,4376,-1.00,-1.0
1932,11668,4116,-17700,-1.00,-1.0
1934,21100,3240,2708,-1.00,-1.0
1938,21892,-3576,2884,-1.00,-1.0
1940,18888,832,4756,-1.00,-1.0
1942,13716,2108,6084,-1.00,-1.0
1944,17772,-8696,10828,-1.00,-1.0
1946,18332,168,2348,-1.00,-1.0
1948,12232,7576,-14508,-1.00,-1.0
1950,21964,-5872,3592,-1.00,-1.0
1951,24744,-2924,8012,-1.00,-1.0
1953,13688,5924,-8644,-1.00,-1.0
1955,17384,-3292,2808,-1.00,-1.0
1957,17360,136,6752,-1.00,-1.0
1959,7656,4992,-5692,-1.00,-1.0
1961,26564,-4076,14260,-1.00,-1.0
1963,10108,-2784,-9324,-1.00,-1.0
1965,13812,3972,3572,-1.00,-1.0
1967,22556,44,504,-1.00,-1.0
1971,18436,-316,-3716,-1.00,-1.0
1973,13460,6680,568,-1.00,-1.0
1975,22868,-6676,7156,-1.00,-1.0
1977,9932,-976,-7328,-1.00,-1.0
1979,15672,1664,6512,-1.00,-1.0
1981,19108,112,3508,-1.00,-1.0
1983,15180,-4088,1448,-1.00,-1.0
1985,13772,2316,-6868,-1.00,-1.0
1987,26228,-1432,10656,-1.00,-1.0
1989,16588,-6200,-6472,-1.00,-1.0
1991,15372,-2236,2384,-1.00,-1.0
1993,15820,1588,496,-1.00,-1.0
1995,17180,4384,-3444,-1.00,-1.0
1997,17328,-5460,-12,-1.00,-1.0
1999,22648,860,9492,-1.00,-1.0
2000,13064,8208,-15832,-1.00,-1.0
2005,21640,-1460,4200,-1.00,-1.0
2007,9844,5284,-1512,-1.00,-1.0
2009,19396,-724,256,-1.00,-1.0
2011,14424,-224,2076,-1.00,-1.0
2013,16788,328,980,-1.00,-1.0
2015,21276,-2012,2596,-1.00,-1.0
2016,16628,-2384,-1488,-1.00,-1.0
2018,15608,2100,-5320,-1.00,-1.0
2020,22520,-444,6880,-1.00,-1.0
2022,14956,-6228,-3272,-1.00,-1.0
2024,17836,232,9280,-1.00,-1.0
2026,13240,6120,-8872,-1.00,-1.0
2028,15436,-4300,5688,-1.00,-1.0
2030,19304,-2240,1856,-1.00,-1.0
2032,15308,3912,2664,-1.00,-1.0
2036,14588,-2992,-2352,-1.00,-1.0
2038,19656,-320,8280,-1.00,-1.0
2040,23280,4492,1452,-1.00,-1.0
2042,7380,-1308,-12468,-1.00,-1.0
2044,21292,-2212,13944,-1.00,-1.0
2046,15012,3456,128,-1.00,-1.0
2048,16704,-1100,304,-1.00,-1.0
2050,17284,-1032,-6012,-1.00,-1.0
2052,16300,1668,3332,-1.00,-1.0
2054,25132,684,-1936,-1.00,-1.0
2056,13928,-1576,-7944,-1.00,-1.0
2058,20436,-4296,1852,-1.00,-1.0
2060,17852,2936,7616,-1.00,-1.0
2062,10708,1788,-2556,-1.00,-1.0
2064,18244,-2116,-444,-1.00,-1.0
2065,18144,-2800,3864,-1.00,-1.0
2070,17584,2892,-100,-1.00,-1.0
2072,10520,5596,-10476,-1.00,-1.0
2074,23572,360,7744,-1.00,-1.0
2076,8880,-512,-10872,-1.00,-1.0
2078,16896,1248,8164,-1.00,-1.0
2080,20404,568,4340,-1.00,-1.0
2081,17344,-5124,-1060,-1.00,-1.0
2083,17852,1236,-7276,-1.00,-1.0
2085,16664,2436,3300,-1.00,-1.0
2087,26648,-3688,7476,-1.00,-1.0
2089,7100,-2264,-11608,-1.00,-1.0
2091,15388,1028,9884,-1.00,-1.0
2093,17208,2612,4616,-1.00,-1.0
2095,13264,-1900,-1764,-1.00,-1.0
2097,18076,-564,-8612,-1.00,-1.0
2099,22348,600,5772,-1.00,-1.0
2103,10600,488,-6492,-1.00,-1.0
2105,13616,992,4720,-1.00,-1.0
2107,18532,664,6776,-1.00,-1.0
2109,12240,-4528,244,-1.00,-1.0
2111,18884,2204,4228,-1.00,-1.0
2113,15056,5816,-10404,-1.00,-1.0
2115,23568,-8088,10156,-1.00,-1.0
2117,19500,-908,-2124,-1.00,-1.0
2119,10136,3796,-3612,-1.00,-1.0
2121,23156,-1832,7540,-1.00,-1.0
2123,11152,-1448,-4296,-1.00,-1.0
2125,16276,-2200,8100,-1.00,-1.0
2127,18728,1248,2148,-1.00,-1.0
2129,21464,-2884,3612,-1.00,-1.0
2131,14816,-580,-228,-1.00,-1.0
2135,18584,-2004,-2612,-1.00,-1.0
2137,14372,1884,-4992,-1.00,-1.0
2139,18140,1280,-1440,-1.00,-1.0
2140,20028,1752,-2200,-1.00,-1.0
2143,18188,-4356,-4464,-1.00,-1.0
2145,20436,-364,8816,-1.00,-1.0
2146,16668,4528,-6272,-1.00,-1.0
2148,13048,-3480,-2328,-1.00,-1.0
2150,16856,-3308,6108,-1.00,-1.0
2152,15908,6032,5072,-1.00,-1.0
2154,13796,3320,-10108,-1.00,-1.0
2156,19192,-5352,5960,-1.00,-1.0
2158,20368,2376,4196,-1.00,-1.0
2160,16360,5544,-8672,-1.00,-1.0
2162,19564,-5248,1736,-1.00,-1.0
2164,18524,392,3152,-1.00,-1.0
2168,17176,-1148,1812,-1.00,-1.0
2170,15108,-4068,3876,-1.00,-1.0
2172,14980,5224,2048,-1.00,-1.0
2174,16068,2960,-3708,-1.00,-1.0
2176,19240,-4592,2736,-1.00,-1.0
2178,24860,-1392,5368,-1.00,-1.0
2180,17148,3300,-5584,-1.00,-1.0
2182,20348,-4088,9452,-1.00,-1.0
2184,18852,-4456,8180,-1.00,-1.0
2186,20072,1532,5660,-1.00,-1.0
2188,23156,-3904,9104,-1.00,-1.0
2189,24016,-5496,4820,-1.00,-1.0
2191,15952,5908,-9520,-1.00,-1.0
2193,15400,2252,-7388,-1.00,-1.0
2195,18144,-6788,12672,-1.00,-1.0
2200,8940,9372,-10288,-1.00,-1.0
2202,15676,-3204,1960,-1.00,-1.0
2203,22192,-4392,8788,-1.00,-1.0
2205,17780,4240,-2496,-1.00,-1.0
2207,15900,4044,-11076,-1.00,-1.0
2209,20504,-4580,5508,-1.00,-1.0
2211,21456,-932,7948,-1.00,-1.0
2213,9404,3632,-8568,-1.00,-1.0
2215,13444,-792,5988,-1.00,-1.0
2217,17744,-2232,6372,-1.00,-1.0
2219,12604,4132,-3936,-1.00,-1.0
2221,20592,-2216,-1616,-1.00,-1.0
2223,20860,-432,3800,-1.00,-1.0
2225,18180,2748,-4812,-1.00,-1.0
2227,19136,-1056,92,-1.00,-1.0
2229,16416,-2792,-1060,-1.00,-1.0
2233,16644,2032,4632,-1.00,-1.0
2235,11260,700,-2708,-1.00,-1.0
2237,16724,-344,680,-1.00,-1.0
2239,24120,-776,6708,-1.00,-1.0
2241,18712,528,-7312,-1.00,-1.0
2243,15684,1272,-7724,-1.00,-1.0
2245,22168,-2240,9972,-1.00,-1.0
2247,15712,1060,-1784,-1.00,-1.0
2249,9976,-936,-1944,-1.00,-1.0
2251,15308,2416,6196,-1.00,-1.0
2252,20208,1232,-1440,-1.00,-1.0
2254,22728,-3344,696,-1.00,-1.0
2256,11880,-364,-2264,-1.00,-1.0
2258,14428,-200,6236,-1.00,-1.0
2260,17868,636,8856,-1.00,-1.0
2262,8652,-488,-6656,-1.00,-1.0
2266,20228,2040,-1844,-1.00,-1.0
2268,20292,-2328,-1320,-1.00,-1.0
2270,17888,-260,-5256,-1.00,-1.0
2272,18076,2096,8192,-1.00,-1.0
2274,17248,1560,-3308,-1.00,-1.0
2276,11752,-1216,-4080,-1.00,-1.0
2278,19572,-5036,12940,-1.00,-1.0
2280,16132,3796,2364,-1.00,-1.0
2282,9956,4964,-13280,-1.00,-1.0
2284,18956,-3856,2964,-1.00,-1.0
2286,24460,-2688,12676,-1.00,-1.0
2288,14212,4092,-10764,-1.00,-1.0
2290,13900,3128,-7396,-1.00,-1.0
2292,22216,-4064,10848,-1.00,-1.0
2294,18612,-1640,2784,-1.00,-1.0
2298,13848,1828,-768,-1.00,-1.0
2300,19208,-3204,8936,-1.00,-1.0
2302,14848,-564,-2268,-1.00,-1.0
2304,17128,3088,-128,-1.00,-1.0
2306,19268,2720,-3584,-1.00,-1.0
2308,16504,-2972,-2972,-1.00,-1.0
2310,20468,-4096,7640,-1.00,-1.0
2312,18452,4328,2100,-1.00,-1.0
2314,12872,3764,-8196,-1.00,-1.0
2316,15796,-3912,1740,-1.00,-1.0
2318,21208,-3196,11972,-1.00,-1.0
2320,14640,4396,-4848,-1.00,-1.0
2322,13768,3136,-9644,-1.00,-1.0
2324,19968,-7252,8820,-1.00,-1.0
2325,11172,3816,-9848,-1.00,-1.0
2327,13912,3132,-544,-1.00,-1.0
2332,24108,-4320,14844,-1.00,-1.0
2334,13064,3628,-5496,-1.00,-1.0
2335,24240,-1392,9132,-1.00,-1.0
2337,15084,880,-4868,-1.00,-1.0
2339,14408,1316,-3904,-1.00,-1.0
2341,21156,-1572,8832,-1.00,-1.0
2343,15656,300,928,-1.00,-1.0
2345,13076,3080,-4784,-1.00,-1.0
2347,17156,-2000,4400,-1.00,-1.0
2349,19376,-2100,2636,-1.00,-1.0
2351,15860,3952,-4136,-1.00,-1.0
2353,13624,1636,-7040,-1.00,-1.0
2355,24312,-5816,13712,-1.00,-1.0
2357,15036,456,-5212,-1.00,-1.0
2359,14068,4480,-2552,-1.00,-1.0
2361,18132,-2504,1928,-1.00,-1.0
2365,14060,3732,-5440,-1.00,-1.0
2367,17064,804,1244,-1.00,-1.0
2369,20500,-3676,6304,-1.00,-1.0
2371,13284,1544,-5112,-1.00,-1.0
2373,18796,524,1904,-1.00,-1.0
2375,15468,-800,-1536,-1.00,-1.0
2377,16340,-1596,5848,-1.00,-1.0
2379,19888,2616,424,-1.00,-1.0
2381,9192,1076,-9632,-1.00,-1.0
2383,22012,-3500,11596,-1.00,-1.0
2384,17756,2308,304,-1.00,-1.0
2387,12452,3068,-8196,-1.00,-1.0
2389,21592,-2884,2048,-1.00,-1.0
2390,12048,396,-4720,-1.00,-1.0
2392,14476,4804,-2344,-1.00,-1.0
2396,21496,-5092,3272,-1.00,-1.0
2398,16536,3412,-5248,-1.00,-1.0
2400,13656,3376,-5400,-1.00,-1.0
2402,23984,-4440,12436,-1.00,-1.0
2404,14384,-992,-3420,-1.00,-1.0
2406,13464,2964,-1516,-1.00,-1.0
2408,16624,276,3512,-1.00,-1.0
2410,15716,-816,3148,-1.00,-1.0
2412,17148,268,844,-1.00,-1.0
2414,16172,172,-3416,-1.00,-1.0
2416,20380,-1872,5676,-1.00,-1.0
2418,16080,2288,-6016,-1.00,-1.0
2420,18100,-716,2892,-1.00,-1.0
2422,21128,-4696,4628,-1.00,-1.0
2424,13232,2612,-3816,-1.00,-1.0
2426,15024,692,-1296,-1.00,-1.0
2430,14008,-1472,-200,-1.00,-1.0
2432,14572,3508,1172,-1.00,-1.0
2434,17720,3020,-3364,-1.00,-1.0
2435,18688,-5480,4628,-1.00,-1.0
2437,21132,-236,3208,-1.00,-1.0
2439,12780,4552,-8952,-1.00,-1.0
2441,22152,584,5456,-1.00,-1.0
2443,11264,2508,-9620,-1.00,-1.0
2445,21608,-2720,8788,-1.00,-1.0
2447,19716,472,2652,-1.00,-1.0
2449,13200,2368,-5312,-1.00,-1.0
2451,20356,-1164,-1892,-1.00,-1.0
2453,21228,-2668,4244,-1.00,-1.0
2455,17540,-1988,-1260,-1.00,-1.0
2457,16336,1612,-764,-1.00,-1.0
2459,14604,-1180,1008,-1.00,-1.0
2463,15184,24,600,-1.00,-1.0
2465,14492,3252,-192,-1.00,-1.0
2467,15160,720,-124,-1.00,-1.0
2469,16292,-1772,4428,-1.00,-1.0
2471,20780,264,4824,-1.00,-1.0
2473,14328,2852,-10220,-1.00,-1.0
2475,19368,-2608,1584,-1.00,-1.0
2477,22964,-1280,2228,-1.00,-1.0
2479,14892,708,-5820,-1.00,-1.0
2481,20064,-2076,5568,-1.00,-1.0
2483,16036,1692,-192,-1.00,-1.0
2484,9332,1340,-5024,-1.00,-1.0
2487,19820,-2040,12384,-1.00,-1.0
2489,14876,1704,704,-1.00,-1.0
2490,13056,1380,-3928,-1.00,-1.0
2492,19736,-3784,4068,-1.00,-1.0
2497,17888,2348,-7000,-1.00,-1.0
2499,18584,-1016,-1460,-1.00,-1.0
2500,22488,-2064,3344,-1.00,-1.0
2503,16244,3380,-4372,-1.00,-1.0
2504,15268,904,-3712,-1.00,-1.0
2506,21140,-2324,10236,-1.00,-1.0
2508,16976,-2132,-1916,-1.00,-1.0
2510,12744,1792,324,-1.00,-1.0
2512,16780,-1160,-2240,-1.00,-1.0
2514,20568,504,576,-1.00,-1.0
2516,16872,20,-4416,-1.00,-1.0
2518,15200,-2220,-1196,-1.00,-1.0
2520,21888,-2616,9564,-1.00,-1.0
2522,12044,2968,-4840,-1.00,-1.0
2524,11496,-252,-524,-1.00,-1.0
2528,11856,2600,-4104,-1.00,-1.0
2530,17252,196,3132,-1.00,-1.0
2532,18648,920,-1472,-1.00,-1.0
2534,15504,-300,744,-1.00,-1.0
2536,21848,-916,1752,-1.00,-1.0
2538,16424,-632,-4508,-1.00,-1.0
2540,17676,-64,-1916,-1.00,-1.0
2542,21004,504,1220,-1.00,-1.0
2544,18072,-3956,1668,-1.00,-1.0
2546,18812,-404,1928,-1.00,-1.0
2548,11072,3216,-6172,-1.00,-1.0
2550,16236,-3416,10656,-1.00,-1.0
2552,19068,-832,5372,-1.00,-1.0
2554,8736,4200,-7176,-1.00,-1.0
2555,17644,-1800,6564,-1.00,-1.0
2557,18628,112,5708,-1.00,-1.0
2562,20536,-1012,6844,-1.00,-1.0
2564,17920,572,-3672,-1.00,-1.0
2565,15740,696,-3384,-1.00,-1.0
2567,23428,-3104,2880,-1.00,-1.0
2569,17548,-1176,-728,-1.00,-1.0
2571,15452,728,-3668,-1.00,-1.0
2573,16388,2748,-360,-1.00,-1.0
2575,16832,-848,748,-1.00,-1.0
2577,16232,1396,-5112,-1.00,-1.0
2579,17532,-1600,2340,-1.00,-1.0
2581,20400,768,740,-1.00,-1.0
2583,16504,200,-4220,-1.00,-1.0
2585,18376,-520,-320,-1.00,-1.0
2587,19076,152,1072,-1.00,-1.0
2589,17720,-964,1688,-1.00,-1.0
2591,18204,-988,1208,-1.00,-1.0
2595,15308,-164,2868,-1.00,-1.0
2597,19352,68,4352,-1.00,-1.0
2599,11320,1168,-5424,-1.00,-1.0
2601,17136,-2056,7120,-1.00,-1.0
2603,17476,1028,4232,-1.00,-1.0
2605,12060,2664,-6904,-1.00,-1.0
2607,21604,-4028,7980,-1.00,-1.0
2609,19432,-268,-1288,-1.00,-1.0
2611,14436,1676,-3880,-1.00,-1.0
2613,23732,-1536,6116,-1.00,-1.0
2615,15424,1220,-4372,-1.00,-1.0
2616,15748,372,-1984,-1.00,-1.0
2618,24564,-1936,7824,-1.00,-1.0
2620,13548,1252,-7852,-1.00,-1.0
2622,16288,-288,1264,-1.00,-1.0
2624,14360,2048,-4064,-1.00,-1.0
2628,15376,1628,-156,-1.00,-1.0
2630,14684,1504,-584,-1.00,-1.0
2632,18260,-4316,10748,-1.00,-1.0
2634,12700,424,-8692,-1.00,-1.0
2636,10916,3472,-6100,-1.00,-1.0
2638,21592,-5440,11436,-1.00,-1.0
2640,9268,2864,-12588,-1.00,-1.0
2642,23484,-2864,11812,-1.00,-1.0
2644,19464,1008,-356,-1.00,-1.0
2646,9636,1416,-7944,-1.00,-1.0
2648,20120,300,8664,-1.00,-1.0
2650,14396,2624,976,-1.00,-1.0
2652,12484,-1684,-1020,-1.00,-1.0
2654,18944,-852,6648,-1.00,-1.0
2656,14328,2828,-1696,-1.00,-1.0
2658,15652,-1292,-20,-1.00,-1.0
2662,13100,992,-3388,-1.00,-1.0
2664,21300,-2148,6988,-1.00,-1.0
2666,13924,1784,-7504,-1.00,-1.0
2668,17488,-196,1880,-1.00,-1.0
2670,21940,-540,2940,-1.00,-1.0
2672,13492,1036,-2892,-1.00,-1.0
2673,17600,988,-140,-1.00,-1.0
2676,19836,-960,1768,-1.00,-1.0
2678,12216,-284,-7100,-1.00,-1.0
2679,20128,-1036,6216,-1.00,-1.0
2681,16812,1636,-3728,-1.00,-1.0
2683,12256,-1848,-1156,-1.00,-1.0
2685,23016,-1644,11532,-1.00,-1.0
2687,12044,4624,-9160,-1.00,-1.0
2689,25428,-3000,12028,-1.00,-1.0
2693,11964,2868,-7932,-1.00,-1.0
2695,17216,-1124,352,-1.00,-1.0
2697,11088,1716,-4656,-1.00,-1.0
2699,15444,3020,-4988,-1.00,-1.0
2701,19320,-1136,6720,-1.00,-1.0
2703,15424,560,-740,-1.00,-1.0
2705,19304,940,1412,-1.00,-1.0
2707,13824,1760,-3960,-1.00,-1.0
2709,18404,-4228,8020,-1.00,-1.0
2711,19552,1416,3216,-1.00,-1.0
2713,12980,1088,-7040,-1.00,-1.0
2715,20180,-3320,5732,-1.00,-1.0
2717,20916,-752,3424,-1.00,-1.0
2719,14164,3380,-6880,-1.00,-1.0
2720,21736,-4332,5472,-1.00,-1.0
2722,17524,2372,352,-1.00,-1.0
2727,18776,-336,2264,-1.00,-1.0
2729,14000,412,-3012,-1.00,-1.0
2730,16620,224,3776,-1.00,-1.0
2732,17516,1292,-160,-1.00,-1.0
2734,9064,2236,-6608,-1.00,-1.0
2736,18976,-1836,7236,-1.00,-1.0
2738,18052,-1196,5556,-1.00,-1.0
2740,12240,392,-1508,-1.00,-1.0
2742,17488,2040,816,-1.00,-1.0
2744,17200,-884,-724,-1.00,-1.0
2746,17524,1792,644,-1.00,-1.0
2748,9476,3600,-8644,-1.00,-1.0
2750,19088,-2964,8900,-1.00,-1.0
2752,16824,-3304,5468,-1.00,-1.0
2754,12516,5480,-3364,-1.00,-1.0
2756,14260,3224,-4756,-1.00,-1.0
2760,17384,-3164,116,-1.00,-1.0
2762,13764,4660,-6488,-1.00,-1.0
2764,18772,-52,-124,-1.00,-1.0
2766,20808,-4344,6488,-1.00,-1.0
2768,19268,-132,-2664,-1.00,-1.0
2770,18504,4444,-5624,-1.00,-1.0
2772,15320,1320,-5384,-1.00,-1.0
2774,22008,-1652,11740,-1.00,-1.0
2776,15576,4052,-2960,-1.00,-1.0
2778,11776,1388,-2696,-1.00,-1.0
2779,13788,1232,1284,-1.00,-1.0
2781,16672,-2600,6920,-1.00,-1.0
2783,14136,524,-2612,-1.00,-1.0
2785,13648,728,-1320,-1.00,-1.0
2787,16732,-2244,6100,-1.00,-1.0
2789,22180,-4388,7364,-1.00,-1.0
2793,20468,-756,3940,-1.00,-1.0
2795,25716,-2196,8784,-1.00,-1.0
2797,10856,3236,-17404,-1.00,-1.0
2799,20776,-472,6940,-1.00,-1.0
2801,24756,-524,1788,-1.00,-1.0
2803,9596,-1376,-6548,-1.00,-1.0
2805,17072,476,3296,-1.00,-1.0
2807,13840,2640,2532,-1.00,-1.0
2809,10492,2888,-5620,-1.00,-1.0
2811,21428,-3912,3952,-1.00,-1.0
2813,15312,2268,-10116,-1.00,-1.0
2815,19456,1544,-2832,-1.00,-1.0
2817,18096,-4120,4376,-1.00,-1.0
2819,22360,684,7476,-1.00,-1.0
2821,10848,5948,-9980,-1.00,-1.0
2825,18744,2616,3996,-1.00,-1.0
2827,19960,-548,-2652,-1.00,-1.0
2829,14156,2064,-928,-1.00,-1.0
2831,16868,1088,2256,-1.00,-1.0
2833,14724,-152,720,-1.00,-1.0
2835,26748,-3640,8932,-1.00,-1.0
2837,9948,4960,-14040,-1.00,-1.0
2839,21876,-2352,9652,-1.00,-1.0
2841,22296,-1356,2872,-1.00,-1.0
2843,10296,2020,-11340,-1.00,-1.0
2845,20900,104,1820,-1.00,-1.0
2847,18588,-1660,788,-1.00,-1.0
2849,13992,-4072,2764,-1.00,-1.0
2851,20080,-912,6212,-1.00,-1.0
2852,11512,3964,-5872,-1.00,-1.0
2854,15984,-6096,2492,-1.00,-1.0
2859,11820,1928,-7484,-1.00,-1.0
2861,16548,3512,-1024,-1.00,-1.0
2862,16768,132,36,-1.00,-1.0
2864,23808,-1868,8736,-1.00,-1.0
2866,16584,-4,-9476,-1.00,-1.0
2868,13304,800,2128,-1.00,-1.0
2870,22388,-2596,11048,-1.00,-1.0
2872,13424,2068,-6840,-1.00,-1.0
2874,12684,-248,-8972,-1.00,-1.0
2876,19948,-184,7872,-1.00,-1.0
2878,18916,-352,7324,-1.00,-1.0
2880,21904,-1696,5472,-1.00,-1.0
2882,15556,2020,812,-1.00,-1.0
2884,17360,2004,4356,-1.00,-1.0
2886,16652,4816,-6376,-1.00,-1.0
2888,11216,-1320,-5812,-1.00,-1.0
2892,14416,1588,-5812,-1.00,-1.0
2894,12812,3448,-2936,-1.00,-1.0
2896,19992,-952,2324,-1.00,-1.0
2898,16888,-2824,3784,-1.00,-1.0
2900,21772,-5340,5512,-1.00,-1.0
2902,14456,4024,-5316,-1.00,-1.0
2904,14008,228,-4028,-1.00,-1.0
2906,22780,-4844,11408,-1.00,-1.0
2908,12676,3300,-7056,-1.00,-1.0
2910,15608,4704,-628,-1.00,-1.0
2911,18432,-1492,104,-1.00,-1.0
2913,12572,-2420,3380,-1.00,-1.0
2915,22872,336,11032,-1.00,-1.0
2917,9804,3436,-11896,-1.00,-1.0
2919,18140,-7084,8444,-1.00,-1.0
2923,10452,7144,-15196,-1.00,-1.0
2925,21136,-4040,5896,-1.00,-1.0
2927,21580,996,5592,-1.00,-1.0
2929,8824,4972,-8756,-1.00,-1.0
2931,23188,-1652,7148,-1.00,-1.0
2933,14684,1812,-2264,-1.00,-1.0
2935,14208,-644,-1620,-1.00,-1.0
2937,16604,1316,-5184,-1.00,-1.0
2939,10984,788,-5272,-1.00,-1.0
2941,16548,3288,868,-1.00,-1.0
2943,18676,1208,2616,-1.00,-1.0
2945,15904,140,-5988,-1.00,-1.0
2947,13212,156,1840,-1.00,-1.0
2949,20084,-544,9492,-1.00,-1.0
2951,16832,-1320,1024,-1.00,-1.0
2953,9068,296,-11228,-1.00,-1.0
2957,18884,172,-2876,-1.00,-1.0
2959,16524,284,-5596,-1.00,-1.0
2961,18064,3464,-188,-1.00,-1.0
2962,19144,1640,4768,-1.00,-1.0
2964,19752,-1708,1576,-1.00,-1.0
2966,13244,4208,-8312,-1.00,-1.0
2968,14460,1028,176,-1.00,-1.0
2970,23928,-2324,12628,-1.00,-1.0
2972,4768,5764,-20412,-1.00,-1.0
2974,18256,-1704,11184,-1.00,-1.0
2976,22456,-2044,9292,-1.00,-1.0
2978,8116,3796,-11084,-1.00,-1.0
2980,18952,2548,-1144,-1.00,-1.0
2982,23464,-3588,10644,-1.00,-1.0
2984,15420,-1156,-3404,-1.00,-1.0
2986,16964,-1888,5564,-1.00,-1.0
2990,21672,-1908,4144,-1.00,-1.0
2992,10788,848,-9056,-1.00,-1.0
2994,21024,-792,10848,-1.00,-1.0
2996,14424,876,-7440,-1.00,-1.0
2998,23348,-5080,8360,-1.00,-1.0
3000,17188,2556,-924,-1.00,-1.0
3002,13048,5192,-5416,-1.00,-1.0
3004,17832,2448,-960,-1.00,-1.0
3006,13252,-1328,840,-1.00,-1.0
3008,19212,40,10844,-1.00,-1.0
3010,15492,1660,-688,-1.00,-1.0
3011,10188,-108,-7620,-1.00,-1.0
3014,22832,-2516,6948,-1.00,-1.0
3016,20772,-3296,2976,-1.00,-1.0
3017,17232,196,-3144,-1.00,-1.0
3019,16596,3592,-4856,-1.00,-1.0
3024,18044,-992,508,-1.00,-1.0
3026,16224,664,1180,-1.00,-1.0
3027,18376,3752,1828,-1.00,-1.0
3029,13056,-1088,-3996,-1.00,-1.0
3031,14972,-2532,3872,-1.00,-1.0
3033,18716,1348,5156,-1.00,-1.0
3035,14744,5368,-4408,-1.00,-1.0
3037,13736,364,-8208,-1.00,-1.0
3039,24556,-512,17092,-1.00,-1.0
3041,20920,2160,-5976,-1.00,-1.0
3043,13556,504,-8196,-1.00,-1.0
3045,19884,-1228,2588,-1.00,-1.0
3047,19484,384,10036,-1.00,-1.0
3049,14576,-1320,-3132,-1.00,-1.0
3051,17800,-4612,892,-1.00,-1.0
3055,21948,-2900,11384,-1.00,-1.0
3057,8888,364,-10912,-1.00,-1.0
3059,15696,4244,1748,-1.00,-1.0
3061,22912,-2508,6832,-1.00,-1.0
3063,15476,-2756,-4316,-1.00,-1.0
3065,20628,2048,1036,-1.00,-1.0
3067,15992,-944,3516,-1.00,-1.0
3069,20396,-572,5544,-1.00,-1.0
3071,13212,652,-10624,-1.00,-1.0
3073,18796,3452,3224,-1.00,-1.0
3075,24640,-1936,5092,-1.00,-1.0
3077,16896,-1764,-2648,-1.00,-1.0
3079,14188,1556,-4512,-1.00,-1.0
3081,18528,780,5040,-1.00,-1.0
3082,16956,-2712,1448,-1.00,-1.0
3084,8580,1784,-5824,-1.00,-1.0
3089,18308,3184,-2092,-1.00,-1.0
3091,5344,1420,-18788,-1.00,-1.0
3092,31484,-6472,22928,-1.00,-1.0
3094,20920,-196,384,-1.00,-1.0
3096,6164,1408,-17396,-1.00,-1.0
3098,24596,-1332,10076,-1.00,-1.0
3100,17788,1156,-416,-1.00,-1.0
3102,15632,-3428,1992,-1.00,-1.0
3104,14640,308,1384,-1.00,-1.0
3106,14328,3656,5460,-1.00,-1.0
3108,18404,-536,0,-1.00,-1.0
3110,14856,-1484,-6756,-1.00,-1.0
3112,21784,-40,5736,-1.00,-1.0
3114,20188,2068,-1184,-1.00,-1.0
3116,16188,-1168,-2496,-1.00,-1.0
3118,15600,3008,-4644,-1.00,-1.0
3122,21380,-6684,15908,-1.00,-1.0
3124,9308,5372,-9116,-1.00,-1.0
3126,9388,6192,-7516,-1.00,-1.0
3128,26064,-8412,17360,-1.00,-1.0
3130,18508,-1812,-532,-1.00,-1.0
3132,14548,6340,-9308,-1.00,-1.0
3134,18524,-2944,7920,-1.00,-1.0
3136,14348,1868,-936,-1.00,-1.0
3138,9364,3844,-11112,-1.00,-1.0
3140,22872,-3236,16644,-1.00,-1.0
3142,23828,-2312,2164,-1.00,-1.0
3143,9160,2544,-22164,-1.00,-1.0
3146,24360,-3232,12424,-1.00,-1.0
3148,26992,-744,11708,-1.00,-1.0
3149,5668,2436,-15420,-1.00,-1.0
3154,17796,-1476,9392,-1.00,-1.0
3156,19272,-4504,14588,-1.00,-1.0
3158,7724,6644,-15480,-1.00,-1.0
3159,12440,4952,-1744,-1.00,-1.0
3162,30284,-7276,17488,-1.00,-1.0
3164,15688,-3044,-9360,-1.00,-1.0
3165,18140,3688,-3348,-1.00,-1.0
3167,20368,920,-760,-1.00,-1.0
3169,13292,-6148,-556,-1.00,-1.0
3171,20344,-2892,10164,-1.00,-1.0
3173,11804,8476,-8492,-1.00,-1.0
3175,14148,-2360,3644,-1.00,-1.0
3177,16264,-940,2048,-1.00,-1.0
3179,17536,1940,4296,-1.00,-1.0
3181,23000,1300,1876,-1.00,-1.0
3183,11328,1180,-13912,-1.00,-1.0
3188,20344,788,-968,-1.00,-1.0
3190,9804,-1748,-3740,-1.00,-1.0
3192,17776,2988,3804,-1.00,-1.0
3193,13456,3832,-1400,-1.00,-1.0
3195,17692,-5568,6512,-1.00,-1.0
3197,18084,-2592,1876,-1.00,-1.0
3199,13476,4272,-5692,-1.00,-1.0
3201,21420,736,244,-1.00,-1.0
3203,17932,-6800,-2232,-1.00,-1.0
3205,22476,-808,10316,-1.00,-1.0
3207,13044,8676,-12456,-1.00,-1.0
3209,15468,464,3264,-1.00,-1.0
3211,15592,-1000,1316,-1.00,-1.0
3213,15544,1372,8076,-1.00,-1.0
3215,18856,1348,1600,-1.00,-1.0
3217,7796,3596,-14396,-1.00,-1.0
3221,25472,-596,2904,-1.00,-1.0
3223,9784,592,-16464,-1.00,-1.0
3225,20020,-2180,6964,-1.00,-1.0
3227,10612,5944,-11868,-1.00,-1.0
3229,9904,-2428,-4580,-1.00,-1.0
3231,16032,-584,2684,-1.00,-1.0
3233,16600,1480,1148,-1.00,-1.0
3235,18568,3624,-3124,-1.00,-1.0
3237,16024,-5180,5716,-1.00,-1.0
3239,14024,1640,-1288,-1.00,-1.0
3240,12008,2576,-3776,-1.00,-1.0
3243,23044,-4976,14944,-1.00,-1.0
3244,11776,1668,-12588,-1.00,-1.0
3246,15548,2992,-1464,-1.00,-1.0
3248,24864,-2804,7760,-1.00,-1.0
3253,14884,3512,-5348,-1.00,-1.0
3255,11724,3888,-4904,-1.00,-1.0
3256,22896,-7208,17996,-1.00,-1.0
3258,10016,3816,-11492,-1.00,-1.0
3260,11336,5088,-2728,-1.00,-1.0
3262,28148,-2524,14476,-1.00,-1.0
3264,12516,1588,-9208,-1.00,-1.0
3266,18132,2104,-396,-1.00,-1.0
3268,23248,2496,3204,-1.00,-1.0
3270,14524,-2828,-996,-1.00,-1.0
3272,15612,892,-3288,-1.00,-1.0
3274,11876,1964,668,-1.00,-1.0
3276,20872,-7432,16688,-1.00,-1.0
3278,12180,3684,-10652,-1.00,-1.0
3280,9680,4268,-10076,-1.00,-1.0
3282,32767,-6604,21528,-1.00,-1.0
3286,14588,4684,-1560,-1.00,-1.0
3288,16356,2380,-4920,-1.00,-1.0
3290,17912,-7196,13644,-1.00,-1.0
3292,18764,-2060,200,-1.00,-1.0
3294,10888,9884,-7704,-1.00,-1.0
3296,23172,-6504,8524,-1.00,-1.0
3298,16460,-4164,-448,-1.00,-1.0
3300,18152,1760,-192,-1.00,-1.0
3302,18444,3836,-2828,-1.00,-1.0
3304,22172,-6040,15364,-1.00,-1.0
3305,9724,4132,-17840,-1.00,-1.0
3308,21436,1412,9048,-1.00,-1.0
3310,24860,-2752,5824,-1.00,-1.0
3311,6796,1756,-13872,-1.00,-1.0
3313,22008,412,11428,-1.00,-1.0
3318,11628,-4840,-3808,-1.00,-1.0
3320,17656,2136,4492,-1.00,-1.0
3321,17676,2680,-240,-1.00,-1.0
3323,23240,-2200,4516,-1.00,-1.0
3325,9296,696,-17836,-1.00,-1.0
3327,24632,-2128,18448,-1.00,-1.0
3329,18904,1120,-876,-1.00,-1.0
3331,6596,-1024,-10340,-1.00,-1.0
3333,21384,2988,6724,-1.00,-1.0
3335,14560,2292,-1420,-1.00,-1.0
3337,23360,-7184,13988,-1.00,-1.0
3339,12648,4408,-12968,-1.00,-1.0
3341,13908,3448,-2396,-1.00,-1.0
3343,28928,-5048,16296,-1.00,-1.0
3345,11504,-3824,-7844,-1.00,-1.0
3347,16288,4788,468,-1.00,-1.0
3351,20020,-9100,11560,-1.00,-1.0
3353,17512,-884,-1652,-1.00,-1.0
3355,14948,6200,-6348,-1.00,-1.0
3357,24180,-5320,6920,-1.00,-1.0
3359,13460,-2044,-7280,-1.00,-1.0
3361,20944,292,8168,-1.00,-1.0
3363,16332,3216,-2228,-1.00,-1.0
3365,11500,-3772,-1224,-1.00,-1.0
3367,19940,1992,6040,-1.00,-1.0
3369,9672,6348,-8992,-1.00,-1.0
3371,19492,2436,1248,-1.00,-1.0
3373,13904,640,-10492,-1.00,-1.0
3375,24408,-2640,16892,-1.00,-1.0
3376,11576,6672,-8208,-1.00,-1.0
3378,18464,-5140,5680,-1.00,-1.0
3383,10864,3532,-2528,-1.00,-1.0
3385,19396,-7004,10152,-1.00,-1.0
3387,16192,-116,-4588,-1.00,-1.0
3389,15332,5116,-4800,-1.00,-1.0
3391,26780,-4352,8784,-1.00,-1.0
3393,12252,-2624,-9096,-1.00,-1.0
3394,17480,2236,1060,-1.00,-1.0
3396,15520,4392,-3408,-1.00,-1.0
3398,26628,-3284,9816,-1.00,-1.0
3400,10420,1572,-13528,-1.00,-1.0
3402,19668,-280,8912,-1.00,-1.0
3404,18348,2892,592,-1.00,-1.0
3406,11264,-4028,-3968,-1.00,-1.0
3408,17692,2380,5048,-1.00,-1.0
3410,14968,3340,-2948,-1.00,-1.0
3412,25180,-5532,11696,-1.00,-1.0
3416,18940,1716,5212,-1.00,-1.0
3418,21832,-3180,8380,-1.00,-1.0
3420,9500,1784,-6964,-1.00,-1.0
3422,14576,2896,-1448,-1.00,-1.0
3424,15416,1200,4936,-1.00,-1.0
3426,25484,-6864,12072,-1.00,-1.0
3428,7824,4788,-20384,-1.00,-1.0
3430,21100,920,5344,-1.00,-1.0
3432,27556,-2296,12740,-1.00,-1.0
3434,5252,804,-17432,-1.00,-1.0
3436,21500,-236,13348,-1.00,-1.0
3438,14212,5400,-3364,-1.00,-1.0
3440,15960,-4484,2016,-1.00,-1.0
3442,17836,312,-3772,-1.00,-1.0
3444,18812,4568,3068,-1.00,-1.0
3445,11772,2164,-3112,-1.00,-1.0
3450,22104,-3356,15468,-1.00,-1.0
3452,18048,4212,1140,-1.00,-1.0
3453,26676,-4556,12000,-1.00,-1.0
3456,13740,3308,-3184,-1.00,-1.0
3457,17028,4844,3572,-1.00,-1.0
3459,9564,3528,-12692,-1.00,-1.0
3461,21968,-8032,15836,-1.00,-1.0
3463,19856,-2288,1248,-1.00,-1.0
3465,10168,10888,-13008,-1.00,-1.0
3467,25440,-5016,7220,-1.00,-1.0
3469,15032,-4252,1276,-1.00,-1.0
3471,18232,2160,4128,-1.00,-1.0
3473,11984,2512,-5692,-1.00,-1.0
3475,18876,-6272,8000,-1.00,-1.0
3477,17940,788,184,-1.00,-1.0
3481,24104,-4632,4968,-1.00,-1.0
3483,10288,280,-7568,-1.00,-1.0
3485,21004,-420,11248,-1.00,-1.0
3487,16024,1936,-1892,-1.00,-1.0
3489,13188,-3376,-536,-1.00,-1.0
3491,18928,2608,3880,-1.00,-1.0
3493,16116,3556,-3280,-1.00,-1.0
3495,23432,-2872,5704,-1.00,-1.0
3497,9888,1000,-11596,-1.00,-1.0
3499,21404,88,13936,-1.00,-1.0
3500,16104,2328,-3792,-1.00,-1.0
3502,25356,-5516,8248,-1.00,-1.0
3504,14132,-3592,-5772,-1.00,-1.0
3506,19800,1984,6996,-1.00,-1.0
3508,15748,996,-4884,-1.00,-1.0
3510,13084,-4100,676,-1.00,-1.0
3514,12460,9040,-8404,-1.00,-1.0
3516,23500,-3816,4636,-1.00,-1.0
3518,14752,-1960,-5380,-1.00,-1.0
3520,20272,1440,9772,-1.00,-1.0
3522,16280,2264,-2808,-1.00,-1.0
3524,13064,-2400,-1308,-1.00,-1.0
3526,18896,1276,5476,-1.00,-1.0
3528,15516,4316,-2552,-1.00,-1.0
3530,23696,-5108,6164,-1.00,-1.0
3532,11196,2328,-11304,-1.00,-1.0
3534,20016,-28,9128,-1.00,-1.0
3536,21468,-436,1580,-1.00,-1.0
3538,10220,-692,-5704,-1.00,-1.0
3540,20380,960,4252,-1.00,-1.0
3542,11500,5808,-4068,-1.00,-1.0
3546,14076,1520,-9472,-1.00,-1.0
3548,15720,1980,1216,-1.00,-1.0
3550,24016,-592,5292,-1.00,-1.0
3552,11584,-4596,-3068,-1.00,-1.0
3554,19136,440,5168,-1.00,-1.0
3556,11504,3396,-6392,-1.00,-1.0
3558,21204,-6356,11440,-1.00,-1.0
3560,16900,-1888,-3784,-1.00,-1.0
3562,15820,5072,68,-1.00,-1.0
3564,23656,-2132,1708,-1.00,-1.0
3565,12644,-4268,-3900,-1.00,-1.0
3567,12920,3912,-8324,-1.00,-1.0
3569,15124,2984,-1492,-1.00,-1.0
3571,29668,-4524,12976,-1.00,-1.0
3573,9100,208,-14344,-1.00,-1.0
3575,19888,528,6932,-1.00,-1.0
3579,16012,-6424,7452,-1.00,-1.0
3581,15824,3572,-3480,-1.00,-1.0
3583,13684,4692,-4312,-1.00,-1.0
3585,26872,-5496,13296,-1.00,-1.0
3587,11828,-512,-10788,-1.00,-1.0
3589,17740,240,3984,-1.00,-1.0
3591,18500,84,2060,-1.00,-1.0
3593,13888,-2236,-844,-1.00,-1.0
3595,14540,1928,-2368,-1.00,-1.0
3597,15508,1328,3684,-1.00,-1.0
3599,24464,-2520,7448,-1.00,-1.0
3601,5604,3256,-20160,-1.00,-1.0
3603,25004,-2556,15088,-1.00,-1.0
3605,22920,1032,4976,-1.00,-1.0
3607,5896,2160,-15084,-1.00,-1.0
3609,24068,684,10696,-1.00,-1.0
3613,20520,-4876,6096,-1.00,-1.0
3615,12052,2180,-10056,-1.00,-1.0
3617,17620,1920,5640,-1.00,-1.0
3619,24956,-4152,7788,-1.00,-1.0
3621,10240,3192,-10928,-1.00,-1.0
3623,19364,748,496,-1.00,-1.0
3624,18236,3372,3276,-1.00,-1.0
3626,16896,-4336,2968,-1.00,-1.0
3628,10256,5172,-7400,-1.00,-1.0
3630,17888,-212,4048,-1.00,-1.0
3632,10476,4156,-13148,-1.00,-1.0
3634,18684,-6156,9524,-1.00,-1.0
3636,18036,-216,4296,-1.00,-1.0
3638,11192,5888,-4592,-1.00,-1.0
3640,22776,-1956,620,-1.00,-1.0
3644,24104,-1228,10544,-1.00,-1.0
3646,13248,-160,-5680,-1.00,-1.0
3648,16928,-2564,4740,-1.00,-1.0
3650,16172,2280,-4580,-1.00,-1.0
3652,13580,144,2124,-1.00,-1.0
3654,26076,-7220,12272,-1.00,-1.0
3656,7568,4884,-12760,-1.00,-1.0
3658,16208,1592,880,-1.00,-1.0
3660,23964,-4928,10172,-1.00,-1.0
3662,14804,-4768,708,-1.00,-1.0
3664,17692,5632,-12,-1.00,-1.0
3666,13616,3236,-4416,-1.00,-1.0
3668,22464,-9084,11428,-1.00,-1.0
3670,16892,56,-3016,-1.00,-1.0
3672,14872,3244,-2668,-1.00,-1.0
3674,23208,-3476,5012,-1.00,-1.0
3678,21684,872,10576,-1.00,-1.0
3680,14896,1688,-5852,-1.00,-1.0
3682,14172,-4252,3668,-1.00,-1.0
3684,19776,1204,5616,-1.00,-1.0
3686,11176,6348,-6992,-1.00,-1.0
3688,24508,-4904,6912,-1.00,-1.0
3689,12224,908,-8228,-1.00,-1.0
3691,19088,2436,6780,-1.00,-1.0
3693,20040,276,472,-1.00,-1.0
3695,10768,36,-6360,-1.00,-1.0
3697,13176,1408,-6988,-1.00,-1.0
3699,16924,88,3904,-1.00,-1.0
3701,21000,-1196,244,-1.00,-1.0
3703,12164,-3044,-2644,-1.00,-1.0
3705,23992,788,10956,-1.00,-1.0
3707,11672,4424,-7404,-1.00,-1.0
3711,14820,1552,-3440,-1.00,-1.0
3713,14216,2300,1384,-1.00,-1.0
3715,26048,-76,7860,-1.00,-1.0
3717,6964,3372,-17920,-1.00,-1.0
3719,23520,-1780,13508,-1.00,-1.0
3721,20164,1228,3116,-1.00,-1.0
3723,9648,-1696,-3572,-1.00,-1.0
3725,16968,3208,2096,-1.00,-1.0
3727,12676,2724,-2788,-1.00,-1.0
3729,23756,-4568,8688,-1.00,-1.0
3731,13424,-36,-11504,-1.00,-1.0
3733,19956,-384,7168,-1.00,-1.0
3735,18736,524,-2516,-1.00,-1.0
3737,12644,-5524,-656,-1.00,-1.0
3738,23204,-380,9016,-1.00,-1.0
3740,10304,5380,-8216,-1.00,-1.0
3744,16976,448,-28,-1.00,-1.0
3746,14180,2908,-2952,-1.00,-1.0
3748,13172,4564,-4008,-1.00,-1.0
3750,18908,-7048,8296,-1.00,-1.0
3752,14180,4432,-6620,-1.00,-1.0
3754,15608,2916,-1264,-1.00,-1.0
3756,26168,-3756,9468,-1.00,-1.0
3758,10080,976,-12440,-1.00,-1.0
3760,21292,-928,7980,-1.00,-1.0
3762,16972,516,48,-1.00,-1.0
3764,14604,-4520,3036,-1.00,-1.0
3766,17540,3272,-1252,-1.00,-1.0
3768,12012,3600,-5092,-1.00,-1.0
3770,28136,-5196,12660,-1.00,-1.0
3772,8892,3004,-16464,-1.00,-1.0
3776,22128,788,4472,-1.00,-1.0
3778,10444,-968,-4080,-1.00,-1.0
3780,21732,1808,5484,-1.00,-1.0
3782,12000,4740,-5204,-1.00,-1.0
3784,21140,-6108,7628,-1.00,-1.0
3786,13508,2288,-7004,-1.00,-1.0
3788,14288,2860,-1388,-1.00,-1.0
3790,29220,-2224,11940,-1.00,-1.0
3792,6832,3236,-19224,-1.00,-1.0
3794,21964,-1664,13324,-1.00,-1.0
3795,18824,2684,2272,-1.00,-1.0
3797,13504,-2740,792,-1.00,-1.0
3799,13148,4516,-8176,-1.00,-1.0
3801,18448,1888,6664,-1.00,-1.0
3803,25532,-5120,8452,-1.00,-1.0
3805,18612,-6336,11856,-1.00,-1.0
3809,19016,1516,3924,-1.00,-1.0
3811,11568,-4696,-2252,-1.00,-1.0
3813,20536,3952,3592,-1.00,-1.0
3815,19040,-608,6476,-1.00,-1.0
3817,16384,612,-1148,-1.00,-1.0
3819,13772,-2552,-820,-1.00,-1.0
3821,19160,3104,1736,-1.00,-1.0
3823,13912,2088,-6248,-1.00,-1.0
3825,27200,-8096,17164,-1.00,-1.0
3827,9448,4608,-16432,-1.00,-1.0
3829,13412,3152,1728,-1.00,-1.0
3831,27608,-6788,14284,-1.00,-1.0
3833,7764,-72,-10080,-1.00,-1.0
3835,19156,3800,3696,-1.00,-1.0
3837,13996,2672,-2460,-1.00,-1.0
3839,24796,-9572,18848,-1.00,-1.0
3843,15020,4504,-580,-1.00,-1.0
3845,30096,-8164,15616,-1.00,-1.0
3847,10604,-1956,-7220,-1.00,-1.0
3849,17664,3112,2208,-1.00,-1.0
3851,16008,-148,1008,-1.00,-1.0
3853,20060,-8724,8820,-1.00,-1.0
3855,18152,-340,-2916,-1.00,-1.0
3857,14084,5624,-5572,-1.00,-1.0
3859,24080,-4396,5528,-1.00,-1.0
3860,10820,-3800,-4360,-1.00,-1.0
3862,21480,2120,11548,-1.00,-1.0
3864,11652,3600,-8088,-1.00,-1.0
3866,16952,-3224,5040,-1.00,-1.0
3868,19464,900,1320,-1.00,-1.0
3870,17088,4192,-2624,-1.00,-1.0
3874,11996,-724,-3664,-1.00,-1.0
3876,21976,-592,11152,-1.00,-1.0
3878,13900,1392,-5052,-1.00,-1.0
3880,13228,-3676,-36,-1.00,-1.0
3882,20492,2728,3424,-1.00,-1.0
3884,9948,8200,-10728,-1.00,-1.0
3886,19796,536,4516,-1.00,-1.0
3888,11024,-5360,-4092,-1.00,-1.0
3890,22072,-520,8304,-1.00,-1.0
3892,13888,3508,-3828,-1.00,-1.0
3894,22328,-4108,5348,-1.00,-1.0
3896,14440,-1308,-8924,-1.00,-1.0
3898,19500,552,7908,-1.00,-1.0
3900,20880,368,2232,-1.00,-1.0
3902,9716,-1212,-4172,-1.00,-1.0
3904,19972,4,6864,-1.00,-1.0
3908,22280,-5820,4396,-1.00,-1.0
3910,14188,812,-7200,-1.00,-1.0
3912,18252,2568,6984,-1.00,-1.0
3914,21344,-1076,3628,-1.00,-1.0
3916,7400,196,-9172,-1.00,-1.0
3918,22032,-296,10876,-1.00,-1.0
3920,14112,5944,-5240,-1.00,-1.0
3922,20576,-4240,3464,-1.00,-1.0
3924,14144,1048,-6864,-1.00,-1.0
3926,19732,712,10184,-1.00,-1.0
3928,19756,-264,12,-1.00,-1.0
3930,8472,728,-9972,-1.00,-1.0
3932,23484,-1476,11484,-1.00,-1.0
3934,15072,4548,-3932,-1.00,-1.0
3935,18180,-2108,-952,-1.00,-1.0
3937,16948,-80,-1268,-1.00,-1.0
3942,17476,-1248,-2612,-1.00,-1.0
3944,9664,-1908,-4560,-1.00,-1.0
3945,25548,-1888,14780,-1.00,-1.0
3947,10376,5508,-12988,-1.00,-1.0
3949,21020,-6360,7552,-1.00,-1.0
3951,19900,-208,1816,-1.00,-1.0
3953,10628,6548,-6628,-1.00,-1.0
3955,20900,-2548,2412,-1.00,-1.0
3957,14812,-6328,5796,-1.00,-1.0
3959,19352,2152,5520,-1.00,-1.0
3961,10784,5984,-14036,-1.00,-1.0
3963,22848,-2672,9832,-1.00,-1.0
3965,20736,-1972,920,-1.00,-1.0
3967,19580,376,8952,-1.00,-1.0
3969,18608,3028,1444,-1.00,-1.0
3971,18792,-5488,1156,-1.00,-1.0
3975,19356,2432,6432,-1.00,-1.0
3977,19980,-3900,1408,-1.00,-1.0
3979,10660,-944,-3928,-1.00,-1.0
3981,21168,-200,8912,-1.00,-1.0
3983,14720,4184,-2852,-1.00,-1.0
3985,20192,-5696,2224,-1.00,-1.0
3987,15420,1188,-7492,-1.00,-1.0
3989,19500,492,6064,-1.00,-1.0
3991,18872,-2416,1792,-1.00,-1.0
3993,10236,724,-3088,-1.00,-1.0
3994,18996,2444,2964,-1.00,-1.0
3997,16424,1976,-2844,-1.00,-1.0
3998,21364,-6180,7876,-1.00,-1.0
4000,14440,3136,-8532,-1.00,-1.0
4002,15360,3560,-592,-1.00,-1.0
4006,11464,-3496,-468,-1.00,-1.0
4008,18096,5328,3380,-1.00,-1.0
4010,10516,5180,-9712,-1.00,-1.0
4012,26472,-6496,15744,-1.00,-1.0
4014,13176,2168,-14928,-1.00,-1.0
4016,18016,3300,5364,-1.00,-1.0
4018,9120,6740,-12300,-1.00,-1.0
4020,22416,-6864,8808,-1.00,-1.0
4022,18500,8,-2892,-1.00,-1.0
4024,16184,4272,2300,-1.00,-1.0
4026,19036,-2780,-12,-1.00,-1.0
4028,11940,-508,1676,-1.00,-1.0
4030,18084,-164,1400,-1.00,-1.0
4032,14760,5104,-260,-1.00,-1.0
4034,24236,-8164,8300,-1.00,-1.0
4036,12128,4692,-10668,-1.00,-1.0
4040,24792,-3960,11988,-1.00,-1.0
4042,7416,1564,-10740,-1.00,-1.0
4044,17320,2744,2368,-1.00,-1.0
4046,18784,-604,4324,-1.00,-1.0
4048,19896,-4736,3932,-1.00,-1.0
4050,10452,4864,-13692,-1.00,-1.0
4051,21108,-32,12040,-1.00,-1.0
4053,22680,-1532,2836,-1.00,-1.0
4055,8496,356,-8592,-1.00,-1.0
4057,22976,808,7148,-1.00,-1.0
4059,13284,6292,-5280,-1.00,-1.0
4061,19824,-6752,7308,-1.00,-1.0
4063,16980,76,-2908,-1.00,-1.0
4065,13224,4760,-3420,-1.00,-1.0
4067,19836,-1152,2264,-1.00,-1.0
4069,17208,-7092,8400,-1.00,-1.0
4073,10092,6020,-12072,-1.00,-1.0
4075,26420,-6740,16888,-1.00,-1.0
4077,15104,-1816,-6912,-1.00,-1.0
4079,16032,3884,-312,-1.00,-1.0
4081,20336,-1692,148,-1.00,-1.0
4083,13424,-5164,4128,-1.00,-1.0
4085,12956,3024,-7416,-1.00,-1.0
4087,11560,6296,-8528,-1.00,-1.0
4089,21768,-3000,6492,-1.00,-1.0
4091,10400,-1728,-4896,-1.00,-1.0
4093,19232,2108,3488,-1.00,-1.0
4095,14632,3088,-3824,-1.00,-1.0
4097,23912,-5680,9108,-1.00,-1.0
4099,11404,1972,-13516,-1.00,-1.0
4101,20028,-332,10472,-1.00,-1.0
4105,8816,600,-6740,-1.00,-1.0
4107,21424,528,4172,-1.00,-1.0
4109,15628,2576,228,-1.00,-1.0
4111,17872,-4264,296,-1.00,-1.0
4113,15120,808,-716,-1.00,-1.0
4115,19692,-1092,4732,-1.00,-1.0
4116,16100,-868,-2944,-1.00,-1.0
4118,13636,-6552,1312,-1.00,-1.0
4120,24980,104,12168,-1.00,-1.0
4122,7740,7028,-18400,-1.00,-1.0
4124,23396,-5632,9688,-1.00,-1.0
4126,18420,-1200,592,-1.00,-1.0
4128,13852,3996,912,-1.00,-1.0
4130,18368,-192,-1016,-1.00,-1.0
4132,12456,-3844,2212,-1.00,-1.0
4134,22676,-168,5044,-1.00,-1.0
4138,20432,-5948,6264,-1.00,-1.0
4140,16968,-152,-132,-1.00,-1.0
4142,12452,3008,-1360,-1.00,-1.0
4144,19756,-1404,2532,-1.00,-1.0
4146,15516,-4476,2196,-1.00,-1.0
4148,19468,2860,3424,-1.00,-1.0
4150,17536,1712,5504,-1.00,-1.0
4152,21272,-3244,6312,-1.00,-1.0
4154,9924,492,-8940,-1.00,-1.0
4156,20672,1948,5592,-1.00,-1.0
4158,18184,996,216,-1.00,-1.0
4160,20060,-4920,5404,-1.00,-1.0
4162,12200,3796,-10396,-1.00,-1.0
4164,18216,1244,5176,-1.00,-1.0
4165,20836,-3748,4860,-1.00,-1.0
4167,12884,1080,-3692,-1.00,-1.0
4172,15660,1076,-180,-1.00,-1.0
4174,19304,-7372,7364,-1.00,-1.0
4176,15528,3260,-1896,-1.00,-1.0
4177,11764,4464,-6340,-1.00,-1.0
4179,21592,-4204,6708,-1.00,-1.0
4181,17364,-4172,4788,-1.00,-1.0
4183,18308,5168,-288,-1.00,-1.0
4185,12356,4668,-9848,-1.00,-1.0
4187,21028,-7532,12244,-1.00,-1.0
4189,17444,1404,-2044,-1.00,-1.0
4191,13420,4440,-4696,-1.00,-1.0
4193,21008,-2676,4200,-1.00,-1.0
4195,14584,-3532,1868,-1.00,-1.0
4197,19780,2956,3716,-1.00,-1.0
4199,13044,1816,-8224,-1.00,-1.0
4203,15768,2972,-5284,-1.00,-1.0
4205,12448,4576,-2708,-1.00,-1.0
4207,26332,-6916,12232,-1.00,-1.0
4209,9564,136,-8760,-1.00,-1.0
4211,18192,988,5108,-1.00,-1.0
4213,19808,64,1696,-1.00,-1.0
4215,14416,-2640,-1612,-1.00,-1.0
4217,12632,272,-2344,-1.00,-1.0
4219,20748,812,5816,-1.00,-1.0
4221,16220,120,-6028,-1.00,-1.0
4223,15392,-5452,3336,-1.00,-1.0
4225,21520,3176,5680,-1.00,-1.0
4227,8132,5744,-12252,-1.00,-1.0
4229,24108,-7188,13284,-1.00,-1.0
4230,12260,1108,-7780,-1.00,-1.0
4232,14104,2404,2464,-1.00,-1.0
4237,18372,-892,2300,-1.00,-1.0
4239,11368,5980,-4576,-1.00,-1.0
4241,17644,-432,-3816,-1.00,-1.0
4243,18576,-5816,8360,-1.00,-1.0
4245,20904,1432,3104,-1.00,-1.0
4247,9992,6716,-12096,-1.00,-1.0
4249,19700,-6688,9768,-1.00,-1.0
4251,7388,2772,-14956,-1.00,-1.0
4253,24832,-224,11852,-1.00,-1.0
4255,17060,1948,-1892,-1.00,-1.0
4257,14396,-6276,520,-1.00,-1.0
4259,19760,2568,2792,-1.00,-1.0
4261,11144,4124,-7140,-1.00,-1.0
4263,21788,-3844,7340,-1.00,-1.0
4264,15032,-1028,-3236,-1.00,-1.0
4266,19524,2040,3496,-1.00,-1.0
4270,16324,-5772,4796,-1.00,-1.0
4272,20308,2480,5252,-1.00,-1.0
4274,10968,5776,-11948,-1.00,-1.0
4276,20664,-6128,9420,-1.00,-1.0
4278,15988,256,128,-1.00,-1.0
4280,13372,3448,-2532,-1.00,-1.0
4282,20780,-788,1816,-1.00,-1.0
4284,15336,-2560,-1184,-1.00,-1.0
4286,22248,1392,6252,-1.00,-1.0
4288,12500,4016,-8792,-1.00,-1.0
4290,18528,-6152,9260,-1.00,-1.0
4292,10540,-644,-11396,-1.00,-1.0
4294,10988,3372,-4856,-1.00,-1.0
4296,17204,1820,-4164,-1.00,-1.0
4298,14768,-2288,-1016,-1.00,-1.0
4302,15784,1064,-6236,-1.00,-1.0
4304,16328,-4824,5444,-1.00,-1.0
4306,9252,3120,-11084,-1.00,-1.0
4308,20248,-1828,10720,-1.00,-1.0
4310,23512,-3604,5456,-1.00,-1.0
4312,9800,44,-9824,-1.00,-1.0
4314,21528,1852,2704,-1.00,-1.0
4315,17896,1224,3136,-1.00,-1.0
4318,17104,-2540,-88,-1.00,-1.0
4320,10080,5672,-6756,-1.00,-1.0
4321,20760,-3164,12300,-1.00,-1.0
4323,21980,-1820,4680,-1.00,-1.0
4325,4412,4152,-21580,-1.00,-1.0
4327,27640,-4084,18856,-1.00,-1.0
4329,18356,-2360,1392,-1.00,-1.0
4331,10444,-1840,-3340,-1.00,-1.0
4335,16644,-1984,2808,-1.00,-1.0
4337,22204,-4312,5724,-1.00,-1.0
4339,8452,5360,-12876,-1.00,-1.0
4341,20944,-3500,14164,-1.00,-1.0
4343,21572,-3908,5460,-1.00,-1.0
4345,5136,1920,-15672,-1.00,-1.0
4347,22168,-380,6004,-1.00,-1.0
4349,21344,-4004,8764,-1.00,-1.0
4351,14820,-2416,-1064,-1.00,-1.0
4353,11728,7000,-6964,-1.00,-1.0
4355,20528,-972,6736,-1.00,-1.0
4357,12804,2204,-8424,-1.00,-1.0
4359,8668,4424,-14536,-1.00,-1.0
4361,20796,732,10500,-1.00,-1.0
4363,11908,3832,-8716,-1.00,-1.0
4365,21748,-6040,8220,-1.00,-1.0
4369,16624,464,-828,-1.00,-1.0
4371,15428,-5632,3532,-1.00,-1.0
4373,12272,-680,-5872,-1.00,-1.0
4375,23620,-436,13624,-1.00,-1.0
4377,16060,2060,-5684,-1.00,-1.0
4379,11108,-4072,-3536,-1.00,-1.0
4380,23228,252,9296,-1.00,-1.0
4383,14080,3128,-5592,-1.00,-1.0
4385,16956,-2712,3048,-1.00,-1.0
4386,15296,2272,-2536,-1.00,-1.0
4388,15920,60,3600,-1.00,-1.0
4390,19984,-1952,1116,-1.00,-1.0
4392,11232,748,-6628,-1.00,-1.0
4394,23060,504,10444,-1.00,-1.0
4396,16924,616,-3316,-1.00,-1.0
4400,18780,4944,-580,-1.00,-1.0
4402,10960,5268,-10172,-1.00,-1.0
4404,23784,-8456,13908,-1.00,-1.0
4406,15576,576,-1232,-1.00,-1.0
4408,11308,5816,-6524,-1.00,-1.0
4410,21396,-2120,1704,-1.00,-1.0
4412,16460,-4936,2108,-1.00,-1.0
4414,19464,2148,5960,-1.00,-1.0
4416,13496,5116,-6048,-1.00,-1.0
4418,15248,-4540,4096,-1.00,-1.0
4420,17428,3084,-88,-1.00,-1.0
4422,14808,2540,-1332,-1.00,-1.0
4424,24228,-3972,10144,-1.00,-1.0
4426,8752,4836,-17528,-1.00,-1.0
4428,23668,976,9604,-1.00,-1.0
4430,9864,7208,-12756,-1.00,-1.0
4434,20356,3872,3972,-1.00,-1.0
4436,14532,3576,-3920,-1.00,-1.0
4438,21772,-9296,11404,-1.00,-1.0
4440,8076,-320,-10520,-1.00,-1.0
4442,23988,-1432,15752,-1.00,-1.0
4444,17480,2728,-5276,-1.00,-1.0
4446,13212,-3116,-1836,-1.00,-1.0
4447,19096,2388,364,-1.00,-1.0
4449,14760,4064,1552,-1.00,-1.0
4451,17384,-2208,-796,-1.00,-1.0
4453,14356,-1420,-420,-1.00,-1.0
4455,21300,-220,6716,-1.00,-1.0
4457,13860,708,-5828,-1.00,-1.0
4459,17252,-7516,4728,-1.00,-1.0
4461,23172,824,7660,-1.00,-1.0
4463,8460,6012,-15560,-1.00,-1.0
4467,15584,488,-676,-1.00,-1.0
4469,12648,3568,-3492,-1.00,-1.0
4471,20868,-1664,2808,-1.00,-1.0
4473,12716,-3164,-2708,-1.00,-1.0
4475,23284,268,10308,-1.00,-1.0
4477,14160,4248,-8716,-1.00,-1.0
4479,16936,-4148,4096,-1.00,-1.0
4481,17192,1304,-924,-1.00,-1.0
4483,13764,3800,336,-1.00,-1.0
4485,20476,-3544,2784,-1.00,-1.0
4487,9904,832,-8008,-1.00,-1.0
4489,22332,-40,10444,-1.00,-1.0
4491,18176,-748,-1284,-1.00,-1.0
4493,14016,-2528,-3776,-1.00,-1.0
4495,19460,2988,2316,-1.00,-1.0
4499,22116,-5068,8072,-1.00,-1.0
4501,9144,4600,-14668,-1.00,-1.0
4503,18852,940,7224,-1.00,-1.0
4505,10188,3968,-12600,-1.00,-1.0
4507,13056,1312,-4332,-1.00,-1.0
4509,17708,5312,-5112,-1.00,-1.0
4510,20936,-248,10404,-1.00,-1.0
4512,15648,60,-11472,-1.00,-1.0
4514,12672,-292,464,-1.00,-1.0
4516,25840,-1836,10120,-1.00,-1.0
4518,16036,488,-448,-1.00,-1.0
4520,18952,-3216,-2260,-1.00,-1.0
4522,13128,5988,-4904,-1.00,-1.0
4524,16664,636,1964,-1.00,-1.0
4526,24228,-6944,11384,-1.00,-1.0
4528,7336,4172,-12116,-1.00,-1.0
4532,22804,-4204,9672,-1.00,-1.0
4534,17740,-4472,312,-1.00,-1.0
4536,15708,6936,-4980,-1.00,-1.0
4538,14396,3492,-4460,-1.00,-1.0
4540,23600,-5668,14100,-1.00,-1.0
4542,8792,4788,-16080,-1.00,-1.0
4544,18772,1752,8420,-1.00,-1.0
4546,20888,-2656,5676,-1.00,-1.0
4548,8948,-1536,-6144,-1.00,-1.0
4550,20500,1820,4016,-1.00,-1.0
4552,14460,3388,3324,-1.00,-1.0
4553,20604,-1812,888,-1.00,-1.0
4555,10424,356,-4180,-1.00,-1.0
4557,25128,-336,9584,-1.00,-1.0
4559,15380,1404,-4880,-1.00,-1.0
4561,16912,-6628,2144,-1.00,-1.0
4565,10584,2668,-5748,-1.00,-1.0
4567,23960,-5732,12888,-1.00,-1.0
4569,9984,1492,-12672,-1.00,-1.0
4571,17012,1204,6996,-1.00,-1.0
4573,26172,-2940,9268,-1.00,-1.0
4575,8964,-656,-13312,-1.00,-1.0
4577,20912,524,6648,-1.00,-1.0
4579,20976,1040,7548,-1.00,-1.0
4581,17828,-1200,-200,-1.00,-1.0
4583,9732,4308,-14756,-1.00,-1.0
4585,21604,-388,12956,-1.00,-1.0
4587,23192,-4112,6864,-1.00,-1.0
4589,6468,1960,-14864,-1.00,-1.0
4591,22252,1108,9120,-1.00,-1.0
4593,18648,-924,2252,-1.00,-1.0
4597,18596,2680,564,-1.00,-1.0
4599,12532,4580,-6112,-1.00,-1.0
4601,20972,-3520,7572,-1.00,-1.0
4603,12984,1124,-6284,-1.00,-1.0
4605,20216,60,7720,-1.00,-1.0
4607,17584,-200,-2468,-1.00,-1.0
4609,13724,-5232,-60,-1.00,-1.0
4610,11244,3040,-10408,-1.00,-1.0
4613,14788,4260,-8172,-1.00,-1.0
4615,19256,-6172,5940,-1.00,-1.0
4616,10976,-16,-6652,-1.00,-1.0
4618,20804,2036,3452,-1.00,-1.0
4620,20496,908,4052,-1.00,-1.0
4622,15384,-2612,-5732,-1.00,-1.0
4624,16292,1632,508,-1.00,-1.0
4626,15372,1784,1016,-1.00,-1.0
4630,7360,3988,-18200,-1.00,-1.0
4632,20164,-680,13200,-1.00,-1.0
4634,23992,-2416,4980,-1.00,-1.0
4636,10764,-308,-9204,-1.00,-1.0
4638,21152,4400,3176,-1.00,-1.0
4640,16176,1768,-544,-1.00,-1.0
4642,21940,-4452,9132,-1.00,-1.0
4644,10888,4712,-13256,-1.00,-1.0
4646,15172,3580,3896,-1.00,-1.0
4648,22932,-6024,9036,-1.00,-1.0
4650,9980,1544,-6260,-1.00,-1.0
4652,17036,2992,-1460,-1.00,-1.0
4654,20612,-2184,6900,-1.00,-1.0
4656,19636,-6792,3464,-1.00,-1.0
4658,15596,6260,-5364,-1.00,-1.0
4660,13916,3984,-9500,-1.00,-1.0
4664,14076,2644,-2948,-1.00,-1.0
4666,11404,6588,-6520,-1.00,-1.0
4668,17704,-1608,672,-1.00,-1.0
4670,19620,-5432,7640,-1.00,-1.0
4672,21592,3612,4208,-1.00,-1.0
4674,8364,3680,-15748,-1.00,-1.0
4675,19388,-1716,3016,-1.00,-1.0
4677,8460,4164,-13776,-1.00,-1.0
4679,25272,-472,12848,-1.00,-1.0
4681,16064,-640,-5088,-1.00,-1.0
4683,14248,-3128,-852,-1.00,-1.0
4685,23056,1188,6300,-1.00,-1.0
4687,11244,5276,-5212,-1.00,-1.0
4689,19820,-2532,3156,-1.00,-1.0
4691,14304,3348,-3572,-1.00,-1.0
4693,18060,2528,2420,-1.00,-1.0
4697,11348,676,-4048,-1.00,-1.0
4699,15920,3712,-216,-1.00,-1.0
4701,21596,-2812,7260,-1.00,-1.0
4703,17236,-3384,-1968,-1.00,-1.0
4705,15656,6164,-1748,-1.00,-1.0
4707,15664,3476,-3832,-1.00,-1.0
4709,19756,-6048,10036,-1.00,-1.0
4711,12636,4028,-8412,-1.00,-1.0
4713,16084,1972,2700,-1.00,-1.0
4715,20880,-2020,5684,-1.00,-1.0
4717,9912,-1036,-9412,-1.00,-1.0
4719,21224,652,9268,-1.00,-1.0
4721,20124,320,-1036,-1.00,-1.0
4723,11356,-2504,-4316,-1.00,-1.0
4724,21820,1500,4096,-1.00,-1.0
4729,16180,-3400,896,-1.00,-1.0
4731,13584,3016,-3996,-1.00,-1.0
4733,17308,1124,3440,-1.00,-1.0
4735,23096,-2520,3724,-1.00,-1.0
4737,9612,-1336,-11272,-1.00,-1.0
4739,20600,1152,13188,-1.00,-1.0
4740,21520,1976,2028,-1.00,-1.0
4742,26260,-9888,16628,-1.00,-1.0
4744,16548,-356,-372,-1.00,-1.0
4746,8596,7728,-11588,-1.00,-1.0
4748,20176,-3136,5232,-1.00,-1.0
4750,24692,-9616,16568,-1.00,-1.0
4752,11480,5900,-9576,-1.00,-1.0
4754,13432,6296,-7636,-1.00,-1.0
4756,22448,-7632,13800,-1.00,-1.0
4758,14404,1380,-2244,-1.00,-1.0
4762,22160,-4624,10116,-1.00,-1.0
4764,12348,-348,-7544,-1.00,-1.0
4766,18320,120,3568,-1.00,-1.0
4768,22568,544,1536,-1.00,-1.0
4770,12736,-2776,-4456,-1.00,-1.0
4772,18516,2684,4656,-1.00,-1.0
4774,12068,3240,-4400,-1.00,-1.0
4776,20228,-3496,11864,-1.00,-1.0
4778,13232,3444,-10568,-1.00,-1.0
4780,14644,3256,800,-1.00,-1.0
4782,26108,-5616,8580,-1.00,-1.0
4784,12520,-1108,-5656,-1.00,-1.0
4786,18928,2908,2612,-1.00,-1.0
4787,19940,1476,1308,-1.00,-1.0
4789,19060,-2368,3508,-1.00,-1.0
4793,15748,3820,-880,-1.00,-1.0
4795,12868,992,-6352,-1.00,-1.0
4797,21028,-5820,6096,-1.00,-1.0
4799,12624,6344,-6992,-1.00,-1.0
4801,12516,2984,-6032,-1.00,-1.0
4803,24232,-8656,18800,-1.00,-1.0
4805,13492,3328,-6540,-1.00,-1.0
4807,10572,5864,-11356,-1.00,-1.0
4809,24396,-5032,13308,-1.00,-1.0
4811,13808,-2980,-3356,-1.00,-1.0
4813,18012,2124,3936,-1.00,-1.0
4815,18748,3488,-3352,-1.00,-1.0
4817,14296,-4524,1380,-1.00,-1.0
4819,19564,464,3728,-1.00,-1.0
4821,14268,4864,-2660,-1.00,-1.0
4823,18628,-3592,3880,-1.00,-1.0
4827,17140,1256,4044,-1.00,-1.0
4829,23296,-2080,5492,-1.00,-1.0
4831,11192,-1332,-9524,-1.00,-1.0
4833,20408,1644,7732,-1.00,-1.0
4835,16084,1832,-2668,-1.00,-1.0
4837,17484,-6160,7560,-1.00,-1.0
4838,15788,2064,-5180,-1.00,-1.0
4840,14940,2424,-340,-1.00,-1.0
4842,20952,-3700,4360,-1.00,-1.0
4844,15012,-272,-672,-1.00,-1.0
4846,16132,2196,-4900,-1.00,-1.0
4848,18808,-420,13000,-1.00,-1.0
4850,16996,-2140,-5792,-1.00,-1.0
4852,8288,4684,-6708,-1.00,-1.0
4854,23244,-2772,7840,-1.00,-1.0
4856,19092,-3452,4368,-1.00,-1.0
4860,18584,6060,-2128,-1.00,-1.0
4862,16856,1072,-2752,-1.00,-1.0
4864,19348,-8480,7104,-1.00,-1.0
4866,17936,2028,2480,-1.00,-1.0
4868,10368,6788,-7460,-1.00,-1.0
4870,17716,-4364,5456,-1.00,-1.0
4872,19724,-3192,3332,-1.00,-1.0
4874,16648,2156,-1244,-1.00,-1.0
4876,18788,2280,-1380,-1.00,-1.0
4878,14156,-5004,-772,-1.00,-1.0
4880,18656,1108,7072,-1.00,-1.0
4882,14056,2844,-3528,-1.00,-1.0
4884,19256,-4388,8736,-1.00,-1.0
4886,14904,1800,-8300,-1.00,-1.0
4887,13548,1976,-52,-1.00,-1.0
4892,9760,-256,-10928,-1.00,-1.0
4894,18960,904,6732,-1.00,-1.0
4896,17372,292,1352,-1.00,-1.0
4898,14420,-4328,2568,-1.00,-1.0
4900,15024,3756,-6176,-1.00,-1.0
4902,16784,468,6612,-1.00,-1.0
4903,21700,-3660,2192,-1.00,-1.0
4905,9872,-656,-8572,-1.00,-1.0
4907,23012,-3180,12172,-1.00,-1.0
4909,21052,2732,1948,-1.00,-1.0
4911,28476,-9976,15432,-1.00,-1.0
4913,13840,984,-1044,-1.00,-1.0
4915,11056,4268,-10940,-1.00,-1.0
4917,22488,208,4764,-1.00,-1.0
4919,18932,-7292,4024,-1.00,-1.0
4921,17000,744,3812,-1.00,-1.0
4925,14716,-2476,3244,-1.00,-1.0
4927,19296,-3224,5380,-1.00,-1.0
4929,17780,2172,3420,-1.00,-1.0
4931,17960,1328,-2872,-1.00,-1.0
4933,12504,1136,-10556,-1.00,-1.0
4935,22392,-4372,15776,-1.00,-1.0
4937,22108,2812,3332,-1.00,-1.0
4939,5916,2408,-15116,-1.00,-1.0
4941,21436,-748,9252,-1.00,-1.0
4943,16168,-540,1140,-1.00,-1.0
4945,18072,-3060,4256,-1.00,-1.0
4947,14720,1244,-11424,-1.00,-1.0
4949,16268,344,7496,-1.00,-1.0
4951,22940,-2220,4264,-1.00,-1.0
4952,11604,-1660,-4776,-1.00,-1.0
4954,18536,432,2484,-1.00,-1.0
4959,15672,-4612,2040,-1.00,-1.0
4961,20772,272,3092,-1.00,-1.0
4962,10072,3264,-10656,-1.00,-1.0
4964,25136,-2676,12596,-1.00,-1.0
4966,14456,-1984,-9052,-1.00,-1.0
4968,17980,332,8324,-1.00,-1.0
4970,18856,5792,-7084,-1.00,-1.0
4972,9324,-80,-4760,-1.00,-1.0
4974,23988,-2640,11280,-1.00,-1.0
4976,14180,2936,-844,-1.00,-1.0
4978,24692,-3664,4172,-1.00,-1.0
4980,14300,-2596,1584,-1.00,-1.0
4982,16644,1140,752,-1.00,-1.0
4984,10648,6104,-6436,-1.00,-1.0
4986,20428,-5556,9760,-1.00,-1.0
4990,14368,2160,552,-1.00,-1.0
4992,20036,-5140,8224,-1.00,-1.0
4994,12832,-3044,-3440,-1.00,-1.0
4996,22292,-2180,12248,-1.00,-1.0
4998,12048,4760,-11164,-1.00,-1.0
5000,15596,-3052,3740,-1.00,-1.0
5002,21040,-1596,5784,-1.00,-1.0
5004,14104,4280,-2512,-1.00,-1.0
5006,22064,-1848,-948,-1.00,-1.0
5008,14740,-180,-4080,-1.00,-1.0
5010,21488,-908,9112,-1.00,-1.0
5012,15744,1772,-3164,-1.00,-1.0
5014,10592,1920,-4708,-1.00,-1.0
5016,17612,324,2720,-1.00,-1.0
5018,19748,268,6564,-1.00,-1.0
5020,18708,-3500,992,-1.00,-1.0
5024,23460,-828,10092,-1.00,-1.0
5026,22200,-1816,-396,-1.00,-1.0
5027,9364,1144,-13636,-1.00,-1.0
5029,22688,364,15372,-1.00,-1.0
5031,10832,6192,-8388,-1.00,-1.0
5033,11440,-3256,1600,-1.00,-1.0
5035,19424,-1900,5952,-1.00,-1.0
5037,14408,4012,-1244,-1.00,-1.0
5039,20436,-3292,-2284,-1.00,-1.0
5041,15072,-1616,-4932,-1.00,-1.0
5043,14964,3540,-3456,-1.00,-1.0
5045,16084,2356,-900,-1.00,-1.0
5047,27340,-1432,4896,-1.00,-1.0
5049,10352,-532,-13444,-1.00,-1.0
5051,22224,-224,13584,-1.00,-1.0
5055,9096,-2280,-3724,-1.00,-1.0
5057,19776,840,2772,-1.00,-1.0
5059,16500,684,2200,-1.00,-1.0
5061,25800,-2592,5192,-1.00,-1.0
5063,9328,2612,-12972,-1.00,-1.0
5065,17460,972,5464,-1.00,-1.0
5067,20236,-1880,6964,-1.00,-1.0
5068,10948,-1904,-1100,-1.00,-1.0
5071,13340,5212,-6524,-1.00,-1.0
5073,14780,556,4120,-1.00,-1.0
5074,25792,-5052,10288,-1.00,-1.0
5076,9808,3400,-14592,-1.00,-1.0
5078,16300,2520,3192,-1.00,-1.0
5080,27820,-304,12524,-1.00,-1.0
5082,8096,160,-13968,-1.00,-1.0
5084,19280,-2820,7432,-1.00,-1.0
5088,17468,-4436,4712,-1.00,-1.0
5090,14208,3416,-11520,-1.00,-1.0
5092,15384,232,52,-1.00,-1.0
5094,8956,7492,-14920,-1.00,-1.0
5096,12444,-1388,-6680,-1.00,-1.0
5098,14904,2608,336,-1.00,-1.0
5100,18204,1992,4132,-1.00,-1.0
5102,20692,1188,-7304,-1.00,-1.0
5104,8296,968,-9048,-1.00,-1.0
5106,24644,-4768,19256,-1.00,-1.0
5108,11728,3848,-8896,-1.00,-1.0
5110,13156,-820,-4120,-1.00,-1.0
5112,21464,420,476,-1.00,-1.0
5114,15892,2148,708,-1.00,-1.0
5116,24888,-1668,4004,-1.00,-1.0
5117,7628,4272,-13412,-1.00,-1.0
5122,15588,1708,-4068,-1.00,-1.0
5124,12220,-476,-3904,-1.00,-1.0
5126,21868,-460,1420,-1.00,-1.0
5127,16584,4396,420,-1.00,-1.0
5130,22032,-60,1036,-1.00,-1.0
5132,10452,1564,-9948,-1.00,-1.0
5133,23712,-4880,16712,-1.00,-1.0
5135,12040,4708,-7256,-1.00,-1.0
5137,8636,936,-5532,-1.00,-1.0
5139,22780,-2944,8112,-1.00,-1.0
5141,13524,760,1280,-1.00,-1.0
5143,23324,-2152,6868,-1.00,-1.0
5145,11980,2180,-12700,-1.00,-1.0
5147,17436,436,4364,-1.00,-1.0
5149,12560,6528,-5896,-1.00,-1.0
5151,20460,-3224,1232,-1.00,-1.0
5155,14996,1476,-1896,-1.00,-1.0
5157,27088,-3928,9156,-1.00,-1.0
5159,14324,-2168,5556,-1.00,-1.0
5161,19924,-1900,4812,-1.00,-1.0
5163,13764,5764,-8136,-1.00,-1.0
5165,23624,-3680,5032,-1.00,-1.0
5167,16356,-1344,-992,-1.00,-1.0
5169,16364,532,3652,-1.00,-1.0
5171,11680,2636,-8408,-1.00,-1.0
5173,17844,-3692,9888,-1.00,-1.0
5175,18560,-860,-380,-1.00,-1.0
5177,15324,5056,-2508,-1.00,-1.0
5179,21852,-1276,-1560,-1.00,-1.0
5181,12264,32,-4496,-1.00,-1.0
5182,21604,-2952,11820,-1.00,-1.0
5187,10200,2016,-3352,-1.00,-1.0
5189,20640,-2280,2460,-1.00,-1.0
5191,21580,-508,7524,-1.00,-1.0
5192,19832,-1256,-2044,-1.00,-1.0
5195,12100,-128,-5892,-1.00,-1.0
5196,19452,396,4428,-1.00,-1.0
5198,15112,320,-2644,-1.00,-1.0
5200,19108,-7832,9756,-1.00,-1.0
5202,16788,3512,-2004,-1.00,-1.0
5204,13160,4880,-6944,-1.00,-1.0
5206,27564,-1088,6804,-1.00,-1.0
5208,16272,-5980,-4052,-1.00,-1.0
5210,19596,1180,5608,-1.00,-1.0
5212,11108,3072,-5316,-1.00,-1.0
5214,24916,-848,-2920,-1.00,-1.0
5216,9376,1632,-8116,-1.00,-1.0
5220,27256,-1116,4148,-1.00,-1.0
5222,15076,-1812,3984,-1.00,-1.0
5224,16876,-2256,-3544,-1.00,-1.0
5226,22016,2496,9116,-1.00,-1.0
5228,18324,2540,-10348,-1.00,-1.0
5230,9688,-896,-152,-1.00,-1.0
5232,24488,-3616,12796,-1.00,-1.0
5234,9612,4992,-8360,-1.00,-1.0
5236,20424,-4912,2664,-1.00,-1.0
5238,19508,-3208,1768,-1.00,-1.0
5240,16608,4728,560,-1.00,-1.0
5242,17172,2608,-6672,-1.00,-1.0
5244,14688,-3944,5104,-1.00,-1.0
5246,19644,-440,6656,-1.00,-1.0
5247,11584,3332,-5060,-1.00,-1.0
5249,21832,-3036,4256,-1.00,-1.0
5254,17644,1180,1108,-1.00,-1.0
5256,19740,3956,-1172,-1.00,-1.0
5257,12336,396,-3648,-1.00,-1.0
5259,19776,-3812,8004,-1.00,-1.0
5261,16612,1824,5316,-1.00,-1.0
5263,17464,1800,-4312,-1.00,-1.0
5265,13624,504,-8384,-1.00,-1.0
5267,23124,-5332,11620,-1.00,-1.0
5269,14808,3588,-3652,-1.00,-1.0
5271,11716,-528,-1788,-1.00,-1.0
5273,17476,-1848,3392,-1.00,-1.0
5275,17636,2560,6232,-1.00,-1.0
5277,18420,1396,-7496,-1.00,-1.0
5279,14128,-284,-3888,-1.00,-1.0
5281,14056,776,-9612,-1.00,-1.0
5286,15216,-3696,6712,-1.00,-1.0
5288,19212,-3860,2564,-1.00,-1.0
5290,14300,5400,-1564,-1.00,-1.0
5291,18664,1784,-7428,-1.00,-1.0
5293,18252,-2084,5696,-1.00,-1.0
5295,18508,-1228,2040,-1.00,-1.0
5297,10036,3292,-4008,-1.00,-1.0
5299,21132,-2960,9188,-1.00,-1.0
5301,15720,-2352,-5216,-1.00,-1.0
5303,18500,2500,1732,-1.00,-1.0
5305,18808,2752,-6424,-1.00,-1.0
5307,14936,-1508,4980,-1.00,-1.0
5309,21824,-2792,7024,-1.00,-1.0
5311,8276,2656,-6868,-1.00,-1.0
5313,19264,-1960,5264,-1.00,-1.0
5315,11580,2460,-1792,-1.00,-1.0
5319,17860,-1016,5172,-1.00,-1.0
5321,18372,1908,-2824,-1.00,-1.0
5323,15720,-336,-5260,-1.00,-1.0
5325,21760,640,4568,-1.00,-1.0
5327,13200,244,-6496,-1.00,-1.0
5329,19144,-3440,13188,-1.00,-1.0
5331,15008,2048,-8996,-1.00,-1.0
5333,12784,2760,-332,-1.00,-1.0
5335,26216,-2220,5208,-1.00,-1.0
5337,15012,-508,-3492,-1.00,-1.0
5338,12232,1428,-6184,-1.00,-1.0
5340,18340,108,10424,-1.00,-1.0
5342,17276,548,3056,-1.00,-1.0
5344,10292,2948,-14384,-1.00,-1.0
5346,23008,-2448,12584,-1.00,-1.0
5348,19236,3104,-1508,-1.00,-1.0
5352,19920,584,2828,-1.00,-1.0
5354,14612,-76,4464,-1.00,-1.0
5356,19332,-1396,460,-1.00,-1.0
5358,14048,984,-8036,-1.00,-1.0
5360,21132,-1704,8072,-1.00,-1.0
5362,15832,-136,-4612,-1.00,-1.0
5364,15052,416,4440,-1.00,-1.0
5366,16528,-764,-4908,-1.00,-1.0
5368,19780,36,8748,-1.00,-1.0
5370,19252,-3820,-1492,-1.00,-1.0
5372,16200,-3016,5820,-1.00,-1.0
5374,20296,500,1896,-1.00,-1.0
5376,16412,2800,2000,-1.00,-1.0
5378,19688,-2036,-876,-1.00,-1.0
5380,16652,-76,-696,-1.00,-1.0
5381,17304,3244,-3324,-1.00,-1.0
5386,21640,-5316,13652,-1.00,-1.0
5388,8224,4424,-14604,-1.00,-1.0
5390,18540,1672,5004,-1.00,-1.0
5392,25644,-4004,6052,-1.00,-1.0
5394,11844,1196,-5796,-1.00,-1.0
5396,17812,2392,-1364,-1.00,-1.0
5397,14692,512,2952,-1.00,-1.0
5400,20072,-5716,9956,-1.00,-1.0
5401,14412,-828,-7352,-1.00,-1.0
5403,17772,4592,1652,-1.00,-1.0
5405,19032,-1568,-2124,-1.00,-1.0
5407,17072,-4544,7964,-1.00,-1.0
5409,16808,1244,-2300,-1.00,-1.0
5411,12196,5692,-5284,-1.00,-1.0
5413,23660,-3408,6248,-1.00,-1.0
5417,17964,3948,496,-1.00,-1.0
5419,15532,1648,-5268,-1.00,-1.0
5421,17916,-6124,11704,-1.00,-1.0
5423,16352,-544,-1100,-1.00,-1.0
5425,13296,4812,-3176,-1.00,-1.0
5427,22396,320,-2648,-1.00,-1.0
5429,18044,-2600,3160,-1.00,-1.0
5431,16984,696,-824,-1.00,-1.0
5433,12160,4860,-512,-1.00,-1.0
5435,18980,-3092,10152,-1.00,-1.0
5437,14004,-888,-5144,-1.00,-1.0
5439,20796,-1772,8368,-1.00,-1.0
5441,12908,3352,-3988,-1.00,-1.0
5443,16580,-220,4748,-1.00,-1.0
5445,17988,-1376,-5780,-1.00,-1.0
5447,19424,-584,6176,-1.00,-1.0
5451,15296,-2248,4664,-1.00,-1.0
5453,15536,264,-1996,-1.00,-1.0
5455,14004,2404,2200,-1.00,-1.0
5457,21692,-2340,3760,-1.00,-1.0
5459,12484,2840,-11348,-1.00,-1.0
5461,19852,-136,5804,-1.00,-1.0
5462,17952,2448,608,-1.00,-1.0
5464,13628,-2536,3492,-1.00,-1.0
5466,17080,-104,-676,-1.00,-1.0
5468,14364,2772,240,-1.00,-1.0
5470,19296,-1180,-1368,-1.00,-1.0
5472,16412,-1752,-1180,-1.00,-1.0
5474,20048,-560,5452,-1.00,-1.0
5476,9712,5328,-8292,-1.00,-1.0
5478,18068,-3388,9292,-1.00,-1.0
5482,14848,3224,-1288,-1.00,-1.0
5484,19256,1040,-3708,-1.00,-1.0
5486,17152,-2212,3740,-1.00,-1.0
5488,20128,-4148,5420,-1.00,-1.0
5490,11324,2096,-6016,-1.00,-1.0
5492,16584,-288,3552,-1.00,-1.0
5494,17632,-2052,-2656,-1.00,-1.0
5496,19652,-1028,8176,-1.00,-1.0
5498,15324,3308,-8172,-1.00,-1.0
5500,15128,-952,4900,-1.00,-1.0
5502,19580,-1044,2700,-1.00,-1.0
5504,19672,1648,2080,-1.00,-1.0
5506,19292,-408,-1096,-1.00,-1.0
5508,16284,-2520,10056,-1.00,-1.0
5510,16236,892,-4616,-1.00,-1.0
5512,11992,1912,-1852,-1.00,-1.0
5516,17844,-1884,1348,-1.00,-1.0
5518,17792,464,4176,-1.00,-1.0
5520,15508,840,88,-1.00,-1.0
5522,19536,-2080,12752,-1.00,-1.0
5524,11300,1636,-12356,-1.00,-1.0
5526,18288,1300,5708,-1.00,-1.0
5527,22264,-68,-132,-1.00,-1.0
5529,14892,-2356,1552,-1.00,-1.0
5531,18696,1512,-1356,-1.00,-1.0
5533,12744,1628,-1668,-1.00,-1.0
5535,20376,-2588,8044,-1.00,-1.0
5537,15632,1164,-6472,-1.00,-1.0
5539,17448,512,2168,-1.00,-1.0
5541,17808,460,-3152,-1.00,-1.0
5543,16920,592,7624,-1.00,-1.0
5545,14748,2264,-7328,-1.00,-1.0
5549,20288,-4456,2684,-1.00,-1.0
5551,12760,324,-3164,-1.00,-1.0
5553,20456,1240,2844,-1.00,-1.0
5555,16272,472,-4120,-1.00,-1.0
5557,18836,-3684,9312,-1.00,-1.0
5559,14368,944,-3952,-1.00,-1.0
5561,15652,2868,2984,-1.00,-1.0
5563,19960,128,-3584,-1.00,-1.0
5565,17916,-5812,6248,-1.00,-1.0
5567,19920,-268,1776,-1.00,-1.0
5569,12748,2476,-4604,-1.00,-1.0
5571,19400,-460,-1360,-1.00,-1.0
5573,17636,-1436,484,-1.00,-1.0
5575,16852,1304,-4616,-1.00,-1.0
5577,15992,-744,7364,-1.00,-1.0
5578,19108,-320,2564,-1.00,-1.0
5583,24324,-2424,13756,-1.00,-1.0
5585,16384,-52,-5928,-1.00,-1.0
5586,14536,128,-720,-1.00,-1.0
5588,19152,-956,-1444,-1.00,-1.0
5590,16188,1664,7068,-1.00,-1.0
5592,18328,-828,-4064,-1.00,-1.0
5594,13512,-1088,-1604,-1.00,-1.0
5596,21664,1088,4976,-1.00,-1.0
5598,14180,1936,-5544,-1.00,-1.0
5600,17300,-4704,6300,-1.00,-1.0
5602,16480,512,-892,-1.00,-1.0
5604,12492,2428,-728,-1.00,-1.0
5606,23024,-124,2128,-1.00,-1.0
5608,16492,-2036,-1932,-1.00,-1.0
5610,16756,364,-1096,-1.00,-1.0
5614,19620,-1316,6540,-1.00,-1.0
5616,12196,396,-9112,-1.00,-1.0
5618,18684,-628,7708,-1.00,-1.0
5620,21440,980,-464,-1.00,-1.0
5622,13400,2356,-6860,-1.00,-1.0
5624,19284,-3568,3712,-1.00,-1.0
5626,17240,756,8616,-1.00,-1.0
5628,18536,1736,-2836,-1.00,-1.0
5630,12444,-708,-5876,-1.00,-1.0
5632,13412,3020,-9196,-1.00,-1.0
5634,10856,2744,-4024,-1.00,-1.0
5635,25220,-4812,15928,-1.00,-1.0
5637,13900,1020,-8324,-1.00,-1.0
5639,13720,1832,-5580,-1.00,-1.0
5641,23064,-716,6612,-1.00,-1.0
5643,18516,-5836,8232,-1.00,-1.0
5647,13004,1592,-1188,-1.00,-1.0
5649,23860,-3516,9404,-1.00,-1.0
5651,17060,-268,-5936,-1.00,-1.0
5653,16896,780,-912,-1.00,-1.0
5655,18304,2868,900,-1.00,-1.0
5657,18468,-3808,10036,-1.00,-1.0
5659,13912,-560,-6696,-1.00,-1.0
5661,16836,-160,4984,-1.00,-1.0
5663,19704,-264,-1560,-1.00,-1.0
5665,18352,-632,548,-1.00,-1.0
5667,19540,-116,-2140,-1.00,-1.0
5669,12848,1764,-2132,-1.00,-1.0
5671,23700,-5016,16460,-1.00,-1.0
5673,11680,2216,-12196,-1.00,-1.0
5675,12716,2076,-2032,-1.00,-1.0
5677,23140,-2716,6848,-1.00,-1.0
5681,14452,3268,-8036,-1.00,-1.0
5683,12836,2356,-2752,-1.00,-1.0
5685,22580,-4372,13284,-1.00,-1.0
5687,17420,-60,-3740,-1.00,-1.0
5689,13552,3468,-5040,-1.00,-1.0
5691,16696,616,-824,-1.00,-1.0
5693,17048,2356,-6172,-1.00,-1.0
5694,13776,648,-5188,-1.00,-1.0
5697,24444,-3680,14832,-1.00,-1.0
5698,13956,3984,-9588,-1.00,-1.0
5700,14184,-948,24,-1.00,-1.0
5702,22536,-3360,6932,-1.00,-1.0
5704,13672,2692,36,-1.00,-1.0
5706,16180,1100,-6076,-1.00,-1.0
5708,16624,-1160,2636,-1.00,-1.0
5710,22288,-1292,10544,-1.00,-1.0
5714,15784,392,4180,-1.00,-1.0
5716,20580,-2300,3508,-1.00,-1.0
5718,15400,-380,3804,-1.00,-1.0
5720,16772,152,-4756,-1.00,-1.0
5722,15748,-236,1128,-1.00,-1.0
5724,22580,-1752,5368,-1.00,-1.0
5726,13488,-308,-5116,-1.00,-1.0
5728,18612,-3192,9132,-1.00,-1.0
5730,15236,2056,-2884,-1.00,-1.0
5732,12924,1096,-1160,-1.00,-1.0
5734,22164,-4120,4968,-1.00,-1.0
5736,17884,-1560,2312,-1.00,-1.0
5738,15024,3924,-8872,-1.00,-1.0
5740,16200,1776,3360,-1.00,-1.0
5742,24496,-5816,13160,-1.00,-1.0
5746,14816,668,2416,-1.00,-1.0
5748,23572,-3312,7504,-1.00,-1.0
5750,12684,412,-6312,-1.00,-1.0
5752,17824,1992,-3496,-1.00,-1.0
5754,17564,792,5100,-1.00,-1.0
5756,20412,-3212,7588,-1.00,-1.0
5758,15924,-4364,6104,-1.00,-1.0
5759,23156,-976,8148,-1.00,-1.0
5761,11072,4856,-10312,-1.00,-1.0
5763,19184,-1712,4628,-1.00,-1.0
5765,17776,-2088,56,-1.00,-1.0
5767,17800,32,6700,-1.00,-1.0
5769,17028,2588,-7032,-1.00,-1.0
5771,13172,-2396,-416,-1.00,-1.0
5773,21276,716,4612,-1.00,-1.0
5775,15132,1072,-2928,-1.00,-1.0
5779,15552,440,-2072,-1.00,-1.0
5781,16816,2108,2764,-1.00,-1.0
5783,18860,232,-4212,-1.00,-1.0
5785,19272,-2988,5060,-1.00,-1.0
5787,14936,1924,-8060,-1.00,-1.0
5789,14340,1108,5200,-1.00,-1.0
5791,23304,-1596,8412,-1.00,-1.0
5793,9916,2404,-10048,-1.00,-1.0
5795,19004,-284,4664,-1.00,-1.0
5797,20072,908,-524,-1.00,-1.0
5799,15652,-1148,800,-1.00,-1.0
5801,17152,236,-5784,-1.00,-1.0
5803,15188,532,7212,-1.00,-1.0
5805,22012,-1696,4748,-1.00,-1.0
5807,9364,584,-10304,-1.00,-1.0
5808,20748,40,1120,-1.00,-1.0
5812,20372,-3692,6156,-1.00,-1.0
5814,17872,-260,1612,-1.00,-1.0
5816,13188,2760,-4636,-1.00,-1.0
5818,20012,1988,208,-1.00,-1.0
5820,19660,-6324,7208,-1.00,-1.0
5822,17600,1452,-1776,-1.00,-1.0
5824,10800,3448,-8732,-1.00,-1.0
5826,22308,-6160,14688,-1.00,-1.0
5828,17376,-16,-2200,-1.00,-1.0
5830,10432,4932,-9596,-1.00,-1.0
5832,23172,848,4784,-1.00,-1.0
5834,18544,-6628,6812,-1.00,-1.0
5836,13676,1908,-2404,-1.00,-1.0
5838,14632,1880,-2064,-1.00,-1.0
5840,21896,-1228,7020,-1.00,-1.0
5842,15404,-1968,-6340,-1.00,-1.0
5846,16384,4812,-5460,-1.00,-1.0
5848,13952,-2468,2556,-1.00,-1.0
5850,20520,-2996,6396,-1.00,-1.0
5851,13132,2304,-436,-1.00,-1.0
5854,17888,824,-1780,-1.00,-1.0
5856,16876,-2844,796,-1.00,-1.0
5857,15364,1512,-6404,-1.00,-1.0
5859,14376,-532,2800,-1.00,-1.0
5861,22416,-2264,10224,-1.00,-1.0
5863,10356,4400,-14844,-1.00,-1.0
5865,16200,-464,2372,-1.00,-1.0
5867,22124,-1552,9768,-1.00,-1.0
5869,15576,-1208,1376,-1.00,-1.0
5871,12924,2808,-11276,-1.00,-1.0
5873,17020,-812,5100,-1.00,-1.0
5877,10888,2224,-12304,-1.00,-1.0
5879,17436,680,3292,-1.00,-1.0
5881,19768,524,4028,-1.00,-1.0
5883,16880,-3432,3860,-1.00,-1.0
5885,17320,1756,-5032,-1.00,-1.0
5887,15756,880,660,-1.00,-1.0
5889,20968,-1072,4412,-1.00,-1.0
5891,12096,308,-7768,-1.00,-1.0
5893,19604,-388,5732,-1.00,-1.0
5895,16088,2332,-2696,-1.00,-1.0
5897,15300,676,3124,-1.00,-1.0
5899,17896,1896,-4200,-1.00,-1.0
5901,17964,-472,4896,-1.00,-1.0
5903,17428,-460,-3336,-1.00,-1.0
5905,12412,616,-2588,-1.00,-1.0
5906,21408,324,6216,-1.00,-1.0
5911,18524,-1344,2388,-1.00,-1.0
5913,14852,1876,-4868,-1.00,-1.0
5915,16400,1624,6672,-1.00,-1.0
5917,20328,1360,160,-1.00,-1.0
5919,8816,308,-10100,-1.00,-1.0
5921,22308,-600,9712,-1.00,-1.0
5922,17676,1868,-1616,-1.00,-1.0
5924,20572,-2780,4376,-1.00,-1.0
5926,15396,-2552,-1252,-1.00,-1.0
5928,18520,-684,2404,-1.00,-1.0
5930,17108,1144,-736,-1.00,-1.0
5932,18020,-2680,6052,-1.00,-1.0
5934,15896,1088,-4816,-1.00,-1.0
5936,17988,840,3216,-1.00,-1.0
5938,21452,-2800,1892,-1.00,-1.0
5940,11920,-1544,-4660,-1.00,-1.0
5944,14680,3216,-2832,-1.00,-1.0
5946,19900,-5004,7376,-1.00,-1.0
5948,17392,980,-3596,-1.00,-1.0
5950,15204,2044,140,-1.00,-1.0
5952,20872,-1700,4288,-1.00,-1.0
5954,13456,-772,-3392,-1.00,-1.0
5956,17016,1500,2220,-1.00,-1.0
5958,17584,228,-700,-1.00,-1.0
5960,18864,-3564,7976,-1.00,-1.0
5962,12968,1264,-9780,-1.00,-1.0
5964,17504,1792,7944,-1.00,-1.0
5966,21660,-336,-560,-1.00,-1.0
5968,11656,504,-5900,-1.00,-1.0
5970,22852,-1328,7752,-1.00,-1.0
5971,15312,4188,-3392,-1.00,-1.0
5973,21096,-420,6092,-1.00,-1.0
5978,18108,-484,8928,-1.00,-1.0
5980,16688,4392,-6700,-1.00,-1.0
5981,12052,-2260,-3404,-1.00,-1.0
5983,13040,2184,-9944,-1.00,-1.0
5985,13364,2156,-7252,-1.00,-1.0
5987,15916,-744,1020,-1.00,-1.0
5989,14560,-1052,-356,-1.00,-1.0
5991,17264,672,-2184,-1.00,-1.0
5993,15812,3508,-64,-1.00,-1.0
5995,20680,-6340,8216,-1.00,-1.0
5997,16132,1940,-4216,-1.00,-1.0
5999,10368,3428,-5940,-1.00,-1.0
6001,24736,-3052,13640,-1.00,-1.0
6003,13840,3512,-8300,-1.00,-1.0
6005,12168,2944,-5584,-1.00,-1.0
6009,17488,-4700,3764,-1.00,-1.0
6011,11736,3336,-9928,-1.00,-1.0
6013,15108,-456,2732,-1.00,-1.0
6015,25308,-2440,11796,-1.00,-1.0
6017,9448,1968,-15300,-1.00,-1.0
6019,20856,-3328,11200,-1.00,-1.0
6021,19264,3700,-3560,-1.00,-1.0
6023,11160,-1436,-2240,-1.00,-1.0
6025,24000,-3288,5924,-1.00,-1.0
6027,15380,1996,6552,-1.00,-1.0
6029,16120,1748,-5744,-1.00,-1.0
6031,12300,-808,-3668,-1.00,-1.0
6033,26812,-5172,18232,-1.00,-1.0
6035,15268,2424,-11836,-1.00,-1.0
6036,12140,1624,-4288,-1.00,-1.0
6038,25732,-6280,11632,-1.00,-1.0
6043,15476,1448,-7340,-1.00,-1.0
6045,13960,52,-1716,-1.00,-1.0
6046,21320,-1684,10352,-1.00,-1.0
6048,15612,2380,-4496,-1.00,-1.0
6050,12676,-1748,-3724,-1.00,-1.0
6052,22988,-2332,8384,-1.00,-1.0
6054,15008,688,1880,-1.00,-1.0
6056,19796,2768,-404,-1.00,-1.0
6058,13868,-4832,1736,-1.00,-1.0
6060,22040,300,3560,-1.00,-1.0
6062,13064,3916,-8172,-1.00,-1.0
6064,19572,-1732,5536,-1.00,-1.0
6066,18100,-644,1444,-1.00,-1.0
6068,12952,3220,-1440,-1.00,-1.0
6070,17116,-196,-828,-1.00,-1.0
6072,18660,-1772,7940,-1.00,-1.0
6076,16592,740,-1656,-1.00,-1.0
6078,19896,-4096,4788,-1.00,-1.0
6080,15280,680,2596,-1.00,-1.0
6082,15092,3460,-4376,-1.00,-1.0
6084,16020,120,-1740,-1.00,-1.0
6086,19028,-7052,7724,-1.00,-1.0
6088,19948,1188,2852,-1.00,-1.0
6090,10072,6444,-12824,-1.00,-1.0
6092,20848,-6048,9092,-1.00,-1.0
6094,18600,-1652,3100,-1.00,-1.0
6096,11948,3920,-4568,-1.00,-1.0
6098,18620,-1304,2828,-1.00,-1.0
6100,15968,-1900,880,-1.00,-1.0
6101,17076,1328,-984,-1.00,-1.0
6103,18900,752,-3720,-1.00,-1.0
6107,15188,1860,-3380,-1.00,-1.0
6109,13580,4260,-2592,-1.00,-1.0
6111,23288,-4204,6196,-1.00,-1.0
6113,14660,-3656,512,-1.00,-1.0
6115,16768,1052,2584,-1.00,-1.0
6117,13096,4248,-2740,-1.00,-1.0
6119,18484,-1308,1160,-1.00,-1.0
6121,16616,-3916,1424,-1.00,-1.0
6123,18120,1524,5264,-1.00,-1.0
6125,13456,1464,-7588,-1.00,-1.0
6127,17088,-3840,3672,-1.00,-1.0
6129,19920,300,5000,-1.00,-1.0
6131,16524,3500,-1184,-1.00,-1.0
6133,17188,420,-2984,-1.00,-1.0
6135,13592,-3652,116,-1.00,-1.0
6137,22380,-176,12608,-1.00,-1.0
6141,14960,-2728,-1080,-1.00,-1.0
6143,25828,-2836,12680,-1.00,-1.0
6145,10548,6032,-7212,-1.00,-1.0
6147,18104,4556,-2368,-1.00,-1.0
6149,14200,-1104,-1456,-1.00,-1.0
6151,20184,-1048,12184,-1.00,-1.0
6153,14948,5460,-9488,-1.00,-1.0
6154,12456,-1816,-484,-1.00,-1.0
6156,21804,1728,6168,-1.00,-1.0
6158,13992,3056,-3716,-1.00,-1.0
6160,16460,1392,-2872,-1.00,-1.0
6162,16524,-1288,3932,-1.00,-1.0
6164,15832,2364,2276,-1.00,-1.0
6166,16180,2396,-4632,-1.00,-1.0
6168,20388,-5288,4636,-1.00,-1.0
6172,13476,4452,-7860,-1.00,-1.0
6174,17124,-2280,2992,-1.00,-1.0
6176,19972,-1956,7072,-1.00,-1.0
6178,16672,1272,900,-1.00,-1.0
6180,17320,120,-944,-1.00,-1.0
6182,17000,-3692,3260,-1.00,-1.0
6184,12684,2264,-5728,-1.00,-1.0
6186,17316,1332,6600,-1.00,-1.0
6188,19228,472,1660,-1.00,-1.0
6190,11888,0,-8484,-1.00,-1.0
6192,22100,-2420,9748,-1.00,-1.0
6194,17228,3416,-3300,-1.00,-1.0
6196,16112,-3304,1100,-1.00,-1.0
6198,19408,-972,20,-1.00,-1.0
6200,14788,2060,4044,-1.00,-1.0
6202,17520,0,-492,-1.00,-1.0
6206,20376,-2120,8844,-1.00,-1.0
6208,17716,-96,-2944,-1.00,-1.0
6210,17408,-1552,-196,-1.00,-1.0
6212,18572,-2416,-1228,-1.00,-1.0
6214,18716,-904,8836,-1.00,-1.0
6216,17984,-524,192,-1.00,-1.0
6217,8648,2432,-10024,-1.00,-1.0
6219,19604,-2160,7752,-1.00,-1.0
6221,21244,-2372,5636,-1.00,-1.0
6223,12432,-372,-8536,-1.00,-1.0
6225,19832,-92,5012,-1.00,-1.0
6227,17196,2024,-1104,-1.00,-1.0
6229,18492,-4184,6876,-1.00,-1.0
6231,16724,1432,-3556,-1.00,-1.0
6233,19276,256,3792,-1.00,-1.0
6235,20300,-768,3232,-1.00,-1.0
6239,17108,1712,-1696,-1.00,-1.0
6241,16452,2080,-1796,-1.00,-1.0
6243,15680,-188,-184,-1.00,-1.0
6245,13300,676,-4404,-1.00,-1.0
6247,20456,-1716,8740,-1.00,-1.0
6249,17236,-2088,-816,-1.00,-1.0
6251,15656,-2476,-1528,-1.00,-1.0
6253,17488,860,2096,-1.00,-1.0
6255,17860,308,2720,-1.00,-1.0
6257,19292,-1356,3240,-1.00,-1.0
6259,10388,556,-7816,-1.00,-1.0
6261,17876,692,8604,-1.00,-1.0
6263,20500,460,1476,-1.00,-1.0
6265,14404,-2844,-3292,-1.00,-1.0
6266,20728,200,3564,-1.00,-1.0
6268,17680,-60,232,-1.00,-1.0
6273,15052,-372,-2524,-1.00,-1.0
6275,14832,1660,3448,-1.00,-1.0
6276,17616,1448,-1256,-1.00,-1.0
6278,14724,-704,-1980,-1.00,-1.0
6280,20084,1256,2932,-1.00,-1.0
6282,18904,152,2240,-1.00,-1.0
6284,16352,-2492,-520,-1.00,-1.0
6286,16168,620,-440,-1.00,-1.0
6288,14692,1444,712,-1.00,-1.0
6290,20656,-2616,6804,-1.00,-1.0
6292,15964,-3216,2356,-1.00,-1.0
6294,20088,876,1660,-1.00,-1.0
6296,17812,-236,1860,-1.00,-1.0
6298,14180,432,-2960,-1.00,-1.0
6300,14676,184,1216,-1.00,-1.0
6302,20868,1464,3864,-1.00,-1.0
6306,21080,-5976,12840,-1.00,-1.0
6308,17604,2552,-4952,-1.00,-1.0
6310,11428,4604,-2832,-1.00,-1.0
6312,23848,-5496,6952,-1.00,-1.0
6314,17492,1760,3660,-1.00,-1.0
6316,10604,4888,-12200,-1.00,-1.0
6318,19044,-116,5964,-1.00,-1.0
6320,17452,-4868,4596,-1.00,-1.0
6322,15324,836,-1556,-1.00,-1.0
6324,16220,2780,-2148,-1.00,-1.0
6325,19188,-5328,6512,-1.00,-1.0
6327,19220,1304,2456,-1.00,-1.0
6329,15700,3396,-3796,-1.00,-1.0
6331,16000,2856,-5920,-1.00,-1.0
6333,16752,-2044,3416,-1.00,-1.0
6335,19008,-1540,5752,-1.00,-1.0
6340,12020,-2336,-4328,-1.00,-1.0
6342,23992,-2908,8836,-1.00,-1.0
6344,17296,84,132,-1.00,-1.0
6346,15164,512,-2404,-1.00,-1.0
6348,17516,608,2916,-1.00,-1.0
6350,11884,2460,-3004,-1.00,-1.0
6352,20652,-172,4132,-1.00,-1.0
6354,17096,-3044,1040,-1.00,-1.0
6356,19224,664,3052,-1.00,-1.0
6358,15780,1448,-4028,-1.00,-1.0
6360,19612,-3388,4780,-1.00,-1.0
6361,18212,-1504,-1116,-1.00,-1.0
6363,13564,3816,784,-1.00,-1.0
6365,18144,608,2220,-1.00,-1.0
6367,14304,1532,-2580,-1.00,-1.0
6369,14472,236,-1236,-1.00,-1.0
6373,15464,-780,-776,-1.00,-1.0
6375,15252,1932,-3832,-1.00,-1.0
6377,18756,-968,4248,-1.00,-1.0
6379,18072,-1772,1164,-1.00,-1.0
6381,16156,1172,-536,-1.00,-1.0
6383,16408,676,-404,-1.00,-1.0
6385,18464,392,4112,-1.00,-1.0
6387,20004,-1652,300,-1.00,-1.0
6389,11776,3632,-5372,-1.00,-1.0
6391,16324,1140,1892,-1.00,-1.0
6393,21864,-2540,9580,-1.00,-1.0
6395,10624,4368,-12064,-1.00,-1.0
6397,16476,-800,1776,-1.00,-1.0
6399,22748,-1280,8196,-1.00,-1.0
6401,14544,-3160,-2048,-1.00,-1.0
6405,18044,1536,1696,-1.00,-1.0
6407,16568,-228,1736,-1.00,-1.0
6409,17556,372,-968,-1.00,-1.0
6411,16692,1136,-836,-1.00,-1.0
6413,17360,-1076,2964,-1.00,-1.0
6415,14904,-1320,-2004,-1.00,-1.0
6417,19456,-648,5816,-1.00,-1.0
6418,15864,76,-3000,-1.00,-1.0
6420,17664,-2144,5012,-1.00,-1.0
6422,14672,796,-820,-1.00,-1.0
6424,18504,432,4324,-1.00,-1.0
6426,17568,588,-2404,-1.00,-1.0
6428,14964,-900,-2356,-1.00,-1.0
6430,19344,-556,3700,-1.00,-1.0
6432,19068,212,3344,-1.00,-1.0
6434,15616,-2432,-1516,-1.00,-1.0
6438,18504,908,2940,-1.00,-1.0
6440,17656,-892,816,-1.00,-1.0
6442,15660,2312,-4232,-1.00,-1.0
6444,16540,-2244,-48,-1.00,-1.0
6446,20148,-132,4088,-1.00,-1.0
6448,15072,-2676,-2584,-1.00,-1.0
6450,17192,3052,1040,-1.00,-1.0
6452,18244,2124,1684,-1.00,-1.0
6454,15428,-1652,-4336,-1.00,-1.0
6456,16752,-1668,60,-1.00,-1.0
6458,20632,-3112,7248,-1.00,-1.0
6460,15964,3284,-2272,-1.00,-1.0
6462,15940,-2752,-2828,-1.00,-1.0
6464,18888,-1348,6428,-1.00,-1.0
6466,19452,1216,2392,-1.00,-1.0
6467,14348,1608,-4868,-1.00,-1.0
6472,22408,-132,3116,-1.00,-1.0
6474,15984,-1004,-4284,-1.00,-1.0
6476,15644,-4348,3784,-1.00,-1.0
6478,18868,616,6492,-1.00,-1.0
6480,10596,5572,-7228,-1.00,-1.0
6482,19884,-2112,3880,-1.00,-1.0
6483,18636,276,2196,-1.00,-1.0
6485,16860,4740,-816,-1.00,-1.0
6487,14632,2764,-6980,-1.00,-1.0
6489,16956,-2840,4244,-1.00,-1.0
6491,17568,-716,620,-1.00,-1.0
6493,15664,1468,2440,-1.00,-1.0
6495,16660,-1852,-1720,-1.00,-1.0
6497,14556,216,3348,-1.00,-1.0
6499,18772,840,4132,-1.00,-1.0
6501,17976,400,-1156,-1.00,-1.0
6505,18288,-3488,784,-1.00,-1.0
6507,23632,-3192,10544,-1.00,-1.0
6509,10404,-1788,-9844,-1.00,-1.0
6511,13876,1944,468,-1.00,-1.0
6513,18444,-1548,3664,-1.00,-1.0
6515,16660,-3632,6440,-1.00,-1.0
6517,15920,1540,-3308,-1.00,-1.0
6519,19000,-4232,7616,-1.00,-1.0
6521,21216,-524,5892,-1.00,-1.0
6523,9456,-92,-8364,-1.00,-1.0
6525,17060,-4,4500,-1.00,-1.0
6527,16484,2256,-148,-1.00,-1.0
6529,21336,444,3400,-1.00,-1.0
6531,13220,2192,-10048,-1.00,-1.0
6532,19660,284,6676,-1.00,-1.0
6534,17380,516,-4320,-1.00,-1.0
6539,21848,-3940,8264,-1.00,-1.0
6541,15492,3236,4384,-1.00,-1.0
6542,14516,1792,-4772,-1.00,-1.0
6544,18148,712,-1732,-1.00,-1.0
6546,21248,944,3128,-1.00,-1.0
6548,19648,384,-516,-1.00,-1.0
6550,10020,4680,-10768,-1.00,-1.0
6552,18032,-2644,10668,-1.00,-1.0
6554,18592,-96,4988,-1.00,-1.0
6556,12292,-920,-6620,-1.00,-1.0
6558,16896,-484,2132,-1.00,-1.0
6560,22036,1816,8620,-1.00,-1.0
6562,17384,1164,-6904,-1.00,-1.0
6564,13844,4928,-8564,-1.00,-1.0
6566,20640,-4200,9476,-1.00,-1.0
6568,9004,7004,-16196,-1.00,-1.0
6572,15256,-348,4568,-1.00,-1.0
6574,23772,-4072,13104,-1.00,-1.0
6576,15180,-1116,-6264,-1.00,-1.0
6578,17600,3092,-4996,-1.00,-1.0
6580,19224,-1624,1308,-1.00,-1.0
6582,13896,5532,-9104,-1.00,-1.0
6584,15528,-976,-976,-1.00,-1.0
6586,23984,-1108,9580,-1.00,-1.0
6588,17424,3652,-4936,-1.00,-1.0
6590,12080,6228,-9588,-1.00,-1.0
6592,17748,-2264,4360,-1.00,-1.0
6594,19812,1536,8808,-1.00,-1.0
6596,13896,1208,-6664,-1.00,-1.0
6597,16040,-2288,684,-1.00,-1.0
6599,23752,-1268,8852,-1.00,-1.0
6603,20884,-216,420,-1.00,-1.0
6605,19188,-4460,6640,-1.00,-1.0
6607,13704,3284,-2944,-1.00,-1.0
6609,14516,-136,3344,-1.00,-1.0
6611,17280,-4316,2536,-1.00,-1.0
6613,22056,-720,5984,-1.00,-1.0
6615,14624,3496,-10268,-1.00,-1.0
6617,20432,780,3632,-1.00,-1.0
6619,18832,-4164,7268,-1.00,-1.0
6621,12352,3196,-7896,-1.00,-1.0
6623,16452,-2780,3624,-1.00,-1.0
6625,17152,-3048,608,-1.00,-1.0
6627,19892,-812,3672,-1.00,-1.0
6629,17240,4500,-5548,-1.00,-1.0
6631,17640,-1300,3560,-1.00,-1.0
6633,14548,-1900,-1024,-1.00,-1.0
6637,13720,-1632,2824,-1.00,-1.0
6639,18148,1624,176,-1.00,-1.0
6641,15592,-1596,1592,-1.00,-1.0
6643,16592,708,1500,-1.00,-1.0
6645,12464,1356,-2976,-1.00,-1.0
6647,15436,-5700,3492,-1.00,-1.0
6649,22136,-816,10532,-1.00,-1.0
6650,14752,3604,-7604,-1.00,-1.0
6653,17068,984,-2192,-1.00,-1.0
6655,21200,-3284,6792,-1.00,-1.0
6656,15408,4160,-3552,-1.00,-1.0
6658,14348,1280,-1276,-1.00,-1.0
6660,14312,-2340,-1240,-1.00,-1.0
6662,20248,-3524,10508,-1.00,-1.0
6664,17276,2688,-2376,-1.00,-1.0
6668,17892,-360,-1536,-1.00,-1.0
6670,18556,2000,268,-1.00,-1.0
6672,16656,240,2516,-1.00,-1.0
6674,12152,2988,-7212,-1.00,-1.0
6676,16732,-1736,7412,-1.00,-1.0
6678,22264,-1692,8864,-1.00,-1.0
6680,15512,-900,-4884,-1.00,-1.0
6682,15348,2212,-5796,-1.00,-1.0
6684,21144,544,1924,-1.00,-1.0
6686,17428,-232,2680,-1.00,-1.0
6688,12080,1844,-7584,-1.00,-1.0
6690,16400,-1748,7724,-1.00,-1.0
6692,17668,564,4708,-1.00,-1.0
6694,15780,-3016,-620,-1.00,-1.0
6696,15492,-2368,4228,-1.00,-1.0
6698,15364,1096,1344,-1.00,-1.0
6702,19620,1556,2004,-1.00,-1.0
6704,10864,3448,-11816,-1.00,-1.0
6706,19040,3940,-84,-1.00,-1.0
6708,12404,4972,-9884,-1.00,-1.0
6710,19100,-1256,404,-1.00,-1.0
6712,22936,-4172,11348,-1.00,-1.0
6714,13560,1904,-5540,-1.00,-1.0
6715,12612,444,-4640,-1.00,-1.0
6717,19364,-1032,9780,-1.00,-1.0
6719,15984,324,-980,-1.00,-1.0
6721,18216,-1528,2092,-1.00,-1.0
6723,15852,2496,-4144,-1.00,-1.0
6725,15044,1376,2116,-1.00,-1.0
6727,20992,-2068,1468,-1.00,-1.0
6729,17000,-1912,-1124,-1.00,-1.0
6731,16080,1712,-1740,-1.00,-1.0
6735,16668,-5088,1416,-1.00,-1.0
6737,15544,828,2760,-1.00,-1.0
6739,15024,4212,-4032,-1.00,-1.0
6741,17568,1124,764,-1.00,-1.0
6743,19468,-3104,1908,-1.00,-1.0
6745,18320,1168,1748,-1.00,-1.0
6747,15740,576,-4188,-1.00,-1.0
6749,15344,-4640,2964,-1.00,-1.0
6751,19144,-2472,7716,-1.00,-1.0
6753,13412,2960,-5344,-1.00,-1.0
6755,16116,1668,260,-1.00,-1.0
6757,14704,-532,-2196,-1.00,-1.0
6759,20412,1684,3148,-1.00,-1.0
6761,16032,644,-8400,-1.00,-1.0
6763,18428,-1704,5108,-1.00,-1.0
6764,11704,6204,-9644,-1.00,-1.0
6769,16288,-296,916,-1.00,-1.0
6771,20980,-776,7344,-1.00,-1.0
6773,12700,972,-2884,-1.00,-1.0
6774,21144,-648,8680,-1.00,-1.0
6777,15452,-2296,1608,-1.00,-1.0
6779,16776,1608,-112,-1.00,-1.0
6780,13884,3540,-4120,-1.00,-1.0
6782,21456,-1220,10484,-1.00,-1.0
6784,16036,1952,-8880,-1.00,-1.0
6786,16180,476,924,-1.00,-1.0
6788,23504,-336,2568,-1.00,-1.0
6790,14516,-936,-4896,-1.00,-1.0
6792,17484,-632,4268,-1.00,-1.0
6794,13760,2248,-1788,-1.00,-1.0
6796,17040,-2788,13464,-1.00,-1.0
6798,15208,1180,-5448,-1.00,-1.0
6802,27456,-5400,10048,-1.00,-1.0
6804,15280,-476,-2308,-1.00,-1.0
6806,15324,20,1956,-1.00,-1.0
6808,14692,2308,-6132,-1.00,-1.0
6810,16076,-3828,7152,-1.00,-1.0
6812,20460,1016,5396,-1.00,-1.0
6814,11132,1880,-8036,-1.00,-1.0
6816,21084,-1128,9992,-1.00,-1.0
6818,15172,2040,-8940,-1.00,-1.0
6820,15756,-200,1896,-1.00,-1.0
6822,12896,4396,-420,-1.00,-1.0
6824,12856,2996,-3732,-1.00,-1.0
6826,16564,-148,1104,-1.00,-1.0
6828,15028,-28,-6480,-1.00,-1.0
6829,19480,4536,720,-1.00,-1.0
6834,14876,2480,-2952,-1.00,-1.0
6836,20844,-1448,4476,-1.00,-1.0
6838,12268,144,1504,-1.00,-1.0
6839,17160,1188,-380,-1.00,-1.0
6842,14692,108,1820,-1.00,-1.0
6843,22636,-1860,7824,-1.00,-1.0
6845,14160,2376,-11444,-1.00,-1.0
6847,15748,1524,1608,-1.00,-1.0
6849,21876,-3580,5336,-1.00,-1.0
6851,13588,144,-2308,-1.00,-1.0
6853,14620,2776,-652,-1.00,-1.0
6855,16992,-1424,4736,-1.00,-1.0
6857,20484,-1764,4968,-1.00,-1.0
6859,14672,620,-3400,-1.00,-1.0
6861,20196,1248,3288,-1.00,-1.0
6863,16680,-1036,-820,-1.00,-1.0
6867,19624,1288,840,-1.00,-1.0
6869,15540,-1492,-4916,-1.00,-1.0
6871,16172,-1472,2252,-1.00,-1.0
6873,15612,-800,4496,-1.00,-1.0
6875,12496,2328,-1032,-1.00,-1.0
6877,17796,-2752,3656,-1.00,-1.0
6879,17908,-100,1164,-1.00,-1.0
6881,14780,1600,1768,-1.00,-1.0
6883,16436,2640,-7324,-1.00,-1.0
6885,15844,-2052,7972,-1.00,-1.0
6886,19492,-856,1336,-1.00,-1.0
6888,16840,1516,-3416,-1.00,-1.0
6890,22096,844,1456,-1.00,-1.0
6892,18012,2340,-3132,-1.00,-1.0
6894,15720,3216,-4368,-1.00,-1.0
6896,11800,656,-2264,-1.00,-1.0
6902,14636,-668,1388,-1.00,-1.0
6904,22792,-3564,3392,-1.00,-1.0
6906,20296,-1408,-328,-1.00,-1.0
6908,21124,1764,-3408,-1.00,-1.0
6910,18468,1868,-1820,-1.00,-1.0
6912,14668,3228,-4668,-1.00,-1.0
6913,21964,-864,1244,-1.00,-1.0
6915,19756,-8,-784,-1.00,-1.0
6917,21456,1352,-836,-1.00,-1.0
6919,17896,780,16,-1.00,-1.0
6921,16104,2544,-2036,-1.00,-1.0
6923,12124,2120,-3016,-1.00,-1.0
6925,13516,-1000,384,-1.00,-1.0
6927,17360,-2784,6084,-1.00,-1.0
6929,15328,-2660,-1516,-1.00,-1.0
6931,18148,-2208,4832,-1.00,-1.0
6935,16996,1008,-1476,-1.00,-1.0
6937,20372,-1076,1752,-1.00,-1.0
6939,16300,3496,-3488,-1.00,-1.0
6941,15212,1092,-2148,-1.00,-1.0
6943,15468,204,1160,-1.00,-1.0
6945,17840,-3488,4836,-1.00,-1.0
6947,14980,1364,-1664,-1.00,-1.0
6949,16992,-1964,2156,-1.00,-1.0
6951,18272,-3208,3796,-1.00,-1.0
6953,19480,-1688,1200,-1.00,-1.0
6955,15092,2628,-2360,-1.00,-1.0
6957,18012,452,1708,-1.00,-1.0
6959,16384,292,-836,-1.00,-1.0
6961,17220,556,2224,-1.00,-1.0
6963,16304,108,-3304,-1.00,-1.0
6964,16848,520,516,-1.00,-1.0
6969,15328,1680,-1380,-1.00,-1.0
6971,17672,-1872,1648,-1.00,-1.0
6973,19036,372,3620,-1.00,-1.0
6974,17828,-732,3316,-1.00,-1.0
6977,16912,3904,-2120,-1.00,-1.0
6979,15640,-1796,-3132,-1.00,-1.0
6980,12208,3424,-13120,-1.00,-1.0
6982,18660,-1272,9320,-1.00,-1.0
6984,21512,-2928,3592,-1.00,-1.0
6986,15208,3564,-3920,-1.00,-1.0
6988,14472,1364,-7688,-1.00,-1.0
6990,22104,-1060,9720,-1.00,-1.0
6992,16140,-2032,-2640,-1.00,-1.0
6994,13936,3240,-872,-1.00,-1.0
6996,17588,100,8,-1.00,-1.0
7000,19036,-2748,1988,-1.00,-1.0
7002,16724,1880,2364,-1.00,-1.0
7004,15412,1564,-5548,-1.00,-1.0
7006,18592,-2368,4976,-1.00,-1.0
7008,21740,-1776,6032,-1.00,-1.0
7010,12108,2488,-7704,-1.00,-1.0
7012,16912,36,-8,-1.00,-1.0
7014,18652,-1332,3608,-1.00,-1.0
7016,17672,-264,1648,-1.00,-1.0
7018,15368,680,-2876,-1.00,-1.0
7020,18148,-1148,3316,-1.00,-1.0
7022,18184,-1076,-208,-1.00,-1.0
7024,17804,-868,5132,-1.00,-1.0
7026,17176,1236,-5112,-1.00,-1.0
7028,15356,-868,3384,-1.00,-1.0
7029,19228,-336,2072,-1.00,-1.0
7034,20356,-2808,4856,-1.00,-1.0
7036,19368,292,2576,-1.00,-1.0
7038,13936,1108,-6300,-1.00,-1.0
7039,17864,-500,3508,-1.00,-1.0
7042,20148,-1972,4584,-1.00,-1.0
7044,11816,1992,-2112,-1.00,-1.0
7045,20512,-3608,7892,-1.00,-1.0
7047,18464,612,-3688,-1.00,-1.0
7049,16152,-380,512,-1.00,-1.0
7051,17348,-876,1448,-1.00,-1.0
7053,18192,2024,4952,-1.00,-1.0
7055,9940,2508,-9012,-1.00,-1.0
7057,22088,-1124,14200,-1.00,-1.0
7059,15076,-792,-8392,-1.00,-1.0
7061,17392,2548,2240,-1.00,-1.0
7063,20748,-300,-1776,-1.00,-1.0
7067,20328,-1676,2688,-1.00,-1.0
7069,14380,3936,-920,-1.00,-1.0
7071,14176,20,-4284,-1.00,-1.0
7073,18056,-452,5844,-1.00,-1.0
7075,18472,1004,-1624,-1.00,-1.0
7077,16020,2296,-248,-1.00,-1.0
7079,15680,-948,-1880,-1.00,-1.0
7081,17436,928,5892,-1.00,-1.0
7083,16116,596,-3040,-1.00,-1.0
7085,17248,-324,2900,-1.00,-1.0
7087,18200,-456,-516,-1.00,-1.0
7089,14396,5192,-2800,-1.00,-1.0
7091,18844,-2528,980,-1.00,-1.0
7093,16612,-4288,2264,-1.00,-1.0
7094,18308,1048,3004,-1.00,-1.0
7096,20408,-2768,5448,-1.00,-1.0
7101,20632,-1092,1144,-1.00,-1.0
7103,14920,540,-3944,-1.00,-1.0
7104,16212,148,-316,-1.00,-1.0
7106,16692,-32,2664,-1.00,-1.0
7108,17604,756,1108,-1.00,-1.0
7110,16488,680,4216,-1.00,-1.0
7112,15796,-900,-2080,-1.00,-1.0
7114,18748,820,5940,-1.00,-1.0
7116,15268,1064,-5976,-1.00,-1.0
7118,18928,-2052,5560,-1.00,-1.0
7120,18316,-592,928,-1.00,-1.0
7122,14720,1444,-2108,-1.00,-1.0
7124,16764,-792,-252,-1.00,-1.0
7126,19312,-2084,5256,-1.00,-1.0
7128,15512,-12,-2628,-1.00,-1.0
7130,15784,492,-1280,-1.00,-1.0
7134,17960,-1348,2932,-1.00,-1.0
7136,16316,1984,-1668,-1.00,-1.0
7138,14452,2204,-3408,-1.00,-1.0
7140,17988,-776,3608,-1.00,-1.0
7142,19028,84,2624,-1.00,-1.0
7144,13996,2968,-4520,-1.00,-1.0
7146,16732,-52,484,-1.00,-1.0
7147,19456,-644,4596,-1.00,-1.0
7149,15432,1628,-3052,-1.00,-1.0
7151,15260,744,-2972,-1.00,-1.0
7153,16000,788,-1020,-1.00,-1.0
7155,15592,-296,-1912,-1.00,-1.0
7157,19404,-1564,5068,-1.00,-1.0
7159,16632,124,-1360,-1.00,-1.0
7161,16268,32,792,-1.00,-1.0
7163,17644,-588,1364,-1.00,-1.0
7167,16984,64,-936,-1.00,-1.0
7169,17340,-64,1916,-1.00,-1.0
7171,17028,352,416,-1.00,-1.0
7173,16780,332,592,-1.00,-1.0
7175,16968,-404,592,-1.00,-1.0
7177,16948,204,392,-1.00,-1.0
7179,16676,108,452,-1.00,-1.0
7181,17300,-320,876,-1.00,-1.0
7183,16924,-140,-64,-1.00,-1.0
7185,16836,-56,724,-1.00,-1.0
7187,17092,104,300,-1.00,-1.0
7188,16924,-44,872,-1.00,-1.0
7191,16920,124,216,-1.00,-1.0
7193,16848,24,472,-1.00,-1.0
7194,16996,20,668,-1.00,-1.0
7196,16992,216,1032,-1.00,-1.0
7198,17104,-192,740,-1.00,-1.0
7202,16992,-116,496,-1.00,-1.0
7204,16952,-132,720,-1.00,-1.0
7206,16828,-152,608,-1.00,-1.0
7208,17024,76,284,-1.00,-1.0
7210,16964,-204,372,-1.00,-1.0
7212,17056,-44,800,-1.00,-1.0
7214,16996,-140,240,-1.00,-1.0
7216,16988,-12,668,-1.00,-1.0
7218,17020,20,488,-1.00,-1.0
7220,16880,156,520,-1.00,-1.0
7222,16956,-16,572,-1.00,-1.0
7224,17016,16,508,-1.00,-1.0
7226,16976,-76,852,-1.00,-1.0
7228,16996,108,504,-1.00,-1.0
7230,16956,-108,616,-1.00,-1.0
7232,17108,-188,832,-1.00,-1.0
7233,16928,-132,456,-1.00,-1.0
7238,16948,-244,552,-1.00,-1.0
7240,17040,-136,648,-1.00,-1.0
7242,16936,44,548,-1.00,-1.0
7243,16984,16,428,-1.00,-1.0
7246,16956,-172,720,-1.00,-1.0
7247,16996,-84,552,-1.00,-1.0
7249,16920,96,664,-1.00,-1.0
7251,17020,-40,784,-1.00,-1.0
7253,16988,-208,608,-1.00,-1.0
7255,17080,-28,664,-1.00,-1.0
7257,17036,-8,776,-1.00,-1.0
7259,17060,28,688,-1.00,-1.0
7261,17008,-120,464,-1.00,-1.0
7263,16956,-84,704,-1.00,-1.0
7265,16996,-84,764,-1.00,-1.0
7267,17016,-4,488,-1.00,-1.0
7269,16920,-48,380,-1.00,-1.0
7273,17008,-196,700,-1.00,-1.0
7275,16988,-48,476,-1.00,-1.0
7277,16840,-28,528,-1.00,-1.0
7279,16972,36,600,-1.00,-1.0
7281,17156,-76,736,-1.00,-1.0
7283,17036,60,376,-1.00,-1.0
7285,17056,64,544,-1.00,-1.0
7287,17032,-112,828,-1.00,-1.0
7289,16956,-92,520,-1.00,-1.0
7291,16952,-28,396,-1.00,-1.0
7292,17008,48,600,-1.00,-1.0
7294,16976,-108,668,-1.00,-1.0
7296,16888,-76,608,-1.00,-1.0
7298,16996,68,336,-1.00,-1.0
7300,16896,56,624,-1.00,-1.0
7302,16968,-20,544,-1.00,-1.0
7304,17052,-40,328,-1.00,-1.0
7308,16916,-60,528,-1.00,-1.0
7310,17000,-100,688,-1.00,-1.0
7312,16916,56,364,-1.00,-1.0
7314,16992,-228,604,-1.00,-1.0
7316,17100,-68,612,-1.00,-1.0
7318,17044,-100,504,-1.00,-1.0
7320,16944,144,452,-1.00,-1.0
7322,17040,-16,728,-1.00,-1.0
7324,17004,-52,692,-1.00,-1.0
7326,17044,12,648,-1.00,-1.0
7328,17008,4,540,-1.00,-1.0
7330,16940,-48,616,-1.00,-1.0
7332,17040,-80,524,-1.00,-1.0
7334,17008,-16,532,-1.00,-1.0
7336,16988,-8,620,-1.00,-1.0
7337,17136,60,568,-1.00,-1.0
7339,17028,-12,732,-1.00,-1.0
7344,16988,-112,688,-1.00,-1.0
7346,17008,12,708,-1.00,-1.0
7347,16932,-104,528,-1.00,-1.0
7349,17008,0,608,-1.00,-1.0
7351,16960,-76,600,-1.00,-1.0
7353,16960,-76,800,-1.00,-1.0
7355,16992,-72,556,-1.00,-1.0
7357,17036,-96,592,-1.00,-1.0
7359,17036,52,456,-1.00,-1.0
7361,17016,-8,468,-1.00,-1.0
7363,17052,-44,624,-1.00,-1.0
7365,17064,-96,524,-1.00,-1.0
7367,16944,24,512,-1.00,-1.0
7369,16956,-120,436,-1.00,-1.0
7371,17028,-112,632,-1.00,-1.0
7373,16852,-72,572,-1.00,-1.0
7375,16920,-120,372,-1.00,-1.0
7379,16988,-28,600,-1.00,-1.0
7381,17004,-20,628,-1.00,-1.0
7383,16948,-56,436,-1.00,-1.0
7385,16984,-164,476,-1.00,-1.0
7387,16988,-80,512,-1.00,-1.0
7389,17028,0,592,-1.00,-1.0
7391,17000,-64,636,-1.00,-1.0
7392,16996,-96,620,-1.00,-1.0
7394,16976,-104,552,-1.00,-1.0
7396,16956,88,700,-1.00,-1.0
7398,16972,-8,712,-1.00,-1.0
7400,16896,-100,588,-1.00,-1.0
7402,16964,-92,620,-1.00,-1.0
7404,17012,-80,588,-1.00,-1.0
7406,16952,-68,512,-1.00,-1.0
7408,17040,-64,604,-1.00,-1.0
7410,16968,-112,592,-1.00,-1.0
7415,16992,-8,612,-1.00,-1.0
7417,16964,-72,468,-1.00,-1.0
7419,17056,-36,588,-1.00,-1.0
7420,17012,52,584,-1.00,-1.0
7422,16976,44,524,-1.00,-1.0
7424,17028,-24,652,-1.00,-1.0
7426,17044,16,600,-1.00,-1.0
7428,16948,-40,516,-1.00,-1.0
7430,16948,-68,616,-1.00,-1.0
7432,16876,68,660,-1.00,-1.0
7434,16928,-20,512,-1.00,-1.0
7436,16952,-76,556,-1.00,-1.0
7438,16964,-84,588,-1.00,-1.0
7440,16972,-28,536,-1.00,-1.0
7442,16984,-100,556,-1.00,-1.0
7444,16968,-52,588,-1.00,-1.0
7446,17012,12,508,-1.00,-1.0
7450,17092,8,676,-1.00,-1.0
7452,16856,44,660,-1.00,-1.0
7454,16956,-60,592,-1.00,-1.0
7456,16908,-24,556,-1.00,-1.0
7457,17072,-144,604,-1.00,-1.0
7459,16964,-136,776,-1.00,-1.0
7461,16972,-120,636,-1.00,-1.0
7463,17024,-36,572,-1.00,-1.0
7465,17100,36,556,-1.00,-1.0
7467,17000,-36,644,-1.00,-1.0
7469,17064,32,608,-1.00,-1.0
7471,17016,60,536,-1.00,-1.0
7473,17016,4,664,-1.00,-1.0
7475,17028,-56,772,-1.00,-1.0
7477,16960,-28,604,-1.00,-1.0
7479,16976,-188,744,-1.00,-1.0
7481,17004,-4,444,-1.00,-1.0
7483,16896,-72,652,-1.00,-1.0
7487,17024,-48,608,-1.00,-1.0
7489,16928,-220,548,-1.00,-1.0
7491,17028,-68,568,-1.00,-1.0
7493,16984,-108,780,-1.00,-1.0
7495,16920,-116,444,-1.00,-1.0
7497,17008,-188,724,-1.00,-1.0
7499,16960,104,488,-1.00,-1.0
7500,16988,-52,512,-1.00,-1.0
7503,17048,-204,588,-1.00,-1.0
7505,17108,-72,708,-1.00,-1.0
7506,17140,-100,708,-1.00,-1.0
7508,17016,-116,656,-1.00,-1.0
7510,17148,-116,560,-1.00,-1.0
7512,17004,40,592,-1.00,-1.0
7514,16992,28,488,-1.00,-1.0
7516,16988,-124,520,-1.00,-1.0
7520,17016,-80,592,-1.00,-1.0
7522,17032,-12,616,-1.00,-1.0
7524,16984,-92,548,-1.00,-1.0
7526,16928,-76,500,-1.00,-1.0
7528,17024,-88,476,-1.00,-1.0
7530,17176,-88,556,-1.00,-1.0
7532,17104,-92,456,-1.00,-1.0
7534,16944,-96,684,-1.00,-1.0
7536,16964,-124,480,-1.00,-1.0
7538,16992,-72,668,-1.00,-1.0
7540,16984,-140,668,-1.00,-1.0
7542,17020,8,704,-1.00,-1.0
7544,17052,-80,652,-1.00,-1.0
7546,16972,-76,684,-1.00,-1.0
7548,16980,-80,692,-1.00,-1.0
7550,17020,-128,548,-1.00,-1.0
7551,17008,-56,500,-1.00,-1.0
7553,17064,-92,500,-1.00,-1.0
7558,16976,-108,660,-1.00,-1.0
7560,16948,-20,648,-1.00,-1.0
7561,16944,-108,624,-1.00,-1.0
7563,17020,-128,580,-1.00,-1.0
7565,16964,-64,556,-1.00,-1.0
7567,17104,-36,588,-1.00,-1.0
7569,17020,-68,400,-1.00,-1.0
7571,17044,-48,644,-1.00,-1.0
7573,16980,-76,704,-1.00,-1.0
7575,17092,8,512,-1.00,-1.0
7577,16976,40,516,-1.00,-1.0
7579,17008,-16,576,-1.00,-1.0
7581,16940,56,704,-1.00,-1.0
7583,16980,56,508,-1.00,-1.0
7585,17080,56,520,-1.00,-1.0
7587,16996,-8,544,-1.00,-1.0
7589,16904,-88,492,-1.00,-1.0
7593,16948,-140,552,-1.00,-1.0
7595,16984,-112,580,-1.00,-1.0
7597,16932,-100,520,-1.00,-1.0
7599,16992,-140,564,-1.00,-1.0
7601,16980,-112,580,-1.00,-1.0
7603,16988,-116,516,-1.00,-1.0
7605,16928,-60,572,-1.00,-1.0
7606,17060,16,604,-1.00,-1.0
7608,17012,-40,616,-1.00,-1.0
7610,17076,-64,676,-1.00,-1.0
7612,16936,-52,672,-1.00,-1.0
7614,17008,4,616,-1.00,-1.0
7616,16956,-56,576,-1.00,-1.0
7618,17120,-44,680,-1.00,-1.0
7620,16960,-36,536,-1.00,-1.0
7622,16964,-92,572,-1.00,-1.0
7624,16984,-16,504,-1.00,-1.0
7628,17020,-64,496,-1.00,-1.0
7630,17036,12,608,-1.00,-1.0
7632,17036,-112,696,-1.00,-1.0
7634,17008,-112,504,-1.00,-1.0
7636,17040,-96,488,-1.00,-1.0
7638,16988,-56,620,-1.00,-1.0
7640,16960,32,696,-1.00,-1.0
7642,17048,-148,632,-1.00,-1.0
7644,16880,-40,444,-1.00,-1.0
7646,17008,64,632,-1.00,-1.0
7648,17036,-152,628,-1.00,-1.0
7649,17016,-48,720,-1.00,-1.0
7652,17028,-44,604,-1.00,-1.0
7654,17012,-52,648,-1.00,-1.0
7655,16892,-76,600,-1.00,-1.0
7657,17040,-64,564,-1.00,-1.0
7659,16904,12,628,-1.00,-1.0
7663,16904,-52,592,-1.00,-1.0
7665,17072,-60,660,-1.00,-1.0
7667,17056,-48,676,-1.00,-1.0
7669,17044,-4,624,-1.00,-1.0
7671,17008,-72,700,-1.00,-1.0
7673,16992,-12,544,-1.00,-1.0
7675,17000,0,488,-1.00,-1.0
7677,17072,-52,596,-1.00,-1.0
7679,16836,8,768,-1.00,-1.0
7681,16916,-168,548,-1.00,-1.0
7683,16892,-44,560,-1.00,-1.0
7685,16888,-12,504,-1.00,-1.0
7687,16988,-36,604,-1.00,-1.0
7689,16972,-64,388,-1.00,-1.0
7691,16932,-164,612,-1.00,-1.0
7693,16920,-124,716,-1.00,-1.0
7694,16988,-108,636,-1.00,-1.0
7699,17016,-92,648,-1.00,-1.0
7701,17036,-76,400,-1.00,-1.0
7702,16936,-32,600,-1.00,-1.0
7704,17024,-96,612,-1.00,-1.0
7706,16984,-88,568,-1.00,-1.0
7708,17052,-148,524,-1.00,-1.0
7710,17000,-132,644,-1.00,-1.0
7712,17064,-132,612,-1.00,-1.0
7714,17032,-76,608,-1.00,-1.0
7716,16964,-32,632,-1.00,-1.0
7718,17036,-76,540,-1.00,-1.0
7720,16960,-64,532,-1.00,-1.0
7722,17044,-64,536,-1.00,-1.0
7724,16988,24,592,-1.00,-1.0
7726,17008,-8,496,-1.00,-1.0
7728,16952,16,672,-1.00,-1.0
7730,17024,-72,608,-1.00,-1.0
7734,17092,-136,612,-1.00,-1.0
7736,17024,-64,484,-1.00,-1.0
7737,16988,-8,584,-1.00,-1.0
7739,17096,-72,632,-1.00,-1.0
7741,17064,-32,592,-1.00,-1.0
7743,17064,0,528,-1.00,-1.0
7745,17016,-16,500,-1.00,-1.0
7747,16952,52,648,-1.00,-1.0
7749,17020,-32,564,-1.00,-1.0
7751,17068,-68,512,-1.00,-1.0
7753,16992,-4,552,-1.00,-1.0
7755,16984,64,596,-1.00,-1.0
7757,17060,-56,716,-1.00,-1.0
7759,17012,12,720,-1.00,-1.0
7761,16988,92,712,-1.00,-1.0
7763,16956,12,604,-1.00,-1.0
7765,17004,-60,632,-1.00,-1.0
7769,16948,-44,712,-1.00,-1.0
