timestamp_ms,accel_x,accel_y,accel_z,voltage,soc
2,2592,15252,-32064,-1.00,-1.0
4,2468,8908,-32768,-1.00,-1.0
6,29820,-9648,32767,-1.00,-1.0
12,27036,-8908,10624,-1.00,-1.0
14,26120,-11556,20352,-1.00,-1.0
16,6696,4812,-22976,-1.00,-1.0
17,10316,4484,-2612,-1.00,-1.0
20,26008,-11864,24160,-1.00,-1.0
21,20780,1344,2668,-1.00,-1.0
23,10244,7856,-28924,-1.00,-1.0
25,20732,-1232,8580,-1.00,-1.0
27,27256,-8288,30492,-1.00,-1.0
29,8084,5000,-9900,-1.00,-1.0
31,6420,7588,-22700,-1.00,-1.0
33,28584,-8292,23748,-1.00,-1.0
35,27432,-9804,17184,-1.00,-1.0
37,3360,8812,-29272,-1.00,-1.0
39,12096,1832,-3016,-1.00,-1.0
41,10476,12948,-20656,-1.00,-1.0
45,9300,7352,-24380,-1.00,-1.0
47,21020,-2660,8104,-1.00,-1.0
49,4560,11236,-23424,-1.00,-1.0
51,18416,-3364,-1044,-1.00,-1.0
53,30060,-12908,32292,-1.00,-1.0
55,11720,4680,-14900,-1.00,-1.0
57,7564,7820,-23656,-1.00,-1.0
59,27168,-13344,22900,-1.00,-1.0
61,25552,-3656,16172,-1.00,-1.0
63,3912,13232,-32768,-1.00,-1.0
64,15508,-1940,3192,-1.00,-1.0
66,32767,-8908,32767,-1.00,-1.0
68,8288,8944,-19876,-1.00,-1.0
70,4420,8092,-24792,-1.00,-1.0
72,31804,-10712,32767,-1.00,-1.0
74,23852,-5676,15652,-1.00,-1.0
78,18776,-2612,11348,-1.00,-1.0
80,32767,-14780,32767,-1.00,-1.0
82,8920,7268,-18548,-1.00,-1.0
84,6848,8684,-28140,-1.00,-1.0
86,25628,-8664,25324,-1.00,-1.0
88,27448,-7908,28576,-1.00,-1.0
90,1636,10976,-32768,-1.00,-1.0
92,7920,2452,-14096,-1.00,-1.0
94,32767,-13908,32767,-1.00,-1.0
96,16176,940,-7608,-1.00,-1.0
98,31080,-16144,32767,-1.00,-1.0
100,25276,-4064,16604,-1.00,-1.0
102,-1840,18120,-32768,-1.00,-1.0
104,14784,-964,5440,-1.00,-1.0
106,32767,-12108,32767,-1.00,-1.0
108,6532,13008,-31256,-1.00,-1.0
112,32767,-13188,32767,-1.00,-1.0
114,20028,-2664,11888,-1.00,-1.0
116,-5472,14900,-32768,-1.00,-1.0
118,20092,-2776,9692,-1.00,-1.0
120,31872,-13788,31988,-1.00,-1.0
122,7168,8880,-20256,-1.00,-1.0
123,8056,7096,-21608,-1.00,-1.0
125,29704,-13748,32767,-1.00,-1.0
127,19804,-104,1424,-1.00,-1.0
129,4472,12184,-28456,-1.00,-1.0
131,21684,-6040,8284,-1.00,-1.0
133,28296,-7764,28064,-1.00,-1.0
135,5700,9580,-25128,-1.00,-1.0
137,11456,4772,-11172,-1.00,-1.0
139,32508,-10808,22696,-1.00,-1.0
141,15992,2516,516,-1.00,-1.0
145,20308,-1352,5028,-1.00,-1.0
147,18648,-7404,10596,-1.00,-1.0
149,17680,2060,1668,-1.00,-1.0
151,11452,5732,-18624,-1.00,-1.0
153,18688,-6440,7852,-1.00,-1.0
155,25616,-3844,15512,-1.00,-1.0
157,10920,6944,-17736,-1.00,-1.0
159,25360,-7240,17844,-1.00,-1.0
161,10356,8032,-17808,-1.00,-1.0
163,13156,5288,-10856,-1.00,-1.0
165,29336,-12100,28380,-1.00,-1.0
167,14164,2056,-3120,-1.00,-1.0
169,3124,10744,-26724,-1.00,-1.0
171,23480,-11232,17740,-1.00,-1.0
172,26476,-5436,23032,-1.00,-1.0
174,3568,11276,-32768,-1.00,-1.0
179,31256,-10352,32724,-1.00,-1.0
181,11044,5864,-11284,-1.00,-1.0
182,10180,7292,-20796,-1.00,-1.0
185,27916,-5312,13336,-1.00,-1.0
186,21912,-4240,7252,-1.00,-1.0
188,10140,9500,-13680,-1.00,-1.0
190,13772,4960,-5184,-1.00,-1.0
192,23032,-7556,20748,-1.00,-1.0
194,13336,2484,-4812,-1.00,-1.0
196,12092,5824,-10776,-1.00,-1.0
198,22156,-9640,11684,-1.00,-1.0
200,18544,3124,-352,-1.00,-1.0
202,8984,6256,-13212,-1.00,-1.0
204,22684,-11616,19964,-1.00,-1.0
206,19672,-2184,6444,-1.00,-1.0
210,18484,-5788,1412,-1.00,-1.0
212,30424,-10536,27300,-1.00,-1.0
214,9612,3912,-16676,-1.00,-1.0
216,6772,7352,-15696,-1.00,-1.0
218,26900,-8292,17972,-1.00,-1.0
220,24412,-7776,15912,-1.00,-1.0
222,1780,7748,-31120,-1.00,-1.0
224,28304,-2580,20748,-1.00,-1.0
226,29216,-9808,19536,-1.00,-1.0
228,13068,-5620,2212,-1.00,-1.0
230,28876,-6356,24812,-1.00,-1.0
232,9016,9248,-16484,-1.00,-1.0
234,10548,-2360,-10576,-1.00,-1.0
236,32767,-4424,23344,-1.00,-1.0
237,16792,4920,-11852,-1.00,-1.0
239,3488,2756,-19000,-1.00,-1.0
244,15352,3980,-3388,-1.00,-1.0
246,740,8456,-27620,-1.00,-1.0
247,29264,-5004,17208,-1.00,-1.0
249,25488,-544,11956,-1.00,-1.0
251,4352,11796,-32648,-1.00,-1.0
253,17488,316,10496,-1.00,-1.0
255,23648,-8760,21388,-1.00,-1.0
257,15228,6480,-1124,-1.00,-1.0
259,8208,8056,-32768,-1.00,-1.0
261,27256,-9556,23720,-1.00,-1.0
263,26840,-2880,11812,-1.00,-1.0
265,4560,14256,-21648,-1.00,-1.0
267,11756,-2012,-1968,-1.00,-1.0
269,28408,-5116,27316,-1.00,-1.0
271,16272,752,-9620,-1.00,-1.0
273,9732,1248,-16832,-1.00,-1.0
277,20192,-2712,6868,-1.00,-1.0
279,3148,2436,-19552,-1.00,-1.0
281,20564,1308,9832,-1.00,-1.0
283,10240,6312,-12616,-1.00,-1.0
285,13852,-2476,-316,-1.00,-1.0
287,23536,-3728,15056,-1.00,-1.0
289,13552,7028,-12456,-1.00,-1.0
290,11912,-2712,-3700,-1.00,-1.0
292,27296,-1400,13656,-1.00,-1.0
294,12492,5604,-10388,-1.00,-1.0
296,7212,-32,-7968,-1.00,-1.0
298,26324,-6424,29936,-1.00,-1.0
300,15044,5044,-12112,-1.00,-1.0
302,5196,5584,-22004,-1.00,-1.0
304,32008,-5824,21568,-1.00,-1.0
306,24296,-976,7252,-1.00,-1.0
310,20572,-1044,18920,-1.00,-1.0
312,27596,-4860,18796,-1.00,-1.0
314,3052,9232,-32116,-1.00,-1.0
316,19640,312,6044,-1.00,-1.0
318,29768,-10336,24824,-1.00,-1.0
320,5252,8256,-18812,-1.00,-1.0
322,11180,4492,-12892,-1.00,-1.0
324,31208,-13076,32767,-1.00,-1.0
326,11636,3772,-14860,-1.00,-1.0
328,31228,-6804,30388,-1.00,-1.0
330,21168,1740,-20,-1.00,-1.0
332,5108,2008,-22108,-1.00,-1.0
334,22808,-2212,9392,-1.00,-1.0
335,20676,280,13104,-1.00,-1.0
337,8520,3068,-13228,-1.00,-1.0
342,24440,-3568,12080,-1.00,-1.0
344,12868,1964,-5056,-1.00,-1.0
345,17088,3480,-4236,-1.00,-1.0
347,22984,-1888,2020,-1.00,-1.0
349,10900,3108,-10692,-1.00,-1.0
351,18568,-2860,22348,-1.00,-1.0
353,17692,-464,-2232,-1.00,-1.0
355,7580,4180,-18272,-1.00,-1.0
357,24324,-244,5432,-1.00,-1.0
359,27004,-3728,13728,-1.00,-1.0
361,6512,5824,-18984,-1.00,-1.0
363,15480,5396,8364,-1.00,-1.0
365,21220,-2436,7036,-1.00,-1.0
367,8072,3248,-12096,-1.00,-1.0
369,22548,-160,9312,-1.00,-1.0
371,22060,-2600,-772,-1.00,-1.0
375,17264,3932,-932,-1.00,-1.0
377,21484,-32,9688,-1.00,-1.0
379,13700,-3552,-5360,-1.00,-1.0
381,14384,4500,1664,-1.00,-1.0
383,20672,-372,2856,-1.00,-1.0
385,14492,-3292,-3960,-1.00,-1.0
387,13804,-504,-2804,-1.00,-1.0
388,17188,1508,5384,-1.00,-1.0
390,19536,-3520,1604,-1.00,-1.0
392,15380,-1980,-528,-1.00,-1.0
394,16776,2976,-2468,-1.00,-1.0
396,19484,-424,5092,-1.00,-1.0
398,15952,140,-3140,-1.00,-1.0
400,17240,3520,-1204,-1.00,-1.0
402,19056,-3340,3916,-1.00,-1.0
404,14096,4932,-6180,-1.00,-1.0
406,13292,304,1768,-1.00,-1.0
410,10312,3932,-11884,-1.00,-1.0
412,13524,6148,-4368,-1.00,-1.0
414,25752,-7700,11048,-1.00,-1.0
416,13540,3428,-3084,-1.00,-1.0
418,10748,7768,-5912,-1.00,-1.0
420,21928,-3592,9208,-1.00,-1.0
422,14980,800,-5600,-1.00,-1.0
424,14324,4700,-1928,-1.00,-1.0
426,22032,-2968,2356,-1.00,-1.0
428,14192,2628,-396,-1.00,-1.0
430,13616,3196,-4404,-1.00,-1.0
432,20116,1020,740,-1.00,-1.0
434,12248,2092,-6668,-1.00,-1.0
436,21432,-932,9956,-1.00,-1.0
437,19468,-1176,3164,-1.00,-1.0
439,14792,-1860,-2248,-1.00,-1.0
444,15860,1096,-9588,-1.00,-1.0
446,11364,-3948,84,-1.00,-1.0
447,9140,9052,-18668,-1.00,-1.0
449,17056,1232,8076,-1.00,-1.0
451,26800,-8716,16604,-1.00,-1.0
453,8940,4564,-8908,-1.00,-1.0
455,13144,9484,-9028,-1.00,-1.0
457,24696,-4608,6428,-1.00,-1.0
459,14776,-704,-828,-1.00,-1.0
461,15912,6752,1288,-1.00,-1.0
463,15744,4676,-6544,-1.00,-1.0
465,10072,1112,-3496,-1.00,-1.0
467,22244,-908,11860,-1.00,-1.0
469,18696,136,-4932,-1.00,-1.0
471,6396,4784,-14220,-1.00,-1.0
473,21900,-668,11536,-1.00,-1.0
477,6140,1564,-12168,-1.00,-1.0
479,19744,3904,5908,-1.00,-1.0
481,20572,-508,-220,-1.00,-1.0
483,15564,-5408,2592,-1.00,-1.0
485,17528,1212,-2240,-1.00,-1.0
487,17028,796,3744,-1.00,-1.0
489,15688,-5612,1364,-1.00,-1.0
491,16036,1196,892,-1.00,-1.0
493,22552,-1064,4404,-1.00,-1.0
495,19820,-5208,3812,-1.00,-1.0
496,12892,-1068,904,-1.00,-1.0
498,18408,4720,1372,-1.00,-1.0
500,15064,3332,-7096,-1.00,-1.0
502,10932,1296,-3120,-1.00,-1.0
504,19528,-1164,13340,-1.00,-1.0
506,16328,2128,-2068,-1.00,-1.0
511,8844,9588,-14128,-1.00,-1.0
513,17692,-5448,7380,-1.00,-1.0
514,5596,3332,-20348,-1.00,-1.0
516,19368,-2620,11404,-1.00,-1.0
518,26588,-8600,14500,-1.00,-1.0
520,9880,-84,-7912,-1.00,-1.0
522,19428,2644,-2720,-1.00,-1.0
524,27376,-5364,13596,-1.00,-1.0
526,15712,-5956,-2196,-1.00,-1.0
528,13700,3972,-3632,-1.00,-1.0
530,21420,-1352,5964,-1.00,-1.0
532,15992,-5348,1128,-1.00,-1.0
534,15716,2456,-2920,-1.00,-1.0
536,18148,2360,3836,-1.00,-1.0
538,16932,-3960,508,-1.00,-1.0
540,13468,5768,-628,-1.00,-1.0
544,20368,-3356,4896,-1.00,-1.0
546,12740,4860,-4072,-1.00,-1.0
548,13636,7100,-2308,-1.00,-1.0
550,20536,-3412,3536,-1.00,-1.0
552,12820,3040,-5604,-1.00,-1.0
554,13940,3728,-800,-1.00,-1.0
555,21856,-4692,8096,-1.00,-1.0
557,13456,-3400,-4116,-1.00,-1.0
559,19448,1432,3088,-1.00,-1.0
561,17292,2772,2512,-1.00,-1.0
563,12908,-1740,-1356,-1.00,-1.0
565,13312,4592,-1548,-1.00,-1.0
567,15620,4012,-816,-1.00,-1.0
569,19488,-3740,3444,-1.00,-1.0
571,16248,4272,-3300,-1.00,-1.0
573,14408,5112,-6460,-1.00,-1.0
577,19148,-104,3820,-1.00,-1.0
579,12608,3520,-10200,-1.00,-1.0
581,21136,-7100,8540,-1.00,-1.0
583,21636,-4196,8240,-1.00,-1.0
585,17620,3528,-5456,-1.00,-1.0
587,18740,-3176,-6504,-1.00,-1.0
589,20552,-4936,7060,-1.00,-1.0
591,19960,-656,8764,-1.00,-1.0
593,14132,688,-6368,-1.00,-1.0
595,12392,1076,-3484,-1.00,-1.0
596,18788,1428,8220,-1.00,-1.0
598,17960,3024,-4116,-1.00,-1.0
600,11164,732,-1556,-1.00,-1.0
602,20620,-4616,3980,-1.00,-1.0
604,22000,2648,3568,-1.00,-1.0
606,15960,-520,-5348,-1.00,-1.0
610,21204,-164,10000,-1.00,-1.0
612,15796,800,-8368,-1.00,-1.0
614,12884,-1848,-2012,-1.00,-1.0
616,16592,904,7736,-1.00,-1.0
618,14420,2880,-328,-1.00,-1.0
620,13172,-1932,-1744,-1.00,-1.0
622,14260,4460,-1132,-1.00,-1.0
624,22200,448,8260,-1.00,-1.0
626,18420,-3132,-3220,-1.00,-1.0
628,10332,608,-7968,-1.00,-1.0
630,24912,-896,17560,-1.00,-1.0
632,18388,-4524,-3140,-1.00,-1.0
634,12340,-4496,-8028,-1.00,-1.0
636,22044,5320,2112,-1.00,-1.0
638,20252,52,4280,-1.00,-1.0
640,18660,-8048,4960,-1.00,-1.0
641,8708,5332,-6216,-1.00,-1.0
646,21384,-4744,5452,-1.00,-1.0
648,16920,-3968,1416,-1.00,-1.0
650,15780,8532,-3488,-1.00,-1.0
651,14856,2604,-5704,-1.00,-1.0
653,18924,-7912,10540,-1.00,-1.0
655,15024,2128,1400,-1.00,-1.0
657,19868,2976,7796,-1.00,-1.0
659,17392,-512,1672,-1.00,-1.0
661,12588,-1692,2160,-1.00,-1.0
663,16068,6348,-4416,-1.00,-1.0
665,17876,-500,-1300,-1.00,-1.0
667,16244,-4392,4904,-1.00,-1.0
669,21020,-524,9540,-1.00,-1.0
671,14632,5180,-10852,-1.00,-1.0
673,12708,-2564,-2084,-1.00,-1.0
675,27204,-2668,11216,-1.00,-1.0
679,8548,1000,-11864,-1.00,-1.0
681,22868,-648,13152,-1.00,-1.0
683,16384,108,-1596,-1.00,-1.0
685,12608,-812,-2448,-1.00,-1.0
687,19900,68,3308,-1.00,-1.0
689,15864,3448,-2352,-1.00,-1.0
691,15572,-1792,-712,-1.00,-1.0
693,17472,296,5548,-1.00,-1.0
695,15260,2836,-2092,-1.00,-1.0
697,16452,-2128,-592,-1.00,-1.0
698,18604,308,2604,-1.00,-1.0
700,19560,416,928,-1.00,-1.0
702,16820,-36,-3548,-1.00,-1.0
704,16720,-616,2528,-1.00,-1.0
706,15256,3064,-5692,-1.00,-1.0
708,18736,-920,1968,-1.00,-1.0
712,18888,96,6352,-1.00,-1.0
714,19648,-472,3824,-1.00,-1.0
716,19348,-5016,4564,-1.00,-1.0
718,20928,-2300,7708,-1.00,-1.0
720,12568,4436,-9728,-1.00,-1.0
722,18160,-1516,4564,-1.00,-1.0
724,18272,-1784,3104,-1.00,-1.0
726,14428,3644,-2632,-1.00,-1.0
728,17484,-468,-196,-1.00,-1.0
730,16644,-1228,3808,-1.00,-1.0
732,16420,1664,-288,-1.00,-1.0
734,16060,36,-2388,-1.00,-1.0
736,16920,-4292,2564,-1.00,-1.0
738,19824,-164,6728,-1.00,-1.0
740,15216,-4,-3492,-1.00,-1.0
742,15556,-3928,1348,-1.00,-1.0
746,22220,1096,-920,-1.00,-1.0
748,17028,-2772,-7800,-1.00,-1.0
750,18008,-1548,3584,-1.00,-1.0
752,17704,-1924,13632,-1.00,-1.0
754,12668,-604,-4948,-1.00,-1.0
756,12624,3156,-3956,-1.00,-1.0
757,19392,2280,1396,-1.00,-1.0
759,21124,-3328,7444,-1.00,-1.0
761,13636,936,-160,-1.00,-1.0
763,8096,7400,-6628,-1.00,-1.0
765,22644,2668,1104,-1.00,-1.0
767,15088,1028,-10552,-1.00,-1.0
769,14608,1140,3648,-1.00,-1.0
771,18524,720,9312,-1.00,-1.0
773,14628,752,-1352,-1.00,-1.0
775,12060,2624,-7420,-1.00,-1.0
777,17948,432,4908,-1.00,-1.0
781,11360,-496,-2872,-1.00,-1.0
783,14040,4256,812,-1.00,-1.0
785,19736,-1208,8744,-1.00,-1.0
787,17652,-1408,-3296,-1.00,-1.0
789,14200,2480,-5560,-1.00,-1.0
791,25904,-1704,12448,-1.00,-1.0
793,18904,-2508,-4160,-1.00,-1.0
795,12592,724,-7628,-1.00,-1.0
797,23776,1664,7380,-1.00,-1.0
799,21152,-3212,472,-1.00,-1.0
800,11552,-1076,-3172,-1.00,-1.0
802,17548,2356,1852,-1.00,-1.0
804,16088,-952,2364,-1.00,-1.0
806,11620,-2608,0,-1.00,-1.0
808,17088,3064,3688,-1.00,-1.0
810,19512,2180,3872,-1.00,-1.0
814,23016,2812,5604,-1.00,-1.0
816,15088,3276,-6444,-1.00,-1.0
818,21276,-4468,5284,-1.00,-1.0
820,13092,1804,-6924,-1.00,-1.0
822,16368,1736,664,-1.00,-1.0
824,21808,-1008,8304,-1.00,-1.0
826,13412,456,-3452,-1.00,-1.0
828,12436,7132,-7332,-1.00,-1.0
830,20628,-2996,9372,-1.00,-1.0
832,17040,-1048,3768,-1.00,-1.0
834,14364,4364,-6412,-1.00,-1.0
836,17064,1988,-2928,-1.00,-1.0
838,20628,-7344,8352,-1.00,-1.0
840,19576,-1184,3592,-1.00,-1.0
842,13128,3184,-8552,-1.00,-1.0
843,17828,-4008,2620,-1.00,-1.0
848,16252,1220,-4548,-1.00,-1.0
850,18064,860,-2796,-1.00,-1.0
851,18720,-2076,1712,-1.00,-1.0
853,15576,892,2800,-1.00,-1.0
855,15548,1164,1112,-1.00,-1.0
857,14440,-672,1428,-1.00,-1.0
859,13344,3732,-1376,-1.00,-1.0
861,19392,984,780,-1.00,-1.0
863,19756,-1500,-104,-1.00,-1.0
865,13468,-2184,2424,-1.00,-1.0
867,22192,1884,7448,-1.00,-1.0
869,14428,2952,-12008,-1.00,-1.0
871,11584,-1592,184,-1.00,-1.0
873,23844,948,17380,-1.00,-1.0
875,13208,5476,-11180,-1.00,-1.0
877,6660,2696,-12440,-1.00,-1.0
881,18220,2064,340,-1.00,-1.0
883,4724,2340,-16060,-1.00,-1.0
885,18668,556,7912,-1.00,-1.0
887,23568,-2404,11612,-1.00,-1.0
889,10676,304,-11400,-1.00,-1.0
891,15020,2788,-2032,-1.00,-1.0
893,25036,-3472,13980,-1.00,-1.0
895,16992,-4928,-2972,-1.00,-1.0
897,17016,492,-4540,-1.00,-1.0
899,21920,-3496,3620,-1.00,-1.0
900,19524,-8484,5564,-1.00,-1.0
902,15556,-1248,2468,-1.00,-1.0
904,18004,16,412,-1.00,-1.0
906,19720,-5420,-316,-1.00,-1.0
908,17000,-1328,-160,-1.00,-1.0
910,16284,4956,-4964,-1.00,-1.0
916,19616,-1432,8528,-1.00,-1.0
918,16088,2332,-2584,-1.00,-1.0
920,12484,-1456,-8312,-1.00,-1.0
922,19092,-3232,8012,-1.00,-1.0
924,27184,-1812,11108,-1.00,-1.0
926,15940,-948,-11148,-1.00,-1.0
928,15272,2324,-4972,-1.00,-1.0
930,24096,-5512,14488,-1.00,-1.0
932,18692,-5016,2944,-1.00,-1.0
934,12332,2832,-7592,-1.00,-1.0
935,17696,1884,812,-1.00,-1.0
937,22364,-3776,8300,-1.00,-1.0
939,16744,720,-1140,-1.00,-1.0
941,12708,7476,-10908,-1.00,-1.0
943,17828,-2036,8288,-1.00,-1.0
945,15924,-1000,4808,-1.00,-1.0
949,14092,2044,-8340,-1.00,-1.0
951,19348,-4652,9792,-1.00,-1.0
953,15356,4604,-1836,-1.00,-1.0
955,13072,4984,-7700,-1.00,-1.0
957,14952,-2440,2040,-1.00,-1.0
959,18460,1596,9516,-1.00,-1.0
961,19300,-780,1232,-1.00,-1.0
963,19160,-2644,6244,-1.00,-1.0
965,13816,-1700,1580,-1.00,-1.0
967,15704,3152,-268,-1.00,-1.0
969,17140,1656,-992,-1.00,-1.0
971,15692,816,340,-1.00,-1.0
973,20256,944,4908,-1.00,-1.0
975,15728,2100,-2688,-1.00,-1.0
977,13720,1128,-1520,-1.00,-1.0
979,17496,232,3836,-1.00,-1.0
980,18480,1024,-1644,-1.00,-1.0
985,17016,3140,-1612,-1.00,-1.0
987,18628,-1008,4876,-1.00,-1.0
989,14024,1980,-3460,-1.00,-1.0
990,15380,524,1492,-1.00,-1.0
992,18996,1720,1352,-1.00,-1.0
994,15996,-2404,-1468,-1.00,-1.0
996,17112,-276,2484,-1.00,-1.0
998,18040,-1060,2488,-1.00,-1.0
1000,17404,-392,-724,-1.00,-1.0
1002,17020,-812,-752,-1.00,-1.0
1004,16844,-960,1372,-1.00,-1.0
1006,16032,3952,-4520,-1.00,-1.0
1008,15320,-556,-4008,-1.00,-1.0
1010,19928,-1088,9088,-1.00,-1.0
1012,16820,2928,-1112,-1.00,-1.0
1014,11944,2508,-6288,-1.00,-1.0
1018,22660,-1640,8284,-1.00,-1.0
1020,17708,892,-5504,-1.00,-1.0
1022,11308,5092,-10544,-1.00,-1.0
1024,22440,-4280,14112,-1.00,-1.0
1026,20576,-5436,5168,-1.00,-1.0
1028,10588,6800,-17256,-1.00,-1.0
1030,16132,192,2496,-1.00,-1.0
1032,26068,-9832,21452,-1.00,-1.0
1034,11860,2636,-5408,-1.00,-1.0
1036,11000,6852,-12220,-1.00,-1.0
1038,26200,-10216,15224,-1.00,-1.0
1040,20376,-3664,4052,-1.00,-1.0
1042,14076,3396,-6908,-1.00,-1.0
1043,19100,-3896,1028,-1.00,-1.0
1045,17212,-3372,5400,-1.00,-1.0
1050,17672,-2924,-2024,-1.00,-1.0
1052,15300,-520,244,-1.00,-1.0
1054,19240,-864,5848,-1.00,-1.0
1056,17848,-4744,5052,-1.00,-1.0
1058,13464,-436,-1168,-1.00,-1.0
1060,19012,-2264,4304,-1.00,-1.0
1061,19180,-4388,1208,-1.00,-1.0
1063,14092,368,-8680,-1.00,-1.0
1065,19656,-4360,10076,-1.00,-1.0
1067,18784,-4968,6616,-1.00,-1.0
1069,14268,544,-2524,-1.00,-1.0
1071,16956,1692,-5800,-1.00,-1.0
1073,22816,-6300,6284,-1.00,-1.0
1075,19404,-3860,5880,-1.00,-1.0
1077,14912,4800,-4776,-1.00,-1.0
1079,13544,-1592,-1392,-1.00,-1.0
1083,19388,148,1936,-1.00,-1.0
1085,14612,1488,-7620,-1.00,-1.0
1087,18688,-1860,2244,-1.00,-1.0
1089,11792,2796,-7400,-1.00,-1.0
1091,18940,-964,3960,-1.00,-1.0
1093,20416,-3272,6728,-1.00,-1.0
1095,12584,4028,-6620,-1.00,-1.0
1097,16280,208,504,-1.00,-1.0
1099,21872,-4032,8572,-1.00,-1.0
1101,13928,1480,-1056,-1.00,-1.0
1103,17240,-408,-256,-1.00,-1.0
1105,20476,-5660,4884,-1.00,-1.0
1107,12340,-768,-4720,-1.00,-1.0
1109,20248,-3012,9276,-1.00,-1.0
1110,18936,-4896,3316,-1.00,-1.0
1115,20240,-456,5040,-1.00,-1.0
1117,23444,-3344,3020,-1.00,-1.0
1118,13644,1944,-5340,-1.00,-1.0
1120,19980,-1204,9380,-1.00,-1.0
1122,19956,-5564,6824,-1.00,-1.0
1124,10772,868,-7088,-1.00,-1.0
1126,17012,-360,3212,-1.00,-1.0
1128,25680,-5104,11016,-1.00,-1.0
1130,11472,1296,-7780,-1.00,-1.0
1132,19260,732,3188,-1.00,-1.0
1134,21788,-5248,8520,-1.00,-1.0
1136,15716,-2192,2044,-1.00,-1.0
1138,18440,-484,8592,-1.00,-1.0
1140,18984,-3408,2096,-1.00,-1.0
1142,17952,-2712,2312,-1.00,-1.0
1144,16628,3224,2716,-1.00,-1.0
1148,12204,104,-4408,-1.00,-1.0
1150,19140,1016,3880,-1.00,-1.0
1152,16784,5792,-5512,-1.00,-1.0
1154,15620,-1300,-4532,-1.00,-1.0
1156,20980,-2888,12656,-1.00,-1.0
1158,14320,5812,-5676,-1.00,-1.0
1160,14352,-308,-4500,-1.00,-1.0
1162,17236,-3740,9232,-1.00,-1.0
1164,22116,-360,8092,-1.00,-1.0
1166,15380,664,-12924,-1.00,-1.0
1167,13376,2880,-8368,-1.00,-1.0
1169,25932,-5236,19228,-1.00,-1.0
1171,20092,-1164,2764,-1.00,-1.0
1173,520,6792,-20932,-1.00,-1.0
1175,26484,-5904,23016,-1.00,-1.0
1177,27380,-8320,7808,-1.00,-1.0
1181,22048,-3600,17228,-1.00,-1.0
1183,27752,-8684,21292,-1.00,-1.0
1185,2280,6648,-16944,-1.00,-1.0
1187,16328,4188,-5624,-1.00,-1.0
1189,32767,-11444,23932,-1.00,-1.0
1191,13968,-396,-12948,-1.00,-1.0
1193,13588,4852,-3588,-1.00,-1.0
1195,22428,-6268,12432,-1.00,-1.0
1197,12952,1296,3080,-1.00,-1.0
1199,15044,1620,-4000,-1.00,-1.0
1201,18228,1192,784,-1.00,-1.0
1203,19752,-740,1868,-1.00,-1.0
1205,17052,1512,8440,-1.00,-1.0
1207,18136,1084,1332,-1.00,-1.0
1209,10792,4172,-11356,-1.00,-1.0
1213,16444,-2408,-4856,-1.00,-1.0
1215,13868,-376,-2740,-1.00,-1.0
1217,11956,7792,-11284,-1.00,-1.0
1219,21560,-2292,2824,-1.00,-1.0
1221,23476,-7840,9652,-1.00,-1.0
1223,15964,1652,-1560,-1.00,-1.0
1225,12012,2732,-7724,-1.00,-1.0
1226,20796,-6556,5588,-1.00,-1.0
1229,17664,-1736,6516,-1.00,-1.0
1230,21596,1812,12,-1.00,-1.0
1232,20880,-3588,-4604,-1.00,-1.0
1234,13848,828,-3836,-1.00,-1.0
1236,22780,-4356,19812,-1.00,-1.0
1238,19456,-4036,1252,-1.00,-1.0
1240,7156,2180,-10444,-1.00,-1.0
1242,24864,160,9448,-1.00,-1.0
1246,12132,-3276,-4972,-1.00,-1.0
1248,14440,7992,156,-1.00,-1.0
1250,18716,48,9544,-1.00,-1.0
1252,16016,-5408,2240,-1.00,-1.0
1254,15360,8028,-6776,-1.00,-1.0
1256,13348,5632,-1744,-1.00,-1.0
1258,21944,-10108,18576,-1.00,-1.0
1260,4820,5972,-10076,-1.00,-1.0
1262,13996,9772,-2768,-1.00,-1.0
1264,24816,-5132,3264,-1.00,-1.0
1266,12972,-7108,2352,-1.00,-1.0
1268,13884,2072,-1660,-1.00,-1.0
1270,21428,1264,8552,-1.00,-1.0
1272,19128,-7080,-3128,-1.00,-1.0
1274,11076,1332,-2368,-1.00,-1.0
1278,14676,1600,-5828,-1.00,-1.0
1280,8696,1044,-13892,-1.00,-1.0
1282,22424,2568,14660,-1.00,-1.0
1284,20028,-424,1876,-1.00,-1.0
1286,6764,3140,-7232,-1.00,-1.0
1288,14684,4320,-3564,-1.00,-1.0
1289,23232,-3968,11908,-1.00,-1.0
1291,7932,3700,-14996,-1.00,-1.0
1293,16436,2276,5272,-1.00,-1.0
1295,23256,-2696,8620,-1.00,-1.0
1297,8372,2740,-8848,-1.00,-1.0
1299,22008,3272,-2916,-1.00,-1.0
1301,25412,-4264,4268,-1.00,-1.0
1303,12432,-2996,-3828,-1.00,-1.0
1305,18548,2260,10580,-1.00,-1.0
1307,16700,-224,-4684,-1.00,-1.0
1311,20180,-1632,8588,-1.00,-1.0
1313,22676,228,9600,-1.00,-1.0
1315,5708,964,-12188,-1.00,-1.0
1317,13136,1344,5868,-1.00,-1.0
1319,25108,-5360,17708,-1.00,-1.0
1321,13640,-60,-11384,-1.00,-1.0
1323,15524,4720,-7764,-1.00,-1.0
1325,16532,584,4864,-1.00,-1.0
1327,14340,1552,-8164,-1.00,-1.0
1329,14980,660,-2308,-1.00,-1.0
1331,24228,-1120,10840,-1.00,-1.0
1332,19508,-1280,-1840,-1.00,-1.0
1335,5844,4232,-11396,-1.00,-1.0
1337,18132,-392,15344,-1.00,-1.0
1338,21640,-2332,7072,-1.00,-1.0
1342,17124,704,3460,-1.00,-1.0
1344,23300,-1732,12732,-1.00,-1.0
1346,10748,-396,-7364,-1.00,-1.0
1348,12392,4884,-6836,-1.00,-1.0
1350,22116,-3404,8740,-1.00,-1.0
1352,18172,-4232,3988,-1.00,-1.0
1354,15608,3340,-8228,-1.00,-1.0
1356,18084,1148,-2516,-1.00,-1.0
1358,21352,-6288,7756,-1.00,-1.0
1360,18980,2332,-1320,-1.00,-1.0
1362,14524,5168,-7752,-1.00,-1.0
1364,21184,-4808,7664,-1.00,-1.0
1366,17624,1168,1420,-1.00,-1.0
1368,12128,8136,-7888,-1.00,-1.0
1370,18696,-2048,6376,-1.00,-1.0
1372,14056,-4292,-9064,-1.00,-1.0
1376,15960,-36,-436,-1.00,-1.0
1378,14820,-4248,1060,-1.00,-1.0
1380,12264,2004,-2552,-1.00,-1.0
1382,18088,3188,5180,-1.00,-1.0
1384,19944,-3972,4292,-1.00,-1.0
1386,15780,-1080,-4476,-1.00,-1.0
1387,14548,7188,-4696,-1.00,-1.0
1389,17616,-856,8232,-1.00,-1.0
1391,14024,-4636,10748,-1.00,-1.0
1393,10372,9736,-9108,-1.00,-1.0
1395,16548,2932,-2040,-1.00,-1.0
1397,23156,-8528,6880,-1.00,-1.0
1399,18236,1736,1768,-1.00,-1.0
1401,15044,5764,-7360,-1.00,-1.0
1403,17380,-6560,-40,-1.00,-1.0
1405,17804,-1496,-64,-1.00,-1.0
1409,18544,-3568,-4268,-1.00,-1.0
1411,13240,-500,476,-1.00,-1.0
1413,18692,4648,4468,-1.00,-1.0
1415,18900,-2876,1408,-1.00,-1.0
1417,15256,-5000,4620,-1.00,-1.0
1419,9944,10972,-7932,-1.00,-1.0
1421,18560,136,9748,-1.00,-1.0
1423,22108,-8880,10452,-1.00,-1.0
1425,8304,6304,-16872,-1.00,-1.0
1427,16720,5460,-700,-1.00,-1.0
1429,15188,4176,-3892,-1.00,-1.0
1431,16428,-2576,-492,-1.00,-1.0
1433,14048,11984,-12580,-1.00,-1.0
1435,22652,2048,13044,-1.00,-1.0
1436,12272,1880,-16936,-1.00,-1.0
1441,13176,5448,-6244,-1.00,-1.0
1443,24348,-9864,14192,-1.00,-1.0
1445,6996,2840,-12908,-1.00,-1.0
1446,21484,3296,6364,-1.00,-1.0
1449,21672,-2848,5828,-1.00,-1.0
1451,12536,-2880,-4688,-1.00,-1.0
1452,16332,5632,-1144,-1.00,-1.0
1454,18480,1000,1696,-1.00,-1.0
1456,17184,-3912,4432,-1.00,-1.0
1458,14340,4028,-2912,-1.00,-1.0
1460,18416,6584,1720,-1.00,-1.0
1462,17684,-1568,-3944,-1.00,-1.0
1464,14368,3540,-5592,-1.00,-1.0
1466,20108,168,8880,-1.00,-1.0
1468,18960,-2652,3988,-1.00,-1.0
1470,10700,3868,-13828,-1.00,-1.0
1474,26432,-8500,14448,-1.00,-1.0
1476,11216,2540,-5676,-1.00,-1.0
1478,11812,6036,-9492,-1.00,-1.0
1480,25848,-8284,15740,-1.00,-1.0
1482,13720,-1980,-1036,-1.00,-1.0
1484,13280,6076,-1988,-1.00,-1.0
1486,18340,792,-1952,-1.00,-1.0
1488,17484,-6684,6824,-1.00,-1.0
1490,17536,3836,2104,-1.00,-1.0
1492,18716,4004,-5060,-1.00,-1.0
1494,16624,-5716,-2348,-1.00,-1.0
1496,18028,1600,2380,-1.00,-1.0
1498,18688,1204,7132,-1.00,-1.0
1500,21172,-860,3292,-1.00,-1.0
1501,13388,-5756,1020,-1.00,-1.0
1506,21212,-6700,5980,-1.00,-1.0
1508,11656,-1036,1816,-1.00,-1.0
1510,22300,-1276,6996,-1.00,-1.0
1511,20804,2824,1716,-1.00,-1.0
1514,14612,-3068,-7148,-1.00,-1.0
1515,14812,72,1476,-1.00,-1.0
1517,19388,3016,332,-1.00,-1.0
1519,17132,-4148,1424,-1.00,-1.0
1521,13940,-6092,8460,-1.00,-1.0
1523,16844,5868,6216,-1.00,-1.0
1525,14136,4148,-11192,-1.00,-1.0
1527,20864,-8144,4552,-1.00,-1.0
1529,22528,-2036,8080,-1.00,-1.0
1531,17524,6268,-1204,-1.00,-1.0
1533,13808,-1196,-9156,-1.00,-1.0
1535,14676,-3308,1772,-1.00,-1.0
1539,14080,-344,-10988,-1.00,-1.0
1541,10456,-4352,188,-1.00,-1.0
1543,18060,3296,10552,-1.00,-1.0
1545,15376,1172,-260,-1.00,-1.0
1547,17816,-5036,-116,-1.00,-1.0
1549,13252,1744,-1240,-1.00,-1.0
1551,26368,2660,11548,-1.00,-1.0
1553,16908,-296,-14132,-1.00,-1.0
1555,11152,-980,-9132,-1.00,-1.0
1557,28324,-2236,26212,-1.00,-1.0
1559,10372,3188,-14472,-1.00,-1.0
1561,30840,-11668,19788,-1.00,-1.0
1563,20376,188,12240,-1.00,-1.0
1565,20200,-412,8920,-1.00,-1.0
1566,20332,-4324,2356,-1.00,-1.0
1571,28720,-3764,23328,-1.00,-1.0
1573,18636,-2144,-4560,-1.00,-1.0
1575,8092,2892,-17884,-1.00,-1.0
1577,26036,1296,13160,-1.00,-1.0
1579,18512,-3372,-764,-1.00,-1.0
1581,13892,-5204,432,-1.00,-1.0
1583,6564,9372,-13044,-1.00,-1.0
1584,26336,7672,4084,-1.00,-1.0
1587,21900,-9960,11832,-1.00,-1.0
1589,22296,-10552,14848,-1.00,-1.0
1590,18844,2648,10384,-1.00,-1.0
1592,7280,8056,-14016,-1.00,-1.0
1594,18916,-8688,3240,-1.00,-1.0
1596,14796,-2176,5800,-1.00,-1.0
1598,23916,216,16652,-1.00,-1.0
1600,11772,3476,-18892,-1.00,-1.0
1604,30544,-5568,32176,-1.00,-1.0
1606,17464,3992,-11284,-1.00,-1.0
1608,5500,6048,-24352,-1.00,-1.0
1610,27304,-2232,18832,-1.00,-1.0
1612,24032,-6076,14296,-1.00,-1.0
1614,-956,4840,-18748,-1.00,-1.0
1616,16004,5404,916,-1.00,-1.0
1618,27700,-5616,12180,-1.00,-1.0
1620,13476,-4904,-4520,-1.00,-1.0
1622,16112,6024,-4844,-1.00,-1.0
1624,18908,3788,4924,-1.00,-1.0
1626,18776,-7372,2928,-1.00,-1.0
1628,14496,5324,-9016,-1.00,-1.0
1630,20976,3176,6068,-1.00,-1.0
1631,16056,492,-5488,-1.00,-1.0
1636,18504,2720,9844,-1.00,-1.0
1638,18864,-3120,-1680,-1.00,-1.0
1639,19232,-7520,5812,-1.00,-1.0
1641,17028,3004,1272,-1.00,-1.0
1643,14016,7008,-9876,-1.00,-1.0
1645,18948,-8024,8272,-1.00,-1.0
1647,16360,-4052,8212,-1.00,-1.0
1649,13076,10168,-4984,-1.00,-1.0
1651,13716,344,-9236,-1.00,-1.0
1653,25408,-11456,19708,-1.00,-1.0
1655,18816,2892,-576,-1.00,-1.0
1657,14688,7908,-13232,-1.00,-1.0
1659,20984,-8152,252,-1.00,-1.0
1661,15344,-2788,9972,-1.00,-1.0
1663,20308,2476,9152,-1.00,-1.0
1665,10216,2264,-14604,-1.00,-1.0
1669,28496,-3432,22792,-1.00,-1.0
1671,15136,2744,-10160,-1.00,-1.0
1673,12696,-3176,-8576,-1.00,-1.0
1675,18392,2512,2876,-1.00,-1.0
1677,24256,-1472,16736,-1.00,-1.0
1679,14984,-2028,-10476,-1.00,-1.0
1681,7192,5520,-13728,-1.00,-1.0
1683,24440,-644,17792,-1.00,-1.0
1685,18472,-3956,2952,-1.00,-1.0
1687,9608,-1708,-6908,-1.00,-1.0
1688,12992,1656,2764,-1.00,-1.0
1691,19792,-2640,4800,-1.00,-1.0
1692,21972,-9028,10852,-1.00,-1.0
1694,16204,-4464,1164,-1.00,-1.0
1696,20412,5052,1756,-1.00,-1.0
1700,16112,-5896,-1988,-1.00,-1.0
1702,22356,3868,3048,-1.00,-1.0
1704,15860,4800,2672,-1.00,-1.0
1706,23704,-7008,5792,-1.00,-1.0
1708,16260,-3708,-2296,-1.00,-1.0
1710,16764,8812,-3404,-1.00,-1.0
1712,14540,292,-2440,-1.00,-1.0
1714,23224,-12116,16252,-1.00,-1.0
1716,15912,-240,-5200,-1.00,-1.0
1718,13192,12884,-16320,-1.00,-1.0
1720,21200,-5772,12664,-1.00,-1.0
1722,16804,-4424,13724,-1.00,-1.0
1724,17356,8620,880,-1.00,-1.0
1726,6216,4940,-26836,-1.00,-1.0
1728,25612,-14736,17336,-1.00,-1.0
1730,30116,-6540,20876,-1.00,-1.0
1734,17244,-7548,4288,-1.00,-1.0
1736,22192,-4424,13628,-1.00,-1.0
1738,19552,5212,5956,-1.00,-1.0
1740,8340,3844,-22736,-1.00,-1.0
1742,12232,348,184,-1.00,-1.0
1744,27892,-3636,26380,-1.00,-1.0
1746,15028,2768,-10140,-1.00,-1.0
1748,9700,-2512,-14380,-1.00,-1.0
1750,21056,-360,10252,-1.00,-1.0
1752,23672,-1896,13876,-1.00,-1.0
1753,11276,-148,-9296,-1.00,-1.0
1755,8156,2772,-7824,-1.00,-1.0
1757,27604,-28,20196,-1.00,-1.0
1759,12652,6668,-2084,-1.00,-1.0
1761,23532,-10980,19816,-1.00,-1.0
1765,17016,-592,1856,-1.00,-1.0
1767,9340,-3460,-10824,-1.00,-1.0
1769,17020,-5468,4344,-1.00,-1.0
1771,14504,12200,-9340,-1.00,-1.0
1773,15020,416,-11684,-1.00,-1.0
1775,27864,-15196,23672,-1.00,-1.0
1777,14924,4028,2972,-1.00,-1.0
1779,3368,15200,-21856,-1.00,-1.0
1781,22424,-7816,13132,-1.00,-1.0
1783,19508,-2444,7268,-1.00,-1.0
1785,21576,7816,-2288,-1.00,-1.0
1787,13672,216,-16556,-1.00,-1.0
1789,16684,-7124,10668,-1.00,-1.0
1791,22604,-2232,23304,-1.00,-1.0
1793,4648,8896,-24164,-1.00,-1.0
1797,19476,-220,8800,-1.00,-1.0
1799,21056,2496,7552,-1.00,-1.0
1801,12868,268,-13632,-1.00,-1.0
1803,13296,4596,-9972,-1.00,-1.0
1805,31572,-5576,23436,-1.00,-1.0
1807,17888,-2384,-2752,-1.00,-1.0
1809,2344,1076,-13900,-1.00,-1.0
1811,16360,3040,13564,-1.00,-1.0
1813,21036,-4328,8276,-1.00,-1.0
1815,12440,12,-12756,-1.00,-1.0
1816,12536,6916,-13700,-1.00,-1.0
1818,26740,-500,20604,-1.00,-1.0
1820,17024,-2304,-5488,-1.00,-1.0
1822,4716,6540,-20688,-1.00,-1.0
1824,17884,5532,5196,-1.00,-1.0
1826,12264,7584,-15028,-1.00,-1.0
1830,10032,13080,-13308,-1.00,-1.0
1832,25528,320,12812,-1.00,-1.0
1834,11100,-2744,-12008,-1.00,-1.0
1836,15928,-6332,9456,-1.00,-1.0
1838,18296,3844,-1148,-1.00,-1.0
1840,14920,6168,-4760,-1.00,-1.0
1842,22080,-6540,7876,-1.00,-1.0
1844,15792,1856,5416,-1.00,-1.0
1846,19624,10200,-6548,-1.00,-1.0
1848,16356,-2112,-8344,-1.00,-1.0
1850,22832,-11540,15404,-1.00,-1.0
1852,16636,6016,7212,-1.00,-1.0
1854,-472,12824,-25356,-1.00,-1.0
1856,23888,-11916,18872,-1.00,-1.0
1858,23952,-7272,10720,-1.00,-1.0
1862,14340,1796,-11184,-1.00,-1.0
1864,32767,-11940,30216,-1.00,-1.0
1866,11804,11048,-8976,-1.00,-1.0
1868,1708,13256,-20716,-1.00,-1.0
1870,30668,-14192,28772,-1.00,-1.0
1872,14336,5732,-7544,-1.00,-1.0
1873,10260,7484,-14364,-1.00,-1.0
1875,27088,-12676,15224,-1.00,-1.0
1877,19324,-6528,8392,-1.00,-1.0
1879,7752,10248,-19484,-1.00,-1.0
1881,21808,2208,11192,-1.00,-1.0
1883,25972,-8996,16152,-1.00,-1.0
1885,10544,10968,-3840,-1.00,-1.0
1887,27964,-2456,19304,-1.00,-1.0
1889,19316,-1156,-752,-1.00,-1.0
1893,15496,8868,-5424,-1.00,-1.0
1895,21064,-336,2524,-1.00,-1.0
1897,21796,-11020,12152,-1.00,-1.0
1899,9468,1172,-10168,-1.00,-1.0
1901,12508,8772,-2740,-1.00,-1.0
1903,16700,1744,-3760,-1.00,-1.0
1905,24204,-5556,14288,-1.00,-1.0
1907,11860,13416,-16932,-1.00,-1.0
1909,12104,5604,-1248,-1.00,-1.0
1911,13388,-276,5620,-1.00,-1.0
1913,17196,1068,6872,-1.00,-1.0
1915,17452,-6780,-5840,-1.00,-1.0
1917,10992,-2784,-11344,-1.00,-1.0
1919,24064,-4308,17604,-1.00,-1.0
1920,16196,5300,-7296,-1.00,-1.0
1922,14088,-3164,-4920,-1.00,-1.0
1927,16064,8168,-1324,-1.00,-1.0
1929,16788,1700,-3604,-1.00,-1.0
1930,17572,-3788,364,-1.00,-1.0
1933,19100,1204,7840,-1.00,-1.0
1934,14828,-1352,80,-1.00,-1.0
1936,18596,-8056,4068,-1.00,-1.0
1938,15608,1680,-5600,-1.00,-1.0
1940,14752,3824,4080,-1.00,-1.0
1942,29640,-9624,21116,-1.00,-1.0
1944,10768,3592,-18132,-1.00,-1.0
1946,23008,-3128,14396,-1.00,-1.0
1948,11260,7424,-5796,-1.00,-1.0
1950,14924,6052,-9892,-1.00,-1.0
1952,24556,-5732,9148,-1.00,-1.0
1954,22108,3292,4396,-1.00,-1.0
1958,13892,-4928,2492,-1.00,-1.0
1960,19664,920,140,-1.00,-1.0
1962,14704,28,-8608,-1.00,-1.0
1964,22388,-6976,9404,-1.00,-1.0
1966,16848,-4384,11004,-1.00,-1.0
1968,4732,14132,-21664,-1.00,-1.0
1970,18972,-1516,4076,-1.00,-1.0
1972,25376,-1912,7908,-1.00,-1.0
1974,20724,4948,3032,-1.00,-1.0
1976,9452,716,-8940,-1.00,-1.0
1978,8524,4640,-3980,-1.00,-1.0
1980,20920,-6252,10496,-1.00,-1.0
1982,17536,-5552,336,-1.00,-1.0
1984,12212,-4264,-612,-1.00,-1.0
1985,19152,7612,3140,-1.00,-1.0
1987,14972,1932,-12896,-1.00,-1.0
1992,14508,4728,-2992,-1.00,-1.0
1994,15068,10584,196,-1.00,-1.0
1995,18224,-2936,-3600,-1.00,-1.0
1997,11284,-4392,-2632,-1.00,-1.0
1999,25852,-716,18780,-1.00,-1.0
2001,13168,2492,-18300,-1.00,-1.0
2003,13320,-8672,3488,-1.00,-1.0
2005,11804,-880,-10136,-1.00,-1.0
2007,17368,5472,1996,-1.00,-1.0
2009,12356,2400,-18096,-1.00,-1.0
2011,23584,-7812,10872,-1.00,-1.0
2013,4816,9192,-6872,-1.00,-1.0
2015,18204,7524,2132,-1.00,-1.0
2017,27740,-9436,13880,-1.00,-1.0
2019,5812,4052,-25644,-1.00,-1.0
2023,19576,-4132,1112,-1.00,-1.0
2025,1468,3388,-22160,-1.00,-1.0
2027,18608,-4208,11720,-1.00,-1.0
2029,21128,2392,4856,-1.00,-1.0
2031,11964,1484,-8712,-1.00,-1.0
2033,11048,7404,-5960,-1.00,-1.0
2035,26584,-2780,18316,-1.00,-1.0
2037,16208,-1368,248,-1.00,-1.0
2039,7696,6636,-19408,-1.00,-1.0
2041,29104,-5540,20240,-1.00,-1.0
2043,19452,-4196,-1420,-1.00,-1.0
2045,6836,-312,-11828,-1.00,-1.0
2047,19568,872,12616,-1.00,-1.0
2049,16324,1216,-5224,-1.00,-1.0
2050,14268,-1972,-684,-1.00,-1.0
2052,16276,3352,520,-1.00,-1.0
2057,11764,1132,-6068,-1.00,-1.0
2059,14116,328,1620,-1.00,-1.0
2060,24952,-3788,17632,-1.00,-1.0
2062,14892,-1268,-13796,-1.00,-1.0
2064,9344,-792,-6280,-1.00,-1.0
2066,23160,-2968,13444,-1.00,-1.0
2068,20564,-3772,7852,-1.00,-1.0
2070,8860,1288,-15836,-1.00,-1.0
2072,17796,-632,9692,-1.00,-1.0
2074,22816,4612,1840,-1.00,-1.0
2076,17480,3876,676,-1.00,-1.0
2078,19668,-6076,11184,-1.00,-1.0
2080,18336,5368,1636,-1.00,-1.0
2082,16748,-4632,-5032,-1.00,-1.0
2084,11780,-2404,1008,-1.00,-1.0
2088,23744,-5324,12932,-1.00,-1.0
2090,12872,-2124,-6148,-1.00,-1.0
2092,13660,9808,-5684,-1.00,-1.0
2094,19400,6760,1448,-1.00,-1.0
2096,25964,-9112,20588,-1.00,-1.0
2098,10952,11824,-21296,-1.00,-1.0
2100,25236,-1720,26524,-1.00,-1.0
2102,16180,-4552,-7076,-1.00,-1.0
2104,8832,-4060,-7616,-1.00,-1.0
2106,24692,-1816,7040,-1.00,-1.0
2108,20512,-1752,3976,-1.00,-1.0
2110,17268,-6260,-556,-1.00,-1.0
2112,11672,1136,-2300,-1.00,-1.0
2114,16464,5600,-1784,-1.00,-1.0
2116,16996,-528,2112,-1.00,-1.0
2118,22688,-2960,-256,-1.00,-1.0
2122,14468,-424,-3428,-1.00,-1.0
2124,20640,-12808,19656,-1.00,-1.0
2126,19472,4484,-8152,-1.00,-1.0
2127,14336,4152,-10944,-1.00,-1.0
2130,27948,-11692,17012,-1.00,-1.0
2132,15920,1568,-2116,-1.00,-1.0
2133,3680,10868,-16436,-1.00,-1.0
2135,16476,1720,8264,-1.00,-1.0
2137,21616,-6064,13556,-1.00,-1.0
2139,17784,12588,-13500,-1.00,-1.0
2141,13848,888,-10808,-1.00,-1.0
2143,25352,-6284,15872,-1.00,-1.0
2145,21064,-1828,15640,-1.00,-1.0
2147,10076,-4060,-12816,-1.00,-1.0
2149,18592,-8324,7352,-1.00,-1.0
2153,18856,4120,-6780,-1.00,-1.0
2155,19916,-4636,7140,-1.00,-1.0
2157,11228,3124,644,-1.00,-1.0
2159,21840,4096,-3952,-1.00,-1.0
2161,18936,7492,-4508,-1.00,-1.0
2163,13840,3764,-2660,-1.00,-1.0
2165,17732,-1544,9276,-1.00,-1.0
2167,14604,-2708,8044,-1.00,-1.0
2169,10944,4952,-7304,-1.00,-1.0
2171,16720,-2936,400,-1.00,-1.0
2173,17328,-1452,-7368,-1.00,-1.0
2175,19464,-3264,10280,-1.00,-1.0
2177,15348,2388,-696,-1.00,-1.0
2179,12820,2508,-1596,-1.00,-1.0
2180,15748,2528,-9172,-1.00,-1.0
2185,23592,-2148,2356,-1.00,-1.0
2187,21168,1440,148,-1.00,-1.0
2189,10884,-48,-9720,-1.00,-1.0
2190,21172,-1812,11508,-1.00,-1.0
2193,19940,-7732,4668,-1.00,-1.0
2195,9788,2160,-8848,-1.00,-1.0
2196,12896,2180,-2960,-1.00,-1.0
2198,16232,3224,3868,-1.00,-1.0
2200,19344,-2376,6800,-1.00,-1.0
2202,9080,10236,-12376,-1.00,-1.0
2204,15540,5404,-420,-1.00,-1.0
2206,24812,-8932,17220,-1.00,-1.0
2208,10124,2412,-11108,-1.00,-1.0
2210,19536,0,7428,-1.00,-1.0
2212,21120,-6056,-4408,-1.00,-1.0
2214,13404,-2492,-4452,-1.00,-1.0
2218,18856,3756,1052,-1.00,-1.0
2220,17688,-3296,-664,-1.00,-1.0
2222,15380,4320,-4048,-1.00,-1.0
2224,14348,10496,-1664,-1.00,-1.0
2226,17672,3016,-6444,-1.00,-1.0
2228,19616,-7180,11148,-1.00,-1.0
2230,23724,-224,7660,-1.00,-1.0
2232,15276,1760,-8896,-1.00,-1.0
2234,13500,-9516,-3008,-1.00,-1.0
2236,26944,-5152,18220,-1.00,-1.0
2238,13376,2760,-17396,-1.00,-1.0
2240,17260,-3148,3804,-1.00,-1.0
2242,18932,-5460,9544,-1.00,-1.0
2244,17104,9168,-420,-1.00,-1.0
2245,7564,5268,-19164,-1.00,-1.0
2247,22004,-1844,14680,-1.00,-1.0
2252,948,9104,-19180,-1.00,-1.0
2254,11396,-472,688,-1.00,-1.0
2255,26308,-7048,23292,-1.00,-1.0
2258,13456,-476,-14808,-1.00,-1.0
2259,10804,6168,-11132,-1.00,-1.0
2261,20300,-48,5932,-1.00,-1.0
2263,21816,-3628,13564,-1.00,-1.0
2265,6900,5360,-13280,-1.00,-1.0
2267,20508,2316,5020,-1.00,-1.0
2269,24688,-5724,1624,-1.00,-1.0
2271,12992,-4244,-3532,-1.00,-1.0
2273,28432,-4972,19168,-1.00,-1.0
2275,18092,-600,-6064,-1.00,-1.0
2277,13372,-8764,-5592,-1.00,-1.0
2279,3948,5316,-18140,-1.00,-1.0
2283,16744,-1116,5040,-1.00,-1.0
2285,14764,944,4800,-1.00,-1.0
2287,15364,8756,1776,-1.00,-1.0
2289,20604,-500,9904,-1.00,-1.0
2291,14296,7112,-5640,-1.00,-1.0
2293,20968,20,6160,-1.00,-1.0
2295,22460,-6676,-9540,-1.00,-1.0
2297,17160,-5404,460,-1.00,-1.0
2299,25800,-5404,13784,-1.00,-1.0
2301,17072,60,468,-1.00,-1.0
2303,10736,-5636,-2772,-1.00,-1.0
2304,18332,-1336,4664,-1.00,-1.0
2307,19736,4420,1356,-1.00,-1.0
2309,13516,5244,-6624,-1.00,-1.0
2310,16932,3456,1996,-1.00,-1.0
2312,16388,112,16156,-1.00,-1.0
2317,11084,3756,-5760,-1.00,-1.0
2319,16888,872,-7580,-1.00,-1.0
2320,23868,-9812,21744,-1.00,-1.0
2322,9908,2220,-12492,-1.00,-1.0
2324,9368,6776,-3820,-1.00,-1.0
2326,19980,-1284,-2284,-1.00,-1.0
2328,21856,-3868,9796,-1.00,-1.0
2330,17284,1932,-5960,-1.00,-1.0
2332,18800,1056,8320,-1.00,-1.0
2334,12900,-7380,-3044,-1.00,-1.0
2336,20552,672,9112,-1.00,-1.0
2338,22976,-7400,-3076,-1.00,-1.0
2340,17536,-7360,4696,-1.00,-1.0
2342,22536,-4876,8236,-1.00,-1.0
2344,15524,4500,-3512,-1.00,-1.0
2348,20380,-1704,6636,-1.00,-1.0
2350,15320,8652,-3892,-1.00,-1.0
2352,13004,4280,-4504,-1.00,-1.0
2354,18268,-1108,3208,-1.00,-1.0
2356,19436,5124,3792,-1.00,-1.0
2358,22996,-3692,11784,-1.00,-1.0
2360,16356,-9480,2280,-1.00,-1.0
2362,15108,-2292,-3752,-1.00,-1.0
2364,23700,-3540,5396,-1.00,-1.0
2366,20232,-6200,-1896,-1.00,-1.0
2368,19004,-4708,5212,-1.00,-1.0
2369,17120,2680,-2124,-1.00,-1.0
2371,14192,3424,-2520,-1.00,-1.0
2373,19700,652,3352,-1.00,-1.0
2375,20508,1592,1788,-1.00,-1.0
2377,14736,1228,1040,-1.00,-1.0
2381,18084,-5016,18624,-1.00,-1.0
2383,11612,-5756,-3896,-1.00,-1.0
2385,14380,4544,740,-1.00,-1.0
2387,14988,6568,-15008,-1.00,-1.0
2389,24892,-6692,11900,-1.00,-1.0
2391,17788,-4128,2100,-1.00,-1.0
2393,5048,11700,-8456,-1.00,-1.0
2395,17536,44,4484,-1.00,-1.0
2397,26968,-5128,11288,-1.00,-1.0
2399,19412,-3352,-6488,-1.00,-1.0
2401,13892,1460,5204,-1.00,-1.0
2403,5428,4336,-2840,-1.00,-1.0
2405,14072,1260,-3784,-1.00,-1.0
2407,21920,-4044,6632,-1.00,-1.0
2409,14336,1080,-7052,-1.00,-1.0
2410,13504,6204,-2888,-1.00,-1.0
2415,16760,360,-2728,-1.00,-1.0
2417,11940,4468,-11264,-1.00,-1.0
2418,22688,876,8944,-1.00,-1.0
2421,23696,-8188,8564,-1.00,-1.0
2422,6936,12,-9748,-1.00,-1.0
2424,21456,-876,14076,-1.00,-1.0
2426,22396,-5856,-3660,-1.00,-1.0
2428,16324,-4616,-4752,-1.00,-1.0
2430,21292,-1812,2544,-1.00,-1.0
2432,17508,4812,2804,-1.00,-1.0
2434,15548,868,-1080,-1.00,-1.0
2436,12872,4768,-6928,-1.00,-1.0
2438,24960,-1568,13252,-1.00,-1.0
2440,14224,4500,-8920,-1.00,-1.0
2442,14624,3988,-3084,-1.00,-1.0
2446,16288,-4196,8668,-1.00,-1.0
2448,8884,8320,-10632,-1.00,-1.0
2450,11680,6188,-3816,-1.00,-1.0
2452,20648,-3888,8140,-1.00,-1.0
2454,11632,3140,-3360,-1.00,-1.0
2456,11384,7840,-4020,-1.00,-1.0
2458,17636,2124,-2012,-1.00,-1.0
2460,15892,-3280,836,-1.00,-1.0
2462,19836,-412,5336,-1.00,-1.0
2464,19228,-6776,9928,-1.00,-1.0
2466,14092,-2492,528,-1.00,-1.0
2468,17504,4296,-1340,-1.00,-1.0
2470,16180,388,2624,-1.00,-1.0
2472,15352,-3464,404,-1.00,-1.0
2473,14172,676,3332,-1.00,-1.0
2475,14640,8748,-5712,-1.00,-1.0
2480,15772,-216,892,-1.00,-1.0
2482,19480,6380,3772,-1.00,-1.0
2483,14724,4268,-7584,-1.00,-1.0
2485,10220,476,-2808,-1.00,-1.0
2487,18268,-4016,9692,-1.00,-1.0
2489,18392,-3936,12476,-1.00,-1.0
2491,4768,2896,-22772,-1.00,-1.0
2493,22708,-1528,12788,-1.00,-1.0
2495,24264,-2144,-1040,-1.00,-1.0
2497,16900,392,-768,-1.00,-1.0
2499,13336,3636,-7080,-1.00,-1.0
2501,17964,3596,8760,-1.00,-1.0
2503,17584,-1836,408,-1.00,-1.0
2505,19876,-1264,2936,-1.00,-1.0
2507,20516,-1904,-192,-1.00,-1.0
2509,16748,-2324,-1332,-1.00,-1.0
2513,15972,-1104,-5832,-1.00,-1.0
2515,15676,-2628,4308,-1.00,-1.0
2517,17760,1880,-988,-1.00,-1.0
2519,16980,2080,1940,-1.00,-1.0
2521,18688,2400,-4228,-1.00,-1.0
2523,18960,3692,2824,-1.00,-1.0
2525,19880,-128,5368,-1.00,-1.0
2527,16136,-3256,3096,-1.00,-1.0
2529,19644,-840,3884,-1.00,-1.0
2531,19368,-4328,7020,-1.00,-1.0
2532,22000,-8744,13216,-1.00,-1.0
2535,9156,3140,-14168,-1.00,-1.0
2537,14980,2276,392,-1.00,-1.0
2538,26640,-5356,10480,-1.00,-1.0
2540,16816,80,-1072,-1.00,-1.0
2545,18536,676,5508,-1.00,-1.0
2547,22364,-5016,11372,-1.00,-1.0
2548,20680,-140,2868,-1.00,-1.0
2550,13064,376,-13820,-1.00,-1.0
2552,17272,-272,3252,-1.00,-1.0
2554,21560,-5456,10984,-1.00,-1.0
2556,17632,-2740,3564,-1.00,-1.0
2558,9644,652,-13328,-1.00,-1.0
2560,16188,4220,2628,-1.00,-1.0
2562,24492,-1796,7740,-1.00,-1.0
2564,19156,2860,-4084,-1.00,-1.0
2566,16496,5888,-7328,-1.00,-1.0
2568,19012,-32,7420,-1.00,-1.0
2570,17144,-728,76,-1.00,-1.0
2572,18856,-216,4328,-1.00,-1.0
2574,16200,-172,-7096,-1.00,-1.0
2578,18624,2380,2420,-1.00,-1.0
2580,17768,1200,-2068,-1.00,-1.0
2582,15336,360,-5636,-1.00,-1.0
2584,13240,6164,-4112,-1.00,-1.0
2586,17800,1988,4588,-1.00,-1.0
2588,18308,-1764,5020,-1.00,-1.0
2590,12568,5796,-16200,-1.00,-1.0
2592,21292,352,14788,-1.00,-1.0
2594,17124,-8896,336,-1.00,-1.0
2596,6028,1632,-4304,-1.00,-1.0
2597,23512,-4800,20244,-1.00,-1.0
2599,24576,-1572,9076,-1.00,-1.0
2601,6260,1400,-30580,-1.00,-1.0
2603,22592,-2372,17808,-1.00,-1.0
2605,22500,-1656,6424,-1.00,-1.0
2607,6912,7512,-11552,-1.00,-1.0
2612,21780,-3900,14456,-1.00,-1.0
2614,9824,-508,-10064,-1.00,-1.0
2615,19960,2904,10656,-1.00,-1.0
2617,23128,-6680,-780,-1.00,-1.0
2619,12508,-5620,-3808,-1.00,-1.0
2621,21196,-2012,6256,-1.00,-1.0
2623,15312,4252,-5316,-1.00,-1.0
2625,15780,-2244,880,-1.00,-1.0
2627,15940,172,696,-1.00,-1.0
2629,15504,3252,5056,-1.00,-1.0
2631,15464,8208,-7428,-1.00,-1.0
2633,20752,-1096,1860,-1.00,-1.0
2635,19100,-5356,9332,-1.00,-1.0
2637,11512,4100,-4452,-1.00,-1.0
2639,15216,-2480,2972,-1.00,-1.0
2643,16556,-3780,-1268,-1.00,-1.0
2645,16544,5532,-564,-1.00,-1.0
2647,17620,-768,-1260,-1.00,-1.0
2649,20260,-2604,6344,-1.00,-1.0
2651,13888,5200,-10536,-1.00,-1.0
2653,17848,1104,1548,-1.00,-1.0
2655,18524,-5784,9772,-1.00,-1.0
2657,13368,2812,-6048,-1.00,-1.0
2659,15672,-1356,-4064,-1.00,-1.0
2661,21400,-4604,6200,-1.00,-1.0
2662,7528,528,-12052,-1.00,-1.0
2664,13624,2852,2720,-1.00,-1.0
2666,19796,-1368,2720,-1.00,-1.0
2668,20304,-3992,5428,-1.00,-1.0
2670,11956,4376,-13056,-1.00,-1.0
2672,15740,5116,4796,-1.00,-1.0
2676,19556,-2084,3108,-1.00,-1.0
2678,13788,2660,-7004,-1.00,-1.0
2680,16512,724,1652,-1.00,-1.0
2682,18768,-6004,7328,-1.00,-1.0
2684,18176,-2872,3336,-1.00,-1.0
2686,8408,5296,-13192,-1.00,-1.0
2688,19260,-172,8208,-1.00,-1.0
2690,22396,-5316,8028,-1.00,-1.0
2692,14560,2584,-4220,-1.00,-1.0
2694,13964,5696,-5180,-1.00,-1.0
2696,22528,-3828,6668,-1.00,-1.0
2698,14200,-244,132,-1.00,-1.0
2700,15232,2144,168,-1.00,-1.0
2702,19804,-4136,8132,-1.00,-1.0
2704,17704,-4288,-3280,-1.00,-1.0
2705,18576,-200,1400,-1.00,-1.0
2710,12756,328,-10636,-1.00,-1.0
2712,19264,1864,6512,-1.00,-1.0
2714,14432,5676,-6912,-1.00,-1.0
2716,9856,2872,-6940,-1.00,-1.0
2718,16584,2472,2728,-1.00,-1.0
2719,19388,2572,248,-1.00,-1.0
2721,14188,-3452,-7156,-1.00,-1.0
2723,18764,-1628,6568,-1.00,-1.0
2725,17640,1832,1160,-1.00,-1.0
2727,18868,-4180,2608,-1.00,-1.0
2729,15136,-3932,-552,-1.00,-1.0
2731,20800,1040,7964,-1.00,-1.0
2733,17392,4032,-9692,-1.00,-1.0
2735,18252,-2800,-344,-1.00,-1.0
2737,22328,2832,6284,-1.00,-1.0
2741,11316,260,604,-1.00,-1.0
2743,19168,2496,2272,-1.00,-1.0
2745,18496,-148,268,-1.00,-1.0
2747,10652,3688,-13328,-1.00,-1.0
2749,21668,-852,14692,-1.00,-1.0
2751,20860,484,1952,-1.00,-1.0
2753,7604,3344,-17396,-1.00,-1.0
2755,16708,2292,2468,-1.00,-1.0
2757,22800,2044,8988,-1.00,-1.0
2759,16480,1596,-4612,-1.00,-1.0
2761,11680,8948,-13456,-1.00,-1.0
2763,19708,-1072,8408,-1.00,-1.0
2765,19944,-5776,14084,-1.00,-1.0
2767,12648,5196,-7388,-1.00,-1.0
2768,15512,2384,-7744,-1.00,-1.0
2770,18432,-4172,5180,-1.00,-1.0
2775,10768,7748,-14340,-1.00,-1.0
2777,14760,-200,3412,-1.00,-1.0
2778,15976,-1616,5804,-1.00,-1.0
2780,14196,8308,-11704,-1.00,-1.0
2782,15912,48,6256,-1.00,-1.0
2784,19776,-4420,11592,-1.00,-1.0
2786,16296,1416,-3116,-1.00,-1.0
2788,13700,2876,-7732,-1.00,-1.0
2790,21476,-2992,4860,-1.00,-1.0
2792,20372,-2804,4716,-1.00,-1.0
2794,15388,-820,-1368,-1.00,-1.0
2796,12324,1888,-3888,-1.00,-1.0
2798,18832,1184,4608,-1.00,-1.0
2800,18248,344,-924,-1.00,-1.0
2802,17476,2492,-2676,-1.00,-1.0
2804,18788,1820,5680,-1.00,-1.0
2808,16432,2908,-176,-1.00,-1.0
2810,18896,-816,-2372,-1.00,-1.0
2812,19324,-3100,5064,-1.00,-1.0
2814,15920,-1380,1372,-1.00,-1.0
2816,13996,2088,2392,-1.00,-1.0
2818,15912,-1640,-3908,-1.00,-1.0
2820,21400,2688,4256,-1.00,-1.0
2822,16940,1348,-10300,-1.00,-1.0
2824,17620,-2204,10548,-1.00,-1.0
2826,14496,136,1976,-1.00,-1.0
2827,14944,-1340,5476,-1.00,-1.0
2830,14392,-2776,-6036,-1.00,-1.0
2831,24512,-524,8756,-1.00,-1.0
2833,11796,732,320,-1.00,-1.0
2835,20652,-4508,10492,-1.00,-1.0
2839,14220,4844,-3500,-1.00,-1.0
2841,15032,-2016,-2932,-1.00,-1.0
2843,14556,1904,-1280,-1.00,-1.0
2845,13000,4584,-5112,-1.00,-1.0
2847,19012,-1476,6700,-1.00,-1.0
2849,16868,-348,672,-1.00,-1.0
2851,15628,3068,-2048,-1.00,-1.0
2853,19968,-3672,1344,-1.00,-1.0
2855,14324,488,-1280,-1.00,-1.0
2857,17344,-964,2932,-1.00,-1.0
2859,21028,-2164,6352,-1.00,-1.0
2861,7720,2840,-15720,-1.00,-1.0
2863,21456,-272,15980,-1.00,-1.0
2865,22824,-3108,1112,-1.00,-1.0
2867,7112,7176,-17788,-1.00,-1.0
2869,19720,1128,5020,-1.00,-1.0
2873,6708,900,-11712,-1.00,-1.0
2875,11728,7060,-3428,-1.00,-1.0
2877,24824,-3708,9296,-1.00,-1.0
2879,18440,-4296,-444,-1.00,-1.0
2881,15864,7116,-6148,-1.00,-1.0
2883,14276,4704,-7592,-1.00,-1.0
2885,20156,-4940,13260,-1.00,-1.0
2886,12072,4948,-7888,-1.00,-1.0
2889,13412,3684,1288,-1.00,-1.0
2890,20108,-6484,9644,-1.00,-1.0
2892,16060,4692,-4256,-1.00,-1.0
2894,23308,-2480,15312,-1.00,-1.0
2896,20632,-5036,4444,-1.00,-1.0
2898,7224,5608,-14368,-1.00,-1.0
2900,19548,1192,36,-1.00,-1.0
2902,26196,-6168,16360,-1.00,-1.0
2906,15232,7144,1048,-1.00,-1.0
2908,17640,128,-3676,-1.00,-1.0
2910,17984,-5196,11148,-1.00,-1.0
2912,23264,1412,2320,-1.00,-1.0
2914,11864,3888,-12548,-1.00,-1.0
2916,13528,-4048,-2352,-1.00,-1.0
2918,26684,-2768,21456,-1.00,-1.0
2920,14244,1416,-11520,-1.00,-1.0
2922,10288,188,-9560,-1.00,-1.0
2924,24788,-3476,15328,-1.00,-1.0
2926,17608,1232,-1460,-1.00,-1.0
2928,12340,2100,-8572,-1.00,-1.0
2930,18528,2812,-88,-1.00,-1.0
2932,19312,-4768,9900,-1.00,-1.0
2933,15072,628,-1116,-1.00,-1.0
2938,18276,-2396,8332,-1.00,-1.0
2940,17412,-1032,732,-1.00,-1.0
2941,16116,1100,-5252,-1.00,-1.0
2943,18456,-3448,3516,-1.00,-1.0
2945,18724,1308,-88,-1.00,-1.0
2947,16364,-260,2772,-1.00,-1.0
2949,19776,-1876,-288,-1.00,-1.0
2951,13048,3212,-4012,-1.00,-1.0
2953,17044,388,4536,-1.00,-1.0
2955,20676,-2320,10208,-1.00,-1.0
2957,10344,5348,-13052,-1.00,-1.0
2959,17276,2728,1564,-1.00,-1.0
2961,21620,-5012,6428,-1.00,-1.0
2963,13644,1616,-744,-1.00,-1.0
2965,14132,5164,-5416,-1.00,-1.0
2967,14144,-8,-3744,-1.00,-1.0
2971,16016,1652,216,-1.00,-1.0
2973,14872,-604,4348,-1.00,-1.0
2975,14460,3980,-4256,-1.00,-1.0
2977,21704,1020,6376,-1.00,-1.0
2979,18176,-2680,-6820,-1.00,-1.0
2981,17556,1256,3704,-1.00,-1.0
2983,16576,212,-1036,-1.00,-1.0
2985,17528,-7052,10260,-1.00,-1.0
2987,12252,2448,-10020,-1.00,-1.0
2989,15388,2296,3484,-1.00,-1.0
2991,22396,-6612,8672,-1.00,-1.0
2992,14500,3476,-1116,-1.00,-1.0
2994,13536,4208,-7064,-1.00,-1.0
2996,21792,-6140,10496,-1.00,-1.0
2998,18972,-3192,1452,-1.00,-1.0
3003,18188,-5324,2108,-1.00,-1.0
3005,16432,1172,1228,-1.00,-1.0
3006,14996,1392,-8176,-1.00,-1.0
3008,25528,-7848,17152,-1.00,-1.0
3010,13752,2752,-9596,-1.00,-1.0
3012,9348,4844,-2764,-1.00,-1.0
3014,26320,-11220,18780,-1.00,-1.0
3016,4720,3592,-17436,-1.00,-1.0
3018,26484,-2868,18780,-1.00,-1.0
3020,20492,-556,6264,-1.00,-1.0
3022,5972,1012,-13900,-1.00,-1.0
3024,17860,2584,4944,-1.00,-1.0
3026,21676,728,1724,-1.00,-1.0
3028,16952,-2804,-2088,-1.00,-1.0
3030,18420,3856,-1636,-1.00,-1.0
3032,14896,4156,-1832,-1.00,-1.0
3036,12752,1844,-4200,-1.00,-1.0
3038,17156,1608,6820,-1.00,-1.0
3040,19576,-6152,5768,-1.00,-1.0
3042,14120,5588,-10504,-1.00,-1.0
3044,18480,732,-356,-1.00,-1.0
3046,22028,-6708,5708,-1.00,-1.0
3048,16972,524,8112,-1.00,-1.0
3050,8956,7928,-13004,-1.00,-1.0
3052,20228,-6700,8608,-1.00,-1.0
3054,18992,-1120,1016,-1.00,-1.0
3055,17964,4504,-1204,-1.00,-1.0
3057,17656,-348,-4436,-1.00,-1.0
3059,13936,1896,2528,-1.00,-1.0
3061,18776,-644,8076,-1.00,-1.0
3063,18976,-5560,3452,-1.00,-1.0
3065,16104,-5108,-364,-1.00,-1.0
3069,24516,-6336,6068,-1.00,-1.0
3071,9156,3664,-10536,-1.00,-1.0
3073,16792,5224,5724,-1.00,-1.0
3075,15956,3536,-4856,-1.00,-1.0
3077,18108,-6808,6652,-1.00,-1.0
3079,22272,4092,4064,-1.00,-1.0
3081,11940,1512,-7900,-1.00,-1.0
3083,15600,-4796,1700,-1.00,-1.0
3085,24112,-6924,20056,-1.00,-1.0
3087,15676,3520,-8584,-1.00,-1.0
3089,8076,1352,-11156,-1.00,-1.0
3091,31164,-8220,19624,-1.00,-1.0
3093,23584,-3300,3296,-1.00,-1.0
3095,4012,5048,-24180,-1.00,-1.0
3097,18992,-3684,23292,-1.00,-1.0
3101,7900,5844,-16540,-1.00,-1.0
3103,18148,1644,-6524,-1.00,-1.0
3105,31556,-10388,25376,-1.00,-1.0
3107,11484,1836,-11412,-1.00,-1.0
3109,7564,8204,-7396,-1.00,-1.0
3111,25920,-10004,16932,-1.00,-1.0
3113,18060,-396,5140,-1.00,-1.0
3114,11272,7764,-17424,-1.00,-1.0
3117,20988,-1972,3648,-1.00,-1.0
3118,20372,-3152,5452,-1.00,-1.0
3120,13416,5040,-2160,-1.00,-1.0
3122,14320,-452,3268,-1.00,-1.0
3124,15020,1532,-1920,-1.00,-1.0
3126,18028,1432,4724,-1.00,-1.0
3128,20160,-3760,-1784,-1.00,-1.0
3130,12960,-2340,-6440,-1.00,-1.0
3134,21648,-4568,7844,-1.00,-1.0
3136,9216,1860,-19476,-1.00,-1.0
3138,19352,2024,11948,-1.00,-1.0
3140,24020,-4176,6300,-1.00,-1.0
3142,9200,3120,-6244,-1.00,-1.0
3144,16324,4684,-4036,-1.00,-1.0
3146,21672,-176,6308,-1.00,-1.0
3148,14392,64,-5312,-1.00,-1.0
3150,13936,4848,-432,-1.00,-1.0
3152,20092,-1548,1688,-1.00,-1.0
3154,16976,-5108,-3988,-1.00,-1.0
3156,21024,1212,10124,-1.00,-1.0
3158,13304,2420,-8372,-1.00,-1.0
3160,18436,-9104,10264,-1.00,-1.0
3162,17860,-1388,4060,-1.00,-1.0
3167,8464,2936,-8748,-1.00,-1.0
3169,16628,2952,-108,-1.00,-1.0
3170,22708,736,9608,-1.00,-1.0
3172,9824,716,-10604,-1.00,-1.0
3174,19336,2208,9084,-1.00,-1.0
3176,20064,-2612,-2036,-1.00,-1.0
3178,10152,-1252,-4048,-1.00,-1.0
3180,20064,-2152,6684,-1.00,-1.0
3182,19148,1268,1836,-1.00,-1.0
3184,12388,-796,-13388,-1.00,-1.0
3186,13360,-2884,8568,-1.00,-1.0
3188,16608,6752,180,-1.00,-1.0
3190,17248,-756,-8060,-1.00,-1.0
3192,17008,-4296,-2100,-1.00,-1.0
3194,21520,716,11248,-1.00,-1.0
3196,16640,-840,-2172,-1.00,-1.0
3200,25988,-3340,18880,-1.00,-1.0
3202,18368,3888,-14652,-1.00,-1.0
3204,13964,-4160,-13456,-1.00,-1.0
3206,26668,-7080,26640,-1.00,-1.0
3208,14796,7968,1648,-1.00,-1.0
3210,696,8084,-24216,-1.00,-1.0
3212,28616,-5496,13284,-1.00,-1.0
3213,24552,-876,9520,-1.00,-1.0
3215,9872,6032,-7564,-1.00,-1.0
3217,15220,4024,-2740,-1.00,-1.0
3219,21080,-4988,5928,-1.00,-1.0
3221,13872,0,-3460,-1.00,-1.0
3223,18564,1156,1940,-1.00,-1.0
3225,17712,2032,-2608,-1.00,-1.0
3227,10160,884,-2196,-1.00,-1.0
3231,16052,4112,-6312,-1.00,-1.0
3233,13256,4692,-7412,-1.00,-1.0
3235,18504,-172,12048,-1.00,-1.0
3237,16940,-792,6260,-1.00,-1.0
3239,6356,7640,-16808,-1.00,-1.0
3241,20560,1224,1324,-1.00,-1.0
3243,11884,-132,-5976,-1.00,-1.0
3245,13976,-6976,1080,-1.00,-1.0
3247,25808,-2532,8232,-1.00,-1.0
3249,16732,3520,-8244,-1.00,-1.0
3251,17432,-4416,-3256,-1.00,-1.0
3253,19456,-2952,16224,-1.00,-1.0
3255,15692,4924,-460,-1.00,-1.0
3257,14844,-1112,-3288,-1.00,-1.0
3259,20576,472,-2532,-1.00,-1.0
3261,26108,-3208,13304,-1.00,-1.0
3265,9984,2992,-5952,-1.00,-1.0
3267,18448,-124,5984,-1.00,-1.0
3269,20852,-4740,4596,-1.00,-1.0
3271,15056,2968,-6788,-1.00,-1.0
3273,17852,4748,-3204,-1.00,-1.0
3275,17852,-1364,5900,-1.00,-1.0
3276,14512,3684,-2996,-1.00,-1.0
3278,13484,5344,-4124,-1.00,-1.0
3280,20848,-4180,5284,-1.00,-1.0
3282,12984,4032,1160,-1.00,-1.0
3284,14304,4984,-6152,-1.00,-1.0
3286,20448,-4276,4284,-1.00,-1.0
3288,10544,2064,-8912,-1.00,-1.0
3290,13284,5328,6044,-1.00,-1.0
3292,21668,-1400,2756,-1.00,-1.0
3294,18224,-5780,1784,-1.00,-1.0
3298,22116,-368,4064,-1.00,-1.0
3300,10392,1344,-6276,-1.00,-1.0
3302,10976,5792,1168,-1.00,-1.0
3304,21832,-432,1520,-1.00,-1.0
3306,10196,-1344,-4856,-1.00,-1.0
3308,15244,1592,3036,-1.00,-1.0
3310,17228,684,4596,-1.00,-1.0
3312,18316,-4056,5240,-1.00,-1.0
3314,12728,2704,-8728,-1.00,-1.0
3316,20088,4564,2256,-1.00,-1.0
3318,23576,-4548,6204,-1.00,-1.0
3320,11712,5220,-8540,-1.00,-1.0
3322,12072,7580,-3724,-1.00,-1.0
3324,24092,-2748,13284,-1.00,-1.0
3326,12920,2920,-4148,-1.00,-1.0
3330,21452,-3412,5116,-1.00,-1.0
3332,16048,-4652,4776,-1.00,-1.0
3334,9492,8412,-4436,-1.00,-1.0
3336,11604,7696,-9308,-1.00,-1.0
3338,19872,-6028,5360,-1.00,-1.0
3340,20996,7276,-2128,-1.00,-1.0
3341,10488,6412,-12844,-1.00,-1.0
3343,20708,-11464,19844,-1.00,-1.0
3345,14252,2188,2868,-1.00,-1.0
3347,8880,8208,-16784,-1.00,-1.0
3349,25664,-8696,3480,-1.00,-1.0
3351,19668,-1664,5692,-1.00,-1.0
3353,14048,4132,3636,-1.00,-1.0
3355,15536,-1112,3084,-1.00,-1.0
3357,7640,44,-13044,-1.00,-1.0
3359,16436,5324,1388,-1.00,-1.0
3363,6456,-612,-5056,-1.00,-1.0
3365,18868,-1660,13412,-1.00,-1.0
3367,21484,-2860,1516,-1.00,-1.0
3369,20904,-9572,16112,-1.00,-1.0
3371,32767,-8152,32767,-1.00,-1.0
3373,24056,-3504,-2428,-1.00,-1.0
3375,29936,-14480,26200,-1.00,-1.0
3377,15648,2544,-2012,-1.00,-1.0
3379,4272,16296,-23264,-1.00,-1.0
3381,22684,-3228,7048,-1.00,-1.0
3383,20288,-4440,11316,-1.00,-1.0
3385,13620,3448,-836,-1.00,-1.0
3387,7556,3608,-10268,-1.00,-1.0
3389,15444,-1848,2616,-1.00,-1.0
3390,23376,-6576,12288,-1.00,-1.0
3395,16472,5904,-4568,-1.00,-1.0
3397,17324,1092,-560,-1.00,-1.0
3399,22736,-10544,17008,-1.00,-1.0
3400,9916,716,-7360,-1.00,-1.0
3403,11800,8148,-3840,-1.00,-1.0
3405,26004,-7824,11432,-1.00,-1.0
3406,14232,-4284,2696,-1.00,-1.0
3408,20300,-208,2140,-1.00,-1.0
3410,20236,660,-1452,-1.00,-1.0
3412,11428,204,-11832,-1.00,-1.0
3414,25008,-3396,21140,-1.00,-1.0
3416,21008,-2432,2120,-1.00,-1.0
3418,9804,236,-7376,-1.00,-1.0
3420,14700,1064,-1340,-1.00,-1.0
3422,29312,-7256,17380,-1.00,-1.0
3424,17656,-5944,-3004,-1.00,-1.0
3428,17132,288,-960,-1.00,-1.0
3430,21780,-8256,14512,-1.00,-1.0
3432,8712,2888,-15400,-1.00,-1.0
3434,29140,-5212,22200,-1.00,-1.0
3436,23668,-4152,3708,-1.00,-1.0
3438,-1284,10176,-24040,-1.00,-1.0
3440,18992,-3272,15208,-1.00,-1.0
3442,28716,-9748,23100,-1.00,-1.0
3444,2072,6592,-32768,-1.00,-1.0
3446,19864,3632,132,-1.00,-1.0
3447,32767,-9476,25684,-1.00,-1.0
3450,5396,792,-6216,-1.00,-1.0
3452,13768,3748,-4888,-1.00,-1.0
3453,25076,-3672,5588,-1.00,-1.0
3455,15304,-2504,-8612,-1.00,-1.0
3459,19040,528,-4056,-1.00,-1.0
3461,4564,-704,-740,-1.00,-1.0
3463,28716,-4144,20632,-1.00,-1.0
3465,20028,1948,-13884,-1.00,-1.0
3467,9520,-2268,-17212,-1.00,-1.0
3469,32767,-7860,32767,-1.00,-1.0
3471,11188,5272,-18160,-1.00,-1.0
3473,1724,1796,-17308,-1.00,-1.0
3475,30692,-8424,32592,-1.00,-1.0
3477,17688,3084,1056,-1.00,-1.0
3479,6924,1204,-23576,-1.00,-1.0
3481,14644,-5900,10644,-1.00,-1.0
3483,22380,-724,11136,-1.00,-1.0
3485,17396,-1140,-6388,-1.00,-1.0
3487,18088,-5928,-1932,-1.00,-1.0
3489,23592,-776,10772,-1.00,-1.0
3493,20588,5364,-9240,-1.00,-1.0
3495,8428,8544,-10908,-1.00,-1.0
3497,25084,-5736,3052,-1.00,-1.0
3499,7936,1328,-24684,-1.00,-1.0
3501,26776,-1148,20052,-1.00,-1.0
3503,23880,-2320,9732,-1.00,-1.0
3505,5712,-436,-6372,-1.00,-1.0
3507,23232,412,7592,-1.00,-1.0
3509,22780,312,-1040,-1.00,-1.0
3510,16188,-4160,-3468,-1.00,-1.0
3512,17940,1832,9752,-1.00,-1.0
3514,15148,712,828,-1.00,-1.0
3516,13788,-5012,3192,-1.00,-1.0
3518,22928,-252,-700,-1.00,-1.0
3520,20988,1512,-6032,-1.00,-1.0
3524,22184,88,20292,-1.00,-1.0
3526,6224,7900,-13640,-1.00,-1.0
3528,13148,-2880,-4080,-1.00,-1.0
3530,25068,-4284,10132,-1.00,-1.0
3532,19024,4488,-2212,-1.00,-1.0
3534,14776,-1272,-4212,-1.00,-1.0
3536,16108,4088,-728,-1.00,-1.0
3538,17664,1936,5204,-1.00,-1.0
3540,18544,-4452,4780,-1.00,-1.0
3542,12708,6336,-5584,-1.00,-1.0
3544,15788,5192,-3400,-1.00,-1.0
3546,23820,-7648,13216,-1.00,-1.0
3548,15932,3748,-9496,-1.00,-1.0
3550,5988,10960,-16920,-1.00,-1.0
3552,22028,-1080,432,-1.00,-1.0
3554,3496,2936,-26440,-1.00,-1.0
3558,25180,-8760,6484,-1.00,-1.0
3560,20560,-1876,7996,-1.00,-1.0
3562,6152,9540,-10800,-1.00,-1.0
3564,27680,-3872,9876,-1.00,-1.0
3566,12756,-3496,-8804,-1.00,-1.0
3568,13640,3872,7788,-1.00,-1.0
3570,18568,-8,7472,-1.00,-1.0
3571,15544,-2636,964,-1.00,-1.0
3574,3756,776,-14640,-1.00,-1.0
3576,32767,-6928,32767,-1.00,-1.0
3577,19456,-2360,-6612,-1.00,-1.0
3579,-1988,6624,-27256,-1.00,-1.0
3581,32767,-11464,32767,-1.00,-1.0
3583,19132,2240,-4884,-1.00,-1.0
3585,2352,9676,-27956,-1.00,-1.0
3589,23592,-4632,16696,-1.00,-1.0
3591,15376,4692,-4372,-1.00,-1.0
3593,7168,9196,-26056,-1.00,-1.0
3595,21068,-9336,17896,-1.00,-1.0
3597,27152,-2176,29668,-1.00,-1.0
3599,3644,12948,-32768,-1.00,-1.0
3601,13876,-4004,-2608,-1.00,-1.0
3603,24768,-10044,25308,-1.00,-1.0
3605,18932,4412,3284,-1.00,-1.0
3607,5576,8264,-29816,-1.00,-1.0
3609,13984,-532,1988,-1.00,-1.0
3611,32767,-10932,32767,-1.00,-1.0
3613,7496,5136,-22548,-1.00,-1.0
3615,1492,7104,-29456,-1.00,-1.0
3617,32760,-9620,32767,-1.00,-1.0
3619,332,18044,-30220,-1.00,-1.0
3623,14752,-60,-340,-1.00,-1.0
3625,32767,-10152,32767,-1.00,-1.0
3627,3888,7488,-26280,-1.00,-1.0
3629,3688,5372,-27440,-1.00,-1.0
3631,32540,-11424,32767,-1.00,-1.0
3633,23428,-2364,16728,-1.00,-1.0
3635,24820,-3892,14420,-1.00,-1.0
3637,32767,-17352,32767,-1.00,-1.0
3639,412,12628,-32768,-1.00,-1.0
3641,7160,15932,-18432,-1.00,-1.0
3642,32767,-14960,28056,-1.00,-1.0
3645,23552,-7580,13704,-1.00,-1.0
3646,1268,11804,-32768,-1.00,-1.0
3648,11856,14276,-14412,-1.00,-1.0
3650,27936,-10628,22384,-1.00,-1.0
3655,-2272,11676,-32768,-1.00,-1.0
3657,19168,17180,-15096,-1.00,-1.0
3658,25244,-6040,-3904,-1.00,-1.0
3660,32767,-16684,32767,-1.00,-1.0
3662,-64,10812,-23396,-1.00,-1.0
3664,1120,24632,-25612,-1.00,-1.0
3666,25472,-10360,-360,-1.00,-1.0
3668,32767,-15908,25764,-1.00,-1.0
3670,9812,9220,-14888,-1.00,-1.0
3672,-7444,20392,-25480,-1.00,-1.0
3674,32767,-3576,21668,-1.00,-1.0
3676,19244,1396,-19420,-1.00,-1.0
3678,18852,-5412,-776,-1.00,-1.0
3680,15360,7612,17800,-1.00,-1.0
3682,3900,15288,-16228,-1.00,-1.0
3686,27292,-9748,6484,-1.00,-1.0
3688,25632,1732,21220,-1.00,-1.0
3690,2484,16880,-26684,-1.00,-1.0
3692,9768,-1160,-10836,-1.00,-1.0
3694,32767,-14584,32767,-1.00,-1.0
3696,6128,4700,-1536,-1.00,-1.0
3698,16584,6100,-384,-1.00,-1.0
3700,16452,-3660,-10072,-1.00,-1.0
3702,15160,-8348,-2432,-1.00,-1.0
3704,25696,1736,26944,-1.00,-1.0
3706,18036,9336,5752,-1.00,-1.0
3708,15084,-5508,5072,-1.00,-1.0
3710,13596,-6604,632,-1.00,-1.0
3712,11920,5320,-12748,-1.00,-1.0
3713,6156,11704,-6772,-1.00,-1.0
3718,32767,-6000,23812,-1.00,-1.0
3720,12244,2360,-25152,-1.00,-1.0
3721,-3060,6264,-13088,-1.00,-1.0
3723,32767,-14968,32767,-1.00,-1.0
3725,22516,-7596,1844,-1.00,-1.0
3727,-6584,8336,-32768,-1.00,-1.0
3729,32767,-12660,32767,-1.00,-1.0
3731,29436,-10740,21988,-1.00,-1.0
3733,-10788,18636,-32768,-1.00,-1.0
3735,14408,-80,388,-1.00,-1.0
3737,31304,-8836,32767,-1.00,-1.0
3739,308,7832,-26772,-1.00,-1.0
3741,13400,5144,-11848,-1.00,-1.0
3743,26016,-10944,11364,-1.00,-1.0
3745,25792,-6576,25032,-1.00,-1.0
3749,11640,4184,-9836,-1.00,-1.0
3751,26948,-9388,17464,-1.00,-1.0
3753,15328,2076,-1880,-1.00,-1.0
3755,12188,4684,-12356,-1.00,-1.0
3757,18912,2688,4212,-1.00,-1.0
3759,19892,-3544,9064,-1.00,-1.0
3761,16520,-1040,2912,-1.00,-1.0
3763,13080,3756,-7932,-1.00,-1.0
3765,19508,-1280,3420,-1.00,-1.0
3767,20648,-2968,7112,-1.00,-1.0
3769,16612,96,-2268,-1.00,-1.0
3771,18680,-2116,5084,-1.00,-1.0
3773,17436,-516,2720,-1.00,-1.0
3775,15144,1156,-4896,-1.00,-1.0
3776,17436,-204,1780,-1.00,-1.0
3778,17000,-932,2612,-1.00,-1.0
3783,17912,-2836,4540,-1.00,-1.0
3785,17332,268,1196,-1.00,-1.0
3786,17964,-348,1796,-1.00,-1.0
3788,16444,-344,-140,-1.00,-1.0
3790,15816,1688,40,-1.00,-1.0
3792,16592,328,-1088,-1.00,-1.0
3794,18440,-364,4472,-1.00,-1.0
3796,17200,-1048,-3392,-1.00,-1.0
3798,16200,-840,784,-1.00,-1.0
3800,15604,276,-1372,-1.00,-1.0
3802,17564,-8,2768,-1.00,-1.0
3804,17728,-412,240,-1.00,-1.0
3806,16612,-180,-808,-1.00,-1.0
3808,17956,-1192,1700,-1.00,-1.0
3810,16672,332,600,-1.00,-1.0
3812,16380,404,-672,-1.00,-1.0
3816,17196,-192,1100,-1.00,-1.0
3818,17144,364,1236,-1.00,-1.0
3820,16636,544,-216,-1.00,-1.0
3822,17228,-372,612,-1.00,-1.0
3824,17272,-272,908,-1.00,-1.0
3826,16728,-8,1192,-1.00,-1.0
3828,16892,-148,580,-1.00,-1.0
3829,16972,-36,1016,-1.00,-1.0
3832,17100,224,548,-1.00,-1.0
3834,16652,604,392,-1.00,-1.0
3835,17248,424,1024,-1.00,-1.0
3837,17016,560,760,-1.00,-1.0
3839,16892,28,-480,-1.00,-1.0
3841,16876,-132,412,-1.00,-1.0
3843,17028,-120,1508,-1.00,-1.0
3845,16732,-284,676,-1.00,-1.0
3847,16948,-260,356,-1.00,-1.0
3851,16940,128,596,-1.00,-1.0
3853,16944,228,756,-1.00,-1.0
3855,17036,164,296,-1.00,-1.0
3857,16956,224,64,-1.00,-1.0
3859,17016,232,988,-1.00,-1.0
3861,17120,156,1188,-1.00,-1.0
3863,16940,-136,756,-1.00,-1.0
3865,16972,-200,284,-1.00,-1.0
3867,17048,-240,704,-1.00,-1.0
3869,16952,-164,764,-1.00,-1.0
3871,16836,-156,444,-1.00,-1.0
3873,16980,-16,328,-1.00,-1.0
3875,17056,-24,772,-1.00,-1.0
3877,17080,236,1368,-1.00,-1.0
3878,17156,228,1184,-1.00,-1.0
3880,16928,192,400,-1.00,-1.0
3885,17084,-352,1248,-1.00,-1.0
3887,17080,-236,952,-1.00,-1.0
3888,17044,-272,932,-1.00,-1.0
3890,16976,-308,336,-1.00,-1.0
3892,17088,-240,440,-1.00,-1.0
3894,17172,-140,728,-1.00,-1.0
3896,16972,96,488,-1.00,-1.0
3898,16764,88,236,-1.00,-1.0
3900,17004,164,520,-1.00,-1.0
3902,17148,32,928,-1.00,-1.0
3904,16984,16,812,-1.00,-1.0
3906,16852,-20,452,-1.00,-1.0
3908,16932,-188,592,-1.00,-1.0
3910,17136,-372,824,-1.00,-1.0
3912,16948,-68,808,-1.00,-1.0
3914,16812,60,388,-1.00,-1.0
3916,16860,48,340,-1.00,-1.0
3920,17084,-8,936,-1.00,-1.0
3922,16928,192,500,-1.00,-1.0
3924,16880,244,320,-1.00,-1.0
3926,17064,-16,676,-1.00,-1.0
3927,17108,68,884,-1.00,-1.0
3930,17012,-8,928,-1.00,-1.0
3932,16892,-68,532,-1.00,-1.0
3933,17004,-52,348,-1.00,-1.0
3935,16940,-168,792,-1.00,-1.0
3937,17056,-100,852,-1.00,-1.0
3939,17020,124,760,-1.00,-1.0
3941,16876,108,496,-1.00,-1.0
3943,16960,152,452,-1.00,-1.0
3945,16952,64,684,-1.00,-1.0
3947,16996,-48,972,-1.00,-1.0
3949,17000,-180,764,-1.00,-1.0
3951,16968,-104,512,-1.00,-1.0
3955,17100,-56,524,-1.00,-1.0
3957,16952,-168,500,-1.00,-1.0
3959,16996,-88,412,-1.00,-1.0
3961,17004,28,532,-1.00,-1.0
3963,17116,-16,592,-1.00,-1.0
3965,17004,208,696,-1.00,-1.0
3967,16944,120,452,-1.00,-1.0
3969,16936,-52,532,-1.00,-1.0
3970,17052,-160,684,-1.00,-1.0
3972,16968,-176,752,-1.00,-1.0
3974,16912,-140,560,-1.00,-1.0
3976,16948,-164,772,-1.00,-1.0
3978,16912,-24,636,-1.00,-1.0
3980,17036,-132,576,-1.00,-1.0
3982,17012,-4,532,-1.00,-1.0
3984,17016,116,548,-1.00,-1.0
3986,16984,24,688,-1.00,-1.0
3990,17020,-216,896,-1.00,-1.0
3992,16972,-132,672,-1.00,-1.0
3994,16988,72,456,-1.00,-1.0
3996,17080,-48,608,-1.00,-1.0
3998,17072,-56,548,-1.00,-1.0
4000,16976,-68,412,-1.00,-1.0
4002,16932,12,508,-1.00,-1.0
4004,16992,60,600,-1.00,-1.0
4006,17036,-68,740,-1.00,-1.0
4008,16924,-72,796,-1.00,-1.0
4010,16996,32,472,-1.00,-1.0
4012,16996,24,512,-1.00,-1.0
4014,16996,-152,540,-1.00,-1.0
4016,16924,-64,572,-1.00,-1.0
4018,16896,84,528,-1.00,-1.0
4019,16976,20,592,-1.00,-1.0
4021,16924,-16,640,-1.00,-1.0
4023,16960,8,580,-1.00,-1.0
4027,17048,44,824,-1.00,-1.0
4029,16912,-60,528,-1.00,-1.0
4031,17024,-152,724,-1.00,-1.0
4033,17020,-120,644,-1.00,-1.0
4035,17020,-100,696,-1.00,-1.0
4037,17080,24,604,-1.00,-1.0
4039,17036,0,712,-1.00,-1.0
4041,16980,160,628,-1.00,-1.0
4043,17048,-24,640,-1.00,-1.0
4045,17020,-88,820,-1.00,-1.0
4047,17008,-80,768,-1.00,-1.0
4049,17036,-88,760,-1.00,-1.0
4051,16908,-44,724,-1.00,-1.0
4053,16936,-16,612,-1.00,-1.0
4055,17028,-32,540,-1.00,-1.0
4057,16956,-60,524,-1.00,-1.0
4059,16984,4,600,-1.00,-1.0
4063,16948,-4,600,-1.00,-1.0
4065,16920,-56,660,-1.00,-1.0
4067,17036,24,804,-1.00,-1.0
4069,17000,-40,664,-1.00,-1.0
4071,17088,-96,684,-1.00,-1.0
4073,17052,-164,632,-1.00,-1.0
4074,17000,-104,604,-1.00,-1.0
4076,16888,-144,632,-1.00,-1.0
4078,17036,44,660,-1.00,-1.0
4080,16992,-60,728,-1.00,-1.0
4082,17012,-40,700,-1.00,-1.0
4084,17104,40,608,-1.00,-1.0
4086,16992,-76,712,-1.00,-1.0
4088,17052,-24,564,-1.00,-1.0
4090,16960,-84,584,-1.00,-1.0
4092,17080,-148,592,-1.00,-1.0
4094,17084,-24,580,-1.00,-1.0
4098,17120,28,536,-1.00,-1.0
4100,17036,-20,632,-1.00,-1.0
4102,16904,76,456,-1.00,-1.0
4104,16912,8,656,-1.00,-1.0
4106,17036,28,688,-1.00,-1.0
4108,16968,-80,668,-1.00,-1.0
4110,16888,-68,520,-1.00,-1.0
4112,16996,-36,556,-1.00,-1.0
4114,16936,12,660,-1.00,-1.0
4116,16952,28,616,-1.00,-1.0
4118,16904,-16,476,-1.00,-1.0
4119,16940,-84,680,-1.00,-1.0
4121,17068,16,700,-1.00,-1.0
4123,16940,-36,712,-1.00,-1.0
4125,16952,48,540,-1.00,-1.0
4127,16988,56,512,-1.00,-1.0
4129,17044,0,536,-1.00,-1.0
4133,16928,132,592,-1.00,-1.0
4135,17032,-88,740,-1.00,-1.0
4137,16992,-12,636,-1.00,-1.0
4139,17028,-28,556,-1.00,-1.0
4141,17096,-52,588,-1.00,-1.0
4143,16968,-40,616,-1.00,-1.0
4145,16960,-104,584,-1.00,-1.0
4147,17048,16,756,-1.00,-1.0
4149,17052,92,712,-1.00,-1.0
4151,16932,56,548,-1.00,-1.0
4153,17084,-44,476,-1.00,-1.0
4155,17000,44,632,-1.00,-1.0
4157,16856,-16,628,-1.00,-1.0
4159,16892,-20,572,-1.00,-1.0
4161,17040,-100,572,-1.00,-1.0
4163,16984,-52,572,-1.00,-1.0
4164,16984,-96,604,-1.00,-1.0
4169,17096,-92,684,-1.00,-1.0
4171,16884,-24,504,-1.00,-1.0
4173,16952,-88,480,-1.00,-1.0
4174,17120,-136,748,-1.00,-1.0
4176,16992,-96,708,-1.00,-1.0
4178,16936,-76,796,-1.00,-1.0
4180,17068,12,740,-1.00,-1.0
4182,17016,-52,596,-1.00,-1.0
4184,16992,-48,588,-1.00,-1.0
4186,17092,56,676,-1.00,-1.0
4188,17088,72,688,-1.00,-1.0
4190,16980,4,708,-1.00,-1.0
4192,16976,40,660,-1.00,-1.0
4194,17012,36,556,-1.00,-1.0
4196,17088,-52,596,-1.00,-1.0
4198,16936,-40,720,-1.00,-1.0
4200,17048,-40,636,-1.00,-1.0
4202,16960,-20,648,-1.00,-1.0
4206,17000,-48,404,-1.00,-1.0
4208,16976,-16,500,-1.00,-1.0
4210,17032,-56,676,-1.00,-1.0
4212,16892,-124,592,-1.00,-1.0
4214,17080,-48,640,-1.00,-1.0
4216,16988,48,788,-1.00,-1.0
4218,17008,-4,720,-1.00,-1.0
4219,16936,0,740,-1.00,-1.0
4222,17028,28,668,-1.00,-1.0
4224,16948,-76,524,-1.00,-1.0
4225,16964,52,476,-1.00,-1.0
4227,17112,-24,444,-1.00,-1.0
4229,16960,76,568,-1.00,-1.0
4231,16968,-40,528,-1.00,-1.0
4233,17052,-124,664,-1.00,-1.0
4235,16904,-216,600,-1.00,-1.0
4237,16992,-88,548,-1.00,-1.0
4242,16956,28,584,-1.00,-1.0
4244,16960,-80,520,-1.00,-1.0
4246,16880,-72,608,-1.00,-1.0
4248,16952,48,580,-1.00,-1.0
4250,16968,-120,560,-1.00,-1.0
4252,16980,-68,584,-1.00,-1.0
4254,16960,56,484,-1.00,-1.0
4256,16996,28,472,-1.00,-1.0
4257,17008,16,772,-1.00,-1.0
4259,17012,44,608,-1.00,-1.0
4261,16964,-24,784,-1.00,-1.0
4263,17004,-20,864,-1.00,-1.0
4265,17044,-20,704,-1.00,-1.0
4267,16908,-20,528,-1.00,-1.0
4269,16964,36,452,-1.00,-1.0
4271,16944,-40,684,-1.00,-1.0
4273,16932,-100,636,-1.00,-1.0
4277,16972,0,756,-1.00,-1.0
4279,17032,-124,660,-1.00,-1.0
4281,17044,-112,740,-1.00,-1.0
4283,17060,-96,688,-1.00,-1.0
4285,16996,-68,636,-1.00,-1.0
4287,16912,-92,556,-1.00,-1.0
4289,17020,12,596,-1.00,-1.0
4291,17036,76,692,-1.00,-1.0
4293,16960,4,512,-1.00,-1.0
4295,16956,-52,576,-1.00,-1.0
4297,17004,-88,764,-1.00,-1.0
4299,17000,-20,624,-1.00,-1.0
4300,16872,-80,576,-1.00,-1.0
4303,17000,-164,648,-1.00,-1.0
4304,17044,-40,600,-1.00,-1.0
4306,17008,-64,668,-1.00,-1.0
4308,17072,-40,676,-1.00,-1.0
4312,17000,-36,656,-1.00,-1.0
4314,16952,-108,380,-1.00,-1.0
4316,17048,-80,616,-1.00,-1.0
4318,17008,-28,616,-1.00,-1.0
4320,17044,-104,612,-1.00,-1.0
4322,16992,-48,536,-1.00,-1.0
4324,16936,-112,616,-1.00,-1.0
4326,17008,-20,552,-1.00,-1.0
4328,16988,-172,624,-1.00,-1.0
4330,17008,-100,748,-1.00,-1.0
4332,16956,-68,616,-1.00,-1.0
4334,16996,8,552,-1.00,-1.0
4336,16984,60,688,-1.00,-1.0
4338,16956,28,748,-1.00,-1.0
4340,16936,-24,628,-1.00,-1.0
4342,16988,-108,624,-1.00,-1.0
4344,17060,-112,820,-1.00,-1.0
4348,16928,-72,764,-1.00,-1.0
4350,17044,60,592,-1.00,-1.0
4352,16984,-4,576,-1.00,-1.0
4353,16948,76,656,-1.00,-1.0
4355,16964,12,716,-1.00,-1.0
4357,16960,24,660,-1.00,-1.0
4359,16984,-12,632,-1.00,-1.0
4361,16892,24,644,-1.00,-1.0
4363,16972,-8,656,-1.00,-1.0
4365,17080,-52,664,-1.00,-1.0
4367,17060,-24,736,-1.00,-1.0
4369,16916,76,724,-1.00,-1.0
4371,16904,-32,556,-1.00,-1.0
4373,17008,-8,600,-1.00,-1.0
4375,17064,-120,580,-1.00,-1.0
4377,16980,-80,664,-1.00,-1.0
4379,17004,-76,732,-1.00,-1.0
4381,17020,-56,608,-1.00,-1.0
4385,17048,32,744,-1.00,-1.0
4387,16984,-48,468,-1.00,-1.0
4389,17108,-124,704,-1.00,-1.0
4391,16968,-112,528,-1.00,-1.0
4393,17044,-112,620,-1.00,-1.0
4395,17032,-44,736,-1.00,-1.0
4397,17024,32,488,-1.00,-1.0
4398,16992,-160,540,-1.00,-1.0
4401,17036,8,560,-1.00,-1.0
4402,17000,-72,600,-1.00,-1.0
4404,17108,-64,536,-1.00,-1.0
4406,16972,-24,684,-1.00,-1.0
4408,16972,-68,588,-1.00,-1.0
4410,17004,60,620,-1.00,-1.0
4412,17088,-56,564,-1.00,-1.0
4414,17056,4,660,-1.00,-1.0
4416,17004,-32,576,-1.00,-1.0
4420,17012,48,580,-1.00,-1.0
4422,16984,-32,660,-1.00,-1.0
4424,17040,-4,652,-1.00,-1.0
4426,17032,-16,656,-1.00,-1.0
4428,17000,-100,612,-1.00,-1.0
4430,16880,-80,620,-1.00,-1.0
4432,16924,-68,728,-1.00,-1.0
4434,16940,-8,740,-1.00,-1.0
4436,16956,120,516,-1.00,-1.0
4438,17104,48,700,-1.00,-1.0
4440,16976,-12,752,-1.00,-1.0
4442,17044,-24,748,-1.00,-1.0
4443,16856,-84,628,-1.00,-1.0
4445,17036,24,396,-1.00,-1.0
4447,17028,-32,644,-1.00,-1.0
4449,16876,32,696,-1.00,-1.0
4451,17052,-100,576,-1.00,-1.0
4455,17024,-52,600,-1.00,-1.0
4457,17064,16,348,-1.00,-1.0
4459,16956,-44,592,-1.00,-1.0
4461,16940,48,632,-1.00,-1.0
4463,16956,-40,588,-1.00,-1.0
4465,16940,-36,528,-1.00,-1.0
4467,17036,-92,616,-1.00,-1.0
4469,17068,-68,660,-1.00,-1.0
4471,16972,-64,548,-1.00,-1.0
4473,17004,-128,660,-1.00,-1.0
4475,17076,-128,680,-1.00,-1.0
4477,16924,-48,620,-1.00,-1.0
4479,17020,-56,668,-1.00,-1.0
4481,16940,12,544,-1.00,-1.0
4483,16996,4,640,-1.00,-1.0
4485,16984,-64,680,-1.00,-1.0
4486,17112,-36,632,-1.00,-1.0
4491,17004,-124,624,-1.00,-1.0
4493,16988,-20,624,-1.00,-1.0
4495,16912,-40,560,-1.00,-1.0
4496,16924,-40,724,-1.00,-1.0
4499,17068,-36,656,-1.00,-1.0
4500,16948,-40,636,-1.00,-1.0
4502,16936,-20,640,-1.00,-1.0
4504,16976,-88,532,-1.00,-1.0
4506,16960,-56,684,-1.00,-1.0
4508,17072,-88,704,-1.00,-1.0
4510,16904,72,600,-1.00,-1.0
4512,17060,-32,632,-1.00,-1.0
4514,17052,-88,616,-1.00,-1.0
4516,16964,-88,544,-1.00,-1.0
4518,17028,-100,624,-1.00,-1.0
4520,16980,-172,640,-1.00,-1.0
4522,16948,-60,580,-1.00,-1.0
4526,16888,-56,732,-1.00,-1.0
4528,17012,-56,696,-1.00,-1.0
4530,17000,-28,580,-1.00,-1.0
4532,17072,-132,592,-1.00,-1.0
4534,17028,-52,612,-1.00,-1.0
4536,17008,-40,548,-1.00,-1.0
4537,16940,-60,736,-1.00,-1.0
4539,17052,-12,584,-1.00,-1.0
4541,16984,28,684,-1.00,-1.0
4543,16996,16,660,-1.00,-1.0
4545,17060,-16,664,-1.00,-1.0
4547,16940,52,628,-1.00,-1.0
4549,16816,16,552,-1.00,-1.0
4551,16844,44,420,-1.00,-1.0
4553,16956,-40,600,-1.00,-1.0
4555,16936,-8,636,-1.00,-1.0
4557,16932,-32,660,-1.00,-1.0
4561,16972,24,672,-1.00,-1.0
4563,16944,-40,724,-1.00,-1.0
4565,16924,-64,756,-1.00,-1.0
4567,17004,8,648,-1.00,-1.0
4569,16960,-88,556,-1.00,-1.0
4571,17036,-112,660,-1.00,-1.0
4573,17048,-100,644,-1.00,-1.0
4575,17020,104,732,-1.00,-1.0
4576,17008,-48,700,-1.00,-1.0
4578,17032,-52,720,-1.00,-1.0
4580,16948,-112,628,-1.00,-1.0
4582,16944,32,676,-1.00,-1.0
4584,16924,-20,756,-1.00,-1.0
4586,17028,-20,580,-1.00,-1.0
4588,17008,-28,652,-1.00,-1.0
4590,17012,-28,732,-1.00,-1.0
4592,17004,-52,796,-1.00,-1.0
4594,17020,32,520,-1.00,-1.0
4598,16988,0,628,-1.00,-1.0
4600,17008,-8,516,-1.00,-1.0
4602,16952,-168,572,-1.00,-1.0
4604,16948,-32,684,-1.00,-1.0
4606,16936,-64,616,-1.00,-1.0
4608,16924,-36,668,-1.00,-1.0
4610,17008,0,572,-1.00,-1.0
4612,17152,-56,484,-1.00,-1.0
4614,17000,4,592,-1.00,-1.0
4616,16984,-44,560,-1.00,-1.0
4618,17052,-76,664,-1.00,-1.0
4620,16956,-60,692,-1.00,-1.0
4621,17000,-116,604,-1.00,-1.0
4623,17048,40,776,-1.00,-1.0
4625,16976,12,556,-1.00,-1.0
4627,16956,-12,648,-1.00,-1.0
4629,16880,76,592,-1.00,-1.0
4633,17004,-116,584,-1.00,-1.0
4635,16988,-72,648,-1.00,-1.0
4637,16904,-16,652,-1.00,-1.0
4639,17024,-52,468,-1.00,-1.0
4641,16988,-20,512,-1.00,-1.0
4643,16932,-64,520,-1.00,-1.0
4645,17096,-52,556,-1.00,-1.0
4647,17016,48,644,-1.00,-1.0
4649,17032,-24,564,-1.00,-1.0
4651,16928,40,652,-1.00,-1.0
4653,16996,-112,580,-1.00,-1.0
4655,16956,8,532,-1.00,-1.0
4657,17044,-48,744,-1.00,-1.0
4659,17008,-52,620,-1.00,-1.0
4661,17104,-64,608,-1.00,-1.0
4663,16932,-76,520,-1.00,-1.0
4664,16972,-32,780,-1.00,-1.0
4669,17036,-80,624,-1.00,-1.0
4671,17032,-8,692,-1.00,-1.0
4673,16936,-80,684,-1.00,-1.0
4675,17032,-64,572,-1.00,-1.0
4677,17008,-40,600,-1.00,-1.0
4679,16940,-24,708,-1.00,-1.0
4680,17012,-56,588,-1.00,-1.0
4682,16956,0,664,-1.00,-1.0
4684,16960,12,416,-1.00,-1.0
4686,16844,0,688,-1.00,-1.0
4688,16896,-48,504,-1.00,-1.0
4690,17032,-68,652,-1.00,-1.0
4692,16964,-136,636,-1.00,-1.0
4694,16980,60,532,-1.00,-1.0
4696,17084,-84,588,-1.00,-1.0
4698,16936,-16,528,-1.00,-1.0
4700,16968,40,700,-1.00,-1.0
4704,17028,-24,536,-1.00,-1.0
4706,16984,-64,784,-1.00,-1.0
4708,17040,8,740,-1.00,-1.0
4710,16980,-88,632,-1.00,-1.0
4712,17036,28,580,-1.00,-1.0
4714,16936,-112,652,-1.00,-1.0
4716,16948,-48,640,-1.00,-1.0
4718,17008,-12,592,-1.00,-1.0
4720,17008,12,616,-1.00,-1.0
4722,16916,-32,764,-1.00,-1.0
4724,17076,-28,668,-1.00,-1.0
4725,16968,-16,760,-1.00,-1.0
4727,16984,36,860,-1.00,-1.0
4729,16904,-140,696,-1.00,-1.0
4731,16932,-76,624,-1.00,-1.0
4733,17068,-24,600,-1.00,-1.0
4735,17008,-32,624,-1.00,-1.0
4739,16968,28,648,-1.00,-1.0
4741,17096,16,524,-1.00,-1.0
4743,16980,-4,512,-1.00,-1.0
4745,16916,-48,488,-1.00,-1.0
4747,17104,20,512,-1.00,-1.0
4749,17004,16,604,-1.00,-1.0
4751,16808,-80,488,-1.00,-1.0
4753,16940,44,680,-1.00,-1.0
4755,16964,-12,572,-1.00,-1.0
4757,17040,-28,548,-1.00,-1.0
4759,16888,12,652,-1.00,-1.0
4761,16992,-20,552,-1.00,-1.0
4763,17052,64,584,-1.00,-1.0
4764,16984,48,692,-1.00,-1.0
4767,16972,16,680,-1.00,-1.0
4769,17076,-80,744,-1.00,-1.0
4770,17024,-72,484,-1.00,-1.0
4772,16976,12,616,-1.00,-1.0
4777,16924,-40,572,-1.00,-1.0
4779,17044,-120,692,-1.00,-1.0
4780,16964,-120,604,-1.00,-1.0
4782,16984,-88,772,-1.00,-1.0
4784,17072,12,564,-1.00,-1.0
4786,16972,-80,572,-1.00,-1.0
4788,16984,-112,644,-1.00,-1.0
4790,17060,-40,748,-1.00,-1.0
4792,17000,0,684,-1.00,-1.0
4794,17036,16,576,-1.00,-1.0
4796,16996,-16,696,-1.00,-1.0
4798,17016,-16,612,-1.00,-1.0
4800,16972,80,440,-1.00,-1.0
4802,17020,-124,596,-1.00,-1.0
4804,17056,-52,612,-1.00,-1.0
4806,17032,-132,612,-1.00,-1.0
4808,16992,12,644,-1.00,-1.0
4812,16960,-120,588,-1.00,-1.0
4814,16960,-84,824,-1.00,-1.0
4816,16920,-40,640,-1.00,-1.0
4817,17012,80,496,-1.00,-1.0
4820,17032,-72,536,-1.00,-1.0
4821,17084,-80,664,-1.00,-1.0
4823,16992,20,536,-1.00,-1.0
4825,16984,-40,684,-1.00,-1.0
4827,17016,-16,692,-1.00,-1.0
4829,17004,-80,728,-1.00,-1.0
4831,16968,-212,580,-1.00,-1.0
4833,16980,-52,588,-1.00,-1.0
4835,17064,-48,596,-1.00,-1.0
4837,17008,-64,664,-1.00,-1.0
4839,17024,8,584,-1.00,-1.0
4841,17024,-24,676,-1.00,-1.0
4843,16904,-48,580,-1.00,-1.0
4847,16980,40,608,-1.00,-1.0
4849,16904,-52,460,-1.00,-1.0
4851,16908,-16,540,-1.00,-1.0
4853,16992,-96,520,-1.00,-1.0
4855,16980,-60,652,-1.00,-1.0
4857,17012,64,596,-1.00,-1.0
4859,17020,-8,644,-1.00,-1.0
4861,16960,-28,676,-1.00,-1.0
4862,16956,76,524,-1.00,-1.0
4865,16968,-100,588,-1.00,-1.0
4866,17084,-32,484,-1.00,-1.0
4868,16948,-32,568,-1.00,-1.0
4870,17008,-24,712,-1.00,-1.0
4872,16932,-80,472,-1.00,-1.0
4874,17000,-72,704,-1.00,-1.0
4876,16940,-52,592,-1.00,-1.0
4878,17080,-60,480,-1.00,-1.0
4882,16952,0,704,-1.00,-1.0
4884,17008,-28,704,-1.00,-1.0
4886,16968,-56,684,-1.00,-1.0
4888,17076,24,596,-1.00,-1.0
4890,16952,-128,492,-1.00,-1.0
4892,16936,-4,620,-1.00,-1.0
4894,17000,44,704,-1.00,-1.0
4896,17032,-40,608,-1.00,-1.0
4898,16960,40,588,-1.00,-1.0
4900,16804,-48,664,-1.00,-1.0
4902,17060,16,592,-1.00,-1.0
4904,16936,-16,592,-1.00,-1.0
4906,17028,-36,596,-1.00,-1.0
4908,17056,4,632,-1.00,-1.0
4910,16968,8,616,-1.00,-1.0
4911,17004,-168,764,-1.00,-1.0
4913,16992,0,600,-1.00,-1.0
4915,16944,-24,568,-1.00,-1.0
4919,17024,-56,552,-1.00,-1.0
4921,17024,-28,628,-1.00,-1.0
4923,16992,-112,688,-1.00,-1.0
4925,17016,-32,684,-1.00,-1.0
4927,17068,-16,652,-1.00,-1.0
4929,17044,-40,680,-1.00,-1.0
4931,16944,-84,520,-1.00,-1.0
4933,16932,44,568,-1.00,-1.0
4935,16984,-16,728,-1.00,-1.0
4937,16960,36,652,-1.00,-1.0
4939,16960,-120,572,-1.00,-1.0
4941,17056,-20,648,-1.00,-1.0
4943,17008,72,680,-1.00,-1.0
4945,16892,-4,592,-1.00,-1.0
4947,16964,0,616,-1.00,-1.0
4949,16960,-16,724,-1.00,-1.0
4950,16940,-36,612,-1.00,-1.0
4955,16912,52,556,-1.00,-1.0
4957,16952,-40,552,-1.00,-1.0
4959,17016,40,620,-1.00,-1.0
4960,17060,32,664,-1.00,-1.0
4963,16996,-20,616,-1.00,-1.0
4964,16980,44,604,-1.00,-1.0
4966,17016,-152,644,-1.00,-1.0
4968,16956,16,620,-1.00,-1.0
4970,16980,40,640,-1.00,-1.0
4972,16972,20,608,-1.00,-1.0
4974,16964,148,564,-1.00,-1.0
4976,17088,-32,460,-1.00,-1.0
4978,16952,-80,604,-1.00,-1.0
4980,16968,-44,532,-1.00,-1.0
4982,16952,-4,608,-1.00,-1.0
4984,17100,-16,620,-1.00,-1.0
4986,16920,-36,520,-1.00,-1.0
4990,16916,-60,492,-1.00,-1.0
4992,16940,-68,548,-1.00,-1.0
4994,17016,-60,540,-1.00,-1.0
4996,16908,-16,616,-1.00,-1.0
4998,16976,-56,540,-1.00,-1.0
5000,16928,-40,660,-1.00,-1.0
5002,17000,8,500,-1.00,-1.0
5003,17036,-80,604,-1.00,-1.0
5005,16988,-4,544,-1.00,-1.0
5007,16932,-40,628,-1.00,-1.0
5009,16972,-4,640,-1.00,-1.0
5011,17084,-4,596,-1.00,-1.0
5013,17048,-192,640,-1.00,-1.0
5015,16996,-104,696,-1.00,-1.0
5017,17040,-8,632,-1.00,-1.0
5019,17020,-36,664,-1.00,-1.0
5021,17080,-76,600,-1.00,-1.0
5025,17008,20,600,-1.00,-1.0
5027,16972,-92,684,-1.00,-1.0
5029,16948,-160,672,-1.00,-1.0
5031,17004,-24,760,-1.00,-1.0
5033,17024,52,616,-1.00,-1.0
5035,16944,-12,588,-1.00,-1.0
5037,16988,-60,468,-1.00,-1.0
5039,16976,-124,520,-1.00,-1.0
5041,16916,-88,492,-1.00,-1.0
5043,17024,-56,608,-1.00,-1.0
5045,16956,-140,524,-1.00,-1.0
5047,16976,-40,604,-1.00,-1.0
5048,16904,48,564,-1.00,-1.0
5051,17028,-108,760,-1.00,-1.0
5053,16940,-160,532,-1.00,-1.0
5054,17068,-36,464,-1.00,-1.0
5056,17084,68,580,-1.00,-1.0
5061,16976,72,668,-1.00,-1.0
5063,17028,-72,704,-1.00,-1.0
5064,16944,24,728,-1.00,-1.0
5066,17076,20,676,-1.00,-1.0
5068,17004,12,600,-1.00,-1.0
5070,16960,-28,736,-1.00,-1.0
5072,16948,-32,640,-1.00,-1.0
5074,17028,24,660,-1.00,-1.0
5076,17000,-24,604,-1.00,-1.0
5078,16988,-92,504,-1.00,-1.0
5080,16964,20,592,-1.00,-1.0
5082,16892,0,556,-1.00,-1.0
5084,17004,-8,816,-1.00,-1.0
5086,16912,-28,724,-1.00,-1.0
5088,17056,36,628,-1.00,-1.0
5090,16980,36,600,-1.00,-1.0
5092,16880,-48,364,-1.00,-1.0
5093,17028,-100,584,-1.00,-1.0
5098,17032,36,616,-1.00,-1.0
5100,16948,-124,644,-1.00,-1.0
5101,17068,32,636,-1.00,-1.0
5103,16996,32,564,-1.00,-1.0
5105,16868,64,576,-1.00,-1.0
5107,17124,-112,956,-1.00,-1.0
5109,17000,20,608,-1.00,-1.0
5111,17320,256,216,-1.00,-1.0
5113,11108,528,-1728,-1.00,-1.0
5115,23740,-3080,13924,-1.00,-1.0
5117,19804,-1196,-2272,-1.00,-1.0
5119,11688,-492,-15956,-1.00,-1.0
5121,22932,-5016,11776,-1.00,-1.0
5123,18716,-44,3520,-1.00,-1.0
5125,11476,3444,-4876,-1.00,-1.0
5127,16732,-908,-184,-1.00,-1.0
5131,16504,848,-3620,-1.00,-1.0
5133,12796,4156,-8616,-1.00,-1.0
5135,19580,-2152,8268,-1.00,-1.0
5137,19680,-1572,8744,-1.00,-1.0
5139,14344,2160,-4176,-1.00,-1.0
5141,14924,1648,-4148,-1.00,-1.0
5143,19532,-2256,4324,-1.00,-1.0
5144,18688,-492,3248,-1.00,-1.0
5146,14680,1852,-3716,-1.00,-1.0
5148,16304,300,164,-1.00,-1.0
5150,16800,528,-1448,-1.00,-1.0
5152,16180,332,-1472,-1.00,-1.0
5154,17140,-828,2116,-1.00,-1.0
5156,17408,-568,2284,-1.00,-1.0
5158,16120,688,-1008,-1.00,-1.0
5160,17028,264,808,-1.00,-1.0
5164,16720,104,444,-1.00,-1.0
5166,16744,600,-140,-1.00,-1.0
5168,17032,116,956,-1.00,-1.0
5170,17148,-384,1596,-1.00,-1.0
5172,16784,-56,128,-1.00,-1.0
5174,16748,268,140,-1.00,-1.0
5176,17364,-248,792,-1.00,-1.0
5178,17208,-412,652,-1.00,-1.0
5180,16704,-224,452,-1.00,-1.0
5182,16740,-68,128,-1.00,-1.0
5184,17128,-256,844,-1.00,-1.0
5186,17308,-204,812,-1.00,-1.0
5187,17092,-180,504,-1.00,-1.0
5190,16936,136,364,-1.00,-1.0
5192,16928,-188,284,-1.00,-1.0
5193,17060,-228,848,-1.00,-1.0
5195,16972,196,720,-1.00,-1.0
5200,17216,68,860,-1.00,-1.0
5202,17076,-316,320,-1.00,-1.0
5203,16792,-60,280,-1.00,-1.0
5205,16812,80,560,-1.00,-1.0
5207,16960,-84,1096,-1.00,-1.0
5209,17068,-140,456,-1.00,-1.0
5211,17012,-164,248,-1.00,-1.0
5213,17108,-212,460,-1.00,-1.0
5215,16944,-40,580,-1.00,-1.0
5217,16800,4,748,-1.00,-1.0
5219,16956,-152,696,-1.00,-1.0
5221,17080,-60,680,-1.00,-1.0
5223,16956,44,688,-1.00,-1.0
5225,16956,152,744,-1.00,-1.0
5227,17044,12,700,-1.00,-1.0
5229,16996,-36,708,-1.00,-1.0
5231,16988,-108,548,-1.00,-1.0
5235,16760,428,-1340,-1.00,-1.0
5237,17116,-860,1048,-1.00,-1.0
5239,17804,-872,1476,-1.00,-1.0
5241,12448,3020,-3472,-1.00,-1.0
5243,16532,-204,3616,-1.00,-1.0
5245,21204,-3536,8556,-1.00,-1.0
5247,13148,1304,-8972,-1.00,-1.0
5248,16224,636,-1120,-1.00,-1.0
5250,20920,-1120,4748,-1.00,-1.0
5252,18308,-516,3324,-1.00,-1.0
5254,15056,1852,-2980,-1.00,-1.0
5256,19168,-312,2908,-1.00,-1.0
5258,18288,-1136,3780,-1.00,-1.0
5260,15240,696,-276,-1.00,-1.0
5262,18968,-1632,6492,-1.00,-1.0
5264,17088,356,1164,-1.00,-1.0
5268,16912,-384,2404,-1.00,-1.0
5270,17800,-880,-208,-1.00,-1.0
5272,17112,-1828,2664,-1.00,-1.0
5274,15252,360,308,-1.00,-1.0
5276,14684,1944,-1924,-1.00,-1.0
5278,16988,392,632,-1.00,-1.0
5280,19192,-1560,2972,-1.00,-1.0
5282,17620,-176,336,-1.00,-1.0
5284,14268,1648,-3360,-1.00,-1.0
5286,15728,264,972,-1.00,-1.0
5288,18372,-928,3884,-1.00,-1.0
5290,18392,-124,1420,-1.00,-1.0
5292,16132,1576,-2684,-1.00,-1.0
5294,16448,24,-448,-1.00,-1.0
5296,18020,-1356,3356,-1.00,-1.0
5297,15940,-372,952,-1.00,-1.0
5302,18088,-328,-1112,-1.00,-1.0
5304,18044,-3564,1584,-1.00,-1.0
5306,17872,-2340,3732,-1.00,-1.0
5307,12916,3692,-5600,-1.00,-1.0
5310,15552,-404,1284,-1.00,-1.0
5311,20524,-2480,6224,-1.00,-1.0
5313,17976,296,-44,-1.00,-1.0
5315,14544,2652,-5324,-1.00,-1.0
5317,16804,76,1752,-1.00,-1.0
5319,18700,-1232,4496,-1.00,-1.0
5321,16244,388,908,-1.00,-1.0
5323,20844,-1056,6736,-1.00,-1.0
5325,18212,-56,-1024,-1.00,-1.0
5327,15096,-1044,-4228,-1.00,-1.0
5329,18236,-2764,4252,-1.00,-1.0
5331,17572,60,1560,-1.00,-1.0
5335,17352,-1076,2332,-1.00,-1.0
5337,19428,-2036,4636,-1.00,-1.0
5339,15720,820,-3016,-1.00,-1.0
5341,15908,988,-1848,-1.00,-1.0
5343,17104,-1616,4548,-1.00,-1.0
5345,22868,664,8232,-1.00,-1.0
5347,16056,1304,-7300,-1.00,-1.0
5349,16460,-4364,-2076,-1.00,-1.0
5351,19612,-3888,8724,-1.00,-1.0
5353,12576,3560,-5036,-1.00,-1.0
5355,13796,2152,-2396,-1.00,-1.0
5357,20752,-3292,5920,-1.00,-1.0
5359,19884,-1088,4520,-1.00,-1.0
5361,13828,2908,-7724,-1.00,-1.0
5362,14856,1416,-2156,-1.00,-1.0
5367,17992,-1888,4892,-1.00,-1.0
5369,21312,2012,4588,-1.00,-1.0
5371,17548,-168,5456,-1.00,-1.0
5373,22448,-4948,9600,-1.00,-1.0
5375,12004,1512,-10752,-1.00,-1.0
5377,14892,1424,-3148,-1.00,-1.0
5379,22224,-1204,8304,-1.00,-1.0
5381,18616,-772,2836,-1.00,-1.0
5383,13524,2292,-4900,-1.00,-1.0
5385,16340,-1124,1976,-1.00,-1.0
5387,18792,-1368,4124,-1.00,-1.0
5389,15960,1416,-4428,-1.00,-1.0
5391,16752,1840,-584,-1.00,-1.0
5393,18580,-1068,5308,-1.00,-1.0
5395,17316,-1136,4892,-1.00,-1.0
5396,15608,4152,-4524,-1.00,-1.0
5400,21292,-5748,4488,-1.00,-1.0
5402,17144,-520,2340,-1.00,-1.0
5404,13740,3672,-5408,-1.00,-1.0
5406,17748,-1648,3516,-1.00,-1.0
5408,18340,-4156,3192,-1.00,-1.0
5410,16540,500,-704,-1.00,-1.0
5412,15864,604,408,-1.00,-1.0
5414,16708,36,2288,-1.00,-1.0
5416,17620,592,572,-1.00,-1.0
5418,17072,1008,536,-1.00,-1.0
5420,17036,412,980,-1.00,-1.0
5422,17120,372,812,-1.00,-1.0
5424,16156,408,-668,-1.00,-1.0
5426,17036,-108,1264,-1.00,-1.0
5428,17824,-560,2600,-1.00,-1.0
5430,16852,3988,-1800,-1.00,-1.0
5434,19520,-5236,3620,-1.00,-1.0
5436,14728,-2196,840,-1.00,-1.0
5438,12392,3184,-5052,-1.00,-1.0
5440,17716,748,2444,-1.00,-1.0
5442,20808,-2572,4300,-1.00,-1.0
5444,17732,788,-152,-1.00,-1.0
5446,14276,2172,-4588,-1.00,-1.0
5448,15652,772,768,-1.00,-1.0
5450,18484,-396,3808,-1.00,-1.0
5452,17492,948,924,-1.00,-1.0
5454,11980,1264,-1612,-1.00,-1.0
5455,21092,-136,9108,-1.00,-1.0
5457,19992,-2008,1196,-1.00,-1.0
5459,13092,-2176,-12180,-1.00,-1.0
5461,19472,-3340,6216,-1.00,-1.0
5463,18516,400,2520,-1.00,-1.0
5467,16860,-1180,-668,-1.00,-1.0
5469,18332,-2740,4940,-1.00,-1.0
5471,16620,188,-1228,-1.00,-1.0
5473,15288,2248,-3884,-1.00,-1.0
5475,12212,2536,148,-1.00,-1.0
5477,23192,-1376,15120,-1.00,-1.0
5479,20936,-2596,4956,-1.00,-1.0
5481,21652,-8224,10664,-1.00,-1.0
5483,15128,-2368,1664,-1.00,-1.0
5485,7064,6572,-13640,-1.00,-1.0
5487,18224,352,4056,-1.00,-1.0
5489,24772,-5008,11288,-1.00,-1.0
5491,17104,1928,-2756,-1.00,-1.0
5493,11852,3272,-10968,-1.00,-1.0
5495,16212,-1732,3092,-1.00,-1.0
5497,22484,-592,7704,-1.00,-1.0
5501,19848,-2916,12532,-1.00,-1.0
5503,24236,-7200,16892,-1.00,-1.0
5505,4364,4032,-27320,-1.00,-1.0
5507,16064,412,-1264,-1.00,-1.0
5509,27624,-4116,15160,-1.00,-1.0
5511,17948,1016,1392,-1.00,-1.0
5512,11132,3940,-11120,-1.00,-1.0
5515,16964,-2068,4732,-1.00,-1.0
5517,20100,-2488,5840,-1.00,-1.0
5518,7984,8260,-13536,-1.00,-1.0
5520,19872,-1920,10044,-1.00,-1.0
5522,25300,-7268,18312,-1.00,-1.0
5524,7476,2996,-17924,-1.00,-1.0
5526,13960,1504,-4536,-1.00,-1.0
5528,25228,-2884,10324,-1.00,-1.0
5532,12376,3936,-7080,-1.00,-1.0
5534,13468,172,-128,-1.00,-1.0
5536,15492,-1964,8828,-1.00,-1.0
5538,23208,1084,3580,-1.00,-1.0
5540,18640,392,-7152,-1.00,-1.0
5542,16928,-5640,-1248,-1.00,-1.0
5544,22568,-5700,14932,-1.00,-1.0
5546,11392,4880,-8412,-1.00,-1.0
5548,11948,1568,-5704,-1.00,-1.0
5550,20648,-924,1516,-1.00,-1.0
5552,10412,7608,-13468,-1.00,-1.0
5554,16468,-472,2920,-1.00,-1.0
5556,21420,304,7388,-1.00,-1.0
5558,12916,3460,-10860,-1.00,-1.0
5560,19536,-3316,6592,-1.00,-1.0
5562,18620,-3464,9832,-1.00,-1.0
5566,16064,1156,-1220,-1.00,-1.0
5568,24068,-3276,8352,-1.00,-1.0
5570,19892,236,848,-1.00,-1.0
5572,13068,4412,-8256,-1.00,-1.0
5574,16764,1328,44,-1.00,-1.0
5576,18296,408,3176,-1.00,-1.0
5577,14068,1608,-1528,-1.00,-1.0
5579,19580,-2376,4900,-1.00,-1.0
5581,16404,-1056,2612,-1.00,-1.0
5583,11872,0,-7000,-1.00,-1.0
5585,18476,-236,4796,-1.00,-1.0
5587,19204,528,-420,-1.00,-1.0
5589,16560,2288,-784,-1.00,-1.0
5591,16184,1524,-1004,-1.00,-1.0
5593,14740,840,-112,-1.00,-1.0
5595,15308,1592,-2068,-1.00,-1.0
5599,22056,-4968,8560,-1.00,-1.0
5601,12712,-248,-8352,-1.00,-1.0
5603,16180,-368,912,-1.00,-1.0
5605,10512,3484,-7136,-1.00,-1.0
5607,18036,-684,680,-1.00,-1.0
5609,18076,924,1948,-1.00,-1.0
5611,17212,924,-644,-1.00,-1.0
5613,15844,2432,-2196,-1.00,-1.0
5615,13232,2868,-3476,-1.00,-1.0
5617,17384,748,4372,-1.00,-1.0
5619,22172,-3288,6604,-1.00,-1.0
5621,17448,-1800,-220,-1.00,-1.0
5623,11636,80,-8556,-1.00,-1.0
5625,18392,-2932,5028,-1.00,-1.0
5626,19416,-1840,3228,-1.00,-1.0
5628,15492,1568,-2968,-1.00,-1.0
5632,19404,156,4992,-1.00,-1.0
5634,20332,-1876,3340,-1.00,-1.0
5636,12964,464,-7900,-1.00,-1.0
5638,17328,12,6496,-1.00,-1.0
5640,22088,636,5864,-1.00,-1.0
5642,18400,-3368,-1712,-1.00,-1.0
5644,15776,-3016,-2584,-1.00,-1.0
5646,16128,-1388,2620,-1.00,-1.0
5648,15476,2144,104,-1.00,-1.0
5650,16108,836,-1296,-1.00,-1.0
5652,21772,-2056,6556,-1.00,-1.0
5654,14424,2488,-1624,-1.00,-1.0
5656,16888,2748,-1988,-1.00,-1.0
5658,17760,668,-1748,-1.00,-1.0
5660,17880,-2540,884,-1.00,-1.0
5662,18108,-2992,7792,-1.00,-1.0
5665,13860,-500,-2636,-1.00,-1.0
5667,18536,-2536,1508,-1.00,-1.0
5669,20260,-2392,1492,-1.00,-1.0
5671,16576,3016,-3492,-1.00,-1.0
5673,15652,1408,-1684,-1.00,-1.0
5675,16004,500,4168,-1.00,-1.0
5677,18648,-556,4156,-1.00,-1.0
5679,15324,228,-1768,-1.00,-1.0
5681,15960,-312,-1072,-1.00,-1.0
5683,19124,-2376,5588,-1.00,-1.0
5685,18180,-148,-1332,-1.00,-1.0
5687,17028,-912,-848,-1.00,-1.0
5689,17968,-1084,992,-1.00,-1.0
5691,17592,-1244,2424,-1.00,-1.0
5693,16932,452,-2080,-1.00,-1.0
5697,19904,588,4816,-1.00,-1.0
5699,18092,-128,336,-1.00,-1.0
5701,15560,-1456,412,-1.00,-1.0
5703,14736,1476,-3636,-1.00,-1.0
5705,16700,380,-280,-1.00,-1.0
5707,21264,-2488,6488,-1.00,-1.0
5709,15236,540,-2148,-1.00,-1.0
5711,13884,1148,-2912,-1.00,-1.0
5713,19020,-1096,5220,-1.00,-1.0
5715,17924,-404,308,-1.00,-1.0
5716,13864,3436,-4908,-1.00,-1.0
5718,18564,1636,2348,-1.00,-1.0
5720,20052,-4228,4372,-1.00,-1.0
5722,15448,-2012,-432,-1.00,-1.0
5724,13592,428,-1908,-1.00,-1.0
5726,17432,2408,2604,-1.00,-1.0
5730,18244,264,312,-1.00,-1.0
5732,14168,1020,-1856,-1.00,-1.0
5734,14436,1820,2796,-1.00,-1.0
5736,18500,-284,2884,-1.00,-1.0
5738,17176,748,-1480,-1.00,-1.0
5740,19020,-2976,932,-1.00,-1.0
5742,20684,-2796,5048,-1.00,-1.0
5744,14536,24,-4636,-1.00,-1.0
5746,14544,-612,-144,-1.00,-1.0
5748,19536,-2404,6696,-1.00,-1.0
5750,15284,2708,-3672,-1.00,-1.0
5752,17024,988,2220,-1.00,-1.0
5754,15984,284,2576,-1.00,-1.0
5756,14488,1316,108,-1.00,-1.0
5758,19532,956,1900,-1.00,-1.0
5759,20724,-2544,1736,-1.00,-1.0
5764,17500,-2768,1460,-1.00,-1.0
5766,14304,448,-2072,-1.00,-1.0
5768,15656,-760,2464,-1.00,-1.0
5769,18860,-1384,3984,-1.00,-1.0
5772,17308,212,-868,-1.00,-1.0
5773,16832,1012,-1444,-1.00,-1.0
5775,18336,736,1052,-1.00,-1.0
5777,16004,2044,-564,-1.00,-1.0
5779,18920,-284,5788,-1.00,-1.0
5781,20000,-4152,3496,-1.00,-1.0
5783,14276,-1084,-2572,-1.00,-1.0
5785,13256,-104,-4024,-1.00,-1.0
5787,18680,104,4984,-1.00,-1.0
5789,18036,80,308,-1.00,-1.0
5791,15784,1932,-2008,-1.00,-1.0
5793,17304,8,1684,-1.00,-1.0
5797,16668,3824,-1016,-1.00,-1.0
5799,22524,-2172,11524,-1.00,-1.0
5801,14588,-4248,-7872,-1.00,-1.0
5803,17852,-4472,7884,-1.00,-1.0
5805,14576,3712,-7112,-1.00,-1.0
5807,16520,-612,1600,-1.00,-1.0
5809,19340,-3368,636,-1.00,-1.0
5811,18372,1256,2652,-1.00,-1.0
5813,17020,1800,-2216,-1.00,-1.0
5815,10816,3148,-6616,-1.00,-1.0
5817,16316,640,3216,-1.00,-1.0
5818,20048,4268,6968,-1.00,-1.0
5821,16688,-2612,-3440,-1.00,-1.0
5822,19188,-6528,8312,-1.00,-1.0
5824,13100,-372,-5680,-1.00,-1.0
5826,13532,2476,-3264,-1.00,-1.0
5831,21312,-1776,6564,-1.00,-1.0
5832,17052,2116,-2260,-1.00,-1.0
5834,13132,2160,-8128,-1.00,-1.0
5836,8860,2808,-1868,-1.00,-1.0
5838,23800,-2224,18444,-1.00,-1.0
5840,24804,-4852,9816,-1.00,-1.0
5842,9056,948,-20260,-1.00,-1.0
5844,19532,-4280,5700,-1.00,-1.0
5846,26220,-2484,11752,-1.00,-1.0
5848,14164,1548,-8212,-1.00,-1.0
5850,15576,-388,-2428,-1.00,-1.0
5852,19760,-2996,10148,-1.00,-1.0
5854,14304,1324,-2676,-1.00,-1.0
5856,14756,4212,-5764,-1.00,-1.0
5858,21188,-1972,6036,-1.00,-1.0
5862,11476,4688,-5512,-1.00,-1.0
5864,16052,-632,2584,-1.00,-1.0
5866,21848,-9288,9972,-1.00,-1.0
5868,14124,-1272,-7028,-1.00,-1.0
5870,14416,3620,-6172,-1.00,-1.0
5872,21108,-436,3220,-1.00,-1.0
5874,16244,748,-760,-1.00,-1.0
5876,21592,-2864,3876,-1.00,-1.0
5878,19352,1364,1380,-1.00,-1.0
5880,11544,4568,-8284,-1.00,-1.0
5881,16804,1176,3244,-1.00,-1.0
5883,24924,-2636,11756,-1.00,-1.0
5885,17320,-744,-3960,-1.00,-1.0
5887,7940,2544,-10032,-1.00,-1.0
5889,22656,-5084,19728,-1.00,-1.0
5891,19724,-4484,4056,-1.00,-1.0
5895,21472,-2016,5844,-1.00,-1.0
5897,26660,-2640,11676,-1.00,-1.0
5899,13324,3480,-6568,-1.00,-1.0
5901,11156,3144,-5476,-1.00,-1.0
5903,20068,-4332,12584,-1.00,-1.0
5905,18724,72,3608,-1.00,-1.0
5907,15076,5200,-9444,-1.00,-1.0
5909,19320,-2492,112,-1.00,-1.0
5911,12268,1976,3804,-1.00,-1.0
5913,14908,852,10184,-1.00,-1.0
5915,17824,-3280,4072,-1.00,-1.0
5917,9324,1184,-19296,-1.00,-1.0
5919,21200,-484,4384,-1.00,-1.0
5921,27176,-2208,11648,-1.00,-1.0
5923,13472,180,-308,-1.00,-1.0
5924,28384,-9788,15692,-1.00,-1.0
5928,8936,7880,-16012,-1.00,-1.0
5930,19580,-348,7944,-1.00,-1.0
5932,21112,-3660,9872,-1.00,-1.0
5934,9588,7428,-11488,-1.00,-1.0
5936,15148,428,3648,-1.00,-1.0
5938,20912,-7192,16092,-1.00,-1.0
5940,10580,216,-10484,-1.00,-1.0
5942,13212,6268,-12880,-1.00,-1.0
5944,24616,-2416,7120,-1.00,-1.0
5946,24948,-5028,13132,-1.00,-1.0
5948,10828,3812,-6456,-1.00,-1.0
5950,6888,3212,-9816,-1.00,-1.0
5952,24496,-3560,14332,-1.00,-1.0
5954,23592,-1244,-124,-1.00,-1.0
5956,14732,9276,-18408,-1.00,-1.0
5960,20716,-8784,21008,-1.00,-1.0
5962,6072,1584,-4368,-1.00,-1.0
5964,8248,8284,-15204,-1.00,-1.0
5966,27624,-3536,10540,-1.00,-1.0
5968,25912,-6592,4304,-1.00,-1.0
5970,13236,4412,-9288,-1.00,-1.0
5972,10028,5616,-6080,-1.00,-1.0
5974,15256,-1860,9220,-1.00,-1.0
5976,14616,-2860,8104,-1.00,-1.0
5978,17696,2344,1720,-1.00,-1.0
5980,19972,1288,-3976,-1.00,-1.0
5982,16808,-6564,10828,-1.00,-1.0
5984,22804,-3992,9384,-1.00,-1.0
5986,10684,4656,-7016,-1.00,-1.0
5987,22924,-2572,6248,-1.00,-1.0
5989,23760,-4160,5616,-1.00,-1.0
5994,14724,3908,-5260,-1.00,-1.0
5996,19524,-4772,6448,-1.00,-1.0
5997,15992,968,1352,-1.00,-1.0
5999,10792,5200,-7252,-1.00,-1.0
6001,17728,-2324,8268,-1.00,-1.0
6003,16340,-3704,5688,-1.00,-1.0
6005,12524,2108,-4812,-1.00,-1.0
6007,16868,1840,-3108,-1.00,-1.0
6009,20996,-1744,2728,-1.00,-1.0
6011,19780,-1120,2912,-1.00,-1.0
6013,18740,2904,-424,-1.00,-1.0
6015,16088,364,-5932,-1.00,-1.0
6017,19644,812,840,-1.00,-1.0
6019,20300,20,3880,-1.00,-1.0
6021,15076,-1932,-1164,-1.00,-1.0
6025,12596,1320,-1772,-1.00,-1.0
6027,18924,-1348,7304,-1.00,-1.0
6029,17272,-696,-2456,-1.00,-1.0
6031,14440,2884,-3108,-1.00,-1.0
6033,16812,-92,1800,-1.00,-1.0
6035,14632,-1312,3476,-1.00,-1.0
6037,18600,-160,5072,-1.00,-1.0
6039,19100,836,-2124,-1.00,-1.0
6041,16808,-2812,-5992,-1.00,-1.0
6043,23284,-2812,8488,-1.00,-1.0
6045,18680,860,-568,-1.00,-1.0
6046,22220,-3256,8552,-1.00,-1.0
6049,18396,-2760,5516,-1.00,-1.0
6051,21496,-1064,6068,-1.00,-1.0
6052,15064,984,516,-1.00,-1.0
6054,16660,-2640,7204,-1.00,-1.0
6059,17600,-2996,1948,-1.00,-1.0
6061,13960,492,-2808,-1.00,-1.0
6062,16692,124,1116,-1.00,-1.0
6064,18412,-404,-196,-1.00,-1.0
6066,18012,-864,2276,-1.00,-1.0
6068,15032,428,-76,-1.00,-1.0
6070,17576,560,3836,-1.00,-1.0
6072,15536,-1544,828,-1.00,-1.0
6074,14956,704,304,-1.00,-1.0
6076,21684,-3020,7060,-1.00,-1.0
6078,17396,-1824,-3072,-1.00,-1.0
6080,15252,-1152,-1264,-1.00,-1.0
6082,21336,-1892,8372,-1.00,-1.0
6084,18184,-4252,2104,-1.00,-1.0
6086,13520,592,-4704,-1.00,-1.0
6088,19244,-1308,3336,-1.00,-1.0
6092,15284,760,-412,-1.00,-1.0
6094,17656,-36,3632,-1.00,-1.0
6096,15724,-3196,3012,-1.00,-1.0
6098,14748,752,756,-1.00,-1.0
6100,19416,-1584,4036,-1.00,-1.0
6102,18480,-2748,-12,-1.00,-1.0
6104,15704,-576,-1000,-1.00,-1.0
6105,16816,216,1508,-1.00,-1.0
6108,19608,-1932,6056,-1.00,-1.0
6110,13520,2992,-5380,-1.00,-1.0
6111,23652,-1092,8268,-1.00,-1.0
6113,14260,2776,-8280,-1.00,-1.0
6115,13500,1304,-5396,-1.00,-1.0
6117,26752,-4600,16996,-1.00,-1.0
6119,17020,-452,-8236,-1.00,-1.0
6121,11080,-224,-7288,-1.00,-1.0
6125,18148,-1220,6136,-1.00,-1.0
6127,9220,3128,-12512,-1.00,-1.0
6129,19048,-1464,6248,-1.00,-1.0
6131,22092,-3332,9604,-1.00,-1.0
6133,12904,4396,-7960,-1.00,-1.0
6135,13948,788,-3152,-1.00,-1.0
6137,20248,-5548,9704,-1.00,-1.0
6139,15996,1964,588,-1.00,-1.0
6141,11820,3912,-10180,-1.00,-1.0
6143,21864,-6208,11144,-1.00,-1.0
6145,19756,-1952,4152,-1.00,-1.0
6147,11656,4748,-9440,-1.00,-1.0
6149,17972,4,108,-1.00,-1.0
6151,25300,-2072,9324,-1.00,-1.0
6153,17696,-156,-2424,-1.00,-1.0
6154,9220,2112,-8424,-1.00,-1.0
6159,18956,-220,-668,-1.00,-1.0
6161,10120,1892,-14700,-1.00,-1.0
6162,20692,-2564,8456,-1.00,-1.0
6165,21248,-2116,9828,-1.00,-1.0
6166,9540,4636,-10716,-1.00,-1.0
6168,28308,-6076,16944,-1.00,-1.0
6170,15804,2156,-6688,-1.00,-1.0
6172,8192,4900,-12268,-1.00,-1.0
6174,19868,-3676,12712,-1.00,-1.0
6176,20244,-4060,8036,-1.00,-1.0
6178,11456,5048,-11000,-1.00,-1.0
6180,14296,1780,-5312,-1.00,-1.0
6182,26472,-6632,19864,-1.00,-1.0
6184,16328,-140,-5152,-1.00,-1.0
6186,11108,5760,-12284,-1.00,-1.0
6190,26824,-4880,19872,-1.00,-1.0
6192,14796,2904,-14024,-1.00,-1.0
6194,7924,4168,-15952,-1.00,-1.0
6196,25332,-7024,21876,-1.00,-1.0
6198,19796,-900,8308,-1.00,-1.0
6200,5160,6680,-19764,-1.00,-1.0
6202,17176,-588,2032,-1.00,-1.0
6203,26544,-7028,17008,-1.00,-1.0
6205,18136,1844,-1692,-1.00,-1.0
6207,9688,6320,-18360,-1.00,-1.0
6209,21844,-3848,7564,-1.00,-1.0
6211,23760,-5636,17668,-1.00,-1.0
6213,16804,2032,-312,-1.00,-1.0
6215,23116,-8352,15416,-1.00,-1.0
6217,19608,-1608,8028,-1.00,-1.0
6221,9196,5892,-16528,-1.00,-1.0
6223,27068,-7920,19852,-1.00,-1.0
6225,14180,2536,-5940,-1.00,-1.0
6227,9728,9004,-16264,-1.00,-1.0
6229,18880,-472,5424,-1.00,-1.0
6231,23208,-7740,14884,-1.00,-1.0
6233,15292,2108,-3108,-1.00,-1.0
6235,10896,7200,-13412,-1.00,-1.0
6237,19392,-2832,7308,-1.00,-1.0
6239,22300,-5564,10828,-1.00,-1.0
6241,13568,2988,-6352,-1.00,-1.0
6243,13100,6164,-7952,-1.00,-1.0
6245,18384,-2404,3620,-1.00,-1.0
6247,20028,-5488,8852,-1.00,-1.0
6249,16800,444,-936,-1.00,-1.0
6251,13884,4620,-6816,-1.00,-1.0
6255,21588,-4360,7916,-1.00,-1.0
6257,15872,832,-1720,-1.00,-1.0
6259,15580,4420,-5452,-1.00,-1.0
6261,20248,-2212,5172,-1.00,-1.0
6263,17780,-3980,1520,-1.00,-1.0
6265,18084,-2632,4096,-1.00,-1.0
6267,16220,2608,-3776,-1.00,-1.0
6268,13840,728,-3748,-1.00,-1.0
6270,20380,-2032,6572,-1.00,-1.0
6272,15408,-484,-212,-1.00,-1.0
6274,15924,4244,-4940,-1.00,-1.0
6276,15872,348,348,-1.00,-1.0
6278,19936,-4044,8408,-1.00,-1.0
6280,15660,2360,428,-1.00,-1.0
6282,13064,3968,-6488,-1.00,-1.0
6284,18272,-1872,2568,-1.00,-1.0
6288,15392,2272,-3328,-1.00,-1.0
6290,13976,4656,-6872,-1.00,-1.0
6292,19604,-2100,2924,-1.00,-1.0
6294,17956,-3276,3968,-1.00,-1.0
6296,17564,-704,3332,-1.00,-1.0
6298,13748,3120,-4728,-1.00,-1.0
6300,13204,672,-2540,-1.00,-1.0
6302,20432,-4288,6876,-1.00,-1.0
6304,18148,36,3480,-1.00,-1.0
6306,15208,1972,-3320,-1.00,-1.0
6308,19296,-2688,3156,-1.00,-1.0
6310,19044,-1284,592,-1.00,-1.0
6312,15808,-540,-4292,-1.00,-1.0
6314,19736,-1744,6372,-1.00,-1.0
6316,15544,-892,832,-1.00,-1.0
6320,15988,2384,-4400,-1.00,-1.0
6322,16072,-932,-16,-1.00,-1.0
6324,20372,-4080,9216,-1.00,-1.0
6326,13992,3048,-1416,-1.00,-1.0
6328,14328,2264,-3548,-1.00,-1.0
6330,19192,-656,2764,-1.00,-1.0
6331,20808,-3208,4588,-1.00,-1.0
6333,15376,1584,184,-1.00,-1.0
6335,14492,3192,-3148,-1.00,-1.0
6337,19988,-1224,3680,-1.00,-1.0
6339,15656,-336,284,-1.00,-1.0
6341,18996,664,5500,-1.00,-1.0
6343,15696,972,-6100,-1.00,-1.0
6345,17104,-164,-1656,-1.00,-1.0
6347,21120,-3292,8668,-1.00,-1.0
6349,14928,808,1156,-1.00,-1.0
6353,17828,-392,-260,-1.00,-1.0
6355,21556,-2848,3088,-1.00,-1.0
6357,18888,1392,2236,-1.00,-1.0
6359,11676,3356,-4964,-1.00,-1.0
6361,17664,380,4568,-1.00,-1.0
6363,20268,-2616,2400,-1.00,-1.0
6365,14448,1688,-7040,-1.00,-1.0
6367,16480,232,2572,-1.00,-1.0
6369,15392,-1180,5172,-1.00,-1.0
6371,16732,952,2828,-1.00,-1.0
6373,17448,996,-6844,-1.00,-1.0
6375,18112,-768,-4292,-1.00,-1.0
6377,22800,-3948,9872,-1.00,-1.0
6379,12832,1520,-720,-1.00,-1.0
6380,12880,2188,-672,-1.00,-1.0
6382,19432,-3008,1504,-1.00,-1.0
6387,18856,-444,2320,-1.00,-1.0
6389,15272,232,532,-1.00,-1.0
6390,13084,16,4344,-1.00,-1.0
6392,14792,68,-584,-1.00,-1.0
6394,18800,2384,-1268,-1.00,-1.0
6396,20000,-36,-1572,-1.00,-1.0
6398,14652,-772,3616,-1.00,-1.0
6400,16660,4184,-10348,-1.00,-1.0
6402,18904,228,984,-1.00,-1.0
6404,19200,-4384,8308,-1.00,-1.0
6406,12924,1204,3860,-1.00,-1.0
6408,8516,4052,-9172,-1.00,-1.0
6410,23008,1528,5864,-1.00,-1.0
6412,23172,-2536,-1132,-1.00,-1.0
6414,14824,-700,-3000,-1.00,-1.0
6416,12832,1156,3584,-1.00,-1.0
6421,19584,-3500,13396,-1.00,-1.0
6423,14496,-1068,2524,-1.00,-1.0
6424,12376,3384,-9512,-1.00,-1.0
6426,21752,-2352,-636,-1.00,-1.0
6428,21232,220,284,-1.00,-1.0
6430,16400,-788,5456,-1.00,-1.0
6432,12012,-248,3368,-1.00,-1.0
6434,20892,-1376,-4596,-1.00,-1.0
6436,16724,644,-1440,-1.00,-1.0
6438,12656,1976,888,-1.00,-1.0
6440,15772,-564,6916,-1.00,-1.0
6442,16660,-2144,520,-1.00,-1.0
6444,19916,3320,-6872,-1.00,-1.0
6446,19364,1432,-2760,-1.00,-1.0
6448,17824,-3532,5712,-1.00,-1.0
6450,13076,-256,7104,-1.00,-1.0
6454,19688,1852,1416,-1.00,-1.0
6456,23008,-2884,-744,-1.00,-1.0
6458,16944,2104,-4744,-1.00,-1.0
6460,12712,4200,-1324,-1.00,-1.0
6462,11040,144,3672,-1.00,-1.0
6464,20836,-2324,12664,-1.00,-1.0
6466,15156,2296,-9424,-1.00,-1.0
6467,17440,2708,-8304,-1.00,-1.0
6469,23860,-3276,4248,-1.00,-1.0
6471,11892,1088,1120,-1.00,-1.0
6473,12352,212,7336,-1.00,-1.0
6475,13904,-60,1008,-1.00,-1.0
6477,17148,-224,-5852,-1.00,-1.0
6479,25648,-1428,808,-1.00,-1.0
6481,8252,2392,-168,-1.00,-1.0
6483,21240,1244,6844,-1.00,-1.0
6487,15004,1072,-2400,-1.00,-1.0
6489,19024,-1400,-5044,-1.00,-1.0
6491,10384,452,3768,-1.00,-1.0
6493,12008,1192,4148,-1.00,-1.0
6495,19132,-380,-2544,-1.00,-1.0
6497,21196,748,-5440,-1.00,-1.0
6499,23072,-1804,92,-1.00,-1.0
6501,14976,1788,32,-1.00,-1.0
6503,11064,-96,5784,-1.00,-1.0
6505,13708,-2228,2624,-1.00,-1.0
6507,19348,-288,-620,-1.00,-1.0
6509,19984,-312,-4600,-1.00,-1.0
6511,21564,-1268,1396,-1.00,-1.0
6513,17564,-2936,5284,-1.00,-1.0
6515,10392,288,1924,-1.00,-1.0
6516,16672,-472,4788,-1.00,-1.0
6521,20192,4248,-11912,-1.00,-1.0
6523,23064,-220,4112,-1.00,-1.0
6525,16236,-2564,7000,-1.00,-1.0
6527,11080,132,6808,-1.00,-1.0
6529,9512,2980,-5084,-1.00,-1.0
6531,21276,868,988,-1.00,-1.0
6533,26248,-2560,-208,-1.00,-1.0
6534,19376,1004,-4724,-1.00,-1.0
6537,13056,532,1528,-1.00,-1.0
6539,9780,1316,2768,-1.00,-1.0
6540,15244,476,5112,-1.00,-1.0
6542,16668,1160,-4760,-1.00,-1.0
6544,23096,828,32,-1.00,-1.0
6546,22136,-1120,-652,-1.00,-1.0
6548,10044,1464,-4292,-1.00,-1.0
6550,22148,824,-472,-1.00,-1.0
6554,16688,2188,-6672,-1.00,-1.0
6556,23576,-2048,-2692,-1.00,-1.0
6558,22060,-2396,632,-1.00,-1.0
6560,12632,2512,-3148,-1.00,-1.0
6562,10064,2516,44,-1.00,-1.0
6564,23984,1892,-1244,-1.00,-1.0
6566,19820,812,-1208,-1.00,-1.0
6568,12028,-1104,844,-1.00,-1.0
6570,15056,-996,11172,-1.00,-1.0
6572,12296,3476,-6148,-1.00,-1.0
6574,19744,-1396,-1864,-1.00,-1.0
6576,24460,-4808,4864,-1.00,-1.0
6578,17760,2012,-3376,-1.00,-1.0
6580,12160,1600,-1648,-1.00,-1.0
6582,13284,-2808,2428,-1.00,-1.0
6586,14144,3644,-9636,-1.00,-1.0
6588,18064,892,-2076,-1.00,-1.0
6590,23192,-4844,7392,-1.00,-1.0
6592,14352,2384,-912,-1.00,-1.0
6594,12124,1768,-1108,-1.00,-1.0
6596,15940,-1420,4508,-1.00,-1.0
6598,20156,-204,3360,-1.00,-1.0
6599,17672,3632,-5504,-1.00,-1.0
6601,17904,2464,-2404,-1.00,-1.0
6603,19312,-3028,5152,-1.00,-1.0
6605,13524,860,2244,-1.00,-1.0
6607,11488,1796,-1312,-1.00,-1.0
6609,14492,-556,2780,-1.00,-1.0
6611,22484,-60,892,-1.00,-1.0
6613,21972,-496,-3596,-1.00,-1.0
6615,16160,-2576,5012,-1.00,-1.0
6619,11700,4752,-3440,-1.00,-1.0
6621,17968,-672,5400,-1.00,-1.0
6623,21020,-4160,1800,-1.00,-1.0
6625,9980,656,656,-1.00,-1.0
6627,16628,2364,-5116,-1.00,-1.0
6629,17788,-4060,8824,-1.00,-1.0
6631,18056,704,-9216,-1.00,-1.0
6633,24364,-2476,4004,-1.00,-1.0
6635,19524,296,4576,-1.00,-1.0
6637,11188,1396,-3248,-1.00,-1.0
6639,10360,1096,1128,-1.00,-1.0
6641,19864,-416,8008,-1.00,-1.0
6643,22964,-1596,-1092,-1.00,-1.0
6645,15980,3472,-11672,-1.00,-1.0
6647,16352,-1256,3084,-1.00,-1.0
6648,18016,-1172,15040,-1.00,-1.0
6653,12544,1588,-3456,-1.00,-1.0
6655,23192,-160,824,-1.00,-1.0
6657,23796,-1440,1840,-1.00,-1.0
6658,14556,2012,-6276,-1.00,-1.0
6661,14512,-116,6004,-1.00,-1.0
6662,16496,2076,4516,-1.00,-1.0
6664,14484,2088,-3980,-1.00,-1.0
6666,17620,-1124,-2440,-1.00,-1.0
6668,24636,-76,6768,-1.00,-1.0
6670,15224,1500,-7216,-1.00,-1.0
6672,11136,-24,-2080,-1.00,-1.0
6674,18564,-3692,12812,-1.00,-1.0
6676,16360,1784,1340,-1.00,-1.0
6678,15052,3252,-11172,-1.00,-1.0
6680,19220,-2364,360,-1.00,-1.0
6682,8744,5380,-7188,-1.00,-1.0
6686,24020,-5736,8748,-1.00,-1.0
6688,18140,3820,-7972,-1.00,-1.0
6690,13584,4448,-10456,-1.00,-1.0
6692,19768,-2516,13676,-1.00,-1.0
6694,16392,-2360,5560,-1.00,-1.0
6696,7360,6836,-10352,-1.00,-1.0
6698,17984,1972,76,-1.00,-1.0
6700,27124,-5804,9140,-1.00,-1.0
6702,16104,916,-5016,-1.00,-1.0
6704,9696,3864,-7756,-1.00,-1.0
6705,18940,240,10708,-1.00,-1.0
6708,19368,-2944,5548,-1.00,-1.0
6709,12344,1336,-6980,-1.00,-1.0
6711,21308,92,2248,-1.00,-1.0
6713,20524,-1464,-740,-1.00,-1.0
6717,15004,-1152,5380,-1.00,-1.0
6719,16392,-3272,10380,-1.00,-1.0
6721,13624,1424,-1908,-1.00,-1.0
6723,11500,3840,-9496,-1.00,-1.0
6725,25100,-5420,11464,-1.00,-1.0
6727,25468,-6160,9196,-1.00,-1.0
6729,8972,7228,-17648,-1.00,-1.0
6731,23760,-1100,10340,-1.00,-1.0
6733,23916,-7756,15216,-1.00,-1.0
6735,17480,-696,-2204,-1.00,-1.0
6737,22860,-6164,16288,-1.00,-1.0
6739,15548,4844,-540,-1.00,-1.0
6741,9240,5292,-11636,-1.00,-1.0
6743,20024,-4820,6988,-1.00,-1.0
6745,23200,-2224,6828,-1.00,-1.0
6747,12684,3836,-12196,-1.00,-1.0
6751,20564,-6124,13484,-1.00,-1.0
6753,11396,2612,-4516,-1.00,-1.0
6755,13836,1292,-3856,-1.00,-1.0
6757,20388,-3572,4120,-1.00,-1.0
6759,18088,1380,-3772,-1.00,-1.0
6761,14476,2008,-2848,-1.00,-1.0
6762,17192,1016,4980,-1.00,-1.0
6765,16068,76,6448,-1.00,-1.0
6767,12648,888,-4308,-1.00,-1.0
6768,20164,1152,420,-1.00,-1.0
6770,20640,88,940,-1.00,-1.0
6772,17824,624,-4684,-1.00,-1.0
6774,16460,-712,5564,-1.00,-1.0
6776,10804,1784,-2932,-1.00,-1.0
6778,15760,400,4828,-1.00,-1.0
6780,13864,2920,-4932,-1.00,-1.0
6784,24088,-4200,3308,-1.00,-1.0
6786,13172,3576,-5676,-1.00,-1.0
6788,13156,-244,-2892,-1.00,-1.0
6790,20876,-2708,12744,-1.00,-1.0
6792,17532,-180,-1708,-1.00,-1.0
6794,15256,2096,-6448,-1.00,-1.0
6796,22932,-2348,3672,-1.00,-1.0
6798,19080,-2304,1640,-1.00,-1.0
6800,14616,2992,-3104,-1.00,-1.0
6802,14620,-248,3136,-1.00,-1.0
6804,21732,-836,-828,-1.00,-1.0
6806,10820,2032,-11272,-1.00,-1.0
6808,17596,-3364,13856,-1.00,-1.0
6810,15496,352,3556,-1.00,-1.0
6812,10440,1504,-9736,-1.00,-1.0
6816,22628,1184,440,-1.00,-1.0
6818,17340,224,892,-1.00,-1.0
6820,10684,1508,-5844,-1.00,-1.0
6822,16496,-2636,11880,-1.00,-1.0
6824,16124,176,1648,-1.00,-1.0
6826,14260,2388,-6516,-1.00,-1.0
6827,21312,-1868,1580,-1.00,-1.0
6829,24156,1640,6228,-1.00,-1.0
6831,16476,692,-6812,-1.00,-1.0
6833,14424,-2024,2484,-1.00,-1.0
6835,18132,-944,6104,-1.00,-1.0
6837,16664,2892,-2168,-1.00,-1.0
6839,19260,876,-2808,-1.00,-1.0
6841,19248,-4136,700,-1.00,-1.0
6843,19708,768,4036,-1.00,-1.0
6845,12544,4372,-8496,-1.00,-1.0
6849,21212,-2388,11744,-1.00,-1.0
6851,18156,-232,-2108,-1.00,-1.0
6853,12876,3448,-8300,-1.00,-1.0
6855,20828,-3268,5400,-1.00,-1.0
6857,19532,2568,2612,-1.00,-1.0
6859,13536,2220,-4432,-1.00,-1.0
6861,15704,-1536,1036,-1.00,-1.0
6863,12008,3756,-8632,-1.00,-1.0
6865,14484,1048,-7228,-1.00,-1.0
6867,19148,-924,376,-1.00,-1.0
6869,14704,948,-2016,-1.00,-1.0
6871,18844,-432,1304,-1.00,-1.0
6873,20212,-312,4964,-1.00,-1.0
6875,15604,1736,-5096,-1.00,-1.0
6877,16344,3840,-636,-1.00,-1.0
6878,19572,-2572,4112,-1.00,-1.0
6883,16804,3364,-2420,-1.00,-1.0
6885,17092,1456,-3160,-1.00,-1.0
6887,18428,-4616,4720,-1.00,-1.0
6888,21180,-3796,6220,-1.00,-1.0
6891,13116,3260,-3004,-1.00,-1.0
6893,13916,1888,-8636,-1.00,-1.0
6894,23368,-6728,12404,-1.00,-1.0
6896,17560,-1964,-212,-1.00,-1.0
6898,14976,2300,-3180,-1.00,-1.0
6900,15896,3560,-3992,-1.00,-1.0
6902,17392,-1900,5484,-1.00,-1.0
6904,20436,-3872,7000,-1.00,-1.0
6906,18248,5624,-3452,-1.00,-1.0
6908,14972,1796,-10276,-1.00,-1.0
6910,19952,-5840,9940,-1.00,-1.0
6914,9864,6640,-12620,-1.00,-1.0
6916,13796,824,-3736,-1.00,-1.0
6918,22668,-7268,12596,-1.00,-1.0
6920,19508,3024,-880,-1.00,-1.0
6922,10496,5528,-13012,-1.00,-1.0
6924,17592,-5320,5640,-1.00,-1.0
6926,23768,-1968,13476,-1.00,-1.0
6928,9684,6416,-18436,-1.00,-1.0
6930,17512,-1180,3928,-1.00,-1.0
6932,24040,-5056,10452,-1.00,-1.0
6934,10164,5756,-6544,-1.00,-1.0
6936,23044,-1592,6788,-1.00,-1.0
6938,21876,-3652,8536,-1.00,-1.0
6940,11636,1456,-9492,-1.00,-1.0
6942,19152,-2208,10360,-1.00,-1.0
6943,16856,-1072,3016,-1.00,-1.0
6948,22428,-3592,5248,-1.00,-1.0
6950,16612,2060,-2932,-1.00,-1.0
6951,17380,-756,2720,-1.00,-1.0
6953,15896,-348,3460,-1.00,-1.0
6955,13996,1896,-4592,-1.00,-1.0
6957,17372,1440,4544,-1.00,-1.0
6959,16904,1048,172,-1.00,-1.0
6961,18016,200,1440,-1.00,-1.0
6963,13072,3508,-2388,-1.00,-1.0
6965,13992,0,5252,-1.00,-1.0
6967,19924,-2780,6700,-1.00,-1.0
6969,16132,4592,-11204,-1.00,-1.0
6971,18292,448,-852,-1.00,-1.0
6973,20116,-1168,4392,-1.00,-1.0
6975,13884,-40,2704,-1.00,-1.0
6977,9228,1308,-3256,-1.00,-1.0
6981,21552,-1440,3200,-1.00,-1.0
6983,16744,-624,-7160,-1.00,-1.0
6985,14584,-12,1928,-1.00,-1.0
6987,13956,232,-5680,-1.00,-1.0
6989,23208,1372,5212,-1.00,-1.0
6991,17172,244,-1920,-1.00,-1.0
6992,11824,-1784,-4176,-1.00,-1.0
6994,20836,-2872,15744,-1.00,-1.0
6996,12580,3556,-9820,-1.00,-1.0
6998,14292,1192,-6196,-1.00,-1.0
7000,26088,-4352,12184,-1.00,-1.0
7002,16348,-364,-1864,-1.00,-1.0
7004,14556,2364,-1128,-1.00,-1.0
7006,16400,-3392,-580,-1.00,-1.0
7008,21092,-2984,8856,-1.00,-1.0
7012,15672,-76,-548,-1.00,-1.0
7014,19692,-2288,3088,-1.00,-1.0
7016,16456,-1780,3496,-1.00,-1.0
7018,17760,1312,-1660,-1.00,-1.0
7020,19664,140,1080,-1.00,-1.0
7022,15280,-564,-1932,-1.00,-1.0
7024,18992,-436,7568,-1.00,-1.0
7026,16072,888,-1824,-1.00,-1.0
7028,14840,2584,-1448,-1.00,-1.0
7030,19240,-2536,1316,-1.00,-1.0
7032,16628,648,2844,-1.00,-1.0
7034,14728,1336,-2292,-1.00,-1.0
7036,16544,-524,1232,-1.00,-1.0
7038,15772,676,-332,-1.00,-1.0
7040,17900,-196,5040,-1.00,-1.0
7042,13432,3724,-4160,-1.00,-1.0
7046,12480,1372,-2244,-1.00,-1.0
7048,17128,320,2676,-1.00,-1.0
7050,19568,-4624,8008,-1.00,-1.0
7052,13292,4412,-12904,-1.00,-1.0
7054,15748,1560,1536,-1.00,-1.0
7056,19904,-3916,7112,-1.00,-1.0
7058,18912,-756,4824,-1.00,-1.0
7060,20464,-5584,5540,-1.00,-1.0
7062,22424,608,10036,-1.00,-1.0
7064,14520,3172,-7904,-1.00,-1.0
7065,19316,-3600,304,-1.00,-1.0
7067,18560,-3008,8432,-1.00,-1.0
7069,12496,172,680,-1.00,-1.0
7071,18464,736,204,-1.00,-1.0
7073,17268,-748,1816,-1.00,-1.0
7075,15940,-2764,-556,-1.00,-1.0
7079,15080,2532,-10632,-1.00,-1.0
7081,13088,-544,-636,-1.00,-1.0
7083,24200,-2696,18436,-1.00,-1.0
7085,17376,-2024,-5488,-1.00,-1.0
7087,10400,1952,-12084,-1.00,-1.0
7089,19908,-4652,9644,-1.00,-1.0
7091,20568,-3016,12580,-1.00,-1.0
7093,11488,4648,-14772,-1.00,-1.0
7095,14228,124,-1792,-1.00,-1.0
7097,23076,-1588,7000,-1.00,-1.0
7099,21172,-1296,6928,-1.00,-1.0
7101,9344,1136,-11872,-1.00,-1.0
7103,17784,-108,7816,-1.00,-1.0
7105,19800,48,3812,-1.00,-1.0
7107,15156,68,-7160,-1.00,-1.0
7109,17512,-1452,3432,-1.00,-1.0
7113,12712,3812,-884,-1.00,-1.0
7115,24164,-7312,14232,-1.00,-1.0
7117,9296,2008,-10884,-1.00,-1.0
7119,15372,3108,1760,-1.00,-1.0
7121,19916,2168,2708,-1.00,-1.0
7123,19912,-520,1168,-1.00,-1.0
7124,20336,-5716,2836,-1.00,-1.0
7127,16708,1884,3120,-1.00,-1.0
7129,15360,6144,-7744,-1.00,-1.0
7130,21772,-4432,4784,-1.00,-1.0
7132,17112,-4088,3400,-1.00,-1.0
7134,16288,604,4484,-1.00,-1.0
7136,16200,3028,-1736,-1.00,-1.0
7138,17568,-1336,-2368,-1.00,-1.0
7140,18400,-1740,5264,-1.00,-1.0
7144,16260,1260,5144,-1.00,-1.0
7146,16420,-5352,-4136,-1.00,-1.0
7148,21656,-1776,11376,-1.00,-1.0
7150,13192,1664,-12204,-1.00,-1.0
7152,18824,-324,1884,-1.00,-1.0
7154,24296,-6404,11984,-1.00,-1.0
7156,9224,2256,-8140,-1.00,-1.0
7158,19872,1056,4364,-1.00,-1.0
7160,17316,936,-2552,-1.00,-1.0
7162,15276,-1484,-2744,-1.00,-1.0
7164,24480,-432,13576,-1.00,-1.0
7166,16716,-348,-7436,-1.00,-1.0
7168,13448,388,-3164,-1.00,-1.0
7170,16452,-3620,2084,-1.00,-1.0
7172,20824,2032,8652,-1.00,-1.0
7174,11124,3056,-13604,-1.00,-1.0
7178,23552,-1420,9572,-1.00,-1.0
7180,15864,3292,-5276,-1.00,-1.0
7182,12208,424,-9300,-1.00,-1.0
7184,23752,-3384,16484,-1.00,-1.0
7186,15180,2092,-2424,-1.00,-1.0
7188,11480,3424,-8616,-1.00,-1.0
7189,18136,-1048,-996,-1.00,-1.0
7191,14756,972,-3416,-1.00,-1.0
7193,17320,2488,1624,-1.00,-1.0
7195,15060,-252,2468,-1.00,-1.0
7197,18232,-4332,4744,-1.00,-1.0
7199,15844,3496,-2404,-1.00,-1.0
7201,14836,3532,-5984,-1.00,-1.0
7203,20344,1112,6680,-1.00,-1.0
7205,21592,-3304,2836,-1.00,-1.0
7209,15132,2524,156,-1.00,-1.0
7211,22304,-4024,7404,-1.00,-1.0
7213,11424,1232,-9900,-1.00,-1.0
7215,18984,-628,5464,-1.00,-1.0
7217,21284,-396,4920,-1.00,-1.0
7219,12464,924,-8196,-1.00,-1.0
7221,16172,480,-308,-1.00,-1.0
7223,17488,2780,4684,-1.00,-1.0
7225,17536,496,2540,-1.00,-1.0
7227,16720,-1956,-2216,-1.00,-1.0
7229,17428,2860,-648,-1.00,-1.0
7231,19740,-3208,224,-1.00,-1.0
7233,20112,-4488,6680,-1.00,-1.0
7235,15052,-1052,-204,-1.00,-1.0
7236,18792,-1172,3600,-1.00,-1.0
7238,15416,2688,376,-1.00,-1.0
7242,14840,192,-580,-1.00,-1.0
7244,17948,2040,76,-1.00,-1.0
7246,18256,904,5912,-1.00,-1.0
7248,17992,-2892,-3608,-1.00,-1.0
7250,16428,-676,4172,-1.00,-1.0
7252,12004,2148,-9504,-1.00,-1.0
7254,20784,-132,9632,-1.00,-1.0
7256,18292,-1628,-568,-1.00,-1.0
7258,13700,2856,-3356,-1.00,-1.0
7260,17508,-32,580,-1.00,-1.0
7262,18784,-2312,3484,-1.00,-1.0
7264,13964,2408,-4104,-1.00,-1.0
7266,15692,1444,1316,-1.00,-1.0
7268,18096,-4172,5796,-1.00,-1.0
7270,16244,764,-1652,-1.00,-1.0
7272,13732,2552,-4600,-1.00,-1.0
7276,22900,4,6252,-1.00,-1.0
7278,12040,2264,-11424,-1.00,-1.0
7280,16912,1024,160,-1.00,-1.0
7282,20492,-3360,11004,-1.00,-1.0
7284,16156,64,376,-1.00,-1.0
7286,13492,2128,-5068,-1.00,-1.0
7287,16404,-1828,-1064,-1.00,-1.0
7289,10652,3836,-5668,-1.00,-1.0
7291,15592,-628,-556,-1.00,-1.0
7293,23316,-5024,10896,-1.00,-1.0
7295,13852,5844,-13640,-1.00,-1.0
7297,17444,1872,1372,-1.00,-1.0
7299,17696,-4416,7196,-1.00,-1.0
7301,17672,-788,7656,-1.00,-1.0
7303,13144,4692,-11744,-1.00,-1.0
7305,12292,4604,-8124,-1.00,-1.0
7309,18124,-728,-1048,-1.00,-1.0
7311,3320,9848,-21556,-1.00,-1.0
7313,19504,-1760,7344,-1.00,-1.0
7315,26120,-7312,18748,-1.00,-1.0
7317,15496,3048,-9412,-1.00,-1.0
7319,11064,6564,-13084,-1.00,-1.0
7321,16340,-1944,6456,-1.00,-1.0
7323,23356,-4712,16444,-1.00,-1.0
7325,8420,4136,-11468,-1.00,-1.0
7327,15056,3188,-4368,-1.00,-1.0
7329,26596,-6328,12796,-1.00,-1.0
7331,15056,388,-6204,-1.00,-1.0
7333,17160,-492,-180,-1.00,-1.0
7335,16776,1288,1588,-1.00,-1.0
7337,12952,-48,-2504,-1.00,-1.0
7341,18204,-2552,728,-1.00,-1.0
7343,17868,1168,-2896,-1.00,-1.0
7345,16872,-856,-5176,-1.00,-1.0
7347,20716,-1808,6860,-1.00,-1.0
7349,20360,-2712,4940,-1.00,-1.0
7351,11292,2408,-4640,-1.00,-1.0
7352,18288,-296,3996,-1.00,-1.0
7354,14860,184,-2568,-1.00,-1.0
7356,13944,756,-7784,-1.00,-1.0
7358,21636,-348,9412,-1.00,-1.0
7360,14432,508,-5472,-1.00,-1.0
7362,20032,-964,3984,-1.00,-1.0
7364,18140,-904,1952,-1.00,-1.0
7366,15192,1548,-1136,-1.00,-1.0
7368,18196,2320,-572,-1.00,-1.0
7370,21712,-2636,3144,-1.00,-1.0
7374,17084,1132,440,-1.00,-1.0
7376,13640,4908,-4728,-1.00,-1.0
7378,13208,-1356,-112,-1.00,-1.0
7380,23404,-4952,13632,-1.00,-1.0
7382,9680,5916,-8816,-1.00,-1.0
7384,16780,1208,-88,-1.00,-1.0
7386,25884,-7100,11020,-1.00,-1.0
7388,10400,5332,-12028,-1.00,-1.0
7390,15092,60,2544,-1.00,-1.0
7392,22420,-4364,10976,-1.00,-1.0
7394,11516,1860,-5900,-1.00,-1.0
7396,12136,4312,-8724,-1.00,-1.0
7398,21740,-3220,12492,-1.00,-1.0
7400,21840,-920,3984,-1.00,-1.0
7401,14612,3652,-9040,-1.00,-1.0
7403,15992,3660,-5944,-1.00,-1.0
7408,16412,-3232,960,-1.00,-1.0
7410,11452,2440,-5260,-1.00,-1.0
7412,11996,3772,-3220,-1.00,-1.0
7413,19468,-2904,7836,-1.00,-1.0
7415,21920,-3284,4120,-1.00,-1.0
7417,9744,8560,-11612,-1.00,-1.0
7419,19676,716,3384,-1.00,-1.0
7421,11904,2568,-9952,-1.00,-1.0
7423,14352,-2872,-1612,-1.00,-1.0
7425,23464,640,10400,-1.00,-1.0
7427,20744,816,-1832,-1.00,-1.0
7429,14560,-2744,-5272,-1.00,-1.0
7431,19832,-5036,10280,-1.00,-1.0
7433,16380,3768,-96,-1.00,-1.0
7435,9924,7292,-14428,-1.00,-1.0
7437,18420,-3248,7964,-1.00,-1.0
7441,10248,10064,-12392,-1.00,-1.0
7443,13940,3592,-8456,-1.00,-1.0
7445,22356,-8872,14564,-1.00,-1.0
7447,21232,-5232,11268,-1.00,-1.0
7449,10980,11788,-16092,-1.00,-1.0
7451,10436,2800,-10504,-1.00,-1.0
7453,30628,-10496,25296,-1.00,-1.0
7455,9948,6472,-6836,-1.00,-1.0
7457,9748,7356,-9548,-1.00,-1.0
7459,26092,-8064,12116,-1.00,-1.0
7461,12184,-1912,-3024,-1.00,-1.0
7463,17124,32,1592,-1.00,-1.0
7465,21468,-100,3252,-1.00,-1.0
7466,18436,-2576,-3116,-1.00,-1.0
7468,14576,204,-548,-1.00,-1.0
7473,18360,500,1392,-1.00,-1.0
7475,14544,-2748,-2664,-1.00,-1.0
7477,16204,1796,2224,-1.00,-1.0
7479,13460,1664,444,-1.00,-1.0
7481,17592,-4476,2876,-1.00,-1.0
7483,21288,380,2712,-1.00,-1.0
7485,11488,6852,-10972,-1.00,-1.0
7487,19496,-2516,5912,-1.00,-1.0
7489,22804,-2044,10228,-1.00,-1.0
7491,8172,6176,-10768,-1.00,-1.0
7493,16272,3584,-3364,-1.00,-1.0
7494,21132,-3036,8988,-1.00,-1.0
7497,13940,1844,-2964,-1.00,-1.0
7498,16332,3376,3992,-1.00,-1.0
7500,18768,432,-1412,-1.00,-1.0
7502,13056,-2000,-3164,-1.00,-1.0
7506,19352,4640,412,-1.00,-1.0
7508,10364,4104,-12916,-1.00,-1.0
7510,22976,-3268,7900,-1.00,-1.0
7512,17368,1832,3072,-1.00,-1.0
7514,13640,4060,-4676,-1.00,-1.0
7516,20720,-4452,7176,-1.00,-1.0
7518,15168,-3028,-1756,-1.00,-1.0
7520,17984,4012,-2160,-1.00,-1.0
7522,16580,3328,-3032,-1.00,-1.0
7524,20236,-5164,5276,-1.00,-1.0
7526,19448,-1816,6808,-1.00,-1.0
7528,11284,6924,-8544,-1.00,-1.0
7530,11984,4440,-6304,-1.00,-1.0
7532,20612,-5816,10844,-1.00,-1.0
7534,17212,1924,3544,-1.00,-1.0
7538,20128,-1980,1940,-1.00,-1.0
7540,16892,-4884,2012,-1.00,-1.0
7542,16692,-308,404,-1.00,-1.0
7544,15728,6000,-3956,-1.00,-1.0
7546,11480,784,-4008,-1.00,-1.0
7548,21868,-3072,10212,-1.00,-1.0
7550,18228,3896,-988,-1.00,-1.0
7551,14640,2780,-7236,-1.00,-1.0
7554,18208,-6388,4324,-1.00,-1.0
7556,17888,-360,6904,-1.00,-1.0
7557,12876,2456,-4644,-1.00,-1.0
7559,17192,-3284,1220,-1.00,-1.0
7561,19560,-4408,3652,-1.00,-1.0
7563,13852,3964,-6276,-1.00,-1.0
7565,13328,4140,-2700,-1.00,-1.0
7567,17136,4580,-4128,-1.00,-1.0
7571,8924,5124,-13696,-1.00,-1.0
7573,20892,-2920,11292,-1.00,-1.0
7575,24276,-7580,8200,-1.00,-1.0
7577,15600,-6920,4708,-1.00,-1.0
7579,10940,5308,-6676,-1.00,-1.0
7581,13852,8956,-8132,-1.00,-1.0
7583,9672,2992,-12472,-1.00,-1.0
7585,23812,-6148,13260,-1.00,-1.0
7587,14912,3724,2604,-1.00,-1.0
7589,14532,7596,-6632,-1.00,-1.0
7591,20752,-4544,120,-1.00,-1.0
7593,14972,-2648,2152,-1.00,-1.0
7595,19596,-3304,9464,-1.00,-1.0
7597,19304,260,176,-1.00,-1.0
7599,12596,-1816,-12508,-1.00,-1.0
7603,21024,-288,5888,-1.00,-1.0
7605,14212,4324,-4012,-1.00,-1.0
7607,16724,820,-484,-1.00,-1.0
7609,20836,-1244,6748,-1.00,-1.0
7611,19136,-2124,2088,-1.00,-1.0
7613,15764,-2436,-2876,-1.00,-1.0
7615,17436,412,788,-1.00,-1.0
7617,14032,180,436,-1.00,-1.0
7619,17856,-3608,3616,-1.00,-1.0
7621,16992,-380,3912,-1.00,-1.0
7623,13728,5096,-7176,-1.00,-1.0
7624,18160,3128,-3020,-1.00,-1.0
7627,21216,-3048,9884,-1.00,-1.0
7629,12764,-348,-1844,-1.00,-1.0
7630,16108,4888,3604,-1.00,-1.0
7632,16960,1636,-6936,-1.00,-1.0
7637,24584,-4688,12916,-1.00,-1.0
7639,13788,8428,-8040,-1.00,-1.0
7640,12208,1388,-8848,-1.00,-1.0
7642,24136,-5428,13372,-1.00,-1.0
7644,13720,3636,-2032,-1.00,-1.0
7646,12508,8372,-10644,-1.00,-1.0
7648,20092,-3584,4876,-1.00,-1.0
7650,14684,852,-556,-1.00,-1.0
7652,17444,312,8236,-1.00,-1.0
7654,17352,272,-2096,-1.00,-1.0
7656,19420,-7428,8084,-1.00,-1.0
7658,16296,-3252,320,-1.00,-1.0
7660,14060,5692,-3952,-1.00,-1.0
7662,14336,764,-2744,-1.00,-1.0
7664,22112,-3368,11844,-1.00,-1.0
7666,17672,-264,-1388,-1.00,-1.0
7670,17452,-2744,2128,-1.00,-1.0
7672,18016,-6772,8768,-1.00,-1.0
7674,18148,-1416,3560,-1.00,-1.0
7676,12324,6740,-10348,-1.00,-1.0
7678,21292,-5480,5024,-1.00,-1.0
7680,22816,-4584,8844,-1.00,-1.0
7682,10584,4988,-7552,-1.00,-1.0
7684,14896,5680,-3924,-1.00,-1.0
7686,20404,-4496,7632,-1.00,-1.0
7688,15344,-1068,-4136,-1.00,-1.0
7689,20224,2020,8564,-1.00,-1.0
7692,17976,752,-5764,-1.00,-1.0
7693,12648,-3428,-2136,-1.00,-1.0
7695,19876,-2792,7676,-1.00,-1.0
7697,18644,2808,2148,-1.00,-1.0
7701,15040,292,-256,-1.00,-1.0
7703,18600,1856,3232,-1.00,-1.0
7705,19272,2568,4100,-1.00,-1.0
7707,15380,-1288,-7952,-1.00,-1.0
7709,17732,1776,1612,-1.00,-1.0
7711,18708,-728,5092,-1.00,-1.0
7713,18652,-4584,4612,-1.00,-1.0
7715,17656,-5544,-1800,-1.00,-1.0
7717,12956,3352,-5200,-1.00,-1.0
7719,17628,-176,4592,-1.00,-1.0
7721,12076,4636,-6808,-1.00,-1.0
7723,18668,-2504,7804,-1.00,-1.0
7725,16348,564,3944,-1.00,-1.0
7727,15884,5728,-240,-1.00,-1.0
7729,18368,-168,-7324,-1.00,-1.0
7731,15612,-4904,4288,-1.00,-1.0
7735,16660,4472,-1556,-1.00,-1.0
7737,12604,-248,-11196,-1.00,-1.0
7739,21572,-4608,9756,-1.00,-1.0
7740,20820,1232,3120,-1.00,-1.0
7743,12540,11808,-12860,-1.00,-1.0
7745,16992,260,-3400,-1.00,-1.0
7746,21052,-4308,15528,-1.00,-1.0
7748,16396,1276,3768,-1.00,-1.0
7750,11720,3436,-10684,-1.00,-1.0
7752,14324,-2020,-1224,-1.00,-1.0
7754,22144,-4548,13680,-1.00,-1.0
7756,18108,1948,-780,-1.00,-1.0
7758,11384,4676,-12744,-1.00,-1.0
7760,16004,600,1572,-1.00,-1.0
7762,20476,2444,4700,-1.00,-1.0
7766,16208,-1660,-5188,-1.00,-1.0
7768,15912,2288,-340,-1.00,-1.0
7770,16640,280,3484,-1.00,-1.0
7772,17792,1200,760,-1.00,-1.0
7774,14752,-4240,-3604,-1.00,-1.0
7776,20756,-4448,9124,-1.00,-1.0
7778,18184,1916,124,-1.00,-1.0
7780,13912,4856,-6248,-1.00,-1.0
7782,17720,-2828,1288,-1.00,-1.0
7784,16952,1312,2464,-1.00,-1.0
7786,16492,1400,4180,-1.00,-1.0
7787,18428,-1656,692,-1.00,-1.0
7790,12356,1252,-3876,-1.00,-1.0
7792,17876,-748,6108,-1.00,-1.0
7793,24932,-5696,10820,-1.00,-1.0
7795,12944,72,-9936,-1.00,-1.0
7800,22552,-1056,10084,-1.00,-1.0
