timestamp_ms,accel_x,accel_y,accel_z,voltage,soc
2,17416,172,132,-1.00,-1.0
4,16200,480,-1508,-1.00,-1.0
6,16660,360,852,-1.00,-1.0
11,15684,608,-1588,-1.00,-1.0
13,14640,248,1376,-1.00,-1.0
15,21784,-872,6508,-1.00,-1.0
17,15840,1504,-6252,-1.00,-1.0
19,20492,-2084,8060,-1.00,-1.0
21,20756,-1740,6096,-1.00,-1.0
23,12912,1976,-6084,-1.00,-1.0
25,21648,-2416,5660,-1.00,-1.0
27,16060,1548,-1700,-1.00,-1.0
29,14944,1528,-4004,-1.00,-1.0
31,19580,-1364,5700,-1.00,-1.0
33,16308,692,-1100,-1.00,-1.0
35,15320,592,-1472,-1.00,-1.0
37,18352,-616,3252,-1.00,-1.0
39,16196,196,468,-1.00,-1.0
41,16652,424,-76,-1.00,-1.0
42,18304,-416,1600,-1.00,-1.0
47,13188,3536,-3736,-1.00,-1.0
49,16648,-668,5332,-1.00,-1.0
51,19888,-604,5488,-1.00,-1.0
53,11300,1876,-10264,-1.00,-1.0
55,18228,-2288,6376,-1.00,-1.0
57,21272,-2172,3508,-1.00,-1.0
58,14168,2496,-4004,-1.00,-1.0
60,16992,244,-1220,-1.00,-1.0
62,20048,-1332,6072,-1.00,-1.0
64,15448,848,-2808,-1.00,-1.0
66,16028,572,24,-1.00,-1.0
68,19216,-544,3552,-1.00,-1.0
70,17392,108,1704,-1.00,-1.0
72,18524,-1604,2868,-1.00,-1.0
74,18064,32,52,-1.00,-1.0
76,18812,-1548,4324,-1.00,-1.0
78,15608,1560,-2004,-1.00,-1.0
82,17876,-1272,3068,-1.00,-1.0
84,16072,-228,-2512,-1.00,-1.0
86,17272,-604,1200,-1.00,-1.0
88,15944,160,-1916,-1.00,-1.0
90,15988,72,1408,-1.00,-1.0
92,18044,-684,2156,-1.00,-1.0
94,17296,1252,896,-1.00,-1.0
96,15812,628,-2148,-1.00,-1.0
98,17684,-60,2852,-1.00,-1.0
100,20412,1048,2876,-1.00,-1.0
102,13840,500,-4876,-1.00,-1.0
103,19292,-3636,7736,-1.00,-1.0
105,16480,600,-1172,-1.00,-1.0
107,12780,1784,-5040,-1.00,-1.0
109,19188,-1340,3688,-1.00,-1.0
111,18656,-480,3260,-1.00,-1.0
113,14912,2584,-3028,-1.00,-1.0
117,16696,-92,1668,-1.00,-1.0
119,12456,-1316,-404,-1.00,-1.0
121,26544,-500,10188,-1.00,-1.0
123,13580,2068,-13008,-1.00,-1.0
125,18464,-5404,7376,-1.00,-1.0
127,23176,-3368,7472,-1.00,-1.0
129,6860,5768,-15028,-1.00,-1.0
131,25360,-4044,8860,-1.00,-1.0
133,12144,4816,-6536,-1.00,-1.0
135,15428,1480,-4764,-1.00,-1.0
137,23120,-1988,12948,-1.00,-1.0
139,13064,1516,-6760,-1.00,-1.0
141,14660,1188,-2316,-1.00,-1.0
143,21200,-1688,7660,-1.00,-1.0
145,14920,664,-1308,-1.00,-1.0
147,14644,2344,-2364,-1.00,-1.0
151,23160,260,7836,-1.00,-1.0
153,12612,2388,-12208,-1.00,-1.0
155,18436,-5160,7640,-1.00,-1.0
157,21872,-2724,6172,-1.00,-1.0
159,10048,3652,-10340,-1.00,-1.0
161,16104,-864,2396,-1.00,-1.0
162,23092,-2836,9776,-1.00,-1.0
164,13880,3376,-4952,-1.00,-1.0
166,15900,872,-3896,-1.00,-1.0
168,16236,1808,5328,-1.00,-1.0
170,17232,-828,3216,-1.00,-1.0
172,20280,-572,2948,-1.00,-1.0
174,13876,-660,-7380,-1.00,-1.0
176,20336,-2972,9244,-1.00,-1.0
178,16920,1184,-4208,-1.00,-1.0
180,21236,-2104,7896,-1.00,-1.0
184,18128,-428,2676,-1.00,-1.0
186,10940,2416,-6324,-1.00,-1.0
188,17620,-716,4372,-1.00,-1.0
190,14508,-124,-5456,-1.00,-1.0
192,13104,812,-6700,-1.00,-1.0
194,18800,-576,3020,-1.00,-1.0
196,2532,7372,-13792,-1.00,-1.0
198,23572,-4060,16764,-1.00,-1.0
200,23256,-1192,2544,-1.00,-1.0
202,7592,2784,-18788,-1.00,-1.0
204,25116,-6348,17464,-1.00,-1.0
206,18128,-92,-1484,-1.00,-1.0
208,8004,4176,-10948,-1.00,-1.0
210,22392,-3280,7340,-1.00,-1.0
211,21664,-460,10228,-1.00,-1.0
213,8736,3980,-14264,-1.00,-1.0
218,21208,-2560,6876,-1.00,-1.0
220,14288,-368,-2352,-1.00,-1.0
221,27508,3172,3840,-1.00,-1.0
223,11016,2372,-10144,-1.00,-1.0
225,23480,-9228,19260,-1.00,-1.0
227,15536,1184,-6472,-1.00,-1.0
229,2328,7552,-18948,-1.00,-1.0
231,24756,-6176,15612,-1.00,-1.0
233,23636,-1504,11312,-1.00,-1.0
235,7728,6384,-16620,-1.00,-1.0
237,19484,-780,3868,-1.00,-1.0
239,6892,4180,-18000,-1.00,-1.0
241,11776,2304,-11100,-1.00,-1.0
243,13920,1364,-432,-1.00,-1.0
245,15772,3516,-5128,-1.00,-1.0
247,11068,1492,-8980,-1.00,-1.0
251,22212,-6728,11160,-1.00,-1.0
253,7408,5856,-20108,-1.00,-1.0
255,19424,-6792,6412,-1.00,-1.0
257,29188,-5820,17568,-1.00,-1.0
259,8736,5672,-17912,-1.00,-1.0
261,14624,248,-952,-1.00,-1.0
263,26192,-4844,14760,-1.00,-1.0
264,13392,2136,-4564,-1.00,-1.0
267,13756,1764,-6792,-1.00,-1.0
269,21692,-896,9756,-1.00,-1.0
270,14696,828,100,-1.00,-1.0
272,11036,-1712,2892,-1.00,-1.0
274,32767,-4156,16860,-1.00,-1.0
276,10244,2636,-26004,-1.00,-1.0
278,19836,-11244,14488,-1.00,-1.0
280,28340,-7096,17020,-1.00,-1.0
284,17544,-5148,8608,-1.00,-1.0
286,32767,-8028,28188,-1.00,-1.0
288,6668,8392,-17952,-1.00,-1.0
290,11836,1940,-8840,-1.00,-1.0
292,28888,-5288,21976,-1.00,-1.0
294,12116,600,-9156,-1.00,-1.0
296,27388,-4692,18208,-1.00,-1.0
298,13648,7116,-5632,-1.00,-1.0
300,11396,1880,-10068,-1.00,-1.0
302,28560,-7344,21320,-1.00,-1.0
304,12656,1664,-8300,-1.00,-1.0
306,17928,5864,-6172,-1.00,-1.0
308,18328,-4132,-556,-1.00,-1.0
310,24420,-7528,19336,-1.00,-1.0
311,10752,4904,-15688,-1.00,-1.0
313,7164,5744,-9060,-1.00,-1.0
317,19240,736,1848,-1.00,-1.0
319,12192,4224,-10692,-1.00,-1.0
321,19728,124,5812,-1.00,-1.0
323,19316,-1088,5572,-1.00,-1.0
325,17248,3424,-3608,-1.00,-1.0
327,20128,4704,-2020,-1.00,-1.0
329,17676,-3964,3220,-1.00,-1.0
331,18832,-3828,10000,-1.00,-1.0
333,7676,4756,-15484,-1.00,-1.0
335,12504,1404,-244,-1.00,-1.0
337,25224,-4836,12968,-1.00,-1.0
339,13404,428,-3032,-1.00,-1.0
341,12416,3752,-8792,-1.00,-1.0
343,21056,-1588,6356,-1.00,-1.0
345,12588,2472,-8396,-1.00,-1.0
347,19968,-1196,5964,-1.00,-1.0
351,13288,192,-8244,-1.00,-1.0
353,19912,-6284,9240,-1.00,-1.0
355,7484,2744,-14288,-1.00,-1.0
357,21876,-4624,14032,-1.00,-1.0
359,21368,-1932,240,-1.00,-1.0
361,11768,4108,-8996,-1.00,-1.0
363,19312,-40,3696,-1.00,-1.0
364,19352,-272,7836,-1.00,-1.0
367,12112,816,-8028,-1.00,-1.0
368,17276,-1068,3352,-1.00,-1.0
370,25932,-2848,9460,-1.00,-1.0
372,13152,928,-10648,-1.00,-1.0
374,18084,-3480,2724,-1.00,-1.0
376,21112,-336,6764,-1.00,-1.0
378,9732,3944,-9264,-1.00,-1.0
380,17008,-1436,5152,-1.00,-1.0
384,15168,1980,-1452,-1.00,-1.0
386,16804,-260,-1960,-1.00,-1.0
388,20936,-1716,7864,-1.00,-1.0
390,18364,2520,-3396,-1.00,-1.0
392,14016,300,-4656,-1.00,-1.0
394,20832,-4480,9992,-1.00,-1.0
396,13892,2964,-4204,-1.00,-1.0
398,10736,2388,-6544,-1.00,-1.0
400,20956,-3068,9340,-1.00,-1.0
402,17332,352,808,-1.00,-1.0
404,20028,208,5244,-1.00,-1.0
406,16644,-192,608,-1.00,-1.0
408,15048,-52,-740,-1.00,-1.0
410,15824,1552,-220,-1.00,-1.0
412,17048,48,3140,-1.00,-1.0
413,18868,-664,3516,-1.00,-1.0
415,14468,1332,-4148,-1.00,-1.0
420,18652,-976,984,-1.00,-1.0
422,14024,832,-3416,-1.00,-1.0
423,18148,-1368,2248,-1.00,-1.0
425,19896,-808,2024,-1.00,-1.0
427,13920,1124,-4048,-1.00,-1.0
429,20640,676,4604,-1.00,-1.0
431,18240,-648,-600,-1.00,-1.0
433,15388,-1632,288,-1.00,-1.0
435,17840,2040,576,-1.00,-1.0
437,13128,1672,-1876,-1.00,-1.0
439,17304,-1908,5928,-1.00,-1.0
441,16872,2232,-532,-1.00,-1.0
443,12796,3008,-4004,-1.00,-1.0
445,20300,-2292,5468,-1.00,-1.0
447,15780,3632,-1812,-1.00,-1.0
449,12212,1076,-3500,-1.00,-1.0
453,12920,2424,-6980,-1.00,-1.0
455,14196,572,-692,-1.00,-1.0
457,24076,-3568,8544,-1.00,-1.0
459,13716,3176,-5460,-1.00,-1.0
461,15716,316,-1680,-1.00,-1.0
463,23132,-3300,9212,-1.00,-1.0
465,14492,456,-1500,-1.00,-1.0
467,21700,384,6988,-1.00,-1.0
469,13384,1168,-4760,-1.00,-1.0
471,16908,-1712,2748,-1.00,-1.0
472,19708,1488,2176,-1.00,-1.0
474,11360,2048,-7556,-1.00,-1.0
476,20388,-2968,7052,-1.00,-1.0
478,17676,1392,-216,-1.00,-1.0
480,11552,3336,-6364,-1.00,-1.0
482,19020,-968,4976,-1.00,-1.0
486,10588,2876,-11204,-1.00,-1.0
488,21436,-5860,11704,-1.00,-1.0
490,17744,1428,-168,-1.00,-1.0
492,8132,4592,-11680,-1.00,-1.0
494,22328,-3148,9504,-1.00,-1.0
496,20720,-1056,5396,-1.00,-1.0
498,11824,3548,-8780,-1.00,-1.0
500,16152,-1456,408,-1.00,-1.0
502,24440,-1832,10792,-1.00,-1.0
504,11988,1256,-11904,-1.00,-1.0
506,17652,-3268,4844,-1.00,-1.0
508,22192,-2288,8720,-1.00,-1.0
510,10688,4312,-11388,-1.00,-1.0
512,16348,-2400,2968,-1.00,-1.0
514,11516,5728,-9004,-1.00,-1.0
516,15648,1168,244,-1.00,-1.0
520,23828,-3600,13816,-1.00,-1.0
522,14848,1348,-6524,-1.00,-1.0
524,11116,920,-6520,-1.00,-1.0
526,16852,2028,-3232,-1.00,-1.0
528,11980,2892,-9440,-1.00,-1.0
530,21756,-3744,9516,-1.00,-1.0
531,18048,564,1828,-1.00,-1.0
533,12612,2436,-6500,-1.00,-1.0
535,15028,432,956,-1.00,-1.0
537,20812,-2664,7980,-1.00,-1.0
539,18432,-24,-1268,-1.00,-1.0
541,10656,592,-8704,-1.00,-1.0
543,21420,-3336,12100,-1.00,-1.0
545,18256,700,-2152,-1.00,-1.0
547,10896,2680,-9040,-1.00,-1.0
549,22832,-3444,11184,-1.00,-1.0
551,18100,256,1560,-1.00,-1.0
555,17124,-872,-568,-1.00,-1.0
557,22420,-5420,14056,-1.00,-1.0
559,14736,2840,-7220,-1.00,-1.0
561,12036,2592,-6616,-1.00,-1.0
563,19900,-4356,10044,-1.00,-1.0
565,20416,-608,6712,-1.00,-1.0
567,20264,-2708,6532,-1.00,-1.0
568,21416,-1912,9512,-1.00,-1.0
571,10084,2988,-12392,-1.00,-1.0
573,16780,-416,3040,-1.00,-1.0
574,17744,-1396,7184,-1.00,-1.0
576,17532,428,2696,-1.00,-1.0
578,17800,1092,-4336,-1.00,-1.0
580,15828,-1560,-1724,-1.00,-1.0
582,20684,-2388,8860,-1.00,-1.0
584,14484,1920,-6636,-1.00,-1.0
588,20512,-2440,4764,-1.00,-1.0
590,17128,-2256,5812,-1.00,-1.0
592,16496,212,-4024,-1.00,-1.0
594,16844,64,-2472,-1.00,-1.0
596,18320,-3696,4160,-1.00,-1.0
598,21056,-1508,6468,-1.00,-1.0
600,13948,2940,-8560,-1.00,-1.0
602,15764,2136,1392,-1.00,-1.0
604,18952,-1472,4804,-1.00,-1.0
606,17036,-632,2796,-1.00,-1.0
608,13540,1908,-6924,-1.00,-1.0
610,18268,-1184,4132,-1.00,-1.0
612,13728,988,-316,-1.00,-1.0
614,18664,-2324,6160,-1.00,-1.0
616,19908,728,640,-1.00,-1.0
618,20596,-4944,10908,-1.00,-1.0
622,17840,-1036,44,-1.00,-1.0
624,16976,3488,-2344,-1.00,-1.0
626,17772,-1312,-2024,-1.00,-1.0
628,16008,2624,-3896,-1.00,-1.0
630,15504,800,-6872,-1.00,-1.0
632,8648,5108,-9308,-1.00,-1.0
633,18096,304,-1988,-1.00,-1.0
635,13100,1100,-5984,-1.00,-1.0
637,22932,-4492,9408,-1.00,-1.0
639,16868,732,-1500,-1.00,-1.0
641,12308,2116,-6800,-1.00,-1.0
643,20188,-2044,4496,-1.00,-1.0
645,21480,60,5744,-1.00,-1.0
647,13072,1168,-6460,-1.00,-1.0
649,15780,120,3724,-1.00,-1.0
651,17504,-440,4904,-1.00,-1.0
655,13048,672,-5612,-1.00,-1.0
657,21568,-3572,11888,-1.00,-1.0
659,15564,2120,-2564,-1.00,-1.0
661,15628,188,76,-1.00,-1.0
663,20544,-900,3336,-1.00,-1.0
665,14852,-172,-5028,-1.00,-1.0
667,18472,-1576,4384,-1.00,-1.0
669,16412,840,-880,-1.00,-1.0
671,17680,60,4760,-1.00,-1.0
673,18836,-2156,-1028,-1.00,-1.0
675,14208,1728,-3320,-1.00,-1.0
676,18472,1320,-824,-1.00,-1.0
678,13404,896,-6496,-1.00,-1.0
680,20072,-5512,6116,-1.00,-1.0
682,22048,-1120,4920,-1.00,-1.0
684,7632,5388,-12012,-1.00,-1.0
686,22940,-64,9828,-1.00,-1.0
690,14796,-1992,-772,-1.00,-1.0
692,18408,-1580,1028,-1.00,-1.0
694,11256,2520,-2880,-1.00,-1.0
696,19252,2228,3928,-1.00,-1.0
698,19360,-1072,536,-1.00,-1.0
700,18864,-1724,6136,-1.00,-1.0
702,14064,1704,-5868,-1.00,-1.0
704,12292,2488,-1812,-1.00,-1.0
706,20272,1340,3912,-1.00,-1.0
708,18196,-1956,1608,-1.00,-1.0
710,18568,-2072,3828,-1.00,-1.0
712,13052,1788,-6292,-1.00,-1.0
714,13544,1660,-1328,-1.00,-1.0
716,21544,-1904,5112,-1.00,-1.0
718,19412,-944,304,-1.00,-1.0
720,10916,3684,-5452,-1.00,-1.0
724,19072,-232,488,-1.00,-1.0
726,10396,1188,-10936,-1.00,-1.0
728,23556,-5560,12356,-1.00,-1.0
730,18188,1428,-436,-1.00,-1.0
732,12548,2296,-4308,-1.00,-1.0
734,21180,-2844,5200,-1.00,-1.0
735,12640,2048,-6256,-1.00,-1.0
737,17256,-364,-404,-1.00,-1.0
739,16108,112,3708,-1.00,-1.0
741,18872,2700,-388,-1.00,-1.0
743,16192,-316,-2800,-1.00,-1.0
745,17636,-2720,6828,-1.00,-1.0
747,15424,876,-1188,-1.00,-1.0
749,13704,2180,-3284,-1.00,-1.0
751,18160,-476,780,-1.00,-1.0
753,20656,-2524,5432,-1.00,-1.0
757,15652,-292,320,-1.00,-1.0
759,20828,-1476,6364,-1.00,-1.0
761,12256,672,-7472,-1.00,-1.0
763,18808,-2456,5716,-1.00,-1.0
765,19092,2344,-1420,-1.00,-1.0
767,13500,772,-1796,-1.00,-1.0
769,21308,-2604,7848,-1.00,-1.0
771,14072,1624,-4064,-1.00,-1.0
773,12840,920,-2420,-1.00,-1.0
775,20292,1196,3372,-1.00,-1.0
777,17984,-1028,4036,-1.00,-1.0
778,15508,512,-692,-1.00,-1.0
781,15392,448,-1164,-1.00,-1.0
782,17728,-704,3168,-1.00,-1.0
784,15628,584,-464,-1.00,-1.0
786,18332,-1184,4036,-1.00,-1.0
788,14868,8,1060,-1.00,-1.0
792,16800,-144,-3560,-1.00,-1.0
794,16520,-1984,-712,-1.00,-1.0
796,19560,-1972,5300,-1.00,-1.0
798,12580,3200,-4624,-1.00,-1.0
800,18544,-64,6100,-1.00,-1.0
802,19308,-3140,204,-1.00,-1.0
804,15704,-1716,192,-1.00,-1.0
806,17324,512,-1844,-1.00,-1.0
808,13768,1712,-1504,-1.00,-1.0
810,20608,-1640,7884,-1.00,-1.0
812,19144,-1564,60,-1.00,-1.0
814,15140,1472,-2900,-1.00,-1.0
816,17800,-672,3344,-1.00,-1.0
818,16360,1336,-1896,-1.00,-1.0
820,15804,-1340,1200,-1.00,-1.0
821,16440,-1092,2856,-1.00,-1.0
826,16736,488,-1576,-1.00,-1.0
828,15668,1640,-4984,-1.00,-1.0
829,19128,-2056,5884,-1.00,-1.0
831,14516,860,-4360,-1.00,-1.0
833,15576,1888,-1064,-1.00,-1.0
835,18020,-536,1832,-1.00,-1.0
837,17028,-396,-44,-1.00,-1.0
839,17484,2748,-2404,-1.00,-1.0
841,15696,-1320,296,-1.00,-1.0
843,22016,-2480,10392,-1.00,-1.0
845,13124,264,-8568,-1.00,-1.0
847,15620,1264,212,-1.00,-1.0
849,21428,-2668,4648,-1.00,-1.0
851,13820,828,-1724,-1.00,-1.0
853,17804,-676,2612,-1.00,-1.0
855,16048,748,-640,-1.00,-1.0
859,20904,-2300,5476,-1.00,-1.0
861,16316,1792,-5816,-1.00,-1.0
863,15304,-1748,3552,-1.00,-1.0
865,19864,-1416,5020,-1.00,-1.0
867,11608,3144,-7360,-1.00,-1.0
869,16916,-2056,4936,-1.00,-1.0
870,25132,-1508,7396,-1.00,-1.0
872,12020,1980,-10168,-1.00,-1.0
874,15720,-896,1884,-1.00,-1.0
876,25228,-3524,11168,-1.00,-1.0
878,14136,-896,264,-1.00,-1.0
880,25920,-2852,12892,-1.00,-1.0
882,13212,3096,-8896,-1.00,-1.0
884,11416,252,-3988,-1.00,-1.0
886,25472,-4756,17664,-1.00,-1.0
888,12624,3084,-10104,-1.00,-1.0
892,27428,-6460,19004,-1.00,-1.0
894,13288,4660,-8288,-1.00,-1.0
896,11272,548,-2812,-1.00,-1.0
898,23708,-4168,10692,-1.00,-1.0
900,12876,2172,-4768,-1.00,-1.0
902,15804,-1496,220,-1.00,-1.0
904,25976,-1004,5816,-1.00,-1.0
906,12160,432,-7404,-1.00,-1.0
908,16204,-1048,3356,-1.00,-1.0
910,22008,-1024,6772,-1.00,-1.0
912,10124,3440,-8380,-1.00,-1.0
914,18044,-2756,5224,-1.00,-1.0
916,23244,-1652,7520,-1.00,-1.0
918,11548,6528,-13048,-1.00,-1.0
919,19392,-4112,6372,-1.00,-1.0
921,22360,-2324,9600,-1.00,-1.0
926,17352,-1984,6632,-1.00,-1.0
928,24332,-1812,9316,-1.00,-1.0
929,11284,2772,-9984,-1.00,-1.0
931,17580,1352,-1268,-1.00,-1.0
933,23212,-3760,11008,-1.00,-1.0
935,9108,4664,-11060,-1.00,-1.0
937,24136,-1520,6920,-1.00,-1.0
939,13996,-708,-3820,-1.00,-1.0
941,14772,1464,-1812,-1.00,-1.0
943,20784,-2268,6900,-1.00,-1.0
945,12332,2160,-3904,-1.00,-1.0
947,17208,-920,1600,-1.00,-1.0
949,19692,-1956,4280,-1.00,-1.0
951,16176,2700,-4048,-1.00,-1.0
953,16384,-1248,24,-1.00,-1.0
955,19160,544,5092,-1.00,-1.0
959,15616,-860,1400,-1.00,-1.0
961,19876,-1060,6204,-1.00,-1.0
963,13932,576,-5008,-1.00,-1.0
965,16372,1336,208,-1.00,-1.0
967,23132,-3932,7204,-1.00,-1.0
969,13000,3188,-6716,-1.00,-1.0
971,16180,-1088,1972,-1.00,-1.0
972,20212,-852,6256,-1.00,-1.0
974,11712,3720,-8404,-1.00,-1.0
976,18768,-3132,6132,-1.00,-1.0
978,20900,164,1984,-1.00,-1.0
980,11844,284,-4160,-1.00,-1.0
982,18776,-48,912,-1.00,-1.0
984,11796,1956,-5164,-1.00,-1.0
986,22944,-4180,9668,-1.00,-1.0
988,15648,3192,-4992,-1.00,-1.0
990,14008,56,-3136,-1.00,-1.0
994,17260,1696,648,-1.00,-1.0
996,12948,136,-4788,-1.00,-1.0
998,19792,-1960,4848,-1.00,-1.0
1000,20892,-2064,4552,-1.00,-1.0
1002,12080,2672,-9856,-1.00,-1.0
1004,21164,-3516,8680,-1.00,-1.0
1006,18244,-892,2672,-1.00,-1.0
1008,10480,4368,-8248,-1.00,-1.0
1010,20196,-3884,7512,-1.00,-1.0
1012,19892,1028,708,-1.00,-1.0
1014,13084,-864,-2896,-1.00,-1.0
1016,17720,-368,2872,-1.00,-1.0
1018,18020,432,2020,-1.00,-1.0
1020,14900,-504,-204,-1.00,-1.0
1021,20884,-952,4680,-1.00,-1.0
1023,14396,180,-3376,-1.00,-1.0
1028,22940,-2384,7412,-1.00,-1.0
1030,12100,3040,-6476,-1.00,-1.0
1031,15908,-604,2216,-1.00,-1.0
1033,22212,-3220,8856,-1.00,-1.0
1035,14892,5648,-8744,-1.00,-1.0
1037,13476,-1108,-2868,-1.00,-1.0
1039,25336,-4888,14692,-1.00,-1.0
1041,13892,1972,-6244,-1.00,-1.0
1043,8180,3892,-9176,-1.00,-1.0
1045,14972,4612,-9056,-1.00,-1.0
1047,12760,92,-3476,-1.00,-1.0
1049,22128,-2460,9624,-1.00,-1.0
1051,16564,980,544,-1.00,-1.0
1053,12584,824,-6180,-1.00,-1.0
1055,20868,-1752,5540,-1.00,-1.0
1059,15448,3792,-6908,-1.00,-1.0
1061,19664,-3256,5484,-1.00,-1.0
1063,16656,-1380,1432,-1.00,-1.0
1065,16268,1180,-516,-1.00,-1.0
1067,15780,804,-2044,-1.00,-1.0
1069,19480,-192,3656,-1.00,-1.0
1071,18548,-2168,2272,-1.00,-1.0
1073,14804,412,-1096,-1.00,-1.0
1075,20876,480,1168,-1.00,-1.0
1077,13864,1144,-4772,-1.00,-1.0
1079,21592,-4536,9272,-1.00,-1.0
1081,18920,-776,1808,-1.00,-1.0
1083,9640,4828,-10888,-1.00,-1.0
1085,21512,-4740,8580,-1.00,-1.0
1086,17792,2732,-2452,-1.00,-1.0
1088,14084,-944,204,-1.00,-1.0
1092,11772,3712,-5132,-1.00,-1.0
1094,15944,-1876,3020,-1.00,-1.0
1096,22000,-336,4332,-1.00,-1.0
1098,12632,76,-3604,-1.00,-1.0
1100,16908,1656,872,-1.00,-1.0
1102,19124,-408,3076,-1.00,-1.0
1104,18960,-2452,3960,-1.00,-1.0
1106,18960,3472,-2268,-1.00,-1.0
1108,13928,-2268,-496,-1.00,-1.0
1110,21784,-4016,8084,-1.00,-1.0
1112,16604,5804,-6336,-1.00,-1.0
1114,9672,1988,-5876,-1.00,-1.0
1116,27952,-6128,20136,-1.00,-1.0
1118,14636,1812,-7224,-1.00,-1.0
1120,5668,8732,-16888,-1.00,-1.0
1122,28488,-7524,21152,-1.00,-1.0
1126,5876,6172,-17344,-1.00,-1.0
1128,23908,-5464,14280,-1.00,-1.0
1130,21888,1840,3552,-1.00,-1.0
1132,9308,1292,-10044,-1.00,-1.0
1134,21512,-2276,6692,-1.00,-1.0
1136,16528,-2016,4008,-1.00,-1.0
1137,11572,3388,-6272,-1.00,-1.0
1139,21428,-408,1348,-1.00,-1.0
1141,18060,-2980,5020,-1.00,-1.0
1143,18808,620,668,-1.00,-1.0
1145,16032,232,-3444,-1.00,-1.0
1147,12864,1800,-3980,-1.00,-1.0
1149,21952,-4744,10752,-1.00,-1.0
1151,14180,1572,-556,-1.00,-1.0
1153,21292,672,4352,-1.00,-1.0
1155,18060,-3144,3760,-1.00,-1.0
1159,15136,960,-908,-1.00,-1.0
1161,10824,6668,-7540,-1.00,-1.0
1163,20908,1944,-1284,-1.00,-1.0
1165,15216,-800,-3988,-1.00,-1.0
1167,19444,-2376,7704,-1.00,-1.0
1169,16200,1132,132,-1.00,-1.0
1171,8940,3484,-7760,-1.00,-1.0
1173,23588,-3008,8144,-1.00,-1.0
1175,20648,-1568,4064,-1.00,-1.0
1177,12432,2144,-6840,-1.00,-1.0
1179,19276,-2752,5164,-1.00,-1.0
1181,13704,2932,-3996,-1.00,-1.0
1183,17548,-2636,3124,-1.00,-1.0
1185,18356,-672,3860,-1.00,-1.0
1186,13988,2140,-3064,-1.00,-1.0
1191,14124,712,-2448,-1.00,-1.0
1193,19856,-3932,8368,-1.00,-1.0
1195,15460,4004,-7468,-1.00,-1.0
1196,13704,-1572,-864,-1.00,-1.0
1199,24356,-5724,14420,-1.00,-1.0
1200,12796,3180,-8788,-1.00,-1.0
1202,13300,-1232,-512,-1.00,-1.0
1204,25752,-612,6244,-1.00,-1.0
1206,15676,-1900,268,-1.00,-1.0
1208,15268,-68,-2384,-1.00,-1.0
1210,20140,-1456,5560,-1.00,-1.0
1212,17964,-2572,4244,-1.00,-1.0
1214,19244,452,2996,-1.00,-1.0
1216,19080,-1696,3792,-1.00,-1.0
1218,17096,664,-952,-1.00,-1.0
1220,16664,-1172,-132,-1.00,-1.0
1224,20072,-3332,8576,-1.00,-1.0
1226,21352,-876,3192,-1.00,-1.0
1228,17872,-3608,6764,-1.00,-1.0
1230,24216,-2852,8312,-1.00,-1.0
1232,8880,4580,-17004,-1.00,-1.0
1234,17760,-3836,6092,-1.00,-1.0
1236,25236,-5624,15396,-1.00,-1.0
1238,10904,7048,-13344,-1.00,-1.0
1240,14508,-1244,-2488,-1.00,-1.0
1242,25180,-4404,13300,-1.00,-1.0
1244,15388,-116,-1960,-1.00,-1.0
1245,8500,6064,-11260,-1.00,-1.0
1247,21528,-2452,13832,-1.00,-1.0
1249,19036,-2244,1496,-1.00,-1.0
1251,12220,1868,-7296,-1.00,-1.0
1256,13584,3340,-1344,-1.00,-1.0
1258,18564,-3020,6012,-1.00,-1.0
1259,17588,640,-2452,-1.00,-1.0
1261,13500,84,-3380,-1.00,-1.0
1263,21296,-3308,8560,-1.00,-1.0
1265,20832,592,492,-1.00,-1.0
1267,14400,136,-5808,-1.00,-1.0
1269,18012,2088,1964,-1.00,-1.0
1271,21060,-3584,9032,-1.00,-1.0
1273,16092,-364,-3824,-1.00,-1.0
1275,12016,920,-7528,-1.00,-1.0
1277,16644,-60,-1072,-1.00,-1.0
1279,14620,3932,-5276,-1.00,-1.0
1281,23308,-1004,11076,-1.00,-1.0
1283,18532,-1864,-384,-1.00,-1.0
1285,13752,1724,-3156,-1.00,-1.0
1289,15376,5452,-5620,-1.00,-1.0
1291,17560,-4016,4028,-1.00,-1.0
1293,21056,-4216,8064,-1.00,-1.0
1295,12696,2980,-5324,-1.00,-1.0
1297,13808,892,-3004,-1.00,-1.0
1299,18816,316,3548,-1.00,-1.0
1301,16936,-1716,3916,-1.00,-1.0
1302,16380,3976,-2804,-1.00,-1.0
1305,15892,356,-664,-1.00,-1.0
1307,17420,-1100,3404,-1.00,-1.0
1308,17748,952,-328,-1.00,-1.0
1310,17196,-2288,1648,-1.00,-1.0
1312,19892,516,1932,-1.00,-1.0
1314,13700,-700,-3244,-1.00,-1.0
1316,19316,-416,4536,-1.00,-1.0
1318,17540,240,-3344,-1.00,-1.0
1322,21316,1000,8732,-1.00,-1.0
1324,16364,692,-3076,-1.00,-1.0
1326,13660,888,-3544,-1.00,-1.0
1328,22980,-4256,10024,-1.00,-1.0
1330,12504,4756,-5824,-1.00,-1.0
1332,16648,-1412,228,-1.00,-1.0
1334,22624,-2500,5520,-1.00,-1.0
1336,15904,88,852,-1.00,-1.0
1338,17488,-2784,6012,-1.00,-1.0
1340,10512,5880,-7572,-1.00,-1.0
1342,21836,-2628,9112,-1.00,-1.0
1344,21860,-1704,5988,-1.00,-1.0
1346,4788,9780,-18324,-1.00,-1.0
1348,17380,-2972,12084,-1.00,-1.0
1350,25108,-3016,9816,-1.00,-1.0
1351,6496,5744,-19568,-1.00,-1.0
1357,9724,4032,-15392,-1.00,-1.0
1359,11272,2616,-8480,-1.00,-1.0
1361,30184,-7384,21092,-1.00,-1.0
1363,10632,7716,-13808,-1.00,-1.0
1365,14808,-336,712,-1.00,-1.0
1367,27376,-5496,12840,-1.00,-1.0
1369,12856,196,-4556,-1.00,-1.0
1371,21708,-2096,8680,-1.00,-1.0
1373,8528,6488,-10012,-1.00,-1.0
1375,21940,-1620,5392,-1.00,-1.0
1377,22224,-1872,4624,-1.00,-1.0
1379,11248,2240,-6768,-1.00,-1.0
1381,18184,-2264,5644,-1.00,-1.0
1383,18696,3672,-3900,-1.00,-1.0
1384,15176,-1736,-3144,-1.00,-1.0
1388,21980,148,7412,-1.00,-1.0
1390,8576,5048,-17716,-1.00,-1.0
1392,16812,-4560,4132,-1.00,-1.0
1394,26436,-5652,19152,-1.00,-1.0
1396,4864,11312,-22808,-1.00,-1.0
1398,18336,-2876,7952,-1.00,-1.0
1400,26264,-4744,13248,-1.00,-1.0
1402,9132,4144,-12416,-1.00,-1.0
1404,16260,-1164,1428,-1.00,-1.0
1406,23312,-924,6500,-1.00,-1.0
1408,13940,-1656,-2380,-1.00,-1.0
1410,22260,-3364,8712,-1.00,-1.0
1412,9604,3208,-8116,-1.00,-1.0
1414,17240,-1392,1556,-1.00,-1.0
1416,16084,1180,-444,-1.00,-1.0
1418,18912,-2920,6744,-1.00,-1.0
1422,13664,836,-5652,-1.00,-1.0
1424,18544,-3400,6452,-1.00,-1.0
1426,21084,700,1848,-1.00,-1.0
1428,15128,-688,-2132,-1.00,-1.0
1430,15104,948,-1816,-1.00,-1.0
1432,20964,-4636,11252,-1.00,-1.0
1433,16136,1076,-5576,-1.00,-1.0
1435,13344,-568,-6152,-1.00,-1.0
1437,18428,-2668,11564,-1.00,-1.0
1439,19500,2476,1940,-1.00,-1.0
1441,13568,848,-7816,-1.00,-1.0
1443,18376,-412,3648,-1.00,-1.0
1445,21924,-3472,9628,-1.00,-1.0
1447,8980,5572,-11840,-1.00,-1.0
1449,18992,-1500,4552,-1.00,-1.0
1453,13692,-88,-4592,-1.00,-1.0
1455,16900,-1588,1496,-1.00,-1.0
1457,17020,2896,-1708,-1.00,-1.0
1459,19192,-2340,5424,-1.00,-1.0
1461,20284,-2156,2060,-1.00,-1.0
1463,15188,3572,-7308,-1.00,-1.0
1465,12552,-888,900,-1.00,-1.0
1467,24004,-2980,12944,-1.00,-1.0
1469,14032,1264,-7024,-1.00,-1.0
1471,8732,3496,-8740,-1.00,-1.0
1473,28984,-6828,21328,-1.00,-1.0
1475,9488,476,-5428,-1.00,-1.0
1477,28376,-6908,20680,-1.00,-1.0
1479,15400,1460,-5864,-1.00,-1.0
1481,6096,8124,-18740,-1.00,-1.0
1483,26872,-5400,20900,-1.00,-1.0
1487,6832,6572,-15932,-1.00,-1.0
1489,23584,-4920,12620,-1.00,-1.0
1491,17480,1472,2876,-1.00,-1.0
1493,12072,756,-4864,-1.00,-1.0
1495,19224,1020,1924,-1.00,-1.0
1497,16772,-1232,3512,-1.00,-1.0
1498,17128,-488,1480,-1.00,-1.0
1500,17516,3796,-5876,-1.00,-1.0
1502,18044,-952,2028,-1.00,-1.0
1504,16564,2040,3000,-1.00,-1.0
1506,19064,-2552,5432,-1.00,-1.0
1508,15328,1440,-5264,-1.00,-1.0
1510,12492,80,-5920,-1.00,-1.0
1512,22880,-4696,15756,-1.00,-1.0
1514,17616,4704,-7024,-1.00,-1.0
1516,12540,1308,-5916,-1.00,-1.0
1520,14732,772,-2328,-1.00,-1.0
1522,10352,3776,-7756,-1.00,-1.0
1524,22972,-1836,8288,-1.00,-1.0
1526,19168,-3232,3616,-1.00,-1.0
1528,14956,996,-2828,-1.00,-1.0
1530,16532,-396,-796,-1.00,-1.0
1532,14440,688,964,-1.00,-1.0
1534,21176,-856,3140,-1.00,-1.0
1536,15616,12,-2756,-1.00,-1.0
1538,17740,-888,3336,-1.00,-1.0
1540,12320,2912,-6924,-1.00,-1.0
1542,14812,-788,2256,-1.00,-1.0
1544,23836,-2596,10160,-1.00,-1.0
1546,16628,360,-5140,-1.00,-1.0
1547,11160,2964,-8612,-1.00,-1.0
1549,24352,-6160,16188,-1.00,-1.0
1554,10220,1492,-11432,-1.00,-1.0
1556,20816,-3868,12812,-1.00,-1.0
1557,22560,-72,8484,-1.00,-1.0
1560,11248,1652,-13460,-1.00,-1.0
1562,16884,484,1148,-1.00,-1.0
1563,23820,-4792,12252,-1.00,-1.0
1565,8564,4688,-9292,-1.00,-1.0
1567,17840,-220,3256,-1.00,-1.0
1569,20600,-1824,4728,-1.00,-1.0
1571,14476,-1600,-1984,-1.00,-1.0
1573,19388,-2000,3128,-1.00,-1.0
1575,13944,4384,-5808,-1.00,-1.0
1577,18952,-908,4888,-1.00,-1.0
1579,21616,-2584,4236,-1.00,-1.0
1581,13116,3764,-8180,-1.00,-1.0
1585,24488,-660,9344,-1.00,-1.0
1587,9808,3212,-12920,-1.00,-1.0
1589,14372,-764,1840,-1.00,-1.0
1591,29724,-5460,20064,-1.00,-1.0
1593,6804,5532,-19272,-1.00,-1.0
1595,12612,-536,20,-1.00,-1.0
1597,27808,-6932,20612,-1.00,-1.0
1599,10568,10956,-19116,-1.00,-1.0
1601,15616,-372,-2656,-1.00,-1.0
1603,28040,-6640,20172,-1.00,-1.0
1605,11484,1752,-10004,-1.00,-1.0
1607,26664,-5400,16552,-1.00,-1.0
1609,10772,4484,-5648,-1.00,-1.0
1611,15804,332,-1284,-1.00,-1.0
1612,20760,-2292,5176,-1.00,-1.0
1614,16180,-1416,2608,-1.00,-1.0
1618,17436,4012,-6480,-1.00,-1.0
1620,16100,-2252,2836,-1.00,-1.0
1622,19240,-3188,10580,-1.00,-1.0
1624,18276,4468,-3664,-1.00,-1.0
1626,9376,2748,-12136,-1.00,-1.0
1628,23644,-7376,16880,-1.00,-1.0
1630,20448,-1920,8576,-1.00,-1.0
1632,4912,11848,-25384,-1.00,-1.0
1634,23248,-4524,11144,-1.00,-1.0
1636,25308,-6040,15776,-1.00,-1.0
1638,10756,3940,-9864,-1.00,-1.0
1640,13784,2536,-6720,-1.00,-1.0
1642,21912,-508,5744,-1.00,-1.0
1644,20304,-4220,6944,-1.00,-1.0
1646,14668,1256,-6592,-1.00,-1.0
1650,15548,1156,-280,-1.00,-1.0
1652,17628,616,2376,-1.00,-1.0
1654,17564,-1164,2120,-1.00,-1.0
1656,15584,196,-680,-1.00,-1.0
1658,13308,692,-2104,-1.00,-1.0
1660,14644,52,3532,-1.00,-1.0
1662,15024,4536,-7796,-1.00,-1.0
1663,18516,-2892,8724,-1.00,-1.0
1665,17480,-2068,2152,-1.00,-1.0
1667,16032,2368,-3232,-1.00,-1.0
1669,11828,2872,-8076,-1.00,-1.0
1671,22040,-4992,15180,-1.00,-1.0
1673,19896,-1284,4168,-1.00,-1.0
1675,9060,11528,-19572,-1.00,-1.0
1677,20840,-4528,8556,-1.00,-1.0
1679,23096,-4404,12892,-1.00,-1.0
1683,13824,528,-5244,-1.00,-1.0
1685,22060,-1476,9100,-1.00,-1.0
1687,16692,-1836,3092,-1.00,-1.0
1689,18436,1536,-2468,-1.00,-1.0
1691,12508,760,-8476,-1.00,-1.0
1693,16860,-708,7972,-1.00,-1.0
1695,22028,-1536,6684,-1.00,-1.0
1697,12356,1544,-7908,-1.00,-1.0
1699,12300,2916,-3160,-1.00,-1.0
1701,22292,-4128,15668,-1.00,-1.0
1703,13872,2644,-8596,-1.00,-1.0
1705,10484,1040,-8632,-1.00,-1.0
1707,27192,-4340,19172,-1.00,-1.0
1709,15044,3488,-7816,-1.00,-1.0
1711,27896,-7508,19196,-1.00,-1.0
1715,14936,1312,-1592,-1.00,-1.0
1717,9340,4180,-9224,-1.00,-1.0
1719,23716,-2212,13472,-1.00,-1.0
1721,15776,-1424,-480,-1.00,-1.0
1723,13228,528,-5144,-1.00,-1.0
1725,19880,-1188,4900,-1.00,-1.0
1726,16016,2628,-1728,-1.00,-1.0
1728,19260,1044,536,-1.00,-1.0
1730,17220,-3204,5256,-1.00,-1.0
1732,18836,2672,1224,-1.00,-1.0
1734,11448,3268,-7628,-1.00,-1.0
1736,13536,36,1692,-1.00,-1.0
1738,24480,-3972,13052,-1.00,-1.0
1740,17160,1460,-5920,-1.00,-1.0
1742,8272,6628,-14976,-1.00,-1.0
1744,24500,-7088,20640,-1.00,-1.0
1748,3632,4184,-22596,-1.00,-1.0
1750,22912,-4088,15680,-1.00,-1.0
1752,25296,-2336,13004,-1.00,-1.0
1754,7456,3312,-19508,-1.00,-1.0
1756,18500,1316,-360,-1.00,-1.0
1758,21040,-3024,11984,-1.00,-1.0
1760,9860,2808,-5496,-1.00,-1.0
1762,17540,1872,-404,-1.00,-1.0
1764,18944,-808,5116,-1.00,-1.0
1766,18592,-1472,1980,-1.00,-1.0
1768,17876,-1296,1396,-1.00,-1.0
1770,12132,4020,-8320,-1.00,-1.0
1772,20940,-2248,8320,-1.00,-1.0
1774,15816,-768,1520,-1.00,-1.0
1775,16072,4904,-1720,-1.00,-1.0
1780,15032,-2072,-2320,-1.00,-1.0
1782,22052,-32,7052,-1.00,-1.0
1784,8788,4256,-15080,-1.00,-1.0
1785,18872,1876,-4048,-1.00,-1.0
1788,17084,-32,-2932,-1.00,-1.0
1789,22828,-2340,12768,-1.00,-1.0
1791,16004,716,-2064,-1.00,-1.0
1793,12676,-316,-4620,-1.00,-1.0
1795,25740,-748,4060,-1.00,-1.0
1797,17892,-2208,2452,-1.00,-1.0
1799,15700,-792,-248,-1.00,-1.0
1801,18292,-624,1508,-1.00,-1.0
1803,13216,2488,-4424,-1.00,-1.0
1805,22204,-1632,6696,-1.00,-1.0
1807,18636,-2172,924,-1.00,-1.0
1809,15188,2624,-1888,-1.00,-1.0
1813,14236,3088,-188,-1.00,-1.0
1815,20760,-3012,10016,-1.00,-1.0
1817,18668,-148,-2884,-1.00,-1.0
1819,7080,4828,-12168,-1.00,-1.0
1821,20208,-3136,14536,-1.00,-1.0
1823,21332,2736,-784,-1.00,-1.0
1825,4724,3496,-16124,-1.00,-1.0
1827,26532,-7492,21212,-1.00,-1.0
1829,20884,4108,-3476,-1.00,-1.0
1831,3928,4220,-17428,-1.00,-1.0
1833,26532,-5120,16836,-1.00,-1.0
1835,18272,188,5648,-1.00,-1.0
1837,5008,6084,-17632,-1.00,-1.0
1839,25808,-3132,13144,-1.00,-1.0
1840,11212,480,-5336,-1.00,-1.0
1842,19752,540,3172,-1.00,-1.0
1847,13804,48,-488,-1.00,-1.0
1849,21684,-1392,7880,-1.00,-1.0
1850,18552,-4800,10808,-1.00,-1.0
1852,18568,2056,1512,-1.00,-1.0
1854,11988,2412,-8360,-1.00,-1.0
1856,20296,-2836,5188,-1.00,-1.0
1858,21764,8,3348,-1.00,-1.0
1860,13856,576,-1968,-1.00,-1.0
1862,13700,4328,-3796,-1.00,-1.0
1864,19992,-2416,9232,-1.00,-1.0
1866,17216,-404,-2128,-1.00,-1.0
1868,15520,-268,-5536,-1.00,-1.0
1870,19644,-612,9432,-1.00,-1.0
1872,11716,2508,-6692,-1.00,-1.0
1874,20496,-1996,9956,-1.00,-1.0
1876,15372,416,-8072,-1.00,-1.0
1880,20768,-2256,3316,-1.00,-1.0
1882,11592,5032,-11892,-1.00,-1.0
1884,20332,-4876,10688,-1.00,-1.0
1886,19376,-2576,3500,-1.00,-1.0
1888,13128,444,-3756,-1.00,-1.0
1890,14812,3464,-3980,-1.00,-1.0
1892,16348,-2036,6884,-1.00,-1.0
1894,23732,-5168,10868,-1.00,-1.0
1896,9792,9068,-17316,-1.00,-1.0
1897,16328,-1496,5688,-1.00,-1.0
1899,9860,4964,-14712,-1.00,-1.0
1901,5756,8028,-21080,-1.00,-1.0
1903,30824,-6600,21516,-1.00,-1.0
1905,10068,4724,-18068,-1.00,-1.0
1907,16104,-1196,-1548,-1.00,-1.0
1911,13524,5196,-8204,-1.00,-1.0
1913,9392,1372,-10984,-1.00,-1.0
1915,24460,-6072,16928,-1.00,-1.0
1917,21788,144,3436,-1.00,-1.0
1919,5940,4396,-16580,-1.00,-1.0
1921,25052,-4960,15364,-1.00,-1.0
1923,19828,-2068,2636,-1.00,-1.0
1925,7992,5944,-16060,-1.00,-1.0
1927,23460,-3932,12532,-1.00,-1.0
1929,17844,-1872,4048,-1.00,-1.0
1931,11316,5420,-11328,-1.00,-1.0
1933,17072,-1016,2568,-1.00,-1.0
1935,21572,-1588,8116,-1.00,-1.0
1937,17040,2908,-764,-1.00,-1.0
1938,11052,2128,-11304,-1.00,-1.0
1943,17924,-812,3020,-1.00,-1.0
1945,15480,7500,-9092,-1.00,-1.0
1947,14360,-208,-1048,-1.00,-1.0
1948,23512,-5948,15956,-1.00,-1.0
1951,12604,3008,-10040,-1.00,-1.0
1953,12708,4748,-7952,-1.00,-1.0
1954,24016,-2740,10608,-1.00,-1.0
1956,14984,1656,-2820,-1.00,-1.0
1958,8884,4756,-7696,-1.00,-1.0
1960,20036,2224,2436,-1.00,-1.0
1962,14592,592,-4940,-1.00,-1.0
1964,11148,-160,-2008,-1.00,-1.0
1966,21312,-188,11492,-1.00,-1.0
1968,14088,1468,-4596,-1.00,-1.0
1970,10708,-1140,-7020,-1.00,-1.0
1972,26072,-7112,22060,-1.00,-1.0
1976,16316,-1428,2320,-1.00,-1.0
1978,26452,-5928,10244,-1.00,-1.0
1980,13136,4676,-7688,-1.00,-1.0
1982,14952,-936,-196,-1.00,-1.0
1984,17084,-820,2188,-1.00,-1.0
1986,16232,1556,2612,-1.00,-1.0
1988,15800,-660,-6068,-1.00,-1.0
1990,18384,-960,6800,-1.00,-1.0
1992,16188,-1564,788,-1.00,-1.0
1994,15472,2456,-3204,-1.00,-1.0
1996,17772,2284,-4100,-1.00,-1.0
1997,16496,-676,6628,-1.00,-1.0
2000,22312,2348,6576,-1.00,-1.0
2002,8748,4136,-14212,-1.00,-1.0
2003,12452,2088,520,-1.00,-1.0
2005,11608,8456,-18268,-1.00,-1.0
2010,9872,5984,-11600,-1.00,-1.0
2012,21368,-4196,12528,-1.00,-1.0
2013,21400,1788,3952,-1.00,-1.0
2015,8748,4088,-16688,-1.00,-1.0
2017,17608,-3568,9160,-1.00,-1.0
2019,26268,1356,8288,-1.00,-1.0
2021,22444,-5052,18328,-1.00,-1.0
2023,21336,-4352,8636,-1.00,-1.0
2025,276,8496,-23020,-1.00,-1.0
2027,23732,-7716,17348,-1.00,-1.0
2029,26036,-3588,9964,-1.00,-1.0
2031,7156,6992,-22384,-1.00,-1.0
2033,16976,-2852,5528,-1.00,-1.0
2035,31480,-4292,20744,-1.00,-1.0
2037,6388,4944,-21184,-1.00,-1.0
2041,28628,-4956,23648,-1.00,-1.0
2043,6536,4972,-14800,-1.00,-1.0
2045,16656,4848,-7752,-1.00,-1.0
2047,25412,-5984,14512,-1.00,-1.0
2049,14896,1228,-632,-1.00,-1.0
2051,15088,2604,-3484,-1.00,-1.0
2053,12840,1444,-5452,-1.00,-1.0
2055,21652,-488,6024,-1.00,-1.0
2057,16608,-1972,308,-1.00,-1.0
2059,16032,1156,2404,-1.00,-1.0
2061,16528,3044,-4828,-1.00,-1.0
2063,12940,2320,-2460,-1.00,-1.0
2065,26200,-2860,8520,-1.00,-1.0
2067,19444,-916,-3100,-1.00,-1.0
2068,4300,6000,-11112,-1.00,-1.0
2070,24036,-5140,23180,-1.00,-1.0
2075,6200,1764,-16920,-1.00,-1.0
2077,30456,-9456,30844,-1.00,-1.0
2078,14484,5408,-8048,-1.00,-1.0
2081,8948,4780,-14040,-1.00,-1.0
2083,25272,-7092,9364,-1.00,-1.0
2084,25180,488,10560,-1.00,-1.0
2086,8624,4520,-16744,-1.00,-1.0
2088,12468,-3036,4512,-1.00,-1.0
2090,27340,-3176,15672,-1.00,-1.0
2092,8488,5376,-20596,-1.00,-1.0
2094,26684,-3932,12772,-1.00,-1.0
2096,1456,10188,-24768,-1.00,-1.0
2098,19156,-6244,7160,-1.00,-1.0
2100,31912,-1964,18516,-1.00,-1.0
2102,4508,5672,-18724,-1.00,-1.0
2106,28424,-2204,14956,-1.00,-1.0
2108,10528,3332,-12620,-1.00,-1.0
2110,17768,-4284,-396,-1.00,-1.0
2112,32767,-3188,19404,-1.00,-1.0
2114,936,8828,-28392,-1.00,-1.0
2116,22860,-9124,16536,-1.00,-1.0
2118,21944,-5004,10772,-1.00,-1.0
2120,2740,14244,-22908,-1.00,-1.0
2122,18956,-3388,4312,-1.00,-1.0
2124,27292,-8304,22808,-1.00,-1.0
2126,11776,9252,-22460,-1.00,-1.0
2128,8768,3448,-6396,-1.00,-1.0
2130,28604,-8664,30968,-1.00,-1.0
2132,11784,7020,-11664,-1.00,-1.0
2133,6564,4824,-18640,-1.00,-1.0
2138,18920,-2720,6460,-1.00,-1.0
2140,8844,5980,-19740,-1.00,-1.0
2142,14588,-720,1944,-1.00,-1.0
2143,27056,-4624,20368,-1.00,-1.0
2146,8976,8416,-19216,-1.00,-1.0
2147,14328,-1580,3636,-1.00,-1.0
2149,27632,-6764,19232,-1.00,-1.0
2151,9688,9224,-18156,-1.00,-1.0
2153,14944,-3336,-1132,-1.00,-1.0
2155,27388,-7588,18916,-1.00,-1.0
2157,12176,1916,-6652,-1.00,-1.0
2159,29528,-7628,20708,-1.00,-1.0
2161,11800,4052,-6348,-1.00,-1.0
2163,12760,3256,-5608,-1.00,-1.0
2165,21572,-928,736,-1.00,-1.0
2167,16052,1516,-740,-1.00,-1.0
2171,12524,2020,-1376,-1.00,-1.0
2173,17368,3260,-804,-1.00,-1.0
2175,16744,252,-4076,-1.00,-1.0
2177,20860,-3920,9216,-1.00,-1.0
2179,21348,-1856,4756,-1.00,-1.0
2181,8688,6844,-13856,-1.00,-1.0
2183,17548,452,1608,-1.00,-1.0
2185,18856,-3652,8432,-1.00,-1.0
2187,14932,1760,2468,-1.00,-1.0
2189,13968,2780,-4240,-1.00,-1.0
2191,17784,-248,1296,-1.00,-1.0
2193,19832,176,-3164,-1.00,-1.0
2195,18144,-5432,8428,-1.00,-1.0
2197,15748,-444,1960,-1.00,-1.0
2198,18532,3192,628,-1.00,-1.0
2200,10656,3056,-14960,-1.00,-1.0
2205,23568,-2608,3832,-1.00,-1.0
2207,4340,14192,-25376,-1.00,-1.0
2208,20988,-3640,10756,-1.00,-1.0
2211,24796,-6308,14632,-1.00,-1.0
2212,7164,10308,-15028,-1.00,-1.0
2214,14172,1196,-384,-1.00,-1.0
2216,28596,-8688,22392,-1.00,-1.0
2218,7928,2960,-21636,-1.00,-1.0
2220,11592,952,3704,-1.00,-1.0
2222,31260,-5464,18452,-1.00,-1.0
2224,11068,-1444,-2580,-1.00,-1.0
2226,14364,348,-3736,-1.00,-1.0
2228,24772,-2828,17136,-1.00,-1.0
2230,14808,5840,-12544,-1.00,-1.0
2232,24356,-3476,12832,-1.00,-1.0
2236,18324,-3680,8612,-1.00,-1.0
2238,22188,-4404,2956,-1.00,-1.0
2240,11516,-4516,-4560,-1.00,-1.0
2242,30008,-7616,19096,-1.00,-1.0
2244,10008,5848,-18208,-1.00,-1.0
2246,20872,-2888,6904,-1.00,-1.0
2248,21508,-140,1124,-1.00,-1.0
2250,8532,4776,-5608,-1.00,-1.0
2252,21112,-2224,7600,-1.00,-1.0
2254,16840,-1104,-376,-1.00,-1.0
2256,16540,3892,-8496,-1.00,-1.0
2257,14340,-1708,1500,-1.00,-1.0
2260,24420,-5640,14372,-1.00,-1.0
2262,11856,1668,-9960,-1.00,-1.0
2263,7012,6664,-12860,-1.00,-1.0
2268,15236,-1820,6772,-1.00,-1.0
2270,12412,2660,-9784,-1.00,-1.0
2272,18008,2484,-2040,-1.00,-1.0
2273,21976,-2652,8452,-1.00,-1.0
2275,13708,-2344,-4660,-1.00,-1.0
2277,24976,-5016,16400,-1.00,-1.0
2279,15280,2424,-14400,-1.00,-1.0
2281,10104,72,-5300,-1.00,-1.0
2283,29864,-11328,23880,-1.00,-1.0
2285,12780,9644,-12784,-1.00,-1.0
2287,9480,1812,-10176,-1.00,-1.0
2289,15548,2440,-6580,-1.00,-1.0
2291,10272,3628,-10512,-1.00,-1.0
2293,30036,-3548,17876,-1.00,-1.0
2295,11600,4984,-10516,-1.00,-1.0
2297,6524,112,-7708,-1.00,-1.0
2301,30416,-7860,19352,-1.00,-1.0
2303,6884,852,-14324,-1.00,-1.0
2305,30648,-10896,30724,-1.00,-1.0
2307,11940,7724,-16528,-1.00,-1.0
2309,8416,2944,-7716,-1.00,-1.0
2311,32484,-8024,25644,-1.00,-1.0
2313,9500,6204,-12596,-1.00,-1.0
2315,9716,-1700,-2588,-1.00,-1.0
2317,31664,-7700,18608,-1.00,-1.0
2319,11180,6552,-16092,-1.00,-1.0
2321,13128,912,-3500,-1.00,-1.0
2323,31900,-12220,25180,-1.00,-1.0
2325,11332,6772,-13228,-1.00,-1.0
2326,5860,6948,-16960,-1.00,-1.0
2328,29876,-5284,23144,-1.00,-1.0
2333,11328,4572,-12468,-1.00,-1.0
2335,17708,672,-960,-1.00,-1.0
2336,18088,-256,9032,-1.00,-1.0
2338,16028,-432,-1216,-1.00,-1.0
2340,23740,-1092,11220,-1.00,-1.0
2342,13784,2612,-15352,-1.00,-1.0
2344,13212,-224,1624,-1.00,-1.0
2346,25768,-7436,15116,-1.00,-1.0
2348,8956,6356,-13468,-1.00,-1.0
2350,14044,5900,-10224,-1.00,-1.0
2352,20860,-1832,17204,-1.00,-1.0
2354,16388,-744,2176,-1.00,-1.0
2356,13720,4008,-7296,-1.00,-1.0
2358,11812,4536,-4544,-1.00,-1.0
2360,15616,4664,-8824,-1.00,-1.0
2364,10584,1304,-10464,-1.00,-1.0
2366,23680,-3640,9368,-1.00,-1.0
2368,19312,56,-1724,-1.00,-1.0
2370,23380,-3872,12036,-1.00,-1.0
2372,10516,5220,-12164,-1.00,-1.0
2374,14284,2212,4324,-1.00,-1.0
2376,22144,-3200,8176,-1.00,-1.0
2378,18536,1792,832,-1.00,-1.0
2380,12640,3992,-14628,-1.00,-1.0
2382,19100,-356,6352,-1.00,-1.0
2384,21952,-4176,8740,-1.00,-1.0
2385,12116,2408,-8152,-1.00,-1.0
2388,16764,4284,-8940,-1.00,-1.0
2390,14644,-864,5560,-1.00,-1.0
2391,19892,-2492,11276,-1.00,-1.0
2393,18164,2468,-4276,-1.00,-1.0
2397,18672,-5204,7596,-1.00,-1.0
2399,23604,-7152,22392,-1.00,-1.0
2401,13272,1920,-16768,-1.00,-1.0
2403,10660,4400,-14776,-1.00,-1.0
2405,27384,-9808,21996,-1.00,-1.0
2407,20696,-3900,5700,-1.00,-1.0
2409,12228,7360,-14464,-1.00,-1.0
2411,15036,2348,-4708,-1.00,-1.0
2413,23356,-7820,18256,-1.00,-1.0
2415,21356,-2772,5504,-1.00,-1.0
2417,21568,-4072,17584,-1.00,-1.0
2419,19956,-2192,8548,-1.00,-1.0
2421,11028,3700,-13536,-1.00,-1.0
2423,18812,-1812,3488,-1.00,-1.0
2425,19700,-1800,4268,-1.00,-1.0
2429,18148,-1396,492,-1.00,-1.0
2431,21672,2708,3416,-1.00,-1.0
2433,13240,1804,-4408,-1.00,-1.0
2435,20328,-6016,7660,-1.00,-1.0
2437,22300,-2960,9476,-1.00,-1.0
2439,11436,4136,-14680,-1.00,-1.0
2440,16656,-1744,1180,-1.00,-1.0
2442,27076,-9180,18576,-1.00,-1.0
2444,13264,1504,-6944,-1.00,-1.0
2446,12368,3928,-10500,-1.00,-1.0
2448,19036,68,4628,-1.00,-1.0
2450,16684,-1332,5256,-1.00,-1.0
2452,22844,-864,7344,-1.00,-1.0
2454,12660,3376,-9480,-1.00,-1.0
2456,8348,188,-6776,-1.00,-1.0
2458,25796,-6960,20528,-1.00,-1.0
2462,15096,5364,-5036,-1.00,-1.0
2464,22732,-2176,6888,-1.00,-1.0
2466,15408,-1036,4540,-1.00,-1.0
2468,17480,-136,-3728,-1.00,-1.0
2470,15356,2900,-3092,-1.00,-1.0
2472,12512,1476,-8208,-1.00,-1.0
2474,21784,2488,3484,-1.00,-1.0
2476,13312,3916,-11348,-1.00,-1.0
2478,17160,-4836,9480,-1.00,-1.0
2480,25444,-6136,12536,-1.00,-1.0
2482,4160,12084,-23384,-1.00,-1.0
2484,12940,336,-1900,-1.00,-1.0
2486,29500,-9256,29808,-1.00,-1.0
2488,7308,5380,-17492,-1.00,-1.0
2489,15260,2808,-2796,-1.00,-1.0
2494,12216,-1876,-2196,-1.00,-1.0
2496,23092,-2904,9948,-1.00,-1.0
2498,18772,436,-6068,-1.00,-1.0
2499,6224,1796,-12316,-1.00,-1.0
2502,25296,-9268,21712,-1.00,-1.0
2504,14540,2324,-2320,-1.00,-1.0
2505,13412,4348,-9748,-1.00,-1.0
2507,22960,-1956,3020,-1.00,-1.0
2509,19664,-7004,6684,-1.00,-1.0
2511,18672,-1584,8004,-1.00,-1.0
2513,14828,5384,-11104,-1.00,-1.0
2515,9152,728,-3804,-1.00,-1.0
2517,27404,-9280,21128,-1.00,-1.0
2519,18012,3036,-3912,-1.00,-1.0
2521,8836,9236,-21480,-1.00,-1.0
2523,23276,-5116,14752,-1.00,-1.0
2527,14912,4208,-7696,-1.00,-1.0
2529,12476,3604,-13424,-1.00,-1.0
2531,18228,-7152,10292,-1.00,-1.0
2533,27184,-7500,23036,-1.00,-1.0
2535,10740,7844,-22940,-1.00,-1.0
2537,8540,4304,-11552,-1.00,-1.0
2539,30252,-9244,28616,-1.00,-1.0
2541,14608,1004,-3340,-1.00,-1.0
2543,10736,9000,-15620,-1.00,-1.0
2545,21856,-6368,17080,-1.00,-1.0
2547,15436,1296,-11264,-1.00,-1.0
2549,6456,6748,-16656,-1.00,-1.0
2551,23232,-6648,22616,-1.00,-1.0
2553,21608,-2440,4664,-1.00,-1.0
2554,11812,6196,-17920,-1.00,-1.0
2559,22276,-7120,12548,-1.00,-1.0
2561,15032,4,0,-1.00,-1.0
2563,14920,2412,-14632,-1.00,-1.0
2564,16728,1288,1520,-1.00,-1.0
2567,21152,-5640,17328,-1.00,-1.0
2569,19164,164,20,-1.00,-1.0
2570,5960,8900,-22108,-1.00,-1.0
2572,17688,0,9688,-1.00,-1.0
2574,26896,-4568,16516,-1.00,-1.0
2576,12728,5324,-12660,-1.00,-1.0
2578,12240,2968,-6464,-1.00,-1.0
2580,18824,-1704,6948,-1.00,-1.0
2582,12532,-1728,5608,-1.00,-1.0
2584,17900,312,-4992,-1.00,-1.0
2586,13824,9508,-8884,-1.00,-1.0
2588,15684,-444,5556,-1.00,-1.0
2592,9704,7304,-17948,-1.00,-1.0
2594,9236,5236,-6792,-1.00,-1.0
2596,27840,-2792,15376,-1.00,-1.0
2598,18384,-2860,8424,-1.00,-1.0
2600,14080,2784,-12904,-1.00,-1.0
2602,11732,2208,-2616,-1.00,-1.0
2604,18596,-940,8416,-1.00,-1.0
2606,16208,3448,-288,-1.00,-1.0
2608,17732,8156,-9600,-1.00,-1.0
2610,11376,2412,-2988,-1.00,-1.0
2612,17544,2776,-15904,-1.00,-1.0
2614,5188,5140,-17560,-1.00,-1.0
2616,31624,-11912,29312,-1.00,-1.0
2618,18972,5476,-3580,-1.00,-1.0
2619,1544,11772,-26928,-1.00,-1.0
2624,19456,-2008,13096,-1.00,-1.0
2626,6168,5924,-15952,-1.00,-1.0
2628,18680,896,-896,-1.00,-1.0
2629,17408,-2888,2768,-1.00,-1.0
2632,21812,-5340,18488,-1.00,-1.0
2634,21764,-1652,-6936,-1.00,-1.0
2635,5832,7436,-19652,-1.00,-1.0
2637,23512,-7704,16976,-1.00,-1.0
2639,22888,-4476,12112,-1.00,-1.0
2641,12712,5244,-9456,-1.00,-1.0
2643,13696,5500,-13296,-1.00,-1.0
2645,22876,-9088,17552,-1.00,-1.0
2647,27224,-6008,17576,-1.00,-1.0
2649,7776,11284,-29760,-1.00,-1.0
2651,7344,-136,-2356,-1.00,-1.0
2653,32767,-12812,32767,-1.00,-1.0
2657,128,10520,-31960,-1.00,-1.0
2659,28836,-9992,32767,-1.00,-1.0
2661,23276,-1820,10784,-1.00,-1.0
2663,3184,14436,-32768,-1.00,-1.0
2665,22436,-3052,7376,-1.00,-1.0
2667,29116,-12772,28340,-1.00,-1.0
2669,8684,5792,-18588,-1.00,-1.0
2671,5148,9004,-30232,-1.00,-1.0
2673,21872,-5872,18784,-1.00,-1.0
2675,5184,11616,-24904,-1.00,-1.0
2677,20212,-2344,7200,-1.00,-1.0
2679,22648,-8784,19120,-1.00,-1.0
2681,15380,516,-1152,-1.00,-1.0
2682,10984,5316,-21452,-1.00,-1.0
2684,17704,-264,5656,-1.00,-1.0
2689,15124,3776,-9968,-1.00,-1.0
2691,844,10532,-25316,-1.00,-1.0
2692,26128,-6036,27324,-1.00,-1.0
2694,22036,-6188,5968,-1.00,-1.0
2696,9876,10220,-21280,-1.00,-1.0
2698,16120,2512,-1680,-1.00,-1.0
2700,26124,-7572,29560,-1.00,-1.0
2702,15672,232,-8292,-1.00,-1.0
2704,6724,7316,-21544,-1.00,-1.0
2706,19628,-6332,9896,-1.00,-1.0
2708,24444,-7644,28700,-1.00,-1.0
2710,10144,4504,-26484,-1.00,-1.0
2712,5468,6800,-14808,-1.00,-1.0
2714,32404,-11364,32767,-1.00,-1.0
2716,21872,-2072,2492,-1.00,-1.0
2720,20560,-2792,15056,-1.00,-1.0
2722,27716,-7948,27952,-1.00,-1.0
2724,11784,6332,-15932,-1.00,-1.0
2726,10420,6492,-20196,-1.00,-1.0
2728,23864,-11484,23332,-1.00,-1.0
2730,26648,-6960,20136,-1.00,-1.0
2732,5120,9720,-32768,-1.00,-1.0
2734,15228,40,-1156,-1.00,-1.0
2736,30236,-12936,32767,-1.00,-1.0
2738,17300,700,-3424,-1.00,-1.0
2740,25128,-10260,27576,-1.00,-1.0
2741,25176,-4180,10760,-1.00,-1.0
2744,5048,10352,-30192,-1.00,-1.0
2746,13520,-12,-1272,-1.00,-1.0
2747,29652,-11628,32767,-1.00,-1.0
2749,16292,2552,-13648,-1.00,-1.0
2754,29276,-8880,30276,-1.00,-1.0
2756,22772,-3896,11656,-1.00,-1.0
2757,2280,13204,-29328,-1.00,-1.0
2759,19164,-180,2884,-1.00,-1.0
2761,27588,-9140,26652,-1.00,-1.0
2763,12448,2704,-9992,-1.00,-1.0
2765,7428,8268,-18932,-1.00,-1.0
2767,27264,-6020,18116,-1.00,-1.0
2769,22364,-2156,10588,-1.00,-1.0
2771,10020,5056,-17880,-1.00,-1.0
2773,20820,4100,524,-1.00,-1.0
2775,15632,-460,-1668,-1.00,-1.0
2777,23520,-9804,18112,-1.00,-1.0
2779,12348,8620,-19548,-1.00,-1.0
2781,5396,9608,-9992,-1.00,-1.0
2785,18388,5596,-6028,-1.00,-1.0
2787,-332,13068,-32768,-1.00,-1.0
2789,30572,-9232,32767,-1.00,-1.0
2791,24852,-4008,11088,-1.00,-1.0
2793,992,10880,-30648,-1.00,-1.0
2795,17480,-3920,4768,-1.00,-1.0
2797,28896,-9592,32767,-1.00,-1.0
2799,9964,2828,-26680,-1.00,-1.0
2801,6356,4920,-17336,-1.00,-1.0
2803,30560,-9444,32767,-1.00,-1.0
2805,19280,-1564,3032,-1.00,-1.0
2807,2184,11888,-32108,-1.00,-1.0
2809,20500,-3192,11920,-1.00,-1.0
2811,4084,10180,-32768,-1.00,-1.0
2812,10344,3716,-6360,-1.00,-1.0
2817,24880,-11828,22088,-1.00,-1.0
2819,24816,-4032,15460,-1.00,-1.0
2821,22912,-4772,20012,-1.00,-1.0
2822,26564,-5668,21152,-1.00,-1.0
2824,7280,8156,-24896,-1.00,-1.0
2826,15556,1936,-5892,-1.00,-1.0
2828,27224,-10360,26960,-1.00,-1.0
2830,18028,2880,-2404,-1.00,-1.0
2832,10368,4956,-21060,-1.00,-1.0
2834,19256,-8324,12016,-1.00,-1.0
2836,25760,-7024,24896,-1.00,-1.0
2838,6224,10120,-27788,-1.00,-1.0
2840,9988,2328,-8116,-1.00,-1.0
2842,32767,-11516,32767,-1.00,-1.0
2844,12988,2516,-6292,-1.00,-1.0
2848,20776,-2904,8560,-1.00,-1.0
2850,28516,-12080,29188,-1.00,-1.0
2852,10728,7884,-17004,-1.00,-1.0
2854,5584,10176,-22316,-1.00,-1.0
2856,28704,-14832,30332,-1.00,-1.0
2858,23916,-3324,10088,-1.00,-1.0
2860,-1300,14712,-32768,-1.00,-1.0
2862,21536,-468,13412,-1.00,-1.0
2864,30452,-8024,26444,-1.00,-1.0
2866,9680,2720,-14212,-1.00,-1.0
2868,7208,3288,-16212,-1.00,-1.0
2870,23292,-3828,19928,-1.00,-1.0
2872,15216,-2620,3096,-1.00,-1.0
2874,15952,4796,-8516,-1.00,-1.0
2875,23276,-5768,19564,-1.00,-1.0
2880,19716,-244,-2324,-1.00,-1.0
2882,8528,6948,-20256,-1.00,-1.0
2884,16288,-4280,6848,-1.00,-1.0
2885,6636,12728,-24128,-1.00,-1.0
2888,5504,8080,-32768,-1.00,-1.0
2889,32767,-12332,32767,-1.00,-1.0
2891,4696,4444,-29336,-1.00,-1.0
2893,6084,6712,-13712,-1.00,-1.0
2895,32767,-10080,30564,-1.00,-1.0
2897,14920,4056,-6520,-1.00,-1.0
2899,6880,3812,-22500,-1.00,-1.0
2901,21064,-3724,22556,-1.00,-1.0
2903,14328,1408,2104,-1.00,-1.0
2905,14916,-60,-5368,-1.00,-1.0
2907,8552,3404,-15124,-1.00,-1.0
2909,26568,-7520,32767,-1.00,-1.0
2913,-3024,9060,-31696,-1.00,-1.0
2915,32648,-13368,32767,-1.00,-1.0
2917,19332,4088,4952,-1.00,-1.0
2919,6044,7428,-19732,-1.00,-1.0
2921,21332,-1296,-92,-1.00,-1.0
2923,24656,-9124,21952,-1.00,-1.0
2925,15360,2992,-7820,-1.00,-1.0
2927,11336,6140,-18844,-1.00,-1.0
2929,16484,-8100,16988,-1.00,-1.0
2931,28248,-5120,25356,-1.00,-1.0
2932,17040,-1208,7056,-1.00,-1.0
2935,8472,-1336,-10592,-1.00,-1.0
2936,32767,-15204,32767,-1.00,-1.0
2938,4388,6884,-12644,-1.00,-1.0
2940,32767,-12396,32767,-1.00,-1.0
2944,668,9592,-30312,-1.00,-1.0
2946,23316,-6164,24080,-1.00,-1.0
2948,23008,-1956,15376,-1.00,-1.0
2950,9752,3640,-27744,-1.00,-1.0
2952,10936,1032,-4684,-1.00,-1.0
2954,28672,-10672,32767,-1.00,-1.0
2956,17164,-532,-6576,-1.00,-1.0
2958,-3500,6884,-32768,-1.00,-1.0
2960,29520,-12412,32767,-1.00,-1.0
2962,25604,432,8248,-1.00,-1.0
2964,-2620,11132,-29828,-1.00,-1.0
2966,28232,-9364,14468,-1.00,-1.0
2968,26620,-4176,21632,-1.00,-1.0
2970,8020,8044,-24816,-1.00,-1.0
2972,21248,-1492,-1764,-1.00,-1.0
2976,16944,1852,6864,-1.00,-1.0
2978,7176,10216,-27072,-1.00,-1.0
2980,16192,-4180,7856,-1.00,-1.0
2982,32767,-9012,27980,-1.00,-1.0
2984,10640,8648,-19712,-1.00,-1.0
2986,2880,9844,-26040,-1.00,-1.0
2988,29976,-11140,32767,-1.00,-1.0
2989,25204,-7752,11340,-1.00,-1.0
2992,-9880,19888,-32768,-1.00,-1.0
2993,25324,-7648,28920,-1.00,-1.0
2995,-8176,20920,-32768,-1.00,-1.0
2997,15312,-9580,5880,-1.00,-1.0
2999,32767,-21600,32767,-1.00,-1.0
3001,-5504,21364,-32768,-1.00,-1.0
3003,1440,10228,-22048,-1.00,-1.0
3007,27848,-12368,32767,-1.00,-1.0
3009,22144,-484,16480,-1.00,-1.0
3011,29048,-7320,30200,-1.00,-1.0
3013,30792,-15428,31428,-1.00,-1.0
3015,168,16028,-32768,-1.00,-1.0
3017,11800,5936,-8812,-1.00,-1.0
3019,32767,-16784,32767,-1.00,-1.0
3021,10720,9112,-21700,-1.00,-1.0
3023,-1508,13640,-29708,-1.00,-1.0
3025,28312,-11512,32767,-1.00,-1.0
3027,24572,-732,17120,-1.00,-1.0
3029,928,11300,-32768,-1.00,-1.0
3031,11396,-2156,6136,-1.00,-1.0
3033,32767,-13680,32767,-1.00,-1.0
3035,5344,7708,-31736,-1.00,-1.0
3039,32767,-18476,32767,-1.00,-1.0
3041,18828,3840,-7944,-1.00,-1.0
3043,-5344,12848,-32768,-1.00,-1.0
3045,32767,-11392,32767,-1.00,-1.0
3047,27888,-9312,23260,-1.00,-1.0
3049,-3072,15128,-32768,-1.00,-1.0
3051,20668,-1908,6076,-1.00,-1.0
3053,32767,-18312,32767,-1.00,-1.0
3055,12116,12052,-19348,-1.00,-1.0
3057,2468,13232,-32768,-1.00,-1.0
3058,32767,-19052,32767,-1.00,-1.0
3060,21832,-1896,8972,-1.00,-1.0
3062,-6444,22968,-32768,-1.00,-1.0
3064,23528,-3200,12872,-1.00,-1.0
3066,2740,10392,-27896,-1.00,-1.0
3070,3344,8956,-18636,-1.00,-1.0
3072,29584,-6300,31968,-1.00,-1.0
3074,20528,-6096,4812,-1.00,-1.0
3076,25680,-15056,20040,-1.00,-1.0
3078,28080,-2184,21152,-1.00,-1.0
3080,420,13812,-32768,-1.00,-1.0
3082,16324,-6972,11172,-1.00,-1.0
3084,32767,-10080,32767,-1.00,-1.0
3086,-24,15464,-32768,-1.00,-1.0
3088,7512,3716,-11712,-1.00,-1.0
3090,32767,-12896,32767,-1.00,-1.0
3092,11508,2212,-17004,-1.00,-1.0
3094,-6612,10992,-32768,-1.00,-1.0
3096,32767,-13036,32767,-1.00,-1.0
3098,26108,-5484,12812,-1.00,-1.0
3102,27616,-10208,31816,-1.00,-1.0
3104,32767,-15264,32767,-1.00,-1.0
3106,-14612,17748,-32768,-1.00,-1.0
3108,24496,-5448,16588,-1.00,-1.0
3110,32767,-16624,32767,-1.00,-1.0
3112,3508,13376,-30180,-1.00,-1.0
3114,12496,3464,-10632,-1.00,-1.0
3116,32767,-16768,32767,-1.00,-1.0
3118,10872,3520,-13592,-1.00,-1.0
3120,3156,12576,-30580,-1.00,-1.0
3122,31228,-9036,29496,-1.00,-1.0
3124,20936,1372,4836,-1.00,-1.0
3126,5868,9524,-21136,-1.00,-1.0
3127,12824,-1364,5248,-1.00,-1.0
3129,27328,-1192,25508,-1.00,-1.0
3134,3916,2812,-10628,-1.00,-1.0
3136,32767,-12432,32767,-1.00,-1.0
3137,8860,7752,-23960,-1.00,-1.0
3139,-4280,4136,-30296,-1.00,-1.0
3141,32767,-16376,32767,-1.00,-1.0
3143,18384,3492,-5740,-1.00,-1.0
3145,29800,-8520,32652,-1.00,-1.0
3147,25680,240,9056,-1.00,-1.0
3149,-1124,11576,-32768,-1.00,-1.0
3151,15528,-2452,9400,-1.00,-1.0
3153,32000,-3992,32767,-1.00,-1.0
3155,3320,6296,-32768,-1.00,-1.0
3157,13116,-5832,-1836,-1.00,-1.0
3159,32767,-8908,32767,-1.00,-1.0
3161,2888,14068,-29596,-1.00,-1.0
3163,8484,468,-8712,-1.00,-1.0
3169,5040,10332,-27560,-1.00,-1.0
3171,26680,-6644,29880,-1.00,-1.0
3173,27288,-9372,12248,-1.00,-1.0
3175,-4360,16180,-32768,-1.00,-1.0
3177,22108,-5368,20912,-1.00,-1.0
3179,32767,-14360,31832,-1.00,-1.0
3181,-6852,12228,-32768,-1.00,-1.0
3183,17484,-728,11044,-1.00,-1.0
3185,32552,-7664,27120,-1.00,-1.0
3187,6976,11312,-21820,-1.00,-1.0
3188,17636,-1460,-4624,-1.00,-1.0
3190,28236,-11480,28092,-1.00,-1.0
3192,16060,7272,-11684,-1.00,-1.0
3194,8188,4536,-21156,-1.00,-1.0
3196,32692,-20640,31816,-1.00,-1.0
3200,496,16712,-31156,-1.00,-1.0
3202,22040,-10308,14336,-1.00,-1.0
3204,32767,-5388,20516,-1.00,-1.0
3206,4240,13196,-32768,-1.00,-1.0
3208,13392,-2296,8784,-1.00,-1.0
3210,-5820,18460,-32768,-1.00,-1.0
3212,19620,-6396,21396,-1.00,-1.0
3214,32767,-21060,32767,-1.00,-1.0
3216,-8820,19968,-32768,-1.00,-1.0
3218,17140,-5604,11536,-1.00,-1.0
3220,32767,-21204,32767,-1.00,-1.0
3222,-6332,13292,-32768,-1.00,-1.0
3224,10564,3148,-4736,-1.00,-1.0
3226,32767,-13220,32767,-1.00,-1.0
3228,10576,9932,-18404,-1.00,-1.0
3232,32767,-19644,32767,-1.00,-1.0
3234,15896,7688,-13832,-1.00,-1.0
3236,-2704,11384,-32024,-1.00,-1.0
3238,32767,-25324,32767,-1.00,-1.0
3240,20012,768,4776,-1.00,-1.0
3242,-6960,19316,-32768,-1.00,-1.0
3244,29964,-10372,25980,-1.00,-1.0
3246,27560,-3756,10164,-1.00,-1.0
3248,4352,15236,-24680,-1.00,-1.0
3250,17176,-320,4056,-1.00,-1.0
3252,29120,-3264,27816,-1.00,-1.0
3254,8076,3008,-19460,-1.00,-1.0
3256,7376,3256,-15276,-1.00,-1.0
3258,32756,-6980,32767,-1.00,-1.0
3260,15304,3080,-15908,-1.00,-1.0
3264,25304,-8124,20380,-1.00,-1.0
3266,16908,5200,-3616,-1.00,-1.0
3268,6628,4896,-15572,-1.00,-1.0
3270,25952,2092,9644,-1.00,-1.0
3272,22680,-988,10036,-1.00,-1.0
3274,2960,8800,-15856,-1.00,-1.0
3276,23604,-3324,23000,-1.00,-1.0
3278,17412,-1924,-11020,-1.00,-1.0
3280,-860,2084,-14788,-1.00,-1.0
3281,32767,-12192,32767,-1.00,-1.0
3283,13812,5592,-16840,-1.00,-1.0
3285,156,1160,-26556,-1.00,-1.0
3287,32767,-12036,32767,-1.00,-1.0
3289,18376,4076,-4988,-1.00,-1.0
3291,-6008,15004,-31860,-1.00,-1.0
3295,26812,-8104,16944,-1.00,-1.0
3297,-8172,21116,-32768,-1.00,-1.0
3299,28632,-10176,32767,-1.00,-1.0
3301,32767,-18128,30300,-1.00,-1.0
3303,-14240,17652,-32768,-1.00,-1.0
3305,16384,-1572,3720,-1.00,-1.0
3307,-8696,23616,-32768,-1.00,-1.0
3309,4376,9208,-30928,-1.00,-1.0
3311,5284,12112,-17692,-1.00,-1.0
3313,12532,12548,-20336,-1.00,-1.0
3315,-2908,14104,-32624,-1.00,-1.0
3317,32767,-9692,32767,-1.00,-1.0
3319,8940,1780,-24540,-1.00,-1.0
3321,-4540,7496,-20216,-1.00,-1.0
3323,32767,-13728,32767,-1.00,-1.0
3327,668,1728,-22976,-1.00,-1.0
3329,32767,-14312,32767,-1.00,-1.0
3331,9624,11936,-18708,-1.00,-1.0
3333,-2124,10892,-31700,-1.00,-1.0
3335,32767,-9588,32767,-1.00,-1.0
3337,20356,1116,12608,-1.00,-1.0
3339,-2052,17488,-32768,-1.00,-1.0
3341,32767,-8096,26912,-1.00,-1.0
3343,24152,-12388,13084,-1.00,-1.0
3345,5676,10464,-18860,-1.00,-1.0
3346,13984,1556,-1804,-1.00,-1.0
3349,26160,-8892,19680,-1.00,-1.0
3351,15296,-976,-8656,-1.00,-1.0
3352,6360,8808,-13620,-1.00,-1.0
3354,26332,-6804,15948,-1.00,-1.0
3359,11212,3260,4508,-1.00,-1.0
3361,32767,-10340,21068,-1.00,-1.0
3362,-736,14100,-31580,-1.00,-1.0
3364,21092,-8824,26576,-1.00,-1.0
3366,32767,-13920,23364,-1.00,-1.0
3368,-7880,12836,-32768,-1.00,-1.0
3370,23224,-6360,17944,-1.00,-1.0
3372,32767,-8412,25584,-1.00,-1.0
3374,-1956,11416,-32768,-1.00,-1.0
3376,16244,2720,3204,-1.00,-1.0
3378,5112,11988,-31876,-1.00,-1.0
3380,4540,14028,-25848,-1.00,-1.0
3382,13536,976,-1168,-1.00,-1.0
3384,11972,-1780,-9680,-1.00,-1.0
3386,3668,2852,-19528,-1.00,-1.0
3390,32488,-13120,25880,-1.00,-1.0
3392,8308,80,-16272,-1.00,-1.0
3394,28312,-5000,17844,-1.00,-1.0
3396,8336,11032,-12560,-1.00,-1.0
3398,9004,2276,-8144,-1.00,-1.0
3400,32632,-284,19660,-1.00,-1.0
3402,13980,40,-10204,-1.00,-1.0
3404,9332,4220,-12672,-1.00,-1.0
3406,31320,-5540,31712,-1.00,-1.0
3408,11404,1468,-27720,-1.00,-1.0
3410,12052,-5832,972,-1.00,-1.0
3412,27812,-9452,25688,-1.00,-1.0
3414,8740,10808,-14068,-1.00,-1.0
3416,7432,1236,-19568,-1.00,-1.0
3417,26704,-4164,22560,-1.00,-1.0
3422,-296,15920,-29024,-1.00,-1.0
3424,26744,-3404,15956,-1.00,-1.0
3425,27144,-9520,13052,-1.00,-1.0
3427,2052,7384,-22500,-1.00,-1.0
3429,22388,-1088,15480,-1.00,-1.0
3431,24244,-1652,3828,-1.00,-1.0
3433,10964,-4156,-11272,-1.00,-1.0
3435,19944,-1116,6808,-1.00,-1.0
3437,17800,2700,1736,-1.00,-1.0
3439,9024,5024,-13632,-1.00,-1.0
3441,16260,2488,3560,-1.00,-1.0
3443,14388,7536,-6208,-1.00,-1.0
3445,11544,11524,-19768,-1.00,-1.0
3447,25864,-3992,20048,-1.00,-1.0
3449,12668,24,-11584,-1.00,-1.0
3451,11392,-6044,-11100,-1.00,-1.0
3455,15364,1700,4388,-1.00,-1.0
3457,18180,-6140,-944,-1.00,-1.0
3459,12076,1032,-9640,-1.00,-1.0
3461,15804,3248,252,-1.00,-1.0
3463,23744,-3044,4952,-1.00,-1.0
3465,4000,10252,-9992,-1.00,-1.0
3466,17108,312,14240,-1.00,-1.0
3468,24308,-4752,12120,-1.00,-1.0
3470,3180,12308,-30072,-1.00,-1.0
3472,24076,-10208,20428,-1.00,-1.0
3474,32767,-13188,20720,-1.00,-1.0
3476,-10100,12504,-32768,-1.00,-1.0
3478,18884,-2024,9876,-1.00,-1.0
3480,32767,-10376,27480,-1.00,-1.0
3482,1368,9232,-30164,-1.00,-1.0
3486,23876,-5916,21504,-1.00,-1.0
3488,8764,11156,-16016,-1.00,-1.0
3490,18528,-4104,2856,-1.00,-1.0
3492,29568,-13472,20996,-1.00,-1.0
3494,6476,7208,-9712,-1.00,-1.0
3496,10920,2624,-3412,-1.00,-1.0
3498,30736,-14404,19224,-1.00,-1.0
3500,14264,-10324,1264,-1.00,-1.0
3502,12860,5592,-616,-1.00,-1.0
3504,5240,13832,-25012,-1.00,-1.0
3506,11692,-772,-3284,-1.00,-1.0
3508,32767,-2268,16888,-1.00,-1.0
3510,10608,6216,-13092,-1.00,-1.0
3512,12940,5660,-13684,-1.00,-1.0
3514,27720,-2616,24400,-1.00,-1.0
3518,13940,-4428,6208,-1.00,-1.0
3520,23128,140,10872,-1.00,-1.0
3522,10112,8196,-12008,-1.00,-1.0
3524,17728,-4900,-2412,-1.00,-1.0
3526,22700,1044,8756,-1.00,-1.0
3528,12728,3916,-7276,-1.00,-1.0
3530,12356,4516,920,-1.00,-1.0
3531,20988,2188,-440,-1.00,-1.0
3534,18040,-2984,3040,-1.00,-1.0
3535,17056,-7100,2844,-1.00,-1.0
3537,24560,1568,12580,-1.00,-1.0
3539,9244,4384,-27724,-1.00,-1.0
3541,22128,-15092,21020,-1.00,-1.0
3543,24464,-5436,15208,-1.00,-1.0
3545,740,18032,-29976,-1.00,-1.0
3547,17448,-3924,1152,-1.00,-1.0
3551,11272,8736,-17184,-1.00,-1.0
3553,5768,6220,-12312,-1.00,-1.0
3555,31068,-8720,32767,-1.00,-1.0
3557,11228,-4388,-17136,-1.00,-1.0
3559,7644,-7188,-5516,-1.00,-1.0
3561,28972,-11608,18452,-1.00,-1.0
3563,17444,1440,-404,-1.00,-1.0
3565,11212,-5004,-13932,-1.00,-1.0
3567,20784,-1476,11208,-1.00,-1.0
3569,20092,1564,3216,-1.00,-1.0
3571,18656,2776,1380,-1.00,-1.0
3573,24280,-2040,7520,-1.00,-1.0
3575,14808,3536,-5368,-1.00,-1.0
3577,23980,-7220,11216,-1.00,-1.0
3579,9260,8864,-16368,-1.00,-1.0
3583,13840,-11988,3704,-1.00,-1.0
3585,23412,-7816,19996,-1.00,-1.0
3587,13296,6932,-7460,-1.00,-1.0
3589,24164,-2548,14688,-1.00,-1.0
3591,14672,3400,-10280,-1.00,-1.0
3593,9940,9480,-13464,-1.00,-1.0
3595,27272,-5108,18020,-1.00,-1.0
3596,17536,8436,-2328,-1.00,-1.0
3599,7276,3416,-19056,-1.00,-1.0
3601,32040,-17148,32332,-1.00,-1.0
3602,8396,3780,-16720,-1.00,-1.0
3604,10932,4544,-6580,-1.00,-1.0
3606,31356,-14564,18648,-1.00,-1.0
3608,14716,-3128,-3076,-1.00,-1.0
3610,8200,5144,-11628,-1.00,-1.0
3614,19896,-3688,4988,-1.00,-1.0
3616,12448,11964,-21816,-1.00,-1.0
3618,24040,-5356,19888,-1.00,-1.0
3620,22100,-9748,19256,-1.00,-1.0
3622,9660,13248,-22636,-1.00,-1.0
3624,14480,-2716,-10508,-1.00,-1.0
3626,32767,-22472,32767,-1.00,-1.0
3628,13768,2224,-6024,-1.00,-1.0
3630,-3700,17472,-32768,-1.00,-1.0
3632,29496,-13376,27372,-1.00,-1.0
3634,22824,-3436,10124,-1.00,-1.0
3636,7700,12492,-20156,-1.00,-1.0
3638,16116,-1116,5172,-1.00,-1.0
3640,27500,-2172,18216,-1.00,-1.0
3642,17528,872,828,-1.00,-1.0
3646,27896,-2660,20752,-1.00,-1.0
3648,5684,9148,-19944,-1.00,-1.0
3650,20804,-9292,11472,-1.00,-1.0
3652,8136,-1772,-13076,-1.00,-1.0
3654,8336,11928,-15824,-1.00,-1.0
3656,18968,-2048,4004,-1.00,-1.0
3658,9528,3448,-11344,-1.00,-1.0
3660,23080,5060,-80,-1.00,-1.0
3662,23832,-6692,15016,-1.00,-1.0
3664,8740,-508,-5336,-1.00,-1.0
3666,17592,3472,3028,-1.00,-1.0
3667,16164,-3280,-9840,-1.00,-1.0
3670,22420,-15256,18292,-1.00,-1.0
3672,19984,-4160,4764,-1.00,-1.0
3673,5500,13024,-18624,-1.00,-1.0
3675,18256,-6712,4896,-1.00,-1.0
3679,16268,5796,-7540,-1.00,-1.0
3681,9556,5032,-8636,-1.00,-1.0
3683,25164,-4932,19360,-1.00,-1.0
3685,20132,-2956,5516,-1.00,-1.0
3687,10736,-4420,-18992,-1.00,-1.0
3689,22384,-3004,12940,-1.00,-1.0
3691,17400,768,6544,-1.00,-1.0
3693,18340,-3220,-540,-1.00,-1.0
3695,12804,-1476,-2632,-1.00,-1.0
3697,15092,5828,-4296,-1.00,-1.0
3699,21904,-1160,9424,-1.00,-1.0
3701,9708,6884,-9772,-1.00,-1.0
3703,19548,2648,8844,-1.00,-1.0
3705,23284,-1112,4804,-1.00,-1.0
3707,9152,-1796,6504,-1.00,-1.0
3711,12900,584,-16488,-1.00,-1.0
3713,20284,-15908,8484,-1.00,-1.0
3715,29776,-11004,22424,-1.00,-1.0
3716,4640,15696,-24596,-1.00,-1.0
3719,11220,-1948,-4656,-1.00,-1.0
3721,31580,-7652,26404,-1.00,-1.0
3722,17836,8556,-7236,-1.00,-1.0
3724,9060,6988,-19676,-1.00,-1.0
3726,25632,-1240,15132,-1.00,-1.0
3728,18412,-2564,11004,-1.00,-1.0
3730,13912,-2984,-6896,-1.00,-1.0
3732,4900,5436,-13320,-1.00,-1.0
3734,20508,-2356,22144,-1.00,-1.0
3736,24116,-3032,-672,-1.00,-1.0
3738,4752,3980,-22912,-1.00,-1.0
3740,21632,688,9204,-1.00,-1.0
3744,8344,3840,-17476,-1.00,-1.0
3746,21116,9804,-6924,-1.00,-1.0
3748,22704,-1792,8276,-1.00,-1.0
3750,17460,-8536,17940,-1.00,-1.0
3752,11516,8568,-20388,-1.00,-1.0
3754,11144,3472,-8496,-1.00,-1.0
3756,28424,-17140,21524,-1.00,-1.0
3758,16056,2492,1588,-1.00,-1.0
3760,7100,10296,-17816,-1.00,-1.0
3762,20460,-3980,7084,-1.00,-1.0
3764,16912,-4740,5136,-1.00,-1.0
3766,16052,4472,912,-1.00,-1.0
3768,19208,-960,-2000,-1.00,-1.0
3770,11408,3220,-8692,-1.00,-1.0
3772,21044,5324,-2312,-1.00,-1.0
3776,2220,8832,-18948,-1.00,-1.0
3778,21740,-4436,21068,-1.00,-1.0
3780,28572,-4988,18312,-1.00,-1.0
3782,24420,-13360,18100,-1.00,-1.0
3784,21748,908,8760,-1.00,-1.0
3786,31888,-7996,21964,-1.00,-1.0
3788,11208,-1580,2420,-1.00,-1.0
3789,32767,-7324,30712,-1.00,-1.0
3792,12976,2068,-13948,-1.00,-1.0
3794,9740,-2968,-9752,-1.00,-1.0
3795,32312,-10148,32767,-1.00,-1.0
3798,13520,3712,-16024,-1.00,-1.0
3799,8876,-2648,-15376,-1.00,-1.0
3801,24364,-8044,26656,-1.00,-1.0
3803,19240,6156,11688,-1.00,-1.0
3807,19688,-8036,12664,-1.00,-1.0
3809,32767,-4128,25700,-1.00,-1.0
3811,4892,13248,-30076,-1.00,-1.0
3813,11836,-5340,4236,-1.00,-1.0
3815,32767,-7508,32767,-1.00,-1.0
3817,3112,9700,-32768,-1.00,-1.0
3819,10520,-5068,-3000,-1.00,-1.0
3821,32767,-6684,32524,-1.00,-1.0
3823,2908,12796,-30108,-1.00,-1.0
3825,11524,-4356,-764,-1.00,-1.0
3827,31828,-2996,19976,-1.00,-1.0
3829,7060,9528,-15672,-1.00,-1.0
3831,15036,-5476,2240,-1.00,-1.0
3833,20760,1872,7312,-1.00,-1.0
3835,11968,3016,-4784,-1.00,-1.0
3837,20140,-6492,5540,-1.00,-1.0
3841,16388,2128,2440,-1.00,-1.0
3843,19668,-4072,2420,-1.00,-1.0
3845,11220,3160,-2868,-1.00,-1.0
3847,19228,2196,3516,-1.00,-1.0
3849,22740,-4596,2432,-1.00,-1.0
3851,11356,4344,-7732,-1.00,-1.0
3853,23832,2092,5780,-1.00,-1.0
3855,23900,-6028,4988,-1.00,-1.0
3857,4884,7188,-20748,-1.00,-1.0
3859,26812,292,12824,-1.00,-1.0
3860,10328,4344,-19952,-1.00,-1.0
3863,18448,-12284,10008,-1.00,-1.0
3864,25976,-1364,16244,-1.00,-1.0
3866,4056,10384,-21400,-1.00,-1.0
3868,20388,-9924,8680,-1.00,-1.0
3872,15184,-1088,7476,-1.00,-1.0
3874,20680,-3924,1556,-1.00,-1.0
3876,9252,5768,-12324,-1.00,-1.0
3878,18676,-3544,10264,-1.00,-1.0
3880,27208,-10152,15780,-1.00,-1.0
3882,2676,4624,-17944,-1.00,-1.0
3884,17484,2048,7320,-1.00,-1.0
3886,26116,-6932,8564,-1.00,-1.0
3888,10252,5348,-10112,-1.00,-1.0
3890,21972,2552,5004,-1.00,-1.0
3892,25464,-3664,5880,-1.00,-1.0
3894,4540,3688,-11008,-1.00,-1.0
3896,19260,-732,9176,-1.00,-1.0
3898,23568,-4300,6364,-1.00,-1.0
3900,6128,7156,-20408,-1.00,-1.0
3902,23340,60,14196,-1.00,-1.0
3906,4608,3952,-13232,-1.00,-1.0
3908,23060,6744,1272,-1.00,-1.0
3910,18748,-2120,-1388,-1.00,-1.0
3912,17456,-3808,11480,-1.00,-1.0
3914,18740,6732,-5204,-1.00,-1.0
3916,12472,1624,-3396,-1.00,-1.0
3918,19032,-5956,4760,-1.00,-1.0
3920,23520,2628,1076,-1.00,-1.0
3922,15812,2160,-9256,-1.00,-1.0
3924,20328,-8688,11028,-1.00,-1.0
3925,4800,-612,-13300,-1.00,-1.0
3928,25860,-404,18896,-1.00,-1.0
3929,18324,-1064,-9708,-1.00,-1.0
3931,9156,2008,-5560,-1.00,-1.0
3933,27472,-1292,12372,-1.00,-1.0
3937,5176,396,-10192,-1.00,-1.0
3939,27388,-2088,14904,-1.00,-1.0
3941,16228,-372,-11448,-1.00,-1.0
3943,9952,-3136,-4332,-1.00,-1.0
3945,29528,-4256,18444,-1.00,-1.0
3947,12404,6368,-10772,-1.00,-1.0
3949,9268,-2848,-7364,-1.00,-1.0
3951,22624,888,9676,-1.00,-1.0
3953,13476,3552,1628,-1.00,-1.0
3955,13592,608,-576,-1.00,-1.0
3957,18036,4444,-3108,-1.00,-1.0
3959,16892,-752,2572,-1.00,-1.0
3961,25048,-9396,10968,-1.00,-1.0
3963,9392,9980,-18484,-1.00,-1.0
3965,12692,2488,1780,-1.00,-1.0
3967,27956,-11516,23728,-1.00,-1.0
3971,13268,2836,2560,-1.00,-1.0
3973,30336,-6236,14656,-1.00,-1.0
3974,11004,-2560,-4936,-1.00,-1.0
3977,16676,3156,-5060,-1.00,-1.0
3979,29636,-9420,21764,-1.00,-1.0
3980,2040,3412,-14796,-1.00,-1.0
3982,28932,-3752,20232,-1.00,-1.0
3984,17032,-2992,-5228,-1.00,-1.0
3986,8372,-1732,-12412,-1.00,-1.0
3988,29948,-4632,22180,-1.00,-1.0
3990,13788,7532,-13772,-1.00,-1.0
3992,13740,-5184,-2048,-1.00,-1.0
3994,18488,4284,2096,-1.00,-1.0
3996,17040,1452,13088,-1.00,-1.0
3998,14128,-1236,-5904,-1.00,-1.0
4002,23120,-5692,11524,-1.00,-1.0
4004,25408,-8264,9524,-1.00,-1.0
4006,3412,7420,-17964,-1.00,-1.0
4008,14536,2524,4892,-1.00,-1.0
4010,28432,-10228,14956,-1.00,-1.0
4012,7052,9388,-18640,-1.00,-1.0
4014,15660,2672,2324,-1.00,-1.0
4016,30500,-7816,21576,-1.00,-1.0
4018,6316,12112,-22388,-1.00,-1.0
4020,15760,4216,-5548,-1.00,-1.0
4022,32767,-15056,32767,-1.00,-1.0
4024,9176,1096,-8672,-1.00,-1.0
4026,7420,11328,-19880,-1.00,-1.0
4028,21896,-4908,8240,-1.00,-1.0
4030,24948,-7260,17568,-1.00,-1.0
4034,11416,6188,-12616,-1.00,-1.0
4036,29868,-15716,32767,-1.00,-1.0
4038,10468,9916,-21000,-1.00,-1.0
4040,3080,8624,-16596,-1.00,-1.0
4042,29292,-10976,28560,-1.00,-1.0
4044,18100,3840,4052,-1.00,-1.0
4045,4476,8724,-26712,-1.00,-1.0
4047,21660,-1232,5008,-1.00,-1.0
4049,-3544,8000,-25616,-1.00,-1.0
4051,24828,-2664,14636,-1.00,-1.0
4053,28972,-7812,12204,-1.00,-1.0
4055,752,8808,-25856,-1.00,-1.0
4057,24444,-3064,20756,-1.00,-1.0
4059,25152,-5572,14400,-1.00,-1.0
4061,2996,4672,-21824,-1.00,-1.0
4065,27880,-5984,21508,-1.00,-1.0
4067,18288,-3972,5168,-1.00,-1.0
4069,-1848,15716,-28492,-1.00,-1.0
4071,22820,-4344,22236,-1.00,-1.0
4073,25076,-9484,6708,-1.00,-1.0
4075,2448,13800,-30044,-1.00,-1.0
4077,24420,-2908,19240,-1.00,-1.0
4079,27768,-11348,20324,-1.00,-1.0
4081,-1784,5568,-27128,-1.00,-1.0
4083,18292,-388,9800,-1.00,-1.0
4085,29928,-7312,11600,-1.00,-1.0
4087,9240,2252,-6844,-1.00,-1.0
4089,23412,4200,2076,-1.00,-1.0
4091,22628,-1896,-100,-1.00,-1.0
4093,13508,-7032,2248,-1.00,-1.0
4095,25656,296,7520,-1.00,-1.0
4099,13368,-7180,7684,-1.00,-1.0
4101,27508,-2136,16472,-1.00,-1.0
4103,5488,9512,-22116,-1.00,-1.0
4105,17572,-7940,7616,-1.00,-1.0
4107,22456,268,5956,-1.00,-1.0
4109,3988,11824,-10212,-1.00,-1.0
4110,20512,-4340,9136,-1.00,-1.0
4112,7780,712,-11408,-1.00,-1.0
4114,9628,3812,-10840,-1.00,-1.0
4116,23920,-5564,11660,-1.00,-1.0
4118,3848,1668,-10224,-1.00,-1.0
4120,25172,-2200,16236,-1.00,-1.0
4122,19820,-2260,-2840,-1.00,-1.0
4124,7932,-1448,-4188,-1.00,-1.0
4126,25576,-1140,9428,-1.00,-1.0
4130,12324,-2988,-5244,-1.00,-1.0
4132,24924,688,11084,-1.00,-1.0
4134,15028,3992,-1864,-1.00,-1.0
4136,15024,-5900,344,-1.00,-1.0
4138,14840,4216,-5132,-1.00,-1.0
4140,17156,-808,8916,-1.00,-1.0
4142,21092,-6008,4172,-1.00,-1.0
4144,10128,6672,-8868,-1.00,-1.0
4146,18780,1436,7536,-1.00,-1.0
4148,25036,-9020,9648,-1.00,-1.0
4150,5780,1160,-13600,-1.00,-1.0
4152,20316,32,10044,-1.00,-1.0
4154,21836,-2132,-1976,-1.00,-1.0
4156,11544,884,-2796,-1.00,-1.0
4158,27124,-2508,10784,-1.00,-1.0
4160,19588,-1564,-2380,-1.00,-1.0
4164,21180,-1372,10628,-1.00,-1.0
4166,23328,-5172,4072,-1.00,-1.0
4168,2368,6308,-15572,-1.00,-1.0
4170,25600,-3440,17428,-1.00,-1.0
4172,22520,-1412,3540,-1.00,-1.0
4174,4104,2572,-21156,-1.00,-1.0
4176,28144,1204,14900,-1.00,-1.0
4177,18880,-188,556,-1.00,-1.0
4179,12316,-5672,1504,-1.00,-1.0
4181,18836,7120,-9268,-1.00,-1.0
4183,23320,-1460,17044,-1.00,-1.0
4185,27936,-12240,19264,-1.00,-1.0
4187,9780,12268,-21936,-1.00,-1.0
4189,32767,-7772,32767,-1.00,-1.0
4191,11248,9188,-31068,-1.00,-1.0
4197,11156,9700,-18020,-1.00,-1.0
4199,19124,3232,384,-1.00,-1.0
4201,32767,-7972,32767,-1.00,-1.0
4203,20848,-236,5376,-1.00,-1.0
4205,-7968,10936,-32768,-1.00,-1.0
4207,27576,-6360,20976,-1.00,-1.0
4209,26356,-5712,14792,-1.00,-1.0
4211,1352,3060,-25384,-1.00,-1.0
4213,27316,1080,10456,-1.00,-1.0
4215,19644,36,2544,-1.00,-1.0
4217,17576,-7176,2800,-1.00,-1.0
4219,8312,7700,-14056,-1.00,-1.0
4221,16984,1688,11908,-1.00,-1.0
4223,23388,-6180,11644,-1.00,-1.0
4225,6412,9608,-25232,-1.00,-1.0
4227,23304,-5824,19980,-1.00,-1.0
4231,1192,12252,-22604,-1.00,-1.0
4233,16152,532,5188,-1.00,-1.0
4235,32767,-12548,26300,-1.00,-1.0
4237,1048,5604,-22596,-1.00,-1.0
4239,13752,5556,844,-1.00,-1.0
4240,30560,-7068,12016,-1.00,-1.0
4242,5648,4544,-9276,-1.00,-1.0
4244,22916,1572,5364,-1.00,-1.0
4246,23328,-2208,2800,-1.00,-1.0
4248,1548,2856,-16904,-1.00,-1.0
4250,17080,6536,-11284,-1.00,-1.0
4252,17812,-556,-9468,-1.00,-1.0
4254,4760,-1672,-8864,-1.00,-1.0
4256,7144,6884,-6236,-1.00,-1.0
4258,10556,6028,-2484,-1.00,-1.0
4262,20884,4412,4136,-1.00,-1.0
4264,6108,9504,-5612,-1.00,-1.0
4266,27492,-3704,988,-1.00,-1.0
4268,144,7680,-14872,-1.00,-1.0
4270,25680,-8980,28084,-1.00,-1.0
4272,22524,-2156,2688,-1.00,-1.0
4274,-7580,4568,-32768,-1.00,-1.0
4276,32767,-8840,32767,-1.00,-1.0
4278,22004,108,-13656,-1.00,-1.0
4280,436,1664,-12932,-1.00,-1.0
4282,30920,-4424,27836,-1.00,-1.0
4284,12304,9220,-12176,-1.00,-1.0
4286,2100,4136,-20180,-1.00,-1.0
4288,32767,-6484,25900,-1.00,-1.0
4290,18340,2068,1320,-1.00,-1.0
4291,-6104,10800,-24252,-1.00,-1.0
4296,18948,-5648,-2444,-1.00,-1.0
4298,3704,1532,-24360,-1.00,-1.0
4300,30416,-1828,19136,-1.00,-1.0
4302,16460,3920,-3768,-1.00,-1.0
4304,15704,-5956,2984,-1.00,-1.0
4306,18532,9868,-12364,-1.00,-1.0
4308,13320,1500,7092,-1.00,-1.0
4310,28204,-11420,21744,-1.00,-1.0
4312,11576,12892,-23072,-1.00,-1.0
4314,8868,1912,-7108,-1.00,-1.0
4315,32767,-19104,32767,-1.00,-1.0
4318,8384,8252,-24444,-1.00,-1.0
4320,3924,11760,-19360,-1.00,-1.0
4321,32767,-18692,30280,-1.00,-1.0
4323,14144,6096,-5808,-1.00,-1.0
4328,31480,-11236,27676,-1.00,-1.0
4330,10352,9648,-10628,-1.00,-1.0
4331,10924,3348,-9136,-1.00,-1.0
4333,32767,-16432,32036,-1.00,-1.0
4335,6108,6504,-17140,-1.00,-1.0
4337,8844,7460,-10676,-1.00,-1.0
4339,27628,-7264,15792,-1.00,-1.0
4341,10512,-452,1320,-1.00,-1.0
4343,23120,8160,-2184,-1.00,-1.0
4345,17464,-784,12580,-1.00,-1.0
4347,18656,-4516,4004,-1.00,-1.0
4349,9784,9624,-28896,-1.00,-1.0
4351,19156,-6444,13888,-1.00,-1.0
4353,32767,-15440,32568,-1.00,-1.0
4355,4636,13756,-27656,-1.00,-1.0
4359,32767,-20112,32767,-1.00,-1.0
4361,8228,4092,-17152,-1.00,-1.0
4363,6868,11560,-16648,-1.00,-1.0
4365,32767,-7788,19996,-1.00,-1.0
4367,6928,1240,388,-1.00,-1.0
4369,17964,-24,5284,-1.00,-1.0
4371,24124,-296,1552,-1.00,-1.0
4373,4996,884,-18676,-1.00,-1.0
4375,27940,-3836,18716,-1.00,-1.0
4377,19000,-1688,-6688,-1.00,-1.0
4379,3868,6124,-7252,-1.00,-1.0
4380,22084,-896,13272,-1.00,-1.0
4383,18000,2472,-176,-1.00,-1.0
4385,64,4532,-22776,-1.00,-1.0
4386,31028,-1628,26876,-1.00,-1.0
4388,19612,-44,-4596,-1.00,-1.0
4393,28824,-4348,16836,-1.00,-1.0
4395,15228,4368,-5420,-1.00,-1.0
4396,10804,-2352,-5388,-1.00,-1.0
4398,23136,5096,5264,-1.00,-1.0
4400,15820,3356,232,-1.00,-1.0
4402,16444,-6816,5080,-1.00,-1.0
4404,18028,3980,-2356,-1.00,-1.0
4406,24724,-2176,16092,-1.00,-1.0
4408,23860,-10340,18148,-1.00,-1.0
4410,20096,4712,-3160,-1.00,-1.0
4412,30140,-5040,29912,-1.00,-1.0
4414,19112,516,-6224,-1.00,-1.0
4416,1336,3440,-25468,-1.00,-1.0
4418,26816,-5100,17776,-1.00,-1.0
4420,23632,2436,5348,-1.00,-1.0
4424,26736,-856,9408,-1.00,-1.0
4426,20256,-400,4888,-1.00,-1.0
4428,4188,1480,-14456,-1.00,-1.0
4430,27092,464,16744,-1.00,-1.0
4432,12688,1784,-12824,-1.00,-1.0
4434,9400,-3384,-220,-1.00,-1.0
4436,29816,-5636,19588,-1.00,-1.0
4438,5036,8980,-24368,-1.00,-1.0
4440,17832,-7184,5932,-1.00,-1.0
4442,26116,3088,6204,-1.00,-1.0
4444,9892,6320,-7852,-1.00,-1.0
4445,19404,-7076,8772,-1.00,-1.0
4447,17504,5712,692,-1.00,-1.0
4449,3640,5176,-14412,-1.00,-1.0
4451,27512,-11072,21704,-1.00,-1.0
4453,17872,4488,-2756,-1.00,-1.0
4457,29580,-14744,25500,-1.00,-1.0
4459,12744,2256,-1256,-1.00,-1.0
4461,5704,9264,-16044,-1.00,-1.0
4463,18900,2012,40,-1.00,-1.0
4465,21552,-1852,9356,-1.00,-1.0
4467,13416,3096,-9612,-1.00,-1.0
4469,22844,-3456,11652,-1.00,-1.0
4471,4100,5304,-19072,-1.00,-1.0
4473,18456,2584,6192,-1.00,-1.0
4475,20648,-3012,2708,-1.00,-1.0
4477,9496,1352,-6328,-1.00,-1.0
4479,21104,4004,3688,-1.00,-1.0
4481,18856,1020,2588,-1.00,-1.0
4483,14564,-4120,-3932,-1.00,-1.0
4485,23716,5452,-1000,-1.00,-1.0
4489,19272,-6952,8460,-1.00,-1.0
4491,18368,5164,-148,-1.00,-1.0
4493,4348,7464,-17100,-1.00,-1.0
4494,23488,-10228,20200,-1.00,-1.0
4496,21972,5736,3540,-1.00,-1.0
4498,2676,11616,-26928,-1.00,-1.0
4500,28804,-13056,22172,-1.00,-1.0
4502,14100,5300,396,-1.00,-1.0
4504,2984,8396,-15484,-1.00,-1.0
4506,25424,-8292,15844,-1.00,-1.0
4508,15488,7200,-5836,-1.00,-1.0
4510,11720,3456,-4984,-1.00,-1.0
4512,26048,-9212,14952,-1.00,-1.0
4514,7040,6496,-6720,-1.00,-1.0
4516,32767,-4328,23616,-1.00,-1.0
4518,13680,3132,-13128,-1.00,-1.0
4522,13048,3860,-4004,-1.00,-1.0
4524,28800,-11276,19236,-1.00,-1.0
4526,9672,-744,-14316,-1.00,-1.0
4528,32767,-1380,19156,-1.00,-1.0
4530,11340,3960,-13220,-1.00,-1.0
4532,10828,1676,-5016,-1.00,-1.0
4534,26264,-1216,20776,-1.00,-1.0
4536,13560,2540,-11796,-1.00,-1.0
4538,8364,-936,-9960,-1.00,-1.0
4540,31372,-2588,18300,-1.00,-1.0
4542,14688,4220,-11048,-1.00,-1.0
4544,9732,-968,-10076,-1.00,-1.0
4546,29416,252,17384,-1.00,-1.0
4548,10288,6860,-15808,-1.00,-1.0
4549,14808,-5584,3548,-1.00,-1.0
4554,5792,9248,-19084,-1.00,-1.0
4556,15356,-5012,5248,-1.00,-1.0
4558,29440,-468,21560,-1.00,-1.0
4559,2360,9016,-30896,-1.00,-1.0
4562,17864,-7732,8696,-1.00,-1.0
4563,29812,-3860,19568,-1.00,-1.0
4565,-684,14428,-32768,-1.00,-1.0
4567,21556,-5164,8640,-1.00,-1.0
4569,26812,1948,16040,-1.00,-1.0
4571,4256,8288,-18104,-1.00,-1.0
4573,16820,-5408,10384,-1.00,-1.0
4575,24124,3736,2992,-1.00,-1.0
4577,8292,3712,-18356,-1.00,-1.0
4579,19640,-8452,14360,-1.00,-1.0
4581,-600,13764,-30140,-1.00,-1.0
4583,24496,-4820,17340,-1.00,-1.0
4587,29068,-7340,26468,-1.00,-1.0
4589,1360,14660,-29688,-1.00,-1.0
4591,30764,-8356,20668,-1.00,-1.0
4593,28932,-1404,15568,-1.00,-1.0
4595,12956,3156,-7964,-1.00,-1.0
4597,24512,-4888,15152,-1.00,-1.0
4599,1532,3040,-19512,-1.00,-1.0
4601,27652,-4616,18036,-1.00,-1.0
4603,24596,-1740,-5008,-1.00,-1.0
4605,2676,2708,-11336,-1.00,-1.0
4607,31140,-7136,30820,-1.00,-1.0
4609,16516,2496,-10892,-1.00,-1.0
4611,2084,220,-22400,-1.00,-1.0
4612,32767,-6500,31012,-1.00,-1.0
4614,13556,3000,-12260,-1.00,-1.0
4619,30208,-6904,31756,-1.00,-1.0
4621,15224,816,-7244,-1.00,-1.0
4622,1948,2500,-23528,-1.00,-1.0
4624,32767,-8652,32767,-1.00,-1.0
4626,16412,2728,-12904,-1.00,-1.0
4628,5928,2092,-15308,-1.00,-1.0
4630,30996,-3048,23340,-1.00,-1.0
4632,15228,4796,-7428,-1.00,-1.0
4634,3752,3528,-15404,-1.00,-1.0
4636,32116,-4932,24688,-1.00,-1.0
4638,16984,1028,-6128,-1.00,-1.0
4640,3952,4124,-20516,-1.00,-1.0
4642,32767,-7728,28232,-1.00,-1.0
4644,15876,2120,-8780,-1.00,-1.0
4646,2756,1772,-14064,-1.00,-1.0
4650,12692,5036,-14200,-1.00,-1.0
4652,9132,-1560,-13600,-1.00,-1.0
4654,32767,-3120,23104,-1.00,-1.0
4656,11184,3768,-13448,-1.00,-1.0
4658,8860,-2064,-1412,-1.00,-1.0
4660,30480,-3256,19612,-1.00,-1.0
4662,13648,-616,3536,-1.00,-1.0
4664,28056,-9508,20052,-1.00,-1.0
4666,1388,8260,-16432,-1.00,-1.0
4668,17808,-88,4020,-1.00,-1.0
4670,31392,-7896,14536,-1.00,-1.0
4672,7556,7968,-21236,-1.00,-1.0
4674,17340,-2852,10288,-1.00,-1.0
4676,27096,-7068,18420,-1.00,-1.0
4677,1724,12984,-23916,-1.00,-1.0
4682,32767,-12772,31260,-1.00,-1.0
4684,5608,11356,-21924,-1.00,-1.0
4686,8616,5024,-11916,-1.00,-1.0
4687,32767,-15652,32767,-1.00,-1.0
4690,11684,6848,-17168,-1.00,-1.0
4691,9136,4508,-9640,-1.00,-1.0
4693,30844,-12508,26348,-1.00,-1.0
4695,6524,8260,-10224,-1.00,-1.0
4697,9236,2976,-5244,-1.00,-1.0
4699,30544,-9824,19760,-1.00,-1.0
4701,4488,8308,-21680,-1.00,-1.0
4703,16112,-2052,12220,-1.00,-1.0
4705,30724,-8080,15064,-1.00,-1.0
4707,564,13172,-30052,-1.00,-1.0
4709,20476,-5668,12368,-1.00,-1.0
4711,32767,-12620,32767,-1.00,-1.0
4715,12868,-108,884,-1.00,-1.0
4717,32767,-17968,32767,-1.00,-1.0
4719,8508,4476,-11952,-1.00,-1.0
4721,7136,7280,-19160,-1.00,-1.0
4723,32767,-17332,32767,-1.00,-1.0
4725,704,7780,-26060,-1.00,-1.0
4727,32767,-9276,32767,-1.00,-1.0
4729,15920,1388,-11204,-1.00,-1.0
4731,1380,8200,-22212,-1.00,-1.0
4733,32767,-8132,32188,-1.00,-1.0
4734,16136,840,-1824,-1.00,-1.0
4737,-1484,9788,-26084,-1.00,-1.0
4739,32767,-6864,27916,-1.00,-1.0
4740,20928,-2744,-2372,-1.00,-1.0
4742,1836,5568,-18212,-1.00,-1.0
4746,15652,1716,-8960,-1.00,-1.0
4748,-12,4464,-18112,-1.00,-1.0
4750,32767,-9212,32767,-1.00,-1.0
4752,12988,2968,-16040,-1.00,-1.0
4754,1900,8152,-23096,-1.00,-1.0
4756,32767,-12764,32767,-1.00,-1.0
4758,17828,-1836,-5212,-1.00,-1.0
4760,-4056,14720,-32768,-1.00,-1.0
4762,30044,-8048,32767,-1.00,-1.0
4764,25788,-6896,12948,-1.00,-1.0
4766,-8388,14648,-32768,-1.00,-1.0
4768,26316,-6304,23452,-1.00,-1.0
4770,28284,-8048,17036,-1.00,-1.0
4772,-2472,11816,-32448,-1.00,-1.0
4774,32000,-308,21484,-1.00,-1.0
4778,-10144,16200,-32768,-1.00,-1.0
4780,25064,-8412,29920,-1.00,-1.0
4782,32767,-10788,21896,-1.00,-1.0
4784,25868,-13240,28460,-1.00,-1.0
4786,26548,-8948,27944,-1.00,-1.0
4788,-10676,21468,-32768,-1.00,-1.0
4790,20852,-10084,13552,-1.00,-1.0
4792,32767,-10040,32767,-1.00,-1.0
4794,-7208,16956,-32768,-1.00,-1.0
4796,13940,-328,1876,-1.00,-1.0
4797,32767,-13608,32767,-1.00,-1.0
4800,-236,12276,-32768,-1.00,-1.0
4802,3316,6004,-18008,-1.00,-1.0
4803,32767,-15008,32767,-1.00,-1.0
4805,7032,7456,-26940,-1.00,-1.0
4810,-1684,12984,-32292,-1.00,-1.0
4812,32767,-13188,32767,-1.00,-1.0
4814,-376,11516,-32768,-1.00,-1.0
4816,32767,-12084,32767,-1.00,-1.0
4818,20544,-5808,4116,-1.00,-1.0
4820,2412,10292,-26468,-1.00,-1.0
4821,21492,-4476,11532,-1.00,-1.0
4824,23440,-8072,18892,-1.00,-1.0
4826,10140,7732,-19792,-1.00,-1.0
4827,15076,432,1064,-1.00,-1.0
4829,28644,-11700,19176,-1.00,-1.0
4831,7728,9572,-17056,-1.00,-1.0
4833,10512,1104,-1700,-1.00,-1.0
4835,29620,-13172,28008,-1.00,-1.0
4837,8896,9764,-20512,-1.00,-1.0
4841,32767,-13616,28396,-1.00,-1.0
4843,11820,8744,-16256,-1.00,-1.0
4845,5860,6588,-15192,-1.00,-1.0
4847,32700,-13164,32767,-1.00,-1.0
4849,14544,6804,-13488,-1.00,-1.0
4851,2600,8660,-24176,-1.00,-1.0
4853,30992,-12964,28908,-1.00,-1.0
4855,21752,3728,3572,-1.00,-1.0
4857,-280,10672,-32768,-1.00,-1.0
4859,27720,-13196,26188,-1.00,-1.0
4861,24876,-3328,10964,-1.00,-1.0
4863,-44,14580,-32768,-1.00,-1.0
4865,24596,-2832,10172,-1.00,-1.0
4867,29112,-1540,17568,-1.00,-1.0
4869,23520,-4452,11664,-1.00,-1.0
4873,23464,-828,13844,-1.00,-1.0
4875,13828,2412,-13328,-1.00,-1.0
4877,13804,1200,-2176,-1.00,-1.0
4879,13056,5500,-11432,-1.00,-1.0
4881,12184,6780,-15940,-1.00,-1.0
4883,5364,2548,-9596,-1.00,-1.0
4885,12736,7404,-13472,-1.00,-1.0
4886,7660,3948,-7912,-1.00,-1.0
4889,30192,-12264,25660,-1.00,-1.0
4891,12288,10036,-14944,-1.00,-1.0
4892,7932,3920,-7644,-1.00,-1.0
4894,32348,-11676,29140,-1.00,-1.0
4896,14876,9936,-15340,-1.00,-1.0
4898,4792,7196,-21664,-1.00,-1.0
4900,32767,-14840,32767,-1.00,-1.0
4904,-1276,13164,-32768,-1.00,-1.0
4906,28796,-11392,30756,-1.00,-1.0
4908,29748,-2276,19832,-1.00,-1.0
4910,-4540,13236,-32768,-1.00,-1.0
4912,23560,-9056,18604,-1.00,-1.0
4914,32767,-7972,29836,-1.00,-1.0
4916,516,15356,-32768,-1.00,-1.0
4918,14232,-352,496,-1.00,-1.0
4920,32767,-8772,32767,-1.00,-1.0
4922,2980,8648,-29056,-1.00,-1.0
4924,2652,700,-8164,-1.00,-1.0
4926,32767,-12792,32767,-1.00,-1.0
4928,-360,9400,-32768,-1.00,-1.0
4930,7196,-2688,-3936,-1.00,-1.0
4932,32767,-16392,32767,-1.00,-1.0
4936,-1880,5836,-20088,-1.00,-1.0
4938,32767,-19192,32767,-1.00,-1.0
4940,7620,4508,-18804,-1.00,-1.0
4942,-2356,13784,-32768,-1.00,-1.0
4944,32767,-16844,32767,-1.00,-1.0
4946,20572,-5976,3780,-1.00,-1.0
4948,28988,-12968,29088,-1.00,-1.0
4950,32604,-4676,26724,-1.00,-1.0
4952,-3260,15136,-32768,-1.00,-1.0
4954,21464,-7220,15352,-1.00,-1.0
4955,32767,-9612,32767,-1.00,-1.0
4957,1560,13504,-32768,-1.00,-1.0
4959,13720,1404,-4164,-1.00,-1.0
4961,32767,-8572,32767,-1.00,-1.0
4963,9876,348,-11028,-1.00,-1.0
4965,5056,6512,-20552,-1.00,-1.0
4969,18724,-3092,2532,-1.00,-1.0
4971,9720,7180,-13400,-1.00,-1.0
4973,18396,-232,3652,-1.00,-1.0
4975,24636,-7612,14964,-1.00,-1.0
4977,5188,6792,-14860,-1.00,-1.0
4979,12600,992,3280,-1.00,-1.0
4981,26532,-9892,18696,-1.00,-1.0
4983,6932,8764,-23044,-1.00,-1.0
4985,15800,-2796,9412,-1.00,-1.0
4987,30516,-6852,15364,-1.00,-1.0
4989,4728,11712,-22332,-1.00,-1.0
4991,15604,-672,3704,-1.00,-1.0
4993,29908,-9840,29724,-1.00,-1.0
4995,8788,9704,-23064,-1.00,-1.0
4997,32767,-10100,32767,-1.00,-1.0
5001,15612,9188,-10020,-1.00,-1.0
5003,4600,7484,-23844,-1.00,-1.0
5004,15748,656,-9528,-1.00,-1.0
5006,-108,7640,-28276,-1.00,-1.0
5008,30716,-9436,32767,-1.00,-1.0
5010,14764,3208,-1676,-1.00,-1.0
5012,3124,7368,-18128,-1.00,-1.0
5014,30360,-8060,18364,-1.00,-1.0
5016,18268,-5312,5040,-1.00,-1.0
5018,8784,6668,-16888,-1.00,-1.0
5020,19168,-2572,7648,-1.00,-1.0
5022,19796,-7748,7792,-1.00,-1.0
5024,11988,7576,-11412,-1.00,-1.0
5026,10192,3388,-3968,-1.00,-1.0
5028,29484,-11448,22956,-1.00,-1.0
5032,8532,4900,-7916,-1.00,-1.0
5034,30068,-12500,27292,-1.00,-1.0
5036,16044,8900,-10716,-1.00,-1.0
5038,6332,5492,-14320,-1.00,-1.0
5040,28996,-11392,24796,-1.00,-1.0
5042,19272,4368,-3868,-1.00,-1.0
5044,3044,8052,-25620,-1.00,-1.0
5046,31108,-11944,26752,-1.00,-1.0
5048,19736,3300,-908,-1.00,-1.0
5050,940,11500,-24180,-1.00,-1.0
5052,27024,-8732,22316,-1.00,-1.0
5053,200,6800,-21392,-1.00,-1.0
5056,2516,9740,-29536,-1.00,-1.0
5058,29528,-10488,23504,-1.00,-1.0
5059,-4188,9616,-32768,-1.00,-1.0
5061,27368,-8288,31316,-1.00,-1.0
5066,27180,-548,14472,-1.00,-1.0
5068,676,10508,-29012,-1.00,-1.0
5069,28632,-9288,19992,-1.00,-1.0
5072,32296,-2768,23676,-1.00,-1.0
5073,21240,-3372,19236,-1.00,-1.0
5075,28608,-8596,19000,-1.00,-1.0
5077,2708,13288,-30668,-1.00,-1.0
5079,19116,-3252,11332,-1.00,-1.0
5081,31460,-10200,22636,-1.00,-1.0
5083,4588,12812,-28864,-1.00,-1.0
5085,14284,-556,1264,-1.00,-1.0
5087,32767,-12496,32767,-1.00,-1.0
5089,6872,10532,-20852,-1.00,-1.0
5091,8252,4212,-13296,-1.00,-1.0
5093,32767,-13952,32036,-1.00,-1.0
5097,3128,10696,-27860,-1.00,-1.0
5099,32767,-13416,32767,-1.00,-1.0
5101,18648,3828,-2916,-1.00,-1.0
5103,1512,11408,-28248,-1.00,-1.0
5105,25708,-7072,20680,-1.00,-1.0
5107,26052,-1184,15972,-1.00,-1.0
5109,4052,6884,-26652,-1.00,-1.0
5111,17472,-2544,4196,-1.00,-1.0
5113,28344,-5072,20928,-1.00,-1.0
5115,11612,5916,-19872,-1.00,-1.0
5117,11420,2548,-3972,-1.00,-1.0
5119,29404,-5268,25384,-1.00,-1.0
5121,13256,2896,-9204,-1.00,-1.0
5123,4692,4780,-11996,-1.00,-1.0
5124,14652,6796,-7428,-1.00,-1.0
5129,5140,3096,-15928,-1.00,-1.0
5131,27088,-6556,26588,-1.00,-1.0
5133,16312,288,-10040,-1.00,-1.0
5134,4124,2192,-10208,-1.00,-1.0
5137,30208,-7800,22892,-1.00,-1.0
5138,16392,-1516,1460,-1.00,-1.0
5140,23928,-5028,15744,-1.00,-1.0
5142,21224,3604,5012,-1.00,-1.0
5144,6808,5252,-23128,-1.00,-1.0
5146,20608,-8644,17856,-1.00,-1.0
5148,28648,-432,13316,-1.00,-1.0
5150,1832,12704,-32768,-1.00,-1.0
5152,24648,-10936,16480,-1.00,-1.0
5154,31484,-4416,21784,-1.00,-1.0
5156,40,12700,-32768,-1.00,-1.0
5160,32424,-8088,26692,-1.00,-1.0
5162,6088,4748,-19272,-1.00,-1.0
5164,9060,4312,-7756,-1.00,-1.0
5166,28280,-3160,24184,-1.00,-1.0
5168,14100,2152,-12688,-1.00,-1.0
5170,7912,700,-9744,-1.00,-1.0
5172,28824,-4660,28160,-1.00,-1.0
5174,13392,4940,-15884,-1.00,-1.0
5176,2744,1880,-12940,-1.00,-1.0
5178,32767,-12156,31540,-1.00,-1.0
5180,12940,784,-6608,-1.00,-1.0
5182,2640,7016,-22460,-1.00,-1.0
5184,32160,-11560,32767,-1.00,-1.0
5186,19104,-2636,-6992,-1.00,-1.0
5188,1820,7528,-20552,-1.00,-1.0
5189,27332,-7964,24304,-1.00,-1.0
5194,-4104,9092,-32768,-1.00,-1.0
5196,25856,-7808,29980,-1.00,-1.0
5198,24768,-6264,7000,-1.00,-1.0
5200,1888,14384,-30092,-1.00,-1.0
5202,23424,-7552,12240,-1.00,-1.0
5204,32480,-12392,30260,-1.00,-1.0
5205,-3448,11924,-32768,-1.00,-1.0
5208,11740,1456,3864,-1.00,-1.0
5210,32767,-12832,31060,-1.00,-1.0
5211,10080,11096,-20024,-1.00,-1.0
5213,32767,-11880,32767,-1.00,-1.0
5215,32767,-12848,31192,-1.00,-1.0
5217,764,4680,-21536,-1.00,-1.0
5219,32767,-10404,32767,-1.00,-1.0
5221,13220,792,-12716,-1.00,-1.0
5227,17060,508,-5776,-1.00,-1.0
5229,-264,8840,-22820,-1.00,-1.0
5231,26808,-7976,23728,-1.00,-1.0
5233,23252,-6364,13136,-1.00,-1.0
5235,-336,12356,-31712,-1.00,-1.0
5237,21056,-4268,19204,-1.00,-1.0
5239,29424,-9068,16584,-1.00,-1.0
5241,-1796,12104,-31400,-1.00,-1.0
5243,19700,-3292,12888,-1.00,-1.0
5245,30556,-8476,24424,-1.00,-1.0
5246,-1832,12152,-32768,-1.00,-1.0
5248,18280,-3268,12588,-1.00,-1.0
5250,29752,-10524,21864,-1.00,-1.0
5252,8132,10324,-20256,-1.00,-1.0
5254,31848,-8200,27692,-1.00,-1.0
5259,12076,3440,-10344,-1.00,-1.0
5261,8592,6388,-14452,-1.00,-1.0
5262,23848,-5720,17432,-1.00,-1.0
5265,22604,2540,1556,-1.00,-1.0
5267,10684,6188,-15448,-1.00,-1.0
5268,20504,-2948,6480,-1.00,-1.0
5270,26492,2488,10276,-1.00,-1.0
5272,8376,4524,-19396,-1.00,-1.0
5274,19084,-7788,12644,-1.00,-1.0
5276,3952,7276,-27224,-1.00,-1.0
5278,19104,-3364,16380,-1.00,-1.0
5280,23612,-3976,7232,-1.00,-1.0
5282,3688,7596,-14824,-1.00,-1.0
5284,19040,-940,6836,-1.00,-1.0
5286,22524,-3328,15156,-1.00,-1.0
5290,16832,-1660,5688,-1.00,-1.0
5292,28632,-11720,19420,-1.00,-1.0
5294,10220,9280,-16184,-1.00,-1.0
5296,8016,4560,-13824,-1.00,-1.0
5298,32767,-13712,31852,-1.00,-1.0
5300,12508,6452,-16212,-1.00,-1.0
5302,5780,9684,-14976,-1.00,-1.0
5304,30144,-5004,23904,-1.00,-1.0
5306,21380,4200,-744,-1.00,-1.0
5308,8844,3696,-19412,-1.00,-1.0
5310,23344,-8972,16824,-1.00,-1.0
5312,25240,-704,12996,-1.00,-1.0
5314,3956,8728,-32768,-1.00,-1.0
5316,20480,-9780,16372,-1.00,-1.0
5318,32468,-6004,26392,-1.00,-1.0
5322,13912,-1060,-1228,-1.00,-1.0
5324,32767,-11076,32767,-1.00,-1.0
5326,7040,5688,-22016,-1.00,-1.0
5328,5736,3668,-16328,-1.00,-1.0
5330,32767,-12352,32767,-1.00,-1.0
5332,13888,1460,-14428,-1.00,-1.0
5334,644,6788,-20708,-1.00,-1.0
5335,32696,-8592,26704,-1.00,-1.0
5337,17748,-288,5992,-1.00,-1.0
5339,836,7032,-25420,-1.00,-1.0
5341,26452,-6716,24468,-1.00,-1.0
5343,6012,7384,-18560,-1.00,-1.0
5345,4828,8600,-18212,-1.00,-1.0
5347,25024,1636,11364,-1.00,-1.0
5349,5720,7492,-24328,-1.00,-1.0
5351,22412,-7824,10760,-1.00,-1.0
5355,28120,-6716,13280,-1.00,-1.0
5357,11552,9620,-12060,-1.00,-1.0
5359,13436,1108,-10564,-1.00,-1.0
5361,28088,-8788,26012,-1.00,-1.0
5363,11152,7328,-18408,-1.00,-1.0
5365,9324,4516,-9952,-1.00,-1.0
5367,15292,-1552,-13892,-1.00,-1.0
5369,6704,1880,-13340,-1.00,-1.0
5371,29668,-9452,27612,-1.00,-1.0
5373,14676,4236,-8716,-1.00,-1.0
5375,2444,5404,-16312,-1.00,-1.0
5377,26992,-6644,21044,-1.00,-1.0
5379,22396,-3672,11756,-1.00,-1.0
5381,4276,11248,-32768,-1.00,-1.0
5383,20984,-5408,20784,-1.00,-1.0
5387,1928,14728,-27420,-1.00,-1.0
5389,13268,1792,-6616,-1.00,-1.0
5391,32767,-12272,32767,-1.00,-1.0
5393,5908,10068,-32768,-1.00,-1.0
5395,4048,9424,-9780,-1.00,-1.0
5397,32767,-13280,32748,-1.00,-1.0
5399,16396,7704,-4628,-1.00,-1.0
5401,952,7708,-32768,-1.00,-1.0
5403,29060,-11324,32767,-1.00,-1.0
5405,25520,968,5504,-1.00,-1.0
5406,-4452,14872,-32768,-1.00,-1.0
5409,24640,-10980,20012,-1.00,-1.0
5411,32767,-6228,29876,-1.00,-1.0
5412,-5540,15220,-32768,-1.00,-1.0
5414,19912,-5804,7988,-1.00,-1.0
5419,2344,12072,-32768,-1.00,-1.0
5421,7472,544,-3844,-1.00,-1.0
5422,32767,-11496,32767,-1.00,-1.0
5424,6432,7772,-22592,-1.00,-1.0
5426,2420,6672,-20888,-1.00,-1.0
5428,32767,-14336,32767,-1.00,-1.0
5430,13084,4312,-18544,-1.00,-1.0
5432,32767,-17752,32767,-1.00,-1.0
5434,32767,-17148,32767,-1.00,-1.0
5436,-4312,14832,-32768,-1.00,-1.0
5438,32767,-15708,32767,-1.00,-1.0
5440,26252,-1196,14776,-1.00,-1.0
5442,-5104,13588,-32768,-1.00,-1.0
5444,25640,-9816,26648,-1.00,-1.0
5446,32767,-6916,22640,-1.00,-1.0
5450,18020,-3360,3996,-1.00,-1.0
5452,32767,-7472,32767,-1.00,-1.0
5454,3052,9300,-32484,-1.00,-1.0
5456,7628,1228,-8300,-1.00,-1.0
5458,32767,-11852,32767,-1.00,-1.0
5460,9044,7384,-24160,-1.00,-1.0
5462,-1640,8068,-22456,-1.00,-1.0
5464,32767,-16456,32767,-1.00,-1.0
5466,10684,6540,-20068,-1.00,-1.0
5468,-7292,13436,-32768,-1.00,-1.0
5470,32767,-16552,32767,-1.00,-1.0
5472,21332,-1776,248,-1.00,-1.0
5474,-10940,14924,-32768,-1.00,-1.0
5476,32360,-15628,32767,-1.00,-1.0
5477,26188,-7024,13988,-1.00,-1.0
5482,28600,-9724,17488,-1.00,-1.0
5484,32008,-10040,32108,-1.00,-1.0
5485,28,13144,-32768,-1.00,-1.0
5487,18816,-3132,9332,-1.00,-1.0
5489,30260,-11384,22020,-1.00,-1.0
5491,9064,8680,-15716,-1.00,-1.0
5493,13036,2140,-13072,-1.00,-1.0
5495,11832,2928,-14772,-1.00,-1.0
5497,15964,4792,-13452,-1.00,-1.0
5499,5464,5960,-13736,-1.00,-1.0
5501,15468,36,-5492,-1.00,-1.0
5503,1000,8996,-18484,-1.00,-1.0
5505,30096,-9532,25504,-1.00,-1.0
5507,18996,-2020,4908,-1.00,-1.0
5509,1772,9788,-32592,-1.00,-1.0
5513,26652,-7924,11652,-1.00,-1.0
5515,3000,11728,-27868,-1.00,-1.0
5517,17372,-3684,5284,-1.00,-1.0
5519,32767,-8336,26572,-1.00,-1.0
5521,-1568,12596,-31444,-1.00,-1.0
5523,16060,-2676,7100,-1.00,-1.0
5525,30556,-11392,30976,-1.00,-1.0
5526,8856,13576,-27232,-1.00,-1.0
5529,12112,2568,-10264,-1.00,-1.0
5530,32767,-14936,32767,-1.00,-1.0
5532,16412,5956,-5504,-1.00,-1.0
5534,-1464,11160,-32768,-1.00,-1.0
5536,30124,-15308,32767,-1.00,-1.0
5538,27812,-1676,9372,-1.00,-1.0
5540,-6564,17688,-32768,-1.00,-1.0
5544,32767,-5088,31924,-1.00,-1.0
5546,-2264,11052,-32768,-1.00,-1.0
5548,12668,-2732,6020,-1.00,-1.0
5550,32767,-11004,32767,-1.00,-1.0
5552,4292,9680,-25688,-1.00,-1.0
5554,2812,6528,-22648,-1.00,-1.0
5556,11140,9020,-15492,-1.00,-1.0
5558,3356,7932,-25816,-1.00,-1.0
5560,32767,-14872,32767,-1.00,-1.0
5562,19180,3536,-1584,-1.00,-1.0
5564,1008,10060,-28584,-1.00,-1.0
5566,25268,-13516,28840,-1.00,-1.0
5568,25964,-408,9796,-1.00,-1.0
5570,-592,11500,-31268,-1.00,-1.0
5572,24392,-7328,12160,-1.00,-1.0
5574,32676,-3520,23600,-1.00,-1.0
5578,11904,-968,4016,-1.00,-1.0
5580,30828,-8400,29484,-1.00,-1.0
5582,7540,5256,-18268,-1.00,-1.0
5584,6016,2860,-17884,-1.00,-1.0
5586,32767,-9476,32767,-1.00,-1.0
5588,15032,1868,-13928,-1.00,-1.0
5590,1940,8168,-23184,-1.00,-1.0
5592,28180,-10112,27636,-1.00,-1.0
5594,19536,-1736,9148,-1.00,-1.0
5595,2404,11588,-30120,-1.00,-1.0
5597,22808,-4160,10752,-1.00,-1.0
5599,29632,-12724,29072,-1.00,-1.0
5601,10088,11460,-26328,-1.00,-1.0
5603,7900,5012,-14760,-1.00,-1.0
5605,32767,-20020,32767,-1.00,-1.0
5609,-3744,13784,-32348,-1.00,-1.0
5611,32767,-20040,32767,-1.00,-1.0
5613,19228,4104,-5356,-1.00,-1.0
5615,-2364,13000,-32768,-1.00,-1.0
5617,28860,-13932,32767,-1.00,-1.0
5619,29448,-736,19960,-1.00,-1.0
5621,-8596,15412,-32768,-1.00,-1.0
5623,23720,-10548,23748,-1.00,-1.0
5625,32767,-9716,32767,-1.00,-1.0
5627,-9508,18864,-32768,-1.00,-1.0
5629,32767,-17804,32767,-1.00,-1.0
5631,-3468,19292,-32768,-1.00,-1.0
5633,10964,3784,-4496,-1.00,-1.0
5635,32767,-19216,32767,-1.00,-1.0
5637,6176,13544,-28052,-1.00,-1.0
5641,32767,-21684,32767,-1.00,-1.0
5643,18532,5368,-4572,-1.00,-1.0
5645,-8272,17080,-32768,-1.00,-1.0
5647,32767,-17348,32767,-1.00,-1.0
5649,32767,-4960,25412,-1.00,-1.0
5651,-9732,18380,-32768,-1.00,-1.0
5653,20736,-8036,17144,-1.00,-1.0
5655,32767,-10512,32767,-1.00,-1.0
5657,-3528,15604,-32768,-1.00,-1.0
5659,8536,-160,-5280,-1.00,-1.0
5661,32767,-15960,32767,-1.00,-1.0
5663,1764,12280,-32584,-1.00,-1.0
5665,-5544,10672,-32768,-1.00,-1.0
5666,32767,-21132,32767,-1.00,-1.0
5671,-11608,19540,-32768,-1.00,-1.0
5673,32767,-17836,32767,-1.00,-1.0
5675,24384,-6444,11516,-1.00,-1.0
5676,-10972,20168,-32768,-1.00,-1.0
5679,30136,-8232,24080,-1.00,-1.0
5680,32767,-14240,32767,-1.00,-1.0
5682,-2408,16056,-32768,-1.00,-1.0
5684,13992,132,-1040,-1.00,-1.0
5686,32767,-20312,32767,-1.00,-1.0
5688,7208,11812,-20076,-1.00,-1.0
5690,2296,9592,-31164,-1.00,-1.0
5692,32436,-16308,32767,-1.00,-1.0
5694,24084,-752,9296,-1.00,-1.0
5696,-2960,14888,-32768,-1.00,-1.0
5698,20756,-7844,13692,-1.00,-1.0
5702,-424,11556,-32768,-1.00,-1.0
5704,11788,-2440,-5088,-1.00,-1.0
5706,32767,-9896,32767,-1.00,-1.0
5708,5188,9272,-27564,-1.00,-1.0
5710,4840,2064,-11956,-1.00,-1.0
5712,32767,-7856,31944,-1.00,-1.0
5714,9328,3976,-12324,-1.00,-1.0
5716,27972,-9764,19244,-1.00,-1.0
5718,18152,2132,6732,-1.00,-1.0
5720,6292,5248,-25124,-1.00,-1.0
5722,19184,-5900,13800,-1.00,-1.0
5724,26444,-3796,13404,-1.00,-1.0
5726,10676,6884,-14812,-1.00,-1.0
5728,10672,-1104,-9012,-1.00,-1.0
5730,29792,-4616,29148,-1.00,-1.0
5731,14092,3912,-16376,-1.00,-1.0
5735,28016,-6536,18208,-1.00,-1.0
5737,17852,220,5596,-1.00,-1.0
5739,4696,7976,-27844,-1.00,-1.0
5741,25184,-2480,20272,-1.00,-1.0
5743,26320,-6772,13412,-1.00,-1.0
5745,6604,11676,-21304,-1.00,-1.0
5747,13484,1452,-848,-1.00,-1.0
5749,29324,-10424,22604,-1.00,-1.0
5751,8556,5328,-14072,-1.00,-1.0
5753,9896,6628,-10644,-1.00,-1.0
5755,24916,-7360,18616,-1.00,-1.0
5757,16560,4252,-2108,-1.00,-1.0
5759,9528,5852,-13612,-1.00,-1.0
5761,21840,-7396,14740,-1.00,-1.0
5763,2272,8212,-24584,-1.00,-1.0
5767,26068,-5216,14624,-1.00,-1.0
5769,680,10740,-31132,-1.00,-1.0
5771,20372,-1148,16652,-1.00,-1.0
5773,29292,-5720,14996,-1.00,-1.0
5775,2736,10564,-23184,-1.00,-1.0
5777,18416,1432,3292,-1.00,-1.0
5779,29772,-7208,25016,-1.00,-1.0
5780,5256,7488,-23296,-1.00,-1.0
5783,15792,2060,2912,-1.00,-1.0
5785,27652,-8204,15188,-1.00,-1.0
5786,10812,7416,-10568,-1.00,-1.0
5788,12984,3360,-7256,-1.00,-1.0
5790,26952,-8920,20624,-1.00,-1.0
5792,10712,3592,-10604,-1.00,-1.0
5794,12056,4680,-5144,-1.00,-1.0
5798,17612,1548,-2432,-1.00,-1.0
5800,12312,4388,-8024,-1.00,-1.0
5802,18884,-4704,9456,-1.00,-1.0
5804,21176,1316,8420,-1.00,-1.0
5806,10752,5804,-15996,-1.00,-1.0
5808,17912,-5728,6568,-1.00,-1.0
5810,23128,-2240,12248,-1.00,-1.0
5812,8820,8736,-18144,-1.00,-1.0
5814,14480,-1356,608,-1.00,-1.0
5816,26196,-2920,16200,-1.00,-1.0
5818,12112,5676,-6968,-1.00,-1.0
5820,10992,2548,-10992,-1.00,-1.0
5822,24072,-1128,14904,-1.00,-1.0
5824,17008,-3084,-1492,-1.00,-1.0
5826,20484,-5364,5476,-1.00,-1.0
5828,16252,3584,3780,-1.00,-1.0
5832,10536,620,-12764,-1.00,-1.0
5834,16868,920,6896,-1.00,-1.0
5836,14256,6320,-5004,-1.00,-1.0
5838,13552,832,-5880,-1.00,-1.0
5840,23016,444,12868,-1.00,-1.0
5842,14756,4264,-4836,-1.00,-1.0
5844,10052,1240,-5580,-1.00,-1.0
5845,18512,1884,4308,-1.00,-1.0
5848,17892,980,2300,-1.00,-1.0
5849,14052,-772,-5364,-1.00,-1.0
5851,16516,2184,4896,-1.00,-1.0
5853,18632,1672,2592,-1.00,-1.0
5855,14264,672,-6104,-1.00,-1.0
5857,18240,1288,1188,-1.00,-1.0
5859,20256,-384,6688,-1.00,-1.0
5861,14660,-768,-4196,-1.00,-1.0
5865,19212,-1296,3940,-1.00,-1.0
5867,18336,4,2756,-1.00,-1.0
5869,14628,2072,-4228,-1.00,-1.0
5871,18924,-1764,5052,-1.00,-1.0
5873,16444,-1232,-1880,-1.00,-1.0
5875,12340,4264,-1216,-1.00,-1.0
5877,20232,-3968,3940,-1.00,-1.0
5879,14248,-204,1052,-1.00,-1.0
5881,19544,1400,2760,-1.00,-1.0
5883,18784,-1616,-1180,-1.00,-1.0
5885,17576,-4244,872,-1.00,-1.0
5887,18984,1568,2864,-1.00,-1.0
5889,17072,84,-3544,-1.00,-1.0
5891,17300,232,1952,-1.00,-1.0
5893,19432,416,7280,-1.00,-1.0
5897,12616,2264,-10004,-1.00,-1.0
5899,14712,3036,1076,-1.00,-1.0
5901,23836,-8520,13088,-1.00,-1.0
5903,9864,-1252,-7088,-1.00,-1.0
5905,10044,5452,-7076,-1.00,-1.0
5907,23404,-5816,12204,-1.00,-1.0
5909,6552,4388,-19972,-1.00,-1.0
5911,22380,-1560,17360,-1.00,-1.0
5913,21256,-12,4976,-1.00,-1.0
5915,6472,3432,-13072,-1.00,-1.0
5916,21000,-1212,4976,-1.00,-1.0
5918,23368,-1764,9120,-1.00,-1.0
5920,6216,2284,-16764,-1.00,-1.0
5922,22328,-1308,14712,-1.00,-1.0
5924,19924,3124,-3200,-1.00,-1.0
5926,5264,3572,-13568,-1.00,-1.0
5930,19044,2252,1280,-1.00,-1.0
5932,4148,5232,-19644,-1.00,-1.0
5934,28588,-4072,21380,-1.00,-1.0
5936,20104,-1196,-3220,-1.00,-1.0
5938,4548,1368,-14468,-1.00,-1.0
5940,26592,-1864,16204,-1.00,-1.0
5942,16252,3376,-4908,-1.00,-1.0
5944,6852,-512,-9968,-1.00,-1.0
5946,32220,-1200,20548,-1.00,-1.0
5948,11184,6316,-15484,-1.00,-1.0
5950,10304,504,-6072,-1.00,-1.0
5952,28816,-3312,22412,-1.00,-1.0
5954,10712,5136,-13188,-1.00,-1.0
5956,10404,-3044,-5032,-1.00,-1.0
5958,7016,3132,-7212,-1.00,-1.0
5962,15264,-4352,-4168,-1.00,-1.0
5964,21548,1080,13476,-1.00,-1.0
5966,9884,6484,-11844,-1.00,-1.0
5968,23140,-1692,5504,-1.00,-1.0
5970,9592,2620,-5928,-1.00,-1.0
5972,20468,-156,5328,-1.00,-1.0
5974,23180,-5736,9408,-1.00,-1.0
5975,7072,4536,-18620,-1.00,-1.0
5977,24880,-3292,16476,-1.00,-1.0
5979,22976,-4720,3384,-1.00,-1.0
5981,7336,1440,-11792,-1.00,-1.0
5983,18324,172,4452,-1.00,-1.0
5985,20312,-544,3676,-1.00,-1.0
5987,15092,3660,-5348,-1.00,-1.0
5989,13000,5672,-2192,-1.00,-1.0
5991,23200,-1424,12204,-1.00,-1.0
5995,16288,6308,1340,-1.00,-1.0
5997,22448,-3736,6240,-1.00,-1.0
5999,12976,-2480,-4628,-1.00,-1.0
6001,11660,9176,-4536,-1.00,-1.0
6003,12316,3768,-6236,-1.00,-1.0
6005,22476,-6368,14208,-1.00,-1.0
6007,11400,3652,-15280,-1.00,-1.0
6009,10004,6720,-1640,-1.00,-1.0
6011,19984,-2712,7604,-1.00,-1.0
6013,16140,2504,-360,-1.00,-1.0
6015,27156,-3876,20948,-1.00,-1.0
6017,19420,-3376,10240,-1.00,-1.0
6019,19080,-1212,-404,-1.00,-1.0
6021,18184,736,1928,-1.00,-1.0
6022,22256,-5236,13132,-1.00,-1.0
6027,18116,4272,4840,-1.00,-1.0
6029,17836,1956,-4372,-1.00,-1.0
6030,15848,-2408,1832,-1.00,-1.0
6032,16768,3440,-3232,-1.00,-1.0
6034,10952,4724,-1592,-1.00,-1.0
6036,17328,-1828,3660,-1.00,-1.0
6038,14444,5556,-5092,-1.00,-1.0
6040,17360,-340,1468,-1.00,-1.0
6042,23392,-6008,10836,-1.00,-1.0
6044,14936,4032,-11816,-1.00,-1.0
6046,13900,1204,-4616,-1.00,-1.0
6048,27820,-10320,18656,-1.00,-1.0
6050,11352,4280,-8000,-1.00,-1.0
6052,9668,6680,-8688,-1.00,-1.0
6054,27260,-7268,14956,-1.00,-1.0
6056,18484,1064,-2664,-1.00,-1.0
6060,26140,-7268,8260,-1.00,-1.0
6062,11316,2448,-5964,-1.00,-1.0
6064,13496,-12,-972,-1.00,-1.0
6066,26824,-6692,15884,-1.00,-1.0
6068,5868,3500,-12648,-1.00,-1.0
6070,17120,3048,4360,-1.00,-1.0
6072,23260,-2952,4376,-1.00,-1.0
6074,17596,-2552,-440,-1.00,-1.0
6076,17440,4308,-492,-1.00,-1.0
6078,16932,428,2920,-1.00,-1.0
6079,23708,-6096,4736,-1.00,-1.0
6081,15276,1840,-9440,-1.00,-1.0
6083,19848,-4700,8656,-1.00,-1.0
6085,25844,-7672,8916,-1.00,-1.0
6087,10920,4120,-10672,-1.00,-1.0
6091,28064,-6264,16384,-1.00,-1.0
6093,8716,4232,-11112,-1.00,-1.0
6095,16208,3856,1488,-1.00,-1.0
6097,28196,-6224,13544,-1.00,-1.0
6099,6408,5332,-13088,-1.00,-1.0
6101,16196,2712,4456,-1.00,-1.0
6103,24448,-4484,12352,-1.00,-1.0
6105,9900,6908,-13248,-1.00,-1.0
6107,12500,-360,460,-1.00,-1.0
6109,27820,-6436,16364,-1.00,-1.0
6111,2832,7452,-18512,-1.00,-1.0
6113,11596,7456,-4400,-1.00,-1.0
6115,28268,-5968,19344,-1.00,-1.0
6117,7792,3720,-12560,-1.00,-1.0
6119,10200,6364,-3480,-1.00,-1.0
6121,23548,1560,9260,-1.00,-1.0
6125,19176,2176,2680,-1.00,-1.0
6127,20872,792,2944,-1.00,-1.0
6129,7612,7436,-13156,-1.00,-1.0
6131,16312,596,6684,-1.00,-1.0
6133,23024,-3360,6092,-1.00,-1.0
6135,1828,8444,-20224,-1.00,-1.0
6137,23084,1680,12412,-1.00,-1.0
6138,9120,3492,-13812,-1.00,-1.0
6141,23220,-9712,15396,-1.00,-1.0
6142,18356,-2912,2104,-1.00,-1.0
6144,7932,5800,-10544,-1.00,-1.0
6146,25104,-7176,8648,-1.00,-1.0
6148,19308,-3872,7836,-1.00,-1.0
6150,14532,36,-5068,-1.00,-1.0
6152,23188,-4764,9216,-1.00,-1.0
6154,14812,1528,-9460,-1.00,-1.0
6158,23392,-6560,8152,-1.00,-1.0
6160,14948,1844,-2160,-1.00,-1.0
6162,11216,2728,-10212,-1.00,-1.0
6164,23192,-6868,12564,-1.00,-1.0
6166,18212,552,-412,-1.00,-1.0
6168,10812,4672,-8208,-1.00,-1.0
6170,21580,-6552,12744,-1.00,-1.0
6172,17716,1108,-1884,-1.00,-1.0
6174,14740,-40,-2816,-1.00,-1.0
6176,21184,-5712,6244,-1.00,-1.0
6178,20284,4000,2692,-1.00,-1.0
6180,9172,4504,-16004,-1.00,-1.0
6182,24260,-10596,17036,-1.00,-1.0
6184,16000,1976,-932,-1.00,-1.0
6186,5964,10116,-12140,-1.00,-1.0
6190,21128,6624,2976,-1.00,-1.0
6192,5236,7832,-17044,-1.00,-1.0
6194,23904,-6868,19768,-1.00,-1.0
6196,15124,8240,-6056,-1.00,-1.0
6198,3344,8276,-17032,-1.00,-1.0
6200,25248,-8300,18780,-1.00,-1.0
6202,20164,4668,4452,-1.00,-1.0
6203,28036,-7980,20940,-1.00,-1.0
6205,22940,-5408,9388,-1.00,-1.0
6207,-2804,9952,-29980,-1.00,-1.0
6209,23956,-5172,22540,-1.00,-1.0
6211,28316,-9624,16428,-1.00,-1.0
6213,-4500,11760,-32768,-1.00,-1.0
6215,23000,-3076,17296,-1.00,-1.0
6217,27296,-6248,14960,-1.00,-1.0
6221,19548,-1880,11600,-1.00,-1.0
6223,29008,-9148,22760,-1.00,-1.0
6225,-2028,11332,-32768,-1.00,-1.0
6227,21508,-4044,15820,-1.00,-1.0
6229,32767,-13136,22564,-1.00,-1.0
6231,1444,17716,-32768,-1.00,-1.0
6233,13740,352,336,-1.00,-1.0
6235,32767,-16976,32767,-1.00,-1.0
6237,-2420,17788,-32768,-1.00,-1.0
6239,5404,8700,-6460,-1.00,-1.0
6241,32767,-21608,32767,-1.00,-1.0
6243,10148,18160,-30468,-1.00,-1.0
6245,-3344,12604,-32768,-1.00,-1.0
6247,32767,-30892,32767,-1.00,-1.0
6249,11052,13144,-27060,-1.00,-1.0
6265,17200,-7412,18484,-1.00,-1.0
6267,32767,-17396,32767,-1.00,-1.0
6269,-11704,20224,-32768,-1.00,-1.0
6271,2972,552,-15032,-1.00,-1.0
6273,32767,-24916,32767,-1.00,-1.0
6275,-3144,11556,-32768,-1.00,-1.0
6277,-8848,14788,-32768,-1.00,-1.0
6279,32767,-25864,32767,-1.00,-1.0
6281,11744,-3056,-11712,-1.00,-1.0
6283,-12080,18356,-32768,-1.00,-1.0
6284,32767,-16060,32767,-1.00,-1.0
6287,26764,-9924,21840,-1.00,-1.0
6289,-12528,21288,-32768,-1.00,-1.0
6290,30280,-5604,22536,-1.00,-1.0
6292,-9140,17416,-32768,-1.00,-1.0
6296,12256,3748,-16724,-1.00,-1.0
6298,32767,-18692,32767,-1.00,-1.0
6300,-536,13512,-32768,-1.00,-1.0
6302,32767,-15328,32767,-1.00,-1.0
6304,28412,-9816,15540,-1.00,-1.0
6306,-12040,21952,-32768,-1.00,-1.0
6308,26076,-4484,21420,-1.00,-1.0
6310,32767,-18332,32767,-1.00,-1.0
6312,-1440,17824,-32768,-1.00,-1.0
6314,9240,6608,-11908,-1.00,-1.0
6316,32767,-20036,32767,-1.00,-1.0
6318,14036,7636,-11348,-1.00,-1.0
6320,-3284,18532,-32768,-1.00,-1.0
6322,31212,-16668,32767,-1.00,-1.0
6324,31976,-7504,32767,-1.00,-1.0
6328,23024,-5704,8956,-1.00,-1.0
6330,32767,-17840,32767,-1.00,-1.0
6332,-8676,15792,-32768,-1.00,-1.0
6334,11900,4688,-15740,-1.00,-1.0
6336,32767,-14500,32767,-1.00,-1.0
6338,14272,-460,-1716,-1.00,-1.0
6340,-5304,15340,-32768,-1.00,-1.0
6342,31912,-6896,32604,-1.00,-1.0
6344,29268,-12072,20976,-1.00,-1.0
6346,-7848,17488,-32768,-1.00,-1.0
6348,22768,-3588,15248,-1.00,-1.0
6350,31800,-11004,30216,-1.00,-1.0
6352,180,11816,-32768,-1.00,-1.0
6353,17612,-248,3720,-1.00,-1.0
6355,31904,-12016,29668,-1.00,-1.0
6360,7812,3872,-16036,-1.00,-1.0
6362,28752,-10888,24400,-1.00,-1.0
6363,19312,2472,2060,-1.00,-1.0
6365,6144,7752,-21828,-1.00,-1.0
6367,17408,-6952,11220,-1.00,-1.0
6369,31408,-7428,28696,-1.00,-1.0
6371,17592,-616,5004,-1.00,-1.0
6373,12152,488,-5156,-1.00,-1.0
6375,6344,9520,-27720,-1.00,-1.0
6377,9624,2004,-6752,-1.00,-1.0
6379,32767,-10504,25080,-1.00,-1.0
6381,15616,5048,-6332,-1.00,-1.0
6383,5736,2332,-14540,-1.00,-1.0
6385,21232,-2996,14228,-1.00,-1.0
6387,18664,-1144,6852,-1.00,-1.0
6391,15368,2624,-9372,-1.00,-1.0
6393,20240,-2156,8892,-1.00,-1.0
6395,20864,-556,5428,-1.00,-1.0
6397,13072,3064,-8324,-1.00,-1.0
6399,15840,-1824,2336,-1.00,-1.0
6401,18740,-2612,8076,-1.00,-1.0
6403,18404,1684,3976,-1.00,-1.0
6405,14552,1896,-12200,-1.00,-1.0
6407,13496,1152,-4016,-1.00,-1.0
6409,22232,-5552,16596,-1.00,-1.0
6411,17216,3036,-732,-1.00,-1.0
6412,3084,8640,-24636,-1.00,-1.0
6415,27348,-7588,23840,-1.00,-1.0
6417,23380,88,3100,-1.00,-1.0
6418,8616,8236,-14784,-1.00,-1.0
6420,21172,-4504,4868,-1.00,-1.0
6425,17228,1808,1140,-1.00,-1.0
6427,11324,5724,-19656,-1.00,-1.0
6428,14980,772,1680,-1.00,-1.0
6430,25768,-7556,22336,-1.00,-1.0
6432,16992,2520,-1236,-1.00,-1.0
6434,1696,12232,-32768,-1.00,-1.0
6436,26844,-4116,13500,-1.00,-1.0
6438,-836,11432,-30728,-1.00,-1.0
6440,15104,2624,-7564,-1.00,-1.0
6442,32767,-11644,32767,-1.00,-1.0
6444,15276,-2180,-2892,-1.00,-1.0
6446,3252,9820,-24064,-1.00,-1.0
6448,17788,-3328,10596,-1.00,-1.0
6450,31652,-7712,22452,-1.00,-1.0
6452,12092,6464,-20012,-1.00,-1.0
6456,26216,-2256,23208,-1.00,-1.0
6458,11648,2000,-7072,-1.00,-1.0
6460,16132,-1544,128,-1.00,-1.0
6462,16400,6444,-13500,-1.00,-1.0
6464,19792,-3124,17332,-1.00,-1.0
6466,26296,-9500,16404,-1.00,-1.0
6468,4892,11304,-24184,-1.00,-1.0
6470,7672,756,-1216,-1.00,-1.0
6472,32767,-11168,32767,-1.00,-1.0
6474,9100,3496,-25352,-1.00,-1.0
6476,3468,4340,-20600,-1.00,-1.0
6477,32767,-6200,32767,-1.00,-1.0
6480,4332,2968,-22896,-1.00,-1.0
6482,19992,-8588,16700,-1.00,-1.0
6483,22864,3700,-7196,-1.00,-1.0
6488,30732,-14732,28832,-1.00,-1.0
6490,19908,5632,-1776,-1.00,-1.0
6492,120,11476,-28476,-1.00,-1.0
6493,18432,-868,9372,-1.00,-1.0
6496,32767,-10324,29772,-1.00,-1.0
6497,5288,7392,-20332,-1.00,-1.0
6499,6604,9960,-28656,-1.00,-1.0
6501,32767,-14396,32767,-1.00,-1.0
6503,17972,-3576,976,-1.00,-1.0
6505,8544,12576,-28496,-1.00,-1.0
6507,29368,-12132,29876,-1.00,-1.0
6509,8600,6124,-22288,-1.00,-1.0
6511,8624,6680,-20736,-1.00,-1.0
6513,32767,-12616,27196,-1.00,-1.0
6515,13684,-984,4304,-1.00,-1.0
6517,12144,5900,-4760,-1.00,-1.0
6521,14636,428,2516,-1.00,-1.0
6523,30748,-8296,24212,-1.00,-1.0
6525,11752,4512,-10308,-1.00,-1.0
6527,6296,6612,-22780,-1.00,-1.0
6529,27124,-7564,23504,-1.00,-1.0
6531,18084,-5512,3604,-1.00,-1.0
6533,16068,1428,-2496,-1.00,-1.0
6535,9984,6096,-14316,-1.00,-1.0
6537,15912,-1860,7148,-1.00,-1.0
6539,25296,-3536,18960,-1.00,-1.0
6540,13204,4236,-18128,-1.00,-1.0
6543,9792,4876,-9820,-1.00,-1.0
6545,22672,-8192,20284,-1.00,-1.0
6546,23528,-5848,15552,-1.00,-1.0
6548,6348,8100,-32116,-1.00,-1.0
6553,23880,-8660,19440,-1.00,-1.0
6555,17428,2348,8268,-1.00,-1.0
6556,7844,8316,-25196,-1.00,-1.0
6558,8540,2788,-6624,-1.00,-1.0
6560,32767,-14020,32767,-1.00,-1.0
6562,12256,4944,-17424,-1.00,-1.0
6564,2816,10128,-29244,-1.00,-1.0
6566,19972,1424,5936,-1.00,-1.0
6568,21416,-2004,14028,-1.00,-1.0
6570,26516,-2812,18212,-1.00,-1.0
6572,27396,-10168,18208,-1.00,-1.0
6574,2388,6844,-13532,-1.00,-1.0
6576,20624,2228,3064,-1.00,-1.0
6578,16600,2228,-4336,-1.00,-1.0
6580,13508,-3268,-2524,-1.00,-1.0
6584,12264,8304,-14028,-1.00,-1.0
6586,6372,5628,-14424,-1.00,-1.0
6588,31388,-14132,31052,-1.00,-1.0
6590,17580,-3912,3052,-1.00,-1.0
6592,7152,11584,-21348,-1.00,-1.0
6594,19568,-3416,-452,-1.00,-1.0
6596,23348,-8684,18360,-1.00,-1.0
6598,17080,4116,-5220,-1.00,-1.0
6600,9936,7712,-12344,-1.00,-1.0
6602,10848,-1576,1588,-1.00,-1.0
6604,32767,-10312,32767,-1.00,-1.0
6605,7788,5836,-27176,-1.00,-1.0
6607,15224,4344,-9684,-1.00,-1.0
6609,29824,-8456,17280,-1.00,-1.0
6611,7308,1232,1292,-1.00,-1.0
6613,18176,-708,9412,-1.00,-1.0
6617,5180,24,-9216,-1.00,-1.0
6619,32767,-14920,32767,-1.00,-1.0
6621,5144,10288,-32768,-1.00,-1.0
6623,76,8264,-22196,-1.00,-1.0
6625,32767,-18316,32767,-1.00,-1.0
6627,17048,-180,3516,-1.00,-1.0
6629,-2912,13376,-32768,-1.00,-1.0
6631,28392,-6628,24672,-1.00,-1.0
6633,-4064,8812,-32768,-1.00,-1.0
6635,24028,124,6172,-1.00,-1.0
6637,22508,-6016,8784,-1.00,-1.0
6639,8600,-352,-4780,-1.00,-1.0
6641,27044,-1820,10192,-1.00,-1.0
6643,8040,7712,-16244,-1.00,-1.0
6645,10376,-1772,-1876,-1.00,-1.0
6649,6960,7816,-26276,-1.00,-1.0
6651,9804,7224,-11720,-1.00,-1.0
6653,32084,-10956,27436,-1.00,-1.0
6655,11216,-204,2580,-1.00,-1.0
6657,9436,7268,-12704,-1.00,-1.0
6659,18156,1308,-5108,-1.00,-1.0
6661,14664,-3060,1580,-1.00,-1.0
6663,26448,-5436,22824,-1.00,-1.0
6665,11620,4612,-14432,-1.00,-1.0
6667,6396,7908,-12792,-1.00,-1.0
6668,27096,-9052,14704,-1.00,-1.0
6670,23840,-6196,13144,-1.00,-1.0
6672,9344,9132,-21376,-1.00,-1.0
6674,12736,5136,-8696,-1.00,-1.0
6676,21208,-7536,25044,-1.00,-1.0
6678,20944,-1688,8572,-1.00,-1.0
6682,15816,3712,-9664,-1.00,-1.0
6684,31208,-9856,32767,-1.00,-1.0
6686,14668,-636,-4608,-1.00,-1.0
6688,10896,9676,-13304,-1.00,-1.0
6690,16196,-1072,-2112,-1.00,-1.0
6692,22972,-9864,20444,-1.00,-1.0
6694,23328,-2124,8656,-1.00,-1.0
6696,2028,12912,-32768,-1.00,-1.0
6698,18376,-4924,14916,-1.00,-1.0
6700,6272,11824,-27600,-1.00,-1.0
6702,12376,984,-2128,-1.00,-1.0
6704,28844,-6188,21608,-1.00,-1.0
6706,12152,1188,-7052,-1.00,-1.0
6708,8352,2520,-9652,-1.00,-1.0
6710,24164,2524,4820,-1.00,-1.0
6714,25808,-9976,17468,-1.00,-1.0
6716,16616,-752,-9836,-1.00,-1.0
6718,4220,9108,-14044,-1.00,-1.0
6720,25368,-9948,14912,-1.00,-1.0
6722,28092,-2272,17976,-1.00,-1.0
6724,284,9248,-32768,-1.00,-1.0
6726,22140,332,18448,-1.00,-1.0
6728,24672,-6372,13360,-1.00,-1.0
6730,7668,3668,-4668,-1.00,-1.0
6732,16328,5104,-15784,-1.00,-1.0
6733,19000,68,11220,-1.00,-1.0
6735,25856,-10580,14276,-1.00,-1.0
6737,14700,4460,-11532,-1.00,-1.0
6739,4848,6388,-15480,-1.00,-1.0
6741,25140,-3816,20736,-1.00,-1.0
6746,4156,7132,-18476,-1.00,-1.0
6747,24364,916,9300,-1.00,-1.0
6749,21040,-2860,3936,-1.00,-1.0
6751,11416,-3044,-4324,-1.00,-1.0
6753,26208,516,7276,-1.00,-1.0
6755,10140,4712,-13620,-1.00,-1.0
6757,16356,-8112,11048,-1.00,-1.0
6759,26972,-5328,18044,-1.00,-1.0
6761,652,11172,-30960,-1.00,-1.0
6763,18900,-2952,7360,-1.00,-1.0
6765,32032,-8064,21668,-1.00,-1.0
6767,14532,-2340,2620,-1.00,-1.0
6769,31216,-7764,19084,-1.00,-1.0
6771,11180,2508,-10480,-1.00,-1.0
6773,13692,-452,-12584,-1.00,-1.0
6775,22872,-3772,13004,-1.00,-1.0
6779,12716,4592,-4248,-1.00,-1.0
6781,16336,4112,-2348,-1.00,-1.0
6783,19216,64,8284,-1.00,-1.0
6785,16916,752,296,-1.00,-1.0
6787,15548,340,2288,-1.00,-1.0
6789,17816,-4068,1508,-1.00,-1.0
6790,17332,52,-1932,-1.00,-1.0
6792,20180,-3384,2304,-1.00,-1.0
6794,20500,-2448,1464,-1.00,-1.0
6796,9068,828,-7760,-1.00,-1.0
6798,19216,-2040,13656,-1.00,-1.0
6800,13880,1404,-5316,-1.00,-1.0
6802,13820,3260,-6636,-1.00,-1.0
6804,26132,-2356,12488,-1.00,-1.0
6806,12788,4760,-9556,-1.00,-1.0
6808,15912,4416,4492,-1.00,-1.0
6812,17364,-704,8540,-1.00,-1.0
6814,18316,-1940,1772,-1.00,-1.0
6816,19660,-3084,2684,-1.00,-1.0
6818,15772,-2108,-10240,-1.00,-1.0
6820,19172,-2724,5964,-1.00,-1.0
6822,20928,-5288,10556,-1.00,-1.0
6824,12064,5616,-8000,-1.00,-1.0
6826,13948,2468,-4560,-1.00,-1.0
6828,18572,-3652,5820,-1.00,-1.0
6830,7004,3008,-16620,-1.00,-1.0
6832,20212,-4580,15308,-1.00,-1.0
6834,23460,-5304,12524,-1.00,-1.0
6836,10728,5372,-17756,-1.00,-1.0
6838,17812,-1076,1124,-1.00,-1.0
6840,24468,-9604,16044,-1.00,-1.0
6844,7348,5760,-20288,-1.00,-1.0
6846,19816,-5308,18108,-1.00,-1.0
6848,23104,700,12496,-1.00,-1.0
6850,2448,12848,-32260,-1.00,-1.0
6852,18024,-3940,8040,-1.00,-1.0
6854,29344,-2960,22056,-1.00,-1.0
6855,4564,13032,-26812,-1.00,-1.0
6857,6460,3752,-10928,-1.00,-1.0
6859,32767,-6324,32767,-1.00,-1.0
6861,10308,7088,-19448,-1.00,-1.0
6863,860,9668,-23020,-1.00,-1.0
6865,32767,-8984,32767,-1.00,-1.0
6867,18872,-84,728,-1.00,-1.0
6869,-5940,11172,-32768,-1.00,-1.0
6871,32767,-10792,32767,-1.00,-1.0
6875,-8936,17280,-32768,-1.00,-1.0
6877,27456,-8900,25432,-1.00,-1.0
6879,32767,-14108,32767,-1.00,-1.0
6881,-3060,14076,-32768,-1.00,-1.0
6883,17124,-1212,2588,-1.00,-1.0
6885,32767,-19176,32767,-1.00,-1.0
6887,12428,8516,-15400,-1.00,-1.0
6889,32767,-14488,32767,-1.00,-1.0
6891,32767,-22308,32767,-1.00,-1.0
6893,22388,-1476,1960,-1.00,-1.0
6895,32767,-11232,32767,-1.00,-1.0
6897,20588,-1504,5672,-1.00,-1.0
6899,-9112,17576,-32768,-1.00,-1.0
6901,30392,-4932,27396,-1.00,-1.0
6903,24036,-2712,11960,-1.00,-1.0
6907,21968,-2128,16208,-1.00,-1.0
6909,31400,-8976,24588,-1.00,-1.0
6911,-6596,16640,-32768,-1.00,-1.0
6913,22236,-2488,19352,-1.00,-1.0
6915,30980,-10560,21408,-1.00,-1.0
6917,-6344,17272,-32768,-1.00,-1.0
6919,21632,-1712,15676,-1.00,-1.0
6920,29012,-7272,24800,-1.00,-1.0
6922,-1200,14388,-32768,-1.00,-1.0
6924,18544,932,8464,-1.00,-1.0
6926,25828,-7368,19376,-1.00,-1.0
6928,5240,11700,-16488,-1.00,-1.0
6930,12056,2168,-3452,-1.00,-1.0
6932,26332,-9448,21940,-1.00,-1.0
6934,10452,6552,-11140,-1.00,-1.0
6938,21596,-6524,14984,-1.00,-1.0
6940,16444,4964,-524,-1.00,-1.0
6942,9036,4616,-10256,-1.00,-1.0
6944,15752,-3908,9660,-1.00,-1.0
6946,19744,3728,7208,-1.00,-1.0
6948,12000,3260,-12484,-1.00,-1.0
6950,17420,-7816,5984,-1.00,-1.0
6952,22460,-1616,6536,-1.00,-1.0
6954,9612,5996,-13296,-1.00,-1.0
6956,16184,-4016,-588,-1.00,-1.0
6958,21332,-280,13084,-1.00,-1.0
6960,18296,3408,2660,-1.00,-1.0
6962,21424,-3612,7288,-1.00,-1.0
6964,12740,1836,3076,-1.00,-1.0
6966,15464,3160,-2712,-1.00,-1.0
6968,20136,-3464,6344,-1.00,-1.0
6972,23684,-3624,20880,-1.00,-1.0
6974,16704,-2000,-4192,-1.00,-1.0
6976,2168,6128,-15372,-1.00,-1.0
6978,24836,-3884,19668,-1.00,-1.0
6980,20360,1844,-1176,-1.00,-1.0
6982,2164,7972,-25736,-1.00,-1.0
6983,25868,172,20860,-1.00,-1.0
6986,20512,-1604,4520,-1.00,-1.0
6987,-668,8756,-19576,-1.00,-1.0
6989,22664,-1808,11764,-1.00,-1.0
6991,26276,-5476,10204,-1.00,-1.0
6993,-2336,7932,-30308,-1.00,-1.0
6995,24872,-3324,21624,-1.00,-1.0
6997,25168,-2448,5884,-1.00,-1.0
6999,-4260,12020,-32768,-1.00,-1.0
7003,25200,-2164,2444,-1.00,-1.0
7005,392,7032,-22156,-1.00,-1.0
7007,26424,-1260,15896,-1.00,-1.0
7009,22380,-2684,3608,-1.00,-1.0
7011,12296,-4592,-12584,-1.00,-1.0
7013,26944,-372,9020,-1.00,-1.0
7015,15512,-32,-7140,-1.00,-1.0
7017,20316,-8872,14380,-1.00,-1.0
7019,20144,1872,-6004,-1.00,-1.0
7021,12416,2148,-3596,-1.00,-1.0
7023,30144,-13008,22536,-1.00,-1.0
7025,-1440,8272,-15384,-1.00,-1.0
7027,7824,1716,-5308,-1.00,-1.0
7029,30252,-14220,27236,-1.00,-1.0
7031,468,5304,-17996,-1.00,-1.0
7035,16276,2904,-10900,-1.00,-1.0
7037,3860,-132,-19152,-1.00,-1.0
7039,32767,-4356,22376,-1.00,-1.0
7040,14040,3328,-11892,-1.00,-1.0
7043,11560,-3380,1796,-1.00,-1.0
7045,27020,196,7664,-1.00,-1.0
7046,12652,180,-6768,-1.00,-1.0
7048,17384,-7716,8608,-1.00,-1.0
7050,23400,1372,8496,-1.00,-1.0
7052,9632,672,-9472,-1.00,-1.0
7054,22908,-10332,12568,-1.00,-1.0
7056,17152,-884,840,-1.00,-1.0
7058,9456,3516,-1584,-1.00,-1.0
7060,21980,-3396,8352,-1.00,-1.0
7062,12572,800,-2040,-1.00,-1.0
7064,17568,3116,3076,-1.00,-1.0
7068,5692,4428,-6392,-1.00,-1.0
7070,22856,-3636,20948,-1.00,-1.0
7072,16452,756,-10712,-1.00,-1.0
7074,1888,4576,-16984,-1.00,-1.0
7076,32767,-6340,25760,-1.00,-1.0
7078,18564,2884,-10852,-1.00,-1.0
7080,3384,2060,-16428,-1.00,-1.0
7082,12144,1976,-5608,-1.00,-1.0
7084,14472,5488,-13144,-1.00,-1.0
7086,12872,944,-1100,-1.00,-1.0
7088,12720,1048,-2004,-1.00,-1.0
7089,19596,528,1780,-1.00,-1.0
7092,20008,-4300,2016,-1.00,-1.0
7094,12264,4176,332,-1.00,-1.0
7095,17820,2504,-860,-1.00,-1.0
7097,16444,-3376,-2524,-1.00,-1.0
7102,22596,8376,-836,-1.00,-1.0
7104,11840,3652,-17604,-1.00,-1.0
7105,21852,-10052,20260,-1.00,-1.0
7107,23100,5060,-740,-1.00,-1.0
7109,4908,8736,-18712,-1.00,-1.0
7111,24104,-11248,13216,-1.00,-1.0
7113,23716,980,10700,-1.00,-1.0
7115,6740,5868,-15272,-1.00,-1.0
7117,18628,-6756,7388,-1.00,-1.0
7119,22124,776,6052,-1.00,-1.0
7121,11124,4248,-9440,-1.00,-1.0
7123,20676,-6824,9344,-1.00,-1.0
7125,17448,6328,-2332,-1.00,-1.0
7127,12712,4744,-7480,-1.00,-1.0
7129,24780,-7780,9628,-1.00,-1.0
7133,10532,8012,-15992,-1.00,-1.0
7135,23952,-8248,15488,-1.00,-1.0
7137,15100,864,-1716,-1.00,-1.0
7139,12160,6716,-5452,-1.00,-1.0
7141,20932,-4892,5824,-1.00,-1.0
7143,11856,2292,-3716,-1.00,-1.0
7145,17032,2404,5784,-1.00,-1.0
7147,20624,-2180,3648,-1.00,-1.0
7149,8516,1540,-8612,-1.00,-1.0
7151,18984,732,9992,-1.00,-1.0
7153,13048,4192,-5660,-1.00,-1.0
7154,16956,-4676,6808,-1.00,-1.0
7157,16172,644,2104,-1.00,-1.0
7159,15296,3640,-2744,-1.00,-1.0
7160,18000,-4344,792,-1.00,-1.0
7162,14900,-880,2300,-1.00,-1.0
7167,16688,1612,-8848,-1.00,-1.0
7169,16588,-2708,3040,-1.00,-1.0
7170,21444,2692,4092,-1.00,-1.0
7172,18168,812,-2744,-1.00,-1.0
7174,16960,-4172,1880,-1.00,-1.0
7176,14992,3148,324,-1.00,-1.0
7178,17156,-1172,3188,-1.00,-1.0
7180,19048,-5676,4752,-1.00,-1.0
7182,11364,2612,-9084,-1.00,-1.0
7184,18188,1332,7376,-1.00,-1.0
7186,19964,-4704,4884,-1.00,-1.0
7188,8932,2020,-8572,-1.00,-1.0
7190,20100,2980,7580,-1.00,-1.0
7192,20848,-1064,200,-1.00,-1.0
7194,15360,-2676,-332,-1.00,-1.0
7196,17364,6144,-4620,-1.00,-1.0
7200,21100,-6388,7784,-1.00,-1.0
7202,13636,5912,-5272,-1.00,-1.0
7204,15740,2904,-2568,-1.00,-1.0
7206,21276,-5372,5840,-1.00,-1.0
7208,12432,1892,-3440,-1.00,-1.0
7210,17600,3964,7800,-1.00,-1.0
7212,18216,-1396,-2012,-1.00,-1.0
7214,13540,-4088,-2028,-1.00,-1.0
7216,18948,4236,-1332,-1.00,-1.0
7218,19780,-1220,2400,-1.00,-1.0
7219,18388,-3668,292,-1.00,-1.0
7222,8448,6288,-7616,-1.00,-1.0
7224,23484,1880,10904,-1.00,-1.0
7225,12756,3600,-13396,-1.00,-1.0
7227,18156,-8036,8920,-1.00,-1.0
7232,20088,-4156,5216,-1.00,-1.0
7234,8456,-660,-6332,-1.00,-1.0
7235,15472,4168,-1992,-1.00,-1.0
7237,14776,2296,432,-1.00,-1.0
7239,19604,-4892,8456,-1.00,-1.0
7241,9856,1256,-6176,-1.00,-1.0
7243,20080,2752,8328,-1.00,-1.0
7245,18348,-2652,-6452,-1.00,-1.0
7247,13744,-3552,2044,-1.00,-1.0
7249,21040,1956,9364,-1.00,-1.0
7251,16608,3556,-6004,-1.00,-1.0
7253,13816,-2392,-4464,-1.00,-1.0
7255,19564,1712,1120,-1.00,-1.0
7257,20516,-252,4752,-1.00,-1.0
7259,14972,-1924,-1284,-1.00,-1.0
7261,10640,3240,-5132,-1.00,-1.0
7265,19644,-4284,3920,-1.00,-1.0
7267,10044,480,-5984,-1.00,-1.0
7269,20572,1408,10140,-1.00,-1.0
7271,19724,-488,-3308,-1.00,-1.0
7273,14884,-4412,-2568,-1.00,-1.0
7275,18972,2188,2260,-1.00,-1.0
7277,18636,-356,3900,-1.00,-1.0
7279,17328,-2920,200,-1.00,-1.0
7281,9592,5160,-10144,-1.00,-1.0
7283,21560,-1088,12448,-1.00,-1.0
7284,10904,4132,-15108,-1.00,-1.0
7286,17828,-6628,13048,-1.00,-1.0
7288,24524,1216,7888,-1.00,-1.0
7290,12480,7112,-15392,-1.00,-1.0
7292,18136,-4408,-1580,-1.00,-1.0
7297,25872,-4344,6408,-1.00,-1.0
7299,18664,-4284,2800,-1.00,-1.0
7301,15644,7608,-8656,-1.00,-1.0
7303,15512,2044,-1572,-1.00,-1.0
7305,19592,-5804,9572,-1.00,-1.0
7307,17776,4160,-1864,-1.00,-1.0
7309,12344,4588,-11832,-1.00,-1.0
7311,21472,-6908,13476,-1.00,-1.0
7313,17184,2540,2624,-1.00,-1.0
7315,11580,5272,-7044,-1.00,-1.0
7316,17848,-4256,1216,-1.00,-1.0
7318,12684,668,-4804,-1.00,-1.0
7320,16416,5284,-7560,-1.00,-1.0
7322,19432,-960,5332,-1.00,-1.0
7324,19872,-4580,5780,-1.00,-1.0
7326,10712,6008,-5140,-1.00,-1.0
7330,19040,-4764,7048,-1.00,-1.0
7332,12880,-1480,-1800,-1.00,-1.0
7334,19020,2888,2724,-1.00,-1.0
7336,18872,-3136,-2044,-1.00,-1.0
7338,14464,-660,-288,-1.00,-1.0
7340,19696,1908,2060,-1.00,-1.0
7342,16912,1368,-3684,-1.00,-1.0
7344,17512,-2056,3140,-1.00,-1.0
7346,17800,3272,536,-1.00,-1.0
7348,17060,-272,976,-1.00,-1.0
7350,16384,-2248,-1016,-1.00,-1.0
7352,14116,148,1952,-1.00,-1.0
7354,18900,-496,6264,-1.00,-1.0
7356,15424,-1948,-1212,-1.00,-1.0
7358,12144,532,-1592,-1.00,-1.0
7359,21668,1616,5244,-1.00,-1.0
7364,15984,240,-1784,-1.00,-1.0
7366,18804,2140,208,-1.00,-1.0
7368,15384,-1272,2052,-1.00,-1.0
7370,17056,-2724,3884,-1.00,-1.0
7372,15696,3976,-2804,-1.00,-1.0
7374,15596,1544,-4192,-1.00,-1.0
7376,20136,-7060,9184,-1.00,-1.0
7377,16044,-1272,4752,-1.00,-1.0
7380,11304,6860,-9232,-1.00,-1.0
7382,18936,-4260,2440,-1.00,-1.0
7383,19992,-3168,4884,-1.00,-1.0
7385,19324,4412,-404,-1.00,-1.0
7387,14988,3572,-8672,-1.00,-1.0
7389,18932,-3672,2752,-1.00,-1.0
7391,10108,2440,-10112,-1.00,-1.0
7395,21244,-6836,9992,-1.00,-1.0
7397,14364,1320,3288,-1.00,-1.0
7399,21172,1724,3936,-1.00,-1.0
7401,20300,-1508,1024,-1.00,-1.0
7403,18456,-4832,5208,-1.00,-1.0
7405,11860,7908,-11272,-1.00,-1.0
7407,16324,-552,5828,-1.00,-1.0
7409,25056,-7972,13256,-1.00,-1.0
7411,8160,4384,-11896,-1.00,-1.0
7413,16644,4120,2724,-1.00,-1.0
7415,23048,-4084,6980,-1.00,-1.0
7417,13880,-2572,-2108,-1.00,-1.0
7419,16336,7200,-5168,-1.00,-1.0
7421,18832,496,-1688,-1.00,-1.0
7423,20032,-5772,8204,-1.00,-1.0
7425,13988,3212,-3156,-1.00,-1.0
7429,19456,-6580,6520,-1.00,-1.0
7431,13120,-2012,304,-1.00,-1.0
7433,18936,4924,2872,-1.00,-1.0
7435,17064,200,-6084,-1.00,-1.0
7437,17820,-6208,3996,-1.00,-1.0
7439,18632,3116,2408,-1.00,-1.0
7441,15360,3324,-3976,-1.00,-1.0
7442,18176,-5152,3176,-1.00,-1.0
7445,12136,848,504,-1.00,-1.0
7447,19288,1692,5528,-1.00,-1.0
7448,17268,-1420,-3268,-1.00,-1.0
7450,20840,-7328,12176,-1.00,-1.0
7452,23800,-1796,20364,-1.00,-1.0
7454,14876,5604,-4352,-1.00,-1.0
7456,24432,-7020,12252,-1.00,-1.0
7460,21276,72,3816,-1.00,-1.0
7462,14812,-3696,-1176,-1.00,-1.0
7464,19744,-6232,6280,-1.00,-1.0
7466,17148,6796,-5228,-1.00,-1.0
7468,16116,1416,-2064,-1.00,-1.0
7470,20868,-6236,6724,-1.00,-1.0
7472,14832,7352,-9904,-1.00,-1.0
7474,16036,3584,-264,-1.00,-1.0
7476,23880,-6644,16080,-1.00,-1.0
7478,11100,4492,-6960,-1.00,-1.0
7480,14336,7684,-2964,-1.00,-1.0
7482,22336,-6456,2160,-1.00,-1.0
7484,20576,-6084,8776,-1.00,-1.0
7486,12772,8116,-11228,-1.00,-1.0
7488,16436,888,5212,-1.00,-1.0
7490,20152,-6016,3720,-1.00,-1.0
7494,19568,1932,5324,-1.00,-1.0
7496,19392,-3308,5760,-1.00,-1.0
7498,11360,120,-3220,-1.00,-1.0
7500,17876,6388,-288,-1.00,-1.0
7502,20248,-5264,2364,-1.00,-1.0
7504,22476,-7564,7536,-1.00,-1.0
7506,12916,7068,-12244,-1.00,-1.0
7507,14048,3388,-1684,-1.00,-1.0
7509,24200,-8588,17728,-1.00,-1.0
7511,9112,4712,-12124,-1.00,-1.0
7513,14680,3184,3264,-1.00,-1.0
7515,16672,1968,-3932,-1.00,-1.0
7517,15012,-1748,-3624,-1.00,-1.0
7519,13784,3656,-4244,-1.00,-1.0
7521,19288,-456,12056,-1.00,-1.0
7523,16984,-4240,792,-1.00,-1.0
7527,21416,2280,7040,-1.00,-1.0
7529,18816,-4568,-2456,-1.00,-1.0
7531,16440,-5252,2084,-1.00,-1.0
7533,18020,5416,-2124,-1.00,-1.0
7535,17280,1248,-104,-1.00,-1.0
7537,18020,-4436,3000,-1.00,-1.0
7539,11960,912,-1940,-1.00,-1.0
7541,19648,2888,6808,-1.00,-1.0
7543,17220,-3464,-4352,-1.00,-1.0
7545,20468,-5568,4856,-1.00,-1.0
7547,18588,5636,-7704,-1.00,-1.0
7549,16044,564,652,-1.00,-1.0
7551,20560,-4632,7728,-1.00,-1.0
7553,7968,6956,-4900,-1.00,-1.0
7555,13208,2368,3552,-1.00,-1.0
7559,14224,-2384,-7392,-1.00,-1.0
7561,19020,4920,-4716,-1.00,-1.0
7562,19296,-3980,1144,-1.00,-1.0
7564,21180,-5852,9872,-1.00,-1.0
7566,12004,7284,-8928,-1.00,-1.0
7568,13872,1832,-632,-1.00,-1.0
7570,23436,-7800,14008,-1.00,-1.0
7572,12232,-528,-3860,-1.00,-1.0
7574,19508,2420,2072,-1.00,-1.0
7576,15176,-260,1716,-1.00,-1.0
7578,18800,-3612,4832,-1.00,-1.0
7580,13568,4324,-8120,-1.00,-1.0
7582,20360,512,5360,-1.00,-1.0
7584,20920,-4212,-740,-1.00,-1.0
7586,13716,2080,-2944,-1.00,-1.0
7588,16192,3400,2648,-1.00,-1.0
7592,16464,-2232,3528,-1.00,-1.0
7594,14088,3048,-6404,-1.00,-1.0
7596,23072,-552,4952,-1.00,-1.0
7598,20120,-1504,-2948,-1.00,-1.0
7600,13772,2676,-7724,-1.00,-1.0
7602,18984,-300,8808,-1.00,-1.0
7604,16956,-1384,4632,-1.00,-1.0
7605,11888,788,-2816,-1.00,-1.0
7608,13772,3416,-3028,-1.00,-1.0
7609,24436,-1304,8288,-1.00,-1.0
7611,19240,-1540,-3180,-1.00,-1.0
7613,10760,2312,-7932,-1.00,-1.0
7615,22180,2172,8604,-1.00,-1.0
7617,14672,-1416,-3284,-1.00,-1.0
7619,22800,-4492,2008,-1.00,-1.0
7621,11568,20,-5580,-1.00,-1.0
7625,22936,-5560,3732,-1.00,-1.0
