timestamp_ms,global_ms,accel_x,accel_y,accel_z,accel_mag,temp_c,voltage,soc,loop_us
2,2135002,17012,196,1364,17067.72,26.88,-1.00,-1.0,2481
9,2135009,17136,144,1396,17193.37,26.88,-1.00,-1.0,2478
12,2135012,17028,264,1260,17076.59,26.93,-1.00,-1.0,2350
14,2135014,16980,220,1404,17039.37,26.98,-1.00,-1.0,2365
17,2135017,17036,348,1268,17086.67,26.93,-1.00,-1.0,2432
20,2135020,17008,276,1380,17066.12,26.88,-1.00,-1.0,2365
23,2135023,16888,212,1332,16941.77,27.02,-1.00,-1.0,2466
25,2135025,16992,360,1280,17043.95,26.93,-1.00,-1.0,2361
28,2135028,17024,360,1296,17077.05,26.88,-1.00,-1.0,2450
31,2135031,16932,252,1424,16993.64,26.93,-1.00,-1.0,2368
36,2135036,16968,248,1428,17029.79,26.93,-1.00,-1.0,2451
39,2135039,17056,232,1464,17120.29,26.84,-1.00,-1.0,2355
41,2135041,17008,188,1348,17062.37,26.88,-1.00,-1.0,2369
44,2135044,17112,148,1680,17194.91,26.88,-1.00,-1.0,2443
47,2135047,17016,144,1524,17084.72,26.79,-1.00,-1.0,2374
50,2135050,16900,320,1508,16970.16,26.88,-1.00,-1.0,2448
52,2135052,16996,300,1384,17054.90,26.88,-1.00,-1.0,2377
55,2135055,17268,84,2348,17427.11,26.88,-1.00,-1.0,2427
58,2135058,21108,-1208,11764,24195.01,26.88,-1.00,-1.0,2372
63,2135063,14448,-5076,16512,22520.14,26.93,-1.00,-1.0,2455
65,2135065,24512,8196,3664,26104.36,26.84,-1.00,-1.0,2360
68,2135068,4520,4048,6808,9119.52,27.02,-1.00,-1.0,2442
71,2135071,17072,-19824,-11012,28385.00,26.93,-1.00,-1.0,2361
73,2135073,8556,-12508,2432,15348.28,26.88,-1.00,-1.0,2362
76,2135076,27764,6836,-8624,29865.43,26.98,-1.00,-1.0,2441
79,2135079,30488,13836,284,33481.84,26.84,-1.00,-1.0,2366
82,2135082,3256,-3364,2968,5543.20,26.88,-1.00,-1.0,2446
84,2135084,32767,7236,-1000,33571.36,26.93,-1.00,-1.0,2360
89,2135089,32767,4176,14304,35996.11,26.93,-1.00,-1.0,2448
92,2135092,3464,-17020,7548,18938.11,26.93,-1.00,-1.0,2361
95,2135095,23396,-14624,-5444,28122.44,26.84,-1.00,-1.0,2438
98,2135098,14064,13440,2532,19617.36,26.93,-1.00,-1.0,2364
100,2135100,21488,8536,5632,23797.41,26.93,-1.00,-1.0,2434
103,2135103,9316,-5784,1428,11058.11,26.84,-1.00,-1.0,2368
106,2135106,20772,-4624,-3676,21595.61,27.02,-1.00,-1.0,2432
109,2135109,12292,-584,1888,12449.85,26.93,-1.00,-1.0,2367
111,2135111,22308,-24,740,22320.28,26.84,-1.00,-1.0,2356
116,2135116,22996,1460,172,23042.94,27.02,-1.00,-1.0,2459
119,2135119,17056,15524,2408,23188.36,26.98,-1.00,-1.0,2361
122,2135122,20260,3088,688,20505.53,26.84,-1.00,-1.0,2453
124,2135124,14552,-5392,-392,15523.79,26.88,-1.00,-1.0,2366
127,2135127,18736,712,624,18759.90,26.93,-1.00,-1.0,2448
130,2135130,19524,7472,2776,21088.47,26.98,-1.00,-1.0,2364
133,2135133,17656,1968,3048,18024.92,26.93,-1.00,-1.0,2449
135,2135135,15020,-7972,-1052,17037.02,26.88,-1.00,-1.0,2368
140,2135140,13980,4776,4336,15396.48,26.88,-1.00,-1.0,2449
143,2135143,18300,2408,1348,18506.91,26.88,-1.00,-1.0,2359
146,2135146,14304,-2224,-40,14475.92,26.88,-1.00,-1.0,2447
148,2135148,18864,-8000,1196,20525.13,26.88,-1.00,-1.0,2359
151,2135151,17208,-2256,792,17373.31,26.88,-1.00,-1.0,2367
154,2135154,16844,1268,768,16909.11,26.93,-1.00,-1.0,2444
157,2135157,15032,2556,2316,15422.65,26.98,-1.00,-1.0,2361
159,2135159,20280,928,1824,20383.00,26.88,-1.00,-1.0,2452
162,2135162,20424,1344,-592,20476.73,26.98,-1.00,-1.0,2366
167,2135167,21068,-780,876,21100.62,26.98,-1.00,-1.0,2448
170,2135170,12576,84,1444,12658.91,26.93,-1.00,-1.0,2430
173,2135173,20400,-1124,-472,20436.39,26.88,-1.00,-1.0,2446
175,2135175,14468,1244,1444,14593.00,26.93,-1.00,-1.0,2365
178,2135178,16928,-1212,1592,17045.84,26.98,-1.00,-1.0,2416
181,2135181,17924,-1620,1360,18048.37,26.84,-1.00,-1.0,2368
184,2135184,16880,2392,1908,17155.07,26.88,-1.00,-1.0,2431
186,2135186,18108,-752,1280,18168.75,26.84,-1.00,-1.0,2373
189,2135189,17516,-4312,2200,18172.61,26.88,-1.00,-1.0,2360
194,2135194,17916,372,2512,18095.07,26.84,-1.00,-1.0,2439
197,2135197,16440,6556,3680,18077.53,26.84,-1.00,-1.0,2368
199,2135199,18268,3464,2768,18798.43,26.98,-1.00,-1.0,2440
202,2135202,14756,-1908,1220,14928.78,26.93,-1.00,-1.0,2362
205,2135205,17360,-4484,0,17929.75,26.84,-1.00,-1.0,2436
208,2135208,16164,1456,1000,16260.22,26.93,-1.00,-1.0,2367
210,2135210,17928,6016,792,18927.04,26.93,-1.00,-1.0,2443
213,2135213,15024,-1520,1556,15180.65,26.93,-1.00,-1.0,2374
218,2135218,18744,-4804,-436,19354.74,26.84,-1.00,-1.0,2442
221,2135221,17172,6380,1764,18403.63,26.93,-1.00,-1.0,2368
223,2135223,16940,896,1500,17029.87,26.88,-1.00,-1.0,2443
226,2135226,17152,-9612,-92,19661.89,26.84,-1.00,-1.0,2373
229,2135229,15404,-5572,2344,16547.65,26.98,-1.00,-1.0,2359
231,2135231,18144,6616,3444,19617.27,26.88,-1.00,-1.0,2429
234,2135234,16304,4012,2480,16972.54,26.98,-1.00,-1.0,2369
237,2135237,17012,220,1844,17113.06,26.98,-1.00,-1.0,2429
240,2135240,17300,-2740,1412,17572.46,26.93,-1.00,-1.0,2368
244,2135244,17236,2352,1192,17436.53,26.88,-1.00,-1.0,2441
247,2135247,16556,1928,1312,16719.44,26.84,-1.00,-1.0,2367
250,2135250,16932,464,1908,17045.48,26.98,-1.00,-1.0,2440
253,2135253,16540,-732,1288,16606.21,26.93,-1.00,-1.0,2362
255,2135255,17124,-632,-4,17135.66,26.88,-1.00,-1.0,2437
258,2135258,17624,1692,2044,17822.63,26.93,-1.00,-1.0,2374
261,2135261,16828,3052,2100,17230.97,26.88,-1.00,-1.0,2361
264,2135264,17436,-496,1272,17489.37,26.98,-1.00,-1.0,2430
267,2135267,17356,-3004,1208,17655.42,26.88,-1.00,-1.0,2366
272,2135272,16764,1496,2092,16960.13,26.88,-1.00,-1.0,2442
274,2135274,16992,964,1960,17131.81,26.93,-1.00,-1.0,2369
277,2135277,17224,752,1480,17303.82,26.88,-1.00,-1.0,2448
280,2135280,16968,1480,1828,17130.24,26.93,-1.00,-1.0,2364
283,2135283,16560,144,976,16589.36,26.88,-1.00,-1.0,2448
285,2135285,16992,-1344,476,17051.71,26.84,-1.00,-1.0,2360
288,2135288,16600,1064,1676,16718.29,26.88,-1.00,-1.0,2445
291,2135291,17056,2868,1616,17370.78,26.93,-1.00,-1.0,2366
296,2135296,17388,-500,1060,17427.45,26.93,-1.00,-1.0,2440
298,2135298,16292,-1376,1488,16417.58,26.93,-1.00,-1.0,2359
301,2135301,17864,188,1312,17913.10,26.84,-1.00,-1.0,2360
304,2135304,17156,868,1252,17223.51,26.98,-1.00,-1.0,2451
306,2135306,17628,-1204,1260,17713.94,26.93,-1.00,-1.0,2360
309,2135309,17000,-1792,1976,17208.02,26.88,-1.00,-1.0,2449
312,2135312,17252,1040,1764,17373.11,26.84,-1.00,-1.0,2359
315,2135315,17100,1108,1408,17193.61,26.98,-1.00,-1.0,2444
318,2135318,17180,-556,1424,17247.88,26.93,-1.00,-1.0,2360
323,2135323,16996,640,704,17022.61,26.79,-1.00,-1.0,2440
325,2135325,16632,2592,1120,16869.98,26.88,-1.00,-1.0,2368
328,2135328,17064,2464,964,17267.91,26.98,-1.00,-1.0,2440
331,2135331,17048,1848,1404,17205.25,26.88,-1.00,-1.0,2347
333,2135333,16576,752,1756,16685.71,26.98,-1.00,-1.0,2361
336,2135336,17008,-212,1364,17063.92,26.88,-1.00,-1.0,2427
339,2135339,16984,-188,1712,17071.10,26.88,-1.00,-1.0,2368
342,2135342,17180,-240,1704,17265.97,26.88,-1.00,-1.0,2445
345,2135345,17480,-1348,1640,17608.44,26.93,-1.00,-1.0,2359
350,2135350,17084,-420,2164,17225.63,26.84,-1.00,-1.0,2440
352,2135352,17040,-68,1916,17147.52,26.88,-1.00,-1.0,2363
355,2135355,16812,-1172,1044,16885.11,26.93,-1.00,-1.0,2440
358,2135358,16660,-1256,1072,16741.63,26.88,-1.00,-1.0,2362
361,2135361,16808,612,1248,16865.38,26.93,-1.00,-1.0,2428
363,2135363,16576,2084,1280,16755.45,26.88,-1.00,-1.0,2373
366,2135366,17180,996,828,17228.76,26.79,-1.00,-1.0,2432
369,2135369,17200,900,1040,17254.90,26.98,-1.00,-1.0,2352
372,2135372,17160,2304,1572,17385.20,26.93,-1.00,-1.0,2362
377,2135377,16936,356,1700,17024.83,26.93,-1.00,-1.0,2439
379,2135379,17032,-788,1888,17154.43,26.93,-1.00,-1.0,2364
382,2135382,17228,-168,1460,17290.57,26.93,-1.00,-1.0,2440
385,2135385,17136,40,1728,17222.95,26.93,-1.00,-1.0,2360
388,2135388,17120,-516,1748,17216.74,26.93,-1.00,-1.0,2433
390,2135390,16820,-1232,1828,16963.84,26.93,-1.00,-1.0,2368
393,2135393,16944,-984,1372,17027.91,26.93,-1.00,-1.0,2438
396,2135396,17168,-228,1296,17218.36,26.88,-1.00,-1.0,2359
401,2135401,17100,924,1168,17164.73,26.98,-1.00,-1.0,2447
403,2135403,16880,388,1128,16922.10,26.88,-1.00,-1.0,2361
406,2135406,16848,260,1156,16889.61,26.79,-1.00,-1.0,2450
409,2135409,16884,1376,1500,17006.26,26.98,-1.00,-1.0,2360
412,2135412,17208,1952,1336,17369.81,26.98,-1.00,-1.0,2357
414,2135414,16668,1260,1180,16757.15,26.93,-1.00,-1.0,2437
417,2135417,17052,-256,1048,17086.09,26.88,-1.00,-1.0,2375
420,2135420,16912,92,1604,16988.14,26.84,-1.00,-1.0,2439
423,2135423,16912,656,1784,17018.48,26.88,-1.00,-1.0,2367
428,2135428,17176,-688,1792,17282.93,26.93,-1.00,-1.0,2446
430,2135430,17200,-600,1680,17292.26,26.98,-1.00,-1.0,2361
433,2135433,17256,324,1368,17313.17,26.98,-1.00,-1.0,2434
436,2135436,17280,332,1252,17328.48,26.98,-1.00,-1.0,2367
439,2135439,17032,-108,1260,17078.88,26.93,-1.00,-1.0,2447
441,2135441,16832,172,1332,16885.50,26.88,-1.00,-1.0,2362
444,2135444,16636,1552,1240,16754.19,27.02,-1.00,-1.0,2361
447,2135447,16776,2224,1104,16958.75,26.93,-1.00,-1.0,2429
450,2135450,16764,1400,928,16847.93,26.93,-1.00,-1.0,2369
455,2135455,16896,-120,1172,16937.03,26.88,-1.00,-1.0,2445
457,2135457,17184,-728,1440,17259.59,26.88,-1.00,-1.0,2359
460,2135460,17148,-412,1856,17253.07,26.93,-1.00,-1.0,2448
463,2135463,17284,-40,1804,17377.94,26.88,-1.00,-1.0,2361
466,2135466,17180,216,1840,17279.60,26.88,-1.00,-1.0,2443
468,2135468,17184,-72,2028,17303.40,26.98,-1.00,-1.0,2359
471,2135471,17044,-260,1684,17128.96,26.98,-1.00,-1.0,2438
474,2135474,16820,0,1852,16921.65,26.88,-1.00,-1.0,2361
477,2135477,16844,304,1344,16900.27,26.93,-1.00,-1.0,2365
482,2135482,17024,1452,1008,17115.52,26.84,-1.00,-1.0,2444
484,2135484,17132,1528,1056,17232.39,26.98,-1.00,-1.0,2360
487,2135487,17008,1192,1240,17094.75,27.02,-1.00,-1.0,2447
490,2135490,16880,480,1332,16939.28,26.88,-1.00,-1.0,2360
493,2135493,16924,-84,1232,16968.99,26.84,-1.00,-1.0,2441
495,2135495,17024,-176,1408,17083.03,27.07,-1.00,-1.0,2361
498,2135498,16984,-532,1780,17085.31,26.88,-1.00,-1.0,2437
501,2135501,17076,-500,1560,17154.40,26.88,-1.00,-1.0,2360
506,2135506,17148,364,1740,17239.90,26.88,-1.00,-1.0,2440
509,2135509,17048,168,1776,17141.08,26.84,-1.00,-1.0,2370
511,2135511,16912,-848,1344,16986.50,26.88,-1.00,-1.0,2360
514,2135514,16932,-672,1096,16980.74,26.88,-1.00,-1.0,2434
517,2135517,17044,496,1244,17096.54,26.98,-1.00,-1.0,2366
519,2135519,17088,1920,1580,17267.96,26.88,-1.00,-1.0,2428
522,2135522,16940,1168,1636,17058.85,26.93,-1.00,-1.0,2359
525,2135525,16876,-104,1392,16933.63,26.88,-1.00,-1.0,2437
528,2135528,17000,28,1484,17064.67,26.98,-1.00,-1.0,2366
533,2135533,17280,784,1548,17366.90,27.02,-1.00,-1.0,2428
536,2135536,17068,-4,1632,17145.85,26.93,-1.00,-1.0,2363
538,2135538,17084,-384,1564,17159.74,26.98,-1.00,-1.0,2448
541,2135541,16920,352,1564,16995.78,26.93,-1.00,-1.0,2369
544,2135544,16932,1084,1660,17047.68,26.93,-1.00,-1.0,2441
546,2135546,16940,856,1444,17022.97,26.93,-1.00,-1.0,2361
549,2135549,16892,-224,1140,16931.91,26.98,-1.00,-1.0,2367
552,2135552,17004,-896,840,17048.30,26.88,-1.00,-1.0,2435
555,2135555,16952,-248,856,16975.41,26.88,-1.00,-1.0,2365
560,2135560,17004,956,1096,17066.08,26.98,-1.00,-1.0,2443
563,2135563,16948,588,1304,17008.26,27.02,-1.00,-1.0,2369
565,2135565,16908,-152,1128,16946.27,26.88,-1.00,-1.0,2442
568,2135568,16828,256,1364,16885.13,26.88,-1.00,-1.0,2377
571,2135571,17020,636,1468,17095.03,26.88,-1.00,-1.0,2435
574,2135574,17036,320,1628,17116.60,27.02,-1.00,-1.0,2367
576,2135576,16992,-476,1508,17065.42,26.88,-1.00,-1.0,2444
579,2135579,17016,4,1604,17091.43,26.93,-1.00,-1.0,2369
582,2135582,17228,1120,1660,17343.99,26.88,-1.00,-1.0,2361
587,2135587,17280,144,1376,17335.30,26.88,-1.00,-1.0,2440
590,2135590,17200,-100,1200,17242.10,26.88,-1.00,-1.0,2364
592,2135592,17080,292,992,17111.28,26.98,-1.00,-1.0,2441
595,2135595,16928,848,1360,17003.70,26.88,-1.00,-1.0,2368
598,2135598,16840,368,1236,16889.31,26.98,-1.00,-1.0,2435
601,2135601,16808,-88,1236,16853.61,26.88,-1.00,-1.0,2367
603,2135603,16812,40,1504,16879.19,26.98,-1.00,-1.0,2441
606,2135606,16948,492,1548,17025.66,26.98,-1.00,-1.0,2376
609,2135609,17104,676,1632,17194.98,27.02,-1.00,-1.0,2363
614,2135614,17128,-344,1644,17210.16,26.98,-1.00,-1.0,2439
617,2135617,17220,-356,1548,17293.10,26.88,-1.00,-1.0,2366
619,2135619,17132,176,1400,17190.01,26.84,-1.00,-1.0,2432
622,2135622,16972,472,1552,17049.35,26.98,-1.00,-1.0,2366
625,2135625,16832,496,1652,16920.15,26.79,-1.00,-1.0,2427
628,2135628,16764,564,1460,16836.91,26.98,-1.00,-1.0,2373
630,2135630,16972,728,1228,17031.93,26.98,-1.00,-1.0,2423
633,2135633,17036,736,1400,17109.27,26.98,-1.00,-1.0,2381
638,2135638,17068,340,1260,17117.82,26.98,-1.00,-1.0,2439
641,2135641,17072,88,1224,17116.05,26.98,-1.00,-1.0,2372
643,2135643,16932,-524,1432,17000.52,26.93,-1.00,-1.0,2360
646,2135646,17000,-660,1384,17069.01,27.02,-1.00,-1.0,2432
649,2135649,17056,-236,1504,17123.81,26.98,-1.00,-1.0,2366
651,2135651,17016,500,1700,17108.02,26.93,-1.00,-1.0,2427
654,2135654,17060,616,1576,17143.71,26.88,-1.00,-1.0,2369
657,2135657,17084,56,1452,17145.68,26.98,-1.00,-1.0,2448
660,2135660,17044,204,1344,17098.12,26.98,-1.00,-1.0,2361
665,2135665,16964,568,1416,17032.47,26.98,-1.00,-1.0,2470
668,2135668,17044,644,1416,17114.84,27.02,-1.00,-1.0,2365
670,2135670,16904,756,1416,16980.04,26.93,-1.00,-1.0,2436
673,2135673,17012,1112,1576,17120.99,26.84,-1.00,-1.0,2365
676,2135676,16920,504,1464,16990.70,27.02,-1.00,-1.0,2365
679,2135679,17132,100,1484,17196.44,26.88,-1.00,-1.0,2440
681,2135681,17132,-20,1444,17192.76,26.84,-1.00,-1.0,2362
684,2135684,17208,432,1572,17285.05,26.84,-1.00,-1.0,2448
687,2135687,17192,556,1584,17273.77,26.98,-1.00,-1.0,2366
692,2135692,17032,468,1536,17107.52,26.88,-1.00,-1.0,2449
695,2135695,16916,520,1504,16990.69,26.88,-1.00,-1.0,2373
698,2135698,16868,556,1400,16935.13,26.98,-1.00,-1.0,2434
700,2135700,16868,304,1276,16918.92,26.88,-1.00,-1.0,2364
703,2135703,16848,220,1376,16905.53,26.98,-1.00,-1.0,2435
706,2135706,17004,580,1416,17072.71,26.88,-1.00,-1.0,2364
708,2135708,17000,488,1344,17060.03,26.88,-1.00,-1.0,2361
711,2135711,17112,132,1472,17175.70,26.84,-1.00,-1.0,2446
714,2135714,17212,-156,1356,17266.04,26.93,-1.00,-1.0,2367
719,2135719,17212,-96,1364,17266.23,26.98,-1.00,-1.0,2448
722,2135722,17008,32,1400,17065.55,26.98,-1.00,-1.0,2369
725,2135725,16924,104,1468,16987.87,26.93,-1.00,-1.0,2446
727,2135727,16960,348,1380,17019.61,26.98,-1.00,-1.0,2359
730,2135730,16940,620,1164,16991.26,26.84,-1.00,-1.0,2446
733,2135733,16964,632,1220,17019.55,26.88,-1.00,-1.0,2366
736,2135736,17024,368,1232,17072.49,26.98,-1.00,-1.0,2440
738,2135738,16916,8,1116,16952.78,26.79,-1.00,-1.0,2359
741,2135741,17052,124,1284,17100.72,26.84,-1.00,-1.0,2365
746,2135746,17080,400,1296,17133.77,26.93,-1.00,-1.0,2464
749,2135749,17080,256,1576,17154.47,26.79,-1.00,-1.0,2367
752,2135752,17116,64,1460,17178.28,26.84,-1.00,-1.0,2452
754,2135754,17052,-56,1632,17130.01,26.93,-1.00,-1.0,2371
757,2135757,17016,-48,1636,17094.53,26.84,-1.00,-1.0,2434
760,2135760,16924,-228,1632,17004.04,26.88,-1.00,-1.0,2365
763,2135763,17112,-80,1400,17169.36,26.93,-1.00,-1.0,2454
765,2135765,17100,200,1324,17152.35,26.84,-1.00,-1.0,2365
770,2135770,16888,532,1352,16950.38,26.88,-1.00,-1.0,2450
773,2135773,16832,376,1196,16878.63,26.98,-1.00,-1.0,2359
776,2135776,16948,296,1380,17006.67,26.93,-1.00,-1.0,2362
778,2135778,16888,336,1312,16942.22,27.02,-1.00,-1.0,2445
781,2135781,16912,392,1296,16966.11,26.93,-1.00,-1.0,2373
784,2135784,16924,456,1376,16985.97,26.93,-1.00,-1.0,2447
786,2135786,17040,164,1520,17108.45,26.93,-1.00,-1.0,2358
789,2135789,17192,20,1572,17263.73,26.84,-1.00,-1.0,2454
792,2135792,17068,8,1512,17134.84,26.88,-1.00,-1.0,2359
797,2135797,17004,-48,1488,17069.05,26.93,-1.00,-1.0,2455
800,2135800,17048,-44,1500,17113.92,26.93,-1.00,-1.0,2362
802,2135802,17096,100,1600,17171.00,26.98,-1.00,-1.0,2364
805,2135805,17028,356,1380,17087.54,26.88,-1.00,-1.0,2435
808,2135808,16964,580,1496,17039.71,26.88,-1.00,-1.0,2367
811,2135811,16956,740,1376,17027.83,26.98,-1.00,-1.0,2438
813,2135813,16952,612,1512,17030.30,26.98,-1.00,-1.0,2361
816,2135816,17032,364,1488,17100.75,26.84,-1.00,-1.0,2442
819,2135819,17064,484,1616,17147.18,26.98,-1.00,-1.0,2359
824,2135824,17080,524,1524,17155.86,26.88,-1.00,-1.0,2448
827,2135827,17132,560,1584,17214.18,26.88,-1.00,-1.0,2359
830,2135830,17068,224,1400,17126.79,26.88,-1.00,-1.0,2436
832,2135832,16984,216,1264,17032.34,27.07,-1.00,-1.0,2372
835,2135835,16936,-12,1280,16984.31,26.98,-1.00,-1.0,2356
838,2135838,17004,124,1248,17050.19,26.88,-1.00,-1.0,2445
840,2135840,16980,108,1272,17027.92,26.88,-1.00,-1.0,2358
843,2135843,17008,100,1184,17049.46,27.02,-1.00,-1.0,2441
846,2135846,16992,436,1132,17035.25,26.98,-1.00,-1.0,2360
851,2135851,16964,472,1340,17023.39,27.02,-1.00,-1.0,2447
854,2135854,16984,476,1380,17046.62,26.88,-1.00,-1.0,2371
857,2135857,16964,632,1908,17082.66,26.93,-1.00,-1.0,2435
859,2135859,16992,604,1524,17070.89,26.93,-1.00,-1.0,2365
862,2135862,17092,356,1916,17202.74,26.93,-1.00,-1.0,2434
865,2135865,17032,20,1736,17120.25,26.88,-1.00,-1.0,2364
867,2135867,17076,-60,1592,17150.16,26.93,-1.00,-1.0,2358
870,2135870,17144,-96,1444,17204.97,26.93,-1.00,-1.0,2448
873,2135873,17064,60,1428,17123.75,26.93,-1.00,-1.0,2359
878,2135878,17000,116,1072,17034.16,26.93,-1.00,-1.0,2448
881,2135881,16912,60,1000,16941.64,26.88,-1.00,-1.0,2359
884,2135884,16844,64,1100,16880.00,26.88,-1.00,-1.0,2446
886,2135886,16872,148,1020,16903.45,26.88,-1.00,-1.0,2359
889,2135889,16920,332,1348,16976.86,26.93,-1.00,-1.0,2427
892,2135892,16900,452,1432,16966.58,26.88,-1.00,-1.0,2361
894,2135894,17076,632,1604,17162.81,26.93,-1.00,-1.0,2361
897,2135897,17092,592,1708,17187.33,26.88,-1.00,-1.0,2450
900,2135900,17016,348,1632,17097.62,26.93,-1.00,-1.0,2367
905,2135905,17012,324,1816,17111.72,26.88,-1.00,-1.0,2482
908,2135908,17008,416,1868,17115.33,26.88,-1.00,-1.0,2375
911,2135911,17168,436,1628,17250.53,26.98,-1.00,-1.0,2442
914,2135914,17092,432,1468,17160.37,26.98,-1.00,-1.0,2362
916,2135916,17044,364,1396,17104.95,26.88,-1.00,-1.0,2443
919,2135919,16964,416,1388,17025.77,26.88,-1.00,-1.0,2373
922,2135922,16984,240,1236,17030.61,26.98,-1.00,-1.0,2441
925,2135925,16876,120,1000,16906.03,26.88,-1.00,-1.0,2366
927,2135927,16916,212,1184,16958.71,26.88,-1.00,-1.0,2363
932,2135932,16992,108,1300,17042.00,26.84,-1.00,-1.0,2453
935,2135935,17092,132,1300,17141.88,26.84,-1.00,-1.0,2359
938,2135938,17044,160,1492,17109.93,26.88,-1.00,-1.0,2463
941,2135941,17080,144,1592,17154.64,26.88,-1.00,-1.0,2367
943,2135943,17072,348,1708,17160.76,26.93,-1.00,-1.0,2442
946,2135946,17128,368,1748,17220.90,26.98,-1.00,-1.0,2361
949,2135949,17032,444,1792,17131.77,26.93,-1.00,-1.0,2441
952,2135952,16940,360,1600,17019.20,26.98,-1.00,-1.0,2362
957,2135957,16960,152,1308,17011.04,26.88,-1.00,-1.0,2445
959,2135959,17004,276,1284,17054.64,26.88,-1.00,-1.0,2361
962,2135962,17000,164,1340,17053.52,26.98,-1.00,-1.0,2363
965,2135965,16960,364,1368,17018.97,26.88,-1.00,-1.0,2448
967,2135967,17008,332,1340,17063.94,26.98,-1.00,-1.0,2373
970,2135970,17024,496,1432,17091.32,26.84,-1.00,-1.0,2442
973,2135973,16968,372,1260,17018.78,26.88,-1.00,-1.0,2367
976,2135976,16996,312,1332,17050.97,27.07,-1.00,-1.0,2448
978,2135978,17040,268,1460,17104.53,26.93,-1.00,-1.0,2373
983,2135983,16940,220,1368,16996.57,26.98,-1.00,-1.0,2444
986,2135986,16904,212,1372,16960.91,26.88,-1.00,-1.0,2358
989,2135989,16976,296,1280,17026.76,26.88,-1.00,-1.0,2449
991,2135991,16940,180,1400,16998.71,26.98,-1.00,-1.0,2362
994,2135994,17012,352,1220,17059.32,26.88,-1.00,-1.0,2376
997,2135997,16952,240,1288,17002.55,26.84,-1.00,-1.0,2439
1000,2136000,16988,428,1372,17048.69,26.98,-1.00,-1.0,2364
1002,2136002,17044,356,1412,17106.09,26.93,-1.00,-1.0,2439
1005,2136005,17060,504,1480,17131.49,26.93,-1.00,-1.0,2362
1010,2136010,17120,436,1452,17186.99,27.02,-1.00,-1.0,2451
1013,2136013,16940,456,1472,17009.95,26.88,-1.00,-1.0,2366
1016,2136016,17000,368,1400,17061.52,26.84,-1.00,-1.0,2450
1019,2136019,16996,360,1308,17050.06,26.98,-1.00,-1.0,2370
1021,2136021,16992,416,1348,17050.46,26.93,-1.00,-1.0,2447
1024,2136024,16964,268,1440,17027.12,26.84,-1.00,-1.0,2366
1027,2136027,16980,200,1376,17036.84,26.84,-1.00,-1.0,2447
1030,2136030,17032,148,1212,17075.71,26.88,-1.00,-1.0,2360
1032,2136032,16956,152,1320,17007.98,26.93,-1.00,-1.0,2363
1037,2136037,16948,-80,1428,17008.24,27.02,-1.00,-1.0,2451
1040,2136040,16956,-164,1640,17035.92,26.84,-1.00,-1.0,2373
1043,2136043,16992,24,1616,17068.69,26.93,-1.00,-1.0,2449
1046,2136046,17016,48,1484,17080.66,27.02,-1.00,-1.0,2369
1048,2136048,17004,300,1424,17066.16,26.84,-1.00,-1.0,2446
1051,2136051,17020,196,1608,17096.91,26.93,-1.00,-1.0,2373
1054,2136054,16948,308,1592,17025.39,27.02,-1.00,-1.0,2441
1057,2136057,17112,420,1524,17184.86,26.93,-1.00,-1.0,2370
1061,2136061,17088,512,1592,17169.63,27.02,-1.00,-1.0,2452
1064,2136064,16984,452,1548,17060.39,27.02,-1.00,-1.0,2361
1067,2136067,16964,476,1452,17032.68,26.88,-1.00,-1.0,2360
1069,2136069,16960,504,1512,17034.72,26.98,-1.00,-1.0,2437
1072,2136072,16916,356,1468,16983.31,26.88,-1.00,-1.0,2365
1075,2136075,16992,188,1404,17050.94,26.88,-1.00,-1.0,2433
1078,2136078,16972,168,1400,17030.47,26.88,-1.00,-1.0,2362
1080,2136080,16956,192,1400,17014.78,26.88,-1.00,-1.0,2433
1083,2136083,17128,172,1408,17186.63,26.98,-1.00,-1.0,2364
1088,2136088,17052,236,1480,17117.73,26.98,-1.00,-1.0,2446
1091,2136091,16924,216,1456,16987.89,26.98,-1.00,-1.0,2358
1094,2136094,17076,252,1540,17147.15,26.98,-1.00,-1.0,2450
1096,2136096,16932,376,1236,16981.22,26.88,-1.00,-1.0,2359
1099,2136099,17308,132,2212,17449.28,26.88,-1.00,-1.0,2439
1102,2136102,22068,132,7884,23434.41,26.98,-1.00,-1.0,2359
1104,2136104,19448,-4364,13836,24263.22,26.98,-1.00,-1.0,2360
1108,2136108,-228,-1936,-192,1958.81,26.93,-1.00,-1.0,2434
1110,2136110,32767,11112,-19536,39734.22,26.88,-1.00,-1.0,2351
1115,2136115,32767,-23312,-10064,41453.71,26.88,-1.00,-1.0,2443
1118,2136118,-8240,-3984,8624,12575.50,26.84,-1.00,-1.0,2359
1121,2136121,24156,6072,-7424,25990.33,26.93,-1.00,-1.0,2460
1124,2136124,9944,9868,7380,15834.30,26.93,-1.00,-1.0,2367
1127,2136127,19464,-4308,-3872,20307.60,26.98,-1.00,-1.0,2450
1129,2136129,21136,15868,1636,26480.19,27.02,-1.00,-1.0,2362
1132,2136132,1384,18912,3740,19327.88,26.98,-1.00,-1.0,2453
1135,2136135,26548,-3520,3464,27003.44,26.93,-1.00,-1.0,2365
1140,2136140,29992,-8532,-1404,31213.56,27.02,-1.00,-1.0,2445
1142,2136142,10932,19572,4236,22814.81,26.98,-1.00,-1.0,2359
1145,2136145,25624,-1416,288,25664.71,26.93,-1.00,-1.0,2446
1148,2136148,10148,-5912,2056,11923.12,26.93,-1.00,-1.0,2360
1151,2136151,23688,-5456,4072,24646.92,27.02,-1.00,-1.0,2440
1153,2136153,11100,600,-2676,11433.76,26.88,-1.00,-1.0,2359
1156,2136156,19028,-4340,4128,19948.45,26.93,-1.00,-1.0,2439
1159,2136159,11284,-9268,1636,14693.57,26.88,-1.00,-1.0,2359
1164,2136164,11512,13648,5736,18753.55,26.88,-1.00,-1.0,2444
1167,2136167,21872,-1872,256,21953.46,26.88,-1.00,-1.0,2364
1169,2136169,12000,-3372,3440,12930.74,26.88,-1.00,-1.0,2355
1172,2136172,17984,1024,1412,18068.39,26.93,-1.00,-1.0,2443
1175,2136175,13988,7368,972,15839.71,26.84,-1.00,-1.0,2368
1177,2136177,20796,-2680,3040,21187.20,26.88,-1.00,-1.0,2432
1180,2136180,15496,-7076,-456,17041.24,26.98,-1.00,-1.0,2364
1183,2136183,21024,2064,1060,21151.65,26.93,-1.00,-1.0,2433
1186,2136186,13352,4396,2612,14297.67,26.88,-1.00,-1.0,2364
1191,2136191,13300,-5532,648,14419.19,26.98,-1.00,-1.0,2447
1193,2136193,20260,-6052,-1152,21175.96,26.98,-1.00,-1.0,2367
1196,2136196,13832,1552,3136,14267.71,26.98,-1.00,-1.0,2452
1199,2136199,22680,536,1644,22745.82,27.07,-1.00,-1.0,2347
1202,2136202,9844,3332,2932,10798.30,26.88,-1.00,-1.0,2448
1204,2136204,24580,-212,712,24591.22,26.98,-1.00,-1.0,2359
1207,2136207,13160,2844,72,13463.99,26.88,-1.00,-1.0,2448
1210,2136210,20972,1572,604,21039.51,26.98,-1.00,-1.0,2367
1215,2136215,16516,252,-36,16517.96,26.98,-1.00,-1.0,2447
1217,2136217,16416,-700,-116,16431.33,26.93,-1.00,-1.0,2359
1220,2136220,15060,1872,1732,15274.42,26.88,-1.00,-1.0,2368
1223,2136223,16852,-1024,1908,16990.55,26.98,-1.00,-1.0,2452
1226,2136226,18644,136,1192,18682.56,26.88,-1.00,-1.0,2365
1228,2136228,16472,1684,1648,16639.67,26.88,-1.00,-1.0,2450
1231,2136231,18704,-1060,1076,18764.89,26.88,-1.00,-1.0,2366
1234,2136234,15800,-4088,1816,16421.01,26.98,-1.00,-1.0,2442
1237,2136237,18860,-1808,1532,19008.30,26.98,-1.00,-1.0,2361
1242,2136242,17620,5824,3264,18842.43,26.88,-1.00,-1.0,2447
1244,2136244,16636,1752,1756,16819.91,26.88,-1.00,-1.0,2361
1247,2136247,14884,-1764,792,15009.08,26.88,-1.00,-1.0,2456
1250,2136250,17820,-3576,176,18176.12,26.98,-1.00,-1.0,2367
1253,2136253,16204,4016,684,16708.25,26.98,-1.00,-1.0,2447
1255,2136255,17424,4156,1616,17985.54,26.98,-1.00,-1.0,2365
1258,2136258,15452,-1124,1612,15576.46,26.93,-1.00,-1.0,2452
1261,2136261,18148,-5912,-288,19088.86,26.88,-1.00,-1.0,2366
1264,2136264,17400,2476,1004,17603.94,27.02,-1.00,-1.0,2361
1268,2136268,16888,-3532,764,17270.30,27.02,-1.00,-1.0,2443
1271,2136271,16468,-7968,1068,18325.52,26.93,-1.00,-1.0,2360
1274,2136274,15176,-2080,3032,15615.07,26.93,-1.00,-1.0,2442
1277,2136277,18768,7388,2672,20346.01,26.93,-1.00,-1.0,2362
1279,2136279,16368,3656,1976,16887.34,26.93,-1.00,-1.0,2433
1282,2136282,18300,-4352,196,18811.39,26.93,-1.00,-1.0,2364
1285,2136285,15988,-3304,660,16339.16,26.84,-1.00,-1.0,2432
1288,2136288,17080,3328,1288,17448.81,26.93,-1.00,-1.0,2362
1293,2136293,16564,1172,1624,16684.63,26.84,-1.00,-1.0,2446
1295,2136295,16960,-2152,1712,17181.49,26.98,-1.00,-1.0,2367
1298,2136298,16520,-564,412,16534.76,26.93,-1.00,-1.0,2451
1301,2136301,17636,980,1004,17691.72,26.93,-1.00,-1.0,2359
1304,2136304,17184,2572,2360,17534.96,26.93,-1.00,-1.0,2449
1306,2136306,17288,-4,1392,17343.95,26.88,-1.00,-1.0,2369
1309,2136309,17420,-2920,1388,17717.49,26.84,-1.00,-1.0,2447
1312,2136312,17276,-1920,1556,17451.87,26.93,-1.00,-1.0,2346
1315,2136315,16776,1020,2252,16957.18,26.88,-1.00,-1.0,2359
1320,2136320,17044,436,1464,17112.31,27.02,-1.00,-1.0,2445
1322,2136322,17228,1056,1640,17338.07,26.84,-1.00,-1.0,2366
1325,2136325,16260,1192,1372,16361.26,27.02,-1.00,-1.0,2449
1328,2136328,16820,-656,656,16845.56,27.02,-1.00,-1.0,2358
1331,2136331,16872,-1172,832,16933.11,26.93,-1.00,-1.0,2451
1333,2136333,16800,2064,1632,17004.81,26.93,-1.00,-1.0,2367
1336,2136336,16772,2972,912,17057.68,26.93,-1.00,-1.0,2446
1339,2136339,16860,920,912,16909.69,26.93,-1.00,-1.0,2361
1344,2136344,16720,-1064,1520,16822.63,27.02,-1.00,-1.0,2452
1346,2136346,17696,704,1560,17778.57,26.98,-1.00,-1.0,2362
1349,2136349,17564,-364,1812,17660.97,26.88,-1.00,-1.0,2449
1352,2136352,18068,-1884,2296,18310.48,26.88,-1.00,-1.0,2358
1355,2136355,16844,-1720,2920,17181.54,26.93,-1.00,-1.0,2446
1357,2136357,17272,-172,2392,17437.70,26.79,-1.00,-1.0,2359
1360,2136360,17124,-192,1908,17231.04,26.93,-1.00,-1.0,2368
1363,2136363,17148,-52,1532,17216.38,26.93,-1.00,-1.0,2440
1366,2136366,16548,200,988,16578.67,26.98,-1.00,-1.0,2363
1371,2136371,16056,2408,948,16263.22,26.88,-1.00,-1.0,2447
1373,2136373,17436,2448,936,17631.87,26.98,-1.00,-1.0,2361
1376,2136376,16068,1680,1448,16220.35,26.98,-1.00,-1.0,2443
1379,2136379,17056,256,984,17086.28,26.98,-1.00,-1.0,2359
1382,2136382,16628,-712,1292,16693.31,26.79,-1.00,-1.0,2439
1384,2136384,17080,-276,1504,17148.31,26.98,-1.00,-1.0,2362
1387,2136387,17092,-540,1560,17171.54,26.98,-1.00,-1.0,2439
1390,2136390,17612,-912,1576,17705.88,26.88,-1.00,-1.0,2362
1395,2136395,17176,-224,2236,17322.38,26.93,-1.00,-1.0,2451
1397,2136397,16692,-292,1616,16772.58,26.93,-1.00,-1.0,2359
1400,2136400,16956,-840,984,17005.29,26.93,-1.00,-1.0,2457
1403,2136403,16664,300,1212,16710.71,27.02,-1.00,-1.0,2366
1406,2136406,16944,1784,1140,17075.75,26.98,-1.00,-1.0,2363
1408,2136408,16572,1836,1048,16706.30,26.88,-1.00,-1.0,2436
1411,2136411,17492,692,744,17521.49,26.88,-1.00,-1.0,2372
1414,2136414,17064,1428,1296,17172.62,26.98,-1.00,-1.0,2438
1417,2136417,17340,2492,1396,17573.69,26.84,-1.00,-1.0,2364
1422,2136422,16944,-172,1592,17019.49,26.93,-1.00,-1.0,2452
1424,2136424,17000,-696,1468,17077.46,26.98,-1.00,-1.0,2359
1427,2136427,17236,500,1300,17292.19,26.98,-1.00,-1.0,2444
1430,2136430,16996,472,1376,17058.14,26.98,-1.00,-1.0,2358
1433,2136433,17088,-1008,1544,17187.20,26.93,-1.00,-1.0,2446
1435,2136435,16708,-1388,1468,16829.70,26.98,-1.00,-1.0,2359
1438,2136438,17156,-388,1248,17205.71,26.88,-1.00,-1.0,2439
1441,2136441,16980,616,1380,17047.12,26.88,-1.00,-1.0,2360
1446,2136446,17028,928,1324,17104.59,26.98,-1.00,-1.0,2447
1449,2136449,17136,256,1308,17187.75,26.98,-1.00,-1.0,2366
1451,2136451,16864,464,1564,16942.72,26.88,-1.00,-1.0,2363
1454,2136454,16960,1456,1560,17093.72,26.98,-1.00,-1.0,2436
1457,2136457,16992,1832,1536,17159.36,26.88,-1.00,-1.0,2366
1459,2136459,16788,480,1320,16846.65,26.98,-1.00,-1.0,2433
1462,2136462,17020,-516,1140,17065.94,26.98,-1.00,-1.0,2352
1465,2136465,16812,56,1664,16894.24,26.98,-1.00,-1.0,2439
1468,2136468,16940,600,1920,17059.02,26.98,-1.00,-1.0,2345
1473,2136473,17100,-1008,1492,17194.54,26.98,-1.00,-1.0,2447
1475,2136475,17116,-244,1316,17168.25,26.88,-1.00,-1.0,2370
1478,2136478,17192,528,1144,17238.11,26.98,-1.00,-1.0,2449
1481,2136481,17256,276,1156,17296.88,26.88,-1.00,-1.0,2362
1484,2136484,17140,-200,1252,17186.83,26.88,-1.00,-1.0,2448
1486,2136486,16740,748,1312,16807.99,26.79,-1.00,-1.0,2368
1489,2136489,16796,1944,1276,16956.21,26.88,-1.00,-1.0,2362
1492,2136492,16752,1960,1316,16917.53,26.93,-1.00,-1.0,2436
1495,2136495,16736,1264,1240,16829.41,26.88,-1.00,-1.0,2350
1500,2136500,16988,-420,1628,17071.00,26.88,-1.00,-1.0,2451
1502,2136502,17212,-768,1700,17312.79,26.88,-1.00,-1.0,2370
1505,2136505,17236,-200,1908,17342.44,26.98,-1.00,-1.0,2450
1508,2136508,17428,-148,1748,17516.07,26.88,-1.00,-1.0,2358
1511,2136511,17132,44,1784,17224.69,26.93,-1.00,-1.0,2448
1513,2136513,17108,-296,1760,17200.84,26.88,-1.00,-1.0,2368
1516,2136516,16936,-552,1608,17021.12,26.88,-1.00,-1.0,2445
1519,2136519,16736,24,1556,16808.20,26.93,-1.00,-1.0,2360
1524,2136524,16964,972,1140,17030.02,26.88,-1.00,-1.0,2434
1527,2136527,17000,1568,960,17099.13,26.98,-1.00,-1.0,2369
1529,2136529,16988,1556,1016,17089.34,26.84,-1.00,-1.0,2453
1532,2136532,16852,960,1112,16915.91,26.88,-1.00,-1.0,2374
1535,2136535,16996,344,1420,17058.69,26.93,-1.00,-1.0,2360
1537,2136537,17040,-124,1412,17098.85,26.93,-1.00,-1.0,2434
1540,2136540,17032,-236,1564,17105.29,26.98,-1.00,-1.0,2366
1543,2136543,16976,-568,1692,17069.57,26.93,-1.00,-1.0,2432
1546,2136546,17184,-348,1676,17269.04,26.93,-1.00,-1.0,2362
1551,2136551,17112,632,1636,17201.64,26.93,-1.00,-1.0,2446
1554,2136554,17080,88,1616,17156.50,26.93,-1.00,-1.0,2366
1556,2136556,16848,-1000,1180,16918.85,26.93,-1.00,-1.0,2444
1559,2136559,16996,-208,976,17025.27,26.88,-1.00,-1.0,2365
1562,2136562,17036,1636,1428,17173.85,26.84,-1.00,-1.0,2441
1565,2136565,17072,2156,1512,17273.90,26.93,-1.00,-1.0,2363
1567,2136567,16956,792,1500,17040.63,27.02,-1.00,-1.0,2440
1570,2136570,16932,-516,1520,17007.92,26.88,-1.00,-1.0,2372
1573,2136573,16984,244,1624,17063.21,27.02,-1.00,-1.0,2362
1578,2136578,17228,540,1608,17311.30,26.93,-1.00,-1.0,2445
1581,2136581,17100,-68,1776,17192.12,26.93,-1.00,-1.0,2366
1583,2136583,16940,-456,1616,17023.01,26.93,-1.00,-1.0,2436
1586,2136586,16940,520,1688,17031.83,26.84,-1.00,-1.0,2363
1589,2136589,16952,1040,1600,17059.07,26.93,-1.00,-1.0,2439
1592,2136592,16872,648,1496,16950.58,26.93,-1.00,-1.0,2364
1594,2136594,16988,-648,1068,17033.87,26.93,-1.00,-1.0,2434
1597,2136597,16976,-784,1112,17030.44,26.93,-1.00,-1.0,2371
1602,2136602,16936,980,1296,17013.76,27.02,-1.00,-1.0,2459
1605,2136605,17008,720,1312,17073.72,26.84,-1.00,-1.0,2365
1608,2136608,16964,152,1320,17015.96,26.93,-1.00,-1.0,2452
1610,2136610,16960,108,1172,17000.79,26.93,-1.00,-1.0,2366
1613,2136613,16852,632,1532,16933.29,27.02,-1.00,-1.0,2434
1616,2136616,16888,592,1640,16977.77,26.93,-1.00,-1.0,2364
1618,2136618,16748,4,1480,16813.27,26.93,-1.00,-1.0,2368
1621,2136621,17028,-508,1464,17098.37,27.07,-1.00,-1.0,2434
1624,2136624,17104,400,1464,17171.20,26.98,-1.00,-1.0,2363
1629,2136629,17288,908,1392,17367.70,26.88,-1.00,-1.0,2444
1632,2136632,17208,168,1276,17256.06,26.88,-1.00,-1.0,2365
1634,2136634,17164,-232,1116,17201.81,26.98,-1.00,-1.0,2438
1637,2136637,16932,380,1056,16969.15,26.98,-1.00,-1.0,2364
1640,2136640,16916,664,1220,16972.93,26.88,-1.00,-1.0,2435
1643,2136643,16856,132,1076,16890.82,26.98,-1.00,-1.0,2362
1645,2136645,16784,-424,1196,16831.90,26.88,-1.00,-1.0,2435
1648,2136648,16836,-8,1468,16899.88,26.88,-1.00,-1.0,2363
1653,2136653,17136,492,1668,17224.02,26.84,-1.00,-1.0,2452
1656,2136656,17228,-212,1648,17307.94,27.02,-1.00,-1.0,2359
1658,2136658,17172,-596,1424,17241.25,26.88,-1.00,-1.0,2363
1661,2136661,17196,-416,1548,17270.55,26.88,-1.00,-1.0,2438
1664,2136664,17028,120,1348,17081.70,26.88,-1.00,-1.0,2364
1667,2136667,16932,416,1316,16988.16,26.88,-1.00,-1.0,2439
1669,2136669,16852,392,1408,16915.26,26.98,-1.00,-1.0,2365
1672,2136672,16864,428,1376,16925.46,26.98,-1.00,-1.0,2440
1675,2136675,16976,496,1280,17031.41,26.93,-1.00,-1.0,2366
1680,2136680,17064,468,1492,17135.49,26.98,-1.00,-1.0,2463
1683,2136683,17092,272,1372,17149.13,26.88,-1.00,-1.0,2364
1685,2136685,17060,-172,1296,17110.02,26.88,-1.00,-1.0,2436
1688,2136688,16928,-560,1536,17006.77,26.88,-1.00,-1.0,2363
1691,2136691,17052,-300,1584,17128.04,26.98,-1.00,-1.0,2421
1694,2136694,17132,116,1768,17223.38,26.98,-1.00,-1.0,2363
1696,2136696,16976,764,1732,17081.22,26.98,-1.00,-1.0,2355
1699,2136699,17012,468,1484,17083.02,26.98,-1.00,-1.0,2448
1702,2136702,17136,200,1308,17187.01,26.93,-1.00,-1.0,2373
1707,2136707,16936,676,1100,16985.14,26.98,-1.00,-1.0,2459
1710,2136710,16896,700,1284,16959.17,27.02,-1.00,-1.0,2363
1713,2136713,17000,796,1484,17083.21,26.88,-1.00,-1.0,2452
1715,2136715,16964,1064,1452,17059.24,26.93,-1.00,-1.0,2358
1718,2136718,16988,900,1632,17089.93,27.07,-1.00,-1.0,2450
1721,2136721,17044,256,1608,17121.60,26.93,-1.00,-1.0,2365
1724,2136724,17192,-124,1652,17271.63,26.98,-1.00,-1.0,2448
1726,2136726,17184,296,1788,17279.31,26.93,-1.00,-1.0,2362
1731,2136731,17124,576,1744,17222.21,27.02,-1.00,-1.0,2446
1734,2136734,17036,500,1628,17120.91,26.98,-1.00,-1.0,2357
1736,2136736,17052,416,1664,17138.05,26.93,-1.00,-1.0,2360
1739,2136739,16876,804,1372,16950.76,26.88,-1.00,-1.0,2453
1742,2136742,16880,764,1356,16951.60,26.93,-1.00,-1.0,2371
1745,2136745,16808,388,1076,16846.88,26.88,-1.00,-1.0,2447
1748,2136748,16776,476,1396,16840.71,26.88,-1.00,-1.0,2422
1751,2136751,16948,652,1372,17015.94,26.84,-1.00,-1.0,2437
1753,2136753,17112,524,1156,17159.01,26.84,-1.00,-1.0,2370
1758,2136758,17184,-224,1196,17227.03,26.93,-1.00,-1.0,2440
1761,2136761,17128,-256,1328,17181.31,26.88,-1.00,-1.0,2353
1764,2136764,17048,8,1408,17106.05,26.84,-1.00,-1.0,2443
1766,2136766,16972,48,1528,17040.71,26.88,-1.00,-1.0,2367
1769,2136769,16912,308,1412,16973.64,27.02,-1.00,-1.0,2435
1772,2136772,16892,496,1472,16963.27,26.98,-1.00,-1.0,2367
1774,2136774,16876,724,1300,16941.47,26.93,-1.00,-1.0,2360
1777,2136777,17088,668,1248,17146.53,26.84,-1.00,-1.0,2438
1780,2136780,16948,300,1224,16994.79,26.93,-1.00,-1.0,2365
1785,2136785,17072,192,1304,17122.80,26.88,-1.00,-1.0,2448
1788,2136788,17036,572,1340,17098.19,26.98,-1.00,-1.0,2372
1791,2136791,17076,504,1540,17152.71,26.93,-1.00,-1.0,2451
1793,2136793,17156,292,1560,17229.25,26.98,-1.00,-1.0,2374
1796,2136796,17084,92,1564,17155.69,27.02,-1.00,-1.0,2442
1799,2136799,16984,8,1612,17060.33,26.88,-1.00,-1.0,2367
1802,2136802,16908,-160,1556,16980.20,26.93,-1.00,-1.0,2448
1804,2136804,16896,-140,1548,16967.34,26.98,-1.00,-1.0,2375
1809,2136809,17000,236,1432,17061.84,26.88,-1.00,-1.0,2441
1812,2136812,17072,344,1344,17128.28,26.98,-1.00,-1.0,2364
1815,2136815,16992,504,1364,17054.11,26.88,-1.00,-1.0,2367
1817,2136817,16980,296,1352,17036.31,26.93,-1.00,-1.0,2441
1820,2136820,16836,196,1132,16875.15,26.98,-1.00,-1.0,2380
1823,2136823,16972,276,1444,17035.55,27.07,-1.00,-1.0,2434
1826,2136826,16988,408,1432,17053.13,26.88,-1.00,-1.0,2374
1828,2136828,16944,272,1416,17005.24,26.84,-1.00,-1.0,2439
1831,2136831,17000,112,1448,17061.92,26.93,-1.00,-1.0,2365
1836,2136836,17124,-176,1500,17190.47,26.93,-1.00,-1.0,2439
1839,2136839,17100,-236,1536,17170.47,26.98,-1.00,-1.0,2352
1842,2136842,17148,-52,1452,17209.44,26.93,-1.00,-1.0,2449
1844,2136844,17024,12,1472,17087.53,26.93,-1.00,-1.0,2374
1847,2136847,17056,116,1444,17117.41,26.93,-1.00,-1.0,2435
1850,2136850,16924,304,1344,16980.00,26.98,-1.00,-1.0,2365
1852,2136852,16928,512,1424,16995.50,26.93,-1.00,-1.0,2360
1855,2136855,16956,680,1324,17021.20,27.07,-1.00,-1.0,2439
1858,2136858,17004,492,1472,17074.69,26.98,-1.00,-1.0,2366
1863,2136863,16912,468,1644,16998.16,26.93,-1.00,-1.0,2440
1866,2136866,17068,480,1720,17161.16,26.93,-1.00,-1.0,2368
1869,2136869,17072,452,1684,17160.81,26.98,-1.00,-1.0,2435
1871,2136871,17116,440,1632,17199.26,26.93,-1.00,-1.0,2360
1874,2136874,16968,320,1572,17043.67,26.93,-1.00,-1.0,2435
1877,2136877,16972,212,1608,17049.32,26.93,-1.00,-1.0,2366
1880,2136880,16972,124,1556,17043.63,26.84,-1.00,-1.0,2431
1882,2136882,17028,68,1464,17090.95,26.93,-1.00,-1.0,2374
1887,2136887,17072,160,1208,17115.43,26.98,-1.00,-1.0,2440
1890,2136890,16900,296,1088,16937.57,27.02,-1.00,-1.0,2367
1892,2136892,17032,540,1316,17091.30,26.98,-1.00,-1.0,2359
1895,2136895,16928,496,1468,16998.77,26.88,-1.00,-1.0,2440
1898,2136898,16936,512,1528,17012.50,26.88,-1.00,-1.0,2364
1901,2136901,17020,512,1668,17109.20,26.98,-1.00,-1.0,2441
1903,2136903,16920,544,1728,17016.71,26.98,-1.00,-1.0,2365
1906,2136906,17060,280,1744,17151.20,26.84,-1.00,-1.0,2448
1909,2136909,17132,160,1656,17212.59,26.98,-1.00,-1.0,2366
1914,2136914,17140,-16,1452,17201.40,26.84,-1.00,-1.0,2455
1917,2136917,17044,48,1412,17102.46,26.98,-1.00,-1.0,2372
1920,2136920,16976,108,1184,17017.58,26.93,-1.00,-1.0,2450
1922,2136922,17040,124,1028,17071.43,26.93,-1.00,-1.0,2372
1925,2136925,16868,124,1184,16909.96,26.93,-1.00,-1.0,2363
1928,2136928,16820,116,1040,16852.52,26.98,-1.00,-1.0,2435
1930,2136930,17036,80,1096,17071.41,27.02,-1.00,-1.0,2367
1933,2136933,17072,412,1152,17115.78,26.93,-1.00,-1.0,2445
1936,2136936,17076,564,1416,17143.89,26.93,-1.00,-1.0,2373
1941,2136941,17180,576,1660,17269.62,26.84,-1.00,-1.0,2442
1944,2136944,17080,324,1636,17161.23,26.93,-1.00,-1.0,2365
1947,2136947,17084,256,1884,17189.47,26.93,-1.00,-1.0,2444
1949,2136949,17060,280,1576,17134.93,26.93,-1.00,-1.0,2367
1952,2136952,17048,412,1556,17123.82,26.93,-1.00,-1.0,2443
1955,2136955,16968,320,1580,17044.41,26.84,-1.00,-1.0,2365
1958,2136958,16984,384,1472,17051.99,27.02,-1.00,-1.0,2442
1960,2136960,17004,348,1228,17051.84,26.98,-1.00,-1.0,2366
1963,2136963,16944,288,1252,16992.63,26.93,-1.00,-1.0,2370
1968,2136968,16980,216,1212,17024.57,26.93,-1.00,-1.0,2454
1971,2136971,16976,276,1168,17018.37,26.84,-1.00,-1.0,2373
1974,2136974,17028,100,1264,17075.14,26.93,-1.00,-1.0,2441
1977,2136977,17044,80,1436,17104.57,26.93,-1.00,-1.0,2366
1979,2136979,17092,136,1276,17140.10,26.98,-1.00,-1.0,2448
1982,2136982,17008,52,1528,17076.58,27.02,-1.00,-1.0,2371
1985,2136985,17028,168,1512,17095.82,26.98,-1.00,-1.0,2442
1988,2136988,17024,328,1608,17102.92,26.84,-1.00,-1.0,2366
1992,2136992,16980,548,1536,17058.14,26.93,-1.00,-1.0,2441
1995,2136995,17056,488,1480,17127.04,26.93,-1.00,-1.0,2367
1998,2136998,16900,256,1328,16954.03,26.93,-1.00,-1.0,2438
2001,2137001,16932,192,1528,17001.89,26.88,-1.00,-1.0,2365
2003,2137003,16984,124,1292,17033.52,26.93,-1.00,-1.0,2364
2006,2137006,16904,204,1360,16959.85,26.98,-1.00,-1.0,2449
2009,2137009,17108,176,1392,17165.44,26.93,-1.00,-1.0,2371
2012,2137012,16864,340,1436,16928.44,26.88,-1.00,-1.0,2447
2014,2137014,17100,324,1524,17170.83,26.98,-1.00,-1.0,2368
2019,2137019,17132,440,1528,17205.63,26.98,-1.00,-1.0,2451
2022,2137022,17052,384,1408,17114.34,26.88,-1.00,-1.0,2380
2025,2137025,17004,484,1420,17070.05,26.79,-1.00,-1.0,2437
2028,2137028,17068,468,1516,17141.58,26.88,-1.00,-1.0,2372
2030,2137030,17096,428,1376,17156.62,26.88,-1.00,-1.0,2424
2033,2137033,17004,264,1440,17066.91,26.93,-1.00,-1.0,2409
2036,2137036,16960,320,1376,17018.74,26.88,-1.00,-1.0,2453
2039,2137039,16984,356,1308,17038.01,27.02,-1.00,-1.0,2378
2041,2137041,16996,480,1444,17063.98,26.98,-1.00,-1.0,2362
2046,2137046,16992,380,1264,17043.19,26.88,-1.00,-1.0,2445
2049,2137049,17072,384,1436,17136.59,26.88,-1.00,-1.0,2369
2052,2137052,17152,444,1424,17216.74,26.93,-1.00,-1.0,2438
2055,2137055,17120,440,1500,17191.22,26.88,-1.00,-1.0,2365
2057,2137057,17040,224,1532,17110.20,26.93,-1.00,-1.0,2437
2060,2137060,17036,440,1504,17107.92,26.98,-1.00,-1.0,2369
2063,2137063,17072,540,1424,17139.79,26.93,-1.00,-1.0,2436
2066,2137066,17024,468,1388,17086.90,26.88,-1.00,-1.0,2369
2071,2137071,16976,392,1420,17039.79,27.07,-1.00,-1.0,2446
2073,2137073,17056,180,1368,17111.72,26.79,-1.00,-1.0,2373
2076,2137076,16992,244,1504,17060.18,26.88,-1.00,-1.0,2448
2079,2137079,16984,64,1364,17038.80,26.98,-1.00,-1.0,2373
2081,2137081,16992,20,1392,17048.93,26.93,-1.00,-1.0,2368
2084,2137084,16860,44,1432,16920.76,26.93,-1.00,-1.0,2437
2087,2137087,17068,28,1544,17137.72,26.98,-1.00,-1.0,2368
2090,2137090,17016,24,1400,17073.51,26.98,-1.00,-1.0,2430
2092,2137092,16900,60,1640,16979.49,26.93,-1.00,-1.0,2366
2097,2137097,17000,264,1524,17070.22,26.88,-1.00,-1.0,2442
2100,2137100,17076,272,1504,17144.26,27.07,-1.00,-1.0,2367
2103,2137103,17020,356,1648,17103.30,26.88,-1.00,-1.0,2445
2105,2137105,17080,516,1536,17156.69,26.88,-1.00,-1.0,2365
2108,2137108,17088,580,1628,17175.17,26.88,-1.00,-1.0,2442
2111,2137111,17044,548,1720,17139.33,26.98,-1.00,-1.0,2367
2114,2137114,17100,416,1560,17176.05,26.98,-1.00,-1.0,2366
2117,2137117,16924,324,1580,17000.68,26.98,-1.00,-1.0,2435
2119,2137119,17072,168,1456,17134.80,26.88,-1.00,-1.0,2367
2124,2137124,17004,180,1620,17081.94,26.88,-1.00,-1.0,2442
2127,2137127,17124,228,1392,17182.00,26.93,-1.00,-1.0,2365
2130,2137130,17064,296,1504,17132.71,26.98,-1.00,-1.0,2439
2133,2137133,17008,284,1428,17070.21,26.84,-1.00,-1.0,2368
2135,2137135,17088,160,1444,17149.65,26.88,-1.00,-1.0,2435
2138,2137138,17120,240,1296,17170.66,27.02,-1.00,-1.0,2366
2141,2137141,17016,304,1228,17062.96,26.88,-1.00,-1.0,2436
2144,2137144,16972,400,1300,17026.41,26.93,-1.00,-1.0,2367
2149,2137149,16880,492,1304,16937.44,26.93,-1.00,-1.0,2448
2151,2137151,16912,444,1140,16956.19,27.02,-1.00,-1.0,2376
2154,2137154,16972,456,1452,17040.10,26.93,-1.00,-1.0,2359
2157,2137157,16948,412,1436,17013.72,26.98,-1.00,-1.0,2445
2159,2137159,17088,200,1316,17139.77,26.93,-1.00,-1.0,2366
2162,2137162,17000,220,1420,17060.62,26.98,-1.00,-1.0,2436
2165,2137165,16992,160,1520,17060.60,26.93,-1.00,-1.0,2366
2168,2137168,17072,148,1480,17136.67,26.98,-1.00,-1.0,2434
2171,2137171,17076,140,1416,17135.18,26.88,-1.00,-1.0,2367
2175,2137175,17040,316,1360,17097.11,26.98,-1.00,-1.0,2441
2178,2137178,17000,372,1304,17054.00,26.98,-1.00,-1.0,2366
2181,2137181,16948,172,1100,16984.53,26.98,-1.00,-1.0,2439
2184,2137184,17044,288,1296,17095.63,26.88,-1.00,-1.0,2367
2186,2137186,16972,312,1100,17010.47,26.98,-1.00,-1.0,2436
2189,2137189,17120,296,1564,17193.84,26.98,-1.00,-1.0,2366
2192,2137192,19968,-540,11432,23015.28,26.88,-1.00,-1.0,2356
2195,2137195,11480,1380,2896,11919.80,26.93,-1.00,-1.0,2447
2198,2137198,5064,-3948,14208,15591.60,27.02,-1.00,-1.0,2373
2203,2137203,17228,9128,10388,22091.51,26.88,-1.00,-1.0,2441
2205,2137205,848,-15328,-4176,15909.29,26.98,-1.00,-1.0,2369
2208,2137208,22956,-18848,-5532,30213.04,27.02,-1.00,-1.0,2445
2211,2137211,14096,3976,-3720,15111.06,26.88,-1.00,-1.0,2375
2214,2137214,15864,13404,4040,21157.87,26.88,-1.00,-1.0,2435
2216,2137216,1076,-3996,4932,6438.20,26.88,-1.00,-1.0,2368
2219,2137219,32767,2704,-1428,32909.38,26.93,-1.00,-1.0,2436
2222,2137222,4384,19536,9788,22286.31,26.93,-1.00,-1.0,2410
2227,2137227,7296,-15336,460,16989.29,26.88,-1.00,-1.0,2450
2230,2137230,24500,-9080,-2364,26235.18,27.02,-1.00,-1.0,2365
2232,2137232,15088,16900,1068,22680.35,26.88,-1.00,-1.0,2437
2235,2137235,18088,9800,6312,21518.76,27.02,-1.00,-1.0,2355
2238,2137238,13260,-6464,1480,14825.70,26.88,-1.00,-1.0,2437
2241,2137241,20988,-3452,756,21283.42,27.02,-1.00,-1.0,2368
2243,2137243,11688,-300,-1448,11781.17,26.98,-1.00,-1.0,2424
2246,2137246,19500,-1300,-2356,19684.79,26.93,-1.00,-1.0,2381
2249,2137249,10264,-7620,-1160,12835.88,26.88,-1.00,-1.0,2362
2254,2137254,14428,14288,3288,20570.00,26.88,-1.00,-1.0,2473
2256,2137256,21284,872,1752,21373.78,26.98,-1.00,-1.0,2366
2259,2137259,13824,-4488,1568,14618.61,26.84,-1.00,-1.0,2445
2262,2137262,16488,-1024,1216,16564.46,26.93,-1.00,-1.0,2362
2265,2137265,16332,7216,2556,18037.13,26.93,-1.00,-1.0,2447
2267,2137267,19420,8,3396,19714.70,26.88,-1.00,-1.0,2363
2270,2137270,13948,-7800,364,15984.97,26.93,-1.00,-1.0,2441
2273,2137273,19876,-1544,-688,19947.75,26.93,-1.00,-1.0,2362
2278,2137278,20692,3904,1656,21122.08,27.07,-1.00,-1.0,2448
2281,2137281,12756,-4140,332,13415.12,26.88,-1.00,-1.0,2363
2283,2137283,19820,-8020,-280,21382.96,26.98,-1.00,-1.0,2439
2286,2137286,15148,-424,1632,15241.56,26.98,-1.00,-1.0,2362
2289,2137289,20124,2904,1348,20377.09,26.93,-1.00,-1.0,2440
2292,2137292,12008,3736,2624,12846.60,26.88,-1.00,-1.0,2363
2294,2137294,23084,-508,700,23100.20,26.88,-1.00,-1.0,2440
2297,2137297,16120,1348,-252,16178.23,26.98,-1.00,-1.0,2362
2300,2137300,19132,3756,1244,19536.85,26.84,-1.00,-1.0,2360
2305,2137305,15456,-1080,1100,15532.69,26.93,-1.00,-1.0,2448
2307,2137307,17576,-2580,588,17774.08,26.93,-1.00,-1.0,2363
2310,2137310,15316,220,1444,15385.49,26.84,-1.00,-1.0,2439
2313,2137313,16268,564,2412,16455.51,26.93,-1.00,-1.0,2369
2316,2137316,18848,-608,1692,18933.56,26.93,-1.00,-1.0,2440
2318,2137318,15584,1116,1860,15734.23,26.93,-1.00,-1.0,2364
2321,2137321,18392,-792,784,18425.73,26.93,-1.00,-1.0,2439
2324,2137324,16004,-3008,1456,16349.19,26.93,-1.00,-1.0,2362
2328,2137328,16924,1572,2452,17172.81,26.84,-1.00,-1.0,2436
2331,2137331,17228,5444,2664,18263.02,26.93,-1.00,-1.0,2363
2334,2137334,17748,3980,2316,18335.64,26.93,-1.00,-1.0,2440
2337,2137337,15520,-484,1336,15584.91,27.02,-1.00,-1.0,2362
2339,2137339,17496,-4176,176,17988.33,26.93,-1.00,-1.0,2427
2342,2137342,16332,1820,796,16452.36,26.84,-1.00,-1.0,2363
2345,2137345,17240,5116,1244,18026.05,26.93,-1.00,-1.0,2369
2348,2137348,15868,456,1920,15990.24,26.88,-1.00,-1.0,2449
2351,2137351,17424,-5880,-12,18389.41,26.93,-1.00,-1.0,2364
2356,2137356,17768,5628,1704,18715.76,27.02,-1.00,-1.0,2447
2358,2137358,16932,-740,888,16971.41,26.98,-1.00,-1.0,2362
2361,2137361,16924,-7632,588,18574.58,26.93,-1.00,-1.0,2440
2364,2137364,15092,-3700,2400,15723.18,26.93,-1.00,-1.0,2363
2367,2137367,18404,5964,2348,19488.19,26.93,-1.00,-1.0,2437
2369,2137369,16292,5664,2160,17383.20,26.88,-1.00,-1.0,2350
2372,2137372,18120,-2692,628,18329.64,27.02,-1.00,-1.0,2440
2375,2137375,16656,-3796,268,17085.19,26.88,-1.00,-1.0,2366
2380,2137380,16992,4068,1624,17547.48,26.98,-1.00,-1.0,2456
2383,2137383,16748,1884,1384,16910.36,26.98,-1.00,-1.0,2368
2385,2137385,16952,-1776,1732,17132.55,27.07,-1.00,-1.0,2448
2388,2137388,16852,-2064,1120,17014.83,26.88,-1.00,-1.0,2377
2391,2137391,17464,76,1040,17495.10,27.02,-1.00,-1.0,2440
2394,2137394,17496,2500,2420,17838.62,26.98,-1.00,-1.0,2365
2396,2137396,17124,836,1608,17219.64,26.93,-1.00,-1.0,2360
2399,2137399,17376,-1996,1448,17550.10,26.93,-1.00,-1.0,2428
2402,2137402,17280,-2272,1276,17475.37,26.98,-1.00,-1.0,2358
2407,2137407,16520,1764,2520,16803.94,26.98,-1.00,-1.0,2455
2409,2137409,17124,376,1580,17200.85,26.93,-1.00,-1.0,2362
2412,2137412,17248,464,1520,17321.06,26.98,-1.00,-1.0,2442
2415,2137415,16992,1636,1784,17163.54,26.93,-1.00,-1.0,2363
2418,2137418,16772,224,1036,16805.46,26.88,-1.00,-1.0,2446
2420,2137420,16948,-1408,600,17016.97,26.93,-1.00,-1.0,2362
2423,2137423,16724,872,1756,16838.53,26.88,-1.00,-1.0,2443
2426,2137426,17068,2644,1488,17335.56,26.84,-1.00,-1.0,2363
2431,2137431,17328,-336,1140,17368.71,26.93,-1.00,-1.0,2447
2434,2137434,16496,-1276,1344,16599.78,26.93,-1.00,-1.0,2362
2436,2137436,17572,20,1324,17621.82,26.93,-1.00,-1.0,2440
2439,2137439,16988,288,1280,17038.59,26.84,-1.00,-1.0,2363
2442,2137442,17708,-856,1376,17782.00,26.98,-1.00,-1.0,2361
2444,2137444,16844,-784,2064,16988.09,26.98,-1.00,-1.0,2439
2447,2137447,17248,1048,1764,17369.62,26.88,-1.00,-1.0,2350
2450,2137450,16972,976,1472,17063.65,26.98,-1.00,-1.0,2440
2453,2137453,17212,-228,1416,17271.65,26.93,-1.00,-1.0,2365
2458,2137458,17124,712,804,17157.64,26.93,-1.00,-1.0,2456
2460,2137460,16520,2640,1136,16768.14,26.88,-1.00,-1.0,2363
2463,2137463,17392,2292,1168,17581.22,26.88,-1.00,-1.0,2454
2466,2137466,16720,1488,1756,16877.68,26.98,-1.00,-1.0,2370
2469,2137469,16748,456,1420,16814.28,26.93,-1.00,-1.0,2449
2472,2137472,17020,-48,1340,17072.74,26.98,-1.00,-1.0,2363
2474,2137474,17048,-64,1596,17122.66,26.93,-1.00,-1.0,2452
2477,2137477,17132,-1036,1420,17221.94,27.02,-1.00,-1.0,2369
2480,2137480,17576,-1380,1464,17690.77,26.93,-1.00,-1.0,2363
2485,2137485,17176,-24,2252,17323.02,26.84,-1.00,-1.0,2456
2488,2137488,16920,-372,1592,16998.80,27.02,-1.00,-1.0,2371
2490,2137490,16808,-1192,984,16878.92,27.02,-1.00,-1.0,2449
2493,2137493,16732,-100,1200,16775.27,26.93,-1.00,-1.0,2377
2496,2137496,16792,1196,1324,16886.52,26.93,-1.00,-1.0,2440
2499,2137499,16752,1576,1432,16886.80,26.93,-1.00,-1.0,2367
2501,2137501,17208,600,1016,17248.41,26.93,-1.00,-1.0,2450
2504,2137504,17168,1532,1528,17303.82,26.93,-1.00,-1.0,2377
2510,2137510,17132,1156,1448,17231.90,27.02,-1.00,-1.0,2451
2512,2137512,16832,-668,1624,16923.35,26.93,-1.00,-1.0,2371
2515,2137515,17116,-836,1364,17190.60,26.98,-1.00,-1.0,2440
2518,2137518,17340,12,1380,17394.83,26.93,-1.00,-1.0,2364
2521,2137521,17112,168,1480,17176.71,26.98,-1.00,-1.0,2454
2523,2137523,16976,-956,1712,17088.87,26.93,-1.00,-1.0,2371
2526,2137526,16736,-1184,1544,16848.72,26.88,-1.00,-1.0,2348
2529,2137529,17072,-492,1284,17127.29,26.98,-1.00,-1.0,2436
2531,2137531,17020,760,1412,17095.37,27.07,-1.00,-1.0,2350
2536,2137536,16944,844,1400,17022.68,26.98,-1.00,-1.0,2449
2539,2137539,16984,452,1408,17048.26,26.88,-1.00,-1.0,2363
2542,2137542,16888,632,1492,16965.55,26.79,-1.00,-1.0,2445
2544,2137544,17032,1516,1568,17171.08,26.98,-1.00,-1.0,2362
2547,2137547,16960,1532,1364,17083.59,26.98,-1.00,-1.0,2440
2550,2137550,16744,756,1128,16798.97,26.98,-1.00,-1.0,2363
2553,2137553,16952,-364,1032,16987.29,26.88,-1.00,-1.0,2436
2555,2137555,16940,124,1684,17023.95,26.98,-1.00,-1.0,2351
2561,2137561,17076,-344,1732,17167.06,26.84,-1.00,-1.0,2448
2563,2137563,17164,-676,1656,17256.95,26.93,-1.00,-1.0,2366
2566,2137566,17228,156,1560,17299.19,26.98,-1.00,-1.0,2455
2569,2137569,17240,504,1488,17311.43,26.93,-1.00,-1.0,2373
2571,2137571,17196,248,1432,17257.30,26.88,-1.00,-1.0,2367
2574,2137574,17044,56,1348,17097.31,26.88,-1.00,-1.0,2440
2577,2137577,16816,380,1568,16893.22,26.88,-1.00,-1.0,2363
2580,2137580,16852,1676,1268,16982.54,26.98,-1.00,-1.0,2450
2582,2137582,16848,2076,1080,17009.74,26.98,-1.00,-1.0,2369
2587,2137587,16916,108,992,16945.41,26.98,-1.00,-1.0,2449
2590,2137590,16928,-548,1188,16978.48,26.93,-1.00,-1.0,2363
2593,2137593,17160,-524,1388,17224.02,26.98,-1.00,-1.0,2448
2595,2137595,17112,-356,1700,17199.92,26.93,-1.00,-1.0,2362
2598,2137598,17220,24,1784,17312.18,26.88,-1.00,-1.0,2455
2601,2137601,17132,240,1900,17238.71,26.93,-1.00,-1.0,2362
2604,2137604,17184,228,2008,17302.42,26.98,-1.00,-1.0,2447
2606,2137606,16984,-200,1808,17081.13,27.02,-1.00,-1.0,2361
2609,2137609,16924,-200,1796,17020.21,26.98,-1.00,-1.0,2368
2614,2137614,16932,744,1332,17000.60,26.88,-1.00,-1.0,2448
2617,2137617,16920,1420,1176,17020.16,26.93,-1.00,-1.0,2374
2620,2137620,16968,1588,1072,17075.83,26.88,-1.00,-1.0,2448
2622,2137622,16876,992,1256,16951.72,26.98,-1.00,-1.0,2366
2625,2137625,16840,168,1184,16882.41,26.98,-1.00,-1.0,2456
2628,2137628,16912,-308,1364,16969.71,26.98,-1.00,-1.0,2369
2631,2137631,16952,-424,1400,17015.00,26.98,-1.00,-1.0,2452
2633,2137633,17000,-632,1668,17093.32,26.88,-1.00,-1.0,2364
2638,2137638,17260,-136,1556,17330.53,26.93,-1.00,-1.0,2450
2641,2137641,17176,416,1780,17273.00,26.93,-1.00,-1.0,2366
2644,2137644,17056,180,1720,17143.45,26.88,-1.00,-1.0,2447
2646,2137646,16804,-824,1356,16878.75,26.93,-1.00,-1.0,2362
2649,2137649,16932,-440,1140,16976.04,26.88,-1.00,-1.0,2443
2652,2137652,16976,1376,1240,17076.75,26.93,-1.00,-1.0,2363
2655,2137655,17132,1976,1552,17315.27,26.88,-1.00,-1.0,2361
2657,2137657,16844,1092,1652,16960.01,26.88,-1.00,-1.0,2449
2660,2137660,16836,-232,1444,16899.40,26.98,-1.00,-1.0,2371
2665,2137665,17104,504,1288,17159.83,26.98,-1.00,-1.0,2447
2668,2137668,17268,604,1540,17347.05,26.93,-1.00,-1.0,2369
2671,2137671,17124,-108,1540,17193.45,26.98,-1.00,-1.0,2440
2673,2137673,17108,-428,1728,17200.37,26.93,-1.00,-1.0,2363
2676,2137676,16992,348,1720,17082.38,26.98,-1.00,-1.0,2439
2679,2137679,17028,992,1548,17126.97,26.98,-1.00,-1.0,2434
2682,2137682,16904,780,1528,16990.83,26.93,-1.00,-1.0,2443
2684,2137684,17012,-280,1272,17061.79,26.93,-1.00,-1.0,2372
2689,2137689,17028,-188,1076,17063.00,26.93,-1.00,-1.0,2433
2692,2137692,17048,868,1236,17114.77,26.88,-1.00,-1.0,2373
2695,2137695,17064,1144,1272,17149.54,26.93,-1.00,-1.0,2438
2698,2137698,17020,492,1204,17069.62,26.84,-1.00,-1.0,2369
2700,2137700,17036,48,1176,17076.61,26.98,-1.00,-1.0,2442
2703,2137703,16900,396,1192,16946.61,26.88,-1.00,-1.0,2439
2706,2137706,16868,708,1416,16942.13,26.93,-1.00,-1.0,2367
2709,2137709,16916,280,1436,16979.15,26.98,-1.00,-1.0,2441
2711,2137711,16776,-536,1364,16839.89,26.93,-1.00,-1.0,2366
2716,2137716,17092,836,1676,17194.31,27.07,-1.00,-1.0,2449
2719,2137719,17224,936,1472,17312.11,26.84,-1.00,-1.0,2368
2722,2137722,17176,292,1404,17235.76,26.98,-1.00,-1.0,2442
2724,2137724,17128,-204,1064,17162.23,26.88,-1.00,-1.0,2367
2727,2137727,17032,152,1136,17070.52,26.88,-1.00,-1.0,2435
2730,2137730,17008,692,1280,17070.13,27.02,-1.00,-1.0,2367
2733,2137733,16860,508,1252,16914.05,26.98,-1.00,-1.0,2441
2735,2137735,16764,-124,1144,16803.45,27.02,-1.00,-1.0,2366
2738,2137738,16876,72,1344,16929.59,26.84,-1.00,-1.0,2362
2743,2137743,16916,708,1536,17000.34,26.84,-1.00,-1.0,2445
2746,2137746,17128,528,1684,17218.68,27.02,-1.00,-1.0,2365
2748,2137748,17096,-192,1568,17168.83,26.84,-1.00,-1.0,2421
2751,2137751,17164,-204,1556,17235.59,26.88,-1.00,-1.0,2382
2754,2137754,17112,256,1488,17178.48,26.93,-1.00,-1.0,2438
2757,2137757,17108,508,1604,17190.54,26.84,-1.00,-1.0,2378
2759,2137759,16892,488,1688,16983.14,26.93,-1.00,-1.0,2437
2762,2137762,16984,324,1400,17044.68,26.93,-1.00,-1.0,2371
2767,2137767,16956,416,1380,17017.15,26.93,-1.00,-1.0,2453
2770,2137770,17100,500,1628,17184.60,26.93,-1.00,-1.0,2370
2773,2137773,17120,224,1372,17176.35,26.74,-1.00,-1.0,2446
2775,2137775,16976,-256,1328,17029.79,27.02,-1.00,-1.0,2375
2778,2137778,16992,-572,1464,17064.54,26.98,-1.00,-1.0,2362
2781,2137781,16996,-380,1480,17064.55,26.88,-1.00,-1.0,2434
2783,2137783,16988,152,1556,17059.79,26.93,-1.00,-1.0,2356
2786,2137786,16924,688,1672,17020.30,26.88,-1.00,-1.0,2436
2789,2137789,16988,332,1544,17061.25,26.88,-1.00,-1.0,2365
2794,2137794,17076,152,1280,17124.58,26.98,-1.00,-1.0,2451
2797,2137797,17072,344,1364,17129.86,26.93,-1.00,-1.0,2367
2800,2137800,17088,412,1228,17137.02,26.88,-1.00,-1.0,2444
2802,2137802,16952,464,1356,17012.48,26.93,-1.00,-1.0,2373
2805,2137805,17052,760,1624,17146.01,26.88,-1.00,-1.0,2436
2808,2137808,16932,940,1580,17031.52,26.93,-1.00,-1.0,2367
2811,2137811,17080,520,1636,17166.05,26.88,-1.00,-1.0,2444
2813,2137813,16968,-92,1668,17050.04,26.93,-1.00,-1.0,2373
2816,2137816,17088,-20,1348,17141.10,26.98,-1.00,-1.0,2360
2823,2137823,17100,540,1584,17181.70,26.98,-1.00,-1.0,2444
2826,2137826,17052,372,1628,17133.58,27.02,-1.00,-1.0,2374
2829,2137829,16980,692,1600,17069.25,26.84,-1.00,-1.0,2436
2831,2137831,16968,724,1456,17045.74,27.02,-1.00,-1.0,2365
2834,2137834,16812,384,1412,16875.56,27.02,-1.00,-1.0,2436
2837,2137837,16868,264,1476,16934.51,27.02,-1.00,-1.0,2373
2840,2137840,16868,384,1456,16935.08,26.93,-1.00,-1.0,2436
2842,2137842,17048,604,1392,17115.40,26.93,-1.00,-1.0,2366
2847,2137847,17152,56,1368,17206.56,27.07,-1.00,-1.0,2431
2850,2137850,17140,-152,1516,17207.58,26.88,-1.00,-1.0,2369
2853,2137853,17084,-92,1464,17146.86,26.93,-1.00,-1.0,2441
2855,2137855,17068,144,1472,17131.96,26.88,-1.00,-1.0,2368
2858,2137858,16928,300,1376,16986.48,26.88,-1.00,-1.0,2360
2861,2137861,16964,408,1308,17019.24,26.93,-1.00,-1.0,2439
2863,2137863,16884,584,1252,16940.43,26.93,-1.00,-1.0,2366
2866,2137866,16968,796,1264,17033.62,26.93,-1.00,-1.0,2437
2869,2137869,16908,580,1452,16980.14,26.98,-1.00,-1.0,2365
2874,2137874,16868,152,1416,16928.01,26.98,-1.00,-1.0,2444
2877,2137877,16992,272,1344,17047.24,26.98,-1.00,-1.0,2367
2879,2137879,17028,360,1436,17092.23,26.93,-1.00,-1.0,2436
2882,2137882,17168,428,1372,17228.05,26.98,-1.00,-1.0,2366
2885,2137885,17096,140,1484,17160.86,26.98,-1.00,-1.0,2423
2888,2137888,17108,-4,1296,17157.02,26.88,-1.00,-1.0,2368
2890,2137890,16976,-124,1436,17037.08,26.98,-1.00,-1.0,2435
2893,2137893,16964,-252,1468,17029.26,26.98,-1.00,-1.0,2368
2896,2137896,16956,-180,1456,17019.35,26.84,-1.00,-1.0,2360
2901,2137901,17012,308,1260,17061.38,26.93,-1.00,-1.0,2439
2903,2137903,17000,540,1316,17059.41,26.88,-1.00,-1.0,2370
2906,2137906,16936,368,1152,16979.12,26.93,-1.00,-1.0,2436
2909,2137909,17032,228,1472,17097.01,26.98,-1.00,-1.0,2368
2912,2137912,16876,260,1308,16928.61,26.93,-1.00,-1.0,2438
2914,2137914,16932,336,1504,17001.99,26.88,-1.00,-1.0,2374
2917,2137917,17072,356,1560,17146.82,26.93,-1.00,-1.0,2437
2920,2137920,17032,208,1616,17109.76,26.98,-1.00,-1.0,2368
2925,2137925,17180,-100,1568,17251.70,26.84,-1.00,-1.0,2444
2927,2137927,16976,-136,1468,17039.90,26.93,-1.00,-1.0,2367
2930,2137930,17072,-80,1520,17139.72,26.93,-1.00,-1.0,2436
2933,2137933,17124,-124,1516,17191.42,26.98,-1.00,-1.0,2367
2935,2137935,17004,200,1460,17067.74,26.93,-1.00,-1.0,2360
2938,2137938,16868,244,1440,16931.11,26.88,-1.00,-1.0,2439
2941,2137941,16960,536,1620,17045.62,26.93,-1.00,-1.0,2367
2944,2137944,16904,576,1476,16978.09,26.98,-1.00,-1.0,2442
2946,2137946,17008,576,1380,17073.61,26.93,-1.00,-1.0,2365
2951,2137951,17036,368,1588,17113.81,26.93,-1.00,-1.0,2445
2954,2137954,17000,328,1556,17074.21,26.93,-1.00,-1.0,2367
2957,2137957,17112,440,1544,17187.15,26.98,-1.00,-1.0,2441
2959,2137959,17052,416,1604,17132.33,26.93,-1.00,-1.0,2366
2962,2137962,17124,316,1500,17192.48,26.98,-1.00,-1.0,2436
2965,2137965,16980,280,1512,17049.48,26.93,-1.00,-1.0,2368
2968,2137968,17004,92,1680,17087.04,26.98,-1.00,-1.0,2441
2970,2137970,17008,192,1368,17064.01,27.02,-1.00,-1.0,2367
2973,2137973,16972,16,1388,17028.67,26.98,-1.00,-1.0,2360
2978,2137978,17072,248,1232,17118.19,26.93,-1.00,-1.0,2445
2981,2137981,17020,564,1280,17077.38,27.02,-1.00,-1.0,2367
2984,2137984,16932,660,1312,16995.57,26.93,-1.00,-1.0,2431
2986,2137986,17040,564,1444,17110.37,27.02,-1.00,-1.0,2369
2989,2137989,17012,632,1676,17106.04,26.93,-1.00,-1.0,2434
2992,2137992,17112,700,1596,17200.52,26.98,-1.00,-1.0,2369
2995,2137995,17056,568,1660,17146.00,27.02,-1.00,-1.0,2437
2997,2137997,17020,416,1660,17105.82,26.93,-1.00,-1.0,2374
3002,2138002,17052,12,1596,17126.53,26.93,-1.00,-1.0,2454
3005,2138005,17060,32,1532,17128.68,27.02,-1.00,-1.0,2382
3008,2138008,17056,108,1468,17119.40,26.93,-1.00,-1.0,2439
3011,2138011,16948,156,1236,16993.73,26.84,-1.00,-1.0,2374
3013,2138013,16980,216,1252,17027.46,26.93,-1.00,-1.0,2360
3016,2138016,16928,328,1184,16972.53,26.93,-1.00,-1.0,2422
3019,2138019,16888,220,1308,16940.01,26.93,-1.00,-1.0,2369
3021,2138021,16992,380,1492,17061.61,26.93,-1.00,-1.0,2434
3024,2138024,16960,300,1372,17018.05,26.93,-1.00,-1.0,2354
3029,2138029,16964,632,1716,17062.28,26.93,-1.00,-1.0,2460
3032,2138032,16976,512,1664,17065.04,26.88,-1.00,-1.0,2373
3035,2138035,17020,344,1764,17114.63,26.93,-1.00,-1.0,2444
3037,2138037,17064,232,1580,17138.56,26.93,-1.00,-1.0,2371
3040,2138040,17016,312,1504,17085.19,26.93,-1.00,-1.0,2446
3043,2138043,17052,280,1656,17134.51,26.88,-1.00,-1.0,2375
3046,2138046,16940,256,1580,17015.45,26.84,-1.00,-1.0,2446
3048,2138048,17028,196,1452,17090.92,26.93,-1.00,-1.0,2368
3051,2138051,16924,332,1388,16984.07,26.93,-1.00,-1.0,2360
3056,2138056,16956,308,1356,17012.92,26.93,-1.00,-1.0,2453
3059,2138059,16936,20,1316,16987.06,26.93,-1.00,-1.0,2375
3061,2138061,16996,120,1236,17041.31,26.93,-1.00,-1.0,2444
3064,2138064,16936,112,1352,16990.25,26.93,-1.00,-1.0,2381
3067,2138067,17040,160,1388,17097.19,27.02,-1.00,-1.0,2439
3070,2138070,17044,100,1548,17114.45,26.93,-1.00,-1.0,2372
3072,2138072,17068,108,1624,17145.43,26.93,-1.00,-1.0,2444
3075,2138075,16996,236,1740,17086.46,26.93,-1.00,-1.0,2380
3080,2138080,16996,308,1648,17078.49,27.02,-1.00,-1.0,2444
3083,2138083,17028,384,1764,17123.43,26.88,-1.00,-1.0,2369
3085,2138085,17112,428,1560,17188.29,26.93,-1.00,-1.0,2370
3088,2138088,16984,384,1520,17056.21,26.98,-1.00,-1.0,2442
3091,2138091,17008,208,1444,17070.46,27.02,-1.00,-1.0,2369
3094,2138094,16904,112,1396,16961.92,26.98,-1.00,-1.0,2445
3096,2138096,17044,192,1344,17097.99,26.93,-1.00,-1.0,2374
3099,2138099,17036,308,1320,17089.84,26.88,-1.00,-1.0,2442
3102,2138102,17028,440,1520,17101.37,26.93,-1.00,-1.0,2370
3107,2138107,17036,356,1456,17101.81,26.93,-1.00,-1.0,2450
3109,2138109,17128,452,1668,17214.96,27.02,-1.00,-1.0,2365
3112,2138112,17048,456,1576,17126.76,26.93,-1.00,-1.0,2455
3115,2138115,17044,404,1424,17108.15,27.02,-1.00,-1.0,2366
3118,2138118,16984,460,1284,17038.68,26.93,-1.00,-1.0,2442
3120,2138120,16956,292,1380,17014.57,26.93,-1.00,-1.0,2365
3123,2138123,17004,328,1484,17071.79,26.84,-1.00,-1.0,2374
3126,2138126,16928,320,1292,16980.25,26.88,-1.00,-1.0,2437
3129,2138129,16956,200,1304,17007.24,26.93,-1.00,-1.0,2376
3133,2138133,16952,252,1336,17006.43,26.98,-1.00,-1.0,2431
3136,2138136,16936,344,1328,16991.47,26.98,-1.00,-1.0,2373
3139,2138139,17028,528,1280,17084.20,26.98,-1.00,-1.0,2439
3142,2138142,17112,480,1460,17180.88,26.88,-1.00,-1.0,2364
3144,2138144,17008,424,1296,17062.57,26.98,-1.00,-1.0,2423
3147,2138147,17052,428,1428,17117.04,26.88,-1.00,-1.0,2381
3150,2138150,17016,592,1540,17095.80,26.98,-1.00,-1.0,2439
3153,2138153,16980,496,1416,17046.16,26.98,-1.00,-1.0,2377
3157,2138157,17004,460,1460,17072.76,26.98,-1.00,-1.0,2453
3160,2138160,16956,364,1372,17015.31,26.98,-1.00,-1.0,2368
3163,2138163,17104,224,1448,17166.64,26.88,-1.00,-1.0,2360
3165,2138165,17056,344,1320,17110.46,26.93,-1.00,-1.0,2437
3168,2138168,17024,76,1428,17083.96,26.88,-1.00,-1.0,2367
3171,2138171,17048,40,1520,17115.67,27.02,-1.00,-1.0,2435
3174,2138174,16980,60,1452,17042.07,26.88,-1.00,-1.0,2366
3177,2138177,16928,208,1440,16990.41,26.88,-1.00,-1.0,2447
3180,2138180,17036,136,1356,17090.42,26.88,-1.00,-1.0,2370
3185,2138185,17040,220,1512,17108.37,26.93,-1.00,-1.0,2443
3187,2138187,16924,240,1596,17000.78,27.02,-1.00,-1.0,2366
3190,2138190,17220,92,2228,17363.78,26.98,-1.00,-1.0,2436
3193,2138193,22936,-692,10168,25098.35,26.93,-1.00,-1.0,2375
3196,2138196,6416,-6156,-4580,10001.89,26.88,-1.00,-1.0,2436
3198,2138198,29356,-3448,20164,35780.59,26.93,-1.00,-1.0,2365
3201,2138201,9872,13624,27488,32228.25,26.98,-1.00,-1.0,2367
3204,2138204,28092,-6308,5552,29321.94,26.98,-1.00,-1.0,2446
3207,2138207,10732,-28300,-7568,31198.40,26.88,-1.00,-1.0,2373
3212,2138212,8324,16600,-1400,18622.81,26.98,-1.00,-1.0,2444
3214,2138214,28676,9016,-5824,30618.95,26.88,-1.00,-1.0,2370
3217,2138217,7424,-2516,8660,11680.82,26.88,-1.00,-1.0,2450
3220,2138220,27644,3764,3476,28114.78,26.98,-1.00,-1.0,2374
3223,2138223,11780,14612,1372,18819.17,26.98,-1.00,-1.0,2445
3225,2138225,24208,4408,9448,26357.59,26.98,-1.00,-1.0,2369
3228,2138228,15108,-8632,5432,18228.27,26.88,-1.00,-1.0,2451
3231,2138231,18528,-10604,516,21354.11,26.98,-1.00,-1.0,2373
3236,2138236,17044,9424,4936,20091.63,26.79,-1.00,-1.0,2451
3238,2138238,13676,-676,1140,13740.07,26.88,-1.00,-1.0,2366
3241,2138241,18064,-1648,-3748,18522.19,26.98,-1.00,-1.0,2456
3244,2138244,14932,-4888,-56,15711.79,26.98,-1.00,-1.0,2367
3247,2138247,17052,-1244,-2180,17235.74,26.98,-1.00,-1.0,2442
3249,2138249,14376,-2516,104,14594.88,26.98,-1.00,-1.0,2366
3252,2138252,18756,3044,-140,19001.92,26.98,-1.00,-1.0,2457
3255,2138255,14080,10588,3764,18014.43,26.98,-1.00,-1.0,2367
3260,2138260,16264,-4660,480,16925.24,26.98,-1.00,-1.0,2443
3263,2138263,17044,796,2712,17276.76,26.93,-1.00,-1.0,2366
3265,2138265,19356,5856,2264,20348.79,26.88,-1.00,-1.0,2362
3268,2138268,15872,928,2900,16161.42,26.93,-1.00,-1.0,2450
3271,2138271,17372,-6908,-116,18695.46,26.98,-1.00,-1.0,2373
3274,2138274,19028,-224,32,19029.35,26.88,-1.00,-1.0,2444
3276,2138276,17840,5940,3712,19165.81,26.98,-1.00,-1.0,2369
3279,2138279,17604,4596,2380,18349.07,26.93,-1.00,-1.0,2449
3282,2138282,14864,-6316,816,16170.84,26.88,-1.00,-1.0,2374
3287,2138287,16968,448,1688,17057.64,26.88,-1.00,-1.0,2450
3289,2138289,18908,5068,2512,19735.94,26.98,-1.00,-1.0,2368
3292,2138292,18944,4060,2916,19592.39,26.84,-1.00,-1.0,2453
3295,2138295,17572,-1552,1732,17725.23,26.98,-1.00,-1.0,2367
3298,2138298,15620,968,204,15651.29,26.93,-1.00,-1.0,2441
3300,2138300,19924,3224,480,20188.87,26.88,-1.00,-1.0,2365
3303,2138303,13204,-344,1812,13332.19,26.93,-1.00,-1.0,2456
3306,2138306,16412,-2208,-380,16564.22,26.98,-1.00,-1.0,2366
3309,2138309,15396,-1720,484,15499.34,26.93,-1.00,-1.0,2361
3314,2138314,15944,1376,2188,16152.15,26.93,-1.00,-1.0,2447
3316,2138316,19080,-448,1496,19143.80,26.93,-1.00,-1.0,2374
3319,2138319,17720,-136,1000,17748.71,27.07,-1.00,-1.0,2436
3322,2138322,17824,-308,920,17850.38,26.93,-1.00,-1.0,2366
3325,2138325,16776,-2164,2372,17080.50,26.98,-1.00,-1.0,2438
3327,2138327,18416,-1412,1920,18569.58,26.93,-1.00,-1.0,2374
3330,2138330,16892,1404,2656,17157.07,26.88,-1.00,-1.0,2436
3333,2138333,17712,5032,3296,18705.60,26.93,-1.00,-1.0,2368
3338,2138338,16712,-3184,240,17014.30,26.79,-1.00,-1.0,2460
3341,2138341,16756,-4260,548,17297.73,26.98,-1.00,-1.0,2354
3344,2138344,17396,2288,1008,17574.75,26.98,-1.00,-1.0,2435
3347,2138347,16456,5324,1636,17373.01,26.88,-1.00,-1.0,2365
3349,2138349,16652,-3080,980,16962.78,26.88,-1.00,-1.0,2437
3352,2138352,17832,-5780,-428,18750.25,26.98,-1.00,-1.0,2367
3355,2138355,17336,1664,632,17427.14,26.88,-1.00,-1.0,2364
3358,2138358,17716,5300,1596,18560.55,26.93,-1.00,-1.0,2435
3360,2138360,15904,-1360,1180,16005.60,26.98,-1.00,-1.0,2368
3365,2138365,14832,-3132,2380,15344.77,26.84,-1.00,-1.0,2458
3368,2138368,18608,7344,2700,20186.18,26.93,-1.00,-1.0,2373
3371,2138371,16136,4872,2240,17003.66,26.93,-1.00,-1.0,2449
3373,2138373,18612,-3820,624,19010.22,26.93,-1.00,-1.0,2377
3376,2138376,15708,-3984,620,16217.21,26.98,-1.00,-1.0,2442
3379,2138379,17528,1884,1340,17679.81,26.93,-1.00,-1.0,2369
3382,2138382,16668,3676,1360,17122.64,26.98,-1.00,-1.0,2450
3384,2138384,17032,316,1784,17128.09,26.93,-1.00,-1.0,2377
3389,2138389,17204,-852,448,17230.91,26.93,-1.00,-1.0,2456
3392,2138392,16812,872,1044,16866.94,26.93,-1.00,-1.0,2373
3395,2138395,17236,2832,2044,17586.30,27.02,-1.00,-1.0,2425
3398,2138398,17020,516,1356,17081.73,27.02,-1.00,-1.0,2366
3400,2138400,17560,-2312,824,17730.71,26.93,-1.00,-1.0,2449
3403,2138403,16908,-1720,1352,17048.95,26.93,-1.00,-1.0,2373
3406,2138406,17072,668,1996,17201.26,26.88,-1.00,-1.0,2361
3408,2138408,16836,448,1816,16939.58,26.88,-1.00,-1.0,2439
3411,2138411,17620,412,1380,17678.76,26.98,-1.00,-1.0,2374
3416,2138416,16872,584,1308,16932.70,26.93,-1.00,-1.0,2443
3419,2138419,16500,-1504,448,16574.46,26.93,-1.00,-1.0,2365
3422,2138422,16896,-1592,896,16994.47,27.02,-1.00,-1.0,2442
3424,2138424,16604,2416,1848,16880.31,26.98,-1.00,-1.0,2366
3427,2138427,17136,3184,1148,17467.06,27.02,-1.00,-1.0,2440
3430,2138430,16876,904,996,16929.52,26.84,-1.00,-1.0,2366
3433,2138433,16916,-2060,1232,17085.45,26.93,-1.00,-1.0,2443
3435,2138435,17176,-620,1340,17239.34,26.98,-1.00,-1.0,2353
3440,2138440,16948,88,1160,16987.88,26.98,-1.00,-1.0,2443
3443,2138443,17568,-1856,1572,17735.57,26.88,-1.00,-1.0,2365
3446,2138446,16740,-1392,1956,16911.27,27.02,-1.00,-1.0,2360
3448,2138448,17404,1280,1648,17528.65,26.93,-1.00,-1.0,2436
3451,2138451,16888,884,1624,16988.92,26.93,-1.00,-1.0,2354
3454,2138454,17200,-852,1248,17266.25,27.02,-1.00,-1.0,2434
3457,2138457,16620,-832,772,16658.71,26.84,-1.00,-1.0,2367
3459,2138459,17020,1996,824,17156.44,26.93,-1.00,-1.0,2424
3462,2138462,16592,3224,1120,16939.39,26.88,-1.00,-1.0,2366
3467,2138467,16664,960,1564,16764.74,26.98,-1.00,-1.0,2451
3470,2138470,16804,-324,1556,16879.00,26.98,-1.00,-1.0,2366
3473,2138473,17036,-120,1416,17095.17,26.88,-1.00,-1.0,2446
3475,2138475,17220,92,1804,17314.48,26.98,-1.00,-1.0,2377
3478,2138478,17148,-520,1480,17219.60,26.84,-1.00,-1.0,2436
3481,2138481,17436,-1412,1412,17549.97,26.98,-1.00,-1.0,2367
3484,2138484,17200,-604,2044,17331.55,26.88,-1.00,-1.0,2447
3486,2138486,17152,308,2108,17283.80,26.98,-1.00,-1.0,2375
3489,2138489,16868,-60,1648,16948.42,26.93,-1.00,-1.0,2350
3494,2138494,16608,-900,1148,16671.94,26.88,-1.00,-1.0,2445
3497,2138497,16852,1000,1372,16937.30,26.98,-1.00,-1.0,2373
3499,2138499,16764,1776,1108,16894.19,26.98,-1.00,-1.0,2438
3502,2138502,17176,1064,1056,17241.29,26.88,-1.00,-1.0,2383
3505,2138505,17212,1236,1412,17313.99,26.93,-1.00,-1.0,2436
3508,2138508,17096,1720,1444,17242.88,26.98,-1.00,-1.0,2374
3510,2138510,17088,512,1548,17165.61,27.02,-1.00,-1.0,2463
3513,2138513,16980,-620,1592,17065.73,26.93,-1.00,-1.0,2366
3518,2138518,17204,188,1548,17274.53,26.93,-1.00,-1.0,2450
3521,2138521,17116,188,1604,17192.02,26.93,-1.00,-1.0,2362
3524,2138524,17084,-756,1860,17201.58,26.88,-1.00,-1.0,2447
3526,2138526,16732,-1036,1616,16841.75,26.84,-1.00,-1.0,2363
3529,2138529,16988,-180,1428,17048.86,26.88,-1.00,-1.0,2440
3532,2138532,17104,420,1312,17159.39,26.93,-1.00,-1.0,2363
3534,2138534,17256,1072,1324,17339.89,26.98,-1.00,-1.0,2363
3537,2138537,16948,736,1084,16998.57,26.98,-1.00,-1.0,2449
3540,2138540,17016,188,1268,17064.21,26.98,-1.00,-1.0,2363
3545,2138545,16824,1408,1448,16944.80,26.98,-1.00,-1.0,2454
3548,2138548,16876,1844,1336,17028.93,26.98,-1.00,-1.0,2362
3550,2138550,16732,600,944,16769.35,26.98,-1.00,-1.0,2453
3553,2138553,16968,-248,860,16991.59,26.88,-1.00,-1.0,2371
3556,2138556,16936,160,1380,16992.88,26.93,-1.00,-1.0,2449
3559,2138559,16976,744,1940,17102.68,26.88,-1.00,-1.0,2362
3561,2138561,17160,-316,1956,17274.01,26.88,-1.00,-1.0,2454
3564,2138564,17300,-852,1700,17404.19,26.98,-1.00,-1.0,2371
3569,2138569,17212,428,1464,17279.45,26.93,-1.00,-1.0,2456
3572,2138572,17236,392,1356,17293.70,26.88,-1.00,-1.0,2369
3574,2138574,16996,-172,1296,17046.21,26.88,-1.00,-1.0,2449
3577,2138577,16784,92,1492,16850.44,26.98,-1.00,-1.0,2371
3580,2138580,16760,1376,1112,16853.12,26.93,-1.00,-1.0,2364
3582,2138582,16732,1992,1024,16881.25,27.02,-1.00,-1.0,2439
3585,2138585,16852,1244,1044,16930.07,26.93,-1.00,-1.0,2367
3588,2138588,16900,424,1144,16943.98,26.88,-1.00,-1.0,2439
3591,2138591,17036,-568,1124,17082.48,26.88,-1.00,-1.0,2362
3596,2138596,17164,-456,1540,17238.98,26.84,-1.00,-1.0,2448
3599,2138599,17276,128,1736,17363.47,26.93,-1.00,-1.0,2363
3601,2138601,17232,268,1816,17329.50,26.88,-1.00,-1.0,2439
3604,2138604,17124,-216,1776,17217.21,27.02,-1.00,-1.0,2362
3607,2138607,16944,-272,1696,17030.84,26.98,-1.00,-1.0,2439
3610,2138610,16764,-12,1780,16858.24,26.93,-1.00,-1.0,2364
3612,2138612,16924,408,1396,16986.38,26.98,-1.00,-1.0,2440
3615,2138615,17052,908,1312,17126.49,26.93,-1.00,-1.0,2349
3618,2138618,16976,1268,1096,17058.54,26.98,-1.00,-1.0,2360
3623,2138623,16968,1312,1196,17060.62,26.88,-1.00,-1.0,2448
3626,2138626,17044,240,1380,17101.46,26.98,-1.00,-1.0,2363
3628,2138628,16976,-444,1312,17032.41,26.88,-1.00,-1.0,2439
3631,2138631,17012,-472,1572,17090.99,26.98,-1.00,-1.0,2363
3634,2138634,17008,-208,1768,17100.91,27.07,-1.00,-1.0,2439
3637,2138637,17236,-220,1608,17312.24,26.93,-1.00,-1.0,2364
3639,2138639,17232,-72,1476,17295.25,26.98,-1.00,-1.0,2439
3642,2138642,17104,308,1752,17196.26,26.93,-1.00,-1.0,2362
3647,2138647,16956,-828,1208,17019.13,27.02,-1.00,-1.0,2457
3650,2138650,16864,-784,1160,16922.02,26.93,-1.00,-1.0,2352
3653,2138653,17044,664,1280,17104.89,26.93,-1.00,-1.0,2452
3655,2138655,17140,1896,1396,17300.96,27.02,-1.00,-1.0,2371
3658,2138658,16996,940,1604,17097.38,26.88,-1.00,-1.0,2446
3661,2138661,16988,-16,1536,17057.31,27.02,-1.00,-1.0,2365
3663,2138663,16948,-236,1636,17028.41,26.88,-1.00,-1.0,2356
3666,2138666,17192,516,1656,17279.28,26.88,-1.00,-1.0,2439
3669,2138669,17228,584,1588,17310.89,26.93,-1.00,-1.0,2371
3674,2138674,17004,132,1644,17083.80,27.02,-1.00,-1.0,2447
3677,2138677,17008,540,1568,17088.66,26.93,-1.00,-1.0,2370
3680,2138680,16740,984,1540,16839.46,26.84,-1.00,-1.0,2440
3682,2138682,17008,768,1308,17075.50,26.88,-1.00,-1.0,2363
3685,2138685,16948,-272,1036,16981.81,26.93,-1.00,-1.0,2439
3688,2138688,16956,-680,936,16995.42,26.98,-1.00,-1.0,2370
3691,2138691,17048,-248,1132,17087.34,27.02,-1.00,-1.0,2439
3693,2138693,17072,640,1300,17133.38,26.88,-1.00,-1.0,2363
3698,2138698,16968,264,1176,17010.75,26.88,-1.00,-1.0,2446
3701,2138701,17048,0,1224,17091.88,26.98,-1.00,-1.0,2362
3703,2138703,16952,272,1356,17008.32,26.84,-1.00,-1.0,2360
3706,2138706,16956,572,1444,17026.99,26.93,-1.00,-1.0,2441
3709,2138709,16888,104,1616,16965.46,26.93,-1.00,-1.0,2363
3712,2138712,16884,-188,1536,16954.77,26.93,-1.00,-1.0,2441
3714,2138714,16964,20,1552,17034.86,26.84,-1.00,-1.0,2362
3717,2138717,17184,1012,1652,17292.86,26.93,-1.00,-1.0,2440
3720,2138720,17224,832,1516,17310.59,26.88,-1.00,-1.0,2371
3725,2138725,17128,-244,1112,17165.79,26.98,-1.00,-1.0,2462
3728,2138728,16948,4,1072,16981.87,26.93,-1.00,-1.0,2369
3731,2138731,16964,620,1084,17009.90,26.98,-1.00,-1.0,2450
3733,2138733,16820,316,1284,16871.90,26.98,-1.00,-1.0,2364
3736,2138736,16688,-284,1216,16734.65,26.98,-1.00,-1.0,2449
3739,2138739,16804,-256,1236,16851.34,26.88,-1.00,-1.0,2369
3741,2138741,16992,376,1628,17073.95,26.88,-1.00,-1.0,2368
3744,2138744,17096,704,1652,17190.05,26.88,-1.00,-1.0,2440
3747,2138747,17348,52,1800,17441.21,26.98,-1.00,-1.0,2366
3752,2138752,17112,-508,1420,17178.33,26.93,-1.00,-1.0,2447
3755,2138755,17088,-208,1480,17153.23,26.98,-1.00,-1.0,2362
3757,2138757,16940,344,1640,17022.68,26.93,-1.00,-1.0,2440
3760,2138760,16984,628,1540,17065.23,26.98,-1.00,-1.0,2364
3763,2138763,16956,436,1408,17019.94,27.02,-1.00,-1.0,2438
3766,2138766,16916,408,1332,16973.27,26.98,-1.00,-1.0,2363
3768,2138768,17064,492,1540,17140.41,26.93,-1.00,-1.0,2440
3771,2138771,16992,524,1324,17051.56,26.98,-1.00,-1.0,2364
3776,2138776,17028,-208,1296,17078.52,27.02,-1.00,-1.0,2446
3779,2138779,16924,-484,1356,16985.13,26.88,-1.00,-1.0,2362
3781,2138781,17028,-476,1576,17107.40,26.93,-1.00,-1.0,2347
3784,2138784,17080,204,1568,17153.04,26.93,-1.00,-1.0,2440
3787,2138787,17112,588,1636,17200.08,26.93,-1.00,-1.0,2363
3789,2138789,16940,320,1468,17006.50,26.93,-1.00,-1.0,2440
3792,2138792,16968,-88,1376,17023.93,26.93,-1.00,-1.0,2363
3795,2138795,16992,296,1348,17047.96,26.84,-1.00,-1.0,2439
3798,2138798,17068,420,1224,17116.99,26.98,-1.00,-1.0,2363
3803,2138803,17032,392,1268,17083.63,26.88,-1.00,-1.0,2453
3806,2138806,16928,672,1352,16995.20,26.88,-1.00,-1.0,2365
3809,2138809,17056,1072,1400,17146.90,26.93,-1.00,-1.0,2438
3811,2138811,16976,432,1612,17057.84,27.02,-1.00,-1.0,2371
3814,2138814,17040,-160,1448,17102.16,26.93,-1.00,-1.0,2440
3817,2138817,17104,172,1564,17176.22,26.98,-1.00,-1.0,2363
3820,2138820,17180,532,1428,17247.45,26.93,-1.00,-1.0,2449
3822,2138822,17104,792,1628,17199.55,26.84,-1.00,-1.0,2370
3825,2138825,17036,412,1444,17102.05,26.93,-1.00,-1.0,2361
3830,2138830,16792,672,1492,16871.54,26.93,-1.00,-1.0,2457
3833,2138833,16852,588,1544,16932.80,26.98,-1.00,-1.0,2370
3836,2138836,16880,200,1360,16935.88,26.93,-1.00,-1.0,2442
3839,2138839,16892,244,1404,16952.00,26.93,-1.00,-1.0,2369
3841,2138841,17028,520,1468,17099.07,27.02,-1.00,-1.0,2441
3844,2138844,17068,480,1424,17134.03,27.07,-1.00,-1.0,2371
3847,2138847,17172,140,1592,17246.21,26.93,-1.00,-1.0,2441
3850,2138850,17268,-240,1284,17317.33,26.93,-1.00,-1.0,2367
3855,2138855,17208,-88,1472,17271.07,26.98,-1.00,-1.0,2447
3857,2138857,17048,40,1536,17117.10,26.98,-1.00,-1.0,2364
3860,2138860,16932,312,1548,17005.48,26.93,-1.00,-1.0,2362
3863,2138863,17012,428,1448,17078.88,27.02,-1.00,-1.0,2450
3865,2138865,16888,736,1480,16968.70,27.02,-1.00,-1.0,2375
3868,2138868,17104,792,1316,17172.83,26.84,-1.00,-1.0,2446
3871,2138871,17084,464,1400,17147.55,26.93,-1.00,-1.0,2351
3874,2138874,17020,212,1224,17065.27,26.93,-1.00,-1.0,2452
3876,2138876,17024,180,1432,17085.07,26.93,-1.00,-1.0,2374
3881,2138881,17052,504,1484,17123.87,26.98,-1.00,-1.0,2447
3884,2138884,17116,288,1460,17180.57,26.88,-1.00,-1.0,2362
3887,2138887,17088,160,1464,17151.35,26.93,-1.00,-1.0,2446
3889,2138889,17012,12,1512,17079.06,26.98,-1.00,-1.0,2366
3892,2138892,17020,40,1488,17084.97,26.93,-1.00,-1.0,2450
3895,2138895,16980,-20,1396,17037.30,26.88,-1.00,-1.0,2363
3898,2138898,17016,0,1376,17071.54,26.93,-1.00,-1.0,2366
3900,2138900,17140,268,1268,17188.93,27.02,-1.00,-1.0,2450
3903,2138903,17052,540,1212,17103.54,26.98,-1.00,-1.0,2367
3908,2138908,16988,512,1200,17038.03,26.88,-1.00,-1.0,2449
3911,2138911,16816,408,1236,16866.30,26.88,-1.00,-1.0,2363
3914,2138914,16984,328,1432,17047.42,26.98,-1.00,-1.0,2445
3916,2138916,16880,500,1460,16950.40,26.88,-1.00,-1.0,2365
3919,2138919,16932,444,1392,16994.92,26.88,-1.00,-1.0,2441
3922,2138922,17052,200,1372,17108.28,26.98,-1.00,-1.0,2364
3925,2138925,17072,-20,1456,17133.99,26.98,-1.00,-1.0,2447
3927,2138927,17116,-184,1392,17173.50,26.98,-1.00,-1.0,2365
3932,2138932,17012,-48,1600,17087.14,26.98,-1.00,-1.0,2435
3935,2138935,17080,160,1512,17147.54,26.93,-1.00,-1.0,2367
3938,2138938,17076,84,1624,17153.26,26.98,-1.00,-1.0,2360
3940,2138940,17004,208,1656,17085.71,26.98,-1.00,-1.0,2440
3943,2138943,16968,516,1644,17055.26,26.98,-1.00,-1.0,2365
3946,2138946,16988,696,1440,17063.12,26.88,-1.00,-1.0,2438
3949,2138949,16976,624,1460,17050.09,26.98,-1.00,-1.0,2362
3951,2138951,17044,388,1440,17109.12,26.88,-1.00,-1.0,2439
3954,2138954,17084,404,1412,17147.01,27.02,-1.00,-1.0,2373
3959,2138959,17044,524,1496,17117.55,27.07,-1.00,-1.0,2453
3962,2138962,17104,452,1464,17172.49,26.98,-1.00,-1.0,2351
3965,2138965,17052,292,1444,17115.52,26.88,-1.00,-1.0,2447
3967,2138967,16916,36,1444,16977.56,26.88,-1.00,-1.0,2372
3970,2138970,16984,120,1368,17039.43,26.88,-1.00,-1.0,2439
3973,2138973,16964,28,1248,17009.87,26.93,-1.00,-1.0,2363
3975,2138975,16948,-88,1252,16994.41,26.98,-1.00,-1.0,2360
3978,2138978,17044,108,1216,17087.66,26.88,-1.00,-1.0,2439
3981,2138981,17036,332,1176,17079.77,26.98,-1.00,-1.0,2372
3986,2138986,16976,480,1308,17033.08,26.88,-1.00,-1.0,2455
3989,2138989,16912,472,1464,16981.81,26.88,-1.00,-1.0,2364
3992,2138992,16820,460,1504,16893.37,26.88,-1.00,-1.0,2444
3994,2138994,16992,508,1572,17072.12,26.98,-1.00,-1.0,2372
3997,2138997,17056,308,1644,17137.82,26.88,-1.00,-1.0,2438
4000,2139000,17024,156,1548,17094.95,26.88,-1.00,-1.0,2351
4003,2139003,17088,68,1480,17152.11,27.07,-1.00,-1.0,2447
4005,2139005,17008,-52,1288,17056.78,26.88,-1.00,-1.0,2367
4008,2139008,16984,96,1492,17049.68,26.98,-1.00,-1.0,2368
4013,2139013,16976,88,1244,17021.75,27.07,-1.00,-1.0,2458
4016,2139016,16900,172,988,16929.73,26.79,-1.00,-1.0,2380
4019,2139019,16828,292,1088,16865.66,26.88,-1.00,-1.0,2443
4022,2139022,16924,180,1136,16963.04,26.88,-1.00,-1.0,2369
4024,2139024,16924,268,1296,16975.67,26.88,-1.00,-1.0,2446
4027,2139027,17104,332,1296,17156.24,26.98,-1.00,-1.0,2378
4030,2139030,17128,536,1680,17218.54,26.88,-1.00,-1.0,2439
4033,2139033,17012,412,1684,17100.11,26.88,-1.00,-1.0,2375
4038,2139038,17096,336,1620,17175.87,26.88,-1.00,-1.0,2448
4040,2139040,17096,268,1736,17186.00,26.93,-1.00,-1.0,2368
4043,2139043,17128,316,1732,17218.25,26.98,-1.00,-1.0,2452
4046,2139046,17052,440,1464,17120.38,26.98,-1.00,-1.0,2374
4048,2139048,17032,464,1612,17114.40,26.88,-1.00,-1.0,2369
4051,2139051,16988,464,1404,17052.23,26.93,-1.00,-1.0,2437
4054,2139054,16936,296,1224,16982.75,26.88,-1.00,-1.0,2366
4057,2139057,16936,220,1272,16985.12,26.93,-1.00,-1.0,2446
4059,2139059,16912,164,1256,16959.37,26.93,-1.00,-1.0,2423
4065,2139065,16988,196,1304,17039.10,26.88,-1.00,-1.0,2451
4067,2139067,16996,180,1436,17057.51,26.98,-1.00,-1.0,2367
4070,2139070,17132,-48,1468,17194.85,26.98,-1.00,-1.0,2449
4073,2139073,16956,148,1584,17030.47,26.98,-1.00,-1.0,2376
4076,2139076,17056,200,1512,17124.05,26.98,-1.00,-1.0,2453
4078,2139078,17088,376,1596,17166.49,26.88,-1.00,-1.0,2374
4081,2139081,17036,376,1600,17115.10,26.98,-1.00,-1.0,2450
4084,2139084,16972,440,1612,17054.06,26.98,-1.00,-1.0,2373
4086,2139086,17096,348,1424,17158.73,26.93,-1.00,-1.0,2360
4091,2139091,16996,160,1452,17058.66,27.02,-1.00,-1.0,2445
4094,2139094,16936,292,1320,16989.87,26.93,-1.00,-1.0,2366
4097,2139097,16912,304,1328,16966.78,27.02,-1.00,-1.0,2434
4100,2139100,17080,312,1272,17130.14,26.93,-1.00,-1.0,2369
4102,2139102,16992,420,1324,17048.68,27.02,-1.00,-1.0,2437
4105,2139105,17044,384,1476,17112.10,26.93,-1.00,-1.0,2369
4108,2139108,16984,452,1396,17047.27,26.93,-1.00,-1.0,2435
4111,2139111,17052,480,1344,17111.62,26.93,-1.00,-1.0,2368
4116,2139116,17020,332,1432,17083.36,26.93,-1.00,-1.0,2447
4118,2139118,17056,288,1348,17111.61,26.88,-1.00,-1.0,2375
4121,2139121,16952,228,1328,17005.47,26.93,-1.00,-1.0,2444
4124,2139124,16972,368,1484,17040.73,27.07,-1.00,-1.0,2368
4126,2139126,16988,180,1380,17044.91,26.93,-1.00,-1.0,2348
4129,2139129,16900,248,1252,16948.13,26.93,-1.00,-1.0,2436
4132,2139132,16948,228,1232,16994.25,26.98,-1.00,-1.0,2369
4135,2139135,17008,352,1340,17064.34,26.93,-1.00,-1.0,2429
4137,2139137,17072,368,1312,17126.29,26.88,-1.00,-1.0,2366
4142,2139142,17092,388,1424,17155.61,26.98,-1.00,-1.0,2445
4145,2139145,17164,400,1488,17233.02,27.02,-1.00,-1.0,2353
4148,2139148,17080,440,1520,17153.14,26.88,-1.00,-1.0,2435
4151,2139151,17060,344,1432,17123.45,26.93,-1.00,-1.0,2367
4153,2139153,16956,404,1508,17027.72,26.98,-1.00,-1.0,2437
4156,2139156,17084,376,1324,17139.35,26.93,-1.00,-1.0,2367
4159,2139159,16972,280,1220,17018.10,26.98,-1.00,-1.0,2434
4162,2139162,17088,188,1364,17143.38,26.93,-1.00,-1.0,2366
4164,2139164,17140,172,1424,17199.91,26.98,-1.00,-1.0,2360
4170,2139170,16960,108,1332,17012.57,26.93,-1.00,-1.0,2453
4173,2139173,16952,68,1548,17022.67,26.98,-1.00,-1.0,2375
4176,2139176,16980,60,1536,17049.44,27.02,-1.00,-1.0,2449
4178,2139178,16996,80,1512,17063.31,27.02,-1.00,-1.0,2375
4181,2139181,16984,216,1548,17055.77,26.93,-1.00,-1.0,2444
4184,2139184,17068,244,1604,17144.94,26.98,-1.00,-1.0,2370
4187,2139187,16956,256,1576,17031.01,26.93,-1.00,-1.0,2446
4189,2139189,17000,320,1592,17077.38,26.93,-1.00,-1.0,2375
4194,2139194,17092,560,1520,17168.59,26.88,-1.00,-1.0,2444
4197,2139197,17064,540,1612,17148.48,26.93,-1.00,-1.0,2370
4199,2139199,17052,528,1508,17126.69,26.98,-1.00,-1.0,2361
4202,2139202,16956,416,1520,17029.07,26.98,-1.00,-1.0,2435
4205,2139205,16980,420,1500,17051.30,26.88,-1.00,-1.0,2367
4208,2139208,16984,304,1424,17046.30,26.98,-1.00,-1.0,2442
4210,2139210,16980,244,1384,17038.06,27.07,-1.00,-1.0,2366
4213,2139213,17064,132,1476,17128.22,26.98,-1.00,-1.0,2436
4216,2139216,18848,-12,3816,19230.42,26.98,-1.00,-1.0,2366
4221,2139221,8096,-6424,5544,11728.13,26.98,-1.00,-1.0,2444
4224,2139224,12492,1576,-8044,14941.21,26.98,-1.00,-1.0,2368
4226,2139226,15136,12840,25620,32409.08,26.98,-1.00,-1.0,2436
4229,2139229,21224,-4928,6948,22869.59,26.88,-1.00,-1.0,2370
4232,2139232,19544,-27424,-7064,34408.48,26.98,-1.00,-1.0,2433
4235,2139235,9404,1332,2436,9805.28,26.98,-1.00,-1.0,2369
4237,2139237,16008,16420,-4080,23292.04,26.88,-1.00,-1.0,2436
4240,2139240,12768,3772,-1840,13440.07,26.93,-1.00,-1.0,2355
4245,2139245,27296,8952,2644,28847.89,26.93,-1.00,-1.0,2452
4248,2139248,11816,15996,1868,19974.47,27.02,-1.00,-1.0,2374
4250,2139250,26608,2476,11400,29052.99,26.98,-1.00,-1.0,2347
4253,2139253,12120,-13320,5788,18916.07,27.07,-1.00,-1.0,2434
4256,2139256,20944,-7172,292,22139.87,26.98,-1.00,-1.0,2370
4259,2139259,17944,11388,2552,21405.29,26.98,-1.00,-1.0,2428
4261,2139261,20252,6872,4288,21811.80,26.88,-1.00,-1.0,2375
4264,2139264,12860,48,3376,13295.84,26.88,-1.00,-1.0,2434
4267,2139267,20904,-5084,236,21514.64,26.98,-1.00,-1.0,2368
4272,2139272,18292,312,-288,18296.93,26.93,-1.00,-1.0,2442
4275,2139275,14352,-3796,708,14862.39,26.98,-1.00,-1.0,2373
4278,2139278,20372,6836,1636,21550.54,26.84,-1.00,-1.0,2436
4280,2139280,13536,10588,4040,17653.63,26.93,-1.00,-1.0,2368
4283,2139283,20004,-1364,1280,20091.26,26.93,-1.00,-1.0,2434
4286,2139286,14208,-2556,2652,14677.65,26.98,-1.00,-1.0,2374
4289,2139289,19072,3728,1416,19484.46,26.93,-1.00,-1.0,2436
4291,2139291,15952,5724,1556,17019.15,27.02,-1.00,-1.0,2368
4296,2139296,16608,-6804,-328,17950.70,26.88,-1.00,-1.0,2443
4299,2139299,19240,884,280,19262.33,26.98,-1.00,-1.0,2369
4301,2139301,14948,6436,2428,16454.79,26.84,-1.00,-1.0,2360
4304,2139304,18152,3764,2040,18650.05,26.93,-1.00,-1.0,2437
4307,2139307,14836,-6612,468,16249.45,26.84,-1.00,-1.0,2369
4310,2139310,18764,-7012,-436,20036.12,26.93,-1.00,-1.0,2441
4312,2139312,13748,3800,2080,14414.36,26.84,-1.00,-1.0,2367
4315,2139315,19680,4256,2168,20251.32,26.84,-1.00,-1.0,2436
4318,2139318,12372,1912,2228,12715.58,26.84,-1.00,-1.0,2372
4323,2139323,14680,1672,268,14777.34,26.88,-1.00,-1.0,2444
4326,2139326,19976,3328,692,20263.14,26.88,-1.00,-1.0,2367
4328,2139328,13700,-520,1552,13797.43,26.93,-1.00,-1.0,2436
4331,2139331,16872,-2156,-536,17017.64,26.98,-1.00,-1.0,2355
4334,2139334,15504,-1720,-60,15599.23,26.88,-1.00,-1.0,2434
4337,2139337,17704,2856,2180,18064.90,26.88,-1.00,-1.0,2370
4339,2139339,15772,1028,2056,15938.63,26.98,-1.00,-1.0,2423
4342,2139342,18892,-432,1228,18936.80,26.98,-1.00,-1.0,2383
4345,2139345,16564,212,1140,16604.54,26.84,-1.00,-1.0,2361
4350,2139350,16684,-2392,2120,16987.40,26.88,-1.00,-1.0,2443
4352,2139352,18540,-1564,2056,18719.10,26.88,-1.00,-1.0,2356
4355,2139355,16368,1684,2856,16700.42,26.93,-1.00,-1.0,2435
4358,2139358,17952,5048,3164,18914.74,26.88,-1.00,-1.0,2369
4361,2139361,16300,3116,2632,16802.59,26.98,-1.00,-1.0,2434
4363,2139363,15852,-1408,1156,15956.34,26.88,-1.00,-1.0,2376
4366,2139366,16840,-4108,484,17340.57,26.93,-1.00,-1.0,2434
4369,2139369,17080,3080,880,17377.78,26.98,-1.00,-1.0,2371
4374,2139374,15924,-140,2000,16049.72,27.02,-1.00,-1.0,2442
4376,2139376,18252,-7220,348,19631.22,26.93,-1.00,-1.0,2371
4379,2139379,17308,-3372,792,17651.19,27.02,-1.00,-1.0,2435
4382,2139382,18300,5504,1980,19212.09,26.93,-1.00,-1.0,2368
4385,2139385,16168,-708,1332,16238.22,27.02,-1.00,-1.0,2434
4387,2139387,16940,-7464,904,18533.54,27.02,-1.00,-1.0,2370
4390,2139390,15284,-3388,2468,15848.35,26.93,-1.00,-1.0,2435
4393,2139393,18092,6868,2772,19549.27,27.02,-1.00,-1.0,2369
4396,2139396,16152,5112,1868,17044.33,26.98,-1.00,-1.0,2367
4401,2139401,15904,-3304,344,16247.21,26.88,-1.00,-1.0,2445
4403,2139403,16652,28,1048,16684.97,26.98,-1.00,-1.0,2369
4406,2139406,16912,3372,1156,17283.59,26.98,-1.00,-1.0,2450
4409,2139409,17044,1624,1688,17204.21,26.98,-1.00,-1.0,2378
4412,2139412,16652,-1468,1768,16809.82,26.98,-1.00,-1.0,2452
4414,2139414,16916,-1684,708,17014.35,26.88,-1.00,-1.0,2369
4417,2139417,17232,252,908,17257.75,27.02,-1.00,-1.0,2449
4420,2139420,17072,2744,2304,17443.94,26.98,-1.00,-1.0,2373
4425,2139425,17768,-1528,872,17854.89,26.98,-1.00,-1.0,2447
4427,2139427,16992,-1452,1208,17096.66,26.98,-1.00,-1.0,2354
4430,2139430,17068,276,1724,17157.07,26.88,-1.00,-1.0,2436
4433,2139433,16628,1176,1768,16763.03,26.88,-1.00,-1.0,2367
4436,2139436,17352,904,1360,17428.68,26.98,-1.00,-1.0,2442
4438,2139438,16964,1616,1680,17123.41,26.98,-1.00,-1.0,2368
4441,2139441,16852,1088,1688,16971.24,26.88,-1.00,-1.0,2361
4444,2139444,16988,-1580,716,17076.33,26.93,-1.00,-1.0,2435
4447,2139447,16836,-900,1044,16892.33,27.02,-1.00,-1.0,2373
4452,2139452,17036,3360,1588,17436.65,26.98,-1.00,-1.0,2451
4454,2139454,16956,180,856,16978.55,26.98,-1.00,-1.0,2368
4457,2139457,16624,-1972,1468,16804.80,27.02,-1.00,-1.0,2453
4460,2139460,16816,-1340,1720,16956.76,26.88,-1.00,-1.0,2367
4463,2139463,17400,1216,1368,17496.00,26.93,-1.00,-1.0,2441
4465,2139465,17016,144,1272,17064.08,26.88,-1.00,-1.0,2371
4468,2139468,17396,-2208,1800,17627.71,26.93,-1.00,-1.0,2445
4471,2139471,16952,-1136,1872,17092.84,26.98,-1.00,-1.0,2367
4476,2139476,16940,1252,1716,17072.66,26.98,-1.00,-1.0,2444
4479,2139479,17128,-1228,1200,17213.84,26.88,-1.00,-1.0,2368
4481,2139481,16716,-952,852,16764.75,26.98,-1.00,-1.0,2421
4484,2139484,17136,1232,1016,17210.25,26.98,-1.00,-1.0,2367
4487,2139487,16632,3264,1508,17016.20,26.88,-1.00,-1.0,2434
4490,2139490,17288,2024,1620,17481.30,27.02,-1.00,-1.0,2367
4492,2139492,16712,472,1580,16793.16,26.98,-1.00,-1.0,2361
4495,2139495,16860,-432,1488,16931.05,26.98,-1.00,-1.0,2434
4498,2139498,16924,16,1580,16997.60,26.84,-1.00,-1.0,2370
4503,2139503,17068,-840,1400,17145.91,26.93,-1.00,-1.0,2453
4506,2139506,17404,-1500,1352,17520.76,26.93,-1.00,-1.0,2373
4508,2139508,17228,-372,1812,17327.02,26.88,-1.00,-1.0,2443
4511,2139511,17148,476,2176,17292.06,26.93,-1.00,-1.0,2383
4514,2139514,16872,-12,1332,16924.50,26.93,-1.00,-1.0,2436
4517,2139517,16720,-1188,1104,16798.47,26.93,-1.00,-1.0,2372
4519,2139519,16656,-100,1296,16706.64,26.98,-1.00,-1.0,2443
4522,2139522,16876,1164,1316,16967.21,26.93,-1.00,-1.0,2382
4527,2139527,17196,972,1340,17275.50,26.93,-1.00,-1.0,2450
4530,2139530,17316,1036,1520,17413.43,27.02,-1.00,-1.0,2373
4533,2139533,17212,2012,1692,17411.60,26.84,-1.00,-1.0,2448
4535,2139535,17104,660,1652,17196.27,26.93,-1.00,-1.0,2375
4538,2139538,16996,-440,1784,17095.04,26.98,-1.00,-1.0,2362
4541,2139541,16924,-516,1564,17003.95,26.88,-1.00,-1.0,2428
4543,2139543,17216,624,1212,17269.89,26.98,-1.00,-1.0,2376
4546,2139546,16996,648,1404,17066.20,26.98,-1.00,-1.0,2435
4549,2139549,16948,-692,1520,17030.09,26.98,-1.00,-1.0,2357
4554,2139554,16908,-408,1268,16960.39,26.98,-1.00,-1.0,2445
4557,2139557,17088,800,1184,17147.64,26.98,-1.00,-1.0,2366
4559,2139559,17236,1120,1244,17317.09,26.98,-1.00,-1.0,2421
4562,2139562,16976,716,1136,17029.03,26.98,-1.00,-1.0,2382
4565,2139565,17136,-36,1180,17176.62,26.98,-1.00,-1.0,2437
4568,2139568,16816,288,1404,16876.97,26.93,-1.00,-1.0,2374
4570,2139570,17084,1544,1348,17206.51,26.98,-1.00,-1.0,2442
4573,2139573,16940,1512,1372,17062.59,26.98,-1.00,-1.0,2383
4576,2139576,16864,480,1060,16904.10,26.98,-1.00,-1.0,2363
4581,2139581,16888,56,1368,16943.41,27.02,-1.00,-1.0,2447
4583,2139583,16844,736,1764,16952.10,26.88,-1.00,-1.0,2368
4586,2139586,17052,-160,1732,17140.48,27.02,-1.00,-1.0,2437
4589,2139589,17248,-704,1744,17350.23,26.93,-1.00,-1.0,2367
4592,2139592,17068,-264,1564,17141.54,26.93,-1.00,-1.0,2442
4594,2139594,17312,620,1592,17396.10,27.07,-1.00,-1.0,2368
4597,2139597,17100,264,1364,17156.35,26.93,-1.00,-1.0,2437
4600,2139600,16976,-224,1436,17038.10,26.93,-1.00,-1.0,2367
4605,2139605,16764,1096,1372,16855.72,26.93,-1.00,-1.0,2447
4607,2139607,16692,1928,1220,16847.21,27.02,-1.00,-1.0,2355
4610,2139610,16784,1216,1096,16863.64,26.93,-1.00,-1.0,2436
4613,2139613,16760,232,1168,16802.25,26.93,-1.00,-1.0,2367
4616,2139616,17000,-580,1332,17061.96,27.02,-1.00,-1.0,2438
4618,2139618,17160,-660,1468,17235.32,26.88,-1.00,-1.0,2369
4621,2139621,17176,-140,1720,17262.47,26.93,-1.00,-1.0,2361
4624,2139624,17284,336,1856,17386.61,26.98,-1.00,-1.0,2433
4627,2139627,17268,300,1812,17365.40,26.84,-1.00,-1.0,2368
4632,2139632,17000,-256,1844,17101.63,26.93,-1.00,-1.0,2444
4635,2139635,16976,196,1860,17078.72,26.93,-1.00,-1.0,2367
4637,2139637,16892,452,1544,16968.44,26.93,-1.00,-1.0,2436
4640,2139640,16932,896,1252,17001.85,26.84,-1.00,-1.0,2354
4643,2139643,17072,1128,952,17135.69,26.93,-1.00,-1.0,2434
4646,2139646,17012,1384,1260,17114.65,27.02,-1.00,-1.0,2366
4648,2139648,16960,764,1316,17028.13,26.93,-1.00,-1.0,2435
4651,2139651,16904,-252,1184,16947.29,27.02,-1.00,-1.0,2367
4656,2139656,16976,-284,1360,17032.76,26.93,-1.00,-1.0,2451
4659,2139659,16892,-228,1660,16974.90,26.98,-1.00,-1.0,2370
4662,2139662,17084,-388,1496,17153.76,26.93,-1.00,-1.0,2429
4664,2139664,17156,-20,1660,17236.13,26.88,-1.00,-1.0,2374
4667,2139667,17044,440,1716,17135.82,26.93,-1.00,-1.0,2360
4670,2139670,17032,120,1440,17093.19,26.93,-1.00,-1.0,2441
4672,2139672,16880,-704,1228,16939.24,27.02,-1.00,-1.0,2368
4675,2139675,16848,-148,1216,16892.47,26.84,-1.00,-1.0,2435
4678,2139678,17128,920,1432,17212.36,26.88,-1.00,-1.0,2374
4683,2139683,16992,616,1704,17088.33,26.88,-1.00,-1.0,2447
4686,2139686,16916,-260,1540,16987.95,26.93,-1.00,-1.0,2368
4689,2139689,16948,-196,1496,17015.03,26.98,-1.00,-1.0,2442
4691,2139691,17152,452,1532,17226.21,27.02,-1.00,-1.0,2367
4694,2139694,17236,320,1556,17309.05,26.98,-1.00,-1.0,2435
4697,2139697,17176,-200,1512,17243.58,26.93,-1.00,-1.0,2369
4700,2139700,16984,-72,1488,17049.21,26.98,-1.00,-1.0,2441
4702,2139702,16956,688,1648,17049.79,26.93,-1.00,-1.0,2367
4705,2139705,16912,1084,1660,17027.81,26.88,-1.00,-1.0,2375
4710,2139710,17008,-24,1020,17038.57,26.98,-1.00,-1.0,2444
4713,2139713,16956,-556,896,16988.76,26.88,-1.00,-1.0,2374
4716,2139716,17080,16,1104,17115.65,26.88,-1.00,-1.0,2434
4718,2139718,17052,812,1292,17120.14,26.98,-1.00,-1.0,2367
4721,2139721,17148,784,1240,17210.64,26.98,-1.00,-1.0,2435
4724,2139724,16976,268,1132,17015.81,26.88,-1.00,-1.0,2376
4727,2139727,16940,20,1124,16977.26,26.98,-1.00,-1.0,2434
4729,2139729,16900,468,1348,16960.13,26.98,-1.00,-1.0,2367
4734,2139734,16780,20,1320,16831.85,26.88,-1.00,-1.0,2444
4737,2139737,16992,-388,1480,17060.74,26.93,-1.00,-1.0,2369
4740,2139740,17016,92,1616,17092.81,26.88,-1.00,-1.0,2431
4742,2139742,17260,1000,1664,17368.84,26.93,-1.00,-1.0,2370
4745,2139745,17324,876,1648,17424.24,26.98,-1.00,-1.0,2360
4748,2139748,17252,196,1668,17333.55,26.88,-1.00,-1.0,2442
4750,2139750,17080,-172,1256,17126.98,26.98,-1.00,-1.0,2368
4753,2139753,17024,372,1312,17078.53,26.98,-1.00,-1.0,2435
4756,2139756,16808,472,1284,16863.58,26.93,-1.00,-1.0,2369
4761,2139761,16752,-128,1268,16800.41,26.93,-1.00,-1.0,2460
4764,2139764,16760,44,1284,16809.17,26.93,-1.00,-1.0,2375
4767,2139767,16900,464,1476,16970.68,26.93,-1.00,-1.0,2446
4769,2139769,17152,580,1356,17215.29,26.93,-1.00,-1.0,2377
4772,2139772,17176,156,1448,17237.63,26.93,-1.00,-1.0,2443
4775,2139775,17180,-184,1408,17238.58,27.02,-1.00,-1.0,2371
4778,2139778,17096,-200,1324,17148.36,26.93,-1.00,-1.0,2447
4780,2139780,17088,204,1356,17142.93,26.93,-1.00,-1.0,2378
4783,2139783,16896,420,1480,16965.90,27.07,-1.00,-1.0,2360
4788,2139788,16948,332,1512,17018.55,27.07,-1.00,-1.0,2431
4791,2139791,16932,516,1340,16992.78,26.98,-1.00,-1.0,2367
4793,2139793,17048,572,1240,17102.61,26.88,-1.00,-1.0,2434
4796,2139796,17036,548,1208,17087.56,26.79,-1.00,-1.0,2368
4799,2139799,17084,196,1400,17142.39,26.88,-1.00,-1.0,2421
4802,2139802,17024,-292,1392,17083.31,26.93,-1.00,-1.0,2370
4804,2139804,17016,-612,1328,17078.71,26.98,-1.00,-1.0,2434
4807,2139807,16884,-312,1508,16954.08,26.88,-1.00,-1.0,2367
4812,2139812,16936,572,1744,17035.16,26.98,-1.00,-1.0,2444
4815,2139815,17052,300,1568,17126.57,26.98,-1.00,-1.0,2370
4817,2139817,16964,20,1452,17026.04,26.98,-1.00,-1.0,2422
4820,2139820,16964,208,1488,17030.41,26.88,-1.00,-1.0,2367
4823,2139823,17008,368,1412,17070.48,26.88,-1.00,-1.0,2367
4826,2139826,17028,356,1428,17091.48,26.93,-1.00,-1.0,2435
4828,2139828,16960,396,1408,17022.95,26.88,-1.00,-1.0,2369
4831,2139831,16904,852,1564,16997.56,26.98,-1.00,-1.0,2436
4834,2139834,17040,860,1652,17141.48,26.98,-1.00,-1.0,2368
4839,2139839,17084,-116,1528,17152.59,26.88,-1.00,-1.0,2444
4842,2139842,17112,4,1580,17184.79,26.98,-1.00,-1.0,2371
4845,2139845,17176,544,1588,17257.83,26.88,-1.00,-1.0,2434
4847,2139847,17084,604,1476,17158.28,26.98,-1.00,-1.0,2374
4850,2139850,17184,392,1364,17242.51,26.98,-1.00,-1.0,2434
4853,2139853,17084,388,1356,17142.12,26.98,-1.00,-1.0,2370
4856,2139856,16872,640,1396,16941.75,26.88,-1.00,-1.0,2433
4858,2139858,16884,592,1492,16960.13,26.88,-1.00,-1.0,2374
4861,2139861,16840,260,1460,16905.17,26.98,-1.00,-1.0,2360
4866,2139866,16956,548,1480,17029.29,26.88,-1.00,-1.0,2444
4869,2139869,17016,576,1400,17083.21,26.98,-1.00,-1.0,2370
4872,2139872,17180,384,1280,17231.90,27.02,-1.00,-1.0,2434
4874,2139874,17168,-112,1188,17209.42,26.88,-1.00,-1.0,2369
4877,2139877,17092,-232,1332,17145.39,26.98,-1.00,-1.0,2434
4880,2139880,17080,4,1392,17136.63,26.98,-1.00,-1.0,2371
4883,2139883,16932,416,1548,17007.70,26.84,-1.00,-1.0,2434
4885,2139885,17036,428,1436,17101.77,26.98,-1.00,-1.0,2369
4890,2139890,16920,516,1380,16984.02,26.98,-1.00,-1.0,2456
4893,2139893,16976,592,1332,17038.46,26.98,-1.00,-1.0,2382
4896,2139896,17056,420,1372,17116.25,26.98,-1.00,-1.0,2434
4899,2139899,16968,-40,1448,17029.72,26.98,-1.00,-1.0,2376
4901,2139901,17128,-108,1472,17191.47,26.88,-1.00,-1.0,2360
4904,2139904,17092,368,1540,17165.18,26.93,-1.00,-1.0,2434
4907,2139907,17096,360,1556,17170.44,26.98,-1.00,-1.0,2367
4909,2139909,17072,196,1584,17146.45,26.93,-1.00,-1.0,2434
4912,2139912,17036,80,1500,17102.10,26.98,-1.00,-1.0,2369
4917,2139917,16956,-16,1716,17042.62,26.93,-1.00,-1.0,2445
4920,2139920,17008,-52,1428,17067.92,26.93,-1.00,-1.0,2367
4923,2139923,16980,124,1324,17031.99,26.98,-1.00,-1.0,2444
4925,2139925,17028,292,1232,17075.01,26.93,-1.00,-1.0,2367
4928,2139928,16960,496,1212,17010.48,26.98,-1.00,-1.0,2436
4931,2139931,17148,372,1312,17202.14,26.93,-1.00,-1.0,2368
4934,2139934,16904,248,1532,16975.09,26.98,-1.00,-1.0,2441
4936,2139936,16932,260,1408,16992.43,26.93,-1.00,-1.0,2367
4939,2139939,16936,292,1436,16999.28,26.88,-1.00,-1.0,2365
4944,2139944,17000,428,1416,17064.24,26.98,-1.00,-1.0,2444
4947,2139947,16988,320,1372,17046.32,26.88,-1.00,-1.0,2368
4950,2139950,17036,128,1372,17091.64,26.98,-1.00,-1.0,2441
4952,2139952,17132,-100,1360,17186.19,27.07,-1.00,-1.0,2367
4955,2139955,17036,56,1424,17095.50,26.88,-1.00,-1.0,2436
4958,2139958,17008,148,1436,17069.16,26.84,-1.00,-1.0,2368
4961,2139961,17068,160,1388,17125.09,26.98,-1.00,-1.0,2445
4963,2139963,17056,332,1440,17119.90,26.93,-1.00,-1.0,2354
4968,2139968,16840,640,1456,16914.94,26.93,-1.00,-1.0,2444
4971,2139971,17088,676,1292,17150.10,27.02,-1.00,-1.0,2368
4974,2139974,17012,468,1488,17083.36,27.12,-1.00,-1.0,2434
4977,2139977,16964,360,1372,17023.20,26.93,-1.00,-1.0,2366
4979,2139979,17032,416,1456,17099.18,26.88,-1.00,-1.0,2360
4982,2139982,17072,504,1576,17152.00,26.98,-1.00,-1.0,2435
4985,2139985,17080,528,1452,17149.74,26.93,-1.00,-1.0,2368
4987,2139987,17116,468,1620,17198.86,26.88,-1.00,-1.0,2434
4990,2139990,17032,252,1328,17085.55,26.93,-1.00,-1.0,2375
4996,2139996,17020,268,1336,17074.46,26.88,-1.00,-1.0,2459
4999,2139999,16980,72,1180,17021.10,26.98,-1.00,-1.0,2375
5002,2140002,17008,80,1128,17045.55,26.88,-1.00,-1.0,2439
5004,2140004,17036,360,992,17068.65,26.88,-1.00,-1.0,2368
5007,2140007,16952,448,1140,16996.19,26.98,-1.00,-1.0,2441
5010,2140010,17032,544,1284,17088.99,26.98,-1.00,-1.0,2375
5012,2140012,16912,420,1288,16966.18,26.93,-1.00,-1.0,2371
5015,2140015,17012,528,1456,17082.36,26.84,-1.00,-1.0,2442
5018,2140018,17088,540,1660,17176.93,26.93,-1.00,-1.0,2370
5023,2140023,17040,344,1496,17109.00,26.93,-1.00,-1.0,2452
5025,2140025,17108,8,1500,17173.63,27.02,-1.00,-1.0,2374
5028,2140028,17080,-148,1580,17153.56,26.88,-1.00,-1.0,2435
5031,2140031,17024,16,1424,17083.46,26.93,-1.00,-1.0,2371
5034,2140034,17104,188,1400,17162.23,26.88,-1.00,-1.0,2434
5036,2140036,17068,144,1392,17125.28,26.93,-1.00,-1.0,2375
5039,2140039,16992,108,1348,17045.73,26.98,-1.00,-1.0,2435
5042,2140042,17020,180,1100,17056.46,26.93,-1.00,-1.0,2355
5047,2140047,16944,96,1376,17000.05,27.02,-1.00,-1.0,2451
5050,2140050,17056,236,1524,17125.58,27.02,-1.00,-1.0,2369
5052,2140052,17120,368,1484,17188.14,27.02,-1.00,-1.0,2362
5055,2140055,17108,460,1656,17194.12,26.98,-1.00,-1.0,2435
5058,2140058,17032,512,1780,17132.41,26.93,-1.00,-1.0,2368
5060,2140060,17100,308,1704,17187.45,26.98,-1.00,-1.0,2434
5063,2140063,17060,216,1724,17148.25,26.93,-1.00,-1.0,2370
5066,2140066,17076,288,1748,17167.65,26.88,-1.00,-1.0,2436
5069,2140069,16928,408,1736,17021.67,27.02,-1.00,-1.0,2364
5074,2140074,16988,280,1524,17058.52,26.93,-1.00,-1.0,2451
5076,2140076,17004,392,1360,17062.80,27.02,-1.00,-1.0,2371
5079,2140079,17060,332,1184,17104.26,26.93,-1.00,-1.0,2445
5082,2140082,16892,244,1284,16942.49,26.93,-1.00,-1.0,2375
5085,2140085,16964,88,1288,17013.05,26.93,-1.00,-1.0,2447
5087,2140087,16960,204,1216,17004.76,26.93,-1.00,-1.0,2368
5090,2140090,16984,236,1200,17027.97,26.98,-1.00,-1.0,2364
5093,2140093,17000,192,1448,17062.64,26.88,-1.00,-1.0,2435
5095,2140095,17064,120,1468,17127.45,26.98,-1.00,-1.0,2367
5100,2140100,17060,224,1636,17139.73,26.98,-1.00,-1.0,2444
5103,2140103,16984,284,1556,17057.49,26.98,-1.00,-1.0,2367
5106,2140106,17024,424,1624,17106.54,26.98,-1.00,-1.0,2434
5109,2140109,17080,436,1724,17172.32,26.88,-1.00,-1.0,2367
5111,2140111,16968,392,1660,17053.51,26.88,-1.00,-1.0,2434
5114,2140114,16996,288,1496,17064.14,26.98,-1.00,-1.0,2367
5117,2140117,16868,108,1396,16926.01,26.98,-1.00,-1.0,2435
5120,2140120,16936,132,1492,17002.11,26.88,-1.00,-1.0,2366
5125,2140125,17072,296,1292,17123.38,26.93,-1.00,-1.0,2452
5128,2140128,17040,360,1316,17094.53,26.93,-1.00,-1.0,2366
5130,2140130,17012,448,1360,17072.15,26.88,-1.00,-1.0,2362
5133,2140133,17024,464,1232,17074.83,26.98,-1.00,-1.0,2436
5136,2140136,17020,320,1416,17081.80,26.88,-1.00,-1.0,2373
5138,2140138,17036,176,1460,17099.35,26.98,-1.00,-1.0,2421
5141,2140141,16980,368,1364,17038.67,26.88,-1.00,-1.0,2382
5144,2140144,16992,352,1452,17057.56,26.88,-1.00,-1.0,2436
5147,2140147,17008,304,1372,17065.96,26.88,-1.00,-1.0,2374
5152,2140152,16920,244,1224,16965.97,26.93,-1.00,-1.0,2444
5154,2140154,17004,332,1260,17053.85,26.93,-1.00,-1.0,2369
5157,2140157,17052,356,1304,17105.49,26.98,-1.00,-1.0,2451
5160,2140160,17028,260,1320,17081.06,27.02,-1.00,-1.0,2370
5162,2140162,17068,308,1396,17127.76,26.88,-1.00,-1.0,2371
5165,2140165,17056,480,1504,17128.91,26.98,-1.00,-1.0,2441
5168,2140168,17060,444,1372,17120.84,26.88,-1.00,-1.0,2371
5171,2140171,17060,336,1532,17131.95,26.98,-1.00,-1.0,2443
5174,2140174,16992,388,1452,17058.34,26.93,-1.00,-1.0,2367
5178,2140178,16968,496,1468,17038.61,26.93,-1.00,-1.0,2444
5181,2140181,16984,400,1424,17048.29,26.93,-1.00,-1.0,2368
5184,2140184,17036,232,1276,17085.29,26.93,-1.00,-1.0,2434
5187,2140187,17100,200,1364,17155.48,26.93,-1.00,-1.0,2366
5189,2140189,17072,212,1312,17123.65,27.02,-1.00,-1.0,2435
5192,2140192,17036,172,1428,17096.61,26.93,-1.00,-1.0,2355
5195,2140195,16960,44,1476,17024.16,26.93,-1.00,-1.0,2434
5198,2140198,17000,32,1476,17063.99,26.93,-1.00,-1.0,2365
5201,2140201,16924,28,1652,17004.46,26.88,-1.00,-1.0,2365
5205,2140205,17008,60,1584,17081.71,26.98,-1.00,-1.0,2447
5208,2140208,17016,212,1676,17099.65,26.88,-1.00,-1.0,2370
5211,2140211,17060,384,1640,17142.95,26.98,-1.00,-1.0,2437
5214,2140214,17048,188,1444,17110.08,26.98,-1.00,-1.0,2375
5216,2140216,17096,252,1568,17169.61,26.93,-1.00,-1.0,2423
5219,2140219,17104,412,1460,17171.14,26.98,-1.00,-1.0,2383
5222,2140222,17096,480,1552,17173.01,26.88,-1.00,-1.0,2435
5225,2140225,16980,544,1396,17045.97,26.98,-1.00,-1.0,2370
5229,2140229,17040,336,1420,17102.37,27.02,-1.00,-1.0,2452
5232,2140232,17064,292,1572,17138.74,27.07,-1.00,-1.0,2371
5235,2140235,16976,292,1448,17040.14,26.88,-1.00,-1.0,2435
5238,2140238,17120,292,1436,17182.60,26.98,-1.00,-1.0,2371
5240,2140240,17020,156,1380,17076.57,27.02,-1.00,-1.0,2360
5243,2140243,17028,228,1448,17090.98,26.93,-1.00,-1.0,2435
5246,2140246,17128,260,1548,17199.78,26.93,-1.00,-1.0,2366
5249,2140249,17156,352,1344,17212.16,26.84,-1.00,-1.0,2434
5252,2140252,17128,384,1576,17204.64,26.84,-1.00,-1.0,2368
5257,2140257,17056,268,1348,17111.29,26.98,-1.00,-1.0,2449
5259,2140259,16976,340,1372,17034.75,26.88,-1.00,-1.0,2377
5262,2140262,16944,524,1432,17012.48,27.02,-1.00,-1.0,2442
5265,2140265,16960,548,1316,17019.80,26.98,-1.00,-1.0,2374
5268,2140268,17040,472,1384,17102.63,26.93,-1.00,-1.0,2446
5270,2140270,17084,324,1372,17142.07,26.88,-1.00,-1.0,2379
5273,2140273,17056,252,1276,17105.52,27.02,-1.00,-1.0,2442
5276,2140276,16964,228,1308,17015.88,26.98,-1.00,-1.0,2372
5279,2140279,17060,284,1460,17124.71,26.93,-1.00,-1.0,2360
5284,2140284,17056,-4,1468,17119.06,27.02,-1.00,-1.0,2448
5286,2140286,17056,96,1504,17122.45,26.93,-1.00,-1.0,2379
5289,2140289,16996,236,1316,17048.51,27.02,-1.00,-1.0,2442
5292,2140292,17156,308,1312,17208.85,26.98,-1.00,-1.0,2370
5295,2140295,17024,244,1356,17079.66,26.93,-1.00,-1.0,2445
5297,2140297,17072,248,1524,17141.68,26.93,-1.00,-1.0,2376
5300,2140300,17584,1972,-11716,21221.46,27.02,-1.00,-1.0,2442
5303,2140303,-5832,4984,-16508,18203.48,26.88,-1.00,-1.0,2371
5308,2140308,19940,12352,-4116,23814.22,26.98,-1.00,-1.0,2453
5310,2140310,14692,16440,-6604,23016.11,26.98,-1.00,-1.0,2367
5313,2140313,9152,-18832,-7468,22230.03,26.93,-1.00,-1.0,2449
5316,2140316,24772,-26772,-664,36480.58,26.98,-1.00,-1.0,2367
5319,2140319,-368,8956,5036,10281.37,26.88,-1.00,-1.0,2442
5321,2140321,27396,16264,3168,32017.10,26.88,-1.00,-1.0,2367
5324,2140324,4708,-1752,7780,9260.84,27.02,-1.00,-1.0,2368
5327,2140327,27744,3652,1916,28048.85,26.93,-1.00,-1.0,2436
5330,2140330,8684,17476,12032,22925.78,26.98,-1.00,-1.0,2365
5335,2140335,12228,-9636,-3720,16006.71,26.88,-1.00,-1.0,2439
5337,2140337,12352,-14064,2528,18888.06,26.93,-1.00,-1.0,2370
5340,2140340,19056,1248,2560,19267.65,26.98,-1.00,-1.0,2435
5343,2140343,15800,11004,6512,20325.70,26.93,-1.00,-1.0,2371
5346,2140346,15324,-1208,-12,15371.54,26.79,-1.00,-1.0,2436
5348,2140348,14656,-1472,448,14736.55,26.93,-1.00,-1.0,2375
5351,2140351,17716,-6124,3764,19118.78,26.88,-1.00,-1.0,2435
5354,2140354,15756,-508,-2748,16001.91,26.93,-1.00,-1.0,2369
5359,2140359,17308,-2412,1420,17532.86,26.93,-1.00,-1.0,2448
5362,2140362,17748,12584,3588,22050.45,26.93,-1.00,-1.0,2373
5364,2140364,15040,9124,1108,17626.02,26.98,-1.00,-1.0,2444
5367,2140367,18204,-4228,-616,18698.69,26.93,-1.00,-1.0,2381
5370,2140370,15132,-1708,2884,15498.78,26.98,-1.00,-1.0,2436
5373,2140373,18592,6444,2800,19875.30,26.93,-1.00,-1.0,2374
5375,2140375,15356,4028,1568,15952.75,26.88,-1.00,-1.0,2437
5378,2140378,18584,-5576,-1648,19472.36,27.02,-1.00,-1.0,2381
5383,2140383,17600,3240,3216,18182.42,26.93,-1.00,-1.0,2461
5386,2140386,17744,8156,-136,19529.17,26.93,-1.00,-1.0,2371
5388,2140388,15180,184,3480,15574.87,26.98,-1.00,-1.0,2364
5391,2140391,18588,-12648,-2052,22576.46,26.98,-1.00,-1.0,2436
5394,2140394,14668,-2948,1628,15049.63,26.98,-1.00,-1.0,2354
5397,2140397,19020,6000,2464,20095.56,26.98,-1.00,-1.0,2444
5399,2140399,17252,3880,3140,17959.55,26.98,-1.00,-1.0,2373
5402,2140402,16504,1804,2184,16745.34,26.88,-1.00,-1.0,2436
5405,2140405,17392,3064,1312,17708.50,26.88,-1.00,-1.0,2366
5410,2140410,19852,-148,700,19864.89,26.88,-1.00,-1.0,2448
5412,2140412,11396,-2936,2460,12022.50,26.98,-1.00,-1.0,2368
5415,2140415,21412,-3140,-332,21643.56,26.98,-1.00,-1.0,2423
5418,2140418,13720,2040,328,13874.71,26.88,-1.00,-1.0,2369
5421,2140421,17648,2304,2620,17989.57,26.98,-1.00,-1.0,2435
5423,2140423,13840,-860,2140,14030.85,27.07,-1.00,-1.0,2373
5426,2140426,19548,-1024,1860,19662.97,26.98,-1.00,-1.0,2436
5429,2140429,17044,296,-184,17047.56,26.88,-1.00,-1.0,2369
5432,2140432,16844,-1616,2152,17057.63,26.93,-1.00,-1.0,2366
5437,2140437,18532,332,1776,18619.87,26.98,-1.00,-1.0,2452
5439,2140439,13708,5048,3428,15004.76,26.93,-1.00,-1.0,2370
5442,2140442,19872,5684,2232,20789.09,26.98,-1.00,-1.0,2430
5445,2140445,14392,828,1908,14541.52,26.93,-1.00,-1.0,2372
5448,2140448,18020,-4860,-244,18665.46,26.98,-1.00,-1.0,2444
5450,2140450,14736,-2268,220,14911.13,26.93,-1.00,-1.0,2370
5453,2140453,18616,4856,1408,19290.38,26.98,-1.00,-1.0,2450
5456,2140456,15580,2124,1956,15845.31,26.98,-1.00,-1.0,2368
5461,2140461,17488,-5008,504,18197.92,26.88,-1.00,-1.0,2452
5464,2140464,18020,5088,1432,18779.21,26.93,-1.00,-1.0,2366
5466,2140466,17056,4468,2076,17753.31,26.98,-1.00,-1.0,2446
5469,2140469,17400,-6632,80,18621.22,26.98,-1.00,-1.0,2373
5472,2140472,15080,-6380,1680,16460.05,26.98,-1.00,-1.0,2444
5475,2140475,18176,5936,2876,19335.83,26.84,-1.00,-1.0,2366
5477,2140477,16056,9472,3052,18889.91,26.98,-1.00,-1.0,2447
5480,2140480,18872,1400,852,18943.03,26.98,-1.00,-1.0,2365
5483,2140483,16108,-4056,284,16613.23,26.98,-1.00,-1.0,2363
5488,2140488,16512,3424,1580,16937.13,26.98,-1.00,-1.0,2454
5491,2140491,17576,2136,1276,17751.24,27.07,-1.00,-1.0,2372
5493,2140493,16780,-780,1960,16912.08,26.88,-1.00,-1.0,2444
5496,2140496,16848,-1864,1452,17012.88,26.98,-1.00,-1.0,2372
5499,2140499,17000,-508,1008,17037.43,27.02,-1.00,-1.0,2463
5502,2140502,17584,2224,2224,17863.07,26.93,-1.00,-1.0,2365
5505,2140505,17044,1176,1788,17177.83,27.07,-1.00,-1.0,2441
5507,2140507,17496,-1392,1184,17591.18,26.93,-1.00,-1.0,2362
5512,2140512,17168,-616,1404,17236.32,26.93,-1.00,-1.0,2448
5515,2140515,16292,1540,1996,16485.90,26.93,-1.00,-1.0,2363
5518,2140518,17364,756,1388,17435.79,27.02,-1.00,-1.0,2444
5520,2140520,16704,1848,1416,16865.46,27.02,-1.00,-1.0,2361
5523,2140523,16908,1984,1704,17109.07,26.93,-1.00,-1.0,2440
5526,2140526,16788,-728,772,16821.50,26.93,-1.00,-1.0,2365
5528,2140528,17076,-2164,484,17219.38,27.02,-1.00,-1.0,2360
5531,2140531,16640,-260,1436,16703.87,26.98,-1.00,-1.0,2441
5534,2140534,16936,3132,1980,17336.61,26.93,-1.00,-1.0,2363
5539,2140539,17224,-612,1260,17280.87,27.12,-1.00,-1.0,2454
5542,2140542,16528,-1856,1708,16719.35,26.98,-1.00,-1.0,2363
5545,2140545,17560,-388,1292,17611.74,26.84,-1.00,-1.0,2448
5547,2140547,16728,656,1692,16826.15,27.02,-1.00,-1.0,2370
5550,2140550,17560,-628,1500,17635.13,26.93,-1.00,-1.0,2440
5553,2140553,16900,-1104,1984,17051.83,27.02,-1.00,-1.0,2362
5556,2140556,17508,1176,1572,17617.72,26.84,-1.00,-1.0,2452
5558,2140558,16876,1384,1552,17003.63,26.93,-1.00,-1.0,2370
5563,2140563,16764,-1092,1024,16830.71,26.98,-1.00,-1.0,2458
5566,2140566,16860,-96,668,16873.50,26.98,-1.00,-1.0,2369
5569,2140569,16660,3052,1316,16988.29,26.93,-1.00,-1.0,2450
5572,2140572,17272,3252,1384,17629.89,26.98,-1.00,-1.0,2364
5574,2140574,16764,1044,1524,16865.47,26.93,-1.00,-1.0,2452
5577,2140577,16816,-248,1844,16918.62,26.98,-1.00,-1.0,2369
5580,2140580,16896,-248,1476,16962.16,26.93,-1.00,-1.0,2360
5582,2140582,17280,272,1796,17375.21,26.93,-1.00,-1.0,2440
5585,2140585,17052,-376,1488,17120.93,26.93,-1.00,-1.0,2366
5590,2140590,17216,-1572,1168,17327.03,26.93,-1.00,-1.0,2462
5593,2140593,17340,84,2060,17462.14,27.02,-1.00,-1.0,2370
5596,2140596,16940,684,1712,17040.02,26.93,-1.00,-1.0,2449
5598,2140598,16696,-700,1064,16744.51,26.93,-1.00,-1.0,2366
5601,2140601,16384,-1152,1092,16460.71,26.93,-1.00,-1.0,2450
5604,2140604,16784,132,1096,16820.26,26.93,-1.00,-1.0,2370
5607,2140607,16588,1764,1528,16751.37,26.93,-1.00,-1.0,2450
5609,2140609,17236,1272,1164,17322.03,26.93,-1.00,-1.0,2364
5614,2140614,17280,1656,1752,17447.36,26.93,-1.00,-1.0,2453
5617,2140617,16996,1360,1748,17139.69,26.93,-1.00,-1.0,2363
5620,2140620,17112,-324,1700,17199.29,26.88,-1.00,-1.0,2449
5622,2140622,16912,-1024,1680,17026.06,26.93,-1.00,-1.0,2370
5625,2140625,17036,-676,1360,17103.56,27.07,-1.00,-1.0,2360
5628,2140628,17060,-24,1320,17111.01,26.98,-1.00,-1.0,2444
5630,2140630,17052,-416,1532,17125.73,27.07,-1.00,-1.0,2362
5633,2140633,16816,-740,1536,16902.21,26.98,-1.00,-1.0,2440
5636,2140636,16748,-764,1608,16842.35,26.98,-1.00,-1.0,2363
5641,2140641,17104,728,1136,17157.13,26.84,-1.00,-1.0,2455
5643,2140643,17136,1308,1548,17255.42,26.88,-1.00,-1.0,2364
5646,2140646,17148,688,1448,17222.77,26.93,-1.00,-1.0,2447
5649,2140649,17172,536,1480,17243.99,26.88,-1.00,-1.0,2363
5652,2140652,16812,924,1896,16943.79,26.93,-1.00,-1.0,2446
5654,2140654,17176,1680,1540,17326.54,26.88,-1.00,-1.0,2362
5657,2140657,16888,1004,1440,16978.99,27.02,-1.00,-1.0,2444
5660,2140660,17024,-108,888,17047.49,26.93,-1.00,-1.0,2363
5665,2140665,16872,240,1608,16950.15,26.93,-1.00,-1.0,2447
5668,2140668,16956,332,1924,17068.04,26.88,-1.00,-1.0,2362
5670,2140670,17088,-724,1556,17173.96,26.93,-1.00,-1.0,2362
5673,2140673,17196,-960,1524,17290.07,26.93,-1.00,-1.0,2456
5676,2140676,17120,-112,1520,17187.71,26.93,-1.00,-1.0,2369
5679,2140679,17260,308,1156,17301.41,26.93,-1.00,-1.0,2452
5681,2140681,17068,-24,1272,17115.35,26.93,-1.00,-1.0,2364
5684,2140684,16952,-52,1488,17017.26,26.98,-1.00,-1.0,2449
5687,2140687,16732,772,1404,16808.54,26.93,-1.00,-1.0,2370
5692,2140692,16764,2184,1124,16942.99,27.02,-1.00,-1.0,2447
5695,2140695,16716,876,1244,16785.10,26.93,-1.00,-1.0,2370
5698,2140698,16848,-692,1140,16900.70,26.93,-1.00,-1.0,2440
5700,2140700,17144,-852,1180,17205.67,26.93,-1.00,-1.0,2363
5703,2140703,17148,-528,1428,17215.46,26.93,-1.00,-1.0,2440
5706,2140706,17296,260,1592,17371.06,26.93,-1.00,-1.0,2362
5708,2140708,17256,276,1732,17344.90,26.93,-1.00,-1.0,2363
5711,2140711,17032,276,1728,17121.66,26.98,-1.00,-1.0,2447
5714,2140714,17096,-248,1552,17168.09,27.07,-1.00,-1.0,2378
5719,2140719,16864,252,1488,16931.39,27.02,-1.00,-1.0,2447
5722,2140722,16868,652,1196,16922.91,26.93,-1.00,-1.0,2372
5725,2140725,17024,896,960,17074.57,26.88,-1.00,-1.0,2454
5727,2140727,17028,1704,1020,17143.42,27.02,-1.00,-1.0,2364
5730,2140730,17064,1648,1140,17181.26,26.98,-1.00,-1.0,2454
5733,2140733,16892,764,1412,16968.12,27.02,-1.00,-1.0,2368
5736,2140736,16908,-432,1260,16960.39,26.98,-1.00,-1.0,2455
5738,2140738,16952,-724,1624,17044.99,26.88,-1.00,-1.0,2370
5743,2140743,17004,-208,1748,17094.88,26.93,-1.00,-1.0,2448
5746,2140746,17224,-228,1760,17315.19,27.07,-1.00,-1.0,2428
5749,2140749,17164,236,1748,17254.39,27.02,-1.00,-1.0,2438
5752,2140752,17164,360,1712,17252.93,26.93,-1.00,-1.0,2372
5754,2140754,16976,-412,1424,17040.60,26.93,-1.00,-1.0,2361
5757,2140757,17020,-668,1152,17072.02,26.88,-1.00,-1.0,2439
5760,2140760,16880,468,1264,16933.73,26.93,-1.00,-1.0,2380
5763,2140763,16948,1676,1488,17095.55,26.88,-1.00,-1.0,2431
5765,2140765,16928,1364,1816,17079.68,27.02,-1.00,-1.0,2373
5770,2140770,16928,-260,1580,17003.56,27.02,-1.00,-1.0,2443
5773,2140773,17048,88,1660,17128.85,26.93,-1.00,-1.0,2366
5776,2140776,17324,320,1600,17400.67,26.93,-1.00,-1.0,2441
5778,2140778,17176,-220,1436,17237.33,26.93,-1.00,-1.0,2367
5781,2140781,17080,-396,1616,17160.85,26.93,-1.00,-1.0,2438
5784,2140784,17036,112,1644,17115.51,26.93,-1.00,-1.0,2371
5787,2140787,16936,968,1660,17044.67,26.93,-1.00,-1.0,2442
5789,2140789,16872,712,1484,16952.10,26.93,-1.00,-1.0,2366
5792,2140792,16856,-132,1120,16893.68,26.93,-1.00,-1.0,2360
5797,2140797,16964,-160,936,16990.56,27.02,-1.00,-1.0,2449
5800,2140800,17024,468,1204,17072.94,26.98,-1.00,-1.0,2369
5803,2140803,17156,1176,1276,17243.54,26.93,-1.00,-1.0,2451
5805,2140805,17072,880,1240,17139.58,26.98,-1.00,-1.0,2374
5808,2140808,16968,140,1332,17020.78,26.84,-1.00,-1.0,2436
5811,2140811,16948,144,1372,17004.05,26.88,-1.00,-1.0,2366
5814,2140814,16868,476,1264,16921.99,26.93,-1.00,-1.0,2445
5816,2140816,16800,0,1540,16870.44,26.88,-1.00,-1.0,2374
5823,2140823,17124,352,1428,17187.04,26.93,-1.00,-1.0,2441
5826,2140826,17312,932,1832,17433.59,27.02,-1.00,-1.0,2367
5829,2140829,17244,788,1692,17344.72,26.93,-1.00,-1.0,2433
5831,2140831,17112,-188,1400,17170.20,26.88,-1.00,-1.0,2373
5834,2140834,17108,-464,1096,17149.35,27.02,-1.00,-1.0,2360
5837,2140837,17012,336,1020,17045.86,26.98,-1.00,-1.0,2443
5839,2140839,16884,752,1280,16949.14,27.02,-1.00,-1.0,2366
5842,2140842,16840,188,1208,16884.32,26.88,-1.00,-1.0,2437
5845,2140845,16772,-324,1320,16826.98,27.02,-1.00,-1.0,2366
5850,2140850,16964,428,1536,17038.77,26.98,-1.00,-1.0,2448
5852,2140852,17044,700,1548,17128.46,26.98,-1.00,-1.0,2368
5855,2140855,17180,68,1472,17243.08,26.98,-1.00,-1.0,2440
5858,2140858,17176,-264,1528,17245.85,26.98,-1.00,-1.0,2367
5861,2140861,17092,-108,1492,17157.34,26.98,-1.00,-1.0,2439
5863,2140863,17112,292,1620,17190.99,26.98,-1.00,-1.0,2368
5866,2140866,16812,552,1612,16898.12,26.98,-1.00,-1.0,2436
5869,2140869,16904,496,1496,16977.32,26.98,-1.00,-1.0,2367
5874,2140874,17024,380,1364,17082.78,26.93,-1.00,-1.0,2441
5877,2140877,17044,516,1396,17108.86,26.93,-1.00,-1.0,2367
5879,2140879,17096,448,1376,17157.13,26.88,-1.00,-1.0,2348
5882,2140882,17036,372,1460,17102.49,26.98,-1.00,-1.0,2438
5885,2140885,16972,-232,1292,17022.69,26.88,-1.00,-1.0,2367
5887,2140887,16892,-568,1284,16950.25,26.98,-1.00,-1.0,2421
5890,2140890,17036,-168,1416,17095.57,26.93,-1.00,-1.0,2367
5893,2140893,17048,428,1608,17129.02,26.98,-1.00,-1.0,2438
5896,2140896,17028,756,1664,17125.80,26.93,-1.00,-1.0,2367
5901,2140901,17024,100,1364,17078.85,26.93,-1.00,-1.0,2447
5903,2140903,17020,420,1176,17065.75,26.93,-1.00,-1.0,2378
5906,2140906,17076,588,1340,17138.59,26.88,-1.00,-1.0,2438
5909,2140909,16980,404,1252,17030.89,26.93,-1.00,-1.0,2368
5912,2140912,16932,296,1240,16979.92,26.98,-1.00,-1.0,2444
5914,2140914,16960,800,1552,17049.64,26.93,-1.00,-1.0,2374
5917,2140917,16896,912,1560,16992.36,26.98,-1.00,-1.0,2360
5920,2140920,16912,332,1556,16986.67,26.98,-1.00,-1.0,2443
5922,2140922,17092,-300,1464,17157.21,26.98,-1.00,-1.0,2367
5927,2140927,17184,356,1612,17263.12,26.98,-1.00,-1.0,2443
5930,2140930,17144,572,1712,17238.76,26.93,-1.00,-1.0,2374
5933,2140933,17160,356,1592,17237.37,26.88,-1.00,-1.0,2441
5936,2140936,17052,304,1520,17122.31,26.93,-1.00,-1.0,2367
5938,2140938,16964,656,1480,17041.07,26.88,-1.00,-1.0,2436
5941,2140941,16800,684,1408,16872.77,26.93,-1.00,-1.0,2375
5944,2140944,16876,380,1308,16930.88,26.88,-1.00,-1.0,2435
5947,2140947,16788,312,1492,16857.06,26.93,-1.00,-1.0,2369
5952,2140952,17056,560,1416,17123.84,26.84,-1.00,-1.0,2446
5954,2140954,17064,344,1424,17126.77,26.93,-1.00,-1.0,2370
5957,2140957,17128,64,1372,17182.98,27.07,-1.00,-1.0,2363
5960,2140960,17136,-416,1428,17200.43,26.98,-1.00,-1.0,2437
5962,2140962,17012,-240,1488,17078.64,26.98,-1.00,-1.0,2375
5965,2140965,17108,136,1640,17186.96,26.98,-1.00,-1.0,2436
5968,2140968,17024,292,1592,17100.77,26.98,-1.00,-1.0,2367
5971,2140971,16944,532,1688,17036.18,26.98,-1.00,-1.0,2446
5973,2140973,16960,728,1340,17028.42,26.88,-1.00,-1.0,2375
5979,2140979,16980,560,1164,17029.06,27.02,-1.00,-1.0,2439
5981,2140981,16960,260,1400,17019.67,26.98,-1.00,-1.0,2368
5984,2140984,16992,256,1620,17070.97,27.02,-1.00,-1.0,2438
5987,2140987,16976,456,1508,17048.95,26.93,-1.00,-1.0,2376
5990,2140990,17132,724,1600,17221.78,27.02,-1.00,-1.0,2434
5992,2140992,17040,544,1480,17112.80,26.88,-1.00,-1.0,2367
5995,2140995,17124,220,1532,17193.80,26.93,-1.00,-1.0,2367
5998,2140998,16984,-96,1532,17053.22,26.98,-1.00,-1.0,2449
6000,2141000,16912,-116,1400,16970.24,26.93,-1.00,-1.0,2371
6005,2141005,17012,-80,1144,17050.61,26.93,-1.00,-1.0,2441
6008,2141008,17036,180,1124,17073.99,26.93,-1.00,-1.0,2367
6011,2141011,17048,348,1400,17108.93,27.02,-1.00,-1.0,2449
6013,2141013,17096,404,1400,17157.98,27.02,-1.00,-1.0,2368
6016,2141016,16940,356,1360,16998.23,26.93,-1.00,-1.0,2437
6019,2141019,16956,280,1420,17017.66,26.93,-1.00,-1.0,2367
6022,2141022,16868,220,1372,16925.13,27.02,-1.00,-1.0,2438
6024,2141024,16968,364,1408,17030.21,27.02,-1.00,-1.0,2367
6029,2141029,16984,332,1356,17041.28,26.93,-1.00,-1.0,2442
6032,2141032,17220,-44,1504,17285.61,26.93,-1.00,-1.0,2367
6035,2141035,17148,-104,1376,17203.43,27.02,-1.00,-1.0,2360
6037,2141037,17088,-196,1452,17150.70,26.88,-1.00,-1.0,2450
6040,2141040,17092,4,1496,17157.35,26.88,-1.00,-1.0,2376
6043,2141043,17036,-12,1432,17096.08,26.88,-1.00,-1.0,2441
6045,2141045,17020,12,1540,17089.53,27.02,-1.00,-1.0,2367
6048,2141048,16880,224,1492,16947.29,26.88,-1.00,-1.0,2447
6051,2141051,16928,624,1540,17009.36,27.02,-1.00,-1.0,2368
6056,2141056,17016,472,1408,17080.68,26.98,-1.00,-1.0,2446
6058,2141058,17036,300,1472,17102.11,26.93,-1.00,-1.0,2367
6061,2141061,16984,212,1520,17053.20,26.88,-1.00,-1.0,2453
6064,2141064,17036,332,1540,17108.69,26.88,-1.00,-1.0,2368
6067,2141067,17112,496,1580,17191.95,26.98,-1.00,-1.0,2444
6069,2141069,17112,468,1612,17194.13,27.02,-1.00,-1.0,2367
6072,2141072,16992,236,1576,17066.56,26.98,-1.00,-1.0,2375
6075,2141075,16996,256,1400,17055.48,27.02,-1.00,-1.0,2435
6078,2141078,16932,216,1516,17001.10,26.88,-1.00,-1.0,2376
