timestamp_ms,global_ms,accel_x,accel_y,accel_z,accel_mag,temp_c,voltage,soc,loop_us
3,2135003,15124,1876,2280,15409.51,27.07,-1.00,-1.0,2482
9,2135009,11100,3868,1880,11904.03,27.12,-1.00,-1.0,2472
12,2135012,21328,2660,-28,21493.25,27.02,-1.00,-1.0,2349
15,2135015,12524,-724,1704,12660.11,27.12,-1.00,-1.0,2438
17,2135017,20668,-776,-696,20694.27,26.98,-1.00,-1.0,2372
20,2135020,16128,-672,-452,16148.32,27.02,-1.00,-1.0,2357
23,2135023,17236,2312,2460,17563.50,27.02,-1.00,-1.0,2445
25,2135025,15880,-1280,1832,16036.49,27.02,-1.00,-1.0,2361
28,2135028,18376,1512,1440,18494.25,27.12,-1.00,-1.0,2440
31,2135031,16616,1704,1440,16765.10,27.02,-1.00,-1.0,2359
36,2135036,16392,-4748,1924,17173.90,26.93,-1.00,-1.0,2456
39,2135039,18824,-2060,1924,19033.87,27.07,-1.00,-1.0,2366
41,2135041,15452,4692,3380,16498.59,27.07,-1.00,-1.0,2451
44,2135044,18304,5628,3628,19490.34,27.17,-1.00,-1.0,2366
47,2135047,16400,2592,2588,16804.05,27.12,-1.00,-1.0,2442
50,2135050,16232,-2768,288,16468.84,27.07,-1.00,-1.0,2358
52,2135052,16776,-1820,548,16883.33,27.02,-1.00,-1.0,2363
55,2135055,16404,3608,932,16821.94,27.02,-1.00,-1.0,2441
58,2135058,17260,5364,1348,18124.49,27.02,-1.00,-1.0,2364
63,2135063,18044,-6280,-488,19111.84,27.07,-1.00,-1.0,2447
65,2135065,17412,2076,652,17547.44,27.07,-1.00,-1.0,2360
68,2135068,17808,6868,1632,19156.14,27.07,-1.00,-1.0,2440
71,2135071,16744,-2492,592,16938.77,27.07,-1.00,-1.0,2373
74,2135074,16736,-9780,536,19391.48,26.98,-1.00,-1.0,2434
76,2135076,16360,1376,3044,16697.57,26.98,-1.00,-1.0,2366
79,2135079,18600,8092,3360,20560.40,27.02,-1.00,-1.0,2363
82,2135082,16460,3524,2044,16956.65,27.12,-1.00,-1.0,2454
84,2135084,18612,-3804,512,19003.66,27.07,-1.00,-1.0,2363
89,2135089,17100,2676,1420,17366.27,27.07,-1.00,-1.0,2450
92,2135092,17244,3728,1308,17690.80,27.07,-1.00,-1.0,2358
95,2135095,16596,1708,1740,16774.15,27.07,-1.00,-1.0,2443
97,2135097,16860,-988,1936,16999.53,26.98,-1.00,-1.0,2360
100,2135100,16424,-188,352,16428.85,26.98,-1.00,-1.0,2441
103,2135103,17720,664,656,17744.57,27.07,-1.00,-1.0,2359
106,2135106,16992,2600,2284,17340.84,27.07,-1.00,-1.0,2445
108,2135108,17472,920,1440,17555.36,27.17,-1.00,-1.0,2361
111,2135111,17744,-2012,1588,17928.17,27.07,-1.00,-1.0,2363
116,2135116,17260,-900,2092,17409.60,27.07,-1.00,-1.0,2448
119,2135119,17052,760,2820,17300.31,27.07,-1.00,-1.0,2364
121,2135121,17252,392,2148,17389.62,27.07,-1.00,-1.0,2435
124,2135124,17176,1152,2436,17386.09,26.98,-1.00,-1.0,2429
127,2135127,16216,476,1700,16311.81,27.07,-1.00,-1.0,2429
130,2135130,16620,-1196,832,16683.74,27.02,-1.00,-1.0,2372
133,2135133,16428,-1196,680,16485.51,27.07,-1.00,-1.0,2436
135,2135135,16912,2496,1564,17166.59,27.02,-1.00,-1.0,2380
140,2135140,16936,1012,556,16975.32,27.02,-1.00,-1.0,2454
143,2135143,16480,-1956,928,16621.60,27.02,-1.00,-1.0,2360
146,2135146,16468,-1520,1152,16578.07,27.02,-1.00,-1.0,2448
148,2135148,17480,980,1216,17549.63,27.02,-1.00,-1.0,2361
151,2135151,16928,-272,824,16950.22,27.02,-1.00,-1.0,2368
154,2135154,17712,-2552,1308,17942.64,27.07,-1.00,-1.0,2437
157,2135157,16924,-1560,1872,17098.53,27.02,-1.00,-1.0,2367
159,2135159,17320,1704,1816,17498.11,26.98,-1.00,-1.0,2446
162,2135162,17168,404,1496,17237.79,27.02,-1.00,-1.0,2377
167,2135167,16656,-680,536,16678.49,27.02,-1.00,-1.0,2444
170,2135170,16996,1648,816,17095.20,27.12,-1.00,-1.0,2368
173,2135173,16624,3720,932,17060.61,27.02,-1.00,-1.0,2437
175,2135175,17516,2772,976,17760.82,27.07,-1.00,-1.0,2363
178,2135178,16296,1080,1584,16408.38,26.93,-1.00,-1.0,2436
181,2135181,16992,240,1240,17038.88,26.93,-1.00,-1.0,2366
183,2135183,17032,60,1380,17087.92,27.07,-1.00,-1.0,2423
186,2135186,17304,244,1556,17375.53,26.88,-1.00,-1.0,2457
189,2135189,17036,-1012,1468,17129.05,27.02,-1.00,-1.0,2367
194,2135194,17340,-1264,2080,17509.99,27.02,-1.00,-1.0,2444
197,2135197,17212,-104,2580,17404.60,26.93,-1.00,-1.0,2373
200,2135200,17028,-264,1800,17124.91,27.12,-1.00,-1.0,2438
202,2135202,16604,-1900,1224,16757.12,27.07,-1.00,-1.0,2367
205,2135205,16788,-1112,1216,16868.67,27.02,-1.00,-1.0,2435
208,2135208,16740,1028,1300,16821.84,26.93,-1.00,-1.0,2366
210,2135210,16792,2140,1252,16974.05,26.93,-1.00,-1.0,2441
213,2135213,17284,792,1004,17331.24,27.07,-1.00,-1.0,2367
218,2135218,17116,2392,1460,17343.90,27.02,-1.00,-1.0,2444
221,2135221,17008,1928,1532,17185.35,27.12,-1.00,-1.0,2372
223,2135223,16888,-52,1824,16986.29,27.07,-1.00,-1.0,2365
226,2135226,17000,-1020,1668,17112.06,26.88,-1.00,-1.0,2447
229,2135229,17176,-132,1516,17243.28,27.17,-1.00,-1.0,2374
232,2135232,17096,552,1536,17173.74,26.98,-1.00,-1.0,2448
234,2135234,17048,-964,1856,17175.81,26.98,-1.00,-1.0,2372
237,2135237,16692,-1728,1556,16853.19,27.07,-1.00,-1.0,2447
240,2135240,16940,-1012,1372,17025.57,27.07,-1.00,-1.0,2375
245,2135245,17080,1000,1048,17141.32,27.07,-1.00,-1.0,2453
247,2135247,17032,772,944,17075.60,27.07,-1.00,-1.0,2368
250,2135250,17048,252,972,17077.55,26.98,-1.00,-1.0,2446
253,2135253,16908,372,956,16939.09,26.98,-1.00,-1.0,2375
255,2135255,16956,1612,1164,17072.18,26.98,-1.00,-1.0,2365
258,2135258,16932,2300,1324,17138.72,27.07,-1.00,-1.0,2436
261,2135261,16740,1588,1100,16851.09,26.98,-1.00,-1.0,2369
264,2135264,17040,-92,856,17061.73,26.93,-1.00,-1.0,2444
267,2135267,16936,248,1528,17006.60,27.02,-1.00,-1.0,2366
272,2135272,17096,8,1892,17200.38,27.02,-1.00,-1.0,2445
274,2135274,17228,-1116,1664,17344.12,27.02,-1.00,-1.0,2361
277,2135277,17228,-412,1656,17312.31,26.93,-1.00,-1.0,2438
280,2135280,17432,532,1404,17496.54,27.02,-1.00,-1.0,2370
283,2135283,17280,164,1208,17322.95,27.02,-1.00,-1.0,2437
285,2135285,17008,-368,1464,17074.86,27.02,-1.00,-1.0,2369
288,2135288,16680,388,1464,16748.62,27.12,-1.00,-1.0,2437
291,2135291,16820,1840,1244,16966.01,27.12,-1.00,-1.0,2369
294,2135294,16852,2244,948,17027.16,27.12,-1.00,-1.0,2361
299,2135299,16796,568,1104,16841.82,27.02,-1.00,-1.0,2445
301,2135301,16916,-504,1296,16973.06,27.02,-1.00,-1.0,2367
304,2135304,17132,-904,1608,17231.03,27.12,-1.00,-1.0,2424
307,2135307,17152,-436,1940,17266.87,27.02,-1.00,-1.0,2366
310,2135310,17256,-84,1976,17368.97,27.02,-1.00,-1.0,2437
312,2135312,17184,36,2164,17319.76,27.02,-1.00,-1.0,2374
315,2135315,17104,-396,1856,17208.96,27.02,-1.00,-1.0,2438
318,2135318,16960,-452,1944,17077.03,27.12,-1.00,-1.0,2368
323,2135323,16952,400,1388,17013.43,27.12,-1.00,-1.0,2449
326,2135326,16948,616,1416,17018.20,26.98,-1.00,-1.0,2372
328,2135328,16960,1464,1224,17067.02,27.02,-1.00,-1.0,2362
331,2135331,16980,1908,1060,17119.71,27.02,-1.00,-1.0,2423
334,2135334,16908,1628,1236,17031.11,27.02,-1.00,-1.0,2369
336,2135336,16836,556,1180,16886.46,27.02,-1.00,-1.0,2438
339,2135339,16884,-176,1128,16922.55,27.12,-1.00,-1.0,2369
342,2135342,16920,-476,1456,16989.20,27.12,-1.00,-1.0,2438
345,2135345,16888,-400,1736,16981.70,27.07,-1.00,-1.0,2363
350,2135350,17276,-16,1708,17360.23,27.07,-1.00,-1.0,2445
353,2135353,17152,128,1600,17226.94,27.02,-1.00,-1.0,2367
355,2135355,16976,-336,1520,17047.22,27.07,-1.00,-1.0,2437
358,2135358,16916,-1160,1284,17004.27,27.02,-1.00,-1.0,2365
361,2135361,16912,-776,1320,16981.18,26.98,-1.00,-1.0,2361
363,2135363,17032,880,1336,17106.97,27.07,-1.00,-1.0,2438
366,2135366,17008,2016,1564,17198.33,27.07,-1.00,-1.0,2354
369,2135369,17012,904,1636,17114.38,27.07,-1.00,-1.0,2436
372,2135372,16996,-16,1684,17079.23,27.12,-1.00,-1.0,2429
377,2135377,17200,848,1676,17302.26,27.02,-1.00,-1.0,2453
380,2135380,17348,924,1560,17442.49,27.12,-1.00,-1.0,2369
382,2135382,17188,124,1548,17258.01,27.07,-1.00,-1.0,2437
385,2135385,17028,-32,1564,17099.71,27.02,-1.00,-1.0,2368
388,2135388,16932,716,1688,17030.99,27.07,-1.00,-1.0,2438
391,2135391,16936,1076,1704,17055.48,27.02,-1.00,-1.0,2367
393,2135393,16940,608,1352,17004.74,27.07,-1.00,-1.0,2437
396,2135396,16940,-360,904,16967.92,27.02,-1.00,-1.0,2373
399,2135399,16952,-824,948,16998.47,27.12,-1.00,-1.0,2368
404,2135404,17016,708,1168,17070.73,27.02,-1.00,-1.0,2456
406,2135406,17072,800,1156,17129.79,27.07,-1.00,-1.0,2367
409,2135409,16944,200,1188,16986.77,27.12,-1.00,-1.0,2446
412,2135412,16976,-44,1308,17026.37,26.98,-1.00,-1.0,2366
415,2135415,16992,460,1620,17075.25,27.02,-1.00,-1.0,2445
417,2135417,16912,564,1736,17010.22,27.07,-1.00,-1.0,2353
420,2135420,16724,-96,1616,16802.17,27.02,-1.00,-1.0,2438
423,2135423,16956,-596,1552,17037.31,26.98,-1.00,-1.0,2365
426,2135426,16988,292,1460,17053.12,27.12,-1.00,-1.0,2365
431,2135431,17204,1060,1608,17311.47,27.07,-1.00,-1.0,2450
433,2135433,17148,44,1356,17201.59,27.07,-1.00,-1.0,2374
436,2135436,17224,-308,900,17250.25,27.07,-1.00,-1.0,2438
439,2135439,16964,436,1060,17002.68,27.07,-1.00,-1.0,2368
442,2135442,16868,772,1124,16923.03,26.98,-1.00,-1.0,2432
444,2135444,16812,204,1116,16850.23,26.98,-1.00,-1.0,2374
447,2135447,16804,-332,1216,16851.21,27.17,-1.00,-1.0,2438
450,2135450,16628,220,1332,16682.72,26.98,-1.00,-1.0,2368
455,2135455,17024,688,1464,17100.68,26.98,-1.00,-1.0,2449
457,2135457,17160,164,1540,17229.74,27.07,-1.00,-1.0,2375
460,2135460,17228,-412,1324,17283.71,27.07,-1.00,-1.0,2362
463,2135463,17128,-376,1452,17193.55,27.02,-1.00,-1.0,2442
465,2135465,17200,-76,1296,17248.92,26.98,-1.00,-1.0,2367
468,2135468,16952,488,1500,17025.23,27.02,-1.00,-1.0,2439
471,2135471,16848,692,1668,16944.50,26.98,-1.00,-1.0,2368
474,2135474,17008,592,1424,17077.77,26.98,-1.00,-1.0,2435
477,2135477,16940,584,1356,17004.22,27.07,-1.00,-1.0,2367
482,2135482,16992,660,1212,17047.95,26.98,-1.00,-1.0,2450
485,2135485,17036,432,1132,17079.03,26.98,-1.00,-1.0,2378
487,2135487,17008,-76,1468,17071.40,27.07,-1.00,-1.0,2438
490,2135490,16952,-676,1348,17018.94,27.07,-1.00,-1.0,2374
493,2135493,16928,-576,1468,17001.29,26.98,-1.00,-1.0,2361
495,2135495,17040,-56,1524,17108.11,27.02,-1.00,-1.0,2436
498,2135498,17024,552,1632,17110.95,26.98,-1.00,-1.0,2368
501,2135501,16948,236,1416,17008.69,27.02,-1.00,-1.0,2435
504,2135504,17052,-40,1280,17100.02,26.98,-1.00,-1.0,2366
509,2135509,16900,332,1112,16939.80,27.07,-1.00,-1.0,2446
512,2135512,17044,392,1020,17078.99,27.07,-1.00,-1.0,2368
514,2135514,16976,592,1116,17022.94,26.98,-1.00,-1.0,2422
517,2135517,16936,896,1368,17014.77,27.07,-1.00,-1.0,2381
520,2135520,17000,972,1484,17092.31,27.07,-1.00,-1.0,2438
523,2135523,17020,544,1608,17104.44,27.07,-1.00,-1.0,2374
525,2135525,17096,-148,1460,17158.87,27.07,-1.00,-1.0,2362
528,2135528,17128,140,1624,17205.39,27.02,-1.00,-1.0,2436
531,2135531,17096,676,1716,17195.20,27.02,-1.00,-1.0,2366
536,2135536,17228,436,1680,17315.21,27.07,-1.00,-1.0,2444
539,2135539,17060,472,1560,17137.68,27.07,-1.00,-1.0,2366
541,2135541,16916,740,1524,17000.62,27.12,-1.00,-1.0,2437
544,2135544,16988,584,1568,17070.20,27.02,-1.00,-1.0,2427
547,2135547,16840,296,1424,16902.69,26.93,-1.00,-1.0,2439
550,2135550,16868,396,1340,16925.78,27.07,-1.00,-1.0,2357
553,2135553,16964,588,1424,17033.81,27.02,-1.00,-1.0,2442
555,2135555,17124,680,1492,17202.32,27.07,-1.00,-1.0,2381
558,2135558,17136,188,1484,17201.17,27.02,-1.00,-1.0,2364
563,2135563,17188,-376,1436,17251.98,27.02,-1.00,-1.0,2430
566,2135566,17024,-64,1576,17096.91,27.02,-1.00,-1.0,2364
568,2135568,17036,172,1600,17111.83,27.02,-1.00,-1.0,2437
571,2135571,16992,212,1564,17065.14,27.02,-1.00,-1.0,2365
574,2135574,16836,356,1520,16908.22,27.02,-1.00,-1.0,2435
577,2135577,16972,748,1400,17046.06,26.93,-1.00,-1.0,2365
579,2135579,17008,744,1320,17075.36,27.02,-1.00,-1.0,2436
582,2135582,16924,416,1344,16982.38,27.02,-1.00,-1.0,2360
587,2135587,16964,44,1444,17025.40,27.02,-1.00,-1.0,2457
590,2135590,16948,440,1368,17008.81,27.07,-1.00,-1.0,2372
592,2135592,17168,456,1396,17230.70,26.93,-1.00,-1.0,2362
595,2135595,17100,292,1432,17162.34,26.93,-1.00,-1.0,2436
598,2135598,17060,-16,1532,17128.66,27.07,-1.00,-1.0,2366
601,2135601,16996,-80,1580,17069.47,27.12,-1.00,-1.0,2430
603,2135603,16944,-244,1552,17016.68,26.93,-1.00,-1.0,2372
606,2135606,16920,-228,1476,16985.79,27.02,-1.00,-1.0,2436
609,2135609,17064,60,1260,17110.56,27.07,-1.00,-1.0,2373
614,2135614,17000,500,1232,17051.92,27.07,-1.00,-1.0,2443
617,2135617,17020,468,1124,17063.49,27.07,-1.00,-1.0,2372
620,2135620,16948,432,1156,16992.87,27.07,-1.00,-1.0,2437
622,2135622,16940,408,1084,16979.55,27.07,-1.00,-1.0,2365
625,2135625,16748,380,1192,16794.66,26.98,-1.00,-1.0,2367
628,2135628,16916,412,1224,16965.23,27.12,-1.00,-1.0,2445
630,2135630,16996,424,1408,17059.49,27.07,-1.00,-1.0,2370
633,2135633,17012,220,1396,17070.60,27.02,-1.00,-1.0,2445
636,2135636,17012,20,1460,17074.55,27.02,-1.00,-1.0,2371
641,2135641,17132,-204,1620,17209.63,27.02,-1.00,-1.0,2445
644,2135644,17044,-64,1608,17119.80,27.02,-1.00,-1.0,2370
646,2135646,17080,-96,1760,17170.71,27.02,-1.00,-1.0,2438
649,2135649,17004,-56,1500,17070.12,26.93,-1.00,-1.0,2367
652,2135652,17028,220,1596,17104.05,27.07,-1.00,-1.0,2464
655,2135655,16876,764,1728,16981.43,27.07,-1.00,-1.0,2373
657,2135657,16852,720,1624,16945.37,27.02,-1.00,-1.0,2365
660,2135660,16944,504,1784,17045.11,27.02,-1.00,-1.0,2446
663,2135663,17036,308,1628,17116.38,27.12,-1.00,-1.0,2371
668,2135668,17052,668,1612,17141.05,27.02,-1.00,-1.0,2451
671,2135671,17116,640,1712,17213.31,27.02,-1.00,-1.0,2369
673,2135673,17128,504,1552,17205.55,27.02,-1.00,-1.0,2427
676,2135676,16980,264,1468,17045.38,27.12,-1.00,-1.0,2378
679,2135679,17108,40,1476,17171.60,27.12,-1.00,-1.0,2442
682,2135682,17004,48,1248,17049.80,27.02,-1.00,-1.0,2368
684,2135684,17056,-88,1460,17118.60,27.12,-1.00,-1.0,2443
687,2135687,16940,-68,1052,16972.77,27.02,-1.00,-1.0,2365
690,2135690,17056,84,1012,17086.20,27.02,-1.00,-1.0,2363
695,2135695,16932,480,1048,16971.19,27.02,-1.00,-1.0,2462
698,2135698,16936,576,1384,17002.21,27.02,-1.00,-1.0,2370
701,2135701,16976,652,1244,17034.00,27.07,-1.00,-1.0,2452
703,2135703,16984,764,1580,17074.44,27.12,-1.00,-1.0,2372
706,2135706,17068,620,1460,17141.55,27.07,-1.00,-1.0,2446
709,2135709,16992,420,1540,17066.81,26.93,-1.00,-1.0,2366
712,2135712,17000,76,1700,17084.96,26.98,-1.00,-1.0,2451
714,2135714,17196,144,1700,17280.43,27.02,-1.00,-1.0,2371
717,2135717,17088,212,1544,17158.92,27.17,-1.00,-1.0,2362
722,2135722,17072,20,1164,17111.65,27.17,-1.00,-1.0,2457
725,2135725,16956,12,1196,16998.13,27.02,-1.00,-1.0,2366
728,2135728,16808,-28,952,16834.96,26.98,-1.00,-1.0,2450
730,2135730,16800,160,940,16827.04,27.02,-1.00,-1.0,2370
733,2135733,16960,260,980,16990.28,27.07,-1.00,-1.0,2447
736,2135736,17076,352,1148,17118.17,27.12,-1.00,-1.0,2350
739,2135739,16980,488,1504,17053.46,27.07,-1.00,-1.0,2452
741,2135741,17000,548,1524,17076.97,27.02,-1.00,-1.0,2372
746,2135746,17140,512,1624,17224.38,27.12,-1.00,-1.0,2456
749,2135749,17112,360,1844,17214.83,27.07,-1.00,-1.0,2421
752,2135752,17044,376,1708,17133.49,27.12,-1.00,-1.0,2369
755,2135755,17080,460,1644,17165.10,27.07,-1.00,-1.0,2446
757,2135757,16992,544,1648,17080.39,26.98,-1.00,-1.0,2382
760,2135760,16940,432,1436,17006.24,26.98,-1.00,-1.0,2439
763,2135763,16972,276,1400,17031.88,27.07,-1.00,-1.0,2375
766,2135766,16984,256,1452,17047.88,26.98,-1.00,-1.0,2443
768,2135768,16924,172,1044,16957.04,27.17,-1.00,-1.0,2382
773,2135773,17000,104,1260,17046.95,26.93,-1.00,-1.0,2440
776,2135776,17076,120,1244,17121.67,27.02,-1.00,-1.0,2368
779,2135779,17000,-52,1328,17051.87,27.12,-1.00,-1.0,2366
782,2135782,16920,92,1380,16976.43,26.98,-1.00,-1.0,2450
784,2135784,16960,136,1492,17026.04,27.07,-1.00,-1.0,2372
787,2135787,17072,268,1376,17129.46,27.07,-1.00,-1.0,2447
790,2135790,17144,404,1572,17220.66,26.98,-1.00,-1.0,2374
793,2135793,17060,488,1676,17149.07,27.07,-1.00,-1.0,2451
795,2135795,17164,516,1704,17256.09,26.98,-1.00,-1.0,2370
800,2135800,17052,416,1676,17139.22,27.02,-1.00,-1.0,2440
803,2135803,17052,244,1728,17141.07,27.02,-1.00,-1.0,2365
806,2135806,17068,336,1476,17135.00,26.98,-1.00,-1.0,2447
808,2135808,16992,260,1476,17057.97,27.02,-1.00,-1.0,2353
811,2135811,17028,436,1404,17091.35,27.07,-1.00,-1.0,2369
814,2135814,16996,376,1448,17061.71,27.07,-1.00,-1.0,2441
816,2135816,17028,436,1452,17095.36,27.02,-1.00,-1.0,2366
819,2135819,17132,372,1448,17197.11,26.98,-1.00,-1.0,2450
822,2135822,17064,352,1536,17136.61,27.12,-1.00,-1.0,2367
827,2135827,17100,264,1496,17167.34,27.12,-1.00,-1.0,2440
830,2135830,17048,300,1392,17107.37,27.12,-1.00,-1.0,2355
833,2135833,16964,344,1276,17015.40,27.02,-1.00,-1.0,2447
835,2135835,16856,208,1284,16906.11,27.02,-1.00,-1.0,2366
838,2135838,16944,164,1136,16982.83,27.02,-1.00,-1.0,2437
841,2135841,16932,84,1276,16980.22,27.02,-1.00,-1.0,2366
843,2135843,16948,184,1268,16996.36,27.12,-1.00,-1.0,2359
846,2135846,16968,380,1224,17016.33,26.98,-1.00,-1.0,2450
849,2135849,17080,336,1356,17137.04,27.07,-1.00,-1.0,2367
854,2135854,17020,428,1464,17088.21,27.07,-1.00,-1.0,2455
857,2135857,17080,412,1444,17145.88,26.98,-1.00,-1.0,2373
860,2135860,17004,448,1448,17071.42,27.07,-1.00,-1.0,2452
862,2135862,17096,372,1388,17156.29,27.17,-1.00,-1.0,2376
865,2135865,17064,364,1516,17135.08,27.12,-1.00,-1.0,2444
868,2135868,17084,400,1356,17142.40,26.98,-1.00,-1.0,2368
871,2135871,16956,328,1260,17005.91,27.07,-1.00,-1.0,2450
873,2135873,17032,164,1476,17096.62,27.07,-1.00,-1.0,2375
876,2135876,16976,48,1360,17030.46,26.98,-1.00,-1.0,2366
881,2135881,17088,144,1400,17145.86,27.07,-1.00,-1.0,2454
884,2135884,16952,0,1412,17010.70,27.07,-1.00,-1.0,2374
887,2135887,17164,-96,1488,17228.65,27.07,-1.00,-1.0,2449
889,2135889,16952,112,1584,17026.21,26.98,-1.00,-1.0,2372
892,2135892,16956,184,1572,17029.71,27.02,-1.00,-1.0,2434
895,2135895,16948,56,1580,17021.58,27.07,-1.00,-1.0,2372
898,2135898,17040,180,1540,17110.39,27.07,-1.00,-1.0,2448
900,2135900,17072,412,1732,17164.58,27.02,-1.00,-1.0,2374
903,2135903,17104,568,1660,17193.75,27.02,-1.00,-1.0,2369
908,2135908,17048,608,1544,17128.57,27.07,-1.00,-1.0,2441
911,2135911,17096,652,1600,17183.08,27.07,-1.00,-1.0,2366
914,2135914,17032,660,1512,17111.71,27.02,-1.00,-1.0,2447
916,2135916,16924,544,1356,16986.95,26.98,-1.00,-1.0,2367
919,2135919,17396,1120,-3544,17788.62,27.02,-1.00,-1.0,2443
922,2135922,24292,2984,4660,24914.28,27.02,-1.00,-1.0,2429
925,2135925,24532,-10596,21960,34588.09,27.07,-1.00,-1.0,2438
928,2135928,9880,5604,-9356,14715.77,27.07,-1.00,-1.0,2372
933,2135933,11140,-13556,916,17569.97,27.07,-1.00,-1.0,2443
935,2135935,24296,-23952,-4976,34478.32,27.02,-1.00,-1.0,2354
938,2135938,15452,480,1604,15542.44,27.07,-1.00,-1.0,2440
941,2135941,28076,11376,-1756,30344.01,27.12,-1.00,-1.0,2370
944,2135944,5176,-3944,6292,9051.82,27.07,-1.00,-1.0,2437
946,2135946,23496,-4928,-44,24007.27,27.02,-1.00,-1.0,2373
949,2135949,24700,12972,-896,27913.54,26.98,-1.00,-1.0,2360
952,2135952,17076,19092,-4548,26014.97,27.07,-1.00,-1.0,2445
954,2135954,12420,-2848,72,12742.55,27.07,-1.00,-1.0,2367
959,2135959,19012,-7052,552,20285.25,26.98,-1.00,-1.0,2442
962,2135962,18920,11524,1916,22236.01,27.02,-1.00,-1.0,2354
965,2135965,19368,9228,5468,22139.88,27.07,-1.00,-1.0,2440
968,2135968,11948,-1212,3980,12651.64,27.02,-1.00,-1.0,2367
970,2135970,21692,-6892,4756,23252.14,27.07,-1.00,-1.0,2435
973,2135973,13092,-4704,-132,13912.06,27.02,-1.00,-1.0,2372
976,2135976,18752,-1508,3612,19156.15,27.07,-1.00,-1.0,2438
979,2135979,15720,-6476,2292,17155.47,27.02,-1.00,-1.0,2369
984,2135984,13472,12644,3480,18800.96,27.02,-1.00,-1.0,2439
986,2135986,18780,-3980,-576,19205.74,27.12,-1.00,-1.0,2367
989,2135989,13996,-5964,1344,15272.97,27.12,-1.00,-1.0,2363
992,2135992,18520,3152,716,18799.95,27.07,-1.00,-1.0,2451
994,2135994,14432,6804,428,15961.21,27.02,-1.00,-1.0,2374
997,2135997,18236,-340,3132,18506.13,27.07,-1.00,-1.0,2437
1000,2136000,14956,-6388,556,16272.60,27.02,-1.00,-1.0,2365
1003,2136003,21164,3076,1540,21441.74,27.07,-1.00,-1.0,2447
1005,2136005,14536,5892,2096,15824.16,26.98,-1.00,-1.0,2366
1010,2136010,14592,-8268,224,16773.09,27.07,-1.00,-1.0,2442
1013,2136013,18828,-8708,308,20746.51,27.07,-1.00,-1.0,2360
1016,2136016,13756,2504,3424,14395.18,26.98,-1.00,-1.0,2440
1019,2136019,22544,220,1984,22632.20,27.07,-1.00,-1.0,2368
1021,2136021,11108,1864,3000,11655.99,27.07,-1.00,-1.0,2436
1024,2136024,22236,908,1484,22303.96,27.07,-1.00,-1.0,2368
1027,2136027,12200,2744,772,12528.59,27.07,-1.00,-1.0,2437
1030,2136030,21164,80,32,21164.18,26.98,-1.00,-1.0,2369
1032,2136032,12396,-1464,1616,12586.32,27.07,-1.00,-1.0,2362
1037,2136037,14436,1188,4,14484.80,27.07,-1.00,-1.0,2440
1040,2136040,17024,2428,1740,17284.08,27.07,-1.00,-1.0,2366
1043,2136043,14944,-1772,1760,15151.26,27.07,-1.00,-1.0,2426
1046,2136046,19612,-272,684,19625.81,26.98,-1.00,-1.0,2367
1048,2136048,16432,2680,1200,16692.30,27.07,-1.00,-1.0,2437
1051,2136051,18396,-32,1564,18462.39,27.17,-1.00,-1.0,2354
1054,2136054,16036,-5236,2056,16994.00,27.07,-1.00,-1.0,2436
1057,2136057,18524,-2320,2152,18792.34,27.07,-1.00,-1.0,2370
1061,2136061,18708,7068,4336,20463.30,27.07,-1.00,-1.0,2441
1064,2136064,17320,4108,3648,18170.47,27.07,-1.00,-1.0,2369
1067,2136067,15984,-4332,1220,16605.51,27.02,-1.00,-1.0,2439
1070,2136070,16928,-4168,1244,17477.90,26.98,-1.00,-1.0,2367
1072,2136072,17612,6088,1712,18713.02,27.07,-1.00,-1.0,2437
1075,2136075,17312,7620,1676,18988.91,26.98,-1.00,-1.0,2366
1078,2136078,15508,-2172,1380,15720.05,27.12,-1.00,-1.0,2361
1081,2136081,18064,-6652,-684,19262.01,26.98,-1.00,-1.0,2437
1083,2136083,17476,4844,784,18151.85,27.12,-1.00,-1.0,2366
1088,2136088,16088,-4812,116,16792.63,26.98,-1.00,-1.0,2441
1091,2136091,17396,-10364,-92,20249.49,27.12,-1.00,-1.0,2365
1094,2136094,15124,-1060,2596,15381.75,27.07,-1.00,-1.0,2447
1096,2136096,18340,9224,3160,20770.73,27.02,-1.00,-1.0,2366
1099,2136099,16916,2224,1572,17133.84,27.07,-1.00,-1.0,2443
1102,2136102,18764,-4076,664,19213.08,27.02,-1.00,-1.0,2365
1105,2136105,15784,-3188,1008,16134.25,27.07,-1.00,-1.0,2443
1108,2136108,17184,3428,1400,17578.43,27.07,-1.00,-1.0,2366
1112,2136112,16920,1128,1904,17064.12,27.07,-1.00,-1.0,2440
1115,2136115,16588,-1544,1480,16725.31,27.12,-1.00,-1.0,2367
1118,2136118,16656,-1000,268,16688.14,27.07,-1.00,-1.0,2441
1121,2136121,17444,1148,832,17501.52,27.02,-1.00,-1.0,2373
1124,2136124,17160,2848,1972,17506.16,26.98,-1.00,-1.0,2435
1126,2136126,17312,176,996,17341.52,27.02,-1.00,-1.0,2366
1129,2136129,17824,-2392,644,17995.31,27.07,-1.00,-1.0,2368
1132,2136132,17004,-2072,1248,17175.18,27.02,-1.00,-1.0,2452
1135,2136135,16740,768,2116,16890.67,27.17,-1.00,-1.0,2375
1140,2136140,17228,1564,1432,17358.02,27.07,-1.00,-1.0,2440
1142,2136142,17112,1852,2028,17330.99,27.07,-1.00,-1.0,2366
1145,2136145,16776,420,1496,16847.81,27.07,-1.00,-1.0,2456
1148,2136148,17088,-1984,340,17206.15,27.07,-1.00,-1.0,2376
1151,2136151,16716,120,1480,16781.82,26.98,-1.00,-1.0,2450
1153,2136153,16888,3416,1952,17340.24,27.07,-1.00,-1.0,2367
1156,2136156,17040,3048,1280,17357.72,27.02,-1.00,-1.0,2449
1159,2136159,17084,-708,888,17121.71,27.07,-1.00,-1.0,2374
1164,2136164,17176,-296,1688,17261.29,27.07,-1.00,-1.0,2450
1166,2136166,17344,996,1236,17416.49,27.07,-1.00,-1.0,2365
1169,2136169,17172,-1568,1076,17276.98,27.07,-1.00,-1.0,2448
1172,2136172,17496,-2960,1464,17804.91,26.98,-1.00,-1.0,2367
1175,2136175,17084,-244,1824,17182.83,27.07,-1.00,-1.0,2368
1177,2136177,17172,2136,1704,17388.03,27.02,-1.00,-1.0,2438
1180,2136180,16840,660,1608,16929.47,27.07,-1.00,-1.0,2381
1183,2136183,16940,-2068,816,17085.26,27.12,-1.00,-1.0,2438
1186,2136186,16708,72,564,16717.67,27.12,-1.00,-1.0,2368
1191,2136191,16768,3392,1208,17150.24,27.07,-1.00,-1.0,2449
1193,2136193,17176,1252,1188,17262.50,27.07,-1.00,-1.0,2367
1196,2136196,16404,228,1564,16479.97,27.07,-1.00,-1.0,2455
1199,2136199,16800,204,1424,16861.48,27.07,-1.00,-1.0,2365
1202,2136202,16964,568,1660,17054.49,27.12,-1.00,-1.0,2443
1204,2136204,17008,-376,1680,17094.91,27.07,-1.00,-1.0,2367
1207,2136207,17280,-1724,1628,17441.93,27.07,-1.00,-1.0,2450
1210,2136210,17516,-1672,1844,17691.98,27.07,-1.00,-1.0,2366
1215,2136215,17172,124,2612,17369.96,27.07,-1.00,-1.0,2442
1218,2136218,16928,-876,1700,17035.69,27.02,-1.00,-1.0,2366
1220,2136220,16676,-1844,1112,16814.45,26.98,-1.00,-1.0,2361
1223,2136223,16860,-80,1088,16895.26,27.02,-1.00,-1.0,2440
1226,2136226,16916,1616,1200,17035.33,27.17,-1.00,-1.0,2373
1229,2136229,16724,1816,976,16850.60,27.02,-1.00,-1.0,2435
1231,2136231,17112,824,1072,17165.33,27.07,-1.00,-1.0,2365
1234,2136234,17036,1376,1456,17153.38,26.98,-1.00,-1.0,2437
1237,2136237,17036,2216,1368,17233.90,27.07,-1.00,-1.0,2367
1242,2136242,16948,-116,1664,17029.89,27.07,-1.00,-1.0,2442
1244,2136244,17088,-240,1728,17176.83,27.12,-1.00,-1.0,2355
1247,2136247,17272,532,1444,17340.42,27.07,-1.00,-1.0,2440
1250,2136250,17212,148,1784,17304.84,27.12,-1.00,-1.0,2370
1253,2136253,16992,-1196,1880,17137.47,26.98,-1.00,-1.0,2436
1255,2136255,16892,-1172,1540,17002.50,27.02,-1.00,-1.0,2372
1258,2136258,17080,48,1468,17143.04,26.98,-1.00,-1.0,2436
1261,2136261,17104,620,1260,17161.55,27.02,-1.00,-1.0,2367
1264,2136264,17240,732,1096,17290.30,27.07,-1.00,-1.0,2361
1268,2136268,16916,228,1132,16955.37,26.98,-1.00,-1.0,2440
1271,2136271,16808,896,1236,16877.19,27.07,-1.00,-1.0,2366
1274,2136274,17012,1920,1184,17160.90,27.02,-1.00,-1.0,2439
1277,2136277,16832,1936,1048,16975.35,26.98,-1.00,-1.0,2365
1279,2136279,16884,372,692,16902.27,27.12,-1.00,-1.0,2436
1282,2136282,17036,-252,988,17066.49,27.07,-1.00,-1.0,2366
1285,2136285,16952,424,1608,17033.37,27.12,-1.00,-1.0,2436
1288,2136288,17080,664,2068,17217.55,27.07,-1.00,-1.0,2365
1292,2136292,17304,-1164,1740,17430.17,27.02,-1.00,-1.0,2441
1295,2136295,17260,-24,1712,17344.71,27.07,-1.00,-1.0,2354
1298,2136298,17380,632,1668,17471.29,27.02,-1.00,-1.0,2439
1301,2136301,17216,344,1272,17266.35,27.07,-1.00,-1.0,2365
1303,2136303,16916,-444,1480,16986.42,27.07,-1.00,-1.0,2361
1306,2136306,16780,500,1352,16841.80,27.02,-1.00,-1.0,2442
1309,2136309,16900,1404,1360,17012.67,27.12,-1.00,-1.0,2374
1312,2136312,16748,2148,1108,16921.50,26.93,-1.00,-1.0,2442
1315,2136315,16820,1152,1164,16899.54,27.02,-1.00,-1.0,2373
1320,2136320,16996,-708,1112,17047.05,27.12,-1.00,-1.0,2449
1322,2136322,17060,-548,1564,17140.30,27.07,-1.00,-1.0,2366
1325,2136325,17172,-128,1916,17279.04,26.98,-1.00,-1.0,2441
1328,2136328,17320,60,1848,17418.41,27.17,-1.00,-1.0,2366
1331,2136331,17156,268,1984,17272.42,27.02,-1.00,-1.0,2444
1333,2136333,17092,-48,1872,17194.28,27.07,-1.00,-1.0,2370
1336,2136336,16976,-152,1944,17087.62,27.07,-1.00,-1.0,2437
1339,2136339,16948,-60,1952,17060.15,27.07,-1.00,-1.0,2366
1344,2136344,17016,956,1392,17099.59,27.17,-1.00,-1.0,2446
1347,2136347,17120,1728,1236,17251.32,27.07,-1.00,-1.0,2373
1349,2136349,17156,1656,1260,17281.73,26.98,-1.00,-1.0,2361
1352,2136352,16936,544,1152,16983.85,27.02,-1.00,-1.0,2441
1355,2136355,16908,-176,1148,16947.84,27.07,-1.00,-1.0,2367
1357,2136357,17012,-312,1292,17063.84,27.02,-1.00,-1.0,2435
1360,2136360,16920,-148,1448,16982.49,27.07,-1.00,-1.0,2366
1363,2136363,17028,-476,1572,17107.03,27.12,-1.00,-1.0,2423
1366,2136366,17144,-580,1520,17221.02,27.07,-1.00,-1.0,2373
1371,2136371,17176,340,1604,17254.08,27.02,-1.00,-1.0,2448
1373,2136373,17044,-248,1644,17124.90,27.12,-1.00,-1.0,2365
1376,2136376,16836,-1092,1272,16919.26,27.02,-1.00,-1.0,2441
1379,2136379,17080,-76,1088,17114.79,27.02,-1.00,-1.0,2367
1382,2136382,17080,1336,1248,17177.57,26.98,-1.00,-1.0,2445
1384,2136384,17116,2060,1728,17325.91,27.02,-1.00,-1.0,2365
1387,2136387,16888,624,1672,16982.04,27.12,-1.00,-1.0,2437
1390,2136390,16804,-292,1524,16875.49,27.02,-1.00,-1.0,2366
1393,2136393,16972,128,1576,17045.50,26.98,-1.00,-1.0,2363
1398,2136398,17364,796,1428,17440.79,27.07,-1.00,-1.0,2442
1400,2136400,17120,-52,1592,17193.94,27.12,-1.00,-1.0,2367
1403,2136403,16908,-96,1696,16993.12,27.17,-1.00,-1.0,2441
1406,2136406,16912,752,1720,17015.87,27.02,-1.00,-1.0,2368
1409,2136409,16904,960,1736,17020.00,27.07,-1.00,-1.0,2445
1411,2136411,16960,460,1428,17026.23,27.02,-1.00,-1.0,2366
1414,2136414,16972,-472,988,17007.28,26.98,-1.00,-1.0,2438
1417,2136417,16940,-588,876,16972.82,27.02,-1.00,-1.0,2366
1422,2136422,17100,924,1172,17165.00,27.12,-1.00,-1.0,2441
1425,2136425,17016,1072,1308,17099.83,27.12,-1.00,-1.0,2366
1427,2136427,16940,284,1104,16978.31,27.12,-1.00,-1.0,2440
1430,2136430,16872,-88,1220,16916.28,27.07,-1.00,-1.0,2366
1433,2136433,16880,288,1268,16930.01,27.02,-1.00,-1.0,2368
1436,2136436,16852,472,1348,16912.42,27.07,-1.00,-1.0,2437
1438,2136438,16796,-124,1324,16848.56,27.02,-1.00,-1.0,2366
1441,2136441,17048,-556,1412,17115.41,27.07,-1.00,-1.0,2436
1444,2136444,17180,472,1448,17247.37,27.12,-1.00,-1.0,2368
1449,2136449,17292,516,1540,17368.11,27.02,-1.00,-1.0,2449
1452,2136452,17292,-88,1356,17345.31,26.98,-1.00,-1.0,2374
1454,2136454,17056,-240,1104,17093.38,27.02,-1.00,-1.0,2448
1457,2136457,16996,688,1144,17048.35,27.07,-1.00,-1.0,2380
1460,2136460,16928,784,1184,16987.46,27.02,-1.00,-1.0,2437
1463,2136463,16848,388,1180,16893.73,27.07,-1.00,-1.0,2374
1465,2136465,16752,-244,1208,16797.27,27.12,-1.00,-1.0,2438
1468,2136468,16888,264,1368,16945.37,26.98,-1.00,-1.0,2380
1471,2136471,17056,796,1412,17132.85,27.02,-1.00,-1.0,2362
1476,2136476,17144,184,1552,17215.09,27.07,-1.00,-1.0,2450
1478,2136478,17044,-732,1420,17118.71,27.12,-1.00,-1.0,2366
1481,2136481,17148,-472,1556,17224.92,27.07,-1.00,-1.0,2442
1484,2136484,16984,244,1580,17059.08,27.02,-1.00,-1.0,2366
1487,2136487,16896,600,1688,16990.71,27.07,-1.00,-1.0,2444
1489,2136489,16868,420,1740,16962.71,27.02,-1.00,-1.0,2368
1492,2136492,16900,280,1428,16962.54,27.07,-1.00,-1.0,2437
1495,2136495,17012,496,1368,17074.12,27.02,-1.00,-1.0,2366
1500,2136500,16956,620,1416,17026.31,26.98,-1.00,-1.0,2441
1502,2136502,17124,332,1360,17181.13,27.02,-1.00,-1.0,2367
1505,2136505,16996,-260,1268,17045.22,27.07,-1.00,-1.0,2441
1508,2136508,16864,-532,1340,16925.52,27.12,-1.00,-1.0,2365
1510,2136510,16848,-424,1356,16907.80,27.07,-1.00,-1.0,2360
1513,2136513,16968,288,1668,17052.22,27.17,-1.00,-1.0,2440
1516,2136516,16928,436,1640,17012.84,27.07,-1.00,-1.0,2367
1519,2136519,16924,-20,1516,16991.78,27.17,-1.00,-1.0,2435
1522,2136522,17036,-28,1284,17084.34,27.07,-1.00,-1.0,2365
1527,2136527,17016,216,1268,17064.55,27.07,-1.00,-1.0,2442
1530,2136530,16892,92,1312,16943.12,27.02,-1.00,-1.0,2366
1533,2136533,16960,424,1468,17028.69,27.02,-1.00,-1.0,2463
1535,2136535,17056,1080,1568,17161.94,27.02,-1.00,-1.0,2367
1538,2136538,17028,896,1552,17122.04,27.02,-1.00,-1.0,2454
1541,2136541,17036,116,1576,17109.14,26.93,-1.00,-1.0,2370
1544,2136544,17072,-4,1460,17134.32,27.12,-1.00,-1.0,2451
1546,2136546,17144,496,1688,17234.04,27.02,-1.00,-1.0,2364
1549,2136549,17032,980,1648,17139.58,27.07,-1.00,-1.0,2360
1554,2136554,17088,368,1616,17168.19,27.07,-1.00,-1.0,2431
1557,2136557,16960,536,1460,17031.16,27.07,-1.00,-1.0,2364
1559,2136559,16928,836,1584,17022.49,27.07,-1.00,-1.0,2443
1562,2136562,17016,648,1412,17086.78,27.07,-1.00,-1.0,2362
1565,2136565,16880,248,1364,16936.84,27.07,-1.00,-1.0,2440
1568,2136568,16932,188,1312,16983.79,27.07,-1.00,-1.0,2364
1570,2136570,16948,548,1532,17025.92,27.07,-1.00,-1.0,2440
1573,2136573,17116,584,1384,17181.79,26.98,-1.00,-1.0,2363
1578,2136578,17088,-216,1456,17151.28,27.07,-1.00,-1.0,2439
1581,2136581,17020,-252,1304,17071.74,27.12,-1.00,-1.0,2365
1584,2136584,17048,-44,1596,17122.60,27.07,-1.00,-1.0,2454
1586,2136586,16848,208,1608,16925.84,27.02,-1.00,-1.0,2371
1589,2136589,16952,340,1460,17018.15,26.98,-1.00,-1.0,2361
1592,2136592,16976,304,1404,17036.67,26.98,-1.00,-1.0,2436
1594,2136594,17024,572,1340,17086.23,27.07,-1.00,-1.0,2351
1597,2136597,16904,620,1332,16967.73,26.98,-1.00,-1.0,2440
1600,2136600,16988,144,1224,17032.65,27.02,-1.00,-1.0,2362
1605,2136605,17036,88,1420,17095.30,27.07,-1.00,-1.0,2444
1608,2136608,17016,512,1412,17082.16,26.98,-1.00,-1.0,2365
1611,2136611,16996,540,1396,17061.78,27.07,-1.00,-1.0,2439
1613,2136613,17040,132,1572,17112.87,27.07,-1.00,-1.0,2365
1616,2136616,16956,-96,1572,17028.98,27.02,-1.00,-1.0,2439
1619,2136619,16868,-36,1644,16947.96,27.07,-1.00,-1.0,2364
1622,2136622,16940,-140,1680,17023.68,26.98,-1.00,-1.0,2439
1624,2136624,17052,-84,1408,17110.24,27.07,-1.00,-1.0,2365
1627,2136627,16964,76,1236,17009.14,27.02,-1.00,-1.0,2366
1632,2136632,17124,672,1344,17189.80,27.12,-1.00,-1.0,2445
1635,2136635,16944,528,1212,16995.50,27.02,-1.00,-1.0,2363
1637,2136637,16992,220,1332,17045.55,27.02,-1.00,-1.0,2443
1640,2136640,16820,332,1208,16866.59,27.12,-1.00,-1.0,2362
1643,2136643,16888,516,1400,16953.79,27.02,-1.00,-1.0,2439
1646,2136646,17008,540,1288,17065.25,27.02,-1.00,-1.0,2363
1648,2136648,16912,516,1420,16979.35,27.02,-1.00,-1.0,2439
1651,2136651,17112,332,1440,17175.69,27.02,-1.00,-1.0,2362
1656,2136656,17168,0,1516,17234.80,26.98,-1.00,-1.0,2444
1659,2136659,17064,20,1332,17115.92,26.98,-1.00,-1.0,2350
1662,2136662,17072,-64,1520,17139.65,27.07,-1.00,-1.0,2453
1664,2136664,17032,100,1492,17097.52,27.07,-1.00,-1.0,2369
1667,2136667,16936,244,1548,17008.35,26.98,-1.00,-1.0,2359
1670,2136670,16952,608,1524,17031.22,27.02,-1.00,-1.0,2444
1672,2136672,16872,612,1496,16949.25,27.02,-1.00,-1.0,2362
1675,2136675,16960,628,1444,17032.94,27.02,-1.00,-1.0,2439
1678,2136678,16904,508,1520,16979.80,27.07,-1.00,-1.0,2370
1683,2136683,17148,504,1520,17222.61,27.12,-1.00,-1.0,2448
1686,2136686,17116,564,1560,17196.20,27.02,-1.00,-1.0,2364
1688,2136688,17064,404,1568,17140.65,26.93,-1.00,-1.0,2441
1691,2136691,17064,268,1500,17131.90,27.02,-1.00,-1.0,2362
1694,2136694,17032,256,1480,17098.10,27.02,-1.00,-1.0,2440
1697,2136697,16988,140,1428,17048.49,27.02,-1.00,-1.0,2363
1699,2136699,16984,76,1348,17037.58,27.02,-1.00,-1.0,2426
1702,2136702,16956,80,1264,17003.24,27.02,-1.00,-1.0,2362
1705,2136705,17092,40,964,17119.21,27.02,-1.00,-1.0,2362
1710,2136710,17012,348,1080,17049.80,27.12,-1.00,-1.0,2446
1713,2136713,16924,488,1096,16966.47,27.02,-1.00,-1.0,2363
1715,2136715,17000,508,1332,17059.67,27.02,-1.00,-1.0,2441
1718,2136718,16972,492,1288,17027.91,27.12,-1.00,-1.0,2362
1721,2136721,16948,428,1660,17034.48,27.02,-1.00,-1.0,2426
1724,2136724,16992,508,1652,17079.67,27.12,-1.00,-1.0,2366
1726,2136726,17080,456,1604,17161.21,27.02,-1.00,-1.0,2439
1729,2136729,17104,64,1656,17184.10,26.93,-1.00,-1.0,2362
1734,2136734,17032,-136,1480,17096.72,27.12,-1.00,-1.0,2455
1737,2136737,17128,60,1588,17201.56,27.07,-1.00,-1.0,2366
1739,2136739,17088,100,1412,17146.53,27.02,-1.00,-1.0,2363
1742,2136742,16956,132,1288,17005.36,26.93,-1.00,-1.0,2442
1745,2136745,16932,80,1172,16972.70,27.02,-1.00,-1.0,2365
1748,2136748,16920,132,1296,16970.07,27.02,-1.00,-1.0,2438
1750,2136750,16888,108,1092,16923.61,27.02,-1.00,-1.0,2364
1753,2136753,16896,232,1300,16947.53,27.07,-1.00,-1.0,2440
1756,2136756,16960,360,1408,17022.15,27.02,-1.00,-1.0,2363
1761,2136761,17000,444,1684,17088.97,27.02,-1.00,-1.0,2451
1764,2136764,17188,328,1892,17294.93,27.07,-1.00,-1.0,2365
1767,2136767,17080,252,1872,17184.13,27.02,-1.00,-1.0,2452
1769,2136769,17060,256,1760,17152.46,27.12,-1.00,-1.0,2370
1772,2136772,17092,296,1948,17205.20,26.93,-1.00,-1.0,2441
1775,2136775,16984,320,1680,17069.89,27.07,-1.00,-1.0,2363
1777,2136777,17064,396,1644,17147.58,26.93,-1.00,-1.0,2360
1780,2136780,17008,248,1532,17078.66,27.07,-1.00,-1.0,2442
1783,2136783,16988,288,1476,17054.43,26.98,-1.00,-1.0,2350
1788,2136788,16940,212,1252,16987.53,27.02,-1.00,-1.0,2452
1791,2136791,17000,140,1220,17044.29,27.02,-1.00,-1.0,2349
1794,2136794,16968,160,1276,17016.66,27.12,-1.00,-1.0,2451
1796,2136796,16964,276,1168,17006.40,27.02,-1.00,-1.0,2370
1799,2136799,17020,-88,1344,17073.21,27.07,-1.00,-1.0,2440
1802,2136802,17008,164,1468,17072.02,27.02,-1.00,-1.0,2362
1805,2136805,17008,144,1544,17078.55,27.07,-1.00,-1.0,2450
1807,2136807,17076,352,1516,17146.78,27.02,-1.00,-1.0,2370
1812,2136812,17008,480,1720,17101.49,27.02,-1.00,-1.0,2453
1815,2136815,16948,256,1488,17015.12,27.02,-1.00,-1.0,2368
1818,2136818,17084,296,1612,17162.44,27.02,-1.00,-1.0,2362
1820,2136820,17024,400,1664,17109.81,26.98,-1.00,-1.0,2443
1823,2136823,16976,280,1372,17033.65,27.12,-1.00,-1.0,2365
1826,2136826,16988,264,1288,17038.80,27.07,-1.00,-1.0,2439
1829,2136829,17036,460,1436,17102.60,27.02,-1.00,-1.0,2365
1831,2136831,17052,564,1452,17123.00,27.07,-1.00,-1.0,2441
1834,2136834,17012,464,1496,17083.95,27.07,-1.00,-1.0,2365
1839,2136839,17108,472,1364,17168.78,26.98,-1.00,-1.0,2448
1842,2136842,17032,380,1292,17085.16,27.07,-1.00,-1.0,2362
1845,2136845,17008,416,1216,17056.49,27.07,-1.00,-1.0,2449
1847,2136847,16948,416,1440,17014.15,27.07,-1.00,-1.0,2365
1850,2136850,16924,292,1332,16978.85,27.21,-1.00,-1.0,2439
1853,2136853,16932,280,1172,16974.82,27.07,-1.00,-1.0,2363
1855,2136855,16908,204,1188,16950.91,27.12,-1.00,-1.0,2360
1858,2136858,16876,184,1288,16926.08,27.12,-1.00,-1.0,2448
1861,2136861,16952,204,1212,16996.50,27.02,-1.00,-1.0,2366
1866,2136866,17108,504,1480,17179.29,27.02,-1.00,-1.0,2447
1869,2136869,17124,472,1524,17198.16,27.07,-1.00,-1.0,2363
1872,2136872,17044,444,1512,17116.69,27.12,-1.00,-1.0,2435
1874,2136874,17084,456,1384,17146.03,26.98,-1.00,-1.0,2364
1877,2136877,17080,576,1584,17162.96,27.02,-1.00,-1.0,2440
1880,2136880,16956,608,1568,17039.20,27.07,-1.00,-1.0,2364
1883,2136883,16868,448,1468,16937.68,27.07,-1.00,-1.0,2446
1885,2136885,16928,304,1244,16976.37,27.07,-1.00,-1.0,2365
1890,2136890,16976,436,1248,17027.39,26.93,-1.00,-1.0,2447
1893,2136893,16956,236,1352,17011.45,27.12,-1.00,-1.0,2363
1896,2136896,16996,-8,1340,17048.74,27.02,-1.00,-1.0,2361
1898,2136898,17040,-16,1316,17090.75,26.98,-1.00,-1.0,2452
1901,2136901,16912,16,1392,16969.20,27.02,-1.00,-1.0,2372
1904,2136904,16916,-92,1488,16981.57,26.98,-1.00,-1.0,2426
1907,2136907,17016,52,1576,17088.91,27.02,-1.00,-1.0,2363
1909,2136909,16936,-24,1444,16997.46,27.07,-1.00,-1.0,2442
1912,2136912,16928,40,1600,17003.49,26.98,-1.00,-1.0,2375
1917,2136917,17104,296,1700,17190.82,26.98,-1.00,-1.0,2456
1920,2136920,17144,364,1760,17237.95,27.07,-1.00,-1.0,2365
1923,2136923,17000,452,1652,17086.06,27.07,-1.00,-1.0,2451
1925,2136925,17088,568,1572,17169.55,27.07,-1.00,-1.0,2370
1928,2136928,17088,600,1504,17164.55,27.12,-1.00,-1.0,2361
1931,2136931,16908,524,1364,16971.02,27.02,-1.00,-1.0,2446
1933,2136933,16948,356,1500,17017.97,26.98,-1.00,-1.0,2362
1936,2136936,16896,516,876,16926.56,27.02,-1.00,-1.0,2440
1939,2136939,17768,-1236,9708,20284.84,26.98,-1.00,-1.0,2371
1944,2136944,21744,-4380,17920,28515.12,26.98,-1.00,-1.0,2455
1947,2136947,26344,3808,-6612,27426.73,27.02,-1.00,-1.0,2406
1950,2136950,13416,11904,12012,21586.62,27.07,-1.00,-1.0,2452
1953,2136953,32767,-22580,-15456,42689.82,27.17,-1.00,-1.0,2422
1956,2136956,-4192,-8176,7424,11812.52,27.07,-1.00,-1.0,2432
1959,2136959,32767,4588,-9316,34373.16,27.07,-1.00,-1.0,2376
1961,2136961,-3016,9448,7136,12218.16,27.07,-1.00,-1.0,2419
1964,2136964,9712,-1744,-512,9880.62,26.98,-1.00,-1.0,2389
1969,2136969,-1156,21976,14376,26285.93,27.07,-1.00,-1.0,2456
1972,2136972,32767,3920,17580,37391.16,27.07,-1.00,-1.0,2372
1975,2136975,5244,-14740,10332,18748.80,27.07,-1.00,-1.0,2450
1977,2136977,26960,-15220,-4900,31344.86,27.07,-1.00,-1.0,2376
1980,2136980,13160,10216,-1292,16709.92,27.02,-1.00,-1.0,2445
1983,2136983,23448,6152,4720,24696.85,26.98,-1.00,-1.0,2373
1985,2136985,6780,-3524,1016,7708.39,27.12,-1.00,-1.0,2347
1988,2136988,25536,-2720,-3756,25953.67,27.12,-1.00,-1.0,2437
1991,2136991,7844,-3140,-968,8504.41,27.07,-1.00,-1.0,2368
1996,2136996,7400,-8436,-2112,11418.70,27.17,-1.00,-1.0,2444
1999,2136999,25392,3264,-1372,25637.66,26.98,-1.00,-1.0,2372
2001,2137001,9628,15412,6712,19372.12,27.02,-1.00,-1.0,2447
2004,2137004,23052,2060,668,23153.50,27.17,-1.00,-1.0,2381
2007,2137007,12636,-4512,548,13428.59,27.02,-1.00,-1.0,2438
2010,2137010,21056,1228,764,21105.61,27.07,-1.00,-1.0,2368
2012,2137012,11908,8116,668,14426.23,27.02,-1.00,-1.0,2439
2015,2137015,20904,984,3688,21249.63,26.98,-1.00,-1.0,2381
2020,2137020,20920,-3160,-1620,21219.25,27.07,-1.00,-1.0,2443
2023,2137023,11916,4484,4420,13477.16,27.12,-1.00,-1.0,2365
2026,2137026,21572,1916,2536,21804.90,27.07,-1.00,-1.0,2448
2028,2137028,14652,-5648,1116,15742.50,27.07,-1.00,-1.0,2353
2031,2137031,20156,-9288,-356,22195.90,26.88,-1.00,-1.0,2438
2034,2137034,12408,472,3208,12824.68,27.02,-1.00,-1.0,2365
2036,2137036,23540,1344,1836,23649.71,27.07,-1.00,-1.0,2360
2039,2137039,11784,4248,2240,12725.00,27.02,-1.00,-1.0,2452
2042,2137042,23088,188,1428,23132.88,27.07,-1.00,-1.0,2366
2047,2137047,18216,3164,448,18494.17,27.07,-1.00,-1.0,2440
2050,2137050,16320,-576,772,16348.40,27.12,-1.00,-1.0,2365
2052,2137052,16932,872,-380,16958.70,27.07,-1.00,-1.0,2440
2055,2137055,19600,-1752,-560,19686.12,26.98,-1.00,-1.0,2367
2058,2137058,15008,256,1800,15117.72,26.98,-1.00,-1.0,2435
2061,2137061,16896,-1932,1416,17064.95,27.02,-1.00,-1.0,2365
2063,2137063,18160,1480,1820,18310.88,26.98,-1.00,-1.0,2437
2066,2137066,16732,2696,1956,17060.31,26.98,-1.00,-1.0,2366
2071,2137071,16744,-5280,1984,17668.51,26.93,-1.00,-1.0,2446
2074,2137074,18076,-3144,1040,18376.84,27.12,-1.00,-1.0,2367
2077,2137077,16584,4356,3288,17458.94,27.12,-1.00,-1.0,2449
2079,2137079,17400,6056,3332,18722.64,27.02,-1.00,-1.0,2374
2082,2137082,18100,3016,2468,18514.79,27.07,-1.00,-1.0,2364
2085,2137085,14576,-1764,944,14712.67,27.07,-1.00,-1.0,2443
2087,2137087,18248,-2948,480,18490.82,27.07,-1.00,-1.0,2365
2090,2137090,15672,2072,948,15836.78,26.98,-1.00,-1.0,2437
2093,2137093,18192,5212,648,18934.99,27.07,-1.00,-1.0,2366
2098,2137098,17204,-6036,-72,18232.28,27.07,-1.00,-1.0,2448
2100,2137100,17708,-336,592,17721.08,26.98,-1.00,-1.0,2365
2103,2137103,17292,6452,1604,18526.05,27.07,-1.00,-1.0,2440
2106,2137106,17244,-324,1256,17292.72,27.07,-1.00,-1.0,2367
2109,2137109,17108,-9540,68,19588.26,27.07,-1.00,-1.0,2443
2111,2137111,15336,-1072,3220,15707.02,27.07,-1.00,-1.0,2366
2114,2137114,18076,6796,3084,19556.03,27.07,-1.00,-1.0,2438
2117,2137117,16384,6728,2748,17923.53,27.07,-1.00,-1.0,2366
2122,2137122,17508,-4428,388,18063.44,27.07,-1.00,-1.0,2447
2124,2137124,15844,2444,1104,16069.36,27.07,-1.00,-1.0,2365
2127,2137127,18068,4604,1440,18700.88,27.07,-1.00,-1.0,2440
2130,2137130,16312,2824,1708,16642.52,26.98,-1.00,-1.0,2366
2132,2137132,17804,-1980,2644,18107.83,27.07,-1.00,-1.0,2361
2135,2137135,16088,-2052,1072,16253.73,27.02,-1.00,-1.0,2440
2138,2137138,17780,-492,1340,17837.21,27.07,-1.00,-1.0,2366
2141,2137141,17160,2492,2972,17592.85,27.02,-1.00,-1.0,2442
2144,2137144,17304,1728,1756,17478.50,27.02,-1.00,-1.0,2370
2149,2137149,17524,-2916,1228,17807.35,27.02,-1.00,-1.0,2441
2151,2137151,16396,768,1652,16496.90,27.12,-1.00,-1.0,2366
2154,2137154,16724,1648,1856,16907.18,27.02,-1.00,-1.0,2438
2157,2137157,16596,620,1400,16666.48,27.02,-1.00,-1.0,2372
2160,2137160,17396,924,1108,17455.72,27.12,-1.00,-1.0,2436
2162,2137162,16196,2056,1612,16405.37,27.02,-1.00,-1.0,2366
2165,2137165,16784,476,640,16802.94,27.02,-1.00,-1.0,2435
2168,2137168,16684,-1900,304,16794.59,26.93,-1.00,-1.0,2372
2173,2137173,17144,2648,1396,17403.38,27.07,-1.00,-1.0,2441
2175,2137175,16896,2340,904,17081.21,27.12,-1.00,-1.0,2421
2178,2137178,17396,88,1320,17446.23,27.07,-1.00,-1.0,2364
2181,2137181,16212,-1984,1428,16395.26,27.12,-1.00,-1.0,2433
2184,2137184,17780,-348,1324,17832.62,26.98,-1.00,-1.0,2372
2187,2137187,16676,628,1020,16718.96,26.98,-1.00,-1.0,2472
2189,2137189,17872,-1972,1336,18030.03,26.98,-1.00,-1.0,2374
2192,2137192,16908,-1668,1904,17096.43,27.07,-1.00,-1.0,2440
2195,2137195,17464,876,1748,17573.11,27.17,-1.00,-1.0,2363
2200,2137200,17420,-196,1328,17471.65,27.07,-1.00,-1.0,2452
2202,2137202,16540,-300,688,16557.02,27.02,-1.00,-1.0,2364
2205,2137205,17028,1472,784,17109.48,27.07,-1.00,-1.0,2459
2208,2137208,16296,2440,1012,16508.71,27.12,-1.00,-1.0,2371
2211,2137211,17612,2248,916,17778.50,26.98,-1.00,-1.0,2447
2214,2137214,16252,1944,1896,16477.30,27.02,-1.00,-1.0,2363
2216,2137216,17096,256,1720,17184.21,27.07,-1.00,-1.0,2454
2219,2137219,16800,-648,1520,16881.06,26.98,-1.00,-1.0,2370
2222,2137222,17148,-776,1824,17262.19,27.07,-1.00,-1.0,2360
2227,2137227,17592,-1456,1844,17748.20,27.07,-1.00,-1.0,2447
2229,2137229,17388,-1464,1992,17562.86,26.98,-1.00,-1.0,2376
2232,2137232,17304,-820,2332,17479.68,27.07,-1.00,-1.0,2455
2235,2137235,17076,-320,2092,17206.64,27.07,-1.00,-1.0,2350
2238,2137238,16788,-1088,1212,16866.82,27.07,-1.00,-1.0,2452
2240,2137240,16708,-572,1272,16766.11,27.07,-1.00,-1.0,2373
2243,2137243,16864,936,1416,16949.21,27.07,-1.00,-1.0,2449
2246,2137246,16488,2264,1332,16695.93,26.98,-1.00,-1.0,2365
2251,2137251,17148,936,1172,17213.47,26.98,-1.00,-1.0,2452
2253,2137253,17036,2488,1520,17283.69,27.02,-1.00,-1.0,2363
2256,2137256,17088,1848,1480,17251.24,26.98,-1.00,-1.0,2463
2259,2137259,16884,588,1732,16982.79,27.07,-1.00,-1.0,2371
2262,2137262,17096,-956,1664,17203.37,26.98,-1.00,-1.0,2447
2265,2137265,17128,-64,1412,17186.22,26.98,-1.00,-1.0,2364
2267,2137267,17172,452,1308,17227.67,26.98,-1.00,-1.0,2364
2270,2137270,17168,-636,1716,17265.27,27.02,-1.00,-1.0,2439
2273,2137273,16716,-1720,1604,16880.64,27.12,-1.00,-1.0,2363
2278,2137278,17104,372,1440,17168.54,27.02,-1.00,-1.0,2444
2280,2137280,17268,1316,1252,17363.27,27.07,-1.00,-1.0,2366
2283,2137283,16968,932,1256,17039.93,26.93,-1.00,-1.0,2444
2286,2137286,17080,288,1164,17122.04,27.12,-1.00,-1.0,2364
2289,2137289,16924,380,1216,16971.88,27.12,-1.00,-1.0,2438
2291,2137291,16980,1796,1416,17133.33,27.07,-1.00,-1.0,2366
2294,2137294,16952,2064,1156,17116.27,27.12,-1.00,-1.0,2440
2297,2137297,16604,1104,1036,16672.88,26.93,-1.00,-1.0,2365
2302,2137302,16932,36,1108,16968.25,27.12,-1.00,-1.0,2444
2304,2137304,17032,868,1796,17148.41,27.02,-1.00,-1.0,2366
2307,2137307,17000,-416,1932,17114.49,27.02,-1.00,-1.0,2430
2310,2137310,17172,-1320,1660,17302.47,27.02,-1.00,-1.0,2365
2312,2137312,17228,-624,1756,17328.50,26.93,-1.00,-1.0,2359
2315,2137315,17540,584,1712,17633.03,26.98,-1.00,-1.0,2440
2318,2137318,17444,416,1424,17506.97,27.12,-1.00,-1.0,2364
2321,2137321,17156,-612,1524,17234.43,27.07,-1.00,-1.0,2446
2324,2137324,16856,-84,1576,16929.72,27.07,-1.00,-1.0,2371
2329,2137329,16780,2192,1236,16967.64,27.17,-1.00,-1.0,2445
2331,2137331,16740,1916,988,16878.23,26.98,-1.00,-1.0,2363
2334,2137334,16780,864,980,16830.78,27.07,-1.00,-1.0,2442
2337,2137337,16796,-364,1136,16838.31,27.17,-1.00,-1.0,2370
2340,2137340,17120,-792,1324,17189.38,27.07,-1.00,-1.0,2440
2342,2137342,17124,-696,1588,17211.55,27.07,-1.00,-1.0,2430
2345,2137345,17348,-164,1748,17436.61,27.07,-1.00,-1.0,2438
2348,2137348,17276,116,2028,17395.01,27.07,-1.00,-1.0,2375
2351,2137351,17244,168,1948,17354.49,27.17,-1.00,-1.0,2362
2356,2137356,16932,-160,2076,17059.54,27.07,-1.00,-1.0,2448
2358,2137358,16920,188,1600,16996.52,27.07,-1.00,-1.0,2367
2361,2137361,16920,896,1308,16994.12,27.07,-1.00,-1.0,2442
2364,2137364,17024,1488,980,17116.98,26.98,-1.00,-1.0,2366
2367,2137367,16960,1788,1156,17093.12,27.07,-1.00,-1.0,2431
2369,2137369,17016,1212,1116,17095.57,26.98,-1.00,-1.0,2366
2372,2137372,16924,332,1204,16970.02,27.07,-1.00,-1.0,2439
2375,2137375,16920,-100,1224,16964.51,27.07,-1.00,-1.0,2366
2380,2137380,16864,-648,1524,16945.12,27.07,-1.00,-1.0,2441
2383,2137383,17008,-876,1388,17087.01,27.12,-1.00,-1.0,2367
2385,2137385,17260,-276,1472,17324.85,27.07,-1.00,-1.0,2439
2388,2137388,17204,380,1648,17286.93,27.12,-1.00,-1.0,2366
2391,2137391,17092,248,1704,17178.52,27.07,-1.00,-1.0,2423
2394,2137394,16912,-800,1404,16989.03,27.02,-1.00,-1.0,2370
2396,2137396,17040,-488,1028,17077.96,27.07,-1.00,-1.0,2362
2399,2137399,17004,800,1252,17068.79,27.07,-1.00,-1.0,2435
2402,2137402,17184,2212,1440,17385.52,27.02,-1.00,-1.0,2369
2407,2137407,16872,388,1436,16937.45,27.02,-1.00,-1.0,2447
2409,2137409,16932,52,1436,16992.86,27.02,-1.00,-1.0,2365
2412,2137412,17080,776,1492,17162.59,27.02,-1.00,-1.0,2454
2415,2137415,17248,552,1408,17314.18,27.02,-1.00,-1.0,2374
2418,2137418,17244,-96,1388,17300.04,27.02,-1.00,-1.0,2438
2421,2137421,17092,-384,1432,17156.18,27.12,-1.00,-1.0,2365
2423,2137423,16960,380,1800,17059.48,27.12,-1.00,-1.0,2450
2426,2137426,16936,868,1744,17047.67,27.02,-1.00,-1.0,2374
2431,2137431,16860,-300,1172,16903.35,26.98,-1.00,-1.0,2440
2434,2137434,16996,-816,964,17042.86,27.07,-1.00,-1.0,2355
2436,2137436,16956,-436,1116,16998.28,27.07,-1.00,-1.0,2360
2439,2137439,17104,368,1364,17162.25,27.02,-1.00,-1.0,2439
2442,2137442,17012,708,1416,17085.50,26.98,-1.00,-1.0,2370
2445,2137445,16848,396,1320,16904.27,27.12,-1.00,-1.0,2446
2447,2137447,17000,156,1400,17058.26,27.12,-1.00,-1.0,2366
2450,2137450,16960,436,1312,17016.26,27.02,-1.00,-1.0,2436
2453,2137453,16896,456,1320,16953.62,26.98,-1.00,-1.0,2367
2458,2137458,16824,-316,1428,16887.45,27.07,-1.00,-1.0,2439
2461,2137461,17024,-180,1508,17091.61,27.07,-1.00,-1.0,2369
2463,2137463,17112,848,1608,17208.29,27.07,-1.00,-1.0,2441
2466,2137466,17288,912,1480,17375.19,26.98,-1.00,-1.0,2367
2469,2137469,17220,404,1588,17297.79,27.07,-1.00,-1.0,2422
2472,2137472,17208,-48,1396,17264.60,27.07,-1.00,-1.0,2367
2474,2137474,17148,260,1084,17184.20,27.17,-1.00,-1.0,2360
2477,2137477,16992,640,1220,17047.76,27.02,-1.00,-1.0,2436
2480,2137480,16804,368,1000,16837.75,26.98,-1.00,-1.0,2367
2485,2137485,16756,-8,1224,16800.65,27.07,-1.00,-1.0,2442
2488,2137488,16784,492,1472,16855.61,27.07,-1.00,-1.0,2372
2490,2137490,17104,652,1392,17172.93,27.07,-1.00,-1.0,2443
2493,2137493,17216,260,1444,17278.41,27.07,-1.00,-1.0,2381
2496,2137496,17244,-200,1528,17312.72,27.07,-1.00,-1.0,2437
2499,2137499,17176,-300,1572,17250.40,26.98,-1.00,-1.0,2370
2501,2137501,17068,116,1540,17137.73,26.98,-1.00,-1.0,2439
2504,2137504,17088,256,1624,17166.91,27.07,-1.00,-1.0,2382
2510,2137510,17084,468,1716,17176.34,26.98,-1.00,-1.0,2444
2512,2137512,16920,452,1636,17004.92,27.07,-1.00,-1.0,2374
2515,2137515,17068,496,1608,17150.75,26.98,-1.00,-1.0,2350
2518,2137518,17064,448,1404,17127.52,27.02,-1.00,-1.0,2444
2520,2137520,16964,244,1352,17019.54,27.07,-1.00,-1.0,2366
2523,2137523,16988,-216,1380,17045.33,27.07,-1.00,-1.0,2423
2526,2137526,16984,-420,1404,17047.11,26.98,-1.00,-1.0,2369
2529,2137529,16956,-544,1320,17016.00,27.02,-1.00,-1.0,2436
2531,2137531,17000,132,1572,17073.04,27.07,-1.00,-1.0,2369
2536,2137536,16944,412,1508,17015.96,27.12,-1.00,-1.0,2440
2539,2137539,17124,144,1224,17168.29,27.02,-1.00,-1.0,2365
2542,2137542,17084,64,1424,17143.36,27.02,-1.00,-1.0,2444
2544,2137544,17016,228,1224,17061.49,27.02,-1.00,-1.0,2368
2547,2137547,16960,316,1128,17000.41,27.02,-1.00,-1.0,2423
2550,2137550,16944,536,1300,17002.25,27.07,-1.00,-1.0,2370
2553,2137553,17024,960,1484,17115.50,27.12,-1.00,-1.0,2436
2555,2137555,16904,1012,1644,17013.88,27.02,-1.00,-1.0,2373
2558,2137558,16980,448,1636,17064.51,27.02,-1.00,-1.0,2359
2563,2137563,17072,32,1656,17152.16,27.12,-1.00,-1.0,2440
2566,2137566,17128,420,1652,17212.61,26.93,-1.00,-1.0,2366
2568,2137568,17164,624,1632,17252.70,27.12,-1.00,-1.0,2440
2571,2137571,17052,556,1436,17121.39,27.07,-1.00,-1.0,2367
2574,2137574,17044,552,1660,17133.54,27.12,-1.00,-1.0,2435
2577,2137577,17004,908,1580,17101.37,27.02,-1.00,-1.0,2366
2579,2137579,16828,740,1404,16902.67,27.02,-1.00,-1.0,2436
2582,2137582,16856,320,1260,16906.06,26.98,-1.00,-1.0,2368
2587,2137587,16860,388,1528,16933.54,27.07,-1.00,-1.0,2453
2590,2137590,16984,500,1252,17037.42,27.07,-1.00,-1.0,2374
2592,2137592,17060,448,1356,17119.67,27.02,-1.00,-1.0,2366
2595,2137595,17244,-144,1328,17295.66,27.02,-1.00,-1.0,2439
2598,2137598,17212,-556,1428,17280.08,26.93,-1.00,-1.0,2369
2601,2137601,17060,-416,1368,17119.81,27.02,-1.00,-1.0,2434
2603,2137603,17044,-72,1392,17100.90,27.02,-1.00,-1.0,2373
2606,2137606,16936,48,1328,16988.05,26.93,-1.00,-1.0,2435
2609,2137609,16908,144,1428,16968.81,27.07,-1.00,-1.0,2366
2614,2137614,16992,772,1224,17053.51,27.07,-1.00,-1.0,2439
2617,2137617,16956,656,1148,17007.47,27.12,-1.00,-1.0,2365
2619,2137619,16944,124,1148,16983.30,26.98,-1.00,-1.0,2440
2622,2137622,16892,4,1172,16932.61,26.98,-1.00,-1.0,2366
2625,2137625,17024,292,1264,17073.36,27.07,-1.00,-1.0,2435
2628,2137628,17060,524,1436,17128.35,27.02,-1.00,-1.0,2365
2630,2137630,17184,368,1388,17243.89,27.07,-1.00,-1.0,2363
2633,2137633,17112,56,1468,17174.94,27.02,-1.00,-1.0,2432
2636,2137636,17000,-40,1528,17068.58,27.07,-1.00,-1.0,2374
2641,2137641,17000,-64,1552,17070.82,26.98,-1.00,-1.0,2439
2644,2137644,16956,-148,1552,17027.52,27.07,-1.00,-1.0,2373
2647,2137647,17036,160,1308,17086.89,27.07,-1.00,-1.0,2440
2649,2137649,16944,492,1436,17011.86,27.07,-1.00,-1.0,2367
2652,2137652,17076,628,1464,17150.14,27.07,-1.00,-1.0,2435
2655,2137655,16976,480,1364,17037.47,27.07,-1.00,-1.0,2373
2658,2137658,16832,360,1516,16903.97,26.98,-1.00,-1.0,2437
2660,2137660,16860,328,1452,16925.59,27.07,-1.00,-1.0,2367
2665,2137665,17060,484,1668,17148.18,26.98,-1.00,-1.0,2439
2668,2137668,17020,376,1672,17106.06,27.12,-1.00,-1.0,2368
2670,2137670,17124,-8,1760,17214.21,26.98,-1.00,-1.0,2360
2673,2137673,17196,-120,1608,17271.44,27.07,-1.00,-1.0,2439
2676,2137676,17028,-152,1712,17114.52,27.07,-1.00,-1.0,2366
2679,2137679,17128,-4,1632,17205.58,27.07,-1.00,-1.0,2437
2681,2137681,17080,56,1616,17156.37,26.98,-1.00,-1.0,2366
2684,2137684,17088,24,1644,17166.92,27.07,-1.00,-1.0,2438
2687,2137687,16916,328,1600,16994.67,27.02,-1.00,-1.0,2368
2692,2137692,16980,948,1584,17080.05,27.02,-1.00,-1.0,2453
2695,2137695,17076,604,1612,17162.55,27.02,-1.00,-1.0,2373
2698,2137698,16960,500,1548,17037.84,27.02,-1.00,-1.0,2452
2700,2137700,16956,316,1540,17028.72,27.02,-1.00,-1.0,2376
2703,2137703,17112,444,1516,17184.76,27.07,-1.00,-1.0,2445
2706,2137706,17080,596,1672,17171.99,27.02,-1.00,-1.0,2368
2708,2137708,17096,496,1616,17179.37,27.07,-1.00,-1.0,2347
2711,2137711,16988,204,1332,17041.36,27.07,-1.00,-1.0,2436
2714,2137714,16992,212,1348,17046.70,27.07,-1.00,-1.0,2367
2719,2137719,17012,108,1264,17059.23,27.07,-1.00,-1.0,2440
2722,2137722,16984,-20,996,17013.19,27.07,-1.00,-1.0,2366
2724,2137724,16996,0,992,17024.93,26.98,-1.00,-1.0,2440
2727,2137727,17016,468,924,17047.49,27.07,-1.00,-1.0,2366
2730,2137730,16956,588,1036,16997.79,27.07,-1.00,-1.0,2436
2733,2137733,17036,440,1288,17090.29,27.07,-1.00,-1.0,2366
2735,2137735,17044,572,1424,17112.95,27.07,-1.00,-1.0,2437
2738,2137738,16956,700,1540,17040.17,27.17,-1.00,-1.0,2366
2741,2137741,17064,576,1728,17160.94,27.07,-1.00,-1.0,2361
2746,2137746,17068,20,1612,17143.97,27.07,-1.00,-1.0,2439
2749,2137749,17132,-116,1536,17201.11,27.07,-1.00,-1.0,2367
2751,2137751,17108,-64,1504,17174.10,26.98,-1.00,-1.0,2440
2754,2137754,17068,4,1392,17124.67,26.98,-1.00,-1.0,2365
2757,2137757,17032,-96,1148,17070.92,26.98,-1.00,-1.0,2436
2760,2137760,17100,-20,1148,17138.50,26.98,-1.00,-1.0,2369
2762,2137762,16964,72,1040,16996.00,26.98,-1.00,-1.0,2435
2765,2137765,16888,244,1060,16922.99,27.07,-1.00,-1.0,2366
2770,2137770,16988,20,1264,17034.97,27.07,-1.00,-1.0,2441
2773,2137773,17064,388,1304,17118.15,27.07,-1.00,-1.0,2369
2776,2137776,17032,512,1616,17116.15,27.07,-1.00,-1.0,2437
2778,2137778,17044,540,1736,17140.69,26.98,-1.00,-1.0,2368
2781,2137781,17080,324,1792,17176.80,27.07,-1.00,-1.0,2360
2784,2137784,17112,144,1844,17211.67,27.12,-1.00,-1.0,2437
2786,2137786,17044,344,1884,17151.26,27.12,-1.00,-1.0,2367
2789,2137789,17072,496,1712,17164.79,27.02,-1.00,-1.0,2436
2792,2137792,17016,188,1628,17094.74,27.02,-1.00,-1.0,2367
2797,2137797,16956,244,1476,17021.87,27.12,-1.00,-1.0,2440
2800,2137800,16928,368,1296,16981.53,27.07,-1.00,-1.0,2369
2803,2137803,16884,108,1232,16929.23,27.02,-1.00,-1.0,2435
2805,2137805,16932,144,1160,16972.30,26.98,-1.00,-1.0,2369
2808,2137808,16960,152,1188,17002.24,27.12,-1.00,-1.0,2435
2811,2137811,17036,320,1376,17094.47,27.07,-1.00,-1.0,2369
2814,2137814,16940,272,1424,17001.92,27.12,-1.00,-1.0,2433
2816,2137816,16972,96,1396,17029.59,27.07,-1.00,-1.0,2369
2819,2137819,17000,76,1480,17064.47,27.02,-1.00,-1.0,2360
2824,2137824,17024,328,1600,17102.17,27.02,-1.00,-1.0,2441
2827,2137827,17104,300,1620,17183.17,26.98,-1.00,-1.0,2357
2830,2137830,16992,628,1604,17079.09,27.02,-1.00,-1.0,2444
2832,2137832,17068,460,1764,17165.08,27.02,-1.00,-1.0,2367
2835,2137835,17060,492,1408,17125.07,27.02,-1.00,-1.0,2435
2838,2137838,17020,464,1640,17105.12,27.07,-1.00,-1.0,2369
2841,2137841,17004,248,1424,17065.32,26.98,-1.00,-1.0,2471
2844,2137844,17008,316,1420,17070.10,26.98,-1.00,-1.0,2369
2849,2137849,17036,460,1460,17104.63,27.07,-1.00,-1.0,2445
2851,2137851,16976,356,1444,17041.02,27.07,-1.00,-1.0,2364
2854,2137854,17080,552,1212,17131.84,27.07,-1.00,-1.0,2365
2857,2137857,17052,548,1464,17123.50,27.12,-1.00,-1.0,2454
2859,2137859,17060,400,1540,17134.04,27.07,-1.00,-1.0,2370
2862,2137862,17044,452,1372,17105.11,27.12,-1.00,-1.0,2441
2865,2137865,16996,460,1216,17045.65,26.98,-1.00,-1.0,2363
2868,2137868,16940,228,1248,16987.44,27.02,-1.00,-1.0,2451
2870,2137870,16836,144,1172,16877.36,27.02,-1.00,-1.0,2371
2876,2137876,17000,116,1284,17048.82,27.07,-1.00,-1.0,2444
2878,2137878,17016,132,1300,17066.10,27.07,-1.00,-1.0,2362
2881,2137881,17024,172,1352,17078.47,27.07,-1.00,-1.0,2443
2884,2137884,17056,196,1300,17106.59,27.17,-1.00,-1.0,2370
2887,2137887,16940,260,1504,17008.62,27.07,-1.00,-1.0,2439
2889,2137889,17084,424,1436,17149.49,27.07,-1.00,-1.0,2363
2892,2137892,17160,544,1520,17235.78,27.07,-1.00,-1.0,2367
2895,2137895,17116,404,1424,17179.88,27.02,-1.00,-1.0,2450
2897,2137897,17016,292,1468,17081.70,26.98,-1.00,-1.0,2372
2902,2137902,17024,340,1400,17084.85,27.07,-1.00,-1.0,2444
2905,2137905,16984,308,1340,17039.56,26.98,-1.00,-1.0,2362
2908,2137908,17052,48,1348,17105.27,26.98,-1.00,-1.0,2451
2910,2137910,16844,124,1312,16895.47,26.98,-1.00,-1.0,2363
2913,2137913,16956,160,1296,17006.21,27.07,-1.00,-1.0,2445
2916,2137916,17052,48,1432,17112.09,27.07,-1.00,-1.0,2362
2919,2137919,17024,4,1504,17090.31,27.07,-1.00,-1.0,2452
2921,2137921,17084,20,1504,17150.09,26.98,-1.00,-1.0,2350
2926,2137926,16936,212,1648,17017.31,27.07,-1.00,-1.0,2444
2929,2137929,16988,204,1588,17063.28,27.07,-1.00,-1.0,2365
2932,2137932,16956,140,1688,17040.39,27.07,-1.00,-1.0,2362
2934,2137934,16940,288,1656,17023.19,27.12,-1.00,-1.0,2453
2937,2137937,17060,412,1684,17147.86,27.02,-1.00,-1.0,2370
2940,2137940,17044,560,1668,17134.58,27.12,-1.00,-1.0,2427
2943,2137943,17136,564,1764,17235.79,27.17,-1.00,-1.0,2362
2945,2137945,17072,472,1704,17163.32,27.07,-1.00,-1.0,2440
2948,2137948,17016,332,1564,17090.95,27.02,-1.00,-1.0,2370
2953,2137953,17020,436,1364,17080.13,27.07,-1.00,-1.0,2444
2956,2137956,16964,304,1332,17018.93,27.02,-1.00,-1.0,2364
2959,2137959,23620,2000,-7212,24777.36,26.98,-1.00,-1.0,2437
2961,2137961,7624,2792,-4328,9200.66,27.02,-1.00,-1.0,2371
2964,2137964,4040,-2204,14220,14946.16,27.07,-1.00,-1.0,2440
2967,2137967,26140,7288,6576,27922.36,27.12,-1.00,-1.0,2364
2969,2137969,18056,4912,10912,21661.46,27.07,-1.00,-1.0,2360
2972,2137972,28500,-23348,-17940,40978.32,26.98,-1.00,-1.0,2440
2975,2137975,1476,-2784,3844,4970.47,26.93,-1.00,-1.0,2352
2980,2137980,19332,9572,1780,21645.27,27.12,-1.00,-1.0,2452
2983,2137983,11224,-1004,-2872,11629.04,27.02,-1.00,-1.0,2377
2986,2137986,29476,10192,-404,31190.94,27.07,-1.00,-1.0,2448
2989,2137989,12336,19360,-4444,23382.38,27.12,-1.00,-1.0,2373
2991,2137991,32767,1460,14804,35985.64,27.07,-1.00,-1.0,2442
2994,2137994,5844,-13464,10168,17855.53,27.12,-1.00,-1.0,2378
2997,2137997,25352,-7464,2600,26555.51,27.17,-1.00,-1.0,2444
3000,2138000,12196,17040,7780,22352.46,27.02,-1.00,-1.0,2366
3005,2138005,8216,-3864,2164,9333.60,27.02,-1.00,-1.0,2443
3007,2138007,23740,-3504,-2756,24154.94,27.02,-1.00,-1.0,2365
3010,2138010,10388,-1272,-1308,10547.01,27.02,-1.00,-1.0,2459
3013,2138013,22136,-420,3900,22480.86,27.02,-1.00,-1.0,2358
3016,2138016,12140,-7408,2708,14477.27,27.12,-1.00,-1.0,2440
3018,2138018,24964,5680,-1120,25626.51,27.02,-1.00,-1.0,2365
3021,2138021,9888,12164,4824,16401.42,27.02,-1.00,-1.0,2440
3024,2138024,21440,-3248,-540,21691.35,27.07,-1.00,-1.0,2372
3029,2138029,20700,1548,1104,20787.14,27.07,-1.00,-1.0,2444
3031,2138031,16364,7648,2296,18208.35,27.07,-1.00,-1.0,2363
3034,2138034,19444,72,3576,19770.23,27.02,-1.00,-1.0,2360
3037,2138037,13160,-8032,-4,15417.48,27.12,-1.00,-1.0,2451
3039,2138039,21648,2176,2088,21857.05,27.02,-1.00,-1.0,2363
3042,2138042,12484,5972,3936,14387.74,27.12,-1.00,-1.0,2442
3045,2138045,21188,2168,3324,21556.45,27.12,-1.00,-1.0,2363
3048,2138048,14240,-7644,1044,16195.62,27.02,-1.00,-1.0,2447
3051,2138051,19476,-4724,-992,20065.26,26.98,-1.00,-1.0,2435
3056,2138056,23300,1036,2236,23429.96,27.17,-1.00,-1.0,2449
3058,2138058,11364,2752,2352,11926.69,27.07,-1.00,-1.0,2369
3061,2138061,23952,-544,1100,23983.42,27.02,-1.00,-1.0,2423
3064,2138064,10628,3516,1168,11255.26,27.07,-1.00,-1.0,2369
3067,2138067,22556,312,440,22562.45,27.07,-1.00,-1.0,2434
3069,2138069,14528,-952,1296,14616.73,27.07,-1.00,-1.0,2373
3072,2138072,19028,196,-520,19036.11,27.02,-1.00,-1.0,2436
3075,2138075,14448,-804,-172,14471.38,27.07,-1.00,-1.0,2354
3078,2138078,17288,1016,2196,17456.51,27.07,-1.00,-1.0,2424
3083,2138083,18420,1052,1320,18497.18,27.07,-1.00,-1.0,2450
3085,2138085,16460,1792,1700,16644.30,27.17,-1.00,-1.0,2374
3088,2138088,18940,-1844,1248,19070.43,27.02,-1.00,-1.0,2436
3091,2138091,15904,-4032,2132,16545.08,27.07,-1.00,-1.0,2366
3094,2138094,18772,-848,2328,18934.80,27.07,-1.00,-1.0,2444
3096,2138096,15876,3844,3612,16729.32,27.07,-1.00,-1.0,2375
3099,2138099,18292,5364,3576,19394.78,26.93,-1.00,-1.0,2436
3102,2138102,16008,1428,2904,16331.82,27.07,-1.00,-1.0,2366
3107,2138107,17540,-2956,380,17791.40,26.98,-1.00,-1.0,2452
3110,2138110,16540,4936,816,17280.09,27.07,-1.00,-1.0,2373
3112,2138112,17972,5500,1024,18822.63,27.07,-1.00,-1.0,2445
3115,2138115,15100,-2340,864,15304.64,27.17,-1.00,-1.0,2380
3118,2138118,18576,-6200,-976,19607.66,27.07,-1.00,-1.0,2438
3121,2138121,17392,4136,592,17886.83,27.07,-1.00,-1.0,2370
3123,2138123,17476,6576,1104,18704.90,26.98,-1.00,-1.0,2444
3126,2138126,17396,-4504,-260,17971.49,27.07,-1.00,-1.0,2381
3129,2138129,15824,-7296,1888,17526.98,26.98,-1.00,-1.0,2360
3133,2138133,18448,7428,3684,20225.62,27.02,-1.00,-1.0,2444
3136,2138136,15980,4812,3384,17028.42,27.02,-1.00,-1.0,2366
3139,2138139,18892,-3808,1584,19336.95,27.02,-1.00,-1.0,2434
3142,2138142,16244,-1776,1656,16424.50,27.02,-1.00,-1.0,2367
3144,2138144,17224,3856,1908,17753.18,27.12,-1.00,-1.0,2424
3147,2138147,17124,3388,1632,17532.07,27.02,-1.00,-1.0,2366
3150,2138150,16340,40,1584,16416.65,27.12,-1.00,-1.0,2435
3153,2138153,16572,-1024,1300,16654.42,27.17,-1.00,-1.0,2366
3157,2138157,17564,1496,560,17636.49,27.12,-1.00,-1.0,2445
3160,2138160,16968,2248,1620,17192.76,27.12,-1.00,-1.0,2367
3163,2138163,16816,1016,824,16866.80,27.12,-1.00,-1.0,2436
3166,2138166,17528,-1940,964,17661.36,27.12,-1.00,-1.0,2366
3168,2138168,17316,-1000,1068,17377.70,27.02,-1.00,-1.0,2436
3171,2138171,16964,564,1788,17067.29,27.02,-1.00,-1.0,2366
3174,2138174,17112,324,2192,17254.87,27.02,-1.00,-1.0,2361
3177,2138177,16928,72,1708,17014.10,27.12,-1.00,-1.0,2441
3180,2138180,17428,2060,2376,17709.44,26.98,-1.00,-1.0,2368
3185,2138185,17216,-1448,548,17285.47,27.07,-1.00,-1.0,2449
3187,2138187,16936,-2168,816,17093.69,27.07,-1.00,-1.0,2377
3190,2138190,16564,1340,1816,16717.04,27.12,-1.00,-1.0,2446
3193,2138193,17020,3880,1056,17488.57,27.12,-1.00,-1.0,2374
3196,2138196,17176,520,620,17195.05,27.02,-1.00,-1.0,2445
3198,2138198,16312,-2128,940,16477.05,27.02,-1.00,-1.0,2377
3201,2138201,17080,-1480,1156,17182.93,27.02,-1.00,-1.0,2442
3204,2138204,17216,952,1040,17273.64,26.93,-1.00,-1.0,2369
3209,2138209,17812,-2044,1464,17988.57,27.02,-1.00,-1.0,2449
3211,2138211,16828,-736,1744,16934.13,27.07,-1.00,-1.0,2365
3214,2138214,17208,840,1528,17296.12,27.12,-1.00,-1.0,2448
3217,2138217,16872,192,1624,16951.07,27.07,-1.00,-1.0,2367
3220,2138220,17108,-1028,964,17165.95,27.12,-1.00,-1.0,2363
3222,2138222,16868,204,800,16888.19,27.02,-1.00,-1.0,2437
3225,2138225,17112,1912,1072,17251.82,27.12,-1.00,-1.0,2370
3228,2138228,16628,2632,1240,16880.62,27.02,-1.00,-1.0,2434
3231,2138231,17412,1664,1428,17549.53,27.12,-1.00,-1.0,2366
3236,2138236,17168,168,1524,17236.33,27.02,-1.00,-1.0,2447
3238,2138238,16880,-120,2060,17005.66,27.02,-1.00,-1.0,2375
3241,2138241,16976,-236,1928,17086.76,27.07,-1.00,-1.0,2437
3244,2138244,17000,-1028,1792,17125.07,27.12,-1.00,-1.0,2367
3247,2138247,17612,-1340,1720,17746.45,26.98,-1.00,-1.0,2435
3249,2138249,17240,-648,2220,17394.42,27.12,-1.00,-1.0,2375
3252,2138252,17216,24,2352,17375.94,26.98,-1.00,-1.0,2436
3255,2138255,16904,-652,1340,16969.56,27.02,-1.00,-1.0,2368
3260,2138260,16684,-624,1076,16730.30,27.02,-1.00,-1.0,2452
3263,2138263,16812,1752,1072,16937.00,27.12,-1.00,-1.0,2374
3265,2138265,16580,2204,1076,16760.42,27.07,-1.00,-1.0,2363
3268,2138268,17192,800,900,17234.12,27.17,-1.00,-1.0,2435
3271,2138271,17020,1332,1280,17119.96,27.02,-1.00,-1.0,2367
3273,2138273,17208,2236,1384,17407.77,27.07,-1.00,-1.0,2437
3276,2138276,17128,1664,1596,17282.49,27.07,-1.00,-1.0,2370
3279,2138279,16936,-288,1948,17050.10,27.07,-1.00,-1.0,2435
3282,2138282,17060,-656,1616,17148.92,26.98,-1.00,-1.0,2366
3287,2138287,17216,244,1728,17304.22,26.98,-1.00,-1.0,2449
3290,2138290,17060,-1176,2032,17220.79,27.12,-1.00,-1.0,2365
3292,2138292,16832,-1664,1632,16992.60,27.07,-1.00,-1.0,2438
3295,2138295,17052,-612,1356,17116.78,27.02,-1.00,-1.0,2373
3298,2138298,17016,812,1216,17078.71,27.07,-1.00,-1.0,2438
3301,2138301,17392,1368,948,17471.46,27.12,-1.00,-1.0,2369
3303,2138303,16828,736,948,16870.74,26.98,-1.00,-1.0,2423
3306,2138306,17096,156,704,17111.20,27.02,-1.00,-1.0,2380
3309,2138309,16692,688,1124,16743.94,27.12,-1.00,-1.0,2368
3314,2138314,16880,1760,1048,17003.83,27.07,-1.00,-1.0,2446
3316,2138316,16816,356,1008,16849.95,26.98,-1.00,-1.0,2369
3319,2138319,17060,-432,1032,17096.64,27.07,-1.00,-1.0,2436
3322,2138322,16884,200,1604,16961.20,27.07,-1.00,-1.0,2368
3325,2138325,17144,356,1952,17258.44,27.07,-1.00,-1.0,2434
3327,2138327,17224,-828,1964,17355.38,26.98,-1.00,-1.0,2369
3330,2138330,17392,-840,1772,17502.21,27.12,-1.00,-1.0,2466
3333,2138333,17280,-44,1740,17367.44,27.02,-1.00,-1.0,2364
3339,2138339,17200,-112,1292,17248.82,27.07,-1.00,-1.0,2468
3341,2138341,16824,-128,1288,16873.72,27.17,-1.00,-1.0,2370
3344,2138344,16732,1100,1152,16807.64,27.02,-1.00,-1.0,2427
3347,2138347,16756,1872,912,16884.89,27.07,-1.00,-1.0,2363
3350,2138350,16836,2008,908,16979.62,27.07,-1.00,-1.0,2434
3352,2138352,16788,640,876,16823.02,27.07,-1.00,-1.0,2371
3355,2138355,16844,-128,1112,16881.15,27.02,-1.00,-1.0,2360
3358,2138358,17088,-700,1416,17160.85,27.02,-1.00,-1.0,2446
3360,2138360,17184,-808,1792,17296.07,27.07,-1.00,-1.0,2362
3365,2138365,17244,-88,1988,17358.44,27.12,-1.00,-1.0,2449
3368,2138368,17252,136,2204,17392.75,27.12,-1.00,-1.0,2363
3371,2138371,17116,-40,2300,17269.89,27.02,-1.00,-1.0,2445
3373,2138373,16848,-16,2216,16993.12,26.98,-1.00,-1.0,2364
3376,2138376,16860,160,1756,16951.95,27.12,-1.00,-1.0,2441
3379,2138379,16896,616,1548,16977.94,27.12,-1.00,-1.0,2364
3382,2138382,17072,1260,1280,17166.22,27.12,-1.00,-1.0,2445
3384,2138384,16984,1896,1052,17121.85,27.07,-1.00,-1.0,2363
3389,2138389,16984,664,1136,17034.89,26.98,-1.00,-1.0,2448
3392,2138392,16952,164,1008,16982.73,27.07,-1.00,-1.0,2366
3395,2138395,17016,-236,1196,17059.61,27.12,-1.00,-1.0,2361
3397,2138397,16932,-228,1536,17003.06,27.02,-1.00,-1.0,2438
3400,2138400,17000,-616,1476,17075.07,27.12,-1.00,-1.0,2364
3403,2138403,17124,-496,1616,17207.23,27.02,-1.00,-1.0,2437
3406,2138406,17196,60,1628,17273.00,27.02,-1.00,-1.0,2362
3408,2138408,17124,524,1696,17215.76,27.02,-1.00,-1.0,2439
3411,2138411,16948,-548,1408,17015.21,27.02,-1.00,-1.0,2364
3416,2138416,17108,220,1104,17145.00,27.02,-1.00,-1.0,2453
3419,2138419,17044,1264,1412,17149.04,27.07,-1.00,-1.0,2362
3422,2138422,16964,2096,1556,17163.67,27.02,-1.00,-1.0,2449
3424,2138424,16948,588,1636,17036.93,27.07,-1.00,-1.0,2371
3427,2138427,16924,-500,1468,16994.90,27.02,-1.00,-1.0,2440
3430,2138430,16912,-148,1600,16988.16,27.07,-1.00,-1.0,2362
3433,2138433,17096,944,1604,17197.01,27.12,-1.00,-1.0,2450
3435,2138435,17292,520,1752,17388.30,27.07,-1.00,-1.0,2370
3438,2138438,17192,-228,1668,17274.23,27.12,-1.00,-1.0,2348
3443,2138443,16888,224,1820,16987.26,26.98,-1.00,-1.0,2435
3446,2138446,16768,988,1680,16880.89,26.98,-1.00,-1.0,2369
3448,2138448,16748,604,1440,16820.64,27.07,-1.00,-1.0,2448
3451,2138451,16948,-164,1244,16994.38,27.17,-1.00,-1.0,2379
3454,2138454,17024,-836,960,17071.53,27.12,-1.00,-1.0,2440
3457,2138457,17012,-100,1092,17047.30,27.17,-1.00,-1.0,2365
3459,2138459,17140,844,1236,17205.22,27.07,-1.00,-1.0,2443
3462,2138462,16992,952,1128,17055.99,27.07,-1.00,-1.0,2378
3467,2138467,16996,-188,1052,17029.56,26.98,-1.00,-1.0,2447
3470,2138470,16840,300,1200,16885.37,27.07,-1.00,-1.0,2365
3473,2138473,16960,536,1416,17027.45,27.07,-1.00,-1.0,2441
3475,2138475,16848,8,1556,16919.70,27.07,-1.00,-1.0,2364
3478,2138478,16864,-344,1392,16924.85,27.12,-1.00,-1.0,2364
3481,2138481,17064,256,1508,17132.42,27.02,-1.00,-1.0,2451
3483,2138483,17260,1212,1560,17372.68,27.07,-1.00,-1.0,2371
3486,2138486,17336,808,1292,17402.85,26.93,-1.00,-1.0,2448
3489,2138489,17224,260,1208,17268.27,27.02,-1.00,-1.0,2363
3494,2138494,17148,488,904,17178.74,27.12,-1.00,-1.0,2454
3497,2138497,16940,876,1160,17002.25,27.02,-1.00,-1.0,2371
3499,2138499,16792,316,1092,16830.44,27.12,-1.00,-1.0,2427
3502,2138502,16764,-52,1156,16803.89,27.12,-1.00,-1.0,2377
3505,2138505,16808,128,1392,16866.03,27.02,-1.00,-1.0,2441
3508,2138508,16960,440,1676,17048.29,27.02,-1.00,-1.0,2365
3510,2138510,17208,256,1588,17283.01,27.02,-1.00,-1.0,2447
3513,2138513,17112,-252,1672,17195.34,27.02,-1.00,-1.0,2378
3516,2138516,17284,-416,1628,17365.49,27.17,-1.00,-1.0,2360
3521,2138521,17200,-52,1612,17275.45,27.02,-1.00,-1.0,2448
3524,2138524,16988,256,1700,17074.77,27.12,-1.00,-1.0,2364
3526,2138526,16864,504,1584,16945.72,27.07,-1.00,-1.0,2441
3529,2138529,16944,604,1280,17003.01,27.02,-1.00,-1.0,2365
3532,2138532,17020,700,1356,17088.28,26.98,-1.00,-1.0,2442
3535,2138535,17036,728,1400,17108.92,27.02,-1.00,-1.0,2365
3537,2138537,17032,544,1304,17090.51,27.02,-1.00,-1.0,2432
3540,2138540,17100,300,1136,17140.32,27.02,-1.00,-1.0,2377
3545,2138545,16980,-632,1272,17039.30,27.17,-1.00,-1.0,2450
3548,2138548,16948,-696,1364,17017.04,27.02,-1.00,-1.0,2364
3550,2138550,17032,-24,1512,17099.00,27.17,-1.00,-1.0,2440
3553,2138553,16840,348,1592,16918.66,27.02,-1.00,-1.0,2365
3556,2138556,16944,256,1592,17020.55,27.07,-1.00,-1.0,2360
3558,2138558,17036,-200,1384,17093.29,27.07,-1.00,-1.0,2440
3561,2138561,16952,80,1336,17004.75,26.98,-1.00,-1.0,2363
3564,2138564,17004,428,1296,17058.69,27.12,-1.00,-1.0,2439
3567,2138567,16940,440,1352,16999.56,27.17,-1.00,-1.0,2362
3572,2138572,16960,872,1328,17034.25,27.12,-1.00,-1.0,2459
3574,2138574,16952,1108,1628,17066.00,27.02,-1.00,-1.0,2363
3577,2138577,17084,704,1520,17165.93,26.93,-1.00,-1.0,2458
3580,2138580,17084,156,1564,17156.15,27.12,-1.00,-1.0,2362
3583,2138583,17144,128,1604,17219.35,27.02,-1.00,-1.0,2448
3585,2138585,17224,640,1776,17327.14,27.02,-1.00,-1.0,2363
3588,2138588,17148,664,1508,17226.98,27.12,-1.00,-1.0,2455
3591,2138591,17100,560,1476,17172.72,27.12,-1.00,-1.0,2362
3594,2138594,16924,620,1684,17018.87,27.12,-1.00,-1.0,2360
3599,2138599,16832,488,1440,16900.53,27.02,-1.00,-1.0,2448
3602,2138602,16896,248,1508,16964.97,26.98,-1.00,-1.0,2363
3604,2138604,16808,320,1404,16869.57,27.02,-1.00,-1.0,2439
3607,2138607,16996,344,1408,17057.69,27.07,-1.00,-1.0,2349
3610,2138610,17136,280,1528,17206.27,27.02,-1.00,-1.0,2440
3613,2138613,17088,112,1352,17141.77,26.98,-1.00,-1.0,2366
3615,2138615,17184,-260,1396,17242.57,27.12,-1.00,-1.0,2439
3618,2138618,17108,-404,1468,17175.62,26.98,-1.00,-1.0,2363
3623,2138623,16976,332,1536,17048.58,27.07,-1.00,-1.0,2455
3626,2138626,16888,480,1448,16956.76,27.17,-1.00,-1.0,2365
3629,2138629,16976,592,1328,17038.15,27.07,-1.00,-1.0,2435
3631,2138631,16920,676,888,16956.77,27.07,-1.00,-1.0,2369
3634,2138634,16924,708,1072,16972.69,27.07,-1.00,-1.0,2360
3637,2138637,16896,568,1196,16947.80,27.02,-1.00,-1.0,2445
3639,2138639,16964,184,1256,17011.43,26.98,-1.00,-1.0,2364
3642,2138642,17056,60,1260,17102.58,27.07,-1.00,-1.0,2440
3645,2138645,17096,332,1324,17150.41,27.07,-1.00,-1.0,2377
3650,2138650,17116,112,1652,17195.90,27.17,-1.00,-1.0,2448
3653,2138653,17100,84,1652,17179.82,27.02,-1.00,-1.0,2373
3656,2138656,17000,-172,1708,17086.45,26.98,-1.00,-1.0,2451
3658,2138658,16940,-144,1804,17036.39,27.12,-1.00,-1.0,2365
3661,2138661,16932,-4,1632,17010.47,27.07,-1.00,-1.0,2456
3664,2138664,16968,20,1432,17028.33,26.98,-1.00,-1.0,2372
3667,2138667,16976,288,1468,17041.79,27.07,-1.00,-1.0,2454
3669,2138669,16988,412,1304,17042.96,26.98,-1.00,-1.0,2364
3672,2138672,16928,368,1408,16990.44,27.07,-1.00,-1.0,2368
3677,2138677,16836,356,1404,16898.19,27.07,-1.00,-1.0,2463
3680,2138680,16868,436,1276,16921.81,26.98,-1.00,-1.0,2371
3683,2138683,16968,508,1400,17033.23,27.07,-1.00,-1.0,2449
3685,2138685,17024,316,1540,17096.43,27.07,-1.00,-1.0,2363
3688,2138688,17072,20,1480,17136.04,27.07,-1.00,-1.0,2451
3691,2138691,17036,-112,1564,17108.01,27.07,-1.00,-1.0,2370
3694,2138694,17180,-120,1584,17253.29,27.07,-1.00,-1.0,2449
3696,2138696,17104,-252,1436,17166.03,27.07,-1.00,-1.0,2366
3701,2138701,17068,-28,1424,17127.32,27.07,-1.00,-1.0,2448
3704,2138704,16948,316,1504,17017.54,27.07,-1.00,-1.0,2364
3707,2138707,17012,416,1404,17074.91,27.07,-1.00,-1.0,2445
3709,2138709,16888,728,1436,16964.57,27.07,-1.00,-1.0,2364
3712,2138712,16932,788,1468,17013.78,27.07,-1.00,-1.0,2375
3715,2138715,16944,752,1380,17016.73,27.12,-1.00,-1.0,2441
3718,2138718,16948,712,1548,17033.44,27.07,-1.00,-1.0,2371
3720,2138720,17004,504,1452,17073.32,26.93,-1.00,-1.0,2446
3723,2138723,17148,540,1504,17222.30,27.07,-1.00,-1.0,2363
3728,2138728,17180,552,1352,17241.96,26.98,-1.00,-1.0,2448
3731,2138731,17060,232,1404,17119.25,27.17,-1.00,-1.0,2364
3734,2138734,17132,164,1476,17196.25,27.17,-1.00,-1.0,2448
3736,2138736,17012,196,1360,17067.40,27.07,-1.00,-1.0,2363
3739,2138739,17032,128,1284,17080.81,26.98,-1.00,-1.0,2456
3742,2138742,16984,88,984,17012.71,27.07,-1.00,-1.0,2363
3745,2138745,16992,176,992,17021.84,27.17,-1.00,-1.0,2365
3747,2138747,17028,308,888,17053.92,27.02,-1.00,-1.0,2441
3750,2138750,17120,544,1184,17169.51,27.02,-1.00,-1.0,2364
3755,2138755,16940,596,1508,17017.43,26.98,-1.00,-1.0,2447
3758,2138758,17024,612,1584,17108.48,27.12,-1.00,-1.0,2363
3760,2138760,17120,540,1608,17203.83,26.98,-1.00,-1.0,2428
3763,2138763,17036,300,1720,17125.24,27.02,-1.00,-1.0,2363
3766,2138766,17052,-100,1540,17121.69,27.07,-1.00,-1.0,2443
3769,2138769,17080,-108,1572,17152.53,27.12,-1.00,-1.0,2363
3771,2138771,17024,-60,1516,17091.47,27.07,-1.00,-1.0,2440
3774,2138774,17056,48,1416,17114.74,27.07,-1.00,-1.0,2364
3779,2138779,17036,112,984,17064.76,26.98,-1.00,-1.0,2452
3782,2138782,16924,208,964,16952.71,27.07,-1.00,-1.0,2363
3784,2138784,16916,224,1112,16953.99,26.98,-1.00,-1.0,2361
3787,2138787,16824,68,1220,16868.31,27.07,-1.00,-1.0,2456
3790,2138790,16980,92,1140,17018.47,27.07,-1.00,-1.0,2374
3793,2138793,17032,300,1364,17089.16,27.02,-1.00,-1.0,2447
3795,2138795,17028,492,1580,17108.22,27.07,-1.00,-1.0,2365
3798,2138798,17036,356,1928,17148.45,27.07,-1.00,-1.0,2441
3801,2138801,17108,272,2016,17228.52,27.07,-1.00,-1.0,2363
3806,2138806,17084,376,1948,17198.81,26.98,-1.00,-1.0,2447
3809,2138809,17104,348,1904,17213.17,27.12,-1.00,-1.0,2364
3812,2138812,17004,392,1884,17112.54,26.98,-1.00,-1.0,2447
3814,2138814,16980,288,1660,17063.38,27.07,-1.00,-1.0,2367
3817,2138817,16952,364,1556,17027.15,26.98,-1.00,-1.0,2441
3820,2138820,16916,280,1300,16968.19,27.02,-1.00,-1.0,2363
3822,2138822,16952,304,1268,17002.07,26.98,-1.00,-1.0,2360
3825,2138825,16952,164,1108,16988.96,27.02,-1.00,-1.0,2446
3828,2138828,17028,200,1236,17073.97,26.98,-1.00,-1.0,2363
3833,2138833,16940,128,1316,16991.52,27.07,-1.00,-1.0,2447
3836,2138836,17132,-44,1344,17184.69,27.07,-1.00,-1.0,2363
3839,2138839,16968,-36,1408,17026.36,27.07,-1.00,-1.0,2445
3841,2138841,17056,68,1496,17121.62,27.07,-1.00,-1.0,2364
3844,2138844,17024,316,1644,17106.12,27.07,-1.00,-1.0,2440
3847,2138847,17048,564,1772,17149.12,27.07,-1.00,-1.0,2364
3850,2138850,16984,540,1684,17075.82,27.07,-1.00,-1.0,2437
3852,2138852,17036,508,1608,17119.26,27.07,-1.00,-1.0,2366
3857,2138857,16912,380,1476,16980.54,27.02,-1.00,-1.0,2458
3860,2138860,16988,428,1464,17056.34,27.02,-1.00,-1.0,2376
3863,2138863,17100,392,1356,17158.16,27.17,-1.00,-1.0,2360
3865,2138865,16976,280,1300,17028.01,27.07,-1.00,-1.0,2440
3868,2138868,16872,384,1420,16936.00,27.07,-1.00,-1.0,2364
3871,2138871,17024,484,1560,17102.18,27.07,-1.00,-1.0,2426
3874,2138874,16988,528,1472,17059.83,27.17,-1.00,-1.0,2363
3876,2138876,17008,460,1472,17077.78,27.17,-1.00,-1.0,2440
3879,2138879,17032,264,1344,17086.98,27.12,-1.00,-1.0,2365
3884,2138884,16976,144,1360,17031.00,27.02,-1.00,-1.0,2447
3887,2138887,17088,172,1280,17136.74,27.07,-1.00,-1.0,2364
3890,2138890,17004,208,1288,17053.98,27.12,-1.00,-1.0,2449
3892,2138892,16936,224,1320,16988.84,27.12,-1.00,-1.0,2351
3895,2138895,17092,272,1320,17145.05,27.02,-1.00,-1.0,2368
3898,2138898,16952,260,1308,17004.38,27.07,-1.00,-1.0,2448
3901,2138901,16932,196,1236,16978.18,27.07,-1.00,-1.0,2426
3904,2138904,17128,336,1504,17197.19,27.02,-1.00,-1.0,2434
3906,2138906,17036,592,1496,17111.80,27.17,-1.00,-1.0,2381
3911,2138911,17072,448,1532,17146.46,27.07,-1.00,-1.0,2452
3914,2138914,17044,364,1616,17124.31,27.12,-1.00,-1.0,2373
3917,2138917,17008,476,1360,17068.93,26.98,-1.00,-1.0,2439
3920,2138920,17068,524,1300,17125.46,27.12,-1.00,-1.0,2367
3922,2138922,16976,336,1276,17027.20,26.98,-1.00,-1.0,2446
3925,2138925,17032,116,1372,17087.56,27.12,-1.00,-1.0,2373
3928,2138928,16964,48,1188,17005.62,27.07,-1.00,-1.0,2439
3930,2138930,17072,256,1304,17123.64,27.12,-1.00,-1.0,2366
3933,2138933,17072,220,1364,17127.82,26.98,-1.00,-1.0,2368
3938,2138938,16988,16,1504,17054.46,27.07,-1.00,-1.0,2453
3941,2138941,16924,12,1504,16990.70,27.07,-1.00,-1.0,2374
3944,2138944,16988,52,1628,17065.91,27.07,-1.00,-1.0,2440
3947,2138947,16968,124,1644,17047.91,27.02,-1.00,-1.0,2367
3949,2138949,16980,116,876,17002.98,27.07,-1.00,-1.0,2448
3952,2138952,12568,11988,-24600,30113.56,27.07,-1.00,-1.0,2372
3955,2138955,19252,-2772,18008,26506.82,27.07,-1.00,-1.0,2444
3958,2138958,2532,-3424,-8780,9758.24,26.98,-1.00,-1.0,2366
3962,2138962,-12360,-5036,2320,13546.71,26.98,-1.00,-1.0,2454
3965,2138965,32767,-22156,-10104,40824.69,26.98,-1.00,-1.0,2380
3968,2138968,-16128,-10840,8184,21085.44,27.02,-1.00,-1.0,2437
3971,2138971,32767,12428,-2088,35106.86,27.02,-1.00,-1.0,2366
3973,2138973,-8048,13068,11292,19053.93,27.02,-1.00,-1.0,2436
3976,2138976,32767,-6244,-6316,33949.31,27.12,-1.00,-1.0,2365
3979,2138979,1968,22320,11516,25192.73,27.02,-1.00,-1.0,2437
3982,2138982,32767,4136,5628,33503.09,27.02,-1.00,-1.0,2366
3986,2138986,-1628,-15604,9176,18175.10,27.02,-1.00,-1.0,2430
3989,2138989,31992,-768,4376,32299.03,27.02,-1.00,-1.0,2365
3992,2138992,6180,22416,9184,25000.31,26.98,-1.00,-1.0,2362
3995,2138995,28688,-12,2132,28767.12,27.07,-1.00,-1.0,2437
3997,2138997,6312,-8432,-2736,10882.36,27.07,-1.00,-1.0,2366
4000,2139000,25604,-5940,6924,27180.70,27.07,-1.00,-1.0,2436
4003,2139003,11912,2612,-5828,13516.06,27.02,-1.00,-1.0,2373
4006,2139006,22340,-2076,4564,22895.75,27.07,-1.00,-1.0,2437
4008,2139008,12396,-9892,3104,16160.05,27.02,-1.00,-1.0,2366
4013,2139013,9488,12404,5200,16459.69,27.02,-1.00,-1.0,2443
4016,2139016,22740,-188,-1336,22779.99,26.93,-1.00,-1.0,2365
4019,2139019,10044,-3084,3960,11228.29,27.02,-1.00,-1.0,2423
4022,2139022,22548,5104,1240,23151.69,27.02,-1.00,-1.0,2368
4024,2139024,10752,7656,1120,13246.67,27.02,-1.00,-1.0,2435
4027,2139027,21636,-2656,1496,21849.69,27.02,-1.00,-1.0,2367
4030,2139030,15580,-4980,-1728,16447.58,27.02,-1.00,-1.0,2436
4033,2139033,14800,1924,4788,15673.76,27.02,-1.00,-1.0,2363
4038,2139038,20800,3232,2592,21208.59,27.12,-1.00,-1.0,2448
4040,2139040,14972,-8840,1616,17461.90,26.98,-1.00,-1.0,2373
4043,2139043,18440,-5748,-996,19340.76,27.12,-1.00,-1.0,2437
4046,2139046,14960,2308,44,15137.05,27.07,-1.00,-1.0,2375
4048,2139048,24968,1384,1548,25054.20,27.12,-1.00,-1.0,2369
4051,2139051,9164,2020,3504,10016.85,27.12,-1.00,-1.0,2435
4054,2139054,23752,328,-176,23754.92,27.07,-1.00,-1.0,2354
4057,2139057,12912,5328,1320,14030.31,27.02,-1.00,-1.0,2445
4059,2139059,23056,104,664,23065.79,27.17,-1.00,-1.0,2366
4064,2139064,19204,-384,-524,19214.98,26.98,-1.00,-1.0,2445
4067,2139067,14612,-372,-164,14617.65,27.12,-1.00,-1.0,2366
4070,2139070,17008,964,2772,17259.36,27.17,-1.00,-1.0,2436
4073,2139073,17296,-2128,1796,17518.72,27.02,-1.00,-1.0,2365
4075,2139075,17588,1812,1612,17754.43,26.98,-1.00,-1.0,2437
4078,2139078,17872,908,1320,17943.67,27.12,-1.00,-1.0,2367
4081,2139081,17040,-4440,2068,17729.97,26.98,-1.00,-1.0,2438
4084,2139084,18104,-4544,808,18683.03,27.12,-1.00,-1.0,2365
4089,2139089,15800,6840,3824,17636.57,27.12,-1.00,-1.0,2448
4091,2139091,18792,5040,3088,19699.66,27.02,-1.00,-1.0,2373
4094,2139094,15408,904,2200,15590.50,27.07,-1.00,-1.0,2361
4097,2139097,17224,-3712,-132,17619.95,27.17,-1.00,-1.0,2442
4099,2139099,17768,-2380,280,17928.88,27.07,-1.00,-1.0,2366
4102,2139102,16320,5524,912,17253.66,27.07,-1.00,-1.0,2436
4105,2139105,17004,3288,1756,17407.77,26.98,-1.00,-1.0,2369
4108,2139108,15928,-5360,424,16811.03,27.07,-1.00,-1.0,2433
4111,2139111,18460,-3948,-68,18877.58,27.12,-1.00,-1.0,2365
4116,2139116,17316,3656,2128,17825.22,27.12,-1.00,-1.0,2445
4118,2139118,17524,-5916,-172,18496.46,26.98,-1.00,-1.0,2366
4121,2139121,15388,-8728,1816,17783.88,27.12,-1.00,-1.0,2435
4124,2139124,18164,4608,3552,19073.05,26.98,-1.00,-1.0,2373
4127,2139127,16176,8312,3196,18465.29,27.02,-1.00,-1.0,2436
4129,2139129,17156,2032,1688,17358.19,27.17,-1.00,-1.0,2367
4132,2139132,17628,-4724,728,18264.52,27.12,-1.00,-1.0,2436
4135,2139135,16336,1136,992,16405.47,27.07,-1.00,-1.0,2366
4138,2139138,17372,4472,1328,17987.46,27.12,-1.00,-1.0,2367
4143,2139143,16972,-1160,1880,17115.16,27.07,-1.00,-1.0,2453
4145,2139145,16960,-2024,1224,17124.14,27.07,-1.00,-1.0,2366
4148,2139148,16584,-48,240,16585.81,26.93,-1.00,-1.0,2437
4151,2139151,18016,2336,1864,18262.19,27.07,-1.00,-1.0,2366
4154,2139154,16628,2404,1880,16905.74,27.07,-1.00,-1.0,2439
4156,2139156,17548,-960,1188,17614.35,27.07,-1.00,-1.0,2367
4159,2139159,17304,-3248,1000,17634.57,27.02,-1.00,-1.0,2437
4162,2139162,17392,616,1628,17478.89,27.17,-1.00,-1.0,2365
4167,2139167,16444,-456,1248,16497.59,27.02,-1.00,-1.0,2445
4170,2139170,16824,-476,896,16854.56,27.07,-1.00,-1.0,2353
4173,2139173,17460,3348,1904,17879.76,27.12,-1.00,-1.0,2435
4176,2139176,17072,1920,1932,17287.92,27.17,-1.00,-1.0,2365
4178,2139178,17012,-3628,1252,17439.55,27.02,-1.00,-1.0,2423
4181,2139181,16120,-4024,1848,16717.12,27.17,-1.00,-1.0,2367
4184,2139184,17540,2028,2164,17788.96,27.02,-1.00,-1.0,2435
4187,2139187,16656,4596,1832,17375.32,27.07,-1.00,-1.0,2365
4189,2139189,17956,1608,1504,18090.48,27.02,-1.00,-1.0,2359
4194,2139194,17424,-3420,1312,17804.87,27.12,-1.00,-1.0,2445
4197,2139197,16196,708,1188,16254.94,27.12,-1.00,-1.0,2374
4200,2139200,18260,916,960,18308.15,27.02,-1.00,-1.0,2435
4202,2139202,17148,-416,1636,17230.89,27.02,-1.00,-1.0,2367
4205,2139205,17156,-976,1316,17234.06,27.02,-1.00,-1.0,2436
4208,2139208,16472,-1000,1348,16557.29,27.07,-1.00,-1.0,2373
4211,2139211,17596,148,1180,17636.14,27.12,-1.00,-1.0,2436
4213,2139213,16648,832,1076,16703.47,27.21,-1.00,-1.0,2365
4218,2139218,16556,1116,780,16611.89,27.12,-1.00,-1.0,2445
4221,2139221,17004,1604,588,17089.60,27.07,-1.00,-1.0,2369
4224,2139224,16472,2948,1776,16827.71,27.07,-1.00,-1.0,2441
4226,2139226,16452,2520,1932,16755.63,27.17,-1.00,-1.0,2368
4229,2139229,17124,184,1180,17165.59,27.02,-1.00,-1.0,2436
4232,2139232,16908,-976,1632,17014.60,27.07,-1.00,-1.0,2369
4234,2139234,17140,-540,1572,17220.41,27.12,-1.00,-1.0,2362
4237,2139237,17284,-324,1640,17364.65,27.02,-1.00,-1.0,2438
4240,2139240,17748,-976,1644,17850.68,27.02,-1.00,-1.0,2366
4245,2139245,17080,-1024,1996,17226.69,27.02,-1.00,-1.0,2443
4248,2139248,17052,-1208,988,17123.26,27.17,-1.00,-1.0,2365
4250,2139250,16588,-576,1004,16628.34,27.12,-1.00,-1.0,2437
4253,2139253,16936,536,1120,16981.46,27.07,-1.00,-1.0,2368
4256,2139256,16556,1888,1276,16712.09,27.02,-1.00,-1.0,2435
4259,2139259,16932,704,648,16959.01,27.07,-1.00,-1.0,2368
4261,2139261,16900,972,1060,16961.08,27.02,-1.00,-1.0,2436
4264,2139264,17060,2360,1608,17297.37,27.07,-1.00,-1.0,2369
4269,2139269,16864,1004,1824,16992.04,27.07,-1.00,-1.0,2458
4272,2139272,17184,-984,1888,17315.39,27.07,-1.00,-1.0,2373
4275,2139275,17276,-572,1556,17355.36,26.98,-1.00,-1.0,2449
4277,2139277,17368,396,1644,17450.13,27.07,-1.00,-1.0,2368
4280,2139280,17244,-344,1792,17340.28,27.02,-1.00,-1.0,2364
4283,2139283,16736,-1776,2020,16950.76,27.12,-1.00,-1.0,2434
4285,2139285,17028,-1420,1692,17170.67,26.93,-1.00,-1.0,2373
4288,2139288,17016,-184,1480,17081.23,27.02,-1.00,-1.0,2436
4291,2139291,17112,872,1460,17196.29,27.02,-1.00,-1.0,2368
4296,2139296,16760,760,1200,16820.08,27.07,-1.00,-1.0,2454
4299,2139299,17008,512,1120,17052.53,27.07,-1.00,-1.0,2372
4301,2139301,16940,1500,1232,17050.85,27.02,-1.00,-1.0,2444
4304,2139304,17280,2076,956,17430.49,27.07,-1.00,-1.0,2381
4307,2139307,16616,1972,1044,16765.15,27.12,-1.00,-1.0,2437
4310,2139310,17056,340,632,17071.09,26.98,-1.00,-1.0,2370
4312,2139312,16808,212,1216,16853.26,27.12,-1.00,-1.0,2444
4315,2139315,16912,692,1588,17000.48,27.07,-1.00,-1.0,2383
4320,2139320,17048,-680,1888,17165.70,26.98,-1.00,-1.0,2445
4323,2139323,17344,-868,1708,17449.50,27.07,-1.00,-1.0,2368
4325,2139325,17236,160,1796,17330.06,27.12,-1.00,-1.0,2369
4328,2139328,17324,248,1672,17406.27,27.02,-1.00,-1.0,2443
4331,2139331,17376,-456,1324,17432.33,26.93,-1.00,-1.0,2372
4334,2139334,16892,-148,1476,16957.01,27.02,-1.00,-1.0,2445
4336,2139336,16880,1048,1376,16968.38,27.12,-1.00,-1.0,2376
4339,2139339,16668,1836,1220,16813.13,27.12,-1.00,-1.0,2444
4342,2139342,16636,1688,800,16740.54,27.02,-1.00,-1.0,2360
4347,2139347,16792,280,1008,16824.56,26.98,-1.00,-1.0,2451
4349,2139349,17024,-440,1212,17072.76,27.07,-1.00,-1.0,2365
4352,2139352,17228,-784,1568,17316.96,27.12,-1.00,-1.0,2451
4355,2139355,17160,-556,1616,17244.89,27.07,-1.00,-1.0,2366
4358,2139358,17328,-176,1972,17440.74,26.93,-1.00,-1.0,2444
4360,2139360,17336,4,2168,17471.04,27.07,-1.00,-1.0,2365
4363,2139363,17428,-232,2060,17550.86,26.93,-1.00,-1.0,2375
4366,2139366,17064,-820,2124,17215.22,27.12,-1.00,-1.0,2440
4369,2139369,16996,-308,1884,17102.88,27.07,-1.00,-1.0,2373
4374,2139374,16996,1432,1232,17100.66,27.07,-1.00,-1.0,2468
4376,2139376,16948,1756,1128,17076.03,27.07,-1.00,-1.0,2364
4379,2139379,17024,1268,1056,17103.79,27.17,-1.00,-1.0,2444
4382,2139382,16876,764,1128,16930.90,27.07,-1.00,-1.0,2363
4385,2139385,16896,404,1148,16939.77,27.02,-1.00,-1.0,2449
4387,2139387,16972,204,1160,17012.82,27.17,-1.00,-1.0,2362
4390,2139390,16920,-248,1352,16975.74,27.07,-1.00,-1.0,2443
4393,2139393,17008,-732,1684,17106.83,27.07,-1.00,-1.0,2363
4398,2139398,17316,380,1752,17408.55,27.07,-1.00,-1.0,2450
4400,2139400,17236,408,2020,17358.76,27.07,-1.00,-1.0,2363
4403,2139403,16884,-900,1608,16984.26,27.21,-1.00,-1.0,2441
4406,2139406,16944,-1256,1304,17040.46,26.98,-1.00,-1.0,2363
4409,2139409,17008,-132,1288,17057.21,26.98,-1.00,-1.0,2361
4411,2139411,17032,1944,1544,17211.97,27.12,-1.00,-1.0,2449
4414,2139414,16964,1932,1736,17161.69,27.12,-1.00,-1.0,2371
4417,2139417,16788,396,1628,16871.40,26.88,-1.00,-1.0,2442
4420,2139420,16836,-440,1500,16908.41,27.02,-1.00,-1.0,2366
4425,2139425,17272,872,1512,17359.97,27.02,-1.00,-1.0,2455
4428,2139428,17112,144,1720,17198.83,27.12,-1.00,-1.0,2366
4430,2139430,17108,-708,1716,17208.42,27.02,-1.00,-1.0,2449
4433,2139433,16968,-388,1588,17046.56,27.02,-1.00,-1.0,2369
4436,2139436,16920,1008,1700,17035.04,27.02,-1.00,-1.0,2442
4439,2139439,16964,1412,1792,17116.73,27.12,-1.00,-1.0,2363
4441,2139441,16904,312,1276,16954.96,27.02,-1.00,-1.0,2452
4444,2139444,16940,-532,844,16969.35,27.12,-1.00,-1.0,2370
4449,2139449,17000,288,1076,17036.45,27.02,-1.00,-1.0,2448
4452,2139452,17052,1292,1312,17151.13,27.12,-1.00,-1.0,2371
4454,2139454,16940,848,1048,16993.56,26.93,-1.00,-1.0,2370
4457,2139457,16972,124,900,16996.30,26.98,-1.00,-1.0,2446
4460,2139460,16936,112,1060,16969.51,27.12,-1.00,-1.0,2370
4463,2139463,16880,956,1368,16962.30,26.98,-1.00,-1.0,2452
4465,2139465,16920,524,1340,16981.06,27.02,-1.00,-1.0,2371
4468,2139468,16868,-304,1532,16940.16,27.07,-1.00,-1.0,2447
4471,2139471,16888,-772,1280,16954.02,27.07,-1.00,-1.0,2365
4476,2139476,17200,1252,1768,17335.90,27.07,-1.00,-1.0,2452
4479,2139479,17144,848,1648,17243.89,27.17,-1.00,-1.0,2369
4481,2139481,17276,-408,1444,17341.04,27.07,-1.00,-1.0,2427
4484,2139484,17076,-460,1212,17125.14,27.07,-1.00,-1.0,2378
4487,2139487,17124,416,1256,17175.04,27.07,-1.00,-1.0,2443
4490,2139490,16888,608,1096,16934.45,26.98,-1.00,-1.0,2365
4492,2139492,16844,152,1260,16891.74,26.98,-1.00,-1.0,2360
4495,2139495,16720,-388,1156,16764.40,27.12,-1.00,-1.0,2440
4498,2139498,16848,124,1324,16900.40,27.17,-1.00,-1.0,2363
4503,2139503,17076,356,1404,17137.32,27.07,-1.00,-1.0,2450
4506,2139506,17164,-300,1584,17239.55,27.07,-1.00,-1.0,2363
4508,2139508,17096,-472,1628,17179.82,27.07,-1.00,-1.0,2441
4511,2139511,17200,-148,1548,17270.15,27.07,-1.00,-1.0,2352
4514,2139514,17144,180,1468,17207.68,27.07,-1.00,-1.0,2442
4517,2139517,16988,292,1752,17080.60,27.07,-1.00,-1.0,2365
4519,2139519,17000,324,1768,17094.76,27.07,-1.00,-1.0,2427
4522,2139522,16976,560,1424,17044.82,27.07,-1.00,-1.0,2378
4527,2139527,16956,888,1480,17043.62,27.07,-1.00,-1.0,2463
4530,2139530,16984,648,1236,17041.24,27.07,-1.00,-1.0,2370
4533,2139533,16960,344,1132,17001.22,27.07,-1.00,-1.0,2450
4535,2139535,17024,-252,1248,17071.54,27.07,-1.00,-1.0,2366
4538,2139538,16936,-516,1420,17003.26,26.98,-1.00,-1.0,2361
4541,2139541,16964,-272,1644,17045.64,27.02,-1.00,-1.0,2433
4543,2139543,17036,340,1720,17125.98,27.07,-1.00,-1.0,2370
4546,2139546,16956,588,1668,17047.99,27.12,-1.00,-1.0,2440
4549,2139549,17088,276,1520,17157.69,27.02,-1.00,-1.0,2363
4554,2139554,17084,88,1452,17145.82,27.12,-1.00,-1.0,2447
4557,2139557,17024,376,1436,17088.59,27.12,-1.00,-1.0,2362
4559,2139559,16988,592,1480,17062.62,27.12,-1.00,-1.0,2441
4562,2139562,16984,820,1476,17067.72,27.12,-1.00,-1.0,2363
4565,2139565,16992,1004,1520,17089.37,27.02,-1.00,-1.0,2440
4568,2139568,16972,936,1656,17078.27,27.12,-1.00,-1.0,2363
4570,2139570,17136,272,1508,17204.38,27.12,-1.00,-1.0,2440
4573,2139573,17076,-56,1468,17139.08,27.07,-1.00,-1.0,2427
4576,2139576,17112,324,1488,17179.63,27.17,-1.00,-1.0,2364
4581,2139581,17140,592,1512,17216.74,26.98,-1.00,-1.0,2443
4584,2139584,17100,280,1596,17176.60,27.07,-1.00,-1.0,2374
4587,2139587,17060,444,1612,17141.74,27.07,-1.00,-1.0,2437
4589,2139589,16856,700,1392,16927.86,27.07,-1.00,-1.0,2367
4592,2139592,16812,528,1468,16884.23,26.98,-1.00,-1.0,2437
4595,2139595,16836,372,1416,16899.54,27.07,-1.00,-1.0,2374
4598,2139598,16912,480,1456,16981.35,27.07,-1.00,-1.0,2436
4600,2139600,16932,600,1492,17008.20,26.98,-1.00,-1.0,2366
4605,2139605,17176,256,1400,17234.86,27.07,-1.00,-1.0,2445
4608,2139608,17036,-164,1356,17090.67,26.98,-1.00,-1.0,2375
4611,2139611,17184,-212,1660,17265.29,27.07,-1.00,-1.0,2436
4613,2139613,17036,32,1564,17107.67,27.07,-1.00,-1.0,2366
4616,2139616,16992,96,1696,17076.70,27.07,-1.00,-1.0,2368
4619,2139619,17020,264,1596,17096.71,27.12,-1.00,-1.0,2446
4621,2139621,17004,556,1468,17076.30,26.98,-1.00,-1.0,2374
4624,2139624,17028,788,1364,17100.71,27.02,-1.00,-1.0,2447
4627,2139627,16988,644,1372,17055.48,27.07,-1.00,-1.0,2373
4632,2139632,16988,96,1256,17034.64,27.07,-1.00,-1.0,2445
4635,2139635,17000,244,1356,17055.74,27.07,-1.00,-1.0,2375
4638,2139638,16964,572,1492,17039.09,26.98,-1.00,-1.0,2436
4640,2139640,17152,304,1564,17225.84,26.98,-1.00,-1.0,2365
4643,2139643,17148,36,1608,17223.27,27.07,-1.00,-1.0,2437
4646,2139646,17056,-24,1516,17123.26,27.07,-1.00,-1.0,2367
4648,2139648,17108,-168,1668,17189.94,27.07,-1.00,-1.0,2366
4651,2139651,16940,-228,1436,17002.29,27.12,-1.00,-1.0,2443
4654,2139654,17020,-332,1500,17089.20,27.12,-1.00,-1.0,2382
4659,2139659,17056,188,1272,17104.40,27.12,-1.00,-1.0,2443
4662,2139662,17080,368,1284,17132.15,26.98,-1.00,-1.0,2369
4665,2139665,16820,552,1308,16879.81,27.02,-1.00,-1.0,2439
4667,2139667,16792,260,1360,16848.99,26.98,-1.00,-1.0,2368
4670,2139670,16904,424,1208,16952.41,27.02,-1.00,-1.0,2442
4673,2139673,16888,540,1384,16953.22,27.17,-1.00,-1.0,2374
4676,2139676,17068,628,1308,17129.56,27.12,-1.00,-1.0,2437
4678,2139678,17072,460,1240,17123.15,27.07,-1.00,-1.0,2367
4683,2139683,17036,-20,1332,17088.01,27.07,-1.00,-1.0,2444
4686,2139686,17028,-20,1248,17073.68,27.07,-1.00,-1.0,2366
4689,2139689,17068,-60,1460,17130.44,26.98,-1.00,-1.0,2441
4691,2139691,17020,-88,1472,17083.76,27.07,-1.00,-1.0,2368
4694,2139694,16968,-100,1492,17033.76,27.07,-1.00,-1.0,2364
4697,2139697,17036,188,1540,17106.50,27.02,-1.00,-1.0,2446
4699,2139699,16900,416,1748,16995.25,26.98,-1.00,-1.0,2366
4702,2139702,17024,556,1732,17120.91,27.07,-1.00,-1.0,2437
4705,2139705,16916,612,1608,17003.27,27.07,-1.00,-1.0,2370
4710,2139710,17036,524,1788,17137.58,27.12,-1.00,-1.0,2457
4713,2139713,16988,440,1836,17092.59,27.12,-1.00,-1.0,2373
4716,2139716,16992,380,1692,17080.26,27.17,-1.00,-1.0,2453
4718,2139718,16940,500,1460,17010.15,27.02,-1.00,-1.0,2377
4721,2139721,17040,476,1576,17119.34,27.07,-1.00,-1.0,2444
4724,2139724,17040,364,1444,17104.95,27.02,-1.00,-1.0,2371
4727,2139727,17048,148,1408,17106.69,27.07,-1.00,-1.0,2447
4729,2139729,17140,60,1292,17188.73,27.02,-1.00,-1.0,2374
4732,2139732,16908,124,1332,16960.84,27.17,-1.00,-1.0,2361
4737,2139737,17020,196,1108,17057.15,27.17,-1.00,-1.0,2445
4740,2139740,16952,208,1224,16997.40,27.02,-1.00,-1.0,2369
4743,2139743,16936,432,1288,16990.40,26.98,-1.00,-1.0,2451
4745,2139745,16964,652,1276,17024.41,27.12,-1.00,-1.0,2377
4748,2139748,17008,704,1672,17104.48,26.98,-1.00,-1.0,2443
4751,2139751,16904,588,1544,16984.55,27.12,-1.00,-1.0,2371
4754,2139754,17004,472,1556,17081.57,27.07,-1.00,-1.0,2448
4756,2139756,17044,304,1548,17116.85,27.07,-1.00,-1.0,2376
4761,2139761,17080,-32,1396,17136.98,27.02,-1.00,-1.0,2443
4764,2139764,17100,-72,1272,17147.39,27.12,-1.00,-1.0,2365
4767,2139767,17076,64,1164,17115.75,27.07,-1.00,-1.0,2362
4769,2139769,17044,8,1088,17078.69,27.07,-1.00,-1.0,2440
4772,2139772,16896,68,988,16925.00,26.98,-1.00,-1.0,2381
4775,2139775,16952,48,804,16971.12,26.98,-1.00,-1.0,2438
4778,2139778,16904,132,1004,16934.30,27.07,-1.00,-1.0,2372
4780,2139780,16876,184,1048,16909.51,27.07,-1.00,-1.0,2444
4783,2139783,16956,328,1360,17013.62,27.07,-1.00,-1.0,2353
4788,2139788,17016,472,1672,17104.46,27.02,-1.00,-1.0,2444
4791,2139791,17088,468,1912,17201.00,27.02,-1.00,-1.0,2373
4794,2139794,17052,68,1836,17150.69,27.12,-1.00,-1.0,2437
4796,2139796,17128,60,1972,17241.25,27.07,-1.00,-1.0,2367
4799,2139799,17120,284,1740,17210.54,27.12,-1.00,-1.0,2371
4802,2139802,17004,432,1844,17109.15,27.07,-1.00,-1.0,2449
4804,2139804,17008,256,1696,17094.27,26.98,-1.00,-1.0,2370
4807,2139807,17120,120,1416,17178.88,27.17,-1.00,-1.0,2439
4810,2139810,16956,192,1288,17005.93,27.02,-1.00,-1.0,2366
4815,2139815,16868,264,1184,16911.56,27.02,-1.00,-1.0,2445
4818,2139818,16880,216,1208,16924.55,27.12,-1.00,-1.0,2375
4821,2139821,16876,236,1156,16917.19,26.98,-1.00,-1.0,2436
4823,2139823,16936,124,1292,16985.66,27.02,-1.00,-1.0,2365
4826,2139826,17012,124,1340,17065.14,26.98,-1.00,-1.0,2436
4829,2139829,17096,88,1376,17151.51,27.12,-1.00,-1.0,2367
4832,2139832,17040,28,1512,17106.97,26.98,-1.00,-1.0,2435
4834,2139834,17052,184,1508,17119.54,27.12,-1.00,-1.0,2369
4837,2139837,17064,320,1864,17168.49,27.02,-1.00,-1.0,2361
4842,2139842,17032,436,1612,17113.67,27.02,-1.00,-1.0,2446
4845,2139845,16988,332,1768,17082.98,27.02,-1.00,-1.0,2366
4848,2139848,17096,320,1644,17177.85,26.98,-1.00,-1.0,2441
4850,2139850,16992,268,1648,17073.83,27.02,-1.00,-1.0,2366
4853,2139853,17020,332,1520,17090.96,27.07,-1.00,-1.0,2438
4856,2139856,17064,324,1460,17129.41,27.12,-1.00,-1.0,2371
4859,2139859,17128,420,1420,17191.89,27.07,-1.00,-1.0,2443
4861,2139861,17096,424,1640,17179.71,27.12,-1.00,-1.0,2367
4866,2139866,17044,600,1556,17125.39,27.12,-1.00,-1.0,2445
4869,2139869,17060,624,1460,17133.73,27.07,-1.00,-1.0,2368
4872,2139872,17128,380,1480,17196.02,27.02,-1.00,-1.0,2434
4875,2139875,17044,252,1332,17097.83,27.12,-1.00,-1.0,2365
4877,2139877,17068,484,1452,17136.49,27.02,-1.00,-1.0,2347
4880,2139880,16912,376,1380,16972.38,26.98,-1.00,-1.0,2435
4883,2139883,16940,348,1372,16999.03,27.07,-1.00,-1.0,2431
4886,2139886,17008,160,1288,17057.45,27.02,-1.00,-1.0,2431
4888,2139888,17016,136,1424,17076.02,27.02,-1.00,-1.0,2373
4893,2139893,16964,488,1324,17022.59,27.02,-1.00,-1.0,2447
4896,2139896,17052,444,1264,17104.55,27.07,-1.00,-1.0,2369
4899,2139899,16984,404,1292,17037.86,27.02,-1.00,-1.0,2437
4902,2139902,16988,420,1384,17049.46,27.12,-1.00,-1.0,2362
4904,2139904,16960,516,1416,17026.83,26.93,-1.00,-1.0,2426
4907,2139907,17088,480,1316,17145.32,26.98,-1.00,-1.0,2382
4910,2139910,16964,380,1396,17025.58,27.12,-1.00,-1.0,2437
4913,2139913,17048,428,1284,17101.64,27.12,-1.00,-1.0,2371
4915,2139915,17004,368,1224,17051.97,27.02,-1.00,-1.0,2368
4920,2139920,17020,264,1272,17069.51,27.02,-1.00,-1.0,2454
4923,2139923,17060,20,1288,17108.56,26.98,-1.00,-1.0,2375
4926,2139926,16952,-40,1444,17013.44,27.02,-1.00,-1.0,2438
4929,2139929,17088,4,1440,17148.57,26.98,-1.00,-1.0,2366
4931,2139931,16972,-44,1352,17025.82,27.12,-1.00,-1.0,2448
4934,2139934,16908,-52,1376,16963.98,27.07,-1.00,-1.0,2367
4937,2139937,17028,-28,1608,17103.78,27.12,-1.00,-1.0,2446
4939,2139939,17064,48,1600,17138.91,27.07,-1.00,-1.0,2366
4944,2139944,16924,216,1788,17019.56,27.07,-1.00,-1.0,2446
4947,2139947,17540,20,3000,17794.72,27.07,-1.00,-1.0,2369
4950,2139950,24212,1048,7416,25343.96,27.02,-1.00,-1.0,2366
4953,2139953,1364,5336,-15192,16159.53,27.02,-1.00,-1.0,2447
4955,2139955,13640,-2392,16080,21221.16,27.02,-1.00,-1.0,2371
4958,2139958,19000,9104,13484,25014.02,27.12,-1.00,-1.0,2447
4961,2139961,2980,-6136,1636,7014.80,27.21,-1.00,-1.0,2374
4964,2139964,17772,-25852,-13196,34033.87,27.12,-1.00,-1.0,2449
4966,2139966,12520,-6692,-988,14230.58,26.98,-1.00,-1.0,2367
4971,2139971,27216,6796,-1264,28080.13,27.07,-1.00,-1.0,2444
4974,2139974,6332,-2232,-644,6744.69,27.12,-1.00,-1.0,2365
4977,2139977,29948,9472,-892,31422.88,26.98,-1.00,-1.0,2437
4980,2139980,4652,21884,14812,26831.81,27.02,-1.00,-1.0,2367
4982,2139982,31436,5168,17268,36236.92,27.07,-1.00,-1.0,2436
4985,2139985,7816,-13472,8648,17814.95,27.02,-1.00,-1.0,2368
4988,2139988,24200,-10116,1092,26251.97,27.07,-1.00,-1.0,2436
4991,2139991,16560,10592,808,19674.27,27.02,-1.00,-1.0,2369
4996,2139996,8584,-3132,2176,9393.05,27.07,-1.00,-1.0,2459
4999,2139999,25128,-7104,4488,26495.76,26.98,-1.00,-1.0,2365
5002,2140002,11912,1808,-3636,12585.11,26.98,-1.00,-1.0,2435
5005,2140005,21700,1868,2388,21910.77,27.07,-1.00,-1.0,2367
5007,2140007,11384,-9844,1928,15172.90,27.12,-1.00,-1.0,2436
5010,2140010,22428,8192,808,23890.94,26.98,-1.00,-1.0,2366
5013,2140013,14452,8804,1704,17008.07,27.02,-1.00,-1.0,2363
5016,2140016,22508,-352,488,22516.04,27.02,-1.00,-1.0,2440
5018,2140018,11804,-2784,3100,12517.79,27.12,-1.00,-1.0,2369
5023,2140023,12832,8012,1052,15164.40,27.02,-1.00,-1.0,2457
5026,2140026,20696,-1932,2000,20881.98,27.02,-1.00,-1.0,2373
5029,2140029,13668,-7752,380,15717.89,26.98,-1.00,-1.0,2446
5031,2140031,22212,712,1468,22271.84,27.12,-1.00,-1.0,2374
5034,2140034,13716,7096,3388,15810.14,27.17,-1.00,-1.0,2447
5037,2140037,19416,548,1356,19471.01,27.21,-1.00,-1.0,2373
5040,2140040,12584,-9276,964,15663.03,27.07,-1.00,-1.0,2451
5042,2140042,20340,-8008,-560,21866.81,27.12,-1.00,-1.0,2368
5047,2140047,23820,1716,2308,23993.00,27.02,-1.00,-1.0,2443
5050,2140050,8764,-180,3100,9297.85,27.07,-1.00,-1.0,2365
5053,2140053,24736,-780,532,24754.01,27.12,-1.00,-1.0,2442
5055,2140055,11328,4032,632,12040.77,27.02,-1.00,-1.0,2353
5058,2140058,22220,2348,212,22344.72,27.12,-1.00,-1.0,2369
5061,2140061,11752,-856,1796,11919.22,27.07,-1.00,-1.0,2438
5063,2140063,17980,-368,-732,17998.66,27.02,-1.00,-1.0,2365
5066,2140066,14632,-224,-716,14651.22,26.98,-1.00,-1.0,2453
5069,2140069,17524,1528,2256,17734.57,27.12,-1.00,-1.0,2367
5074,2140074,19560,84,1296,19603.07,27.02,-1.00,-1.0,2443
5077,2140077,16300,2124,1380,16495.63,27.02,-1.00,-1.0,2366
5079,2140079,18744,-888,1424,18818.98,27.02,-1.00,-1.0,2436
5082,2140082,16152,-5424,2156,17174.26,27.02,-1.00,-1.0,2366
5085,2140085,18880,-1840,2140,19089.78,27.02,-1.00,-1.0,2434
5088,2140088,15908,4916,3432,17000.30,27.02,-1.00,-1.0,2365
5090,2140090,18132,5556,3732,19327.87,27.02,-1.00,-1.0,2423
5093,2140093,16044,1964,2552,16363.98,27.07,-1.00,-1.0,2367
5098,2140098,17316,-3204,488,17616.69,26.98,-1.00,-1.0,2452
5101,2140101,16712,4808,660,17402.40,27.17,-1.00,-1.0,2353
5103,2140103,17796,6524,768,18969.71,27.07,-1.00,-1.0,2348
5106,2140106,15044,-1516,960,15150.64,27.12,-1.00,-1.0,2436
5109,2140109,18496,-7084,-1116,19837.60,27.07,-1.00,-1.0,2370
5112,2140112,17704,3904,864,18149.91,27.02,-1.00,-1.0,2434
5114,2140114,18228,7944,1952,19979.43,27.17,-1.00,-1.0,2374
5117,2140117,16528,-4384,692,17113.54,27.02,-1.00,-1.0,2436
5120,2140120,16624,-10936,704,19911.03,27.07,-1.00,-1.0,2354
5125,2140125,18724,9508,3604,21306.79,26.98,-1.00,-1.0,2450
5128,2140128,15896,5236,2748,16960.25,26.98,-1.00,-1.0,2366
5130,2140130,18968,-3000,968,19228.16,27.07,-1.00,-1.0,2448
5133,2140133,15508,-2216,1088,15703.26,27.07,-1.00,-1.0,2374
5136,2140136,17308,3256,876,17633.37,27.07,-1.00,-1.0,2438
5138,2140138,16560,3360,1080,16931.91,27.07,-1.00,-1.0,2365
5141,2140141,16908,1224,1308,17002.63,26.98,-1.00,-1.0,2450
5144,2140144,16348,-316,1840,16454.26,27.07,-1.00,-1.0,2374
5147,2140147,16656,-280,216,16659.75,26.98,-1.00,-1.0,2365
5152,2140152,17272,1916,2020,17494.96,26.98,-1.00,-1.0,2447
5154,2140154,16972,2380,1692,17221.38,27.07,-1.00,-1.0,2369
5157,2140157,17748,-1772,1056,17867.47,27.12,-1.00,-1.0,2444
5160,2140160,17536,-2556,1488,17783.66,26.98,-1.00,-1.0,2371
5163,2140163,16932,236,2408,17104.00,27.02,-1.00,-1.0,2448
5165,2140165,16924,832,2756,17167.11,27.07,-1.00,-1.0,2371
5168,2140168,17240,232,2328,17398.02,27.02,-1.00,-1.0,2446
5171,2140171,17520,1000,2396,17711.33,27.07,-1.00,-1.0,2374
5176,2140176,16956,-752,1312,17023.30,26.98,-1.00,-1.0,2452
5178,2140178,17068,-2040,880,17211.99,27.07,-1.00,-1.0,2367
5181,2140181,16640,260,1876,16747.44,27.07,-1.00,-1.0,2446
5184,2140184,16844,3848,1272,17324.71,27.07,-1.00,-1.0,2366
5187,2140187,16860,1960,628,16985.16,27.07,-1.00,-1.0,2444
5189,2140189,16936,-852,892,16980.86,26.98,-1.00,-1.0,2366
5192,2140192,16564,-1956,996,16708.80,27.07,-1.00,-1.0,2368
5195,2140195,17316,916,900,17363.55,27.07,-1.00,-1.0,2438
5198,2140198,17020,140,780,17038.44,27.12,-1.00,-1.0,2366
5202,2140202,16872,-2420,1556,17115.55,27.12,-1.00,-1.0,2444
5205,2140205,17396,296,1676,17479.06,27.12,-1.00,-1.0,2366
5208,2140208,16872,468,1664,16960.32,26.98,-1.00,-1.0,2434
5211,2140211,17296,-908,1108,17355.22,27.12,-1.00,-1.0,2366
5213,2140213,16448,-496,772,16473.58,26.98,-1.00,-1.0,2436
5216,2140216,17088,1800,624,17193.87,27.02,-1.00,-1.0,2369
5219,2140219,16480,3128,932,16800.10,27.07,-1.00,-1.0,2435
5222,2140222,17508,2884,840,17763.81,27.12,-1.00,-1.0,2365
5226,2140226,16532,1540,1588,16679.34,27.07,-1.00,-1.0,2445
5229,2140229,16928,160,1140,16967.10,27.12,-1.00,-1.0,2366
5232,2140232,17280,-140,1688,17362.81,27.07,-1.00,-1.0,2437
5235,2140235,17036,-608,1460,17109.25,27.12,-1.00,-1.0,2369
5237,2140237,17584,-1220,1608,17699.47,27.07,-1.00,-1.0,2347
5240,2140240,17420,-1628,1756,17583.81,27.07,-1.00,-1.0,2435
5243,2140243,17260,-844,2332,17437.26,27.07,-1.00,-1.0,2366
5246,2140246,16896,-912,1872,17023.83,27.07,-1.00,-1.0,2443
5249,2140249,16780,-1664,1000,16891.93,26.98,-1.00,-1.0,2366
5254,2140254,16776,940,1248,16848.60,27.07,-1.00,-1.0,2445
5256,2140256,16516,1736,1140,16646.07,27.12,-1.00,-1.0,2374
5259,2140259,17096,1036,748,17143.69,27.07,-1.00,-1.0,2436
5262,2140262,17100,1316,1412,17208.59,27.12,-1.00,-1.0,2368
5265,2140265,17368,2496,1592,17618.51,26.98,-1.00,-1.0,2436
5267,2140267,17052,1900,1680,17239.58,27.12,-1.00,-1.0,2374
5270,2140270,17124,-36,2008,17241.37,27.07,-1.00,-1.0,2436
5273,2140273,17036,-524,2008,17161.93,27.12,-1.00,-1.0,2367
5278,2140278,17176,192,1700,17260.99,27.02,-1.00,-1.0,2447
5281,2140281,17060,-1464,2064,17246.65,26.93,-1.00,-1.0,2371
5283,2140283,16644,-1920,1940,16866.32,27.07,-1.00,-1.0,2361
5286,2140286,17000,-824,1608,17095.75,27.07,-1.00,-1.0,2422
5289,2140289,17132,568,1352,17194.65,27.02,-1.00,-1.0,2368
5291,2140291,17124,912,1236,17192.75,27.07,-1.00,-1.0,2437
5294,2140294,17020,828,864,17062.02,27.02,-1.00,-1.0,2368
5297,2140297,17048,432,944,17079.58,27.07,-1.00,-1.0,2438
5300,2140300,16808,996,1080,16872.09,26.98,-1.00,-1.0,2366
5305,2140305,16876,2384,980,17071.71,27.07,-1.00,-1.0,2452
5307,2140307,16684,1664,1016,16797.53,26.98,-1.00,-1.0,2366
5310,2140310,17008,204,764,17026.37,27.02,-1.00,-1.0,2436
5313,2140313,16900,648,1420,16971.93,27.17,-1.00,-1.0,2366
5316,2140316,16952,1096,2088,17115.23,27.07,-1.00,-1.0,2442
5318,2140318,17136,20,1904,17241.46,26.98,-1.00,-1.0,2368
5321,2140321,17228,-1176,2044,17388.64,27.02,-1.00,-1.0,2363
5324,2140324,17296,-376,1732,17386.57,27.12,-1.00,-1.0,2443
5327,2140327,17432,404,1400,17492.79,27.07,-1.00,-1.0,2374
5332,2140332,16992,-560,1244,17046.68,26.98,-1.00,-1.0,2451
5334,2140334,16804,-52,1300,16854.29,27.07,-1.00,-1.0,2366
5337,2140337,16696,1600,1052,16805.45,27.02,-1.00,-1.0,2438
5340,2140340,16716,2288,960,16899.15,27.07,-1.00,-1.0,2366
5343,2140343,16544,1516,768,16631.06,27.12,-1.00,-1.0,2443
5345,2140345,16808,280,964,16837.95,27.07,-1.00,-1.0,2367
5348,2140348,16948,-308,980,16979.10,27.02,-1.00,-1.0,2436
5351,2140351,17236,-800,1476,17317.57,27.07,-1.00,-1.0,2366
5356,2140356,17356,-576,1908,17470.06,27.07,-1.00,-1.0,2447
5359,2140359,17372,-72,2172,17507.40,27.07,-1.00,-1.0,2367
5361,2140361,17244,-232,2088,17371.50,27.02,-1.00,-1.0,2435
5364,2140364,17032,-432,1976,17151.68,27.07,-1.00,-1.0,2353
5367,2140367,16872,-452,2016,16998.03,26.98,-1.00,-1.0,2363
5369,2140369,16728,172,1536,16799.25,27.02,-1.00,-1.0,2423
5372,2140372,16932,708,1412,17005.52,27.07,-1.00,-1.0,2367
5375,2140375,16996,1696,964,17107.59,27.02,-1.00,-1.0,2434
5378,2140378,17116,1812,1056,17244.01,27.07,-1.00,-1.0,2372
5383,2140383,16964,444,1068,17003.38,27.17,-1.00,-1.0,2451
5385,2140385,17044,60,1176,17084.63,27.12,-1.00,-1.0,2368
5388,2140388,16864,32,1316,16915.30,27.07,-1.00,-1.0,2453
5391,2140391,16992,-504,1708,17085.06,27.02,-1.00,-1.0,2365
5394,2140394,17132,-616,1684,17225.58,26.98,-1.00,-1.0,2442
5396,2140396,17268,-12,1660,17347.61,27.02,-1.00,-1.0,2367
5399,2140399,17160,380,1828,17261.27,27.07,-1.00,-1.0,2446
5402,2140402,17004,-312,1692,17090.82,27.02,-1.00,-1.0,2365
5405,2140405,16796,-1304,1436,16907.63,27.07,-1.00,-1.0,2363
5410,2140410,17156,1080,1316,17240.26,27.07,-1.00,-1.0,2449
5412,2140412,17164,1948,1616,17349.61,27.07,-1.00,-1.0,2374
5415,2140415,16968,1264,1592,17089.33,27.02,-1.00,-1.0,2436
5418,2140418,16968,-200,1712,17055.32,27.07,-1.00,-1.0,2369
5421,2140421,17012,148,1712,17098.57,26.98,-1.00,-1.0,2431
5423,2140423,17128,812,1696,17230.91,27.07,-1.00,-1.0,2373
5426,2140426,17360,872,1780,17472.79,27.02,-1.00,-1.0,2436
5429,2140429,17264,-48,1740,17351.53,27.07,-1.00,-1.0,2366
5434,2140434,16992,632,1800,17098.76,27.07,-1.00,-1.0,2453
5437,2140437,16860,1412,1680,17002.23,27.07,-1.00,-1.0,2371
5439,2140439,16960,812,1356,17033.49,27.02,-1.00,-1.0,2444
5442,2140442,16968,32,1040,16999.87,27.07,-1.00,-1.0,2372
5445,2140445,17040,-780,864,17079.71,27.12,-1.00,-1.0,2425
5448,2140448,17096,-144,948,17122.87,27.07,-1.00,-1.0,2367
5450,2140450,17128,688,1140,17179.68,27.02,-1.00,-1.0,2363
5453,2140453,17036,928,1068,17094.65,27.02,-1.00,-1.0,2434
5456,2140456,16964,64,1072,16997.96,27.02,-1.00,-1.0,2367
5461,2140461,16808,440,1372,16869.64,27.17,-1.00,-1.0,2452
5464,2140464,16932,736,1636,17026.77,26.98,-1.00,-1.0,2372
5466,2140466,16688,24,1560,16760.77,27.02,-1.00,-1.0,2445
5469,2140469,16892,-632,1432,16964.37,27.07,-1.00,-1.0,2373
5472,2140472,16964,-212,1536,17034.71,27.12,-1.00,-1.0,2423
5475,2140475,17228,1096,1556,17332.81,27.07,-1.00,-1.0,2367
5477,2140477,17288,724,1492,17367.36,27.12,-1.00,-1.0,2446
5480,2140480,17232,-104,1248,17277.45,27.07,-1.00,-1.0,2374
5485,2140485,17148,52,996,17176.98,27.07,-1.00,-1.0,2444
5488,2140488,16844,644,1080,16890.87,27.07,-1.00,-1.0,2374
5490,2140490,16824,448,1088,16865.10,27.07,-1.00,-1.0,2365
5493,2140493,16812,-440,1044,16850.13,27.02,-1.00,-1.0,2450
5496,2140496,16740,-432,1344,16799.42,27.07,-1.00,-1.0,2374
5499,2140499,16896,584,1468,16969.71,27.02,-1.00,-1.0,2444
5501,2140501,17012,680,1556,17096.54,27.07,-1.00,-1.0,2369
5504,2140504,17180,148,1636,17258.36,27.02,-1.00,-1.0,2450
5507,2140507,17312,-536,1480,17383.41,27.12,-1.00,-1.0,2367
5512,2140512,17232,-88,1400,17289.00,27.02,-1.00,-1.0,2446
5515,2140515,16960,228,1628,17039.48,27.02,-1.00,-1.0,2370
5517,2140517,17040,428,1416,17104.09,27.02,-1.00,-1.0,2440
5520,2140520,16932,460,1332,16990.54,27.02,-1.00,-1.0,2374
5523,2140523,16896,728,1184,16953.07,27.12,-1.00,-1.0,2437
5526,2140526,17096,840,1320,17167.45,27.02,-1.00,-1.0,2369
5528,2140528,17068,776,1460,17147.90,27.07,-1.00,-1.0,2361
5531,2140531,17068,496,1288,17123.71,27.07,-1.00,-1.0,2436
5534,2140534,16916,-148,1276,16964.70,27.07,-1.00,-1.0,2366
5539,2140539,17072,-704,1508,17152.93,27.07,-1.00,-1.0,2446
5542,2140542,17148,52,1852,17247.80,27.02,-1.00,-1.0,2367
5544,2140544,17020,632,1724,17118.76,27.07,-1.00,-1.0,2437
5547,2140547,17068,272,1808,17165.65,27.12,-1.00,-1.0,2370
5550,2140550,17024,28,1416,17082.81,27.07,-1.00,-1.0,2435
5553,2140553,17000,96,1356,17054.27,27.12,-1.00,-1.0,2366
5555,2140555,16956,468,1292,17011.59,27.17,-1.00,-1.0,2437
5558,2140558,16888,420,1104,16929.26,27.12,-1.00,-1.0,2369
5561,2140561,17020,576,1264,17076.59,27.07,-1.00,-1.0,2361
5566,2140566,16916,1308,1540,17036.24,27.07,-1.00,-1.0,2443
5569,2140569,17000,744,1448,17077.77,27.17,-1.00,-1.0,2367
5571,2140571,17132,-160,1704,17217.28,27.07,-1.00,-1.0,2437
5574,2140574,17196,32,1500,17261.33,26.98,-1.00,-1.0,2366
5577,2140577,17216,648,1800,17321.97,27.17,-1.00,-1.0,2436
5580,2140580,17160,644,1584,17244.98,27.17,-1.00,-1.0,2367
5582,2140582,17072,368,1628,17153.40,27.07,-1.00,-1.0,2435
5585,2140585,17068,504,1592,17149.49,26.98,-1.00,-1.0,2367
5590,2140590,16892,824,1632,16990.65,27.07,-1.00,-1.0,2454
5593,2140593,16864,476,1404,16929.04,27.02,-1.00,-1.0,2369
5596,2140596,16664,352,1508,16735.79,26.98,-1.00,-1.0,2446
5598,2140598,16944,616,1448,17016.91,27.12,-1.00,-1.0,2376
5601,2140601,16984,656,1416,17055.55,27.07,-1.00,-1.0,2362
5604,2140604,17164,344,1336,17219.35,26.98,-1.00,-1.0,2433
5606,2140606,17128,-164,1292,17177.44,27.07,-1.00,-1.0,2354
5609,2140609,17200,-244,1244,17246.65,26.98,-1.00,-1.0,2436
5612,2140612,17192,-88,1580,17264.68,27.12,-1.00,-1.0,2366
5617,2140617,17072,216,1444,17134.32,27.07,-1.00,-1.0,2452
5620,2140620,16976,288,1460,17041.10,27.02,-1.00,-1.0,2371
5622,2140622,17012,584,1508,17088.69,27.07,-1.00,-1.0,2444
5625,2140625,16904,760,1380,16977.26,27.17,-1.00,-1.0,2382
5628,2140628,17012,476,1284,17067.03,27.17,-1.00,-1.0,2441
5631,2140631,17012,56,1348,17065.41,27.07,-1.00,-1.0,2374
5633,2140633,17036,52,1364,17090.60,27.17,-1.00,-1.0,2443
5636,2140636,17024,308,1352,17080.38,27.07,-1.00,-1.0,2380
5639,2140639,17068,540,1592,17150.59,27.12,-1.00,-1.0,2368
5644,2140644,17096,-64,1480,17160.06,27.07,-1.00,-1.0,2452
5647,2140647,17168,-148,1640,17246.79,27.12,-1.00,-1.0,2370
5649,2140649,16852,-44,1600,16927.84,27.07,-1.00,-1.0,2447
5652,2140652,16948,-212,1648,17029.26,27.17,-1.00,-1.0,2373
5655,2140655,16956,-276,1384,17014.63,27.17,-1.00,-1.0,2426
5658,2140658,17060,-12,1336,17112.24,27.02,-1.00,-1.0,2366
5660,2140660,16980,504,1172,17027.86,27.07,-1.00,-1.0,2448
5663,2140663,16940,592,1140,16988.63,26.98,-1.00,-1.0,2380
5668,2140668,16932,312,984,16963.44,27.07,-1.00,-1.0,2460
5671,2140671,16820,468,1008,16856.68,27.17,-1.00,-1.0,2374
5674,2140674,17008,528,1220,17059.87,27.07,-1.00,-1.0,2449
5676,2140676,16960,544,1400,17026.38,27.07,-1.00,-1.0,2373
5679,2140679,16952,380,1424,17015.95,27.17,-1.00,-1.0,2360
5682,2140682,17044,-60,1356,17097.96,27.12,-1.00,-1.0,2435
5684,2140684,17072,-204,1444,17134.17,26.98,-1.00,-1.0,2369
5687,2140687,17148,-164,1524,17216.37,27.02,-1.00,-1.0,2436
5690,2140690,17092,-152,1552,17162.99,27.07,-1.00,-1.0,2369
5695,2140695,17104,-296,1612,17182.35,26.98,-1.00,-1.0,2458
5698,2140698,16996,228,1668,17079.18,27.07,-1.00,-1.0,2374
5701,2140701,16976,556,1764,17076.46,27.07,-1.00,-1.0,2448
5703,2140703,16916,652,1600,17004.00,27.07,-1.00,-1.0,2377
5706,2140706,16960,552,1616,17045.76,27.12,-1.00,-1.0,2442
5709,2140709,17036,504,1740,17132.04,27.07,-1.00,-1.0,2370
5712,2140712,17104,536,1816,17208.48,26.93,-1.00,-1.0,2446
5714,2140714,17036,568,1780,17138.15,27.07,-1.00,-1.0,2375
5719,2140719,17104,444,1500,17175.39,27.07,-1.00,-1.0,2453
5722,2140722,17060,464,1656,17146.46,27.07,-1.00,-1.0,2374
5725,2140725,17024,256,1600,17100.94,27.02,-1.00,-1.0,2361
5727,2140727,16940,96,1512,17007.62,27.12,-1.00,-1.0,2435
5730,2140730,16916,-36,1372,16971.59,27.02,-1.00,-1.0,2368
5733,2140733,16952,4,1144,16990.56,27.02,-1.00,-1.0,2437
5736,2140736,17088,-40,1012,17117.99,26.98,-1.00,-1.0,2364
5738,2140738,16988,244,1028,17020.82,27.12,-1.00,-1.0,2439
5741,2140741,16972,464,1124,17015.51,27.02,-1.00,-1.0,2366
5746,2140746,16876,616,1264,16934.48,27.02,-1.00,-1.0,2450
5749,2140749,16968,700,1484,17047.15,27.12,-1.00,-1.0,2353
5752,2140752,17036,776,1732,17141.39,27.12,-1.00,-1.0,2447
5754,2140754,17084,616,1652,17174.74,27.07,-1.00,-1.0,2374
5757,2140757,17128,472,1568,17206.10,27.12,-1.00,-1.0,2361
5760,2140760,17152,52,1516,17218.95,27.07,-1.00,-1.0,2441
5762,2140762,17172,96,1388,17228.27,27.02,-1.00,-1.0,2366
5765,2140765,17084,88,1276,17131.81,27.07,-1.00,-1.0,2436
5768,2140768,16932,64,984,16960.69,27.12,-1.00,-1.0,2366
5773,2140773,16928,132,964,16955.94,27.02,-1.00,-1.0,2443
5776,2140776,16908,88,1068,16941.93,27.12,-1.00,-1.0,2368
5779,2140779,16912,0,908,16936.36,27.12,-1.00,-1.0,2435
5781,2140781,16816,96,1068,16850.15,27.02,-1.00,-1.0,2374
5784,2140784,16960,308,1376,17018.51,26.98,-1.00,-1.0,2436
5787,2140787,16984,432,1556,17060.60,27.02,-1.00,-1.0,2367
5789,2140789,17048,440,1860,17154.81,27.07,-1.00,-1.0,2360
5792,2140792,17168,220,1816,17265.18,27.07,-1.00,-1.0,2439
5795,2140795,17076,364,2060,17203.66,27.07,-1.00,-1.0,2367
5800,2140800,16956,428,1856,17062.64,27.07,-1.00,-1.0,2443
5803,2140803,17004,456,1924,17118.58,27.02,-1.00,-1.0,2365
5806,2140806,17008,420,1504,17079.53,26.98,-1.00,-1.0,2442
5808,2140808,17008,456,1360,17068.38,27.12,-1.00,-1.0,2367
5811,2140811,16996,316,1328,17050.73,27.17,-1.00,-1.0,2436
5814,2140814,16924,152,1160,16964.39,27.12,-1.00,-1.0,2366
5817,2140817,16956,152,1076,16990.79,27.07,-1.00,-1.0,2434
5819,2140819,17016,60,1180,17056.97,27.02,-1.00,-1.0,2368
5826,2140826,16956,-176,1368,17012.01,27.07,-1.00,-1.0,2443
5829,2140829,17048,-124,1440,17109.16,27.07,-1.00,-1.0,2368
5831,2140831,16980,-8,1504,17046.48,27.07,-1.00,-1.0,2359
5834,2140834,17172,116,1668,17253.21,27.07,-1.00,-1.0,2439
5837,2140837,17044,240,1820,17142.58,26.98,-1.00,-1.0,2367
5840,2140840,17036,328,1772,17131.05,27.02,-1.00,-1.0,2438
5842,2140842,17124,464,1816,17226.27,27.07,-1.00,-1.0,2366
5845,2140845,17028,400,1596,17107.31,27.07,-1.00,-1.0,2438
5848,2140848,16996,412,1616,17077.62,27.07,-1.00,-1.0,2366
5853,2140853,16972,260,1464,17037.01,27.02,-1.00,-1.0,2454
5855,2140855,16996,288,1480,17062.75,27.12,-1.00,-1.0,2365
5858,2140858,17008,320,1328,17062.77,27.12,-1.00,-1.0,2457
5861,2140861,16996,372,1664,17081.31,27.12,-1.00,-1.0,2367
5864,2140864,17060,372,1588,17137.79,27.12,-1.00,-1.0,2441
5866,2140866,17080,436,1424,17144.80,27.02,-1.00,-1.0,2369
5869,2140869,17084,444,1576,17162.28,26.93,-1.00,-1.0,2374
5872,2140872,17104,528,1564,17183.47,27.07,-1.00,-1.0,2442
5875,2140875,17044,368,1328,17099.62,27.02,-1.00,-1.0,2373
5880,2140880,16964,360,1372,17023.20,27.02,-1.00,-1.0,2451
5882,2140882,16984,412,1228,17033.32,27.17,-1.00,-1.0,2366
5885,2140885,16924,452,1336,16982.67,27.02,-1.00,-1.0,2439
5888,2140888,16980,396,1128,17022.03,27.07,-1.00,-1.0,2367
5891,2140891,16860,276,1312,16913.22,27.02,-1.00,-1.0,2437
5893,2140893,17000,416,1328,17056.87,27.07,-1.00,-1.0,2366
5896,2140896,17048,512,1464,17118.40,27.12,-1.00,-1.0,2439
5899,2140899,17064,560,1276,17120.80,27.17,-1.00,-1.0,2367
5904,2140904,17112,480,1384,17174.59,27.07,-1.00,-1.0,2443
5907,2140907,17084,420,1292,17137.93,27.07,-1.00,-1.0,2367
5909,2140909,17128,512,1480,17199.45,27.07,-1.00,-1.0,2360
5912,2140912,17060,508,1424,17126.86,27.02,-1.00,-1.0,2435
5915,2140915,17000,308,1284,17051.20,27.07,-1.00,-1.0,2366
5917,2140917,17104,232,1176,17145.95,27.02,-1.00,-1.0,2435
5920,2140920,17020,260,1288,17070.65,27.07,-1.00,-1.0,2366
5923,2140923,16988,180,1384,17045.23,27.02,-1.00,-1.0,2436
5926,2140926,17068,36,1408,17126.02,27.07,-1.00,-1.0,2366
5931,2140931,16964,-64,1436,17024.79,27.17,-1.00,-1.0,2447
5933,2140933,16964,-188,1432,17025.37,27.17,-1.00,-1.0,2374
5936,2140936,17012,-76,1532,17081.01,27.07,-1.00,-1.0,2443
5939,2140939,17004,-60,1424,17063.63,27.17,-1.00,-1.0,2370
5942,2140942,17052,12,1656,17132.23,27.07,-1.00,-1.0,2447
5944,2140944,17088,200,1592,17163.16,27.17,-1.00,-1.0,2376
5947,2140947,17060,300,1780,17155.23,27.07,-1.00,-1.0,2361
5950,2140950,17072,372,1736,17164.07,27.02,-1.00,-1.0,2432
5952,2140952,16976,472,1564,17054.43,26.98,-1.00,-1.0,2369
5957,2140957,17060,608,1584,17144.16,27.07,-1.00,-1.0,2454
5960,2140960,17004,632,1516,17083.14,26.98,-1.00,-1.0,2380
5963,2140963,17000,484,1512,17073.97,27.07,-1.00,-1.0,2442
5966,2140966,16936,388,1468,17003.93,27.07,-1.00,-1.0,2378
5968,2140968,17040,272,1504,17108.41,27.07,-1.00,-1.0,2438
5971,2140971,16996,184,1500,17063.06,27.07,-1.00,-1.0,2380
5974,2140974,16968,108,1428,17028.33,26.98,-1.00,-1.0,2437
5977,2140977,17036,260,1432,17098.06,27.17,-1.00,-1.0,2377
5982,2140982,17124,228,1508,17191.78,27.07,-1.00,-1.0,2445
5984,2140984,17104,292,1404,17164.01,27.02,-1.00,-1.0,2368
5987,2140987,16956,264,1372,17013.46,27.07,-1.00,-1.0,2363
5990,2140990,17012,284,1388,17070.89,27.12,-1.00,-1.0,2448
5992,2140992,16584,36,3128,16876.46,27.17,-1.00,-1.0,2377
5995,2140995,18144,13496,-23040,32282.94,27.17,-1.00,-1.0,2444
5998,2140998,20780,-5708,21124,30176.37,27.07,-1.00,-1.0,2356
6001,2141001,3344,-916,-9724,10323.64,27.02,-1.00,-1.0,2449
6003,2141003,28136,15132,-19256,37301.55,27.07,-1.00,-1.0,2376
6008,2141008,32767,-23380,-5152,40581.32,27.07,-1.00,-1.0,2444
6011,2141011,-12232,-8292,4424,15425.66,27.07,-1.00,-1.0,2365
6014,2141014,32767,3268,-11956,35032.87,27.07,-1.00,-1.0,2442
6016,2141016,-4232,10656,7312,13598.73,26.98,-1.00,-1.0,2367
6019,2141019,29852,1252,-3032,30031.69,26.98,-1.00,-1.0,2447
6022,2141022,7428,20988,7916,23629.10,27.07,-1.00,-1.0,2366
6025,2141025,16012,14572,-7424,22887.62,27.07,-1.00,-1.0,2443
6027,2141027,13356,-2188,-2224,13715.55,27.07,-1.00,-1.0,2366
6032,2141032,26868,-4644,4520,27638.50,27.07,-1.00,-1.0,2446
6035,2141035,11940,15652,8376,21394.07,27.17,-1.00,-1.0,2366
6038,2141038,25836,2916,3524,26237.77,27.07,-1.00,-1.0,2442
6040,2141040,6496,-7848,276,10191.43,26.98,-1.00,-1.0,2367
6043,2141043,26836,-7436,4856,28267.40,26.98,-1.00,-1.0,2375
6046,2141046,10396,3052,-4944,11909.44,27.02,-1.00,-1.0,2434
6049,2141049,23004,-1996,2196,23194.62,27.07,-1.00,-1.0,2372
6051,2141051,11624,-11092,2696,16291.66,27.12,-1.00,-1.0,2445
6054,2141054,21184,12860,856,24796.66,27.07,-1.00,-1.0,2381
6059,2141059,22528,712,-208,22540.21,27.02,-1.00,-1.0,2433
6062,2141062,12188,-2868,1992,12678.36,27.07,-1.00,-1.0,2375
6064,2141064,21780,192,956,21801.82,27.12,-1.00,-1.0,2439
6067,2141067,12008,7024,1696,14014.46,27.07,-1.00,-1.0,2373
6070,2141070,21088,-2460,2504,21378.15,27.12,-1.00,-1.0,2439
6073,2141073,12992,-7504,1172,15049.11,27.12,-1.00,-1.0,2375
6075,2141075,21700,-628,2056,21806.23,27.12,-1.00,-1.0,2445
6078,2141078,14580,3916,2880,15368.99,27.07,-1.00,-1.0,2374
