timestamp_ms,global_ms,accel_x,accel_y,accel_z,accel_mag,temp_c,voltage,soc,loop_us
2,2135002,16912,740,1396,16985.65,26.55,-1.00,-1.0,2490
9,2135009,16904,-56,1144,16942.76,26.60,-1.00,-1.0,2471
11,2135011,16712,272,1200,16757.23,26.60,-1.00,-1.0,2368
14,2135014,17100,608,1388,17167.01,26.60,-1.00,-1.0,2363
17,2135017,17124,456,1444,17190.82,26.60,-1.00,-1.0,2434
20,2135020,17148,-40,1544,17217.42,26.51,-1.00,-1.0,2369
22,2135022,17224,-548,1552,17302.46,26.60,-1.00,-1.0,2430
25,2135025,17076,-284,1736,17166.37,26.69,-1.00,-1.0,2378
28,2135028,17068,340,1592,17145.46,26.60,-1.00,-1.0,2439
31,2135031,16976,452,1584,17055.73,26.51,-1.00,-1.0,2368
35,2135035,17044,168,1368,17099.64,26.65,-1.00,-1.0,2455
38,2135038,16872,444,1356,16932.22,26.69,-1.00,-1.0,2370
41,2135041,16932,848,1216,16996.78,26.51,-1.00,-1.0,2436
44,2135044,16888,700,1340,16955.54,26.51,-1.00,-1.0,2370
46,2135046,16896,208,1208,16940.41,26.55,-1.00,-1.0,2359
49,2135049,17092,-284,1304,17144.02,26.46,-1.00,-1.0,2436
52,2135052,16924,-48,1432,16984.54,26.65,-1.00,-1.0,2364
54,2135054,17000,416,1524,17073.24,26.55,-1.00,-1.0,2440
57,2135057,17052,504,1664,17140.41,26.55,-1.00,-1.0,2365
62,2135062,17040,-72,1596,17114.73,26.60,-1.00,-1.0,2457
65,2135065,17024,468,1316,17081.20,26.60,-1.00,-1.0,2372
68,2135068,17104,560,1444,17173.98,26.55,-1.00,-1.0,2453
70,2135070,16972,264,1488,17039.15,26.60,-1.00,-1.0,2365
73,2135073,16976,388,1544,17050.49,26.60,-1.00,-1.0,2361
76,2135076,16920,964,1624,17025.07,26.55,-1.00,-1.0,2436
78,2135078,16960,1256,1504,17072.82,26.55,-1.00,-1.0,2373
81,2135081,16972,564,1424,17040.97,26.55,-1.00,-1.0,2440
84,2135084,17012,-108,1512,17079.40,26.60,-1.00,-1.0,2359
89,2135089,17152,528,1640,17238.31,26.60,-1.00,-1.0,2455
92,2135092,17176,724,1712,17276.29,26.60,-1.00,-1.0,2365
94,2135094,17196,408,1400,17257.72,26.65,-1.00,-1.0,2452
97,2135097,17068,180,1492,17134.03,26.60,-1.00,-1.0,2371
100,2135100,16892,388,1408,16955.02,26.65,-1.00,-1.0,2358
102,2135102,16936,516,1532,17012.98,26.55,-1.00,-1.0,2444
105,2135105,16952,452,1392,17015.06,26.65,-1.00,-1.0,2370
108,2135108,16996,356,1452,17061.62,26.65,-1.00,-1.0,2438
111,2135111,16956,492,1524,17031.46,26.60,-1.00,-1.0,2431
116,2135116,17068,496,1388,17131.53,26.60,-1.00,-1.0,2452
118,2135118,17140,220,1432,17201.12,26.60,-1.00,-1.0,2371
121,2135121,17148,-80,1576,17220.46,26.65,-1.00,-1.0,2447
124,2135124,17104,-148,1344,17157.36,26.51,-1.00,-1.0,2370
127,2135127,17000,100,1556,17071.35,26.60,-1.00,-1.0,2437
129,2135129,16908,168,1444,16970.38,26.60,-1.00,-1.0,2375
132,2135132,16920,116,1488,16985.70,26.65,-1.00,-1.0,2376
135,2135135,16884,492,1408,16949.75,26.55,-1.00,-1.0,2431
138,2135138,16908,516,1584,16989.87,26.55,-1.00,-1.0,2374
143,2135143,16988,-64,1492,17053.51,26.65,-1.00,-1.0,2438
145,2135145,17000,132,1400,17058.06,26.60,-1.00,-1.0,2374
148,2135148,16936,348,1688,17023.47,26.55,-1.00,-1.0,2445
151,2135151,17140,676,1380,17208.75,26.69,-1.00,-1.0,2366
154,2135154,17132,332,1308,17185.07,26.65,-1.00,-1.0,2430
156,2135156,17096,172,1364,17151.19,26.60,-1.00,-1.0,2373
159,2135159,16932,120,1456,16994.91,26.55,-1.00,-1.0,2429
162,2135162,16992,-40,1520,17059.90,26.60,-1.00,-1.0,2376
164,2135164,16908,12,1392,16965.21,26.55,-1.00,-1.0,2361
169,2135169,16948,96,1392,17005.34,26.65,-1.00,-1.0,2438
172,2135172,16916,284,1516,16986.17,26.60,-1.00,-1.0,2370
175,2135175,17036,492,1444,17104.17,26.65,-1.00,-1.0,2436
177,2135177,16984,380,1316,17039.15,26.60,-1.00,-1.0,2370
180,2135180,16956,264,1360,17012.50,26.65,-1.00,-1.0,2433
183,2135183,16904,124,1216,16948.13,26.69,-1.00,-1.0,2370
186,2135186,16840,384,1400,16902.46,26.65,-1.00,-1.0,2438
188,2135188,16956,504,1292,17012.62,26.60,-1.00,-1.0,2370
191,2135191,16964,524,1180,17013.06,26.55,-1.00,-1.0,2363
196,2135196,16992,-156,1324,17044.22,26.55,-1.00,-1.0,2440
199,2135199,17096,-204,1300,17146.57,26.60,-1.00,-1.0,2370
202,2135202,17088,120,1500,17154.13,26.60,-1.00,-1.0,2430
204,2135204,17080,108,1548,17150.35,26.60,-1.00,-1.0,2370
207,2135207,16996,24,1436,17056.57,26.55,-1.00,-1.0,2429
210,2135210,16920,84,1532,16989.42,26.60,-1.00,-1.0,2372
213,2135213,17012,508,1456,17081.75,26.51,-1.00,-1.0,2433
215,2135215,16844,636,1616,16933.29,26.69,-1.00,-1.0,2371
220,2135220,16928,512,1440,16996.85,26.55,-1.00,-1.0,2441
223,2135223,16932,432,1472,17001.35,26.51,-1.00,-1.0,2371
225,2135225,17068,584,1424,17137.25,26.55,-1.00,-1.0,2361
228,2135228,17148,696,1604,17236.91,26.60,-1.00,-1.0,2442
231,2135231,17044,600,1580,17127.59,26.55,-1.00,-1.0,2372
234,2135234,16988,408,1492,17058.27,26.65,-1.00,-1.0,2433
236,2135236,17056,244,1572,17130.03,26.55,-1.00,-1.0,2372
239,2135239,17024,224,1636,17103.90,26.69,-1.00,-1.0,2432
242,2135242,16920,268,1452,16984.30,26.60,-1.00,-1.0,2382
247,2135247,17024,124,1328,17076.17,26.60,-1.00,-1.0,2443
250,2135250,17016,372,1460,17082.57,26.51,-1.00,-1.0,2373
253,2135253,17032,504,1268,17086.57,26.60,-1.00,-1.0,2441
255,2135255,16992,512,1440,17060.59,26.60,-1.00,-1.0,2379
258,2135258,16872,452,1296,16927.74,26.51,-1.00,-1.0,2350
261,2135261,16904,472,1560,16982.39,26.60,-1.00,-1.0,2426
263,2135263,16976,556,1632,17063.33,26.60,-1.00,-1.0,2372
266,2135266,16960,576,1600,17045.04,26.60,-1.00,-1.0,2433
269,2135269,17084,364,1632,17165.63,26.69,-1.00,-1.0,2379
274,2135274,16984,72,1520,17052.03,26.51,-1.00,-1.0,2446
277,2135277,17152,112,1516,17219.23,26.60,-1.00,-1.0,2384
280,2135280,17064,84,1468,17127.23,26.60,-1.00,-1.0,2431
283,2135283,17024,44,1324,17075.46,26.51,-1.00,-1.0,2375
285,2135285,17012,116,1340,17065.09,26.60,-1.00,-1.0,2437
288,2135288,16936,28,1200,16978.48,26.51,-1.00,-1.0,2384
291,2135291,16816,188,1224,16861.54,26.60,-1.00,-1.0,2360
293,2135293,16976,308,1368,17033.81,26.55,-1.00,-1.0,2430
296,2135296,16944,328,1448,17008.92,26.51,-1.00,-1.0,2372
301,2135301,17072,476,1536,17147.57,26.60,-1.00,-1.0,2447
304,2135304,17032,464,1572,17110.68,26.69,-1.00,-1.0,2377
307,2135307,17124,312,1488,17191.36,26.65,-1.00,-1.0,2430
310,2135310,17060,332,1660,17143.79,26.60,-1.00,-1.0,2378
312,2135312,17124,448,1600,17204.42,26.65,-1.00,-1.0,2416
315,2135315,17004,472,1504,17076.91,26.60,-1.00,-1.0,2384
318,2135318,17104,372,1608,17183.45,26.60,-1.00,-1.0,2359
320,2135320,17012,380,1400,17073.74,26.55,-1.00,-1.0,2430
323,2135323,16968,348,1328,17023.45,26.55,-1.00,-1.0,2373
329,2135329,16948,308,1352,17004.63,26.60,-1.00,-1.0,2446
331,2135331,16956,364,1240,17005.18,26.69,-1.00,-1.0,2373
334,2135334,17008,280,1332,17062.38,26.60,-1.00,-1.0,2424
337,2135337,16896,136,1332,16948.97,26.60,-1.00,-1.0,2378
340,2135340,17016,104,1224,17060.28,26.60,-1.00,-1.0,2439
342,2135342,17092,92,1292,17141.01,26.60,-1.00,-1.0,2375
345,2135345,17060,208,1504,17127.43,26.55,-1.00,-1.0,2445
348,2135348,17084,208,1548,17155.25,26.60,-1.00,-1.0,2379
350,2135350,17012,244,1468,17076.96,26.55,-1.00,-1.0,2361
355,2135355,17016,344,1456,17081.64,26.65,-1.00,-1.0,2445
358,2135358,17048,252,1600,17124.77,26.55,-1.00,-1.0,2378
361,2135361,17068,136,1428,17128.17,26.65,-1.00,-1.0,2429
364,2135364,17008,104,1436,17068.83,26.60,-1.00,-1.0,2375
366,2135366,16972,192,1328,17024.96,26.55,-1.00,-1.0,2417
369,2135369,16964,308,1224,17010.89,26.55,-1.00,-1.0,2386
372,2135372,16948,272,1340,17003.07,26.55,-1.00,-1.0,2429
375,2135375,17100,232,1420,17160.43,26.60,-1.00,-1.0,2374
380,2135380,17052,468,1540,17127.79,26.69,-1.00,-1.0,2438
382,2135382,16936,476,1480,17007.21,26.60,-1.00,-1.0,2372
385,2135385,17044,340,1360,17101.55,26.65,-1.00,-1.0,2364
388,2135388,17060,352,1488,17128.39,26.65,-1.00,-1.0,2442
390,2135390,17076,384,1496,17145.71,26.65,-1.00,-1.0,2380
393,2135393,16968,312,1576,17043.89,26.65,-1.00,-1.0,2438
396,2135396,16888,180,1560,16960.85,26.65,-1.00,-1.0,2373
399,2135399,17004,176,1468,17068.16,26.55,-1.00,-1.0,2442
401,2135401,17008,240,1500,17075.70,26.60,-1.00,-1.0,2371
406,2135406,17072,276,1388,17130.55,26.60,-1.00,-1.0,2437
409,2135409,16980,400,1436,17045.31,26.55,-1.00,-1.0,2370
412,2135412,17048,448,1416,17112.57,26.60,-1.00,-1.0,2430
415,2135415,17036,460,1336,17094.50,26.65,-1.00,-1.0,2371
417,2135417,17020,420,1424,17084.63,26.60,-1.00,-1.0,2361
420,2135420,17048,396,1464,17115.33,26.60,-1.00,-1.0,2428
423,2135423,16956,392,1400,17018.21,26.60,-1.00,-1.0,2371
426,2135426,17104,296,1424,17165.73,26.60,-1.00,-1.0,2430
428,2135428,17020,348,1424,17083.01,26.60,-1.00,-1.0,2369
433,2135433,17084,196,1440,17145.70,26.65,-1.00,-1.0,2448
436,2135436,17000,108,1312,17050.89,26.55,-1.00,-1.0,2378
439,2135439,17044,148,1384,17100.74,26.65,-1.00,-1.0,2432
442,2135442,16960,160,1452,17022.79,26.60,-1.00,-1.0,2370
444,2135444,17060,88,1408,17118.23,26.55,-1.00,-1.0,2442
447,2135447,16940,52,1316,16991.12,26.55,-1.00,-1.0,2379
450,2135450,16964,88,1468,17027.63,26.55,-1.00,-1.0,2363
453,2135453,16992,200,1560,17064.63,26.65,-1.00,-1.0,2441
456,2135456,17032,156,1552,17103.28,26.60,-1.00,-1.0,2371
460,2135460,17124,276,1392,17182.70,26.55,-1.00,-1.0,2446
463,2135463,16972,400,1548,17047.14,26.55,-1.00,-1.0,2377
466,2135466,17068,452,1456,17135.95,26.65,-1.00,-1.0,2418
468,2135468,17036,408,1388,17097.32,26.51,-1.00,-1.0,2370
471,2135471,17048,628,1544,17129.29,26.65,-1.00,-1.0,2443
474,2135474,16932,408,1480,17001.46,26.55,-1.00,-1.0,2369
477,2135477,16984,444,1460,17052.42,26.55,-1.00,-1.0,2360
480,2135480,17028,344,1360,17085.69,26.60,-1.00,-1.0,2444
483,2135483,17044,280,1420,17105.34,26.55,-1.00,-1.0,2376
488,2135488,26080,1032,-6964,27013.49,26.55,-1.00,-1.0,2438
490,2135490,14076,-5040,-8936,17418.02,26.65,-1.00,-1.0,2370
493,2135493,28392,-2448,18508,33980.06,26.65,-1.00,-1.0,2437
496,2135496,15712,16276,30552,38015.79,26.65,-1.00,-1.0,2378
499,2135499,10576,-22928,10068,27182.89,26.55,-1.00,-1.0,2429
501,2135501,26680,-25352,-4056,37026.98,26.55,-1.00,-1.0,2372
504,2135504,9444,9540,9336,16351.20,26.55,-1.00,-1.0,2430
507,2135507,28220,19344,-628,34219.19,26.55,-1.00,-1.0,2378
512,2135512,16016,-5664,-4064,17467.38,26.65,-1.00,-1.0,2437
514,2135514,17168,5936,2472,18332.68,26.51,-1.00,-1.0,2370
517,2135517,16628,14340,-6620,22933.61,26.65,-1.00,-1.0,2432
520,2135520,28300,1108,8188,29481.54,26.60,-1.00,-1.0,2370
522,2135522,13920,-4700,7824,16645.46,26.69,-1.00,-1.0,2360
525,2135525,17280,-6072,2948,18551.50,26.65,-1.00,-1.0,2430
528,2135528,17420,672,1648,17510.68,26.55,-1.00,-1.0,2371
531,2135531,19212,3832,5604,20376.21,26.65,-1.00,-1.0,2431
534,2135534,11648,-368,1440,11742.44,26.69,-1.00,-1.0,2373
539,2135539,11036,-3688,-1000,11678.81,26.69,-1.00,-1.0,2444
541,2135541,20124,-1984,560,20229.32,26.60,-1.00,-1.0,2374
544,2135544,10180,-4632,576,11199.09,26.69,-1.00,-1.0,2424
547,2135547,24120,5856,-1036,24842.31,26.60,-1.00,-1.0,2376
550,2135550,10440,11224,4196,15892.71,26.60,-1.00,-1.0,2441
552,2135552,21912,-5020,-1056,22504.47,26.60,-1.00,-1.0,2373
555,2135555,13164,-6964,1492,14967.11,26.51,-1.00,-1.0,2442
558,2135558,21156,4368,2564,21753.85,26.60,-1.00,-1.0,2377
563,2135563,19300,-2980,2384,19673.68,26.60,-1.00,-1.0,2446
565,2135565,13976,-7044,948,15679.45,26.55,-1.00,-1.0,2370
568,2135568,19828,1224,-1008,19891.30,26.60,-1.00,-1.0,2374
571,2135571,13412,6860,3784,15532.55,26.60,-1.00,-1.0,2430
574,2135574,19148,-1832,2508,19398.25,26.60,-1.00,-1.0,2379
576,2135576,15160,-5964,936,16317.81,26.60,-1.00,-1.0,2438
579,2135579,18404,-4896,-260,19045.88,26.60,-1.00,-1.0,2385
582,2135582,14512,3384,2136,15053.64,26.60,-1.00,-1.0,2432
585,2135585,20268,-1800,1856,20432.24,26.65,-1.00,-1.0,2369
590,2135590,19508,1688,2264,19711.34,26.65,-1.00,-1.0,2441
592,2135592,14624,4356,1704,15353.82,26.60,-1.00,-1.0,2378
595,2135595,19540,-1332,176,19586.14,26.55,-1.00,-1.0,2430
598,2135598,17172,-3096,588,17458.77,26.60,-1.00,-1.0,2372
601,2135601,16668,-284,652,16683.16,26.65,-1.00,-1.0,2436
603,2135603,16200,1204,704,16259.93,26.60,-1.00,-1.0,2368
606,2135606,15712,2940,2144,16127.84,26.65,-1.00,-1.0,2361
609,2135609,16028,-240,1940,16146.76,26.51,-1.00,-1.0,2436
612,2135612,17540,-1448,1500,17663.47,26.65,-1.00,-1.0,2369
617,2135617,17560,1044,496,17598.00,26.65,-1.00,-1.0,2444
619,2135619,16460,-732,2376,16646.71,26.55,-1.00,-1.0,2367
622,2135622,17912,-3284,900,18232.78,26.55,-1.00,-1.0,2417
625,2135625,16640,-560,1208,16693.19,26.55,-1.00,-1.0,2374
628,2135628,17928,5648,2428,18952.79,26.55,-1.00,-1.0,2437
630,2135630,16520,5392,3204,17670.59,26.60,-1.00,-1.0,2368
633,2135633,16372,-4044,452,16870.11,26.55,-1.00,-1.0,2430
636,2135636,17396,-6396,744,18549.48,26.65,-1.00,-1.0,2373
641,2135641,18432,6508,2292,19681.11,26.55,-1.00,-1.0,2438
643,2135643,15204,680,2212,15379.11,26.55,-1.00,-1.0,2374
646,2135646,17860,-6128,948,18905.84,26.51,-1.00,-1.0,2360
649,2135649,16960,-2820,284,17195.19,26.51,-1.00,-1.0,2439
651,2135651,18420,6572,1516,19615.96,26.60,-1.00,-1.0,2370
654,2135654,16476,-196,756,16494.50,26.60,-1.00,-1.0,2431
657,2135657,17072,-6728,356,18353.36,26.51,-1.00,-1.0,2370
660,2135660,15348,-3596,1388,15824.63,26.60,-1.00,-1.0,2436
663,2135663,17828,7056,2104,19288.64,26.60,-1.00,-1.0,2377
668,2135668,19024,-804,504,19047.65,26.60,-1.00,-1.0,2439
670,2135670,15744,-3156,1216,16103.18,26.60,-1.00,-1.0,2371
673,2135673,16368,-628,1960,16496.89,26.60,-1.00,-1.0,2429
676,2135676,17648,1352,1436,17757.87,26.51,-1.00,-1.0,2377
679,2135679,17004,1728,2204,17233.10,26.51,-1.00,-1.0,2430
681,2135681,17112,-224,2624,17313.46,26.60,-1.00,-1.0,2374
684,2135684,16676,-1112,948,16739.90,26.55,-1.00,-1.0,2368
687,2135687,17308,-1372,1036,17393.18,26.65,-1.00,-1.0,2438
690,2135690,16552,1640,2140,16770.15,26.60,-1.00,-1.0,2382
695,2135695,17564,604,824,17593.69,26.60,-1.00,-1.0,2447
697,2135697,16800,-1216,932,16869.71,26.60,-1.00,-1.0,2369
700,2135700,16932,-1124,980,16997.54,26.60,-1.00,-1.0,2436
703,2135703,16932,-160,1192,16974.66,26.51,-1.00,-1.0,2370
706,2135706,17292,2484,1340,17520.82,26.55,-1.00,-1.0,2439
708,2135708,16780,2908,2124,17162.06,26.60,-1.00,-1.0,2356
711,2135711,16880,-1652,1060,16993.74,26.51,-1.00,-1.0,2431
714,2135714,17164,-3980,312,17622.16,26.60,-1.00,-1.0,2371
719,2135719,16704,3064,2792,17210.66,26.60,-1.00,-1.0,2436
722,2135722,17076,3160,1440,17425.53,26.60,-1.00,-1.0,2370
724,2135724,16748,-1692,1060,16866.59,26.60,-1.00,-1.0,2358
727,2135727,16644,-2172,1488,16850.95,26.65,-1.00,-1.0,2430
730,2135730,17048,420,1620,17129.95,26.51,-1.00,-1.0,2370
732,2135732,17368,2956,1428,17675.54,26.60,-1.00,-1.0,2430
735,2135735,16920,-692,928,16959.55,26.60,-1.00,-1.0,2370
738,2135738,17384,-3164,1024,17699.23,26.60,-1.00,-1.0,2430
741,2135741,16816,-228,1536,16887.54,26.55,-1.00,-1.0,2374
746,2135746,17044,-236,1488,17110.46,26.65,-1.00,-1.0,2437
749,2135749,16944,-2488,1068,17158.96,26.60,-1.00,-1.0,2370
752,2135752,16924,-940,844,16971.08,26.55,-1.00,-1.0,2430
754,2135754,17008,3224,1368,17364.84,26.60,-1.00,-1.0,2371
757,2135757,17180,2840,1552,17482.18,26.55,-1.00,-1.0,2429
760,2135760,17280,892,1760,17392.29,26.69,-1.00,-1.0,2369
762,2135762,16448,-524,1556,16529.74,26.51,-1.00,-1.0,2360
765,2135765,17244,8,1396,17300.42,26.65,-1.00,-1.0,2445
768,2135768,16924,600,1876,17038.23,26.69,-1.00,-1.0,2371
773,2135773,17108,-852,1444,17189.96,26.65,-1.00,-1.0,2443
775,2135775,17472,-1040,1344,17554.45,26.65,-1.00,-1.0,2370
778,2135778,17032,160,1836,17131.42,26.55,-1.00,-1.0,2441
781,2135781,17332,560,1896,17444.39,26.55,-1.00,-1.0,2371
784,2135784,16912,-320,1548,16985.71,26.55,-1.00,-1.0,2436
786,2135786,16640,-1648,1300,16771.87,26.55,-1.00,-1.0,2370
789,2135789,16784,-644,1248,16842.65,26.69,-1.00,-1.0,2446
792,2135792,16784,1896,1532,16960.09,26.65,-1.00,-1.0,2370
795,2135795,16820,1964,1620,17011.59,26.60,-1.00,-1.0,2363
800,2135800,16892,932,1664,16999.33,26.69,-1.00,-1.0,2445
803,2135803,17292,1172,1512,17397.50,26.55,-1.00,-1.0,2371
805,2135805,16884,424,1376,16945.28,26.69,-1.00,-1.0,2438
808,2135808,17044,-160,1444,17105.81,26.55,-1.00,-1.0,2378
811,2135811,16964,120,1552,17035.27,26.51,-1.00,-1.0,2432
814,2135814,17056,676,1112,17105.57,26.65,-1.00,-1.0,2370
816,2135816,17076,56,1384,17132.09,26.60,-1.00,-1.0,2441
819,2135819,16792,-620,1628,16882.12,26.55,-1.00,-1.0,2369
824,2135824,17168,-76,1340,17220.38,26.46,-1.00,-1.0,2437
827,2135827,17136,472,1320,17193.25,26.55,-1.00,-1.0,2371
829,2135829,17312,1188,1544,17421.27,26.65,-1.00,-1.0,2364
832,2135832,17152,524,1360,17213.81,26.60,-1.00,-1.0,2445
835,2135835,17340,-12,1144,17377.70,26.65,-1.00,-1.0,2381
838,2135838,16840,340,1400,16901.52,26.60,-1.00,-1.0,2443
840,2135840,17112,1752,1488,17265.69,26.55,-1.00,-1.0,2373
843,2135843,16668,1576,1264,16789.99,26.60,-1.00,-1.0,2446
846,2135846,16968,-16,708,16982.77,26.55,-1.00,-1.0,2370
851,2135851,16652,516,1216,16704.31,26.65,-1.00,-1.0,2444
853,2135853,16996,1216,1764,17130.51,26.65,-1.00,-1.0,2370
856,2135856,17052,-120,1644,17131.49,26.46,-1.00,-1.0,2431
859,2135859,17260,-980,1616,17363.16,26.65,-1.00,-1.0,2371
862,2135862,17220,-272,1620,17298.17,26.65,-1.00,-1.0,2436
864,2135864,17408,648,1844,17517.38,26.55,-1.00,-1.0,2370
867,2135867,17200,-140,1808,17295.33,26.55,-1.00,-1.0,2359
870,2135870,16936,-716,1680,17034.18,26.55,-1.00,-1.0,2429
873,2135873,16828,396,1548,16903.69,26.65,-1.00,-1.0,2370
878,2135878,16740,1768,1120,16870.32,26.65,-1.00,-1.0,2444
880,2135880,16696,1120,1064,16767.32,26.55,-1.00,-1.0,2370
883,2135883,16708,-16,944,16734.65,26.60,-1.00,-1.0,2433
886,2135886,17048,-148,1044,17080.58,26.65,-1.00,-1.0,2371
889,2135889,17084,96,1172,17124.42,26.60,-1.00,-1.0,2437
891,2135891,17024,208,1476,17089.13,26.65,-1.00,-1.0,2370
894,2135894,17196,228,1716,17282.91,26.60,-1.00,-1.0,2430
897,2135897,17104,120,1924,17212.29,26.55,-1.00,-1.0,2370
900,2135900,17152,-136,1860,17253.09,26.55,-1.00,-1.0,2364
905,2135905,16836,-144,1828,16935.56,26.55,-1.00,-1.0,2424
908,2135908,16920,80,1668,17002.21,26.55,-1.00,-1.0,2371
910,2135910,16924,548,1392,16989.99,26.65,-1.00,-1.0,2430
913,2135913,17020,1400,1504,17143.58,26.60,-1.00,-1.0,2370
916,2135916,16944,1340,1248,17042.66,26.65,-1.00,-1.0,2430
919,2135919,16928,632,1208,16982.81,26.65,-1.00,-1.0,2372
921,2135921,16792,-424,1160,16837.36,26.55,-1.00,-1.0,2429
924,2135924,16944,-400,1268,16996.09,26.60,-1.00,-1.0,2358
929,2135929,17036,152,1628,17114.29,26.60,-1.00,-1.0,2453
932,2135932,17148,-112,1524,17215.95,26.60,-1.00,-1.0,2378
934,2135934,17176,92,1364,17230.32,26.65,-1.00,-1.0,2363
937,2135937,17152,716,1600,17241.34,26.65,-1.00,-1.0,2428
940,2135940,17064,196,1548,17135.19,26.55,-1.00,-1.0,2371
943,2135943,16944,-360,1380,17003.92,26.46,-1.00,-1.0,2438
945,2135945,16908,-436,1252,16959.90,26.65,-1.00,-1.0,2378
948,2135948,17056,1068,1388,17145.68,26.55,-1.00,-1.0,2429
951,2135951,16968,1520,1616,17112.42,26.60,-1.00,-1.0,2379
956,2135956,16964,-356,1452,17029.75,26.60,-1.00,-1.0,2437
959,2135959,17004,-252,1364,17060.48,26.60,-1.00,-1.0,2377
962,2135962,17180,308,1448,17243.66,26.60,-1.00,-1.0,2430
964,2135964,17200,348,1512,17269.84,26.60,-1.00,-1.0,2371
967,2135967,17188,184,1400,17245.90,26.69,-1.00,-1.0,2367
970,2135970,16996,108,1412,17054.89,26.65,-1.00,-1.0,2442
972,2135972,16940,568,1544,17019.70,26.60,-1.00,-1.0,2373
975,2135975,16976,776,1540,17063.36,26.55,-1.00,-1.0,2426
978,2135978,16956,580,1384,17022.27,26.51,-1.00,-1.0,2385
983,2135983,17032,-56,1224,17076.02,26.60,-1.00,-1.0,2438
986,2135986,16944,140,1260,16991.36,26.60,-1.00,-1.0,2374
989,2135989,17040,588,1276,17097.82,26.55,-1.00,-1.0,2431
991,2135991,17140,736,1356,17209.30,26.60,-1.00,-1.0,2371
994,2135994,16992,120,1212,17035.59,26.60,-1.00,-1.0,2438
997,2135997,16932,-192,1084,16967.75,26.60,-1.00,-1.0,2378
999,2135999,16832,132,1244,16878.42,26.74,-1.00,-1.0,2369
1002,2136002,16828,244,1436,16890.92,26.55,-1.00,-1.0,2436
1005,2136005,16856,-96,1656,16937.42,26.65,-1.00,-1.0,2381
1010,2136010,17072,328,1800,17169.76,26.55,-1.00,-1.0,2453
1013,2136013,17188,876,1788,17302.94,26.65,-1.00,-1.0,2377
1016,2136016,17224,648,1860,17336.25,26.65,-1.00,-1.0,2444
1018,2136018,17216,44,1656,17295.52,26.65,-1.00,-1.0,2380
1021,2136021,17164,-100,1444,17224.92,26.55,-1.00,-1.0,2440
1024,2136024,17040,400,1376,17100.14,26.65,-1.00,-1.0,2372
1027,2136027,16876,624,1344,16940.93,26.60,-1.00,-1.0,2444
1029,2136029,16716,288,1224,16763.23,26.65,-1.00,-1.0,2380
1034,2136034,16776,-108,1128,16814.23,26.55,-1.00,-1.0,2438
1037,2136037,16968,560,1452,17039.22,26.60,-1.00,-1.0,2370
1040,2136040,17096,856,1320,17168.24,26.55,-1.00,-1.0,2362
1042,2136042,17144,524,1392,17208.40,26.69,-1.00,-1.0,2417
1045,2136045,17116,-248,1488,17182.35,26.55,-1.00,-1.0,2385
1048,2136048,17092,-476,1516,17165.70,26.60,-1.00,-1.0,2434
1051,2136051,17180,56,1460,17242.02,26.65,-1.00,-1.0,2377
1053,2136053,16992,552,1672,17082.98,26.69,-1.00,-1.0,2437
1056,2136056,17000,520,1596,17082.67,26.60,-1.00,-1.0,2371
1061,2136061,17044,320,1388,17103.42,26.69,-1.00,-1.0,2436
1064,2136064,16932,404,1304,16986.94,26.69,-1.00,-1.0,2370
1066,2136066,17008,604,1300,17068.30,26.65,-1.00,-1.0,2430
1069,2136069,17008,560,1092,17052.22,26.60,-1.00,-1.0,2371
1072,2136072,16992,-132,1140,17030.71,26.60,-1.00,-1.0,2429
1075,2136075,16992,-476,1160,17038.20,26.69,-1.00,-1.0,2370
1077,2136077,16996,-104,1260,17042.96,26.55,-1.00,-1.0,2361
1080,2136080,17120,540,1524,17196.18,26.55,-1.00,-1.0,2430
1083,2136083,17036,252,1464,17100.65,26.60,-1.00,-1.0,2371
1088,2136088,17080,72,1312,17130.47,26.60,-1.00,-1.0,2424
1091,2136091,17116,436,1624,17198.40,26.69,-1.00,-1.0,2370
1093,2136093,17012,580,1408,17080.02,26.65,-1.00,-1.0,2430
1096,2136096,16968,236,1508,17036.51,26.60,-1.00,-1.0,2371
1099,2136099,16964,392,1492,17034.00,26.60,-1.00,-1.0,2415
1102,2136102,17036,836,1524,17124.45,26.60,-1.00,-1.0,2371
1104,2136104,16948,996,1548,17047.67,26.60,-1.00,-1.0,2430
1107,2136107,17044,208,1564,17116.87,26.65,-1.00,-1.0,2371
1112,2136112,17096,60,1440,17156.64,26.55,-1.00,-1.0,2437
1115,2136115,17184,748,1632,17277.52,26.60,-1.00,-1.0,2373
1117,2136117,17096,600,1432,17166.36,26.65,-1.00,-1.0,2360
1120,2136120,17076,320,1324,17130.24,26.55,-1.00,-1.0,2431
1123,2136123,17028,340,1428,17091.15,26.60,-1.00,-1.0,2371
1126,2136126,16988,556,1512,17064.21,26.65,-1.00,-1.0,2436
1128,2136128,16828,636,1468,16903.88,26.55,-1.00,-1.0,2370
1131,2136131,16760,440,1544,16836.72,26.65,-1.00,-1.0,2432
1134,2136134,16952,328,1532,17024.24,26.65,-1.00,-1.0,2371
1139,2136139,17080,460,1512,17152.96,26.55,-1.00,-1.0,2424
1142,2136142,17196,228,1364,17251.52,26.69,-1.00,-1.0,2372
1145,2136145,17152,-88,1416,17210.58,26.65,-1.00,-1.0,2436
1147,2136147,17156,-176,1360,17210.72,26.65,-1.00,-1.0,2373
1150,2136150,17060,-48,1524,17128.00,26.65,-1.00,-1.0,2417
1153,2136153,16944,252,1504,17012.48,26.60,-1.00,-1.0,2371
1155,2136155,17052,152,1444,17113.71,26.55,-1.00,-1.0,2360
1158,2136158,16888,420,1460,16956.20,26.60,-1.00,-1.0,2433
1161,2136161,16936,644,1448,17009.98,26.55,-1.00,-1.0,2372
1166,2136166,16996,328,1532,17068.06,26.65,-1.00,-1.0,2437
1169,2136169,16972,12,1540,17041.73,26.55,-1.00,-1.0,2370
1172,2136172,16984,376,1504,17054.61,26.55,-1.00,-1.0,2417
1175,2136175,17132,572,1532,17209.87,26.60,-1.00,-1.0,2371
1177,2136177,17124,480,1536,17199.45,26.55,-1.00,-1.0,2429
1180,2136180,17096,184,1368,17151.63,26.69,-1.00,-1.0,2372
1183,2136183,16960,8,1488,17025.15,26.46,-1.00,-1.0,2429
1186,2136186,16988,60,1308,17038.39,26.60,-1.00,-1.0,2374
1191,2136191,16888,20,1416,16947.27,26.60,-1.00,-1.0,2437
1193,2136193,16848,108,1252,16894.80,26.60,-1.00,-1.0,2372
1196,2136196,16976,400,1320,17031.94,26.69,-1.00,-1.0,2360
1199,2136199,17024,528,1428,17091.94,26.55,-1.00,-1.0,2441
1201,2136201,17124,532,1396,17189.04,26.65,-1.00,-1.0,2381
1204,2136204,17020,348,1348,17076.84,26.55,-1.00,-1.0,2430
1207,2136207,16848,288,1276,16898.71,26.60,-1.00,-1.0,2358
1210,2136210,16968,304,1340,17023.54,26.55,-1.00,-1.0,2442
1212,2136212,16964,540,1320,17023.85,26.51,-1.00,-1.0,2380
1217,2136217,17076,396,1336,17132.76,26.60,-1.00,-1.0,2437
1220,2136220,17024,-20,1360,17078.25,26.60,-1.00,-1.0,2370
1223,2136223,16960,-36,1260,17006.78,26.60,-1.00,-1.0,2436
1225,2136225,17120,52,1276,17167.56,26.60,-1.00,-1.0,2371
1228,2136228,17008,80,1300,17057.80,26.65,-1.00,-1.0,2375
1231,2136231,17028,96,1352,17081.86,26.65,-1.00,-1.0,2435
1234,2136234,17004,204,1452,17067.10,26.55,-1.00,-1.0,2381
1236,2136236,16940,220,1660,17022.56,26.55,-1.00,-1.0,2438
1239,2136239,16984,504,1536,17060.76,26.65,-1.00,-1.0,2381
1244,2136244,16992,332,1424,17054.80,26.51,-1.00,-1.0,2438
1247,2136247,17024,424,1428,17089.05,26.60,-1.00,-1.0,2370
1250,2136250,17024,456,1400,17087.55,26.60,-1.00,-1.0,2436
1252,2136252,17080,512,1544,17157.29,26.60,-1.00,-1.0,2372
1255,2136255,17104,576,1492,17178.61,26.55,-1.00,-1.0,2438
1258,2136258,16924,328,1508,16994.22,26.60,-1.00,-1.0,2370
1261,2136261,16900,184,1344,16954.36,26.60,-1.00,-1.0,2436
1263,2136263,17020,184,1364,17075.56,26.60,-1.00,-1.0,2371
1266,2136266,17044,196,1456,17107.20,26.46,-1.00,-1.0,2370
1271,2136271,17028,24,1260,17074.57,26.60,-1.00,-1.0,2436
1274,2136274,17072,212,1328,17124.89,26.65,-1.00,-1.0,2372
1277,2136277,17048,528,1356,17109.99,26.60,-1.00,-1.0,2436
1279,2136279,16984,584,1356,17048.05,26.55,-1.00,-1.0,2368
1282,2136282,16952,444,1304,17007.88,26.51,-1.00,-1.0,2430
1285,2136285,16944,456,1568,17022.51,26.65,-1.00,-1.0,2370
1288,2136288,16976,464,1532,17051.30,26.60,-1.00,-1.0,2429
1290,2136290,17088,384,1596,17166.67,26.65,-1.00,-1.0,2378
1295,2136295,16952,192,1612,17029.55,26.69,-1.00,-1.0,2437
1298,2136298,17036,52,1484,17100.59,26.60,-1.00,-1.0,2371
1301,2136301,17104,136,1412,17162.72,26.60,-1.00,-1.0,2427
1303,2136303,17060,200,1592,17135.29,26.60,-1.00,-1.0,2378
1306,2136306,16952,104,1452,17014.39,26.51,-1.00,-1.0,2359
1309,2136309,16972,208,1312,17023.91,26.60,-1.00,-1.0,2435
1311,2136311,17040,200,1392,17097.93,26.60,-1.00,-1.0,2371
1314,2136314,16936,332,1156,16978.65,26.51,-1.00,-1.0,2429
1317,2136317,16840,228,1364,16896.69,26.60,-1.00,-1.0,2375
1322,2136322,17004,352,1388,17064.19,26.60,-1.00,-1.0,2440
1325,2136325,17108,428,1520,17180.72,26.65,-1.00,-1.0,2379
1328,2136328,17208,320,1644,17289.31,26.51,-1.00,-1.0,2429
1331,2136331,17068,220,1656,17149.56,26.55,-1.00,-1.0,2377
1333,2136333,17104,280,1676,17188.20,26.60,-1.00,-1.0,2416
1336,2136336,16964,336,1696,17051.88,26.65,-1.00,-1.0,2386
1339,2136339,16908,312,1744,17000.57,26.51,-1.00,-1.0,2429
1342,2136342,16976,288,1576,17051.43,26.55,-1.00,-1.0,2379
1344,2136344,17064,320,1452,17128.65,26.60,-1.00,-1.0,2361
1349,2136349,16928,352,1288,16980.58,26.51,-1.00,-1.0,2445
1352,2136352,16928,428,1180,16974.47,26.60,-1.00,-1.0,2380
1355,2136355,17088,260,1308,17139.96,26.60,-1.00,-1.0,2428
1358,2136358,17060,416,1308,17115.12,26.60,-1.00,-1.0,2377
1360,2136360,16984,356,1332,17039.87,26.65,-1.00,-1.0,2461
1363,2136363,17028,220,1348,17082.69,26.65,-1.00,-1.0,2367
1366,2136366,17044,196,1396,17102.20,26.55,-1.00,-1.0,2444
1369,2136369,17048,232,1520,17117.20,26.55,-1.00,-1.0,2371
1374,2136374,17084,344,1684,17170.24,26.60,-1.00,-1.0,2453
1376,2136376,17100,412,1696,17188.84,26.55,-1.00,-1.0,2365
1379,2136379,17056,496,1600,17138.06,26.55,-1.00,-1.0,2440
1382,2136382,16904,416,1528,16978.02,26.55,-1.00,-1.0,2364
1384,2136384,16996,244,1496,17063.46,26.55,-1.00,-1.0,2360
1387,2136387,16956,72,1512,17023.43,26.60,-1.00,-1.0,2456
1390,2136390,16948,220,1428,17009.48,26.55,-1.00,-1.0,2364
1393,2136393,16992,232,1452,17055.50,26.69,-1.00,-1.0,2442
1395,2136395,16928,308,1428,16990.92,26.65,-1.00,-1.0,2364
1400,2136400,17060,408,1428,17124.52,26.55,-1.00,-1.0,2447
1403,2136403,17008,524,1488,17081.01,26.55,-1.00,-1.0,2364
1406,2136406,16988,444,1280,17041.94,26.65,-1.00,-1.0,2436
1409,2136409,17020,360,1512,17090.82,26.60,-1.00,-1.0,2362
1411,2136411,17000,352,1428,17063.50,26.74,-1.00,-1.0,2425
1414,2136414,17064,396,1352,17122.06,26.55,-1.00,-1.0,2365
1417,2136417,16960,272,1468,17025.59,26.65,-1.00,-1.0,2368
1420,2136420,17052,176,1308,17103.00,26.60,-1.00,-1.0,2437
1422,2136422,16972,184,1376,17028.68,26.65,-1.00,-1.0,2368
1427,2136427,17008,204,1400,17066.74,26.65,-1.00,-1.0,2433
1430,2136430,17052,296,1340,17107.13,26.55,-1.00,-1.0,2363
1433,2136433,17076,356,1436,17139.97,26.65,-1.00,-1.0,2437
1436,2136436,17408,324,2748,17626.54,26.60,-1.00,-1.0,2364
1438,2136438,27316,2856,-5348,27980.74,26.65,-1.00,-1.0,2436
1441,2136441,-13104,2484,-15536,20475.65,26.55,-1.00,-1.0,2364
1444,2136444,27532,-1544,13952,30903.94,26.65,-1.00,-1.0,2437
1447,2136447,12164,18504,32767,39547.91,26.60,-1.00,-1.0,2363
1452,2136452,25240,-32768,-14852,43947.48,26.60,-1.00,-1.0,2448
1454,2136454,10496,9260,13440,19404.82,26.65,-1.00,-1.0,2363
1457,2136457,8980,24256,-3312,26076.11,26.60,-1.00,-1.0,2439
1460,2136460,16872,3524,-11660,20809.58,26.65,-1.00,-1.0,2364
1463,2136463,14600,-4700,-3432,15717.14,26.60,-1.00,-1.0,2446
1465,2136465,17884,8752,2236,20035.83,26.65,-1.00,-1.0,2350
1468,2136468,9748,15152,3420,18338.57,26.60,-1.00,-1.0,2438
1471,2136471,25800,-488,7888,26983.30,26.65,-1.00,-1.0,2364
1474,2136474,15224,-7112,8692,18918.29,26.51,-1.00,-1.0,2366
1478,2136478,18948,1060,1536,19039.69,26.65,-1.00,-1.0,2455
1481,2136481,19128,6888,3648,20655.09,26.55,-1.00,-1.0,2372
1484,2136484,13372,1284,1436,13510.04,26.46,-1.00,-1.0,2436
1487,2136487,22692,-344,-2428,22824.12,26.60,-1.00,-1.0,2360
1489,2136489,11664,-5356,-1928,12978.94,26.74,-1.00,-1.0,2441
1492,2136492,18376,-2036,-1184,18526.32,26.65,-1.00,-1.0,2372
1495,2136495,11360,-3272,196,11823.45,26.65,-1.00,-1.0,2439
1498,2136498,23112,7544,-844,24326.71,26.60,-1.00,-1.0,2371
1502,2136502,22488,-640,1032,22520.76,26.55,-1.00,-1.0,2450
1505,2136505,17660,-8228,-2780,19680.04,26.65,-1.00,-1.0,2367
1508,2136508,16384,-344,1552,16460.94,26.55,-1.00,-1.0,2438
1511,2136511,16824,8944,2380,19201.73,26.60,-1.00,-1.0,2370
1513,2136513,19260,-3348,2500,19708.04,26.65,-1.00,-1.0,2440
1516,2136516,16548,-9016,-1004,18871.47,26.55,-1.00,-1.0,2372
1519,2136519,19596,840,-1204,19650.91,26.55,-1.00,-1.0,2439
1522,2136522,13868,7044,3480,15938.94,26.60,-1.00,-1.0,2365
1527,2136527,15584,-4656,-72,16264.83,26.60,-1.00,-1.0,2449
1529,2136529,18328,-5600,-560,19172.62,26.65,-1.00,-1.0,2376
1532,2136532,17772,2256,1820,18006.83,26.65,-1.00,-1.0,2361
1535,2136535,16640,1176,2160,16820.77,26.60,-1.00,-1.0,2436
1537,2136537,15624,2044,2012,15885.07,26.55,-1.00,-1.0,2366
1540,2136540,15260,2796,2040,15647.58,26.60,-1.00,-1.0,2437
1543,2136543,18064,3740,1408,18500.76,26.65,-1.00,-1.0,2366
1546,2136546,17504,1376,948,17583.57,26.60,-1.00,-1.0,2432
1549,2136549,16824,-3352,812,17173.88,26.55,-1.00,-1.0,2363
1554,2136554,18932,-1000,1020,18985.81,26.65,-1.00,-1.0,2448
1556,2136556,16008,3300,2128,16482.55,26.55,-1.00,-1.0,2372
1559,2136559,17484,2148,1828,17710.05,26.60,-1.00,-1.0,2438
1562,2136562,16340,-1556,2480,16600.21,26.55,-1.00,-1.0,2364
1565,2136565,18016,-1308,-544,18071.61,26.60,-1.00,-1.0,2446
1567,2136567,17460,1080,160,17494.10,26.65,-1.00,-1.0,2372
1570,2136570,17224,544,2188,17370.94,26.60,-1.00,-1.0,2437
1573,2136573,17192,-2972,760,17463.54,26.65,-1.00,-1.0,2364
1596,2136596,16276,-3592,2104,16799.92,26.60,-1.00,-1.0,2447
1599,2136599,17884,-6192,396,18929.74,26.60,-1.00,-1.0,2366
1601,2136601,17980,5152,1364,18753.24,26.65,-1.00,-1.0,2364
1604,2136604,18164,6332,1648,19306.50,26.55,-1.00,-1.0,2438
1607,2136607,16760,-4388,436,17330.38,26.60,-1.00,-1.0,2371
1610,2136610,15552,-6528,976,16894.73,26.55,-1.00,-1.0,2437
1612,2136612,17448,5084,1544,18239.07,26.51,-1.00,-1.0,2363
1615,2136615,16692,9496,2832,19411.78,26.65,-1.00,-1.0,2437
1618,2136618,18052,2292,640,18208.17,26.51,-1.00,-1.0,2364
1627,2136627,17428,1584,1232,17543.15,26.55,-1.00,-1.0,2445
1630,2136630,17184,1576,2400,17422.22,26.55,-1.00,-1.0,2365
1633,2136633,16796,-816,2644,17022.40,26.65,-1.00,-1.0,2437
1635,2136635,17368,-2032,768,17503.32,26.65,-1.00,-1.0,2364
1638,2136638,17368,-1352,1532,17487.78,26.55,-1.00,-1.0,2437
1641,2136641,16728,1912,2308,16994.37,26.65,-1.00,-1.0,2370
1644,2136644,16908,2076,1600,17109.95,26.55,-1.00,-1.0,2438
1646,2136646,17640,-260,536,17650.06,26.55,-1.00,-1.0,2368
1649,2136649,16848,-1212,1036,16923.28,26.55,-1.00,-1.0,2368
1654,2136654,16932,72,856,16953.78,26.65,-1.00,-1.0,2453
1656,2136656,17260,2944,1280,17556.00,26.60,-1.00,-1.0,2364
1659,2136659,16844,3408,2264,17333.80,26.65,-1.00,-1.0,2440
1662,2136662,16692,244,1608,16771.05,26.55,-1.00,-1.0,2363
1665,2136665,17232,-4340,8,17770.13,26.65,-1.00,-1.0,2444
1667,2136667,16496,-792,1776,16610.22,26.60,-1.00,-1.0,2364
1670,2136670,17196,4212,2620,17897.14,26.65,-1.00,-1.0,2439
1673,2136673,17228,3496,1656,17656.96,26.55,-1.00,-1.0,2364
1678,2136678,16868,-3076,1452,17207.54,26.69,-1.00,-1.0,2447
1681,2136681,17076,-124,1780,17168.97,26.60,-1.00,-1.0,2364
1683,2136683,17292,3112,1624,17644.69,26.60,-1.00,-1.0,2436
1686,2136686,16724,1324,1128,16814.21,26.60,-1.00,-1.0,2351
1689,2136689,17368,-2780,1316,17638.24,26.51,-1.00,-1.0,2440
1692,2136692,16848,-28,1512,16915.73,26.69,-1.00,-1.0,2362
1694,2136694,17428,3040,1564,17760.15,26.65,-1.00,-1.0,2361
1697,2136697,17044,1552,1884,17217.90,26.65,-1.00,-1.0,2436
1700,2136700,16868,-1980,1084,17018.37,26.60,-1.00,-1.0,2363
1704,2136704,17036,1980,984,17178.88,26.65,-1.00,-1.0,2461
1707,2136707,16944,3608,1608,17398.35,26.65,-1.00,-1.0,2363
1710,2136710,17384,2324,1592,17610.76,26.51,-1.00,-1.0,2437
1713,2136713,16532,-92,1888,16639.71,26.65,-1.00,-1.0,2372
1716,2136716,17056,-668,1268,17116.11,26.60,-1.00,-1.0,2437
1718,2136718,17060,108,1868,17162.30,26.55,-1.00,-1.0,2364
1721,2136721,17116,320,1552,17189.20,26.60,-1.00,-1.0,2438
1724,2136724,17060,-604,1180,17111.42,26.55,-1.00,-1.0,2365
1729,2136729,17224,-344,1616,17303.06,26.65,-1.00,-1.0,2453
1731,2136731,17168,728,1976,17296.67,26.65,-1.00,-1.0,2364
1734,2136734,16804,72,1276,16852.53,26.51,-1.00,-1.0,2439
1737,2136737,16540,-1072,1236,16620.72,26.55,-1.00,-1.0,2365
1739,2136739,16556,-1384,1164,16654.47,26.60,-1.00,-1.0,2361
1742,2136742,16844,884,1312,16918.13,26.60,-1.00,-1.0,2446
1745,2136745,16776,2080,1624,16982.28,26.60,-1.00,-1.0,2365
1748,2136748,17384,1456,1592,17517.36,26.60,-1.00,-1.0,2444
1750,2136750,17084,900,1808,17202.96,26.60,-1.00,-1.0,2363
1755,2136755,17060,268,1552,17132.54,26.65,-1.00,-1.0,2447
1758,2136758,16848,-248,1588,16924.49,26.65,-1.00,-1.0,2364
1761,2136761,17008,-208,1392,17066.14,26.55,-1.00,-1.0,2440
1764,2136764,17032,448,832,17058.19,26.55,-1.00,-1.0,2362
1766,2136766,16900,56,900,16924.04,26.55,-1.00,-1.0,2438
1769,2136769,16876,-680,1440,16950.97,26.65,-1.00,-1.0,2364
1772,2136772,16692,-496,1436,16761.00,26.55,-1.00,-1.0,2436
1775,2136775,17032,-352,1312,17086.08,26.65,-1.00,-1.0,2362
1780,2136780,17220,828,1500,17305.03,26.65,-1.00,-1.0,2449
1782,2136782,17148,916,1648,17251.34,26.60,-1.00,-1.0,2372
1785,2136785,17344,304,1444,17406.66,26.55,-1.00,-1.0,2361
1788,2136788,17164,-136,1448,17225.51,26.55,-1.00,-1.0,2434
1790,2136790,17092,1056,1616,17200.67,26.65,-1.00,-1.0,2366
1793,2136793,16876,1672,1536,17028.04,26.55,-1.00,-1.0,2437
1796,2136796,16740,868,1172,16803.41,26.46,-1.00,-1.0,2366
1799,2136799,16968,-532,748,16992.81,26.65,-1.00,-1.0,2430
1801,2136801,16764,392,1220,16812.90,26.55,-1.00,-1.0,2371
1806,2136806,17068,180,1796,17163.18,26.60,-1.00,-1.0,2453
1809,2136809,17116,-816,1616,17211.47,26.65,-1.00,-1.0,2370
1812,2136812,17148,-468,1660,17234.52,26.65,-1.00,-1.0,2439
1815,2136815,17388,728,1668,17482.98,26.60,-1.00,-1.0,2367
1817,2136817,17288,224,1700,17372.83,26.55,-1.00,-1.0,2449
1820,2136820,16992,-508,1792,17093.78,26.65,-1.00,-1.0,2372
1823,2136823,16812,-472,1800,16914.67,26.55,-1.00,-1.0,2362
1825,2136825,16812,1172,1680,16936.33,26.60,-1.00,-1.0,2437
1828,2136828,16852,1780,1384,17002.17,26.65,-1.00,-1.0,2354
1833,2136833,16764,112,1244,16810.47,26.55,-1.00,-1.0,2460
1836,2136836,16844,-208,1076,16879.61,26.55,-1.00,-1.0,2371
1839,2136839,17104,-76,1208,17146.77,26.55,-1.00,-1.0,2450
1841,2136841,17096,172,1448,17158.07,26.60,-1.00,-1.0,2367
1844,2136844,17296,352,1572,17370.86,26.55,-1.00,-1.0,2450
1847,2136847,17148,440,1576,17225.89,26.55,-1.00,-1.0,2371
1850,2136850,17132,368,1620,17212.36,26.65,-1.00,-1.0,2450
1852,2136852,16956,96,1816,17053.24,26.65,-1.00,-1.0,2373
1857,2136857,16712,88,1592,16787.89,26.60,-1.00,-1.0,2449
1860,2136860,16912,432,1468,16981.09,26.55,-1.00,-1.0,2364
1863,2136863,17032,928,1252,17103.15,26.65,-1.00,-1.0,2362
1865,2136865,17008,1560,1316,17130.02,26.60,-1.00,-1.0,2441
1868,2136868,16900,1048,1300,16982.29,26.65,-1.00,-1.0,2379
1871,2136871,16844,220,1268,16893.09,26.60,-1.00,-1.0,2438
1874,2136874,16804,-664,1252,16863.65,26.55,-1.00,-1.0,2370
1876,2136876,16964,-252,1420,17025.19,26.69,-1.00,-1.0,2445
1879,2136879,17004,168,1684,17088.01,26.55,-1.00,-1.0,2379
1884,2136884,17180,36,1412,17237.96,26.55,-1.00,-1.0,2462
1887,2136887,17244,516,1544,17320.67,26.65,-1.00,-1.0,2371
1890,2136890,17184,824,1416,17261.92,26.55,-1.00,-1.0,2448
1892,2136892,16768,-152,1416,16828.37,26.55,-1.00,-1.0,2368
1895,2136895,16896,-696,1404,16968.51,26.60,-1.00,-1.0,2452
1898,2136898,16844,-72,1420,16903.90,26.65,-1.00,-1.0,2371
1901,2136901,16988,1464,1364,17105.44,26.60,-1.00,-1.0,2450
1903,2136903,16900,1168,1572,17013.10,26.65,-1.00,-1.0,2366
1906,2136906,16892,160,1624,16970.64,26.51,-1.00,-1.0,2362
1911,2136911,17112,-412,1420,17175.76,26.60,-1.00,-1.0,2446
1913,2136913,17304,280,1508,17371.84,26.60,-1.00,-1.0,2364
1916,2136916,17304,124,1416,17362.28,26.60,-1.00,-1.0,2424
1919,2136919,17116,4,1488,17180.56,26.69,-1.00,-1.0,2367
1922,2136922,16872,344,1616,16952.70,26.60,-1.00,-1.0,2437
1924,2136924,16960,644,1668,17053.99,26.69,-1.00,-1.0,2366
1927,2136927,16816,808,1568,16908.26,26.60,-1.00,-1.0,2437
1930,2136930,16936,584,1296,16995.55,26.69,-1.00,-1.0,2365
1935,2136935,16976,-76,1136,17014.14,26.69,-1.00,-1.0,2448
1937,2136937,16976,304,1300,17028.42,26.60,-1.00,-1.0,2372
1940,2136940,17104,844,1340,17177.16,26.69,-1.00,-1.0,2437
1943,2136943,17124,880,1216,17189.66,26.60,-1.00,-1.0,2365
1945,2136945,16964,96,1156,17003.61,26.65,-1.00,-1.0,2361
1948,2136948,16984,-116,1180,17025.34,26.65,-1.00,-1.0,2436
1951,2136951,16820,132,1148,16859.65,26.60,-1.00,-1.0,2365
1954,2136954,16852,184,1316,16904.31,26.65,-1.00,-1.0,2444
1956,2136956,16784,-40,1784,16878.59,26.51,-1.00,-1.0,2363
1961,2136961,17048,540,1648,17135.98,26.60,-1.00,-1.0,2450
1964,2136964,17268,1112,1804,17397.55,26.60,-1.00,-1.0,2368
1967,2136967,17232,924,1724,17342.66,26.60,-1.00,-1.0,2439
1970,2136970,17208,80,1712,17293.14,26.69,-1.00,-1.0,2364
1972,2136972,17148,-128,1408,17206.18,26.51,-1.00,-1.0,2439
1975,2136975,17048,600,1336,17110.79,26.60,-1.00,-1.0,2372
1978,2136978,16820,760,1276,16885.44,26.60,-1.00,-1.0,2440
1981,2136981,16736,364,1304,16790.67,26.60,-1.00,-1.0,2361
1983,2136983,16688,-224,1104,16725.98,26.69,-1.00,-1.0,2360
1988,2136988,16956,504,1256,17009.92,26.60,-1.00,-1.0,2452
1991,2136991,17056,820,1460,17138.00,26.60,-1.00,-1.0,2364
1994,2136994,17164,496,1348,17224.00,26.65,-1.00,-1.0,2447
1996,2136996,17068,-268,1488,17134.84,26.60,-1.00,-1.0,2370
1999,2136999,17064,-384,1424,17127.62,26.60,-1.00,-1.0,2438
2002,2137002,17096,-48,1292,17144.82,26.60,-1.00,-1.0,2364
2005,2137005,16968,688,1700,17066.82,26.65,-1.00,-1.0,2448
2007,2137007,16992,640,1628,17081.80,26.60,-1.00,-1.0,2370
2012,2137012,16972,292,1220,17018.30,26.60,-1.00,-1.0,2460
2015,2137015,16996,480,1412,17061.31,26.60,-1.00,-1.0,2370
2018,2137018,16972,716,1392,17044.04,26.60,-1.00,-1.0,2441
2021,2137021,16976,552,1344,17038.06,26.69,-1.00,-1.0,2361
2023,2137023,16912,-148,1164,16952.66,26.69,-1.00,-1.0,2361
2026,2137026,16984,-496,1236,17036.14,26.74,-1.00,-1.0,2438
2029,2137029,16976,24,1356,17030.09,26.69,-1.00,-1.0,2367
2031,2137031,17020,688,1568,17105.92,26.65,-1.00,-1.0,2441
2034,2137034,17080,548,1512,17155.55,26.60,-1.00,-1.0,2378
2039,2137039,17088,-100,1508,17154.70,26.60,-1.00,-1.0,2447
2042,2137042,16996,380,1308,17050.49,26.60,-1.00,-1.0,2366
2045,2137045,17020,720,1648,17114.75,26.60,-1.00,-1.0,2438
2047,2137047,16956,264,1544,17028.20,26.60,-1.00,-1.0,2365
2050,2137050,17020,356,1520,17091.45,26.60,-1.00,-1.0,2439
2053,2137053,16992,692,1784,17099.40,26.60,-1.00,-1.0,2370
2056,2137056,16892,908,1696,17001.19,26.69,-1.00,-1.0,2437
2058,2137058,17068,60,1536,17137.08,26.69,-1.00,-1.0,2363
2061,2137061,17068,-316,1496,17136.35,26.60,-1.00,-1.0,2366
2066,2137066,17156,480,1608,17237.88,26.60,-1.00,-1.0,2454
2068,2137068,17084,644,1624,17173.09,26.60,-1.00,-1.0,2363
2071,2137071,17056,252,1516,17125.10,26.60,-1.00,-1.0,2442
2074,2137074,17024,228,1308,17075.70,26.60,-1.00,-1.0,2363
2077,2137077,16880,548,1424,16948.82,26.60,-1.00,-1.0,2446
2079,2137079,16904,652,1348,16970.19,26.60,-1.00,-1.0,2363
2082,2137082,16768,496,1440,16837.03,26.60,-1.00,-1.0,2440
2085,2137085,16816,344,1368,16875.06,26.60,-1.00,-1.0,2362
2090,2137090,17000,640,1508,17078.75,26.65,-1.00,-1.0,2447
2093,2137093,17124,436,1396,17186.34,26.65,-1.00,-1.0,2364
2095,2137095,17108,-4,1496,17173.29,26.55,-1.00,-1.0,2438
2098,2137098,17212,-272,1440,17274.27,26.65,-1.00,-1.0,2351
2101,2137101,17008,-88,1380,17064.12,26.55,-1.00,-1.0,2360
2103,2137103,17120,184,1624,17197.84,26.51,-1.00,-1.0,2439
2106,2137106,16996,220,1592,17071.81,26.65,-1.00,-1.0,2364
2109,2137109,16952,308,1504,17021.38,26.60,-1.00,-1.0,2438
2112,2137112,16964,528,1512,17039.43,26.69,-1.00,-1.0,2427
2117,2137117,17068,524,1560,17147.15,26.60,-1.00,-1.0,2443
2119,2137119,16980,60,1460,17042.76,26.74,-1.00,-1.0,2367
2122,2137122,16992,152,1516,17060.17,26.60,-1.00,-1.0,2437
2125,2137125,17072,648,1632,17162.07,26.55,-1.00,-1.0,2364
2128,2137128,17112,704,1588,17199.94,26.60,-1.00,-1.0,2436
2130,2137130,17132,412,1484,17201.09,26.65,-1.00,-1.0,2367
2133,2137133,17140,72,1504,17206.01,26.60,-1.00,-1.0,2437
2136,2137136,16960,32,1448,17021.73,26.65,-1.00,-1.0,2365
2138,2137138,16844,20,1564,16916.47,26.60,-1.00,-1.0,2359
2143,2137143,16920,28,1348,16973.63,26.60,-1.00,-1.0,2449
2146,2137146,16956,264,1352,17011.87,26.60,-1.00,-1.0,2365
2149,2137149,17068,508,1248,17121.10,26.69,-1.00,-1.0,2441
2151,2137151,17112,600,1648,17201.64,26.69,-1.00,-1.0,2364
2154,2137154,16992,320,1524,17063.21,26.51,-1.00,-1.0,2436
2157,2137157,16912,48,1520,16980.24,26.51,-1.00,-1.0,2367
2160,2137160,16956,96,1572,17028.98,26.69,-1.00,-1.0,2433
2162,2137162,17016,436,1520,17089.32,26.51,-1.00,-1.0,2366
2167,2137167,16976,540,1532,17053.54,26.69,-1.00,-1.0,2453
2170,2137170,17060,112,1272,17107.72,26.65,-1.00,-1.0,2379
2173,2137173,17044,-96,1392,17101.02,26.60,-1.00,-1.0,2361
2175,2137175,17016,0,1276,17063.78,26.60,-1.00,-1.0,2435
2178,2137178,17044,232,1332,17097.54,26.60,-1.00,-1.0,2365
2181,2137181,17052,160,1364,17107.21,26.60,-1.00,-1.0,2435
2184,2137184,16984,48,1344,17037.16,26.69,-1.00,-1.0,2367
2186,2137186,16968,204,1532,17038.24,26.69,-1.00,-1.0,2436
2189,2137189,16936,324,1488,17004.33,26.60,-1.00,-1.0,2367
2194,2137194,17080,340,1400,17140.65,26.60,-1.00,-1.0,2458
2197,2137197,17032,196,1644,17112.28,26.55,-1.00,-1.0,2372
2200,2137200,17036,280,1644,17117.43,26.69,-1.00,-1.0,2449
2202,2137202,17128,464,1696,17218.02,26.60,-1.00,-1.0,2376
2205,2137205,17124,608,1560,17205.66,26.69,-1.00,-1.0,2443
2208,2137208,16996,364,1352,17053.57,26.60,-1.00,-1.0,2369
2210,2137210,16980,360,1488,17048.88,26.60,-1.00,-1.0,2363
2213,2137213,16972,268,1444,17035.43,26.65,-1.00,-1.0,2465
2216,2137216,17036,232,1404,17095.33,26.74,-1.00,-1.0,2373
2221,2137221,16956,272,1224,17002.30,26.55,-1.00,-1.0,2447
2224,2137224,17000,180,1232,17045.53,26.65,-1.00,-1.0,2369
2227,2137227,16964,432,1228,17013.87,26.55,-1.00,-1.0,2439
2229,2137229,17044,640,1448,17117.37,26.55,-1.00,-1.0,2363
2232,2137232,17004,520,1576,17084.79,26.65,-1.00,-1.0,2438
2235,2137235,16996,576,1528,17074.27,26.65,-1.00,-1.0,2369
2238,2137238,16984,476,1532,17059.60,26.74,-1.00,-1.0,2439
2240,2137240,17124,532,1548,17202.05,26.65,-1.00,-1.0,2362
2243,2137243,17024,404,1480,17092.99,26.65,-1.00,-1.0,2367
2248,2137248,17100,112,1496,17165.68,26.55,-1.00,-1.0,2453
2250,2137250,17048,184,1412,17107.36,26.65,-1.00,-1.0,2350
2253,2137253,17044,184,1500,17110.87,26.65,-1.00,-1.0,2442
2256,2137256,16944,284,1416,17005.44,26.55,-1.00,-1.0,2362
2259,2137259,17008,324,1372,17066.32,26.74,-1.00,-1.0,2445
2261,2137261,17016,312,1304,17068.74,26.55,-1.00,-1.0,2363
2264,2137264,16956,184,1068,16990.60,26.65,-1.00,-1.0,2441
2267,2137267,16900,336,1360,16957.96,26.60,-1.00,-1.0,2362
2272,2137272,16964,372,1428,17028.06,26.60,-1.00,-1.0,2447
2275,2137275,16996,396,1456,17062.85,26.69,-1.00,-1.0,2363
2277,2137277,17048,332,1492,17116.38,26.74,-1.00,-1.0,2438
2280,2137280,17092,176,1672,17174.49,26.60,-1.00,-1.0,2362
2283,2137283,17040,132,1560,17111.77,26.65,-1.00,-1.0,2359
2285,2137285,17064,100,1536,17133.28,26.65,-1.00,-1.0,2438
2288,2137288,17068,244,1588,17143.45,26.65,-1.00,-1.0,2362
2291,2137291,16988,120,1416,17047.33,26.65,-1.00,-1.0,2438
2294,2137294,17084,256,1288,17134.40,26.65,-1.00,-1.0,2362
2299,2137299,16976,320,1392,17035.98,26.65,-1.00,-1.0,2448
2301,2137301,17060,284,1308,17112.43,26.65,-1.00,-1.0,2365
2304,2137304,17060,356,1348,17116.88,26.55,-1.00,-1.0,2440
2307,2137307,16884,384,1376,16944.33,26.69,-1.00,-1.0,2424
2310,2137310,16996,332,1384,17055.49,26.60,-1.00,-1.0,2435
2313,2137313,16972,268,1564,17046.02,26.69,-1.00,-1.0,2379
2315,2137315,16948,168,1304,16998.92,26.65,-1.00,-1.0,2433
2318,2137318,16972,56,1484,17036.85,26.60,-1.00,-1.0,2386
2321,2137321,17040,160,1596,17115.33,26.65,-1.00,-1.0,2360
2325,2137325,17060,256,1720,17148.40,26.69,-1.00,-1.0,2444
2328,2137328,16968,380,1664,17053.63,26.65,-1.00,-1.0,2352
2331,2137331,17048,332,1588,17125.02,26.69,-1.00,-1.0,2436
2334,2137334,17012,256,1572,17086.39,26.55,-1.00,-1.0,2365
2336,2137336,17028,36,1520,17095.74,26.60,-1.00,-1.0,2423
2339,2137339,16880,-16,1372,16935.67,26.65,-1.00,-1.0,2365
2342,2137342,16880,-4,1548,16950.83,26.55,-1.00,-1.0,2435
2345,2137345,16964,212,1492,17030.80,26.65,-1.00,-1.0,2364
2349,2137349,17016,380,1516,17087.62,26.55,-1.00,-1.0,2444
2352,2137352,17040,388,1480,17108.55,26.51,-1.00,-1.0,2423
2355,2137355,17152,508,1500,17224.96,26.55,-1.00,-1.0,2442
2358,2137358,17032,328,1596,17109.76,26.60,-1.00,-1.0,2358
2360,2137360,17136,456,1376,17197.20,26.55,-1.00,-1.0,2362
2363,2137363,16924,388,1512,16995.84,26.60,-1.00,-1.0,2431
2366,2137366,16940,340,1460,17006.20,26.55,-1.00,-1.0,2372
2369,2137369,17072,380,1320,17127.17,26.65,-1.00,-1.0,2431
2371,2137371,16956,368,1416,17019.00,26.55,-1.00,-1.0,2373
2376,2137376,25304,832,-12324,28157.87,26.55,-1.00,-1.0,2449
2379,2137379,13020,-4788,-5836,15050.06,26.65,-1.00,-1.0,2372
2382,2137382,17264,8576,-11484,22438.27,26.55,-1.00,-1.0,2440
2385,2137385,7588,9884,-16324,20536.41,26.65,-1.00,-1.0,2361
2387,2137387,15052,-22196,5904,27460.56,26.65,-1.00,-1.0,2423
2390,2137390,23216,-19044,-2652,30144.48,26.55,-1.00,-1.0,2380
2393,2137393,5152,17268,7336,19456.20,26.55,-1.00,-1.0,2437
2396,2137396,30620,6088,-972,31234.48,26.55,-1.00,-1.0,2374
2401,2137401,26596,-4140,-752,26926.79,26.65,-1.00,-1.0,2441
2403,2137403,15220,7944,1756,17258.02,26.60,-1.00,-1.0,2367
2406,2137406,19188,12288,-8684,24384.14,26.65,-1.00,-1.0,2453
2409,2137409,9204,1624,-1376,9446.92,26.60,-1.00,-1.0,2373
2411,2137411,18808,-3644,8920,21132.58,26.55,-1.00,-1.0,2367
2414,2137414,14612,-7276,2376,16495.34,26.60,-1.00,-1.0,2436
2417,2137417,21176,4360,3828,21956.46,26.65,-1.00,-1.0,2367
2420,2137420,15824,4016,4828,17024.59,26.60,-1.00,-1.0,2445
2422,2137422,13764,-224,2488,13988.85,26.55,-1.00,-1.0,2372
2427,2137427,12328,-4572,-536,13159.41,26.55,-1.00,-1.0,2450
2430,2137430,18624,-2116,1568,18809.29,26.55,-1.00,-1.0,2365
2433,2137433,16324,-3608,1732,16807.45,26.55,-1.00,-1.0,2443
2435,2137435,18560,10148,672,21163.82,26.55,-1.00,-1.0,2364
2438,2137438,11728,9640,3932,15682.35,26.55,-1.00,-1.0,2448
2441,2137441,21280,-3952,-1404,21689.35,26.65,-1.00,-1.0,2366
2444,2137444,12724,-3152,2804,13405.14,26.74,-1.00,-1.0,2444
2446,2137446,20212,7604,2496,21738.81,26.65,-1.00,-1.0,2364
2451,2137451,19372,-1396,2168,19542.86,26.60,-1.00,-1.0,2429
2454,2137454,13604,-7280,760,15448.13,26.60,-1.00,-1.0,2365
2457,2137457,21892,4048,1136,22292.07,26.69,-1.00,-1.0,2439
2460,2137460,13412,4868,2448,14476.60,26.60,-1.00,-1.0,2364
2462,2137462,19676,-492,2548,19846.39,26.60,-1.00,-1.0,2437
2465,2137465,14732,-6012,776,15930.42,26.60,-1.00,-1.0,2365
2468,2137468,20044,-1916,8,20135.37,26.60,-1.00,-1.0,2369
2471,2137471,12944,2552,2044,13350.57,26.55,-1.00,-1.0,2436
2473,2137473,20804,-1868,1864,20970.70,26.65,-1.00,-1.0,2365
2478,2137478,19472,1320,2172,19637.18,26.60,-1.00,-1.0,2440
2481,2137481,14628,3984,1504,15235.24,26.60,-1.00,-1.0,2366
2484,2137484,19600,-764,232,19616.26,26.60,-1.00,-1.0,2437
2486,2137486,16920,-2376,624,17097.40,26.69,-1.00,-1.0,2352
2489,2137489,16820,96,728,16836.02,26.69,-1.00,-1.0,2436
2492,2137492,16056,1292,680,16122.25,26.69,-1.00,-1.0,2367
2495,2137495,17632,2356,1724,17872.05,26.60,-1.00,-1.0,2432
2497,2137497,16104,-404,2012,16234.23,26.60,-1.00,-1.0,2372
2502,2137502,17960,-384,284,17966.35,26.69,-1.00,-1.0,2450
2505,2137505,17492,1144,940,17554.55,26.65,-1.00,-1.0,2371
2508,2137508,16468,-1516,2180,16680.70,26.51,-1.00,-1.0,2361
2510,2137510,17180,-3444,696,17535.62,26.60,-1.00,-1.0,2440
2513,2137513,16672,-780,820,16710.37,26.69,-1.00,-1.0,2368
2516,2137516,17912,5416,2504,18879.69,26.60,-1.00,-1.0,2435
2519,2137519,16328,4752,2992,17266.65,26.60,-1.00,-1.0,2367
2521,2137521,15512,-1104,1052,15586.78,26.60,-1.00,-1.0,2436
2524,2137524,17336,-5480,684,18194.37,26.60,-1.00,-1.0,2367
2531,2137531,15960,3544,2420,16526.88,26.60,-1.00,-1.0,2439
2534,2137534,17900,-5768,852,18825.67,26.60,-1.00,-1.0,2365
2536,2137536,16724,-2424,596,16909.26,26.55,-1.00,-1.0,2440
2539,2137539,17660,4456,1544,18278.83,26.60,-1.00,-1.0,2368
2542,2137542,16824,3216,1568,17200.24,26.65,-1.00,-1.0,2435
2545,2137545,17132,-6204,416,18225.48,26.60,-1.00,-1.0,2366
2547,2137547,15288,-3528,1196,15735.32,26.55,-1.00,-1.0,2436
2550,2137550,17440,3756,1636,17914.73,26.69,-1.00,-1.0,2368
2555,2137555,17744,2044,1008,17889.76,26.65,-1.00,-1.0,2439
2558,2137558,17096,-3476,888,17468.38,26.60,-1.00,-1.0,2366
2560,2137560,15644,-1828,1600,15831.50,26.65,-1.00,-1.0,2359
2563,2137563,17864,1268,1528,17974.01,26.55,-1.00,-1.0,2440
2566,2137566,16716,2712,1660,17015.73,26.55,-1.00,-1.0,2366
2568,2137568,17504,528,2904,17751.11,26.65,-1.00,-1.0,2435
2571,2137571,16720,-976,1732,16837.78,26.65,-1.00,-1.0,2365
2574,2137574,17100,-1848,876,17221.86,26.65,-1.00,-1.0,2436
2577,2137577,16992,628,2148,17138.74,26.69,-1.00,-1.0,2366
2582,2137582,17400,1360,1088,17486.95,26.69,-1.00,-1.0,2443
2584,2137584,17472,-608,784,17500.15,26.60,-1.00,-1.0,2372
2587,2137587,16532,-1876,1084,16673.38,26.65,-1.00,-1.0,2439
2590,2137590,16848,-620,1044,16891.70,26.65,-1.00,-1.0,2421
2593,2137593,17224,2172,1236,17404.35,26.65,-1.00,-1.0,2439
2596,2137596,17152,3320,2020,17586.75,26.60,-1.00,-1.0,2375
2598,2137598,17056,-272,1932,17167.23,26.65,-1.00,-1.0,2434
2601,2137601,17144,-3144,924,17454.38,26.60,-1.00,-1.0,2386
2604,2137604,16900,-1560,1364,17026.57,26.60,-1.00,-1.0,2361
2609,2137609,17128,4100,2120,17739.02,26.69,-1.00,-1.0,2444
2611,2137611,16872,1552,1512,17010.56,26.60,-1.00,-1.0,2375
2614,2137614,16816,-2516,1444,17064.38,26.65,-1.00,-1.0,2446
2617,2137617,16712,-1000,1796,16837.95,26.60,-1.00,-1.0,2352
2620,2137620,17548,2656,1544,17814.90,26.60,-1.00,-1.0,2449
2622,2137622,16820,2084,1220,16992.46,26.69,-1.00,-1.0,2375
2625,2137625,17280,-2312,700,17448.03,26.65,-1.00,-1.0,2443
2628,2137628,16936,-2012,1436,17115.44,26.51,-1.00,-1.0,2366
2633,2137633,17200,2108,1624,17404.63,26.60,-1.00,-1.0,2447
2635,2137635,16932,-1408,1112,17026.79,26.69,-1.00,-1.0,2368
2638,2137638,16872,-2236,768,17036.84,26.55,-1.00,-1.0,2454
2641,2137641,16876,908,956,16927.43,26.69,-1.00,-1.0,2364
2644,2137644,16880,3348,1332,17260.29,26.65,-1.00,-1.0,2443
2646,2137646,17360,1828,1280,17502.85,26.69,-1.00,-1.0,2365
2649,2137649,16556,68,1604,16633.66,26.65,-1.00,-1.0,2450
2652,2137652,16756,-8,1492,16822.30,26.60,-1.00,-1.0,2364
2655,2137655,16996,436,1500,17067.63,26.69,-1.00,-1.0,2362
2660,2137660,17052,-416,1312,17107.46,26.60,-1.00,-1.0,2441
2662,2137662,17156,-1044,1156,17226.57,26.60,-1.00,-1.0,2365
2665,2137665,17408,-660,1452,17480.91,26.60,-1.00,-1.0,2439
2668,2137668,17080,252,1996,17198.08,26.69,-1.00,-1.0,2372
2671,2137671,17220,92,1552,17290.04,26.60,-1.00,-1.0,2436
2673,2137673,16640,-864,1320,16714.62,26.69,-1.00,-1.0,2366
2676,2137676,16724,-1624,1268,16850.44,26.60,-1.00,-1.0,2436
2679,2137679,16940,252,1212,16985.17,26.60,-1.00,-1.0,2365
2684,2137684,17024,1368,1404,17136.49,26.69,-1.00,-1.0,2441
2686,2137686,17168,640,1704,17264.22,26.65,-1.00,-1.0,2367
2689,2137689,16944,1072,1460,17040.54,26.60,-1.00,-1.0,2440
2692,2137692,17188,1216,1460,17292.70,26.60,-1.00,-1.0,2365
2695,2137695,17012,380,1392,17073.08,26.69,-1.00,-1.0,2444
2697,2137697,16976,8,1568,17048.26,26.69,-1.00,-1.0,2368
2700,2137700,16848,224,1384,16906.23,26.60,-1.00,-1.0,2361
2703,2137703,17136,512,1204,17185.87,26.69,-1.00,-1.0,2437
2705,2137705,17116,-308,1668,17199.84,26.60,-1.00,-1.0,2365
2710,2137710,16868,-524,1524,16944.81,26.60,-1.00,-1.0,2441
2713,2137713,17124,-308,1448,17187.87,26.69,-1.00,-1.0,2366
2716,2137716,17168,612,1496,17243.92,26.60,-1.00,-1.0,2425
2719,2137719,17212,816,1520,17298.24,26.65,-1.00,-1.0,2367
2721,2137721,17180,192,1180,17221.55,26.51,-1.00,-1.0,2436
2724,2137724,17124,-164,1072,17158.31,26.65,-1.00,-1.0,2354
2727,2137727,16904,732,1452,16982.03,26.60,-1.00,-1.0,2436
2730,2137730,16984,1788,1504,17143.96,26.65,-1.00,-1.0,2367
2734,2137734,16896,48,580,16906.02,26.69,-1.00,-1.0,2444
2737,2137737,16684,-156,780,16702.95,26.55,-1.00,-1.0,2353
2740,2137740,16748,892,1524,16840.84,26.51,-1.00,-1.0,2361
2742,2137742,16880,644,1868,16995.25,26.69,-1.00,-1.0,2439
2745,2137745,17036,-360,2048,17162.44,26.60,-1.00,-1.0,2365
2748,2137748,17168,-880,1684,17272.82,26.60,-1.00,-1.0,2438
2751,2137751,17288,100,1864,17388.49,26.60,-1.00,-1.0,2364
2753,2137753,17448,368,1600,17525.07,26.60,-1.00,-1.0,2437
2756,2137756,17332,-108,1724,17417.87,26.60,-1.00,-1.0,2365
2761,2137761,16852,-48,1684,16936.00,26.69,-1.00,-1.0,2439
2764,2137764,16760,1264,1396,16865.47,26.69,-1.00,-1.0,2364
2766,2137766,16820,1736,1000,16938.89,26.69,-1.00,-1.0,2440
2769,2137769,16656,1172,948,16724.07,26.60,-1.00,-1.0,2365
2772,2137772,16756,184,860,16779.06,26.69,-1.00,-1.0,2422
2775,2137775,16944,-76,928,16969.56,26.60,-1.00,-1.0,2366
2777,2137777,17124,56,1216,17167.21,26.60,-1.00,-1.0,2359
2780,2137780,17152,216,1480,17217.09,26.74,-1.00,-1.0,2436
2783,2137783,17244,256,1692,17328.70,26.60,-1.00,-1.0,2365
2788,2137788,17228,-48,1684,17310.17,26.60,-1.00,-1.0,2442
2790,2137790,16960,-180,1820,17058.32,26.60,-1.00,-1.0,2372
2793,2137793,16940,-200,1692,17025.46,26.60,-1.00,-1.0,2440
2796,2137796,16792,40,1828,16891.25,26.69,-1.00,-1.0,2352
2799,2137799,16868,588,1380,16934.57,26.69,-1.00,-1.0,2445
2801,2137801,16992,1392,1348,17102.13,26.60,-1.00,-1.0,2375
2804,2137804,16964,1572,1332,17088.67,26.60,-1.00,-1.0,2436
2807,2137807,16880,756,1188,16938.63,26.60,-1.00,-1.0,2367
2812,2137812,16884,-240,1164,16925.78,26.60,-1.00,-1.0,2449
2815,2137815,16868,156,1408,16927.38,26.55,-1.00,-1.0,2364
2817,2137817,17028,276,1572,17102.63,26.51,-1.00,-1.0,2362
2820,2137820,17036,-124,1428,17096.19,26.65,-1.00,-1.0,2440
2823,2137823,17220,48,1584,17292.77,26.60,-1.00,-1.0,2368
2825,2137825,17212,680,1600,17299.58,26.69,-1.00,-1.0,2436
2828,2137828,17108,424,1512,17179.92,26.69,-1.00,-1.0,2366
2831,2137831,16808,-584,1408,16876.98,26.55,-1.00,-1.0,2437
2834,2137834,16904,-480,1172,16951.38,26.60,-1.00,-1.0,2368
2839,2137839,16960,1444,1488,17086.28,26.60,-1.00,-1.0,2446
2841,2137841,16984,856,1584,17079.17,26.60,-1.00,-1.0,2370
2844,2137844,16912,-64,1544,16982.46,26.60,-1.00,-1.0,2435
2847,2137847,17012,-340,1440,17076.22,26.69,-1.00,-1.0,2373
2850,2137850,17096,288,1424,17157.62,26.69,-1.00,-1.0,2443
2852,2137852,17096,424,1664,17182.02,26.60,-1.00,-1.0,2367
2855,2137855,17136,204,1416,17195.62,26.69,-1.00,-1.0,2347
2858,2137858,17064,32,1624,17141.13,26.65,-1.00,-1.0,2446
2860,2137860,16892,360,1668,16977.97,26.60,-1.00,-1.0,2374
2865,2137865,16904,636,1556,16987.37,26.69,-1.00,-1.0,2448
2868,2137868,16800,376,1416,16863.76,26.60,-1.00,-1.0,2364
2871,2137871,16964,-16,1316,17014.98,26.60,-1.00,-1.0,2443
2873,2137873,17136,-76,1212,17178.98,26.60,-1.00,-1.0,2365
2876,2137876,17068,708,1324,17133.91,26.60,-1.00,-1.0,2447
2879,2137879,17184,900,1128,17244.48,26.60,-1.00,-1.0,2365
2882,2137882,17032,516,1152,17078.71,26.60,-1.00,-1.0,2444
2884,2137884,16944,92,1212,16987.54,26.60,-1.00,-1.0,2365
2889,2137889,16884,368,1376,16943.97,26.55,-1.00,-1.0,2440
2892,2137892,16780,120,1516,16848.77,26.65,-1.00,-1.0,2364
2895,2137895,16800,-176,1504,16868.11,26.60,-1.00,-1.0,2366
2898,2137898,16964,-100,1772,17056.59,26.60,-1.00,-1.0,2440
2900,2137900,17156,544,1844,17263.39,26.60,-1.00,-1.0,2367
2903,2137903,17260,816,1808,17373.61,26.60,-1.00,-1.0,2443
2906,2137906,17236,168,1684,17318.88,26.60,-1.00,-1.0,2372
2909,2137909,17188,-188,1520,17256.10,26.69,-1.00,-1.0,2437
2911,2137911,17148,256,1496,17215.04,26.69,-1.00,-1.0,2366
2916,2137916,16764,644,1240,16822.13,26.60,-1.00,-1.0,2440
2919,2137919,16836,232,1120,16874.81,26.65,-1.00,-1.0,2364
2922,2137922,16748,28,1096,16783.85,26.60,-1.00,-1.0,2446
2924,2137924,16836,476,1152,16882.08,26.65,-1.00,-1.0,2365
2927,2137927,17068,864,1124,17126.78,26.60,-1.00,-1.0,2437
2930,2137930,17168,684,1352,17234.73,26.55,-1.00,-1.0,2364
2932,2137932,17128,-224,1360,17183.37,26.60,-1.00,-1.0,2360
2935,2137935,17112,-528,1360,17174.08,26.60,-1.00,-1.0,2437
2938,2137938,17092,-256,1428,17153.46,26.60,-1.00,-1.0,2365
2943,2137943,17124,556,1612,17208.69,26.69,-1.00,-1.0,2442
2945,2137945,16988,404,1408,17051.04,26.60,-1.00,-1.0,2364
2948,2137948,17032,200,1376,17088.66,26.60,-1.00,-1.0,2442
2951,2137951,17072,392,1408,17134.45,26.69,-1.00,-1.0,2365
2954,2137954,16984,828,1452,17066.05,26.60,-1.00,-1.0,2438
2956,2137956,16932,796,1376,17006.46,26.60,-1.00,-1.0,2364
2959,2137959,16940,272,1236,16987.21,26.60,-1.00,-1.0,2439
2962,2137962,17040,-180,1276,17088.66,26.60,-1.00,-1.0,2369
2967,2137967,17072,180,1460,17135.26,26.60,-1.00,-1.0,2447
2969,2137969,17164,564,1576,17245.43,26.69,-1.00,-1.0,2364
2972,2137972,17028,72,1688,17111.61,26.69,-1.00,-1.0,2440
2975,2137975,17064,-136,1440,17125.19,26.60,-1.00,-1.0,2365
2977,2137977,16996,24,1484,17060.68,26.60,-1.00,-1.0,2361
2980,2137980,17096,496,1516,17170.25,26.60,-1.00,-1.0,2439
2983,2137983,17024,216,1640,17104.18,26.69,-1.00,-1.0,2365
2986,2137986,16992,164,1420,17052.02,26.65,-1.00,-1.0,2442
2988,2137988,16876,640,1544,16958.56,26.51,-1.00,-1.0,2363
2993,2137993,17012,688,1536,17095.05,26.69,-1.00,-1.0,2441
2996,2137996,17000,172,1536,17070.12,26.60,-1.00,-1.0,2365
2999,2137999,16968,-140,1620,17045.73,26.60,-1.00,-1.0,2439
3002,2138002,17104,500,1340,17163.70,26.60,-1.00,-1.0,2364
3004,2138004,17256,772,1600,17347.21,26.60,-1.00,-1.0,2437
3007,2138007,17200,300,1452,17263.79,26.60,-1.00,-1.0,2367
3010,2138010,17108,288,1316,17160.96,26.60,-1.00,-1.0,2361
3012,2138012,17088,316,1420,17149.81,26.55,-1.00,-1.0,2434
3015,2138015,16880,548,1332,16941.34,26.69,-1.00,-1.0,2365
3020,2138020,16780,308,1440,16844.49,26.69,-1.00,-1.0,2440
3023,2138023,16920,356,1460,16986.61,26.69,-1.00,-1.0,2351
3026,2138026,16940,508,1548,17018.17,26.60,-1.00,-1.0,2449
3028,2138028,17020,472,1460,17089.03,26.69,-1.00,-1.0,2372
3031,2138031,17124,176,1488,17189.43,26.60,-1.00,-1.0,2437
3034,2138034,17120,-40,1392,17176.54,26.60,-1.00,-1.0,2364
3037,2138037,17052,-84,1488,17117.01,26.60,-1.00,-1.0,2447
3039,2138039,17064,216,1416,17124.01,26.60,-1.00,-1.0,2373
3044,2138044,16956,96,1436,17016.97,26.65,-1.00,-1.0,2451
3047,2138047,16868,376,1432,16932.85,26.65,-1.00,-1.0,2372
3050,2138050,16984,568,1376,17049.11,26.60,-1.00,-1.0,2361
3052,2138052,16852,616,1500,16929.84,26.60,-1.00,-1.0,2441
3055,2138055,16940,176,1372,16996.38,26.69,-1.00,-1.0,2359
3058,2138058,16960,172,1444,17022.23,26.60,-1.00,-1.0,2438
3061,2138061,17084,276,1460,17148.49,26.60,-1.00,-1.0,2368
3063,2138063,17104,580,1460,17176.00,26.60,-1.00,-1.0,2440
3066,2138066,17088,400,1488,17157.33,26.60,-1.00,-1.0,2373
3071,2138071,16972,48,1392,17029.06,26.69,-1.00,-1.0,2455
3074,2138074,16984,-4,1552,17054.76,26.55,-1.00,-1.0,2374
3077,2138077,16940,-156,1544,17010.93,26.69,-1.00,-1.0,2451
3079,2138079,16904,-192,1592,16979.89,26.74,-1.00,-1.0,2368
3082,2138082,16948,104,1400,17006.04,26.60,-1.00,-1.0,2449
3085,2138085,17080,240,1268,17128.68,26.65,-1.00,-1.0,2370
3087,2138087,17080,364,1432,17143.79,26.60,-1.00,-1.0,2368
3090,2138090,17036,492,1284,17091.40,26.60,-1.00,-1.0,2436
3093,2138093,17004,260,1368,17060.92,26.69,-1.00,-1.0,2353
3098,2138098,16992,384,1480,17060.65,26.60,-1.00,-1.0,2449
3101,2138101,16892,484,1436,16959.84,26.55,-1.00,-1.0,2364
3103,2138103,17036,568,1504,17111.69,26.69,-1.00,-1.0,2449
3106,2138106,17176,356,1524,17247.15,26.60,-1.00,-1.0,2373
3109,2138109,17112,4,1496,17177.27,26.69,-1.00,-1.0,2438
3112,2138112,17156,64,1428,17215.45,26.60,-1.00,-1.0,2365
3114,2138114,17012,144,1308,17062.82,26.51,-1.00,-1.0,2446
3117,2138117,17076,252,1464,17140.50,26.69,-1.00,-1.0,2366
3122,2138122,17060,140,1568,17132.48,26.65,-1.00,-1.0,2440
3125,2138125,16956,292,1448,17020.22,26.65,-1.00,-1.0,2364
3127,2138127,17004,464,1580,17083.55,26.60,-1.00,-1.0,2362
3130,2138130,17048,536,1636,17134.71,26.60,-1.00,-1.0,2454
3133,2138133,17020,500,1344,17080.30,26.60,-1.00,-1.0,2372
3136,2138136,17096,448,1456,17163.74,26.69,-1.00,-1.0,2447
3138,2138138,16976,556,1524,17053.34,26.60,-1.00,-1.0,2369
3141,2138141,17108,620,1352,17172.54,26.60,-1.00,-1.0,2450
3144,2138144,17012,676,1676,17107.72,26.60,-1.00,-1.0,2373
3149,2138149,16904,344,1592,16982.29,26.69,-1.00,-1.0,2445
3151,2138151,17016,332,1444,17080.39,26.69,-1.00,-1.0,2373
3154,2138154,17008,228,1440,17070.37,26.60,-1.00,-1.0,2447
3157,2138157,17056,244,1396,17114.77,26.60,-1.00,-1.0,2353
3160,2138160,16976,144,1168,17016.74,26.55,-1.00,-1.0,2448
3162,2138162,17084,300,1112,17122.78,26.60,-1.00,-1.0,2376
3165,2138165,17056,488,1236,17107.69,26.65,-1.00,-1.0,2359
3168,2138168,16936,568,1316,16996.55,26.65,-1.00,-1.0,2433
3170,2138170,17008,532,1356,17070.26,26.55,-1.00,-1.0,2355
3175,2138175,16976,544,1420,17043.97,26.55,-1.00,-1.0,2439
3178,2138178,17080,556,1476,17152.67,26.65,-1.00,-1.0,2368
3181,2138181,17032,504,1544,17109.27,26.65,-1.00,-1.0,2439
3183,2138183,17060,244,1584,17135.12,26.55,-1.00,-1.0,2368
3186,2138186,17108,-12,1480,17171.90,26.74,-1.00,-1.0,2437
3189,2138189,17236,104,1572,17307.85,26.55,-1.00,-1.0,2367
3192,2138192,17076,124,1356,17130.20,26.65,-1.00,-1.0,2429
3194,2138194,17004,220,1420,17064.61,26.65,-1.00,-1.0,2372
3199,2138199,16964,172,1200,17007.26,26.55,-1.00,-1.0,2449
3202,2138202,16852,172,1260,16899.91,26.69,-1.00,-1.0,2381
3205,2138205,16956,184,1100,16992.64,26.55,-1.00,-1.0,2359
3207,2138207,16980,364,1400,17041.51,26.60,-1.00,-1.0,2440
3210,2138210,17008,400,1344,17065.71,26.65,-1.00,-1.0,2365
3213,2138213,16964,364,1384,17024.25,26.60,-1.00,-1.0,2435
3216,2138216,16988,368,1640,17070.95,26.65,-1.00,-1.0,2366
3218,2138218,16928,204,1580,17002.80,26.65,-1.00,-1.0,2436
3221,2138221,17092,140,1616,17168.79,26.65,-1.00,-1.0,2367
3226,2138226,17108,280,1556,17180.90,26.65,-1.00,-1.0,2449
3229,2138229,17028,308,1628,17108.42,26.55,-1.00,-1.0,2373
3232,2138232,17108,304,1372,17165.62,26.65,-1.00,-1.0,2450
3234,2138234,17100,400,1528,17172.79,26.65,-1.00,-1.0,2376
3237,2138237,16920,188,1460,16983.91,26.65,-1.00,-1.0,2360
3240,2138240,16940,212,1300,16991.13,26.60,-1.00,-1.0,2432
3242,2138242,17040,224,1276,17089.18,26.65,-1.00,-1.0,2352
3245,2138245,16968,384,1288,17021.15,26.69,-1.00,-1.0,2436
3248,2138248,16944,272,1292,16995.36,26.65,-1.00,-1.0,2367
3253,2138253,16992,84,1384,17048.48,26.55,-1.00,-1.0,2448
3256,2138256,16988,176,1392,17045.84,26.65,-1.00,-1.0,2373
3258,2138258,17132,184,1520,17200.28,26.65,-1.00,-1.0,2447
3261,2138261,17004,244,1464,17068.65,26.65,-1.00,-1.0,2380
3264,2138264,16972,372,1708,17061.78,26.65,-1.00,-1.0,2438
3267,2138267,17028,400,1736,17120.94,26.65,-1.00,-1.0,2371
3269,2138269,17068,300,1544,17140.32,26.65,-1.00,-1.0,2444
3272,2138272,16904,232,1568,16978.15,26.65,-1.00,-1.0,2380
3275,2138275,17016,140,1564,17088.30,26.69,-1.00,-1.0,2361
3280,2138280,16932,172,1616,17009.81,26.55,-1.00,-1.0,2445
3282,2138282,17044,332,1320,17098.26,26.74,-1.00,-1.0,2373
3285,2138285,17080,332,1372,17138.23,26.60,-1.00,-1.0,2440
3288,2138288,16992,516,1420,17059.04,26.65,-1.00,-1.0,2368
3291,2138291,16976,464,1484,17047.06,26.69,-1.00,-1.0,2446
3293,2138293,16992,444,1464,17060.73,26.55,-1.00,-1.0,2377
3296,2138296,16920,528,1440,16989.37,26.60,-1.00,-1.0,2436
3299,2138299,17000,412,1356,17058.97,26.65,-1.00,-1.0,2368
3304,2138304,16976,340,1460,17042.06,26.55,-1.00,-1.0,2449
3306,2138306,17060,340,1528,17131.67,26.65,-1.00,-1.0,2365
3309,2138309,16992,208,1392,17050.19,26.55,-1.00,-1.0,2454
3312,2138312,16952,216,1496,17019.25,26.65,-1.00,-1.0,2364
3315,2138315,17096,160,1404,17154.30,26.55,-1.00,-1.0,2361
3317,2138317,17100,260,1468,17164.87,26.60,-1.00,-1.0,2424
3320,2138320,17004,360,1392,17064.68,26.65,-1.00,-1.0,2380
3323,2138323,17080,448,1444,17146.79,26.60,-1.00,-1.0,2439
3326,2138326,17048,488,1500,17120.82,26.55,-1.00,-1.0,2374
3331,2138331,17028,556,1364,17091.59,26.55,-1.00,-1.0,2441
3333,2138333,17020,480,1508,17093.42,26.55,-1.00,-1.0,2368
3336,2138336,17088,468,1400,17151.64,26.65,-1.00,-1.0,2445
3339,2138339,17068,396,1392,17129.25,26.65,-1.00,-1.0,2367
3342,2138342,16952,328,1412,17013.87,26.65,-1.00,-1.0,2437
3344,2138344,17088,312,1484,17155.15,26.74,-1.00,-1.0,2365
3347,2138347,17024,220,1444,17086.55,26.65,-1.00,-1.0,2435
3350,2138350,17084,192,1364,17139.44,26.55,-1.00,-1.0,2373
3352,2138352,17064,80,1320,17115.17,26.55,-1.00,-1.0,2366
3358,2138358,16988,160,1364,17043.42,26.69,-1.00,-1.0,2457
3361,2138361,16968,84,1436,17028.86,26.69,-1.00,-1.0,2368
3363,2138363,16968,20,1372,17023.39,26.65,-1.00,-1.0,2439
3366,2138366,19348,-320,-976,19375.24,26.69,-1.00,-1.0,2364
3369,2138369,-17200,4764,-3784,18244.30,26.69,-1.00,-1.0,2436
3372,2138372,32767,-10536,21428,40544.33,26.69,-1.00,-1.0,2366
3374,2138374,26284,19592,-2472,32875.61,26.74,-1.00,-1.0,2435
3377,2138377,10016,896,-9660,13944.13,26.60,-1.00,-1.0,2352
3382,2138382,13520,-9956,-4468,17374.56,26.60,-1.00,-1.0,2441
3385,2138385,10296,22548,10412,26885.49,26.60,-1.00,-1.0,2366
3387,2138387,27396,12844,5472,30748.20,26.65,-1.00,-1.0,2438
3390,2138390,7972,-13952,4256,16623.02,26.60,-1.00,-1.0,2364
3393,2138393,21632,-2720,8876,23539.86,26.60,-1.00,-1.0,2436
3396,2138396,14780,18384,760,23600.79,26.60,-1.00,-1.0,2366
3398,2138398,26432,12528,-3688,29482.24,26.65,-1.00,-1.0,2435
3401,2138401,7416,-5684,-3184,9871.31,26.60,-1.00,-1.0,2352
3406,2138406,13460,-3096,364,13816.27,26.60,-1.00,-1.0,2456
3409,2138409,21296,4364,3244,21979.26,26.60,-1.00,-1.0,2372
3411,2138411,15592,1624,8176,17680.35,26.69,-1.00,-1.0,2368
3414,2138414,14232,1440,880,14331.71,26.55,-1.00,-1.0,2439
3417,2138417,19168,-1456,3840,19603.00,26.60,-1.00,-1.0,2353
3420,2138420,17712,-4228,-524,18217.18,26.65,-1.00,-1.0,2445
3422,2138422,15104,-5324,2564,16218.81,26.69,-1.00,-1.0,2373
3425,2138425,20440,-160,1672,20508.89,26.65,-1.00,-1.0,2436
3428,2138428,14628,14804,4112,21214.27,26.60,-1.00,-1.0,2369
3433,2138433,20784,-7712,-3836,22498.10,26.60,-1.00,-1.0,2447
3435,2138435,11180,-4712,3404,12600.90,26.60,-1.00,-1.0,2365
3438,2138438,21796,8368,3000,23539.10,26.60,-1.00,-1.0,2453
3441,2138441,14236,1452,364,14314.49,26.60,-1.00,-1.0,2366
3444,2138444,17520,-8468,-376,19462.75,26.60,-1.00,-1.0,2444
3446,2138446,14296,-4436,3364,15341.78,26.60,-1.00,-1.0,2365
3449,2138449,20048,7272,4564,21809.04,26.60,-1.00,-1.0,2450
3452,2138452,15768,1084,2224,15960.92,26.51,-1.00,-1.0,2365
3457,2138457,15436,-5772,872,16502.92,26.55,-1.00,-1.0,2439
3460,2138460,19624,308,840,19644.38,26.65,-1.00,-1.0,2364
3462,2138462,13316,2792,2596,13851.00,26.51,-1.00,-1.0,2362
3465,2138465,20896,-1036,984,20944.79,26.60,-1.00,-1.0,2440
3468,2138468,13588,2248,1504,13854.58,26.60,-1.00,-1.0,2373
3471,2138471,20644,2380,2236,20900.69,26.69,-1.00,-1.0,2435
3473,2138473,14396,4060,1860,15072.76,26.60,-1.00,-1.0,2365
3476,2138476,20036,-2848,-160,20238.03,26.51,-1.00,-1.0,2435
3479,2138479,12988,-2184,1968,13316.57,26.60,-1.00,-1.0,2366
3484,2138484,14764,2672,1240,15055.00,26.65,-1.00,-1.0,2441
3486,2138486,17048,3016,1896,17416.24,26.55,-1.00,-1.0,2351
3489,2138489,14704,-1496,2828,15048.03,26.55,-1.00,-1.0,2440
3492,2138492,18708,-2020,832,18835.12,26.55,-1.00,-1.0,2366
3495,2138495,17088,1616,104,17164.56,26.65,-1.00,-1.0,2433
3497,2138497,17428,2496,1544,17673.40,26.65,-1.00,-1.0,2372
3500,2138500,16628,-2436,2060,16931.28,26.60,-1.00,-1.0,2436
3503,2138503,17872,-4708,832,18500.43,26.55,-1.00,-1.0,2368
3508,2138508,18604,8104,3112,20529.69,26.60,-1.00,-1.0,2449
3511,2138511,17228,7444,3688,19126.38,26.60,-1.00,-1.0,2369
3513,2138513,15788,-4152,312,16327.81,26.65,-1.00,-1.0,2362
3516,2138516,16512,-6548,780,17780.07,26.69,-1.00,-1.0,2440
3519,2138519,17948,4840,2116,18709.19,26.65,-1.00,-1.0,2368
3521,2138521,18064,7660,2532,19783.70,26.60,-1.00,-1.0,2435
3524,2138524,15640,-1776,2128,15883.71,26.55,-1.00,-1.0,2352
3527,2138527,18372,-7900,-104,19998.78,26.55,-1.00,-1.0,2437
3530,2138530,17868,3624,760,18247.64,26.65,-1.00,-1.0,2369
3535,2138535,15996,-2476,832,16207.86,26.65,-1.00,-1.0,2440
3537,2138537,17640,-7568,468,19200.61,26.60,-1.00,-1.0,2368
3540,2138540,15256,-472,1708,15358.57,26.55,-1.00,-1.0,2456
3543,2138543,17540,7296,2524,19163.87,26.69,-1.00,-1.0,2374
3546,2138546,16944,2956,1068,17233.04,26.65,-1.00,-1.0,2448
3548,2138548,19708,612,148,19718.05,26.65,-1.00,-1.0,2368
3551,2138551,14868,-1744,1888,15088.52,26.55,-1.00,-1.0,2451
3554,2138554,18508,-1488,1188,18605.69,26.60,-1.00,-1.0,2374
3556,2138556,16472,336,1192,16518.49,26.74,-1.00,-1.0,2368
3561,2138561,17124,2112,3276,17562.01,26.60,-1.00,-1.0,2440
3564,2138564,17464,-1852,704,17576.03,26.60,-1.00,-1.0,2366
3567,2138567,16588,-2656,1452,16861.92,26.69,-1.00,-1.0,2442
3569,2138569,16680,708,2184,16837.27,26.60,-1.00,-1.0,2367
3572,2138572,16616,4036,1728,17186.24,26.60,-1.00,-1.0,2423
3575,2138575,18096,732,716,18124.95,26.60,-1.00,-1.0,2367
3578,2138578,16080,-2688,1188,16346.35,26.60,-1.00,-1.0,2434
3580,2138580,16960,-2496,1068,17175.92,26.60,-1.00,-1.0,2373
3585,2138585,17360,3740,1392,17812.77,26.60,-1.00,-1.0,2441
3588,2138588,16492,3936,2568,17148.55,26.69,-1.00,-1.0,2368
3591,2138591,17148,-2464,1076,17357.51,26.60,-1.00,-1.0,2437
3593,2138593,17364,-4900,-172,18042.95,26.69,-1.00,-1.0,2352
3596,2138596,16640,-420,1504,16713.11,26.69,-1.00,-1.0,2437
3599,2138599,16980,4540,2672,17778.40,26.60,-1.00,-1.0,2369
3602,2138602,17192,1868,1044,17324.67,26.60,-1.00,-1.0,2433
3604,2138604,16704,-1780,1084,16833.51,26.69,-1.00,-1.0,2372
3607,2138607,16884,-2636,1448,17149.77,26.60,-1.00,-1.0,2359
3612,2138612,17480,3092,1616,17824.77,26.69,-1.00,-1.0,2441
3615,2138615,16836,-428,1128,16879.17,26.60,-1.00,-1.0,2365
3617,2138617,17176,-3304,1156,17529.05,26.60,-1.00,-1.0,2438
3620,2138620,17008,-1084,1444,17103.57,26.69,-1.00,-1.0,2365
3623,2138623,17464,3216,1728,17841.52,26.69,-1.00,-1.0,2435
3626,2138626,16856,520,1924,16973.42,26.60,-1.00,-1.0,2367
3628,2138628,16832,-2300,1304,17038.39,26.60,-1.00,-1.0,2434
3631,2138631,16816,-1676,680,16912.99,26.69,-1.00,-1.0,2354
3636,2138636,16976,3888,1532,17482.79,26.69,-1.00,-1.0,2456
3639,2138639,17368,1704,1624,17526.79,26.55,-1.00,-1.0,2375
3642,2138642,16528,-344,1648,16613.52,26.60,-1.00,-1.0,2450
3644,2138644,16932,-352,1284,16984.26,26.51,-1.00,-1.0,2375
3647,2138647,16956,552,1716,17051.55,26.60,-1.00,-1.0,2444
3650,2138650,17016,156,1640,17095.56,26.60,-1.00,-1.0,2369
3653,2138653,17140,-1224,1168,17223.30,26.60,-1.00,-1.0,2450
3655,2138655,17408,-1156,1164,17485.13,26.60,-1.00,-1.0,2375
3658,2138658,17108,-72,1612,17183.93,26.69,-1.00,-1.0,2360
3663,2138663,17028,-240,1656,17110.02,26.60,-1.00,-1.0,2441
3666,2138666,16660,-1456,1260,16770.90,26.69,-1.00,-1.0,2376
3668,2138668,16596,-1476,1320,16713.71,26.69,-1.00,-1.0,2440
3671,2138671,16908,480,1276,16962.87,26.60,-1.00,-1.0,2369
3674,2138674,16884,2092,1564,17084.85,26.69,-1.00,-1.0,2435
3677,2138677,17256,1464,1560,17388.11,26.60,-1.00,-1.0,2369
3679,2138679,17008,1060,1828,17138.76,26.69,-1.00,-1.0,2422
3682,2138682,17212,828,1420,17290.31,26.60,-1.00,-1.0,2381
3687,2138687,16904,296,1464,16969.86,26.60,-1.00,-1.0,2456
3690,2138690,16916,484,1548,16993.58,26.51,-1.00,-1.0,2373
3693,2138693,17104,416,1140,17147.00,26.69,-1.00,-1.0,2449
3695,2138695,16992,-216,1024,17024.20,26.60,-1.00,-1.0,2371
3698,2138698,17012,-536,1464,17083.29,26.60,-1.00,-1.0,2445
3701,2138701,16704,-176,1772,16798.65,26.51,-1.00,-1.0,2373
3703,2138703,16876,-208,1696,16962.28,26.60,-1.00,-1.0,2368
3706,2138706,17196,4,1132,17233.22,26.65,-1.00,-1.0,2434
3709,2138709,17312,740,1480,17390.90,26.60,-1.00,-1.0,2354
3714,2138714,17328,544,1212,17378.85,26.60,-1.00,-1.0,2448
3717,2138717,16972,300,1324,17026.21,26.60,-1.00,-1.0,2366
3719,2138719,17000,884,1560,17094.30,26.51,-1.00,-1.0,2447
3722,2138722,16836,1820,1320,16985.46,26.60,-1.00,-1.0,2374
3725,2138725,16740,972,1016,16798.95,26.69,-1.00,-1.0,2437
3728,2138728,16916,12,756,16932.89,26.69,-1.00,-1.0,2366
3730,2138730,16776,324,1212,16822.84,26.60,-1.00,-1.0,2445
3733,2138733,16984,1060,1780,17109.89,26.60,-1.00,-1.0,2374
3738,2138738,17288,-888,1664,17390.58,26.60,-1.00,-1.0,2439
3741,2138741,17304,-384,1724,17393.91,26.55,-1.00,-1.0,2365
3743,2138743,17460,396,1652,17542.45,26.69,-1.00,-1.0,2361
3746,2138746,17432,440,1804,17530.62,26.69,-1.00,-1.0,2454
3749,2138749,17108,-536,1596,17190.64,26.60,-1.00,-1.0,2376
3752,2138752,16748,-400,1580,16827.12,26.60,-1.00,-1.0,2446
3754,2138754,16840,760,1504,16924.10,26.60,-1.00,-1.0,2369
3757,2138757,16832,1936,1100,16978.64,26.65,-1.00,-1.0,2445
3760,2138760,16688,1528,1012,16788.34,26.60,-1.00,-1.0,2374
3765,2138765,16872,-112,888,16895.72,26.51,-1.00,-1.0,2443
3767,2138767,17112,-40,1012,17141.95,26.60,-1.00,-1.0,2369
3770,2138770,17192,-36,1400,17248.95,26.65,-1.00,-1.0,2432
3773,2138773,17184,-64,1612,17259.56,26.60,-1.00,-1.0,2375
3776,2138776,17168,132,1732,17255.65,26.69,-1.00,-1.0,2443
3778,2138778,17180,164,1772,17271.92,26.60,-1.00,-1.0,2368
3781,2138781,17124,-76,1816,17220.19,26.65,-1.00,-1.0,2347
3784,2138784,16796,-216,1920,16906.76,26.65,-1.00,-1.0,2446
3786,2138786,16688,-80,1768,16781.58,26.65,-1.00,-1.0,2377
3791,2138791,17076,680,1276,17137.11,26.65,-1.00,-1.0,2447
3794,2138794,16968,1648,1380,17103.61,26.65,-1.00,-1.0,2365
3797,2138797,16900,1288,1320,17000.33,26.65,-1.00,-1.0,2448
3799,2138799,16824,-188,1368,16880.57,26.55,-1.00,-1.0,2374
3802,2138802,16748,-548,1152,16796.52,26.65,-1.00,-1.0,2435
3805,2138805,17004,-156,1388,17061.27,26.55,-1.00,-1.0,2366
3808,2138808,17016,228,1664,17098.69,26.65,-1.00,-1.0,2445
3810,2138810,17112,-168,1616,17188.96,26.55,-1.00,-1.0,2376
3815,2138815,17244,532,1588,17325.13,26.55,-1.00,-1.0,2440
3818,2138818,17236,920,1664,17340.56,26.60,-1.00,-1.0,2365
3821,2138821,16880,-36,1660,16961.46,26.65,-1.00,-1.0,2449
3823,2138823,16796,-888,1472,16883.75,26.60,-1.00,-1.0,2366
3826,2138826,16876,-460,1248,16928.33,26.65,-1.00,-1.0,2367
3829,2138829,17076,1152,1348,17167.82,26.55,-1.00,-1.0,2435
3832,2138832,16876,1508,1688,17027.12,26.65,-1.00,-1.0,2375
3834,2138834,16940,76,1532,17009.30,26.55,-1.00,-1.0,2425
3837,2138837,16944,-500,1388,17008.11,26.55,-1.00,-1.0,2382
3842,2138842,17212,240,1568,17284.94,26.55,-1.00,-1.0,2440
3845,2138845,17288,516,1680,17377.10,26.60,-1.00,-1.0,2373
3848,2138848,17140,224,1400,17198.54,26.65,-1.00,-1.0,2438
3850,2138850,17060,220,1580,17134.42,26.60,-1.00,-1.0,2369
3853,2138853,16864,420,1584,16943.43,26.55,-1.00,-1.0,2434
3856,2138856,16860,944,1668,16968.59,26.69,-1.00,-1.0,2373
3859,2138859,16872,848,1392,16950.55,26.60,-1.00,-1.0,2436
3861,2138861,16932,384,1268,16983.75,26.60,-1.00,-1.0,2367
3864,2138864,17060,-400,1112,17100.88,26.65,-1.00,-1.0,2368
3869,2138869,17140,936,1236,17209.98,26.55,-1.00,-1.0,2447
3871,2138871,17056,888,1184,17120.09,26.60,-1.00,-1.0,2367
3874,2138874,17068,104,1064,17101.45,26.55,-1.00,-1.0,2440
3877,2138877,16892,-316,1104,16930.99,26.60,-1.00,-1.0,2366
3880,2138880,16932,164,1332,16985.10,26.65,-1.00,-1.0,2437
3882,2138882,16784,508,1360,16846.67,26.69,-1.00,-1.0,2366
3885,2138885,16804,-16,1676,16887.38,26.65,-1.00,-1.0,2436
3888,2138888,16956,-140,1528,17025.29,26.60,-1.00,-1.0,2366
3893,2138893,17252,856,1752,17361.85,26.60,-1.00,-1.0,2441
3896,2138896,17260,760,1816,17371.90,26.60,-1.00,-1.0,2366
3898,2138898,17288,-76,1656,17367.30,26.60,-1.00,-1.0,2438
3901,2138901,17112,-176,1332,17164.67,26.60,-1.00,-1.0,2367
3904,2138904,16948,352,1268,16999.01,26.60,-1.00,-1.0,2360
3906,2138906,16856,644,1384,16924.98,26.69,-1.00,-1.0,2435
3909,2138909,16812,360,1304,16866.34,26.60,-1.00,-1.0,2367
3912,2138912,16596,-136,1136,16635.39,26.65,-1.00,-1.0,2434
3915,2138915,16700,-228,1132,16739.88,26.51,-1.00,-1.0,2366
3920,2138920,17144,800,1432,17222.29,26.65,-1.00,-1.0,2477
3922,2138922,17204,304,1408,17264.20,26.74,-1.00,-1.0,2365
3925,2138925,17296,-560,1548,17374.16,26.69,-1.00,-1.0,2454
3928,2138928,17140,-680,1416,17211.83,26.65,-1.00,-1.0,2372
3931,2138931,17224,36,1532,17292.04,26.60,-1.00,-1.0,2449
3934,2138934,17028,692,1724,17129.04,26.65,-1.00,-1.0,2364
3936,2138936,16984,592,1516,17061.80,26.60,-1.00,-1.0,2454
3939,2138939,16912,308,1580,16988.44,26.65,-1.00,-1.0,2371
3944,2138944,16940,612,1444,17012.45,26.55,-1.00,-1.0,2448
3947,2138947,17020,848,1416,17099.84,26.55,-1.00,-1.0,2372
3949,2138949,16988,480,1496,17060.50,26.60,-1.00,-1.0,2370
3952,2138952,16964,-216,1108,17001.52,26.60,-1.00,-1.0,2449
3955,2138955,16976,-528,1280,17032.37,26.60,-1.00,-1.0,2372
3958,2138958,17008,60,1540,17077.68,26.60,-1.00,-1.0,2448
3960,2138960,17000,528,1684,17091.36,26.60,-1.00,-1.0,2371
3963,2138963,17020,552,1600,17103.95,26.60,-1.00,-1.0,2450
3966,2138966,17056,-140,1392,17113.28,26.60,-1.00,-1.0,2371
3971,2138971,16956,640,1424,17027.72,26.60,-1.00,-1.0,2454
3973,2138973,17004,680,1436,17078.07,26.51,-1.00,-1.0,2373
3976,2138976,16964,92,1400,17021.92,26.46,-1.00,-1.0,2447
3979,2138979,16892,232,1456,16956.22,26.69,-1.00,-1.0,2367
3982,2138982,16888,940,1652,16994.62,26.55,-1.00,-1.0,2450
3984,2138984,16940,948,1716,17053.06,26.65,-1.00,-1.0,2423
3987,2138987,16964,268,1628,17044.05,26.60,-1.00,-1.0,2371
3990,2138990,17080,-324,1464,17145.69,26.65,-1.00,-1.0,2430
3993,2138993,17088,216,1524,17157.18,26.60,-1.00,-1.0,2374
3997,2138997,17192,600,1496,17267.39,26.69,-1.00,-1.0,2444
4000,2139000,17072,252,1368,17128.58,26.65,-1.00,-1.0,2368
4003,2139003,17024,368,1416,17086.75,26.65,-1.00,-1.0,2437
4006,2139006,16940,640,1340,17004.96,26.65,-1.00,-1.0,2368
4008,2139008,16980,868,1500,17068.21,26.65,-1.00,-1.0,2436
4011,2139011,16732,492,1460,16802.78,26.60,-1.00,-1.0,2353
4014,2139014,16892,416,1348,16950.81,26.65,-1.00,-1.0,2437
4017,2139017,16964,448,1660,17050.91,26.60,-1.00,-1.0,2372
4022,2139022,17140,396,1440,17204.94,26.60,-1.00,-1.0,2451
4024,2139024,17236,-84,1608,17311.05,26.60,-1.00,-1.0,2372
4027,2139027,17148,-352,1408,17209.31,26.55,-1.00,-1.0,2364
4030,2139030,17132,-96,1588,17205.71,26.55,-1.00,-1.0,2436
4032,2139032,16952,180,1524,17021.32,26.60,-1.00,-1.0,2375
4035,2139035,16960,180,1548,17031.45,26.55,-1.00,-1.0,2438
4038,2139038,16828,288,1436,16891.61,26.65,-1.00,-1.0,2353
4041,2139041,16968,556,1392,17034.08,26.65,-1.00,-1.0,2446
4043,2139043,16996,640,1548,17078.35,26.60,-1.00,-1.0,2377
4048,2139048,17008,56,1496,17073.76,26.60,-1.00,-1.0,2457
4051,2139051,16968,100,1564,17040.22,26.60,-1.00,-1.0,2373
4054,2139054,17116,640,1584,17201.05,26.65,-1.00,-1.0,2440
4057,2139057,17100,608,1516,17177.83,26.60,-1.00,-1.0,2367
4059,2139059,17128,316,1460,17193.02,26.60,-1.00,-1.0,2447
4062,2139062,17080,96,1312,17130.59,26.60,-1.00,-1.0,2374
4065,2139065,16996,72,1376,17051.76,26.55,-1.00,-1.0,2362
4067,2139067,16896,40,1444,16957.64,26.65,-1.00,-1.0,2437
4070,2139070,16768,48,1464,16831.86,26.65,-1.00,-1.0,2369
4075,2139075,16988,172,1364,17043.54,26.65,-1.00,-1.0,2459
4078,2139078,16976,400,1288,17029.49,26.65,-1.00,-1.0,2373
4081,2139081,17024,540,1312,17083.02,26.55,-1.00,-1.0,2448
4083,2139083,16940,288,1464,17005.58,26.51,-1.00,-1.0,2376
4086,2139086,16900,228,1452,16963.79,26.65,-1.00,-1.0,2443
4089,2139089,16916,324,1408,16977.59,26.65,-1.00,-1.0,2368
4092,2139092,17012,552,1368,17075.84,26.65,-1.00,-1.0,2448
4094,2139094,17008,616,1472,17082.69,26.74,-1.00,-1.0,2377
4097,2139097,17052,480,1296,17107.91,26.65,-1.00,-1.0,2362
4102,2139102,17036,-132,1444,17097.60,26.55,-1.00,-1.0,2444
4105,2139105,17096,-44,1352,17149.43,26.55,-1.00,-1.0,2364
4107,2139107,17176,188,1264,17223.47,26.55,-1.00,-1.0,2424
4110,2139110,17112,68,1412,17170.29,26.65,-1.00,-1.0,2382
4113,2139113,17028,-24,1468,17091.18,26.65,-1.00,-1.0,2437
4116,2139116,16992,140,1384,17048.85,26.65,-1.00,-1.0,2371
4118,2139118,17000,392,1640,17083.42,26.65,-1.00,-1.0,2444
4121,2139121,17048,496,1544,17124.96,26.65,-1.00,-1.0,2384
4126,2139126,16988,364,1476,17055.88,26.65,-1.00,-1.0,2444
4129,2139129,17004,376,1524,17076.30,26.55,-1.00,-1.0,2363
4132,2139132,17100,588,1544,17179.63,26.55,-1.00,-1.0,2437
4134,2139134,17004,596,1420,17073.59,26.60,-1.00,-1.0,2371
4137,2139137,17156,560,1480,17228.82,26.65,-1.00,-1.0,2365
4140,2139140,17040,280,1292,17091.21,26.60,-1.00,-1.0,2448
4142,2139142,16968,216,1448,17031.04,26.55,-1.00,-1.0,2377
4145,2139145,16944,260,1396,17003.40,26.60,-1.00,-1.0,2444
4148,2139148,16948,268,1220,16993.97,26.65,-1.00,-1.0,2370
4153,2139153,16968,64,1188,17009.66,26.65,-1.00,-1.0,2455
4155,2139155,17020,268,1220,17065.77,26.65,-1.00,-1.0,2369
4158,2139158,17148,512,1268,17202.44,26.65,-1.00,-1.0,2456
4161,2139161,17020,476,1224,17070.59,26.55,-1.00,-1.0,2367
4164,2139164,16920,408,1576,16998.14,26.55,-1.00,-1.0,2443
4166,2139166,16904,416,1460,16972.03,26.55,-1.00,-1.0,2368
4169,2139169,16968,356,1600,17046.99,26.55,-1.00,-1.0,2445
4172,2139172,17048,252,1540,17119.27,26.65,-1.00,-1.0,2367
4175,2139175,16964,176,1648,17044.77,26.65,-1.00,-1.0,2369
4180,2139180,17060,-36,1504,17126.21,26.60,-1.00,-1.0,2450
4183,2139183,17144,56,1540,17213.12,26.69,-1.00,-1.0,2368
4186,2139186,17020,176,1344,17073.89,26.60,-1.00,-1.0,2445
4188,2139188,16992,148,1276,17040.49,26.60,-1.00,-1.0,2374
4191,2139191,16948,160,1220,16992.61,26.60,-1.00,-1.0,2435
4194,2139194,16960,196,1352,17014.93,26.69,-1.00,-1.0,2373
4197,2139197,16920,220,1296,16970.99,26.60,-1.00,-1.0,2444
4199,2139199,17000,388,1356,17058.41,26.69,-1.00,-1.0,2377
4204,2139204,16972,392,1572,17049.15,26.69,-1.00,-1.0,2446
4207,2139207,17040,352,1540,17113.07,26.60,-1.00,-1.0,2368
4210,2139210,17048,344,1628,17129.01,26.55,-1.00,-1.0,2436
4212,2139212,17020,244,1680,17104.45,26.51,-1.00,-1.0,2368
4215,2139215,17044,344,1748,17136.85,26.65,-1.00,-1.0,2361
4218,2139218,16928,212,1536,16998.87,26.74,-1.00,-1.0,2443
4220,2139220,17028,396,1548,17102.80,26.55,-1.00,-1.0,2367
4223,2139223,16948,412,1408,17011.38,26.74,-1.00,-1.0,2436
4226,2139226,16956,432,1420,17020.84,26.60,-1.00,-1.0,2432
4231,2139231,16984,340,1332,17039.54,26.60,-1.00,-1.0,2455
4234,2139234,17028,412,1268,17080.12,26.60,-1.00,-1.0,2369
4237,2139237,17004,384,1320,17059.48,26.60,-1.00,-1.0,2445
4239,2139239,17028,292,1268,17077.64,26.51,-1.00,-1.0,2372
4242,2139242,16980,220,1444,17042.71,26.60,-1.00,-1.0,2437
4245,2139245,17016,216,1488,17082.30,26.51,-1.00,-1.0,2368
4247,2139247,16964,140,1540,17034.33,26.65,-1.00,-1.0,2362
4250,2139250,17128,184,1512,17195.59,26.55,-1.00,-1.0,2437
4253,2139253,17024,324,1512,17094.08,26.65,-1.00,-1.0,2370
4258,2139258,17080,408,1704,17169.64,26.60,-1.00,-1.0,2434
4261,2139261,17052,480,1528,17127.05,26.60,-1.00,-1.0,2370
4263,2139263,16988,216,1572,17061.95,26.60,-1.00,-1.0,2445
4266,2139266,16896,212,1456,16959.94,26.60,-1.00,-1.0,2381
4269,2139269,17016,148,1424,17076.12,26.60,-1.00,-1.0,2440
4272,2139272,17004,132,1348,17057.86,26.69,-1.00,-1.0,2370
4274,2139274,17044,320,1316,17097.72,26.65,-1.00,-1.0,2445
4277,2139277,17036,384,1468,17103.44,26.69,-1.00,-1.0,2382
4282,2139282,16964,440,1360,17024.12,26.60,-1.00,-1.0,2445
4285,2139285,16980,528,1392,17045.14,26.69,-1.00,-1.0,2373
4287,2139287,17068,496,1456,17137.17,26.69,-1.00,-1.0,2372
4290,2139290,17020,528,1464,17091.01,26.51,-1.00,-1.0,2443
4293,2139293,16972,400,1460,17039.38,26.60,-1.00,-1.0,2369
4296,2139296,16968,508,1364,17030.31,26.65,-1.00,-1.0,2447
4298,2139298,17000,368,1372,17059.24,26.60,-1.00,-1.0,2376
4301,2139301,16940,264,1652,17022.41,26.60,-1.00,-1.0,2444
4304,2139304,16952,280,1444,17015.69,26.51,-1.00,-1.0,2371
4309,2139309,16956,232,1332,17009.82,26.60,-1.00,-1.0,2452
4311,2139311,17008,408,1260,17059.49,26.69,-1.00,-1.0,2365
4314,2139314,17056,380,1532,17128.88,26.69,-1.00,-1.0,2451
4317,2139317,17056,484,1388,17119.23,26.69,-1.00,-1.0,2366
4320,2139320,16940,364,1468,17007.38,26.60,-1.00,-1.0,2444
4322,2139322,17068,352,1468,17134.63,26.60,-1.00,-1.0,2370
4325,2139325,17072,392,1420,17135.44,26.60,-1.00,-1.0,2375
4328,2139328,17052,384,1484,17120.76,26.65,-1.00,-1.0,2440
4331,2139331,16976,292,1452,17040.49,26.60,-1.00,-1.0,2373
4336,2139336,17044,264,1372,17101.17,26.60,-1.00,-1.0,2444
4338,2139338,17028,112,1308,17078.53,26.69,-1.00,-1.0,2368
4341,2139341,16984,196,1528,17053.72,26.60,-1.00,-1.0,2452
4344,2139344,16996,48,1360,17050.39,26.60,-1.00,-1.0,2369
4347,2139347,16968,128,1488,17033.60,26.69,-1.00,-1.0,2437
4349,2139349,16984,20,1368,17039.02,26.69,-1.00,-1.0,2368
4352,2139352,16936,88,1452,16998.36,26.69,-1.00,-1.0,2437
4355,2139355,16992,132,1392,17049.43,26.60,-1.00,-1.0,2374
4360,2139360,17000,92,1636,17078.79,26.60,-1.00,-1.0,2452
4362,2139362,17052,196,1664,17134.12,26.55,-1.00,-1.0,2365
4365,2139365,17048,336,1512,17118.22,26.60,-1.00,-1.0,2361
4368,2139368,17008,348,1536,17080.76,26.65,-1.00,-1.0,2444
4370,2139370,17104,336,1408,17165.14,26.69,-1.00,-1.0,2354
4373,2139373,17008,524,1408,17074.22,26.69,-1.00,-1.0,2437
4376,2139376,17056,588,1500,17131.93,26.69,-1.00,-1.0,2365
4379,2139379,16956,516,1496,17029.69,26.60,-1.00,-1.0,2445
4381,2139381,16952,376,1504,17022.74,26.60,-1.00,-1.0,2366
4386,2139386,17112,452,1176,17158.32,26.69,-1.00,-1.0,2447
4389,2139389,26512,4320,-14096,30335.55,26.60,-1.00,-1.0,2367
4392,2139392,23012,-8652,8528,26021.84,26.55,-1.00,-1.0,2444
4394,2139394,26032,-504,11504,28465.08,26.69,-1.00,-1.0,2366
4397,2139397,8364,21448,15992,28030.65,26.55,-1.00,-1.0,2441
4400,2139400,12880,-32400,3980,35092.66,26.60,-1.00,-1.0,2365
4403,2139403,21204,-22024,-7076,31380.50,26.55,-1.00,-1.0,2446
4405,2139405,3632,14104,13544,19888.54,26.60,-1.00,-1.0,2366
4408,2139408,32767,20932,1040,38896.10,26.60,-1.00,-1.0,2370
4413,2139413,20988,-6536,-5028,22549.86,26.65,-1.00,-1.0,2451
4416,2139416,24880,3336,5676,25736.36,26.55,-1.00,-1.0,2370
4418,2139418,11064,17892,-1912,21123.25,26.65,-1.00,-1.0,2445
4421,2139421,22060,-492,5776,22808.94,26.55,-1.00,-1.0,2372
4424,2139424,17892,-8120,6288,20630.00,26.55,-1.00,-1.0,2427
4427,2139427,18480,-9868,2104,21055.04,26.55,-1.00,-1.0,2365
4429,2139429,18952,3276,684,19245.22,26.55,-1.00,-1.0,2449
4432,2139432,18948,2072,6772,20228.20,26.55,-1.00,-1.0,2375
4437,2139437,25220,-1112,-1676,25300.08,26.60,-1.00,-1.0,2444
4440,2139440,11000,-4364,-1948,11993.30,26.65,-1.00,-1.0,2374
4443,2139443,21056,-1116,340,21088.29,26.65,-1.00,-1.0,2438
4445,2139445,10516,-5000,300,11648.01,26.65,-1.00,-1.0,2366
4448,2139448,23624,9640,-592,25522.02,26.65,-1.00,-1.0,2437
4451,2139451,10524,15744,5708,19779.01,26.60,-1.00,-1.0,2373
4454,2139454,23152,-2656,204,23304.74,26.65,-1.00,-1.0,2438
4456,2139456,11712,-7152,3724,14219.36,26.69,-1.00,-1.0,2366
4461,2139461,14948,8584,1564,17308.20,26.60,-1.00,-1.0,2444
4464,2139464,19692,-5840,2756,20723.80,26.60,-1.00,-1.0,2366
4467,2139467,14220,-5692,2276,15485.07,26.65,-1.00,-1.0,2444
4469,2139469,21132,3524,-1192,21456.95,26.60,-1.00,-1.0,2370
4472,2139472,13568,5360,2376,14780.58,26.69,-1.00,-1.0,2365
4475,2139475,16956,-2784,2324,17339.48,26.65,-1.00,-1.0,2446
4477,2139477,16380,-5440,-244,17261.45,26.65,-1.00,-1.0,2365
4480,2139480,18320,-3384,-660,18641.61,26.65,-1.00,-1.0,2438
4483,2139483,14200,3208,2220,14726.16,26.60,-1.00,-1.0,2367
4488,2139488,15068,1696,1720,15260.39,26.60,-1.00,-1.0,2432
4491,2139491,16336,1924,2056,16576.91,26.60,-1.00,-1.0,2365
4493,2139493,17076,4844,1216,17791.37,26.55,-1.00,-1.0,2438
4496,2139496,17780,652,764,17808.35,26.69,-1.00,-1.0,2367
4499,2139499,16688,-3356,1376,17077.63,26.60,-1.00,-1.0,2436
4502,2139502,13476,-1496,1276,13618.69,26.69,-1.00,-1.0,2369
4504,2139504,19196,-140,624,19206.65,26.74,-1.00,-1.0,2438
4507,2139507,15412,3484,2724,16033.97,26.51,-1.00,-1.0,2369
4512,2139512,15912,-1884,2536,16222.59,26.60,-1.00,-1.0,2441
4515,2139515,18856,-888,-856,18896.30,26.60,-1.00,-1.0,2374
4518,2139518,17236,936,-88,17261.62,26.60,-1.00,-1.0,2449
4520,2139520,17356,404,2384,17523.62,26.60,-1.00,-1.0,2376
4523,2139523,16924,-2988,732,17201.33,26.55,-1.00,-1.0,2421
4526,2139526,17084,232,988,17114.12,26.60,-1.00,-1.0,2440
4529,2139529,16696,4900,1944,17508.44,26.60,-1.00,-1.0,2365
4531,2139531,17996,6732,3280,19491.90,26.65,-1.00,-1.0,2438
4534,2139534,14908,-2120,704,15074.43,26.60,-1.00,-1.0,2355
4539,2139539,15456,260,1976,15583.97,26.60,-1.00,-1.0,2454
4542,2139542,19044,6732,2508,20353.96,26.60,-1.00,-1.0,2373
4545,2139545,15280,3048,2752,15822.21,26.60,-1.00,-1.0,2452
4547,2139547,18668,-7588,944,20173.33,26.60,-1.00,-1.0,2376
4550,2139550,16480,-1588,436,16562.07,26.65,-1.00,-1.0,2444
4553,2139553,18992,7108,1892,20366.62,26.60,-1.00,-1.0,2368
4556,2139556,15944,-2044,636,16087.06,26.55,-1.00,-1.0,2469
4558,2139558,17016,-7984,560,18804.31,26.55,-1.00,-1.0,2366
4561,2139561,15064,-1952,1488,15262.65,26.60,-1.00,-1.0,2369
4566,2139566,15808,7880,2308,17813.31,26.60,-1.00,-1.0,2445
4569,2139569,19404,-2012,-144,19508.56,26.60,-1.00,-1.0,2371
4572,2139572,16724,-3720,528,17140.87,26.60,-1.00,-1.0,2439
4574,2139574,16704,-412,1888,16815.41,26.60,-1.00,-1.0,2364
4577,2139577,17444,1664,1352,17575.27,26.60,-1.00,-1.0,2438
4580,2139580,17320,1588,2612,17587.69,26.65,-1.00,-1.0,2362
4582,2139582,17684,-28,3280,17985.63,26.60,-1.00,-1.0,2441
4585,2139585,16800,-1792,840,16916.17,26.55,-1.00,-1.0,2365
4590,2139590,16612,1064,2432,16822.76,26.60,-1.00,-1.0,2446
4593,2139593,16800,2824,1644,17114.84,26.65,-1.00,-1.0,2370
4596,2139596,17296,1208,1120,17374.27,26.60,-1.00,-1.0,2440
4598,2139598,17180,-1032,848,17231.85,26.60,-1.00,-1.0,2364
4601,2139601,16452,-1324,1076,16540.22,26.60,-1.00,-1.0,2437
4604,2139604,17104,264,820,17125.68,26.55,-1.00,-1.0,2363
4606,2139606,17056,2372,896,17243.44,26.60,-1.00,-1.0,2441
4609,2139609,17076,4196,2076,17706.10,26.65,-1.00,-1.0,2363
4612,2139612,16668,-136,1444,16730.98,26.51,-1.00,-1.0,2369
4617,2139617,16940,-3960,156,17397.40,26.60,-1.00,-1.0,2445
4619,2139619,16668,2048,2776,17021.24,26.69,-1.00,-1.0,2366
4622,2139622,17240,4560,1976,17942.01,26.60,-1.00,-1.0,2439
4625,2139625,16996,-500,1128,17040.73,26.51,-1.00,-1.0,2370
4628,2139628,16888,-3120,1412,17231.73,26.60,-1.00,-1.0,2438
4630,2139630,16984,-1180,1932,17134.21,26.69,-1.00,-1.0,2364
4633,2139633,17496,2808,1900,17821.47,26.60,-1.00,-1.0,2439
4636,2139636,16904,816,1092,16958.88,26.60,-1.00,-1.0,2363
4641,2139641,16872,-1492,1636,17016.67,26.55,-1.00,-1.0,2446
4643,2139643,17156,1872,1404,17314.85,26.55,-1.00,-1.0,2367
4646,2139646,17236,2456,1696,17492.51,26.69,-1.00,-1.0,2440
4649,2139649,16884,-1580,1296,17007.22,26.55,-1.00,-1.0,2364
4652,2139652,16716,-2052,728,16857.21,26.65,-1.00,-1.0,2432
4654,2139654,17116,932,864,17163.12,26.65,-1.00,-1.0,2372
4657,2139657,16792,3780,1572,17283.83,26.60,-1.00,-1.0,2362
4660,2139660,17408,1876,1568,17578.86,26.69,-1.00,-1.0,2444
4662,2139662,16672,204,1764,16766.30,26.65,-1.00,-1.0,2363
4667,2139667,17200,-396,1584,17277.32,26.65,-1.00,-1.0,2454
4670,2139670,17044,344,2056,17171.00,26.65,-1.00,-1.0,2372
4673,2139673,17228,-728,1144,17281.28,26.65,-1.00,-1.0,2440
4676,2139676,17320,-1364,1256,17418.97,26.65,-1.00,-1.0,2369
4678,2139678,17392,-556,1616,17475.76,26.65,-1.00,-1.0,2440
4681,2139681,16976,808,2156,17131.43,26.65,-1.00,-1.0,2378
4684,2139684,17112,300,1436,17174.77,26.55,-1.00,-1.0,2441
4687,2139687,16504,-1308,1000,16585.92,26.65,-1.00,-1.0,2370
4692,2139692,16824,508,1216,16875.54,26.55,-1.00,-1.0,2445
4694,2139694,16772,1984,1480,16953.66,26.60,-1.00,-1.0,2368
4697,2139697,17176,1516,1424,17301.47,26.65,-1.00,-1.0,2439
4700,2139700,17208,856,1728,17315.71,26.69,-1.00,-1.0,2371
4702,2139702,17100,1220,1856,17243.64,26.55,-1.00,-1.0,2364
4705,2139705,17252,868,1448,17334.41,26.65,-1.00,-1.0,2452
4708,2139708,16840,-200,1488,16906.79,26.65,-1.00,-1.0,2372
4711,2139711,16948,-236,1368,17004.76,26.65,-1.00,-1.0,2448
4713,2139713,17008,324,1244,17056.51,26.65,-1.00,-1.0,2368
4718,2139718,17052,-148,1316,17103.35,26.65,-1.00,-1.0,2447
4721,2139721,16848,-632,1652,16940.59,26.60,-1.00,-1.0,2364
4724,2139724,16836,-352,1424,16899.78,26.60,-1.00,-1.0,2442
4726,2139726,17132,84,1252,17177.89,26.69,-1.00,-1.0,2364
4729,2139729,17332,868,1380,17408.51,26.84,-1.00,-1.0,2441
4732,2139732,17088,1128,1688,17208.18,26.69,-1.00,-1.0,2365
4735,2139735,17356,168,1204,17398.52,26.79,-1.00,-1.0,2447
4737,2139737,17208,-180,1308,17258.58,26.69,-1.00,-1.0,2363
4742,2139742,17172,1756,1576,17333.35,26.69,-1.00,-1.0,2449
4745,2139745,16608,1232,1156,16693.71,26.69,-1.00,-1.0,2367
4748,2139748,16908,-336,720,16926.66,26.60,-1.00,-1.0,2362
4750,2139750,16740,108,900,16764.52,26.55,-1.00,-1.0,2425
4753,2139753,16744,1060,1492,16843.73,26.60,-1.00,-1.0,2365
4756,2139756,17020,548,1748,17118.30,26.69,-1.00,-1.0,2437
4759,2139759,17244,-892,1600,17341.03,26.51,-1.00,-1.0,2362
4761,2139761,17276,-776,1728,17379.54,26.60,-1.00,-1.0,2441
4764,2139764,17328,592,1856,17437.17,26.69,-1.00,-1.0,2366
4769,2139769,17196,-444,1792,17294.82,26.51,-1.00,-1.0,2460
4772,2139772,16904,-748,1816,17017.71,26.55,-1.00,-1.0,2366
4775,2139775,16704,548,1720,16801.26,26.51,-1.00,-1.0,2450
4777,2139777,16968,1472,1640,17110.51,26.60,-1.00,-1.0,2367
4780,2139780,16672,1536,1192,16784.99,26.60,-1.00,-1.0,2448
4783,2139783,16724,252,1128,16763.89,26.65,-1.00,-1.0,2371
4786,2139786,16896,-392,944,16926.89,26.69,-1.00,-1.0,2449
4788,2139788,17176,-100,940,17201.99,26.69,-1.00,-1.0,2369
4791,2139791,17140,60,1268,17186.94,26.69,-1.00,-1.0,2364
4796,2139796,17156,168,1596,17230.90,26.69,-1.00,-1.0,2439
4798,2139798,17204,288,1708,17290.97,26.60,-1.00,-1.0,2367
4801,2139801,17096,280,1748,17187.41,26.46,-1.00,-1.0,2440
4804,2139804,17064,-44,1876,17166.87,26.60,-1.00,-1.0,2366
4807,2139807,16848,-56,1652,16928.89,26.69,-1.00,-1.0,2435
4809,2139809,16916,208,1644,16996.97,26.60,-1.00,-1.0,2371
4812,2139812,16972,788,1300,17039.95,26.65,-1.00,-1.0,2439
4815,2139815,17092,1456,1392,17210.29,26.69,-1.00,-1.0,2366
4820,2139820,16940,460,1204,16988.96,26.69,-1.00,-1.0,2448
4822,2139822,16836,-336,1212,16882.91,26.51,-1.00,-1.0,2369
4825,2139825,16924,-644,1408,16994.68,26.65,-1.00,-1.0,2440
4828,2139828,16932,-84,1728,17020.15,26.60,-1.00,-1.0,2365
4830,2139830,17060,-4,1656,17140.19,26.55,-1.00,-1.0,2362
4833,2139833,17192,-164,1528,17260.55,26.55,-1.00,-1.0,2437
4836,2139836,17172,292,1452,17235.75,26.65,-1.00,-1.0,2364
4839,2139839,17212,968,1404,17296.28,26.65,-1.00,-1.0,2437
4841,2139841,17016,204,1308,17067.42,26.55,-1.00,-1.0,2366
4846,2139846,16824,-604,1204,16877.84,26.69,-1.00,-1.0,2454
4849,2139849,16856,880,1164,16919.04,26.60,-1.00,-1.0,2380
4852,2139852,17008,1944,1448,17179.87,26.55,-1.00,-1.0,2441
4855,2139855,16888,720,1548,16974.08,26.60,-1.00,-1.0,2369
4857,2139857,16956,-524,1460,17026.81,26.65,-1.00,-1.0,2444
4860,2139860,16856,-444,1436,16922.88,26.60,-1.00,-1.0,2379
4863,2139863,17268,264,1564,17340.69,26.65,-1.00,-1.0,2439
4866,2139866,17240,160,1364,17294.62,26.69,-1.00,-1.0,2369
4868,2139868,17256,28,1512,17322.14,26.65,-1.00,-1.0,2361
4873,2139873,17012,344,1500,17081.47,26.65,-1.00,-1.0,2447
4876,2139876,16908,804,1524,16995.57,26.69,-1.00,-1.0,2368
4879,2139879,16836,724,1388,16908.62,26.60,-1.00,-1.0,2455
4881,2139881,16888,68,1200,16930.72,26.65,-1.00,-1.0,2424
4884,2139884,17004,-204,1216,17048.64,26.55,-1.00,-1.0,2445
4887,2139887,17056,196,1240,17102.14,26.69,-1.00,-1.0,2381
4890,2139890,17028,1036,1464,17122.19,26.55,-1.00,-1.0,2427
4893,2139893,17092,904,1512,17182.54,26.69,-1.00,-1.0,2371
4898,2139898,16976,-48,1204,17018.71,26.51,-1.00,-1.0,2446
4900,2139900,16980,112,1356,17034.43,26.60,-1.00,-1.0,2367
4903,2139903,16940,168,1288,16989.72,26.60,-1.00,-1.0,2435
4906,2139906,16808,-108,1436,16869.58,26.60,-1.00,-1.0,2373
4908,2139908,16848,-320,1488,16916.61,26.60,-1.00,-1.0,2363
4911,2139911,17068,40,1688,17151.31,26.65,-1.00,-1.0,2451
4914,2139914,17112,872,1948,17244.58,26.69,-1.00,-1.0,2373
4917,2139917,17368,700,1860,17481.33,26.60,-1.00,-1.0,2446
4919,2139919,17192,-44,1724,17278.28,26.60,-1.00,-1.0,2371
4924,2139924,17160,108,1496,17225.43,26.60,-1.00,-1.0,2446
4927,2139927,17044,736,1508,17126.40,26.60,-1.00,-1.0,2367
4930,2139930,16712,500,1468,16783.80,26.69,-1.00,-1.0,2443
4932,2139932,16652,-228,1128,16691.72,26.60,-1.00,-1.0,2366
4935,2139935,16800,-188,1064,16834.71,26.69,-1.00,-1.0,2439
4938,2139938,16800,436,1296,16855.55,26.60,-1.00,-1.0,2366
4941,2139941,17160,920,1340,17236.81,26.60,-1.00,-1.0,2439
4943,2139943,17348,400,1324,17403.05,26.51,-1.00,-1.0,2365
4946,2139946,17176,-40,1384,17231.72,26.69,-1.00,-1.0,2361
4951,2139951,17104,-136,1496,17169.84,26.69,-1.00,-1.0,2446
4954,2139954,16944,464,1512,17017.65,26.51,-1.00,-1.0,2366
4957,2139957,17136,600,1620,17222.86,26.60,-1.00,-1.0,2436
4959,2139959,17036,508,1516,17110.86,26.69,-1.00,-1.0,2366
4962,2139962,16932,344,1432,16995.93,26.69,-1.00,-1.0,2437
4965,2139965,16932,428,1420,16996.83,26.60,-1.00,-1.0,2366
4967,2139967,16912,716,1456,16989.65,26.60,-1.00,-1.0,2437
4970,2139970,17060,712,1236,17119.53,26.60,-1.00,-1.0,2366
4975,2139975,16916,-384,1004,16950.12,26.60,-1.00,-1.0,2445
4978,2139978,17032,-232,1132,17071.15,26.65,-1.00,-1.0,2371
4981,2139981,17168,596,1408,17235.95,26.60,-1.00,-1.0,2435
4983,2139983,17088,600,1456,17160.41,26.60,-1.00,-1.0,2373
4986,2139986,17080,112,1540,17149.65,26.69,-1.00,-1.0,2361
4989,2139989,17148,-76,1316,17198.59,26.46,-1.00,-1.0,2443
4991,2139991,17032,476,1344,17091.57,26.60,-1.00,-1.0,2367
4994,2139994,17008,604,1452,17080.55,26.65,-1.00,-1.0,2436
4997,2139997,16948,332,1476,17015.39,26.60,-1.00,-1.0,2367
5003,2140003,16808,936,1648,16914.52,26.74,-1.00,-1.0,2461
5005,2140005,16988,948,1712,17100.35,26.65,-1.00,-1.0,2375
5008,2140008,17060,320,1616,17139.35,26.60,-1.00,-1.0,2444
5011,2140011,17040,-308,1448,17104.19,26.65,-1.00,-1.0,2375
5014,2140014,17104,112,1612,17180.16,26.60,-1.00,-1.0,2449
5016,2140016,17152,720,1476,17230.44,26.55,-1.00,-1.0,2379
5019,2140019,17132,568,1460,17203.48,26.69,-1.00,-1.0,2443
5022,2140022,17140,332,1276,17190.64,26.55,-1.00,-1.0,2369
5024,2140024,17016,348,1344,17072.54,26.69,-1.00,-1.0,2348
5029,2140029,16892,744,1360,16962.98,26.69,-1.00,-1.0,2446
5032,2140032,16784,472,1408,16849.57,26.60,-1.00,-1.0,2368
5035,2140035,16844,424,1452,16911.78,26.65,-1.00,-1.0,2442
5037,2140037,16888,540,1544,16967.03,26.60,-1.00,-1.0,2368
5040,2140040,17140,592,1452,17211.58,26.51,-1.00,-1.0,2422
5043,2140043,17272,440,1368,17331.68,26.51,-1.00,-1.0,2368
5046,2140046,17148,-56,1336,17200.06,26.60,-1.00,-1.0,2436
5048,2140048,17152,-132,1496,17217.62,26.60,-1.00,-1.0,2370
5053,2140053,17016,268,1528,17086.57,26.69,-1.00,-1.0,2456
5056,2140056,16956,244,1568,17030.09,26.60,-1.00,-1.0,2383
5059,2140059,16896,360,1416,16959.05,26.69,-1.00,-1.0,2436
5062,2140062,16928,672,1580,17014.85,26.60,-1.00,-1.0,2374
5064,2140064,16936,792,1412,17013.20,26.60,-1.00,-1.0,2361
5067,2140067,17064,484,1532,17139.47,26.65,-1.00,-1.0,2435
5070,2140070,16984,52,1432,17044.34,26.60,-1.00,-1.0,2368
5072,2140072,17048,192,1640,17127.78,26.60,-1.00,-1.0,2435
5075,2140075,17068,484,1540,17144.17,26.60,-1.00,-1.0,2354
5080,2140080,17108,388,1344,17165.10,26.60,-1.00,-1.0,2462
5083,2140083,16980,60,1364,17034.80,26.69,-1.00,-1.0,2374
5086,2140086,16964,96,1352,17018.06,26.69,-1.00,-1.0,2445
5088,2140088,16964,8,1276,17011.92,26.60,-1.00,-1.0,2368
5091,2140091,16984,-16,1248,17029.80,26.60,-1.00,-1.0,2451
5094,2140094,16908,-8,1252,16954.29,26.60,-1.00,-1.0,2375
5097,2140097,17044,168,1292,17093.72,26.60,-1.00,-1.0,2449
5099,2140099,17060,564,1352,17122.78,26.69,-1.00,-1.0,2371
5102,2140102,17104,528,1360,17166.11,26.69,-1.00,-1.0,2364
5107,2140107,16912,220,1660,16994.70,26.60,-1.00,-1.0,2454
5110,2140110,16964,240,1524,17034.01,26.60,-1.00,-1.0,2373
5112,2140112,16984,468,1420,17049.68,26.69,-1.00,-1.0,2445
5115,2140115,16980,632,1468,17055.05,26.69,-1.00,-1.0,2381
5118,2140118,16988,336,1416,17050.22,26.60,-1.00,-1.0,2440
5121,2140121,17032,132,1384,17088.65,26.60,-1.00,-1.0,2373
5123,2140123,17072,4,1436,17132.29,26.69,-1.00,-1.0,2446
5126,2140126,17088,96,1436,17148.50,26.60,-1.00,-1.0,2380
5131,2140131,17036,168,1476,17100.65,26.60,-1.00,-1.0,2445
5134,2140134,17056,68,1488,17120.92,26.60,-1.00,-1.0,2375
5136,2140136,17008,144,1592,17082.95,26.69,-1.00,-1.0,2371
5139,2140139,16980,480,1536,17056.09,26.65,-1.00,-1.0,2446
5142,2140142,16932,672,1508,17012.30,26.60,-1.00,-1.0,2369
5145,2140145,17052,420,1584,17130.56,26.65,-1.00,-1.0,2447
5147,2140147,17024,176,1556,17095.87,26.60,-1.00,-1.0,2375
5150,2140150,17000,384,1468,17067.59,26.65,-1.00,-1.0,2443
5153,2140153,17036,492,1576,17115.81,26.69,-1.00,-1.0,2369
5158,2140158,17000,504,1696,17091.82,26.60,-1.00,-1.0,2450
5160,2140160,16944,276,1544,17016.44,26.60,-1.00,-1.0,2367
5163,2140163,16964,272,1464,17029.23,26.60,-1.00,-1.0,2456
5166,2140166,16996,136,1420,17055.76,26.60,-1.00,-1.0,2367
5169,2140169,16896,124,1384,16953.04,26.60,-1.00,-1.0,2443
5171,2140171,17048,140,1172,17088.81,26.60,-1.00,-1.0,2368
5174,2140174,17060,216,1284,17109.62,26.60,-1.00,-1.0,2376
5177,2140177,17072,416,1232,17121.45,26.55,-1.00,-1.0,2442
5180,2140180,17032,652,1336,17096.75,26.55,-1.00,-1.0,2380
5185,2140185,16932,524,1472,17003.94,26.60,-1.00,-1.0,2445
5187,2140187,16940,440,1608,17021.83,26.60,-1.00,-1.0,2368
5190,2140190,17000,432,1584,17079.10,26.65,-1.00,-1.0,2452
5193,2140193,16968,316,1620,17048.09,26.60,-1.00,-1.0,2362
5196,2140196,16984,96,1472,17047.94,26.60,-1.00,-1.0,2438
5198,2140198,17032,-68,1480,17096.32,26.69,-1.00,-1.0,2367
5201,2140201,17036,28,1440,17096.77,26.60,-1.00,-1.0,2444
5204,2140204,17080,132,1392,17137.14,26.60,-1.00,-1.0,2375
5209,2140209,16980,176,1444,17042.20,26.65,-1.00,-1.0,2444
5211,2140211,17088,244,1108,17125.62,26.60,-1.00,-1.0,2368
5214,2140214,16936,164,1296,16986.31,26.65,-1.00,-1.0,2364
5217,2140217,16940,132,1300,16990.32,26.55,-1.00,-1.0,2446
5219,2140219,16868,240,1304,16920.03,26.65,-1.00,-1.0,2374
5222,2140222,17132,404,1452,17198.17,26.65,-1.00,-1.0,2437
5225,2140225,17072,488,1468,17141.95,26.65,-1.00,-1.0,2353
5228,2140228,17028,404,1464,17095.59,26.55,-1.00,-1.0,2451
5230,2140230,17020,112,1592,17094.66,26.65,-1.00,-1.0,2376
5235,2140235,17072,212,1780,17165.85,26.55,-1.00,-1.0,2453
5238,2140238,16980,144,1604,17056.20,26.65,-1.00,-1.0,2368
5241,2140241,17096,208,1504,17163.29,26.65,-1.00,-1.0,2446
5243,2140243,17148,320,1400,17208.03,26.65,-1.00,-1.0,2374
5246,2140246,16912,292,1528,16983.40,26.69,-1.00,-1.0,2437
5249,2140249,16956,372,1368,17015.16,26.65,-1.00,-1.0,2369
5251,2140251,17020,280,1396,17079.45,26.60,-1.00,-1.0,2361
5254,2140254,17024,308,1280,17074.83,26.69,-1.00,-1.0,2436
5257,2140257,17016,444,1180,17062.64,26.60,-1.00,-1.0,2368
5262,2140262,16992,392,1320,17047.70,26.69,-1.00,-1.0,2445
5265,2140265,17060,176,1308,17110.97,26.65,-1.00,-1.0,2364
5267,2140267,17020,204,1436,17081.69,26.60,-1.00,-1.0,2425
5270,2140270,17052,280,1392,17111.01,26.65,-1.00,-1.0,2381
5273,2140273,17024,292,1540,17096.01,26.69,-1.00,-1.0,2436
5276,2140276,17072,404,1612,17152.70,26.65,-1.00,-1.0,2371
5278,2140278,17104,432,1708,17194.50,26.69,-1.00,-1.0,2445
5281,2140281,17060,464,1544,17136.01,26.65,-1.00,-1.0,2381
5286,2140286,17016,236,1532,17086.46,26.65,-1.00,-1.0,2460
5289,2140289,17004,164,1536,17074.02,26.65,-1.00,-1.0,2372
5291,2140291,16904,68,1556,16975.60,26.51,-1.00,-1.0,2368
5294,2140294,16976,184,1384,17033.32,26.60,-1.00,-1.0,2437
5297,2140297,16984,360,1352,17041.53,26.69,-1.00,-1.0,2367
5300,2140300,16964,396,1352,17022.40,26.60,-1.00,-1.0,2443
5302,2140302,16988,552,1332,17049.08,26.69,-1.00,-1.0,2373
5305,2140305,17028,432,1520,17101.16,26.69,-1.00,-1.0,2436
5308,2140308,17100,456,1384,17161.97,26.69,-1.00,-1.0,2370
5313,2140313,17068,468,1428,17134.03,26.55,-1.00,-1.0,2451
5316,2140316,17056,436,1356,17115.37,26.55,-1.00,-1.0,2370
5318,2140318,16968,324,1424,17030.73,26.69,-1.00,-1.0,2448
5321,2140321,16988,248,1316,17040.70,26.65,-1.00,-1.0,2374
5324,2140324,17036,200,1444,17098.26,26.60,-1.00,-1.0,2363
5326,2140326,16924,148,1268,16972.08,26.60,-1.00,-1.0,2436
5329,2140329,17020,216,1320,17072.48,26.60,-1.00,-1.0,2356
5332,2140332,17084,328,1356,17140.87,26.60,-1.00,-1.0,2437
5335,2140335,17008,456,1436,17074.60,26.60,-1.00,-1.0,2370
5340,2140340,17080,524,1552,17158.37,26.60,-1.00,-1.0,2452
5342,2140342,17040,384,1568,17116.30,26.65,-1.00,-1.0,2370
5345,2140345,17036,344,1484,17103.97,26.69,-1.00,-1.0,2450
5348,2140348,17044,476,1356,17104.48,26.65,-1.00,-1.0,2373
5351,2140351,16972,376,1428,17036.12,26.69,-1.00,-1.0,2446
5353,2140353,17056,288,1484,17122.86,26.51,-1.00,-1.0,2373
5356,2140356,16948,228,1500,17015.78,26.69,-1.00,-1.0,2446
5359,2140359,17016,200,1516,17084.57,26.60,-1.00,-1.0,2372
5361,2140361,16964,100,1560,17035.87,26.60,-1.00,-1.0,2369
5366,2140366,16976,-24,1552,17046.81,26.69,-1.00,-1.0,2453
5369,2140369,16944,76,1420,17003.57,26.51,-1.00,-1.0,2381
5372,2140372,16860,56,1352,16914.21,26.69,-1.00,-1.0,2440
5375,2140375,17032,116,1444,17093.50,26.60,-1.00,-1.0,2380
5377,2140377,16868,88,1504,16935.15,26.60,-1.00,-1.0,2440
5380,2140380,17020,128,1492,17085.75,26.60,-1.00,-1.0,2382
5383,2140383,16988,204,1576,17062.17,26.69,-1.00,-1.0,2436
5386,2140386,17016,364,1440,17080.70,26.60,-1.00,-1.0,2373
5391,2140391,17060,352,1436,17123.95,26.60,-1.00,-1.0,2446
5393,2140393,17060,428,1396,17122.37,26.60,-1.00,-1.0,2370
5396,2140396,17004,448,1412,17068.41,26.69,-1.00,-1.0,2451
5399,2140399,16972,424,1436,17037.92,26.60,-1.00,-1.0,2373
5401,2140401,17140,272,1604,17217.04,26.69,-1.00,-1.0,2369
5404,2140404,23968,-760,10628,26229.70,26.60,-1.00,-1.0,2437
5407,2140407,504,6156,-1672,6398.90,26.51,-1.00,-1.0,2366
5410,2140410,32767,-5396,26800,42673.57,26.65,-1.00,-1.0,2445
5412,2140412,19872,17260,27540,38095.35,26.60,-1.00,-1.0,2374
5417,2140417,18180,-32768,-14956,40347.69,26.65,-1.00,-1.0,2445
5420,2140420,15956,-220,-8,15957.52,26.51,-1.00,-1.0,2365
5423,2140423,4800,24568,5952,25730.39,26.60,-1.00,-1.0,2442
5425,2140425,25820,10448,-4356,28192.34,26.60,-1.00,-1.0,2366
5428,2140428,8748,-6672,3136,11440.17,26.69,-1.00,-1.0,2456
5431,2140431,19852,2176,6396,20970.12,26.60,-1.00,-1.0,2367
5434,2140434,12948,13612,6852,19997.18,26.60,-1.00,-1.0,2444
5436,2140436,27192,4140,4048,27801.63,26.69,-1.00,-1.0,2366
5441,2140441,19296,-6212,-1352,20316.31,26.60,-1.00,-1.0,2449
5444,2140444,16876,-1480,4,16940.77,26.60,-1.00,-1.0,2367
5447,2140447,19568,4296,3824,20395.71,26.60,-1.00,-1.0,2444
5449,2140449,16168,920,3912,16659.96,26.69,-1.00,-1.0,2366
5452,2140452,16548,1188,328,16593.83,26.60,-1.00,-1.0,2368
5455,2140455,15836,-2588,1644,16130.08,26.55,-1.00,-1.0,2427
5458,2140458,15152,-3692,-144,15595.98,26.69,-1.00,-1.0,2367
5460,2140460,13280,-5024,2568,14428.92,26.55,-1.00,-1.0,2449
5463,2140463,21540,2624,1312,21738.87,26.60,-1.00,-1.0,2375
5468,2140468,17952,3728,688,18347.91,26.69,-1.00,-1.0,2446
5471,2140471,20944,-6076,-3252,22048.68,26.60,-1.00,-1.0,2375
5474,2140474,12892,-3808,1988,13588.84,26.69,-1.00,-1.0,2437
5476,2140476,20116,8472,2396,21958.35,26.60,-1.00,-1.0,2368
5479,2140479,16132,-780,1444,16215.27,26.60,-1.00,-1.0,2437
5482,2140482,18436,-7312,1040,19860.34,26.60,-1.00,-1.0,2367
5484,2140484,15660,-2428,1672,15935.07,26.60,-1.00,-1.0,2437
5487,2140487,17848,7204,5472,20009.79,26.69,-1.00,-1.0,2353
5492,2140492,17228,-3412,612,17573.28,26.65,-1.00,-1.0,2451
5495,2140495,15704,-5620,924,16704.90,26.65,-1.00,-1.0,2354
5498,2140498,19520,-612,96,19529.83,26.65,-1.00,-1.0,2444
5500,2140500,13276,2588,2604,13774.28,26.65,-1.00,-1.0,2375
5503,2140503,19832,464,1484,19892.86,26.55,-1.00,-1.0,2349
5506,2140506,13728,1996,1524,13955.81,26.69,-1.00,-1.0,2441
5508,2140508,20676,2960,1672,20953.62,26.55,-1.00,-1.0,2354
5511,2140511,15112,2628,1656,15427.94,26.60,-1.00,-1.0,2437
5514,2140514,19472,-3360,-60,19759.86,26.65,-1.00,-1.0,2369
5519,2140519,19628,-420,1480,19688.20,26.55,-1.00,-1.0,2456
5522,2140522,15728,1504,1180,15843.75,26.65,-1.00,-1.0,2373
5524,2140524,17688,2888,2016,18035.25,26.65,-1.00,-1.0,2446
5527,2140527,15268,-1556,3008,15639.09,26.60,-1.00,-1.0,2374
5530,2140530,18496,-1504,532,18564.67,26.65,-1.00,-1.0,2426
5533,2140533,17696,512,-560,17712.26,26.55,-1.00,-1.0,2367
5535,2140535,17920,1312,1740,18052.02,26.55,-1.00,-1.0,2449
5538,2140538,15632,-2896,1056,15933.03,26.60,-1.00,-1.0,2375
5543,2140543,16036,3136,1292,16390.76,26.60,-1.00,-1.0,2445
5546,2140546,18236,7716,2644,19976.96,26.60,-1.00,-1.0,2374
5549,2140549,16252,4660,3096,17188.03,26.55,-1.00,-1.0,2438
5551,2140551,16392,-6824,-376,17759.67,26.69,-1.00,-1.0,2366
5554,2140554,16280,-3704,1164,16736.57,26.65,-1.00,-1.0,2369
5557,2140557,16672,4668,2152,17446.40,26.55,-1.00,-1.0,2450
5559,2140559,17528,6572,2468,18881.55,26.65,-1.00,-1.0,2371
5562,2140562,16448,-5000,2048,17312.74,26.65,-1.00,-1.0,2450
5565,2140565,17572,-6296,356,18669.27,26.65,-1.00,-1.0,2373
5570,2140570,17868,5196,1644,18680.65,26.65,-1.00,-1.0,2452
5572,2140572,16096,-1244,840,16165.84,26.60,-1.00,-1.0,2354
5575,2140575,16848,-6404,760,18040.06,26.55,-1.00,-1.0,2440
5578,2140578,16292,1444,1500,16424.51,26.69,-1.00,-1.0,2366
5581,2140581,16456,6204,2352,17743.21,26.65,-1.00,-1.0,2444
5583,2140583,16276,3752,1276,16751.53,26.69,-1.00,-1.0,2367
5586,2140586,19060,664,320,19074.25,26.65,-1.00,-1.0,2439
5589,2140589,15412,-1480,1800,15587.18,26.60,-1.00,-1.0,2367
5594,2140594,16096,124,1304,16149.21,26.60,-1.00,-1.0,2446
5597,2140597,17412,2772,2208,17768.99,26.60,-1.00,-1.0,2370
5599,2140599,16836,2180,2704,17190.55,26.60,-1.00,-1.0,2362
5602,2140602,17592,-2488,632,17778.30,26.60,-1.00,-1.0,2436
5605,2140605,17096,-3688,1160,17527.70,26.60,-1.00,-1.0,2368
5607,2140607,16700,1040,2172,16872.73,26.55,-1.00,-1.0,2424
5610,2140610,16916,4064,1828,17493.11,26.60,-1.00,-1.0,2366
5613,2140613,17748,584,904,17780.60,26.69,-1.00,-1.0,2439
5616,2140616,16428,-2216,824,16597.25,26.69,-1.00,-1.0,2367
5620,2140620,16984,160,864,17006.71,26.65,-1.00,-1.0,2444
5623,2140623,17408,4720,1608,18108.08,26.69,-1.00,-1.0,2366
5626,2140626,16740,3232,2328,17207.35,26.60,-1.00,-1.0,2437
5629,2140629,16792,-1324,1192,16886.24,26.60,-1.00,-1.0,2368
5631,2140631,17100,-4764,52,17751.29,26.65,-1.00,-1.0,2436
5634,2140634,16640,596,2132,16786.61,26.69,-1.00,-1.0,2366
5637,2140637,17080,4712,2460,17888.01,26.60,-1.00,-1.0,2437
5640,2140640,17084,2776,1532,17375.74,26.60,-1.00,-1.0,2367
5642,2140642,16740,-2524,1280,16977.53,26.65,-1.00,-1.0,2362
5647,2140647,17352,804,1740,17457.55,26.65,-1.00,-1.0,2444
5650,2140650,17260,3036,1472,17586.69,26.74,-1.00,-1.0,2367
5652,2140652,16872,528,1208,16923.43,26.65,-1.00,-1.0,2440
5655,2140655,17212,-3372,1324,17589.10,26.65,-1.00,-1.0,2366
5658,2140658,16912,388,1492,16982.12,26.65,-1.00,-1.0,2437
5661,2140661,17232,3224,1696,17612.85,26.55,-1.00,-1.0,2367
5663,2140663,17072,1184,1792,17206.58,26.65,-1.00,-1.0,2424
5666,2140666,16932,-2688,956,17170.67,26.65,-1.00,-1.0,2366
5671,2140671,16932,2412,1088,17137.51,26.65,-1.00,-1.0,2452
5674,2140674,16924,3280,1568,17310.08,26.60,-1.00,-1.0,2355
5677,2140677,17196,660,1644,17287.01,26.65,-1.00,-1.0,2445
5679,2140679,16648,-584,1640,16738.77,26.60,-1.00,-1.0,2374
5682,2140682,17088,-492,1368,17149.73,26.65,-1.00,-1.0,2437
5685,2140685,16940,340,1684,17026.89,26.51,-1.00,-1.0,2367
5687,2140687,17008,24,1632,17086.14,26.46,-1.00,-1.0,2361
5690,2140690,17112,-976,1084,17174.05,26.65,-1.00,-1.0,2422
5693,2140693,17352,-884,1252,17419.55,26.69,-1.00,-1.0,2366
5698,2140698,17176,556,1940,17294.15,26.51,-1.00,-1.0,2432
5701,2140701,17028,208,1644,17108.44,26.60,-1.00,-1.0,2372
5703,2140703,16592,-1092,1304,16678.95,26.65,-1.00,-1.0,2445
5706,2140706,16760,-1120,1280,16846.08,26.69,-1.00,-1.0,2381
5709,2140709,16808,1004,1392,16895.40,26.60,-1.00,-1.0,2438
5712,2140712,16804,1716,1544,16961.81,26.60,-1.00,-1.0,2371
5714,2140714,17148,1244,1716,17278.49,26.55,-1.00,-1.0,2446
5717,2140717,17148,1216,1824,17287.55,26.60,-1.00,-1.0,2381
5722,2140722,17028,208,1248,17074.94,26.60,-1.00,-1.0,2444
5725,2140725,16920,-344,1372,16979.02,26.60,-1.00,-1.0,2361
5728,2140728,17008,36,1428,17067.88,26.60,-1.00,-1.0,2439
5730,2140730,17060,880,1040,17114.31,26.60,-1.00,-1.0,2370
5733,2140733,17052,320,956,17081.78,26.69,-1.00,-1.0,2365
5736,2140736,16840,-508,1468,16911.50,26.65,-1.00,-1.0,2449
5738,2140738,16712,-580,1556,16794.30,26.60,-1.00,-1.0,2375
5741,2140741,16952,12,1444,17013.39,26.65,-1.00,-1.0,2447
5744,2140744,17124,636,1272,17182.95,26.69,-1.00,-1.0,2368
5749,2140749,17224,636,1472,17298.48,26.69,-1.00,-1.0,2452
5751,2140751,17304,-88,1160,17343.06,26.60,-1.00,-1.0,2366
5754,2140754,17156,160,1444,17217.41,26.55,-1.00,-1.0,2456
5757,2140757,16964,1488,1644,17108.31,26.69,-1.00,-1.0,2366
5760,2140760,16740,1668,1408,16881.71,26.69,-1.00,-1.0,2447
5762,2140762,16684,744,900,16724.81,26.60,-1.00,-1.0,2366
5765,2140765,16860,-572,680,16883.40,26.74,-1.00,-1.0,2455
5768,2140768,16688,628,1100,16736.00,26.69,-1.00,-1.0,2366
5771,2140771,16976,1160,1684,17098.71,26.65,-1.00,-1.0,2363
5776,2140776,17272,-1024,1596,17375.78,26.65,-1.00,-1.0,2450
5778,2140778,17332,-564,1660,17420.45,26.60,-1.00,-1.0,2369
5781,2140781,17340,628,1796,17444.07,26.65,-1.00,-1.0,2449
5784,2140784,17324,280,1728,17412.22,26.69,-1.00,-1.0,2372
5787,2140787,16984,-684,1864,17099.67,26.55,-1.00,-1.0,2447
5789,2140789,16844,-496,1756,16942.55,26.65,-1.00,-1.0,2373
5792,2140792,16872,864,1560,16965.98,26.65,-1.00,-1.0,2446
5795,2140795,16884,1724,1340,17024.61,26.69,-1.00,-1.0,2373
5800,2140800,16696,-64,1084,16731.28,26.60,-1.00,-1.0,2453
5802,2140802,16892,-420,948,16923.79,26.51,-1.00,-1.0,2366
5805,2140805,17076,96,1108,17112.18,26.65,-1.00,-1.0,2457
5808,2140808,17052,312,1460,17117.23,26.69,-1.00,-1.0,2366
5811,2140811,17204,204,1496,17270.12,26.60,-1.00,-1.0,2444
5814,2140814,17124,344,1652,17206.94,26.65,-1.00,-1.0,2431
5816,2140816,17148,216,1700,17233.41,26.65,-1.00,-1.0,2366
5819,2140819,17044,12,1712,17129.77,26.65,-1.00,-1.0,2440
5822,2140822,16844,-52,1868,16947.34,26.60,-1.00,-1.0,2379
5829,2140829,17012,1004,1392,17098.36,26.65,-1.00,-1.0,2450
5831,2140831,17156,1608,1384,17286.68,26.65,-1.00,-1.0,2376
5834,2140834,17032,1308,1432,17142.07,26.69,-1.00,-1.0,2435
5837,2140837,16960,-60,1340,17012.96,26.65,-1.00,-1.0,2353
5840,2140840,16968,-720,1408,17041.54,26.60,-1.00,-1.0,2451
5842,2140842,16968,-376,1416,17031.13,26.65,-1.00,-1.0,2374
5845,2140845,17148,160,1696,17232.41,26.60,-1.00,-1.0,2444
5848,2140848,17068,20,1704,17152.86,26.65,-1.00,-1.0,2368
5853,2140853,17184,640,1460,17257.78,26.60,-1.00,-1.0,2451
5855,2140855,17100,856,1472,17184.57,26.60,-1.00,-1.0,2373
5858,2140858,16984,212,1512,17052.49,26.69,-1.00,-1.0,2360
5861,2140861,16792,-624,1304,16854.11,26.69,-1.00,-1.0,2442
5863,2140863,16812,-276,1172,16855.06,26.51,-1.00,-1.0,2366
5866,2140866,16956,1232,1288,17049.42,26.60,-1.00,-1.0,2436
5869,2140869,17092,1620,1580,17241.15,26.51,-1.00,-1.0,2365
5872,2140872,16964,308,1672,17048.98,26.60,-1.00,-1.0,2433
5874,2140874,17000,-440,1520,17073.49,26.60,-1.00,-1.0,2369
5879,2140879,17172,220,1328,17224.68,26.60,-1.00,-1.0,2454
5882,2140882,17252,268,1308,17303.59,26.74,-1.00,-1.0,2373
5885,2140885,17212,144,1456,17274.07,26.60,-1.00,-1.0,2424
5887,2140887,16984,260,1524,17054.22,26.65,-1.00,-1.0,2365
5890,2140890,16792,572,1332,16854.46,26.60,-1.00,-1.0,2450
5893,2140893,16932,560,1504,17007.89,26.65,-1.00,-1.0,2364
5896,2140896,16940,556,1232,16993.84,26.60,-1.00,-1.0,2361
5898,2140898,16924,348,1072,16961.49,26.60,-1.00,-1.0,2425
5901,2140901,16948,-44,1100,16983.72,26.60,-1.00,-1.0,2381
5906,2140906,17080,780,1372,17152.76,26.65,-1.00,-1.0,2443
5909,2140909,17152,924,1356,17230.31,26.55,-1.00,-1.0,2372
5912,2140912,17052,196,1300,17102.61,26.55,-1.00,-1.0,2438
5914,2140914,16928,12,1288,16976.93,26.55,-1.00,-1.0,2366
5917,2140917,16928,140,1300,16978.42,26.65,-1.00,-1.0,2435
5920,2140920,16824,340,1508,16894.87,26.60,-1.00,-1.0,2365
5923,2140923,16828,-92,1588,16903.01,26.65,-1.00,-1.0,2437
5925,2140925,16948,-100,1848,17048.75,26.65,-1.00,-1.0,2353
5930,2140930,17168,928,1904,17298.17,26.69,-1.00,-1.0,2449
5933,2140933,17352,644,1820,17459.07,26.69,-1.00,-1.0,2365
5935,2140935,17228,-20,1736,17315.26,26.65,-1.00,-1.0,2360
5938,2140938,17244,-180,1600,17319.01,26.65,-1.00,-1.0,2435
5941,2140941,17068,244,1456,17131.73,26.60,-1.00,-1.0,2368
5944,2140944,16844,676,1348,16911.37,26.60,-1.00,-1.0,2432
5946,2140946,16776,440,1372,16837.76,26.60,-1.00,-1.0,2368
5949,2140949,16708,-168,1244,16755.09,26.65,-1.00,-1.0,2436
5952,2140952,16872,-76,1184,16913.66,26.69,-1.00,-1.0,2367
5957,2140957,16956,836,1424,17036.21,26.69,-1.00,-1.0,2450
5959,2140959,17160,420,1412,17223.12,26.69,-1.00,-1.0,2365
5962,2140962,17176,-112,1448,17237.29,26.69,-1.00,-1.0,2450
5965,2140965,17052,-496,1468,17122.26,26.69,-1.00,-1.0,2365
5968,2140968,17088,68,1516,17155.25,26.60,-1.00,-1.0,2443
5970,2140970,16964,500,1600,17046.62,26.60,-1.00,-1.0,2365
5973,2140973,16976,524,1520,17051.97,26.69,-1.00,-1.0,2367
5976,2140976,17024,348,1556,17098.50,26.65,-1.00,-1.0,2437
5979,2140979,16872,192,1288,16922.18,26.60,-1.00,-1.0,2377
5984,2140984,17012,776,1352,17083.27,26.60,-1.00,-1.0,2444
5986,2140986,16984,852,1328,17057.13,26.69,-1.00,-1.0,2368
5989,2140989,16960,180,1192,17002.79,26.69,-1.00,-1.0,2436
5992,2140992,16992,-256,1016,17024.27,26.65,-1.00,-1.0,2373
5995,2140995,17092,148,1540,17161.88,26.60,-1.00,-1.0,2437
5997,2140997,16988,588,1488,17063.18,26.65,-1.00,-1.0,2434
6000,2141000,17060,560,1612,17145.14,26.60,-1.00,-1.0,2437
6003,2141003,16992,52,1436,17052.65,26.65,-1.00,-1.0,2372
6008,2141008,17000,476,1452,17068.54,26.65,-1.00,-1.0,2444
6011,2141011,17008,572,1396,17074.78,26.69,-1.00,-1.0,2368
6013,2141013,16996,448,1368,17056.85,26.65,-1.00,-1.0,2360
6016,2141016,16976,120,1372,17031.78,26.51,-1.00,-1.0,2436
6019,2141019,16852,816,1600,16947.44,26.55,-1.00,-1.0,2368
6021,2141021,16984,1040,1724,17102.92,26.69,-1.00,-1.0,2424
6024,2141024,16872,404,1468,16940.56,26.65,-1.00,-1.0,2366
6027,2141027,17056,-272,1452,17119.86,26.60,-1.00,-1.0,2439
6030,2141030,17176,124,1344,17228.95,26.65,-1.00,-1.0,2366
6034,2141034,17168,632,1560,17250.31,26.60,-1.00,-1.0,2445
6037,2141037,17092,352,1284,17143.78,26.74,-1.00,-1.0,2365
6040,2141040,17000,256,1376,17057.52,26.60,-1.00,-1.0,2436
6043,2141043,16932,556,1372,16996.59,26.65,-1.00,-1.0,2366
6045,2141045,16836,604,1344,16900.36,26.69,-1.00,-1.0,2437
6048,2141048,16856,604,1248,16912.93,26.55,-1.00,-1.0,2366
6051,2141051,16836,308,1356,16893.33,26.60,-1.00,-1.0,2361
6054,2141054,16924,468,1416,16989.58,26.51,-1.00,-1.0,2437
6056,2141056,17040,528,1484,17112.65,26.60,-1.00,-1.0,2366
6061,2141061,17172,168,1636,17250.57,26.69,-1.00,-1.0,2444
6064,2141064,17268,-212,1624,17345.49,26.60,-1.00,-1.0,2366
6066,2141066,17180,-88,1520,17247.33,26.60,-1.00,-1.0,2438
6069,2141069,17056,84,1412,17114.55,26.69,-1.00,-1.0,2367
6072,2141072,16968,184,1584,17042.77,26.60,-1.00,-1.0,2436
6075,2141075,16992,300,1424,17054.20,26.69,-1.00,-1.0,2366
6077,2141077,16996,564,1520,17073.15,26.60,-1.00,-1.0,2438
6080,2141080,16956,688,1432,17030.26,26.69,-1.00,-1.0,2367
