timestamp_ms,global_ms,accel_x,accel_y,accel_z,accel_mag,temp_c,voltage,soc,loop_us
3,2135003,17216,1440,1476,17339.05,25.24,-1.00,-1.0,2494
9,2135009,16860,-488,1476,16931.52,25.19,-1.00,-1.0,2463
12,2135012,17052,-300,1908,17161.04,25.28,-1.00,-1.0,2364
15,2135015,17336,836,1764,17445.56,25.14,-1.00,-1.0,2447
17,2135017,17192,168,1628,17269.73,25.19,-1.00,-1.0,2360
20,2135020,17140,-1464,1840,17300.54,25.33,-1.00,-1.0,2369
23,2135023,16916,-336,2032,17040.92,25.24,-1.00,-1.0,2440
26,2135026,16936,460,1768,17034.25,25.24,-1.00,-1.0,2368
28,2135028,17152,-192,1260,17199.29,25.24,-1.00,-1.0,2447
31,2135031,17208,-284,1188,17251.30,25.19,-1.00,-1.0,2374
36,2135036,16732,1592,1348,16861.54,25.24,-1.00,-1.0,2445
39,2135039,16908,564,1296,16966.97,25.24,-1.00,-1.0,2365
41,2135041,16604,-248,1188,16648.29,25.28,-1.00,-1.0,2439
44,2135044,17072,1540,1256,17187.27,25.24,-1.00,-1.0,2367
47,2135047,17092,2132,1416,17282.56,25.19,-1.00,-1.0,2362
49,2135049,16924,228,1124,16962.82,25.19,-1.00,-1.0,2433
52,2135052,17068,-588,1224,17121.93,25.19,-1.00,-1.0,2366
55,2135055,16944,592,1772,17046.69,25.19,-1.00,-1.0,2420
58,2135058,17140,292,1888,17246.14,25.14,-1.00,-1.0,2365
63,2135063,17136,-616,1788,17240.04,25.24,-1.00,-1.0,2446
65,2135065,17184,896,1564,17278.28,25.24,-1.00,-1.0,2367
68,2135068,17256,508,1392,17319.51,25.14,-1.00,-1.0,2448
71,2135071,16908,-556,1288,16966.10,25.14,-1.00,-1.0,2366
74,2135074,16948,-136,1536,17018.01,25.14,-1.00,-1.0,2447
76,2135076,16792,1204,1416,16894.55,25.24,-1.00,-1.0,2362
79,2135079,16916,1320,1140,17005.68,25.24,-1.00,-1.0,2362
82,2135082,16864,1192,1060,16939.27,25.19,-1.00,-1.0,2443
84,2135084,16872,1280,1148,16959.38,25.24,-1.00,-1.0,2375
89,2135089,16988,-804,1408,17065.20,25.24,-1.00,-1.0,2453
92,2135092,17064,-1448,1508,17191.59,25.24,-1.00,-1.0,2370
95,2135095,17156,-200,1752,17246.39,25.14,-1.00,-1.0,2442
97,2135097,17256,664,1724,17354.61,25.24,-1.00,-1.0,2360
100,2135100,17132,732,1944,17257.47,25.24,-1.00,-1.0,2452
103,2135103,17132,240,1976,17247.25,25.19,-1.00,-1.0,2360
106,2135106,16972,120,1864,17074.47,25.24,-1.00,-1.0,2366
108,2135108,16816,-8,1748,16906.61,25.19,-1.00,-1.0,2436
111,2135111,17020,144,1496,17086.23,25.24,-1.00,-1.0,2379
116,2135116,17156,1492,1164,17260.05,25.14,-1.00,-1.0,2458
119,2135119,17044,1504,1424,17169.38,25.24,-1.00,-1.0,2370
122,2135122,16968,960,1312,17045.70,25.19,-1.00,-1.0,2448
124,2135124,16980,144,1212,17023.81,25.14,-1.00,-1.0,2362
127,2135127,16932,-400,1304,16986.85,25.19,-1.00,-1.0,2452
130,2135130,16796,-580,1536,16876.06,25.24,-1.00,-1.0,2370
133,2135133,16880,-436,1652,16966.25,25.19,-1.00,-1.0,2451
135,2135135,17156,172,1580,17229.46,25.33,-1.00,-1.0,2364
140,2135140,17096,412,1540,17170.16,25.33,-1.00,-1.0,2443
143,2135143,16924,-580,1328,16985.93,25.19,-1.00,-1.0,2362
146,2135146,16884,-644,1232,16941.13,25.24,-1.00,-1.0,2361
148,2135148,17036,440,1216,17085.01,25.19,-1.00,-1.0,2448
151,2135151,17084,1344,1220,17180.16,25.14,-1.00,-1.0,2366
154,2135154,16832,1080,1420,16926.28,25.19,-1.00,-1.0,2445
156,2135156,16856,856,1520,16946.03,25.14,-1.00,-1.0,2359
159,2135159,16928,724,1760,17034.64,25.28,-1.00,-1.0,2456
162,2135162,16956,432,1476,17025.60,25.24,-1.00,-1.0,2360
167,2135167,17192,-172,1592,17266.41,25.24,-1.00,-1.0,2442
170,2135170,17008,344,1788,17105.19,25.19,-1.00,-1.0,2362
173,2135173,17096,540,1924,17212.40,25.24,-1.00,-1.0,2438
175,2135175,16964,540,1832,17071.18,25.19,-1.00,-1.0,2367
178,2135178,16888,404,1728,16980.98,25.28,-1.00,-1.0,2361
181,2135181,16880,152,1508,16947.91,25.24,-1.00,-1.0,2445
183,2135183,17004,-116,1276,17052.20,25.24,-1.00,-1.0,2359
186,2135186,17020,-280,1240,17067.41,25.24,-1.00,-1.0,2439
189,2135189,16936,-28,1144,16974.62,25.19,-1.00,-1.0,2363
194,2135194,16968,580,1380,17033.90,25.19,-1.00,-1.0,2446
197,2135197,16904,456,1248,16956.14,25.28,-1.00,-1.0,2370
199,2135199,16960,408,1404,17022.90,25.19,-1.00,-1.0,2447
202,2135202,16876,532,1456,16947.04,25.28,-1.00,-1.0,2367
205,2135205,16984,108,1448,17045.96,25.19,-1.00,-1.0,2429
207,2135207,16888,-212,1428,16949.59,25.19,-1.00,-1.0,2359
210,2135210,17048,-44,1416,17106.76,25.19,-1.00,-1.0,2368
213,2135213,17148,568,1484,17221.46,25.19,-1.00,-1.0,2442
216,2135216,17100,596,1604,17185.40,25.09,-1.00,-1.0,2364
221,2135221,17188,152,1508,17254.70,25.19,-1.00,-1.0,2446
223,2135223,17116,288,1464,17180.91,25.19,-1.00,-1.0,2364
226,2135226,16964,412,1144,17007.52,25.19,-1.00,-1.0,2454
229,2135229,16820,64,1184,16861.74,25.19,-1.00,-1.0,2369
232,2135232,16776,36,1228,16820.92,25.19,-1.00,-1.0,2451
234,2135234,16816,508,1408,16882.49,25.19,-1.00,-1.0,2362
237,2135237,16940,572,1332,17001.91,25.09,-1.00,-1.0,2453
240,2135240,16936,188,1584,17010.95,25.19,-1.00,-1.0,2367
243,2135243,16988,96,1596,17063.08,25.19,-1.00,-1.0,2368
248,2135248,17084,24,1716,17169.98,25.19,-1.00,-1.0,2442
250,2135250,17140,-232,1444,17202.28,25.28,-1.00,-1.0,2363
253,2135253,17024,0,1376,17079.52,25.24,-1.00,-1.0,2454
256,2135256,16940,316,1784,17036.61,25.28,-1.00,-1.0,2363
259,2135259,16872,496,1748,16969.56,25.19,-1.00,-1.0,2440
261,2135261,16860,748,1408,16935.22,25.19,-1.00,-1.0,2361
264,2135264,17064,592,1440,17134.88,25.19,-1.00,-1.0,2439
267,2135267,16968,416,1360,17027.50,25.28,-1.00,-1.0,2367
270,2135270,16992,320,1372,17050.30,25.19,-1.00,-1.0,2363
275,2135275,17008,-120,1480,17072.69,25.19,-1.00,-1.0,2453
277,2135277,16916,-344,1368,16974.71,25.19,-1.00,-1.0,2363
280,2135280,16880,-264,1544,16952.52,25.28,-1.00,-1.0,2442
283,2135283,16996,320,1620,17076.03,25.19,-1.00,-1.0,2359
286,2135286,16960,548,1440,17029.84,25.19,-1.00,-1.0,2449
288,2135288,17040,324,1688,17126.47,25.19,-1.00,-1.0,2361
291,2135291,17000,384,1564,17076.11,25.19,-1.00,-1.0,2441
294,2135294,16992,480,1292,17047.81,25.19,-1.00,-1.0,2359
299,2135299,17176,196,1412,17235.05,25.24,-1.00,-1.0,2444
302,2135302,17096,496,1676,17185.12,25.24,-1.00,-1.0,2369
304,2135304,17016,908,1552,17110.74,25.19,-1.00,-1.0,2356
307,2135307,16976,884,1604,17074.51,25.19,-1.00,-1.0,2439
310,2135310,16992,444,1692,17081.80,25.19,-1.00,-1.0,2366
312,2135312,17044,196,1708,17130.49,25.28,-1.00,-1.0,2433
315,2135315,17072,260,1616,17150.28,25.24,-1.00,-1.0,2365
318,2135318,17044,272,1608,17121.85,25.19,-1.00,-1.0,2434
321,2135321,17040,388,1588,17118.23,25.24,-1.00,-1.0,2368
326,2135326,17064,952,1608,17166.02,25.33,-1.00,-1.0,2452
329,2135329,16820,608,1580,16904.98,25.14,-1.00,-1.0,2366
331,2135331,16836,256,1464,16901.47,25.14,-1.00,-1.0,2447
334,2135334,16924,208,1456,16987.79,25.24,-1.00,-1.0,2369
337,2135337,17036,608,1528,17115.19,25.24,-1.00,-1.0,2364
339,2135339,16964,592,1440,17035.30,25.19,-1.00,-1.0,2432
342,2135342,16992,396,1408,17054.83,25.14,-1.00,-1.0,2373
345,2135345,17072,248,1588,17147.49,25.19,-1.00,-1.0,2441
348,2135348,17136,172,1408,17194.61,25.19,-1.00,-1.0,2366
353,2135353,17000,-252,1380,17057.78,25.28,-1.00,-1.0,2446
356,2135356,16964,208,1452,17027.30,25.24,-1.00,-1.0,2373
358,2135358,16972,532,1292,17029.42,25.19,-1.00,-1.0,2441
361,2135361,16872,652,1448,16946.57,25.14,-1.00,-1.0,2374
364,2135364,16968,500,1224,17019.44,25.19,-1.00,-1.0,2443
367,2135367,16964,576,1236,17018.72,25.24,-1.00,-1.0,2367
369,2135369,16992,444,1292,17046.83,25.28,-1.00,-1.0,2362
372,2135372,17008,108,1356,17062.31,25.24,-1.00,-1.0,2432
375,2135375,17068,268,1368,17124.83,25.09,-1.00,-1.0,2365
380,2135380,17088,472,1400,17151.75,25.19,-1.00,-1.0,2446
383,2135383,17012,224,1500,17079.47,25.28,-1.00,-1.0,2369
385,2135385,17100,108,1528,17168.47,25.19,-1.00,-1.0,2439
388,2135388,16988,180,1568,17061.16,25.28,-1.00,-1.0,2367
391,2135391,17028,-48,1572,17100.48,25.19,-1.00,-1.0,2439
394,2135394,17036,-204,1484,17101.73,25.14,-1.00,-1.0,2365
396,2135396,17028,-40,1444,17089.16,25.19,-1.00,-1.0,2446
399,2135399,17108,264,1356,17163.69,25.14,-1.00,-1.0,2374
402,2135402,17032,424,1356,17091.15,25.19,-1.00,-1.0,2360
407,2135407,16940,476,1324,16998.33,25.28,-1.00,-1.0,2443
410,2135410,16888,536,1372,16952.12,25.19,-1.00,-1.0,2368
412,2135412,16936,308,1264,16985.90,25.24,-1.00,-1.0,2432
415,2135415,16880,52,1488,16945.54,25.19,-1.00,-1.0,2368
418,2135418,16976,252,1552,17048.66,25.19,-1.00,-1.0,2433
421,2135421,17096,348,1528,17167.68,25.19,-1.00,-1.0,2369
423,2135423,17064,204,1592,17139.32,25.09,-1.00,-1.0,2433
426,2135426,17092,-16,1468,17154.93,25.19,-1.00,-1.0,2373
431,2135431,17028,-76,1488,17093.06,25.24,-1.00,-1.0,2443
434,2135434,16920,84,1548,16990.87,25.19,-1.00,-1.0,2368
436,2135436,16996,320,1484,17063.67,25.24,-1.00,-1.0,2356
439,2135439,16884,592,1604,16970.35,25.24,-1.00,-1.0,2439
442,2135442,16860,760,1540,16947.24,25.28,-1.00,-1.0,2366
444,2135444,16984,600,1512,17061.72,25.24,-1.00,-1.0,2433
447,2135447,16936,512,1468,17007.21,25.24,-1.00,-1.0,2365
450,2135450,17044,484,1672,17132.65,25.28,-1.00,-1.0,2449
453,2135453,16952,380,1504,17022.83,25.24,-1.00,-1.0,2366
458,2135458,17012,364,1584,17089.46,25.28,-1.00,-1.0,2448
460,2135460,17028,400,1552,17103.26,25.24,-1.00,-1.0,2362
463,2135463,17024,340,1640,17106.19,25.28,-1.00,-1.0,2376
466,2135466,17060,108,1624,17137.46,25.19,-1.00,-1.0,2440
469,2135469,16944,44,1408,17002.46,25.28,-1.00,-1.0,2367
471,2135471,16956,184,1372,17012.41,25.19,-1.00,-1.0,2448
474,2135474,17004,144,1096,17039.89,25.19,-1.00,-1.0,2365
477,2135477,16992,192,1088,17027.88,25.19,-1.00,-1.0,2454
480,2135480,16904,388,1164,16948.47,25.28,-1.00,-1.0,2360
485,2135485,16956,440,1348,17015.19,25.09,-1.00,-1.0,2442
488,2135488,16984,588,1440,17055.08,25.33,-1.00,-1.0,2375
491,2135491,17032,452,1636,17116.36,25.28,-1.00,-1.0,2434
493,2135493,16992,420,1744,17086.43,25.24,-1.00,-1.0,2365
496,2135496,17088,348,1604,17166.64,25.19,-1.00,-1.0,2368
499,2135499,17076,140,1688,17159.80,25.19,-1.00,-1.0,2450
501,2135501,17080,-12,1684,17162.82,25.19,-1.00,-1.0,2363
504,2135504,17028,12,1284,17076.35,25.14,-1.00,-1.0,2447
507,2135507,16964,96,1364,17019.02,25.19,-1.00,-1.0,2367
512,2135512,16976,196,1272,17024.72,25.19,-1.00,-1.0,2443
515,2135515,16900,300,1252,16948.97,25.19,-1.00,-1.0,2377
518,2135518,16900,336,1240,16948.76,25.28,-1.00,-1.0,2432
520,2135520,16868,204,1280,16917.73,25.19,-1.00,-1.0,2365
523,2135523,17060,416,1224,17108.91,25.19,-1.00,-1.0,2433
526,2135526,16968,468,1480,17038.85,25.33,-1.00,-1.0,2365
528,2135528,16940,636,1760,17043.05,25.19,-1.00,-1.0,2361
531,2135531,17108,540,1724,17203.12,25.14,-1.00,-1.0,2438
534,2135534,17132,516,1764,17230.30,25.24,-1.00,-1.0,2368
539,2135539,17116,328,1732,17206.54,25.33,-1.00,-1.0,2457
542,2135542,16984,292,1816,17083.31,25.19,-1.00,-1.0,2369
545,2135545,17092,336,1524,17163.10,25.19,-1.00,-1.0,2448
547,2135547,17000,496,1552,17077.90,25.19,-1.00,-1.0,2364
550,2135550,16984,376,1268,17035.42,25.24,-1.00,-1.0,2454
553,2135553,17016,264,1268,17065.22,25.28,-1.00,-1.0,2367
556,2135556,16924,108,1224,16968.55,25.19,-1.00,-1.0,2453
558,2135558,16944,264,1208,16989.06,25.19,-1.00,-1.0,2363
561,2135561,16860,212,1268,16908.94,25.24,-1.00,-1.0,2364
566,2135566,16888,228,1416,16948.79,25.14,-1.00,-1.0,2457
569,2135569,17016,252,1436,17078.34,25.14,-1.00,-1.0,2370
572,2135572,17020,152,1592,17094.97,25.24,-1.00,-1.0,2451
574,2135574,17052,308,1640,17133.45,25.14,-1.00,-1.0,2362
577,2135577,17112,404,1648,17195.92,25.33,-1.00,-1.0,2448
580,2135580,17008,516,1696,17100.14,25.33,-1.00,-1.0,2367
583,2135583,17096,512,1664,17184.42,25.24,-1.00,-1.0,2448
585,2135585,17028,376,1628,17109.78,25.14,-1.00,-1.0,2362
590,2135590,17008,216,1496,17075.03,25.28,-1.00,-1.0,2443
593,2135593,16912,240,1404,16971.88,25.19,-1.00,-1.0,2362
596,2135596,16960,332,1492,17028.74,25.24,-1.00,-1.0,2422
599,2135599,17024,448,1440,17090.67,25.24,-1.00,-1.0,2454
601,2135601,17060,396,1504,17130.75,25.28,-1.00,-1.0,2359
604,2135604,17032,448,1400,17095.31,25.14,-1.00,-1.0,2439
607,2135607,17140,376,1568,17215.68,25.09,-1.00,-1.0,2358
610,2135610,17116,420,1560,17192.08,25.24,-1.00,-1.0,2441
612,2135612,16956,412,1356,17015.12,25.19,-1.00,-1.0,2360
617,2135617,17032,264,1448,17095.48,25.28,-1.00,-1.0,2438
620,2135620,16996,396,1524,17068.79,25.24,-1.00,-1.0,2363
623,2135623,17012,168,1356,17066.78,25.28,-1.00,-1.0,2360
625,2135625,17008,208,1260,17055.88,25.19,-1.00,-1.0,2423
628,2135628,16996,232,1292,17046.62,25.19,-1.00,-1.0,2365
631,2135631,16964,404,1416,17027.79,25.19,-1.00,-1.0,2431
634,2135634,17028,440,1400,17091.12,25.28,-1.00,-1.0,2364
636,2135636,16996,412,1424,17060.53,25.19,-1.00,-1.0,2432
639,2135639,16956,360,1596,17034.75,25.09,-1.00,-1.0,2365
644,2135644,17008,468,1428,17074.26,25.14,-1.00,-1.0,2438
647,2135647,17156,448,1500,17227.28,25.19,-1.00,-1.0,2366
649,2135649,17048,420,1408,17111.20,25.28,-1.00,-1.0,2436
652,2135652,17028,408,1372,17088.05,25.28,-1.00,-1.0,2364
655,2135655,16840,356,1348,16897.62,25.24,-1.00,-1.0,2358
658,2135658,16992,184,1452,17054.92,25.24,-1.00,-1.0,2437
660,2135660,16904,284,1320,16957.84,25.14,-1.00,-1.0,2359
663,2135663,17024,220,1336,17077.76,25.14,-1.00,-1.0,2438
666,2135666,17116,132,1452,17177.99,25.24,-1.00,-1.0,2358
671,2135671,16948,92,1444,17009.65,25.24,-1.00,-1.0,2438
674,2135674,16924,60,1572,16996.96,25.28,-1.00,-1.0,2367
676,2135676,16992,8,1656,17072.51,25.19,-1.00,-1.0,2422
679,2135679,17032,160,1688,17116.19,25.19,-1.00,-1.0,2364
682,2135682,16992,212,1628,17071.13,25.24,-1.00,-1.0,2434
685,2135685,16996,284,1740,17087.20,25.19,-1.00,-1.0,2365
687,2135687,17020,296,1616,17099.11,25.24,-1.00,-1.0,2356
690,2135690,17120,456,1600,17200.65,25.19,-1.00,-1.0,2444
693,2135693,16880,616,1612,16967.98,25.24,-1.00,-1.0,2359
698,2135698,16980,456,1580,17059.45,25.24,-1.00,-1.0,2424
701,2135701,17056,360,1524,17127.73,25.28,-1.00,-1.0,2361
704,2135704,17012,316,1592,17089.25,25.24,-1.00,-1.0,2441
706,2135706,17048,80,1368,17102.99,25.19,-1.00,-1.0,2348
709,2135709,17008,252,1516,17077.29,25.24,-1.00,-1.0,2438
712,2135712,17020,208,1508,17087.94,25.28,-1.00,-1.0,2345
714,2135714,17000,312,1604,17078.35,25.28,-1.00,-1.0,2360
717,2135717,17028,332,1612,17107.35,25.19,-1.00,-1.0,2444
720,2135720,17060,268,1596,17136.59,25.14,-1.00,-1.0,2365
725,2135725,17080,320,1424,17142.25,25.24,-1.00,-1.0,2440
728,2135728,17008,420,1500,17079.18,25.24,-1.00,-1.0,2361
731,2135731,16964,460,1336,17022.74,25.24,-1.00,-1.0,2447
733,2135733,16940,456,1356,17000.30,25.28,-1.00,-1.0,2360
736,2135736,16980,572,1368,17044.62,25.14,-1.00,-1.0,2439
739,2135739,17000,524,1372,17063.32,25.24,-1.00,-1.0,2358
742,2135742,16972,432,1312,17028.12,25.24,-1.00,-1.0,2446
744,2135744,18148,-732,9260,20387.09,25.19,-1.00,-1.0,2362
747,2135747,14104,4208,-4076,15272.32,25.19,-1.00,-1.0,2363
752,2135752,11016,-268,-5872,12486.17,25.19,-1.00,-1.0,2439
755,2135755,32767,7356,-20856,39531.76,25.14,-1.00,-1.0,2361
758,2135758,-4720,-2840,-224,5513.09,25.19,-1.00,-1.0,2443
760,2135760,32072,-14080,-28,35026.57,25.33,-1.00,-1.0,2360
763,2135763,-3528,-8360,644,9096.76,25.19,-1.00,-1.0,2438
766,2135766,32767,3984,-6768,33695.02,25.24,-1.00,-1.0,2361
769,2135769,-2660,10120,10940,15138.48,25.24,-1.00,-1.0,2444
771,2135771,32767,-996,-1260,32806.34,25.24,-1.00,-1.0,2361
779,2135779,24224,-4472,3500,24880.73,25.19,-1.00,-1.0,2444
781,2135781,6820,-14632,1636,16226.04,25.19,-1.00,-1.0,2362
784,2135784,24804,1568,3908,25158.88,25.19,-1.00,-1.0,2445
787,2135787,11912,17256,5368,21644.42,25.19,-1.00,-1.0,2361
790,2135790,23140,1016,968,23182.51,25.19,-1.00,-1.0,2443
792,2135792,11028,-8940,-2264,14375.89,25.24,-1.00,-1.0,2346
795,2135795,20548,228,4024,20939.55,25.28,-1.00,-1.0,2367
798,2135798,13360,5764,-3352,14931.48,25.24,-1.00,-1.0,2447
800,2135800,17576,-11872,1168,21242.04,25.19,-1.00,-1.0,2361
805,2135805,20700,11072,716,23485.99,25.28,-1.00,-1.0,2425
808,2135808,16116,14824,2460,22034.70,25.24,-1.00,-1.0,2362
811,2135811,19212,-764,1168,19262.63,25.28,-1.00,-1.0,2443
814,2135814,13528,-5708,3292,15047.44,25.24,-1.00,-1.0,2363
816,2135816,20136,5372,1788,20916.83,25.19,-1.00,-1.0,2430
819,2135819,14328,2208,1308,14556.02,25.14,-1.00,-1.0,2365
822,2135822,17912,-7288,2008,19441.88,25.28,-1.00,-1.0,2432
825,2135825,15844,-2668,0,16067.06,25.24,-1.00,-1.0,2365
830,2135830,16208,5536,1204,17169.63,25.14,-1.00,-1.0,2441
832,2135832,16976,-8384,56,18933.55,25.19,-1.00,-1.0,2372
835,2135835,16916,-7304,2024,18536.34,25.24,-1.00,-1.0,2450
838,2135838,18768,1496,52,18827.60,25.14,-1.00,-1.0,2366
840,2135840,14440,2320,1020,14660.71,25.14,-1.00,-1.0,2348
843,2135843,19652,-3524,1836,20049.70,25.28,-1.00,-1.0,2431
846,2135846,11576,1436,2468,11922.96,25.14,-1.00,-1.0,2366
849,2135849,22996,6556,944,23930.91,25.14,-1.00,-1.0,2442
851,2135851,12724,3236,788,13152.67,25.24,-1.00,-1.0,2373
856,2135856,14068,-1112,1776,14223.20,25.28,-1.00,-1.0,2439
859,2135859,16064,5356,540,16941.97,25.24,-1.00,-1.0,2364
862,2135862,17696,1864,384,17798.04,25.28,-1.00,-1.0,2440
864,2135864,15272,-2920,2652,15773.19,25.33,-1.00,-1.0,2361
867,2135867,18604,-1176,1448,18697.29,25.19,-1.00,-1.0,2436
870,2135870,17580,4132,1732,18141.93,25.14,-1.00,-1.0,2363
872,2135872,17384,800,1728,17487.98,25.28,-1.00,-1.0,2361
875,2135875,17556,-6856,1800,18932.98,25.28,-1.00,-1.0,2434
878,2135878,16532,-3252,1992,16966.16,25.19,-1.00,-1.0,2366
883,2135883,16588,3752,3412,17345.92,25.28,-1.00,-1.0,2438
885,2135885,16760,-960,3136,17077.87,25.19,-1.00,-1.0,2365
888,2135888,17048,2044,1992,17285.26,25.19,-1.00,-1.0,2440
891,2135891,15652,4072,1564,16248.46,25.28,-1.00,-1.0,2360
894,2135894,18272,-260,1156,18310.38,25.28,-1.00,-1.0,2434
896,2135896,15692,-260,96,15694.45,25.28,-1.00,-1.0,2362
899,2135899,17276,1048,888,17330.52,25.19,-1.00,-1.0,2437
902,2135902,15816,-24,1056,15851.23,25.24,-1.00,-1.0,2364
907,2135907,17916,1376,628,17979.73,25.24,-1.00,-1.0,2440
910,2135910,16848,2108,1216,17022.85,25.14,-1.00,-1.0,2362
912,2135912,16880,-6476,28,18079.65,25.19,-1.00,-1.0,2362
915,2135915,17252,-5280,752,18057.56,25.19,-1.00,-1.0,2441
918,2135918,15860,3496,3468,16606.88,25.19,-1.00,-1.0,2367
920,2135920,18520,2660,2100,18827.53,25.19,-1.00,-1.0,2430
923,2135923,16264,-1528,1444,16399.32,25.28,-1.00,-1.0,2373
926,2135926,18204,-308,1764,18291.86,25.28,-1.00,-1.0,2440
929,2135929,16608,3516,1516,17043.65,25.33,-1.00,-1.0,2362
934,2135934,16960,-2760,744,17199.21,25.33,-1.00,-1.0,2439
936,2135936,16008,1196,1636,16135.77,25.24,-1.00,-1.0,2366
939,2135939,17452,4032,1840,18005.97,25.28,-1.00,-1.0,2455
942,2135942,16704,1444,504,16773.87,25.24,-1.00,-1.0,2366
945,2135945,17528,-2200,840,17685.48,25.19,-1.00,-1.0,2449
947,2135947,16628,1512,1940,16808.93,25.24,-1.00,-1.0,2363
950,2135950,17064,2004,1452,17242.52,25.19,-1.00,-1.0,2360
953,2135953,17596,-2404,1300,17806.98,25.28,-1.00,-1.0,2442
955,2135955,17264,-1196,1432,17364.53,25.19,-1.00,-1.0,2375
960,2135960,16976,1388,2204,17174.65,25.19,-1.00,-1.0,2448
963,2135963,17020,-940,2160,17182.25,25.24,-1.00,-1.0,2369
966,2135966,16892,-444,2384,17065.18,25.19,-1.00,-1.0,2445
969,2135969,17296,1364,2088,17474.89,25.24,-1.00,-1.0,2361
971,2135971,16904,-644,1320,16967.69,25.28,-1.00,-1.0,2447
974,2135974,16820,-936,1488,16911.61,25.33,-1.00,-1.0,2367
977,2135977,16132,932,1804,16259.29,25.19,-1.00,-1.0,2446
979,2135979,17368,2000,1080,17516.10,25.24,-1.00,-1.0,2360
984,2135984,17240,-152,1500,17305.80,25.24,-1.00,-1.0,2438
987,2135987,16640,668,1320,16705.63,25.28,-1.00,-1.0,2350
990,2135990,17656,32,1088,17689.52,25.24,-1.00,-1.0,2362
993,2135993,16676,-2064,1072,16837.41,25.28,-1.00,-1.0,2435
995,2135995,17832,-2052,1516,18013.58,25.24,-1.00,-1.0,2367
998,2135998,16640,1108,2196,16820.81,25.19,-1.00,-1.0,2430
1001,2136001,17192,1272,2028,17357.87,25.14,-1.00,-1.0,2371
1004,2136004,16836,-896,1332,16912.36,25.19,-1.00,-1.0,2431
1006,2136006,17180,188,980,17208.96,25.24,-1.00,-1.0,2365
1011,2136011,16884,548,1000,16922.46,25.28,-1.00,-1.0,2445
1014,2136014,16476,448,1008,16512.88,25.19,-1.00,-1.0,2369
1017,2136017,17392,3540,1332,17798.53,25.24,-1.00,-1.0,2441
1020,2136020,16776,3780,2064,17320.01,25.19,-1.00,-1.0,2361
1022,2136022,16916,-36,1656,16996.90,25.24,-1.00,-1.0,2424
1025,2136025,16928,-1268,1524,17043.70,25.28,-1.00,-1.0,2375
1028,2136028,16932,88,1712,17018.56,25.24,-1.00,-1.0,2360
1030,2136030,17308,28,1716,17392.88,25.24,-1.00,-1.0,2431
1033,2136033,17392,-1672,1724,17557.03,25.19,-1.00,-1.0,2367
1038,2136038,17132,1360,2472,17362.77,25.28,-1.00,-1.0,2451
1041,2136041,17096,748,1756,17202.22,25.19,-1.00,-1.0,2367
1044,2136044,16676,-1900,896,16807.79,25.28,-1.00,-1.0,2451
1046,2136046,16684,-448,884,16713.41,25.28,-1.00,-1.0,2361
1049,2136049,16836,2524,1244,17069.54,25.19,-1.00,-1.0,2448
1052,2136052,16836,2036,1140,16996.94,25.19,-1.00,-1.0,2366
1055,2136055,17112,372,764,17133.09,25.24,-1.00,-1.0,2447
1057,2136057,17160,2232,1308,17353.91,25.19,-1.00,-1.0,2363
1062,2136062,17212,380,1408,17273.67,25.19,-1.00,-1.0,2447
1065,2136065,16788,-888,1664,16893.62,25.19,-1.00,-1.0,2364
1067,2136067,17180,144,1972,17293.41,25.24,-1.00,-1.0,2362
1070,2136070,17320,764,1736,17423.54,25.14,-1.00,-1.0,2436
1073,2136073,17288,-1492,1660,17431.48,25.33,-1.00,-1.0,2365
1076,2136076,17020,-2012,2052,17260.92,25.24,-1.00,-1.0,2431
1078,2136078,16904,-356,2024,17028.46,25.24,-1.00,-1.0,2371
1081,2136081,17072,-44,1592,17146.12,25.24,-1.00,-1.0,2432
1084,2136084,16984,-532,1112,17028.68,25.28,-1.00,-1.0,2423
1089,2136089,16896,1524,1184,17005.86,25.14,-1.00,-1.0,2451
1092,2136092,16712,1004,1220,16786.52,25.19,-1.00,-1.0,2368
1094,2136094,16676,-312,1032,16710.81,25.24,-1.00,-1.0,2443
1097,2136097,16768,988,1120,16834.38,25.28,-1.00,-1.0,2369
1100,2136100,17080,2340,1496,17304.34,25.33,-1.00,-1.0,2420
1102,2136102,16800,1372,1364,16911.03,25.38,-1.00,-1.0,2361
1105,2136105,17164,-340,1340,17219.58,25.24,-1.00,-1.0,2451
1108,2136108,16896,508,1864,17006.10,25.28,-1.00,-1.0,2362
1111,2136111,17016,392,2128,17153.03,25.14,-1.00,-1.0,2361
1116,2136116,17144,-1472,2048,17328.53,25.33,-1.00,-1.0,2441
1118,2136118,17260,624,1940,17379.89,25.24,-1.00,-1.0,2372
1121,2136121,17264,948,1592,17363.15,25.24,-1.00,-1.0,2440
1124,2136124,17032,-636,1248,17089.50,25.24,-1.00,-1.0,2363
1127,2136127,16844,-596,1056,16887.59,25.24,-1.00,-1.0,2445
1129,2136129,16752,1240,1256,16844.72,25.33,-1.00,-1.0,2373
1132,2136132,16748,1896,1072,16889.04,25.24,-1.00,-1.0,2444
1135,2136135,16692,1444,852,16775.99,25.24,-1.00,-1.0,2368
1140,2136140,16948,1352,1120,17038.69,25.14,-1.00,-1.0,2448
1142,2136142,17020,336,1260,17069.88,25.28,-1.00,-1.0,2365
1145,2136145,17204,-1468,1352,17319.37,25.24,-1.00,-1.0,2440
1148,2136148,17124,-984,1660,17232.39,25.28,-1.00,-1.0,2361
1151,2136151,17348,372,2004,17467.33,25.24,-1.00,-1.0,2443
1153,2136153,17296,436,1928,17408.59,25.19,-1.00,-1.0,2361
1156,2136156,17212,-112,2092,17339.03,25.19,-1.00,-1.0,2368
1159,2136159,16912,-28,1916,17020.21,25.14,-1.00,-1.0,2440
1162,2136162,16948,124,1868,17051.09,25.19,-1.00,-1.0,2361
1167,2136167,16956,212,1248,17003.19,25.28,-1.00,-1.0,2440
1169,2136169,17012,1640,1088,17125.46,25.28,-1.00,-1.0,2367
1172,2136172,17168,2152,1152,17340.66,25.28,-1.00,-1.0,2434
1175,2136175,17000,1272,1044,17079.46,25.19,-1.00,-1.0,2363
1178,2136178,16952,664,1112,17001.40,25.28,-1.00,-1.0,2435
1180,2136180,16944,16,1104,16979.94,25.19,-1.00,-1.0,2369
1183,2136183,16788,-252,1352,16844.24,25.19,-1.00,-1.0,2434
1186,2136186,16860,-536,1472,16932.62,25.24,-1.00,-1.0,2360
1191,2136191,17196,468,1636,17279.99,25.24,-1.00,-1.0,2445
1193,2136193,17116,364,1692,17203.28,25.24,-1.00,-1.0,2364
1196,2136196,16988,-448,1732,17081.94,25.24,-1.00,-1.0,2444
1199,2136199,16900,-796,1372,16974.28,25.19,-1.00,-1.0,2361
1202,2136202,17024,-156,1416,17083.50,25.14,-1.00,-1.0,2363
1204,2136204,17148,920,1372,17227.38,25.28,-1.00,-1.0,2437
1207,2136207,17000,1036,1616,17108.03,25.24,-1.00,-1.0,2383
1210,2136210,16932,984,1708,17046.35,25.28,-1.00,-1.0,2436
1213,2136213,16904,852,1660,17006.67,25.24,-1.00,-1.0,2368
1218,2136218,17080,88,1464,17142.85,25.24,-1.00,-1.0,2446
1220,2136220,17056,-64,1428,17115.79,25.28,-1.00,-1.0,2364
1223,2136223,17120,180,1644,17199.70,25.24,-1.00,-1.0,2434
1226,2136226,17056,328,1672,17140.90,25.28,-1.00,-1.0,2361
1229,2136229,16976,404,1744,17070.13,25.24,-1.00,-1.0,2441
1231,2136231,16948,676,1780,17054.62,25.28,-1.00,-1.0,2362
1234,2136234,16936,396,1616,17017.53,25.14,-1.00,-1.0,2421
1237,2136237,17040,-256,1464,17104.69,25.19,-1.00,-1.0,2363
1240,2136240,17120,-428,1264,17171.93,25.24,-1.00,-1.0,2367
1245,2136245,17000,292,1396,17059.72,25.24,-1.00,-1.0,2447
1247,2136247,17020,356,1248,17069.41,25.24,-1.00,-1.0,2364
1250,2136250,16948,316,1264,16998.01,25.24,-1.00,-1.0,2437
1253,2136253,17048,556,1348,17110.25,25.19,-1.00,-1.0,2361
1256,2136256,16912,536,1512,16987.91,25.24,-1.00,-1.0,2442
1258,2136258,16884,196,1520,16953.41,25.33,-1.00,-1.0,2361
1261,2136261,16756,-368,1384,16817.09,25.24,-1.00,-1.0,2434
1264,2136264,17004,-36,1516,17071.48,25.28,-1.00,-1.0,2348
1269,2136269,17228,576,1640,17315.47,25.14,-1.00,-1.0,2444
1271,2136271,17320,420,1556,17394.82,25.24,-1.00,-1.0,2364
1274,2136274,17216,228,1452,17278.63,25.24,-1.00,-1.0,2434
1277,2136277,17144,416,1264,17195.57,25.19,-1.00,-1.0,2348
1279,2136279,17040,484,1148,17085.48,25.24,-1.00,-1.0,2360
1282,2136282,16828,224,1016,16860.13,25.24,-1.00,-1.0,2428
1285,2136285,16728,160,1060,16762.31,25.24,-1.00,-1.0,2368
1288,2136288,16824,504,1260,16878.64,25.19,-1.00,-1.0,2434
1291,2136291,16824,520,1236,16877.35,25.19,-1.00,-1.0,2363
1296,2136296,16976,168,1448,17038.47,25.24,-1.00,-1.0,2443
1298,2136298,17068,88,1480,17132.27,25.28,-1.00,-1.0,2375
1301,2136301,17064,36,1588,17137.77,25.24,-1.00,-1.0,2434
1304,2136304,17108,-184,1424,17168.15,25.28,-1.00,-1.0,2364
1307,2136307,17128,44,1568,17199.68,25.24,-1.00,-1.0,2446
1309,2136309,16944,160,1648,17024.71,25.28,-1.00,-1.0,2370
1312,2136312,17008,404,1676,17095.15,25.14,-1.00,-1.0,2441
1315,2136315,17008,692,1488,17086.99,25.28,-1.00,-1.0,2348
1318,2136318,16964,892,1348,17040.84,25.28,-1.00,-1.0,2362
1323,2136323,16932,452,1244,16983.65,25.19,-1.00,-1.0,2448
1326,2136326,17028,284,1312,17080.83,25.19,-1.00,-1.0,2372
1328,2136328,17080,188,1408,17138.97,25.24,-1.00,-1.0,2442
1331,2136331,16968,-140,1424,17028.22,25.28,-1.00,-1.0,2368
1334,2136334,16916,-380,1680,17003.47,25.19,-1.00,-1.0,2423
1336,2136336,16980,-48,1764,17071.45,25.28,-1.00,-1.0,2362
1339,2136339,16952,312,1852,17055.72,25.19,-1.00,-1.0,2447
1342,2136342,16932,436,1604,17013.39,25.19,-1.00,-1.0,2360
1347,2136347,17076,356,1536,17148.64,25.28,-1.00,-1.0,2440
1350,2136350,16984,332,1560,17058.72,25.24,-1.00,-1.0,2369
1352,2136352,17004,292,1428,17066.36,25.28,-1.00,-1.0,2427
1355,2136355,17048,500,1216,17098.62,25.33,-1.00,-1.0,2366
1358,2136358,16984,820,1668,17085.40,25.14,-1.00,-1.0,2423
1361,2136361,17008,964,1588,17109.15,25.19,-1.00,-1.0,2445
1363,2136363,17084,580,1612,17169.68,25.09,-1.00,-1.0,2368
1366,2136366,17124,244,1572,17197.73,25.28,-1.00,-1.0,2441
1369,2136369,17240,308,1572,17314.26,25.19,-1.00,-1.0,2367
1374,2136374,17080,160,1436,17141.01,25.28,-1.00,-1.0,2440
1377,2136377,17032,592,1680,17124.89,25.28,-1.00,-1.0,2370
1379,2136379,17028,864,1656,17130.14,25.28,-1.00,-1.0,2433
1382,2136382,16888,784,1592,16980.98,25.28,-1.00,-1.0,2366
1385,2136385,16880,100,1356,16934.67,25.09,-1.00,-1.0,2433
1388,2136388,16872,196,1384,16929.80,25.33,-1.00,-1.0,2367
1390,2136390,16964,444,1512,17037.04,25.28,-1.00,-1.0,2433
1393,2136393,16976,528,1396,17041.48,25.24,-1.00,-1.0,2366
1396,2136396,16984,208,1368,17040.27,25.28,-1.00,-1.0,2360
1401,2136401,17164,180,1544,17234.25,25.19,-1.00,-1.0,2440
1404,2136404,17084,-212,1548,17155.30,25.33,-1.00,-1.0,2369
1406,2136406,17156,-236,1540,17226.60,25.28,-1.00,-1.0,2433
1409,2136409,17036,144,1364,17091.12,25.24,-1.00,-1.0,2366
1412,2136412,17044,528,1460,17114.56,25.24,-1.00,-1.0,2461
1415,2136415,17004,608,1416,17073.69,25.28,-1.00,-1.0,2370
1418,2136418,16964,644,1108,17012.34,25.24,-1.00,-1.0,2453
1420,2136420,16856,664,1128,16906.74,25.24,-1.00,-1.0,2370
1425,2136425,16920,324,1260,16969.94,25.28,-1.00,-1.0,2442
1428,2136428,16888,236,1244,16935.40,25.19,-1.00,-1.0,2367
1431,2136431,17044,408,1324,17100.21,25.19,-1.00,-1.0,2437
1434,2136434,16996,236,1384,17053.89,25.28,-1.00,-1.0,2363
1436,2136436,17096,268,1456,17159.98,25.24,-1.00,-1.0,2360
1439,2136439,17108,84,1672,17189.71,25.24,-1.00,-1.0,2444
1442,2136442,16968,112,1700,17053.32,25.28,-1.00,-1.0,2373
1445,2136445,16908,-16,1772,17000.61,25.24,-1.00,-1.0,2437
1447,2136447,16964,12,1532,17033.04,25.28,-1.00,-1.0,2363
1452,2136452,17000,368,1388,17060.54,25.19,-1.00,-1.0,2429
1455,2136455,16984,580,1336,17046.34,25.19,-1.00,-1.0,2367
1458,2136458,16864,644,1204,16919.19,25.28,-1.00,-1.0,2443
1460,2136460,16960,508,1252,17013.73,25.28,-1.00,-1.0,2366
1463,2136463,16880,640,1288,16941.16,25.28,-1.00,-1.0,2437
1466,2136466,16848,492,1244,16901.03,25.19,-1.00,-1.0,2366
1469,2136469,16844,328,1208,16890.45,25.28,-1.00,-1.0,2435
1471,2136471,17000,408,1412,17063.42,25.19,-1.00,-1.0,2367
1474,2136474,17056,192,1556,17127.90,25.24,-1.00,-1.0,2359
1479,2136479,17116,-84,1532,17184.63,25.24,-1.00,-1.0,2450
1482,2136482,17040,-180,1576,17113.67,25.24,-1.00,-1.0,2367
1484,2136484,17072,-208,1500,17139.03,25.19,-1.00,-1.0,2448
1487,2136487,17052,-96,1580,17125.31,25.14,-1.00,-1.0,2371
1490,2136490,16940,132,1676,17023.22,25.28,-1.00,-1.0,2445
1493,2136493,16948,428,1568,17025.76,25.24,-1.00,-1.0,2365
1495,2136495,17052,476,1640,17137.29,25.19,-1.00,-1.0,2446
1498,2136498,16824,624,1528,16904.77,25.24,-1.00,-1.0,2371
1503,2136503,16948,600,1484,17023.42,25.28,-1.00,-1.0,2452
1506,2136506,16968,444,1420,17033.10,25.14,-1.00,-1.0,2371
1508,2136508,17080,328,1548,17153.14,25.28,-1.00,-1.0,2446
1511,2136511,17096,360,1548,17169.71,25.28,-1.00,-1.0,2371
1514,2136514,17088,356,1612,17167.56,25.28,-1.00,-1.0,2360
1516,2136516,16960,188,1708,17046.82,25.24,-1.00,-1.0,2437
1519,2136519,16924,84,1560,16995.95,25.28,-1.00,-1.0,2368
1522,2136522,16988,-12,1436,17048.59,25.19,-1.00,-1.0,2443
1525,2136525,17096,-12,1516,17163.09,25.28,-1.00,-1.0,2380
1530,2136530,17052,84,1168,17092.16,25.19,-1.00,-1.0,2441
1533,2136533,17024,284,1344,17079.33,25.24,-1.00,-1.0,2362
1536,2136536,16904,368,1268,16955.48,25.19,-1.00,-1.0,2437
1538,2136538,16964,420,1312,17019.84,25.24,-1.00,-1.0,2366
1541,2136541,16880,540,1548,16959.43,25.19,-1.00,-1.0,2444
1544,2136544,16928,516,1680,17018.98,25.24,-1.00,-1.0,2371
1546,2136546,17084,476,1652,17170.29,25.28,-1.00,-1.0,2369
1549,2136549,17144,380,1820,17244.52,25.24,-1.00,-1.0,2436
1552,2136552,17084,332,1564,17158.65,25.28,-1.00,-1.0,2372
1557,2136557,17080,32,1612,17155.93,25.28,-1.00,-1.0,2457
1560,2136560,17076,16,1344,17128.82,25.19,-1.00,-1.0,2374
1563,2136563,17100,116,1116,17136.77,25.19,-1.00,-1.0,2446
1565,2136565,16948,252,1036,16981.50,25.19,-1.00,-1.0,2368
1568,2136568,16968,200,1076,17003.26,25.28,-1.00,-1.0,2446
1571,2136571,16964,184,980,16993.28,25.19,-1.00,-1.0,2371
1574,2136574,16904,224,1072,16939.44,25.28,-1.00,-1.0,2446
1576,2136576,16936,292,1080,16972.91,25.28,-1.00,-1.0,2367
1581,2136581,17036,568,1436,17105.85,25.19,-1.00,-1.0,2443
1584,2136584,17112,556,1612,17196.75,25.24,-1.00,-1.0,2365
1587,2136587,17088,564,1944,17207.47,25.28,-1.00,-1.0,2366
1589,2136589,17148,540,1684,17238.95,25.24,-1.00,-1.0,2445
1592,2136592,17068,340,1824,17168.55,25.28,-1.00,-1.0,2381
1595,2136595,16964,368,1592,17042.51,25.24,-1.00,-1.0,2441
1598,2136598,17148,516,1728,17242.57,25.19,-1.00,-1.0,2370
1600,2136600,16964,656,1512,17043.88,25.24,-1.00,-1.0,2445
1603,2136603,17044,616,1476,17118.88,25.24,-1.00,-1.0,2364
1608,2136608,16948,352,1208,16994.64,25.24,-1.00,-1.0,2451
1611,2136611,16888,232,1360,16944.26,25.19,-1.00,-1.0,2369
1614,2136614,16864,200,1276,16913.39,25.24,-1.00,-1.0,2446
1616,2136616,17004,172,1164,17044.66,25.24,-1.00,-1.0,2374
1619,2136619,16976,280,1324,17029.86,25.14,-1.00,-1.0,2437
1622,2136622,17008,184,1372,17064.24,25.24,-1.00,-1.0,2367
1624,2136624,17004,24,1388,17060.57,25.24,-1.00,-1.0,2359
1627,2136627,16952,12,1480,17016.49,25.28,-1.00,-1.0,2438
1630,2136630,17068,212,1668,17150.62,25.33,-1.00,-1.0,2364
1635,2136635,17140,452,1752,17235.24,25.33,-1.00,-1.0,2447
1638,2136638,17024,492,1740,17119.76,25.24,-1.00,-1.0,2366
1641,2136641,16992,328,1636,17073.73,25.24,-1.00,-1.0,2443
1643,2136643,16952,244,1644,17033.28,25.33,-1.00,-1.0,2371
1646,2136646,16992,200,1436,17053.74,25.33,-1.00,-1.0,2438
1649,2136649,16964,344,1396,17024.82,25.33,-1.00,-1.0,2364
1652,2136652,17100,552,1328,17160.37,25.14,-1.00,-1.0,2445
1654,2136654,16996,544,1600,17079.81,25.24,-1.00,-1.0,2372
1659,2136659,17048,320,1436,17111.37,25.24,-1.00,-1.0,2449
1662,2136662,17056,404,1400,17118.13,25.24,-1.00,-1.0,2374
1665,2136665,16976,400,1572,17053.32,25.24,-1.00,-1.0,2359
1667,2136667,16996,356,1536,17068.98,25.19,-1.00,-1.0,2437
1670,2136670,17080,280,1468,17145.26,25.24,-1.00,-1.0,2364
1673,2136673,16932,284,1392,16991.50,25.28,-1.00,-1.0,2437
1676,2136676,16940,324,1476,17007.27,25.24,-1.00,-1.0,2365
1678,2136678,16884,200,1380,16941.48,25.28,-1.00,-1.0,2437
1681,2136681,17008,160,1364,17063.36,25.28,-1.00,-1.0,2365
1686,2136686,16964,376,1496,17033.99,25.24,-1.00,-1.0,2474
1689,2136689,17024,384,1424,17087.77,25.24,-1.00,-1.0,2368
1692,2136692,17004,404,1404,17066.65,25.28,-1.00,-1.0,2440
1694,2136694,16932,468,1528,17007.25,25.14,-1.00,-1.0,2371
1697,2136697,16960,344,1484,17028.28,25.28,-1.00,-1.0,2438
1700,2136700,16988,360,1576,17064.74,25.24,-1.00,-1.0,2352
1702,2136702,17020,464,1480,17090.53,25.19,-1.00,-1.0,2359
1705,2136705,17040,416,1480,17109.21,25.14,-1.00,-1.0,2452
1708,2136708,17108,536,1536,17185.18,25.24,-1.00,-1.0,2367
1713,2136713,17068,232,1384,17125.59,25.24,-1.00,-1.0,2456
1716,2136716,17068,132,1260,17114.95,25.33,-1.00,-1.0,2374
1719,2136719,17000,0,1316,17050.86,25.28,-1.00,-1.0,2449
1721,2136721,16992,72,1544,17062.16,25.14,-1.00,-1.0,2376
1724,2136724,16892,36,1444,16953.64,25.28,-1.00,-1.0,2444
1727,2136727,17056,100,1340,17108.85,25.33,-1.00,-1.0,2366
1730,2136730,17040,-36,1408,17098.11,25.19,-1.00,-1.0,2450
1732,2136732,16868,144,1568,16941.33,25.24,-1.00,-1.0,2373
1735,2136735,16968,212,1676,17051.89,25.24,-1.00,-1.0,2362
1740,2136740,17088,364,1616,17168.10,25.24,-1.00,-1.0,2444
1743,2136743,16960,556,1612,17045.51,25.28,-1.00,-1.0,2366
1746,2136746,16992,552,1620,17077.97,25.33,-1.00,-1.0,2448
1748,2136748,17040,572,1884,17153.37,25.38,-1.00,-1.0,2365
1751,2136751,17020,652,1600,17107.47,25.24,-1.00,-1.0,2441
1754,2136754,16992,600,1616,17079.21,25.24,-1.00,-1.0,2364
1757,2136757,17268,908,-5660,18194.61,25.24,-1.00,-1.0,2440
1759,2136759,3144,4740,-15992,16973.40,25.19,-1.00,-1.0,2365
1764,2136764,12584,5404,-9500,16667.64,25.28,-1.00,-1.0,2441
1767,2136767,21540,7980,-9160,24729.69,25.38,-1.00,-1.0,2366
1770,2136770,240,-10336,-4,10338.79,25.24,-1.00,-1.0,2438
1773,2136773,30460,-14932,772,33931.88,25.28,-1.00,-1.0,2365
1776,2136776,-4008,180,1696,4355.79,25.24,-1.00,-1.0,2461
1778,2136778,29840,3428,-4424,30360.31,25.24,-1.00,-1.0,2368
1781,2136781,4344,496,11064,11896.57,25.19,-1.00,-1.0,2364
1784,2136784,29824,3972,268,30088.53,25.28,-1.00,-1.0,2448
1786,2136786,10972,22012,11188,27020.07,25.28,-1.00,-1.0,2373
1791,2136791,15444,-17276,-1640,23230.73,25.19,-1.00,-1.0,2449
1794,2136794,7464,-16512,2688,18318.92,25.19,-1.00,-1.0,2380
1797,2136797,23656,5572,3128,24503.83,25.19,-1.00,-1.0,2438
1800,2136800,11812,14912,6380,20064.78,25.28,-1.00,-1.0,2367
1802,2136802,22068,-9248,-920,23945.12,25.19,-1.00,-1.0,2439
1805,2136805,11272,-8524,-240,14134.15,25.28,-1.00,-1.0,2379
1808,2136808,21576,6000,6668,23366.34,25.19,-1.00,-1.0,2437
1811,2136811,13780,1844,-4528,14621.61,25.28,-1.00,-1.0,2370
1816,2136816,15360,-9220,1572,17983.58,25.28,-1.00,-1.0,2442
1818,2136818,19000,19104,4044,27245.49,25.28,-1.00,-1.0,2370
1821,2136821,15940,15184,2408,22145.79,25.19,-1.00,-1.0,2452
1824,2136824,19092,-7104,-628,20380.52,25.19,-1.00,-1.0,2372
1827,2136827,13532,-980,3184,13936.04,25.28,-1.00,-1.0,2447
1829,2136829,20052,7560,3632,21735.40,25.19,-1.00,-1.0,2371
1832,2136832,14276,-28,192,14277.32,25.19,-1.00,-1.0,2451
1835,2136835,18456,-10936,320,21455.13,25.28,-1.00,-1.0,2372
1837,2136837,16684,5464,648,17567.90,25.28,-1.00,-1.0,2363
1843,2136843,16916,-364,592,16930.27,25.19,-1.00,-1.0,2441
1845,2136845,16044,-11108,-1036,19541.52,25.28,-1.00,-1.0,2369
1848,2136848,15656,-6232,1332,16903.32,25.19,-1.00,-1.0,2451
1851,2136851,18436,5656,1136,19317.53,25.28,-1.00,-1.0,2375
1854,2136854,15848,-1584,520,15935.45,25.28,-1.00,-1.0,2453
1856,2136856,16616,-2632,1700,16908.84,25.19,-1.00,-1.0,2373
1859,2136859,13224,4084,3004,14162.53,25.28,-1.00,-1.0,2449
1862,2136862,20804,8344,940,22434.62,25.28,-1.00,-1.0,2371
1867,2136867,20120,-8448,-72,21821.74,25.19,-1.00,-1.0,2449
1869,2136869,13300,1652,912,13433.20,25.24,-1.00,-1.0,2367
1872,2136872,19720,4532,1360,20279.72,25.28,-1.00,-1.0,2439
1875,2136875,15188,380,-232,15194.52,25.24,-1.00,-1.0,2364
1878,2136878,16248,-3972,1884,16832.22,25.28,-1.00,-1.0,2439
1880,2136880,18288,1660,2308,18507.66,25.24,-1.00,-1.0,2365
1883,2136883,17536,5224,1520,18360.61,25.28,-1.00,-1.0,2360
1886,2136886,17600,-1948,952,17733.05,25.28,-1.00,-1.0,2444
1888,2136888,17084,-6228,1952,18288.29,25.28,-1.00,-1.0,2364
1893,2136893,17640,4464,3072,18453.57,25.19,-1.00,-1.0,2455
1896,2136896,16636,2920,2876,17133.43,25.28,-1.00,-1.0,2376
1899,2136899,17236,-140,2840,17468.97,25.33,-1.00,-1.0,2426
1902,2136902,16116,2508,2476,16496.85,25.19,-1.00,-1.0,2364
1904,2136904,17296,324,860,17320.40,25.19,-1.00,-1.0,2450
1907,2136907,17524,-1192,444,17570.11,25.28,-1.00,-1.0,2373
1910,2136910,16600,1384,500,16665.10,25.33,-1.00,-1.0,2444
1913,2136913,16284,828,1432,16367.80,25.38,-1.00,-1.0,2364
1917,2136917,18856,-104,900,18877.75,25.19,-1.00,-1.0,2444
1920,2136920,17324,3488,1600,17743.93,25.28,-1.00,-1.0,2368
1923,2136923,17272,-356,1592,17348.87,25.14,-1.00,-1.0,2444
1925,2136925,16836,-7876,168,18587.91,25.19,-1.00,-1.0,2364
1928,2136928,15776,412,3000,16063.99,25.24,-1.00,-1.0,2366
1931,2136931,16604,5672,3524,17896.45,25.24,-1.00,-1.0,2437
1934,2136934,17472,2256,2208,17754.88,25.24,-1.00,-1.0,2369
1937,2136937,17156,-2024,1184,17315.51,25.14,-1.00,-1.0,2461
1939,2136939,17312,2864,1316,17596.58,25.19,-1.00,-1.0,2366
1944,2136944,16980,-2232,608,17136.86,25.19,-1.00,-1.0,2444
1947,2136947,16380,-2016,876,16526.83,25.28,-1.00,-1.0,2368
1950,2136950,16504,2784,2120,16870.89,25.19,-1.00,-1.0,2436
1953,2136953,17236,3836,1792,17748.40,25.19,-1.00,-1.0,2364
1955,2136955,17000,-2212,500,17150.60,25.28,-1.00,-1.0,2438
1958,2136958,17304,-708,1580,17390.40,25.28,-1.00,-1.0,2365
1961,2136961,16488,2644,1732,16788.23,25.38,-1.00,-1.0,2437
1964,2136964,17732,-372,1152,17773.28,25.28,-1.00,-1.0,2364
1969,2136969,17168,-276,1568,17241.67,25.24,-1.00,-1.0,2446
1971,2136971,16488,2944,2128,16883.41,25.24,-1.00,-1.0,2375
1974,2136974,17136,-464,1780,17234.45,25.19,-1.00,-1.0,2437
1977,2136977,16656,-1268,1312,16755.64,25.14,-1.00,-1.0,2365
1979,2136979,17408,1664,1968,17597.74,25.28,-1.00,-1.0,2360
1982,2136982,16620,1540,1068,16725.33,25.28,-1.00,-1.0,2436
1985,2136985,17348,-664,728,17375.96,25.28,-1.00,-1.0,2366
1988,2136988,16280,-288,1456,16347.52,25.28,-1.00,-1.0,2434
1991,2136991,17360,2124,1296,17537.41,25.14,-1.00,-1.0,2364
1995,2136995,17176,-532,1168,17223.88,25.24,-1.00,-1.0,2442
1998,2136998,16564,72,1632,16644.36,25.28,-1.00,-1.0,2368
2001,2137001,17516,728,1324,17581.05,25.24,-1.00,-1.0,2435
2004,2137004,17068,-716,1256,17129.12,25.28,-1.00,-1.0,2364
2006,2137006,17276,-2848,1028,17539.33,25.14,-1.00,-1.0,2436
2009,2137009,17076,52,2048,17198.45,25.19,-1.00,-1.0,2365
2012,2137012,17368,2016,1948,17592.79,25.33,-1.00,-1.0,2435
2015,2137015,17180,60,1568,17251.51,25.28,-1.00,-1.0,2364
2018,2137018,16968,-1168,1132,17045.78,25.24,-1.00,-1.0,2364
2023,2137023,16940,1980,896,17078.84,25.24,-1.00,-1.0,2442
2025,2137025,16776,224,1076,16811.96,25.19,-1.00,-1.0,2368
2028,2137028,16896,1404,1020,16984.89,25.14,-1.00,-1.0,2436
2031,2137031,17316,3436,1816,17746.77,25.24,-1.00,-1.0,2371
2034,2137034,16576,2228,1988,16842.80,25.24,-1.00,-1.0,2437
2036,2137036,17152,-1844,1204,17292.80,25.28,-1.00,-1.0,2365
2039,2137039,16844,-1104,1776,16973.31,25.24,-1.00,-1.0,2435
2042,2137042,17224,236,1808,17320.24,25.24,-1.00,-1.0,2364
2047,2137047,17472,-1504,1808,17629.57,25.28,-1.00,-1.0,2442
2049,2137049,17016,-36,2296,17170.24,25.28,-1.00,-1.0,2370
2052,2137052,17164,928,1812,17284.31,25.19,-1.00,-1.0,2437
2055,2137055,16748,-656,1288,16810.26,25.19,-1.00,-1.0,2365
2058,2137058,16664,-1856,1024,16798.28,25.19,-1.00,-1.0,2435
2060,2137060,16776,1196,1284,16867.52,25.28,-1.00,-1.0,2367
2063,2137063,16764,2456,1332,16995.23,25.28,-1.00,-1.0,2437
2066,2137066,16920,1180,1256,17007.54,25.28,-1.00,-1.0,2365
2069,2137069,17100,952,1312,17176.66,25.19,-1.00,-1.0,2361
2074,2137074,17112,1280,1520,17226.99,25.28,-1.00,-1.0,2449
2076,2137076,16888,-912,1820,17010.25,25.28,-1.00,-1.0,2379
2079,2137079,16996,-28,2088,17123.80,25.19,-1.00,-1.0,2445
2082,2137082,17104,952,1696,17214.22,25.19,-1.00,-1.0,2367
2085,2137085,17228,92,1428,17287.33,25.28,-1.00,-1.0,2448
2087,2137087,17112,-1540,1640,17259.25,25.19,-1.00,-1.0,2375
2090,2137090,16792,-392,1752,16887.70,25.19,-1.00,-1.0,2443
2093,2137093,16920,136,1768,17012.66,25.19,-1.00,-1.0,2367
2098,2137098,17160,-136,1052,17192.75,25.28,-1.00,-1.0,2444
2100,2137100,17228,1364,1384,17337.24,25.28,-1.00,-1.0,2375
2103,2137103,16896,1380,1436,17012.97,25.19,-1.00,-1.0,2437
2106,2137106,16964,56,1180,17005.08,25.28,-1.00,-1.0,2368
2109,2137109,16812,108,1232,16857.43,25.24,-1.00,-1.0,2436
2111,2137111,17056,1956,1372,17222.53,25.28,-1.00,-1.0,2372
2114,2137114,16788,1060,1388,16878.60,25.24,-1.00,-1.0,2360
2117,2137117,16976,-164,1060,17009.85,25.24,-1.00,-1.0,2441
2120,2137120,17008,116,1336,17060.79,25.24,-1.00,-1.0,2364
2124,2137124,17120,-484,1816,17222.85,25.14,-1.00,-1.0,2441
2127,2137127,16988,-1560,1600,17134.34,25.33,-1.00,-1.0,2368
2130,2137130,17256,492,1712,17347.70,25.24,-1.00,-1.0,2436
2133,2137133,17268,1396,1644,17402.17,25.14,-1.00,-1.0,2365
2135,2137135,17216,232,1380,17272.78,25.33,-1.00,-1.0,2437
2138,2137138,16880,-636,1348,16945.68,25.28,-1.00,-1.0,2366
2141,2137141,16740,900,1420,16824.21,25.24,-1.00,-1.0,2435
2144,2137144,16720,1724,1152,16848.08,25.14,-1.00,-1.0,2364
2149,2137149,16616,1156,1044,16688.85,25.24,-1.00,-1.0,2441
2151,2137151,16812,1308,1236,16908.04,25.33,-1.00,-1.0,2355
2154,2137154,16936,440,1420,17001.12,25.24,-1.00,-1.0,2436
2157,2137157,17200,-1336,1528,17319.34,25.14,-1.00,-1.0,2366
2159,2137159,17004,-1628,1508,17148.19,25.24,-1.00,-1.0,2360
2162,2137162,17232,-188,1764,17323.07,25.19,-1.00,-1.0,2436
2165,2137165,17220,684,1916,17339.76,25.24,-1.00,-1.0,2365
2168,2137168,17180,412,2112,17314.23,25.19,-1.00,-1.0,2445
2171,2137171,17076,108,1904,17182.16,25.28,-1.00,-1.0,2372
2176,2137176,16840,156,1852,16942.25,25.24,-1.00,-1.0,2441
2178,2137178,16976,252,1220,17021.65,25.33,-1.00,-1.0,2367
2181,2137181,17064,1524,1232,17176.16,25.28,-1.00,-1.0,2437
2184,2137184,17144,2400,1272,17357.84,25.24,-1.00,-1.0,2364
2187,2137187,17020,1756,1180,17150.99,25.38,-1.00,-1.0,2436
2189,2137189,16904,272,1112,16942.72,25.24,-1.00,-1.0,2364
2192,2137192,16992,-80,1232,17036.79,25.19,-1.00,-1.0,2436
2195,2137195,16944,-384,1588,17022.58,25.24,-1.00,-1.0,2365
2198,2137198,16900,-612,1564,16983.25,25.28,-1.00,-1.0,2368
2203,2137203,17244,204,1552,17314.90,25.28,-1.00,-1.0,2448
2205,2137205,17168,816,1684,17269.68,25.28,-1.00,-1.0,2368
2208,2137208,16928,-376,1664,17013.74,25.19,-1.00,-1.0,2437
2211,2137211,16784,-1092,1312,16870.58,25.19,-1.00,-1.0,2364
2214,2137214,16948,-500,1412,17014.07,25.28,-1.00,-1.0,2442
2216,2137216,17132,1072,1372,17220.25,25.28,-1.00,-1.0,2365
2219,2137219,17084,1308,1480,17197.80,25.19,-1.00,-1.0,2424
2222,2137222,16884,948,1720,16997.84,25.24,-1.00,-1.0,2364
2227,2137227,16968,524,1596,17050.95,25.24,-1.00,-1.0,2445
2230,2137230,17056,232,1664,17138.55,25.24,-1.00,-1.0,2378
2232,2137232,17148,-84,1548,17217.93,25.19,-1.00,-1.0,2438
2235,2137235,17080,180,1660,17161.42,25.33,-1.00,-1.0,2373
2238,2137238,16996,548,1732,17092.81,25.19,-1.00,-1.0,2438
2241,2137241,17016,488,1760,17113.74,25.24,-1.00,-1.0,2362
2243,2137243,16816,548,1760,16916.73,25.19,-1.00,-1.0,2361
2246,2137246,16856,516,1468,16927.67,25.19,-1.00,-1.0,2434
2249,2137249,16880,-32,1308,16930.63,25.24,-1.00,-1.0,2373
2254,2137254,17128,-184,1068,17162.25,25.28,-1.00,-1.0,2440
2257,2137257,16992,384,1276,17044.17,25.28,-1.00,-1.0,2367
2259,2137259,17020,508,1336,17079.91,25.28,-1.00,-1.0,2436
2262,2137262,17000,100,1260,17046.92,25.19,-1.00,-1.0,2366
2265,2137265,17036,620,1348,17100.49,25.28,-1.00,-1.0,2434
2268,2137268,16980,904,1576,17076.93,25.19,-1.00,-1.0,2364
2270,2137270,16944,504,1448,17013.23,25.28,-1.00,-1.0,2437
2273,2137273,16792,-340,1344,16849.13,25.28,-1.00,-1.0,2367
2278,2137278,17076,376,1508,17146.58,25.24,-1.00,-1.0,2435
2281,2137281,17204,700,1536,17286.61,25.24,-1.00,-1.0,2370
2283,2137283,17240,492,1548,17316.35,25.28,-1.00,-1.0,2362
2286,2137286,17060,280,1444,17123.29,25.28,-1.00,-1.0,2436
2289,2137289,17152,548,1332,17212.37,25.19,-1.00,-1.0,2367
2292,2137292,17240,452,1188,17286.79,25.28,-1.00,-1.0,2434
2294,2137294,16932,-88,1232,16976.99,25.19,-1.00,-1.0,2368
2297,2137297,16832,36,1168,16872.51,25.28,-1.00,-1.0,2436
2300,2137300,16820,468,1296,16876.35,25.28,-1.00,-1.0,2368
2305,2137305,16872,364,1424,16935.90,25.28,-1.00,-1.0,2440
2307,2137307,17096,276,1512,17164.95,25.19,-1.00,-1.0,2361
2310,2137310,17084,132,1512,17151.29,25.19,-1.00,-1.0,2435
2313,2137313,17112,48,1572,17184.12,25.28,-1.00,-1.0,2368
2316,2137316,17180,-120,1448,17241.33,25.38,-1.00,-1.0,2434
2318,2137318,17048,-124,1392,17105.19,25.28,-1.00,-1.0,2368
2321,2137321,16932,276,1504,17000.91,25.19,-1.00,-1.0,2360
2324,2137324,16956,512,1652,17043.98,25.19,-1.00,-1.0,2436
2327,2137327,16860,712,1592,16949.96,25.28,-1.00,-1.0,2370
2332,2137332,16924,744,1504,17006.98,25.28,-1.00,-1.0,2442
2334,2137334,17092,460,1296,17147.23,25.19,-1.00,-1.0,2370
2337,2137337,17116,252,1496,17183.10,25.14,-1.00,-1.0,2435
2340,2137340,17020,144,1468,17083.80,25.19,-1.00,-1.0,2366
2343,2137343,17004,-160,1500,17070.78,25.28,-1.00,-1.0,2435
2345,2137345,16896,-460,1568,16974.84,25.28,-1.00,-1.0,2373
2348,2137348,16940,-64,1548,17010.70,25.24,-1.00,-1.0,2435
2351,2137351,17020,328,1756,17113.49,25.28,-1.00,-1.0,2369
2356,2137356,17060,452,1524,17133.90,25.28,-1.00,-1.0,2431
2359,2137359,17092,504,1416,17157.96,25.19,-1.00,-1.0,2375
2361,2137361,16932,412,1260,16983.81,25.28,-1.00,-1.0,2359
2364,2137364,17092,-64,1248,17137.62,25.28,-1.00,-1.0,2422
2367,2137367,16976,152,1224,17020.75,25.28,-1.00,-1.0,2366
2369,2137369,16984,816,1412,17062.12,25.24,-1.00,-1.0,2435
2372,2137372,16988,1108,1636,17102.52,25.19,-1.00,-1.0,2359
2375,2137375,17060,568,1776,17161.60,25.24,-1.00,-1.0,2435
2378,2137378,17076,224,1624,17154.51,25.28,-1.00,-1.0,2365
2383,2137383,17176,236,1556,17247.95,25.19,-1.00,-1.0,2445
2386,2137386,17032,156,1552,17103.28,25.28,-1.00,-1.0,2367
2388,2137388,16924,456,1528,16998.96,25.33,-1.00,-1.0,2438
2391,2137391,16988,1084,1496,17088.16,25.28,-1.00,-1.0,2375
2394,2137394,17008,928,1500,17099.22,25.28,-1.00,-1.0,2438
2397,2137397,16888,368,1528,16960.98,25.28,-1.00,-1.0,2363
2399,2137399,16904,48,1392,16961.29,25.33,-1.00,-1.0,2360
2402,2137402,16944,460,1492,17015.78,25.28,-1.00,-1.0,2435
2405,2137405,16900,556,1392,16966.34,25.24,-1.00,-1.0,2365
2410,2137410,17228,280,1572,17301.84,25.28,-1.00,-1.0,2440
2413,2137413,17244,184,1444,17305.33,25.24,-1.00,-1.0,2369
2415,2137415,17084,-164,1468,17147.74,25.24,-1.00,-1.0,2436
2418,2137418,17088,-324,1508,17157.47,25.24,-1.00,-1.0,2370
2421,2137421,16944,92,1544,17014.45,25.14,-1.00,-1.0,2435
2424,2137424,16916,536,1652,17004.92,25.24,-1.00,-1.0,2366
2426,2137426,16920,608,1344,16984.18,25.33,-1.00,-1.0,2436
2429,2137429,16904,712,1236,16964.08,25.24,-1.00,-1.0,2369
2434,2137434,16996,480,1280,17050.89,25.28,-1.00,-1.0,2456
2437,2137437,16928,276,1172,16970.77,25.19,-1.00,-1.0,2376
2439,2137439,17020,172,1296,17070.14,25.33,-1.00,-1.0,2362
2442,2137442,17108,348,1552,17181.78,25.24,-1.00,-1.0,2435
2445,2137445,17044,248,1528,17114.15,25.19,-1.00,-1.0,2368
2448,2137448,17064,80,1508,17130.69,25.24,-1.00,-1.0,2429
2450,2137450,17084,144,1688,17167.79,25.33,-1.00,-1.0,2372
2453,2137453,16944,184,1852,17045.91,25.33,-1.00,-1.0,2435
2456,2137456,17040,0,1648,17119.51,25.28,-1.00,-1.0,2367
2461,2137461,17020,88,1404,17078.04,25.19,-1.00,-1.0,2440
2464,2137464,17060,400,1356,17118.48,25.33,-1.00,-1.0,2371
2466,2137466,17024,528,1320,17083.26,25.19,-1.00,-1.0,2423
2469,2137469,16976,508,1248,17029.39,25.24,-1.00,-1.0,2366
2472,2137472,17016,600,1416,17085.35,25.38,-1.00,-1.0,2437
2475,2137475,16868,544,1196,16919.10,25.24,-1.00,-1.0,2364
2477,2137477,16820,484,1244,16872.88,25.19,-1.00,-1.0,2360
2480,2137480,17020,364,1288,17072.55,25.24,-1.00,-1.0,2450
2483,2137483,17028,316,1572,17103.33,25.28,-1.00,-1.0,2375
2488,2137488,17144,48,1544,17213.45,25.19,-1.00,-1.0,2441
2491,2137491,17200,-96,1520,17267.30,25.19,-1.00,-1.0,2373
2494,2137494,17076,-76,1580,17149.11,25.28,-1.00,-1.0,2436
2496,2137496,17024,-52,1516,17091.45,25.28,-1.00,-1.0,2367
2499,2137499,16984,-20,1400,17041.62,25.19,-1.00,-1.0,2434
2502,2137502,16984,352,1520,17055.51,25.28,-1.00,-1.0,2365
2504,2137504,16948,644,1564,17032.19,25.19,-1.00,-1.0,2438
2507,2137507,16904,684,1632,16996.37,25.28,-1.00,-1.0,2354
2510,2137510,16956,688,1564,17041.87,25.33,-1.00,-1.0,2368
2516,2137516,17008,592,1368,17073.19,25.24,-1.00,-1.0,2444
2518,2137518,17004,516,1540,17081.39,25.33,-1.00,-1.0,2381
2521,2137521,17004,332,1588,17081.22,25.33,-1.00,-1.0,2430
2524,2137524,17124,380,1644,17206.93,25.33,-1.00,-1.0,2373
2527,2137527,17108,332,1636,17189.25,25.24,-1.00,-1.0,2445
2529,2137529,17060,280,1628,17139.79,25.24,-1.00,-1.0,2370
2532,2137532,16992,160,1612,17069.04,25.24,-1.00,-1.0,2446
2535,2137535,16996,-32,1356,17050.04,25.33,-1.00,-1.0,2374
2540,2137540,16980,72,1332,17032.32,25.33,-1.00,-1.0,2444
2542,2137542,17024,72,1120,17060.96,25.33,-1.00,-1.0,2376
2545,2137545,16972,376,1212,17019.38,25.28,-1.00,-1.0,2442
2548,2137548,17012,424,1380,17073.15,25.28,-1.00,-1.0,2428
2551,2137551,17044,520,1480,17116.04,25.24,-1.00,-1.0,2363
2553,2137553,16912,576,1536,16991.38,25.28,-1.00,-1.0,2431
2556,2137556,16972,608,1632,17061.12,25.24,-1.00,-1.0,2426
2559,2137559,17012,468,1704,17103.53,25.28,-1.00,-1.0,2438
2562,2137562,16980,368,1696,17068.46,25.24,-1.00,-1.0,2380
2567,2137567,17088,160,1648,17168.03,25.24,-1.00,-1.0,2450
2570,2137570,17108,-128,1488,17173.07,25.33,-1.00,-1.0,2369
2572,2137572,16928,-56,1440,16989.23,25.28,-1.00,-1.0,2444
2575,2137575,17064,16,1380,17119.72,25.33,-1.00,-1.0,2373
2578,2137578,16948,220,1232,16994.14,25.19,-1.00,-1.0,2436
2581,2137581,16876,200,1264,16924.45,25.24,-1.00,-1.0,2367
2583,2137583,16944,184,1144,16983.57,25.28,-1.00,-1.0,2443
2586,2137586,16896,216,1268,16944.89,25.33,-1.00,-1.0,2374
2589,2137589,16972,208,1396,17030.59,25.19,-1.00,-1.0,2361
2594,2137594,17112,520,1588,17193.39,25.28,-1.00,-1.0,2446
2596,2137596,17184,568,1832,17290.71,25.33,-1.00,-1.0,2373
2599,2137599,16964,588,1964,17087.43,25.28,-1.00,-1.0,2443
2602,2137602,17096,380,1748,17189.33,25.19,-1.00,-1.0,2374
2605,2137605,17028,196,1860,17130.41,25.38,-1.00,-1.0,2450
2607,2137607,17032,268,1820,17131.06,25.28,-1.00,-1.0,2377
2610,2137610,16984,452,1752,17080.11,25.19,-1.00,-1.0,2441
2613,2137613,17080,476,1704,17171.39,25.28,-1.00,-1.0,2374
2618,2137618,16980,288,1512,17049.62,25.28,-1.00,-1.0,2446
2620,2137620,16992,160,1384,17049.02,25.33,-1.00,-1.0,2369
2623,2137623,16896,144,1372,16952.22,25.28,-1.00,-1.0,2444
2626,2137626,16864,260,1252,16912.41,25.33,-1.00,-1.0,2366
2629,2137629,16956,212,1216,17000.87,25.28,-1.00,-1.0,2362
2631,2137631,17108,240,1348,17162.70,25.19,-1.00,-1.0,2437
2634,2137634,17012,152,1504,17079.03,25.28,-1.00,-1.0,2374
2637,2137637,17096,200,1468,17160.08,25.28,-1.00,-1.0,2433
2640,2137640,17000,200,1496,17066.87,25.28,-1.00,-1.0,2372
2645,2137645,17100,464,1608,17181.71,25.28,-1.00,-1.0,2444
2647,2137647,17036,552,1704,17129.90,25.19,-1.00,-1.0,2373
2650,2137650,17084,484,1756,17180.83,25.38,-1.00,-1.0,2441
2653,2137653,16984,264,1460,17048.68,25.28,-1.00,-1.0,2372
2656,2137656,16940,292,1568,17014.92,25.28,-1.00,-1.0,2446
2658,2137658,16892,264,1572,16967.04,25.38,-1.00,-1.0,2373
2661,2137661,17044,324,1460,17109.49,25.28,-1.00,-1.0,2435
2664,2137664,17072,336,1540,17144.61,25.19,-1.00,-1.0,2372
2666,2137666,17100,552,1464,17171.43,25.19,-1.00,-1.0,2367
2671,2137671,16904,348,1620,16985.01,25.19,-1.00,-1.0,2449
2674,2137674,17000,344,1584,17077.10,25.19,-1.00,-1.0,2384
2677,2137677,17036,268,1396,17095.20,25.24,-1.00,-1.0,2432
2680,2137680,17028,440,1304,17083.52,25.19,-1.00,-1.0,2372
2682,2137682,17036,364,1336,17092.18,25.24,-1.00,-1.0,2438
2685,2137685,16932,164,1376,16988.61,25.28,-1.00,-1.0,2381
2688,2137688,16956,196,1340,17010.00,25.24,-1.00,-1.0,2435
2691,2137691,17064,240,1264,17112.43,25.28,-1.00,-1.0,2374
2696,2137696,17000,244,1444,17062.96,25.28,-1.00,-1.0,2447
2698,2137698,17068,308,1400,17128.09,25.24,-1.00,-1.0,2369
2701,2137701,17028,340,1436,17091.82,25.28,-1.00,-1.0,2438
2704,2137704,16940,464,1476,17010.51,25.24,-1.00,-1.0,2366
2707,2137707,17020,396,1440,17085.40,25.28,-1.00,-1.0,2360
2709,2137709,17060,504,1596,17141.90,25.33,-1.00,-1.0,2444
2712,2137712,16996,356,1592,17074.11,25.28,-1.00,-1.0,2374
2715,2137715,17056,496,1472,17126.59,25.24,-1.00,-1.0,2435
2717,2137717,17064,456,1400,17127.41,25.19,-1.00,-1.0,2366
2722,2137722,17024,320,1288,17075.65,25.24,-1.00,-1.0,2447
2725,2137725,17028,292,1356,17084.40,25.28,-1.00,-1.0,2377
2728,2137728,17028,320,1264,17077.85,25.24,-1.00,-1.0,2423
2731,2137731,16984,136,1312,17035.14,25.28,-1.00,-1.0,2366
2733,2137733,16940,-28,1384,16996.46,25.24,-1.00,-1.0,2446
2736,2137736,17096,108,1376,17151.62,25.19,-1.00,-1.0,2366
2739,2137739,16976,40,1456,17038.37,25.24,-1.00,-1.0,2461
2742,2137742,19180,-128,932,19203.06,25.24,-1.00,-1.0,2366
2744,2137744,11748,9984,-15620,21947.21,25.19,-1.00,-1.0,2365
2749,2137749,16720,3248,-15256,22865.99,25.33,-1.00,-1.0,2453
2752,2137752,21944,16808,-14880,31392.08,25.14,-1.00,-1.0,2370
2755,2137755,7544,-17548,-3048,19342.56,25.24,-1.00,-1.0,2447
2757,2137757,23024,-22440,3888,32384.79,25.33,-1.00,-1.0,2374
2760,2137760,4652,-1152,800,4858.83,25.24,-1.00,-1.0,2444
2763,2137763,28100,17660,-888,33200.52,25.24,-1.00,-1.0,2353
2766,2137766,5972,-1356,8564,10528.32,25.24,-1.00,-1.0,2450
2768,2137768,26536,1532,1228,26608.54,25.33,-1.00,-1.0,2372
2773,2137773,21928,14572,4204,26661.85,25.33,-1.00,-1.0,2442
2776,2137776,17948,-12984,-408,22155.84,25.19,-1.00,-1.0,2367
2779,2137779,10948,-23040,-132,25509.17,25.24,-1.00,-1.0,2443
2781,2137781,20568,8688,3832,22654.10,25.38,-1.00,-1.0,2363
2784,2137784,14832,17800,6380,24031.91,25.24,-1.00,-1.0,2453
2787,2137787,20008,-1700,960,20103.03,25.28,-1.00,-1.0,2365
2790,2137790,12620,-11324,-808,16974.99,25.24,-1.00,-1.0,2444
2792,2137792,19776,6748,4188,21311.15,25.28,-1.00,-1.0,2364
2797,2137797,15592,-13752,2036,20889.55,25.38,-1.00,-1.0,2441
2800,2137800,15836,-17764,240,23799.08,25.28,-1.00,-1.0,2367
2803,2137803,19776,15144,2168,25002.62,25.28,-1.00,-1.0,2368
2806,2137806,17644,18268,2164,25489.48,25.24,-1.00,-1.0,2437
2808,2137808,18264,-8360,-1008,20111.67,25.24,-1.00,-1.0,2366
2811,2137811,14400,-8040,2436,16671.40,25.24,-1.00,-1.0,2436
2814,2137814,19460,7968,1972,21120.36,25.28,-1.00,-1.0,2371
2817,2137817,15396,88,680,15411.26,25.33,-1.00,-1.0,2437
2819,2137819,18768,-13632,-800,23210.11,25.19,-1.00,-1.0,2372
2824,2137824,16828,12872,8428,22801.34,25.24,-1.00,-1.0,2448
2827,2137827,18744,8180,-676,20462.33,25.24,-1.00,-1.0,2373
2830,2137830,14592,-8960,1688,17206.32,25.28,-1.00,-1.0,2441
2833,2137833,20288,-11272,-3220,23431.38,25.24,-1.00,-1.0,2371
2835,2137835,13980,5660,2472,15283.55,25.28,-1.00,-1.0,2462
2838,2137838,13836,3684,1312,14378.04,25.19,-1.00,-1.0,2366
2841,2137841,18540,-2432,2916,18924.83,25.33,-1.00,-1.0,2438
2844,2137844,13892,2436,2008,14246.19,25.28,-1.00,-1.0,2365
2849,2137849,10332,7488,2888,13082.85,25.28,-1.00,-1.0,2440
2851,2137851,23196,-9956,1512,25287.60,25.19,-1.00,-1.0,2353
2854,2137854,10864,-7184,836,13051.25,25.19,-1.00,-1.0,2436
2857,2137857,21632,2160,356,21742.49,25.28,-1.00,-1.0,2367
2859,2137859,14176,3836,760,14705.49,25.28,-1.00,-1.0,2361
2862,2137862,17580,-3556,2396,18095.37,25.24,-1.00,-1.0,2436
2865,2137865,17320,-3212,1884,17715.78,25.19,-1.00,-1.0,2365
2868,2137868,17820,5104,1564,18602.40,25.24,-1.00,-1.0,2443
2870,2137870,16784,-1272,64,16832.25,25.28,-1.00,-1.0,2364
2875,2137875,15848,-4024,1008,16381.93,25.28,-1.00,-1.0,2452
2878,2137878,18176,3204,2220,18589.27,25.28,-1.00,-1.0,2375
2881,2137881,16128,7868,3328,18250.85,25.19,-1.00,-1.0,2439
2884,2137884,18192,196,2144,18318.95,25.19,-1.00,-1.0,2364
2886,2137886,15136,556,1796,15252.32,25.19,-1.00,-1.0,2438
2889,2137889,15968,1528,336,16044.46,25.38,-1.00,-1.0,2372
2892,2137892,16860,172,500,16868.29,25.28,-1.00,-1.0,2437
2895,2137895,17204,-1352,680,17270.44,25.28,-1.00,-1.0,2360
2900,2137900,16456,220,1648,16539.78,25.28,-1.00,-1.0,2442
2902,2137902,18356,1292,1172,18438.70,25.24,-1.00,-1.0,2368
2905,2137905,17836,2512,1340,18061.80,25.28,-1.00,-1.0,2364
2908,2137908,16820,-2772,916,17071.48,25.28,-1.00,-1.0,2446
2910,2137910,17156,-7176,244,18597.93,25.19,-1.00,-1.0,2375
2913,2137913,16612,-1528,2516,16870.79,25.38,-1.00,-1.0,2436
2916,2137916,17100,4860,3152,18054.49,25.28,-1.00,-1.0,2365
2919,2137919,16660,2572,2332,17017.90,25.38,-1.00,-1.0,2449
2921,2137921,18132,-8,1020,18160.67,25.24,-1.00,-1.0,2364
2926,2137926,16176,3480,1608,16624.05,25.28,-1.00,-1.0,2442
2929,2137929,17744,-1740,700,17842.85,25.24,-1.00,-1.0,2367
2932,2137932,15612,-2860,864,15895.30,25.28,-1.00,-1.0,2443
2934,2137934,17736,2944,2436,18142.96,25.24,-1.00,-1.0,2364
2937,2137937,16504,2688,1904,16829.52,25.19,-1.00,-1.0,2437
2940,2137940,17332,-1512,156,17398.53,25.33,-1.00,-1.0,2363
2943,2137943,17312,-1248,1864,17456.73,25.38,-1.00,-1.0,2447
2945,2137945,16952,2940,2128,17336.16,25.24,-1.00,-1.0,2364
2948,2137948,17476,-1392,1128,17567.60,25.33,-1.00,-1.0,2361
2953,2137953,17212,728,1532,17295.37,25.19,-1.00,-1.0,2443
2956,2137956,16520,3040,2368,16963.47,25.33,-1.00,-1.0,2366
2959,2137959,17004,248,1776,17098.29,25.28,-1.00,-1.0,2444
2961,2137961,17092,56,1544,17161.69,25.24,-1.00,-1.0,2364
2964,2137964,16864,3216,1956,17278.98,25.19,-1.00,-1.0,2436
2967,2137967,16724,1388,1200,16824.35,25.24,-1.00,-1.0,2364
2970,2137970,17060,-2240,316,17209.33,25.28,-1.00,-1.0,2444
2972,2137972,16660,224,1500,16728.89,25.28,-1.00,-1.0,2364
2977,2137977,16848,860,968,16897.68,25.19,-1.00,-1.0,2440
2980,2137980,17452,-604,1288,17509.88,25.28,-1.00,-1.0,2366
2983,2137983,16652,684,1684,16750.90,25.19,-1.00,-1.0,2436
2986,2137986,17628,544,1500,17700.07,25.33,-1.00,-1.0,2365
2988,2137988,16768,-2096,1044,16930.71,25.19,-1.00,-1.0,2436
2991,2137991,17304,-2384,1308,17516.36,25.24,-1.00,-1.0,2350
2994,2137994,17456,8,2208,17595.09,25.28,-1.00,-1.0,2363
2997,2137997,17012,2644,2140,17348.73,25.24,-1.00,-1.0,2450
3000,2138000,17340,40,1296,17388.41,25.28,-1.00,-1.0,2368
3005,2138005,16748,516,1052,16788.94,25.28,-1.00,-1.0,2441
3007,2138007,16940,504,664,16960.50,25.28,-1.00,-1.0,2366
3010,2138010,16636,240,864,16660.15,25.19,-1.00,-1.0,2437
3013,2138013,17016,1896,1248,17166.73,25.28,-1.00,-1.0,2373
3016,2138016,17004,3872,1804,17532.34,25.28,-1.00,-1.0,2436
3018,2138018,16848,1192,2012,17009.53,25.28,-1.00,-1.0,2364
3021,2138021,17040,-1280,1444,17148.91,25.28,-1.00,-1.0,2436
3024,2138024,16876,-1396,1364,16988.49,25.19,-1.00,-1.0,2364
3029,2138029,17232,-1168,1380,17326.58,25.19,-1.00,-1.0,2441
3031,2138031,17424,-736,1656,17517.98,25.24,-1.00,-1.0,2366
3034,2138034,17128,1068,2076,17286.38,25.19,-1.00,-1.0,2436
3037,2138037,17144,1148,1948,17292.46,25.19,-1.00,-1.0,2426
3040,2138040,16852,-1132,1232,16934.85,25.28,-1.00,-1.0,2364
3042,2138042,16588,-1236,1016,16664.98,25.19,-1.00,-1.0,2429
3045,2138045,16820,872,1172,16883.32,25.19,-1.00,-1.0,2373
3048,2138048,16800,1680,1204,16926.67,25.28,-1.00,-1.0,2428
3051,2138051,16964,912,1140,17026.70,25.38,-1.00,-1.0,2374
3056,2138056,17080,2496,1728,17347.69,25.28,-1.00,-1.0,2440
3058,2138058,17328,500,1720,17420.33,25.24,-1.00,-1.0,2372
3061,2138061,16868,-1256,1816,17011.90,25.28,-1.00,-1.0,2434
3064,2138064,17104,-588,1900,17219.25,25.33,-1.00,-1.0,2369
3067,2138067,17080,444,1636,17163.92,25.19,-1.00,-1.0,2434
3069,2138069,17208,-876,1308,17279.86,25.24,-1.00,-1.0,2374
3072,2138072,16780,-1136,1456,16881.32,25.28,-1.00,-1.0,2434
3075,2138075,16812,-324,1764,16907.39,25.24,-1.00,-1.0,2367
3080,2138080,17168,-392,1104,17207.93,25.24,-1.00,-1.0,2443
3083,2138083,17016,292,1244,17063.91,25.24,-1.00,-1.0,2374
3085,2138085,17200,1780,1440,17351.71,25.28,-1.00,-1.0,2360
3088,2138088,16856,1588,1444,16992.11,25.19,-1.00,-1.0,2420
3091,2138091,17184,136,1392,17240.82,25.24,-1.00,-1.0,2367
3093,2138093,16828,904,1608,16928.81,25.19,-1.00,-1.0,2435
3096,2138096,17212,1772,1452,17363.79,25.19,-1.00,-1.0,2370
3099,2138099,16924,1216,1456,17029.98,25.28,-1.00,-1.0,2432
3102,2138102,16992,-340,1120,17032.27,25.28,-1.00,-1.0,2361
3107,2138107,16888,760,1872,17008.43,25.33,-1.00,-1.0,2447
3110,2138110,17004,-388,1892,17113.33,25.33,-1.00,-1.0,2369
3112,2138112,17036,-1096,1864,17172.68,25.19,-1.00,-1.0,2442
3115,2138115,17244,624,1720,17340.80,25.24,-1.00,-1.0,2373
3118,2138118,17312,1128,1524,17415.52,25.28,-1.00,-1.0,2436
3121,2138121,17228,36,1296,17276.71,25.24,-1.00,-1.0,2367
3123,2138123,16956,-340,1400,17017.10,25.19,-1.00,-1.0,2445
3126,2138126,16752,944,1516,16846.93,25.24,-1.00,-1.0,2366
3129,2138129,16992,1460,1300,17104.08,25.38,-1.00,-1.0,2359
3133,2138133,16680,1524,984,16778.36,25.24,-1.00,-1.0,2439
3136,2138136,16844,1040,1236,16921.28,25.28,-1.00,-1.0,2369
3139,2138139,16852,-188,1416,16912.43,25.24,-1.00,-1.0,2433
3142,2138142,17152,-1004,1276,17228.68,25.28,-1.00,-1.0,2367
3144,2138144,17188,-1204,1380,17285.29,25.24,-1.00,-1.0,2421
3147,2138147,17296,-176,1836,17394.06,25.28,-1.00,-1.0,2367
3150,2138150,17124,560,2072,17257.99,25.14,-1.00,-1.0,2434
3153,2138153,17156,628,1880,17270.12,25.24,-1.00,-1.0,2366
3157,2138157,16936,44,1740,17025.21,25.24,-1.00,-1.0,2439
3160,2138160,16924,-128,1600,16999.95,25.28,-1.00,-1.0,2370
3163,2138163,16868,216,1308,16920.02,25.24,-1.00,-1.0,2432
3166,2138166,17044,908,1196,17110.02,25.24,-1.00,-1.0,2366
3168,2138168,17000,1912,1108,17143.03,25.14,-1.00,-1.0,2434
3171,2138171,16940,1760,1300,17080.73,25.19,-1.00,-1.0,2367
3174,2138174,16960,848,1292,17030.27,25.24,-1.00,-1.0,2364
3177,2138177,16864,-236,1232,16910.59,25.28,-1.00,-1.0,2439
3180,2138180,16976,-652,1480,17052.86,25.24,-1.00,-1.0,2373
3185,2138185,16988,-660,1932,17110.24,25.33,-1.00,-1.0,2437
3187,2138187,17304,252,1932,17413.34,25.33,-1.00,-1.0,2368
3190,2138190,17324,792,1960,17452.50,25.33,-1.00,-1.0,2435
3193,2138193,17136,108,1632,17213.88,25.24,-1.00,-1.0,2367
3196,2138196,16960,-520,1520,17035.91,25.33,-1.00,-1.0,2439
3198,2138198,16888,-284,1220,16934.39,25.24,-1.00,-1.0,2368
3201,2138201,17016,1052,1268,17095.58,25.24,-1.00,-1.0,2420
3204,2138204,17032,1412,1496,17155.78,25.28,-1.00,-1.0,2369
3209,2138209,16896,1024,1612,17003.59,25.28,-1.00,-1.0,2448
3212,2138212,16944,620,1392,17012.38,25.38,-1.00,-1.0,2376
3214,2138214,16980,-108,1492,17045.77,25.24,-1.00,-1.0,2442
3217,2138217,17176,-816,1264,17241.77,25.38,-1.00,-1.0,2383
3220,2138220,17244,-516,1440,17311.71,25.24,-1.00,-1.0,2361
3222,2138222,17152,336,1780,17247.39,25.24,-1.00,-1.0,2432
3225,2138225,17032,504,1624,17116.67,25.19,-1.00,-1.0,2367
3228,2138228,16872,492,1720,16966.58,25.24,-1.00,-1.0,2420
3231,2138231,16816,632,1552,16899.29,25.28,-1.00,-1.0,2377
3236,2138236,16980,-116,1080,17014.71,25.19,-1.00,-1.0,2447
3238,2138238,16932,-424,1056,16970.20,25.33,-1.00,-1.0,2369
3241,2138241,17004,664,1272,17064.43,25.28,-1.00,-1.0,2435
3244,2138244,17044,1132,1364,17135.92,25.24,-1.00,-1.0,2366
3247,2138247,17036,928,1164,17100.92,25.28,-1.00,-1.0,2437
3249,2138249,16984,608,1260,17041.52,25.24,-1.00,-1.0,2367
3252,2138252,17040,816,1264,17106.29,25.28,-1.00,-1.0,2437
3255,2138255,16868,380,1448,16934.30,25.33,-1.00,-1.0,2366
3258,2138258,16792,-396,1392,16854.25,25.19,-1.00,-1.0,2367
3263,2138263,17020,0,1584,17093.55,25.28,-1.00,-1.0,2442
3265,2138265,17156,1028,1804,17281.19,25.19,-1.00,-1.0,2369
3268,2138268,17132,592,1676,17223.96,25.28,-1.00,-1.0,2437
3271,2138271,17172,188,1592,17246.66,25.19,-1.00,-1.0,2366
3274,2138274,17132,340,1484,17199.51,25.19,-1.00,-1.0,2444
3276,2138276,17092,392,1400,17153.72,25.28,-1.00,-1.0,2367
3279,2138279,16884,36,1288,16933.09,25.28,-1.00,-1.0,2437
3282,2138282,16780,24,1212,16823.73,25.28,-1.00,-1.0,2366
3287,2138287,16816,580,1352,16880.23,25.24,-1.00,-1.0,2439
3290,2138290,16816,304,1548,16889.84,25.24,-1.00,-1.0,2369
3292,2138292,16924,-40,1432,16984.52,25.28,-1.00,-1.0,2432
3295,2138295,17060,96,1536,17129.28,25.33,-1.00,-1.0,2366
3298,2138298,17208,160,1552,17278.59,25.19,-1.00,-1.0,2360
3300,2138300,17180,0,1704,17264.30,25.28,-1.00,-1.0,2437
3303,2138303,17116,-72,1548,17186.01,25.28,-1.00,-1.0,2367
3306,2138306,16880,244,1664,16963.57,25.19,-1.00,-1.0,2432
3309,2138309,16784,484,1624,16869.33,25.24,-1.00,-1.0,2353
3314,2138314,16992,568,1420,17060.69,25.24,-1.00,-1.0,2447
3316,2138316,17016,532,1460,17086.80,25.38,-1.00,-1.0,2369
3319,2138319,16900,472,1480,16971.25,25.14,-1.00,-1.0,2444
3322,2138322,17020,332,1252,17069.21,25.19,-1.00,-1.0,2366
3325,2138325,17008,108,1388,17064.88,25.33,-1.00,-1.0,2442
3327,2138327,16964,-112,1416,17023.36,25.28,-1.00,-1.0,2367
3330,2138330,17068,-276,1520,17137.77,25.33,-1.00,-1.0,2448
3333,2138333,17052,160,1628,17130.29,25.28,-1.00,-1.0,2366
3336,2138336,17036,604,1588,17120.51,25.24,-1.00,-1.0,2355
3341,2138341,17064,316,1600,17141.76,25.28,-1.00,-1.0,2456
3344,2138344,17084,564,1580,17166.17,25.28,-1.00,-1.0,2370
3347,2138347,17020,432,1340,17078.13,25.28,-1.00,-1.0,2432
3350,2138350,17040,80,1192,17081.83,25.28,-1.00,-1.0,2367
3352,2138352,17004,392,1468,17071.75,25.28,-1.00,-1.0,2435
3355,2138355,16964,1092,1608,17074.99,25.38,-1.00,-1.0,2367
3358,2138358,16940,884,1784,17056.60,25.19,-1.00,-1.0,2432
3361,2138361,16964,388,1608,17044.46,25.28,-1.00,-1.0,2367
3365,2138365,17060,44,1512,17126.93,25.33,-1.00,-1.0,2439
3368,2138368,17112,164,1608,17188.17,25.28,-1.00,-1.0,2370
3371,2138371,17196,-36,1480,17259.61,25.33,-1.00,-1.0,2370
3374,2138374,17088,328,1412,17149.38,25.24,-1.00,-1.0,2448
3376,2138376,17136,980,1476,17227.35,25.28,-1.00,-1.0,2427
3379,2138379,16972,776,1452,17051.66,25.24,-1.00,-1.0,2443
3382,2138382,16852,96,1332,16904.83,25.19,-1.00,-1.0,2373
3385,2138385,16800,140,1460,16863.90,25.33,-1.00,-1.0,2435
3387,2138387,16848,472,1260,16901.64,25.24,-1.00,-1.0,2373
3392,2138392,16940,512,1448,17009.48,25.33,-1.00,-1.0,2437
3395,2138395,17212,352,1464,17277.74,25.19,-1.00,-1.0,2368
3398,2138398,17160,184,1560,17231.75,25.19,-1.00,-1.0,2433
3401,2138401,17196,-60,1440,17256.29,25.28,-1.00,-1.0,2367
3403,2138403,17060,-384,1404,17121.98,25.24,-1.00,-1.0,2433
3406,2138406,16984,-48,1580,17057.40,25.28,-1.00,-1.0,2366
3409,2138409,16896,388,1444,16962.03,25.24,-1.00,-1.0,2367
3412,2138412,17016,516,1612,17099.97,25.24,-1.00,-1.0,2434
3414,2138414,16964,676,1440,17038.42,25.24,-1.00,-1.0,2366
3419,2138419,16904,472,1388,16967.46,25.33,-1.00,-1.0,2437
3422,2138422,16924,108,1396,16981.82,25.28,-1.00,-1.0,2368
3425,2138425,17084,52,1456,17146.01,25.33,-1.00,-1.0,2440
3427,2138427,17000,316,1564,17074.72,25.28,-1.00,-1.0,2367
3430,2138430,17164,544,1604,17247.37,25.33,-1.00,-1.0,2437
3433,2138433,17104,492,1520,17178.45,25.19,-1.00,-1.0,2367
3436,2138436,17044,296,1608,17122.24,25.33,-1.00,-1.0,2442
3438,2138438,17028,244,1724,17116.79,25.28,-1.00,-1.0,2368
3443,2138443,16940,-188,1476,17005.22,25.38,-1.00,-1.0,2440
3446,2138446,16900,-128,1284,16949.19,25.28,-1.00,-1.0,2376
3449,2138449,16956,108,1200,16998.75,25.33,-1.00,-1.0,2360
3451,2138451,17004,452,1220,17053.70,25.24,-1.00,-1.0,2434
3454,2138454,17140,500,1320,17198.02,25.33,-1.00,-1.0,2368
3457,2138457,17044,504,1416,17110.14,25.33,-1.00,-1.0,2432
3460,2138460,17028,344,1304,17081.32,25.24,-1.00,-1.0,2366
3462,2138462,16960,220,1404,17019.44,25.24,-1.00,-1.0,2434
3465,2138465,16916,264,1344,16971.36,25.24,-1.00,-1.0,2367
3470,2138470,17020,356,1552,17094.32,25.28,-1.00,-1.0,2445
3473,2138473,17112,260,1436,17174.12,25.28,-1.00,-1.0,2371
3476,2138476,17068,52,1548,17138.13,25.24,-1.00,-1.0,2442
3478,2138478,17144,-44,1376,17199.19,25.28,-1.00,-1.0,2376
3481,2138481,17096,-112,1600,17171.07,25.33,-1.00,-1.0,2433
3484,2138484,16996,64,1368,17051.09,25.19,-1.00,-1.0,2369
3486,2138486,17048,184,1472,17112.42,25.24,-1.00,-1.0,2360
3489,2138489,16904,612,1572,16987.96,25.24,-1.00,-1.0,2420
3492,2138492,16932,692,1540,17015.96,25.19,-1.00,-1.0,2374
3497,2138497,17020,588,1516,17097.50,25.38,-1.00,-1.0,2437
3500,2138500,16984,408,1572,17061.47,25.24,-1.00,-1.0,2376
3503,2138503,16980,488,1556,17058.13,25.19,-1.00,-1.0,2435
3505,2138505,17016,384,1724,17107.42,25.28,-1.00,-1.0,2368
3508,2138508,17044,372,1732,17135.81,25.38,-1.00,-1.0,2432
3511,2138511,17140,536,1528,17216.32,25.33,-1.00,-1.0,2374
3514,2138514,17132,536,1548,17210.14,25.28,-1.00,-1.0,2435
3516,2138516,17064,244,1532,17134.37,25.14,-1.00,-1.0,2367
3521,2138521,16980,228,1400,17039.14,25.24,-1.00,-1.0,2436
3524,2138524,16968,216,1376,17025.07,25.33,-1.00,-1.0,2369
3526,2138526,16964,304,1312,17017.38,25.28,-1.00,-1.0,2360
3529,2138529,17056,464,1140,17100.35,25.33,-1.00,-1.0,2469
3532,2138532,17028,616,1152,17078.04,25.33,-1.00,-1.0,2370
3535,2138535,16980,628,1316,17042.50,25.24,-1.00,-1.0,2423
3538,2138538,16912,632,1568,16996.29,25.33,-1.00,-1.0,2368
3540,2138540,17052,568,1684,17144.36,25.24,-1.00,-1.0,2437
3543,2138543,17020,476,1676,17108.94,25.24,-1.00,-1.0,2353
3548,2138548,16996,148,1492,17062.00,25.33,-1.00,-1.0,2446
3551,2138551,17024,-40,1636,17102.48,25.38,-1.00,-1.0,2369
3554,2138554,17124,-68,1256,17170.13,25.24,-1.00,-1.0,2451
3556,2138556,17004,-132,1276,17052.32,25.24,-1.00,-1.0,2373
3559,2138559,17020,16,1348,17073.30,25.33,-1.00,-1.0,2443
3562,2138562,17036,204,1084,17071.67,25.28,-1.00,-1.0,2353
3564,2138564,16964,228,1184,17006.80,25.33,-1.00,-1.0,2349
3567,2138567,16864,284,1252,16912.79,25.24,-1.00,-1.0,2436
3570,2138570,16804,264,1268,16853.84,25.24,-1.00,-1.0,2354
3575,2138575,16980,340,1480,17047.77,25.33,-1.00,-1.0,2439
3578,2138578,17052,456,1652,17137.90,25.33,-1.00,-1.0,2378
3580,2138580,17096,604,1724,17193.32,25.24,-1.00,-1.0,2444
3583,2138583,17156,488,1840,17261.29,25.33,-1.00,-1.0,2368
3586,2138586,17060,268,1572,17134.37,25.33,-1.00,-1.0,2436
3589,2138589,17032,232,1832,17131.81,25.24,-1.00,-1.0,2367
3591,2138591,17012,204,1792,17107.34,25.33,-1.00,-1.0,2440
3594,2138594,16968,340,1424,17031.04,25.24,-1.00,-1.0,2365
3599,2138599,16976,400,1480,17045.09,25.33,-1.00,-1.0,2452
3602,2138602,16928,256,1384,16986.41,25.24,-1.00,-1.0,2374
3604,2138604,16948,180,1260,16995.73,25.24,-1.00,-1.0,2347
3607,2138607,16996,152,1168,17036.76,25.19,-1.00,-1.0,2440
3610,2138610,16944,192,1372,17000.54,25.24,-1.00,-1.0,2364
3613,2138613,16996,304,1384,17054.97,25.28,-1.00,-1.0,2436
3615,2138615,16968,320,1404,17028.99,25.33,-1.00,-1.0,2371
3618,2138618,17064,308,1596,17141.24,25.28,-1.00,-1.0,2438
3621,2138621,17084,176,1556,17155.62,25.28,-1.00,-1.0,2365
3626,2138626,17004,228,1848,17105.64,25.28,-1.00,-1.0,2446
3629,2138629,17084,400,1660,17169.12,25.24,-1.00,-1.0,2354
3632,2138632,17084,404,1740,17177.13,25.28,-1.00,-1.0,2453
3634,2138634,17072,464,1652,17158.02,25.33,-1.00,-1.0,2373
3637,2138637,17044,332,1512,17114.15,25.19,-1.00,-1.0,2443
3640,2138640,16996,232,1324,17049.07,25.24,-1.00,-1.0,2367
3642,2138642,16856,172,1348,16910.69,25.28,-1.00,-1.0,2360
3645,2138645,16916,80,1312,16966.99,25.24,-1.00,-1.0,2438
3648,2138648,16912,212,1308,16963.83,25.28,-1.00,-1.0,2365
3653,2138653,17076,464,1360,17136.36,25.19,-1.00,-1.0,2443
3656,2138656,17052,496,1484,17123.64,25.28,-1.00,-1.0,2367
3659,2138659,17032,488,1376,17094.46,25.28,-1.00,-1.0,2451
3661,2138661,17044,524,1344,17104.94,25.19,-1.00,-1.0,2372
3664,2138664,17008,644,1480,17084.41,25.28,-1.00,-1.0,2437
3667,2138667,17036,464,1556,17113.20,25.28,-1.00,-1.0,2367
3670,2138670,17032,356,1504,17101.98,25.28,-1.00,-1.0,2432
3672,2138672,16860,484,1436,16927.96,25.28,-1.00,-1.0,2372
3677,2138677,16892,324,1384,16951.70,25.28,-1.00,-1.0,2448
3680,2138680,17068,384,1300,17121.74,25.33,-1.00,-1.0,2375
3683,2138683,17004,400,1384,17064.92,25.28,-1.00,-1.0,2360
3685,2138685,17072,380,1340,17128.72,25.28,-1.00,-1.0,2441
3688,2138688,17004,332,1452,17069.11,25.28,-1.00,-1.0,2353
3691,2138691,17080,452,1384,17141.94,25.28,-1.00,-1.0,2437
3694,2138694,16904,444,1444,16971.37,25.28,-1.00,-1.0,2369
3696,2138696,17024,380,1488,17093.13,25.28,-1.00,-1.0,2424
3699,2138699,17080,504,1400,17144.69,25.24,-1.00,-1.0,2366
3704,2138704,17040,348,1552,17114.07,25.24,-1.00,-1.0,2436
3707,2138707,17084,292,1468,17149.44,25.19,-1.00,-1.0,2368
3710,2138710,17040,288,1464,17105.20,25.28,-1.00,-1.0,2446
3712,2138712,17064,244,1424,17125.05,25.28,-1.00,-1.0,2365
3715,2138715,17028,160,1428,17088.52,25.24,-1.00,-1.0,2360
3718,2138718,17048,8,1540,17117.42,25.33,-1.00,-1.0,2444
3720,2138720,16948,16,1404,17006.06,25.14,-1.00,-1.0,2364
3723,2138723,16896,-12,1528,16964.96,25.28,-1.00,-1.0,2449
3726,2138726,16836,244,1760,16929.50,25.24,-1.00,-1.0,2365
3731,2138731,17004,264,1588,17080.03,25.24,-1.00,-1.0,2439
3734,2138734,17108,264,1616,17186.18,25.24,-1.00,-1.0,2366
3737,2138737,16988,348,1620,17068.62,25.24,-1.00,-1.0,2447
3739,2138739,17060,332,1612,17139.21,25.24,-1.00,-1.0,2365
3742,2138742,17084,184,1620,17161.62,25.24,-1.00,-1.0,2437
3745,2138745,17000,452,1456,17068.22,25.33,-1.00,-1.0,2363
3748,2138748,17024,460,1552,17100.79,25.24,-1.00,-1.0,2444
3750,2138750,16992,404,1548,17067.15,25.24,-1.00,-1.0,2365
3753,2138753,17060,428,1508,17131.87,25.28,-1.00,-1.0,2363
3758,2138758,16960,200,1500,17027.38,25.28,-1.00,-1.0,2450
3761,2138761,16984,220,1660,17066.35,25.28,-1.00,-1.0,2370
3764,2138764,17048,308,1532,17119.47,25.28,-1.00,-1.0,2452
3766,2138766,17040,376,1412,17102.54,25.28,-1.00,-1.0,2375
3769,2138769,17144,320,1492,17211.78,25.24,-1.00,-1.0,2436
3772,2138772,17052,304,1620,17131.48,25.28,-1.00,-1.0,2368
3775,2138775,17040,316,1632,17120.89,25.28,-1.00,-1.0,2451
3777,2138777,17112,408,1564,17188.17,25.28,-1.00,-1.0,2373
3782,2138782,17004,416,1420,17068.26,25.24,-1.00,-1.0,2443
3785,2138785,16912,524,1348,16973.73,25.28,-1.00,-1.0,2367
3788,2138788,16964,504,1460,17034.17,25.24,-1.00,-1.0,2450
3790,2138790,17004,484,1456,17073.08,25.24,-1.00,-1.0,2373
3793,2138793,16916,432,1556,16992.90,25.24,-1.00,-1.0,2360
3796,2138796,17080,256,1348,17135.02,25.24,-1.00,-1.0,2441
3798,2138798,16940,160,1504,17007.39,25.14,-1.00,-1.0,2363
3801,2138801,17068,224,1444,17130.44,25.33,-1.00,-1.0,2437
3804,2138804,17028,180,1388,17085.42,25.24,-1.00,-1.0,2373
3809,2138809,17000,112,1472,17063.98,25.24,-1.00,-1.0,2447
3812,2138812,17028,204,1424,17088.66,25.28,-1.00,-1.0,2375
3815,2138815,16964,280,1472,17030.05,25.33,-1.00,-1.0,2427
3818,2138818,16960,400,1232,17009.39,25.28,-1.00,-1.0,2367
3820,2138820,17028,388,1404,17090.19,25.24,-1.00,-1.0,2446
3823,2138823,16988,380,1372,17047.55,25.28,-1.00,-1.0,2370
3826,2138826,16988,352,1348,17045.03,25.33,-1.00,-1.0,2439
3829,2138829,17016,336,1528,17087.77,25.28,-1.00,-1.0,2365
3831,2138831,16936,352,1460,17002.46,25.24,-1.00,-1.0,2368
3836,2138836,16960,264,1604,17037.73,25.33,-1.00,-1.0,2447
3839,2138839,16996,268,1460,17060.70,25.24,-1.00,-1.0,2381
3842,2138842,17000,44,1560,17071.48,25.24,-1.00,-1.0,2443
3845,2138845,16956,172,1580,17030.32,25.38,-1.00,-1.0,2371
3847,2138847,17044,192,1452,17106.81,25.33,-1.00,-1.0,2439
3850,2138850,16988,212,1680,17072.19,25.33,-1.00,-1.0,2379
3853,2138853,16892,348,1488,16960.98,25.24,-1.00,-1.0,2438
3856,2138856,16968,332,1332,17023.44,25.38,-1.00,-1.0,2369
3861,2138861,17052,376,1532,17124.81,25.28,-1.00,-1.0,2437
3863,2138863,16720,168,2172,16861.32,25.28,-1.00,-1.0,2368
3866,2138866,9996,7784,-13228,18316.40,25.24,-1.00,-1.0,2456
3869,2138869,21320,-4024,25200,33253.20,25.24,-1.00,-1.0,2373
3871,2138871,17792,7812,18216,26634.66,25.33,-1.00,-1.0,2368
3874,2138874,28320,11152,-14976,33921.53,25.28,-1.00,-1.0,2435
3877,2138877,7248,-16784,-7156,19632.74,25.33,-1.00,-1.0,2365
3880,2138880,22868,-12900,2240,26350.96,25.28,-1.00,-1.0,2445
3882,2138882,10324,4516,432,11276.78,25.28,-1.00,-1.0,2364
3887,2138887,3548,80,5644,6667.04,25.28,-1.00,-1.0,2441
3890,2138890,26152,-404,-1180,26181.72,25.24,-1.00,-1.0,2370
3893,2138893,13988,20888,11544,27662.91,25.28,-1.00,-1.0,2439
3896,2138896,25576,6584,8156,27640.57,25.24,-1.00,-1.0,2365
3898,2138898,12152,-20404,1316,23785.00,25.28,-1.00,-1.0,2438
3901,2138901,12580,-16884,-1316,21096.39,25.33,-1.00,-1.0,2367
3904,2138904,20484,10372,4684,23433.15,25.38,-1.00,-1.0,2436
3907,2138907,14412,14084,5232,20819.19,25.24,-1.00,-1.0,2367
3912,2138912,12952,-8252,-2368,15538.89,25.33,-1.00,-1.0,2439
3914,2138914,18832,7520,4440,20758.33,25.33,-1.00,-1.0,2372
3917,2138917,14820,6204,-3096,16361.76,25.28,-1.00,-1.0,2453
3920,2138920,14716,-15400,-192,21301.58,25.33,-1.00,-1.0,2366
3923,2138923,17716,-5424,592,18537.18,25.28,-1.00,-1.0,2448
3925,2138925,16564,22456,7888,28997.56,25.33,-1.00,-1.0,2373
3928,2138928,17316,14412,440,22533.16,25.28,-1.00,-1.0,2431
3931,2138931,16660,-10164,1512,19574.18,25.33,-1.00,-1.0,2371
3933,2138933,17988,576,4036,18444.22,25.19,-1.00,-1.0,2346
3938,2138938,17808,-5424,-1196,18654.09,25.28,-1.00,-1.0,2438
3941,2138941,19212,-14724,1728,24266.91,25.28,-1.00,-1.0,2368
3944,2138944,13660,20,632,13674.63,25.28,-1.00,-1.0,2439
3947,2138947,18632,15112,6628,24888.84,25.28,-1.00,-1.0,2365
3949,2138949,16000,-2480,1504,16260.76,25.28,-1.00,-1.0,2437
3952,2138952,20792,-12296,-1132,24182.23,25.19,-1.00,-1.0,2366
3955,2138955,13132,-2252,2804,13615.56,25.28,-1.00,-1.0,2423
3958,2138958,20696,6700,4488,22211.63,25.28,-1.00,-1.0,2365
3963,2138963,19664,-6288,1296,20685.54,25.28,-1.00,-1.0,2440
3965,2138965,15592,7144,3132,17434.35,25.19,-1.00,-1.0,2375
3968,2138968,21824,11980,1964,24973.28,25.28,-1.00,-1.0,2448
3971,2138971,13944,-92,544,13954.91,25.28,-1.00,-1.0,2365
3974,2138974,19720,-9428,-16,21857.86,25.28,-1.00,-1.0,2446
3976,2138976,13288,3736,128,13803.80,25.28,-1.00,-1.0,2372
3979,2138979,20728,5356,868,21426.39,25.28,-1.00,-1.0,2437
3982,2138982,13612,-2800,176,13898.11,25.28,-1.00,-1.0,2366
3984,2138984,18052,-3620,904,18433.56,25.24,-1.00,-1.0,2359
3989,2138989,17596,5872,1964,18653.60,25.28,-1.00,-1.0,2440
3992,2138992,18676,-2204,104,18805.89,25.33,-1.00,-1.0,2367
3995,2138995,16324,-7164,1720,17909.61,25.38,-1.00,-1.0,2446
3997,2138997,17632,2560,1976,17926.12,25.33,-1.00,-1.0,2363
4000,2139000,17148,4008,2940,17853.89,25.28,-1.00,-1.0,2451
4003,2139003,16812,-116,1992,16930.00,25.33,-1.00,-1.0,2365
4006,2139006,17492,1064,2176,17658.91,25.28,-1.00,-1.0,2442
4009,2139009,15408,5124,2220,16388.72,25.28,-1.00,-1.0,2369
4014,2139014,16280,-3924,-476,16752.99,25.24,-1.00,-1.0,2438
4016,2139016,17300,676,608,17323.88,25.24,-1.00,-1.0,2368
4019,2139019,16956,2752,1840,17276.14,25.28,-1.00,-1.0,2470
4022,2139022,16408,-2208,1112,16593.20,25.28,-1.00,-1.0,2353
4025,2139025,18136,-668,916,18171.40,25.24,-1.00,-1.0,2434
4027,2139027,18136,4604,1664,18785.11,25.28,-1.00,-1.0,2372
4030,2139030,16192,-3964,800,16689.34,25.33,-1.00,-1.0,2437
4033,2139033,16824,-7912,336,18594.61,25.38,-1.00,-1.0,2364
4036,2139036,15740,488,2744,15984.85,25.28,-1.00,-1.0,2364
4041,2139041,17220,2084,1948,17454.69,25.28,-1.00,-1.0,2439
4043,2139043,17320,-2112,1324,17498.46,25.19,-1.00,-1.0,2369
4046,2139046,17932,936,1368,18008.45,25.28,-1.00,-1.0,2446
4049,2139049,16472,4728,1808,17232.23,25.28,-1.00,-1.0,2366
4052,2139052,17136,-2696,612,17357.58,25.28,-1.00,-1.0,2438
4054,2139054,16344,-2880,1064,16629.88,25.28,-1.00,-1.0,2367
4057,2139057,16940,2264,2404,17258.87,25.28,-1.00,-1.0,2436
4060,2139060,17044,3480,1496,17459.85,25.28,-1.00,-1.0,2372
4065,2139065,17180,-2000,1724,17381.73,25.33,-1.00,-1.0,2439
4067,2139067,17136,3004,2020,17514.19,25.33,-1.00,-1.0,2368
4070,2139070,17116,-104,1432,17176.11,25.24,-1.00,-1.0,2440
4073,2139073,17092,-3140,896,17401.12,25.33,-1.00,-1.0,2366
4076,2139076,16912,-152,1468,16976.27,25.33,-1.00,-1.0,2433
4078,2139078,16692,2896,1988,17057.60,25.24,-1.00,-1.0,2367
4081,2139081,17248,620,1696,17342.27,25.24,-1.00,-1.0,2360
4084,2139084,16724,-1252,1256,16817.77,25.28,-1.00,-1.0,2442
4087,2139087,17424,2324,1876,17678.12,25.33,-1.00,-1.0,2365
4092,2139092,17352,-1820,676,17460.28,25.24,-1.00,-1.0,2464
4094,2139094,16296,-1156,1520,16407.51,25.24,-1.00,-1.0,2370
4097,2139097,17052,2904,1336,17349.03,25.28,-1.00,-1.0,2441
4100,2139100,17028,2488,1120,17245.21,25.28,-1.00,-1.0,2366
4103,2139103,16908,-580,1672,17000.37,25.28,-1.00,-1.0,2446
4105,2139105,17060,16,1732,17147.70,25.28,-1.00,-1.0,2366
4108,2139108,17460,1540,1384,17582.34,25.28,-1.00,-1.0,2440
4111,2139111,16724,-360,1232,16773.18,25.19,-1.00,-1.0,2364
4116,2139116,17012,-1240,1960,17169.37,25.24,-1.00,-1.0,2443
4119,2139119,17292,3124,2352,17728.64,25.33,-1.00,-1.0,2371
4121,2139121,16836,120,1288,16885.62,25.19,-1.00,-1.0,2437
4124,2139124,17124,-1788,1008,17246.58,25.33,-1.00,-1.0,2368
4127,2139127,16808,344,1124,16849.05,25.24,-1.00,-1.0,2438
4130,2139130,16956,2192,912,17121.41,25.33,-1.00,-1.0,2369
4132,2139132,16664,172,936,16691.15,25.28,-1.00,-1.0,2362
4135,2139135,16896,504,980,16931.90,25.19,-1.00,-1.0,2439
4138,2139138,16960,3580,1980,17446.44,25.28,-1.00,-1.0,2366
4143,2139143,17128,-1320,1376,17233.81,25.24,-1.00,-1.0,2445
4145,2139145,16880,-1824,1624,17055.75,25.33,-1.00,-1.0,2370
4148,2139148,17256,120,1548,17325.71,25.19,-1.00,-1.0,2439
4151,2139151,17244,-444,1300,17298.63,25.24,-1.00,-1.0,2368
4154,2139154,17492,-1416,1664,17627.93,25.28,-1.00,-1.0,2431
4156,2139156,16924,472,2240,17078.12,25.24,-1.00,-1.0,2373
4159,2139159,17136,884,1512,17225.28,25.38,-1.00,-1.0,2438
4162,2139162,16768,-740,908,16808.86,25.33,-1.00,-1.0,2367
4167,2139167,16768,1220,1512,16880.18,25.28,-1.00,-1.0,2445
4170,2139170,16816,1688,1508,16967.65,25.33,-1.00,-1.0,2356
4173,2139173,17016,568,1212,17068.56,25.28,-1.00,-1.0,2361
4175,2139175,17452,1232,1460,17556.24,25.19,-1.00,-1.0,2439
4178,2139178,17072,2480,1788,17343.60,25.28,-1.00,-1.0,2366
4181,2139181,17208,1068,1564,17311.90,25.28,-1.00,-1.0,2438
4184,2139184,16860,-1272,1844,17008.17,25.28,-1.00,-1.0,2365
4186,2139186,17144,-72,1776,17235.90,25.28,-1.00,-1.0,2438
4189,2139189,17096,716,1464,17173.50,25.28,-1.00,-1.0,2367
4194,2139194,16944,-1452,1404,17063.96,25.28,-1.00,-1.0,2443
4197,2139197,16792,-368,1620,16873.98,25.19,-1.00,-1.0,2367
4199,2139199,16896,676,1592,16984.29,25.33,-1.00,-1.0,2438
4202,2139202,17128,-320,1036,17162.29,25.19,-1.00,-1.0,2366
4205,2139205,17092,280,1320,17145.18,25.24,-1.00,-1.0,2437
4208,2139208,17128,1456,1496,17254.75,25.28,-1.00,-1.0,2366
4210,2139210,17032,916,1420,17115.62,25.24,-1.00,-1.0,2438
4213,2139213,17000,-180,1308,17051.20,25.28,-1.00,-1.0,2366
4216,2139216,16992,608,1372,17058.14,25.33,-1.00,-1.0,2369
4221,2139221,16904,1480,1440,17029.66,25.33,-1.00,-1.0,2449
4223,2139223,17012,-436,948,17043.97,25.28,-1.00,-1.0,2369
4226,2139226,16844,452,1172,16890.77,25.24,-1.00,-1.0,2441
4229,2139229,16888,1076,1828,17020.69,25.28,-1.00,-1.0,2365
4232,2139232,16944,-424,1728,17037.16,25.24,-1.00,-1.0,2446
4234,2139234,17024,-1088,1644,17137.77,25.28,-1.00,-1.0,2366
4237,2139237,17252,1032,1816,17377.99,25.33,-1.00,-1.0,2438
4240,2139240,17312,1584,1536,17452.04,25.28,-1.00,-1.0,2366
4245,2139245,16960,-984,1228,17032.85,25.28,-1.00,-1.0,2446
4248,2139248,16948,452,1472,17017.81,25.28,-1.00,-1.0,2370
4250,2139250,16844,1524,1316,16963.93,25.19,-1.00,-1.0,2438
4253,2139253,16900,996,1016,16959.78,25.28,-1.00,-1.0,2367
4256,2139256,16724,916,1268,16797.00,25.19,-1.00,-1.0,2439
4259,2139259,16800,1180,1448,16903.52,25.28,-1.00,-1.0,2368
4261,2139261,16900,-80,1372,16955.79,25.28,-1.00,-1.0,2362
4264,2139264,17172,-1496,1496,17301.84,25.24,-1.00,-1.0,2439
4267,2139267,17164,-1068,1420,17255.72,25.28,-1.00,-1.0,2373
4272,2139272,17248,608,1884,17361.24,25.28,-1.00,-1.0,2449
4274,2139274,17184,200,1832,17282.54,25.24,-1.00,-1.0,2368
4277,2139277,16872,276,1788,16968.72,25.28,-1.00,-1.0,2452
4280,2139280,16800,228,1716,16888.95,25.24,-1.00,-1.0,2366
4283,2139283,16816,-116,1532,16886.04,25.28,-1.00,-1.0,2445
4285,2139285,16972,-36,1176,17012.73,25.33,-1.00,-1.0,2365
4288,2139288,16888,1684,1196,17013.84,25.28,-1.00,-1.0,2453
4291,2139291,17036,1984,1392,17207.53,25.33,-1.00,-1.0,2366
4296,2139296,16884,180,1484,16950.05,25.24,-1.00,-1.0,2442
4299,2139299,17020,76,1172,17060.47,25.33,-1.00,-1.0,2367
4301,2139301,17012,-380,1396,17073.41,25.24,-1.00,-1.0,2439
4304,2139304,16916,-996,1740,17034.40,25.24,-1.00,-1.0,2352
4307,2139307,17060,-816,1780,17172.01,25.28,-1.00,-1.0,2369
4310,2139310,17228,596,1768,17328.73,25.38,-1.00,-1.0,2437
4312,2139312,17264,800,1720,17367.90,25.33,-1.00,-1.0,2368
4315,2139315,16992,-248,1552,17064.53,25.28,-1.00,-1.0,2437
4318,2139318,16856,-636,1428,16928.33,25.28,-1.00,-1.0,2369
4323,2139323,17016,752,1376,17088.10,25.38,-1.00,-1.0,2452
4326,2139326,17008,932,1484,17098.04,25.28,-1.00,-1.0,2374
4328,2139328,16916,860,1552,17008.80,25.33,-1.00,-1.0,2446
4331,2139331,16984,760,1808,17096.86,25.19,-1.00,-1.0,2381
4334,2139334,16964,360,1680,17050.79,25.33,-1.00,-1.0,2442
4337,2139337,17112,-92,1580,17185.04,25.19,-1.00,-1.0,2375
4339,2139339,17192,-340,1436,17255.22,25.24,-1.00,-1.0,2445
4342,2139342,17124,40,1660,17204.32,25.28,-1.00,-1.0,2379
4345,2139345,17004,356,1756,17098.14,25.33,-1.00,-1.0,2361
4350,2139350,16896,740,1608,16988.47,25.24,-1.00,-1.0,2434
4353,2139353,16916,732,1432,16992.28,25.28,-1.00,-1.0,2374
4355,2139355,16872,96,1244,16918.07,25.24,-1.00,-1.0,2441
4358,2139358,16972,-444,1012,17007.94,25.28,-1.00,-1.0,2380
4361,2139361,16944,-68,1300,16993.93,25.33,-1.00,-1.0,2439
4364,2139364,17060,296,1228,17106.70,25.28,-1.00,-1.0,2371
4366,2139366,17016,476,1292,17071.62,25.24,-1.00,-1.0,2447
4369,2139369,17024,428,1384,17085.53,25.28,-1.00,-1.0,2380
4374,2139374,17076,888,1448,17160.28,25.24,-1.00,-1.0,2443
4377,2139377,16936,444,1484,17006.69,25.24,-1.00,-1.0,2373
4379,2139379,16888,-324,1420,16950.69,25.24,-1.00,-1.0,2437
4382,2139382,16852,-248,1368,16909.25,25.19,-1.00,-1.0,2353
4385,2139385,16960,352,1652,17043.90,25.24,-1.00,-1.0,2364
4387,2139387,17156,988,1696,17267.92,25.28,-1.00,-1.0,2439
4390,2139390,17252,548,1624,17336.93,25.33,-1.00,-1.0,2366
4393,2139393,17220,244,1432,17281.16,25.28,-1.00,-1.0,2438
4396,2139396,17144,480,1272,17197.82,25.38,-1.00,-1.0,2366
4401,2139401,16944,-100,1328,16996.26,25.38,-1.00,-1.0,2443
4404,2139404,16864,-212,1324,16917.22,25.33,-1.00,-1.0,2369
4406,2139406,16836,360,1352,16894.04,25.28,-1.00,-1.0,2438
4409,2139409,16840,528,1592,16923.32,25.24,-1.00,-1.0,2365
4412,2139412,16972,268,1372,17029.47,25.28,-1.00,-1.0,2438
4415,2139415,17016,212,1600,17092.37,25.33,-1.00,-1.0,2367
4417,2139417,17060,336,1532,17131.95,25.38,-1.00,-1.0,2437
4420,2139420,17272,40,1448,17332.64,25.24,-1.00,-1.0,2368
4423,2139423,17248,-112,1452,17309.37,25.38,-1.00,-1.0,2361
4428,2139428,16956,400,1632,17039.05,25.28,-1.00,-1.0,2444
4431,2139431,16836,428,1420,16901.20,25.33,-1.00,-1.0,2368
4433,2139433,16964,552,1528,17041.62,25.28,-1.00,-1.0,2437
4436,2139436,17004,672,1348,17070.58,25.19,-1.00,-1.0,2365
4439,2139439,17020,412,1564,17096.67,25.28,-1.00,-1.0,2439
4442,2139442,17028,268,1428,17089.87,25.33,-1.00,-1.0,2367
4444,2139444,17000,48,1472,17063.68,25.28,-1.00,-1.0,2438
4447,2139447,17032,0,1484,17096.53,25.24,-1.00,-1.0,2353
4452,2139452,16896,-220,1608,16973.77,25.33,-1.00,-1.0,2443
4455,2139455,17004,160,1672,17086.76,25.24,-1.00,-1.0,2364
4458,2139458,17052,492,1648,17138.51,25.33,-1.00,-1.0,2438
4460,2139460,17060,472,1628,17144.00,25.24,-1.00,-1.0,2367
4463,2139463,17064,272,1452,17127.82,25.24,-1.00,-1.0,2349
4466,2139466,17044,308,1320,17097.81,25.28,-1.00,-1.0,2447
4468,2139468,16976,444,1264,17028.78,25.33,-1.00,-1.0,2367
4471,2139471,16964,88,1192,17006.05,25.19,-1.00,-1.0,2448
4474,2139474,16900,356,1480,16968.42,25.28,-1.00,-1.0,2365
4479,2139479,17076,1008,1680,17188.03,25.28,-1.00,-1.0,2443
4482,2139482,16904,492,1672,16993.61,25.28,-1.00,-1.0,2370
4484,2139484,17072,-48,1676,17154.14,25.33,-1.00,-1.0,2438
4487,2139487,17056,256,1656,17138.12,25.19,-1.00,-1.0,2353
4490,2139490,17112,108,1656,17192.28,25.28,-1.00,-1.0,2438
4493,2139493,17048,144,1488,17113.42,25.28,-1.00,-1.0,2366
4495,2139495,17072,424,1784,17170.20,25.24,-1.00,-1.0,2438
4498,2139498,17228,1108,1708,17347.88,25.28,-1.00,-1.0,2365
4501,2139501,16956,700,1512,17037.67,25.33,-1.00,-1.0,2368
4506,2139506,16768,184,1312,16820.26,25.24,-1.00,-1.0,2443
4509,2139509,16900,540,1420,16968.15,25.24,-1.00,-1.0,2377
4512,2139512,16948,600,1404,17016.64,25.33,-1.00,-1.0,2437
4514,2139514,17044,356,1352,17101.24,25.33,-1.00,-1.0,2365
4517,2139517,17132,336,1460,17197.38,25.24,-1.00,-1.0,2438
4520,2139520,17232,240,1472,17296.42,25.33,-1.00,-1.0,2366
4522,2139522,17244,-164,1400,17301.52,25.24,-1.00,-1.0,2438
4525,2139525,17000,-344,1352,17057.15,25.24,-1.00,-1.0,2365
4530,2139530,17040,384,1436,17104.71,25.19,-1.00,-1.0,2451
4533,2139533,16980,504,1572,17060.06,25.28,-1.00,-1.0,2370
4536,2139536,16912,704,1476,16990.88,25.38,-1.00,-1.0,2430
4538,2139538,17060,760,1324,17128.17,25.28,-1.00,-1.0,2372
4541,2139541,16932,492,1548,17009.73,25.28,-1.00,-1.0,2361
4544,2139544,16964,256,1368,17020.99,25.33,-1.00,-1.0,2443
4546,2139546,16952,188,1468,17016.48,25.24,-1.00,-1.0,2365
4549,2139549,17032,428,1492,17102.58,25.33,-1.00,-1.0,2439
4552,2139552,17112,368,1796,17209.93,25.28,-1.00,-1.0,2373
4557,2139557,17120,188,1636,17199.02,25.28,-1.00,-1.0,2459
4560,2139560,17060,388,1616,17140.76,25.38,-1.00,-1.0,2376
4563,2139563,16984,132,1604,17060.08,25.28,-1.00,-1.0,2444
4565,2139565,16900,-172,1376,16956.80,25.28,-1.00,-1.0,2370
4568,2139568,16984,-36,1480,17048.40,25.38,-1.00,-1.0,2447
4571,2139571,16932,284,1344,16987.63,25.28,-1.00,-1.0,2374
4574,2139574,17040,424,1352,17098.81,25.28,-1.00,-1.0,2446
4576,2139576,17036,440,1356,17095.54,25.28,-1.00,-1.0,2372
4579,2139579,17004,412,1324,17060.44,25.28,-1.00,-1.0,2348
4584,2139584,16892,160,1296,16942.40,25.38,-1.00,-1.0,2444
4587,2139587,16968,204,1492,17034.69,25.33,-1.00,-1.0,2372
4589,2139589,17012,220,1632,17091.52,25.24,-1.00,-1.0,2438
4592,2139592,17108,376,1488,17176.71,25.33,-1.00,-1.0,2367
4595,2139595,17036,228,1484,17102.03,25.24,-1.00,-1.0,2438
4598,2139598,17028,208,1572,17101.67,25.38,-1.00,-1.0,2367
4600,2139600,17124,72,1588,17197.62,25.33,-1.00,-1.0,2438
4603,2139603,16964,-32,1560,17035.61,25.28,-1.00,-1.0,2425
4608,2139608,17028,-8,1600,17103.01,25.33,-1.00,-1.0,2454
4611,2139611,16880,620,1628,16969.65,25.38,-1.00,-1.0,2372
4614,2139614,16856,508,1596,16939.01,25.24,-1.00,-1.0,2442
4616,2139616,16896,496,1616,16980.35,25.33,-1.00,-1.0,2374
4619,2139619,17024,380,1508,17094.88,25.14,-1.00,-1.0,2359
4622,2139622,17032,476,1604,17113.98,25.19,-1.00,-1.0,2441
4624,2139624,17028,368,1628,17109.61,25.24,-1.00,-1.0,2369
4627,2139627,17044,200,1540,17114.60,25.38,-1.00,-1.0,2434
4630,2139630,16984,332,1684,17070.51,25.24,-1.00,-1.0,2367
4635,2139635,17012,504,1460,17081.97,25.33,-1.00,-1.0,2439
4638,2139638,16944,256,1516,17013.61,25.24,-1.00,-1.0,2371
4641,2139641,17004,184,1456,17067.21,25.24,-1.00,-1.0,2431
4643,2139643,16932,100,1388,16989.09,25.42,-1.00,-1.0,2373
4646,2139646,16936,220,1400,16995.19,25.33,-1.00,-1.0,2433
4649,2139649,16980,268,1264,17029.09,25.33,-1.00,-1.0,2369
4652,2139652,16992,368,1388,17052.57,25.33,-1.00,-1.0,2426
4654,2139654,17084,548,1348,17145.86,25.24,-1.00,-1.0,2374
4657,2139657,17064,576,1460,17136.03,25.38,-1.00,-1.0,2360
4662,2139662,16956,652,1680,17051.49,25.33,-1.00,-1.0,2440
4665,2139665,17040,428,1544,17115.16,25.24,-1.00,-1.0,2370
4668,2139668,17096,260,1460,17160.20,25.28,-1.00,-1.0,2432
4670,2139670,17060,256,1668,17143.26,25.33,-1.00,-1.0,2373
4673,2139673,17020,84,1372,17075.42,25.28,-1.00,-1.0,2434
4676,2139676,17056,64,1452,17117.81,25.33,-1.00,-1.0,2368
4679,2139679,17072,40,1428,17131.67,25.28,-1.00,-1.0,2425
4681,2139681,17028,264,1308,17080.20,25.33,-1.00,-1.0,2374
4686,2139686,16936,280,1148,16977.17,25.33,-1.00,-1.0,2449
4689,2139689,17000,232,1144,17040.03,25.24,-1.00,-1.0,2385
4692,2139692,17036,364,1164,17079.60,25.19,-1.00,-1.0,2361
4694,2139694,16924,352,1452,16989.82,25.38,-1.00,-1.0,2433
4697,2139697,17020,424,1588,17099.18,25.24,-1.00,-1.0,2367
4700,2139700,16964,600,1712,17060.72,25.28,-1.00,-1.0,2433
4703,2139703,17152,576,1784,17254.14,25.33,-1.00,-1.0,2369
4705,2139705,17048,484,1740,17143.40,25.38,-1.00,-1.0,2435
4708,2139708,17124,400,1720,17214.81,25.28,-1.00,-1.0,2368
4713,2139713,17024,232,1688,17109.05,25.28,-1.00,-1.0,2440
4716,2139716,17032,348,1732,17123.38,25.19,-1.00,-1.0,2370
4719,2139719,16964,424,1480,17033.71,25.33,-1.00,-1.0,2462
4722,2139722,16964,448,1392,17026.91,25.24,-1.00,-1.0,2378
4724,2139724,17068,372,1236,17116.74,25.28,-1.00,-1.0,2436
4727,2139727,16900,144,1432,16961.17,25.24,-1.00,-1.0,2354
4730,2139730,16972,224,1284,17021.97,25.28,-1.00,-1.0,2364
4732,2139732,17032,212,1212,17076.38,25.19,-1.00,-1.0,2435
4735,2139735,16984,240,1404,17043.62,25.24,-1.00,-1.0,2369
4740,2139740,16944,160,1532,17013.87,25.33,-1.00,-1.0,2438
4743,2139743,17096,176,1556,17167.57,25.28,-1.00,-1.0,2368
4746,2139746,17096,196,1540,17166.34,25.33,-1.00,-1.0,2449
4748,2139748,17036,280,1772,17130.20,25.24,-1.00,-1.0,2366
4751,2139751,17136,372,1752,17229.35,25.33,-1.00,-1.0,2440
4754,2139754,17080,468,1636,17164.55,25.24,-1.00,-1.0,2364
4757,2139757,17044,448,1448,17111.26,25.24,-1.00,-1.0,2446
4759,2139759,17012,320,1560,17086.37,25.24,-1.00,-1.0,2366
4764,2139764,16856,260,1452,16920.42,25.28,-1.00,-1.0,2437
4767,2139767,16956,160,1440,17017.79,25.28,-1.00,-1.0,2367
4770,2139770,17028,264,1504,17096.33,25.28,-1.00,-1.0,2366
4773,2139773,16968,292,1400,17028.16,25.24,-1.00,-1.0,2439
4775,2139775,16932,308,1344,16988.05,25.33,-1.00,-1.0,2366
4778,2139778,17044,332,1500,17113.10,25.24,-1.00,-1.0,2435
4781,2139781,17036,376,1500,17106.04,25.28,-1.00,-1.0,2365
4783,2139783,17020,488,1528,17095.42,25.33,-1.00,-1.0,2436
4786,2139786,17056,468,1444,17123.41,25.28,-1.00,-1.0,2375
4791,2139791,16924,400,1592,17003.42,25.28,-1.00,-1.0,2438
4794,2139794,16980,364,1452,17045.86,25.28,-1.00,-1.0,2369
4797,2139797,16952,428,1484,17022.21,25.28,-1.00,-1.0,2440
4799,2139799,17004,276,1436,17066.76,25.28,-1.00,-1.0,2355
4802,2139802,17012,348,1328,17067.30,25.33,-1.00,-1.0,2436
4805,2139805,16896,448,1408,16960.48,25.28,-1.00,-1.0,2367
4807,2139807,16904,376,1484,16973.18,25.24,-1.00,-1.0,2359
4810,2139810,17044,404,1428,17108.49,25.38,-1.00,-1.0,2436
4813,2139813,17072,596,1608,17157.92,25.28,-1.00,-1.0,2373
4818,2139818,17100,440,1344,17158.38,25.38,-1.00,-1.0,2446
4821,2139821,17008,412,1436,17073.49,25.19,-1.00,-1.0,2383
4824,2139824,17028,316,1456,17093.06,25.28,-1.00,-1.0,2441
4827,2139827,17020,344,1432,17083.60,25.28,-1.00,-1.0,2376
4829,2139829,16932,244,1180,16974.82,25.28,-1.00,-1.0,2438
4832,2139832,16872,160,1560,16944.72,25.28,-1.00,-1.0,2373
4835,2139835,17072,144,1500,17138.38,25.28,-1.00,-1.0,2438
4838,2139838,17052,120,1356,17106.25,25.24,-1.00,-1.0,2421
4843,2139843,17020,-24,1548,17090.27,25.24,-1.00,-1.0,2449
4845,2139845,17052,68,1544,17121.89,25.42,-1.00,-1.0,2368
4848,2139848,17032,172,1492,17098.09,25.28,-1.00,-1.0,2368
4851,2139851,16908,224,1592,16984.26,25.28,-1.00,-1.0,2438
4854,2139854,17056,284,1444,17119.37,25.28,-1.00,-1.0,2367
4856,2139856,16940,184,1608,17017.14,25.28,-1.00,-1.0,2444
4859,2139859,17012,380,1672,17098.19,25.28,-1.00,-1.0,2366
4862,2139862,17040,316,1556,17113.81,25.28,-1.00,-1.0,2443
4864,2139864,17040,544,1468,17111.77,25.28,-1.00,-1.0,2367
4869,2139869,16952,536,1604,17036.15,25.24,-1.00,-1.0,2424
4872,2139872,17020,528,1452,17089.98,25.42,-1.00,-1.0,2368
4875,2139875,17068,368,1512,17138.79,25.38,-1.00,-1.0,2433
4878,2139878,17000,452,1472,17069.60,25.24,-1.00,-1.0,2366
4880,2139880,17048,328,1520,17118.77,25.33,-1.00,-1.0,2433
4883,2139883,16988,244,1488,17054.79,25.33,-1.00,-1.0,2366
4886,2139886,16932,288,1548,17005.05,25.28,-1.00,-1.0,2367
4889,2139889,18664,-1564,11800,22136.64,25.28,-1.00,-1.0,2435
4891,2139891,9804,2200,-2856,10445.82,25.33,-1.00,-1.0,2367
4896,2139896,21976,5832,5308,23348.05,25.24,-1.00,-1.0,2440
4899,2139899,26840,12604,-15288,33361.20,25.24,-1.00,-1.0,2356
4902,2139902,5900,-14156,-5240,16206.79,25.33,-1.00,-1.0,2433
4905,2139905,22508,-14916,2464,27113.99,25.28,-1.00,-1.0,2364
4907,2139907,7440,956,552,7521.45,25.24,-1.00,-1.0,2420
4910,2139910,32767,11280,-3052,34788.35,25.33,-1.00,-1.0,2382
4913,2139913,876,3180,5676,6564.81,25.33,-1.00,-1.0,2435
4916,2139916,32716,2504,180,32812.18,25.19,-1.00,-1.0,2371
4921,2139921,26792,8948,4508,28604.20,25.38,-1.00,-1.0,2438
4923,2139923,16860,-9908,-900,19576.47,25.19,-1.00,-1.0,2369
4926,2139926,12312,-17960,-448,21779.52,25.28,-1.00,-1.0,2434
4929,2139929,19888,6664,4604,21474.13,25.28,-1.00,-1.0,2374
4932,2139932,14320,15300,5484,21661.64,25.28,-1.00,-1.0,2433
4934,2139934,21860,-2448,-248,21998.04,25.28,-1.00,-1.0,2366
4937,2139937,12756,-8828,-1900,15628.79,25.33,-1.00,-1.0,2368
4940,2139940,18992,6536,5364,20789.13,25.33,-1.00,-1.0,2445
4942,2139942,16328,2388,-2544,16696.65,25.38,-1.00,-1.0,2366
4947,2139947,18060,-8040,972,19792.68,25.28,-1.00,-1.0,2438
4950,2139950,19680,15380,1372,25014.58,25.38,-1.00,-1.0,2368
4953,2139953,17964,15384,2180,23751.32,25.28,-1.00,-1.0,2434
4956,2139956,17824,-8624,-1724,19875.63,25.28,-1.00,-1.0,2367
4958,2139958,15136,-2188,1500,15366.71,25.28,-1.00,-1.0,2433
4961,2139961,19612,7496,2372,21129.29,25.19,-1.00,-1.0,2366
4964,2139964,15892,132,-392,15897.38,25.28,-1.00,-1.0,2434
4967,2139967,17688,-13076,-280,21998.31,25.33,-1.00,-1.0,2367
4972,2139972,18880,14640,8528,25367.51,25.33,-1.00,-1.0,2441
4974,2139974,15632,-2452,2280,15986.56,25.24,-1.00,-1.0,2378
4977,2139977,19148,-13900,-3276,23886.99,25.28,-1.00,-1.0,2434
4980,2139980,14300,-5832,1748,15542.13,25.33,-1.00,-1.0,2354
4983,2139983,20148,8592,1952,21990.33,25.33,-1.00,-1.0,2443
4985,2139985,15324,-1180,1144,15411.88,25.33,-1.00,-1.0,2375
4988,2139988,18784,-4780,1588,19447.59,25.38,-1.00,-1.0,2441
4991,2139991,15476,5704,3384,16837.27,25.24,-1.00,-1.0,2375
4996,2139996,15816,-4736,-256,16511.85,25.28,-1.00,-1.0,2454
4999,2139999,18848,-11036,752,21854.20,25.28,-1.00,-1.0,2369
5002,2140002,14128,2116,644,14300.09,25.33,-1.00,-1.0,2362
5005,2140005,19392,5640,1384,20242.89,25.24,-1.00,-1.0,2449
5007,2140007,15184,-2796,1780,15541.55,25.24,-1.00,-1.0,2370
5010,2140010,15960,-5384,1260,16890.73,25.42,-1.00,-1.0,2446
5013,2140013,18124,3232,3368,18715.46,25.33,-1.00,-1.0,2376
5016,2140016,17192,3676,1248,17624.85,25.33,-1.00,-1.0,2443
5018,2140018,16884,-7296,688,18405.83,25.33,-1.00,-1.0,2371
5023,2140023,18416,1788,1504,18563.62,25.28,-1.00,-1.0,2433
5026,2140026,16460,6984,3300,18182.35,25.33,-1.00,-1.0,2376
5029,2140029,17592,-652,2048,17722.81,25.28,-1.00,-1.0,2446
5031,2140031,16600,320,2264,16756.73,25.33,-1.00,-1.0,2376
5034,2140034,16292,3820,2044,16858.22,25.28,-1.00,-1.0,2441
5037,2140037,17224,332,916,17251.54,25.24,-1.00,-1.0,2371
5040,2140040,16584,-2936,148,16842.54,25.28,-1.00,-1.0,2444
5042,2140042,17208,1540,1084,17310.75,25.28,-1.00,-1.0,2376
5045,2140045,16696,2128,1992,16948.54,25.28,-1.00,-1.0,2360
5050,2140050,18720,-1536,856,18802.40,25.28,-1.00,-1.0,2440
5053,2140053,17036,2904,1668,17362.05,25.19,-1.00,-1.0,2379
5055,2140055,17028,-3300,748,17360.94,25.38,-1.00,-1.0,2435
5058,2140058,16784,-6384,384,17961.22,25.19,-1.00,-1.0,2376
5061,2140061,15980,468,2728,16217.93,25.28,-1.00,-1.0,2432
5064,2140064,17652,5656,2644,18723.63,25.28,-1.00,-1.0,2373
5066,2140066,16348,812,1756,16462.08,25.28,-1.00,-1.0,2436
5069,2140069,17028,-1320,940,17104.93,25.28,-1.00,-1.0,2383
5074,2140074,16400,4060,1644,16974.87,25.28,-1.00,-1.0,2452
5077,2140077,17136,-2076,664,17274.06,25.33,-1.00,-1.0,2374
5080,2140080,16148,-2500,964,16368.79,25.28,-1.00,-1.0,2450
5082,2140082,17332,3744,2672,17931.96,25.28,-1.00,-1.0,2368
5085,2140085,17228,3404,1696,17642.78,25.38,-1.00,-1.0,2429
5088,2140088,17136,-2060,536,17267.70,25.38,-1.00,-1.0,2374
5090,2140090,17368,-880,1712,17474.35,25.28,-1.00,-1.0,2362
5093,2140093,17160,2496,1760,17429.66,25.24,-1.00,-1.0,2432
5096,2140096,17520,-48,1636,17596.28,25.28,-1.00,-1.0,2368
5101,2140101,17120,-88,1444,17181.02,25.38,-1.00,-1.0,2446
5104,2140104,16512,3084,2352,16961.40,25.28,-1.00,-1.0,2369
5106,2140106,17144,116,1588,17217.78,25.28,-1.00,-1.0,2446
5109,2140109,16584,-1060,996,16647.66,25.28,-1.00,-1.0,2376
5112,2140112,17292,1660,1608,17445.76,25.28,-1.00,-1.0,2421
5114,2140114,16596,1388,900,16678.24,25.28,-1.00,-1.0,2367
5117,2140117,17148,-1532,1036,17247.44,25.28,-1.00,-1.0,2447
5120,2140120,16140,-784,1632,16241.23,25.28,-1.00,-1.0,2368
5125,2140125,17036,2072,1096,17196.50,25.24,-1.00,-1.0,2436
5128,2140128,17176,-244,1420,17236.33,25.24,-1.00,-1.0,2369
5131,2140131,16836,-996,1556,16937.06,25.28,-1.00,-1.0,2435
5133,2140133,17328,408,1388,17388.29,25.24,-1.00,-1.0,2368
5136,2140136,16892,-112,1452,16954.66,25.19,-1.00,-1.0,2370
5139,2140139,17600,-1988,1232,17754.72,25.19,-1.00,-1.0,2449
5141,2140141,16792,308,2028,16916.82,25.19,-1.00,-1.0,2368
5144,2140144,17340,2116,1992,17581.84,25.28,-1.00,-1.0,2446
5147,2140147,16880,616,1368,16946.54,25.28,-1.00,-1.0,2374
5152,2140152,16824,-272,888,16849.62,25.28,-1.00,-1.0,2441
5154,2140154,16856,1352,1228,16954.66,25.33,-1.00,-1.0,2356
5157,2140157,16588,816,1452,16671.41,25.28,-1.00,-1.0,2434
5160,2140160,16840,904,1068,16898.03,25.33,-1.00,-1.0,2366
5163,2140163,17000,2704,1948,17323.58,25.28,-1.00,-1.0,2436
5165,2140165,16748,1552,1880,16924.50,25.24,-1.00,-1.0,2367
5168,2140168,17048,-1820,1508,17211.06,25.28,-1.00,-1.0,2435
5171,2140171,16792,-1716,1712,16966.05,25.33,-1.00,-1.0,2369
5176,2140176,17176,-444,1516,17248.49,25.24,-1.00,-1.0,2438
5179,2140179,17424,-780,1668,17521.03,25.24,-1.00,-1.0,2370
5181,2140181,16996,480,2232,17148.65,25.33,-1.00,-1.0,2433
5184,2140184,17020,732,1660,17116.42,25.33,-1.00,-1.0,2366
5187,2140187,16640,-580,1152,16689.91,25.38,-1.00,-1.0,2360
5189,2140189,16648,-1324,972,16728.83,25.19,-1.00,-1.0,2435
5192,2140192,16756,1268,1364,16859.18,25.33,-1.00,-1.0,2367
5195,2140195,16700,2144,1360,16891.90,25.38,-1.00,-1.0,2432
5198,2140198,17024,924,1080,17083.23,25.28,-1.00,-1.0,2374
5203,2140203,17220,2384,1776,17474.72,25.33,-1.00,-1.0,2443
5205,2140205,17176,1040,1680,17289.27,25.28,-1.00,-1.0,2372
5208,2140208,16952,-1056,1672,17066.96,25.33,-1.00,-1.0,2445
5211,2140211,16984,-748,1792,17094.65,25.19,-1.00,-1.0,2373
5214,2140214,17208,628,1652,17298.52,25.24,-1.00,-1.0,2442
5216,2140216,17072,-120,1252,17118.27,25.28,-1.00,-1.0,2372
5219,2140219,16920,-1212,1548,17033.84,25.33,-1.00,-1.0,2446
5222,2140222,16764,-600,1664,16857.06,25.28,-1.00,-1.0,2373
5227,2140227,17056,200,1032,17088.36,25.33,-1.00,-1.0,2444
5229,2140229,17192,172,996,17221.69,25.38,-1.00,-1.0,2373
5232,2140232,17064,1028,1276,17142.49,25.24,-1.00,-1.0,2363
5235,2140235,16912,1760,1412,17061.86,25.28,-1.00,-1.0,2431
5237,2140237,16908,284,1356,16964.66,25.24,-1.00,-1.0,2374
5240,2140240,16932,196,1212,16976.45,25.28,-1.00,-1.0,2433
5243,2140243,17012,1312,1524,17130.44,25.24,-1.00,-1.0,2353
5246,2140246,16828,1276,1436,16937.29,25.24,-1.00,-1.0,2423
5249,2140249,17016,-284,1064,17051.60,25.24,-1.00,-1.0,2375
5254,2140254,17000,784,1784,17111.32,25.28,-1.00,-1.0,2437
5257,2140257,17164,-296,1884,17269.62,25.28,-1.00,-1.0,2369
5260,2140260,17108,-1036,1712,17224.63,25.42,-1.00,-1.0,2478
5262,2140262,17244,428,1768,17339.68,25.24,-1.00,-1.0,2375
5265,2140265,17348,916,1540,17440.29,25.28,-1.00,-1.0,2437
5268,2140268,17220,16,1356,17273.31,25.33,-1.00,-1.0,2366
5270,2140270,16812,-420,1372,16873.12,25.19,-1.00,-1.0,2360
5273,2140273,16732,996,1596,16837.43,25.28,-1.00,-1.0,2435
5276,2140276,16884,1612,1480,17025.23,25.19,-1.00,-1.0,2365
5281,2140281,16708,976,1184,16778.31,25.28,-1.00,-1.0,2437
5284,2140284,16800,908,1376,16880.69,25.24,-1.00,-1.0,2372
5286,2140286,17012,12,1496,17077.65,25.28,-1.00,-1.0,2442
5289,2140289,17220,-1352,1452,17333.91,25.24,-1.00,-1.0,2367
5292,2140292,17088,-1112,1720,17210.31,25.28,-1.00,-1.0,2437
5295,2140295,17212,188,1728,17299.54,25.24,-1.00,-1.0,2365
5297,2140297,17212,756,1996,17343.83,25.28,-1.00,-1.0,2438
5300,2140300,17160,316,1964,17274.92,25.24,-1.00,-1.0,2380
5305,2140305,16980,332,1740,17072.15,25.33,-1.00,-1.0,2435
5308,2140308,16860,140,1608,16937.09,25.33,-1.00,-1.0,2374
5311,2140311,16964,124,1276,17012.37,25.33,-1.00,-1.0,2439
5313,2140313,17000,1368,1056,17087.61,25.38,-1.00,-1.0,2365
5316,2140316,17020,1880,1328,17174.94,25.33,-1.00,-1.0,2355
5319,2140319,16980,1216,1376,17079.01,25.28,-1.00,-1.0,2448
5321,2140321,16908,168,1312,16959.66,25.28,-1.00,-1.0,2375
5324,2140324,16952,-276,1380,17010.32,25.28,-1.00,-1.0,2444
5327,2140327,16996,-396,1428,17060.48,25.28,-1.00,-1.0,2366
5332,2140332,17064,-704,1700,17162.92,25.38,-1.00,-1.0,2446
5335,2140335,17352,240,1912,17458.67,25.33,-1.00,-1.0,2367
5337,2140337,17292,856,1840,17410.68,25.38,-1.00,-1.0,2451
5340,2140340,17032,-124,1612,17108.56,25.42,-1.00,-1.0,2371
5343,2140343,16880,-708,1424,16954.75,25.28,-1.00,-1.0,2438
5346,2140346,16932,96,1220,16976.17,25.33,-1.00,-1.0,2365
5348,2140348,16964,1200,1272,17053.89,25.28,-1.00,-1.0,2447
5351,2140351,17012,1272,1324,17110.79,25.33,-1.00,-1.0,2371
5356,2140356,16872,868,1520,16962.55,25.33,-1.00,-1.0,2436
5359,2140359,16952,592,1432,17022.67,25.24,-1.00,-1.0,2367
5361,2140361,16976,-140,1476,17040.62,25.33,-1.00,-1.0,2367
5364,2140364,17136,-468,1420,17201.10,25.28,-1.00,-1.0,2456
5367,2140367,17212,-140,1520,17279.55,25.19,-1.00,-1.0,2373
5370,2140370,17156,348,1656,17239.25,25.19,-1.00,-1.0,2449
5372,2140372,17140,560,1548,17218.87,25.38,-1.00,-1.0,2371
5375,2140375,16956,448,1504,17028.47,25.28,-1.00,-1.0,2446
5378,2140378,16844,552,1540,16923.26,25.24,-1.00,-1.0,2364
5383,2140383,16880,-244,960,16909.04,25.28,-1.00,-1.0,2438
5386,2140386,17008,-244,1028,17040.79,25.28,-1.00,-1.0,2372
5388,2140388,16980,596,1168,17030.56,25.33,-1.00,-1.0,2441
5391,2140391,16928,800,1200,16989.33,25.28,-1.00,-1.0,2372
5394,2140394,17036,352,1172,17079.89,25.33,-1.00,-1.0,2437
5397,2140397,17024,460,1220,17073.86,25.28,-1.00,-1.0,2366
5399,2140399,16920,724,1336,16988.10,25.28,-1.00,-1.0,2361
5402,2140402,16892,96,1392,16949.53,25.28,-1.00,-1.0,2436
5405,2140405,16840,-424,1504,16912.34,25.24,-1.00,-1.0,2364
5410,2140410,17040,344,1700,17128.04,25.38,-1.00,-1.0,2443
5412,2140412,17264,948,1792,17382.62,25.33,-1.00,-1.0,2366
5415,2140415,17076,452,1552,17152.34,25.33,-1.00,-1.0,2468
5418,2140418,17124,208,1412,17183.38,25.28,-1.00,-1.0,2370
5421,2140421,17148,404,1340,17205.02,25.28,-1.00,-1.0,2445
5424,2140424,17260,488,1304,17316.07,25.33,-1.00,-1.0,2363
5426,2140426,16940,-64,1356,16994.31,25.28,-1.00,-1.0,2437
5429,2140429,16736,124,1324,16788.75,25.33,-1.00,-1.0,2364
5434,2140434,16792,412,1528,16866.41,25.24,-1.00,-1.0,2438
5437,2140437,16868,296,1452,16932.97,25.24,-1.00,-1.0,2369
5439,2140439,17100,40,1476,17163.63,25.38,-1.00,-1.0,2362
5442,2140442,17068,248,1572,17142.03,25.28,-1.00,-1.0,2440
5445,2140445,17236,280,1536,17306.57,25.28,-1.00,-1.0,2373
5448,2140448,17196,4,1524,17263.40,25.38,-1.00,-1.0,2436
5450,2140450,17060,-72,1564,17131.69,25.28,-1.00,-1.0,2364
5453,2140453,16884,240,1488,16951.14,25.19,-1.00,-1.0,2453
5456,2140456,16844,376,1512,16915.91,25.28,-1.00,-1.0,2365
5461,2140461,17036,548,1616,17121.25,25.28,-1.00,-1.0,2439
5464,2140464,17004,664,1368,17071.86,25.24,-1.00,-1.0,2366
5466,2140466,16940,404,1436,17005.55,25.28,-1.00,-1.0,2440
5469,2140469,16936,260,1252,16984.21,25.33,-1.00,-1.0,2365
5472,2140472,16916,44,1288,16965.02,25.28,-1.00,-1.0,2368
5475,2140475,16924,-160,1340,16977.72,25.38,-1.00,-1.0,2436
5477,2140477,16956,-416,1508,17028.01,25.28,-1.00,-1.0,2365
5480,2140480,16856,80,1404,16914.56,25.28,-1.00,-1.0,2446
5483,2140483,17052,536,1672,17142.16,25.19,-1.00,-1.0,2363
5488,2140488,17040,324,1440,17103.81,25.28,-1.00,-1.0,2440
5491,2140491,17112,404,1484,17180.98,25.19,-1.00,-1.0,2368
5494,2140494,16972,580,1336,17034.38,25.28,-1.00,-1.0,2439
5496,2140496,17088,232,1284,17137.74,25.28,-1.00,-1.0,2364
5499,2140499,17060,352,1356,17117.43,25.28,-1.00,-1.0,2437
5502,2140502,16964,836,1484,17049.29,25.28,-1.00,-1.0,2365
5504,2140504,16960,1032,1680,17074.22,25.19,-1.00,-1.0,2440
5507,2140507,17092,472,1704,17183.21,25.38,-1.00,-1.0,2350
5510,2140510,17084,48,1652,17163.75,25.28,-1.00,-1.0,2367
5515,2140515,17104,272,1648,17185.36,25.28,-1.00,-1.0,2440
5518,2140518,17020,124,1580,17093.63,25.38,-1.00,-1.0,2375
5521,2140521,17176,484,1584,17255.67,25.42,-1.00,-1.0,2438
5523,2140523,17060,1016,1672,17171.82,25.28,-1.00,-1.0,2364
5526,2140526,16844,740,1600,16936.00,25.28,-1.00,-1.0,2438
5529,2140529,16980,208,1420,17040.54,25.28,-1.00,-1.0,2372
5532,2140532,16916,72,1344,16969.46,25.33,-1.00,-1.0,2436
5534,2140534,16956,544,1460,17027.43,25.28,-1.00,-1.0,2364
5539,2140539,16964,592,1588,17048.45,25.38,-1.00,-1.0,2440
5542,2140542,17056,456,1456,17124.11,25.38,-1.00,-1.0,2367
5545,2140545,17124,364,1504,17193.78,25.28,-1.00,-1.0,2444
5547,2140547,17024,-88,1436,17084.68,25.38,-1.00,-1.0,2363
5550,2140550,17112,-348,1236,17160.11,25.38,-1.00,-1.0,2360
5553,2140553,17116,160,1408,17174.56,25.33,-1.00,-1.0,2448
5555,2140555,16984,476,1220,17034.41,25.38,-1.00,-1.0,2364
5558,2140558,16976,580,1380,17041.87,25.33,-1.00,-1.0,2440
5561,2140561,16980,548,1340,17041.61,25.24,-1.00,-1.0,2366
5566,2140566,16892,404,1248,16942.86,25.24,-1.00,-1.0,2455
5569,2140569,16924,236,1460,16988.50,25.24,-1.00,-1.0,2374
5572,2140572,16980,132,1544,17050.56,25.19,-1.00,-1.0,2450
5574,2140574,17036,412,1512,17107.93,25.33,-1.00,-1.0,2374
5577,2140577,17076,524,1532,17152.59,25.28,-1.00,-1.0,2447
5580,2140580,17060,252,1572,17134.13,25.33,-1.00,-1.0,2367
5583,2140583,17104,116,1608,17179.81,25.28,-1.00,-1.0,2451
5585,2140585,17072,156,1732,17160.34,25.38,-1.00,-1.0,2372
5588,2140588,16932,40,1532,17001.21,25.28,-1.00,-1.0,2360
5593,2140593,16968,-24,1364,17022.75,25.38,-1.00,-1.0,2453
5596,2140596,16980,328,1328,17035.01,25.33,-1.00,-1.0,2374
5599,2140599,17044,400,1196,17090.59,25.38,-1.00,-1.0,2451
5601,2140601,17060,464,1356,17120.09,25.19,-1.00,-1.0,2372
5604,2140604,16876,576,1276,16933.97,25.28,-1.00,-1.0,2443
5607,2140607,16944,360,1520,17015.85,25.19,-1.00,-1.0,2352
5610,2140610,16960,352,1416,17022.65,25.38,-1.00,-1.0,2450
5612,2140612,16860,112,1480,16925.21,25.38,-1.00,-1.0,2372
5617,2140617,17004,320,1612,17083.24,25.38,-1.00,-1.0,2439
5620,2140620,17136,220,1648,17216.47,25.28,-1.00,-1.0,2369
5623,2140623,17080,24,1564,17151.47,25.28,-1.00,-1.0,2432
5625,2140625,17112,44,1436,17172.20,25.28,-1.00,-1.0,2371
5628,2140628,17016,-52,1444,17077.24,25.28,-1.00,-1.0,2363
5631,2140631,17040,72,1540,17109.60,25.33,-1.00,-1.0,2443
5633,2140633,17132,256,1396,17190.69,25.33,-1.00,-1.0,2365
5636,2140636,17012,628,1388,17080.08,25.33,-1.00,-1.0,2441
5639,2140639,16992,704,1608,17082.43,25.33,-1.00,-1.0,2363
5644,2140644,16984,392,1488,17053.56,25.33,-1.00,-1.0,2439
5647,2140647,17072,380,1460,17138.53,25.33,-1.00,-1.0,2369
5649,2140649,17088,416,1484,17157.36,25.33,-1.00,-1.0,2438
5652,2140652,17000,300,1624,17080.03,25.24,-1.00,-1.0,2363
5655,2140655,17104,384,1532,17176.77,25.33,-1.00,-1.0,2436
5658,2140658,17044,520,1488,17116.73,25.33,-1.00,-1.0,2364
5660,2140660,17008,332,1580,17084.46,25.24,-1.00,-1.0,2437
5663,2140663,17004,84,1548,17074.52,25.24,-1.00,-1.0,2364
5666,2140666,16996,92,1384,17052.51,25.33,-1.00,-1.0,2359
5671,2140671,17028,224,1188,17070.86,25.28,-1.00,-1.0,2449
5674,2140674,16956,248,1284,17006.36,25.28,-1.00,-1.0,2375
5677,2140677,17040,504,1112,17083.68,25.38,-1.00,-1.0,2439
5680,2140680,16956,472,1288,17011.40,25.19,-1.00,-1.0,2361
5682,2140682,17028,724,1428,17103.10,25.24,-1.00,-1.0,2439
5685,2140685,17020,476,1728,17114.12,25.38,-1.00,-1.0,2372
5688,2140688,17048,664,1632,17138.80,25.28,-1.00,-1.0,2440
5691,2140691,17024,468,1632,17108.45,25.38,-1.00,-1.0,2365
5696,2140696,17076,220,1612,17153.33,25.19,-1.00,-1.0,2439
5698,2140698,17080,56,1492,17145.13,25.28,-1.00,-1.0,2369
5701,2140701,17052,-48,1460,17114.46,25.28,-1.00,-1.0,2364
5704,2140704,17008,44,1452,17069.92,25.33,-1.00,-1.0,2451
5706,2140706,16948,104,1340,17001.21,25.28,-1.00,-1.0,2373
5709,2140709,17048,212,1384,17105.40,25.42,-1.00,-1.0,2445
5712,2140712,17052,288,1268,17101.51,25.38,-1.00,-1.0,2358
5715,2140715,16860,144,1188,16902.42,25.33,-1.00,-1.0,2451
5717,2140717,16976,292,1252,17024.61,25.19,-1.00,-1.0,2375
5722,2140722,16904,336,1416,16966.53,25.38,-1.00,-1.0,2439
5725,2140725,17032,520,1728,17127.33,25.38,-1.00,-1.0,2366
5728,2140728,17128,580,1836,17235.88,25.38,-1.00,-1.0,2447
5730,2140730,17172,416,1752,17266.16,25.28,-1.00,-1.0,2369
5733,2140733,17116,300,1660,17198.93,25.28,-1.00,-1.0,2445
5736,2140736,17020,188,1780,17113.86,25.28,-1.00,-1.0,2364
5739,2140739,17060,96,1736,17148.37,25.33,-1.00,-1.0,2362
5741,2140741,16984,332,1540,17056.91,25.24,-1.00,-1.0,2446
5744,2140744,17020,316,1468,17086.11,25.28,-1.00,-1.0,2369
5749,2140749,17064,288,1200,17108.57,25.19,-1.00,-1.0,2442
5752,2140752,16928,284,1240,16975.73,25.28,-1.00,-1.0,2366
5755,2140755,17028,204,1304,17079.08,25.19,-1.00,-1.0,2442
5757,2140757,16984,232,1288,17034.35,25.38,-1.00,-1.0,2365
5760,2140760,17016,352,1360,17073.89,25.38,-1.00,-1.0,2437
5763,2140763,17004,408,1472,17072.47,25.38,-1.00,-1.0,2364
5766,2140766,16968,316,1476,17035.01,25.28,-1.00,-1.0,2445
5768,2140768,17124,312,1476,17190.33,25.38,-1.00,-1.0,2364
5773,2140773,17120,232,1668,17202.63,25.24,-1.00,-1.0,2441
5776,2140776,17112,372,1600,17190.66,25.33,-1.00,-1.0,2353
5779,2140779,17064,456,1744,17158.95,25.38,-1.00,-1.0,2359
5781,2140781,17076,500,1568,17155.13,25.28,-1.00,-1.0,2440
5784,2140784,16964,384,1428,17028.33,25.28,-1.00,-1.0,2365
5787,2140787,16992,220,1472,17057.06,25.38,-1.00,-1.0,2436
5790,2140790,16968,88,1348,17021.69,25.38,-1.00,-1.0,2364
5792,2140792,17008,204,1392,17066.09,25.28,-1.00,-1.0,2437
5795,2140795,16936,336,1416,16998.41,25.33,-1.00,-1.0,2375
5800,2140800,17060,464,1444,17127.29,25.33,-1.00,-1.0,2438
5803,2140803,17088,476,1516,17161.72,25.28,-1.00,-1.0,2367
5806,2140806,16976,244,1508,17044.59,25.42,-1.00,-1.0,2447
5808,2140808,17104,380,1276,17155.74,25.33,-1.00,-1.0,2364
5811,2140811,17008,440,1356,17067.64,25.33,-1.00,-1.0,2451
5814,2140814,16972,452,1540,17047.72,25.33,-1.00,-1.0,2364
5817,2140817,17008,268,1368,17065.03,25.24,-1.00,-1.0,2361
5819,2140819,16888,392,1420,16952.13,25.19,-1.00,-1.0,2437
5822,2140822,17028,316,1492,17096.16,25.38,-1.00,-1.0,2372
5829,2140829,16968,368,1344,17025.12,25.28,-1.00,-1.0,2446
5832,2140832,17072,408,1460,17139.17,25.24,-1.00,-1.0,2370
5835,2140835,16988,576,1564,17069.56,25.28,-1.00,-1.0,2448
5837,2140837,16872,524,1444,16941.79,25.28,-1.00,-1.0,2372
5840,2140840,17048,424,1368,17108.05,25.28,-1.00,-1.0,2438
5843,2140843,17004,552,1428,17072.78,25.28,-1.00,-1.0,2364
5846,2140846,16888,420,1600,16968.82,25.28,-1.00,-1.0,2447
5848,2140848,16956,428,1424,17021.07,25.38,-1.00,-1.0,2373
5851,2140851,16968,428,1552,17044.21,25.38,-1.00,-1.0,2360
5856,2140856,16976,188,1404,17035.00,25.28,-1.00,-1.0,2446
5858,2140858,17080,320,1376,17138.32,25.28,-1.00,-1.0,2368
5861,2140861,17008,84,1416,17067.05,25.33,-1.00,-1.0,2440
5864,2140864,17020,104,1384,17076.49,25.28,-1.00,-1.0,2366
5867,2140867,17020,116,1672,17102.32,25.28,-1.00,-1.0,2442
5869,2140869,16992,80,1624,17069.62,25.38,-1.00,-1.0,2364
5872,2140872,17020,104,1512,17087.35,25.33,-1.00,-1.0,2436
5875,2140875,16964,108,1656,17044.98,25.28,-1.00,-1.0,2366
5880,2140880,17080,224,1528,17149.68,25.28,-1.00,-1.0,2445
5883,2140883,16928,260,1644,17009.63,25.28,-1.00,-1.0,2377
5885,2140885,17120,324,1456,17184.86,25.28,-1.00,-1.0,2441
5888,2140888,17032,408,1600,17111.85,25.28,-1.00,-1.0,2368
5891,2140891,17044,376,1448,17109.53,25.28,-1.00,-1.0,2361
5893,2140893,16996,452,1512,17069.11,25.33,-1.00,-1.0,2435
5896,2140896,16992,344,1540,17065.11,25.28,-1.00,-1.0,2366
5899,2140899,17072,360,1480,17139.81,25.24,-1.00,-1.0,2435
5902,2140902,16848,332,1512,16918.97,25.28,-1.00,-1.0,2364
5907,2140907,17008,236,1444,17070.82,25.38,-1.00,-1.0,2444
5909,2140909,16880,200,1504,16948.05,25.28,-1.00,-1.0,2376
5912,2140912,16996,264,1316,17048.92,25.38,-1.00,-1.0,2445
5915,2140915,17076,284,1560,17149.46,25.19,-1.00,-1.0,2368
5918,2140918,17044,332,1488,17112.05,25.28,-1.00,-1.0,2446
5920,2140920,17052,396,1448,17117.95,25.28,-1.00,-1.0,2375
5923,2140923,17108,268,1548,17179.98,25.28,-1.00,-1.0,2442
5926,2140926,17032,412,1504,17103.24,25.38,-1.00,-1.0,2353
5928,2140928,16944,392,1284,16997.10,25.38,-1.00,-1.0,2348
5933,2140933,16924,468,1556,17001.82,25.28,-1.00,-1.0,2448
5936,2140936,16920,452,1412,16984.83,25.28,-1.00,-1.0,2376
5939,2140939,16968,492,1340,17027.94,25.38,-1.00,-1.0,2440
5942,2140942,17108,332,1536,17180.02,25.28,-1.00,-1.0,2370
5944,2140944,16952,256,1480,17018.41,25.47,-1.00,-1.0,2445
5947,2140947,17072,228,1512,17140.34,25.28,-1.00,-1.0,2381
5950,2140950,21632,308,3964,21994.35,25.38,-1.00,-1.0,2440
5953,2140953,18044,-5760,22264,29230.96,25.38,-1.00,-1.0,2370
5958,2140958,18460,5780,14572,24218.24,25.38,-1.00,-1.0,2439
5960,2140960,23956,8704,148,25488.65,25.38,-1.00,-1.0,2371
5963,2140963,20884,-15048,-11208,28074.95,25.28,-1.00,-1.0,2445
5966,2140966,13000,-7772,-1180,15191.98,25.33,-1.00,-1.0,2369
5969,2140969,27532,4476,-1456,27931.44,25.33,-1.00,-1.0,2436
5971,2140971,6892,8260,8360,13624.13,25.33,-1.00,-1.0,2369
5974,2140974,7784,268,1616,7954.49,25.33,-1.00,-1.0,2360
5977,2140977,27792,9028,2028,29291.86,25.28,-1.00,-1.0,2443
5979,2140979,10516,18452,-708,21250.03,25.33,-1.00,-1.0,2365
5984,2140984,8216,-19452,3936,21479.64,25.33,-1.00,-1.0,2442
5987,2140987,19048,-12028,-2304,22645.25,25.33,-1.00,-1.0,2371
5990,2140990,17324,15144,2052,23101.35,25.33,-1.00,-1.0,2438
5993,2140993,17744,7372,4172,19662.19,25.28,-1.00,-1.0,2364
5995,2140995,15472,-10336,1236,18647.88,25.33,-1.00,-1.0,2436
5998,2140998,16216,-2968,-4768,17161.05,25.33,-1.00,-1.0,2366
6001,2141001,15872,6380,1756,17196.17,25.42,-1.00,-1.0,2435
6004,2141004,17512,-5120,1576,18313.06,25.28,-1.00,-1.0,2366
6009,2141009,19644,2844,176,19849.59,25.19,-1.00,-1.0,2441
6011,2141011,16692,19420,5300,26150.51,25.28,-1.00,-1.0,2371
6014,2141014,19492,6048,2504,20561.77,25.42,-1.00,-1.0,2446
6017,2141017,16208,-7296,336,17777.62,25.19,-1.00,-1.0,2373
6020,2141020,17480,2888,504,17724.13,25.28,-1.00,-1.0,2446
6022,2141022,16144,4280,1224,16746.50,25.28,-1.00,-1.0,2369
6025,2141025,16088,-6416,2268,17468.04,25.33,-1.00,-1.0,2446
6028,2141028,16796,-7484,-332,18390.92,25.33,-1.00,-1.0,2373
6030,2141030,18844,10732,2532,21833.08,25.33,-1.00,-1.0,2362
6035,2141035,17652,-1156,1080,17722.75,25.28,-1.00,-1.0,2440
6038,2141038,15868,-10676,-1300,19169.26,25.33,-1.00,-1.0,2369
6041,2141041,17556,-1248,1032,17630.53,25.28,-1.00,-1.0,2437
6043,2141043,15316,4716,3240,16349.87,25.33,-1.00,-1.0,2365
6046,2141046,17508,-2108,520,17642.11,25.28,-1.00,-1.0,2424
6049,2141049,15076,-348,1716,15177.34,25.33,-1.00,-1.0,2366
6052,2141052,20476,6576,2272,21625.73,25.38,-1.00,-1.0,2434
6054,2141054,14492,5372,1464,15524.81,25.33,-1.00,-1.0,2372
6059,2141059,19804,-7056,692,21034.84,25.33,-1.00,-1.0,2446
6062,2141062,13716,2136,948,13913.66,25.24,-1.00,-1.0,2371
6065,2141065,19664,2640,1284,19881.93,25.28,-1.00,-1.0,2432
6067,2141067,15028,-1560,1592,15192.39,25.24,-1.00,-1.0,2372
6070,2141070,16688,-3304,1868,17114.18,25.28,-1.00,-1.0,2436
6073,2141073,18088,2144,2356,18366.36,25.24,-1.00,-1.0,2353
6076,2141076,16956,2916,1684,17287.13,25.28,-1.00,-1.0,2444
6078,2141078,17628,-5416,788,18458.07,25.42,-1.00,-1.0,2372
6081,2141081,16660,-5076,1808,17509.72,25.28,-1.00,-1.0,2360
