timestamp_ms,global_ms,accel_x,accel_y,accel_z,accel_mag,temp_c,voltage,soc,loop_us
2,2135002,16992,860,1128,17051.10,25.80,-1.00,-1.0,2484
9,2135009,17008,900,1260,17078.34,25.75,-1.00,-1.0,2468
12,2135012,16980,808,1304,17049.15,25.75,-1.00,-1.0,2367
14,2135014,16984,808,1224,17047.21,25.71,-1.00,-1.0,2360
17,2135017,16972,936,1356,17051.79,25.71,-1.00,-1.0,2436
20,2135020,16880,852,1120,16938.56,25.80,-1.00,-1.0,2366
23,2135023,16944,820,1360,17018.26,25.80,-1.00,-1.0,2446
25,2135025,16944,916,1120,17005.66,25.75,-1.00,-1.0,2360
28,2135028,16964,924,1180,17030.08,25.71,-1.00,-1.0,2439
31,2135031,17004,884,1164,17066.70,25.85,-1.00,-1.0,2360
36,2135036,17008,856,1132,17067.11,25.89,-1.00,-1.0,2452
38,2135038,16920,956,1068,16980.61,25.80,-1.00,-1.0,2360
41,2135041,16992,788,1148,17048.96,25.80,-1.00,-1.0,2360
44,2135044,17012,872,988,17062.96,25.75,-1.00,-1.0,2447
46,2135046,16924,764,1224,16985.39,25.89,-1.00,-1.0,2360
49,2135049,16956,980,1120,17021.19,25.80,-1.00,-1.0,2441
52,2135052,17056,856,1220,17120.99,25.71,-1.00,-1.0,2359
55,2135055,16992,876,1184,17055.71,25.80,-1.00,-1.0,2450
57,2135057,16948,900,1280,17020.08,25.80,-1.00,-1.0,2360
62,2135062,17008,880,1200,17072.97,25.80,-1.00,-1.0,2445
65,2135065,16988,800,1216,17050.24,25.66,-1.00,-1.0,2361
68,2135068,16992,884,1140,17053.13,25.71,-1.00,-1.0,2361
70,2135070,16944,848,1236,17010.17,25.80,-1.00,-1.0,2433
73,2135073,16944,752,1224,17004.79,25.80,-1.00,-1.0,2366
76,2135076,17024,860,1136,17083.52,25.89,-1.00,-1.0,2435
79,2135079,16896,844,1100,16952.79,25.80,-1.00,-1.0,2365
81,2135081,16916,832,1248,16982.37,25.80,-1.00,-1.0,2434
84,2135084,17020,888,1140,17081.23,25.71,-1.00,-1.0,2366
89,2135089,16972,916,1144,17035.16,25.75,-1.00,-1.0,2455
92,2135092,17032,912,1220,17099.98,25.75,-1.00,-1.0,2368
95,2135095,16940,732,1084,16990.42,25.80,-1.00,-1.0,2453
97,2135097,17064,816,1324,17134.73,25.75,-1.00,-1.0,2371
100,2135100,16892,792,1280,16958.93,25.71,-1.00,-1.0,2364
103,2135103,16964,884,1052,17019.56,25.89,-1.00,-1.0,2437
105,2135105,16896,892,1312,16970.32,25.80,-1.00,-1.0,2367
108,2135108,17016,836,1148,17075.16,25.80,-1.00,-1.0,2439
111,2135111,16924,864,1252,16992.23,25.80,-1.00,-1.0,2347
116,2135116,16912,752,1060,16961.87,25.85,-1.00,-1.0,2453
118,2135118,16920,824,1116,16976.77,25.85,-1.00,-1.0,2359
121,2135121,16964,816,1216,17027.09,25.85,-1.00,-1.0,2453
124,2135124,16976,860,1228,17042.07,25.75,-1.00,-1.0,2360
126,2135126,17108,888,1196,17172.73,25.75,-1.00,-1.0,2367
129,2135129,16960,944,1088,17021.06,25.80,-1.00,-1.0,2435
132,2135132,17048,792,1216,17109.65,25.66,-1.00,-1.0,2381
135,2135135,16960,868,1164,17022.04,25.80,-1.00,-1.0,2440
137,2135137,17036,844,1212,17099.90,25.75,-1.00,-1.0,2364
142,2135142,16932,864,1196,16996.16,25.85,-1.00,-1.0,2446
145,2135145,17048,864,1196,17111.73,25.71,-1.00,-1.0,2361
148,2135148,16840,804,1188,16900.99,25.85,-1.00,-1.0,2439
151,2135151,16972,812,1244,17036.89,25.75,-1.00,-1.0,2365
153,2135153,16916,804,1208,16978.12,25.85,-1.00,-1.0,2433
156,2135156,17028,888,1252,17097.04,25.71,-1.00,-1.0,2435
159,2135159,16984,848,1136,17043.06,25.75,-1.00,-1.0,2358
162,2135162,17076,812,1236,17139.92,25.85,-1.00,-1.0,2436
164,2135164,17000,828,1260,17066.73,25.80,-1.00,-1.0,2371
169,2135169,16960,852,996,17010.57,25.71,-1.00,-1.0,2443
172,2135172,16996,836,1092,17051.55,25.85,-1.00,-1.0,2362
175,2135175,17016,872,1164,17078.04,25.80,-1.00,-1.0,2447
178,2135178,17008,824,1304,17077.81,25.75,-1.00,-1.0,2368
180,2135180,17052,856,1248,17119.02,25.80,-1.00,-1.0,2435
183,2135183,17052,868,1212,17117.04,25.75,-1.00,-1.0,2361
186,2135186,16992,752,1000,17038.00,25.75,-1.00,-1.0,2432
189,2135189,17024,952,1216,17093.90,25.85,-1.00,-1.0,2365
191,2135191,17056,852,1292,17126.07,25.80,-1.00,-1.0,2356
196,2135196,16964,728,1184,17020.84,25.71,-1.00,-1.0,2443
199,2135199,16984,848,1220,17048.86,25.85,-1.00,-1.0,2363
202,2135202,16916,908,1156,16979.75,25.80,-1.00,-1.0,2447
205,2135205,17044,904,1160,17107.33,25.75,-1.00,-1.0,2363
207,2135207,16948,860,1248,17015.63,25.80,-1.00,-1.0,2434
210,2135210,16956,888,1096,17014.57,25.85,-1.00,-1.0,2362
213,2135213,17012,768,1200,17071.55,25.80,-1.00,-1.0,2432
216,2135216,17044,904,1256,17114.11,25.75,-1.00,-1.0,2365
220,2135220,16892,880,1212,16958.27,25.80,-1.00,-1.0,2443
223,2135223,17056,836,1260,17122.90,25.85,-1.00,-1.0,2361
226,2135226,16932,888,1052,16987.88,25.80,-1.00,-1.0,2367
229,2135229,16968,824,1236,17032.90,25.75,-1.00,-1.0,2465
231,2135231,17092,780,1040,17141.37,25.75,-1.00,-1.0,2361
234,2135234,16952,804,1304,17021.08,25.71,-1.00,-1.0,2440
237,2135237,16932,876,1252,17000.81,25.85,-1.00,-1.0,2358
240,2135240,16988,788,1160,17045.78,25.71,-1.00,-1.0,2444
243,2135243,17008,856,1164,17069.26,25.75,-1.00,-1.0,2360
247,2135247,17044,868,1228,17110.21,25.85,-1.00,-1.0,2441
250,2135250,17024,848,1084,17079.54,25.80,-1.00,-1.0,2359
253,2135253,17024,892,1108,17083.32,25.75,-1.00,-1.0,2360
255,2135255,16868,772,1224,16929.96,25.80,-1.00,-1.0,2435
258,2135258,16836,788,1192,16896.53,25.85,-1.00,-1.0,2364
261,2135261,16956,784,1124,17011.29,25.80,-1.00,-1.0,2430
264,2135264,16960,860,1200,17024.14,25.75,-1.00,-1.0,2365
267,2135267,16988,836,960,17035.63,25.80,-1.00,-1.0,2439
270,2135270,17044,836,1288,17113.03,25.85,-1.00,-1.0,2364
275,2135275,17000,736,1128,17053.27,25.75,-1.00,-1.0,2441
277,2135277,16960,856,1172,17021.98,25.75,-1.00,-1.0,2366
280,2135280,16972,936,1144,17036.24,25.85,-1.00,-1.0,2440
283,2135283,17036,860,1164,17097.36,25.75,-1.00,-1.0,2361
285,2135285,16972,808,1260,17037.88,25.75,-1.00,-1.0,2360
288,2135288,16984,912,992,17037.37,25.80,-1.00,-1.0,2430
291,2135291,16960,780,1092,17013.01,25.85,-1.00,-1.0,2365
294,2135294,17008,840,1280,17076.77,25.71,-1.00,-1.0,2436
297,2135297,16996,848,1188,17058.56,25.89,-1.00,-1.0,2358
302,2135302,17044,908,1304,17117.91,25.75,-1.00,-1.0,2443
304,2135304,16972,816,1132,17029.27,25.75,-1.00,-1.0,2362
307,2135307,16944,924,1152,17008.23,25.80,-1.00,-1.0,2441
310,2135310,16976,868,1244,17043.64,25.85,-1.00,-1.0,2358
313,2135313,16920,800,1220,16982.78,25.85,-1.00,-1.0,2431
315,2135315,16984,860,1164,17045.55,25.75,-1.00,-1.0,2371
318,2135318,17020,864,1148,17080.54,25.89,-1.00,-1.0,2355
321,2135321,16988,892,1224,17055.38,25.85,-1.00,-1.0,2444
324,2135324,16836,936,1272,16909.91,25.80,-1.00,-1.0,2365
329,2135329,16992,812,1172,17051.71,25.80,-1.00,-1.0,2449
331,2135331,17028,772,1208,17088.24,25.80,-1.00,-1.0,2359
334,2135334,16992,820,1216,17055.18,25.80,-1.00,-1.0,2441
337,2135337,16940,796,1100,16994.33,25.85,-1.00,-1.0,2359
340,2135340,16960,924,1148,17023.90,25.89,-1.00,-1.0,2435
342,2135342,16964,924,1136,17027.08,25.75,-1.00,-1.0,2362
345,2135345,16912,756,1172,16969.41,25.80,-1.00,-1.0,2438
348,2135348,17016,892,1080,17073.56,25.66,-1.00,-1.0,2358
351,2135351,16960,936,1104,17021.65,25.80,-1.00,-1.0,2367
356,2135356,16956,928,1064,17014.68,25.89,-1.00,-1.0,2449
358,2135358,16964,936,1160,17029.36,25.71,-1.00,-1.0,2359
361,2135361,17004,868,1228,17070.37,25.71,-1.00,-1.0,2442
364,2135364,17000,900,1128,17061.14,25.80,-1.00,-1.0,2359
367,2135367,16996,836,1204,17059.09,25.80,-1.00,-1.0,2443
369,2135369,16956,844,1156,17016.30,25.80,-1.00,-1.0,2360
372,2135372,16944,852,1128,17002.87,25.80,-1.00,-1.0,2438
375,2135375,16984,896,1228,17051.89,25.80,-1.00,-1.0,2361
380,2135380,16972,744,1212,17031.48,25.80,-1.00,-1.0,2446
382,2135382,16984,884,1148,17045.69,25.85,-1.00,-1.0,2368
385,2135385,16948,820,1144,17006.35,25.80,-1.00,-1.0,2360
388,2135388,16900,908,1084,16959.05,25.80,-1.00,-1.0,2434
391,2135391,16908,752,1100,16960.42,25.80,-1.00,-1.0,2365
393,2135393,16944,800,1148,17001.68,25.80,-1.00,-1.0,2430
396,2135396,16980,800,1076,17032.86,25.80,-1.00,-1.0,2351
399,2135399,17012,744,1228,17072.48,25.80,-1.00,-1.0,2438
402,2135402,16988,908,1312,17062.77,25.75,-1.00,-1.0,2362
407,2135407,16988,880,1072,17044.52,25.66,-1.00,-1.0,2448
409,2135409,17016,748,1120,17069.22,25.66,-1.00,-1.0,2359
412,2135412,17028,768,1272,17092.71,25.85,-1.00,-1.0,2374
415,2135415,17020,884,1192,17084.58,25.89,-1.00,-1.0,2445
417,2135417,16956,872,1312,17029.02,25.94,-1.00,-1.0,2367
420,2135420,16972,836,1276,17040.42,25.80,-1.00,-1.0,2443
423,2135423,17036,812,1108,17091.29,25.75,-1.00,-1.0,2365
426,2135426,16920,760,1128,16974.58,25.71,-1.00,-1.0,2438
429,2135429,17024,912,1148,17087.02,25.80,-1.00,-1.0,2362
434,2135434,16948,880,1096,17006.19,25.80,-1.00,-1.0,2444
436,2135436,16948,832,1128,17005.86,25.75,-1.00,-1.0,2363
439,2135439,17044,912,1196,17110.23,25.89,-1.00,-1.0,2450
442,2135442,16992,892,1228,17059.65,25.80,-1.00,-1.0,2367
445,2135445,17024,784,1248,17087.68,25.89,-1.00,-1.0,2362
447,2135447,16980,812,1224,17043.41,25.80,-1.00,-1.0,2431
450,2135450,17024,900,1208,17090.52,25.80,-1.00,-1.0,2367
453,2135453,17044,868,1208,17108.79,25.71,-1.00,-1.0,2436
456,2135456,17060,880,1076,17116.54,25.80,-1.00,-1.0,2366
461,2135461,17008,816,1240,17072.65,25.80,-1.00,-1.0,2444
463,2135463,17072,896,1248,17140.99,25.80,-1.00,-1.0,2366
466,2135466,16912,912,1260,16983.38,25.75,-1.00,-1.0,2441
469,2135469,16944,892,1256,17013.89,25.80,-1.00,-1.0,2359
472,2135472,17008,856,1316,17080.30,25.85,-1.00,-1.0,2447
474,2135474,16936,860,1324,17009.43,25.80,-1.00,-1.0,2367
477,2135477,16968,824,1192,17029.76,25.71,-1.00,-1.0,2350
480,2135480,16952,872,1060,17007.48,25.75,-1.00,-1.0,2432
483,2135483,17068,776,1164,17125.24,25.89,-1.00,-1.0,2366
488,2135488,16980,996,1080,17043.44,25.80,-1.00,-1.0,2446
490,2135490,17104,900,1184,17168.54,25.80,-1.00,-1.0,2367
493,2135493,16984,792,1148,17041.17,25.89,-1.00,-1.0,2441
496,2135496,16948,792,1224,17010.59,25.80,-1.00,-1.0,2374
499,2135499,16884,748,1092,16935.80,25.80,-1.00,-1.0,2438
501,2135501,16988,756,1236,17049.67,25.71,-1.00,-1.0,2364
504,2135504,16904,792,1136,16960.63,25.80,-1.00,-1.0,2444
507,2135507,16956,868,1152,17017.24,25.80,-1.00,-1.0,2367
510,2135510,16932,852,1164,16993.33,25.71,-1.00,-1.0,2348
515,2135515,17028,808,1132,17084.70,25.71,-1.00,-1.0,2445
517,2135517,16952,876,1192,17016.42,25.80,-1.00,-1.0,2368
520,2135520,16948,936,1184,17015.07,25.85,-1.00,-1.0,2447
523,2135523,16976,840,1116,17033.37,25.80,-1.00,-1.0,2375
526,2135526,16944,1060,1128,17014.56,25.80,-1.00,-1.0,2437
528,2135528,17032,872,1196,17096.19,25.89,-1.00,-1.0,2371
531,2135531,17016,952,1208,17085.37,25.85,-1.00,-1.0,2437
534,2135534,16992,748,1152,17047.42,25.80,-1.00,-1.0,2366
539,2135539,17040,792,1100,17093.83,25.80,-1.00,-1.0,2442
542,2135542,16988,816,1260,17054.20,25.80,-1.00,-1.0,2372
544,2135544,17044,788,1284,17110.45,25.80,-1.00,-1.0,2362
547,2135547,16960,768,1204,17020.02,25.85,-1.00,-1.0,2453
550,2135550,16988,948,1336,17066.80,25.80,-1.00,-1.0,2367
553,2135553,16932,848,1120,16990.18,25.75,-1.00,-1.0,2445
555,2135555,16980,796,1100,17034.20,25.80,-1.00,-1.0,2364
558,2135558,17028,772,1112,17081.72,25.85,-1.00,-1.0,2451
561,2135561,17004,892,1156,17066.58,25.80,-1.00,-1.0,2359
566,2135566,17060,896,1172,17123.67,25.75,-1.00,-1.0,2442
569,2135569,16904,796,1108,16958.96,25.75,-1.00,-1.0,2364
571,2135571,16984,788,1160,17041.79,25.85,-1.00,-1.0,2435
574,2135574,16952,868,1132,17011.91,25.85,-1.00,-1.0,2368
577,2135577,17052,812,984,17099.66,25.80,-1.00,-1.0,2356
579,2135579,16996,856,1172,17057.85,25.71,-1.00,-1.0,2436
582,2135582,16952,928,1100,17012.98,25.75,-1.00,-1.0,2359
585,2135585,16984,828,1176,17044.79,25.85,-1.00,-1.0,2452
588,2135588,17024,908,1064,17081.37,25.80,-1.00,-1.0,2359
593,2135593,17004,848,1072,17058.85,25.80,-1.00,-1.0,2441
596,2135596,16976,748,1176,17033.12,25.75,-1.00,-1.0,2365
598,2135598,16988,812,1224,17051.38,25.80,-1.00,-1.0,2435
601,2135601,16928,912,1124,16989.77,25.85,-1.00,-1.0,2364
604,2135604,16972,884,1124,17032.13,25.89,-1.00,-1.0,2354
606,2135606,17008,852,1160,17068.79,25.80,-1.00,-1.0,2437
609,2135609,17048,948,1128,17111.56,25.89,-1.00,-1.0,2359
612,2135612,16960,872,1148,17021.16,25.85,-1.00,-1.0,2452
615,2135615,17020,792,1256,17084.65,25.71,-1.00,-1.0,2358
620,2135620,16956,892,1256,17025.84,25.80,-1.00,-1.0,2441
623,2135623,16976,836,1012,17026.67,25.80,-1.00,-1.0,2364
625,2135625,17048,900,1092,17106.63,25.80,-1.00,-1.0,2421
628,2135628,16952,772,1104,17005.44,25.80,-1.00,-1.0,2364
631,2135631,17056,896,1160,17118.87,25.71,-1.00,-1.0,2433
634,2135634,17104,868,1236,17170.55,25.89,-1.00,-1.0,2364
636,2135636,16992,812,1260,17057.99,25.80,-1.00,-1.0,2356
639,2135639,16948,800,1140,17005.12,25.85,-1.00,-1.0,2446
642,2135642,16952,1060,1184,17026.33,25.75,-1.00,-1.0,2432
647,2135647,16984,876,1360,17060.87,25.75,-1.00,-1.0,2446
650,2135650,17052,884,1204,17117.29,25.80,-1.00,-1.0,2373
652,2135652,17012,788,1256,17076.49,25.75,-1.00,-1.0,2434
655,2135655,16992,836,1024,17043.34,25.80,-1.00,-1.0,2368
658,2135658,17056,860,1116,17114.09,25.75,-1.00,-1.0,2433
661,2135661,16920,800,1192,16980.79,25.80,-1.00,-1.0,2366
663,2135663,17028,792,1212,17089.44,25.75,-1.00,-1.0,2435
666,2135666,17016,876,1080,17072.73,25.80,-1.00,-1.0,2367
669,2135669,17088,800,1156,17145.73,25.75,-1.00,-1.0,2376
674,2135674,17072,800,1036,17122.11,25.80,-1.00,-1.0,2444
676,2135676,17016,864,1212,17080.97,25.85,-1.00,-1.0,2374
679,2135679,16988,852,1216,17052.76,25.80,-1.00,-1.0,2437
682,2135682,16980,860,1172,17042.11,25.75,-1.00,-1.0,2382
685,2135685,17036,872,1232,17102.73,25.80,-1.00,-1.0,2437
687,2135687,17084,808,1068,17136.41,25.66,-1.00,-1.0,2374
690,2135690,16980,856,1096,17036.85,25.80,-1.00,-1.0,2435
693,2135693,17044,832,1188,17105.60,25.80,-1.00,-1.0,2368
698,2135698,17076,856,1128,17134.61,25.80,-1.00,-1.0,2453
701,2135701,17052,820,1260,17118.14,25.85,-1.00,-1.0,2374
703,2135703,16896,788,1268,16961.83,25.80,-1.00,-1.0,2350
706,2135706,16920,872,1116,16979.17,25.89,-1.00,-1.0,2432
709,2135709,17028,816,1212,17090.57,25.80,-1.00,-1.0,2354
712,2135712,16980,876,1200,17044.88,25.80,-1.00,-1.0,2441
714,2135714,16980,920,1176,17045.52,25.75,-1.00,-1.0,2423
717,2135717,16980,948,1148,17045.15,25.71,-1.00,-1.0,2444
720,2135720,16984,876,1060,17039.58,25.80,-1.00,-1.0,2373
725,2135725,16944,908,1132,17006.03,25.80,-1.00,-1.0,2447
728,2135728,17012,936,1216,17081.07,25.71,-1.00,-1.0,2366
731,2135731,17012,820,1176,17072.30,25.80,-1.00,-1.0,2442
733,2135733,16988,848,1160,17048.66,25.80,-1.00,-1.0,2375
736,2135736,16928,852,1208,16992.42,25.75,-1.00,-1.0,2360
739,2135739,16996,796,1140,17052.78,25.75,-1.00,-1.0,2437
741,2135741,16912,960,1172,16979.72,25.80,-1.00,-1.0,2367
744,2135744,16948,932,1172,17014.02,25.85,-1.00,-1.0,2433
747,2135747,17016,904,1284,17088.30,25.75,-1.00,-1.0,2367
752,2135752,17020,840,1132,17078.27,25.71,-1.00,-1.0,2446
755,2135755,16868,836,1256,16935.34,25.80,-1.00,-1.0,2367
758,2135758,17024,840,1184,17085.79,25.80,-1.00,-1.0,2433
760,2135760,17024,804,1224,17086.87,25.80,-1.00,-1.0,2375
763,2135763,16964,980,1112,17028.63,25.85,-1.00,-1.0,2433
766,2135766,16948,836,1284,17017.12,25.80,-1.00,-1.0,2370
768,2135768,16904,780,1112,16958.48,25.85,-1.00,-1.0,2360
771,2135771,17084,904,1116,17144.26,25.75,-1.00,-1.0,2433
774,2135774,16892,820,1140,16950.27,25.75,-1.00,-1.0,2368
779,2135779,17060,908,1176,17124.57,25.85,-1.00,-1.0,2440
782,2135782,16996,872,1176,17058.94,25.75,-1.00,-1.0,2369
785,2135785,16960,800,1064,17012.16,25.75,-1.00,-1.0,2433
787,2135787,16996,848,1124,17054.22,25.85,-1.00,-1.0,2370
790,2135790,16928,912,1264,16999.61,25.75,-1.00,-1.0,2433
793,2135793,16984,852,1184,17046.53,25.75,-1.00,-1.0,2369
796,2135796,16932,824,1184,16993.34,25.75,-1.00,-1.0,2436
798,2135798,17036,780,1264,17100.62,25.85,-1.00,-1.0,2375
801,2135801,16892,812,1136,16949.62,25.80,-1.00,-1.0,2419
806,2135806,16900,812,1196,16961.71,25.80,-1.00,-1.0,2453
809,2135809,16912,884,1188,16976.71,25.71,-1.00,-1.0,2372
812,2135812,17032,772,1272,17096.87,25.75,-1.00,-1.0,2435
814,2135814,17020,856,1224,17085.41,25.89,-1.00,-1.0,2373
817,2135817,17008,780,1204,17068.39,25.75,-1.00,-1.0,2442
820,2135820,17052,840,1140,17110.70,25.80,-1.00,-1.0,2371
823,2135823,16964,928,1092,17024.42,25.75,-1.00,-1.0,2423
825,2135825,16932,836,1216,16996.18,25.80,-1.00,-1.0,2367
828,2135828,16976,860,1136,17035.69,25.80,-1.00,-1.0,2361
833,2135833,16884,892,1216,16951.22,25.80,-1.00,-1.0,2446
836,2135836,17016,860,1220,17081.34,25.75,-1.00,-1.0,2366
839,2135839,16980,964,1184,17048.51,25.80,-1.00,-1.0,2442
841,2135841,16980,836,1196,17042.59,25.66,-1.00,-1.0,2367
844,2135844,16932,804,1284,16999.64,25.80,-1.00,-1.0,2434
847,2135847,16976,976,1140,17042.21,25.75,-1.00,-1.0,2366
850,2135850,17056,856,1308,17127.48,25.80,-1.00,-1.0,2442
852,2135852,16976,932,1268,17048.78,25.75,-1.00,-1.0,2368
857,2135857,16964,796,1140,17020.88,25.75,-1.00,-1.0,2440
860,2135860,17088,848,1188,17150.22,25.75,-1.00,-1.0,2366
863,2135863,16932,808,1136,16989.29,25.80,-1.00,-1.0,2360
865,2135865,16940,916,1208,17007.70,25.80,-1.00,-1.0,2435
868,2135868,16964,956,1144,17029.38,25.80,-1.00,-1.0,2367
871,2135871,16932,892,1224,16999.60,25.80,-1.00,-1.0,2432
874,2135874,16936,856,1208,17000.59,25.80,-1.00,-1.0,2366
876,2135876,16940,816,1124,16996.85,25.80,-1.00,-1.0,2435
879,2135879,16940,844,1108,16997.16,25.75,-1.00,-1.0,2373
884,2135884,16936,888,1148,16998.07,25.85,-1.00,-1.0,2456
887,2135887,17068,888,1116,17127.48,25.85,-1.00,-1.0,2373
890,2135890,16936,752,1060,16985.79,25.75,-1.00,-1.0,2445
892,2135892,16972,912,1136,17034.41,25.75,-1.00,-1.0,2377
895,2135895,16948,804,1148,17005.85,25.71,-1.00,-1.0,2362
898,2135898,17040,856,1136,17099.26,25.71,-1.00,-1.0,2429
900,2135900,17004,840,1224,17068.68,25.75,-1.00,-1.0,2368
903,2135903,16940,800,1244,17004.45,25.85,-1.00,-1.0,2437
906,2135906,16976,852,1096,17032.67,25.85,-1.00,-1.0,2377
911,2135911,17016,796,1076,17068.56,25.85,-1.00,-1.0,2442
914,2135914,16928,796,1296,16996.19,25.89,-1.00,-1.0,2366
917,2135917,16948,908,1288,17021.11,25.85,-1.00,-1.0,2442
919,2135919,17016,884,1208,17081.71,25.71,-1.00,-1.0,2367
922,2135922,16924,844,1088,16979.93,25.75,-1.00,-1.0,2450
925,2135925,17016,772,1256,17079.75,25.85,-1.00,-1.0,2366
927,2135927,17052,860,1108,17109.59,25.85,-1.00,-1.0,2363
930,2135930,17052,896,1188,17116.80,25.80,-1.00,-1.0,2438
933,2135933,17052,848,1160,17112.43,25.75,-1.00,-1.0,2374
938,2135938,16960,864,1124,17019.15,25.85,-1.00,-1.0,2450
941,2135941,17008,832,1192,17070.01,25.85,-1.00,-1.0,2366
944,2135944,17056,896,1264,17126.23,25.85,-1.00,-1.0,2441
946,2135946,16968,828,1188,17029.68,25.80,-1.00,-1.0,2367
949,2135949,17076,936,1148,17140.12,25.85,-1.00,-1.0,2444
952,2135952,16960,848,1136,17019.14,25.75,-1.00,-1.0,2366
955,2135955,16968,820,1124,17024.95,25.85,-1.00,-1.0,2443
957,2135957,17060,824,1168,17119.78,25.80,-1.00,-1.0,2367
960,2135960,17068,860,1172,17129.79,25.80,-1.00,-1.0,2368
965,2135965,16976,872,1092,17033.42,25.80,-1.00,-1.0,2450
968,2135968,16936,844,1144,16995.56,25.75,-1.00,-1.0,2373
971,2135971,16984,812,1104,17039.20,25.80,-1.00,-1.0,2436
973,2135973,17024,772,1184,17082.58,25.85,-1.00,-1.0,2367
976,2135976,17044,864,1192,17107.46,25.80,-1.00,-1.0,2444
979,2135979,17012,888,1292,17084.08,25.75,-1.00,-1.0,2374
982,2135982,16808,820,1252,16874.50,25.80,-1.00,-1.0,2436
984,2135984,16856,800,1092,16910.27,25.75,-1.00,-1.0,2367
989,2135989,16920,796,1188,16980.32,25.85,-1.00,-1.0,2442
992,2135992,16980,752,1244,17042.11,25.85,-1.00,-1.0,2365
995,2135995,17108,828,1228,17171.99,25.75,-1.00,-1.0,2368
997,2135997,17000,824,1304,17069.84,25.80,-1.00,-1.0,2444
1000,2136000,16908,760,1240,16970.44,25.75,-1.00,-1.0,2370
1003,2136003,17040,880,1208,17105.42,25.71,-1.00,-1.0,2442
1006,2136006,16964,732,1200,17022.14,25.75,-1.00,-1.0,2374
1008,2136008,16944,904,1164,17007.98,25.80,-1.00,-1.0,2444
1011,2136011,16984,884,1172,17047.32,25.80,-1.00,-1.0,2366
1016,2136016,16944,828,1184,17005.49,25.71,-1.00,-1.0,2443
1019,2136019,16960,780,1192,17019.72,25.80,-1.00,-1.0,2368
1022,2136022,16960,760,1148,17015.79,25.75,-1.00,-1.0,2434
1024,2136024,17016,920,1256,17087.08,25.80,-1.00,-1.0,2364
1027,2136027,16932,924,1120,16994.14,25.75,-1.00,-1.0,2361
1030,2136030,16912,836,1112,16969.12,25.75,-1.00,-1.0,2432
1033,2136033,16988,832,1160,17047.87,25.71,-1.00,-1.0,2435
1036,2136036,17044,920,1072,17102.44,25.85,-1.00,-1.0,2434
1038,2136038,17044,876,1292,17115.33,25.75,-1.00,-1.0,2371
1043,2136043,16964,916,1172,17029.09,25.75,-1.00,-1.0,2443
1046,2136046,16940,912,1104,17000.42,25.75,-1.00,-1.0,2367
1049,2136049,17024,840,1160,17084.14,25.66,-1.00,-1.0,2437
1052,2136052,17072,840,1212,17135.57,25.75,-1.00,-1.0,2366
1054,2136054,16872,868,1164,16934.37,25.85,-1.00,-1.0,2434
1057,2136057,17008,828,1152,17067.07,25.85,-1.00,-1.0,2367
1060,2136060,17048,820,1208,17110.40,25.85,-1.00,-1.0,2420
1063,2136063,17020,776,976,17065.61,25.80,-1.00,-1.0,2369
1065,2136065,17036,892,1292,17108.19,25.75,-1.00,-1.0,2359
1070,2136070,16960,848,1248,17026.98,25.80,-1.00,-1.0,2444
1073,2136073,16936,844,1192,16998.86,25.85,-1.00,-1.0,2367
1076,2136076,17012,856,1192,17075.18,25.89,-1.00,-1.0,2439
1078,2136078,17036,960,1180,17103.78,25.80,-1.00,-1.0,2366
1081,2136081,16900,876,1144,16961.31,25.71,-1.00,-1.0,2443
1084,2136084,16944,896,1156,17007.01,25.80,-1.00,-1.0,2367
1087,2136087,16976,764,1276,17041.02,25.80,-1.00,-1.0,2440
1089,2136089,16968,864,1248,17035.76,25.71,-1.00,-1.0,2367
1094,2136094,16968,848,1244,17034.66,25.80,-1.00,-1.0,2446
1097,2136097,17000,840,1128,17058.08,25.80,-1.00,-1.0,2366
1100,2136100,17036,908,1148,17098.76,25.80,-1.00,-1.0,2441
1102,2136102,17004,780,1028,17052.89,25.80,-1.00,-1.0,2366
1105,2136105,16988,872,1172,17050.69,25.80,-1.00,-1.0,2374
1108,2136108,16964,784,1252,17028.20,25.75,-1.00,-1.0,2437
1110,2136110,16984,832,1144,17042.80,25.80,-1.00,-1.0,2373
1113,2136113,17000,908,1160,17063.71,25.75,-1.00,-1.0,2445
1116,2136116,16996,908,1288,17068.90,25.71,-1.00,-1.0,2366
1121,2136121,16940,836,1336,17013.15,25.80,-1.00,-1.0,2443
1124,2136124,16916,812,1176,16976.26,25.89,-1.00,-1.0,2366
1127,2136127,17024,852,1104,17081.02,25.80,-1.00,-1.0,2432
1130,2136130,16868,836,1276,16936.84,25.71,-1.00,-1.0,2366
1132,2136132,16988,848,1192,17050.87,25.89,-1.00,-1.0,2434
1135,2136135,16932,920,1256,17003.43,25.80,-1.00,-1.0,2367
1138,2136138,17024,944,1248,17095.77,25.89,-1.00,-1.0,2432
1141,2136141,16976,776,1060,17026.75,25.80,-1.00,-1.0,2366
1143,2136143,17028,824,1304,17097.72,25.75,-1.00,-1.0,2367
1148,2136148,16960,880,1120,17019.71,25.80,-1.00,-1.0,2442
1151,2136151,17024,844,1152,17083.79,25.80,-1.00,-1.0,2368
1154,2136154,16964,992,1208,17035.86,25.75,-1.00,-1.0,2448
1157,2136157,17008,832,1192,17070.01,25.89,-1.00,-1.0,2373
1159,2136159,17072,968,1088,17134.00,25.85,-1.00,-1.0,2435
1162,2136162,17044,784,1356,17115.82,25.89,-1.00,-1.0,2368
1165,2136165,17116,828,1180,17176.60,25.75,-1.00,-1.0,2439
1168,2136168,17104,888,1196,17168.74,25.71,-1.00,-1.0,2374
1173,2136173,16960,808,1216,17022.72,25.71,-1.00,-1.0,2449
1175,2136175,17088,808,1196,17148.85,25.89,-1.00,-1.0,2367
1178,2136178,17000,800,1296,17068.09,25.71,-1.00,-1.0,2436
1181,2136181,16952,920,1268,17024.23,25.80,-1.00,-1.0,2366
1183,2136183,16904,868,1256,16972.81,25.80,-1.00,-1.0,2360
1186,2136186,16992,836,1092,17047.56,25.75,-1.00,-1.0,2451
1189,2136189,16912,744,1204,16971.12,25.80,-1.00,-1.0,2367
1192,2136192,17012,864,1228,17078.13,25.75,-1.00,-1.0,2439
1194,2136194,17012,836,1160,17071.98,25.85,-1.00,-1.0,2366
1200,2136200,16912,768,1212,16972.76,25.85,-1.00,-1.0,2446
1202,2136202,17000,876,1268,17069.72,25.85,-1.00,-1.0,2376
1205,2136205,17032,812,1176,17091.85,25.89,-1.00,-1.0,2440
1208,2136208,17004,936,1104,17065.49,25.85,-1.00,-1.0,2368
1211,2136211,17012,832,1224,17076.26,25.80,-1.00,-1.0,2447
1213,2136213,17008,816,1172,17067.85,25.85,-1.00,-1.0,2375
1216,2136216,16980,792,1160,17037.99,25.80,-1.00,-1.0,2361
1219,2136219,16968,860,1012,17019.89,25.89,-1.00,-1.0,2432
1222,2136222,17112,868,1148,17172.42,25.80,-1.00,-1.0,2366
1227,2136227,17088,872,1200,17152.26,25.71,-1.00,-1.0,2445
1229,2136229,17076,788,1208,17136.80,25.75,-1.00,-1.0,2375
1232,2136232,17008,924,1184,17074.18,25.80,-1.00,-1.0,2435
1235,2136235,16968,844,1312,17039.56,25.75,-1.00,-1.0,2369
1238,2136238,16904,868,1252,16972.51,25.71,-1.00,-1.0,2443
1240,2136240,17000,956,1128,17064.18,25.80,-1.00,-1.0,2376
1243,2136243,16912,756,1164,16968.86,25.80,-1.00,-1.0,2434
1246,2136246,17052,800,1072,17104.38,25.71,-1.00,-1.0,2369
1251,2136251,16928,800,1156,16986.28,25.89,-1.00,-1.0,2451
1253,2136253,17040,944,1148,17104.70,25.85,-1.00,-1.0,2370
1256,2136256,16896,788,1092,16949.58,25.80,-1.00,-1.0,2360
1259,2136259,17012,820,1060,17064.71,25.71,-1.00,-1.0,2433
1262,2136262,17004,812,1000,17052.72,25.80,-1.00,-1.0,2369
1264,2136264,17028,892,1188,17092.68,25.89,-1.00,-1.0,2435
1267,2136267,17000,896,1208,17066.40,25.71,-1.00,-1.0,2370
1270,2136270,16968,812,1160,17026.98,25.80,-1.00,-1.0,2433
1273,2136273,16952,832,1256,17018.81,25.80,-1.00,-1.0,2361
1278,2136278,16888,940,1212,16957.51,25.75,-1.00,-1.0,2442
1280,2136280,16988,940,988,17042.65,25.80,-1.00,-1.0,2367
1283,2136283,16980,900,1176,17044.45,25.85,-1.00,-1.0,2434
1286,2136286,16976,760,1100,17028.57,25.89,-1.00,-1.0,2366
1289,2136289,16940,836,1244,17006.18,25.66,-1.00,-1.0,2442
1291,2136291,16956,724,1160,17011.05,25.71,-1.00,-1.0,2369
1294,2136294,16932,828,1060,16985.34,25.85,-1.00,-1.0,2360
1297,2136297,16984,836,1140,17042.73,25.75,-1.00,-1.0,2443
1300,2136300,16932,964,1028,16990.55,25.85,-1.00,-1.0,2366
1304,2136304,16876,808,1140,16933.75,25.85,-1.00,-1.0,2443
1307,2136307,17072,800,1300,17140.11,25.85,-1.00,-1.0,2367
1310,2136310,17024,836,1220,17088.12,25.75,-1.00,-1.0,2433
1313,2136313,17000,948,1208,17069.21,25.85,-1.00,-1.0,2366
1315,2136315,16956,820,1128,17013.25,25.75,-1.00,-1.0,2435
1318,2136318,17040,864,1244,17107.18,25.75,-1.00,-1.0,2366
1321,2136321,16980,776,1312,17048.28,25.85,-1.00,-1.0,2433
1324,2136324,16964,884,1076,17021.06,25.75,-1.00,-1.0,2373
1329,2136329,16948,876,1108,17006.76,25.85,-1.00,-1.0,2450
1331,2136331,17028,848,1120,17085.85,25.75,-1.00,-1.0,2366
1334,2136334,16972,856,1212,17036.74,25.75,-1.00,-1.0,2361
1337,2136337,17088,916,1192,17154.00,25.80,-1.00,-1.0,2440
1339,2136339,17040,920,1080,17098.96,25.75,-1.00,-1.0,2353
1342,2136342,16972,820,1292,17040.85,25.80,-1.00,-1.0,2436
1345,2136345,16948,860,1184,17011.06,25.75,-1.00,-1.0,2367
1348,2136348,17024,788,1188,17083.58,25.80,-1.00,-1.0,2439
1351,2136351,17048,876,1184,17111.50,25.80,-1.00,-1.0,2369
1356,2136356,16928,876,1208,16993.64,25.85,-1.00,-1.0,2450
1358,2136358,16992,848,1300,17062.74,25.75,-1.00,-1.0,2366
1361,2136361,16964,812,1112,17019.79,25.80,-1.00,-1.0,2436
1364,2136364,17052,896,1124,17112.48,25.85,-1.00,-1.0,2366
1367,2136367,16852,792,1204,16913.51,25.80,-1.00,-1.0,2442
1369,2136369,17016,1008,1272,17093.22,25.85,-1.00,-1.0,2367
1372,2136372,16840,860,1244,16907.77,25.80,-1.00,-1.0,2361
1375,2136375,16920,852,1128,16978.95,25.75,-1.00,-1.0,2435
1378,2136378,17036,888,1160,17098.52,25.71,-1.00,-1.0,2372
1383,2136383,17060,880,1096,17117.80,25.71,-1.00,-1.0,2445
1385,2136385,17064,876,1244,17131.70,25.80,-1.00,-1.0,2367
1388,2136388,17044,912,1292,17117.21,25.80,-1.00,-1.0,2438
1391,2136391,16984,848,1244,17050.60,25.80,-1.00,-1.0,2366
1394,2136394,17044,864,1164,17105.54,25.89,-1.00,-1.0,2444
1396,2136396,16952,924,1224,17021.23,25.80,-1.00,-1.0,2367
1399,2136399,17076,908,1228,17144.16,25.80,-1.00,-1.0,2435
1402,2136402,16868,904,1088,16927.21,25.80,-1.00,-1.0,2366
1407,2136407,16924,860,1216,16989.41,25.85,-1.00,-1.0,2443
1410,2136410,17012,760,1128,17066.29,25.85,-1.00,-1.0,2368
1412,2136412,16940,824,1152,16999.11,25.80,-1.00,-1.0,2361
1415,2136415,17020,948,1284,17094.67,25.80,-1.00,-1.0,2433
1418,2136418,17144,852,1068,17198.35,25.89,-1.00,-1.0,2366
1420,2136420,17004,808,1248,17068.87,25.80,-1.00,-1.0,2433
1423,2136423,17008,820,1152,17066.68,25.71,-1.00,-1.0,2366
1426,2136426,16972,988,1172,17041.08,25.89,-1.00,-1.0,2433
1429,2136429,16928,788,1160,16985.99,25.85,-1.00,-1.0,2370
1434,2136434,16964,872,1196,17028.45,25.85,-1.00,-1.0,2447
1436,2136436,17032,816,1256,17097.73,25.80,-1.00,-1.0,2366
1439,2136439,17060,876,1404,17140.08,25.85,-1.00,-1.0,2444
1442,2136442,17044,920,1192,17110.38,25.80,-1.00,-1.0,2366
1445,2136445,16956,848,1096,17012.53,25.85,-1.00,-1.0,2442
1447,2136447,16976,900,1232,17044.42,25.71,-1.00,-1.0,2366
1450,2136450,16992,896,1268,17062.79,25.94,-1.00,-1.0,2367
1453,2136453,16956,884,1220,17022.80,25.80,-1.00,-1.0,2433
1456,2136456,17072,756,1252,17134.53,25.85,-1.00,-1.0,2370
1461,2136461,16984,808,1168,17043.28,25.85,-1.00,-1.0,2449
1463,2136463,17004,792,1196,17064.40,25.85,-1.00,-1.0,2375
1466,2136466,17032,744,1048,17080.42,25.80,-1.00,-1.0,2442
1469,2136469,16984,824,1132,17041.62,25.85,-1.00,-1.0,2382
1472,2136472,17004,864,1184,17067.05,25.80,-1.00,-1.0,2437
1474,2136474,16932,824,1196,16994.18,25.75,-1.00,-1.0,2370
1477,2136477,16984,920,1276,17056.70,25.80,-1.00,-1.0,2443
1480,2136480,16968,900,1212,17035.02,25.75,-1.00,-1.0,2382
1485,2136485,16992,976,1248,17065.70,25.71,-1.00,-1.0,2441
1487,2136487,17004,916,1152,17067.58,25.85,-1.00,-1.0,2365
1490,2136490,17072,896,1168,17135.35,25.80,-1.00,-1.0,2360
1493,2136493,16916,864,1200,16980.51,25.80,-1.00,-1.0,2434
1496,2136496,17032,860,1104,17089.40,25.80,-1.00,-1.0,2366
1498,2136498,16972,888,1136,17033.14,25.80,-1.00,-1.0,2433
1501,2136501,16960,900,1200,17026.20,25.80,-1.00,-1.0,2366
1504,2136504,16904,852,1320,16976.85,25.80,-1.00,-1.0,2435
1507,2136507,17000,852,1228,17065.58,25.71,-1.00,-1.0,2353
1512,2136512,16972,892,1308,17045.68,25.80,-1.00,-1.0,2441
1514,2136514,16936,872,1128,16995.91,25.80,-1.00,-1.0,2366
1517,2136517,16984,872,1168,17046.43,25.80,-1.00,-1.0,2434
1520,2136520,16996,964,1196,17065.28,25.89,-1.00,-1.0,2370
1523,2136523,16956,872,1024,17009.26,25.80,-1.00,-1.0,2430
1525,2136525,16976,820,1112,17032.13,25.80,-1.00,-1.0,2369
1528,2136528,16888,888,1204,16954.13,25.89,-1.00,-1.0,2359
1531,2136531,17048,872,1164,17109.93,25.75,-1.00,-1.0,2434
1534,2136534,17016,876,1160,17077.97,25.80,-1.00,-1.0,2367
1539,2136539,16928,792,1024,16977.43,25.80,-1.00,-1.0,2440
1542,2136542,17028,868,1188,17091.45,25.71,-1.00,-1.0,2365
1544,2136544,16996,812,1128,17052.73,25.85,-1.00,-1.0,2435
1547,2136547,17020,860,1196,17083.63,25.80,-1.00,-1.0,2367
1550,2136550,16944,884,1300,17016.77,25.80,-1.00,-1.0,2432
1553,2136553,16972,848,1128,17030.57,25.80,-1.00,-1.0,2366
1555,2136555,16988,864,1128,17047.32,25.85,-1.00,-1.0,2435
1558,2136558,16864,836,1148,16923.69,25.80,-1.00,-1.0,2369
1563,2136563,17008,840,1212,17071.81,25.80,-1.00,-1.0,2452
1566,2136566,16996,868,1104,17053.92,25.89,-1.00,-1.0,2368
1568,2136568,17064,920,1188,17130.03,25.80,-1.00,-1.0,2346
1571,2136571,17040,852,1164,17100.95,25.75,-1.00,-1.0,2434
1574,2136574,17056,872,996,17107.29,25.80,-1.00,-1.0,2370
1577,2136577,17040,832,1008,17090.05,25.85,-1.00,-1.0,2432
1579,2136579,17044,836,1108,17100.42,25.80,-1.00,-1.0,2374
1582,2136582,16912,840,1216,16976.46,25.66,-1.00,-1.0,2434
1585,2136585,16972,800,1152,17029.85,25.75,-1.00,-1.0,2367
1590,2136590,17048,804,1076,17100.83,25.75,-1.00,-1.0,2441
1593,2136593,16984,856,1144,17043.99,25.75,-1.00,-1.0,2366
1595,2136595,16932,808,1128,16988.76,25.75,-1.00,-1.0,2434
1598,2136598,16956,872,1172,17018.81,25.75,-1.00,-1.0,2367
1601,2136601,16996,840,1108,17052.78,25.85,-1.00,-1.0,2368
1603,2136603,17044,808,1088,17097.79,25.80,-1.00,-1.0,2433
1606,2136606,16976,860,1148,17036.49,25.75,-1.00,-1.0,2367
1609,2136609,17028,760,1208,17087.71,25.80,-1.00,-1.0,2447
1612,2136612,16976,836,1168,17036.66,25.80,-1.00,-1.0,2366
1617,2136617,16872,764,1128,16926.92,25.80,-1.00,-1.0,2443
1620,2136620,16984,860,1132,17043.39,25.85,-1.00,-1.0,2375
1622,2136622,17048,888,1220,17114.65,25.71,-1.00,-1.0,2432
1625,2136625,16956,844,1184,17018.23,25.75,-1.00,-1.0,2365
1628,2136628,16916,832,1184,16977.78,25.71,-1.00,-1.0,2434
1631,2136631,16984,836,1228,17048.85,25.75,-1.00,-1.0,2367
1633,2136633,16996,864,1332,17070.00,25.71,-1.00,-1.0,2432
1636,2136636,16948,924,1132,17010.88,25.75,-1.00,-1.0,2365
1639,2136639,17016,860,1284,17086.03,25.89,-1.00,-1.0,2367
1644,2136644,16996,876,1248,17064.26,25.89,-1.00,-1.0,2442
1647,2136647,16980,788,1072,17032.04,25.80,-1.00,-1.0,2375
1649,2136649,17040,816,1236,17104.24,25.80,-1.00,-1.0,2433
1652,2136652,16948,860,1156,17009.13,25.80,-1.00,-1.0,2366
1655,2136655,17004,896,1192,17069.26,25.89,-1.00,-1.0,2433
1658,2136658,17024,856,1124,17082.53,25.80,-1.00,-1.0,2375
1660,2136660,16892,764,1184,16950.67,25.71,-1.00,-1.0,2433
1663,2136663,17004,944,1236,17074.98,25.89,-1.00,-1.0,2366
1668,2136668,16976,824,1244,17041.45,25.89,-1.00,-1.0,2442
1671,2136671,16924,744,1096,16975.76,25.85,-1.00,-1.0,2367
1674,2136674,17000,896,1124,17060.66,25.80,-1.00,-1.0,2438
1676,2136676,17012,872,1204,17076.83,25.85,-1.00,-1.0,2367
1679,2136679,16984,812,1216,17046.83,25.80,-1.00,-1.0,2362
1682,2136682,16908,880,1136,16968.95,25.80,-1.00,-1.0,2441
1684,2136684,16940,836,1108,16996.77,25.80,-1.00,-1.0,2367
1687,2136687,16956,892,1280,17027.62,25.89,-1.00,-1.0,2437
1690,2136690,17032,876,1288,17103.08,25.85,-1.00,-1.0,2424
1695,2136695,17012,860,1164,17073.45,25.85,-1.00,-1.0,2465
1698,2136698,16876,924,1116,16938.08,25.80,-1.00,-1.0,2378
1701,2136701,17052,852,1168,17113.18,25.85,-1.00,-1.0,2434
1703,2136703,16964,800,1084,17017.41,25.75,-1.00,-1.0,2372
1706,2136706,16952,832,1164,17012.27,25.75,-1.00,-1.0,2442
1709,2136709,17068,936,1204,17136.00,25.75,-1.00,-1.0,2374
1712,2136712,16984,952,1184,17051.82,25.75,-1.00,-1.0,2435
1714,2136714,16976,788,1192,17036.03,25.75,-1.00,-1.0,2371
1717,2136717,16964,792,1104,17018.32,25.85,-1.00,-1.0,2360
1722,2136722,16928,880,1312,17001.56,25.80,-1.00,-1.0,2442
1725,2136725,16976,832,1136,17034.30,25.80,-1.00,-1.0,2367
1727,2136727,16968,824,1088,17022.80,25.80,-1.00,-1.0,2433
1730,2136730,16988,864,1024,17040.75,25.80,-1.00,-1.0,2366
1733,2136733,17040,900,1196,17105.61,25.80,-1.00,-1.0,2433
1736,2136736,17036,800,1176,17095.27,25.80,-1.00,-1.0,2368
1738,2136738,17012,764,1200,17071.38,25.80,-1.00,-1.0,2433
1741,2136741,17000,896,1204,17066.12,25.75,-1.00,-1.0,2431
1746,2136746,16980,948,1156,17045.69,25.89,-1.00,-1.0,2453
1749,2136749,16872,872,1208,16937.65,25.75,-1.00,-1.0,2369
1752,2136752,17060,772,1148,17116.00,25.71,-1.00,-1.0,2434
1754,2136754,16984,848,1120,17042.00,25.85,-1.00,-1.0,2370
1757,2136757,17064,880,1204,17129.04,25.80,-1.00,-1.0,2359
1760,2136760,16996,928,1236,17066.13,25.80,-1.00,-1.0,2432
1763,2136763,16948,932,1116,17010.26,25.99,-1.00,-1.0,2367
1765,2136765,16956,932,1200,17023.94,25.80,-1.00,-1.0,2433
1768,2136768,16924,900,1236,16992.92,25.80,-1.00,-1.0,2367
1773,2136773,17040,872,1200,17104.44,25.80,-1.00,-1.0,2449
1776,2136776,16932,792,1188,16992.09,25.75,-1.00,-1.0,2368
1779,2136779,16936,800,1168,16995.07,25.71,-1.00,-1.0,2428
1781,2136781,17040,832,1116,17096.76,25.80,-1.00,-1.0,2376
1784,2136784,16948,888,1096,17006.60,25.89,-1.00,-1.0,2432
1787,2136787,17052,828,1216,17115.34,25.85,-1.00,-1.0,2371
1790,2136790,16928,840,1108,16985.01,25.80,-1.00,-1.0,2441
1792,2136792,16944,772,1228,17005.97,25.71,-1.00,-1.0,2375
1795,2136795,16972,852,1128,17030.77,25.71,-1.00,-1.0,2360
1800,2136800,16932,844,1076,16987.13,25.80,-1.00,-1.0,2442
1803,2136803,16920,892,1088,16978.39,25.71,-1.00,-1.0,2354
1806,2136806,17008,844,1220,17072.57,25.71,-1.00,-1.0,2429
1808,2136808,17028,916,1096,17087.80,25.80,-1.00,-1.0,2374
1811,2136811,16860,880,1184,16924.42,25.71,-1.00,-1.0,2433
1814,2136814,16928,840,1132,16986.59,25.75,-1.00,-1.0,2355
1817,2136817,16888,792,1120,16943.62,25.80,-1.00,-1.0,2442
1819,2136819,17060,848,1188,17122.33,25.80,-1.00,-1.0,2376
1824,2136824,16948,816,1132,17005.35,25.75,-1.00,-1.0,2445
1827,2136827,16956,876,1228,17022.96,25.85,-1.00,-1.0,2367
1830,2136830,17028,860,1120,17086.45,25.80,-1.00,-1.0,2440
1832,2136832,16956,972,1128,17021.25,25.75,-1.00,-1.0,2369
1835,2136835,16956,840,1176,17017.48,25.80,-1.00,-1.0,2375
1838,2136838,17128,936,1244,17198.61,25.89,-1.00,-1.0,2435
1840,2136840,17000,864,1152,17060.88,25.71,-1.00,-1.0,2373
1843,2136843,16980,728,1204,17038.19,25.80,-1.00,-1.0,2441
1846,2136846,17072,836,1268,17139.43,25.85,-1.00,-1.0,2367
1851,2136851,16940,752,1172,16997.14,25.85,-1.00,-1.0,2445
1854,2136854,16956,936,1212,17025.01,25.75,-1.00,-1.0,2367
1857,2136857,16992,800,1208,17053.66,25.75,-1.00,-1.0,2438
1859,2136859,17000,844,1136,17058.80,25.75,-1.00,-1.0,2366
1862,2136862,17036,908,1056,17092.83,25.75,-1.00,-1.0,2433
1865,2136865,16956,864,1148,17016.77,25.85,-1.00,-1.0,2368
1868,2136868,16984,776,1200,17044.01,25.75,-1.00,-1.0,2431
1870,2136870,17068,844,1032,17119.99,25.80,-1.00,-1.0,2354
1873,2136873,17048,772,1152,17104.31,25.71,-1.00,-1.0,2361
1878,2136878,17000,952,1300,17076.19,25.75,-1.00,-1.0,2444
1881,2136881,16956,720,1296,17020.69,25.75,-1.00,-1.0,2367
1884,2136884,16952,904,1148,17014.86,25.66,-1.00,-1.0,2440
1886,2136886,16976,840,1244,17042.23,25.75,-1.00,-1.0,2366
1889,2136889,17036,924,1220,17104.60,25.85,-1.00,-1.0,2433
1892,2136892,17008,876,1172,17070.82,25.75,-1.00,-1.0,2368
1895,2136895,16868,924,1296,16942.93,25.75,-1.00,-1.0,2437
1897,2136897,16952,908,1192,17018.10,25.85,-1.00,-1.0,2366
1902,2136902,16984,928,1200,17051.61,25.85,-1.00,-1.0,2445
1905,2136905,17000,808,1120,17056.00,25.75,-1.00,-1.0,2370
1908,2136908,17008,848,1208,17071.92,25.80,-1.00,-1.0,2440
1910,2136910,17044,896,1332,17119.43,25.75,-1.00,-1.0,2367
1913,2136913,16908,836,1152,16967.81,25.80,-1.00,-1.0,2360
1916,2136916,16932,880,1116,16991.54,25.80,-1.00,-1.0,2439
1918,2136918,17076,852,1268,17144.20,25.80,-1.00,-1.0,2369
1921,2136921,17108,912,1248,17177.69,25.75,-1.00,-1.0,2435
1924,2136924,16920,860,1144,16980.42,25.80,-1.00,-1.0,2376
1929,2136929,16956,820,1108,17011.94,25.75,-1.00,-1.0,2442
1932,2136932,17000,820,1112,17056.05,25.75,-1.00,-1.0,2369
1935,2136935,16988,844,1224,17052.94,25.75,-1.00,-1.0,2428
1937,2136937,16992,960,1216,17062.48,25.75,-1.00,-1.0,2374
1940,2136940,16996,996,1100,17060.66,25.75,-1.00,-1.0,2432
1943,2136943,17016,792,1240,17079.49,25.75,-1.00,-1.0,2372
1945,2136945,17012,916,1252,17082.58,25.85,-1.00,-1.0,2361
1948,2136948,16936,824,1204,16998.73,25.75,-1.00,-1.0,2431
1951,2136951,16956,836,1140,17014.83,25.85,-1.00,-1.0,2376
1956,2136956,17092,932,996,17146.34,25.85,-1.00,-1.0,2451
1959,2136959,17076,888,1036,17130.43,25.75,-1.00,-1.0,2383
1962,2136962,16976,804,1100,17030.59,25.75,-1.00,-1.0,2434
1964,2136964,17024,764,1324,17092.49,25.71,-1.00,-1.0,2379
1967,2136967,16976,820,1176,17036.43,25.85,-1.00,-1.0,2434
1970,2136970,17112,840,1216,17175.70,25.75,-1.00,-1.0,2382
1973,2136973,17012,876,1172,17074.81,25.75,-1.00,-1.0,2432
1975,2136975,16984,860,1076,17039.77,25.80,-1.00,-1.0,2374
1980,2136980,16940,868,1136,17000.22,25.80,-1.00,-1.0,2444
1983,2136983,17024,880,1136,17084.54,25.89,-1.00,-1.0,2369
1986,2136986,16868,836,1244,16934.46,25.75,-1.00,-1.0,2347
1989,2136989,16964,876,1176,17027.26,25.85,-1.00,-1.0,2442
1991,2136991,16936,968,1156,17002.98,25.85,-1.00,-1.0,2377
1994,2136994,17048,856,1136,17107.24,25.75,-1.00,-1.0,2432
1997,2136997,17076,860,1056,17130.22,25.75,-1.00,-1.0,2355
2000,2137000,16924,888,1160,16986.93,25.75,-1.00,-1.0,2445
2002,2137002,17108,740,1044,17155.79,25.71,-1.00,-1.0,2368
2007,2137007,16964,976,1076,17026.09,25.75,-1.00,-1.0,2429
2010,2137010,17052,872,1112,17110.45,25.85,-1.00,-1.0,2375
2013,2137013,16988,792,1432,17066.63,25.80,-1.00,-1.0,2434
2015,2137015,17012,844,1220,17076.56,25.85,-1.00,-1.0,2373
2018,2137018,16952,916,1264,17023.72,25.80,-1.00,-1.0,2434
2021,2137021,16952,788,1192,17012.12,25.85,-1.00,-1.0,2376
2024,2137024,17012,916,1304,17086.47,25.80,-1.00,-1.0,2360
2026,2137026,16944,840,1192,17006.63,25.80,-1.00,-1.0,2433
2029,2137029,17000,908,1156,17063.44,25.71,-1.00,-1.0,2368
2034,2137034,17020,760,1140,17075.06,25.80,-1.00,-1.0,2441
2037,2137037,17028,852,1348,17102.51,25.80,-1.00,-1.0,2368
2040,2137040,16932,888,1112,16991.70,25.80,-1.00,-1.0,2432
2043,2137043,17028,860,1072,17083.37,25.71,-1.00,-1.0,2370
2045,2137045,17060,876,1172,17122.63,25.71,-1.00,-1.0,2431
2048,2137048,16976,840,1136,17034.69,25.80,-1.00,-1.0,2371
2051,2137051,16972,860,1172,17034.14,25.80,-1.00,-1.0,2432
2054,2137054,16980,852,1108,17037.43,25.80,-1.00,-1.0,2371
2059,2137059,17108,800,1240,17171.53,25.80,-1.00,-1.0,2444
2061,2137061,17052,936,1140,17115.68,25.85,-1.00,-1.0,2377
2064,2137064,16928,836,1212,16991.91,25.80,-1.00,-1.0,2360
2067,2137067,16960,872,1160,17021.97,25.80,-1.00,-1.0,2430
2069,2137069,16992,844,1168,17052.99,25.80,-1.00,-1.0,2371
2072,2137072,17016,812,1156,17074.54,25.80,-1.00,-1.0,2431
2075,2137075,16912,848,1208,16976.28,25.80,-1.00,-1.0,2370
2078,2137078,17008,920,1264,17079.70,25.71,-1.00,-1.0,2427
2080,2137080,16984,952,1236,17055.51,25.80,-1.00,-1.0,2368
2085,2137085,17044,868,1220,17109.64,25.80,-1.00,-1.0,2440
2088,2137088,16996,840,1120,17053.56,25.80,-1.00,-1.0,2354
2091,2137091,17000,872,1252,17068.33,25.75,-1.00,-1.0,2431
2094,2137094,17036,788,1168,17094.16,25.80,-1.00,-1.0,2372
2096,2137096,16964,876,1244,17032.09,25.80,-1.00,-1.0,2418
2099,2137099,17000,832,1196,17062.32,25.71,-1.00,-1.0,2368
2102,2137102,17000,888,1200,17065.42,25.75,-1.00,-1.0,2367
2104,2137104,16936,976,1212,17007.34,25.80,-1.00,-1.0,2443
2107,2137107,16964,844,1168,17025.10,25.75,-1.00,-1.0,2368
2112,2137112,17052,876,1128,17111.71,25.85,-1.00,-1.0,2440
2115,2137115,16992,864,1220,17057.64,25.75,-1.00,-1.0,2369
2118,2137118,16976,852,1164,17037.18,25.80,-1.00,-1.0,2447
2121,2137121,16924,872,1128,16983.95,25.75,-1.00,-1.0,2376
2123,2137123,16952,860,1216,17017.30,25.89,-1.00,-1.0,2436
2126,2137126,16976,824,1192,17037.73,25.75,-1.00,-1.0,2370
2129,2137129,17012,932,1060,17070.45,25.80,-1.00,-1.0,2440
2132,2137132,17008,784,1092,17061.04,25.75,-1.00,-1.0,2376
2136,2137136,16948,848,1096,17004.56,25.80,-1.00,-1.0,2447
2139,2137139,17076,816,1168,17135.34,25.71,-1.00,-1.0,2373
2142,2137142,17016,788,1096,17069.46,25.89,-1.00,-1.0,2360
2145,2137145,16952,804,1224,17015.14,25.75,-1.00,-1.0,2433
2147,2137147,16908,876,1136,16968.75,25.80,-1.00,-1.0,2376
2150,2137150,16968,788,1148,17025.04,25.85,-1.00,-1.0,2432
2153,2137153,16984,688,1220,17041.65,25.71,-1.00,-1.0,2368
2156,2137156,16920,816,1212,16982.97,25.75,-1.00,-1.0,2430
2158,2137158,16956,768,1044,17005.46,25.80,-1.00,-1.0,2380
2163,2137163,16984,860,1184,17046.93,25.80,-1.00,-1.0,2441
2166,2137166,17016,816,1164,17075.28,25.71,-1.00,-1.0,2367
2169,2137169,16996,812,1212,17058.50,25.80,-1.00,-1.0,2446
2172,2137172,16988,836,1132,17046.19,25.80,-1.00,-1.0,2365
2174,2137174,16960,872,1160,17021.97,25.80,-1.00,-1.0,2436
2177,2137177,17004,920,1264,17075.72,25.80,-1.00,-1.0,2370
2180,2137180,16956,740,1100,17007.75,25.80,-1.00,-1.0,2349
2183,2137183,16916,856,1200,16980.10,25.75,-1.00,-1.0,2440
2185,2137185,17048,840,1204,17111.09,25.80,-1.00,-1.0,2371
2192,2137192,17024,876,1200,17088.71,25.85,-1.00,-1.0,2441
2195,2137195,16992,864,1084,17048.45,25.75,-1.00,-1.0,2367
2198,2137198,16952,856,1192,17015.40,25.85,-1.00,-1.0,2432
2201,2137201,16980,836,1256,17046.90,25.75,-1.00,-1.0,2367
2203,2137203,17084,852,1208,17147.83,25.85,-1.00,-1.0,2432
2206,2137206,16944,812,1136,17001.44,25.85,-1.00,-1.0,2368
2209,2137209,16940,832,1236,17005.40,25.75,-1.00,-1.0,2432
2212,2137212,17036,872,1212,17101.30,25.85,-1.00,-1.0,2368
2216,2137216,16948,876,1216,17014.13,25.75,-1.00,-1.0,2444
2219,2137219,16984,812,1140,17041.57,25.89,-1.00,-1.0,2370
2222,2137222,16940,908,1188,17005.86,25.75,-1.00,-1.0,2362
2225,2137225,16992,720,1156,17046.49,25.75,-1.00,-1.0,2433
2227,2137227,17096,908,1036,17151.41,25.85,-1.00,-1.0,2376
2230,2137230,16916,968,1220,16987.54,25.75,-1.00,-1.0,2432
2233,2137233,16984,884,1152,17045.96,25.75,-1.00,-1.0,2369
2236,2137236,17036,888,1044,17091.04,25.85,-1.00,-1.0,2436
2238,2137238,17004,916,1132,17066.24,25.85,-1.00,-1.0,2375
2243,2137243,16936,860,1176,16998.55,25.80,-1.00,-1.0,2450
2246,2137246,17036,860,1156,17096.82,25.75,-1.00,-1.0,2373
2249,2137249,17000,824,1024,17050.73,25.75,-1.00,-1.0,2431
2251,2137251,16952,924,1116,17013.80,25.75,-1.00,-1.0,2375
2254,2137254,17020,920,1292,17093.74,25.85,-1.00,-1.0,2441
2257,2137257,17024,780,1068,17075.29,25.75,-1.00,-1.0,2375
2260,2137260,16980,956,1200,17049.17,25.85,-1.00,-1.0,2360
2262,2137262,16868,860,1108,16926.21,25.71,-1.00,-1.0,2433
2265,2137265,17000,844,1020,17051.47,25.85,-1.00,-1.0,2356
2270,2137270,17052,852,1176,17113.72,25.75,-1.00,-1.0,2456
2273,2137273,17008,896,1152,17070.50,25.85,-1.00,-1.0,2372
2276,2137276,16984,856,1152,17044.53,25.85,-1.00,-1.0,2445
2278,2137278,17012,844,1216,17076.27,25.80,-1.00,-1.0,2371
2281,2137281,17008,836,1236,17073.33,25.85,-1.00,-1.0,2443
2284,2137284,16904,880,1232,16971.67,25.75,-1.00,-1.0,2374
2287,2137287,16972,952,1148,17037.40,25.75,-1.00,-1.0,2446
2289,2137289,16916,916,1128,16978.29,25.80,-1.00,-1.0,2370
2292,2137292,16908,912,1344,16985.83,25.85,-1.00,-1.0,2363
2297,2137297,16916,912,1260,16987.36,25.75,-1.00,-1.0,2443
2299,2137299,17012,912,1320,17087.49,25.85,-1.00,-1.0,2373
2302,2137302,16980,804,1180,17039.93,25.80,-1.00,-1.0,2437
2305,2137305,17072,872,1228,17138.31,25.85,-1.00,-1.0,2382
2308,2137308,17024,932,1104,17085.20,25.80,-1.00,-1.0,2434
2310,2137310,16924,776,1124,16979.03,25.75,-1.00,-1.0,2370
2313,2137313,17088,812,1296,17156.30,25.80,-1.00,-1.0,2438
2316,2137316,17064,804,1140,17120.93,25.75,-1.00,-1.0,2374
2321,2137321,17000,872,1160,17061.83,25.89,-1.00,-1.0,2439
2323,2137323,17004,908,1180,17069.06,25.85,-1.00,-1.0,2376
2326,2137326,17056,948,1096,17117.45,25.89,-1.00,-1.0,2437
2329,2137329,16940,960,1068,17000.76,25.75,-1.00,-1.0,2374
2332,2137332,16988,816,1164,17047.37,25.80,-1.00,-1.0,2361
2334,2137334,17080,952,1244,17151.68,25.71,-1.00,-1.0,2432
2337,2137337,16980,812,1248,17045.15,25.80,-1.00,-1.0,2368
2340,2137340,16940,860,1040,16993.67,25.80,-1.00,-1.0,2432
2343,2137343,16896,808,1044,16947.50,25.80,-1.00,-1.0,2367
2347,2137347,17060,832,1156,17119.35,25.85,-1.00,-1.0,2430
2350,2137350,16932,816,1192,16993.51,25.89,-1.00,-1.0,2366
2353,2137353,17004,920,1240,17073.96,25.75,-1.00,-1.0,2432
2356,2137356,16964,888,1344,17040.31,25.80,-1.00,-1.0,2366
2358,2137358,16984,724,1156,17038.68,25.85,-1.00,-1.0,2435
2361,2137361,16940,884,1280,17011.27,25.80,-1.00,-1.0,2367
2364,2137364,17000,944,1168,17066.21,25.85,-1.00,-1.0,2432
2367,2137367,17040,880,1216,17105.98,25.80,-1.00,-1.0,2367
2369,2137369,16912,836,1120,16969.65,25.71,-1.00,-1.0,2359
2374,2137374,16996,836,1196,17058.53,25.80,-1.00,-1.0,2442
2377,2137377,16904,924,1188,16970.87,25.89,-1.00,-1.0,2367
2380,2137380,16924,800,1196,16985.06,25.85,-1.00,-1.0,2439
2382,2137382,17032,892,1116,17091.81,25.80,-1.00,-1.0,2369
2385,2137385,17032,940,1264,17104.69,25.89,-1.00,-1.0,2433
2388,2137388,17044,828,1052,17096.50,25.80,-1.00,-1.0,2370
2391,2137391,16896,816,1232,16960.50,25.85,-1.00,-1.0,2430
2393,2137393,17044,872,1144,17104.59,25.89,-1.00,-1.0,2368
2398,2137398,16952,808,1120,17008.16,25.80,-1.00,-1.0,2451
2401,2137401,16948,788,1184,17007.57,25.71,-1.00,-1.0,2380
2404,2137404,16820,720,1280,16883.99,25.80,-1.00,-1.0,2432
2406,2137406,17008,856,1188,17070.92,25.80,-1.00,-1.0,2373
2409,2137409,17016,872,1272,17085.74,25.80,-1.00,-1.0,2360
2412,2137412,17008,936,1080,17067.94,25.85,-1.00,-1.0,2432
2415,2137415,17028,736,1192,17085.53,25.89,-1.00,-1.0,2367
2417,2137417,16924,848,1104,16981.16,25.75,-1.00,-1.0,2433
2420,2137420,16908,760,1148,16963.96,25.71,-1.00,-1.0,2367
2425,2137425,17028,880,1208,17093.46,25.80,-1.00,-1.0,2442
2428,2137428,17048,792,1188,17107.69,25.80,-1.00,-1.0,2375
2431,2137431,17008,864,1140,17068.04,25.80,-1.00,-1.0,2441
2433,2137433,16916,924,1076,16975.35,25.80,-1.00,-1.0,2377
2436,2137436,17048,820,1156,17106.81,25.80,-1.00,-1.0,2440
2439,2137439,17036,760,1244,17098.26,25.80,-1.00,-1.0,2370
2442,2137442,17016,864,1088,17072.62,25.85,-1.00,-1.0,2441
2444,2137444,16968,896,1168,17031.74,25.75,-1.00,-1.0,2419
2447,2137447,16980,872,1184,17043.55,25.80,-1.00,-1.0,2369
2452,2137452,16964,836,1176,17025.25,25.80,-1.00,-1.0,2457
2455,2137455,17048,788,1236,17110.90,25.80,-1.00,-1.0,2372
2458,2137458,16960,972,1180,17028.76,25.75,-1.00,-1.0,2442
2460,2137460,16876,916,1180,16941.98,25.80,-1.00,-1.0,2374
2463,2137463,17052,884,1240,17119.87,25.80,-1.00,-1.0,2440
2466,2137466,17060,808,1152,17117.93,25.89,-1.00,-1.0,2372
2469,2137469,16988,868,1220,17053.86,25.85,-1.00,-1.0,2444
2471,2137471,16976,836,1096,17031.87,25.71,-1.00,-1.0,2374
2476,2137476,16920,832,1316,16991.48,25.80,-1.00,-1.0,2454
2479,2137479,16964,932,1136,17027.52,25.71,-1.00,-1.0,2375
2482,2137482,17064,872,1112,17122.41,25.85,-1.00,-1.0,2422
2484,2137484,16912,888,1172,16975.80,25.80,-1.00,-1.0,2366
2487,2137487,16980,892,1192,17045.14,25.80,-1.00,-1.0,2362
2490,2137490,17008,900,1212,17074.87,25.75,-1.00,-1.0,2434
2492,2137492,17000,860,1192,17063.42,25.85,-1.00,-1.0,2375
2495,2137495,16940,876,1244,17008.19,25.85,-1.00,-1.0,2435
2498,2137498,17068,880,1260,17137.05,25.80,-1.00,-1.0,2382
2503,2137503,16976,856,1108,17033.64,25.80,-1.00,-1.0,2456
2506,2137506,17044,852,1164,17104.93,25.71,-1.00,-1.0,2375
2509,2137509,16980,856,1272,17049.08,25.75,-1.00,-1.0,2445
2511,2137511,17092,796,1340,17162.92,25.85,-1.00,-1.0,2374
2514,2137514,16988,796,1008,17036.48,25.75,-1.00,-1.0,2440
2517,2137517,17020,912,1268,17091.52,25.80,-1.00,-1.0,2370
2520,2137520,16976,856,1188,17039.03,25.85,-1.00,-1.0,2448
2522,2137522,16988,896,1096,17046.88,25.75,-1.00,-1.0,2375
2525,2137525,16976,800,1080,17029.12,25.75,-1.00,-1.0,2359
2531,2137531,16984,764,1148,17039.89,25.75,-1.00,-1.0,2442
2533,2137533,17024,824,1088,17078.62,25.85,-1.00,-1.0,2371
2536,2137536,17012,880,1256,17080.99,25.80,-1.00,-1.0,2432
2539,2137539,16992,864,1208,17056.78,25.85,-1.00,-1.0,2369
2542,2137542,16996,860,1136,17055.62,25.71,-1.00,-1.0,2432
2544,2137544,17032,764,1216,17092.44,25.75,-1.00,-1.0,2375
2547,2137547,16928,860,1120,16986.79,25.99,-1.00,-1.0,2432
2550,2137550,16956,852,1280,17025.58,25.75,-1.00,-1.0,2355
2555,2137555,17016,800,1272,17082.22,25.80,-1.00,-1.0,2449
2557,2137557,16984,804,1244,17048.47,25.80,-1.00,-1.0,2368
2560,2137560,16956,808,1068,17008.80,25.80,-1.00,-1.0,2432
2563,2137563,16932,848,1172,16993.68,25.80,-1.00,-1.0,2356
2565,2137565,16940,828,1140,16998.49,25.80,-1.00,-1.0,2347
2568,2137568,17020,812,1084,17073.80,25.89,-1.00,-1.0,2432
2571,2137571,16932,828,1096,16987.62,25.80,-1.00,-1.0,2368
2574,2137574,17020,896,1096,17078.77,25.85,-1.00,-1.0,2460
2576,2137576,16956,896,1280,17027.83,25.85,-1.00,-1.0,2371
2581,2137581,16964,848,1112,17021.54,25.75,-1.00,-1.0,2448
2584,2137584,16972,876,1280,17042.73,25.75,-1.00,-1.0,2367
2587,2137587,17020,832,1104,17076.05,25.75,-1.00,-1.0,2450
2590,2137590,17020,824,1072,17073.62,25.85,-1.00,-1.0,2371
2593,2137593,16904,908,1080,16962.79,25.85,-1.00,-1.0,2445
2595,2137595,16992,780,1292,17058.89,25.85,-1.00,-1.0,2366
2598,2137598,17016,812,1224,17079.28,25.85,-1.00,-1.0,2450
2601,2137601,16920,900,1028,16975.08,25.75,-1.00,-1.0,2369
2603,2137603,17072,864,1068,17127.18,25.71,-1.00,-1.0,2362
2608,2137608,17008,828,1184,17069.26,25.75,-1.00,-1.0,2453
2611,2137611,16936,924,1128,16998.65,25.75,-1.00,-1.0,2371
2614,2137614,16960,908,1164,17024.13,25.80,-1.00,-1.0,2426
2616,2137616,17080,836,1236,17145.06,25.85,-1.00,-1.0,2364
2619,2137619,16916,844,1136,16975.10,25.80,-1.00,-1.0,2448
2622,2137622,16968,836,1112,17024.94,25.85,-1.00,-1.0,2373
2625,2137625,16892,896,1096,16951.21,25.80,-1.00,-1.0,2439
2627,2137627,16976,808,1080,17029.50,25.75,-1.00,-1.0,2363
2632,2137632,17024,888,1136,17084.95,25.75,-1.00,-1.0,2445
2635,2137635,16920,928,1264,16992.51,25.75,-1.00,-1.0,2364
2638,2137638,17048,856,1172,17109.66,25.75,-1.00,-1.0,2437
2641,2137641,17052,896,1068,17108.89,25.80,-1.00,-1.0,2363
2643,2137643,16992,828,1128,17049.52,25.75,-1.00,-1.0,2360
2646,2137646,17032,900,1112,17091.97,25.71,-1.00,-1.0,2453
2649,2137649,17036,792,1172,17094.62,25.75,-1.00,-1.0,2366
2651,2137651,16952,820,1072,17005.64,25.85,-1.00,-1.0,2436
2654,2137654,17020,876,1220,17086.14,25.85,-1.00,-1.0,2365
2659,2137659,17032,840,1188,17094.03,25.85,-1.00,-1.0,2448
2662,2137662,16892,952,1184,16960.18,25.80,-1.00,-1.0,2364
2665,2137665,16904,956,1108,16967.23,25.75,-1.00,-1.0,2443
2667,2137667,17036,852,1064,17090.45,25.80,-1.00,-1.0,2363
2670,2137670,17048,896,1116,17107.97,25.75,-1.00,-1.0,2436
2673,2137673,16972,880,1140,17032.99,25.71,-1.00,-1.0,2352
2675,2137675,16940,848,1168,17001.38,25.85,-1.00,-1.0,2361
2678,2137678,17080,856,1140,17139.39,25.75,-1.00,-1.0,2436
2681,2137681,16992,824,1124,17049.06,25.80,-1.00,-1.0,2372
2686,2137686,16876,912,1104,16936.64,25.80,-1.00,-1.0,2445
2689,2137689,16964,816,1252,17029.70,25.85,-1.00,-1.0,2374
2691,2137691,17016,916,1196,17082.56,25.80,-1.00,-1.0,2451
2694,2137694,16924,852,1140,16983.74,25.80,-1.00,-1.0,2368
2697,2137697,16828,856,1200,16892.43,25.80,-1.00,-1.0,2452
2700,2137700,16984,848,1096,17040.44,25.71,-1.00,-1.0,2371
2703,2137703,17040,924,1172,17105.23,25.71,-1.00,-1.0,2446
2705,2137705,17000,868,1164,17061.90,25.71,-1.00,-1.0,2368
2710,2137710,16916,880,1128,16976.39,25.71,-1.00,-1.0,2447
2713,2137713,17032,960,1160,17098.43,25.85,-1.00,-1.0,2365
2715,2137715,16972,900,1064,17029.12,25.80,-1.00,-1.0,2364
2718,2137718,16988,968,1108,17051.59,25.80,-1.00,-1.0,2447
2721,2137721,16928,904,1176,16992.86,25.71,-1.00,-1.0,2372
2724,2137724,16984,868,1224,17050.16,25.80,-1.00,-1.0,2425
2726,2137726,16948,856,1260,17016.32,25.80,-1.00,-1.0,2363
2729,2137729,16952,888,1172,17015.65,25.80,-1.00,-1.0,2450
2732,2137732,16940,848,1156,17000.56,25.75,-1.00,-1.0,2365
2737,2137737,17000,840,1204,17063.27,25.75,-1.00,-1.0,2431
2740,2137740,16956,804,1212,17018.26,25.75,-1.00,-1.0,2363
2742,2137742,17068,820,1104,17123.31,25.75,-1.00,-1.0,2436
2745,2137745,16940,828,1184,17001.50,25.75,-1.00,-1.0,2364
2748,2137748,16976,852,1128,17034.75,25.85,-1.00,-1.0,2423
2751,2137751,17020,896,1184,17084.64,25.85,-1.00,-1.0,2367
2753,2137753,16948,888,1196,17013.34,25.75,-1.00,-1.0,2360
2756,2137756,17040,840,1028,17091.63,25.80,-1.00,-1.0,2437
2759,2137759,17036,840,1052,17089.11,25.85,-1.00,-1.0,2365
2764,2137764,16928,736,1136,16982.03,25.71,-1.00,-1.0,2444
2767,2137767,16960,920,1300,17034.61,25.85,-1.00,-1.0,2363
2769,2137769,16984,900,1296,17057.13,25.71,-1.00,-1.0,2437
2772,2137772,16936,848,1088,16992.08,25.80,-1.00,-1.0,2365
2775,2137775,16988,816,1188,17049.03,25.80,-1.00,-1.0,2436
2778,2137778,16980,900,1160,17043.36,25.85,-1.00,-1.0,2363
2780,2137780,16980,792,1184,17039.65,25.89,-1.00,-1.0,2437
2783,2137783,16948,912,1024,17003.38,25.85,-1.00,-1.0,2365
2788,2137788,16976,944,1088,17037.00,25.66,-1.00,-1.0,2444
2791,2137791,17024,956,1216,17094.13,25.75,-1.00,-1.0,2364
2793,2137793,17000,840,1064,17053.96,25.80,-1.00,-1.0,2359
2796,2137796,17056,844,1152,17115.68,25.80,-1.00,-1.0,2438
2799,2137799,16936,908,1052,16992.92,25.71,-1.00,-1.0,2365
2802,2137802,16872,796,1328,16942.89,25.80,-1.00,-1.0,2444
2804,2137804,17040,860,1084,17096.09,25.80,-1.00,-1.0,2363
2807,2137807,16996,948,1200,17064.66,25.80,-1.00,-1.0,2438
2810,2137810,17004,912,1120,17065.23,25.80,-1.00,-1.0,2364
2815,2137815,16992,876,1112,17050.87,25.80,-1.00,-1.0,2431
2818,2137818,16916,824,1228,16980.52,25.85,-1.00,-1.0,2364
2821,2137821,17048,840,1064,17101.81,25.80,-1.00,-1.0,2434
2823,2137823,17104,912,1248,17173.70,25.85,-1.00,-1.0,2367
2826,2137826,17024,812,1212,17086.39,25.80,-1.00,-1.0,2438
2829,2137829,16960,804,1072,17012.85,25.85,-1.00,-1.0,2364
2831,2137831,17048,864,1348,17123.02,25.80,-1.00,-1.0,2360
2834,2137834,17096,800,1108,17150.54,25.75,-1.00,-1.0,2443
2837,2137837,17000,916,1252,17070.63,25.80,-1.00,-1.0,2364
2842,2137842,16880,784,1160,16937.96,25.80,-1.00,-1.0,2448
2845,2137845,16944,844,1028,16996.12,25.80,-1.00,-1.0,2364
2848,2137848,16996,876,1088,17053.30,25.75,-1.00,-1.0,2464
2850,2137850,16952,824,1140,17010.26,25.85,-1.00,-1.0,2383
2853,2137853,17060,784,1228,17122.10,25.80,-1.00,-1.0,2438
2856,2137856,17000,864,1104,17057.71,25.85,-1.00,-1.0,2368
2859,2137859,17008,836,1140,17066.65,25.71,-1.00,-1.0,2436
2861,2137861,17012,848,1120,17069.90,25.85,-1.00,-1.0,2363
2866,2137866,16980,800,1172,17039.19,25.75,-1.00,-1.0,2441
2869,2137869,17020,828,1132,17077.69,25.75,-1.00,-1.0,2366
2872,2137872,16996,888,1224,17063.14,25.85,-1.00,-1.0,2360
2875,2137875,17036,880,1048,17090.88,25.71,-1.00,-1.0,2446
2877,2137877,17000,856,1172,17061.84,25.80,-1.00,-1.0,2416
2880,2137880,17112,844,1140,17170.69,25.71,-1.00,-1.0,2447
2883,2137883,16964,820,1140,17022.02,25.85,-1.00,-1.0,2388
2886,2137886,17020,876,1332,17094.50,25.71,-1.00,-1.0,2427
2888,2137888,16888,788,1140,16944.77,25.85,-1.00,-1.0,2377
2893,2137893,17020,848,1256,17087.34,25.85,-1.00,-1.0,2437
2896,2137896,16976,884,1192,17040.74,25.85,-1.00,-1.0,2369
2899,2137899,16988,728,1140,17041.76,25.85,-1.00,-1.0,2452
2902,2137902,16880,844,1064,16934.54,25.75,-1.00,-1.0,2377
2905,2137905,17024,892,1256,17093.56,25.89,-1.00,-1.0,2445
2907,2137907,17036,936,1096,17096.86,25.75,-1.00,-1.0,2368
2910,2137910,17008,872,1180,17071.17,25.80,-1.00,-1.0,2346
2913,2137913,16984,796,1320,17053.80,25.80,-1.00,-1.0,2444
2915,2137915,16888,892,984,16940.14,25.80,-1.00,-1.0,2377
2920,2137920,16840,896,1188,16905.61,25.80,-1.00,-1.0,2448
2923,2137923,16904,876,1268,16974.11,25.85,-1.00,-1.0,2373
2926,2137926,16980,792,1096,17033.76,25.80,-1.00,-1.0,2427
2928,2137928,16976,844,1092,17032.01,25.75,-1.00,-1.0,2367
2931,2137931,17016,864,1236,17082.70,25.80,-1.00,-1.0,2446
2934,2137934,16896,932,1264,16968.83,25.75,-1.00,-1.0,2366
2937,2137937,16928,948,1144,16993.08,25.71,-1.00,-1.0,2440
2939,2137939,16940,820,1140,16998.11,25.75,-1.00,-1.0,2366
2944,2137944,17008,836,1108,17064.54,25.71,-1.00,-1.0,2448
2947,2137947,16876,792,1164,16934.62,25.80,-1.00,-1.0,2373
2950,2137950,17088,788,1084,17140.47,25.85,-1.00,-1.0,2422
2953,2137953,16956,812,1148,17014.21,25.80,-1.00,-1.0,2455
2955,2137955,17004,800,1192,17064.49,25.80,-1.00,-1.0,2375
2958,2137958,16920,908,1168,16984.55,25.75,-1.00,-1.0,2433
2961,2137961,16984,812,1044,17035.42,25.80,-1.00,-1.0,2369
2964,2137964,16960,836,1208,17023.51,25.80,-1.00,-1.0,2433
2966,2137966,16964,848,1156,17024.47,25.80,-1.00,-1.0,2374
2971,2137971,17044,820,1112,17099.91,25.85,-1.00,-1.0,2437
2974,2137974,16980,892,1172,17043.76,25.71,-1.00,-1.0,2368
2977,2137977,16956,864,1124,17015.16,25.75,-1.00,-1.0,2438
2980,2137980,16992,832,1196,17054.35,25.71,-1.00,-1.0,2367
2982,2137982,16944,904,1172,17008.53,25.75,-1.00,-1.0,2434
2985,2137985,17076,848,1156,17136.08,25.80,-1.00,-1.0,2369
2988,2137988,16976,808,1196,17037.25,25.80,-1.00,-1.0,2359
2990,2137990,16972,868,1068,17027.71,25.75,-1.00,-1.0,2434
2993,2137993,16960,828,1068,17013.75,25.85,-1.00,-1.0,2370
2998,2137998,16928,776,1136,16983.81,25.85,-1.00,-1.0,2445
3001,2138001,17064,804,1104,17118.57,25.71,-1.00,-1.0,2382
3004,2138004,17016,860,1144,17076.08,25.75,-1.00,-1.0,2440
3006,2138006,16984,844,1104,17040.76,25.80,-1.00,-1.0,2373
3009,2138009,16952,808,1108,17007.38,25.75,-1.00,-1.0,2435
3012,2138012,16984,856,1148,17044.26,25.75,-1.00,-1.0,2416
3015,2138015,16956,896,1264,17026.64,25.80,-1.00,-1.0,2447
3018,2138018,17000,824,1316,17070.76,25.80,-1.00,-1.0,2380
3020,2138020,16936,908,1332,17012.55,25.75,-1.00,-1.0,2361
3025,2138025,16936,856,1080,16991.97,25.75,-1.00,-1.0,2440
3028,2138028,17016,872,1136,17076.16,25.80,-1.00,-1.0,2374
3031,2138031,17000,788,1180,17059.11,25.85,-1.00,-1.0,2438
3033,2138033,16920,784,1000,16967.65,25.80,-1.00,-1.0,2363
3036,2138036,16944,924,1060,17002.25,25.85,-1.00,-1.0,2436
3039,2138039,16932,900,1264,17002.95,25.85,-1.00,-1.0,2374
3042,2138042,17032,972,1204,17102.15,25.75,-1.00,-1.0,2433
3044,2138044,16964,816,1088,17018.43,25.80,-1.00,-1.0,2373
3049,2138049,17020,856,1112,17077.75,25.80,-1.00,-1.0,2439
3052,2138052,16924,864,1296,16995.53,25.71,-1.00,-1.0,2367
3055,2138055,17024,848,1128,17082.39,25.85,-1.00,-1.0,2452
3058,2138058,16984,800,1172,17043.18,25.80,-1.00,-1.0,2376
3060,2138060,17032,848,1068,17086.51,25.75,-1.00,-1.0,2367
3063,2138063,16976,832,1092,17031.42,25.75,-1.00,-1.0,2433
3066,2138066,16956,816,1164,17015.48,25.75,-1.00,-1.0,2367
3069,2138069,17076,752,1124,17129.47,25.75,-1.00,-1.0,2442
3071,2138071,16936,852,1184,16998.70,25.80,-1.00,-1.0,2353
3076,2138076,16964,812,1044,17015.48,25.80,-1.00,-1.0,2439
3079,2138079,16956,876,1236,17023.54,25.75,-1.00,-1.0,2367
3082,2138082,16936,836,1124,16993.83,25.89,-1.00,-1.0,2423
3085,2138085,16992,788,1216,17053.67,25.85,-1.00,-1.0,2367
3087,2138087,16948,896,1168,17011.81,25.71,-1.00,-1.0,2434
3090,2138090,16948,872,1124,17007.60,25.75,-1.00,-1.0,2369
3093,2138093,16964,844,1220,17028.74,25.71,-1.00,-1.0,2432
3095,2138095,16852,864,1224,16918.47,25.75,-1.00,-1.0,2367
3098,2138098,16956,832,1156,17015.71,25.80,-1.00,-1.0,2359
3103,2138103,16924,824,1348,16997.58,25.80,-1.00,-1.0,2439
3106,2138106,17036,880,1176,17099.20,25.89,-1.00,-1.0,2366
3109,2138109,16956,800,1072,17008.68,25.80,-1.00,-1.0,2436
3112,2138112,17028,864,1136,17087.71,25.80,-1.00,-1.0,2366
3114,2138114,17016,884,1096,17074.16,25.80,-1.00,-1.0,2435
3117,2138117,17012,844,1140,17071.03,25.80,-1.00,-1.0,2367
3120,2138120,16896,800,1124,16952.23,25.80,-1.00,-1.0,2432
3123,2138123,17048,732,1200,17105.85,25.80,-1.00,-1.0,2366
3128,2138128,16952,844,1160,17012.59,25.75,-1.00,-1.0,2443
3130,2138130,17084,864,1276,17153.36,25.75,-1.00,-1.0,2377
3133,2138133,16992,880,1228,17059.03,25.80,-1.00,-1.0,2445
3136,2138136,16960,796,1296,17028.06,25.85,-1.00,-1.0,2353
3138,2138138,17072,924,1160,17136.29,25.71,-1.00,-1.0,2346
3141,2138141,17068,848,1072,17122.64,25.80,-1.00,-1.0,2434
3144,2138144,17008,936,1072,17067.44,25.75,-1.00,-1.0,2354
3147,2138147,17012,824,1156,17071.13,25.89,-1.00,-1.0,2440
3149,2138149,17064,844,1244,17130.09,25.85,-1.00,-1.0,2370
3154,2138154,17016,892,1276,17087.07,25.71,-1.00,-1.0,2442
3157,2138157,16996,924,1180,17061.95,25.75,-1.00,-1.0,2381
3160,2138160,16992,836,1116,17049.12,25.71,-1.00,-1.0,2437
3162,2138162,16940,860,1128,16999.28,25.75,-1.00,-1.0,2365
3165,2138165,16924,832,1296,16993.93,25.80,-1.00,-1.0,2438
3168,2138168,17012,908,1156,17075.39,25.75,-1.00,-1.0,2381
3171,2138171,16964,892,1124,17024.58,25.80,-1.00,-1.0,2435
3173,2138173,17060,896,1128,17120.71,25.85,-1.00,-1.0,2371
3176,2138176,16976,924,1140,17039.31,25.75,-1.00,-1.0,2362
3181,2138181,17008,972,1140,17073.85,25.80,-1.00,-1.0,2439
3184,2138184,16968,980,1108,17032.35,25.80,-1.00,-1.0,2369
3187,2138187,17024,760,1232,17085.43,25.80,-1.00,-1.0,2437
3190,2138190,17020,844,1224,17084.81,25.80,-1.00,-1.0,2367
3192,2138192,16888,840,1200,16951.41,25.80,-1.00,-1.0,2435
3195,2138195,17012,888,1132,17072.73,25.80,-1.00,-1.0,2369
3198,2138198,17028,872,1224,17094.19,25.80,-1.00,-1.0,2433
3201,2138201,16920,840,1112,16977.29,25.80,-1.00,-1.0,2368
3206,2138206,16932,964,968,16987.02,25.80,-1.00,-1.0,2445
3208,2138208,16880,832,1312,16951.34,25.85,-1.00,-1.0,2369
3211,2138211,16980,884,1292,17052.01,25.71,-1.00,-1.0,2445
3214,2138214,17036,828,1240,17101.12,25.80,-1.00,-1.0,2373
3216,2138216,16928,788,1216,16989.90,25.75,-1.00,-1.0,2412
3219,2138219,17040,860,1012,17091.67,25.80,-1.00,-1.0,2445
3222,2138222,17004,824,1144,17062.35,25.80,-1.00,-1.0,2354
3225,2138225,16996,892,1184,17060.53,25.89,-1.00,-1.0,2432
3228,2138228,16960,916,1212,17027.91,25.80,-1.00,-1.0,2366
3233,2138233,16988,820,1244,17053.21,25.71,-1.00,-1.0,2440
3235,2138235,16932,836,988,16981.39,25.80,-1.00,-1.0,2375
3238,2138238,16972,832,1068,17025.91,25.80,-1.00,-1.0,2443
3241,2138241,16944,916,1288,17017.55,25.80,-1.00,-1.0,2370
3244,2138244,17044,868,1140,17104.12,25.89,-1.00,-1.0,2443
3246,2138246,16984,812,1188,17044.85,25.80,-1.00,-1.0,2376
3249,2138249,16996,820,1188,17057.19,25.80,-1.00,-1.0,2433
3252,2138252,16988,852,1124,17046.45,25.80,-1.00,-1.0,2354
3255,2138255,16940,884,1168,17003.21,25.75,-1.00,-1.0,2359
3260,2138260,17064,784,1304,17131.70,25.89,-1.00,-1.0,2441
3262,2138262,17008,824,1184,17069.06,25.71,-1.00,-1.0,2376
3265,2138265,17052,960,1140,17117.01,25.75,-1.00,-1.0,2436
3268,2138268,17040,792,1156,17097.52,25.80,-1.00,-1.0,2367
3271,2138271,16984,876,1244,17052.01,25.85,-1.00,-1.0,2433
3273,2138273,16972,844,1244,17038.45,25.80,-1.00,-1.0,2377
3276,2138276,16972,808,1072,17025.01,25.75,-1.00,-1.0,2433
3279,2138279,17004,884,1224,17070.90,25.71,-1.00,-1.0,2369
3284,2138284,17004,840,1136,17062.59,25.80,-1.00,-1.0,2447
3286,2138286,17088,876,1024,17141.05,25.71,-1.00,-1.0,2367
3289,2138289,16944,860,1192,17007.63,25.89,-1.00,-1.0,2448
3292,2138292,17052,804,1160,17110.31,25.71,-1.00,-1.0,2373
3295,2138295,16936,892,1184,17000.75,25.75,-1.00,-1.0,2361
3297,2138297,17016,948,1104,17078.11,25.85,-1.00,-1.0,2435
3300,2138300,16896,760,1128,16950.66,25.75,-1.00,-1.0,2371
3303,2138303,17020,888,1140,17081.23,25.85,-1.00,-1.0,2432
3306,2138306,16936,876,1092,16993.76,25.85,-1.00,-1.0,2367
3311,2138311,17032,744,1268,17095.33,25.75,-1.00,-1.0,2438
3313,2138313,16912,820,1168,16972.11,25.75,-1.00,-1.0,2369
3316,2138316,17028,872,1240,17095.34,25.75,-1.00,-1.0,2437
3319,2138319,17028,920,1240,17097.86,25.85,-1.00,-1.0,2369
3322,2138322,16960,880,1224,17026.87,25.85,-1.00,-1.0,2439
3324,2138324,17088,760,1092,17139.71,25.85,-1.00,-1.0,2370
3327,2138327,17016,744,1212,17075.33,25.71,-1.00,-1.0,2359
3330,2138330,17056,916,1156,17119.65,25.80,-1.00,-1.0,2439
3333,2138333,16972,724,1288,17036.19,25.80,-1.00,-1.0,2375
3338,2138338,16944,852,1364,17020.15,25.80,-1.00,-1.0,2446
3340,2138340,16956,876,1296,17028.00,25.75,-1.00,-1.0,2367
3343,2138343,16972,844,1108,17029.06,25.80,-1.00,-1.0,2439
3346,2138346,17036,896,1104,17095.23,25.75,-1.00,-1.0,2367
3349,2138349,17120,824,1248,17185.19,25.80,-1.00,-1.0,2441
3351,2138351,17008,852,1216,17072.69,25.80,-1.00,-1.0,2367
3354,2138354,17104,820,1232,17167.91,25.89,-1.00,-1.0,2433
3357,2138357,16992,948,1068,17051.90,25.75,-1.00,-1.0,2366
3362,2138362,16940,852,1244,17006.97,25.80,-1.00,-1.0,2453
3365,2138365,17140,856,1176,17201.61,25.80,-1.00,-1.0,2371
3368,2138368,16976,880,1224,17042.80,25.75,-1.00,-1.0,2368
3371,2138371,16956,824,1148,17014.78,25.85,-1.00,-1.0,2443
3373,2138373,17152,936,1292,17226.04,25.75,-1.00,-1.0,2375
3376,2138376,17060,856,1116,17117.88,25.85,-1.00,-1.0,2438
3379,2138379,17028,860,1096,17084.89,25.75,-1.00,-1.0,2371
3382,2138382,17000,760,1204,17059.52,25.85,-1.00,-1.0,2442
3384,2138384,17012,836,1124,17069.58,25.75,-1.00,-1.0,2379
3389,2138389,16936,952,1252,17008.88,25.80,-1.00,-1.0,2440
3392,2138392,17004,864,1288,17074.59,25.71,-1.00,-1.0,2368
3395,2138395,17040,968,1216,17110.74,25.80,-1.00,-1.0,2441
3397,2138397,17000,848,1176,17061.71,25.80,-1.00,-1.0,2369
3400,2138400,17040,828,1136,17097.88,25.89,-1.00,-1.0,2432
3403,2138403,16956,868,1176,17018.88,25.71,-1.00,-1.0,2368
3405,2138405,17020,920,1184,17085.92,25.71,-1.00,-1.0,2359
3408,2138408,16884,832,1208,16947.59,25.80,-1.00,-1.0,2435
3411,2138411,17028,760,1188,17086.30,25.80,-1.00,-1.0,2369
3416,2138416,16916,824,1244,16981.68,25.80,-1.00,-1.0,2437
3419,2138419,17020,948,1236,17091.13,25.85,-1.00,-1.0,2369
3422,2138422,16976,896,1096,17034.92,25.71,-1.00,-1.0,2429
3424,2138424,17012,848,936,17058.82,25.85,-1.00,-1.0,2376
3427,2138427,16952,892,1036,17007.04,25.80,-1.00,-1.0,2432
3430,2138430,17016,944,1252,17088.09,25.75,-1.00,-1.0,2369
3433,2138433,16888,812,1156,16946.98,25.80,-1.00,-1.0,2441
3435,2138435,16948,836,1072,17002.44,25.85,-1.00,-1.0,2377
3440,2138440,16900,900,1312,16974.73,25.75,-1.00,-1.0,2441
3443,2138443,16992,688,1260,17052.54,25.75,-1.00,-1.0,2367
3445,2138445,17000,868,1072,17055.87,25.85,-1.00,-1.0,2364
3448,2138448,17028,792,1216,17089.72,25.71,-1.00,-1.0,2438
3451,2138451,16948,900,1140,17010.12,25.85,-1.00,-1.0,2384
3454,2138454,17088,928,1176,17153.54,25.80,-1.00,-1.0,2433
3456,2138456,17008,868,1128,17067.45,25.85,-1.00,-1.0,2373
3459,2138459,17012,872,1176,17074.88,25.80,-1.00,-1.0,2437
3462,2138462,17044,804,1016,17093.17,25.80,-1.00,-1.0,2384
3467,2138467,16972,800,1036,17022.40,25.85,-1.00,-1.0,2437
3470,2138470,17000,896,1160,17063.07,25.85,-1.00,-1.0,2374
3472,2138472,16924,852,1052,16978.06,25.75,-1.00,-1.0,2441
3475,2138475,16972,812,1216,17034.87,25.85,-1.00,-1.0,2369
3478,2138478,16992,736,1204,17050.49,25.80,-1.00,-1.0,2446
3481,2138481,17028,944,1176,17094.64,25.66,-1.00,-1.0,2376
3483,2138483,17008,836,1220,17072.18,25.89,-1.00,-1.0,2369
3486,2138486,16968,892,1200,17033.75,25.71,-1.00,-1.0,2431
3489,2138489,17036,896,1192,17101.14,25.80,-1.00,-1.0,2372
3494,2138494,16960,872,1216,17025.88,25.80,-1.00,-1.0,2444
3496,2138496,17036,888,1168,17099.07,25.80,-1.00,-1.0,2376
3499,2138499,16972,852,1208,17036.25,25.80,-1.00,-1.0,2423
3502,2138502,16936,892,1252,17005.62,25.80,-1.00,-1.0,2383
3505,2138505,17016,832,1272,17083.75,25.75,-1.00,-1.0,2456
3508,2138508,16920,888,1172,16983.77,25.85,-1.00,-1.0,2367
3510,2138510,16952,880,1064,17008.14,25.89,-1.00,-1.0,2437
3513,2138513,16980,888,1240,17048.36,25.75,-1.00,-1.0,2366
3518,2138518,16976,836,1032,17027.88,25.80,-1.00,-1.0,2429
3521,2138521,17028,796,1328,17098.24,25.75,-1.00,-1.0,2415
3524,2138524,16948,776,1220,17009.56,25.80,-1.00,-1.0,2362
3526,2138526,16988,896,1140,17049.77,25.85,-1.00,-1.0,2436
3529,2138529,16936,964,1184,17004.68,25.80,-1.00,-1.0,2373
3532,2138532,16996,844,1152,17055.89,25.85,-1.00,-1.0,2431
3535,2138535,16960,892,1080,17017.75,25.66,-1.00,-1.0,2372
3537,2138537,16976,904,1096,17035.35,25.75,-1.00,-1.0,2430
3540,2138540,16984,768,1104,17037.16,25.80,-1.00,-1.0,2372
3545,2138545,17000,852,1200,17063.58,25.80,-1.00,-1.0,2443
3548,2138548,16980,792,1116,17035.05,25.80,-1.00,-1.0,2369
3551,2138551,17008,868,1344,17083.09,25.94,-1.00,-1.0,2448
3553,2138553,17024,848,1232,17089.57,25.71,-1.00,-1.0,2375
3556,2138556,16980,848,1124,17038.28,25.80,-1.00,-1.0,2434
3559,2138559,17040,820,1136,17097.50,25.80,-1.00,-1.0,2354
3561,2138561,16988,904,1288,17060.72,25.85,-1.00,-1.0,2347
3564,2138564,16888,920,1160,16952.77,25.85,-1.00,-1.0,2433
3567,2138567,17036,892,1184,17100.38,25.85,-1.00,-1.0,2367
3572,2138572,16968,844,1120,17025.86,25.85,-1.00,-1.0,2465
3575,2138575,17000,932,1304,17075.39,25.85,-1.00,-1.0,2367
3577,2138577,16940,920,1236,17009.93,25.75,-1.00,-1.0,2440
3580,2138580,16992,908,1136,17054.12,25.85,-1.00,-1.0,2366
3583,2138583,17004,892,1172,17067.67,25.85,-1.00,-1.0,2437
3586,2138586,17056,960,1272,17130.29,25.75,-1.00,-1.0,2365
3588,2138588,17016,868,992,17066.98,25.66,-1.00,-1.0,2438
3591,2138591,17004,728,1156,17058.79,25.80,-1.00,-1.0,2366
3596,2138596,16992,812,1008,17041.23,25.80,-1.00,-1.0,2450
3599,2138599,17028,860,1148,17088.31,25.85,-1.00,-1.0,2364
3601,2138601,16920,868,1184,16983.57,25.80,-1.00,-1.0,2362
3604,2138604,16940,800,1148,16997.69,25.80,-1.00,-1.0,2454
3607,2138607,16936,880,1068,16992.44,25.71,-1.00,-1.0,2368
3609,2138609,16976,844,1252,17043.02,25.80,-1.00,-1.0,2438
3612,2138612,17032,852,1108,17089.25,25.80,-1.00,-1.0,2367
3615,2138615,16976,868,1020,17028.75,25.80,-1.00,-1.0,2453
3618,2138618,16928,860,1200,16992.26,25.71,-1.00,-1.0,2366
3623,2138623,16956,860,1272,17025.38,25.89,-1.00,-1.0,2445
3626,2138626,17084,864,1076,17139.64,25.80,-1.00,-1.0,2365
3628,2138628,16996,864,1240,17063.06,25.80,-1.00,-1.0,2438
3631,2138631,16996,852,1200,17059.60,25.89,-1.00,-1.0,2365
3634,2138634,17028,828,1092,17083.06,25.89,-1.00,-1.0,2370
3636,2138636,17072,984,1168,17140.18,25.75,-1.00,-1.0,2449
3639,2138639,16972,808,1052,17023.76,25.80,-1.00,-1.0,2368
3642,2138642,17084,892,1284,17155.39,25.75,-1.00,-1.0,2447
3645,2138645,17004,800,1104,17058.57,25.80,-1.00,-1.0,2370
3650,2138650,16972,832,1240,17037.56,25.80,-1.00,-1.0,2446
3653,2138653,16948,920,1148,17011.73,25.80,-1.00,-1.0,2373
3655,2138655,16960,896,1172,17024.04,25.75,-1.00,-1.0,2437
3658,2138658,16988,800,1128,17044.19,25.80,-1.00,-1.0,2365
3661,2138661,17008,728,1196,17065.54,25.80,-1.00,-1.0,2438
3664,2138664,16936,984,1296,17013.99,25.80,-1.00,-1.0,2372
3666,2138666,17104,924,1072,17162.45,25.85,-1.00,-1.0,2438
3669,2138669,16984,732,1276,17047.59,25.80,-1.00,-1.0,2365
3672,2138672,16980,884,1048,17035.26,25.85,-1.00,-1.0,2377
3677,2138677,16992,808,1264,17058.10,25.75,-1.00,-1.0,2462
3680,2138680,16924,816,1236,16988.68,25.85,-1.00,-1.0,2372
3683,2138683,17140,724,1228,17199.18,25.75,-1.00,-1.0,2447
3685,2138685,16920,856,1092,16976.80,25.85,-1.00,-1.0,2369
3688,2138688,17004,828,1128,17061.48,25.85,-1.00,-1.0,2446
3691,2138691,16888,828,1120,16945.34,25.75,-1.00,-1.0,2372
3694,2138694,16968,800,1224,17030.89,25.75,-1.00,-1.0,2447
3696,2138696,16924,920,1112,16985.43,25.85,-1.00,-1.0,2369
3701,2138701,16904,852,1104,16961.43,25.85,-1.00,-1.0,2446
3704,2138704,17036,856,1148,17096.08,25.80,-1.00,-1.0,2366
3707,2138707,16988,756,1060,17037.82,25.85,-1.00,-1.0,2444
3709,2138709,16960,824,1180,17020.96,25.75,-1.00,-1.0,2365
3712,2138712,16936,864,1160,16997.65,25.85,-1.00,-1.0,2376
3715,2138715,16912,848,1168,16973.48,25.80,-1.00,-1.0,2439
3717,2138717,17056,836,1232,17120.86,25.94,-1.00,-1.0,2372
3720,2138720,16964,832,1136,17022.34,25.80,-1.00,-1.0,2447
3723,2138723,16980,876,1160,17042.11,25.80,-1.00,-1.0,2367
3728,2138728,16988,924,1288,17061.79,25.80,-1.00,-1.0,2456
3731,2138731,16908,980,1260,16983.18,25.75,-1.00,-1.0,2360
3734,2138734,17000,796,1208,17061.44,25.80,-1.00,-1.0,2447
3736,2138736,16964,832,1268,17031.66,25.85,-1.00,-1.0,2373
3739,2138739,17000,892,1176,17063.96,25.80,-1.00,-1.0,2446
3742,2138742,16996,836,1104,17052.32,25.85,-1.00,-1.0,2369
3745,2138745,17000,816,1296,17068.85,25.80,-1.00,-1.0,2447
3747,2138747,17064,776,1228,17125.72,25.80,-1.00,-1.0,2374
3750,2138750,16936,792,1088,16989.38,25.80,-1.00,-1.0,2360
3755,2138755,16920,856,1072,16975.52,25.80,-1.00,-1.0,2455
3758,2138758,16984,832,1140,17042.54,25.80,-1.00,-1.0,2367
3761,2138761,17040,856,1092,17096.40,25.71,-1.00,-1.0,2445
3763,2138763,16996,936,1112,17058.04,25.71,-1.00,-1.0,2375
3766,2138766,16992,832,1144,17050.78,25.80,-1.00,-1.0,2439
3769,2138769,16956,872,1196,17020.48,25.80,-1.00,-1.0,2366
3772,2138772,16964,908,1156,17027.57,25.71,-1.00,-1.0,2447
3774,2138774,16984,860,1188,17047.21,25.80,-1.00,-1.0,2373
3779,2138779,16908,848,1124,16966.52,25.66,-1.00,-1.0,2446
3782,2138782,17056,800,1156,17113.84,25.80,-1.00,-1.0,2367
3785,2138785,17028,888,1144,17089.47,25.85,-1.00,-1.0,2434
3787,2138787,16960,892,1200,17025.78,25.80,-1.00,-1.0,2367
3790,2138790,17024,792,1200,17084.61,25.80,-1.00,-1.0,2361
3793,2138793,17020,852,1236,17086.08,25.66,-1.00,-1.0,2444
3795,2138795,16992,816,1020,17042.13,25.75,-1.00,-1.0,2367
3798,2138798,16912,856,1144,16972.25,25.85,-1.00,-1.0,2438
3801,2138801,17000,740,1128,17053.45,25.85,-1.00,-1.0,2367
3806,2138806,17080,796,1120,17135.18,25.89,-1.00,-1.0,2446
3809,2138809,17028,816,1252,17093.45,25.85,-1.00,-1.0,2363
3811,2138811,17000,880,1140,17060.89,25.89,-1.00,-1.0,2437
3814,2138814,17040,792,992,17087.21,25.75,-1.00,-1.0,2366
3817,2138817,16992,860,1232,17058.30,25.80,-1.00,-1.0,2439
3820,2138820,16924,860,1096,16981.24,25.75,-1.00,-1.0,2372
3822,2138822,16924,836,1064,16978.01,25.80,-1.00,-1.0,2437
3825,2138825,16976,832,1284,17044.81,25.85,-1.00,-1.0,2365
3828,2138828,16940,908,1220,17008.13,25.85,-1.00,-1.0,2361
3833,2138833,16904,848,1288,16974.19,25.75,-1.00,-1.0,2449
3836,2138836,17072,860,1160,17132.96,25.71,-1.00,-1.0,2353
3839,2138839,17004,828,1308,17074.32,25.80,-1.00,-1.0,2441
3841,2138841,16936,960,1208,17006.14,25.80,-1.00,-1.0,2368
3844,2138844,16832,808,1116,16888.30,25.75,-1.00,-1.0,2441
3847,2138847,16904,780,988,16950.80,25.80,-1.00,-1.0,2373
3850,2138850,17028,924,1204,17095.50,25.71,-1.00,-1.0,2438
3852,2138852,16992,908,1192,17057.94,25.89,-1.00,-1.0,2368
3857,2138857,16968,844,1264,17035.93,25.80,-1.00,-1.0,2446
3860,2138860,16976,848,1140,17035.35,25.80,-1.00,-1.0,2367
3863,2138863,17024,844,1248,17090.54,25.80,-1.00,-1.0,2453
3866,2138866,17000,792,1008,17048.27,25.80,-1.00,-1.0,2360
3868,2138868,17028,892,1132,17088.88,25.71,-1.00,-1.0,2369
3871,2138871,16984,932,1240,17054.69,25.75,-1.00,-1.0,2445
3874,2138874,16996,852,1256,17063.63,25.80,-1.00,-1.0,2370
3877,2138877,17068,816,1176,17127.91,25.94,-1.00,-1.0,2446
3879,2138879,17012,828,1272,17079.57,25.75,-1.00,-1.0,2373
3884,2138884,16972,832,1272,17039.92,25.80,-1.00,-1.0,2446
3887,2138887,17008,872,1216,17073.70,25.80,-1.00,-1.0,2366
3890,2138890,17028,832,1176,17088.83,25.80,-1.00,-1.0,2444
3892,2138892,17108,788,988,17154.61,25.80,-1.00,-1.0,2365
3895,2138895,16972,872,1236,17039.27,25.85,-1.00,-1.0,2453
3898,2138898,16912,804,1156,16970.52,25.80,-1.00,-1.0,2365
3900,2138900,16992,824,1204,17054.52,25.85,-1.00,-1.0,2365
3903,2138903,16956,776,1064,17007.06,25.85,-1.00,-1.0,2439
3906,2138906,16968,804,1164,17026.87,25.85,-1.00,-1.0,2367
3911,2138911,16912,856,1156,16973.06,25.80,-1.00,-1.0,2449
3914,2138914,16916,884,1300,16988.89,25.80,-1.00,-1.0,2365
3917,2138917,16864,872,1196,16928.83,25.71,-1.00,-1.0,2446
3919,2138919,16984,900,1244,17053.26,25.80,-1.00,-1.0,2366
3922,2138922,17044,844,1224,17108.72,25.85,-1.00,-1.0,2444
3925,2138925,16964,748,1384,17036.79,25.80,-1.00,-1.0,2365
3928,2138928,16996,784,1200,17056.34,25.89,-1.00,-1.0,2445
3930,2138930,16924,852,1192,16987.30,25.80,-1.00,-1.0,2353
3935,2138935,17004,972,1164,17071.49,25.89,-1.00,-1.0,2446
3938,2138938,16940,884,1068,16996.64,25.85,-1.00,-1.0,2364
3941,2138941,16964,836,1184,17025.80,25.71,-1.00,-1.0,2361
3943,2138943,16980,756,1180,17037.73,25.80,-1.00,-1.0,2438
3946,2138946,16856,852,1008,16907.59,25.80,-1.00,-1.0,2353
3949,2138949,17024,832,1324,17095.67,25.89,-1.00,-1.0,2437
3952,2138952,16976,836,1096,17031.87,25.80,-1.00,-1.0,2366
3954,2138954,16988,880,1096,17046.05,25.89,-1.00,-1.0,2438
3957,2138957,17008,868,1228,17074.35,25.85,-1.00,-1.0,2373
3962,2138962,17024,896,1340,17100.15,25.75,-1.00,-1.0,2454
3965,2138965,17060,836,1236,17125.13,25.75,-1.00,-1.0,2371
3968,2138968,17024,844,1256,17091.12,25.75,-1.00,-1.0,2441
3970,2138970,17072,844,1204,17135.20,25.85,-1.00,-1.0,2373
3973,2138973,16912,868,1280,16982.57,25.75,-1.00,-1.0,2448
3976,2138976,16976,768,1100,17028.93,25.75,-1.00,-1.0,2372
3979,2138979,17016,928,1164,17080.99,25.80,-1.00,-1.0,2361
3981,2138981,17000,900,1168,17063.83,25.80,-1.00,-1.0,2439
3984,2138984,17048,892,1076,17105.20,25.80,-1.00,-1.0,2353
3989,2138989,16952,924,1096,17012.50,25.71,-1.00,-1.0,2433
3992,2138992,17016,904,1232,17084.47,25.71,-1.00,-1.0,2365
3995,2138995,16968,848,1296,17038.54,25.89,-1.00,-1.0,2434
3997,2138997,16972,904,1244,17041.52,25.80,-1.00,-1.0,2355
4000,2139000,17048,836,1180,17109.22,25.80,-1.00,-1.0,2439
4003,2139003,17048,840,1132,17106.18,25.80,-1.00,-1.0,2367
4006,2139006,16972,848,1176,17033.81,25.80,-1.00,-1.0,2434
4008,2139008,16920,924,1256,16991.70,25.80,-1.00,-1.0,2366
4013,2139013,17052,856,1176,17113.92,25.85,-1.00,-1.0,2449
4016,2139016,16976,880,1016,17029.13,25.80,-1.00,-1.0,2365
4018,2139018,16968,800,1260,17033.52,25.85,-1.00,-1.0,2360
4021,2139021,16948,852,1184,17010.66,25.80,-1.00,-1.0,2449
4024,2139024,17004,900,1280,17075.84,25.85,-1.00,-1.0,2374
4027,2139027,16940,828,1192,17002.06,25.89,-1.00,-1.0,2446
4029,2139029,17012,764,1084,17063.61,25.85,-1.00,-1.0,2366
4032,2139032,17028,872,1252,17096.22,25.85,-1.00,-1.0,2442
4035,2139035,16956,872,1116,17015.04,25.80,-1.00,-1.0,2366
4040,2139040,16996,872,1124,17055.43,25.80,-1.00,-1.0,2446
4043,2139043,16996,936,1276,17069.51,25.80,-1.00,-1.0,2364
4046,2139046,17028,940,1188,17095.25,25.80,-1.00,-1.0,2438
4049,2139049,16988,844,1288,17057.65,25.80,-1.00,-1.0,2367
4051,2139051,16956,892,1108,17015.56,25.89,-1.00,-1.0,2437
4054,2139054,16912,892,1056,16968.40,25.71,-1.00,-1.0,2368
4057,2139057,16980,872,1128,17039.75,25.80,-1.00,-1.0,2361
4059,2139059,17020,872,1220,17085.94,25.85,-1.00,-1.0,2439
4062,2139062,16872,872,1284,16943.24,25.85,-1.00,-1.0,2366
4067,2139067,17008,876,1096,17065.77,25.85,-1.00,-1.0,2445
4070,2139070,16964,864,1328,17037.82,25.85,-1.00,-1.0,2365
4073,2139073,16956,880,1192,17020.61,25.75,-1.00,-1.0,2438
4076,2139076,17008,856,1128,17066.84,25.80,-1.00,-1.0,2366
4078,2139078,16932,936,1260,17004.60,25.75,-1.00,-1.0,2438
4081,2139081,16900,816,1200,16962.19,25.89,-1.00,-1.0,2365
4084,2139084,17048,796,1012,17096.55,25.85,-1.00,-1.0,2425
4087,2139087,16964,912,1216,17031.96,25.80,-1.00,-1.0,2368
4092,2139092,17036,832,1084,17090.72,25.80,-1.00,-1.0,2447
4094,2139094,16976,840,1192,17038.52,25.80,-1.00,-1.0,2373
4097,2139097,16984,880,1052,17039.29,25.85,-1.00,-1.0,2361
4100,2139100,17028,900,1080,17085.94,25.85,-1.00,-1.0,2435
4102,2139102,16972,892,1120,17032.29,25.85,-1.00,-1.0,2369
4105,2139105,17004,860,1136,17063.59,25.75,-1.00,-1.0,2438
4108,2139108,16964,812,1208,17026.33,25.80,-1.00,-1.0,2367
4111,2139111,16932,788,1136,16988.35,25.80,-1.00,-1.0,2431
4113,2139113,16992,812,1200,17053.66,25.80,-1.00,-1.0,2366
4118,2139118,17048,896,1252,17117.38,25.71,-1.00,-1.0,2446
4121,2139121,17044,876,1060,17099.38,25.75,-1.00,-1.0,2365
4124,2139124,16992,848,1028,17044.18,25.89,-1.00,-1.0,2438
4127,2139127,16964,892,1188,17028.93,25.75,-1.00,-1.0,2366
4129,2139129,17016,768,1100,17068.80,25.80,-1.00,-1.0,2437
4132,2139132,16960,936,1212,17028.99,25.75,-1.00,-1.0,2351
4135,2139135,16924,872,1116,16983.16,25.80,-1.00,-1.0,2368
4138,2139138,17068,760,1100,17120.29,25.89,-1.00,-1.0,2450
4140,2139140,17036,876,1220,17102.08,25.80,-1.00,-1.0,2370
4145,2139145,17008,748,1216,17067.81,25.80,-1.00,-1.0,2445
4148,2139148,17108,784,1224,17169.64,25.80,-1.00,-1.0,2368
4151,2139151,17028,912,1248,17098.01,25.80,-1.00,-1.0,2438
4154,2139154,16972,908,1328,17048.07,25.80,-1.00,-1.0,2374
4156,2139156,16944,836,1148,17003.41,25.89,-1.00,-1.0,2438
4159,2139159,16976,952,992,17031.59,25.80,-1.00,-1.0,2365
4162,2139162,17072,852,1204,17135.60,25.80,-1.00,-1.0,2438
4165,2139165,17016,844,1076,17070.86,25.71,-1.00,-1.0,2366
4170,2139170,16960,892,1112,17019.81,25.80,-1.00,-1.0,2446
4172,2139172,16988,860,1016,17040.07,25.85,-1.00,-1.0,2365
4175,2139175,16936,796,1176,16995.43,25.80,-1.00,-1.0,2361
4178,2139178,16944,780,1100,16997.57,25.80,-1.00,-1.0,2445
4180,2139180,16876,896,1128,16937.37,25.80,-1.00,-1.0,2353
4183,2139183,17060,944,1184,17127.07,25.71,-1.00,-1.0,2440
4186,2139186,16920,764,1156,16976.64,25.80,-1.00,-1.0,2365
4189,2139189,17028,796,1172,17086.84,25.80,-1.00,-1.0,2446
4191,2139191,16936,840,1092,16991.94,25.85,-1.00,-1.0,2370
4197,2139197,16912,868,1184,16975.60,25.80,-1.00,-1.0,2446
4200,2139200,17036,776,1236,17098.40,25.75,-1.00,-1.0,2368
4203,2139203,16972,776,1160,17029.29,25.71,-1.00,-1.0,2435
4205,2139205,17036,884,1336,17111.16,25.85,-1.00,-1.0,2369
4208,2139208,16904,816,1200,16966.17,25.80,-1.00,-1.0,2439
4211,2139211,17016,912,1140,17078.51,25.75,-1.00,-1.0,2367
4213,2139213,16932,732,1228,16992.25,25.80,-1.00,-1.0,2361
4216,2139216,17028,732,1200,17085.92,25.80,-1.00,-1.0,2438
4219,2139219,16956,860,1276,17025.68,25.89,-1.00,-1.0,2353
4224,2139224,16972,812,1200,17033.73,25.85,-1.00,-1.0,2452
4226,2139226,16944,804,1140,17001.33,25.80,-1.00,-1.0,2367
4229,2139229,16996,844,1068,17050.42,25.75,-1.00,-1.0,2450
4232,2139232,16976,744,1208,17035.18,25.80,-1.00,-1.0,2367
4235,2139235,16912,852,1264,16980.56,25.85,-1.00,-1.0,2442
4237,2139237,16896,860,1112,16954.38,25.80,-1.00,-1.0,2369
4240,2139240,17016,776,1120,17070.47,25.75,-1.00,-1.0,2445
4243,2139243,17068,760,1128,17122.11,25.80,-1.00,-1.0,2368
4246,2139246,16976,856,1168,17037.65,25.80,-1.00,-1.0,2362
4251,2139251,16976,776,1264,17040.67,25.89,-1.00,-1.0,2447
4253,2139253,17044,828,1208,17106.80,25.85,-1.00,-1.0,2375
4256,2139256,16988,856,1208,17052.39,25.80,-1.00,-1.0,2438
4259,2139259,16940,828,1232,17004.91,25.75,-1.00,-1.0,2366
4262,2139262,16964,844,1236,17029.89,25.80,-1.00,-1.0,2445
4264,2139264,17028,852,1208,17092.04,25.85,-1.00,-1.0,2375
4267,2139267,17032,852,1160,17092.70,25.80,-1.00,-1.0,2437
4270,2139270,17072,832,1356,17145.97,25.75,-1.00,-1.0,2366
4275,2139275,17012,764,1108,17065.15,25.85,-1.00,-1.0,2446
4278,2139278,17080,796,1164,17138.11,25.85,-1.00,-1.0,2375
4280,2139280,16944,888,1168,17007.41,25.75,-1.00,-1.0,2436
4283,2139283,17044,828,1144,17102.40,25.85,-1.00,-1.0,2367
4286,2139286,17080,884,1224,17146.60,25.75,-1.00,-1.0,2363
4289,2139289,17012,780,1120,17066.66,25.89,-1.00,-1.0,2448
4291,2139291,17004,876,1268,17073.70,25.85,-1.00,-1.0,2373
4294,2139294,17028,812,1128,17084.63,25.80,-1.00,-1.0,2447
4297,2139297,17008,852,1164,17069.06,25.85,-1.00,-1.0,2374
4302,2139302,16940,868,1168,17002.39,25.85,-1.00,-1.0,2450
4304,2139304,16928,788,1164,16986.26,25.80,-1.00,-1.0,2355
4307,2139307,16884,896,1104,16943.76,25.85,-1.00,-1.0,2439
4310,2139310,16984,836,1316,17055.41,25.85,-1.00,-1.0,2366
4313,2139313,16996,776,1184,17054.85,25.75,-1.00,-1.0,2440
4315,2139315,17028,900,1184,17092.82,25.71,-1.00,-1.0,2367
4318,2139318,16912,792,1204,16973.29,25.85,-1.00,-1.0,2439
4321,2139321,17000,824,1160,17059.44,25.75,-1.00,-1.0,2369
4324,2139324,17000,792,1136,17056.31,25.75,-1.00,-1.0,2367
4329,2139329,17060,828,1224,17123.88,25.85,-1.00,-1.0,2447
4331,2139331,16952,920,1196,17019.02,25.80,-1.00,-1.0,2367
4334,2139334,17000,836,1120,17057.35,25.75,-1.00,-1.0,2437
4337,2139337,16932,820,1216,16995.40,25.71,-1.00,-1.0,2368
4340,2139340,17024,804,1144,17081.33,25.75,-1.00,-1.0,2435
4342,2139342,16972,772,1248,17035.32,25.89,-1.00,-1.0,2370
4345,2139345,16932,836,1328,17004.56,25.85,-1.00,-1.0,2438
4348,2139348,16948,932,1180,17014.57,25.89,-1.00,-1.0,2368
4353,2139353,17040,912,1064,17097.53,25.80,-1.00,-1.0,2453
4355,2139355,16948,828,1212,17011.44,25.80,-1.00,-1.0,2373
4358,2139358,17120,864,1056,17174.28,25.80,-1.00,-1.0,2445
4361,2139361,16960,784,1204,17020.75,25.71,-1.00,-1.0,2373
4364,2139364,17020,848,1284,17089.42,25.80,-1.00,-1.0,2362
4366,2139366,16960,880,1096,17018.14,25.80,-1.00,-1.0,2437
4369,2139369,17000,876,1224,17066.50,25.80,-1.00,-1.0,2355
4372,2139372,16976,804,1304,17044.98,25.75,-1.00,-1.0,2436
4375,2139375,17016,832,1252,17082.27,25.80,-1.00,-1.0,2375
4380,2139380,16980,864,1236,17046.84,25.85,-1.00,-1.0,2454
4382,2139382,16988,780,1248,17051.63,25.75,-1.00,-1.0,2367
4385,2139385,16984,916,1196,17050.68,25.71,-1.00,-1.0,2438
4388,2139388,17008,832,1100,17063.83,25.75,-1.00,-1.0,2367
4391,2139391,17040,936,1120,17102.40,25.80,-1.00,-1.0,2445
4393,2139393,16940,896,1212,17006.92,25.75,-1.00,-1.0,2367
4396,2139396,17104,896,1172,17167.50,25.80,-1.00,-1.0,2439
4399,2139399,16948,776,1164,17005.64,25.85,-1.00,-1.0,2370
4402,2139402,16980,900,1236,17048.70,25.89,-1.00,-1.0,2368
4407,2139407,17092,832,1164,17151.78,25.85,-1.00,-1.0,2451
4409,2139409,16952,768,1192,17011.20,25.80,-1.00,-1.0,2376
4412,2139412,16964,884,1248,17032.80,25.75,-1.00,-1.0,2445
4415,2139415,16960,820,1232,17024.45,25.80,-1.00,-1.0,2369
4418,2139418,16940,924,1188,17006.73,25.75,-1.00,-1.0,2450
4420,2139420,17068,836,1088,17123.06,25.80,-1.00,-1.0,2375
4423,2139423,16956,836,1140,17014.83,25.75,-1.00,-1.0,2445
4426,2139426,17016,864,1284,17086.23,25.80,-1.00,-1.0,2369
4431,2139431,16960,844,1244,17026.49,25.85,-1.00,-1.0,2446
4433,2139433,16952,856,1208,17016.53,25.80,-1.00,-1.0,2355
4436,2139436,17068,772,1096,17120.57,25.75,-1.00,-1.0,2437
4439,2139439,16980,912,1148,17043.18,25.75,-1.00,-1.0,2368
4441,2139441,16956,856,1144,17016.09,25.85,-1.00,-1.0,2361
4444,2139444,17092,836,1124,17149.31,25.80,-1.00,-1.0,2437
4447,2139447,16936,908,1072,16994.17,25.75,-1.00,-1.0,2367
4450,2139450,16992,892,1260,17061.98,25.85,-1.00,-1.0,2436
4453,2139453,17040,864,1092,17096.80,25.85,-1.00,-1.0,2352
4458,2139458,17044,904,1136,17105.72,25.85,-1.00,-1.0,2453
4460,2139460,16972,880,976,17022.80,25.80,-1.00,-1.0,2368
4463,2139463,16988,888,1236,17056.04,25.80,-1.00,-1.0,2448
4466,2139466,16928,796,1172,16987.18,25.80,-1.00,-1.0,2375
4469,2139469,17012,836,1244,17077.90,25.75,-1.00,-1.0,2445
4471,2139471,16928,972,1184,16997.17,25.80,-1.00,-1.0,2367
4474,2139474,16996,832,1144,17054.76,25.75,-1.00,-1.0,2448
4477,2139477,17032,784,1288,17098.62,25.80,-1.00,-1.0,2374
4480,2139480,17020,780,1128,17075.16,25.75,-1.00,-1.0,2363
4485,2139485,16936,848,1048,16989.57,25.85,-1.00,-1.0,2450
4487,2139487,17000,824,1296,17069.23,25.75,-1.00,-1.0,2374
4490,2139490,17004,792,1280,17070.49,25.75,-1.00,-1.0,2440
4493,2139493,17060,860,1228,17125.75,25.85,-1.00,-1.0,2382
4496,2139496,17064,932,1180,17130.12,25.75,-1.00,-1.0,2438
4498,2139498,16972,908,1188,17037.74,25.75,-1.00,-1.0,2372
4501,2139501,16956,860,1204,17020.43,25.75,-1.00,-1.0,2445
4504,2139504,17044,844,1228,17109.01,25.85,-1.00,-1.0,2382
4509,2139509,16940,868,1208,17005.18,25.75,-1.00,-1.0,2446
4512,2139512,16864,884,1224,16931.45,25.75,-1.00,-1.0,2363
4514,2139514,17036,872,1088,17092.96,25.75,-1.00,-1.0,2436
4517,2139517,16952,804,1216,17014.56,25.89,-1.00,-1.0,2368
4520,2139520,17060,752,956,17103.30,25.85,-1.00,-1.0,2364
4523,2139523,17024,824,1136,17081.75,25.85,-1.00,-1.0,2451
4525,2139525,16960,768,1104,17013.24,25.75,-1.00,-1.0,2377
4528,2139528,17000,804,1148,17057.68,25.71,-1.00,-1.0,2445
4531,2139531,16960,840,1192,17022.57,25.80,-1.00,-1.0,2368
4536,2139536,16968,860,1192,17031.54,25.80,-1.00,-1.0,2446
4539,2139539,17004,792,1288,17071.09,25.80,-1.00,-1.0,2367
4541,2139541,16952,836,1212,17015.82,25.80,-1.00,-1.0,2436
4544,2139544,17004,796,1152,17061.56,25.80,-1.00,-1.0,2367
4547,2139547,16972,828,1220,17035.93,25.80,-1.00,-1.0,2437
4550,2139550,17064,860,1056,17118.26,25.80,-1.00,-1.0,2367
4552,2139552,17020,816,1196,17081.47,25.71,-1.00,-1.0,2348
4555,2139555,16980,824,1092,17035.02,25.75,-1.00,-1.0,2436
4558,2139558,16848,924,1064,16906.83,25.71,-1.00,-1.0,2366
4563,2139563,16912,948,1200,16981.00,25.80,-1.00,-1.0,2433
4566,2139566,16964,892,1048,17019.73,25.80,-1.00,-1.0,2365
4568,2139568,16896,972,1328,16975.96,25.80,-1.00,-1.0,2438
4571,2139571,16924,812,1224,16987.62,25.89,-1.00,-1.0,2366
4574,2139574,17028,860,1164,17089.39,25.80,-1.00,-1.0,2424
4577,2139577,16984,912,1164,17048.25,25.80,-1.00,-1.0,2367
4579,2139579,16932,844,1232,16997.73,25.80,-1.00,-1.0,2439
4582,2139582,16944,872,1160,17006.03,25.80,-1.00,-1.0,2369
4587,2139587,17020,832,1284,17088.63,25.80,-1.00,-1.0,2459
4590,2139590,17100,896,1356,17177.06,25.85,-1.00,-1.0,2368
4592,2139592,17024,876,1184,17087.59,25.71,-1.00,-1.0,2364
4595,2139595,17016,860,1136,17075.55,25.80,-1.00,-1.0,2438
4598,2139598,17064,768,1140,17119.27,25.80,-1.00,-1.0,2367
4601,2139601,17044,916,1124,17105.56,25.89,-1.00,-1.0,2430
4603,2139603,16996,844,1108,17052.98,25.80,-1.00,-1.0,2373
4606,2139606,17024,856,1012,17075.52,25.80,-1.00,-1.0,2438
4609,2139609,16896,784,1212,16957.55,25.75,-1.00,-1.0,2366
4614,2139614,17044,864,1184,17106.91,25.80,-1.00,-1.0,2453
4616,2139616,17048,844,1144,17107.17,25.80,-1.00,-1.0,2371
4619,2139619,16932,944,1280,17006.53,25.80,-1.00,-1.0,2447
4622,2139622,16936,824,1128,16993.51,25.80,-1.00,-1.0,2373
4625,2139625,17052,780,1128,17107.06,25.80,-1.00,-1.0,2427
4627,2139627,16936,752,1196,16994.82,25.75,-1.00,-1.0,2365
4630,2139630,17028,908,1136,17089.99,25.80,-1.00,-1.0,2363
4633,2139633,16956,760,1216,17016.53,25.80,-1.00,-1.0,2447
4636,2139636,17024,848,1072,17078.78,25.80,-1.00,-1.0,2373
4641,2139641,17036,940,1200,17104.06,25.80,-1.00,-1.0,2447
4643,2139643,17076,772,1152,17132.22,25.71,-1.00,-1.0,2362
4646,2139646,16928,792,1196,16988.67,25.85,-1.00,-1.0,2441
4649,2139649,17060,868,1076,17115.92,25.80,-1.00,-1.0,2374
4652,2139652,16968,876,1076,17024.63,25.75,-1.00,-1.0,2438
4654,2139654,16936,756,1120,16989.82,25.80,-1.00,-1.0,2369
4657,2139657,17004,928,1268,17076.45,25.85,-1.00,-1.0,2441
4660,2139660,16976,840,1124,17033.89,25.80,-1.00,-1.0,2382
4665,2139665,17064,952,1356,17144.24,25.80,-1.00,-1.0,2460
4668,2139668,17040,892,1192,17104.92,25.80,-1.00,-1.0,2373
4670,2139670,16964,936,1112,17026.15,25.85,-1.00,-1.0,2363
4673,2139673,17020,876,1132,17080.08,25.85,-1.00,-1.0,2438
4676,2139676,16916,864,1312,16988.79,25.75,-1.00,-1.0,2366
4679,2139679,16936,936,1284,17010.38,25.75,-1.00,-1.0,2430
4681,2139681,16968,784,1176,17026.76,25.85,-1.00,-1.0,2420
4684,2139684,16988,796,1160,17046.15,25.75,-1.00,-1.0,2445
4687,2139687,16996,828,1148,17054.84,25.89,-1.00,-1.0,2381
4692,2139692,16948,860,1088,17004.65,25.71,-1.00,-1.0,2446
4695,2139695,17024,844,1172,17085.15,25.80,-1.00,-1.0,2368
4698,2139698,17052,800,1244,17116.02,25.80,-1.00,-1.0,2441
4700,2139700,16976,932,1160,17041.09,25.80,-1.00,-1.0,2368
4703,2139703,17068,844,1032,17119.99,25.71,-1.00,-1.0,2453
4706,2139706,16916,856,1148,16976.50,25.80,-1.00,-1.0,2367
4708,2139708,16952,840,1160,17012.39,25.71,-1.00,-1.0,2367
4711,2139711,16888,856,1216,16953.35,25.85,-1.00,-1.0,2438
4714,2139714,16984,864,1256,17052.28,25.80,-1.00,-1.0,2372
4719,2139719,16952,832,1272,17020.00,25.80,-1.00,-1.0,2457
4722,2139722,16972,924,1328,17048.93,25.89,-1.00,-1.0,2374
4725,2139725,17020,904,1124,17081.01,25.75,-1.00,-1.0,2451
4727,2139727,16912,900,1392,16993.04,25.75,-1.00,-1.0,2380
4730,2139730,16940,756,1228,17001.27,25.85,-1.00,-1.0,2442
4733,2139733,16896,932,1204,16964.46,25.75,-1.00,-1.0,2374
4736,2139736,16996,908,1220,17063.91,25.75,-1.00,-1.0,2444
4738,2139738,16960,892,1128,17020.86,25.85,-1.00,-1.0,2376
4743,2139743,17148,788,1048,17198.06,25.80,-1.00,-1.0,2445
4746,2139746,17008,832,1072,17062.05,25.89,-1.00,-1.0,2367
4748,2139748,16944,776,1216,17005.29,25.85,-1.00,-1.0,2367
4751,2139751,17048,856,1348,17122.62,25.85,-1.00,-1.0,2439
4754,2139754,17016,928,1120,17078.05,25.80,-1.00,-1.0,2383
4757,2139757,16984,896,1208,17050.46,25.85,-1.00,-1.0,2434
4759,2139759,16912,836,1200,16975.12,25.85,-1.00,-1.0,2374
4762,2139762,16940,812,1248,17005.31,25.75,-1.00,-1.0,2439
4765,2139765,16888,996,1000,16946.88,25.80,-1.00,-1.0,2369
4770,2139770,17028,868,1208,17092.85,25.71,-1.00,-1.0,2466
4773,2139773,16976,856,1204,17040.16,25.80,-1.00,-1.0,2366
4776,2139776,17056,836,1236,17121.15,25.75,-1.00,-1.0,2446
4778,2139778,16976,876,1116,17035.18,25.80,-1.00,-1.0,2365
4781,2139781,16956,864,1068,17011.56,25.85,-1.00,-1.0,2444
4784,2139784,17000,948,1240,17071.51,25.80,-1.00,-1.0,2365
4786,2139786,16936,796,1072,16988.55,25.85,-1.00,-1.0,2365
4789,2139789,17012,772,1096,17064.74,25.75,-1.00,-1.0,2446
4792,2139792,16944,812,1180,17004.44,25.71,-1.00,-1.0,2365
4797,2139797,16976,860,1152,17036.76,25.80,-1.00,-1.0,2445
4800,2139800,16888,772,1128,16943.23,25.85,-1.00,-1.0,2366
4803,2139803,16968,844,1188,17030.46,25.80,-1.00,-1.0,2438
4805,2139805,17016,900,1220,17083.40,25.71,-1.00,-1.0,2373
4808,2139808,16968,884,1188,17032.49,25.80,-1.00,-1.0,2439
4811,2139811,17008,812,1128,17064.69,25.75,-1.00,-1.0,2368
4814,2139814,17000,764,1132,17054.77,25.80,-1.00,-1.0,2432
4816,2139816,16924,816,1096,16979.07,25.85,-1.00,-1.0,2374
4821,2139821,17028,824,1068,17081.35,25.80,-1.00,-1.0,2446
4824,2139824,16972,820,1024,17022.62,25.80,-1.00,-1.0,2367
4827,2139827,16924,884,1128,16984.57,25.75,-1.00,-1.0,2424
4829,2139829,16964,912,1112,17024.85,25.85,-1.00,-1.0,2448
4832,2139832,16940,788,1248,17004.18,25.80,-1.00,-1.0,2366
4835,2139835,16976,816,1272,17043.13,25.80,-1.00,-1.0,2437
4838,2139838,16920,936,1292,16995.05,25.80,-1.00,-1.0,2365
4840,2139840,17064,840,1280,17132.54,25.85,-1.00,-1.0,2438
4843,2139843,16956,840,1328,17028.66,25.75,-1.00,-1.0,2367
4848,2139848,17032,888,1264,17101.91,25.89,-1.00,-1.0,2455
4851,2139851,16980,808,1156,17038.47,25.75,-1.00,-1.0,2372
4854,2139854,16932,876,1040,16986.51,25.80,-1.00,-1.0,2453
4856,2139856,16916,876,1192,16980.56,25.80,-1.00,-1.0,2377
4859,2139859,17028,808,1252,17093.07,25.80,-1.00,-1.0,2445
4862,2139862,16908,848,1152,16968.40,25.80,-1.00,-1.0,2368
4864,2139864,17000,848,1152,17060.08,25.80,-1.00,-1.0,2363
4867,2139867,16904,904,1272,16975.88,25.89,-1.00,-1.0,2447
4870,2139870,16924,896,1280,16995.97,25.75,-1.00,-1.0,2368
4875,2139875,17088,816,1112,17143.57,25.85,-1.00,-1.0,2445
4878,2139878,16932,744,1164,16988.26,25.80,-1.00,-1.0,2365
4881,2139881,16992,828,1188,17053.59,25.75,-1.00,-1.0,2443
4883,2139883,17036,908,1108,17096.12,25.75,-1.00,-1.0,2367
4886,2139886,16996,908,1236,17065.06,25.85,-1.00,-1.0,2437
4889,2139889,17016,812,1048,17067.57,25.89,-1.00,-1.0,2366
4892,2139892,16940,804,992,16988.06,25.85,-1.00,-1.0,2445
4894,2139894,17060,868,1104,17117.71,25.75,-1.00,-1.0,2367
4897,2139897,17008,808,1196,17069.13,25.80,-1.00,-1.0,2368
4902,2139902,16988,880,1256,17057.08,25.75,-1.00,-1.0,2444
4905,2139905,16964,836,1116,17021.21,25.85,-1.00,-1.0,2366
4908,2139908,16876,944,1068,16936.09,25.89,-1.00,-1.0,2448
4910,2139910,16948,852,1172,17009.83,25.75,-1.00,-1.0,2354
4913,2139913,17040,840,1228,17104.83,25.85,-1.00,-1.0,2438
4916,2139916,16944,812,1244,17009.00,25.75,-1.00,-1.0,2366
4919,2139919,16968,840,1184,17029.99,25.75,-1.00,-1.0,2439
4921,2139921,16944,840,1240,17010.07,25.85,-1.00,-1.0,2367
4926,2139926,16984,832,1276,17052.17,25.85,-1.00,-1.0,2442
4929,2139929,16900,960,1116,16963.99,25.80,-1.00,-1.0,2367
4932,2139932,16952,836,1164,17012.47,25.80,-1.00,-1.0,2427
4935,2139935,16976,872,1288,17047.11,25.71,-1.00,-1.0,2369
4937,2139937,16984,848,1268,17052.37,25.75,-1.00,-1.0,2349
4940,2139940,17008,852,1140,17067.44,25.75,-1.00,-1.0,2436
4943,2139943,16992,820,1232,17056.33,25.75,-1.00,-1.0,2365
4945,2139945,16892,860,1164,16953.88,25.85,-1.00,-1.0,2436
4948,2139948,16980,808,1236,17044.09,25.89,-1.00,-1.0,2373
4953,2139953,16980,800,1148,17037.56,25.89,-1.00,-1.0,2453
4956,2139956,16972,856,1236,17038.46,25.80,-1.00,-1.0,2382
4959,2139959,17020,824,1084,17074.38,25.80,-1.00,-1.0,2440
4961,2139961,16944,836,1172,17005.05,25.80,-1.00,-1.0,2374
4964,2139964,16940,820,1264,17006.87,25.75,-1.00,-1.0,2439
4967,2139967,16952,888,1268,17022.54,25.80,-1.00,-1.0,2381
4970,2139970,16936,820,1256,17002.29,25.80,-1.00,-1.0,2436
4972,2139972,16892,892,1164,16955.54,25.80,-1.00,-1.0,2373
4975,2139975,16984,804,1260,17049.64,25.75,-1.00,-1.0,2368
4980,2139980,16940,860,1016,16992.22,25.75,-1.00,-1.0,2452
4983,2139983,16960,800,1280,17027.04,25.71,-1.00,-1.0,2382
4986,2139986,16904,956,1196,16973.20,25.75,-1.00,-1.0,2440
4988,2139988,16936,852,1104,16993.32,25.85,-1.00,-1.0,2374
4991,2139991,16980,768,1200,17039.67,25.75,-1.00,-1.0,2426
4994,2139994,16912,908,1072,16970.25,25.75,-1.00,-1.0,2382
4997,2139997,16976,896,1240,17044.79,25.85,-1.00,-1.0,2439
4999,2139999,17004,900,1140,17065.92,25.85,-1.00,-1.0,2373
5004,2140004,16928,776,1104,16981.70,25.80,-1.00,-1.0,2442
5007,2140007,16920,872,1332,16994.73,25.71,-1.00,-1.0,2370
5010,2140010,16964,920,1264,17035.88,25.85,-1.00,-1.0,2455
5013,2140013,16960,892,1224,17027.49,25.80,-1.00,-1.0,2376
5015,2140015,17112,804,1128,17167.97,25.85,-1.00,-1.0,2369
5018,2140018,16928,848,1208,16992.22,25.75,-1.00,-1.0,2437
5021,2140021,17064,940,1208,17132.51,25.85,-1.00,-1.0,2367
5024,2140024,16860,828,1148,16919.31,25.75,-1.00,-1.0,2445
5026,2140026,16972,868,1172,17034.55,25.89,-1.00,-1.0,2366
5032,2140032,16972,892,1172,17035.79,25.75,-1.00,-1.0,2456
5035,2140035,16980,968,1156,17046.81,25.71,-1.00,-1.0,2376
5038,2140038,16940,912,1312,17015.19,25.85,-1.00,-1.0,2452
5040,2140040,17088,892,1328,17162.72,25.85,-1.00,-1.0,2372
5043,2140043,16932,868,1184,16995.53,25.85,-1.00,-1.0,2445
5046,2140046,16872,788,1144,16929.09,25.80,-1.00,-1.0,2359
5049,2140049,16908,920,1176,16973.80,25.75,-1.00,-1.0,2450
5051,2140051,16936,1068,1212,17012.87,25.75,-1.00,-1.0,2373
5054,2140054,17016,796,1208,17077.39,25.80,-1.00,-1.0,2363
5059,2140059,16876,784,1280,16942.62,25.71,-1.00,-1.0,2451
5061,2140061,16936,748,1184,16993.81,25.80,-1.00,-1.0,2366
5064,2140064,16988,824,1172,17048.30,25.75,-1.00,-1.0,2442
5067,2140067,17020,840,1276,17088.42,25.80,-1.00,-1.0,2364
5070,2140070,17072,920,1192,17138.27,25.71,-1.00,-1.0,2449
5072,2140072,16984,892,1128,17044.77,25.80,-1.00,-1.0,2366
5075,2140075,16984,816,1212,17046.73,25.75,-1.00,-1.0,2440
5078,2140078,16924,772,1224,16985.76,25.80,-1.00,-1.0,2365
5083,2140083,16984,900,1196,17049.83,25.80,-1.00,-1.0,2444
5086,2140086,17052,928,1268,17124.24,25.80,-1.00,-1.0,2366
5088,2140088,16964,924,1080,17023.44,25.80,-1.00,-1.0,2440
5091,2140091,16964,824,1280,17032.17,25.80,-1.00,-1.0,2365
5094,2140094,17052,880,1276,17122.30,25.80,-1.00,-1.0,2367
5096,2140096,16980,792,1136,17036.38,25.75,-1.00,-1.0,2438
5099,2140099,17028,768,1152,17084.20,25.80,-1.00,-1.0,2366
5102,2140102,17000,852,1368,17076.22,25.75,-1.00,-1.0,2437
5105,2140105,16908,760,1272,16972.80,25.71,-1.00,-1.0,2365
5110,2140110,16988,840,1120,17045.59,25.80,-1.00,-1.0,2444
5112,2140112,17016,796,1100,17070.09,25.89,-1.00,-1.0,2367
5115,2140115,16992,864,1236,17058.79,25.71,-1.00,-1.0,2441
5118,2140118,16964,836,1008,17014.47,25.80,-1.00,-1.0,2367
5121,2140121,16916,856,1224,16981.81,25.80,-1.00,-1.0,2436
5123,2140123,17036,844,1188,17098.21,25.80,-1.00,-1.0,2355
5126,2140126,17048,824,1192,17109.47,25.71,-1.00,-1.0,2438
5129,2140129,16940,840,1212,17004.06,25.80,-1.00,-1.0,2366
5131,2140131,16888,804,1180,16948.26,25.75,-1.00,-1.0,2361
5137,2140137,16972,852,1104,17029.20,25.71,-1.00,-1.0,2444
5139,2140139,16904,872,1296,16976.02,25.89,-1.00,-1.0,2365
5142,2140142,17000,792,1204,17060.97,25.75,-1.00,-1.0,2440
5145,2140145,16948,872,1148,17009.20,25.89,-1.00,-1.0,2353
5148,2140148,16988,772,1112,17041.85,25.80,-1.00,-1.0,2436
5150,2140150,16972,800,1112,17027.19,25.71,-1.00,-1.0,2355
5153,2140153,16916,848,1164,16977.19,25.80,-1.00,-1.0,2438
5156,2140156,16948,848,1152,17008.26,25.80,-1.00,-1.0,2368
5161,2140161,16940,848,1204,17003.89,25.80,-1.00,-1.0,2450
5163,2140163,17020,920,1128,17082.13,25.66,-1.00,-1.0,2366
5166,2140166,16964,900,1204,17030.47,25.80,-1.00,-1.0,2451
5169,2140169,17008,836,1264,17075.38,25.75,-1.00,-1.0,2372
5172,2140172,17048,952,1124,17111.52,25.80,-1.00,-1.0,2364
5174,2140174,16924,848,1184,16986.54,25.75,-1.00,-1.0,2439
5177,2140177,16936,912,1180,17001.54,25.80,-1.00,-1.0,2368
5180,2140180,17008,828,1132,17065.73,25.80,-1.00,-1.0,2438
5182,2140182,16920,900,1132,16981.69,25.89,-1.00,-1.0,2367
5187,2140187,17012,848,1104,17068.86,25.89,-1.00,-1.0,2444
5190,2140190,16952,724,1100,17003.07,25.75,-1.00,-1.0,2366
5193,2140193,17040,852,1284,17109.54,25.80,-1.00,-1.0,2455
5196,2140196,16976,912,1112,17036.81,25.80,-1.00,-1.0,2373
5198,2140198,17008,896,1200,17073.81,25.89,-1.00,-1.0,2453
5201,2140201,17056,832,1112,17112.45,25.71,-1.00,-1.0,2369
5204,2140204,16980,852,1076,17035.38,25.89,-1.00,-1.0,2447
5207,2140207,16988,908,1148,17050.94,25.80,-1.00,-1.0,2371
5210,2140210,16940,808,1180,17000.26,25.71,-1.00,-1.0,2362
5214,2140214,16928,824,1196,16990.19,25.89,-1.00,-1.0,2444
5217,2140217,16984,836,1260,17051.18,25.89,-1.00,-1.0,2366
5220,2140220,17020,840,1268,17087.83,25.89,-1.00,-1.0,2449
5223,2140223,17084,832,1172,17144.35,25.71,-1.00,-1.0,2372
5226,2140226,17036,772,1060,17086.39,25.80,-1.00,-1.0,2448
5228,2140228,17016,808,1200,17077.39,25.80,-1.00,-1.0,2368
5231,2140231,17024,728,1180,17080.37,25.71,-1.00,-1.0,2452
5234,2140234,16984,760,1052,17033.51,25.71,-1.00,-1.0,2370
5239,2140239,16936,860,1216,17001.36,25.80,-1.00,-1.0,2448
5241,2140241,16996,884,1096,17054.23,25.80,-1.00,-1.0,2377
5244,2140244,16924,916,1112,16985.21,25.85,-1.00,-1.0,2448
5247,2140247,17108,924,960,17159.81,25.80,-1.00,-1.0,2353
5249,2140249,17000,820,1156,17058.98,25.75,-1.00,-1.0,2349
5252,2140252,16996,836,1308,17066.74,25.85,-1.00,-1.0,2439
5255,2140255,17072,852,1188,17134.48,25.85,-1.00,-1.0,2369
5258,2140258,17028,936,1296,17102.88,25.80,-1.00,-1.0,2437
5261,2140261,16948,892,1164,17011.33,25.75,-1.00,-1.0,2365
5265,2140265,17008,888,1192,17072.83,25.80,-1.00,-1.0,2431
5268,2140268,17016,916,1164,17080.35,25.75,-1.00,-1.0,2366
5271,2140271,16932,948,1092,16993.64,25.80,-1.00,-1.0,2440
5274,2140274,16960,872,1204,17025.03,25.85,-1.00,-1.0,2365
5276,2140276,16988,840,1172,17049.09,25.71,-1.00,-1.0,2426
5279,2140279,16964,844,1228,17029.32,25.85,-1.00,-1.0,2366
5282,2140282,16940,872,1132,17000.16,25.71,-1.00,-1.0,2369
5285,2140285,17004,908,1116,17064.76,25.80,-1.00,-1.0,2445
5288,2140288,16988,828,1208,17051.01,25.80,-1.00,-1.0,2366
5293,2140293,16924,824,1200,16986.49,25.75,-1.00,-1.0,2443
5295,2140295,16956,832,1268,17023.69,25.85,-1.00,-1.0,2372
5298,2140298,16980,872,1208,17045.23,25.80,-1.00,-1.0,2441
5301,2140301,17008,704,1208,17065.37,25.75,-1.00,-1.0,2367
5304,2140304,16996,772,1092,17048.53,25.80,-1.00,-1.0,2438
5306,2140306,16920,780,1276,16985.96,25.75,-1.00,-1.0,2367
5309,2140309,17016,856,1236,17082.29,25.89,-1.00,-1.0,2438
5312,2140312,16924,880,1168,16987.07,25.75,-1.00,-1.0,2369
5317,2140317,16940,896,1156,17003.02,25.85,-1.00,-1.0,2452
5319,2140319,16936,788,1148,16993.14,25.80,-1.00,-1.0,2368
5322,2140322,17012,780,1184,17070.98,25.75,-1.00,-1.0,2364
5325,2140325,16960,800,1176,17019.54,25.80,-1.00,-1.0,2441
5328,2140328,16972,844,1168,17033.07,25.85,-1.00,-1.0,2368
5330,2140330,17020,908,1252,17090.12,25.80,-1.00,-1.0,2438
5333,2140333,17008,876,1272,17077.98,25.80,-1.00,-1.0,2419
5336,2140336,16860,820,1136,16918.11,25.75,-1.00,-1.0,2447
5339,2140339,17024,860,1192,17087.34,25.75,-1.00,-1.0,2377
5344,2140344,17004,892,1276,17075.12,25.85,-1.00,-1.0,2446
5346,2140346,16980,880,1200,17045.08,25.89,-1.00,-1.0,2367
5349,2140349,16948,1008,1152,17016.99,25.75,-1.00,-1.0,2451
5352,2140352,17060,864,1160,17121.21,25.85,-1.00,-1.0,2368
5355,2140355,16920,808,1236,16984.31,25.75,-1.00,-1.0,2445
5357,2140357,16960,844,1128,17018.41,25.80,-1.00,-1.0,2368
5360,2140360,16920,876,1188,16984.26,25.85,-1.00,-1.0,2369
5363,2140363,16948,772,1124,17002.77,25.80,-1.00,-1.0,2438
5366,2140366,16956,784,1096,17009.46,25.85,-1.00,-1.0,2379
5371,2140371,16976,900,1112,17036.17,25.94,-1.00,-1.0,2442
5373,2140373,16972,908,1200,17038.58,25.80,-1.00,-1.0,2367
5376,2140376,16996,876,1172,17058.87,25.85,-1.00,-1.0,2438
5379,2140379,16948,900,1172,17012.30,25.80,-1.00,-1.0,2369
5382,2140382,17020,820,1288,17088.35,25.85,-1.00,-1.0,2429
5384,2140384,17060,848,1256,17127.18,25.89,-1.00,-1.0,2366
5387,2140387,16984,852,1124,17042.46,25.75,-1.00,-1.0,2437
5390,2140390,16940,860,1160,17001.44,25.80,-1.00,-1.0,2368
5395,2140395,16944,832,1120,17001.35,25.89,-1.00,-1.0,2439
5398,2140398,16992,812,1232,17055.94,25.80,-1.00,-1.0,2370
5400,2140400,16964,944,1128,17027.65,25.80,-1.00,-1.0,2348
5403,2140403,16996,888,1136,17057.05,25.85,-1.00,-1.0,2438
5406,2140406,16956,912,1220,17024.28,25.80,-1.00,-1.0,2368
5408,2140408,16956,912,1160,17020.08,25.80,-1.00,-1.0,2434
5411,2140411,16924,840,1064,16978.21,25.71,-1.00,-1.0,2367
5414,2140414,16960,800,1148,17017.62,25.85,-1.00,-1.0,2438
5417,2140417,17020,804,1240,17084.04,25.89,-1.00,-1.0,2373
5422,2140422,17088,824,1120,17144.48,25.80,-1.00,-1.0,2447
5424,2140424,16964,808,1128,17020.65,25.75,-1.00,-1.0,2367
5427,2140427,16984,772,1196,17043.55,25.80,-1.00,-1.0,2449
5430,2140430,17012,816,1172,17071.84,25.75,-1.00,-1.0,2368
5433,2140433,17000,924,1200,17067.33,25.80,-1.00,-1.0,2439
5435,2140435,17108,884,1208,17173.36,25.85,-1.00,-1.0,2368
5438,2140438,16992,812,1128,17048.75,25.80,-1.00,-1.0,2368
5441,2140441,17060,952,1176,17126.96,25.80,-1.00,-1.0,2438
5444,2140444,16984,848,1220,17048.86,25.80,-1.00,-1.0,2368
5449,2140449,16984,872,1096,17041.65,25.75,-1.00,-1.0,2440
5451,2140451,16996,792,1120,17051.27,25.80,-1.00,-1.0,2370
5454,2140454,16888,804,1120,16944.18,25.75,-1.00,-1.0,2424
5457,2140457,17016,856,1356,17091.39,25.80,-1.00,-1.0,2370
5460,2140460,16996,836,1224,17060.51,25.85,-1.00,-1.0,2433
5462,2140462,16952,872,1068,17007.98,25.71,-1.00,-1.0,2375
5465,2140465,17012,820,1212,17074.82,25.85,-1.00,-1.0,2435
5468,2140468,16940,948,1152,17005.57,25.89,-1.00,-1.0,2369
5473,2140473,16992,832,1120,17049.18,25.85,-1.00,-1.0,2439
5475,2140475,17004,860,1048,17057.96,25.80,-1.00,-1.0,2367
5478,2140478,16988,852,1292,17058.35,25.85,-1.00,-1.0,2361
5481,2140481,17012,872,1128,17071.64,25.80,-1.00,-1.0,2444
5483,2140483,16928,872,1224,16994.58,25.75,-1.00,-1.0,2354
5486,2140486,17004,892,1096,17062.62,25.99,-1.00,-1.0,2438
5489,2140489,16976,864,1216,17041.41,25.75,-1.00,-1.0,2367
5492,2140492,16984,796,1212,17045.79,25.85,-1.00,-1.0,2439
5495,2140495,17008,820,1184,17068.87,25.75,-1.00,-1.0,2368
5500,2140500,17088,904,1208,17154.48,25.85,-1.00,-1.0,2440
5502,2140502,16976,948,1112,17038.77,25.80,-1.00,-1.0,2365
5505,2140505,16940,816,1248,17005.50,25.80,-1.00,-1.0,2439
5508,2140508,17024,948,1180,17091.16,25.80,-1.00,-1.0,2375
5511,2140511,17072,768,1104,17124.89,25.75,-1.00,-1.0,2436
5513,2140513,16968,848,1320,17040.38,25.80,-1.00,-1.0,2370
5516,2140516,16948,824,1260,17014.74,25.85,-1.00,-1.0,2361
5519,2140519,16968,916,1212,17035.88,25.80,-1.00,-1.0,2435
5522,2140522,16976,820,1152,17034.79,25.85,-1.00,-1.0,2422
5527,2140527,17076,880,1192,17140.16,25.89,-1.00,-1.0,2450
5530,2140530,17048,772,1156,17104.58,25.80,-1.00,-1.0,2377
5533,2140533,16964,860,1144,17024.27,25.85,-1.00,-1.0,2448
5535,2140535,16948,860,1200,17012.18,25.80,-1.00,-1.0,2370
5538,2140538,17020,840,1432,17100.78,25.75,-1.00,-1.0,2448
5541,2140541,16924,828,1184,16985.56,25.80,-1.00,-1.0,2375
5544,2140544,17040,832,1240,17105.30,25.85,-1.00,-1.0,2444
5546,2140546,16936,924,1296,17010.63,25.80,-1.00,-1.0,2372
5551,2140551,16956,872,1168,17018.54,25.80,-1.00,-1.0,2442
5554,2140554,16964,872,1144,17024.88,25.85,-1.00,-1.0,2367
5557,2140557,17020,880,1184,17083.81,25.89,-1.00,-1.0,2362
5559,2140559,16880,772,1112,16934.19,25.71,-1.00,-1.0,2436
5562,2140562,16972,868,1240,17039.36,25.80,-1.00,-1.0,2371
5565,2140565,17008,884,1172,17071.24,25.80,-1.00,-1.0,2441
5568,2140568,16988,836,1152,17047.53,25.80,-1.00,-1.0,2375
5570,2140570,17012,816,1108,17067.56,25.80,-1.00,-1.0,2435
5573,2140573,16920,892,1168,16983.71,25.80,-1.00,-1.0,2368
5578,2140578,16928,804,1180,16988.11,25.80,-1.00,-1.0,2442
5581,2140581,16916,948,1168,16982.76,25.85,-1.00,-1.0,2357
5584,2140584,16976,772,1276,17041.38,25.80,-1.00,-1.0,2442
5586,2140586,16948,836,1196,17010.70,25.85,-1.00,-1.0,2371
5589,2140589,16964,888,1160,17026.79,25.80,-1.00,-1.0,2435
5592,2140592,17052,928,1088,17111.86,25.75,-1.00,-1.0,2370
5594,2140594,16892,916,1156,16956.27,25.80,-1.00,-1.0,2361
5597,2140597,17044,864,1272,17113.22,25.80,-1.00,-1.0,2436
5600,2140600,16932,828,1224,16996.36,25.80,-1.00,-1.0,2367
5605,2140605,17000,880,1136,17060.62,25.80,-1.00,-1.0,2442
5608,2140608,16976,772,1168,17033.64,25.75,-1.00,-1.0,2423
5611,2140611,16968,916,1120,17029.58,25.80,-1.00,-1.0,2440
5613,2140613,17004,868,1192,17067.81,25.80,-1.00,-1.0,2377
5616,2140616,16976,800,1172,17035.20,25.80,-1.00,-1.0,2430
5619,2140619,16992,868,1192,17055.86,25.75,-1.00,-1.0,2373
5622,2140622,17020,792,1236,17083.19,25.80,-1.00,-1.0,2429
5624,2140624,16972,872,1112,17030.73,25.85,-1.00,-1.0,2377
5629,2140629,16916,768,1164,16973.38,25.85,-1.00,-1.0,2448
5632,2140632,17000,820,1288,17068.43,25.75,-1.00,-1.0,2373
5635,2140635,16968,812,1156,17026.71,25.80,-1.00,-1.0,2361
5637,2140637,16948,892,1124,17008.64,25.89,-1.00,-1.0,2439
5640,2140640,16984,764,1216,17044.61,25.80,-1.00,-1.0,2368
5643,2140643,17072,940,1236,17142.48,25.80,-1.00,-1.0,2421
5646,2140646,16964,872,1208,17029.30,25.85,-1.00,-1.0,2370
5648,2140648,17024,976,1088,17086.63,25.89,-1.00,-1.0,2435
5651,2140651,17120,820,1124,17176.44,25.75,-1.00,-1.0,2371
5656,2140656,17024,876,1112,17082.75,25.71,-1.00,-1.0,2438
5659,2140659,16964,884,1236,17031.92,25.80,-1.00,-1.0,2368
5661,2140661,16980,888,1236,17048.07,25.80,-1.00,-1.0,2439
5664,2140664,16952,804,1236,17016.00,25.80,-1.00,-1.0,2368
5667,2140667,16984,816,1188,17045.04,25.71,-1.00,-1.0,2435
5670,2140670,16912,824,1060,16965.21,25.80,-1.00,-1.0,2369
5672,2140672,16956,884,1100,17014.62,25.71,-1.00,-1.0,2360
5675,2140675,16956,796,1160,17014.26,25.71,-1.00,-1.0,2434
5678,2140678,17052,836,1108,17108.40,25.80,-1.00,-1.0,2376
5683,2140683,17000,784,1176,17058.65,25.80,-1.00,-1.0,2438
5686,2140686,17008,756,1164,17064.54,25.71,-1.00,-1.0,2370
5688,2140688,16960,924,1136,17023.10,25.80,-1.00,-1.0,2439
5691,2140691,17100,852,1232,17165.48,25.80,-1.00,-1.0,2369
5694,2140694,17084,744,1204,17142.53,25.71,-1.00,-1.0,2434
5697,2140697,17000,816,1068,17053.05,25.80,-1.00,-1.0,2370
5699,2140699,16972,856,1168,17033.66,25.80,-1.00,-1.0,2436
5702,2140702,16964,796,1168,17022.78,25.89,-1.00,-1.0,2371
5705,2140705,16972,820,1068,17025.33,25.80,-1.00,-1.0,2365
5710,2140710,16976,764,1200,17035.50,25.89,-1.00,-1.0,2453
5713,2140713,16944,800,1316,17013.85,25.75,-1.00,-1.0,2376
5716,2140716,17000,816,1128,17056.91,25.71,-1.00,-1.0,2447
5718,2140718,16900,796,1224,16962.95,25.80,-1.00,-1.0,2373
5721,2140721,16912,872,1232,16979.22,25.80,-1.00,-1.0,2431
5724,2140724,17052,832,1248,17117.84,25.75,-1.00,-1.0,2377
5727,2140727,17004,860,1108,17061.75,25.71,-1.00,-1.0,2442
5729,2140729,16924,800,1312,16993.62,25.85,-1.00,-1.0,2369
5734,2140734,16924,792,1180,16983.56,25.75,-1.00,-1.0,2440
5737,2140737,17052,868,1200,17116.20,25.75,-1.00,-1.0,2367
5740,2140740,17128,844,1064,17181.76,25.71,-1.00,-1.0,2446
5742,2140742,16996,868,1160,17057.64,25.85,-1.00,-1.0,2368
5745,2140745,16984,852,1224,17049.35,25.80,-1.00,-1.0,2367
5748,2140748,16952,836,1176,17013.29,25.80,-1.00,-1.0,2438
5750,2140750,16960,856,1220,17025.36,25.85,-1.00,-1.0,2368
5753,2140753,17000,808,1204,17061.73,25.80,-1.00,-1.0,2445
5756,2140756,16992,828,1128,17049.52,25.80,-1.00,-1.0,2367
5761,2140761,16892,808,1152,16950.51,25.80,-1.00,-1.0,2446
5764,2140764,16976,856,1144,17036.02,25.71,-1.00,-1.0,2355
5767,2140767,16992,888,1120,17052.01,25.85,-1.00,-1.0,2448
5769,2140769,17028,812,1420,17106.39,25.80,-1.00,-1.0,2375
5772,2140772,16944,916,1292,17017.86,25.80,-1.00,-1.0,2442
5775,2140775,16960,888,1224,17027.28,25.89,-1.00,-1.0,2371
5778,2140778,16944,972,1124,17009.04,25.75,-1.00,-1.0,2444
5780,2140780,16996,876,1204,17061.10,25.80,-1.00,-1.0,2378
5783,2140783,16936,784,1216,16997.69,25.75,-1.00,-1.0,2360
5788,2140788,16892,828,1044,16944.47,25.80,-1.00,-1.0,2440
5791,2140791,17068,816,1200,17129.58,25.89,-1.00,-1.0,2355
5794,2140794,16976,884,1092,17034.04,25.85,-1.00,-1.0,2446
5796,2140796,16992,844,1180,17053.82,25.75,-1.00,-1.0,2374
5799,2140799,16936,816,1232,17000.35,25.85,-1.00,-1.0,2435
5802,2140802,16968,812,1128,17024.83,25.80,-1.00,-1.0,2370
5805,2140805,16940,824,1204,17002.71,25.85,-1.00,-1.0,2442
5807,2140807,17004,888,1044,17059.15,25.75,-1.00,-1.0,2378
5812,2140812,16932,944,1104,16994.19,25.75,-1.00,-1.0,2450
5815,2140815,16952,820,1128,17009.27,25.80,-1.00,-1.0,2376
5818,2140818,17072,904,1196,17137.70,25.66,-1.00,-1.0,2443
5820,2140820,16920,848,1356,16995.42,25.80,-1.00,-1.0,2374
5823,2140823,16896,896,1112,16956.24,25.85,-1.00,-1.0,2360
5826,2140826,16956,776,1148,17012.53,25.85,-1.00,-1.0,2435
5829,2140829,17000,908,1084,17058.71,25.85,-1.00,-1.0,2372
5831,2140831,16972,788,1112,17026.63,25.85,-1.00,-1.0,2434
5834,2140834,16972,872,1168,17034.48,25.80,-1.00,-1.0,2368
5839,2140839,16912,820,1140,16970.20,25.80,-1.00,-1.0,2446
5842,2140842,17000,872,1224,17066.30,25.85,-1.00,-1.0,2368
5845,2140845,17052,884,1260,17121.32,25.80,-1.00,-1.0,2443
5847,2140847,16968,912,1172,17032.86,25.85,-1.00,-1.0,2368
5850,2140850,17036,880,1092,17093.63,25.80,-1.00,-1.0,2435
5853,2140853,17052,880,1112,17110.86,25.75,-1.00,-1.0,2368
5856,2140856,16976,864,1160,17037.51,25.80,-1.00,-1.0,2439
5858,2140858,17064,972,1136,17129.37,25.85,-1.00,-1.0,2371
5861,2140861,17020,912,1128,17081.70,25.80,-1.00,-1.0,2362
5868,2140868,17016,844,1252,17082.86,25.80,-1.00,-1.0,2440
5871,2140871,16992,828,1244,17057.58,25.80,-1.00,-1.0,2369
5873,2140873,17000,980,1236,17073.02,25.80,-1.00,-1.0,2438
5876,2140876,16940,912,1184,17005.80,25.80,-1.00,-1.0,2368
5879,2140879,17072,900,1232,17140.04,25.80,-1.00,-1.0,2435
5882,2140882,17012,808,1088,17065.89,25.80,-1.00,-1.0,2369
5884,2140884,16952,872,1216,17017.91,25.71,-1.00,-1.0,2434
5887,2140887,17060,872,1184,17123.25,25.89,-1.00,-1.0,2367
5892,2140892,16920,824,1244,16985.67,25.80,-1.00,-1.0,2440
5895,2140895,17080,912,1228,17148.36,25.80,-1.00,-1.0,2376
5897,2140897,16952,748,1132,17006.21,25.85,-1.00,-1.0,2446
5900,2140900,16976,936,1112,17038.11,25.75,-1.00,-1.0,2368
5903,2140903,17004,852,1060,17058.30,25.75,-1.00,-1.0,2363
5906,2140906,16964,920,1160,17028.48,25.80,-1.00,-1.0,2446
5908,2140908,16952,844,1028,17004.10,25.75,-1.00,-1.0,2378
5911,2140911,17052,852,1168,17113.18,25.80,-1.00,-1.0,2435
5914,2140914,16944,812,1144,17001.98,25.85,-1.00,-1.0,2355
5919,2140919,17016,948,1112,17078.63,25.85,-1.00,-1.0,2447
5921,2140921,17056,840,1180,17117.39,25.75,-1.00,-1.0,2371
5924,2140924,16976,856,1256,17043.91,25.75,-1.00,-1.0,2455
5927,2140927,17052,804,1152,17109.77,25.80,-1.00,-1.0,2367
5930,2140930,16956,836,1228,17020.95,25.85,-1.00,-1.0,2443
5932,2140932,16920,820,1168,16980.08,25.85,-1.00,-1.0,2368
5935,2140935,16936,920,1216,17004.50,25.85,-1.00,-1.0,2452
5938,2140938,17028,864,1100,17085.35,25.80,-1.00,-1.0,2368
5940,2140940,16972,888,1172,17035.58,25.85,-1.00,-1.0,2363
5945,2140945,17012,804,1100,17066.47,25.75,-1.00,-1.0,2440
5948,2140948,17024,856,1128,17082.79,25.85,-1.00,-1.0,2372
5951,2140951,16920,868,1152,16981.37,25.75,-1.00,-1.0,2453
5954,2140954,17004,868,992,17055.01,25.75,-1.00,-1.0,2363
5956,2140956,16884,880,1200,16949.45,25.85,-1.00,-1.0,2440
5959,2140959,17064,768,1148,17119.81,25.75,-1.00,-1.0,2370
5962,2140962,17044,852,1256,17111.44,25.85,-1.00,-1.0,2441
5965,2140965,17036,772,1128,17090.75,25.85,-1.00,-1.0,2376
5970,2140970,16872,788,1140,16928.82,25.85,-1.00,-1.0,2447
5972,2140972,16984,892,1196,17049.41,25.80,-1.00,-1.0,2369
5975,2140975,16976,880,1244,17044.25,25.75,-1.00,-1.0,2441
5978,2140978,16964,900,1208,17030.75,25.80,-1.00,-1.0,2367
5980,2140980,17020,880,928,17067.98,25.75,-1.00,-1.0,2361
5983,2140983,16932,816,1268,16999.01,25.85,-1.00,-1.0,2443
5986,2140986,16956,820,1088,17010.65,25.85,-1.00,-1.0,2368
5989,2140989,17104,832,1096,17159.26,25.75,-1.00,-1.0,2441
5991,2140991,16956,888,1332,17031.40,25.75,-1.00,-1.0,2354
5997,2140997,17040,876,1216,17105.78,25.80,-1.00,-1.0,2442
5999,2140999,17012,860,1088,17068.44,25.80,-1.00,-1.0,2377
6002,2141002,16988,744,1168,17044.35,25.80,-1.00,-1.0,2439
6005,2141005,16968,800,1108,17022.95,25.71,-1.00,-1.0,2369
6008,2141008,16940,876,992,16991.62,25.71,-1.00,-1.0,2445
6010,2141010,16984,852,1224,17049.35,25.89,-1.00,-1.0,2378
6013,2141013,16944,880,1156,17006.17,25.80,-1.00,-1.0,2361
6016,2141016,16956,924,1240,17026.37,25.75,-1.00,-1.0,2439
6018,2141018,17008,860,1216,17073.09,25.80,-1.00,-1.0,2366
6023,2141023,17060,692,1236,17118.71,25.89,-1.00,-1.0,2448
6026,2141026,16988,960,1308,17065.30,25.80,-1.00,-1.0,2383
6029,2141029,17012,948,1320,17089.45,25.80,-1.00,-1.0,2441
6031,2141031,16952,860,1280,17021.99,25.80,-1.00,-1.0,2371
6034,2141034,16996,796,1240,17059.75,25.75,-1.00,-1.0,2438
6037,2141037,17132,820,1104,17187.11,25.89,-1.00,-1.0,2383
6040,2141040,17024,860,1172,17085.95,25.80,-1.00,-1.0,2437
6042,2141042,16996,888,1196,17061.15,25.71,-1.00,-1.0,2377
6047,2141047,17072,896,1152,17134.27,25.80,-1.00,-1.0,2441
6050,2141050,16976,920,1232,17045.49,25.75,-1.00,-1.0,2368
6053,2141053,16952,772,1144,17008.09,25.80,-1.00,-1.0,2370
6056,2141056,17020,804,1180,17079.79,25.94,-1.00,-1.0,2451
6058,2141058,16976,848,1028,17028.22,25.80,-1.00,-1.0,2379
6061,2141061,16948,936,1068,17007.39,25.66,-1.00,-1.0,2442
6064,2141064,16928,848,1216,16992.79,25.89,-1.00,-1.0,2371
6067,2141067,16944,848,1128,17002.67,25.85,-1.00,-1.0,2446
6069,2141069,16932,816,1224,16995.78,25.80,-1.00,-1.0,2380
6074,2141074,16932,836,1356,17006.77,25.85,-1.00,-1.0,2445
6077,2141077,17036,804,1152,17093.82,25.89,-1.00,-1.0,2368
6080,2141080,17020,952,1092,17081.54,25.85,-1.00,-1.0,2450
6082,2141082,17044,924,1096,17104.18,25.75,-1.00,-1.0,2376
6085,2141085,17068,864,1092,17124.71,25.85,-1.00,-1.0,2435
6088,2141088,17088,920,1128,17149.88,25.80,-1.00,-1.0,2368
6090,2141090,17020,832,1060,17073.26,25.85,-1.00,-1.0,2361
6093,2141093,16924,876,1172,16987.13,25.75,-1.00,-1.0,2435
6096,2141096,16916,804,1096,16970.52,25.75,-1.00,-1.0,2370
6101,2141101,16940,872,1252,17008.57,25.85,-1.00,-1.0,2438
6103,2141103,17096,800,1140,17152.63,25.75,-1.00,-1.0,2368
6106,2141106,17024,984,1196,17094.30,25.89,-1.00,-1.0,2437
6109,2141109,16972,848,1148,17031.90,25.85,-1.00,-1.0,2372
6112,2141112,17028,904,1216,17095.28,25.80,-1.00,-1.0,2440
6114,2141114,17024,816,1148,17082.16,25.85,-1.00,-1.0,2356
6117,2141117,17060,864,1088,17116.48,25.85,-1.00,-1.0,2433
6120,2141120,17120,868,1172,17182.01,25.75,-1.00,-1.0,2373
6125,2141125,16988,768,1172,17045.69,25.71,-1.00,-1.0,2445
