timestamp_ms,global_ms,accel_x,accel_y,accel_z,accel_mag,temp_c,voltage,soc,loop_us
2,2135002,16980,828,1168,17040.25,25.42,-1.00,-1.0,2483
9,2135009,17032,936,1068,17091.10,25.38,-1.00,-1.0,2450
11,2135011,17012,888,1152,17074.07,25.47,-1.00,-1.0,2375
14,2135014,17020,880,1076,17076.67,25.38,-1.00,-1.0,2361
17,2135017,16988,888,1080,17045.44,25.33,-1.00,-1.0,2438
20,2135020,16968,932,1124,17030.71,25.47,-1.00,-1.0,2364
22,2135022,16876,776,1264,16941.05,25.42,-1.00,-1.0,2434
25,2135025,16940,824,1032,16991.40,25.47,-1.00,-1.0,2363
28,2135028,17048,708,1216,17105.97,25.42,-1.00,-1.0,2436
31,2135031,16964,808,1156,17022.53,25.47,-1.00,-1.0,2364
35,2135035,16992,772,1100,17045.06,25.42,-1.00,-1.0,2448
38,2135038,17000,840,1172,17061.04,25.38,-1.00,-1.0,2358
41,2135041,16992,784,1132,17047.70,25.42,-1.00,-1.0,2360
43,2135043,16904,868,1308,16976.73,25.33,-1.00,-1.0,2438
46,2135046,17052,800,1244,17116.02,25.52,-1.00,-1.0,2364
49,2135049,17088,860,1056,17142.18,25.42,-1.00,-1.0,2434
52,2135052,16960,904,1220,17027.84,25.42,-1.00,-1.0,2363
54,2135054,17032,820,1224,17095.60,25.52,-1.00,-1.0,2435
57,2135057,16984,896,1188,17049.06,25.42,-1.00,-1.0,2364
62,2135062,17004,888,1196,17069.12,25.52,-1.00,-1.0,2454
65,2135065,17108,756,1120,17161.28,25.38,-1.00,-1.0,2361
68,2135068,17020,868,1144,17080.47,25.42,-1.00,-1.0,2452
70,2135070,16952,912,1128,17013.95,25.38,-1.00,-1.0,2367
73,2135073,16968,800,1244,17032.34,25.42,-1.00,-1.0,2364
76,2135076,17024,928,1236,17094.02,25.42,-1.00,-1.0,2436
78,2135078,16888,848,1288,16958.26,25.42,-1.00,-1.0,2361
81,2135081,17036,880,1248,17104.30,25.52,-1.00,-1.0,2441
84,2135084,16960,944,1252,17032.33,25.42,-1.00,-1.0,2360
89,2135089,17008,936,1060,17066.69,25.47,-1.00,-1.0,2457
91,2135091,16972,912,1156,17035.75,25.47,-1.00,-1.0,2363
94,2135094,17128,856,1200,17191.31,25.42,-1.00,-1.0,2451
97,2135097,17008,880,1244,17076.12,25.38,-1.00,-1.0,2366
100,2135100,16960,832,1112,17016.77,25.42,-1.00,-1.0,2363
102,2135102,16956,924,1196,17023.22,25.42,-1.00,-1.0,2435
105,2135105,17000,756,1120,17053.62,25.42,-1.00,-1.0,2367
108,2135108,17084,864,1008,17135.51,25.42,-1.00,-1.0,2440
110,2135110,16956,788,1180,17015.27,25.38,-1.00,-1.0,2360
116,2135116,16988,844,1176,17049.56,25.47,-1.00,-1.0,2455
118,2135118,17032,788,1192,17091.84,25.47,-1.00,-1.0,2359
121,2135121,16964,908,1164,17028.11,25.38,-1.00,-1.0,2444
124,2135124,16960,888,1248,17029.02,25.33,-1.00,-1.0,2357
126,2135126,16912,780,1176,16970.77,25.47,-1.00,-1.0,2360
129,2135129,16984,852,1132,17042.99,25.38,-1.00,-1.0,2444
132,2135132,16984,868,1132,17043.80,25.38,-1.00,-1.0,2365
135,2135135,17084,712,1144,17137.06,25.47,-1.00,-1.0,2447
137,2135137,16892,768,1072,16943.40,25.47,-1.00,-1.0,2358
142,2135142,16940,916,1184,17006.01,25.47,-1.00,-1.0,2448
145,2135145,17052,840,1196,17114.52,25.42,-1.00,-1.0,2358
148,2135148,16960,892,1248,17029.23,25.42,-1.00,-1.0,2440
151,2135151,17000,924,1044,17057.07,25.33,-1.00,-1.0,2365
153,2135153,16976,896,1108,17035.70,25.38,-1.00,-1.0,2436
156,2135156,17096,784,1340,17166.35,25.42,-1.00,-1.0,2353
159,2135159,17028,804,1300,17096.47,25.47,-1.00,-1.0,2362
161,2135161,16996,760,1168,17053.03,25.38,-1.00,-1.0,2435
164,2135164,16952,796,1152,17009.73,25.42,-1.00,-1.0,2375
169,2135169,16928,916,1100,16988.41,25.42,-1.00,-1.0,2447
172,2135172,17008,856,1148,17068.18,25.47,-1.00,-1.0,2358
175,2135175,16948,812,1320,17018.71,25.42,-1.00,-1.0,2447
177,2135177,16956,784,1236,17019.06,25.47,-1.00,-1.0,2359
180,2135180,16988,892,1156,17050.63,25.52,-1.00,-1.0,2441
183,2135183,16968,864,1236,17034.88,25.38,-1.00,-1.0,2358
186,2135186,17000,880,1180,17063.61,25.38,-1.00,-1.0,2449
188,2135188,17072,784,1232,17134.34,25.38,-1.00,-1.0,2359
191,2135191,16948,888,1232,17015.91,25.33,-1.00,-1.0,2369
196,2135196,16852,860,1216,16917.69,25.42,-1.00,-1.0,2447
199,2135199,16924,792,1236,16987.55,25.42,-1.00,-1.0,2358
202,2135202,16968,848,1240,17034.37,25.52,-1.00,-1.0,2447
204,2135204,16972,932,1224,17041.58,25.38,-1.00,-1.0,2359
207,2135207,16972,900,1112,17032.19,25.52,-1.00,-1.0,2444
210,2135210,16992,900,1196,17057.80,25.38,-1.00,-1.0,2358
213,2135213,16972,840,1248,17038.54,25.42,-1.00,-1.0,2452
215,2135215,16988,872,1072,17044.11,25.38,-1.00,-1.0,2359
220,2135220,16908,780,1176,16966.79,25.42,-1.00,-1.0,2449
223,2135223,16936,904,1064,16993.45,25.47,-1.00,-1.0,2359
225,2135225,16992,788,1272,17057.75,25.33,-1.00,-1.0,2360
228,2135228,16992,872,1144,17052.78,25.52,-1.00,-1.0,2446
231,2135231,16876,820,1216,16939.61,25.42,-1.00,-1.0,2372
234,2135234,16984,800,1088,17037.61,25.52,-1.00,-1.0,2450
236,2135236,16876,836,1112,16933.25,25.42,-1.00,-1.0,2358
239,2135239,16992,764,1112,17045.48,25.47,-1.00,-1.0,2441
242,2135242,16976,872,1224,17042.39,25.47,-1.00,-1.0,2361
247,2135247,17100,812,1168,17159.07,25.47,-1.00,-1.0,2448
250,2135250,17084,936,1260,17155.95,25.38,-1.00,-1.0,2358
253,2135253,17040,908,1148,17102.75,25.38,-1.00,-1.0,2440
255,2135255,17004,948,1080,17064.62,25.38,-1.00,-1.0,2367
258,2135258,16940,884,1128,17000.51,25.38,-1.00,-1.0,2362
261,2135261,17016,748,1116,17068.96,25.42,-1.00,-1.0,2446
263,2135263,17116,788,1232,17178.37,25.47,-1.00,-1.0,2357
266,2135266,16952,772,1008,16999.48,25.42,-1.00,-1.0,2441
269,2135269,16916,904,1096,16975.55,25.38,-1.00,-1.0,2358
274,2135274,16956,892,1000,17008.87,25.47,-1.00,-1.0,2455
277,2135277,16988,872,1168,17050.42,25.57,-1.00,-1.0,2365
280,2135280,17028,744,1200,17086.44,25.47,-1.00,-1.0,2443
282,2135282,17008,996,1064,17070.33,25.38,-1.00,-1.0,2365
285,2135285,17064,808,1208,17125.78,25.47,-1.00,-1.0,2362
288,2135288,16948,884,1176,17011.73,25.42,-1.00,-1.0,2434
291,2135291,16964,936,1360,17044.15,25.38,-1.00,-1.0,2365
293,2135293,16956,828,1176,17016.89,25.52,-1.00,-1.0,2434
296,2135296,16884,896,1248,16953.75,25.52,-1.00,-1.0,2363
301,2135301,17048,868,1056,17102.71,25.52,-1.00,-1.0,2448
304,2135304,16856,808,1124,16912.75,25.38,-1.00,-1.0,2359
307,2135307,16976,848,1136,17035.09,25.42,-1.00,-1.0,2440
310,2135310,16988,952,1192,17056.36,25.47,-1.00,-1.0,2364
312,2135312,16884,912,1140,16947.00,25.42,-1.00,-1.0,2436
315,2135315,16928,804,1188,16988.67,25.38,-1.00,-1.0,2366
318,2135318,16940,812,1284,17007.99,25.52,-1.00,-1.0,2364
320,2135320,16904,944,1184,16971.69,25.47,-1.00,-1.0,2435
323,2135323,16956,896,1196,17021.73,25.52,-1.00,-1.0,2364
328,2135328,16956,844,1280,17025.18,25.42,-1.00,-1.0,2447
331,2135331,16976,880,1124,17035.91,25.42,-1.00,-1.0,2357
334,2135334,17000,936,1300,17075.31,25.42,-1.00,-1.0,2441
337,2135337,17004,912,1052,17060.90,25.33,-1.00,-1.0,2364
339,2135339,17028,932,1096,17088.67,25.42,-1.00,-1.0,2434
342,2135342,17048,796,1180,17107.32,25.42,-1.00,-1.0,2366
345,2135345,17020,920,1332,17096.81,25.42,-1.00,-1.0,2441
348,2135348,16928,832,1148,16987.27,25.38,-1.00,-1.0,2366
350,2135350,16980,1012,1244,17055.56,25.38,-1.00,-1.0,2356
355,2135355,16896,848,1208,16960.34,25.42,-1.00,-1.0,2448
358,2135358,16944,852,1128,17002.87,25.42,-1.00,-1.0,2359
361,2135361,16880,876,1188,16944.41,25.38,-1.00,-1.0,2440
364,2135364,16956,860,1252,17023.90,25.42,-1.00,-1.0,2363
366,2135366,16960,876,1188,17024.11,25.42,-1.00,-1.0,2435
369,2135369,17088,904,1304,17161.51,25.42,-1.00,-1.0,2364
372,2135372,17076,788,1124,17131.09,25.42,-1.00,-1.0,2434
375,2135375,16924,776,1260,16988.57,25.33,-1.00,-1.0,2364
380,2135380,16968,896,1116,17028.25,25.42,-1.00,-1.0,2450
382,2135382,16996,916,1300,17070.24,25.42,-1.00,-1.0,2367
385,2135385,16916,784,1120,16971.16,25.42,-1.00,-1.0,2364
388,2135388,16980,904,1288,17052.76,25.42,-1.00,-1.0,2439
390,2135390,16940,936,1300,17015.57,25.52,-1.00,-1.0,2360
393,2135393,17008,892,1096,17066.60,25.42,-1.00,-1.0,2441
396,2135396,16956,816,1184,17016.86,25.42,-1.00,-1.0,2362
399,2135399,17048,848,1068,17102.46,25.42,-1.00,-1.0,2450
401,2135401,16924,916,1232,16993.49,25.38,-1.00,-1.0,2364
406,2135406,16988,824,1136,17045.87,25.38,-1.00,-1.0,2449
409,2135409,16972,852,1044,17025.41,25.38,-1.00,-1.0,2361
412,2135412,16880,820,1316,16951.07,25.38,-1.00,-1.0,2440
415,2135415,17040,756,1128,17094.02,25.38,-1.00,-1.0,2371
417,2135417,16960,880,1068,17016.36,25.42,-1.00,-1.0,2361
420,2135420,16956,876,1084,17013.18,25.42,-1.00,-1.0,2456
423,2135423,16988,868,1260,17056.76,25.38,-1.00,-1.0,2365
426,2135426,16924,920,1112,16985.43,25.42,-1.00,-1.0,2449
428,2135428,16956,860,1220,17021.57,25.42,-1.00,-1.0,2368
433,2135433,16968,880,1120,17027.68,25.42,-1.00,-1.0,2450
436,2135436,17020,860,1168,17081.69,25.52,-1.00,-1.0,2360
439,2135439,16820,824,1272,16888.14,25.38,-1.00,-1.0,2439
442,2135442,17032,864,1168,17093.85,25.42,-1.00,-1.0,2365
444,2135444,17012,872,1124,17071.38,25.38,-1.00,-1.0,2437
447,2135447,16888,840,1164,16948.89,25.42,-1.00,-1.0,2372
450,2135450,17008,900,1192,17073.46,25.52,-1.00,-1.0,2361
453,2135453,16920,864,1244,16987.66,25.42,-1.00,-1.0,2433
456,2135456,17008,884,1168,17070.96,25.42,-1.00,-1.0,2365
460,2135460,16948,824,1276,17015.93,25.52,-1.00,-1.0,2434
463,2135463,16992,916,1108,17052.71,25.52,-1.00,-1.0,2364
466,2135466,16992,884,1088,17049.73,25.47,-1.00,-1.0,2443
468,2135468,17064,848,1164,17124.66,25.42,-1.00,-1.0,2363
471,2135471,17072,836,1224,17136.23,25.47,-1.00,-1.0,2442
474,2135474,16968,784,1188,17027.60,25.42,-1.00,-1.0,2373
477,2135477,16888,860,1052,16942.57,25.38,-1.00,-1.0,2444
480,2135480,17036,972,1244,17108.99,25.52,-1.00,-1.0,2358
483,2135483,16984,812,1220,17047.11,25.42,-1.00,-1.0,2362
488,2135488,16964,860,1216,17029.26,25.52,-1.00,-1.0,2452
490,2135490,16948,836,1188,17010.14,25.42,-1.00,-1.0,2366
493,2135493,16920,880,1300,16992.67,25.47,-1.00,-1.0,2448
496,2135496,17128,824,1260,17194.04,25.33,-1.00,-1.0,2362
499,2135499,17008,872,1152,17069.26,25.42,-1.00,-1.0,2450
501,2135501,16956,780,1284,17022.43,25.42,-1.00,-1.0,2367
504,2135504,17056,936,1128,17118.87,25.38,-1.00,-1.0,2449
507,2135507,17080,860,1164,17141.21,25.42,-1.00,-1.0,2361
510,2135510,16896,880,1248,16964.87,25.47,-1.00,-1.0,2361
515,2135515,16964,864,1208,17028.89,25.47,-1.00,-1.0,2450
517,2135517,16872,792,1248,16936.62,25.38,-1.00,-1.0,2367
520,2135520,16932,988,1092,16995.92,25.38,-1.00,-1.0,2441
523,2135523,16956,836,1280,17024.78,25.47,-1.00,-1.0,2345
526,2135526,16980,872,1172,17042.72,25.38,-1.00,-1.0,2450
528,2135528,16988,824,1092,17042.99,25.38,-1.00,-1.0,2366
531,2135531,17068,860,1024,17120.30,25.38,-1.00,-1.0,2449
534,2135534,17008,912,1188,17073.81,25.42,-1.00,-1.0,2347
539,2135539,16944,880,1228,17011.22,25.52,-1.00,-1.0,2447
542,2135542,16988,872,1196,17052.36,25.42,-1.00,-1.0,2364
544,2135544,16964,888,1176,17027.88,25.42,-1.00,-1.0,2357
547,2135547,16940,880,1328,17014.75,25.42,-1.00,-1.0,2440
550,2135550,16948,948,1124,17011.67,25.33,-1.00,-1.0,2366
552,2135552,16976,940,1148,17040.72,25.42,-1.00,-1.0,2440
555,2135555,17056,876,1080,17112.60,25.42,-1.00,-1.0,2361
558,2135558,17016,772,1188,17074.88,25.42,-1.00,-1.0,2440
561,2135561,16992,860,1248,17059.46,25.42,-1.00,-1.0,2371
566,2135566,16928,856,1228,16994.05,25.42,-1.00,-1.0,2447
568,2135568,17048,976,1356,17129.67,25.47,-1.00,-1.0,2345
571,2135571,17024,800,1316,17093.52,25.42,-1.00,-1.0,2441
574,2135574,16996,904,1120,17056.84,25.38,-1.00,-1.0,2362
576,2135576,16956,872,1140,17016.64,25.42,-1.00,-1.0,2362
579,2135579,17036,808,1192,17096.75,25.42,-1.00,-1.0,2435
582,2135582,16912,848,1196,16975.43,25.47,-1.00,-1.0,2365
585,2135585,17036,844,1156,17096.02,25.57,-1.00,-1.0,2446
588,2135588,17020,848,1248,17086.75,25.52,-1.00,-1.0,2365
593,2135593,17020,840,1080,17074.91,25.42,-1.00,-1.0,2448
595,2135595,16872,948,1088,16933.60,25.42,-1.00,-1.0,2359
598,2135598,16924,856,1156,16985.02,25.42,-1.00,-1.0,2429
601,2135601,16992,916,1308,17066.87,25.38,-1.00,-1.0,2360
604,2135604,16952,764,1096,17004.56,25.42,-1.00,-1.0,2437
606,2135606,16932,736,1192,16989.86,25.38,-1.00,-1.0,2372
609,2135609,16984,888,988,17035.87,25.42,-1.00,-1.0,2356
612,2135612,16960,848,1236,17026.11,25.47,-1.00,-1.0,2442
615,2135615,17068,872,1044,17122.12,25.38,-1.00,-1.0,2353
620,2135620,16988,832,1148,17047.06,25.42,-1.00,-1.0,2455
622,2135622,17040,808,1260,17105.62,25.52,-1.00,-1.0,2359
625,2135625,16984,896,1100,17043.15,25.42,-1.00,-1.0,2443
628,2135628,17048,892,1244,17116.59,25.42,-1.00,-1.0,2358
631,2135631,17016,848,1332,17089.11,25.52,-1.00,-1.0,2437
633,2135633,16968,872,1224,17034.42,25.42,-1.00,-1.0,2362
636,2135636,16988,932,1076,17047.54,25.52,-1.00,-1.0,2441
639,2135639,16960,868,1080,17016.50,25.42,-1.00,-1.0,2360
642,2135642,16992,844,1292,17061.94,25.47,-1.00,-1.0,2368
647,2135647,16992,812,1164,17051.17,25.42,-1.00,-1.0,2453
649,2135649,17028,832,1120,17085.06,25.38,-1.00,-1.0,2367
652,2135652,17036,928,1112,17097.46,25.42,-1.00,-1.0,2450
655,2135655,16968,872,1072,17024.18,25.47,-1.00,-1.0,2361
658,2135658,16916,836,1140,16974.97,25.33,-1.00,-1.0,2453
660,2135660,16988,840,1232,17053.32,25.38,-1.00,-1.0,2369
663,2135663,16936,936,1232,17006.53,25.52,-1.00,-1.0,2434
666,2135666,16956,964,1336,17035.85,25.38,-1.00,-1.0,2360
669,2135669,17024,872,1132,17083.86,25.42,-1.00,-1.0,2366
674,2135674,17024,828,1208,17086.88,25.42,-1.00,-1.0,2451
676,2135676,16956,856,1312,17028.21,25.42,-1.00,-1.0,2370
679,2135679,16940,892,1200,17005.86,25.42,-1.00,-1.0,2450
682,2135682,16964,948,1068,17024.00,25.42,-1.00,-1.0,2365
685,2135685,16952,820,1256,17018.23,25.42,-1.00,-1.0,2453
687,2135687,17032,972,1192,17101.31,25.42,-1.00,-1.0,2360
690,2135690,17056,892,1212,17122.26,25.42,-1.00,-1.0,2451
693,2135693,16932,828,1064,16985.59,25.42,-1.00,-1.0,2358
698,2135698,16896,852,1244,16963.14,25.42,-1.00,-1.0,2455
700,2135700,16952,852,1248,17019.22,25.47,-1.00,-1.0,2359
703,2135703,16960,900,1160,17023.43,25.42,-1.00,-1.0,2375
706,2135706,16932,940,1088,16992.94,25.52,-1.00,-1.0,2441
708,2135708,16992,876,1204,17057.11,25.52,-1.00,-1.0,2364
711,2135711,17044,844,1084,17099.28,25.42,-1.00,-1.0,2449
714,2135714,16960,932,1216,17029.06,25.52,-1.00,-1.0,2373
717,2135717,16928,840,1132,16986.59,25.38,-1.00,-1.0,2427
720,2135720,16980,900,1304,17053.76,25.33,-1.00,-1.0,2364
725,2135725,16932,856,1188,16995.20,25.42,-1.00,-1.0,2457
727,2135727,17012,860,1200,17075.94,25.42,-1.00,-1.0,2367
730,2135730,16988,848,1192,17050.87,25.42,-1.00,-1.0,2450
733,2135733,17044,888,1108,17103.04,25.42,-1.00,-1.0,2365
736,2135736,16916,812,1240,16980.81,25.42,-1.00,-1.0,2363
738,2135738,16976,816,1152,17034.60,25.42,-1.00,-1.0,2435
741,2135741,17036,900,1300,17109.22,25.42,-1.00,-1.0,2367
744,2135744,17076,896,1224,17143.24,25.38,-1.00,-1.0,2439
747,2135747,17096,856,1208,17159.99,25.47,-1.00,-1.0,2363
752,2135752,16960,800,1156,17018.16,25.42,-1.00,-1.0,2436
754,2135754,16980,856,1060,17034.57,25.42,-1.00,-1.0,2366
757,2135757,16960,900,1240,17029.07,25.42,-1.00,-1.0,2451
760,2135760,16992,808,1256,17057.50,25.42,-1.00,-1.0,2373
763,2135763,16956,956,1184,17024.15,25.52,-1.00,-1.0,2443
765,2135765,16924,832,1076,16978.57,25.42,-1.00,-1.0,2368
768,2135768,16924,852,1264,16992.51,25.47,-1.00,-1.0,2363
771,2135771,16952,812,1148,17010.22,25.52,-1.00,-1.0,2438
774,2135774,17076,820,1244,17140.88,25.38,-1.00,-1.0,2363
779,2135779,17020,812,1236,17084.13,25.38,-1.00,-1.0,2450
782,2135782,17060,928,1076,17119.07,25.38,-1.00,-1.0,2365
784,2135784,16964,928,1116,17025.98,25.47,-1.00,-1.0,2433
787,2135787,16952,860,1140,17012.04,25.47,-1.00,-1.0,2367
790,2135790,17008,768,1148,17063.99,25.47,-1.00,-1.0,2440
792,2135792,17040,908,1200,17106.32,25.38,-1.00,-1.0,2361
795,2135795,16956,816,1180,17016.59,25.38,-1.00,-1.0,2441
798,2135798,16980,868,1248,17047.91,25.38,-1.00,-1.0,2374
801,2135801,16976,852,1120,17034.23,25.42,-1.00,-1.0,2361
806,2135806,17004,788,1020,17052.78,25.38,-1.00,-1.0,2448
809,2135809,17032,872,1104,17090.00,25.47,-1.00,-1.0,2364
811,2135811,17020,800,1128,17076.09,25.47,-1.00,-1.0,2433
814,2135814,16996,840,1168,17056.78,25.57,-1.00,-1.0,2366
817,2135817,17044,944,1200,17112.25,25.38,-1.00,-1.0,2434
820,2135820,17040,820,1308,17109.79,25.47,-1.00,-1.0,2366
822,2135822,17076,828,1344,17148.81,25.47,-1.00,-1.0,2435
825,2135825,17056,884,1224,17122.70,25.38,-1.00,-1.0,2372
830,2135830,16908,888,1076,16965.46,25.57,-1.00,-1.0,2464
833,2135833,16936,808,1176,16996.00,25.38,-1.00,-1.0,2367
835,2135835,16924,820,1192,16985.73,25.38,-1.00,-1.0,2369
838,2135838,17052,804,1076,17104.82,25.33,-1.00,-1.0,2433
841,2135841,17016,808,1136,17073.01,25.38,-1.00,-1.0,2368
844,2135844,16876,936,1296,16951.55,25.38,-1.00,-1.0,2445
846,2135846,17068,804,1124,17123.86,25.47,-1.00,-1.0,2372
849,2135849,16944,852,1148,17004.20,25.47,-1.00,-1.0,2434
852,2135852,16964,848,1096,17020.51,25.42,-1.00,-1.0,2365
857,2135857,16984,836,1160,17044.08,25.47,-1.00,-1.0,2455
859,2135859,16956,900,1128,17017.29,25.47,-1.00,-1.0,2360
862,2135862,16996,872,1232,17062.89,25.47,-1.00,-1.0,2363
865,2135865,16884,912,1212,16952.00,25.42,-1.00,-1.0,2441
867,2135867,17004,920,1092,17063.85,25.47,-1.00,-1.0,2364
870,2135870,16956,776,1164,17013.61,25.47,-1.00,-1.0,2441
873,2135873,17044,848,1020,17095.54,25.38,-1.00,-1.0,2374
876,2135876,17004,904,1288,17076.66,25.47,-1.00,-1.0,2450
879,2135879,16920,848,1112,16977.69,25.47,-1.00,-1.0,2368
884,2135884,16976,876,1164,17038.39,25.47,-1.00,-1.0,2453
886,2135886,16956,828,1228,17020.56,25.47,-1.00,-1.0,2359
889,2135889,16972,824,1244,17037.47,25.47,-1.00,-1.0,2452
892,2135892,16924,880,1140,16985.16,25.47,-1.00,-1.0,2367
894,2135894,16988,844,1204,17051.51,25.38,-1.00,-1.0,2363
897,2135897,17040,820,1164,17099.38,25.42,-1.00,-1.0,2436
900,2135900,17040,872,1288,17110.84,25.38,-1.00,-1.0,2380
903,2135903,16936,820,1188,16997.41,25.42,-1.00,-1.0,2447
906,2135906,16980,812,1244,17044.86,25.28,-1.00,-1.0,2374
911,2135911,16928,840,1168,16989.03,25.57,-1.00,-1.0,2448
914,2135914,16948,832,1044,17000.50,25.38,-1.00,-1.0,2355
916,2135916,17048,884,1100,17106.31,25.38,-1.00,-1.0,2439
919,2135919,16908,868,1164,16970.23,25.42,-1.00,-1.0,2360
922,2135922,16948,808,1232,17011.92,25.38,-1.00,-1.0,2439
925,2135925,17044,812,1244,17108.62,25.47,-1.00,-1.0,2373
927,2135927,17072,908,1140,17134.10,25.38,-1.00,-1.0,2359
930,2135930,16992,956,1060,17051.85,25.52,-1.00,-1.0,2438
933,2135933,16952,884,1080,17009.36,25.42,-1.00,-1.0,2368
938,2135938,16884,780,1212,16945.41,25.42,-1.00,-1.0,2462
941,2135941,16852,848,1128,16910.98,25.47,-1.00,-1.0,2367
944,2135944,16932,824,1200,16994.46,25.42,-1.00,-1.0,2450
946,2135946,16952,932,1132,17015.30,25.47,-1.00,-1.0,2366
949,2135949,16964,820,1228,17028.14,25.33,-1.00,-1.0,2454
952,2135952,16940,932,1244,17011.17,25.57,-1.00,-1.0,2367
954,2135954,16960,896,1096,17018.98,25.42,-1.00,-1.0,2455
957,2135957,16972,872,1132,17032.05,25.38,-1.00,-1.0,2365
960,2135960,16976,860,1212,17040.93,25.42,-1.00,-1.0,2351
965,2135965,16960,804,1160,17018.62,25.47,-1.00,-1.0,2448
968,2135968,16976,928,1344,17054.39,25.42,-1.00,-1.0,2427
971,2135971,16956,880,1120,17015.72,25.38,-1.00,-1.0,2440
974,2135974,16932,892,1304,17005.55,25.47,-1.00,-1.0,2371
976,2135976,17008,936,1228,17077.94,25.47,-1.00,-1.0,2433
979,2135979,17016,956,1208,17085.59,25.42,-1.00,-1.0,2372
982,2135982,16944,916,1116,17005.40,25.38,-1.00,-1.0,2431
985,2135985,16976,876,1208,17041.46,25.47,-1.00,-1.0,2373
990,2135990,16924,868,1256,16992.73,25.42,-1.00,-1.0,2446
992,2135992,17044,776,1264,17108.41,25.33,-1.00,-1.0,2374
995,2135995,16948,868,1312,17020.85,25.47,-1.00,-1.0,2362
998,2135998,17060,956,1180,17127.46,25.38,-1.00,-1.0,2445
1000,2136000,17104,904,1168,17167.65,25.38,-1.00,-1.0,2365
1003,2136003,17004,804,1164,17062.75,25.38,-1.00,-1.0,2438
1006,2136006,17032,756,1080,17082.94,25.47,-1.00,-1.0,2366
1009,2136009,17040,900,1060,17096.64,25.47,-1.00,-1.0,2443
1011,2136011,16944,852,1236,17010.37,25.38,-1.00,-1.0,2365
1016,2136016,16940,788,1244,17003.88,25.42,-1.00,-1.0,2449
1019,2136019,16992,872,1340,17067.04,25.42,-1.00,-1.0,2381
1022,2136022,16952,876,1280,17022.81,25.47,-1.00,-1.0,2441
1024,2136024,16992,912,1296,17065.74,25.42,-1.00,-1.0,2372
1027,2136027,17004,916,1292,17077.60,25.42,-1.00,-1.0,2360
1030,2136030,17016,836,1328,17088.21,25.38,-1.00,-1.0,2437
1033,2136033,16852,888,1112,16911.98,25.38,-1.00,-1.0,2367
1035,2136035,16920,788,1144,16976.93,25.47,-1.00,-1.0,2436
1038,2136038,16952,912,1140,17014.75,25.47,-1.00,-1.0,2365
1043,2136043,17024,928,1380,17105.03,25.42,-1.00,-1.0,2442
1046,2136046,17008,856,1112,17065.79,25.28,-1.00,-1.0,2354
1049,2136049,16924,796,1204,16985.44,25.47,-1.00,-1.0,2450
1051,2136051,17072,856,1160,17132.76,25.47,-1.00,-1.0,2373
1054,2136054,16964,860,1128,17023.20,25.47,-1.00,-1.0,2438
1057,2136057,16960,800,1112,17015.23,25.47,-1.00,-1.0,2366
1060,2136060,16928,792,1072,16980.39,25.47,-1.00,-1.0,2446
1062,2136062,16940,908,1124,17001.51,25.47,-1.00,-1.0,2373
1065,2136065,16932,780,1224,16994.09,25.52,-1.00,-1.0,2360
1070,2136070,16900,828,1268,16967.72,25.52,-1.00,-1.0,2441
1073,2136073,16984,880,1392,17063.65,25.42,-1.00,-1.0,2374
1075,2136075,16912,832,1240,16977.80,25.42,-1.00,-1.0,2440
1078,2136078,17052,852,1176,17113.72,25.42,-1.00,-1.0,2366
1081,2136081,16920,948,1268,16993.91,25.42,-1.00,-1.0,2437
1084,2136084,17060,800,1136,17116.49,25.42,-1.00,-1.0,2366
1086,2136086,16980,908,1168,17044.33,25.42,-1.00,-1.0,2436
1089,2136089,16956,824,1160,17015.60,25.42,-1.00,-1.0,2368
1094,2136094,16992,804,1372,17066.25,25.52,-1.00,-1.0,2441
1097,2136097,17036,844,1132,17094.42,25.42,-1.00,-1.0,2373
1099,2136099,16932,844,1296,17002.49,25.42,-1.00,-1.0,2440
1102,2136102,17024,860,1288,17094.30,25.42,-1.00,-1.0,2366
1105,2136105,16936,828,1244,17001.80,25.57,-1.00,-1.0,2364
1108,2136108,16976,912,1320,17051.65,25.47,-1.00,-1.0,2448
1110,2136110,16932,868,1160,16993.87,25.38,-1.00,-1.0,2370
1113,2136113,16992,888,1224,17059.16,25.38,-1.00,-1.0,2450
1116,2136116,16896,884,1156,16958.55,25.42,-1.00,-1.0,2367
1121,2136121,16992,836,1236,17057.39,25.33,-1.00,-1.0,2444
1124,2136124,17052,812,1244,17116.59,25.33,-1.00,-1.0,2366
1127,2136127,17008,792,1204,17068.95,25.42,-1.00,-1.0,2446
1129,2136129,16936,860,1268,17005.16,25.42,-1.00,-1.0,2366
1132,2136132,16964,860,1196,17027.84,25.42,-1.00,-1.0,2439
1135,2136135,16984,936,1260,17056.38,25.42,-1.00,-1.0,2367
1138,2136138,17064,888,1196,17128.89,25.47,-1.00,-1.0,2466
1140,2136140,16936,828,1120,16993.18,25.47,-1.00,-1.0,2376
1143,2136143,16984,824,1100,17039.52,25.47,-1.00,-1.0,2366
1148,2136148,17008,940,1144,17072.33,25.47,-1.00,-1.0,2446
1151,2136151,17080,872,1192,17143.73,25.52,-1.00,-1.0,2363
1154,2136154,16824,908,1192,16890.60,25.38,-1.00,-1.0,2448
1156,2136156,17064,820,1180,17124.39,25.42,-1.00,-1.0,2364
1159,2136159,17008,888,1168,17071.17,25.47,-1.00,-1.0,2447
1162,2136162,16980,864,1280,17050.08,25.42,-1.00,-1.0,2364
1165,2136165,17036,920,1152,17099.67,25.38,-1.00,-1.0,2446
1167,2136167,17004,936,1180,17070.57,25.42,-1.00,-1.0,2363
1172,2136172,16964,888,1248,17033.01,25.42,-1.00,-1.0,2444
1175,2136175,16928,876,1320,17001.97,25.42,-1.00,-1.0,2364
1178,2136178,17076,888,1140,17137.03,25.42,-1.00,-1.0,2444
1181,2136181,16904,1024,1180,16976.05,25.42,-1.00,-1.0,2363
1183,2136183,17056,920,1224,17124.59,25.47,-1.00,-1.0,2361
1186,2136186,16856,900,1044,16912.26,25.42,-1.00,-1.0,2440
1189,2136189,17088,860,1236,17154.21,25.42,-1.00,-1.0,2364
1191,2136191,16984,812,1176,17044.02,25.47,-1.00,-1.0,2439
1194,2136194,16932,756,1284,16997.44,25.33,-1.00,-1.0,2370
1199,2136199,17108,792,1312,17176.50,25.47,-1.00,-1.0,2452
1202,2136202,16924,852,1176,16986.19,25.38,-1.00,-1.0,2372
1205,2136205,16996,848,1136,17055.02,25.42,-1.00,-1.0,2446
1207,2136207,16956,744,1208,17015.25,25.47,-1.00,-1.0,2368
1210,2136210,16980,840,1144,17039.21,25.42,-1.00,-1.0,2449
1213,2136213,17036,788,1012,17084.21,25.47,-1.00,-1.0,2371
1216,2136216,17008,824,1076,17061.91,25.42,-1.00,-1.0,2442
1218,2136218,16960,924,1104,17020.99,25.47,-1.00,-1.0,2364
1221,2136221,16940,804,1208,17002.04,25.42,-1.00,-1.0,2363
1226,2136226,16904,812,1148,16962.38,25.42,-1.00,-1.0,2455
1229,2136229,17008,852,1096,17064.56,25.42,-1.00,-1.0,2379
1232,2136232,16956,908,1216,17023.78,25.42,-1.00,-1.0,2444
1234,2136234,16968,856,1252,17035.65,25.33,-1.00,-1.0,2366
1237,2136237,17056,944,1164,17121.72,25.42,-1.00,-1.0,2443
1240,2136240,16956,848,1244,17022.71,25.42,-1.00,-1.0,2379
1243,2136243,16956,868,1204,17020.84,25.52,-1.00,-1.0,2441
1245,2136245,16940,840,1208,17003.78,25.42,-1.00,-1.0,2366
1250,2136250,17008,872,1168,17070.35,25.52,-1.00,-1.0,2444
1253,2136253,16932,832,1296,17001.90,25.38,-1.00,-1.0,2367
1256,2136256,16924,832,1196,16986.60,25.42,-1.00,-1.0,2458
1259,2136259,16992,880,1184,17055.92,25.47,-1.00,-1.0,2374
1261,2136261,16888,844,1076,16943.28,25.52,-1.00,-1.0,2367
1264,2136264,17000,948,1336,17078.75,25.42,-1.00,-1.0,2440
1267,2136267,16992,800,1168,17050.87,25.42,-1.00,-1.0,2365
1270,2136270,17068,908,1144,17130.38,25.42,-1.00,-1.0,2450
1272,2136272,16916,836,1108,16972.85,25.47,-1.00,-1.0,2363
1277,2136277,17020,792,1320,17089.47,25.38,-1.00,-1.0,2445
1280,2136280,17048,960,1204,17117.40,25.57,-1.00,-1.0,2364
1283,2136283,16980,836,1348,17053.93,25.38,-1.00,-1.0,2445
1285,2136285,16888,864,1300,16959.98,25.57,-1.00,-1.0,2363
1288,2136288,16948,828,1132,17005.93,25.47,-1.00,-1.0,2441
1291,2136291,16944,916,1116,17005.40,25.38,-1.00,-1.0,2364
1294,2136294,16908,908,1248,16978.29,25.38,-1.00,-1.0,2447
1296,2136296,16932,776,1192,16991.63,25.38,-1.00,-1.0,2363
1299,2136299,17020,876,1240,17087.58,25.47,-1.00,-1.0,2361
1304,2136304,16964,820,1280,17031.97,25.47,-1.00,-1.0,2446
1307,2136307,16932,820,1328,17003.78,25.47,-1.00,-1.0,2364
1310,2136310,17032,860,1240,17098.72,25.42,-1.00,-1.0,2449
1312,2136312,16908,868,1252,16976.50,25.47,-1.00,-1.0,2365
1315,2136315,16972,820,1052,17024.33,25.42,-1.00,-1.0,2441
1318,2136318,17056,828,1192,17117.64,25.47,-1.00,-1.0,2365
1321,2136321,16972,848,1244,17038.64,25.52,-1.00,-1.0,2446
1323,2136323,16948,852,1324,17020.97,25.38,-1.00,-1.0,2351
1328,2136328,16956,896,1164,17019.51,25.38,-1.00,-1.0,2444
1331,2136331,17076,792,1308,17144.33,25.47,-1.00,-1.0,2365
1334,2136334,16988,832,1156,17047.60,25.38,-1.00,-1.0,2444
1337,2136337,17032,924,1216,17100.34,25.38,-1.00,-1.0,2363
1339,2136339,16896,832,1152,16955.65,25.42,-1.00,-1.0,2361
1342,2136342,17024,892,1252,17093.27,25.42,-1.00,-1.0,2439
1345,2136345,17020,848,1188,17082.47,25.33,-1.00,-1.0,2364
1347,2136347,16916,840,1244,16982.47,25.42,-1.00,-1.0,2445
1350,2136350,16996,848,1172,17057.45,25.33,-1.00,-1.0,2364
1355,2136355,16908,924,1236,16978.28,25.52,-1.00,-1.0,2431
1358,2136358,16956,904,1308,17030.38,25.38,-1.00,-1.0,2365
1361,2136361,16944,832,1188,17005.96,25.42,-1.00,-1.0,2442
1364,2136364,16992,828,1224,17056.14,25.47,-1.00,-1.0,2363
1366,2136366,16996,924,1080,17055.33,25.52,-1.00,-1.0,2426
1369,2136369,16964,884,1128,17024.43,25.38,-1.00,-1.0,2365
1372,2136372,17000,880,1128,17060.09,25.52,-1.00,-1.0,2440
1375,2136375,16888,820,1112,16944.42,25.47,-1.00,-1.0,2363
1377,2136377,17012,928,1164,17077.01,25.42,-1.00,-1.0,2360
1383,2136383,17020,884,1316,17093.67,25.52,-1.00,-1.0,2444
1385,2136385,17052,944,1132,17115.59,25.47,-1.00,-1.0,2365
1388,2136388,16924,776,1256,16988.28,25.42,-1.00,-1.0,2443
1391,2136391,16964,816,1200,17025.96,25.42,-1.00,-1.0,2365
1394,2136394,17036,784,1152,17092.89,25.42,-1.00,-1.0,2445
1396,2136396,16912,780,1204,16972.74,25.52,-1.00,-1.0,2365
1399,2136399,16920,896,1196,16985.87,25.33,-1.00,-1.0,2439
1402,2136402,16924,820,1236,16988.88,25.47,-1.00,-1.0,2366
1407,2136407,16968,744,1188,17025.80,25.42,-1.00,-1.0,2455
1410,2136410,16948,836,1220,17012.41,25.42,-1.00,-1.0,2366
1412,2136412,16900,824,1052,16952.75,25.33,-1.00,-1.0,2360
1415,2136415,17020,892,1212,17086.40,25.47,-1.00,-1.0,2456
1418,2136418,17036,824,1088,17090.58,25.42,-1.00,-1.0,2373
1420,2136420,16976,924,1120,17037.98,25.47,-1.00,-1.0,2445
1423,2136423,17024,916,1044,17080.56,25.47,-1.00,-1.0,2367
1426,2136426,17052,764,1192,17110.68,25.47,-1.00,-1.0,2451
1429,2136429,17000,856,1156,17060.75,25.42,-1.00,-1.0,2359
1434,2136434,17028,884,1172,17091.16,25.52,-1.00,-1.0,2451
1436,2136436,17124,896,1208,17189.92,25.42,-1.00,-1.0,2363
1439,2136439,16948,860,1176,17010.51,25.52,-1.00,-1.0,2436
1442,2136442,16940,796,1088,16993.56,25.33,-1.00,-1.0,2364
1445,2136445,17000,944,1136,17064.04,25.42,-1.00,-1.0,2433
1447,2136447,16912,788,1060,16963.50,25.42,-1.00,-1.0,2366
1450,2136450,16996,808,1160,17054.69,25.42,-1.00,-1.0,2357
1453,2136453,17044,816,1132,17101.03,25.42,-1.00,-1.0,2447
1456,2136456,16868,768,1260,16932.42,25.52,-1.00,-1.0,2364
1460,2136460,16944,844,1276,17012.93,25.38,-1.00,-1.0,2448
1463,2136463,16972,772,1192,17031.31,25.47,-1.00,-1.0,2370
1466,2136466,16976,868,1268,17045.40,25.42,-1.00,-1.0,2449
1469,2136469,17024,848,1176,17085.63,25.47,-1.00,-1.0,2371
1472,2136472,16948,872,1168,17010.56,25.52,-1.00,-1.0,2447
1474,2136474,16960,900,1164,17023.70,25.47,-1.00,-1.0,2366
1477,2136477,17060,924,1068,17118.35,25.42,-1.00,-1.0,2450
1480,2136480,17048,804,1216,17110.21,25.47,-1.00,-1.0,2372
1485,2136485,16984,860,1244,17051.20,25.42,-1.00,-1.0,2450
1487,2136487,16960,884,1060,17016.07,25.42,-1.00,-1.0,2373
1490,2136490,16888,872,1300,16960.39,25.42,-1.00,-1.0,2364
1493,2136493,17008,868,1308,17080.29,25.42,-1.00,-1.0,2436
1495,2136495,16980,860,1044,17033.79,25.42,-1.00,-1.0,2351
1498,2136498,16872,860,1124,16931.25,25.42,-1.00,-1.0,2441
1501,2136501,16944,876,1120,17003.56,25.42,-1.00,-1.0,2364
1504,2136504,17008,920,1216,17076.21,25.42,-1.00,-1.0,2447
1507,2136507,16984,860,1284,17054.16,25.42,-1.00,-1.0,2364
1511,2136511,17020,940,1120,17082.69,25.38,-1.00,-1.0,2447
1514,2136514,16960,904,1220,17027.84,25.52,-1.00,-1.0,2363
1517,2136517,17096,800,1144,17152.90,25.47,-1.00,-1.0,2440
1520,2136520,17060,836,1116,17116.89,25.42,-1.00,-1.0,2364
1522,2136522,16992,884,1312,17065.49,25.47,-1.00,-1.0,2440
1525,2136525,16940,936,1180,17006.82,25.42,-1.00,-1.0,2362
1528,2136528,17012,788,1228,17074.46,25.42,-1.00,-1.0,2360
1531,2136531,17060,884,1204,17125.26,25.47,-1.00,-1.0,2447
1534,2136534,17008,860,1168,17069.74,25.42,-1.00,-1.0,2364
1539,2136539,17028,872,1248,17095.93,25.33,-1.00,-1.0,2449
1541,2136541,17044,716,1160,17098.43,25.52,-1.00,-1.0,2365
1544,2136544,17000,888,1148,17061.84,25.47,-1.00,-1.0,2440
1547,2136547,17012,884,1052,17067.40,25.42,-1.00,-1.0,2366
1550,2136550,17020,784,1128,17075.35,25.52,-1.00,-1.0,2433
1552,2136552,16956,736,1204,17014.62,25.52,-1.00,-1.0,2370
1555,2136555,17004,904,1196,17069.96,25.47,-1.00,-1.0,2441
1558,2136558,17020,996,1260,17095.61,25.33,-1.00,-1.0,2351
1563,2136563,17008,856,1260,17076.08,25.52,-1.00,-1.0,2453
1565,2136565,17004,824,1040,17055.69,25.42,-1.00,-1.0,2363
1568,2136568,16912,948,1156,16977.95,25.42,-1.00,-1.0,2368
1571,2136571,16968,844,1168,17029.08,25.38,-1.00,-1.0,2441
1573,2136573,17036,940,1016,17092.14,25.52,-1.00,-1.0,2368
1576,2136576,17032,920,1068,17090.23,25.47,-1.00,-1.0,2441
1579,2136579,16948,816,1252,17013.76,25.42,-1.00,-1.0,2371
1582,2136582,17028,696,1336,17094.50,25.47,-1.00,-1.0,2441
1585,2136585,17000,904,1128,17061.35,25.42,-1.00,-1.0,2371
1590,2136590,16976,836,1180,17037.48,25.47,-1.00,-1.0,2447
1592,2136592,17044,912,1044,17100.28,25.38,-1.00,-1.0,2363
1595,2136595,16988,816,1108,17043.64,25.47,-1.00,-1.0,2441
1598,2136598,16908,900,1136,16970.00,25.47,-1.00,-1.0,2351
1601,2136601,16948,844,1236,17013.96,25.47,-1.00,-1.0,2435
1603,2136603,16928,848,1088,16984.11,25.47,-1.00,-1.0,2358
1606,2136606,17012,816,1188,17072.94,25.47,-1.00,-1.0,2361
1609,2136609,16976,896,1068,17033.14,25.42,-1.00,-1.0,2446
1612,2136612,16984,888,1224,17051.19,25.33,-1.00,-1.0,2375
1617,2136617,16976,880,1116,17035.39,25.42,-1.00,-1.0,2454
1619,2136619,16948,888,1124,17008.43,25.52,-1.00,-1.0,2364
1622,2136622,17032,924,1200,17099.21,25.52,-1.00,-1.0,2440
1625,2136625,16992,836,1196,17054.54,25.42,-1.00,-1.0,2364
1628,2136628,16920,952,1192,16988.63,25.42,-1.00,-1.0,2447
1630,2136630,16956,884,1032,17010.36,25.52,-1.00,-1.0,2363
1633,2136633,16956,1004,1180,17026.64,25.42,-1.00,-1.0,2442
1636,2136636,16964,800,1152,17021.88,25.42,-1.00,-1.0,2364
1641,2136641,17044,884,1256,17113.06,25.47,-1.00,-1.0,2446
1644,2136644,17012,836,1196,17074.47,25.38,-1.00,-1.0,2363
1646,2136646,17008,856,1200,17071.75,25.42,-1.00,-1.0,2360
1649,2136649,17000,824,1284,17068.32,25.42,-1.00,-1.0,2440
1652,2136652,16956,916,1200,17023.07,25.52,-1.00,-1.0,2364
1654,2136654,16992,816,1040,17043.34,25.33,-1.00,-1.0,2439
1657,2136657,16988,804,1136,17044.91,25.42,-1.00,-1.0,2363
1660,2136660,17016,832,1296,17085.55,25.52,-1.00,-1.0,2440
1663,2136663,16964,852,1200,17027.72,25.38,-1.00,-1.0,2367
1668,2136668,16952,876,1216,17018.12,25.38,-1.00,-1.0,2453
1670,2136670,16992,792,1204,17053.00,25.42,-1.00,-1.0,2364
1673,2136673,16980,880,1208,17045.65,25.47,-1.00,-1.0,2454
1676,2136676,16976,836,1420,17055.79,25.42,-1.00,-1.0,2364
1679,2136679,16868,816,1148,16926.70,25.47,-1.00,-1.0,2446
1681,2136681,17004,708,1256,17065.02,25.42,-1.00,-1.0,2364
1684,2136684,17008,812,1312,17077.84,25.47,-1.00,-1.0,2369
1687,2136687,16996,868,1180,17059.01,25.52,-1.00,-1.0,2440
1690,2136690,16956,820,1140,17014.05,25.47,-1.00,-1.0,2364
1695,2136695,16912,816,1204,16974.43,25.42,-1.00,-1.0,2457
1697,2136697,16988,864,1164,17049.74,25.42,-1.00,-1.0,2366
1700,2136700,17016,776,1216,17077.03,25.38,-1.00,-1.0,2443
1703,2136703,16908,840,1224,16973.04,25.52,-1.00,-1.0,2364
1706,2136706,16940,880,1080,16997.19,25.42,-1.00,-1.0,2446
1708,2136708,16948,884,1108,17007.17,25.42,-1.00,-1.0,2364
1711,2136711,17024,824,1144,17082.28,25.42,-1.00,-1.0,2442
1714,2136714,17052,900,1144,17114.01,25.52,-1.00,-1.0,2364
1719,2136719,17104,712,1164,17158.34,25.47,-1.00,-1.0,2455
1721,2136721,16932,800,1132,16988.64,25.42,-1.00,-1.0,2364
1724,2136724,16932,936,1104,16993.75,25.57,-1.00,-1.0,2368
1727,2136727,16896,860,1348,16971.49,25.42,-1.00,-1.0,2441
1729,2136729,16976,912,1188,17041.94,25.47,-1.00,-1.0,2360
1732,2136732,17048,876,1040,17102.14,25.42,-1.00,-1.0,2442
1735,2136735,16984,844,1252,17050.98,25.47,-1.00,-1.0,2378
1738,2136738,17024,792,1188,17083.77,25.42,-1.00,-1.0,2440
1741,2136741,16968,928,1252,17039.42,25.42,-1.00,-1.0,2367
1746,2136746,17016,804,1212,17078.04,25.42,-1.00,-1.0,2450
1748,2136748,16964,944,1228,17034.56,25.42,-1.00,-1.0,2365
1751,2136751,16892,852,1148,16952.39,25.52,-1.00,-1.0,2441
1754,2136754,16928,848,1104,16985.14,25.42,-1.00,-1.0,2368
1757,2136757,16924,876,1240,16991.96,25.42,-1.00,-1.0,2438
1759,2136759,16932,832,1200,16994.85,25.42,-1.00,-1.0,2368
1762,2136762,16980,788,1256,17044.62,25.42,-1.00,-1.0,2361
1765,2136765,16908,836,1180,16969.73,25.47,-1.00,-1.0,2438
1768,2136768,16984,800,1124,17039.94,25.52,-1.00,-1.0,2364
1773,2136773,16944,800,1160,17002.49,25.42,-1.00,-1.0,2450
1776,2136776,16952,884,1088,17009.87,25.42,-1.00,-1.0,2364
1778,2136778,17000,872,1120,17059.16,25.52,-1.00,-1.0,2439
1781,2136781,17028,820,1196,17089.63,25.33,-1.00,-1.0,2368
1784,2136784,16968,880,1188,17032.29,25.52,-1.00,-1.0,2438
1787,2136787,16940,792,1308,17008.87,25.52,-1.00,-1.0,2366
1789,2136789,16944,812,1176,17004.16,25.42,-1.00,-1.0,2440
1792,2136792,17072,788,1172,17130.32,25.42,-1.00,-1.0,2368
1797,2136797,16984,812,1216,17046.83,25.38,-1.00,-1.0,2449
1800,2136800,16948,840,1184,17010.06,25.38,-1.00,-1.0,2364
1802,2136802,16996,792,1096,17049.71,25.42,-1.00,-1.0,2365
1805,2136805,17016,780,1216,17077.22,25.61,-1.00,-1.0,2448
1808,2136808,16920,1008,1220,16993.85,25.42,-1.00,-1.0,2381
1811,2136811,16888,916,1044,16945.02,25.42,-1.00,-1.0,2439
1813,2136813,17028,784,1176,17086.56,25.52,-1.00,-1.0,2366
1816,2136816,17036,804,1264,17101.74,25.52,-1.00,-1.0,2448
1819,2136819,16940,888,1136,17001.25,25.42,-1.00,-1.0,2378
1824,2136824,17028,808,1128,17084.44,25.47,-1.00,-1.0,2447
1827,2136827,16984,884,1320,17058.14,25.47,-1.00,-1.0,2370
1829,2136829,16948,768,1040,16997.24,25.42,-1.00,-1.0,2438
1832,2136832,16988,860,1232,17054.31,25.57,-1.00,-1.0,2366
1835,2136835,16956,888,1208,17022.15,25.52,-1.00,-1.0,2439
1838,2136838,16904,832,1160,16964.17,25.47,-1.00,-1.0,2372
1840,2136840,16996,916,1320,17071.77,25.42,-1.00,-1.0,2364
1843,2136843,16956,860,1076,17011.86,25.52,-1.00,-1.0,2454
1846,2136846,16988,796,1292,17055.64,25.42,-1.00,-1.0,2365
1851,2136851,16904,920,1224,16973.21,25.38,-1.00,-1.0,2447
1854,2136854,16912,804,1144,16969.71,25.38,-1.00,-1.0,2365
1856,2136856,16992,896,1184,17056.75,25.47,-1.00,-1.0,2438
1859,2136859,16904,764,1184,16962.63,25.38,-1.00,-1.0,2366
1862,2136862,16932,840,1296,17002.29,25.47,-1.00,-1.0,2438
1865,2136865,16984,820,1288,17052.50,25.38,-1.00,-1.0,2364
1867,2136867,17016,912,1148,17079.05,25.57,-1.00,-1.0,2439
1870,2136870,16964,816,1112,17019.98,25.38,-1.00,-1.0,2365
1873,2136873,16976,924,1188,17042.58,25.33,-1.00,-1.0,2369
1878,2136878,16940,804,1208,17002.04,25.42,-1.00,-1.0,2447
1881,2136881,16964,868,1208,17029.09,25.38,-1.00,-1.0,2364
1883,2136883,16976,804,1152,17034.03,25.42,-1.00,-1.0,2439
1886,2136886,16976,880,1224,17042.80,25.47,-1.00,-1.0,2365
1889,2136889,16968,904,1240,17037.25,25.33,-1.00,-1.0,2439
1892,2136892,16904,812,1128,16961.04,25.47,-1.00,-1.0,2364
1894,2136894,16908,884,1128,16968.63,25.42,-1.00,-1.0,2425
1897,2136897,17016,908,1324,17091.57,25.47,-1.00,-1.0,2365
1902,2136902,16984,936,1140,17047.93,25.42,-1.00,-1.0,2448
1905,2136905,16924,776,1196,16983.95,25.38,-1.00,-1.0,2365
1907,2136907,16924,932,1060,16982.76,25.52,-1.00,-1.0,2425
1910,2136910,16992,860,1028,17044.78,25.57,-1.00,-1.0,2365
1913,2136913,16956,828,1156,17015.52,25.52,-1.00,-1.0,2368
1915,2136915,16936,848,1148,16996.03,25.52,-1.00,-1.0,2438
1918,2136918,16944,860,1088,17000.66,25.42,-1.00,-1.0,2365
1921,2136921,16972,908,1128,17033.66,25.47,-1.00,-1.0,2444
1924,2136924,16972,852,1156,17032.65,25.47,-1.00,-1.0,2372
1929,2136929,16952,928,1260,17024.07,25.47,-1.00,-1.0,2449
1932,2136932,16964,816,1072,17017.41,25.47,-1.00,-1.0,2364
1934,2136934,16976,900,1248,17045.59,25.42,-1.00,-1.0,2437
1937,2136937,17008,896,1280,17079.62,25.47,-1.00,-1.0,2365
1940,2136940,17008,900,1144,17070.17,25.42,-1.00,-1.0,2439
1943,2136943,16924,904,1240,16993.43,25.47,-1.00,-1.0,2366
1945,2136945,17000,864,1168,17061.97,25.47,-1.00,-1.0,2438
1948,2136948,16920,904,1028,16975.29,25.47,-1.00,-1.0,2353
1951,2136951,17008,804,1112,17063.27,25.47,-1.00,-1.0,2363
1956,2136956,16900,816,1136,16957.78,25.47,-1.00,-1.0,2463
1959,2136959,16880,896,1128,16941.36,25.38,-1.00,-1.0,2373
1962,2136962,16984,920,1216,17052.31,25.47,-1.00,-1.0,2447
1964,2136964,17020,868,1256,17088.34,25.42,-1.00,-1.0,2366
1967,2136967,17012,796,1152,17069.53,25.47,-1.00,-1.0,2448
1970,2136970,16996,848,1168,17057.18,25.57,-1.00,-1.0,2373
1973,2136973,17060,912,1144,17122.62,25.38,-1.00,-1.0,2447
1975,2136975,17000,832,1268,17067.51,25.47,-1.00,-1.0,2368
1980,2136980,17020,912,1208,17087.17,25.42,-1.00,-1.0,2451
1983,2136983,16968,844,1176,17029.63,25.52,-1.00,-1.0,2365
1986,2136986,17000,952,1224,17070.57,25.47,-1.00,-1.0,2446
1988,2136988,16924,812,1132,16981.24,25.42,-1.00,-1.0,2364
1991,2136991,16992,848,904,17037.15,25.47,-1.00,-1.0,2367
1994,2136994,17032,888,1144,17093.46,25.57,-1.00,-1.0,2447
1996,2136996,16948,892,1140,17009.70,25.47,-1.00,-1.0,2365
1999,2136999,17000,948,1068,17059.88,25.57,-1.00,-1.0,2450
2002,2137002,17008,948,1180,17075.22,25.42,-1.00,-1.0,2422
2007,2137007,16940,836,1172,17001.06,25.52,-1.00,-1.0,2448
2010,2137010,16932,776,1104,16985.69,25.47,-1.00,-1.0,2365
2013,2137013,16968,884,1096,17026.32,25.47,-1.00,-1.0,2443
2015,2137015,16848,856,1032,16901.27,25.38,-1.00,-1.0,2364
2018,2137018,16956,892,1192,17021.24,25.38,-1.00,-1.0,2436
2021,2137021,16992,828,1236,17057.00,25.42,-1.00,-1.0,2364
2024,2137024,17036,836,1152,17095.36,25.38,-1.00,-1.0,2438
2026,2137026,17052,824,1168,17111.81,25.42,-1.00,-1.0,2364
2029,2137029,17016,924,1180,17081.88,25.42,-1.00,-1.0,2359
2034,2137034,17012,904,1308,17086.14,25.52,-1.00,-1.0,2467
2037,2137037,16976,896,1216,17043.06,25.47,-1.00,-1.0,2364
2040,2137040,16996,888,1160,17058.67,25.38,-1.00,-1.0,2445
2042,2137042,16916,844,1216,16980.64,25.47,-1.00,-1.0,2361
2045,2137045,16952,836,1184,17013.85,25.42,-1.00,-1.0,2454
2048,2137048,16956,824,1120,17012.92,25.47,-1.00,-1.0,2363
2051,2137051,16976,812,1048,17027.69,25.42,-1.00,-1.0,2446
2053,2137053,16936,788,1164,16994.23,25.38,-1.00,-1.0,2362
2058,2137058,16956,828,1144,17014.71,25.47,-1.00,-1.0,2447
2061,2137061,17036,852,1172,17097.51,25.42,-1.00,-1.0,2362
2064,2137064,16996,812,1164,17055.15,25.47,-1.00,-1.0,2438
2067,2137067,16948,808,1108,17003.39,25.47,-1.00,-1.0,2362
2069,2137069,17028,808,1224,17091.04,25.38,-1.00,-1.0,2362
2072,2137072,16956,916,1208,17023.64,25.42,-1.00,-1.0,2455
2075,2137075,16984,812,1104,17039.20,25.38,-1.00,-1.0,2373
2077,2137077,16992,848,1252,17059.15,25.42,-1.00,-1.0,2445
2080,2137080,16904,808,1148,16962.19,25.38,-1.00,-1.0,2364
2085,2137085,16992,792,1168,17050.50,25.38,-1.00,-1.0,2449
2088,2137088,16924,840,1192,16986.71,25.47,-1.00,-1.0,2364
2091,2137091,17016,872,1120,17075.10,25.42,-1.00,-1.0,2449
2093,2137093,16888,852,1232,16954.30,25.38,-1.00,-1.0,2348
2096,2137096,16924,908,1264,16995.41,25.57,-1.00,-1.0,2441
2099,2137099,16956,876,1284,17027.10,25.47,-1.00,-1.0,2363
2102,2137102,17004,824,1200,17066.20,25.38,-1.00,-1.0,2445
2104,2137104,17008,784,1124,17063.12,25.47,-1.00,-1.0,2362
2107,2137107,16940,840,1236,17005.79,25.47,-1.00,-1.0,2360
2112,2137112,16984,868,1156,17045.41,25.42,-1.00,-1.0,2463
2115,2137115,17028,808,1188,17088.50,25.42,-1.00,-1.0,2368
2118,2137118,16964,884,1132,17024.69,25.52,-1.00,-1.0,2447
2120,2137120,17012,800,1328,17082.50,25.42,-1.00,-1.0,2362
2123,2137123,16972,844,1124,17030.11,25.42,-1.00,-1.0,2449
2126,2137126,17008,856,1104,17065.28,25.52,-1.00,-1.0,2370
2129,2137129,17004,800,1328,17074.53,25.42,-1.00,-1.0,2448
2131,2137131,17048,784,1196,17107.88,25.52,-1.00,-1.0,2363
2136,2137136,16864,896,1160,16927.58,25.47,-1.00,-1.0,2469
2139,2137139,16984,876,1112,17042.89,25.47,-1.00,-1.0,2366
2142,2137142,17052,840,1236,17117.36,25.42,-1.00,-1.0,2445
2144,2137144,16936,768,1328,17005.34,25.42,-1.00,-1.0,2364
2147,2137147,16972,836,1048,17024.86,25.42,-1.00,-1.0,2376
2150,2137150,16844,888,1076,16901.68,25.38,-1.00,-1.0,2442
2152,2137152,17076,804,1160,17134.23,25.33,-1.00,-1.0,2369
2155,2137155,16972,908,1252,17042.32,25.38,-1.00,-1.0,2447
2158,2137158,17052,800,1148,17109.31,25.42,-1.00,-1.0,2373
2163,2137163,16988,868,1188,17051.60,25.42,-1.00,-1.0,2448
2166,2137166,16952,880,1192,17016.63,25.42,-1.00,-1.0,2364
2169,2137169,17112,816,1200,17173.42,25.42,-1.00,-1.0,2449
2171,2137171,16956,920,1136,17018.90,25.52,-1.00,-1.0,2362
2174,2137174,16948,908,1052,17004.88,25.38,-1.00,-1.0,2454
2177,2137177,16916,840,1096,16972.27,25.42,-1.00,-1.0,2364
2180,2137180,16924,816,1132,16981.43,25.42,-1.00,-1.0,2447
2182,2137182,16936,812,1296,17004.91,25.42,-1.00,-1.0,2363
2185,2137185,16952,884,1392,17032.01,25.38,-1.00,-1.0,2371
2190,2137190,17072,916,1248,17142.05,25.47,-1.00,-1.0,2455
2193,2137193,16968,828,1076,17022.23,25.42,-1.00,-1.0,2371
2196,2137196,16932,884,1156,16994.42,25.38,-1.00,-1.0,2427
2198,2137198,17004,884,1260,17073.52,25.42,-1.00,-1.0,2363
2201,2137201,17096,856,1164,17156.95,25.57,-1.00,-1.0,2451
2204,2137204,16952,808,1216,17014.75,25.52,-1.00,-1.0,2371
2207,2137207,17016,760,1172,17073.24,25.47,-1.00,-1.0,2446
2209,2137209,17004,792,1032,17053.69,25.52,-1.00,-1.0,2363
2215,2137215,16968,948,1132,17032.12,25.52,-1.00,-1.0,2455
2217,2137217,16952,788,1148,17009.09,25.42,-1.00,-1.0,2364
2220,2137220,16984,884,1164,17046.78,25.42,-1.00,-1.0,2361
2223,2137223,16956,848,1248,17023.00,25.57,-1.00,-1.0,2447
2225,2137225,17064,896,1048,17119.62,25.42,-1.00,-1.0,2363
2228,2137228,16992,936,1168,17057.79,25.38,-1.00,-1.0,2445
2231,2137231,17036,848,1344,17109.96,25.42,-1.00,-1.0,2364
2234,2137234,16972,860,1224,17037.80,25.57,-1.00,-1.0,2446
2236,2137236,16992,880,1140,17052.92,25.42,-1.00,-1.0,2363
2241,2137241,16980,884,1056,17035.76,25.42,-1.00,-1.0,2448
2244,2137244,17048,780,1260,17112.29,25.42,-1.00,-1.0,2364
2247,2137247,17016,908,1228,17084.40,25.42,-1.00,-1.0,2438
2250,2137250,17016,800,1068,17068.24,25.42,-1.00,-1.0,2363
2252,2137252,17000,880,1136,17060.62,25.42,-1.00,-1.0,2440
2255,2137255,16904,924,1236,16974.29,25.38,-1.00,-1.0,2425
2258,2137258,16932,800,1280,16999.15,25.42,-1.00,-1.0,2366
2261,2137261,17028,732,1236,17088.48,25.42,-1.00,-1.0,2439
2263,2137263,16984,752,1100,17036.19,25.42,-1.00,-1.0,2372
2268,2137268,17004,872,1176,17066.91,25.42,-1.00,-1.0,2447
2271,2137271,17000,884,1260,17069.54,25.38,-1.00,-1.0,2368
2274,2137274,16992,788,1188,17051.70,25.42,-1.00,-1.0,2437
2276,2137276,16996,856,1240,17062.66,25.47,-1.00,-1.0,2368
2279,2137279,17076,896,1268,17146.44,25.42,-1.00,-1.0,2439
2282,2137282,17040,704,1156,17093.67,25.47,-1.00,-1.0,2373
2285,2137285,17000,912,1208,17067.25,25.52,-1.00,-1.0,2438
2287,2137287,17000,868,1276,17069.90,25.47,-1.00,-1.0,2370
2292,2137292,16976,848,1128,17034.55,25.57,-1.00,-1.0,2444
2295,2137295,16984,832,1260,17050.98,25.38,-1.00,-1.0,2368
2298,2137298,16976,872,1068,17031.90,25.42,-1.00,-1.0,2364
2301,2137301,16960,852,1148,17020.15,25.42,-1.00,-1.0,2448
2303,2137303,16992,876,1120,17051.39,25.42,-1.00,-1.0,2376
2306,2137306,17024,880,1196,17088.63,25.42,-1.00,-1.0,2437
2309,2137309,16956,892,1320,17030.68,25.42,-1.00,-1.0,2370
2312,2137312,16928,824,1160,16987.70,25.52,-1.00,-1.0,2448
2314,2137314,17000,728,1200,17057.84,25.47,-1.00,-1.0,2366
2319,2137319,16996,848,1164,17056.90,25.47,-1.00,-1.0,2445
2322,2137322,16916,840,1224,16981.01,25.42,-1.00,-1.0,2365
2325,2137325,17000,884,1200,17065.21,25.47,-1.00,-1.0,2444
2327,2137327,16948,808,1260,17013.97,25.57,-1.00,-1.0,2352
2330,2137330,16912,768,1108,16965.65,25.38,-1.00,-1.0,2437
2333,2137333,16960,812,1128,17016.85,25.42,-1.00,-1.0,2366
2335,2137335,16944,828,1276,17012.14,25.47,-1.00,-1.0,2361
2338,2137338,16928,804,1252,16993.27,25.52,-1.00,-1.0,2438
2341,2137341,16924,876,1364,17001.46,25.47,-1.00,-1.0,2367
2346,2137346,16932,788,1228,16994.75,25.42,-1.00,-1.0,2453
2349,2137349,17020,868,1248,17087.75,25.42,-1.00,-1.0,2374
2352,2137352,17004,800,1296,17072.07,25.42,-1.00,-1.0,2425
2354,2137354,16928,848,1172,16989.70,25.47,-1.00,-1.0,2367
2357,2137357,16920,860,1160,16981.51,25.42,-1.00,-1.0,2450
2360,2137360,16952,852,1240,17018.63,25.57,-1.00,-1.0,2366
2363,2137363,16880,848,1312,16952.13,25.52,-1.00,-1.0,2444
2365,2137365,16996,896,1156,17058.81,25.47,-1.00,-1.0,2366
2370,2137370,16984,888,1164,17046.98,25.38,-1.00,-1.0,2444
2373,2137373,17016,900,1096,17075.00,25.38,-1.00,-1.0,2366
2376,2137376,17008,924,1104,17068.82,25.42,-1.00,-1.0,2367
2378,2137378,16964,856,1200,17027.92,25.42,-1.00,-1.0,2451
2381,2137381,16952,944,1180,17019.22,25.42,-1.00,-1.0,2369
2384,2137384,17020,852,1156,17080.47,25.42,-1.00,-1.0,2451
2387,2137387,17032,832,1172,17092.54,25.42,-1.00,-1.0,2374
2390,2137390,16948,792,1180,17007.48,25.52,-1.00,-1.0,2451
2392,2137392,16932,848,1172,16993.68,25.52,-1.00,-1.0,2373
2397,2137397,17016,916,1228,17084.83,25.52,-1.00,-1.0,2444
2400,2137400,16960,880,1172,17023.21,25.47,-1.00,-1.0,2365
2403,2137403,16904,804,1212,16966.46,25.52,-1.00,-1.0,2437
2406,2137406,16852,856,1216,16917.48,25.47,-1.00,-1.0,2374
2408,2137408,16988,880,1136,17048.67,25.52,-1.00,-1.0,2436
2411,2137411,16992,948,1132,17056.03,25.47,-1.00,-1.0,2365
2414,2137414,16932,856,1184,16994.92,25.42,-1.00,-1.0,2370
2417,2137417,16912,916,1292,16986.00,25.47,-1.00,-1.0,2449
2419,2137419,16968,876,1204,17033.20,25.42,-1.00,-1.0,2376
2424,2137424,16968,900,1040,17023.65,25.52,-1.00,-1.0,2444
2427,2137427,16816,856,1144,16876.59,25.42,-1.00,-1.0,2367
2430,2137430,16920,892,1312,16994.22,25.42,-1.00,-1.0,2452
2433,2137433,16956,900,1188,17021.38,25.42,-1.00,-1.0,2377
2435,2137435,16920,876,1068,16976.29,25.42,-1.00,-1.0,2449
2438,2137438,16996,884,1280,17067.04,25.52,-1.00,-1.0,2369
2441,2137441,17056,948,1056,17114.93,25.47,-1.00,-1.0,2451
2444,2137444,16944,780,1208,17004.90,25.52,-1.00,-1.0,2377
2449,2137449,16980,836,1184,17041.75,25.42,-1.00,-1.0,2447
2451,2137451,16996,804,1244,17060.42,25.52,-1.00,-1.0,2365
2454,2137454,16964,840,1120,17021.67,25.42,-1.00,-1.0,2368
2457,2137457,16960,832,1304,17030.39,25.42,-1.00,-1.0,2441
2459,2137459,17044,888,1152,17105.95,25.42,-1.00,-1.0,2367
2462,2137462,16880,792,1196,16940.84,25.38,-1.00,-1.0,2447
2465,2137465,17020,892,1260,17089.87,25.42,-1.00,-1.0,2365
2468,2137468,16980,920,1320,17056.06,25.42,-1.00,-1.0,2446
2471,2137471,16956,808,1328,17027.11,25.47,-1.00,-1.0,2367
2476,2137476,17040,812,1164,17099.00,25.38,-1.00,-1.0,2450
2478,2137478,16948,776,1152,17004.82,25.47,-1.00,-1.0,2374
2481,2137481,17036,880,1256,17104.89,25.47,-1.00,-1.0,2445
2484,2137484,17044,844,1276,17112.52,25.42,-1.00,-1.0,2370
2487,2137487,17004,856,1224,17069.47,25.38,-1.00,-1.0,2447
2489,2137489,16988,824,1224,17051.96,25.47,-1.00,-1.0,2375
2492,2137492,16908,804,1172,16967.63,25.47,-1.00,-1.0,2360
2495,2137495,16948,880,1204,17013.49,25.42,-1.00,-1.0,2441
2498,2137498,16992,948,1112,17054.71,25.38,-1.00,-1.0,2367
2503,2137503,16944,876,1140,17004.88,25.47,-1.00,-1.0,2446
2505,2137505,17012,864,1272,17081.35,25.47,-1.00,-1.0,2373
2508,2137508,16992,812,1308,17061.60,25.52,-1.00,-1.0,2436
2511,2137511,17056,868,1292,17126.88,25.38,-1.00,-1.0,2367
2514,2137514,16992,900,1304,17065.71,25.42,-1.00,-1.0,2467
2516,2137516,16976,960,1332,17055.22,25.33,-1.00,-1.0,2364
2519,2137519,16960,728,1236,17020.55,25.47,-1.00,-1.0,2455
2522,2137522,17032,904,1216,17099.27,25.47,-1.00,-1.0,2363
2527,2137527,17032,852,1152,17092.16,25.38,-1.00,-1.0,2446
2530,2137530,17064,880,1208,17129.32,25.47,-1.00,-1.0,2362
2533,2137533,16936,824,1256,17002.49,25.47,-1.00,-1.0,2364
2536,2137536,16948,824,1092,17003.12,25.42,-1.00,-1.0,2449
2538,2137538,16992,808,1140,17049.36,25.47,-1.00,-1.0,2373
2541,2137541,16952,884,1168,17015.17,25.42,-1.00,-1.0,2445
2544,2137544,16912,932,1100,16973.34,25.47,-1.00,-1.0,2366
2547,2137547,16976,932,1172,17041.91,25.61,-1.00,-1.0,2449
2549,2137549,16980,808,1104,17035.03,25.47,-1.00,-1.0,2373
2554,2137554,16972,764,1028,17020.26,25.42,-1.00,-1.0,2446
2557,2137557,16964,816,1136,17021.56,25.52,-1.00,-1.0,2361
2560,2137560,16996,832,1188,17057.77,25.52,-1.00,-1.0,2444
2562,2137562,16876,820,1124,16933.26,25.42,-1.00,-1.0,2363
2565,2137565,16984,888,1160,17046.71,25.47,-1.00,-1.0,2440
2568,2137568,17024,908,1176,17088.71,25.52,-1.00,-1.0,2349
2570,2137570,17028,784,1284,17094.33,25.33,-1.00,-1.0,2359
2573,2137573,17072,880,1132,17132.11,25.47,-1.00,-1.0,2440
2576,2137576,17024,860,1252,17091.63,25.52,-1.00,-1.0,2362
2581,2137581,16960,904,1160,17023.64,25.42,-1.00,-1.0,2445
2584,2137584,16956,872,1116,17015.04,25.42,-1.00,-1.0,2363
2586,2137586,16952,880,1160,17014.41,25.42,-1.00,-1.0,2439
2589,2137589,17020,840,1180,17081.52,25.42,-1.00,-1.0,2363
2592,2137592,16964,800,1148,17021.61,25.42,-1.00,-1.0,2438
2595,2137595,16940,848,1204,17003.89,25.52,-1.00,-1.0,2365
2597,2137597,16980,852,1296,17050.69,25.52,-1.00,-1.0,2438
2600,2137600,17028,848,1036,17080.55,25.52,-1.00,-1.0,2365
2603,2137603,16944,760,1132,16998.77,25.38,-1.00,-1.0,2368
2608,2137608,17004,924,1160,17068.55,25.47,-1.00,-1.0,2454
2610,2137610,16864,836,1184,16926.17,25.38,-1.00,-1.0,2363
2613,2137613,17060,812,1208,17121.98,25.47,-1.00,-1.0,2440
2616,2137616,16992,724,1140,17045.58,25.38,-1.00,-1.0,2362
2619,2137619,17012,820,1124,17068.80,25.47,-1.00,-1.0,2446
2621,2137621,16984,900,1044,17039.84,25.47,-1.00,-1.0,2363
2624,2137624,17072,936,1256,17143.71,25.47,-1.00,-1.0,2439
2627,2137627,17020,884,1308,17093.06,25.38,-1.00,-1.0,2361
2632,2137632,17112,836,1076,17166.16,25.42,-1.00,-1.0,2447
2635,2137635,16992,816,1260,17058.18,25.42,-1.00,-1.0,2363
2637,2137637,17060,772,1264,17124.17,25.57,-1.00,-1.0,2438
2640,2137640,16940,840,1100,16996.45,25.42,-1.00,-1.0,2362
2643,2137643,17000,864,1228,17066.18,25.52,-1.00,-1.0,2359
2645,2137645,17048,832,1316,17118.95,25.47,-1.00,-1.0,2439
2648,2137648,17012,796,1152,17069.53,25.38,-1.00,-1.0,2363
2651,2137651,16948,796,1324,17018.26,25.47,-1.00,-1.0,2438
2654,2137654,16996,808,1232,17059.74,25.42,-1.00,-1.0,2364
2659,2137659,16916,892,1204,16982.24,25.47,-1.00,-1.0,2447
2662,2137662,17016,836,1092,17071.49,25.47,-1.00,-1.0,2370
2664,2137664,16956,868,1180,17019.16,25.42,-1.00,-1.0,2438
2667,2137667,16960,804,1164,17018.90,25.47,-1.00,-1.0,2361
2670,2137670,17008,832,1188,17069.73,25.42,-1.00,-1.0,2439
2673,2137673,16968,920,1112,17029.27,25.47,-1.00,-1.0,2363
2675,2137675,16988,892,1216,17054.81,25.57,-1.00,-1.0,2438
2678,2137678,16976,840,1096,17032.07,25.38,-1.00,-1.0,2362
2681,2137681,17064,768,1220,17124.79,25.42,-1.00,-1.0,2363
2686,2137686,16988,832,1172,17048.69,25.42,-1.00,-1.0,2454
2688,2137688,16920,912,1092,16979.71,25.52,-1.00,-1.0,2363
2691,2137691,17008,884,1040,17062.68,25.52,-1.00,-1.0,2452
2694,2137694,16924,904,1228,16992.56,25.52,-1.00,-1.0,2362
2697,2137697,17088,812,1204,17149.60,25.42,-1.00,-1.0,2445
2699,2137699,16964,748,1252,17026.58,25.42,-1.00,-1.0,2363
2702,2137702,17028,796,1328,17098.24,25.42,-1.00,-1.0,2446
2705,2137705,16984,792,1188,17043.91,25.52,-1.00,-1.0,2362
2710,2137710,16976,864,1324,17049.46,25.47,-1.00,-1.0,2434
2713,2137713,16932,852,1184,16994.72,25.47,-1.00,-1.0,2363
2715,2137715,16932,904,1220,16999.95,25.47,-1.00,-1.0,2439
2718,2137718,17008,892,1108,17067.38,25.47,-1.00,-1.0,2362
2721,2137721,16908,920,1144,16971.61,25.33,-1.00,-1.0,2367
2723,2137723,16908,900,1288,16980.85,25.42,-1.00,-1.0,2439
2726,2137726,17020,764,1316,17087.89,25.52,-1.00,-1.0,2363
2729,2137729,16972,868,1108,17030.26,25.42,-1.00,-1.0,2438
2732,2137732,16988,828,1168,17048.22,25.38,-1.00,-1.0,2362
2737,2137737,17028,812,1300,17096.85,25.42,-1.00,-1.0,2447
2739,2137739,17040,904,1196,17105.82,25.38,-1.00,-1.0,2363
2742,2137742,17028,792,1100,17081.86,25.52,-1.00,-1.0,2439
2745,2137745,17052,900,1244,17120.99,25.47,-1.00,-1.0,2362
2748,2137748,16988,864,1332,17062.03,25.42,-1.00,-1.0,2435
2750,2137750,16956,868,1112,17014.58,25.57,-1.00,-1.0,2352
2753,2137753,16964,924,1176,17029.80,25.47,-1.00,-1.0,2440
2756,2137756,17032,868,1120,17090.84,25.38,-1.00,-1.0,2362
2759,2137759,16936,836,1196,16998.75,25.47,-1.00,-1.0,2359
2764,2137764,17044,748,1236,17105.12,25.42,-1.00,-1.0,2454
2766,2137766,16988,936,1088,17048.52,25.42,-1.00,-1.0,2364
2769,2137769,16972,916,1196,17038.73,25.42,-1.00,-1.0,2439
2772,2137772,17024,904,1140,17086.06,25.42,-1.00,-1.0,2363
2775,2137775,16940,836,1204,17003.30,25.42,-1.00,-1.0,2446
2777,2137777,17060,828,1156,17119.16,25.42,-1.00,-1.0,2365
2780,2137780,16976,812,1160,17034.95,25.42,-1.00,-1.0,2438
2783,2137783,16956,892,1240,17024.66,25.42,-1.00,-1.0,2364
2788,2137788,16880,820,1140,16938.31,25.52,-1.00,-1.0,2447
2791,2137791,16980,884,1312,17053.54,25.47,-1.00,-1.0,2365
2793,2137793,16948,800,1240,17012.12,25.52,-1.00,-1.0,2436
2796,2137796,17028,900,1216,17095.07,25.38,-1.00,-1.0,2365
2799,2137799,16992,936,1284,17066.13,25.42,-1.00,-1.0,2359
2801,2137801,17016,836,1332,17088.52,25.42,-1.00,-1.0,2425
2804,2137804,16948,824,1128,17005.47,25.42,-1.00,-1.0,2364
2807,2137807,17000,828,1312,17070.64,25.47,-1.00,-1.0,2437
2810,2137810,17044,820,1100,17099.13,25.52,-1.00,-1.0,2363
2815,2137815,16956,884,1184,17020.26,25.42,-1.00,-1.0,2447
2818,2137818,16964,804,1220,17026.81,25.42,-1.00,-1.0,2363
2820,2137820,16984,776,1016,17032.05,25.42,-1.00,-1.0,2437
2823,2137823,17012,820,1108,17067.75,25.42,-1.00,-1.0,2363
2826,2137826,16892,916,1104,16952.80,25.42,-1.00,-1.0,2438
2829,2137829,16944,856,1252,17011.74,25.42,-1.00,-1.0,2365
2831,2137831,16976,780,1092,17028.96,25.52,-1.00,-1.0,2436
2834,2137834,16976,848,1292,17046.20,25.42,-1.00,-1.0,2366
2837,2137837,16920,804,1228,16983.54,25.38,-1.00,-1.0,2360
2842,2137842,17000,888,1248,17068.86,25.52,-1.00,-1.0,2433
2845,2137845,17028,876,1092,17085.45,25.42,-1.00,-1.0,2363
2847,2137847,17008,776,1184,17066.81,25.42,-1.00,-1.0,2436
2850,2137850,16948,824,1164,17007.90,25.42,-1.00,-1.0,2364
2853,2137853,17040,904,1168,17103.89,25.52,-1.00,-1.0,2438
2856,2137856,16960,856,1160,17021.16,25.42,-1.00,-1.0,2363
2858,2137858,16928,868,1224,16994.38,25.52,-1.00,-1.0,2436
2861,2137861,16880,836,1212,16944.09,25.47,-1.00,-1.0,2426
2866,2137866,16964,868,1224,17030.23,25.47,-1.00,-1.0,2449
2869,2137869,16896,936,1196,16964.12,25.47,-1.00,-1.0,2365
2872,2137872,16872,776,1124,16927.20,25.42,-1.00,-1.0,2443
2874,2137874,16888,728,1184,16945.10,25.47,-1.00,-1.0,2364
2877,2137877,16932,872,1216,16997.99,25.52,-1.00,-1.0,2367
2880,2137880,17000,852,1072,17055.06,25.52,-1.00,-1.0,2436
2882,2137882,16904,844,1004,16954.81,25.52,-1.00,-1.0,2372
2885,2137885,17016,860,1200,17079.93,25.42,-1.00,-1.0,2437
2888,2137888,16984,916,1116,17045.26,25.52,-1.00,-1.0,2379
2893,2137893,16980,936,1104,17041.58,25.33,-1.00,-1.0,2459
2896,2137896,16984,816,1220,17047.30,25.52,-1.00,-1.0,2373
2899,2137899,17004,812,1080,17057.60,25.42,-1.00,-1.0,2446
2901,2137901,16936,772,1200,16996.00,25.52,-1.00,-1.0,2367
2904,2137904,17024,840,1088,17079.40,25.52,-1.00,-1.0,2444
2907,2137907,17020,860,1136,17079.54,25.33,-1.00,-1.0,2373
2910,2137910,17004,812,1112,17059.66,25.42,-1.00,-1.0,2446
2912,2137912,17020,920,1276,17092.54,25.52,-1.00,-1.0,2369
2915,2137915,17000,856,1128,17058.87,25.42,-1.00,-1.0,2374
2920,2137920,17032,868,1224,17097.97,25.42,-1.00,-1.0,2444
2923,2137923,17008,832,1168,17068.35,25.61,-1.00,-1.0,2376
2925,2137925,17032,888,1260,17101.61,25.42,-1.00,-1.0,2451
2928,2137928,17036,916,1120,17097.33,25.33,-1.00,-1.0,2367
2931,2137931,16896,900,1156,16959.40,25.42,-1.00,-1.0,2450
2934,2137934,16944,752,1292,17009.82,25.42,-1.00,-1.0,2372
2936,2137936,17060,836,1196,17122.29,25.42,-1.00,-1.0,2445
2939,2137939,16956,840,1256,17023.19,25.33,-1.00,-1.0,2370
2944,2137944,16904,872,1116,16963.23,25.38,-1.00,-1.0,2453
2947,2137947,17028,808,1140,17085.23,25.42,-1.00,-1.0,2366
2950,2137950,16892,884,1184,16956.50,25.47,-1.00,-1.0,2447
2952,2137952,17052,816,1272,17118.84,25.33,-1.00,-1.0,2374
2955,2137955,16896,808,1196,16957.54,25.57,-1.00,-1.0,2347
2958,2137958,17044,900,1236,17112.44,25.38,-1.00,-1.0,2433
2960,2137960,17060,796,1108,17114.46,25.42,-1.00,-1.0,2354
2963,2137963,17032,816,1184,17092.59,25.47,-1.00,-1.0,2436
2966,2137966,16952,832,1184,17013.65,25.47,-1.00,-1.0,2367
2971,2137971,16992,700,1156,17045.66,25.38,-1.00,-1.0,2444
2974,2137974,16884,724,1248,16945.54,25.38,-1.00,-1.0,2365
2976,2137976,16968,812,1092,17022.48,25.47,-1.00,-1.0,2435
2979,2137979,17020,816,1228,17083.74,25.47,-1.00,-1.0,2365
2982,2137982,17004,880,1240,17071.85,25.57,-1.00,-1.0,2438
2985,2137985,17044,828,1168,17104.03,25.47,-1.00,-1.0,2365
2987,2137987,16996,916,1032,17051.92,25.42,-1.00,-1.0,2364
2990,2137990,17016,944,1108,17078.15,25.47,-1.00,-1.0,2435
2993,2137993,17028,820,1104,17083.44,25.47,-1.00,-1.0,2365
2998,2137998,17060,908,1328,17135.68,25.38,-1.00,-1.0,2449
3001,2138001,17008,864,1244,17075.31,25.47,-1.00,-1.0,2365
3004,2138004,16940,900,1260,17010.62,25.38,-1.00,-1.0,2446
3006,2138006,16876,836,1132,16934.57,25.52,-1.00,-1.0,2373
3009,2138009,17024,820,1084,17078.17,25.38,-1.00,-1.0,2437
3012,2138012,16992,820,1116,17048.34,25.38,-1.00,-1.0,2364
3015,2138015,16972,856,1148,17032.30,25.38,-1.00,-1.0,2447
3017,2138017,16940,872,1180,17003.42,25.52,-1.00,-1.0,2373
3022,2138022,17004,832,1200,17066.58,25.42,-1.00,-1.0,2450
3025,2138025,17008,768,1236,17070.14,25.42,-1.00,-1.0,2372
3028,2138028,17104,836,1112,17160.48,25.38,-1.00,-1.0,2362
3030,2138030,16984,948,1192,17052.15,25.52,-1.00,-1.0,2436
3033,2138033,16940,892,1180,17004.46,25.47,-1.00,-1.0,2368
3036,2138036,17048,952,1224,17118.38,25.38,-1.00,-1.0,2435
3039,2138039,16932,872,1116,16991.13,25.42,-1.00,-1.0,2430
3042,2138042,16872,960,1108,16935.57,25.47,-1.00,-1.0,2445
3044,2138044,17020,876,1176,17083.05,25.57,-1.00,-1.0,2379
3049,2138049,16840,816,1148,16898.80,25.38,-1.00,-1.0,2454
3052,2138052,16956,912,1152,17019.54,25.47,-1.00,-1.0,2370
3055,2138055,16876,820,1104,16931.94,25.47,-1.00,-1.0,2438
3057,2138057,17000,876,1072,17056.28,25.47,-1.00,-1.0,2371
3060,2138060,16984,948,1168,17050.49,25.47,-1.00,-1.0,2444
3063,2138063,16948,852,1152,17008.46,25.57,-1.00,-1.0,2370
3066,2138066,16968,864,1256,17036.35,25.38,-1.00,-1.0,2362
3068,2138068,16992,820,1172,17052.10,25.33,-1.00,-1.0,2437
3071,2138071,16996,864,1132,17055.55,25.52,-1.00,-1.0,2365
3076,2138076,16988,836,1100,17044.09,25.52,-1.00,-1.0,2430
3079,2138079,16968,908,1140,17030.47,25.38,-1.00,-1.0,2366
3082,2138082,17032,836,1044,17084.43,25.52,-1.00,-1.0,2438
3084,2138084,17012,860,1172,17074.00,25.38,-1.00,-1.0,2363
3087,2138087,16976,788,1128,17031.67,25.52,-1.00,-1.0,2429
3090,2138090,16976,884,1164,17038.81,25.47,-1.00,-1.0,2377
3093,2138093,17028,824,1116,17084.41,25.52,-1.00,-1.0,2437
3095,2138095,17004,828,1156,17063.35,25.47,-1.00,-1.0,2377
3100,2138100,16944,876,1344,17019.78,25.47,-1.00,-1.0,2443
3103,2138103,16992,892,1192,17057.10,25.42,-1.00,-1.0,2365
3106,2138106,16984,840,1220,17048.47,25.47,-1.00,-1.0,2354
3109,2138109,16976,892,1140,17037.60,25.42,-1.00,-1.0,2450
3111,2138111,17020,900,1304,17093.59,25.47,-1.00,-1.0,2376
3114,2138114,17028,772,1248,17091.12,25.52,-1.00,-1.0,2442
3117,2138117,16896,856,1152,16956.85,25.38,-1.00,-1.0,2367
3120,2138120,16948,752,1252,17010.81,25.42,-1.00,-1.0,2447
3122,2138122,16892,820,1284,16960.56,25.47,-1.00,-1.0,2375
3127,2138127,16992,896,1264,17062.49,25.38,-1.00,-1.0,2443
3130,2138130,17048,784,948,17092.33,25.57,-1.00,-1.0,2365
3133,2138133,16948,920,1200,17015.32,25.38,-1.00,-1.0,2442
3135,2138135,17000,856,1148,17060.21,25.47,-1.00,-1.0,2368
3138,2138138,17000,856,1084,17056.02,25.47,-1.00,-1.0,2454
3141,2138141,16940,840,1212,17004.06,25.47,-1.00,-1.0,2364
3143,2138143,16992,860,1128,17051.10,25.52,-1.00,-1.0,2362
3146,2138146,17052,856,1132,17110.96,25.52,-1.00,-1.0,2444
3149,2138149,17048,912,1280,17120.29,25.47,-1.00,-1.0,2368
3154,2138154,16960,940,1144,17024.51,25.52,-1.00,-1.0,2453
3157,2138157,16976,792,1212,17037.63,25.42,-1.00,-1.0,2365
3160,2138160,16896,856,1224,16961.89,25.33,-1.00,-1.0,2445
3162,2138162,16960,916,1288,17033.48,25.42,-1.00,-1.0,2375
3165,2138165,17036,872,1056,17090.96,25.42,-1.00,-1.0,2436
3168,2138168,16992,716,1152,17046.05,25.52,-1.00,-1.0,2366
3171,2138171,17036,828,1188,17097.43,25.52,-1.00,-1.0,2445
3173,2138173,17044,860,1184,17106.71,25.52,-1.00,-1.0,2373
3178,2138178,16940,868,1160,17001.84,25.42,-1.00,-1.0,2443
3181,2138181,17020,844,1292,17089.82,25.33,-1.00,-1.0,2367
3183,2138183,16992,812,1244,17056.81,25.57,-1.00,-1.0,2360
3186,2138186,16844,872,1148,16905.58,25.47,-1.00,-1.0,2439
3189,2138189,17024,860,1156,17084.86,25.47,-1.00,-1.0,2365
3192,2138192,17024,856,1192,17087.13,25.38,-1.00,-1.0,2442
3194,2138194,16940,776,1200,17000.17,25.38,-1.00,-1.0,2364
3197,2138197,17008,904,1148,17070.65,25.57,-1.00,-1.0,2437
3200,2138200,16996,768,1260,17059.94,25.52,-1.00,-1.0,2372
3205,2138205,16984,812,1208,17046.26,25.33,-1.00,-1.0,2453
3208,2138208,17052,812,1168,17111.23,25.42,-1.00,-1.0,2380
3211,2138211,16956,972,1212,17027.03,25.33,-1.00,-1.0,2441
3213,2138213,16932,920,1220,17000.81,25.52,-1.00,-1.0,2371
3216,2138216,16912,836,1276,16980.66,25.47,-1.00,-1.0,2442
3219,2138219,16940,828,1168,17000.39,25.52,-1.00,-1.0,2379
3222,2138222,16952,864,1120,17010.91,25.47,-1.00,-1.0,2359
3224,2138224,17004,820,1228,17067.99,25.38,-1.00,-1.0,2436
3227,2138227,16940,764,1208,17000.19,25.47,-1.00,-1.0,2367
3232,2138232,16904,780,988,16950.80,25.42,-1.00,-1.0,2452
3235,2138235,16992,856,1356,17067.50,25.52,-1.00,-1.0,2378
3238,2138238,16956,888,1124,17016.40,25.57,-1.00,-1.0,2438
3240,2138240,17016,924,1268,17088.18,25.42,-1.00,-1.0,2373
3243,2138243,16996,856,1208,17060.36,25.57,-1.00,-1.0,2437
3246,2138246,16980,868,1004,17031.79,25.42,-1.00,-1.0,2378
3249,2138249,16968,888,1252,17037.29,25.38,-1.00,-1.0,2437
3251,2138251,16904,908,1260,16975.20,25.52,-1.00,-1.0,2377
3256,2138256,16944,836,1376,17020.32,25.61,-1.00,-1.0,2445
3259,2138259,16940,804,1064,16992.41,25.42,-1.00,-1.0,2367
3262,2138262,16956,900,956,17006.76,25.52,-1.00,-1.0,2364
3265,2138265,17028,740,1184,17085.15,25.57,-1.00,-1.0,2450
3267,2138267,16964,804,1228,17027.38,25.47,-1.00,-1.0,2374
3270,2138270,16996,768,1212,17056.46,25.47,-1.00,-1.0,2436
3273,2138273,16944,800,1052,16995.46,25.47,-1.00,-1.0,2367
3276,2138276,16984,812,1120,17040.25,25.38,-1.00,-1.0,2448
3278,2138278,17012,792,1208,17073.21,25.47,-1.00,-1.0,2365
3283,2138283,17008,820,1268,17074.90,25.47,-1.00,-1.0,2445
3286,2138286,16916,816,1236,16980.71,25.47,-1.00,-1.0,2367
3289,2138289,16936,908,1208,17003.29,25.47,-1.00,-1.0,2436
3292,2138292,16920,780,1192,16979.86,25.47,-1.00,-1.0,2367
3294,2138294,17012,944,1096,17073.38,25.42,-1.00,-1.0,2361
3297,2138297,16984,896,1276,17055.42,25.42,-1.00,-1.0,2435
3300,2138300,16976,944,1240,17047.38,25.47,-1.00,-1.0,2365
3302,2138302,17092,864,1152,17152.55,25.52,-1.00,-1.0,2434
3305,2138305,17004,844,1160,17064.41,25.52,-1.00,-1.0,2364
3310,2138310,16868,904,1088,16927.21,25.42,-1.00,-1.0,2444
3313,2138313,16928,800,1224,16991.04,25.47,-1.00,-1.0,2365
3316,2138316,16872,816,1084,16926.47,25.42,-1.00,-1.0,2437
3319,2138319,16888,800,1204,16949.75,25.47,-1.00,-1.0,2364
3321,2138321,16972,780,1192,17031.68,25.42,-1.00,-1.0,2437
3324,2138324,17032,820,1164,17091.41,25.38,-1.00,-1.0,2365
3327,2138327,17040,872,1204,17104.72,25.42,-1.00,-1.0,2422
3330,2138330,16964,912,1320,17039.70,25.38,-1.00,-1.0,2365
3332,2138332,16956,808,1096,17010.59,25.42,-1.00,-1.0,2360
3337,2138337,16916,872,1232,16983.21,25.42,-1.00,-1.0,2445
3340,2138340,16980,896,1200,17045.91,25.42,-1.00,-1.0,2365
3343,2138343,17060,880,1224,17126.48,25.52,-1.00,-1.0,2434
3346,2138346,16960,888,1132,17020.92,25.42,-1.00,-1.0,2364
3348,2138348,16924,880,1172,16987.34,25.42,-1.00,-1.0,2437
3351,2138351,16880,824,1208,16943.22,25.42,-1.00,-1.0,2365
3354,2138354,16980,884,1196,17045.01,25.42,-1.00,-1.0,2436
3357,2138357,16988,912,1152,17051.42,25.52,-1.00,-1.0,2364
3362,2138362,16972,896,1244,17041.10,25.52,-1.00,-1.0,2456
3365,2138365,16920,776,1188,16979.40,25.52,-1.00,-1.0,2368
3368,2138368,16956,816,1168,17015.76,25.47,-1.00,-1.0,2446
3370,2138370,16960,908,1152,17023.31,25.52,-1.00,-1.0,2364
3373,2138373,16940,904,1108,17000.25,25.57,-1.00,-1.0,2367
3376,2138376,16964,804,1192,17024.82,25.47,-1.00,-1.0,2440
3378,2138378,17064,888,1208,17129.74,25.47,-1.00,-1.0,2365
3381,2138381,16848,832,1268,16916.12,25.57,-1.00,-1.0,2446
3384,2138384,16980,792,1236,17043.34,25.47,-1.00,-1.0,2372
3389,2138389,16932,884,1164,16994.97,25.52,-1.00,-1.0,2445
3392,2138392,17040,868,1220,17105.65,25.52,-1.00,-1.0,2365
3394,2138394,17004,928,1132,17066.89,25.52,-1.00,-1.0,2434
3397,2138397,16968,848,1180,17030.11,25.42,-1.00,-1.0,2365
3400,2138400,16964,760,1132,17018.71,25.52,-1.00,-1.0,2436
3402,2138402,17020,864,1216,17085.24,25.52,-1.00,-1.0,2366
3405,2138405,17044,868,1200,17108.22,25.42,-1.00,-1.0,2435
3408,2138408,17008,852,1172,17069.61,25.42,-1.00,-1.0,2366
3411,2138411,17008,948,1160,17073.85,25.42,-1.00,-1.0,2361
3416,2138416,17028,808,1156,17086.31,25.52,-1.00,-1.0,2447
3418,2138418,17048,888,1052,17103.50,25.52,-1.00,-1.0,2372
3421,2138421,16936,884,1184,17000.34,25.52,-1.00,-1.0,2436
3424,2138424,16924,908,1160,16987.99,25.42,-1.00,-1.0,2368
3427,2138427,16988,868,1068,17043.66,25.42,-1.00,-1.0,2437
3429,2138429,16948,848,1204,17011.86,25.52,-1.00,-1.0,2367
3432,2138432,16944,804,1252,17009.21,25.42,-1.00,-1.0,2436
3435,2138435,16980,844,1244,17046.42,25.42,-1.00,-1.0,2351
3440,2138440,16836,952,1440,16924.27,25.42,-1.00,-1.0,2453
3442,2138442,16928,880,1240,16996.15,25.42,-1.00,-1.0,2370
3445,2138445,16968,772,1136,17023.50,25.42,-1.00,-1.0,2446
3448,2138448,16980,948,1204,17049.01,25.52,-1.00,-1.0,2370
3451,2138451,16976,736,1224,17035.97,25.52,-1.00,-1.0,2359
3453,2138453,17000,852,1340,17074.00,25.47,-1.00,-1.0,2436
3456,2138456,16964,836,1040,17016.40,25.42,-1.00,-1.0,2368
3459,2138459,16956,928,1156,17020.68,25.52,-1.00,-1.0,2435
3462,2138462,17068,944,1260,17140.46,25.42,-1.00,-1.0,2366
3467,2138467,17028,908,1212,17095.21,25.52,-1.00,-1.0,2450
3469,2138469,16948,760,1096,17000.40,25.42,-1.00,-1.0,2373
3472,2138472,17020,884,1312,17093.37,25.52,-1.00,-1.0,2443
3475,2138475,16968,884,1008,17020.88,25.42,-1.00,-1.0,2352
3478,2138478,17044,824,1236,17108.61,25.52,-1.00,-1.0,2449
3480,2138480,16948,812,1100,17003.06,25.52,-1.00,-1.0,2375
3483,2138483,16968,872,1192,17032.15,25.42,-1.00,-1.0,2445
3486,2138486,17080,896,1204,17145.81,25.52,-1.00,-1.0,2367
3489,2138489,16992,908,1168,17056.28,25.47,-1.00,-1.0,2359
3494,2138494,16956,756,1148,17011.62,25.38,-1.00,-1.0,2449
3496,2138496,17052,816,1260,17117.95,25.57,-1.00,-1.0,2418
3499,2138499,16948,856,1056,17002.43,25.52,-1.00,-1.0,2446
3502,2138502,16912,820,1192,16973.77,25.52,-1.00,-1.0,2376
3505,2138505,16940,844,1228,17005.41,25.52,-1.00,-1.0,2417
3507,2138507,17008,800,1172,17067.09,25.52,-1.00,-1.0,2370
3510,2138510,16996,924,1228,17065.34,25.42,-1.00,-1.0,2441
3513,2138513,17076,836,1144,17134.68,25.42,-1.00,-1.0,2378
3518,2138518,16984,896,1248,17053.35,25.57,-1.00,-1.0,2443
3521,2138521,16964,912,1140,17026.70,25.38,-1.00,-1.0,2365
3524,2138524,17084,844,1304,17154.47,25.52,-1.00,-1.0,2443
3526,2138526,17020,828,1128,17077.42,25.47,-1.00,-1.0,2364
3529,2138529,16952,748,1212,17011.72,25.42,-1.00,-1.0,2359
3532,2138532,16868,852,1280,16937.94,25.42,-1.00,-1.0,2443
3534,2138534,16980,908,1264,17051.17,25.47,-1.00,-1.0,2352
3537,2138537,16988,956,1116,17051.44,25.42,-1.00,-1.0,2437
3540,2138540,17020,856,1268,17088.62,25.47,-1.00,-1.0,2364
3545,2138545,16944,820,1268,17011.15,25.57,-1.00,-1.0,2441
3548,2138548,17020,888,1296,17092.35,25.47,-1.00,-1.0,2369
3550,2138550,16964,768,1252,17027.47,25.47,-1.00,-1.0,2439
3553,2138553,16980,860,1212,17044.91,25.47,-1.00,-1.0,2365
3556,2138556,17024,836,1224,17088.41,25.47,-1.00,-1.0,2435
3559,2138559,16988,724,1184,17044.59,25.47,-1.00,-1.0,2367
3561,2138561,16928,836,1112,16985.07,25.47,-1.00,-1.0,2434
3564,2138564,17108,984,1148,17174.69,25.38,-1.00,-1.0,2367
3567,2138567,16972,940,1232,17042.60,25.52,-1.00,-1.0,2367
3571,2138571,17032,812,1344,17104.23,25.52,-1.00,-1.0,2440
3574,2138574,17052,804,1184,17111.96,25.42,-1.00,-1.0,2365
3577,2138577,16984,896,1128,17044.98,25.52,-1.00,-1.0,2438
3580,2138580,16904,836,1040,16956.58,25.42,-1.00,-1.0,2371
3582,2138582,16856,788,1208,16917.59,25.33,-1.00,-1.0,2437
3585,2138585,16936,816,1328,17007.57,25.42,-1.00,-1.0,2369
3588,2138588,16924,796,1104,16978.64,25.52,-1.00,-1.0,2434
3591,2138591,17012,836,1152,17071.44,25.52,-1.00,-1.0,2372
3595,2138595,16932,808,1116,16987.96,25.38,-1.00,-1.0,2449
3598,2138598,16944,896,1156,17007.01,25.47,-1.00,-1.0,2370
3601,2138601,16916,840,1124,16974.10,25.47,-1.00,-1.0,2441
3604,2138604,16992,936,1140,17055.90,25.52,-1.00,-1.0,2371
3606,2138606,16900,876,1200,16965.18,25.57,-1.00,-1.0,2362
3609,2138609,17060,884,1100,17118.27,25.42,-1.00,-1.0,2435
3612,2138612,17020,848,1208,17083.88,25.47,-1.00,-1.0,2367
3615,2138615,16952,808,1164,17011.12,25.47,-1.00,-1.0,2449
3618,2138618,16972,860,1208,17036.66,25.52,-1.00,-1.0,2374
3623,2138623,16956,904,1192,17021.87,25.42,-1.00,-1.0,2451
3625,2138625,16932,848,1156,16992.59,25.42,-1.00,-1.0,2350
3628,2138628,16996,880,1144,17057.17,25.47,-1.00,-1.0,2441
3631,2138631,17024,788,1272,17089.63,25.42,-1.00,-1.0,2363
3634,2138634,17032,932,1128,17094.74,25.52,-1.00,-1.0,2440
3636,2138636,16992,748,1352,17062.11,25.42,-1.00,-1.0,2364
3639,2138639,16928,792,1136,16984.55,25.47,-1.00,-1.0,2360
3642,2138642,16904,832,1132,16962.28,25.47,-1.00,-1.0,2439
3645,2138645,17016,824,1144,17074.31,25.47,-1.00,-1.0,2369
3650,2138650,16992,740,1196,17050.11,25.52,-1.00,-1.0,2445
3652,2138652,17020,756,1372,17091.94,25.42,-1.00,-1.0,2364
3655,2138655,16944,872,1100,17002.04,25.47,-1.00,-1.0,2443
3658,2138658,16948,796,1096,17002.04,25.33,-1.00,-1.0,2363
3661,2138661,16948,860,1084,17004.39,25.52,-1.00,-1.0,2440
3663,2138663,17000,900,1276,17071.56,25.52,-1.00,-1.0,2364
3666,2138666,16972,908,1184,17037.46,25.38,-1.00,-1.0,2440
3669,2138669,16932,932,1148,16996.45,25.42,-1.00,-1.0,2363
3674,2138674,16976,864,1300,17047.61,25.42,-1.00,-1.0,2444
3677,2138677,16948,840,1184,17010.06,25.42,-1.00,-1.0,2363
3679,2138679,16976,912,1196,17042.50,25.52,-1.00,-1.0,2360
3682,2138682,17024,900,1088,17082.46,25.47,-1.00,-1.0,2441
3685,2138685,16936,860,1088,16992.69,25.42,-1.00,-1.0,2362
3687,2138687,16916,896,1228,16984.16,25.57,-1.00,-1.0,2424
3690,2138690,16960,912,1248,17030.29,25.42,-1.00,-1.0,2363
3693,2138693,16956,812,1200,17017.79,25.38,-1.00,-1.0,2440
3696,2138696,16976,840,1148,17035.49,25.42,-1.00,-1.0,2363
3701,2138701,17000,848,1068,17054.61,25.33,-1.00,-1.0,2450
3703,2138703,17020,756,1232,17081.27,25.38,-1.00,-1.0,2363
3706,2138706,17104,832,1096,17159.26,25.42,-1.00,-1.0,2454
3709,2138709,16944,796,1172,17003.13,25.47,-1.00,-1.0,2371
3712,2138712,16960,880,1116,17019.44,25.52,-1.00,-1.0,2444
3714,2138714,17016,828,1240,17081.20,25.47,-1.00,-1.0,2363
3717,2138717,16992,856,1216,17056.95,25.52,-1.00,-1.0,2362
3720,2138720,16956,884,1344,17032.14,25.38,-1.00,-1.0,2424
3723,2138723,16992,884,1316,17065.79,25.52,-1.00,-1.0,2363
3728,2138728,16948,796,1224,17010.78,25.52,-1.00,-1.0,2451
3730,2138730,16928,760,1092,16980.20,25.42,-1.00,-1.0,2371
3733,2138733,16944,820,1120,17000.76,25.42,-1.00,-1.0,2450
3736,2138736,17024,752,1164,17080.31,25.42,-1.00,-1.0,2379
3739,2138739,17056,876,1120,17115.17,25.42,-1.00,-1.0,2440
3741,2138741,17040,908,1200,17106.32,25.42,-1.00,-1.0,2368
3744,2138744,16928,768,1224,16989.56,25.42,-1.00,-1.0,2445
3747,2138747,16976,808,1208,17038.10,25.52,-1.00,-1.0,2378
3752,2138752,17076,864,1184,17138.79,25.52,-1.00,-1.0,2442
3755,2138755,16920,796,1144,16977.30,25.42,-1.00,-1.0,2357
3757,2138757,16944,848,1100,17000.83,25.42,-1.00,-1.0,2369
3760,2138760,16964,892,1268,17034.69,25.52,-1.00,-1.0,2448
3763,2138763,16924,872,1328,16998.40,25.42,-1.00,-1.0,2350
3766,2138766,16952,848,1120,17010.11,25.52,-1.00,-1.0,2450
3768,2138768,16912,940,1376,16993.90,25.42,-1.00,-1.0,2372
3771,2138771,16932,740,1068,16981.78,25.47,-1.00,-1.0,2448
3774,2138774,16920,900,1236,16988.94,25.38,-1.00,-1.0,2362
3779,2138779,17016,856,1208,17080.29,25.47,-1.00,-1.0,2450
3781,2138781,16928,880,1172,16991.33,25.57,-1.00,-1.0,2362
3784,2138784,16916,852,1316,16988.49,25.42,-1.00,-1.0,2443
3787,2138787,16972,736,1128,17025.36,25.47,-1.00,-1.0,2362
3790,2138790,17092,828,1056,17144.60,25.42,-1.00,-1.0,2445
3792,2138792,17040,836,1224,17104.35,25.47,-1.00,-1.0,2362
3795,2138795,16952,880,1196,17016.91,25.42,-1.00,-1.0,2359
3798,2138798,17072,804,1112,17127.06,25.42,-1.00,-1.0,2439
3801,2138801,17036,904,1140,17098.02,25.38,-1.00,-1.0,2363
3806,2138806,17000,888,1204,17065.70,25.42,-1.00,-1.0,2451
3808,2138808,17052,788,1200,17112.32,25.42,-1.00,-1.0,2363
3811,2138811,16920,920,1284,16993.57,25.42,-1.00,-1.0,2450
3814,2138814,16904,916,1284,16977.42,25.33,-1.00,-1.0,2362
3817,2138817,16968,848,1168,17029.28,25.42,-1.00,-1.0,2445
3819,2138819,17052,884,1100,17110.29,25.42,-1.00,-1.0,2364
3822,2138822,17076,828,1260,17142.43,25.42,-1.00,-1.0,2448
3825,2138825,16948,808,1192,17009.07,25.52,-1.00,-1.0,2362
3830,2138830,16924,864,1224,16990.19,25.52,-1.00,-1.0,2441
3833,2138833,17036,920,1184,17101.86,25.47,-1.00,-1.0,2362
3835,2138835,17016,848,1128,17074.42,25.52,-1.00,-1.0,2362
3838,2138838,17028,808,1256,17093.37,25.52,-1.00,-1.0,2442
3841,2138841,17052,824,1216,17115.15,25.61,-1.00,-1.0,2370
3843,2138843,17020,816,1100,17075.02,25.52,-1.00,-1.0,2438
3846,2138846,16996,776,1148,17052.39,25.52,-1.00,-1.0,2364
3849,2138849,17012,896,1176,17076.12,25.47,-1.00,-1.0,2455
3852,2138852,17052,856,1056,17106.10,25.42,-1.00,-1.0,2363
3857,2138857,17020,856,1056,17074.20,25.52,-1.00,-1.0,2444
3860,2138860,17064,856,1128,17122.65,25.52,-1.00,-1.0,2361
3862,2138862,16948,928,1212,17016.61,25.52,-1.00,-1.0,2442
3865,2138865,16908,812,1172,16968.01,25.42,-1.00,-1.0,2349
3868,2138868,16960,864,1108,17018.10,25.42,-1.00,-1.0,2438
3871,2138871,16984,936,1236,17054.62,25.42,-1.00,-1.0,2362
3873,2138873,17000,872,1320,17073.45,25.42,-1.00,-1.0,2359
3876,2138876,17032,864,1164,17093.58,25.47,-1.00,-1.0,2448
3879,2138879,16952,836,1216,17016.11,25.47,-1.00,-1.0,2370
3884,2138884,17040,884,1340,17115.45,25.42,-1.00,-1.0,2442
3887,2138887,17020,944,1096,17081.36,25.42,-1.00,-1.0,2369
3889,2138889,17052,776,1096,17104.80,25.52,-1.00,-1.0,2442
3892,2138892,16944,800,1152,17001.95,25.52,-1.00,-1.0,2362
3895,2138895,17008,876,1260,17077.09,25.38,-1.00,-1.0,2438
3898,2138898,16896,896,1296,16969.30,25.52,-1.00,-1.0,2361
3900,2138900,16932,852,1164,16993.33,25.52,-1.00,-1.0,2438
3903,2138903,17012,864,1252,17079.88,25.42,-1.00,-1.0,2362
3908,2138908,16924,768,1240,16986.74,25.38,-1.00,-1.0,2465
3911,2138911,16920,940,1284,16994.67,25.47,-1.00,-1.0,2370
3914,2138914,16968,776,1068,17019.28,25.47,-1.00,-1.0,2360
3916,2138916,17036,872,1124,17095.29,25.42,-1.00,-1.0,2439
3919,2138919,16952,760,1100,17004.64,25.42,-1.00,-1.0,2362
3922,2138922,16960,848,1148,17019.95,25.42,-1.00,-1.0,2438
3925,2138925,17016,716,1156,17070.24,25.52,-1.00,-1.0,2364
3927,2138927,16972,836,1144,17031.04,25.52,-1.00,-1.0,2439
3930,2138930,17024,940,1204,17092.39,25.47,-1.00,-1.0,2351
3935,2138935,17044,796,1252,17108.45,25.47,-1.00,-1.0,2447
3938,2138938,16960,828,1228,17024.55,25.47,-1.00,-1.0,2361
3941,2138941,16912,848,1108,16969.46,25.38,-1.00,-1.0,2446
3943,2138943,17036,932,1136,17099.25,25.42,-1.00,-1.0,2362
3946,2138946,16956,836,1160,17016.18,25.47,-1.00,-1.0,2439
3949,2138949,17120,888,1164,17182.49,25.57,-1.00,-1.0,2362
3951,2138951,16896,952,1096,16958.25,25.47,-1.00,-1.0,2360
3954,2138954,17016,904,1236,17084.76,25.42,-1.00,-1.0,2452
3957,2138957,16944,960,1140,17009.42,25.42,-1.00,-1.0,2365
3962,2138962,17008,904,1212,17075.08,25.38,-1.00,-1.0,2462
3965,2138965,16980,816,1244,17045.05,25.38,-1.00,-1.0,2370
3968,2138968,16876,836,1240,16942.13,25.52,-1.00,-1.0,2446
3970,2138970,16992,824,1132,17049.59,25.38,-1.00,-1.0,2368
3973,2138973,16972,852,1320,17044.56,25.42,-1.00,-1.0,2449
3976,2138976,16948,872,992,16999.39,25.47,-1.00,-1.0,2370
3979,2138979,16936,812,1104,16991.36,25.52,-1.00,-1.0,2446
3981,2138981,16976,832,1196,17038.40,25.47,-1.00,-1.0,2366
3984,2138984,17104,852,1164,17164.72,25.42,-1.00,-1.0,2360
3989,2138989,16940,864,1068,16995.61,25.38,-1.00,-1.0,2446
3992,2138992,17040,900,1252,17109.62,25.42,-1.00,-1.0,2362
3994,2138994,16972,876,1220,17038.33,25.42,-1.00,-1.0,2439
3997,2138997,17064,800,1300,17132.14,25.42,-1.00,-1.0,2362
4000,2139000,16968,924,1316,17044.02,25.47,-1.00,-1.0,2424
4003,2139003,16928,860,1068,16983.45,25.42,-1.00,-1.0,2362
4005,2139005,17000,876,1284,17070.91,25.42,-1.00,-1.0,2438
4008,2139008,17020,848,1148,17079.74,25.38,-1.00,-1.0,2362
4013,2139013,16896,892,1256,16966.08,25.47,-1.00,-1.0,2445
4016,2139016,16876,880,1304,16949.16,25.47,-1.00,-1.0,2362
4018,2139018,17040,896,1160,17102.92,25.38,-1.00,-1.0,2439
4021,2139021,17064,832,1140,17122.26,25.47,-1.00,-1.0,2362
4024,2139024,16932,780,1068,16983.57,25.42,-1.00,-1.0,2370
4026,2139026,17048,852,1140,17107.30,25.42,-1.00,-1.0,2447
4029,2139029,17004,920,1140,17066.99,25.42,-1.00,-1.0,2367
4032,2139032,16960,904,1096,17019.40,25.47,-1.00,-1.0,2440
4035,2139035,16900,860,1192,16963.80,25.47,-1.00,-1.0,2361
4040,2139040,17040,936,1120,17102.40,25.47,-1.00,-1.0,2453
4043,2139043,16948,900,1268,17019.18,25.52,-1.00,-1.0,2364
4046,2139046,16924,872,1264,16993.52,25.47,-1.00,-1.0,2435
4048,2139048,16972,804,1100,17026.60,25.52,-1.00,-1.0,2370
4051,2139051,17036,952,1340,17115.12,25.47,-1.00,-1.0,2439
4054,2139054,17004,824,1164,17063.70,25.42,-1.00,-1.0,2364
4057,2139057,17064,924,1248,17134.51,25.38,-1.00,-1.0,2447
4059,2139059,17016,888,1292,17088.07,25.52,-1.00,-1.0,2370
4062,2139062,16908,860,1148,16968.73,25.38,-1.00,-1.0,2360
4067,2139067,16980,936,1268,17052.99,25.47,-1.00,-1.0,2447
4070,2139070,17020,804,1068,17072.42,25.38,-1.00,-1.0,2363
4073,2139073,17028,864,1244,17095.23,25.47,-1.00,-1.0,2437
4075,2139075,16944,836,1160,17004.22,25.42,-1.00,-1.0,2364
4078,2139078,16920,852,1260,16988.23,25.47,-1.00,-1.0,2439
4081,2139081,16956,788,1184,17015.54,25.47,-1.00,-1.0,2363
4084,2139084,16888,892,920,16936.55,25.47,-1.00,-1.0,2432
4086,2139086,17008,788,1152,17065.17,25.52,-1.00,-1.0,2370
4091,2139091,17024,920,1144,17087.18,25.42,-1.00,-1.0,2456
4094,2139094,16956,812,1128,17012.87,25.52,-1.00,-1.0,2370
4097,2139097,16856,908,1040,16912.45,25.47,-1.00,-1.0,2440
4099,2139099,17008,892,1224,17075.30,25.42,-1.00,-1.0,2366
4102,2139102,16940,884,1236,17008.02,25.47,-1.00,-1.0,2345
4105,2139105,16972,796,1192,17032.42,25.47,-1.00,-1.0,2441
4107,2139107,16988,884,1252,17057.00,25.47,-1.00,-1.0,2366
4110,2139110,17020,916,1212,17087.67,25.47,-1.00,-1.0,2440
4113,2139113,17000,872,1256,17068.62,25.42,-1.00,-1.0,2364
4118,2139118,17024,832,1224,17088.21,25.42,-1.00,-1.0,2449
4121,2139121,17000,844,1208,17063.75,25.42,-1.00,-1.0,2362
4124,2139124,16896,848,1268,16964.72,25.52,-1.00,-1.0,2444
4126,2139126,17048,872,1172,17110.47,25.52,-1.00,-1.0,2364
4129,2139129,17020,836,1096,17075.73,25.42,-1.00,-1.0,2438
4132,2139132,17004,848,1076,17059.10,25.52,-1.00,-1.0,2365
4135,2139135,16944,852,1400,17023.07,25.52,-1.00,-1.0,2443
4137,2139137,16928,852,1208,16992.42,25.52,-1.00,-1.0,2362
4140,2139140,17040,868,1180,17102.85,25.52,-1.00,-1.0,2364
4145,2139145,17048,884,1212,17113.88,25.42,-1.00,-1.0,2448
4148,2139148,16916,852,1228,16981.90,25.47,-1.00,-1.0,2432
4151,2139151,16932,872,1152,16993.53,25.52,-1.00,-1.0,2438
4154,2139154,17024,964,1204,17093.73,25.42,-1.00,-1.0,2370
4156,2139156,17052,800,1236,17115.44,25.42,-1.00,-1.0,2431
4159,2139159,16948,868,1120,17007.13,25.42,-1.00,-1.0,2371
4162,2139162,16996,828,1152,17055.11,25.42,-1.00,-1.0,2433
4165,2139165,16968,772,1184,17026.77,25.42,-1.00,-1.0,2370
4170,2139170,17084,872,1148,17144.72,25.42,-1.00,-1.0,2442
4172,2139172,17048,852,1200,17111.41,25.47,-1.00,-1.0,2372
4175,2139175,16964,836,1132,17022.27,25.42,-1.00,-1.0,2440
4178,2139178,17028,832,1372,17103.43,25.38,-1.00,-1.0,2365
4180,2139180,16984,836,1284,17052.97,25.52,-1.00,-1.0,2359
4183,2139183,16972,788,1100,17025.86,25.42,-1.00,-1.0,2436
4186,2139186,17012,796,1068,17064.07,25.52,-1.00,-1.0,2364
4189,2139189,16996,872,1048,17050.59,25.52,-1.00,-1.0,2441
4191,2139191,17032,896,1208,17098.28,25.42,-1.00,-1.0,2364
4197,2139197,17044,776,1132,17099.17,25.52,-1.00,-1.0,2440
4200,2139200,16964,944,1112,17026.60,25.42,-1.00,-1.0,2365
4202,2139202,16972,884,1260,17041.65,25.42,-1.00,-1.0,2426
4205,2139205,17044,812,1312,17113.70,25.33,-1.00,-1.0,2364
4208,2139208,16956,756,1032,17004.19,25.52,-1.00,-1.0,2436
4211,2139211,16924,892,1176,16988.24,25.42,-1.00,-1.0,2365
4213,2139213,16888,972,1252,16962.22,25.42,-1.00,-1.0,2435
4216,2139216,17028,816,1108,17083.51,25.52,-1.00,-1.0,2364
4219,2139219,16980,888,1272,17050.72,25.52,-1.00,-1.0,2359
4223,2139223,17052,880,1228,17118.79,25.47,-1.00,-1.0,2446
4226,2139226,16952,936,1192,17019.61,25.47,-1.00,-1.0,2370
4229,2139229,16916,756,1164,16972.85,25.52,-1.00,-1.0,2435
4232,2139232,16912,880,1148,16973.75,25.47,-1.00,-1.0,2369
4235,2139235,17052,808,1320,17122.09,25.42,-1.00,-1.0,2445
4237,2139237,16964,916,1188,17030.20,25.47,-1.00,-1.0,2372
4240,2139240,16980,936,1056,17038.53,25.42,-1.00,-1.0,2444
4243,2139243,17008,852,1124,17066.38,25.47,-1.00,-1.0,2370
4248,2139248,16936,984,1276,17012.48,25.47,-1.00,-1.0,2453
4250,2139250,16904,888,1224,16971.50,25.57,-1.00,-1.0,2366
4253,2139253,17024,868,1156,17085.27,25.47,-1.00,-1.0,2447
4256,2139256,16884,880,1388,16963.80,25.47,-1.00,-1.0,2365
4258,2139258,17000,896,1304,17073.46,25.42,-1.00,-1.0,2366
4261,2139261,16980,792,1204,17041.05,25.42,-1.00,-1.0,2439
4264,2139264,16932,896,1260,17002.44,25.42,-1.00,-1.0,2380
4267,2139267,16988,800,1192,17048.55,25.52,-1.00,-1.0,2436
4269,2139269,17032,756,1168,17088.73,25.42,-1.00,-1.0,2368
4274,2139274,16984,808,1268,17050.42,25.57,-1.00,-1.0,2441
4277,2139277,16928,936,1236,16998.85,25.47,-1.00,-1.0,2366
4280,2139280,16996,904,1172,17060.33,25.52,-1.00,-1.0,2454
4283,2139283,16936,840,1184,16998.10,25.57,-1.00,-1.0,2360
4285,2139285,17036,896,1104,17095.23,25.42,-1.00,-1.0,2437
4288,2139288,16964,896,1200,17029.98,25.38,-1.00,-1.0,2366
4291,2139291,17000,820,1224,17063.72,25.52,-1.00,-1.0,2436
4294,2139294,16984,780,1192,17043.64,25.47,-1.00,-1.0,2371
4296,2139296,16996,908,1156,17059.45,25.47,-1.00,-1.0,2359
4301,2139301,17008,804,1144,17065.38,25.47,-1.00,-1.0,2441
4304,2139304,16988,868,1128,17047.52,25.52,-1.00,-1.0,2364
4307,2139307,16944,884,1248,17012.88,25.47,-1.00,-1.0,2425
4310,2139310,16952,872,1196,17016.49,25.42,-1.00,-1.0,2365
4312,2139312,17088,812,1124,17144.17,25.47,-1.00,-1.0,2436
4315,2139315,16988,848,1176,17049.76,25.42,-1.00,-1.0,2352
4318,2139318,16944,900,1240,17013.13,25.47,-1.00,-1.0,2436
4320,2139320,16992,792,1128,17047.81,25.42,-1.00,-1.0,2368
4325,2139325,17008,952,1168,17074.62,25.52,-1.00,-1.0,2442
4328,2139328,16928,840,1144,16987.39,25.42,-1.00,-1.0,2366
4331,2139331,17016,804,1200,17077.20,25.42,-1.00,-1.0,2361
4334,2139334,17020,864,1136,17079.74,25.47,-1.00,-1.0,2449
4336,2139336,17000,776,1108,17053.73,25.47,-1.00,-1.0,2373
4339,2139339,16928,872,1184,16991.75,25.47,-1.00,-1.0,2436
4342,2139342,17020,896,1208,17086.32,25.42,-1.00,-1.0,2364
4345,2139345,16876,856,1280,16946.11,25.47,-1.00,-1.0,2445
4347,2139347,16952,892,1168,17015.59,25.42,-1.00,-1.0,2365
4352,2139352,16916,884,1052,16971.72,25.47,-1.00,-1.0,2426
4355,2139355,16888,856,1048,16942.12,25.47,-1.00,-1.0,2364
4358,2139358,16972,768,1220,17033.12,25.42,-1.00,-1.0,2476
4361,2139361,16856,856,1168,16918.09,25.52,-1.00,-1.0,2354
4364,2139364,16896,792,1140,16952.93,25.38,-1.00,-1.0,2448
4366,2139366,16940,920,1060,16998.05,25.47,-1.00,-1.0,2370
4369,2139369,16944,920,1224,17013.04,25.47,-1.00,-1.0,2360
4372,2139372,17028,904,1112,17088.20,25.38,-1.00,-1.0,2436
4374,2139374,17052,852,1092,17108.16,25.42,-1.00,-1.0,2362
4380,2139380,16960,908,1256,17030.67,25.42,-1.00,-1.0,2442
4382,2139382,16900,860,1152,16961.04,25.47,-1.00,-1.0,2361
4385,2139385,17060,868,1180,17122.78,25.52,-1.00,-1.0,2442
4388,2139388,16944,824,1208,17006.98,25.47,-1.00,-1.0,2352
4391,2139391,16892,768,1116,16946.24,25.42,-1.00,-1.0,2435
4393,2139393,16952,896,1140,17013.90,25.47,-1.00,-1.0,2351
4396,2139396,16980,820,1256,17046.12,25.47,-1.00,-1.0,2439
4399,2139399,17044,860,1136,17103.45,25.47,-1.00,-1.0,2366
4404,2139404,16912,900,1156,16975.34,25.47,-1.00,-1.0,2436
4406,2139406,17012,896,1172,17075.85,25.57,-1.00,-1.0,2369
4409,2139409,17004,880,1148,17065.41,25.42,-1.00,-1.0,2359
4412,2139412,16944,820,1128,17001.29,25.52,-1.00,-1.0,2448
4414,2139414,16964,776,1188,17023.24,25.52,-1.00,-1.0,2362
4417,2139417,16968,936,1264,17040.74,25.42,-1.00,-1.0,2439
4420,2139420,16976,900,1132,17037.49,25.42,-1.00,-1.0,2361
4423,2139423,16972,824,1096,17027.30,25.42,-1.00,-1.0,2446
4425,2139425,16936,948,1180,17003.51,25.47,-1.00,-1.0,2373
4430,2139430,16960,904,1148,17022.83,25.42,-1.00,-1.0,2442
4433,2139433,17060,832,1212,17123.22,25.47,-1.00,-1.0,2361
4436,2139436,16908,896,1240,16977.07,25.42,-1.00,-1.0,2442
4439,2139439,16956,884,1128,17016.46,25.47,-1.00,-1.0,2362
4441,2139441,17012,844,1196,17074.86,25.42,-1.00,-1.0,2438
4444,2139444,16996,860,1248,17063.44,25.47,-1.00,-1.0,2362
4447,2139447,17036,904,1232,17104.39,25.52,-1.00,-1.0,2359
4450,2139450,16948,848,1208,17012.14,25.42,-1.00,-1.0,2438
4453,2139453,16992,936,1164,17057.52,25.47,-1.00,-1.0,2365
4457,2139457,17000,848,1140,17059.27,25.57,-1.00,-1.0,2443
4460,2139460,17004,900,1296,17077.05,25.47,-1.00,-1.0,2363
4463,2139463,16944,864,1064,16999.35,25.47,-1.00,-1.0,2456
4466,2139466,16920,780,1160,16977.64,25.47,-1.00,-1.0,2370
4469,2139469,16988,908,1032,17043.52,25.47,-1.00,-1.0,2449
4471,2139471,16880,868,1056,16935.26,25.38,-1.00,-1.0,2364
4474,2139474,16952,880,1216,17018.32,25.47,-1.00,-1.0,2448
4477,2139477,16932,816,984,16980.19,25.47,-1.00,-1.0,2370
4482,2139482,17092,776,1028,17140.46,25.47,-1.00,-1.0,2445
4484,2139484,16992,824,1140,17050.12,25.52,-1.00,-1.0,2361
4487,2139487,16972,864,1152,17032.98,25.47,-1.00,-1.0,2368
4490,2139490,16964,920,1284,17037.38,25.42,-1.00,-1.0,2450
4492,2139492,16924,884,1228,16991.50,25.38,-1.00,-1.0,2368
4495,2139495,16996,824,1228,17060.22,25.42,-1.00,-1.0,2450
4498,2139498,16984,832,1260,17050.98,25.47,-1.00,-1.0,2368
4501,2139501,16948,804,1060,17000.14,25.42,-1.00,-1.0,2433
4504,2139504,16976,780,1156,17033.18,25.52,-1.00,-1.0,2362
4509,2139509,16972,860,1076,17027.80,25.52,-1.00,-1.0,2447
4511,2139511,16976,972,1172,17044.15,25.42,-1.00,-1.0,2371
4514,2139514,17008,860,1132,17067.31,25.42,-1.00,-1.0,2450
4517,2139517,17016,872,1188,17079.70,25.61,-1.00,-1.0,2363
4520,2139520,17060,808,1304,17128.83,25.52,-1.00,-1.0,2447
4522,2139522,16956,792,1152,17013.53,25.52,-1.00,-1.0,2369
4525,2139525,17028,848,1208,17091.84,25.42,-1.00,-1.0,2346
4528,2139528,17036,784,1184,17095.08,25.47,-1.00,-1.0,2444
4531,2139531,16900,760,1208,16960.15,25.52,-1.00,-1.0,2362
4536,2139536,17048,876,1200,17112.62,25.52,-1.00,-1.0,2445
4538,2139538,17000,884,1188,17064.37,25.42,-1.00,-1.0,2369
4541,2139541,16984,852,1180,17046.25,25.42,-1.00,-1.0,2442
4544,2139544,17040,804,1096,17094.13,25.61,-1.00,-1.0,2365
4547,2139547,16968,852,1140,17027.58,25.42,-1.00,-1.0,2437
4549,2139549,17064,792,1120,17119.05,25.42,-1.00,-1.0,2369
4552,2139552,17052,864,1172,17114.05,25.52,-1.00,-1.0,2438
4555,2139555,17060,832,1264,17126.98,25.52,-1.00,-1.0,2363
4560,2139560,16976,900,1296,17049.17,25.42,-1.00,-1.0,2450
4562,2139562,16968,948,1172,17034.83,25.47,-1.00,-1.0,2362
4565,2139565,16996,852,1192,17059.04,25.42,-1.00,-1.0,2367
4568,2139568,17004,864,1128,17063.26,25.52,-1.00,-1.0,2444
4570,2139570,16912,872,1156,16973.88,25.42,-1.00,-1.0,2364
4573,2139573,16976,868,1152,17037.17,25.47,-1.00,-1.0,2460
4576,2139576,16956,948,1256,17028.86,25.47,-1.00,-1.0,2365
4579,2139579,16972,896,1140,17033.82,25.52,-1.00,-1.0,2438
4582,2139582,17120,848,1176,17181.28,25.47,-1.00,-1.0,2371
4587,2139587,16936,872,1076,16992.54,25.47,-1.00,-1.0,2449
4589,2139589,17032,824,1136,17089.72,25.47,-1.00,-1.0,2362
4592,2139592,16956,872,1136,17016.37,25.38,-1.00,-1.0,2443
4595,2139595,16932,828,1164,16992.15,25.47,-1.00,-1.0,2363
4598,2139598,16988,892,1204,17053.96,25.47,-1.00,-1.0,2443
4600,2139600,17020,836,1112,17076.76,25.47,-1.00,-1.0,2363
4603,2139603,17020,784,1200,17080.25,25.38,-1.00,-1.0,2360
4606,2139606,17012,824,1136,17069.79,25.42,-1.00,-1.0,2446
4609,2139609,16960,824,1160,17019.58,25.42,-1.00,-1.0,2366
4613,2139613,16948,892,1248,17017.28,25.52,-1.00,-1.0,2448
4616,2139616,17144,896,1192,17208.73,25.52,-1.00,-1.0,2368
4619,2139619,16880,848,1188,16942.99,25.57,-1.00,-1.0,2456
4622,2139622,16972,872,1236,17039.27,25.42,-1.00,-1.0,2371
4625,2139625,16924,812,1172,16983.96,25.38,-1.00,-1.0,2451
4627,2139627,16976,740,1244,17037.60,25.42,-1.00,-1.0,2371
4630,2139630,17072,812,1220,17134.79,25.47,-1.00,-1.0,2448
4633,2139633,16940,836,1224,17004.72,25.42,-1.00,-1.0,2366
4638,2139638,17036,940,1180,17102.67,25.38,-1.00,-1.0,2445
4640,2139640,17104,868,1176,17166.34,25.47,-1.00,-1.0,2365
4643,2139643,16888,856,1208,16952.77,25.38,-1.00,-1.0,2360
4646,2139646,17060,896,1104,17119.15,25.42,-1.00,-1.0,2449
4648,2139648,16972,888,1188,17036.69,25.47,-1.00,-1.0,2363
4651,2139651,16924,836,1360,16999.12,25.52,-1.00,-1.0,2438
4654,2139654,16956,968,1176,17024.28,25.42,-1.00,-1.0,2433
4657,2139657,16988,920,1132,17050.51,25.47,-1.00,-1.0,2437
4660,2139660,17044,872,1136,17104.06,25.52,-1.00,-1.0,2374
4665,2139665,17004,832,1188,17065.74,25.42,-1.00,-1.0,2447
4667,2139667,17004,800,1096,17058.05,25.42,-1.00,-1.0,2364
4670,2139670,16956,788,1156,17013.62,25.47,-1.00,-1.0,2450
4673,2139673,17048,900,1176,17112.20,25.52,-1.00,-1.0,2372
4676,2139676,17048,840,1160,17108.05,25.47,-1.00,-1.0,2361
4678,2139678,16940,920,996,16994.18,25.47,-1.00,-1.0,2435
4681,2139681,17036,916,1176,17101.09,25.47,-1.00,-1.0,2367
4684,2139684,16968,932,1252,17039.63,25.47,-1.00,-1.0,2438
4687,2139687,17032,892,1200,17097.51,25.57,-1.00,-1.0,2368
4692,2139692,16960,852,1248,17027.18,25.42,-1.00,-1.0,2449
4694,2139694,17016,816,1132,17073.12,25.52,-1.00,-1.0,2365
4697,2139697,16980,948,1052,17038.95,25.47,-1.00,-1.0,2449
4700,2139700,17008,868,1208,17072.92,25.47,-1.00,-1.0,2371
4703,2139703,17016,884,1152,17077.85,25.47,-1.00,-1.0,2425
4705,2139705,17036,852,1164,17096.96,25.42,-1.00,-1.0,2364
4708,2139708,17000,748,1256,17062.74,25.47,-1.00,-1.0,2447
4711,2139711,16800,848,1284,16870.32,25.47,-1.00,-1.0,2364
4714,2139714,16940,968,1244,17013.18,25.47,-1.00,-1.0,2361
4719,2139719,17008,848,1228,17073.35,25.47,-1.00,-1.0,2450
4721,2139721,16996,932,1080,17055.76,25.47,-1.00,-1.0,2370
4724,2139724,16892,768,1328,16961.52,25.47,-1.00,-1.0,2448
4727,2139727,16928,760,1100,16980.72,25.38,-1.00,-1.0,2378
4730,2139730,16988,808,1120,17044.04,25.47,-1.00,-1.0,2438
4732,2139732,16860,852,1024,16912.54,25.38,-1.00,-1.0,2370
4735,2139735,16956,920,1132,17018.63,25.61,-1.00,-1.0,2444
4738,2139738,17000,884,1104,17058.73,25.47,-1.00,-1.0,2378
4743,2139743,17056,880,1068,17112.05,25.38,-1.00,-1.0,2456
4746,2139746,17036,784,1080,17088.19,25.42,-1.00,-1.0,2372
4749,2139749,16884,812,1296,16953.12,25.47,-1.00,-1.0,2453
4751,2139751,16988,840,1284,17057.15,25.52,-1.00,-1.0,2417
4754,2139754,16968,828,1240,17033.38,25.47,-1.00,-1.0,2368
4757,2139757,16984,860,1244,17051.20,25.52,-1.00,-1.0,2436
4759,2139759,16964,844,1264,17031.95,25.47,-1.00,-1.0,2378
4762,2139762,16892,812,1164,16951.52,25.52,-1.00,-1.0,2437
4765,2139765,17004,828,1180,17064.99,25.47,-1.00,-1.0,2386
4770,2139770,16996,884,1216,17062.36,25.47,-1.00,-1.0,2455
4773,2139773,17000,860,1172,17062.04,25.47,-1.00,-1.0,2372
4776,2139776,16944,868,1216,17009.74,25.52,-1.00,-1.0,2449
4778,2139778,17032,788,1260,17096.71,25.47,-1.00,-1.0,2365
4781,2139781,16972,852,1128,17030.77,25.61,-1.00,-1.0,2445
4784,2139784,16840,936,1104,16902.09,25.47,-1.00,-1.0,2373
4787,2139787,17004,836,1060,17057.51,25.52,-1.00,-1.0,2448
4789,2139789,16904,932,1172,16970.19,25.57,-1.00,-1.0,2368
4792,2139792,16948,936,1100,17009.43,25.52,-1.00,-1.0,2360
4797,2139797,16944,836,1184,17005.88,25.42,-1.00,-1.0,2435
4800,2139800,16968,920,1168,17033.02,25.42,-1.00,-1.0,2369
4803,2139803,17072,832,1164,17131.85,25.52,-1.00,-1.0,2451
4805,2139805,17000,900,1260,17070.37,25.42,-1.00,-1.0,2376
4808,2139808,17064,860,1136,17123.38,25.52,-1.00,-1.0,2441
4811,2139811,17064,816,1076,17117.35,25.52,-1.00,-1.0,2361
4814,2139814,17072,904,1208,17138.54,25.42,-1.00,-1.0,2449
4816,2139816,16896,860,1144,16956.51,25.42,-1.00,-1.0,2376
4821,2139821,17028,892,1252,17097.25,25.42,-1.00,-1.0,2447
4824,2139824,16892,772,1304,16959.84,25.52,-1.00,-1.0,2367
4827,2139827,16968,900,1228,17036.17,25.42,-1.00,-1.0,2446
4829,2139829,17040,944,1136,17103.89,25.42,-1.00,-1.0,2373
4832,2139832,17052,848,1196,17114.91,25.47,-1.00,-1.0,2359
4835,2139835,16924,836,1064,16978.01,25.47,-1.00,-1.0,2442
4837,2139837,16948,800,1180,17007.85,25.47,-1.00,-1.0,2367
4840,2139840,16952,872,1120,17011.32,25.38,-1.00,-1.0,2422
4843,2139843,16992,856,1220,17057.23,25.47,-1.00,-1.0,2366
4848,2139848,16976,800,1288,17043.58,25.33,-1.00,-1.0,2451
4850,2139850,16964,844,1296,17034.36,25.42,-1.00,-1.0,2370
4853,2139853,16968,804,1140,17025.25,25.42,-1.00,-1.0,2448
4856,2139856,16932,824,1268,16999.39,25.42,-1.00,-1.0,2373
4859,2139859,17048,868,1144,17108.38,25.52,-1.00,-1.0,2423
4862,2139862,17000,856,1240,17066.64,25.52,-1.00,-1.0,2418
4864,2139864,16948,824,1296,17017.44,25.52,-1.00,-1.0,2436
4867,2139867,17076,872,1280,17146.09,25.57,-1.00,-1.0,2372
4870,2139870,16912,924,1160,16976.90,25.42,-1.00,-1.0,2359
4875,2139875,16964,860,1116,17022.41,25.47,-1.00,-1.0,2440
4878,2139878,17036,932,1104,17097.16,25.47,-1.00,-1.0,2365
4880,2139880,17008,824,1176,17068.51,25.42,-1.00,-1.0,2439
4883,2139883,16912,796,1224,16974.91,25.38,-1.00,-1.0,2364
4886,2139886,17048,772,1192,17107.05,25.52,-1.00,-1.0,2436
4889,2139889,17060,764,1272,17124.41,25.47,-1.00,-1.0,2365
4891,2139891,16956,888,1236,17024.16,25.52,-1.00,-1.0,2435
4894,2139894,16892,904,1080,16950.61,25.38,-1.00,-1.0,2365
4899,2139899,16924,736,1284,16988.59,25.47,-1.00,-1.0,2447
4902,2139902,16960,892,1088,17018.26,25.47,-1.00,-1.0,2366
4905,2139905,16976,852,1216,17040.81,25.47,-1.00,-1.0,2447
4907,2139907,16980,872,1160,17041.90,25.47,-1.00,-1.0,2372
4910,2139910,17092,944,1244,17163.19,25.47,-1.00,-1.0,2360
4913,2139913,17004,804,1036,17054.49,25.52,-1.00,-1.0,2442
4915,2139915,16852,872,1184,16916.03,25.47,-1.00,-1.0,2365
4918,2139918,16964,824,1304,17033.99,25.52,-1.00,-1.0,2436
4921,2139921,16992,708,1132,17044.38,25.57,-1.00,-1.0,2379
4926,2139926,16968,756,1192,17026.61,25.38,-1.00,-1.0,2473
4929,2139929,16912,912,1212,16979.88,25.57,-1.00,-1.0,2366
4932,2139932,16888,920,1244,16958.73,25.42,-1.00,-1.0,2444
4934,2139934,17100,920,1156,17163.70,25.38,-1.00,-1.0,2362
4937,2139937,16928,816,1080,16982.03,25.52,-1.00,-1.0,2440
4940,2139940,17020,804,1172,17079.24,25.47,-1.00,-1.0,2354
4943,2139943,16940,848,1152,17000.29,25.42,-1.00,-1.0,2436
4945,2139945,16948,856,1124,17006.79,25.47,-1.00,-1.0,2366
4948,2139948,16984,828,1160,17043.69,25.47,-1.00,-1.0,2368
4953,2139953,17016,868,1056,17070.82,25.47,-1.00,-1.0,2448
4956,2139956,17028,816,1224,17091.43,25.52,-1.00,-1.0,2371
4958,2139958,16932,872,1020,16985.09,25.57,-1.00,-1.0,2454
4961,2139961,16984,800,1376,17058.42,25.47,-1.00,-1.0,2368
4964,2139964,16912,864,1088,16968.97,25.47,-1.00,-1.0,2454
4967,2139967,16948,860,1156,17009.13,25.57,-1.00,-1.0,2372
4970,2139970,17012,888,1244,17080.52,25.57,-1.00,-1.0,2448
4972,2139972,16996,876,1276,17066.33,25.47,-1.00,-1.0,2366
4977,2139977,17052,848,1192,17114.63,25.52,-1.00,-1.0,2448
4980,2139980,16964,940,1168,17030.12,25.52,-1.00,-1.0,2363
4983,2139983,16984,800,1284,17051.24,25.47,-1.00,-1.0,2447
4985,2139985,17052,820,1296,17120.83,25.42,-1.00,-1.0,2363
4988,2139988,17084,812,1192,17144.77,25.47,-1.00,-1.0,2368
4991,2139991,16984,888,1216,17050.62,25.47,-1.00,-1.0,2443
4993,2139993,16964,808,1100,17018.82,25.52,-1.00,-1.0,2364
4996,2139996,16944,860,1092,17000.92,25.38,-1.00,-1.0,2454
4999,2139999,16940,892,1184,17004.74,25.42,-1.00,-1.0,2363
5004,2140004,16940,836,1076,16994.71,25.47,-1.00,-1.0,2457
5007,2140007,16928,848,1208,16992.22,25.38,-1.00,-1.0,2352
5010,2140010,16972,820,1172,17032.17,25.47,-1.00,-1.0,2452
5012,2140012,16960,884,1152,17022.05,25.47,-1.00,-1.0,2373
5015,2140015,16988,824,1240,17053.12,25.42,-1.00,-1.0,2450
5018,2140018,16976,884,1260,17045.63,25.47,-1.00,-1.0,2368
5020,2140020,17072,856,1144,17131.69,25.42,-1.00,-1.0,2349
5023,2140023,16944,896,1148,17006.46,25.47,-1.00,-1.0,2439
5026,2140026,16900,832,1140,16958.83,25.42,-1.00,-1.0,2364
5032,2140032,16832,856,1368,16909.18,25.57,-1.00,-1.0,2465
5034,2140034,16972,892,1188,17036.89,25.38,-1.00,-1.0,2366
5037,2140037,16984,896,1208,17050.46,25.42,-1.00,-1.0,2451
5040,2140040,17012,828,1180,17072.96,25.47,-1.00,-1.0,2380
5043,2140043,16976,868,1376,17053.78,25.52,-1.00,-1.0,2441
5045,2140045,16940,816,1244,17005.21,25.38,-1.00,-1.0,2367
5048,2140048,17032,928,1064,17090.42,25.42,-1.00,-1.0,2451
5051,2140051,16936,892,1004,16989.17,25.47,-1.00,-1.0,2378
5056,2140056,17064,860,1016,17115.84,25.42,-1.00,-1.0,2447
5059,2140059,17052,868,1164,17113.71,25.52,-1.00,-1.0,2363
5061,2140061,17012,824,1292,17080.88,25.52,-1.00,-1.0,2347
5064,2140064,17028,832,1104,17084.02,25.47,-1.00,-1.0,2440
5067,2140067,17016,848,1148,17075.75,25.42,-1.00,-1.0,2364
5069,2140069,17080,796,1184,17139.48,25.42,-1.00,-1.0,2439
5072,2140072,16960,888,1180,17024.18,25.42,-1.00,-1.0,2363
5075,2140075,17024,836,1172,17084.76,25.47,-1.00,-1.0,2444
5078,2140078,17020,856,1228,17085.70,25.52,-1.00,-1.0,2364
5083,2140083,16980,844,1268,17048.18,25.42,-1.00,-1.0,2448
5085,2140085,16948,936,1268,17021.12,25.42,-1.00,-1.0,2371
5088,2140088,16988,844,1212,17052.08,25.52,-1.00,-1.0,2440
5091,2140091,17012,772,1204,17072.02,25.52,-1.00,-1.0,2364
5094,2140094,17044,908,1192,17109.74,25.33,-1.00,-1.0,2450
5096,2140096,16952,980,1228,17024.65,25.42,-1.00,-1.0,2371
5099,2140099,17044,956,1176,17111.25,25.42,-1.00,-1.0,2361
5102,2140102,16964,908,1120,17025.16,25.47,-1.00,-1.0,2446
5104,2140104,17016,840,1372,17091.88,25.52,-1.00,-1.0,2364
5109,2140109,17012,868,1204,17076.63,25.42,-1.00,-1.0,2450
5112,2140112,17044,872,1200,17108.43,25.52,-1.00,-1.0,2350
5115,2140115,16976,980,1160,17043.78,25.52,-1.00,-1.0,2443
5117,2140117,16992,860,1260,17060.34,25.52,-1.00,-1.0,2362
5120,2140120,17032,900,1184,17096.81,25.52,-1.00,-1.0,2441
5123,2140123,16940,800,1248,17004.74,25.52,-1.00,-1.0,2379
5126,2140126,17016,904,1164,17079.71,25.52,-1.00,-1.0,2441
5128,2140128,16984,844,1060,17037.96,25.52,-1.00,-1.0,2370
5133,2140133,16996,852,1128,17054.69,25.61,-1.00,-1.0,2447
5136,2140136,16980,832,1240,17045.53,25.52,-1.00,-1.0,2365
5139,2140139,16912,908,1004,16966.09,25.42,-1.00,-1.0,2361
5142,2140142,17028,812,1192,17088.97,25.57,-1.00,-1.0,2449
5144,2140144,16928,852,1160,16989.08,25.52,-1.00,-1.0,2371
5147,2140147,16992,892,1228,17059.65,25.57,-1.00,-1.0,2441
5150,2140150,17004,744,1192,17061.96,25.52,-1.00,-1.0,2364
5153,2140153,16940,796,1116,16995.37,25.38,-1.00,-1.0,2452
5155,2140155,16880,896,1140,16942.16,25.42,-1.00,-1.0,2371
5160,2140160,16988,816,1060,17040.59,25.42,-1.00,-1.0,2456
5163,2140163,16948,916,1136,17010.71,25.52,-1.00,-1.0,2370
5166,2140166,17004,824,1104,17059.71,25.33,-1.00,-1.0,2435
5168,2140168,17008,836,1284,17076.87,25.52,-1.00,-1.0,2364
5171,2140171,17028,848,1256,17095.30,25.52,-1.00,-1.0,2451
5174,2140174,17116,904,1320,17190.61,25.42,-1.00,-1.0,2370
5177,2140177,17044,792,1092,17097.30,25.47,-1.00,-1.0,2362
5179,2140179,16976,696,1200,17032.59,25.57,-1.00,-1.0,2443
5182,2140182,16920,852,1200,16983.88,25.52,-1.00,-1.0,2371
5187,2140187,16912,784,1204,16972.92,25.52,-1.00,-1.0,2455
5190,2140190,16976,780,1140,17032.10,25.52,-1.00,-1.0,2371
5193,2140193,16960,816,1248,17025.42,25.47,-1.00,-1.0,2443
5195,2140195,17036,840,1232,17101.13,25.33,-1.00,-1.0,2365
5198,2140198,17012,972,1360,17093.93,25.52,-1.00,-1.0,2450
5201,2140201,17076,752,1240,17137.47,25.52,-1.00,-1.0,2370
5204,2140204,16960,876,1200,17024.95,25.57,-1.00,-1.0,2448
5206,2140206,16912,804,1112,16967.58,25.52,-1.00,-1.0,2365
5211,2140211,16992,908,1284,17064.62,25.42,-1.00,-1.0,2447
5214,2140214,16992,832,1096,17047.62,25.42,-1.00,-1.0,2363
5217,2140217,16924,808,1092,16978.43,25.47,-1.00,-1.0,2415
5220,2140220,16952,904,1108,17012.21,25.38,-1.00,-1.0,2452
5222,2140222,16984,868,1340,17058.88,25.42,-1.00,-1.0,2364
5225,2140225,16912,848,1136,16971.31,25.52,-1.00,-1.0,2451
5228,2140228,17092,820,1088,17146.21,25.52,-1.00,-1.0,2370
5231,2140231,17024,856,1112,17081.74,25.38,-1.00,-1.0,2444
5233,2140233,16944,908,1168,17008.46,25.42,-1.00,-1.0,2364
5238,2140238,16948,848,1092,17004.30,25.47,-1.00,-1.0,2444
5241,2140241,17004,828,1320,17075.25,25.42,-1.00,-1.0,2364
5244,2140244,17016,856,1112,17073.77,25.38,-1.00,-1.0,2450
5247,2140247,17104,832,1244,17169.35,25.42,-1.00,-1.0,2360
5249,2140249,17004,920,1052,17061.33,25.57,-1.00,-1.0,2440
5252,2140252,17020,776,1180,17078.49,25.42,-1.00,-1.0,2365
5255,2140255,16996,828,1252,17062.15,25.47,-1.00,-1.0,2363
5258,2140258,16948,796,1024,16997.55,25.47,-1.00,-1.0,2452
5260,2140260,16988,824,1152,17046.94,25.52,-1.00,-1.0,2363
5265,2140265,16888,844,1224,16953.32,25.52,-1.00,-1.0,2445
5268,2140268,16972,920,1140,17035.10,25.42,-1.00,-1.0,2363
5271,2140271,16988,820,1276,17055.58,25.42,-1.00,-1.0,2449
5273,2140273,16972,888,1316,17046.09,25.42,-1.00,-1.0,2364
5276,2140276,16980,848,1288,17049.88,25.52,-1.00,-1.0,2440
5279,2140279,17012,836,1224,17076.45,25.52,-1.00,-1.0,2363
5282,2140282,16960,848,1264,17028.16,25.42,-1.00,-1.0,2447
5284,2140284,17048,960,1068,17108.38,25.52,-1.00,-1.0,2363
5289,2140289,16984,860,1108,17041.82,25.42,-1.00,-1.0,2451
5292,2140292,17032,868,1144,17092.43,25.42,-1.00,-1.0,2364
5295,2140295,17064,812,1312,17133.62,25.38,-1.00,-1.0,2366
5298,2140298,17028,848,1132,17086.64,25.42,-1.00,-1.0,2451
5300,2140300,16936,892,1172,16999.92,25.47,-1.00,-1.0,2371
5303,2140303,17000,948,1064,17059.62,25.42,-1.00,-1.0,2446
5306,2140306,17008,988,1112,17072.92,25.42,-1.00,-1.0,2422
5309,2140309,17028,848,1148,17087.71,25.47,-1.00,-1.0,2441
5311,2140311,16888,896,1092,16946.97,25.47,-1.00,-1.0,2371
5316,2140316,16968,900,1172,17032.22,25.47,-1.00,-1.0,2446
5319,2140319,16956,840,1176,17017.48,25.42,-1.00,-1.0,2366
5322,2140322,17024,860,1140,17083.79,25.57,-1.00,-1.0,2436
5325,2140325,16892,948,1188,16960.24,25.42,-1.00,-1.0,2365
5327,2140327,16952,908,1200,17018.66,25.47,-1.00,-1.0,2435
5330,2140330,17008,916,1124,17069.70,25.52,-1.00,-1.0,2364
5333,2140333,16992,872,1224,17058.33,25.57,-1.00,-1.0,2370
5335,2140335,17032,924,1300,17106.51,25.33,-1.00,-1.0,2450
5338,2140338,17024,844,1232,17089.38,25.47,-1.00,-1.0,2366
5343,2140343,16892,928,1244,16963.15,25.57,-1.00,-1.0,2465
5346,2140346,16956,800,1148,17013.64,25.47,-1.00,-1.0,2369
5349,2140349,16920,768,1244,16983.04,25.52,-1.00,-1.0,2444
5352,2140352,17028,824,1264,17094.72,25.42,-1.00,-1.0,2368
5355,2140355,16976,816,1160,17035.14,25.52,-1.00,-1.0,2449
5357,2140357,17028,820,1116,17084.22,25.52,-1.00,-1.0,2370
5360,2140360,16964,876,1128,17024.01,25.33,-1.00,-1.0,2445
5363,2140363,17084,824,1276,17151.39,25.52,-1.00,-1.0,2350
5368,2140368,16880,876,1160,16942.47,25.47,-1.00,-1.0,2457
5370,2140370,16988,824,1148,17046.67,25.57,-1.00,-1.0,2364
5373,2140373,16972,812,1120,17028.29,25.52,-1.00,-1.0,2374
5376,2140376,16944,788,1036,16993.92,25.52,-1.00,-1.0,2440
5378,2140378,16876,836,1164,16936.74,25.52,-1.00,-1.0,2371
5381,2140381,16960,868,1244,17027.70,25.61,-1.00,-1.0,2446
5384,2140384,17008,796,1164,17066.36,25.33,-1.00,-1.0,2378
5387,2140387,16952,884,1160,17014.62,25.52,-1.00,-1.0,2440
5389,2140389,16988,912,1144,17050.88,25.42,-1.00,-1.0,2367
5394,2140394,16960,848,1120,17018.08,25.52,-1.00,-1.0,2446
5397,2140397,16960,876,1212,17025.80,25.47,-1.00,-1.0,2362
5400,2140400,16976,896,1084,17034.16,25.52,-1.00,-1.0,2446
5403,2140403,17012,940,1172,17078.21,25.57,-1.00,-1.0,2370
5405,2140405,16852,792,1268,16918.19,25.42,-1.00,-1.0,2371
5408,2140408,16964,724,1176,17020.12,25.52,-1.00,-1.0,2444
5411,2140411,16936,876,1136,16996.65,25.52,-1.00,-1.0,2349
5414,2140414,16996,876,1060,17051.54,25.47,-1.00,-1.0,2448
5416,2140416,16980,836,1268,17047.79,25.42,-1.00,-1.0,2369
5421,2140421,17012,892,1204,17077.86,25.42,-1.00,-1.0,2447
5424,2140424,16920,816,1096,16975.08,25.42,-1.00,-1.0,2364
5427,2140427,16960,816,1120,17016.52,25.52,-1.00,-1.0,2443
5430,2140430,16908,864,1156,16969.48,25.52,-1.00,-1.0,2369
5432,2140432,17008,888,1256,17077.42,25.42,-1.00,-1.0,2439
5435,2140435,17044,872,1100,17101.71,25.42,-1.00,-1.0,2366
5438,2140438,16972,856,1060,17026.60,25.52,-1.00,-1.0,2437
5441,2140441,16952,992,1156,17020.30,25.47,-1.00,-1.0,2369
5443,2140443,16996,812,1208,17058.21,25.52,-1.00,-1.0,2361
5448,2140448,17028,824,1200,17090.11,25.47,-1.00,-1.0,2450
5451,2140451,17036,848,1060,17090.00,25.52,-1.00,-1.0,2365
5454,2140454,16988,912,1248,17058.18,25.57,-1.00,-1.0,2438
5457,2140457,16920,908,1344,16997.56,25.38,-1.00,-1.0,2362
5459,2140459,16972,848,1068,17026.70,25.57,-1.00,-1.0,2439
5462,2140462,17028,768,1128,17082.59,25.52,-1.00,-1.0,2366
5465,2140465,16956,828,1100,17011.80,25.47,-1.00,-1.0,2438
5468,2140468,16952,820,1264,17018.82,25.47,-1.00,-1.0,2363
5472,2140472,17016,816,1224,17079.47,25.47,-1.00,-1.0,2446
5475,2140475,16992,868,1256,17060.45,25.47,-1.00,-1.0,2362
5478,2140478,16916,748,1148,16971.40,25.57,-1.00,-1.0,2438
5481,2140481,16940,804,996,16988.29,25.47,-1.00,-1.0,2362
5483,2140483,16944,800,1128,17000.34,25.52,-1.00,-1.0,2359
5486,2140486,16900,900,1020,16954.66,25.42,-1.00,-1.0,2438
5489,2140489,16924,868,1308,16996.65,25.52,-1.00,-1.0,2362
5492,2140492,17020,740,1340,17088.70,25.42,-1.00,-1.0,2445
5495,2140495,16984,844,1144,17043.39,25.47,-1.00,-1.0,2362
5500,2140500,16956,868,1248,17024.01,25.38,-1.00,-1.0,2452
5502,2140502,16880,932,1140,16944.10,25.47,-1.00,-1.0,2369
5505,2140505,17024,860,1224,17089.60,25.47,-1.00,-1.0,2438
5508,2140508,16936,804,1068,16988.68,25.47,-1.00,-1.0,2362
5511,2140511,17036,860,1104,17093.38,25.57,-1.00,-1.0,2448
5513,2140513,16956,780,1168,17014.07,25.47,-1.00,-1.0,2369
5516,2140516,17080,896,1144,17141.70,25.57,-1.00,-1.0,2439
5519,2140519,17000,944,1132,17063.78,25.47,-1.00,-1.0,2362
5522,2140522,16928,976,1128,16993.59,25.52,-1.00,-1.0,2363
5527,2140527,16984,872,1208,17049.22,25.57,-1.00,-1.0,2447
5529,2140529,16992,808,1204,17053.75,25.38,-1.00,-1.0,2366
5532,2140532,16956,868,1252,17024.30,25.52,-1.00,-1.0,2438
5535,2140535,16956,948,1200,17024.82,25.57,-1.00,-1.0,2365
5538,2140538,16952,876,1236,17019.56,25.52,-1.00,-1.0,2432
5540,2140540,16988,812,1172,17047.73,25.47,-1.00,-1.0,2370
5543,2140543,17000,928,1200,17067.55,25.52,-1.00,-1.0,2439
5546,2140546,16940,828,1184,17001.50,25.47,-1.00,-1.0,2349
5551,2140551,17128,864,1272,17196.88,25.57,-1.00,-1.0,2453
5553,2140553,17044,936,1200,17111.81,25.57,-1.00,-1.0,2365
5556,2140556,16956,896,1188,17021.17,25.47,-1.00,-1.0,2449
5559,2140559,16908,940,1108,16970.32,25.38,-1.00,-1.0,2369
5562,2140562,16916,904,1176,16980.91,25.57,-1.00,-1.0,2361
5564,2140564,16908,960,1264,16982.34,25.42,-1.00,-1.0,2439
5567,2140567,16976,840,1144,17035.23,25.57,-1.00,-1.0,2350
5570,2140570,16948,760,1176,17005.74,25.52,-1.00,-1.0,2437
5573,2140573,16948,932,1184,17014.85,25.52,-1.00,-1.0,2369
5579,2140579,17000,904,1220,17067.68,25.57,-1.00,-1.0,2454
5582,2140582,17072,812,1184,17132.26,25.47,-1.00,-1.0,2374
5585,2140585,16920,812,1164,16979.42,25.42,-1.00,-1.0,2448
5588,2140588,16856,780,1160,16913.86,25.38,-1.00,-1.0,2364
5591,2140591,17020,876,1228,17086.71,25.42,-1.00,-1.0,2451
5593,2140593,16984,876,1216,17049.99,25.47,-1.00,-1.0,2372
5596,2140596,16860,792,1232,16923.50,25.52,-1.00,-1.0,2446
5599,2140599,16932,944,1112,16994.71,25.47,-1.00,-1.0,2365
5601,2140601,17028,860,1104,17085.41,25.42,-1.00,-1.0,2347
5606,2140606,16952,800,1368,17025.91,25.52,-1.00,-1.0,2454
5609,2140609,17008,948,1120,17071.18,25.42,-1.00,-1.0,2371
5612,2140612,17068,932,1216,17136.62,25.42,-1.00,-1.0,2439
5615,2140615,16972,908,1148,17035.00,25.38,-1.00,-1.0,2421
5618,2140618,16968,852,1076,17023.42,25.42,-1.00,-1.0,2444
5620,2140620,17000,836,1180,17061.40,25.47,-1.00,-1.0,2375
5623,2140623,17008,864,1268,17077.07,25.42,-1.00,-1.0,2426
5626,2140626,17080,888,1068,17136.38,25.47,-1.00,-1.0,2377
5631,2140631,16920,892,1100,16979.17,25.47,-1.00,-1.0,2451
5633,2140633,16924,908,1124,16985.57,25.57,-1.00,-1.0,2366
5636,2140636,16936,836,1240,17001.90,25.52,-1.00,-1.0,2451
5639,2140639,16932,824,1184,16993.34,25.47,-1.00,-1.0,2364
5641,2140641,17008,788,1264,17073.10,25.42,-1.00,-1.0,2365
5644,2140644,17076,820,1284,17143.83,25.42,-1.00,-1.0,2439
5647,2140647,16972,804,1224,17035.06,25.52,-1.00,-1.0,2379
5650,2140650,17040,924,1320,17116.01,25.52,-1.00,-1.0,2435
5652,2140652,17012,860,1220,17077.36,25.52,-1.00,-1.0,2368
5657,2140657,16940,920,1236,17009.93,25.42,-1.00,-1.0,2452
5660,2140660,17076,908,1120,17136.76,25.52,-1.00,-1.0,2366
5663,2140663,17028,848,1068,17082.52,25.52,-1.00,-1.0,2431
5666,2140666,16948,904,1052,17004.66,25.42,-1.00,-1.0,2370
5669,2140669,17080,936,1052,17137.95,25.61,-1.00,-1.0,2445
5671,2140671,17064,860,1080,17119.76,25.52,-1.00,-1.0,2367
5674,2140674,16976,908,1124,17037.38,25.42,-1.00,-1.0,2449
5677,2140677,16980,872,1232,17046.95,25.42,-1.00,-1.0,2371
5679,2140679,16952,836,1224,17016.68,25.42,-1.00,-1.0,2367
5684,2140684,16956,896,1252,17025.75,25.47,-1.00,-1.0,2431
5687,2140687,17004,892,1216,17070.74,25.42,-1.00,-1.0,2366
5690,2140690,17044,848,1196,17106.94,25.57,-1.00,-1.0,2432
5692,2140692,16888,868,1204,16953.10,25.47,-1.00,-1.0,2366
5695,2140695,16984,820,1136,17041.69,25.47,-1.00,-1.0,2436
5698,2140698,16972,860,1168,17033.87,25.42,-1.00,-1.0,2366
5701,2140701,16920,892,1128,16981.00,25.57,-1.00,-1.0,2435
5703,2140703,16948,892,1232,17016.12,25.47,-1.00,-1.0,2372
5708,2140708,17028,860,1252,17095.61,25.61,-1.00,-1.0,2453
5711,2140711,16960,932,1224,17029.63,25.61,-1.00,-1.0,2379
5714,2140714,17036,860,1112,17093.90,25.52,-1.00,-1.0,2440
5716,2140716,16900,920,1204,16967.79,25.52,-1.00,-1.0,2376
5719,2140719,16928,860,1156,16989.21,25.47,-1.00,-1.0,2359
5722,2140722,16988,828,1236,17053.02,25.47,-1.00,-1.0,2436
5725,2140725,16996,884,1172,17059.28,25.47,-1.00,-1.0,2365
5727,2140727,16936,876,1096,16994.02,25.47,-1.00,-1.0,2435
5730,2140730,16956,888,1272,17026.82,25.47,-1.00,-1.0,2367
5735,2140735,17020,824,1200,17082.14,25.57,-1.00,-1.0,2459
5738,2140738,16960,864,1156,17021.29,25.42,-1.00,-1.0,2368
5741,2140741,17032,796,1172,17090.82,25.57,-1.00,-1.0,2447
5743,2140743,17076,932,1116,17137.79,25.42,-1.00,-1.0,2373
5746,2140746,16956,828,1092,17011.29,25.57,-1.00,-1.0,2444
5749,2140749,16936,852,1216,17000.96,25.52,-1.00,-1.0,2368
5751,2140751,17012,808,1112,17067.44,25.38,-1.00,-1.0,2348
5754,2140754,16992,824,1120,17048.79,25.47,-1.00,-1.0,2435
5757,2140757,17028,880,1156,17089.87,25.42,-1.00,-1.0,2366
5762,2140762,16996,820,1244,17061.18,25.52,-1.00,-1.0,2451
5764,2140764,17024,872,1208,17089.07,25.52,-1.00,-1.0,2364
5767,2140767,16912,804,1208,16974.14,25.38,-1.00,-1.0,2446
5770,2140770,17008,868,1124,17067.19,25.42,-1.00,-1.0,2372
5773,2140773,16988,940,1164,17053.76,25.42,-1.00,-1.0,2438
5775,2140775,16968,856,1196,17031.62,25.42,-1.00,-1.0,2364
5778,2140778,16948,888,1228,17015.62,25.47,-1.00,-1.0,2448
5781,2140781,17016,900,1212,17082.83,25.61,-1.00,-1.0,2374
5786,2140786,16984,896,1188,17049.06,25.42,-1.00,-1.0,2444
5789,2140789,17048,848,1188,17110.37,25.42,-1.00,-1.0,2365
5791,2140791,17028,936,1260,17100.19,25.47,-1.00,-1.0,2365
5794,2140794,16980,872,1140,17040.55,25.57,-1.00,-1.0,2451
5797,2140797,16948,828,1136,17006.20,25.42,-1.00,-1.0,2372
5800,2140800,17000,852,1052,17053.81,25.47,-1.00,-1.0,2444
5802,2140802,17032,860,1244,17099.01,25.47,-1.00,-1.0,2366
5805,2140805,16964,712,1152,17017.97,25.57,-1.00,-1.0,2451
5808,2140808,17048,836,1184,17109.50,25.42,-1.00,-1.0,2371
5813,2140813,17012,912,1280,17084.45,25.42,-1.00,-1.0,2450
5815,2140815,16932,840,1388,17009.55,25.42,-1.00,-1.0,2351
5818,2140818,17028,888,1248,17096.75,25.47,-1.00,-1.0,2436
5821,2140821,16968,860,1220,17033.53,25.52,-1.00,-1.0,2365
5824,2140824,16996,812,1172,17055.70,25.52,-1.00,-1.0,2442
5826,2140826,17052,824,1272,17119.22,25.52,-1.00,-1.0,2364
5829,2140829,16964,840,1080,17019.09,25.52,-1.00,-1.0,2359
5832,2140832,16992,816,1224,17055.56,25.47,-1.00,-1.0,2443
5834,2140834,16964,848,1224,17029.23,25.52,-1.00,-1.0,2364
5839,2140839,16916,852,1184,16978.78,25.42,-1.00,-1.0,2444
5842,2140842,17020,876,1304,17092.34,25.42,-1.00,-1.0,2364
5845,2140845,16916,852,1340,16990.37,25.52,-1.00,-1.0,2438
5848,2140848,17040,788,1172,17098.42,25.52,-1.00,-1.0,2364
5850,2140850,17016,868,1296,17087.34,25.42,-1.00,-1.0,2434
5853,2140853,17004,912,1320,17079.53,25.52,-1.00,-1.0,2364
5856,2140856,16940,844,1076,16995.11,25.42,-1.00,-1.0,2436
5859,2140859,16996,820,1092,17050.77,25.42,-1.00,-1.0,2365
5865,2140865,16940,800,1252,17005.03,25.52,-1.00,-1.0,2443
5868,2140868,16976,900,1292,17048.87,25.52,-1.00,-1.0,2364
5871,2140871,16944,740,1052,16992.75,25.52,-1.00,-1.0,2359
5873,2140873,17024,852,1144,17083.65,25.47,-1.00,-1.0,2436
5876,2140876,17004,936,1168,17069.75,25.42,-1.00,-1.0,2365
5879,2140879,17092,980,1216,17163.20,25.47,-1.00,-1.0,2436
5882,2140882,17000,924,1148,17063.75,25.52,-1.00,-1.0,2364
5884,2140884,16960,804,1124,17016.21,25.47,-1.00,-1.0,2437
5887,2140887,16992,888,1104,17050.96,25.42,-1.00,-1.0,2364
5892,2140892,17004,904,1236,17072.81,25.47,-1.00,-1.0,2443
5895,2140895,16932,848,1184,16994.52,25.47,-1.00,-1.0,2366
5897,2140897,16984,800,1228,17047.12,25.47,-1.00,-1.0,2437
5900,2140900,16956,720,1156,17010.61,25.47,-1.00,-1.0,2366
5903,2140903,16964,800,1304,17032.84,25.38,-1.00,-1.0,2442
5906,2140906,16952,892,1292,17024.55,25.47,-1.00,-1.0,2371
5908,2140908,16972,920,1376,17052.52,25.52,-1.00,-1.0,2370
5911,2140911,17044,836,1072,17098.13,25.52,-1.00,-1.0,2446
5914,2140914,17012,884,1196,17076.88,25.52,-1.00,-1.0,2367
5919,2140919,16980,872,1236,17047.24,25.47,-1.00,-1.0,2450
5921,2140921,17064,888,1224,17130.87,25.38,-1.00,-1.0,2363
5924,2140924,17044,732,952,17086.25,25.42,-1.00,-1.0,2452
5927,2140927,16892,968,1176,16960.53,25.57,-1.00,-1.0,2365
5930,2140930,16988,860,1224,17053.74,25.52,-1.00,-1.0,2441
5932,2140932,17016,788,1196,17076.17,25.57,-1.00,-1.0,2364
5935,2140935,16984,940,1252,17056.01,25.52,-1.00,-1.0,2443
5938,2140938,17012,820,1204,17074.25,25.47,-1.00,-1.0,2366
5943,2140943,16940,876,1120,16999.57,25.47,-1.00,-1.0,2443
5946,2140946,16924,892,1180,16988.52,25.52,-1.00,-1.0,2364
5948,2140948,17048,784,1100,17101.43,25.47,-1.00,-1.0,2359
5951,2140951,17056,1000,1208,17127.94,25.42,-1.00,-1.0,2435
5954,2140954,16932,820,1192,16993.70,25.47,-1.00,-1.0,2373
5956,2140956,17056,968,1036,17114.83,25.52,-1.00,-1.0,2435
5959,2140959,17056,812,1100,17110.71,25.47,-1.00,-1.0,2366
5962,2140962,16896,768,1296,16963.03,25.52,-1.00,-1.0,2435
5965,2140965,16988,896,1200,17053.88,25.47,-1.00,-1.0,2365
5970,2140970,16924,840,1188,16986.43,25.57,-1.00,-1.0,2447
5972,2140972,17056,844,1204,17119.26,25.38,-1.00,-1.0,2367
5975,2140975,16964,932,1048,17021.88,25.38,-1.00,-1.0,2436
5978,2140978,17008,896,1068,17065.04,25.42,-1.00,-1.0,2422
5981,2140981,16840,744,1192,16898.52,25.47,-1.00,-1.0,2433
5983,2140983,17036,920,1200,17102.97,25.42,-1.00,-1.0,2373
5986,2140986,16936,956,1256,17009.40,25.47,-1.00,-1.0,2360
5989,2140989,16888,712,1220,16946.97,25.47,-1.00,-1.0,2431
5992,2140992,17052,836,1216,17115.73,25.52,-1.00,-1.0,2371
5997,2140997,17028,868,1120,17086.86,25.42,-1.00,-1.0,2446
5999,2140999,16928,868,1276,16998.20,25.47,-1.00,-1.0,2371
6002,2141002,16900,880,1280,16971.23,25.47,-1.00,-1.0,2436
6005,2141005,16960,876,1140,17020.83,25.47,-1.00,-1.0,2365
6008,2141008,16916,828,1020,16966.94,25.47,-1.00,-1.0,2443
6010,2141010,16996,880,1028,17049.79,25.47,-1.00,-1.0,2372
6013,2141013,16992,868,1076,17048.14,25.47,-1.00,-1.0,2436
6016,2141016,17048,852,1264,17116.01,25.57,-1.00,-1.0,2365
6021,2141021,16992,852,1060,17046.34,25.52,-1.00,-1.0,2450
6023,2141023,16932,844,1248,16998.90,25.42,-1.00,-1.0,2365
6026,2141026,16988,772,1252,17051.56,25.47,-1.00,-1.0,2348
6029,2141029,16944,892,1212,17010.70,25.47,-1.00,-1.0,2437
6031,2141031,16908,880,1240,16976.23,25.42,-1.00,-1.0,2370
6034,2141034,16980,812,1224,17043.41,25.47,-1.00,-1.0,2422
6037,2141037,17048,864,1188,17111.17,25.57,-1.00,-1.0,2379
6040,2141040,17036,804,1040,17086.64,25.47,-1.00,-1.0,2439
6042,2141042,17036,976,1288,17112.47,25.42,-1.00,-1.0,2371
6047,2141047,17052,988,1144,17118.87,25.42,-1.00,-1.0,2443
6050,2141050,17036,864,1108,17093.84,25.52,-1.00,-1.0,2366
6053,2141053,16964,784,1224,17026.16,25.47,-1.00,-1.0,2451
6056,2141056,17008,952,1148,17073.26,25.52,-1.00,-1.0,2360
6058,2141058,16864,836,1088,16919.73,25.42,-1.00,-1.0,2435
6061,2141061,17000,880,1096,17058.01,25.52,-1.00,-1.0,2366
6064,2141064,17016,764,1240,17078.22,25.47,-1.00,-1.0,2363
6067,2141067,16980,884,1392,17059.88,25.47,-1.00,-1.0,2449
6069,2141069,16908,808,1148,16966.18,25.47,-1.00,-1.0,2375
6074,2141074,17112,724,1260,17173.59,25.47,-1.00,-1.0,2449
6077,2141077,16996,876,1180,17059.42,25.47,-1.00,-1.0,2368
6080,2141080,16996,872,1188,17059.77,25.42,-1.00,-1.0,2430
6082,2141082,16936,780,1200,16996.37,25.47,-1.00,-1.0,2373
6085,2141085,16992,824,1140,17050.12,25.42,-1.00,-1.0,2436
6088,2141088,16904,876,1084,16961.36,25.47,-1.00,-1.0,2365
6091,2141091,16964,856,1276,17033.44,25.61,-1.00,-1.0,2447
6093,2141093,16912,780,1104,16965.94,25.47,-1.00,-1.0,2373
6098,2141098,16952,900,1180,17016.84,25.47,-1.00,-1.0,2454
6101,2141101,16988,828,1128,17045.53,25.47,-1.00,-1.0,2371
6104,2141104,16972,948,1380,17054.38,25.52,-1.00,-1.0,2359
6106,2141106,17036,856,1164,17097.16,25.61,-1.00,-1.0,2436
6109,2141109,16888,880,1212,16954.29,25.42,-1.00,-1.0,2366
6112,2141112,16900,784,1348,16971.79,25.42,-1.00,-1.0,2435
6115,2141115,17020,740,1212,17079.14,25.42,-1.00,-1.0,2364
6117,2141117,16948,824,1052,17000.60,25.42,-1.00,-1.0,2436
6120,2141120,17036,800,1268,17101.85,25.42,-1.00,-1.0,2365
