timestamp_ms,global_ms,accel_x,accel_y,accel_z,accel_mag,temp_c,voltage,soc,loop_us
2,2135002,17028,796,1088,17081.28,25.71,-1.00,-1.0,2502
14,2135014,16948,924,1168,17013.31,25.75,-1.00,-1.0,2461
17,2135017,16932,800,1216,16994.45,25.85,-1.00,-1.0,2351
20,2135020,17008,876,1260,17077.09,25.85,-1.00,-1.0,2365
22,2135022,16960,808,1256,17025.63,25.80,-1.00,-1.0,2441
25,2135025,17028,932,1216,17096.79,25.85,-1.00,-1.0,2366
28,2135028,17024,920,1208,17091.58,25.80,-1.00,-1.0,2449
31,2135031,16844,840,1148,16903.96,25.85,-1.00,-1.0,2373
33,2135033,16968,824,1236,17032.90,25.89,-1.00,-1.0,2433
36,2135036,16940,812,1256,17005.89,25.75,-1.00,-1.0,2366
45,2135045,16904,836,1112,16961.15,25.75,-1.00,-1.0,2446
47,2135047,17040,892,1284,17111.57,25.80,-1.00,-1.0,2365
50,2135050,16996,856,1284,17065.91,25.80,-1.00,-1.0,2442
53,2135053,17072,912,1204,17138.69,25.80,-1.00,-1.0,2375
56,2135056,16940,876,1208,17005.59,25.75,-1.00,-1.0,2362
58,2135058,16948,836,1240,17013.85,25.75,-1.00,-1.0,2433
61,2135061,17000,780,1224,17061.85,25.75,-1.00,-1.0,2366
64,2135064,17072,944,1104,17133.68,25.66,-1.00,-1.0,2432
67,2135067,17140,820,1204,17201.79,25.75,-1.00,-1.0,2366
75,2135075,16964,972,1188,17033.30,25.75,-1.00,-1.0,2451
77,2135077,16920,796,1280,16987.01,25.80,-1.00,-1.0,2369
80,2135080,16936,848,1148,16996.03,25.80,-1.00,-1.0,2441
83,2135083,16896,812,1128,16953.07,25.80,-1.00,-1.0,2375
86,2135086,16992,904,1168,17056.07,25.75,-1.00,-1.0,2361
88,2135088,16952,796,1228,17015.05,25.75,-1.00,-1.0,2434
91,2135091,17088,868,1064,17143.08,25.85,-1.00,-1.0,2368
94,2135094,17084,832,1244,17149.43,25.66,-1.00,-1.0,2439
97,2135097,17016,848,1200,17079.33,25.75,-1.00,-1.0,2367
105,2135105,16948,916,1112,17009.12,25.80,-1.00,-1.0,2453
107,2135107,16984,856,1252,17051.58,25.85,-1.00,-1.0,2431
110,2135110,16900,888,1204,16966.09,25.80,-1.00,-1.0,2438
113,2135113,16932,832,1284,17000.99,25.75,-1.00,-1.0,2374
116,2135116,17024,908,1164,17087.89,25.80,-1.00,-1.0,2369
118,2135118,17048,776,1232,17110.06,25.71,-1.00,-1.0,2431
121,2135121,17008,896,1136,17069.43,25.89,-1.00,-1.0,2375
124,2135124,17016,816,1184,17076.65,25.80,-1.00,-1.0,2429
127,2135127,17020,980,1292,17097.08,25.80,-1.00,-1.0,2374
135,2135135,16896,932,1184,16963.06,25.85,-1.00,-1.0,2444
137,2135137,16924,776,1120,16978.76,25.75,-1.00,-1.0,2376
140,2135140,16980,772,1244,17043.00,25.85,-1.00,-1.0,2447
143,2135143,16964,872,1060,17019.44,25.75,-1.00,-1.0,2384
146,2135146,16964,868,1116,17022.81,25.75,-1.00,-1.0,2435
148,2135148,16960,796,1296,17028.06,25.85,-1.00,-1.0,2372
151,2135151,17012,1000,1208,17084.13,25.75,-1.00,-1.0,2361
154,2135154,16904,888,1208,16970.36,25.71,-1.00,-1.0,2432
157,2135157,17008,812,1168,17067.38,25.75,-1.00,-1.0,2368
165,2135165,17056,804,1120,17111.63,25.80,-1.00,-1.0,2448
167,2135167,16932,908,1152,16995.42,25.71,-1.00,-1.0,2368
170,2135170,16932,796,1112,16987.14,25.80,-1.00,-1.0,2438
173,2135173,17000,892,1100,17058.89,25.71,-1.00,-1.0,2369
176,2135176,17048,848,1260,17115.52,25.89,-1.00,-1.0,2437
178,2135178,17016,884,1100,17074.42,25.80,-1.00,-1.0,2369
181,2135181,16912,824,1184,16973.41,25.80,-1.00,-1.0,2434
184,2135184,17024,860,1068,17079.13,25.80,-1.00,-1.0,2368
186,2135186,16912,804,1268,16978.52,25.80,-1.00,-1.0,2360
202,2135202,16964,848,1108,17021.28,25.80,-1.00,-1.0,2445
204,2135204,16940,960,1164,17007.06,25.75,-1.00,-1.0,2379
207,2135207,16932,896,1292,17004.84,25.80,-1.00,-1.0,2446
210,2135210,16988,832,1216,17051.78,25.75,-1.00,-1.0,2372
213,2135213,16984,788,1000,17031.65,25.80,-1.00,-1.0,2445
215,2135215,16976,836,1164,17036.38,25.85,-1.00,-1.0,2376
218,2135218,16844,872,1196,16908.91,25.80,-1.00,-1.0,2441
221,2135221,16928,788,988,16975.11,25.85,-1.00,-1.0,2372
223,2135223,17104,848,1248,17170.42,25.71,-1.00,-1.0,2363
233,2135233,17004,884,1224,17070.90,25.71,-1.00,-1.0,2443
236,2135236,17060,848,1240,17126.01,25.71,-1.00,-1.0,2372
239,2135239,16964,904,1264,17035.03,25.80,-1.00,-1.0,2437
241,2135241,17092,780,1116,17146.15,25.71,-1.00,-1.0,2370
244,2135244,16992,860,1236,17058.59,25.89,-1.00,-1.0,2435
247,2135247,16868,896,1212,16935.21,25.80,-1.00,-1.0,2377
250,2135250,16952,688,1140,17004.21,25.71,-1.00,-1.0,2436
252,2135252,16960,844,1152,17020.02,25.80,-1.00,-1.0,2371
260,2135260,17096,876,1228,17162.42,25.80,-1.00,-1.0,2444
263,2135263,17080,880,1216,17145.83,25.75,-1.00,-1.0,2372
266,2135266,16892,820,1308,16962.40,25.71,-1.00,-1.0,2362
269,2135269,17016,920,1088,17075.55,25.80,-1.00,-1.0,2447
271,2135271,17044,960,1196,17112.86,25.80,-1.00,-1.0,2377
274,2135274,16988,868,1192,17051.88,25.80,-1.00,-1.0,2435
277,2135277,16996,788,1228,17058.52,25.75,-1.00,-1.0,2422
280,2135280,16952,836,1108,17008.73,25.80,-1.00,-1.0,2427
282,2135282,16984,848,1320,17056.31,25.80,-1.00,-1.0,2374
291,2135291,16992,812,1156,17050.62,25.80,-1.00,-1.0,2438
294,2135294,16964,832,1160,17023.96,25.85,-1.00,-1.0,2368
297,2135297,16928,904,1192,16993.98,25.80,-1.00,-1.0,2453
300,2135300,16972,848,1296,17042.52,25.80,-1.00,-1.0,2363
302,2135302,16888,872,1240,16955.90,25.89,-1.00,-1.0,2370
305,2135305,16884,880,1188,16948.61,25.80,-1.00,-1.0,2441
308,2135308,16888,860,1064,16943.32,25.80,-1.00,-1.0,2371
311,2135311,16924,860,1112,16982.28,25.80,-1.00,-1.0,2444
313,2135313,16924,880,1260,16993.64,25.71,-1.00,-1.0,2376
321,2135321,16976,884,1012,17029.10,25.80,-1.00,-1.0,2455
324,2135324,17036,964,1168,17103.18,25.71,-1.00,-1.0,2375
327,2135327,16980,804,1072,17032.79,25.71,-1.00,-1.0,2450
329,2135329,17020,836,1040,17072.23,25.80,-1.00,-1.0,2368
332,2135332,17016,872,1204,17080.82,25.71,-1.00,-1.0,2428
335,2135335,16920,852,1120,16978.42,25.71,-1.00,-1.0,2375
337,2135337,17008,816,1276,17075.31,25.75,-1.00,-1.0,2369
340,2135340,16980,804,1124,17036.14,25.75,-1.00,-1.0,2433
343,2135343,16956,840,1208,17019.72,25.71,-1.00,-1.0,2368
350,2135350,16976,880,972,17026.56,25.71,-1.00,-1.0,2442
353,2135353,16984,984,1232,17057.03,25.80,-1.00,-1.0,2370
356,2135356,16956,856,1264,17024.58,25.80,-1.00,-1.0,2448
359,2135359,16880,848,1244,16947.01,25.80,-1.00,-1.0,2375
362,2135362,16960,828,1080,17014.51,25.75,-1.00,-1.0,2445
364,2135364,16932,848,1128,16990.71,25.80,-1.00,-1.0,2369
367,2135367,16924,824,1272,16991.72,25.80,-1.00,-1.0,2445
370,2135370,17028,940,1176,17094.43,25.80,-1.00,-1.0,2375
372,2135372,16980,824,1072,17033.75,25.75,-1.00,-1.0,2369
380,2135380,16996,908,1220,17063.91,25.80,-1.00,-1.0,2448
383,2135383,16928,816,1160,16987.31,25.80,-1.00,-1.0,2376
386,2135386,16936,896,1152,16998.77,25.85,-1.00,-1.0,2453
388,2135388,16984,768,1104,17037.16,25.85,-1.00,-1.0,2377
391,2135391,16904,864,1132,16963.88,25.85,-1.00,-1.0,2442
394,2135394,16960,868,1108,17018.30,25.75,-1.00,-1.0,2375
397,2135397,16984,900,1172,17048.16,25.85,-1.00,-1.0,2444
399,2135399,17020,884,1136,17080.76,25.85,-1.00,-1.0,2377
402,2135402,16972,880,1328,17046.61,25.75,-1.00,-1.0,2361
410,2135410,16992,860,1148,17052.44,25.75,-1.00,-1.0,2442
412,2135412,17032,940,1160,17097.32,25.75,-1.00,-1.0,2379
415,2135415,17032,836,1220,17096.09,25.85,-1.00,-1.0,2444
418,2135418,17068,956,1156,17133.79,25.85,-1.00,-1.0,2371
421,2135421,16976,864,1228,17042.27,25.75,-1.00,-1.0,2445
423,2135423,16972,924,1216,17040.58,25.75,-1.00,-1.0,2379
426,2135426,17064,984,1256,17138.43,25.75,-1.00,-1.0,2434
429,2135429,16900,844,1268,16968.51,25.75,-1.00,-1.0,2356
436,2135436,17048,952,1144,17112.84,25.85,-1.00,-1.0,2440
439,2135439,17016,824,1180,17076.76,25.80,-1.00,-1.0,2369
442,2135442,17036,800,1076,17088.68,25.85,-1.00,-1.0,2364
445,2135445,16960,740,1024,17006.99,25.94,-1.00,-1.0,2453
447,2135447,16932,800,1148,16989.72,25.85,-1.00,-1.0,2379
450,2135450,17000,872,1120,17059.16,25.80,-1.00,-1.0,2442
453,2135453,16996,868,1144,17056.56,25.75,-1.00,-1.0,2371
456,2135456,16940,788,1420,17017.67,25.80,-1.00,-1.0,2445
458,2135458,17056,964,1204,17125.60,25.85,-1.00,-1.0,2379
466,2135466,17032,928,1136,17095.05,25.85,-1.00,-1.0,2433
469,2135469,17000,892,1080,17057.61,25.85,-1.00,-1.0,2375
472,2135472,17024,836,1308,17094.63,25.80,-1.00,-1.0,2453
474,2135474,16956,868,1124,17015.37,25.75,-1.00,-1.0,2377
477,2135477,17004,804,1192,17064.68,25.80,-1.00,-1.0,2361
480,2135480,17028,796,1304,17096.40,25.80,-1.00,-1.0,2431
482,2135482,16984,828,1260,17050.79,25.71,-1.00,-1.0,2370
485,2135485,17016,944,1188,17083.52,25.80,-1.00,-1.0,2435
488,2135488,17044,892,1064,17100.46,25.80,-1.00,-1.0,2370
495,2135495,16924,864,1272,16993.71,25.75,-1.00,-1.0,2438
498,2135498,16972,836,1156,17031.85,25.75,-1.00,-1.0,2367
501,2135501,17024,880,1156,17085.88,25.66,-1.00,-1.0,2439
504,2135504,16980,792,1044,17030.49,25.75,-1.00,-1.0,2375
506,2135506,16928,808,1176,16988.03,25.85,-1.00,-1.0,2434
509,2135509,16920,892,1080,16977.88,25.85,-1.00,-1.0,2367
512,2135512,16988,872,1216,17053.77,25.75,-1.00,-1.0,2369
515,2135515,17000,860,1024,17052.51,25.89,-1.00,-1.0,2444
517,2135517,17008,920,1212,17075.93,25.75,-1.00,-1.0,2375
525,2135525,16984,860,1104,17041.56,25.80,-1.00,-1.0,2438
528,2135528,17036,880,1176,17099.20,25.80,-1.00,-1.0,2367
530,2135530,17000,956,1140,17064.98,25.75,-1.00,-1.0,2439
533,2135533,17036,964,1104,17098.93,25.75,-1.00,-1.0,2368
536,2135536,16984,944,1200,17052.49,25.75,-1.00,-1.0,2433
539,2135539,17000,836,1028,17051.56,25.71,-1.00,-1.0,2367
541,2135541,16844,772,1284,16910.50,25.75,-1.00,-1.0,2436
544,2135544,17052,828,1136,17109.84,25.80,-1.00,-1.0,2368
547,2135547,17008,896,1144,17069.96,25.85,-1.00,-1.0,2370
554,2135554,16904,832,1316,16975.55,25.80,-1.00,-1.0,2438
557,2135557,16948,832,1292,17017.53,25.85,-1.00,-1.0,2369
560,2135560,16964,892,1184,17028.65,25.80,-1.00,-1.0,2453
563,2135563,17072,912,1268,17143.30,25.75,-1.00,-1.0,2362
565,2135565,16896,872,1036,16950.18,25.80,-1.00,-1.0,2440
568,2135568,16964,940,1188,17031.51,25.75,-1.00,-1.0,2370
571,2135571,17016,828,1192,17077.78,25.80,-1.00,-1.0,2442
574,2135574,16972,908,1268,17043.51,25.75,-1.00,-1.0,2375
581,2135581,16840,916,1216,16908.68,25.80,-1.00,-1.0,2443
584,2135584,16980,804,1236,17043.90,25.71,-1.00,-1.0,2370
587,2135587,16984,896,1224,17051.61,25.71,-1.00,-1.0,2362
590,2135590,17100,824,1188,17161.01,25.75,-1.00,-1.0,2447
592,2135592,16976,916,1156,17039.95,25.80,-1.00,-1.0,2375
595,2135595,17004,936,1184,17070.85,25.75,-1.00,-1.0,2435
598,2135598,16964,824,1196,17026.06,25.80,-1.00,-1.0,2367
601,2135601,16988,756,1152,17043.79,25.75,-1.00,-1.0,2446
603,2135603,17000,832,1280,17068.41,25.71,-1.00,-1.0,2378
611,2135611,16980,888,1092,17038.23,25.85,-1.00,-1.0,2425
614,2135614,16944,872,1116,17003.09,25.80,-1.00,-1.0,2367
616,2135616,16944,856,1100,17001.23,25.85,-1.00,-1.0,2360
619,2135619,16956,832,1216,17019.89,25.80,-1.00,-1.0,2440
622,2135622,17000,920,1096,17060.12,25.75,-1.00,-1.0,2368
625,2135625,16948,844,1236,17013.96,25.80,-1.00,-1.0,2441
627,2135627,16964,824,1276,17031.87,25.75,-1.00,-1.0,2367
630,2135630,16948,804,1260,17013.78,25.80,-1.00,-1.0,2438
633,2135633,16920,920,1092,16980.14,25.85,-1.00,-1.0,2368
641,2135641,17088,880,1196,17152.39,25.80,-1.00,-1.0,2441
643,2135643,16900,904,1252,16970.41,25.80,-1.00,-1.0,2367
646,2135646,16996,760,1196,17054.97,25.80,-1.00,-1.0,2442
649,2135649,16924,816,1116,16980.37,25.80,-1.00,-1.0,2367
651,2135651,16996,832,1220,17060.03,25.71,-1.00,-1.0,2365
654,2135654,17008,824,1284,17076.29,25.75,-1.00,-1.0,2443
657,2135657,16904,832,1304,16974.62,25.80,-1.00,-1.0,2376
660,2135660,16916,920,1048,16973.38,25.80,-1.00,-1.0,2437
662,2135662,16900,896,1160,16963.44,25.80,-1.00,-1.0,2367
670,2135670,17020,860,1308,17091.84,25.85,-1.00,-1.0,2439
673,2135673,17028,816,1156,17086.69,25.85,-1.00,-1.0,2370
676,2135676,16976,748,1192,17034.23,25.75,-1.00,-1.0,2437
679,2135679,17060,884,1176,17123.32,25.75,-1.00,-1.0,2368
681,2135681,16924,872,1148,16985.29,25.75,-1.00,-1.0,2436
684,2135684,16960,876,1080,17016.91,25.85,-1.00,-1.0,2371
687,2135687,16896,824,1172,16956.63,25.80,-1.00,-1.0,2362
689,2135689,17000,768,1128,17054.68,25.80,-1.00,-1.0,2421
692,2135692,16932,796,1272,16998.36,25.75,-1.00,-1.0,2368
702,2135702,17016,928,1160,17080.72,25.71,-1.00,-1.0,2446
704,2135704,17012,828,1204,17074.64,25.80,-1.00,-1.0,2367
707,2135707,16884,892,1260,16954.43,25.80,-1.00,-1.0,2440
710,2135710,16904,832,1152,16963.62,25.80,-1.00,-1.0,2369
713,2135713,17040,820,1296,17108.88,25.85,-1.00,-1.0,2447
716,2135716,17036,872,1116,17094.77,25.80,-1.00,-1.0,2406
718,2135718,16948,844,1240,17014.25,25.75,-1.00,-1.0,2434
721,2135721,17036,896,1316,17110.23,25.71,-1.00,-1.0,2373
724,2135724,17048,816,1116,17103.96,25.80,-1.00,-1.0,2369
732,2135732,17032,860,972,17081.38,25.71,-1.00,-1.0,2437
735,2135735,17100,880,940,17148.41,25.80,-1.00,-1.0,2367
737,2135737,16876,836,1044,16928.92,25.75,-1.00,-1.0,2440
740,2135740,17064,912,1192,17129.88,25.80,-1.00,-1.0,2366
743,2135743,16984,836,1204,17047.13,25.85,-1.00,-1.0,2433
746,2135746,16952,816,1332,17023.82,25.71,-1.00,-1.0,2367
748,2135748,17056,812,1228,17119.42,25.80,-1.00,-1.0,2433
751,2135751,17052,908,1192,17117.71,25.80,-1.00,-1.0,2366
762,2135762,16920,840,1216,16984.42,25.80,-1.00,-1.0,2438
764,2135764,16984,832,1184,17045.54,25.71,-1.00,-1.0,2369
767,2135767,16968,932,1072,17027.36,25.71,-1.00,-1.0,2360
770,2135770,16916,860,1152,16976.98,25.80,-1.00,-1.0,2438
772,2135772,16952,824,1144,17010.53,25.71,-1.00,-1.0,2367
775,2135775,17028,884,1240,17095.96,25.75,-1.00,-1.0,2435
778,2135778,16920,928,1224,16989.58,25.80,-1.00,-1.0,2369
781,2135781,16996,912,1240,17065.56,25.80,-1.00,-1.0,2439
783,2135783,16964,900,1200,17030.19,25.80,-1.00,-1.0,2367
792,2135792,16972,876,1208,17037.47,25.85,-1.00,-1.0,2446
794,2135794,16976,884,1232,17043.59,25.75,-1.00,-1.0,2369
797,2135797,17040,820,1044,17091.63,25.80,-1.00,-1.0,2375
800,2135800,16892,896,1168,16956.02,25.71,-1.00,-1.0,2436
802,2135802,16932,916,1188,16998.32,25.80,-1.00,-1.0,2377
805,2135805,17020,824,1288,17088.54,25.80,-1.00,-1.0,2436
808,2135808,16924,832,1188,16986.03,25.80,-1.00,-1.0,2383
811,2135811,16888,908,1256,16958.97,25.89,-1.00,-1.0,2432
813,2135813,16964,932,1200,17031.91,25.71,-1.00,-1.0,2372
823,2135823,16956,936,1064,17015.12,25.80,-1.00,-1.0,2439
825,2135825,16976,860,1168,17037.85,25.80,-1.00,-1.0,2376
828,2135828,16992,848,1228,17057.41,25.85,-1.00,-1.0,2436
831,2135831,16968,876,1208,17033.49,25.89,-1.00,-1.0,2371
833,2135833,17036,936,1128,17098.94,25.75,-1.00,-1.0,2359
836,2135836,16860,844,1160,16920.92,25.85,-1.00,-1.0,2435
839,2135839,16976,884,1196,17041.02,25.85,-1.00,-1.0,2369
842,2135842,17004,816,1216,17066.94,25.75,-1.00,-1.0,2439
844,2135844,16924,860,1044,16977.96,25.75,-1.00,-1.0,2367
852,2135852,16944,948,1228,17014.87,25.80,-1.00,-1.0,2449
855,2135855,17028,784,1220,17089.64,25.80,-1.00,-1.0,2375
858,2135858,16968,936,1092,17028.85,25.80,-1.00,-1.0,2438
860,2135860,16964,840,1164,17024.62,25.80,-1.00,-1.0,2367
863,2135863,17004,868,1128,17063.46,25.80,-1.00,-1.0,2444
866,2135866,16916,828,1204,16978.99,25.80,-1.00,-1.0,2376
869,2135869,16956,820,1100,17011.42,25.80,-1.00,-1.0,2361
871,2135871,16948,896,1224,17015.75,25.75,-1.00,-1.0,2431
874,2135874,16980,840,1164,17040.57,25.71,-1.00,-1.0,2371
882,2135882,17044,780,1268,17108.89,25.80,-1.00,-1.0,2437
885,2135885,16880,976,1096,16943.68,25.80,-1.00,-1.0,2374
887,2135887,16984,916,1172,17049.01,25.80,-1.00,-1.0,2440
890,2135890,16868,896,1108,16928.08,25.71,-1.00,-1.0,2369
893,2135893,16876,832,1288,16945.52,25.80,-1.00,-1.0,2447
896,2135896,17032,920,1160,17096.23,25.80,-1.00,-1.0,2374
898,2135898,17072,824,1220,17135.36,25.80,-1.00,-1.0,2438
901,2135901,16948,868,1152,17009.27,25.80,-1.00,-1.0,2370
904,2135904,17052,840,1148,17111.23,25.80,-1.00,-1.0,2349
912,2135912,17012,724,1084,17061.87,25.80,-1.00,-1.0,2444
914,2135914,16972,820,1072,17025.58,25.71,-1.00,-1.0,2369
917,2135917,16880,848,1164,16941.32,25.80,-1.00,-1.0,2451
920,2135920,16992,880,1168,17054.81,25.71,-1.00,-1.0,2366
923,2135923,17044,820,1376,17119.10,25.80,-1.00,-1.0,2440
925,2135925,17044,876,1140,17104.53,25.71,-1.00,-1.0,2368
928,2135928,17040,820,1132,17097.23,25.80,-1.00,-1.0,2446
931,2135931,17052,788,1100,17105.60,25.80,-1.00,-1.0,2367
939,2135939,16992,868,1116,17050.72,25.80,-1.00,-1.0,2440
942,2135942,16904,776,1292,16971.05,25.71,-1.00,-1.0,2374
944,2135944,17080,924,1084,17139.29,25.80,-1.00,-1.0,2368
947,2135947,16924,780,1256,16988.46,25.85,-1.00,-1.0,2444
950,2135950,16972,820,1200,17034.12,25.80,-1.00,-1.0,2374
953,2135953,16976,908,1148,17038.98,25.85,-1.00,-1.0,2444
955,2135955,17056,932,1312,17131.76,25.85,-1.00,-1.0,2371
958,2135958,16992,836,1156,17051.78,25.85,-1.00,-1.0,2430
961,2135961,16992,828,1128,17049.52,25.80,-1.00,-1.0,2374
969,2135969,16912,752,1208,16971.76,25.75,-1.00,-1.0,2440
971,2135971,16908,828,1284,16976.89,25.75,-1.00,-1.0,2374
974,2135974,16872,764,1264,16936.52,25.80,-1.00,-1.0,2437
977,2135977,16976,800,1192,17036.59,25.85,-1.00,-1.0,2367
979,2135979,16992,788,1088,17045.02,25.71,-1.00,-1.0,2361
982,2135982,16964,876,1140,17024.81,25.71,-1.00,-1.0,2432
985,2135985,17056,940,1184,17122.87,25.80,-1.00,-1.0,2367
988,2135988,17060,876,1148,17121.01,25.71,-1.00,-1.0,2440
990,2135990,17052,840,1276,17120.29,25.71,-1.00,-1.0,2368
998,2135998,16948,772,1136,17003.56,25.75,-1.00,-1.0,2442
1001,2136001,17012,872,1188,17075.71,25.71,-1.00,-1.0,2366
1004,2136004,17032,900,1108,17091.71,25.85,-1.00,-1.0,2443
1006,2136006,17036,852,1156,17096.42,25.80,-1.00,-1.0,2353
1009,2136009,17120,992,1280,17196.42,25.85,-1.00,-1.0,2435
1012,2136012,16972,860,1196,17035.81,25.80,-1.00,-1.0,2366
1014,2136014,16964,832,1200,17026.73,25.80,-1.00,-1.0,2361
1017,2136017,17072,852,1140,17131.22,25.75,-1.00,-1.0,2443
1020,2136020,16992,928,1196,17059.30,25.75,-1.00,-1.0,2367
1028,2136028,17048,772,1036,17096.89,25.85,-1.00,-1.0,2437
1031,2136031,16976,868,1308,17048.43,25.75,-1.00,-1.0,2373
1033,2136033,16904,892,1376,16983.35,25.75,-1.00,-1.0,2438
1036,2136036,17024,832,1264,17091.12,25.75,-1.00,-1.0,2370
1039,2136039,16932,868,1084,16988.85,25.75,-1.00,-1.0,2439
1042,2136042,16912,736,1256,16974.54,25.75,-1.00,-1.0,2374
1044,2136044,16892,896,1156,16955.20,25.85,-1.00,-1.0,2435
1047,2136047,16956,884,1228,17023.38,25.85,-1.00,-1.0,2367
1055,2136055,17088,892,1232,17155.56,25.75,-1.00,-1.0,2439
1058,2136058,17024,856,1164,17085.21,25.80,-1.00,-1.0,2366
1060,2136060,17020,860,1076,17075.65,25.85,-1.00,-1.0,2359
1063,2136063,16948,876,1036,17002.22,25.89,-1.00,-1.0,2451
1066,2136066,17008,856,1236,17074.32,25.75,-1.00,-1.0,2374
1069,2136069,16904,760,1268,16968.52,25.80,-1.00,-1.0,2435
1071,2136071,16924,816,1220,16987.53,25.75,-1.00,-1.0,2366
1074,2136074,17020,780,1252,17083.80,25.80,-1.00,-1.0,2445
1077,2136077,17012,988,1136,17078.49,25.75,-1.00,-1.0,2367
1085,2136085,16996,880,1036,17050.27,25.75,-1.00,-1.0,2437
1088,2136088,17008,848,1148,17067.78,25.75,-1.00,-1.0,2374
1090,2136090,16916,920,1140,16979.31,25.89,-1.00,-1.0,2438
1093,2136093,16976,860,1124,17034.89,25.85,-1.00,-1.0,2369
1096,2136096,16992,884,1192,17056.68,25.71,-1.00,-1.0,2449
1099,2136099,16956,800,1248,17020.68,25.85,-1.00,-1.0,2368
1101,2136101,16996,768,1016,17043.65,25.80,-1.00,-1.0,2367
1104,2136104,16892,836,1308,16963.18,25.71,-1.00,-1.0,2439
1107,2136107,17052,832,1200,17114.41,25.80,-1.00,-1.0,2374
1115,2136115,16972,776,1208,17032.62,25.89,-1.00,-1.0,2437
1117,2136117,16988,872,1076,17044.36,25.80,-1.00,-1.0,2375
1120,2136120,16952,892,1176,17016.14,25.89,-1.00,-1.0,2440
1123,2136123,16948,892,1296,17020.87,25.71,-1.00,-1.0,2369
1126,2136126,16996,896,1060,17052.58,25.75,-1.00,-1.0,2434
1128,2136128,16972,788,1164,17030.11,25.80,-1.00,-1.0,2369
1131,2136131,16984,728,1196,17041.62,25.71,-1.00,-1.0,2437
1134,2136134,16988,880,1120,17047.61,25.80,-1.00,-1.0,2374
1137,2136137,16916,916,1124,16978.03,25.85,-1.00,-1.0,2361
1145,2136145,16840,916,1188,16906.69,25.80,-1.00,-1.0,2445
1147,2136147,17080,864,1164,17141.41,25.80,-1.00,-1.0,2367
1150,2136150,17032,944,1232,17102.57,25.80,-1.00,-1.0,2453
1153,2136153,16960,912,1228,17028.84,25.89,-1.00,-1.0,2366
1156,2136156,17032,824,1148,17090.52,25.80,-1.00,-1.0,2441
1158,2136158,17000,900,1216,17067.18,25.80,-1.00,-1.0,2367
1161,2136161,16924,848,1092,16980.38,25.71,-1.00,-1.0,2447
1164,2136164,16848,868,1076,16904.62,25.80,-1.00,-1.0,2366
1172,2136172,16960,880,1128,17020.23,25.85,-1.00,-1.0,2447
1175,2136175,16988,916,1276,17060.46,25.80,-1.00,-1.0,2368
1178,2136178,17080,816,1212,17142.38,25.75,-1.00,-1.0,2447
1180,2136180,17028,736,1088,17078.59,25.80,-1.00,-1.0,2372
1183,2136183,17000,756,1096,17052.06,25.75,-1.00,-1.0,2359
1186,2136186,16984,948,1124,17047.53,25.80,-1.00,-1.0,2440
1188,2136188,17112,848,1128,17170.09,25.85,-1.00,-1.0,2366
1191,2136191,16964,800,1244,17028.35,25.75,-1.00,-1.0,2434
1194,2136194,16972,808,1032,17022.54,25.75,-1.00,-1.0,2366
1208,2136208,16908,912,1144,16971.18,25.71,-1.00,-1.0,2442
1211,2136211,16984,920,1152,17047.87,25.85,-1.00,-1.0,2369
1214,2136214,17052,832,1144,17110.57,25.80,-1.00,-1.0,2443
1216,2136216,17052,876,1168,17114.39,25.71,-1.00,-1.0,2367
1219,2136219,16936,772,1200,16996.00,25.80,-1.00,-1.0,2435
1222,2136222,17000,952,1196,17068.59,25.80,-1.00,-1.0,2370
1225,2136225,16976,780,1196,17035.94,25.71,-1.00,-1.0,2439
1227,2136227,16948,852,1176,17010.10,25.80,-1.00,-1.0,2367
1230,2136230,16992,952,1156,17057.86,25.80,-1.00,-1.0,2359
1235,2136235,16964,912,1096,17023.81,25.85,-1.00,-1.0,2449
1238,2136238,17008,828,1104,17063.89,25.85,-1.00,-1.0,2375
1241,2136241,16976,844,1100,17032.53,25.75,-1.00,-1.0,2448
1243,2136243,17000,836,1160,17060.03,25.80,-1.00,-1.0,2374
1246,2136246,16972,940,1164,17037.82,25.75,-1.00,-1.0,2433
1249,2136249,17004,780,1084,17056.36,25.85,-1.00,-1.0,2370
1252,2136252,16912,796,1016,16961.18,25.85,-1.00,-1.0,2447
1254,2136254,16876,772,996,16922.98,25.75,-1.00,-1.0,2376
1261,2136261,16900,900,1188,16965.59,25.71,-1.00,-1.0,2439
1264,2136264,16880,880,1216,16946.61,25.80,-1.00,-1.0,2367
1267,2136267,17028,932,1184,17094.54,25.75,-1.00,-1.0,2443
1269,2136269,17024,824,1084,17078.37,25.80,-1.00,-1.0,2366
1272,2136272,16944,856,1192,17007.43,25.85,-1.00,-1.0,2367
1275,2136275,17020,908,1196,17086.11,25.80,-1.00,-1.0,2435
1277,2136277,17040,792,1084,17092.80,25.85,-1.00,-1.0,2377
1280,2136280,16888,908,1220,16956.34,25.71,-1.00,-1.0,2436
1283,2136283,16988,820,1156,17047.02,25.85,-1.00,-1.0,2380
1288,2136288,17088,784,1288,17154.40,25.71,-1.00,-1.0,2441
1291,2136291,16952,808,1048,17003.57,25.80,-1.00,-1.0,2367
1294,2136294,17032,936,1156,17096.83,25.75,-1.00,-1.0,2444
1296,2136296,16880,828,1204,16943.13,25.71,-1.00,-1.0,2366
1299,2136299,17012,908,1208,17078.99,25.85,-1.00,-1.0,2440
1302,2136302,17000,772,1056,17050.25,25.80,-1.00,-1.0,2368
1305,2136305,17032,844,1140,17090.96,25.75,-1.00,-1.0,2439
1307,2136307,17004,832,1216,17067.71,25.80,-1.00,-1.0,2353
1310,2136310,17092,824,1304,17161.46,25.85,-1.00,-1.0,2368
1316,2136316,17016,788,1140,17072.34,25.85,-1.00,-1.0,2439
1319,2136319,16960,848,1312,17031.79,25.80,-1.00,-1.0,2375
1321,2136321,16908,860,1216,16973.47,25.85,-1.00,-1.0,2437
1324,2136324,16928,748,1132,16982.29,25.80,-1.00,-1.0,2366
1327,2136327,16932,860,1336,17006.38,25.75,-1.00,-1.0,2434
1330,2136330,17060,816,1288,17128.00,25.80,-1.00,-1.0,2366
1332,2136332,17060,848,1124,17118.00,25.85,-1.00,-1.0,2432
1335,2136335,16980,852,1164,17041.16,25.71,-1.00,-1.0,2353
1360,2136360,17056,896,1068,17112.88,25.85,-1.00,-1.0,2439
1363,2136363,17028,916,1184,17093.67,25.75,-1.00,-1.0,2368
1366,2136366,17044,852,1276,17112.92,25.71,-1.00,-1.0,2453
1369,2136369,16940,800,1116,16995.56,25.75,-1.00,-1.0,2368
1371,2136371,17016,896,1148,17078.20,25.71,-1.00,-1.0,2368
1374,2136374,16992,864,1208,17056.78,25.80,-1.00,-1.0,2441
1377,2136377,16868,788,1156,16925.92,25.80,-1.00,-1.0,2372
1380,2136380,16948,920,1220,17016.74,25.80,-1.00,-1.0,2443
1382,2136382,17044,812,1216,17106.61,25.80,-1.00,-1.0,2376
1393,2136393,16996,876,1180,17059.42,25.75,-1.00,-1.0,2440
1396,2136396,17040,804,1208,17101.67,25.75,-1.00,-1.0,2367
1398,2136398,16972,812,1104,17027.24,25.75,-1.00,-1.0,2423
1401,2136401,16988,792,1184,17047.62,25.71,-1.00,-1.0,2366
1404,2136404,17024,840,1112,17080.95,25.85,-1.00,-1.0,2433
1407,2136407,16900,904,1148,16963.05,25.71,-1.00,-1.0,2367
1409,2136409,17032,804,1220,17094.56,25.75,-1.00,-1.0,2433
1412,2136412,17016,860,1172,17077.98,25.80,-1.00,-1.0,2366
1415,2136415,16992,832,1108,17048.40,25.75,-1.00,-1.0,2360
1424,2136424,16904,920,1232,16973.79,25.80,-1.00,-1.0,2439
1427,2136427,16928,876,1272,16998.31,25.75,-1.00,-1.0,2374
1429,2136429,16912,800,1024,16961.85,25.71,-1.00,-1.0,2436
1432,2136432,16968,764,1236,17030.10,25.75,-1.00,-1.0,2366
1435,2136435,16992,808,1212,17054.32,25.80,-1.00,-1.0,2434
1438,2136438,16964,872,1328,17038.23,25.75,-1.00,-1.0,2367
1440,2136440,16948,848,1156,17008.53,25.80,-1.00,-1.0,2433
1443,2136443,17008,820,1216,17071.12,25.85,-1.00,-1.0,2366
1451,2136451,16948,804,1184,17008.32,25.80,-1.00,-1.0,2445
1453,2136453,16936,916,1128,16998.22,25.80,-1.00,-1.0,2367
1456,2136456,17012,904,1140,17074.10,25.71,-1.00,-1.0,2445
1459,2136459,17004,948,1128,17067.72,25.80,-1.00,-1.0,2366
1461,2136461,16980,788,1108,17034.35,25.80,-1.00,-1.0,2369
1464,2136464,16960,848,1088,17016.01,25.85,-1.00,-1.0,2443
1467,2136467,17012,828,916,17056.75,25.80,-1.00,-1.0,2383
1470,2136470,16928,908,1212,16995.61,25.75,-1.00,-1.0,2435
1472,2136472,16960,828,1156,17019.50,25.80,-1.00,-1.0,2371
1480,2136480,16936,804,1124,16992.29,25.75,-1.00,-1.0,2438
1483,2136483,17004,888,1104,17062.92,25.75,-1.00,-1.0,2369
1486,2136486,16948,880,1204,17013.49,25.85,-1.00,-1.0,2435
1488,2136488,17012,924,1200,17079.28,25.75,-1.00,-1.0,2373
1491,2136491,17012,836,1212,17075.60,25.66,-1.00,-1.0,2434
1494,2136494,17092,848,1248,17158.47,25.85,-1.00,-1.0,2369
1496,2136496,17044,804,1088,17097.61,25.71,-1.00,-1.0,2361
1499,2136499,16956,824,1236,17020.95,25.80,-1.00,-1.0,2432
1502,2136502,17004,880,1184,17067.87,25.85,-1.00,-1.0,2367
1510,2136510,16944,884,1168,17007.20,25.75,-1.00,-1.0,2439
1512,2136512,17044,888,1280,17115.05,25.85,-1.00,-1.0,2374
1515,2136515,17008,832,1128,17065.66,25.71,-1.00,-1.0,2437
1518,2136518,17012,824,1216,17075.30,25.75,-1.00,-1.0,2368
1521,2136521,17016,836,1252,17082.47,25.80,-1.00,-1.0,2433
1523,2136523,17016,804,1124,17072.03,25.85,-1.00,-1.0,2373
1526,2136526,16908,800,1084,16961.59,25.89,-1.00,-1.0,2433
1529,2136529,16952,768,1184,17010.64,25.75,-1.00,-1.0,2370
1537,2136537,16916,864,1264,16985.15,25.75,-1.00,-1.0,2442
1539,2136539,17016,852,1240,17082.38,25.75,-1.00,-1.0,2368
1542,2136542,16896,736,1304,16962.22,25.75,-1.00,-1.0,2362
1545,2136545,16968,748,1164,17024.32,25.80,-1.00,-1.0,2437
1547,2136547,17060,840,1144,17118.94,25.85,-1.00,-1.0,2370
1550,2136550,17024,784,1104,17077.77,25.80,-1.00,-1.0,2434
1553,2136553,17036,888,1200,17101.28,25.66,-1.00,-1.0,2367
1556,2136556,16904,852,1200,16967.94,25.71,-1.00,-1.0,2434
1558,2136558,17000,796,1272,17066.10,25.75,-1.00,-1.0,2369
1566,2136566,16964,884,1224,17031.06,25.80,-1.00,-1.0,2444
1569,2136569,17072,800,1124,17127.65,25.85,-1.00,-1.0,2354
1572,2136572,17052,836,1148,17111.04,25.80,-1.00,-1.0,2448
1574,2136574,16996,888,1052,17051.66,25.85,-1.00,-1.0,2378
1577,2136577,17044,864,1076,17099.77,25.80,-1.00,-1.0,2435
1580,2136580,16952,836,1188,17014.13,25.85,-1.00,-1.0,2354
1582,2136582,17020,848,1240,17086.17,25.89,-1.00,-1.0,2347
1585,2136585,16996,832,1276,17064.13,25.71,-1.00,-1.0,2433
1588,2136588,16896,824,1268,16963.54,25.85,-1.00,-1.0,2368
1595,2136595,16960,836,1208,17023.51,25.85,-1.00,-1.0,2440
1598,2136598,17088,960,1216,17158.09,25.75,-1.00,-1.0,2370
1601,2136601,17008,836,1108,17064.54,25.80,-1.00,-1.0,2446
1604,2136604,17032,788,1184,17091.28,25.85,-1.00,-1.0,2374
1606,2136606,17088,856,1196,17151.18,25.80,-1.00,-1.0,2441
1609,2136609,16988,836,1176,17049.16,25.85,-1.00,-1.0,2368
1612,2136612,16940,820,1156,16999.19,25.80,-1.00,-1.0,2449
1615,2136615,17028,748,1220,17088.03,25.85,-1.00,-1.0,2375
1622,2136622,17024,832,1248,17089.95,25.75,-1.00,-1.0,2440
1625,2136625,17012,824,1008,17061.75,25.75,-1.00,-1.0,2370
1628,2136628,17000,872,1188,17063.75,25.80,-1.00,-1.0,2360
1631,2136631,16976,844,1208,17039.84,25.71,-1.00,-1.0,2447
1633,2136633,16904,808,1264,16970.44,25.80,-1.00,-1.0,2374
1636,2136636,17040,984,1288,17116.92,25.71,-1.00,-1.0,2434
1639,2136639,16996,864,1228,17062.20,25.80,-1.00,-1.0,2367
1642,2136642,17020,876,1072,17076.21,25.80,-1.00,-1.0,2443
1644,2136644,16944,924,1212,17012.40,25.80,-1.00,-1.0,2375
1678,2136678,16940,920,1276,17012.88,25.89,-1.00,-1.0,2447
1681,2136681,16996,752,1208,17055.46,25.80,-1.00,-1.0,2365
1684,2136684,17060,820,1088,17114.31,25.71,-1.00,-1.0,2446
1686,2136686,16956,792,1128,17011.92,25.80,-1.00,-1.0,2367
1689,2136689,16924,892,1184,16988.80,25.80,-1.00,-1.0,2442
1692,2136692,16976,768,1204,17035.96,25.89,-1.00,-1.0,2374
1694,2136694,16936,848,1228,17001.62,25.71,-1.00,-1.0,2361
1697,2136697,16900,860,1052,16954.54,25.75,-1.00,-1.0,2434
1700,2136700,16980,852,1200,17043.66,25.80,-1.00,-1.0,2375
1710,2136710,16996,944,1260,17068.77,25.75,-1.00,-1.0,2437
1713,2136713,16968,836,1084,17023.13,25.75,-1.00,-1.0,2366
1716,2136716,16968,840,1216,17032.24,25.85,-1.00,-1.0,2437
1719,2136719,17040,776,1144,17095.98,25.85,-1.00,-1.0,2367
1721,2136721,16964,860,1136,17023.73,25.85,-1.00,-1.0,2432
1724,2136724,17064,888,1164,17126.69,25.85,-1.00,-1.0,2366
1727,2136727,17040,864,1216,17105.17,25.75,-1.00,-1.0,2433
1730,2136730,17000,880,1108,17058.78,25.75,-1.00,-1.0,2369
1737,2136737,17052,824,1212,17114.87,25.80,-1.00,-1.0,2438
1740,2136740,16968,776,1172,17026.12,25.75,-1.00,-1.0,2366
1743,2136743,16976,892,1184,17040.60,25.80,-1.00,-1.0,2365
1746,2136746,17024,960,1220,17094.64,25.75,-1.00,-1.0,2448
1748,2136748,17000,900,1208,17066.61,25.71,-1.00,-1.0,2370
1751,2136751,17008,864,1240,17075.02,25.75,-1.00,-1.0,2442
1754,2136754,16992,860,1224,17057.72,25.80,-1.00,-1.0,2373
1757,2136757,17036,780,1196,17095.73,25.66,-1.00,-1.0,2443
1759,2136759,17028,888,1096,17086.33,25.80,-1.00,-1.0,2373
1767,2136767,16932,892,1240,17000.76,25.85,-1.00,-1.0,2448
1770,2136770,17012,816,1196,17073.50,25.71,-1.00,-1.0,2374
1773,2136773,16924,772,1184,16982.92,25.85,-1.00,-1.0,2441
1775,2136775,16992,868,1208,17056.99,25.75,-1.00,-1.0,2373
1778,2136778,16908,820,980,16956.22,25.75,-1.00,-1.0,2436
1781,2136781,16900,868,1224,16966.48,25.85,-1.00,-1.0,2374
1784,2136784,17060,856,1212,17124.41,25.75,-1.00,-1.0,2360
1786,2136786,16904,828,976,16952.38,25.71,-1.00,-1.0,2434
1789,2136789,16936,908,1132,16998.06,25.75,-1.00,-1.0,2368
1797,2136797,16916,792,1232,16979.29,25.85,-1.00,-1.0,2437
1800,2136800,16964,920,1212,17032.11,25.75,-1.00,-1.0,2369
1803,2136803,17028,884,1124,17087.94,25.71,-1.00,-1.0,2437
1805,2136805,16892,776,1340,16962.83,25.85,-1.00,-1.0,2370
1808,2136808,16892,904,1244,16961.85,25.80,-1.00,-1.0,2434
1811,2136811,16964,852,1152,17024.40,25.75,-1.00,-1.0,2368
1814,2136814,17036,956,1108,17098.74,25.71,-1.00,-1.0,2435
1816,2136816,16960,784,1240,17023.33,25.66,-1.00,-1.0,2375
1824,2136824,17000,888,1192,17064.86,25.75,-1.00,-1.0,2441
1827,2136827,16996,752,1288,17061.31,25.75,-1.00,-1.0,2369
1830,2136830,16988,876,1144,17049.00,25.80,-1.00,-1.0,2363
1832,2136832,16984,760,1200,17043.29,25.80,-1.00,-1.0,2426
1835,2136835,16984,832,1088,17039.14,25.80,-1.00,-1.0,2368
1838,2136838,16972,820,1268,17039.04,25.80,-1.00,-1.0,2432
1841,2136841,16964,872,1120,17023.28,25.80,-1.00,-1.0,2366
1843,2136843,16984,856,1164,17045.35,25.80,-1.00,-1.0,2435
1846,2136846,16984,896,1208,17050.46,25.80,-1.00,-1.0,2367
1854,2136854,17096,828,1164,17155.57,25.80,-1.00,-1.0,2437
1857,2136857,16984,840,1156,17044.01,25.80,-1.00,-1.0,2368
1860,2136860,17032,816,1032,17082.74,25.80,-1.00,-1.0,2437
1862,2136862,17052,912,1152,17115.19,25.80,-1.00,-1.0,2369
1865,2136865,17028,788,1184,17087.29,25.80,-1.00,-1.0,2360
1868,2136868,17020,912,1180,17085.21,25.89,-1.00,-1.0,2439
1870,2136870,16840,852,1128,16899.23,25.80,-1.00,-1.0,2368
1873,2136873,17076,896,1116,17135.87,25.75,-1.00,-1.0,2433
1876,2136876,16932,760,1172,16989.52,25.80,-1.00,-1.0,2368
1884,2136884,17064,896,1108,17123.39,25.75,-1.00,-1.0,2437
1887,2136887,17016,820,1180,17076.56,25.71,-1.00,-1.0,2374
1889,2136889,16976,780,1176,17034.55,25.85,-1.00,-1.0,2437
1892,2136892,17080,796,1208,17141.16,25.75,-1.00,-1.0,2371
1895,2136895,16932,988,1184,17002.08,25.75,-1.00,-1.0,2432
1898,2136898,16888,824,1188,16949.78,25.80,-1.00,-1.0,2375
1900,2136900,16996,824,1172,17056.28,25.75,-1.00,-1.0,2433
1903,2136903,17012,888,1184,17076.26,25.75,-1.00,-1.0,2369
1906,2136906,17044,856,1200,17107.62,25.85,-1.00,-1.0,2368
1914,2136914,16972,832,1264,17039.33,25.75,-1.00,-1.0,2436
1917,2136917,17012,980,1132,17077.76,25.85,-1.00,-1.0,2369
1920,2136920,17004,724,1300,17068.98,25.89,-1.00,-1.0,2448
1923,2136923,17052,884,1240,17119.87,25.75,-1.00,-1.0,2378
1925,2136925,17056,852,1272,17124.57,25.80,-1.00,-1.0,2445
1928,2136928,16984,820,1292,17052.80,25.75,-1.00,-1.0,2370
1931,2136931,16924,784,1108,16978.34,25.80,-1.00,-1.0,2446
1934,2136934,16956,868,1228,17022.55,25.75,-1.00,-1.0,2376
1943,2136943,17036,908,1252,17106.06,25.71,-1.00,-1.0,2454
1946,2136946,17052,828,1228,17116.20,25.89,-1.00,-1.0,2372
1949,2136949,17008,820,1116,17064.29,25.80,-1.00,-1.0,2444
1952,2136952,16944,916,1016,16999.13,25.80,-1.00,-1.0,2376
1954,2136954,16972,952,1204,17041.27,25.89,-1.00,-1.0,2362
1957,2136957,16964,936,1200,17032.13,25.75,-1.00,-1.0,2431
1960,2136960,17008,896,1096,17066.81,25.71,-1.00,-1.0,2370
1963,2136963,17032,872,1140,17092.37,25.89,-1.00,-1.0,2431
1965,2136965,16916,744,1324,16984.04,25.80,-1.00,-1.0,2370
1975,2136975,17004,808,1156,17062.39,25.75,-1.00,-1.0,2441
1978,2136978,16944,1020,1112,17011.06,25.80,-1.00,-1.0,2367
1980,2136980,17004,884,1132,17064.55,25.85,-1.00,-1.0,2422
1983,2136983,17064,884,1268,17133.87,25.75,-1.00,-1.0,2368
1986,2136986,16912,812,1204,16974.24,25.85,-1.00,-1.0,2432
1989,2136989,16980,840,1172,17041.12,25.71,-1.00,-1.0,2367
1991,2136991,16944,940,1072,17003.88,25.75,-1.00,-1.0,2432
1994,2136994,16924,864,1080,16980.42,25.75,-1.00,-1.0,2368
1997,2136997,16956,988,1116,17021.38,25.94,-1.00,-1.0,2360
2006,2137006,16976,872,1204,17040.97,25.71,-1.00,-1.0,2442
2009,2137009,16992,844,1228,17057.21,25.71,-1.00,-1.0,2373
2012,2137012,16876,860,1244,16943.63,25.75,-1.00,-1.0,2445
2015,2137015,17020,872,1256,17088.54,25.71,-1.00,-1.0,2375
2018,2137018,16968,924,1004,17022.77,25.80,-1.00,-1.0,2449
2020,2137020,16920,864,1216,16985.63,25.80,-1.00,-1.0,2381
2023,2137023,17032,832,1188,17093.64,25.75,-1.00,-1.0,2441
2026,2137026,17044,876,1296,17115.63,25.80,-1.00,-1.0,2370
2034,2137034,16944,896,1328,17019.56,25.75,-1.00,-1.0,2438
2037,2137037,17028,884,1224,17094.81,25.85,-1.00,-1.0,2368
2039,2137039,16920,804,1264,16986.19,25.80,-1.00,-1.0,2435
2042,2137042,17024,848,1260,17091.62,25.85,-1.00,-1.0,2368
2045,2137045,17072,840,1220,17136.14,25.80,-1.00,-1.0,2367
2047,2137047,16984,960,1224,17055.09,25.80,-1.00,-1.0,2434
2050,2137050,17040,852,1188,17102.60,25.71,-1.00,-1.0,2368
2053,2137053,16912,824,1140,16970.39,25.71,-1.00,-1.0,2430
2056,2137056,16932,808,1140,16989.56,25.80,-1.00,-1.0,2368
2064,2137064,16988,820,1336,17060.17,25.75,-1.00,-1.0,2444
2066,2137066,16920,900,1120,16980.89,25.80,-1.00,-1.0,2369
2069,2137069,17012,964,1240,17084.35,25.75,-1.00,-1.0,2445
2072,2137072,17036,944,1280,17110.08,25.85,-1.00,-1.0,2375
2075,2137075,17036,920,1208,17103.54,25.75,-1.00,-1.0,2420
2077,2137077,17036,772,1192,17095.09,25.80,-1.00,-1.0,2369
2080,2137080,16872,892,1028,16926.81,25.75,-1.00,-1.0,2446
2083,2137083,16964,860,1104,17021.62,25.80,-1.00,-1.0,2375
2086,2137086,17060,832,1188,17121.54,25.80,-1.00,-1.0,2421
2094,2137094,17104,736,1184,17160.72,25.89,-1.00,-1.0,2447
2097,2137097,16988,808,1052,17039.71,25.80,-1.00,-1.0,2375
2099,2137099,17016,892,1104,17075.09,25.71,-1.00,-1.0,2432
2102,2137102,16956,952,1256,17029.09,25.80,-1.00,-1.0,2366
2105,2137105,17052,776,1196,17111.50,25.75,-1.00,-1.0,2434
2108,2137108,17040,876,1156,17101.62,25.80,-1.00,-1.0,2367
2110,2137110,17068,940,1184,17134.82,25.71,-1.00,-1.0,2433
2113,2137113,17004,816,1024,17054.34,25.80,-1.00,-1.0,2366
2121,2137121,16940,940,1100,17001.68,25.80,-1.00,-1.0,2443
2124,2137124,16916,924,1120,16978.20,25.71,-1.00,-1.0,2367
2127,2137127,16988,1028,1272,17066.54,25.80,-1.00,-1.0,2432
2130,2137130,16992,784,1216,17053.49,25.71,-1.00,-1.0,2366
2132,2137132,17008,816,1184,17068.68,25.80,-1.00,-1.0,2360
2135,2137135,16952,876,1264,17021.62,25.85,-1.00,-1.0,2433
2138,2137138,17036,940,1260,17108.38,25.80,-1.00,-1.0,2368
2141,2137141,17036,800,1060,17087.68,25.80,-1.00,-1.0,2475
2143,2137143,17072,872,1080,17128.34,25.89,-1.00,-1.0,2373
2152,2137152,17048,888,1172,17111.29,25.80,-1.00,-1.0,2446
2154,2137154,16936,820,1196,16997.97,25.80,-1.00,-1.0,2367
2157,2137157,17080,868,1260,17148.39,25.80,-1.00,-1.0,2437
2160,2137160,16960,896,1400,17041.26,25.80,-1.00,-1.0,2365
2163,2137163,17040,896,1216,17106.81,25.80,-1.00,-1.0,2435
2165,2137165,17128,772,1008,17174.99,25.80,-1.00,-1.0,2367
2168,2137168,16944,844,1068,16998.59,25.80,-1.00,-1.0,2437
2171,2137171,17016,788,1080,17068.44,25.80,-1.00,-1.0,2366
2173,2137173,17048,864,1168,17109.79,25.71,-1.00,-1.0,2360
2181,2137181,17024,948,1172,17090.61,25.75,-1.00,-1.0,2445
2184,2137184,17044,932,1024,17100.15,25.75,-1.00,-1.0,2366
2187,2137187,16964,988,1164,17032.57,25.71,-1.00,-1.0,2450
2190,2137190,17080,808,1116,17135.48,25.85,-1.00,-1.0,2371
2192,2137192,16968,788,1184,17027.50,25.80,-1.00,-1.0,2438
2195,2137195,16988,812,1228,17051.67,25.75,-1.00,-1.0,2365
2198,2137198,16976,848,1228,17041.47,25.71,-1.00,-1.0,2442
2201,2137201,17052,812,1388,17127.66,25.85,-1.00,-1.0,2371
2209,2137209,16996,816,1176,17056.17,25.80,-1.00,-1.0,2448
2212,2137212,16968,844,1320,17040.18,25.80,-1.00,-1.0,2365
2214,2137214,16972,928,1168,17037.44,25.71,-1.00,-1.0,2435
2217,2137217,17072,836,1252,17138.25,25.80,-1.00,-1.0,2366
2220,2137220,16964,848,1080,17019.48,25.75,-1.00,-1.0,2360
2222,2137222,17024,836,964,17071.75,25.85,-1.00,-1.0,2423
2225,2137225,17016,768,1184,17074.42,25.75,-1.00,-1.0,2364
2228,2137228,17036,888,1248,17104.72,25.75,-1.00,-1.0,2436
2231,2137231,16940,800,1088,16993.74,25.80,-1.00,-1.0,2364
2239,2137239,17020,852,1180,17082.12,25.75,-1.00,-1.0,2444
2242,2137242,17076,760,1196,17134.70,25.80,-1.00,-1.0,2365
2244,2137244,16984,848,1212,17048.29,25.75,-1.00,-1.0,2435
2247,2137247,17032,940,1316,17108.61,25.80,-1.00,-1.0,2364
2250,2137250,16996,832,1244,17061.76,25.85,-1.00,-1.0,2437
2253,2137253,17028,868,1112,17086.33,25.80,-1.00,-1.0,2367
2255,2137255,16952,780,1020,17000.56,25.80,-1.00,-1.0,2436
2258,2137258,17024,844,1184,17085.98,25.80,-1.00,-1.0,2353
2261,2137261,17016,868,1320,17089.18,25.75,-1.00,-1.0,2362
2269,2137269,16940,860,1168,17001.98,25.75,-1.00,-1.0,2445
2272,2137272,17012,820,1028,17062.75,25.75,-1.00,-1.0,2365
2274,2137274,16944,908,1276,17016.22,25.75,-1.00,-1.0,2436
2277,2137277,17052,852,1132,17110.76,25.75,-1.00,-1.0,2364
2280,2137280,17004,772,1228,17065.75,25.75,-1.00,-1.0,2436
2283,2137283,16940,904,1236,17009.07,25.85,-1.00,-1.0,2366
2285,2137285,16964,864,1280,17034.15,25.75,-1.00,-1.0,2436
2288,2137288,16976,988,1192,17046.45,25.75,-1.00,-1.0,2351
2296,2137296,16964,928,1240,17034.55,25.80,-1.00,-1.0,2452
2299,2137299,16904,860,1228,16970.35,25.80,-1.00,-1.0,2372
2302,2137302,17056,832,1268,17123.29,25.75,-1.00,-1.0,2426
2304,2137304,17036,760,1128,17090.21,25.80,-1.00,-1.0,2364
2307,2137307,16952,876,1168,17014.76,25.75,-1.00,-1.0,2361
2310,2137310,16988,832,1084,17042.87,25.75,-1.00,-1.0,2438
2312,2137312,16908,880,1248,16976.82,25.75,-1.00,-1.0,2368
2315,2137315,16964,852,1128,17022.80,25.75,-1.00,-1.0,2423
2318,2137318,17088,912,1128,17149.46,25.85,-1.00,-1.0,2379
2334,2137334,16992,872,1112,17050.66,25.89,-1.00,-1.0,2452
2336,2137336,16980,884,1152,17041.98,25.80,-1.00,-1.0,2365
2339,2137339,17040,796,1256,17104.76,25.71,-1.00,-1.0,2440
2342,2137342,17076,864,1164,17137.42,25.80,-1.00,-1.0,2364
2345,2137345,17072,864,940,17119.68,25.71,-1.00,-1.0,2439
2347,2137347,17008,848,1248,17074.80,25.71,-1.00,-1.0,2364
2350,2137350,16996,832,1200,17058.61,25.80,-1.00,-1.0,2361
2353,2137353,17020,904,1224,17087.88,25.66,-1.00,-1.0,2442
2355,2137355,16892,872,1204,16957.29,25.71,-1.00,-1.0,2363
2364,2137364,17028,844,1096,17084.10,25.71,-1.00,-1.0,2444
2367,2137367,17032,912,1144,17094.72,25.71,-1.00,-1.0,2373
2369,2137369,16952,764,1224,17013.29,25.75,-1.00,-1.0,2435
2372,2137372,17000,908,1124,17061.30,25.80,-1.00,-1.0,2364
2375,2137375,17008,920,1192,17074.52,25.85,-1.00,-1.0,2436
2378,2137378,17052,936,1052,17110.04,25.89,-1.00,-1.0,2371
2380,2137380,16960,860,1048,17014.10,25.85,-1.00,-1.0,2435
2383,2137383,16984,772,1352,17055.21,25.71,-1.00,-1.0,2363
2393,2137393,17008,928,1276,17081.03,25.85,-1.00,-1.0,2446
2396,2137396,16880,812,1128,16937.12,25.75,-1.00,-1.0,2364
2398,2137398,16988,836,1208,17051.40,25.75,-1.00,-1.0,2358
2401,2137401,16948,844,1180,17009.98,25.80,-1.00,-1.0,2438
2404,2137404,16952,892,1216,17018.95,25.75,-1.00,-1.0,2379
2407,2137407,17040,928,1136,17103.02,25.80,-1.00,-1.0,2437
2409,2137409,17064,764,1000,17110.34,25.85,-1.00,-1.0,2372
2412,2137412,16980,852,1132,17039.01,25.80,-1.00,-1.0,2439
2415,2137415,17004,864,1092,17060.92,25.75,-1.00,-1.0,2379
2426,2137426,16964,944,1144,17028.72,25.75,-1.00,-1.0,2445
2429,2137429,17016,892,1116,17075.87,25.85,-1.00,-1.0,2364
2432,2137432,16956,852,1260,17024.08,25.85,-1.00,-1.0,2443
2434,2137434,16964,896,1128,17025.05,25.75,-1.00,-1.0,2364
2437,2137437,16900,824,1248,16966.04,25.85,-1.00,-1.0,2453
2440,2137440,17012,760,1196,17070.92,25.85,-1.00,-1.0,2364
2442,2137442,16980,884,1320,17054.16,25.94,-1.00,-1.0,2362
2445,2137445,17052,924,1132,17114.49,25.80,-1.00,-1.0,2443
2448,2137448,17028,816,1100,17082.99,25.80,-1.00,-1.0,2379
2459,2137459,17024,908,1284,17096.48,25.85,-1.00,-1.0,2443
2462,2137462,17044,920,1140,17106.84,25.75,-1.00,-1.0,2363
2464,2137464,16908,764,1236,16970.32,25.85,-1.00,-1.0,2437
2467,2137467,17004,832,1284,17072.70,25.71,-1.00,-1.0,2364
2470,2137470,17048,840,1248,17114.25,25.75,-1.00,-1.0,2435
2473,2137473,16892,804,1176,16951.96,25.75,-1.00,-1.0,2364
2475,2137475,16964,820,1112,17020.17,25.75,-1.00,-1.0,2436
2478,2137478,16904,788,1276,16970.40,25.80,-1.00,-1.0,2365
2487,2137487,16916,948,1188,16984.14,25.71,-1.00,-1.0,2451
2490,2137490,16976,888,1144,17037.66,25.80,-1.00,-1.0,2371
2493,2137493,16940,836,1076,16994.71,25.80,-1.00,-1.0,2359
2495,2137495,16984,836,1116,17041.14,25.75,-1.00,-1.0,2436
2498,2137498,17108,856,1044,17161.19,25.80,-1.00,-1.0,2365
2501,2137501,17052,760,1156,17108.03,25.66,-1.00,-1.0,2435
2504,2137504,17020,840,1244,17086.06,25.80,-1.00,-1.0,2363
2506,2137506,17000,852,1128,17058.67,25.75,-1.00,-1.0,2436
2509,2137509,16988,860,1148,17048.45,25.80,-1.00,-1.0,2364
2517,2137517,16932,928,1224,17001.53,25.75,-1.00,-1.0,2443
2520,2137520,17056,828,1172,17116.26,25.75,-1.00,-1.0,2371
2522,2137522,17088,872,1120,17146.85,25.80,-1.00,-1.0,2436
2525,2137525,16952,864,976,17002.04,25.75,-1.00,-1.0,2365
2528,2137528,16940,808,1184,17000.54,25.80,-1.00,-1.0,2436
2531,2137531,16956,752,1056,17005.49,25.85,-1.00,-1.0,2363
2533,2137533,16928,1000,1180,16998.52,25.71,-1.00,-1.0,2363
2536,2137536,16976,932,1288,17050.28,25.71,-1.00,-1.0,2452
2539,2137539,17020,888,1164,17082.85,25.80,-1.00,-1.0,2374
2547,2137547,17032,776,1216,17092.98,25.71,-1.00,-1.0,2446
2549,2137549,17084,856,1144,17143.64,25.75,-1.00,-1.0,2363
2552,2137552,17052,868,1188,17115.36,25.80,-1.00,-1.0,2439
2555,2137555,16884,872,1140,16944.89,25.75,-1.00,-1.0,2365
2558,2137558,17012,868,1156,17073.31,25.80,-1.00,-1.0,2444
2560,2137560,16952,792,1088,17005.33,25.75,-1.00,-1.0,2364
2563,2137563,16968,816,1100,17023.19,25.71,-1.00,-1.0,2440
2566,2137566,17060,828,1304,17129.79,25.75,-1.00,-1.0,2365
2574,2137574,17016,804,1180,17075.80,25.75,-1.00,-1.0,2446
2576,2137576,16956,880,1260,17025.51,25.75,-1.00,-1.0,2362
2579,2137579,16980,856,1244,17047.01,25.85,-1.00,-1.0,2359
2582,2137582,16960,912,1236,17029.42,25.80,-1.00,-1.0,2440
2585,2137585,16976,824,1144,17034.44,25.75,-1.00,-1.0,2364
2587,2137587,17012,904,1248,17081.65,25.75,-1.00,-1.0,2435
2590,2137590,16956,956,1260,17029.61,25.75,-1.00,-1.0,2363
2593,2137593,16936,844,1104,16992.92,25.85,-1.00,-1.0,2423
2596,2137596,16932,852,1148,16992.25,25.85,-1.00,-1.0,2364
2604,2137604,16940,820,1172,17000.28,25.85,-1.00,-1.0,2447
2606,2137606,17016,944,1244,17087.51,25.85,-1.00,-1.0,2371
2609,2137609,17016,848,1232,17081.60,25.75,-1.00,-1.0,2436
2612,2137612,16940,936,1160,17005.45,25.75,-1.00,-1.0,2367
2615,2137615,17004,920,1156,17068.06,25.85,-1.00,-1.0,2450
2617,2137617,17012,836,1096,17067.75,25.75,-1.00,-1.0,2373
2620,2137620,17028,796,1156,17085.75,25.75,-1.00,-1.0,2347
2623,2137623,16972,880,1340,17047.54,25.80,-1.00,-1.0,2433
2625,2137625,17016,952,1128,17079.90,25.75,-1.00,-1.0,2367
2633,2137633,16976,776,1204,17036.32,25.85,-1.00,-1.0,2446
2636,2137636,17008,892,1192,17073.04,25.85,-1.00,-1.0,2366
2639,2137639,16964,896,1144,17026.12,25.80,-1.00,-1.0,2437
2641,2137641,16908,852,1076,16963.61,25.85,-1.00,-1.0,2362
2644,2137644,16972,884,1276,17042.84,25.85,-1.00,-1.0,2422
2647,2137647,17020,780,1248,17083.51,25.85,-1.00,-1.0,2378
2650,2137650,17052,956,1200,17120.88,25.75,-1.00,-1.0,2440
2652,2137652,16928,836,1232,16993.35,25.75,-1.00,-1.0,2377
2660,2137660,17020,884,1156,17082.10,25.71,-1.00,-1.0,2443
2663,2137663,17024,860,1144,17084.05,25.80,-1.00,-1.0,2363
2666,2137666,17024,888,1280,17095.13,25.80,-1.00,-1.0,2359
2668,2137668,16960,968,1108,17023.70,25.85,-1.00,-1.0,2437
2671,2137671,16952,872,1116,17011.06,25.80,-1.00,-1.0,2352
2674,2137674,17024,892,1312,17097.77,25.80,-1.00,-1.0,2435
2677,2137677,17060,800,1268,17125.75,25.80,-1.00,-1.0,2364
2679,2137679,16920,880,1224,16987.02,25.80,-1.00,-1.0,2422
2682,2137682,16940,744,1200,16998.74,25.71,-1.00,-1.0,2364
2690,2137690,16952,872,1016,17004.79,25.75,-1.00,-1.0,2443
2693,2137693,17008,800,1164,17066.54,25.85,-1.00,-1.0,2371
2695,2137695,17008,784,1200,17068.29,25.75,-1.00,-1.0,2437
2698,2137698,17028,876,1192,17092.13,25.75,-1.00,-1.0,2366
2701,2137701,16956,808,1112,17011.62,25.85,-1.00,-1.0,2444
2704,2137704,16928,856,1160,16989.28,25.75,-1.00,-1.0,2371
2706,2137706,17052,860,1160,17113.03,25.85,-1.00,-1.0,2370
2709,2137709,16992,944,1128,17055.54,25.71,-1.00,-1.0,2447
2712,2137712,17012,904,1212,17079.06,25.85,-1.00,-1.0,2367
2720,2137720,16984,844,1172,17045.30,25.75,-1.00,-1.0,2454
2722,2137722,16952,900,1268,17023.16,25.85,-1.00,-1.0,2369
2725,2137725,17004,800,1212,17065.90,25.80,-1.00,-1.0,2444
2728,2137728,17012,848,1148,17071.77,25.75,-1.00,-1.0,2372
2731,2137731,16976,768,1120,17030.23,25.80,-1.00,-1.0,2425
2733,2137733,17000,780,1156,17057.10,25.75,-1.00,-1.0,2363
2736,2137736,16980,900,1188,17045.29,25.71,-1.00,-1.0,2447
2739,2137739,17020,780,1204,17080.35,25.85,-1.00,-1.0,2372
2742,2137742,17048,848,1244,17114.35,25.71,-1.00,-1.0,2362
2749,2137749,17020,928,1212,17088.32,25.71,-1.00,-1.0,2446
2752,2137752,16924,872,1168,16986.65,25.80,-1.00,-1.0,2377
2755,2137755,17072,952,1224,17142.28,25.71,-1.00,-1.0,2445
2758,2137758,16944,832,1136,17002.41,25.89,-1.00,-1.0,2366
2761,2137761,16928,872,1148,16989.28,25.80,-1.00,-1.0,2449
2763,2137763,17032,812,1228,17095.51,25.80,-1.00,-1.0,2375
2766,2137766,16916,948,1048,16974.92,25.80,-1.00,-1.0,2444
2769,2137769,16848,816,1232,16912.68,25.71,-1.00,-1.0,2366
2777,2137777,17032,876,1260,17100.99,25.71,-1.00,-1.0,2451
2779,2137779,16972,820,1188,17033.28,25.75,-1.00,-1.0,2364
2782,2137782,16996,772,1188,17054.95,25.80,-1.00,-1.0,2454
2785,2137785,17016,852,1156,17076.49,25.75,-1.00,-1.0,2363
2787,2137787,17012,828,1160,17071.59,25.80,-1.00,-1.0,2363
2790,2137790,16948,904,1060,17005.16,25.71,-1.00,-1.0,2439
2793,2137793,17008,908,1108,17068.22,25.80,-1.00,-1.0,2380
2796,2137796,17028,896,1252,17097.46,25.71,-1.00,-1.0,2435
2798,2137798,17000,816,1028,17050.59,25.80,-1.00,-1.0,2367
2807,2137807,17028,924,1224,17096.92,25.71,-1.00,-1.0,2445
2809,2137809,16972,804,1292,17040.08,25.80,-1.00,-1.0,2371
2812,2137812,17056,996,1156,17124.12,25.75,-1.00,-1.0,2437
2815,2137815,17024,880,1064,17079.90,25.80,-1.00,-1.0,2364
2818,2137818,17008,932,1212,17076.58,25.75,-1.00,-1.0,2445
2820,2137820,17060,848,1008,17110.78,25.80,-1.00,-1.0,2374
2823,2137823,17044,868,1212,17109.07,25.75,-1.00,-1.0,2437
2826,2137826,16992,808,1228,17055.46,25.80,-1.00,-1.0,2364
2828,2137828,17072,848,1108,17128.92,25.75,-1.00,-1.0,2359
2836,2137836,16980,896,1268,17050.84,25.80,-1.00,-1.0,2444
2839,2137839,16896,872,1224,16962.71,25.75,-1.00,-1.0,2364
2842,2137842,16988,860,1208,17052.60,25.80,-1.00,-1.0,2435
2845,2137845,17072,868,1248,17139.55,25.85,-1.00,-1.0,2363
2847,2137847,16956,828,1248,17022.02,25.80,-1.00,-1.0,2438
2850,2137850,17008,848,1256,17075.38,25.85,-1.00,-1.0,2351
2853,2137853,16908,884,1064,16964.49,25.80,-1.00,-1.0,2436
2856,2137856,16956,840,1120,17013.70,25.75,-1.00,-1.0,2364
2864,2137864,16864,876,1224,16931.04,25.80,-1.00,-1.0,2447
2866,2137866,16928,828,1120,16985.21,25.80,-1.00,-1.0,2352
2869,2137869,17000,796,1300,17068.21,25.80,-1.00,-1.0,2437
2872,2137872,16956,800,1208,17017.79,25.71,-1.00,-1.0,2364
2874,2137874,16988,840,1124,17045.85,25.80,-1.00,-1.0,2360
2877,2137877,16968,848,1164,17029.01,25.85,-1.00,-1.0,2452
2880,2137880,16912,800,1260,16977.73,25.80,-1.00,-1.0,2365
2883,2137883,16992,860,1232,17058.30,25.80,-1.00,-1.0,2443
2885,2137885,17052,872,1244,17119.54,25.80,-1.00,-1.0,2363
2895,2137895,16904,860,1244,16971.52,25.71,-1.00,-1.0,2444
2898,2137898,17012,836,1276,17080.26,25.85,-1.00,-1.0,2364
2901,2137901,16928,784,1176,16986.90,25.71,-1.00,-1.0,2436
2904,2137904,17012,836,1112,17068.79,25.85,-1.00,-1.0,2364
2906,2137906,16912,848,1132,16971.04,25.80,-1.00,-1.0,2437
2909,2137909,16932,916,1032,16988.13,25.75,-1.00,-1.0,2364
2912,2137912,16900,948,1156,16966.00,25.71,-1.00,-1.0,2436
2915,2137915,16932,848,1036,16984.85,25.75,-1.00,-1.0,2363
2917,2137917,16972,896,1156,17034.90,25.80,-1.00,-1.0,2360
2927,2137927,16912,880,1088,16969.79,25.80,-1.00,-1.0,2446
2930,2137930,17072,924,1216,17140.18,25.89,-1.00,-1.0,2365
2933,2137933,17004,876,1124,17063.61,25.71,-1.00,-1.0,2438
2935,2137935,17044,864,1076,17099.77,25.71,-1.00,-1.0,2363
2938,2137938,16988,928,1092,17048.34,25.80,-1.00,-1.0,2440
2941,2137941,17012,780,1100,17065.36,25.80,-1.00,-1.0,2366
2944,2137944,17032,852,1224,17097.17,25.71,-1.00,-1.0,2443
2946,2137946,17020,848,1280,17089.12,25.80,-1.00,-1.0,2364
2956,2137956,17000,776,1152,17056.65,25.75,-1.00,-1.0,2452
2958,2137958,16996,868,1224,17062.11,25.85,-1.00,-1.0,2367
2961,2137961,17016,900,1380,17095.57,25.85,-1.00,-1.0,2447
2964,2137964,17100,816,1076,17153.24,25.85,-1.00,-1.0,2371
2967,2137967,16956,844,976,17005.02,25.71,-1.00,-1.0,2361
2969,2137969,17004,944,1128,17067.50,25.71,-1.00,-1.0,2436
2972,2137972,17012,928,1104,17073.02,25.75,-1.00,-1.0,2352
2975,2137975,17088,796,1240,17151.41,25.80,-1.00,-1.0,2438
2977,2137977,17028,924,1104,17088.75,25.85,-1.00,-1.0,2369
2986,2137986,16996,876,1192,17060.25,25.80,-1.00,-1.0,2438
2988,2137988,17060,848,1152,17119.87,25.71,-1.00,-1.0,2368
2991,2137991,17020,908,1104,17079.92,25.80,-1.00,-1.0,2437
2994,2137994,16968,904,1216,17035.52,25.89,-1.00,-1.0,2365
2997,2137997,16936,760,1208,16996.03,25.80,-1.00,-1.0,2437
2999,2137999,16960,896,1220,17027.41,25.71,-1.00,-1.0,2372
3002,2138002,16992,852,1208,17056.18,25.71,-1.00,-1.0,2437
3005,2138005,16916,808,1116,16972.02,25.71,-1.00,-1.0,2366
3007,2138007,17036,884,1216,17102.21,25.80,-1.00,-1.0,2360
3015,2138015,17092,832,1228,17156.24,25.85,-1.00,-1.0,2444
3018,2138018,17004,816,1144,17061.96,25.75,-1.00,-1.0,2368
3021,2138021,17008,852,1200,17071.55,25.89,-1.00,-1.0,2450
3024,2138024,16880,844,1080,16935.56,25.75,-1.00,-1.0,2373
3026,2138026,16956,860,1272,17025.38,25.80,-1.00,-1.0,2451
3029,2138029,16920,888,1124,16980.53,25.75,-1.00,-1.0,2366
3032,2138032,16972,840,1212,17035.94,25.80,-1.00,-1.0,2450
3035,2138035,16992,904,1040,17047.78,25.75,-1.00,-1.0,2369
3043,2138043,17128,892,1224,17194.83,25.75,-1.00,-1.0,2444
3046,2138046,16976,908,1008,17030.12,25.80,-1.00,-1.0,2365
3048,2138048,16976,852,1224,17041.38,25.75,-1.00,-1.0,2435
3051,2138051,17096,852,1096,17152.27,25.75,-1.00,-1.0,2364
3054,2138054,16984,852,1148,17044.06,25.75,-1.00,-1.0,2368
3056,2138056,16968,844,1064,17022.26,25.80,-1.00,-1.0,2437
3059,2138059,16940,844,1188,17002.57,25.75,-1.00,-1.0,2366
3062,2138062,17020,808,1212,17082.22,25.80,-1.00,-1.0,2435
3065,2138065,16940,940,1120,17002.99,25.75,-1.00,-1.0,2370
3073,2138073,16980,872,1100,17037.92,25.85,-1.00,-1.0,2445
3076,2138076,16976,840,1224,17040.79,25.80,-1.00,-1.0,2367
3078,2138078,17044,940,1076,17103.78,25.85,-1.00,-1.0,2422
3081,2138081,16956,824,1284,17024.50,25.75,-1.00,-1.0,2364
3084,2138084,16996,888,1308,17069.37,25.75,-1.00,-1.0,2436
3087,2138087,16960,904,1216,17027.55,25.71,-1.00,-1.0,2364
3089,2138089,16984,808,1264,17050.13,25.75,-1.00,-1.0,2437
3092,2138092,16972,888,1136,17033.14,25.75,-1.00,-1.0,2363
3095,2138095,16992,848,1164,17052.92,25.75,-1.00,-1.0,2359
3103,2138103,16944,948,1384,17026.84,25.75,-1.00,-1.0,2444
3106,2138106,16960,768,1144,17015.88,25.80,-1.00,-1.0,2364
3108,2138108,16932,892,1136,16993.49,25.85,-1.00,-1.0,2436
3111,2138111,16956,848,1180,17018.15,25.85,-1.00,-1.0,2363
3114,2138114,16944,848,1236,17010.17,25.75,-1.00,-1.0,2436
3117,2138117,16976,816,1220,17039.33,25.80,-1.00,-1.0,2365
3119,2138119,16956,884,1024,17009.88,25.75,-1.00,-1.0,2435
3122,2138122,16976,840,1308,17047.02,25.85,-1.00,-1.0,2365
3130,2138130,17024,904,1160,17087.40,25.75,-1.00,-1.0,2445
3133,2138133,16980,888,1060,17036.21,25.85,-1.00,-1.0,2365
3135,2138135,16948,936,1328,17025.70,25.71,-1.00,-1.0,2348
3138,2138138,16948,888,1076,17005.32,25.80,-1.00,-1.0,2437
3141,2138141,16956,880,1140,17017.05,25.85,-1.00,-1.0,2364
3144,2138144,16964,848,1264,17032.15,25.80,-1.00,-1.0,2443
3146,2138146,16980,852,1184,17042.54,25.75,-1.00,-1.0,2363
3149,2138149,17016,816,952,17062.13,25.80,-1.00,-1.0,2438
3152,2138152,16896,812,1112,16952.01,25.75,-1.00,-1.0,2364
3160,2138160,16944,1004,1032,17005.06,25.80,-1.00,-1.0,2444
3163,2138163,16956,860,1184,17019.03,25.71,-1.00,-1.0,2371
3165,2138165,17000,848,1168,17061.16,25.80,-1.00,-1.0,2436
3168,2138168,16948,900,1308,17022.21,25.80,-1.00,-1.0,2367
3171,2138171,16916,728,1340,16984.60,25.71,-1.00,-1.0,2436
3174,2138174,16932,856,1176,16994.36,25.80,-1.00,-1.0,2371
3176,2138176,16924,848,1112,16981.68,25.75,-1.00,-1.0,2361
3179,2138179,16948,860,1180,17010.78,25.85,-1.00,-1.0,2445
3182,2138182,16900,748,1192,16958.49,25.85,-1.00,-1.0,2371
3190,2138190,17020,744,1156,17075.43,25.71,-1.00,-1.0,2443
3193,2138193,16988,828,1096,17043.44,25.71,-1.00,-1.0,2372
3195,2138195,17016,828,1104,17071.87,25.89,-1.00,-1.0,2436
3198,2138198,17044,816,1144,17101.83,25.80,-1.00,-1.0,2364
3201,2138201,16984,812,1172,17043.74,25.85,-1.00,-1.0,2435
3204,2138204,16984,852,1228,17049.64,25.71,-1.00,-1.0,2370
3206,2138206,16924,868,1148,16985.08,25.71,-1.00,-1.0,2437
3209,2138209,17056,868,1208,17120.74,25.80,-1.00,-1.0,2364
3217,2138217,16956,888,1156,17018.54,25.80,-1.00,-1.0,2444
3220,2138220,16948,852,1160,17009.00,25.71,-1.00,-1.0,2364
3223,2138223,16948,948,1192,17016.29,25.75,-1.00,-1.0,2367
3226,2138226,16956,920,1248,17026.74,25.75,-1.00,-1.0,2448
3228,2138228,17004,840,1180,17065.58,25.75,-1.00,-1.0,2369
3231,2138231,17064,848,968,17112.46,25.75,-1.00,-1.0,2446
3234,2138234,16952,856,1272,17021.19,25.75,-1.00,-1.0,2371
3237,2138237,17136,852,1216,17200.21,25.75,-1.00,-1.0,2448
3239,2138239,17000,848,1184,17062.27,25.75,-1.00,-1.0,2368
3248,2138248,17060,820,1240,17124.65,25.75,-1.00,-1.0,2454
3250,2138250,16948,880,1272,17018.43,25.89,-1.00,-1.0,2363
3253,2138253,17080,856,1296,17150.47,25.85,-1.00,-1.0,2445
3256,2138256,16900,848,1176,16962.08,25.75,-1.00,-1.0,2365
3259,2138259,16952,904,1144,17014.59,25.85,-1.00,-1.0,2442
3261,2138261,16948,872,1188,17011.95,25.71,-1.00,-1.0,2363
3264,2138264,16992,812,1212,17054.51,25.75,-1.00,-1.0,2367
3267,2138267,17048,828,1216,17111.36,25.71,-1.00,-1.0,2440
3269,2138269,16944,872,1236,17011.38,25.75,-1.00,-1.0,2364
3284,2138284,16960,852,1292,17030.47,25.80,-1.00,-1.0,2451
3286,2138286,16924,820,1304,16993.96,25.85,-1.00,-1.0,2373
3289,2138289,17032,932,980,17085.61,25.71,-1.00,-1.0,2444
3292,2138292,17028,852,1340,17101.88,25.71,-1.00,-1.0,2379
3295,2138295,16968,804,1196,17029.09,25.71,-1.00,-1.0,2438
3297,2138297,16996,832,1216,17059.74,25.66,-1.00,-1.0,2367
3300,2138300,17012,832,1148,17070.98,25.71,-1.00,-1.0,2447
3303,2138303,17036,968,1116,17099.94,25.71,-1.00,-1.0,2379
3313,2138313,17004,856,1244,17070.92,25.85,-1.00,-1.0,2444
3315,2138315,17024,832,1192,17085.95,25.80,-1.00,-1.0,2364
3318,2138318,16976,880,1148,17037.51,25.75,-1.00,-1.0,2360
3321,2138321,16952,884,1112,17011.42,25.80,-1.00,-1.0,2444
3323,2138323,16940,836,1196,17002.73,25.75,-1.00,-1.0,2364
3326,2138326,17020,876,1160,17081.96,25.75,-1.00,-1.0,2439
3329,2138329,16956,852,1288,17026.18,25.75,-1.00,-1.0,2363
3332,2138332,17036,972,1124,17100.69,25.66,-1.00,-1.0,2439
3334,2138334,17032,900,1144,17094.09,25.80,-1.00,-1.0,2364
3343,2138343,17040,820,1308,17109.79,25.75,-1.00,-1.0,2444
3346,2138346,16992,836,1300,17062.15,25.75,-1.00,-1.0,2363
3349,2138349,17032,904,1064,17089.13,25.75,-1.00,-1.0,2436
3352,2138352,17036,872,1236,17103.02,25.85,-1.00,-1.0,2365
3354,2138354,17000,812,1204,17061.92,25.75,-1.00,-1.0,2422
3357,2138357,17036,868,1164,17097.77,25.85,-1.00,-1.0,2363
3360,2138360,16940,796,1100,16994.33,25.75,-1.00,-1.0,2367
3362,2138362,16896,900,1280,16968.30,25.80,-1.00,-1.0,2437
3365,2138365,17012,924,1296,17086.30,25.85,-1.00,-1.0,2365
3373,2138373,17028,876,1304,17100.31,25.80,-1.00,-1.0,2444
3376,2138376,16912,732,1272,16975.56,25.75,-1.00,-1.0,2371
3378,2138378,16904,924,1132,16967.04,25.80,-1.00,-1.0,2436
3381,2138381,16948,868,1112,17006.61,25.80,-1.00,-1.0,2368
3384,2138384,16948,940,1096,17009.39,25.71,-1.00,-1.0,2435
3387,2138387,16964,884,1340,17039.79,25.85,-1.00,-1.0,2371
3389,2138389,16956,884,1236,17023.96,25.71,-1.00,-1.0,2436
3392,2138392,17020,884,1180,17083.74,25.75,-1.00,-1.0,2365
3400,2138400,16984,932,1184,17050.71,25.75,-1.00,-1.0,2451
3403,2138403,16956,864,1108,17014.12,25.75,-1.00,-1.0,2351
3405,2138405,17032,840,1284,17100.97,25.75,-1.00,-1.0,2359
3408,2138408,16964,908,1124,17025.43,25.75,-1.00,-1.0,2436
3411,2138411,16988,868,1244,17055.59,25.75,-1.00,-1.0,2365
3414,2138414,16980,776,1188,17039.19,25.85,-1.00,-1.0,2433
3416,2138416,17060,864,1120,17118.54,25.75,-1.00,-1.0,2366
3419,2138419,16988,896,1124,17048.71,25.75,-1.00,-1.0,2437
3422,2138422,17056,808,1132,17112.61,25.75,-1.00,-1.0,2367
3430,2138430,16904,920,1132,16966.82,25.89,-1.00,-1.0,2444
3433,2138433,16972,836,1120,17029.45,25.75,-1.00,-1.0,2364
3435,2138435,17060,804,1232,17123.31,25.80,-1.00,-1.0,2423
3438,2138438,17160,824,1104,17215.21,25.85,-1.00,-1.0,2365
3441,2138441,16984,824,1328,17055.76,25.80,-1.00,-1.0,2440
3444,2138444,17020,856,1092,17076.46,25.85,-1.00,-1.0,2364
3446,2138446,17000,816,1188,17060.98,25.80,-1.00,-1.0,2360
3449,2138449,17180,824,1076,17233.37,25.89,-1.00,-1.0,2436
3452,2138452,16984,864,1148,17044.67,25.89,-1.00,-1.0,2364
3462,2138462,16948,840,1140,17007.05,25.89,-1.00,-1.0,2444
3465,2138465,16992,892,1164,17055.16,25.85,-1.00,-1.0,2366
3468,2138468,17008,828,1120,17064.94,25.80,-1.00,-1.0,2435
3470,2138470,17036,848,1100,17092.53,25.85,-1.00,-1.0,2367
3473,2138473,17048,868,1180,17110.82,25.80,-1.00,-1.0,2436
3476,2138476,16968,924,1132,17030.80,25.75,-1.00,-1.0,2364
3479,2138479,16980,864,1228,17046.26,25.71,-1.00,-1.0,2430
3481,2138481,16948,1012,1216,17021.68,25.75,-1.00,-1.0,2372
3491,2138491,17000,860,1252,17067.72,25.75,-1.00,-1.0,2436
3493,2138493,16980,856,1200,17043.86,25.75,-1.00,-1.0,2369
3496,2138496,16948,888,1152,17010.30,25.80,-1.00,-1.0,2359
3499,2138499,17064,844,1336,17137.02,25.71,-1.00,-1.0,2436
3502,2138502,17004,808,1276,17070.94,25.75,-1.00,-1.0,2365
3504,2138504,17060,792,1308,17128.39,25.80,-1.00,-1.0,2435
3507,2138507,17048,788,1228,17110.33,25.85,-1.00,-1.0,2351
3510,2138510,16980,880,1192,17044.52,25.71,-1.00,-1.0,2438
3512,2138512,16964,796,1044,17014.72,25.85,-1.00,-1.0,2369
3521,2138521,17076,828,1120,17132.71,25.75,-1.00,-1.0,2450
3523,2138523,16908,872,1052,16963.12,25.75,-1.00,-1.0,2363
3526,2138526,17020,824,1128,17077.23,25.75,-1.00,-1.0,2452
3529,2138529,17004,864,1140,17064.06,25.75,-1.00,-1.0,2364
3531,2138531,16972,812,1096,17026.72,25.85,-1.00,-1.0,2362
3534,2138534,17032,876,1168,17094.46,25.80,-1.00,-1.0,2438
3537,2138537,17000,956,1140,17064.98,25.75,-1.00,-1.0,2380
3540,2138540,17052,900,1264,17122.45,25.71,-1.00,-1.0,2439
3542,2138542,17044,840,1184,17105.71,25.85,-1.00,-1.0,2370
3551,2138551,17040,848,1232,17105.51,25.85,-1.00,-1.0,2452
3553,2138553,16932,852,1240,16998.71,25.85,-1.00,-1.0,2364
3556,2138556,16984,800,1176,17043.45,25.80,-1.00,-1.0,2450
3559,2138559,17016,796,1124,17071.65,25.75,-1.00,-1.0,2363
3562,2138562,17016,868,1232,17082.61,25.71,-1.00,-1.0,2444
3564,2138564,16968,776,1128,17023.15,25.85,-1.00,-1.0,2365
3567,2138567,16960,876,1140,17020.83,25.80,-1.00,-1.0,2451
3570,2138570,16964,816,1300,17033.29,25.75,-1.00,-1.0,2363
3572,2138572,16932,884,1176,16995.79,25.80,-1.00,-1.0,2362
3581,2138581,17036,868,1164,17097.77,25.80,-1.00,-1.0,2448
3583,2138583,16964,876,1088,17021.41,25.80,-1.00,-1.0,2370
3586,2138586,17044,892,1244,17112.60,25.80,-1.00,-1.0,2444
3589,2138589,17020,800,1192,17080.44,25.80,-1.00,-1.0,2377
3592,2138592,16928,780,1196,16988.11,25.80,-1.00,-1.0,2440
3594,2138594,16976,772,1176,17034.19,25.80,-1.00,-1.0,2371
3597,2138597,17008,888,1220,17074.81,25.80,-1.00,-1.0,2443
3600,2138600,16876,952,1104,16938.85,25.80,-1.00,-1.0,2378
3608,2138608,17016,832,1244,17081.69,25.89,-1.00,-1.0,2445
3611,2138611,17044,856,1140,17103.52,25.85,-1.00,-1.0,2364
3614,2138614,16996,952,1196,17064.61,25.80,-1.00,-1.0,2444
3616,2138616,17052,884,1284,17123.11,25.75,-1.00,-1.0,2363
3619,2138619,16924,800,1016,16973.33,25.80,-1.00,-1.0,2365
3622,2138622,16996,896,1188,17061.01,25.71,-1.00,-1.0,2438
3624,2138624,17032,832,1212,17095.33,25.89,-1.00,-1.0,2368
3627,2138627,17000,868,1172,17062.45,25.80,-1.00,-1.0,2438
3630,2138630,17008,912,1068,17065.88,25.80,-1.00,-1.0,2380
3638,2138638,17008,788,1296,17075.50,25.80,-1.00,-1.0,2446
3641,2138641,17024,908,1320,17099.22,25.85,-1.00,-1.0,2365
3644,2138644,16964,928,1288,17038.12,25.80,-1.00,-1.0,2444
3646,2138646,17068,780,1268,17132.80,25.66,-1.00,-1.0,2350
3649,2138649,17000,816,1188,17060.98,25.71,-1.00,-1.0,2438
3652,2138652,16956,936,1176,17022.49,25.75,-1.00,-1.0,2364
3655,2138655,16956,940,1116,17018.67,25.80,-1.00,-1.0,2443
3657,2138657,16948,960,1320,17026.41,25.75,-1.00,-1.0,2364
3660,2138660,17004,808,1268,17070.35,25.71,-1.00,-1.0,2359
3668,2138668,17012,844,1148,17071.57,25.80,-1.00,-1.0,2455
3671,2138671,16992,800,1284,17059.21,25.80,-1.00,-1.0,2371
3674,2138674,17036,836,1232,17100.94,25.85,-1.00,-1.0,2437
3676,2138676,17024,868,1252,17092.03,25.80,-1.00,-1.0,2372
3679,2138679,16972,792,1180,17031.40,25.75,-1.00,-1.0,2445
3682,2138682,16912,980,1032,16971.78,25.80,-1.00,-1.0,2372
3685,2138685,16996,824,1152,17054.91,25.85,-1.00,-1.0,2425
3687,2138687,16892,748,1264,16955.73,25.80,-1.00,-1.0,2363
3696,2138696,16888,872,1268,16957.97,25.66,-1.00,-1.0,2446
3698,2138698,17024,900,1096,17082.97,25.75,-1.00,-1.0,2364
3701,2138701,17120,848,1060,17173.73,25.75,-1.00,-1.0,2423
3704,2138704,17008,852,1076,17063.29,25.80,-1.00,-1.0,2378
3707,2138707,16992,856,1160,17053.05,25.75,-1.00,-1.0,2360
3709,2138709,17092,880,1172,17154.72,25.71,-1.00,-1.0,2437
3712,2138712,17032,860,964,17080.92,25.85,-1.00,-1.0,2364
3715,2138715,16984,948,1132,17048.06,25.85,-1.00,-1.0,2423
3718,2138718,16996,928,1216,17064.70,25.75,-1.00,-1.0,2366
3726,2138726,17032,816,1176,17092.04,25.85,-1.00,-1.0,2444
3729,2138729,16884,840,1268,16952.37,25.75,-1.00,-1.0,2365
3732,2138732,16976,764,1172,17033.55,25.85,-1.00,-1.0,2428
3734,2138734,16916,836,1208,16979.67,25.85,-1.00,-1.0,2371
3737,2138737,17004,872,1172,17066.63,25.85,-1.00,-1.0,2437
3740,2138740,17016,832,1160,17075.78,25.66,-1.00,-1.0,2365
3743,2138743,16988,876,1156,17049.80,25.85,-1.00,-1.0,2444
3745,2138745,16956,852,1180,17018.35,25.75,-1.00,-1.0,2371
3748,2138748,17024,920,1044,17080.78,25.80,-1.00,-1.0,2360
3756,2138756,16996,868,1148,17056.83,25.80,-1.00,-1.0,2448
3759,2138759,17076,824,1220,17139.35,25.80,-1.00,-1.0,2365
3762,2138762,17084,860,1332,17157.41,25.89,-1.00,-1.0,2441
3764,2138764,17024,784,1164,17081.75,25.80,-1.00,-1.0,2365
3767,2138767,16992,948,1316,17069.23,25.80,-1.00,-1.0,2437
3770,2138770,16960,860,1224,17025.84,25.80,-1.00,-1.0,2366
3773,2138773,16996,888,1176,17059.76,25.89,-1.00,-1.0,2441
3775,2138775,17000,880,1172,17063.06,25.80,-1.00,-1.0,2365
3784,2138784,16980,816,1176,17040.22,25.80,-1.00,-1.0,2447
3786,2138786,16996,784,1244,17059.49,25.80,-1.00,-1.0,2366
3789,2138789,16988,884,1160,17050.49,25.75,-1.00,-1.0,2439
3792,2138792,16980,908,1144,17042.70,25.80,-1.00,-1.0,2365
3794,2138794,16920,824,1192,16981.94,25.75,-1.00,-1.0,2359
3797,2138797,17044,816,1176,17104.00,25.75,-1.00,-1.0,2447
3800,2138800,16924,776,1224,16985.94,25.80,-1.00,-1.0,2366
3803,2138803,16960,824,1376,17035.67,25.75,-1.00,-1.0,2443
3805,2138805,16984,880,1204,17049.35,25.75,-1.00,-1.0,2364
3814,2138814,17008,808,1184,17068.30,25.75,-1.00,-1.0,2448
3816,2138816,16912,856,1296,16983.17,25.75,-1.00,-1.0,2373
3819,2138819,16920,848,1268,16988.62,25.80,-1.00,-1.0,2443
3822,2138822,16968,824,1088,17022.80,25.75,-1.00,-1.0,2381
3825,2138825,17008,892,1120,17068.16,25.80,-1.00,-1.0,2437
3827,2138827,16996,848,1300,17066.72,25.75,-1.00,-1.0,2371
3830,2138830,16900,884,1012,16953.34,25.80,-1.00,-1.0,2443
3833,2138833,16988,844,1160,17048.46,25.75,-1.00,-1.0,2380
3836,2138836,16948,808,1264,17014.27,25.80,-1.00,-1.0,2360
3846,2138846,16932,752,1120,16985.66,25.75,-1.00,-1.0,2465
3849,2138849,16924,856,1224,16989.78,25.85,-1.00,-1.0,2373
3852,2138852,17016,840,1140,17074.82,25.80,-1.00,-1.0,2423
3854,2138854,17008,852,1116,17065.86,25.75,-1.00,-1.0,2364
3857,2138857,16992,864,1276,17061.73,25.71,-1.00,-1.0,2447
3860,2138860,16972,884,1256,17041.36,25.75,-1.00,-1.0,2374
3863,2138863,16968,996,1208,17040.08,25.89,-1.00,-1.0,2437
3865,2138865,17076,932,1236,17146.02,25.85,-1.00,-1.0,2365
3874,2138874,16948,844,1228,17013.38,25.85,-1.00,-1.0,2451
3876,2138876,16936,872,1240,17003.71,25.75,-1.00,-1.0,2366
3879,2138879,17024,812,1092,17078.30,25.75,-1.00,-1.0,2435
3882,2138882,16856,784,1252,16920.61,25.80,-1.00,-1.0,2365
3884,2138884,17016,916,1156,17079.80,25.75,-1.00,-1.0,2362
3887,2138887,16964,832,1284,17032.86,25.80,-1.00,-1.0,2443
3890,2138890,17000,788,1160,17057.74,25.85,-1.00,-1.0,2367
3893,2138893,16972,808,1144,17029.69,25.71,-1.00,-1.0,2442
3895,2138895,16992,836,1140,17050.71,25.75,-1.00,-1.0,2352
3904,2138904,17040,864,1112,17098.09,25.80,-1.00,-1.0,2455
3906,2138906,17080,876,1236,17147.05,25.75,-1.00,-1.0,2367
3909,2138909,17020,876,1152,17081.42,25.80,-1.00,-1.0,2445
3912,2138912,17068,840,1188,17129.90,25.85,-1.00,-1.0,2366
3915,2138915,17072,884,1288,17143.32,25.89,-1.00,-1.0,2442
3917,2138917,16988,848,1208,17051.99,25.85,-1.00,-1.0,2366
3920,2138920,16920,820,1200,16982.31,25.80,-1.00,-1.0,2369
3923,2138923,16956,736,1220,17015.76,25.80,-1.00,-1.0,2423
3925,2138925,16968,800,1108,17022.95,25.80,-1.00,-1.0,2365
3934,2138934,16988,864,1156,17049.19,25.71,-1.00,-1.0,2434
3936,2138936,17012,856,1208,17076.30,25.80,-1.00,-1.0,2373
3939,2138939,16940,772,1076,16991.69,25.75,-1.00,-1.0,2444
3942,2138942,17028,836,1144,17086.85,25.71,-1.00,-1.0,2381
3945,2138945,16936,800,1112,16991.31,25.80,-1.00,-1.0,2439
3947,2138947,16992,808,1096,17046.47,25.80,-1.00,-1.0,2373
3950,2138950,16944,952,1228,17015.09,25.85,-1.00,-1.0,2443
3953,2138953,16964,808,1180,17024.18,25.80,-1.00,-1.0,2380
3963,2138963,16920,892,1192,16985.37,25.75,-1.00,-1.0,2458
3966,2138966,16940,880,1164,17002.73,25.71,-1.00,-1.0,2371
3969,2138969,17008,844,1200,17071.16,25.75,-1.00,-1.0,2361
3971,2138971,16976,828,1252,17042.23,25.85,-1.00,-1.0,2436
3974,2138974,16984,836,1132,17042.20,25.85,-1.00,-1.0,2369
3977,2138977,16932,816,1188,16993.23,25.75,-1.00,-1.0,2434
3980,2138980,16948,808,1244,17012.79,25.75,-1.00,-1.0,2366
3982,2138982,16964,788,1184,17023.52,25.85,-1.00,-1.0,2435
3985,2138985,16988,848,1208,17051.99,25.75,-1.00,-1.0,2354
3996,2138996,17040,904,1124,17100.94,25.71,-1.00,-1.0,2444
3999,2138999,17012,944,1148,17076.80,25.71,-1.00,-1.0,2367
4002,2139002,17008,852,1364,17083.87,25.85,-1.00,-1.0,2442
4005,2139005,17048,884,1240,17115.88,25.80,-1.00,-1.0,2374
4007,2139007,16936,808,1112,16991.69,25.85,-1.00,-1.0,2435
4010,2139010,17000,972,1312,17078.24,25.80,-1.00,-1.0,2365
4013,2139013,17052,888,1172,17115.28,25.71,-1.00,-1.0,2362
4016,2139016,17040,872,1140,17100.34,25.85,-1.00,-1.0,2449
4018,2139018,17000,892,1364,17077.94,25.75,-1.00,-1.0,2377
4027,2139027,16968,952,1188,17036.16,25.75,-1.00,-1.0,2458
4030,2139030,17048,840,1212,17111.66,25.80,-1.00,-1.0,2370
4033,2139033,16984,824,1164,17043.77,25.75,-1.00,-1.0,2445
4035,2139035,17044,884,1036,17098.32,25.75,-1.00,-1.0,2372
4038,2139038,16940,884,1156,17002.39,25.75,-1.00,-1.0,2445
4041,2139041,17032,824,1152,17090.79,25.71,-1.00,-1.0,2369
4044,2139044,16972,784,1268,17037.35,25.85,-1.00,-1.0,2444
4046,2139046,16984,812,1236,17048.26,25.75,-1.00,-1.0,2367
4055,2139055,17076,880,1172,17138.78,25.71,-1.00,-1.0,2445
4057,2139057,16980,832,1168,17040.45,25.85,-1.00,-1.0,2371
4060,2139060,16964,852,1200,17027.72,25.80,-1.00,-1.0,2359
4063,2139063,17004,864,1320,17077.03,25.80,-1.00,-1.0,2442
4065,2139065,16888,908,1112,16948.91,25.80,-1.00,-1.0,2365
4068,2139068,17040,900,1184,17104.78,25.80,-1.00,-1.0,2437
4071,2139071,16980,856,1136,17039.47,25.80,-1.00,-1.0,2363
4074,2139074,16960,880,1200,17025.16,25.80,-1.00,-1.0,2444
4076,2139076,16928,960,1372,17010.62,25.80,-1.00,-1.0,2364
4085,2139085,16852,744,1164,16908.53,25.80,-1.00,-1.0,2445
4087,2139087,16860,912,1264,16931.89,25.71,-1.00,-1.0,2371
4090,2139090,17036,856,1128,17094.75,25.80,-1.00,-1.0,2437
4093,2139093,16988,856,1272,17057.05,25.75,-1.00,-1.0,2365
4096,2139096,16984,772,1164,17041.34,25.89,-1.00,-1.0,2443
4098,2139098,17028,824,1140,17086.00,25.80,-1.00,-1.0,2372
4101,2139101,16964,840,1272,17032.35,25.80,-1.00,-1.0,2359
4104,2139104,16996,924,1236,17065.92,25.71,-1.00,-1.0,2443
4106,2139106,16980,820,1164,17039.59,25.89,-1.00,-1.0,2365
4115,2139115,17012,868,1220,17077.76,25.80,-1.00,-1.0,2444
4117,2139117,16964,796,1196,17024.73,25.80,-1.00,-1.0,2371
4120,2139120,16984,800,1148,17041.54,25.89,-1.00,-1.0,2436
4123,2139123,17040,808,1240,17104.15,25.80,-1.00,-1.0,2366
4126,2139126,16964,828,1364,17038.88,25.71,-1.00,-1.0,2445
4128,2139128,17064,916,1168,17128.44,25.71,-1.00,-1.0,2374
4131,2139131,17020,968,1256,17093.71,25.71,-1.00,-1.0,2436
4134,2139134,16948,812,1160,17007.05,25.80,-1.00,-1.0,2366
4142,2139142,16948,812,1200,17009.82,25.94,-1.00,-1.0,2430
4145,2139145,16908,896,1144,16970.33,25.80,-1.00,-1.0,2364
4147,2139147,17048,784,1352,17119.49,25.75,-1.00,-1.0,2360
4150,2139150,17140,908,1224,17207.62,25.85,-1.00,-1.0,2437
4153,2139153,16964,800,1068,17016.40,25.85,-1.00,-1.0,2364
4156,2139156,16976,908,1208,17043.13,25.75,-1.00,-1.0,2438
4158,2139158,16948,816,1120,17004.56,25.75,-1.00,-1.0,2363
4161,2139161,16952,832,1212,17015.62,25.75,-1.00,-1.0,2438
4164,2139164,16988,852,1116,17045.92,25.71,-1.00,-1.0,2440
4172,2139172,16960,820,1128,17017.24,25.75,-1.00,-1.0,2446
4175,2139175,16976,892,1220,17043.14,25.85,-1.00,-1.0,2366
4178,2139178,17060,744,1164,17115.84,25.71,-1.00,-1.0,2434
4181,2139181,16992,792,1184,17051.60,25.75,-1.00,-1.0,2374
4183,2139183,17044,832,1212,17107.28,25.80,-1.00,-1.0,2433
4186,2139186,16996,976,1184,17065.12,25.75,-1.00,-1.0,2368
4189,2139189,17000,884,1224,17066.92,25.80,-1.00,-1.0,2366
4192,2139192,17008,856,1184,17070.64,25.80,-1.00,-1.0,2444
4194,2139194,16916,832,1128,16973.97,25.71,-1.00,-1.0,2370
4203,2139203,16892,832,1088,16947.44,25.80,-1.00,-1.0,2444
4205,2139205,17068,832,1060,17121.11,25.66,-1.00,-1.0,2373
4208,2139208,16908,812,1152,16966.64,25.85,-1.00,-1.0,2433
4211,2139211,16956,808,1168,17015.38,25.75,-1.00,-1.0,2369
4214,2139214,16904,860,1176,16966.67,25.75,-1.00,-1.0,2432
4216,2139216,16952,788,1244,17015.84,25.75,-1.00,-1.0,2374
4219,2139219,16944,844,1140,17003.27,25.75,-1.00,-1.0,2433
4222,2139222,16992,768,1148,17048.04,25.75,-1.00,-1.0,2369
4230,2139230,16984,876,1112,17042.89,25.75,-1.00,-1.0,2444
4233,2139233,16952,764,1224,17013.29,25.85,-1.00,-1.0,2368
4236,2139236,17028,880,1300,17100.21,25.75,-1.00,-1.0,2359
4238,2139238,16996,876,1164,17058.32,25.89,-1.00,-1.0,2434
4241,2139241,16948,804,1144,17005.58,25.85,-1.00,-1.0,2367
4244,2139244,16940,932,1080,16999.96,25.80,-1.00,-1.0,2433
4247,2139247,16868,836,1304,16938.97,25.75,-1.00,-1.0,2365
4249,2139249,17032,884,1112,17091.14,25.80,-1.00,-1.0,2422
4252,2139252,17064,852,1220,17128.76,25.75,-1.00,-1.0,2367
4260,2139260,17068,752,1256,17130.66,25.80,-1.00,-1.0,2427
4263,2139263,16968,788,1172,17026.67,25.75,-1.00,-1.0,2366
4266,2139266,17000,836,1148,17059.21,25.71,-1.00,-1.0,2433
4269,2139269,17008,828,1148,17066.80,25.75,-1.00,-1.0,2366
4271,2139271,16996,864,1192,17059.64,25.71,-1.00,-1.0,2433
4274,2139274,16940,876,1112,16999.04,25.66,-1.00,-1.0,2367
4277,2139277,16968,824,1216,17031.46,25.71,-1.00,-1.0,2367
4279,2139279,16992,872,1136,17052.24,25.80,-1.00,-1.0,2435
4282,2139282,16952,896,1220,17019.45,25.80,-1.00,-1.0,2367
4290,2139290,16988,868,1176,17050.76,25.80,-1.00,-1.0,2441
4293,2139293,16980,864,948,17028.38,25.71,-1.00,-1.0,2367
4296,2139296,16976,884,1252,17045.04,25.75,-1.00,-1.0,2447
4299,2139299,17024,848,1180,17085.90,25.80,-1.00,-1.0,2362
4301,2139301,16852,888,1096,16910.93,25.89,-1.00,-1.0,2435
4304,2139304,16888,872,1160,16950.24,25.80,-1.00,-1.0,2368
4307,2139307,16976,908,1400,17057.81,25.75,-1.00,-1.0,2440
4310,2139310,16944,868,1196,17008.32,25.80,-1.00,-1.0,2375
4312,2139312,16984,848,1208,17048.01,25.66,-1.00,-1.0,2368
4320,2139320,16940,820,1236,17004.81,25.80,-1.00,-1.0,2441
4323,2139323,16988,912,1292,17061.45,25.89,-1.00,-1.0,2366
4326,2139326,17016,796,1160,17074.06,25.80,-1.00,-1.0,2433
4329,2139329,16996,908,1224,17064.19,25.80,-1.00,-1.0,2366
4331,2139331,16948,672,1112,16997.73,25.71,-1.00,-1.0,2438
4334,2139334,16988,764,1068,17038.68,25.71,-1.00,-1.0,2367
4337,2139337,16912,896,1256,16982.23,25.80,-1.00,-1.0,2433
4340,2139340,17024,832,1248,17089.95,25.80,-1.00,-1.0,2366
4348,2139348,16996,788,996,17043.38,25.80,-1.00,-1.0,2443
4351,2139351,16972,992,1148,17039.68,25.71,-1.00,-1.0,2367
4353,2139353,16996,848,1224,17061.11,25.80,-1.00,-1.0,2433
4356,2139356,17028,880,1192,17092.34,25.71,-1.00,-1.0,2367
4359,2139359,16944,884,1208,17009.99,25.71,-1.00,-1.0,2360
4361,2139361,17044,840,1268,17111.73,25.80,-1.00,-1.0,2436
4364,2139364,16940,848,1272,17008.84,25.80,-1.00,-1.0,2367
4367,2139367,16976,868,1096,17033.47,25.75,-1.00,-1.0,2433
4370,2139370,16952,832,1172,17012.82,25.71,-1.00,-1.0,2366
4378,2139378,16988,888,1200,17053.46,25.75,-1.00,-1.0,2443
4381,2139381,16940,816,1120,16996.58,25.66,-1.00,-1.0,2375
4383,2139383,17012,804,1196,17072.93,25.75,-1.00,-1.0,2432
4386,2139386,16996,816,1196,17057.56,25.75,-1.00,-1.0,2369
4389,2139389,17052,924,1184,17118.01,25.75,-1.00,-1.0,2433
4392,2139392,16952,864,1144,17012.51,25.75,-1.00,-1.0,2367
4394,2139394,17048,872,1244,17115.55,25.75,-1.00,-1.0,2432
4397,2139397,16976,828,1308,17046.44,25.80,-1.00,-1.0,2353
4400,2139400,16968,860,1120,17026.66,25.85,-1.00,-1.0,2362
4408,2139408,16976,804,1288,17043.77,25.71,-1.00,-1.0,2457
4411,2139411,16972,820,1160,17031.35,25.71,-1.00,-1.0,2374
4414,2139414,17004,936,1096,17064.97,25.80,-1.00,-1.0,2444
4416,2139416,16996,824,1184,17057.11,25.80,-1.00,-1.0,2375
4419,2139419,17032,824,1268,17099.00,25.80,-1.00,-1.0,2440
4422,2139422,17028,848,1132,17086.64,25.80,-1.00,-1.0,2370
4425,2139425,17060,816,1228,17123.59,25.71,-1.00,-1.0,2443
4427,2139427,16920,896,1220,16987.57,25.80,-1.00,-1.0,2377
4436,2139436,16924,852,1168,16985.64,25.75,-1.00,-1.0,2446
4438,2139438,17044,904,1284,17116.19,25.71,-1.00,-1.0,2354
4441,2139441,16980,860,1184,17042.94,25.85,-1.00,-1.0,2433
4444,2139444,17036,820,1208,17098.45,25.80,-1.00,-1.0,2369
4446,2139446,17064,896,1184,17128.48,25.80,-1.00,-1.0,2359
4449,2139449,17028,916,1204,17095.07,25.66,-1.00,-1.0,2436
4452,2139452,16916,860,1284,16986.45,25.66,-1.00,-1.0,2367
4455,2139455,16988,908,1244,17057.67,25.75,-1.00,-1.0,2440
4457,2139457,17028,852,1172,17089.54,25.80,-1.00,-1.0,2366
4472,2139472,17004,792,1324,17073.85,25.71,-1.00,-1.0,2442
4475,2139475,17044,848,1224,17108.92,25.75,-1.00,-1.0,2368
4478,2139478,16944,892,1224,17011.55,25.80,-1.00,-1.0,2449
4481,2139481,16988,836,1216,17051.97,25.80,-1.00,-1.0,2374
4483,2139483,16908,852,1204,16972.21,25.80,-1.00,-1.0,2439
4486,2139486,16996,764,1140,17051.31,25.71,-1.00,-1.0,2367
4489,2139489,16928,928,1224,16997.54,25.71,-1.00,-1.0,2449
4492,2139492,16968,820,1108,17023.90,25.80,-1.00,-1.0,2369
4494,2139494,17084,792,1168,17142.19,25.71,-1.00,-1.0,2368
4500,2139500,17080,860,1212,17144.53,25.75,-1.00,-1.0,2447
4502,2139502,16948,888,1288,17020.05,25.80,-1.00,-1.0,2375
4505,2139505,16952,868,1324,17025.77,25.75,-1.00,-1.0,2433
4508,2139508,17072,820,1200,17133.76,25.80,-1.00,-1.0,2369
4511,2139511,16940,832,1212,17003.67,25.85,-1.00,-1.0,2445
4513,2139513,16956,800,1272,17022.45,25.71,-1.00,-1.0,2374
4516,2139516,17020,936,1104,17081.43,25.85,-1.00,-1.0,2435
4519,2139519,17004,908,1132,17065.81,25.75,-1.00,-1.0,2369
4525,2139525,16960,816,1136,17017.58,25.75,-1.00,-1.0,2443
4528,2139528,16984,872,1224,17050.36,25.75,-1.00,-1.0,2367
4530,2139530,16928,824,1112,16984.48,25.75,-1.00,-1.0,2432
4533,2139533,17020,860,1260,17088.23,25.75,-1.00,-1.0,2369
4536,2139536,16992,936,1232,17062.30,25.75,-1.00,-1.0,2360
4538,2139538,17016,808,1132,17072.74,25.80,-1.00,-1.0,2435
4541,2139541,16904,892,1156,16966.95,25.75,-1.00,-1.0,2367
4544,2139544,17024,900,1180,17088.56,25.71,-1.00,-1.0,2432
4547,2139547,17008,788,1364,17080.79,25.75,-1.00,-1.0,2366
4552,2139552,16928,804,1172,16987.56,25.80,-1.00,-1.0,2450
4554,2139554,17028,800,1224,17090.67,25.71,-1.00,-1.0,2367
4557,2139557,16976,848,1104,17032.98,25.80,-1.00,-1.0,2437
4560,2139560,16984,848,1140,17043.33,25.80,-1.00,-1.0,2366
4563,2139563,17012,916,1168,17076.63,25.89,-1.00,-1.0,2442
4565,2139565,16984,808,1196,17045.22,25.85,-1.00,-1.0,2366
4568,2139568,16972,868,1212,17037.35,25.80,-1.00,-1.0,2433
4571,2139571,16968,864,1280,17038.13,25.75,-1.00,-1.0,2366
4573,2139573,16992,896,1108,17051.64,25.71,-1.00,-1.0,2359
4579,2139579,17012,860,1224,17077.64,25.71,-1.00,-1.0,2442
4582,2139582,16996,836,1224,17060.51,25.85,-1.00,-1.0,2367
4585,2139585,16984,872,1160,17045.89,25.71,-1.00,-1.0,2434
4588,2139588,17052,940,1068,17111.25,25.75,-1.00,-1.0,2365
4590,2139590,16956,840,1252,17022.90,25.80,-1.00,-1.0,2435
4593,2139593,17020,896,1128,17080.86,25.75,-1.00,-1.0,2367
4596,2139596,17028,856,1236,17094.24,25.80,-1.00,-1.0,2420
4599,2139599,16932,924,1160,16996.82,25.85,-1.00,-1.0,2368
4612,2139612,17028,920,1240,17097.86,25.75,-1.00,-1.0,2442
4615,2139615,17008,884,1200,17073.18,25.71,-1.00,-1.0,2367
4618,2139618,16996,944,1304,17072.07,25.75,-1.00,-1.0,2433
4621,2139621,16956,784,1044,17006.19,25.80,-1.00,-1.0,2374
4623,2139623,16848,820,1236,16913.17,25.85,-1.00,-1.0,2365
4626,2139626,16964,972,1172,17032.20,25.85,-1.00,-1.0,2443
4629,2139629,16940,952,1180,17007.71,25.75,-1.00,-1.0,2375
4632,2139632,17104,808,1212,17165.91,25.75,-1.00,-1.0,2442
4634,2139634,17024,860,1216,17089.03,25.75,-1.00,-1.0,2370
4647,2139647,16948,856,1208,17012.54,25.75,-1.00,-1.0,2443
4650,2139650,16948,784,1256,17012.55,25.71,-1.00,-1.0,2368
4653,2139653,17032,752,1164,17088.28,25.85,-1.00,-1.0,2448
4656,2139656,16940,936,1220,17009.65,25.75,-1.00,-1.0,2369
4658,2139658,17060,872,1308,17132.28,25.66,-1.00,-1.0,2440
4661,2139661,17024,808,1108,17079.14,25.75,-1.00,-1.0,2368
4664,2139664,17016,876,1056,17071.23,25.75,-1.00,-1.0,2449
4667,2139667,16996,884,1324,17070.40,25.75,-1.00,-1.0,2373
4669,2139669,16924,796,1200,16985.15,25.71,-1.00,-1.0,2368
4682,2139682,16960,792,1156,17017.79,25.80,-1.00,-1.0,2444
4685,2139685,16956,868,1184,17019.44,25.80,-1.00,-1.0,2366
4688,2139688,17084,792,1188,17143.56,25.75,-1.00,-1.0,2440
4690,2139690,17024,848,1200,17087.29,25.71,-1.00,-1.0,2365
4693,2139693,17004,772,1248,17067.21,25.75,-1.00,-1.0,2434
4696,2139696,16996,880,1156,17057.98,25.80,-1.00,-1.0,2353
4699,2139699,17080,828,1148,17138.55,25.85,-1.00,-1.0,2439
4701,2139701,17008,824,1228,17072.17,25.80,-1.00,-1.0,2368
4714,2139714,16896,872,1160,16958.21,25.80,-1.00,-1.0,2442
4717,2139717,16932,836,1108,16988.79,25.80,-1.00,-1.0,2369
4719,2139719,16924,824,1064,16977.42,25.85,-1.00,-1.0,2360
4722,2139722,16976,936,1224,17045.79,25.75,-1.00,-1.0,2433
4725,2139725,16952,952,1184,17019.94,25.75,-1.00,-1.0,2366
4728,2139728,17044,828,1144,17102.40,25.75,-1.00,-1.0,2439
4730,2139730,16988,872,1276,17058.16,25.75,-1.00,-1.0,2366
4733,2139733,16952,800,1216,17014.38,25.66,-1.00,-1.0,2434
4736,2139736,17120,788,1112,17174.16,25.71,-1.00,-1.0,2425
4748,2139748,16944,892,1224,17011.55,25.75,-1.00,-1.0,2445
4751,2139751,17012,912,1232,17080.92,25.85,-1.00,-1.0,2366
4754,2139754,16988,864,1188,17051.39,25.80,-1.00,-1.0,2433
4757,2139757,16944,940,1060,17003.13,25.85,-1.00,-1.0,2367
4759,2139759,16916,796,1216,16978.32,25.80,-1.00,-1.0,2432
4762,2139762,17056,844,1256,17123.00,25.75,-1.00,-1.0,2353
4765,2139765,16972,932,1068,17031.09,25.71,-1.00,-1.0,2362
4767,2139767,16960,824,1268,17027.28,25.71,-1.00,-1.0,2435
4770,2139770,17000,792,1296,17067.71,25.80,-1.00,-1.0,2368
4783,2139783,17044,860,1308,17115.74,25.85,-1.00,-1.0,2446
4785,2139785,16972,884,1164,17034.82,25.75,-1.00,-1.0,2374
4788,2139788,17016,840,1148,17075.36,25.75,-1.00,-1.0,2433
4791,2139791,16972,824,1096,17027.30,25.85,-1.00,-1.0,2354
4794,2139794,16984,824,1096,17039.26,25.75,-1.00,-1.0,2442
4796,2139796,17056,836,1072,17110.09,25.75,-1.00,-1.0,2373
4799,2139799,16932,800,1128,16988.38,25.75,-1.00,-1.0,2433
4802,2139802,17012,832,1216,17075.69,25.75,-1.00,-1.0,2370
4816,2139816,17044,908,1104,17103.84,25.75,-1.00,-1.0,2443
4819,2139819,16928,800,1172,16987.37,25.80,-1.00,-1.0,2368
4822,2139822,16976,768,1188,17034.84,25.75,-1.00,-1.0,2359
4824,2139824,17076,812,1236,17139.92,25.80,-1.00,-1.0,2434
4827,2139827,16964,1008,1256,17040.27,25.75,-1.00,-1.0,2366
4830,2139830,17072,812,1184,17132.26,25.80,-1.00,-1.0,2433
4833,2139833,16928,912,1212,16995.82,25.75,-1.00,-1.0,2366
4835,2139835,16932,856,1236,16998.62,25.80,-1.00,-1.0,2435
4838,2139838,17012,880,1048,17066.95,25.66,-1.00,-1.0,2367
4851,2139851,16872,848,1144,16931.99,25.75,-1.00,-1.0,2430
4853,2139853,16880,800,1112,16935.49,25.85,-1.00,-1.0,2372
4856,2139856,16980,800,1196,17040.86,25.75,-1.00,-1.0,2437
4859,2139859,17032,792,1172,17090.64,25.71,-1.00,-1.0,2373
4862,2139862,16964,948,1200,17032.79,25.75,-1.00,-1.0,2438
4864,2139864,16824,816,1248,16889.95,25.75,-1.00,-1.0,2372
4867,2139867,17044,836,1124,17101.47,25.75,-1.00,-1.0,2359
4870,2139870,16948,832,1192,17010.23,25.71,-1.00,-1.0,2434
4873,2139873,16920,896,1216,16987.29,25.85,-1.00,-1.0,2369
4885,2139885,16916,864,1120,16975.04,25.80,-1.00,-1.0,2440
4888,2139888,17028,872,1112,17086.54,25.71,-1.00,-1.0,2353
4891,2139891,17008,840,1260,17075.28,25.71,-1.00,-1.0,2434
4894,2139894,16900,944,1120,16963.36,25.71,-1.00,-1.0,2367
4896,2139896,17024,964,1108,17087.23,25.80,-1.00,-1.0,2420
4899,2139899,16964,880,1220,17030.56,25.71,-1.00,-1.0,2366
4902,2139902,16968,780,1144,17024.40,25.71,-1.00,-1.0,2433
4905,2139905,17088,856,1200,17151.46,25.71,-1.00,-1.0,2367
4917,2139917,17032,908,1196,17098.07,25.75,-1.00,-1.0,2440
4920,2139920,16892,772,1244,16955.33,25.71,-1.00,-1.0,2365
4923,2139923,16964,768,1248,17027.17,25.75,-1.00,-1.0,2366
4926,2139926,17016,852,1140,17075.41,25.71,-1.00,-1.0,2445
4928,2139928,17028,952,1168,17094.54,25.75,-1.00,-1.0,2369
4931,2139931,16960,852,1144,17019.88,25.80,-1.00,-1.0,2443
4934,2139934,16984,848,1120,17042.00,25.75,-1.00,-1.0,2372
4937,2139937,16896,804,1148,16954.03,25.71,-1.00,-1.0,2446
4939,2139939,16968,804,1200,17029.37,25.75,-1.00,-1.0,2370
4952,2139952,16976,844,1120,17033.83,25.71,-1.00,-1.0,2441
4955,2139955,16956,840,1136,17014.76,25.80,-1.00,-1.0,2368
4958,2139958,16992,816,1204,17054.13,25.66,-1.00,-1.0,2433
4960,2139960,16992,876,1148,17053.25,25.71,-1.00,-1.0,2369
4963,2139963,16880,832,1272,16948.29,25.85,-1.00,-1.0,2434
4966,2139966,16932,868,1184,16995.53,25.80,-1.00,-1.0,2368
4968,2139968,16976,816,1304,17045.55,25.85,-1.00,-1.0,2359
4971,2139971,16884,924,1112,16945.79,25.66,-1.00,-1.0,2437
4974,2139974,17008,792,1224,17070.37,25.80,-1.00,-1.0,2367
4986,2139986,16964,844,1260,17031.65,25.75,-1.00,-1.0,2440
4989,2139989,16888,880,1192,16952.87,25.75,-1.00,-1.0,2368
4992,2139992,16940,896,1132,17001.41,25.71,-1.00,-1.0,2449
4995,2139995,16908,836,1208,16971.70,25.75,-1.00,-1.0,2375
4997,2139997,17052,804,1304,17120.68,25.80,-1.00,-1.0,2437
5000,2140000,16900,904,1188,16965.80,25.85,-1.00,-1.0,2367
5003,2140003,16932,860,1116,16990.52,25.71,-1.00,-1.0,2449
5006,2140006,16928,932,1196,16995.77,25.85,-1.00,-1.0,2369
5020,2140020,17044,860,1320,17116.66,25.75,-1.00,-1.0,2447
5023,2140023,17072,836,1112,17128.59,25.71,-1.00,-1.0,2365
5025,2140025,17040,756,1216,17100.05,25.75,-1.00,-1.0,2359
5028,2140028,16992,844,1156,17052.18,25.85,-1.00,-1.0,2434
5031,2140031,16996,860,1084,17052.23,25.71,-1.00,-1.0,2370
5034,2140034,16984,920,1176,17049.51,25.85,-1.00,-1.0,2431
5036,2140036,17036,836,1192,17098.10,25.75,-1.00,-1.0,2369
5039,2140039,16988,920,1124,17049.98,25.66,-1.00,-1.0,2434
5042,2140042,17028,852,1188,17090.64,25.80,-1.00,-1.0,2368
5049,2140049,16892,876,1108,16950.95,25.80,-1.00,-1.0,2443
5051,2140051,16980,908,1308,17054.49,25.71,-1.00,-1.0,2363
5054,2140054,17052,936,1180,17118.39,25.75,-1.00,-1.0,2438
5057,2140057,16924,848,1192,16987.11,25.85,-1.00,-1.0,2374
5060,2140060,16976,884,1240,17044.17,25.85,-1.00,-1.0,2435
5062,2140062,17056,820,1208,17118.38,25.71,-1.00,-1.0,2370
5065,2140065,17060,868,1036,17113.46,25.85,-1.00,-1.0,2360
5068,2140068,17008,840,1108,17064.74,25.75,-1.00,-1.0,2433
5071,2140071,17000,788,1156,17057.47,25.85,-1.00,-1.0,2366
5077,2140077,17052,908,1260,17122.58,25.80,-1.00,-1.0,2441
5080,2140080,16996,920,1192,17062.57,25.71,-1.00,-1.0,2368
5082,2140082,16912,872,1312,16985.21,25.80,-1.00,-1.0,2440
5085,2140085,16964,952,1160,17030.24,25.80,-1.00,-1.0,2368
5088,2140088,16992,752,1288,17057.33,25.80,-1.00,-1.0,2448
5091,2140091,16980,948,1148,17045.15,25.71,-1.00,-1.0,2373
5093,2140093,16948,828,1260,17014.93,25.71,-1.00,-1.0,2439
5096,2140096,16944,840,1180,17005.80,25.80,-1.00,-1.0,2368
5103,2140103,16916,816,1288,16984.58,25.85,-1.00,-1.0,2444
5105,2140105,17020,836,1104,17076.24,25.75,-1.00,-1.0,2353
5108,2140108,16980,864,1336,17054.38,25.80,-1.00,-1.0,2360
5111,2140111,16916,896,1224,16983.88,25.71,-1.00,-1.0,2435
5113,2140113,16996,944,1156,17061.40,25.80,-1.00,-1.0,2368
5116,2140116,16960,928,1000,17014.78,25.80,-1.00,-1.0,2436
5119,2140119,16924,820,1244,16989.46,25.71,-1.00,-1.0,2368
5122,2140122,17000,864,1132,17059.54,25.71,-1.00,-1.0,2441
5124,2140124,16940,804,1088,16993.93,25.80,-1.00,-1.0,2368
5131,2140131,17028,904,1216,17095.28,25.80,-1.00,-1.0,2441
5134,2140134,16940,812,1152,16998.53,25.80,-1.00,-1.0,2366
5136,2140136,17096,844,1196,17158.55,25.80,-1.00,-1.0,2433
5139,2140139,17028,892,1200,17093.52,25.80,-1.00,-1.0,2369
5142,2140142,16976,836,1288,17045.30,25.80,-1.00,-1.0,2432
5145,2140145,16932,884,1016,16985.47,25.80,-1.00,-1.0,2366
5147,2140147,17000,936,1176,17066.31,25.89,-1.00,-1.0,2359
5150,2140150,16912,872,1116,16971.20,25.85,-1.00,-1.0,2449
5153,2140153,16952,888,1216,17018.74,25.80,-1.00,-1.0,2371
5158,2140158,17032,860,1188,17095.03,25.75,-1.00,-1.0,2449
5161,2140161,16956,884,1252,17025.12,25.85,-1.00,-1.0,2381
5164,2140164,16904,820,1212,16967.22,25.80,-1.00,-1.0,2460
5167,2140167,16980,876,1188,17044.04,25.71,-1.00,-1.0,2374
5169,2140169,16944,884,1320,17018.31,25.75,-1.00,-1.0,2437
5172,2140172,16980,884,1228,17047.28,25.80,-1.00,-1.0,2364
5175,2140175,16880,792,1244,16944.30,25.85,-1.00,-1.0,2437
5178,2140178,16976,808,1248,17040.98,25.71,-1.00,-1.0,2370
5183,2140183,17112,888,1144,17173.17,25.71,-1.00,-1.0,2444
5186,2140186,17044,844,1180,17105.63,25.71,-1.00,-1.0,2363
5188,2140188,16984,836,1192,17046.29,25.85,-1.00,-1.0,2362
5191,2140191,17008,812,1168,17067.38,25.75,-1.00,-1.0,2440
5194,2140194,16968,932,1104,17029.40,25.71,-1.00,-1.0,2372
5196,2140196,16916,860,1176,16978.62,25.85,-1.00,-1.0,2436
5199,2140199,17004,844,1228,17069.16,25.75,-1.00,-1.0,2364
5202,2140202,16964,788,1212,17025.49,25.75,-1.00,-1.0,2437
5205,2140205,17008,884,1092,17065.93,25.80,-1.00,-1.0,2371
5234,2140234,16904,788,1196,16964.57,25.71,-1.00,-1.0,2440
5237,2140237,16904,860,1196,16968.06,25.80,-1.00,-1.0,2363
5239,2140239,16856,868,1196,16920.66,25.85,-1.00,-1.0,2440
5242,2140242,17044,824,1120,17100.62,25.80,-1.00,-1.0,2364
5245,2140245,16976,768,1084,17027.90,25.71,-1.00,-1.0,2361
5247,2140247,16936,820,1212,16999.10,25.75,-1.00,-1.0,2436
5250,2140250,16988,872,1244,17055.79,25.75,-1.00,-1.0,2352
5253,2140253,16940,888,1084,16997.86,25.85,-1.00,-1.0,2436
5256,2140256,16924,824,1228,16988.49,25.80,-1.00,-1.0,2364
5261,2140261,16960,896,1148,17022.41,25.85,-1.00,-1.0,2444
5264,2140264,17020,804,1164,17078.69,25.85,-1.00,-1.0,2364
5267,2140267,16976,844,1208,17039.84,25.75,-1.00,-1.0,2441
5269,2140269,16992,856,1128,17050.90,25.75,-1.00,-1.0,2364
5272,2140272,17076,796,1216,17137.74,25.75,-1.00,-1.0,2437
5275,2140275,16948,864,1084,17004.60,25.85,-1.00,-1.0,2366
5278,2140278,17044,884,1228,17111.03,25.75,-1.00,-1.0,2442
5280,2140280,16936,824,1188,16997.60,25.75,-1.00,-1.0,2365
5283,2140283,16892,892,1204,16958.33,25.66,-1.00,-1.0,2359
5288,2140288,16992,844,1144,17051.37,25.75,-1.00,-1.0,2441
5291,2140291,16940,824,1256,17006.47,25.80,-1.00,-1.0,2365
5293,2140293,16924,836,1184,16985.95,25.85,-1.00,-1.0,2439
5296,2140296,16912,892,1256,16982.02,25.75,-1.00,-1.0,2364
5299,2140299,17064,940,1068,17123.21,25.75,-1.00,-1.0,2440
5302,2140302,16972,872,1092,17029.43,25.89,-1.00,-1.0,2364
5304,2140304,16972,856,1260,17040.22,25.75,-1.00,-1.0,2435
5307,2140307,16944,848,1364,17019.95,25.75,-1.00,-1.0,2365
5312,2140312,17000,928,1152,17064.24,25.75,-1.00,-1.0,2442
5315,2140315,17012,880,1104,17070.48,25.80,-1.00,-1.0,2365
5317,2140317,16888,840,1140,16947.26,25.66,-1.00,-1.0,2439
5320,2140320,16976,848,1240,17042.34,25.85,-1.00,-1.0,2364
5323,2140323,17064,940,1216,17133.08,25.75,-1.00,-1.0,2367
5325,2140325,16944,888,1040,16999.10,25.80,-1.00,-1.0,2436
5328,2140328,17040,916,1004,17094.11,25.66,-1.00,-1.0,2366
5331,2140331,16984,800,1080,17037.10,25.80,-1.00,-1.0,2435
5334,2140334,16984,804,1168,17043.09,25.85,-1.00,-1.0,2364
5338,2140338,16952,800,1156,17010.19,25.80,-1.00,-1.0,2442
5341,2140341,16968,780,1088,17020.73,25.80,-1.00,-1.0,2366
5344,2140344,16932,912,1096,16991.93,25.80,-1.00,-1.0,2438
5347,2140347,17032,860,1340,17106.26,25.80,-1.00,-1.0,2370
5349,2140349,17000,872,1152,17061.29,25.71,-1.00,-1.0,2435
5352,2140352,17004,824,1016,17054.24,25.80,-1.00,-1.0,2366
5355,2140355,17004,828,1128,17061.48,25.80,-1.00,-1.0,2435
5358,2140358,17008,892,1184,17072.48,25.75,-1.00,-1.0,2363
5360,2140360,16972,808,1220,17034.96,25.71,-1.00,-1.0,2362
5365,2140365,17044,856,1084,17099.88,25.80,-1.00,-1.0,2445
5368,2140368,16912,824,1152,16971.21,25.75,-1.00,-1.0,2435
5371,2140371,17028,800,1104,17082.49,25.80,-1.00,-1.0,2436
5374,2140374,17000,808,1148,17057.87,25.85,-1.00,-1.0,2371
5376,2140376,17068,800,1096,17121.85,25.80,-1.00,-1.0,2430
5379,2140379,17008,880,1216,17074.11,25.75,-1.00,-1.0,2373
5382,2140382,16964,808,1160,17022.80,25.80,-1.00,-1.0,2430
5385,2140385,16992,780,976,17037.87,25.75,-1.00,-1.0,2372
5390,2140390,16988,884,1240,17056.12,25.85,-1.00,-1.0,2445
5392,2140392,16924,804,1312,16993.81,25.75,-1.00,-1.0,2377
5395,2140395,16936,860,1164,16997.72,25.75,-1.00,-1.0,2443
5398,2140398,17032,904,1108,17091.93,25.85,-1.00,-1.0,2370
5400,2140400,16968,844,1120,17025.86,25.75,-1.00,-1.0,2361
5403,2140403,17024,836,1324,17095.86,25.80,-1.00,-1.0,2420
5406,2140406,17000,856,1236,17066.35,25.75,-1.00,-1.0,2369
5409,2140409,16992,848,1132,17050.77,25.80,-1.00,-1.0,2433
5411,2140411,17076,892,1116,17135.66,25.85,-1.00,-1.0,2373
5416,2140416,16976,908,1116,17036.86,25.75,-1.00,-1.0,2449
5419,2140419,16908,904,1240,16977.49,25.75,-1.00,-1.0,2375
5422,2140422,16984,884,1044,17039.00,25.75,-1.00,-1.0,2437
5424,2140424,16932,836,1132,16990.38,25.71,-1.00,-1.0,2370
5427,2140427,17116,828,1220,17179.39,25.75,-1.00,-1.0,2445
5430,2140430,17000,812,1328,17071.11,25.85,-1.00,-1.0,2373
5433,2140433,17028,988,1100,17092.07,25.75,-1.00,-1.0,2422
5435,2140435,17056,836,1112,17112.64,25.80,-1.00,-1.0,2366
5438,2140438,16884,872,1132,16944.36,25.66,-1.00,-1.0,2362
5443,2140443,17048,800,1224,17110.60,25.75,-1.00,-1.0,2456
5446,2140446,16992,856,1100,17049.07,25.75,-1.00,-1.0,2375
5449,2140449,17008,848,1196,17071.07,25.66,-1.00,-1.0,2446
5451,2140451,16928,920,1244,16998.56,25.75,-1.00,-1.0,2369
5454,2140454,17008,764,1152,17064.08,25.75,-1.00,-1.0,2442
5457,2140457,17020,748,1356,17090.31,25.75,-1.00,-1.0,2373
5460,2140460,17000,836,1108,17056.57,25.75,-1.00,-1.0,2441
5462,2140462,17008,808,1240,17072.27,25.75,-1.00,-1.0,2370
5467,2140467,16916,836,1272,16984.34,25.75,-1.00,-1.0,2441
5470,2140470,16952,772,1148,17008.36,25.80,-1.00,-1.0,2367
5473,2140473,17060,820,1196,17121.52,25.75,-1.00,-1.0,2445
5475,2140475,16896,808,1188,16956.98,25.80,-1.00,-1.0,2366
5478,2140478,16992,884,1056,17047.72,25.75,-1.00,-1.0,2367
5481,2140481,17060,772,1088,17112.08,25.75,-1.00,-1.0,2437
5483,2140483,17052,860,1188,17114.95,25.75,-1.00,-1.0,2367
5486,2140486,16968,856,1096,17024.89,25.80,-1.00,-1.0,2445
5489,2140489,16980,832,1244,17045.83,25.75,-1.00,-1.0,2366
5494,2140494,16948,984,1196,17018.62,25.85,-1.00,-1.0,2441
5497,2140497,16932,804,1128,16988.57,25.80,-1.00,-1.0,2367
5499,2140499,17004,824,1308,17074.13,25.85,-1.00,-1.0,2435
5502,2140502,16912,880,988,16963.68,25.75,-1.00,-1.0,2365
5505,2140505,16980,844,1164,17040.76,25.75,-1.00,-1.0,2433
5508,2140508,17020,908,1092,17079.15,25.80,-1.00,-1.0,2367
5510,2140510,17024,808,1168,17083.14,25.75,-1.00,-1.0,2433
5513,2140513,16956,832,1116,17013.04,25.71,-1.00,-1.0,2366
5516,2140516,16992,856,1148,17052.23,25.75,-1.00,-1.0,2367
5520,2140520,16992,952,1220,17062.32,25.80,-1.00,-1.0,2441
5523,2140523,16864,872,1200,16929.11,25.75,-1.00,-1.0,2367
5526,2140526,16956,716,1328,17022.99,25.71,-1.00,-1.0,2451
5529,2140529,16980,816,1156,17038.86,25.75,-1.00,-1.0,2374
5532,2140532,16960,884,1228,17027.36,25.80,-1.00,-1.0,2448
5534,2140534,17020,804,1128,17076.28,25.85,-1.00,-1.0,2370
5537,2140537,16932,928,1204,17000.10,25.71,-1.00,-1.0,2446
5540,2140540,16992,780,1184,17051.05,25.85,-1.00,-1.0,2371
5545,2140545,16936,848,1160,16996.85,25.80,-1.00,-1.0,2442
5547,2140547,16984,944,1164,17049.99,25.80,-1.00,-1.0,2375
5550,2140550,16944,908,1004,16997.99,25.61,-1.00,-1.0,2348
5553,2140553,17024,876,1256,17092.73,25.75,-1.00,-1.0,2431
5555,2140555,16980,936,1200,17048.06,25.80,-1.00,-1.0,2353
5558,2140558,16928,888,1192,16993.13,25.85,-1.00,-1.0,2434
5561,2140561,16956,952,1204,17025.33,25.80,-1.00,-1.0,2368
5564,2140564,16968,848,1156,17028.46,25.75,-1.00,-1.0,2427
5566,2140566,17124,796,1024,17173.05,25.80,-1.00,-1.0,2374
5571,2140571,17104,860,1052,17157.89,25.80,-1.00,-1.0,2451
5574,2140574,16972,860,1096,17029.08,25.71,-1.00,-1.0,2375
5577,2140577,16904,892,1096,16962.96,25.80,-1.00,-1.0,2437
5579,2140579,16872,872,1264,16941.74,25.80,-1.00,-1.0,2372
5582,2140582,16956,828,1284,17024.69,25.71,-1.00,-1.0,2444
5585,2140585,16952,860,1312,17024.43,25.80,-1.00,-1.0,2375
5588,2140588,16956,756,1136,17010.82,25.75,-1.00,-1.0,2361
5590,2140590,16972,892,1092,17030.47,25.75,-1.00,-1.0,2433
5593,2140593,16936,844,1132,16994.76,25.80,-1.00,-1.0,2369
5598,2140598,16976,896,1028,17030.68,25.80,-1.00,-1.0,2453
5601,2140601,17016,808,1284,17083.49,25.71,-1.00,-1.0,2373
5604,2140604,16992,868,1124,17051.24,25.75,-1.00,-1.0,2448
5606,2140606,16980,848,1072,17034.93,25.61,-1.00,-1.0,2377
5609,2140609,16968,840,1188,17030.27,25.75,-1.00,-1.0,2440
5612,2140612,17000,788,1392,17075.09,25.71,-1.00,-1.0,2372
5615,2140615,16912,880,1176,16975.66,25.85,-1.00,-1.0,2446
5617,2140617,17008,836,1192,17070.20,25.71,-1.00,-1.0,2375
5622,2140622,17028,936,1412,17112.06,25.71,-1.00,-1.0,2449
5625,2140625,16916,692,1284,16978.77,25.71,-1.00,-1.0,2366
5627,2140627,17016,900,1160,17079.22,25.75,-1.00,-1.0,2360
5630,2140630,16884,856,1140,16944.08,25.75,-1.00,-1.0,2438
5633,2140633,17000,876,1260,17069.12,25.75,-1.00,-1.0,2374
5636,2140636,16976,832,1148,17035.10,25.75,-1.00,-1.0,2434
5638,2140638,17048,860,1292,17118.50,25.75,-1.00,-1.0,2369
5641,2140641,16944,800,1224,17006.98,25.85,-1.00,-1.0,2438
5644,2140644,17028,924,1128,17090.32,25.85,-1.00,-1.0,2374
5649,2140649,17012,880,1264,17081.58,25.75,-1.00,-1.0,2453
5652,2140652,17048,816,1200,17109.65,25.89,-1.00,-1.0,2373
5655,2140655,16932,848,1236,16998.22,25.75,-1.00,-1.0,2449
5657,2140657,16996,896,1128,17056.94,25.80,-1.00,-1.0,2375
5660,2140660,16916,844,1280,16985.34,25.75,-1.00,-1.0,2444
5663,2140663,17044,928,1260,17115.69,25.75,-1.00,-1.0,2373
5665,2140665,16980,812,1076,17033.42,25.75,-1.00,-1.0,2347
5668,2140668,17060,800,1172,17118.91,25.80,-1.00,-1.0,2434
5671,2140671,17004,892,1124,17064.44,25.75,-1.00,-1.0,2354
5676,2140676,16936,844,1216,17000.56,25.80,-1.00,-1.0,2438
5679,2140679,16876,896,1144,16938.45,25.80,-1.00,-1.0,2374
5681,2140681,16980,784,1340,17050.83,25.89,-1.00,-1.0,2437
5684,2140684,16852,812,1248,16917.65,25.80,-1.00,-1.0,2367
5687,2140687,16976,892,1128,17036.80,25.80,-1.00,-1.0,2433
5690,2140690,17032,844,1204,17095.35,25.71,-1.00,-1.0,2366
5692,2140692,17032,920,1052,17089.24,25.80,-1.00,-1.0,2435
5695,2140695,16936,904,1276,17008.04,25.80,-1.00,-1.0,2354
5700,2140700,16948,864,1100,17005.62,25.75,-1.00,-1.0,2446
5703,2140703,16968,796,1164,17026.50,25.85,-1.00,-1.0,2365
5705,2140705,17052,872,1288,17122.79,25.80,-1.00,-1.0,2359
5708,2140708,16936,868,1148,16997.04,25.80,-1.00,-1.0,2436
5711,2140711,16980,892,1216,17046.84,25.80,-1.00,-1.0,2369
5714,2140714,16992,848,1036,17044.66,25.80,-1.00,-1.0,2440
5716,2140716,16932,756,1300,16998.65,25.85,-1.00,-1.0,2354
5719,2140719,16992,756,1204,17051.37,25.80,-1.00,-1.0,2434
5722,2140722,16984,916,1160,17048.19,25.85,-1.00,-1.0,2369
5730,2140730,17036,840,1020,17087.17,25.85,-1.00,-1.0,2468
5733,2140733,17004,872,1072,17060.06,25.75,-1.00,-1.0,2368
5736,2140736,16892,920,1056,16949.96,25.71,-1.00,-1.0,2447
5738,2140738,17036,760,1192,17094.55,25.75,-1.00,-1.0,2375
5741,2140741,17024,936,1168,17089.67,25.80,-1.00,-1.0,2434
5744,2140744,16964,812,1152,17022.45,25.85,-1.00,-1.0,2370
5746,2140746,16920,932,1128,16983.15,25.71,-1.00,-1.0,2359
5749,2140749,17072,824,1200,17133.95,25.71,-1.00,-1.0,2434
5752,2140752,17020,788,1076,17072.17,25.80,-1.00,-1.0,2368
5757,2140757,16956,884,1108,17015.14,25.66,-1.00,-1.0,2441
5759,2140759,16924,988,1220,16996.66,25.80,-1.00,-1.0,2366
5762,2140762,17000,872,1312,17072.84,25.75,-1.00,-1.0,2435
5765,2140765,17008,856,1052,17061.99,25.80,-1.00,-1.0,2366
5768,2140768,17032,900,1096,17090.94,25.75,-1.00,-1.0,2435
5770,2140770,16960,928,1236,17030.28,25.80,-1.00,-1.0,2366
5773,2140773,17120,868,1272,17189.12,25.71,-1.00,-1.0,2436
5776,2140776,16972,856,1088,17028.37,25.80,-1.00,-1.0,2367
5781,2140781,16920,920,1088,16979.89,25.80,-1.00,-1.0,2440
5784,2140784,17028,812,1212,17090.38,25.80,-1.00,-1.0,2367
5786,2140786,16972,852,1112,17029.72,25.80,-1.00,-1.0,2360
5789,2140789,16920,840,1128,16978.35,25.75,-1.00,-1.0,2436
5792,2140792,17008,792,1088,17061.16,25.71,-1.00,-1.0,2367
5794,2140794,17008,796,1072,17060.33,25.75,-1.00,-1.0,2420
5797,2140797,16968,864,1320,17041.18,25.80,-1.00,-1.0,2366
5800,2140800,16984,920,1200,17051.18,25.85,-1.00,-1.0,2434
5803,2140803,17052,864,1108,17109.79,25.89,-1.00,-1.0,2367
5808,2140808,17040,836,1340,17113.04,25.80,-1.00,-1.0,2443
5810,2140810,16996,864,1168,17057.98,25.80,-1.00,-1.0,2377
5813,2140813,16940,824,1120,16996.97,25.71,-1.00,-1.0,2443
5816,2140816,17000,804,1284,17067.37,25.80,-1.00,-1.0,2354
5819,2140819,16964,868,1316,17037.09,25.71,-1.00,-1.0,2443
5821,2140821,17016,900,1060,17072.72,25.80,-1.00,-1.0,2376
5824,2140824,17056,844,1244,17122.12,25.71,-1.00,-1.0,2360
5827,2140827,16908,896,1208,16974.76,25.75,-1.00,-1.0,2431
5829,2140829,17016,908,1220,17083.83,25.80,-1.00,-1.0,2369
5834,2140834,17044,812,1128,17100.57,25.80,-1.00,-1.0,2448
5837,2140837,16992,952,1148,17057.32,25.80,-1.00,-1.0,2372
5840,2140840,16984,904,1028,17039.08,25.71,-1.00,-1.0,2438
5842,2140842,16892,888,1160,16955.05,25.80,-1.00,-1.0,2372
5845,2140845,17020,936,1260,17092.22,25.71,-1.00,-1.0,2441
5848,2140848,17120,832,1136,17177.81,25.80,-1.00,-1.0,2381
5851,2140851,17036,848,1136,17094.88,25.71,-1.00,-1.0,2435
5853,2140853,17080,780,1080,17131.88,25.71,-1.00,-1.0,2370
5858,2140858,17004,964,1120,17068.09,25.71,-1.00,-1.0,2438
5861,2140861,16892,840,1192,16954.83,25.75,-1.00,-1.0,2366
5864,2140864,16956,904,1148,17018.84,25.80,-1.00,-1.0,2362
5867,2140867,16976,792,1132,17032.12,25.75,-1.00,-1.0,2451
5869,2140869,16964,780,1256,17028.31,25.75,-1.00,-1.0,2421
5872,2140872,16872,968,1204,16942.58,25.80,-1.00,-1.0,2445
5875,2140875,16992,908,1168,17056.28,25.71,-1.00,-1.0,2379
5878,2140878,16924,836,1232,16989.36,25.80,-1.00,-1.0,2431
5880,2140880,16964,924,1156,17028.43,25.71,-1.00,-1.0,2372
5885,2140885,16880,824,1128,16937.70,25.80,-1.00,-1.0,2439
5888,2140888,17020,872,1200,17084.52,25.75,-1.00,-1.0,2366
5891,2140891,16976,968,1204,17046.15,25.80,-1.00,-1.0,2436
5894,2140894,16972,840,1220,17036.51,25.75,-1.00,-1.0,2367
5896,2140896,16980,780,1144,17036.36,25.80,-1.00,-1.0,2434
5899,2140899,16964,824,1260,17030.67,25.85,-1.00,-1.0,2353
5902,2140902,17012,836,1188,17073.91,25.80,-1.00,-1.0,2362
5904,2140904,17064,912,1292,17137.13,25.80,-1.00,-1.0,2434
5907,2140907,16932,924,1112,16993.62,25.89,-1.00,-1.0,2369
5912,2140912,17020,892,1148,17081.98,25.89,-1.00,-1.0,2439
5915,2140915,16924,916,1152,16987.88,25.75,-1.00,-1.0,2366
5918,2140918,17060,908,1216,17127.37,25.80,-1.00,-1.0,2443
5920,2140920,16940,888,1204,17005.93,25.75,-1.00,-1.0,2367
5923,2140923,16960,848,1196,17023.25,25.71,-1.00,-1.0,2434
5926,2140926,17000,840,1104,17056.51,25.85,-1.00,-1.0,2366
5929,2140929,17028,824,1268,17095.02,25.80,-1.00,-1.0,2441
5931,2140931,16964,844,1128,17022.40,25.66,-1.00,-1.0,2367
5934,2140934,17024,848,1316,17095.83,25.80,-1.00,-1.0,2360
5939,2140939,17044,776,1036,17093.08,25.80,-1.00,-1.0,2445
5941,2140941,16924,892,1200,16989.92,25.71,-1.00,-1.0,2367
5944,2140944,16924,892,1192,16989.36,25.85,-1.00,-1.0,2454
5947,2140947,16964,788,1180,17023.24,25.71,-1.00,-1.0,2367
5950,2140950,17056,828,1124,17113.04,25.75,-1.00,-1.0,2440
5952,2140952,17012,848,1120,17069.90,25.80,-1.00,-1.0,2366
5955,2140955,17020,896,1156,17082.73,25.75,-1.00,-1.0,2453
5958,2140958,16972,772,1160,17029.10,25.80,-1.00,-1.0,2367
5963,2140963,16932,772,1096,16984.99,25.85,-1.00,-1.0,2448
5965,2140965,17052,876,1284,17122.70,25.75,-1.00,-1.0,2369
5968,2140968,16956,796,1076,17008.74,25.85,-1.00,-1.0,2448
5971,2140971,16912,820,1104,16967.82,25.71,-1.00,-1.0,2373
5974,2140974,17036,824,1200,17098.08,25.85,-1.00,-1.0,2361
5976,2140976,17048,908,1124,17109.12,25.71,-1.00,-1.0,2433
5979,2140979,16968,928,952,17020.00,25.80,-1.00,-1.0,2425
5982,2140982,16992,888,1348,17068.50,25.75,-1.00,-1.0,2442
5985,2140985,17004,764,1168,17061.18,25.75,-1.00,-1.0,2360
5990,2140990,16912,748,1148,16967.41,25.75,-1.00,-1.0,2450
5992,2140992,16964,820,1020,17014.41,25.75,-1.00,-1.0,2366
5995,2140995,16916,856,1168,16977.87,25.75,-1.00,-1.0,2444
5998,2140998,16996,872,1116,17054.91,25.80,-1.00,-1.0,2374
6001,2141001,16976,860,1176,17038.40,25.75,-1.00,-1.0,2437
6003,2141003,16972,944,1184,17039.42,25.85,-1.00,-1.0,2367
6006,2141006,17012,884,1148,17073.59,25.75,-1.00,-1.0,2442
6009,2141009,16992,868,1116,17050.72,25.89,-1.00,-1.0,2366
6011,2141011,16924,792,1268,16989.90,25.75,-1.00,-1.0,2362
6016,2141016,16920,864,1228,16986.49,25.85,-1.00,-1.0,2446
6019,2141019,16980,820,1164,17039.59,25.75,-1.00,-1.0,2373
6022,2141022,16992,876,1172,17054.88,25.71,-1.00,-1.0,2446
6025,2141025,16956,948,1128,17019.90,25.75,-1.00,-1.0,2374
6028,2141028,16916,896,1188,16981.32,25.80,-1.00,-1.0,2448
6030,2141030,16964,864,1156,17025.28,25.75,-1.00,-1.0,2376
6033,2141033,16996,904,1088,17054.76,25.71,-1.00,-1.0,2442
6036,2141036,17020,844,1064,17074.10,25.75,-1.00,-1.0,2374
6041,2141041,16944,824,1044,16996.12,25.85,-1.00,-1.0,2448
6043,2141043,17036,852,1120,17094.02,25.75,-1.00,-1.0,2367
6046,2141046,16952,836,1232,17017.26,25.80,-1.00,-1.0,2447
6049,2141049,16988,896,1156,17050.84,25.75,-1.00,-1.0,2366
6051,2141051,16888,840,1212,16952.26,25.80,-1.00,-1.0,2362
6054,2141054,17016,848,1128,17074.42,25.80,-1.00,-1.0,2422
6057,2141057,16952,888,1228,17019.60,25.80,-1.00,-1.0,2382
6060,2141060,17004,840,1176,17065.30,25.80,-1.00,-1.0,2434
6062,2141062,17064,848,1276,17132.64,25.75,-1.00,-1.0,2370
6067,2141067,16968,756,1116,17021.46,25.75,-1.00,-1.0,2440
6070,2141070,17004,876,1260,17073.11,25.75,-1.00,-1.0,2369
6073,2141073,17124,844,1180,17185.35,25.80,-1.00,-1.0,2451
6076,2141076,16944,804,1132,17000.79,25.75,-1.00,-1.0,2375
6078,2141078,17036,984,1044,17096.30,25.80,-1.00,-1.0,2447
6081,2141081,16980,884,1024,17033.80,25.85,-1.00,-1.0,2370
6084,2141084,16984,844,1148,17043.66,25.71,-1.00,-1.0,2446
6087,2141087,17016,796,1344,17087.54,25.66,-1.00,-1.0,2375
6089,2141089,16852,760,1152,16908.42,25.80,-1.00,-1.0,2367
6094,2141094,16964,824,1192,17025.78,25.80,-1.00,-1.0,2448
6097,2141097,16928,852,1104,16985.34,25.80,-1.00,-1.0,2369
6100,2141100,16904,812,1280,16971.83,25.80,-1.00,-1.0,2435
6102,2141102,16956,928,1252,17027.47,25.80,-1.00,-1.0,2371
6105,2141105,17044,840,1008,17094.43,25.80,-1.00,-1.0,2437
6108,2141108,17024,948,1196,17092.27,25.80,-1.00,-1.0,2374
6111,2141111,16964,860,1112,17022.15,25.80,-1.00,-1.0,2434
6113,2141113,17012,976,1164,17079.68,25.71,-1.00,-1.0,2371
6119,2141119,16996,852,1136,17055.22,25.75,-1.00,-1.0,2443
6121,2141121,16984,696,1252,17044.30,25.75,-1.00,-1.0,2367
6124,2141124,16976,860,1112,17034.11,25.71,-1.00,-1.0,2437
6127,2141127,17004,924,1244,17074.46,25.75,-1.00,-1.0,2366
6129,2141129,16964,880,1084,17021.36,25.89,-1.00,-1.0,2360
6132,2141132,16932,804,1140,16989.37,25.80,-1.00,-1.0,2446
6135,2141135,17028,820,1112,17083.96,25.80,-1.00,-1.0,2375
6138,2141138,17092,840,1088,17147.18,25.80,-1.00,-1.0,2435
6140,2141140,16984,760,1180,17041.90,25.80,-1.00,-1.0,2366
6145,2141145,16964,916,1256,17035.08,25.71,-1.00,-1.0,2450
6148,2141148,16948,848,992,16998.17,25.80,-1.00,-1.0,2373
6151,2141151,17032,840,1328,17104.33,25.80,-1.00,-1.0,2435
6153,2141153,17016,748,1128,17069.74,25.89,-1.00,-1.0,2370
6156,2141156,16908,772,1156,16965.05,25.75,-1.00,-1.0,2443
6159,2141159,16996,860,1148,17056.42,25.71,-1.00,-1.0,2375
6162,2141162,16972,860,1256,17040.13,25.80,-1.00,-1.0,2422
6164,2141164,17028,848,1104,17084.81,25.71,-1.00,-1.0,2365
6167,2141167,17016,820,1132,17073.31,25.75,-1.00,-1.0,2362
6172,2141172,16952,840,1156,17012.12,25.85,-1.00,-1.0,2440
6175,2141175,17028,892,1140,17089.41,25.85,-1.00,-1.0,2370
6177,2141177,16976,816,1336,17048.03,25.66,-1.00,-1.0,2435
6180,2141180,16996,872,1176,17058.94,25.75,-1.00,-1.0,2367
6183,2141183,17008,948,1124,17071.44,25.66,-1.00,-1.0,2434
6186,2141186,16996,916,1324,17072.08,25.75,-1.00,-1.0,2367
6188,2141188,16940,900,1108,17000.04,25.75,-1.00,-1.0,2432
6191,2141191,16984,856,1120,17042.40,25.75,-1.00,-1.0,2369
6196,2141196,17000,852,1292,17070.30,25.85,-1.00,-1.0,2455
6199,2141199,17060,912,1304,17134.05,25.71,-1.00,-1.0,2375
6202,2141202,17008,784,1088,17060.79,25.75,-1.00,-1.0,2450
6204,2141204,17024,816,1148,17082.16,25.75,-1.00,-1.0,2377
6207,2141207,17052,852,1248,17118.82,25.75,-1.00,-1.0,2361
6210,2141210,16948,760,1188,17006.58,25.80,-1.00,-1.0,2431
6212,2141212,16896,852,1012,16947.71,25.75,-1.00,-1.0,2369
6215,2141215,16984,900,1164,17047.62,25.71,-1.00,-1.0,2433
6218,2141218,16920,860,1352,16995.70,25.75,-1.00,-1.0,2368
6223,2141223,17048,864,1096,17105.03,25.80,-1.00,-1.0,2448
6225,2141225,16900,860,1152,16961.04,25.80,-1.00,-1.0,2367
6228,2141228,17032,800,1220,17094.37,25.85,-1.00,-1.0,2445
6231,2141231,17048,852,1088,17103.92,25.75,-1.00,-1.0,2374
6234,2141234,16988,828,1144,17046.60,25.75,-1.00,-1.0,2424
6236,2141236,16932,948,1252,17004.67,25.80,-1.00,-1.0,2367
6239,2141239,16992,860,1228,17058.01,25.66,-1.00,-1.0,2364
6242,2141242,17044,868,1120,17102.80,25.75,-1.00,-1.0,2433
6244,2141244,17036,916,1064,17093.75,25.66,-1.00,-1.0,2372
6249,2141249,16964,900,1228,17032.18,25.85,-1.00,-1.0,2441
6252,2141252,17012,944,1212,17081.22,25.80,-1.00,-1.0,2368
6255,2141255,17024,824,1236,17088.69,25.75,-1.00,-1.0,2450
6258,2141258,17024,804,1144,17081.33,25.80,-1.00,-1.0,2376
6260,2141260,16992,820,1184,17052.93,25.75,-1.00,-1.0,2446
6263,2141263,16992,828,1100,17047.69,25.75,-1.00,-1.0,2369
6266,2141266,16984,856,1160,17045.08,25.75,-1.00,-1.0,2443
6269,2141269,16908,916,1128,16970.32,25.71,-1.00,-1.0,2373
6274,2141274,16900,944,1160,16966.05,25.80,-1.00,-1.0,2443
6276,2141276,16928,908,1112,16988.77,25.80,-1.00,-1.0,2366
6279,2141279,17000,816,1308,17069.76,25.75,-1.00,-1.0,2368
6282,2141282,17016,892,1272,17086.78,25.75,-1.00,-1.0,2444
6284,2141284,16976,844,1288,17045.70,25.85,-1.00,-1.0,2366
6287,2141287,16920,820,1044,16972.00,25.75,-1.00,-1.0,2444
6290,2141290,16952,836,1008,17002.51,25.75,-1.00,-1.0,2367
6293,2141293,17036,920,1244,17106.12,25.85,-1.00,-1.0,2438
6295,2141295,17080,852,1092,17136.07,25.75,-1.00,-1.0,2365
6300,2141300,16940,924,1108,17001.32,25.85,-1.00,-1.0,2441
6303,2141303,16992,884,1220,17058.66,25.80,-1.00,-1.0,2353
6306,2141306,16992,896,1152,17054.56,25.75,-1.00,-1.0,2435
6309,2141309,16936,840,1164,16996.72,25.80,-1.00,-1.0,2366
6311,2141311,17072,888,1200,17137.14,25.75,-1.00,-1.0,2434
6314,2141314,16976,804,1236,17039.91,25.71,-1.00,-1.0,2367
6317,2141317,17020,792,1232,17082.90,25.71,-1.00,-1.0,2368
6319,2141319,16960,956,1120,17023.80,25.75,-1.00,-1.0,2433
6322,2141322,16940,864,1256,17008.46,25.75,-1.00,-1.0,2366
6327,2141327,17060,816,1136,17117.24,25.71,-1.00,-1.0,2438
6330,2141330,16844,860,1140,16904.42,25.71,-1.00,-1.0,2365
6333,2141333,16924,996,1196,16995.42,25.80,-1.00,-1.0,2442
6335,2141335,16984,896,1084,17042.13,25.71,-1.00,-1.0,2367
6338,2141338,16932,872,1112,16990.87,25.85,-1.00,-1.0,2434
6341,2141341,16900,888,1244,16968.97,25.80,-1.00,-1.0,2367
6344,2141344,16968,952,1064,17027.96,25.80,-1.00,-1.0,2433
6346,2141346,17028,704,1132,17080.10,25.80,-1.00,-1.0,2369
6351,2141351,16904,868,1188,16967.91,25.66,-1.00,-1.0,2438
6354,2141354,16932,768,1152,16988.51,25.71,-1.00,-1.0,2353
6356,2141356,16868,844,1164,16929.17,25.85,-1.00,-1.0,2347
6359,2141359,16940,820,1152,16998.91,25.75,-1.00,-1.0,2437
6362,2141362,16888,860,1308,16960.39,25.75,-1.00,-1.0,2367
6365,2141365,17052,796,1260,17117.01,25.75,-1.00,-1.0,2440
6367,2141367,16844,796,1176,16903.75,25.75,-1.00,-1.0,2365
6370,2141370,16908,872,1052,16963.12,25.75,-1.00,-1.0,2436
6373,2141373,16956,856,1244,17023.11,25.75,-1.00,-1.0,2367
6378,2141378,16928,876,968,16978.27,25.75,-1.00,-1.0,2441
6380,2141380,17012,940,1224,17081.86,25.75,-1.00,-1.0,2366
6383,2141383,16868,788,1112,16922.97,25.75,-1.00,-1.0,2439
6386,2141386,16936,840,1276,17004.76,25.75,-1.00,-1.0,2366
6389,2141389,17036,760,1184,17094.00,25.66,-1.00,-1.0,2444
6391,2141391,16944,840,1240,17010.07,25.75,-1.00,-1.0,2366
6394,2141394,16984,872,1112,17042.69,25.71,-1.00,-1.0,2367
6397,2141397,16940,728,1132,16993.38,25.80,-1.00,-1.0,2441
6399,2141399,16924,812,1120,16980.45,25.80,-1.00,-1.0,2367
6404,2141404,16980,812,1252,17045.45,25.75,-1.00,-1.0,2438
6407,2141407,17104,836,1152,17163.12,25.75,-1.00,-1.0,2368
6410,2141410,17020,820,1068,17073.18,25.80,-1.00,-1.0,2436
6413,2141413,17024,856,1128,17082.79,25.75,-1.00,-1.0,2367
6415,2141415,17040,836,1220,17104.06,25.80,-1.00,-1.0,2433
6418,2141418,16992,896,1152,17054.56,25.75,-1.00,-1.0,2366
6421,2141421,16916,848,1176,16978.02,25.80,-1.00,-1.0,2434
6424,2141424,16976,820,1196,17037.82,25.75,-1.00,-1.0,2366
6429,2141429,16984,864,1216,17049.38,25.75,-1.00,-1.0,2438
6431,2141431,17080,836,1220,17143.91,25.66,-1.00,-1.0,2368
6434,2141434,16964,884,1104,17022.85,25.75,-1.00,-1.0,2360
6437,2141437,17012,860,1264,17080.56,25.71,-1.00,-1.0,2445
6439,2141439,16996,748,1252,17058.46,25.75,-1.00,-1.0,2366
6442,2141442,16892,908,1116,16953.16,25.80,-1.00,-1.0,2437
6445,2141445,16948,860,1200,17012.18,25.75,-1.00,-1.0,2366
6448,2141448,17000,864,1280,17070.00,25.71,-1.00,-1.0,2437
6450,2141450,16988,948,1240,17059.56,25.75,-1.00,-1.0,2367
6455,2141455,16964,808,1068,17016.78,25.75,-1.00,-1.0,2438
6458,2141458,16992,884,1124,17052.06,25.75,-1.00,-1.0,2365
6461,2141461,17020,904,1244,17089.33,25.66,-1.00,-1.0,2436
6464,2141464,17020,904,1260,17090.50,25.71,-1.00,-1.0,2366
6466,2141466,16944,892,1220,17011.27,25.85,-1.00,-1.0,2433
6469,2141469,16924,812,1124,16980.71,25.75,-1.00,-1.0,2369
6472,2141472,16884,900,1168,16948.27,25.75,-1.00,-1.0,2360
6474,2141474,17036,908,1296,17109.34,25.80,-1.00,-1.0,2434
6477,2141477,16956,852,1132,17015.09,25.85,-1.00,-1.0,2367
6482,2141482,17000,880,1224,17066.71,25.75,-1.00,-1.0,2438
6485,2141485,16932,788,1140,16988.62,25.85,-1.00,-1.0,2368
6488,2141488,16880,876,1348,16956.38,25.80,-1.00,-1.0,2434
6490,2141490,16924,832,1120,16981.41,25.85,-1.00,-1.0,2369
6493,2141493,16992,1008,1208,17064.68,25.80,-1.00,-1.0,2434
6496,2141496,17104,848,1260,17171.30,25.85,-1.00,-1.0,2369
6499,2141499,17000,904,1112,17060.30,25.80,-1.00,-1.0,2434
6501,2141501,17016,908,1128,17077.50,25.75,-1.00,-1.0,2374
6506,2141506,16912,812,956,16958.45,25.75,-1.00,-1.0,2446
6509,2141509,17028,832,1340,17100.89,25.85,-1.00,-1.0,2381
6512,2141512,16984,648,1320,17047.54,25.80,-1.00,-1.0,2360
6514,2141514,16980,900,1108,17039.90,25.80,-1.00,-1.0,2437
6517,2141517,16952,916,1116,17013.37,25.89,-1.00,-1.0,2366
6520,2141520,16948,752,1220,17008.49,25.80,-1.00,-1.0,2433
6523,2141523,16976,804,1096,17030.33,25.75,-1.00,-1.0,2365
6525,2141525,17020,836,1124,17077.55,25.80,-1.00,-1.0,2435
6528,2141528,16940,848,1156,17000.56,25.85,-1.00,-1.0,2367
6533,2141533,16880,828,1028,16931.53,25.75,-1.00,-1.0,2447
6536,2141536,17072,904,1220,17139.39,25.75,-1.00,-1.0,2373
6539,2141539,16972,840,1132,17030.44,25.75,-1.00,-1.0,2439
6541,2141541,17028,784,1220,17089.64,25.80,-1.00,-1.0,2367
6544,2141544,16940,952,1120,17003.66,25.75,-1.00,-1.0,2443
6547,2141547,16928,932,1180,16994.65,25.75,-1.00,-1.0,2367
6549,2141549,16820,808,1296,16889.19,25.75,-1.00,-1.0,2362
6552,2141552,17004,756,1196,17062.77,25.80,-1.00,-1.0,2437
6555,2141555,16972,836,1196,17034.62,25.75,-1.00,-1.0,2374
6562,2141562,17056,844,1140,17114.88,25.80,-1.00,-1.0,2441
6564,2141564,17016,1028,1192,17088.65,25.85,-1.00,-1.0,2364
6567,2141567,17004,860,1080,17059.95,25.71,-1.00,-1.0,2441
6570,2141570,16920,820,1236,16984.89,25.75,-1.00,-1.0,2370
6573,2141573,17028,824,1168,17087.89,25.71,-1.00,-1.0,2436
6575,2141575,17060,904,1304,17133.63,25.75,-1.00,-1.0,2369
6578,2141578,16960,904,1288,17032.84,25.80,-1.00,-1.0,2437
6581,2141581,17020,892,1288,17091.96,25.66,-1.00,-1.0,2374
6586,2141586,16924,788,1172,16982.82,25.71,-1.00,-1.0,2441
6589,2141589,16984,808,1184,17044.38,25.80,-1.00,-1.0,2366
6591,2141591,16900,892,1088,16958.46,25.85,-1.00,-1.0,2359
6594,2141594,17004,868,1368,17081.01,25.75,-1.00,-1.0,2436
6597,2141597,16916,892,1096,16974.92,25.75,-1.00,-1.0,2373
6599,2141599,17012,900,1216,17079.13,25.85,-1.00,-1.0,2433
6602,2141602,17004,876,1180,17067.39,25.85,-1.00,-1.0,2369
6605,2141605,16892,916,1076,16951.00,25.75,-1.00,-1.0,2433
6608,2141608,17004,820,1156,17062.96,25.71,-1.00,-1.0,2367
6613,2141613,16908,960,1148,16974.10,25.80,-1.00,-1.0,2432
6615,2141615,17012,964,1104,17075.02,25.80,-1.00,-1.0,2374
6618,2141618,16864,928,1228,16934.10,25.80,-1.00,-1.0,2436
6621,2141621,16932,744,1160,16987.99,25.80,-1.00,-1.0,2369
6623,2141623,17000,824,1108,17055.99,25.80,-1.00,-1.0,2361
6626,2141626,16928,836,1208,16991.62,25.85,-1.00,-1.0,2436
6629,2141629,17024,864,1200,17088.10,25.71,-1.00,-1.0,2438
6632,2141632,16932,788,1188,16991.91,25.75,-1.00,-1.0,2436
6635,2141635,17016,752,1200,17074.83,25.71,-1.00,-1.0,2371
6640,2141640,17024,892,1024,17078.08,25.80,-1.00,-1.0,2444
6642,2141642,17064,904,1316,17138.53,25.80,-1.00,-1.0,2378
6645,2141645,17088,812,1164,17146.84,25.71,-1.00,-1.0,2436
6648,2141648,16936,800,1176,16995.62,25.80,-1.00,-1.0,2369
6651,2141651,16984,816,1096,17038.88,25.80,-1.00,-1.0,2444
6653,2141653,17148,852,1172,17209.11,25.80,-1.00,-1.0,2376
6656,2141656,16924,880,992,16975.87,25.71,-1.00,-1.0,2434
6659,2141659,17000,876,1340,17075.21,25.80,-1.00,-1.0,2369
6661,2141661,16972,804,1060,17024.06,25.89,-1.00,-1.0,2359
6666,2141666,16928,820,1228,16992.28,25.80,-1.00,-1.0,2451
6669,2141669,17016,892,1440,17100.10,25.71,-1.00,-1.0,2381
6672,2141672,17056,852,1180,17117.99,25.80,-1.00,-1.0,2435
6674,2141674,16944,848,1004,16994.89,25.71,-1.00,-1.0,2371
6677,2141677,16824,944,1180,16891.73,25.80,-1.00,-1.0,2437
6680,2141680,16984,860,1052,17038.27,25.80,-1.00,-1.0,2381
6683,2141683,17056,872,1232,17122.66,25.66,-1.00,-1.0,2434
6685,2141685,16956,776,1136,17011.72,25.80,-1.00,-1.0,2373
6690,2141690,16988,820,1160,17047.29,25.71,-1.00,-1.0,2440
6693,2141693,16940,840,1016,16991.22,25.75,-1.00,-1.0,2370
6696,2141696,16932,856,1212,16996.89,25.80,-1.00,-1.0,2451
6699,2141699,16948,792,1024,16997.37,25.71,-1.00,-1.0,2373
6701,2141701,17016,884,1148,17077.58,25.71,-1.00,-1.0,2368
6704,2141704,16892,844,1184,16954.46,25.75,-1.00,-1.0,2441
6707,2141707,16980,872,1036,17033.91,25.71,-1.00,-1.0,2372
6710,2141710,17000,780,1128,17055.23,25.75,-1.00,-1.0,2443
6712,2141712,16952,892,1084,17010.03,25.71,-1.00,-1.0,2376
6717,2141717,17016,888,1204,17081.64,25.71,-1.00,-1.0,2440
6720,2141720,16912,888,1164,16975.25,25.80,-1.00,-1.0,2367
6723,2141723,17020,880,1168,17082.71,25.71,-1.00,-1.0,2442
6725,2141725,16996,808,1216,17058.59,25.80,-1.00,-1.0,2365
6728,2141728,17000,844,1164,17060.69,25.71,-1.00,-1.0,2450
6731,2141731,17016,960,1280,17091.06,25.71,-1.00,-1.0,2367
6734,2141734,16884,848,1180,16946.41,25.80,-1.00,-1.0,2439
6736,2141736,16948,788,1100,17001.93,25.71,-1.00,-1.0,2365
6739,2141739,17000,784,1036,17049.57,25.71,-1.00,-1.0,2375
6744,2141744,16980,724,1200,17037.74,25.80,-1.00,-1.0,2440
6747,2141747,16952,876,1180,17015.58,25.80,-1.00,-1.0,2373
6749,2141749,16948,828,1204,17010.88,25.80,-1.00,-1.0,2435
6752,2141752,16900,864,1112,16958.57,25.80,-1.00,-1.0,2366
6755,2141755,16932,872,1232,16999.14,25.71,-1.00,-1.0,2434
6758,2141758,16912,868,1148,16973.13,25.71,-1.00,-1.0,2373
6760,2141760,17048,772,1160,17104.85,25.80,-1.00,-1.0,2432
6763,2141763,16848,848,1112,16905.94,25.80,-1.00,-1.0,2366
6768,2141768,16952,792,1168,17010.64,25.80,-1.00,-1.0,2440
6771,2141771,16952,796,1140,17008.92,25.80,-1.00,-1.0,2375
6773,2141773,16984,812,1140,17041.57,25.80,-1.00,-1.0,2435
6776,2141776,17004,808,1040,17054.93,25.80,-1.00,-1.0,2366
6779,2141779,17008,840,1016,17059.01,25.66,-1.00,-1.0,2367
6782,2141782,17028,856,1060,17082.42,25.75,-1.00,-1.0,2446
6784,2141784,16976,860,1088,17032.55,25.71,-1.00,-1.0,2374
6787,2141787,16944,852,1192,17007.23,25.85,-1.00,-1.0,2430
6790,2141790,16988,800,1224,17050.82,25.80,-1.00,-1.0,2373
6795,2141795,16944,816,1284,17012.16,25.66,-1.00,-1.0,2447
6797,2141797,17096,784,1064,17147.01,25.75,-1.00,-1.0,2377
6800,2141800,17024,892,1052,17079.78,25.75,-1.00,-1.0,2443
6803,2141803,16984,784,1200,17044.38,25.85,-1.00,-1.0,2355
6806,2141806,17000,916,1136,17062.52,25.85,-1.00,-1.0,2444
6808,2141808,17080,876,1164,17142.02,25.75,-1.00,-1.0,2375
6811,2141811,16996,916,1164,17060.42,25.75,-1.00,-1.0,2441
6814,2141814,16904,892,1144,16966.13,25.66,-1.00,-1.0,2374
6816,2141816,16936,812,1088,16990.33,25.75,-1.00,-1.0,2347
