timestamp_ms,global_ms,accel_x,accel_y,accel_z,accel_mag,temp_c,voltage,soc,loop_us
2,2135002,16976,-56,1204,17018.73,27.26,-1.00,-1.0,2483
9,2135009,16936,-64,1076,16970.27,27.21,-1.00,-1.0,2469
12,2135012,17080,-72,1056,17112.77,27.21,-1.00,-1.0,2362
14,2135014,17012,-12,988,17040.67,27.26,-1.00,-1.0,2364
17,2135017,17036,-84,1104,17071.94,27.26,-1.00,-1.0,2439
20,2135020,17036,-52,1120,17072.86,27.35,-1.00,-1.0,2368
22,2135022,17044,-52,1100,17079.54,27.17,-1.00,-1.0,2434
25,2135025,17076,-148,996,17105.66,27.26,-1.00,-1.0,2368
28,2135028,17044,-120,1072,17078.10,27.26,-1.00,-1.0,2439
31,2135031,17012,-84,1192,17053.92,27.26,-1.00,-1.0,2362
35,2135035,17044,-64,1144,17082.47,27.17,-1.00,-1.0,2450
38,2135038,17000,-124,960,17027.54,27.26,-1.00,-1.0,2368
41,2135041,17044,-84,1036,17075.66,27.31,-1.00,-1.0,2363
43,2135043,16956,-100,1012,16986.47,27.31,-1.00,-1.0,2433
46,2135046,17004,-152,1068,17038.19,27.17,-1.00,-1.0,2366
49,2135049,16940,-76,1036,16971.82,27.31,-1.00,-1.0,2433
52,2135052,16984,-60,912,17008.57,27.26,-1.00,-1.0,2366
54,2135054,17000,-52,972,17027.84,27.21,-1.00,-1.0,2434
57,2135057,17028,-52,908,17052.27,27.26,-1.00,-1.0,2369
62,2135062,17024,-12,888,17047.15,27.26,-1.00,-1.0,2460
65,2135065,16984,-32,1068,17017.58,27.21,-1.00,-1.0,2368
67,2135067,16976,-128,1016,17006.86,27.26,-1.00,-1.0,2368
70,2135070,17124,-104,980,17152.33,27.21,-1.00,-1.0,2434
73,2135073,16908,-152,1076,16942.88,27.26,-1.00,-1.0,2366
76,2135076,17044,-100,1032,17075.51,27.31,-1.00,-1.0,2443
78,2135078,16996,-36,1012,17026.14,27.26,-1.00,-1.0,2373
81,2135081,16964,-132,984,16993.03,27.21,-1.00,-1.0,2434
84,2135084,17028,-20,1020,17058.53,27.35,-1.00,-1.0,2369
89,2135089,17060,-72,1120,17096.88,27.26,-1.00,-1.0,2453
91,2135091,16948,-92,968,16975.87,27.26,-1.00,-1.0,2360
94,2135094,16880,-56,1172,16920.73,27.35,-1.00,-1.0,2453
97,2135097,16976,-140,1072,17010.39,27.26,-1.00,-1.0,2360
100,2135100,17096,-120,1132,17133.86,27.35,-1.00,-1.0,2368
102,2135102,17040,-100,1044,17072.24,27.31,-1.00,-1.0,2441
105,2135105,16996,-52,972,17023.85,27.26,-1.00,-1.0,2381
108,2135108,17016,32,1112,17052.33,27.21,-1.00,-1.0,2442
111,2135111,17156,-100,1092,17191.01,27.17,-1.00,-1.0,2364
116,2135116,17020,-104,1064,17053.54,27.21,-1.00,-1.0,2454
118,2135118,16940,-56,1068,16973.72,27.31,-1.00,-1.0,2360
121,2135121,17036,-40,1220,17079.68,27.26,-1.00,-1.0,2442
124,2135124,16964,-48,1096,16999.44,27.31,-1.00,-1.0,2360
127,2135127,17072,-168,1156,17111.92,27.31,-1.00,-1.0,2446
129,2135129,16920,-72,1140,16958.51,27.31,-1.00,-1.0,2364
132,2135132,16988,-188,1088,17023.84,27.26,-1.00,-1.0,2362
135,2135135,17028,-16,1032,17059.25,27.26,-1.00,-1.0,2448
137,2135137,16968,-68,1024,16999.01,27.31,-1.00,-1.0,2360
142,2135142,16968,-64,1124,17005.31,27.31,-1.00,-1.0,2447
145,2135145,17072,-112,1048,17104.50,27.21,-1.00,-1.0,2348
148,2135148,16972,-124,1260,17019.16,27.31,-1.00,-1.0,2441
151,2135151,16956,-92,1008,16986.18,27.31,-1.00,-1.0,2366
153,2135153,17124,-88,1048,17156.27,27.40,-1.00,-1.0,2442
156,2135156,17088,-124,1120,17125.11,27.21,-1.00,-1.0,2374
159,2135159,17004,-28,1080,17038.29,27.21,-1.00,-1.0,2443
162,2135162,17016,-156,1128,17054.06,27.26,-1.00,-1.0,2365
164,2135164,16980,-192,1140,17019.31,27.26,-1.00,-1.0,2363
169,2135169,17036,-56,1008,17065.89,27.26,-1.00,-1.0,2446
172,2135172,16980,44,1184,17021.29,27.21,-1.00,-1.0,2360
175,2135175,16956,-104,1008,16986.25,27.21,-1.00,-1.0,2444
177,2135177,17012,-104,1108,17048.36,27.21,-1.00,-1.0,2362
180,2135180,17076,-184,1164,17116.62,27.26,-1.00,-1.0,2426
183,2135183,17016,-80,996,17045.31,27.21,-1.00,-1.0,2364
186,2135186,17064,-120,968,17091.86,27.31,-1.00,-1.0,2439
188,2135188,17116,-136,1148,17154.99,27.21,-1.00,-1.0,2375
193,2135193,17084,-84,1008,17113.92,27.21,-1.00,-1.0,2454
196,2135196,16972,-36,1016,17002.42,27.35,-1.00,-1.0,2360
199,2135199,17032,44,1148,17070.70,27.21,-1.00,-1.0,2360
201,2135201,16968,-36,1064,17001.37,27.31,-1.00,-1.0,2441
204,2135204,17072,-144,1176,17113.06,27.21,-1.00,-1.0,2376
207,2135207,17060,-104,936,17085.97,27.21,-1.00,-1.0,2442
210,2135210,16948,-124,1036,16980.09,27.31,-1.00,-1.0,2365
212,2135212,17028,-124,1116,17064.98,27.21,-1.00,-1.0,2448
215,2135215,17016,44,1028,17047.08,27.21,-1.00,-1.0,2368
220,2135220,17124,-112,1024,17154.96,27.31,-1.00,-1.0,2455
223,2135223,16980,-52,1048,17012.39,27.31,-1.00,-1.0,2366
226,2135226,16996,-60,956,17022.97,27.31,-1.00,-1.0,2450
228,2135228,17008,-12,1060,17041.00,27.21,-1.00,-1.0,2372
231,2135231,16956,20,1084,16990.63,27.35,-1.00,-1.0,2363
234,2135234,16976,-40,1024,17006.90,27.26,-1.00,-1.0,2438
236,2135236,17040,-144,1012,17070.63,27.35,-1.00,-1.0,2368
239,2135239,17044,-76,940,17070.07,27.26,-1.00,-1.0,2429
242,2135242,17084,-16,964,17111.18,27.31,-1.00,-1.0,2368
247,2135247,16972,-120,1008,17002.33,27.26,-1.00,-1.0,2455
250,2135250,16964,-52,1068,16997.67,27.21,-1.00,-1.0,2354
253,2135253,16968,-28,1212,17011.25,27.31,-1.00,-1.0,2454
255,2135255,16924,20,1160,16963.72,27.31,-1.00,-1.0,2371
258,2135258,16980,-60,920,17005.01,27.26,-1.00,-1.0,2447
261,2135261,16992,-56,1116,17028.70,27.21,-1.00,-1.0,2368
263,2135263,17048,16,1016,17078.26,27.26,-1.00,-1.0,2368
266,2135266,17036,-92,1184,17077.34,27.26,-1.00,-1.0,2433
269,2135269,17008,-8,1084,17042.51,27.17,-1.00,-1.0,2374
274,2135274,17064,-12,992,17092.81,27.26,-1.00,-1.0,2454
277,2135277,17052,-68,1036,17083.58,27.31,-1.00,-1.0,2368
280,2135280,17088,-136,1104,17124.17,27.35,-1.00,-1.0,2429
282,2135282,16984,-76,1068,17017.72,27.21,-1.00,-1.0,2361
285,2135285,17000,-4,1096,17035.29,27.26,-1.00,-1.0,2456
288,2135288,17000,-72,1112,17036.48,27.31,-1.00,-1.0,2361
291,2135291,16992,0,920,17016.89,27.21,-1.00,-1.0,2363
293,2135293,17032,-52,1120,17068.87,27.26,-1.00,-1.0,2433
296,2135296,17048,-40,1044,17079.98,27.26,-1.00,-1.0,2369
301,2135301,16976,-112,1088,17011.20,27.26,-1.00,-1.0,2453
304,2135304,17040,-40,1208,17082.81,27.35,-1.00,-1.0,2374
307,2135307,16904,-44,1052,16936.76,27.26,-1.00,-1.0,2442
310,2135310,16992,-72,996,17021.32,27.31,-1.00,-1.0,2367
312,2135312,16992,-44,1020,17022.64,27.26,-1.00,-1.0,2449
315,2135315,17076,-80,1068,17109.55,27.31,-1.00,-1.0,2367
318,2135318,16992,-128,1112,17028.83,27.17,-1.00,-1.0,2443
321,2135321,17036,-60,996,17065.20,27.21,-1.00,-1.0,2361
323,2135323,16948,-16,984,16976.55,27.26,-1.00,-1.0,2362
328,2135328,16984,-88,1096,17019.55,27.26,-1.00,-1.0,2454
331,2135331,16956,-104,1124,16993.53,27.17,-1.00,-1.0,2374
334,2135334,17032,-64,932,17057.60,27.17,-1.00,-1.0,2442
337,2135337,17028,-100,1040,17060.02,27.31,-1.00,-1.0,2371
339,2135339,16964,-32,1168,17004.19,27.26,-1.00,-1.0,2446
342,2135342,17000,20,1096,17035.30,27.26,-1.00,-1.0,2374
345,2135345,16948,-8,992,16977.01,27.26,-1.00,-1.0,2443
348,2135348,17052,-172,1148,17091.46,27.31,-1.00,-1.0,2368
350,2135350,16968,-44,1068,17001.63,27.31,-1.00,-1.0,2362
355,2135355,16944,-88,1188,16985.82,27.40,-1.00,-1.0,2448
358,2135358,16988,-136,988,17017.25,27.26,-1.00,-1.0,2354
361,2135361,17024,-92,940,17050.18,27.21,-1.00,-1.0,2442
364,2135364,17060,48,1060,17092.97,27.26,-1.00,-1.0,2367
366,2135366,16920,-68,1016,16950.61,27.31,-1.00,-1.0,2441
369,2135369,17000,-116,980,17028.62,27.26,-1.00,-1.0,2374
372,2135372,16920,-152,1136,16958.77,27.26,-1.00,-1.0,2441
375,2135375,17016,-88,940,17042.17,27.17,-1.00,-1.0,2366
380,2135380,17040,-24,1056,17072.71,27.21,-1.00,-1.0,2446
382,2135382,17028,-116,1000,17057.73,27.21,-1.00,-1.0,2360
385,2135385,17000,0,972,17027.77,27.26,-1.00,-1.0,2368
388,2135388,17016,-56,1140,17054.24,27.26,-1.00,-1.0,2445
390,2135390,16900,-96,880,16923.17,27.26,-1.00,-1.0,2368
393,2135393,17036,-20,1160,17075.46,27.26,-1.00,-1.0,2442
396,2135396,17040,-76,1152,17079.07,27.35,-1.00,-1.0,2375
399,2135399,16984,-36,1104,17019.88,27.26,-1.00,-1.0,2448
401,2135401,17124,-112,1112,17160.43,27.31,-1.00,-1.0,2366
406,2135406,17064,-124,1088,17099.10,27.31,-1.00,-1.0,2446
409,2135409,16984,-88,1132,17021.91,27.31,-1.00,-1.0,2360
412,2135412,16992,-40,1004,17021.68,27.17,-1.00,-1.0,2439
415,2135415,17048,-180,1032,17080.16,27.31,-1.00,-1.0,2366
417,2135417,16984,-96,988,17012.98,27.26,-1.00,-1.0,2357
420,2135420,16992,-40,1012,17022.16,27.26,-1.00,-1.0,2438
423,2135423,16968,20,1004,16997.69,27.31,-1.00,-1.0,2366
426,2135426,17040,4,1064,17073.19,27.26,-1.00,-1.0,2446
428,2135428,17036,-68,1080,17070.33,27.26,-1.00,-1.0,2365
433,2135433,16964,-80,992,16993.17,27.21,-1.00,-1.0,2455
436,2135436,16992,-32,1124,17029.17,27.26,-1.00,-1.0,2368
439,2135439,17000,20,956,17026.87,27.21,-1.00,-1.0,2434
441,2135441,17084,-20,1084,17118.37,27.26,-1.00,-1.0,2360
444,2135444,17040,-20,1100,17075.48,27.31,-1.00,-1.0,2367
447,2135447,16996,-188,1044,17029.07,27.31,-1.00,-1.0,2440
450,2135450,17008,24,1008,17037.86,27.21,-1.00,-1.0,2369
453,2135453,17060,-108,1068,17093.74,27.31,-1.00,-1.0,2453
456,2135456,16984,-40,968,17011.61,27.35,-1.00,-1.0,2363
460,2135460,17016,-76,1036,17047.68,27.31,-1.00,-1.0,2456
463,2135463,17080,-88,1140,17118.23,27.35,-1.00,-1.0,2369
466,2135466,17000,-100,1140,17038.47,27.31,-1.00,-1.0,2442
468,2135468,17096,-76,1104,17131.78,27.35,-1.00,-1.0,2361
471,2135471,16984,-44,976,17012.08,27.31,-1.00,-1.0,2453
474,2135474,16984,-28,1004,17013.67,27.26,-1.00,-1.0,2361
477,2135477,17056,-80,1088,17090.85,27.21,-1.00,-1.0,2367
480,2135480,16988,28,1028,17019.10,27.21,-1.00,-1.0,2444
483,2135483,16976,-184,1000,17006.42,27.31,-1.00,-1.0,2375
488,2135488,16980,-128,1068,17014.04,27.21,-1.00,-1.0,2447
490,2135490,17044,-144,912,17068.99,27.26,-1.00,-1.0,2362
493,2135493,17004,-128,1060,17037.49,27.21,-1.00,-1.0,2455
496,2135496,17076,-84,1012,17106.17,27.21,-1.00,-1.0,2372
499,2135499,16960,-84,1052,16992.80,27.31,-1.00,-1.0,2452
501,2135501,17064,-160,956,17091.51,27.26,-1.00,-1.0,2361
504,2135504,16992,-76,1084,17026.71,27.21,-1.00,-1.0,2454
507,2135507,16988,-72,944,17014.36,27.26,-1.00,-1.0,2368
510,2135510,16992,-40,1204,17034.65,27.21,-1.00,-1.0,2364
515,2135515,17032,-72,1196,17074.09,27.31,-1.00,-1.0,2448
517,2135517,16944,-144,912,16969.14,27.21,-1.00,-1.0,2369
520,2135520,17048,-80,1088,17082.87,27.21,-1.00,-1.0,2453
523,2135523,16964,-76,1060,16997.25,27.31,-1.00,-1.0,2367
526,2135526,16952,-100,1148,16991.12,27.21,-1.00,-1.0,2454
528,2135528,17056,-76,1132,17093.69,27.21,-1.00,-1.0,2365
531,2135531,16992,-104,980,17020.55,27.31,-1.00,-1.0,2453
534,2135534,17076,-160,1112,17112.92,27.21,-1.00,-1.0,2355
539,2135539,17064,-24,1012,17094.00,27.26,-1.00,-1.0,2446
542,2135542,16996,-36,1008,17025.90,27.26,-1.00,-1.0,2366
544,2135544,17088,-8,1068,17121.34,27.26,-1.00,-1.0,2357
547,2135547,16988,-60,1036,17019.67,27.31,-1.00,-1.0,2439
550,2135550,16972,-40,1028,17003.15,27.26,-1.00,-1.0,2366
552,2135552,17052,-128,1028,17083.44,27.31,-1.00,-1.0,2432
555,2135555,16996,-36,1148,17034.77,27.17,-1.00,-1.0,2366
558,2135558,16980,-12,980,17008.26,27.35,-1.00,-1.0,2433
561,2135561,17100,-156,1148,17139.20,27.26,-1.00,-1.0,2366
566,2135566,17056,0,1008,17085.76,27.26,-1.00,-1.0,2451
568,2135568,17096,-108,1068,17129.67,27.31,-1.00,-1.0,2370
571,2135571,17048,-28,1160,17087.44,27.17,-1.00,-1.0,2447
574,2135574,16964,-48,1116,17000.74,27.31,-1.00,-1.0,2364
576,2135576,17040,-100,1160,17079.73,27.26,-1.00,-1.0,2365
579,2135579,17080,-88,1088,17114.84,27.26,-1.00,-1.0,2432
582,2135582,16992,-28,1020,17022.61,27.35,-1.00,-1.0,2367
585,2135585,17008,-100,1184,17049.46,27.31,-1.00,-1.0,2438
588,2135588,17148,88,1108,17183.98,27.26,-1.00,-1.0,2366
593,2135593,16984,-84,1088,17019.02,27.26,-1.00,-1.0,2448
595,2135595,17000,-104,1032,17031.61,27.21,-1.00,-1.0,2369
598,2135598,17048,20,1120,17084.76,27.26,-1.00,-1.0,2440
601,2135601,16984,-136,888,17007.74,27.26,-1.00,-1.0,2360
603,2135603,17016,-44,1228,17060.31,27.26,-1.00,-1.0,2362
606,2135606,17004,-104,1176,17044.94,27.31,-1.00,-1.0,2434
609,2135609,17016,60,1024,17046.89,27.35,-1.00,-1.0,2368
612,2135612,16956,-40,1232,17000.75,27.21,-1.00,-1.0,2434
615,2135615,16984,4,1032,17015.33,27.21,-1.00,-1.0,2365
620,2135620,17072,-120,1088,17107.05,27.31,-1.00,-1.0,2447
622,2135622,17100,-120,1040,17132.02,27.26,-1.00,-1.0,2364
625,2135625,17124,-48,828,17144.07,27.21,-1.00,-1.0,2440
628,2135628,17004,-112,1172,17044.71,27.26,-1.00,-1.0,2348
631,2135631,16996,-124,1172,17036.81,27.17,-1.00,-1.0,2450
633,2135633,17028,-72,1060,17061.11,27.26,-1.00,-1.0,2370
636,2135636,16972,-80,1104,17008.06,27.21,-1.00,-1.0,2361
639,2135639,16988,-136,1072,17022.33,27.26,-1.00,-1.0,2442
642,2135642,16972,-84,1052,17004.78,27.21,-1.00,-1.0,2366
647,2135647,17012,-84,1016,17042.52,27.26,-1.00,-1.0,2446
649,2135649,17048,-96,1024,17079.00,27.21,-1.00,-1.0,2361
652,2135652,17036,-116,1108,17072.39,27.26,-1.00,-1.0,2439
655,2135655,17044,-68,1028,17075.11,27.21,-1.00,-1.0,2366
657,2135657,17000,-32,1020,17030.60,27.26,-1.00,-1.0,2434
660,2135660,17100,-140,912,17124.88,27.31,-1.00,-1.0,2366
663,2135663,16956,-88,1116,16992.91,27.26,-1.00,-1.0,2467
666,2135666,17000,-72,1144,17038.60,27.35,-1.00,-1.0,2369
669,2135669,17076,12,996,17105.03,27.35,-1.00,-1.0,2363
674,2135674,17000,36,1148,17038.76,27.26,-1.00,-1.0,2446
676,2135676,16980,-128,1044,17012.55,27.21,-1.00,-1.0,2365
679,2135679,17048,-192,1092,17084.02,27.26,-1.00,-1.0,2452
682,2135682,16996,-184,1072,17030.77,27.26,-1.00,-1.0,2360
685,2135685,17040,-68,1048,17072.33,27.26,-1.00,-1.0,2437
687,2135687,16896,-56,1124,16933.44,27.31,-1.00,-1.0,2367
690,2135690,16932,-120,1112,16968.90,27.26,-1.00,-1.0,2436
693,2135693,17032,-44,1016,17062.33,27.26,-1.00,-1.0,2373
698,2135698,16892,-56,1064,16925.57,27.35,-1.00,-1.0,2453
700,2135700,17076,-92,1128,17113.46,27.21,-1.00,-1.0,2366
703,2135703,17128,-124,1048,17160.48,27.26,-1.00,-1.0,2368
706,2135706,17048,-184,908,17073.15,27.26,-1.00,-1.0,2442
709,2135709,17112,-72,876,17134.56,27.17,-1.00,-1.0,2365
711,2135711,17080,-16,1056,17112.62,27.35,-1.00,-1.0,2452
714,2135714,16912,24,1264,16959.19,27.26,-1.00,-1.0,2365
717,2135717,17052,-52,1168,17092.03,27.31,-1.00,-1.0,2442
720,2135720,17008,-164,1140,17046.95,27.26,-1.00,-1.0,2371
725,2135725,17064,-156,1020,17095.17,27.17,-1.00,-1.0,2456
727,2135727,16980,-64,1108,17016.23,27.26,-1.00,-1.0,2367
730,2135730,16904,-112,1092,16939.61,27.17,-1.00,-1.0,2445
733,2135733,16980,-44,1012,17010.19,27.17,-1.00,-1.0,2364
736,2135736,17060,-96,1076,17094.17,27.31,-1.00,-1.0,2368
738,2135738,17012,-108,1016,17042.65,27.21,-1.00,-1.0,2445
741,2135741,17104,-108,1164,17143.90,27.21,-1.00,-1.0,2381
744,2135744,16984,-64,1008,17014.01,27.31,-1.00,-1.0,2440
747,2135747,17028,-96,1052,17060.74,27.12,-1.00,-1.0,2367
752,2135752,16956,-88,1096,16991.61,27.31,-1.00,-1.0,2453
754,2135754,17012,-40,996,17041.18,27.26,-1.00,-1.0,2365
757,2135757,16916,-108,1004,16946.11,27.31,-1.00,-1.0,2452
760,2135760,17060,-124,1000,17089.73,27.26,-1.00,-1.0,2364
763,2135763,16984,-104,1020,17014.92,27.21,-1.00,-1.0,2444
765,2135765,17020,-80,1132,17057.79,27.26,-1.00,-1.0,2365
768,2135768,17076,-48,916,17100.62,27.31,-1.00,-1.0,2376
771,2135771,16980,-140,1156,17019.88,27.26,-1.00,-1.0,2437
774,2135774,17068,-80,1048,17100.33,27.31,-1.00,-1.0,2351
779,2135779,17112,-168,1064,17145.87,27.21,-1.00,-1.0,2457
782,2135782,17072,-136,1096,17107.69,27.21,-1.00,-1.0,2367
784,2135784,17060,28,1040,17091.69,27.21,-1.00,-1.0,2445
787,2135787,17020,-72,1024,17050.93,27.31,-1.00,-1.0,2372
790,2135790,17004,-84,1036,17035.74,27.21,-1.00,-1.0,2440
793,2135793,17060,-40,1008,17089.80,27.21,-1.00,-1.0,2365
795,2135795,17012,-56,1136,17049.98,27.21,-1.00,-1.0,2448
798,2135798,16932,-84,948,16958.73,27.21,-1.00,-1.0,2364
801,2135801,16948,-108,936,16974.17,27.35,-1.00,-1.0,2362
806,2135806,17032,-136,1000,17061.87,27.31,-1.00,-1.0,2434
809,2135809,17128,-284,1176,17170.67,27.21,-1.00,-1.0,2370
811,2135811,17100,-24,1232,17144.34,27.21,-1.00,-1.0,2446
814,2135814,16972,-88,1076,17006.30,27.21,-1.00,-1.0,2381
817,2135817,17056,-68,1140,17094.19,27.26,-1.00,-1.0,2441
820,2135820,17044,-120,1072,17078.10,27.40,-1.00,-1.0,2369
822,2135822,17092,-196,1008,17122.82,27.26,-1.00,-1.0,2449
825,2135825,17008,-112,1172,17048.70,27.31,-1.00,-1.0,2380
830,2135830,16932,-124,1200,16974.92,27.31,-1.00,-1.0,2446
833,2135833,16952,-160,1096,16988.15,27.31,-1.00,-1.0,2375
836,2135836,17024,-36,1104,17059.80,27.31,-1.00,-1.0,2450
838,2135838,17008,-148,932,17034.16,27.21,-1.00,-1.0,2367
841,2135841,17072,-40,1080,17106.17,27.21,-1.00,-1.0,2360
844,2135844,16996,-8,1092,17031.05,27.26,-1.00,-1.0,2449
846,2135846,17040,-100,1116,17076.80,27.26,-1.00,-1.0,2375
849,2135849,16992,-204,1084,17027.76,27.26,-1.00,-1.0,2446
852,2135852,17008,-148,1044,17040.65,27.35,-1.00,-1.0,2364
857,2135857,17028,-32,1092,17063.01,27.31,-1.00,-1.0,2448
859,2135859,17080,-92,1156,17119.32,27.21,-1.00,-1.0,2365
862,2135862,16924,-100,1120,16961.31,27.31,-1.00,-1.0,2438
865,2135865,17044,-80,1012,17074.21,27.21,-1.00,-1.0,2364
868,2135868,16932,-68,1080,16966.54,27.31,-1.00,-1.0,2445
870,2135870,16972,-28,1084,17006.61,27.26,-1.00,-1.0,2365
873,2135873,17020,-88,1144,17058.63,27.21,-1.00,-1.0,2361
876,2135876,17016,-20,1268,17063.19,27.31,-1.00,-1.0,2437
879,2135879,16936,-164,1068,16970.43,27.21,-1.00,-1.0,2364
884,2135884,17036,-44,1148,17074.69,27.31,-1.00,-1.0,2453
886,2135886,16972,-68,1012,17002.28,27.31,-1.00,-1.0,2365
889,2135889,16984,-112,1144,17022.85,27.31,-1.00,-1.0,2441
892,2135892,16968,-112,928,16993.73,27.31,-1.00,-1.0,2364
895,2135895,17076,-140,952,17103.09,27.21,-1.00,-1.0,2444
897,2135897,17008,-136,964,17035.84,27.31,-1.00,-1.0,2364
900,2135900,16916,-100,1028,16947.50,27.31,-1.00,-1.0,2438
903,2135903,17076,-48,1144,17114.35,27.21,-1.00,-1.0,2364
906,2135906,17024,-40,1108,17060.07,27.21,-1.00,-1.0,2361
911,2135911,17024,-156,1200,17066.95,27.12,-1.00,-1.0,2447
914,2135914,16996,-80,1036,17027.73,27.21,-1.00,-1.0,2365
916,2135916,17036,-40,836,17056.55,27.21,-1.00,-1.0,2436
919,2135919,17072,-100,1148,17110.85,27.31,-1.00,-1.0,2365
922,2135922,17080,-60,980,17108.20,27.21,-1.00,-1.0,2438
925,2135925,17028,-124,1092,17063.43,27.31,-1.00,-1.0,2366
927,2135927,17024,-196,924,17050.18,27.21,-1.00,-1.0,2437
930,2135930,17020,-108,1112,17056.63,27.31,-1.00,-1.0,2364
935,2135935,17056,-40,1244,17101.35,27.26,-1.00,-1.0,2452
938,2135938,17032,-136,1128,17069.85,27.26,-1.00,-1.0,2368
940,2135940,16996,-32,1080,17030.31,27.31,-1.00,-1.0,2361
943,2135943,16972,-64,1016,17002.50,27.21,-1.00,-1.0,2436
946,2135946,16944,-88,1080,16978.61,27.31,-1.00,-1.0,2366
949,2135949,17020,16,1088,17054.75,27.31,-1.00,-1.0,2435
951,2135951,17120,-12,1124,17156.86,27.21,-1.00,-1.0,2366
954,2135954,17024,-120,1072,17058.14,27.12,-1.00,-1.0,2437
957,2135957,17008,-64,1152,17047.09,27.17,-1.00,-1.0,2373
962,2135962,16948,-56,952,16974.81,27.31,-1.00,-1.0,2449
965,2135965,17064,-64,1060,17097.01,27.21,-1.00,-1.0,2365
968,2135968,16996,-120,948,17022.84,27.21,-1.00,-1.0,2444
970,2135970,17008,-40,1120,17044.88,27.31,-1.00,-1.0,2365
973,2135973,17060,36,804,17078.97,27.21,-1.00,-1.0,2360
976,2135976,16960,-72,876,16982.76,27.17,-1.00,-1.0,2443
978,2135978,17000,-64,1088,17034.90,27.21,-1.00,-1.0,2350
981,2135981,16984,-72,1008,17014.04,27.26,-1.00,-1.0,2438
984,2135984,17104,-64,940,17129.93,27.26,-1.00,-1.0,2379
989,2135989,17032,24,960,17059.05,27.26,-1.00,-1.0,2444
992,2135992,16980,-32,1168,17020.15,27.35,-1.00,-1.0,2372
995,2135995,16964,24,1064,16997.35,27.26,-1.00,-1.0,2438
997,2135997,17032,-100,948,17058.66,27.26,-1.00,-1.0,2369
1000,2136000,17000,-160,1132,17038.40,27.26,-1.00,-1.0,2364
1003,2136003,17016,36,1024,17046.82,27.31,-1.00,-1.0,2448
1005,2136005,16996,-60,1052,17028.63,27.26,-1.00,-1.0,2376
1008,2136008,16952,-28,1040,16983.89,27.21,-1.00,-1.0,2438
1011,2136011,16956,-72,1036,16987.77,27.31,-1.00,-1.0,2372
1016,2136016,17020,-64,1100,17055.63,27.31,-1.00,-1.0,2460
1019,2136019,17068,-148,1128,17105.87,27.26,-1.00,-1.0,2372
1022,2136022,16972,-136,1016,17002.93,27.21,-1.00,-1.0,2448
1024,2136024,17036,-52,1032,17067.31,27.26,-1.00,-1.0,2365
1027,2136027,16928,4,1012,16958.22,27.31,-1.00,-1.0,2446
1030,2136030,17000,8,1056,17032.77,27.26,-1.00,-1.0,2372
1033,2136033,17004,-32,956,17030.88,27.21,-1.00,-1.0,2451
1035,2136035,16980,-36,1140,17018.26,27.26,-1.00,-1.0,2366
1038,2136038,16976,-108,1132,17014.04,27.21,-1.00,-1.0,2362
1043,2136043,17108,84,1108,17144.05,27.40,-1.00,-1.0,2461
1046,2136046,17024,-68,972,17051.86,27.21,-1.00,-1.0,2373
1049,2136049,17012,-196,928,17038.42,27.21,-1.00,-1.0,2449
1051,2136051,17052,-16,1156,17091.15,27.21,-1.00,-1.0,2373
1054,2136054,17080,-68,948,17106.42,27.31,-1.00,-1.0,2447
1057,2136057,16920,-40,1096,16955.51,27.31,-1.00,-1.0,2368
1060,2136060,17032,-84,944,17058.35,27.31,-1.00,-1.0,2447
1062,2136062,16964,-168,1192,17006.66,27.31,-1.00,-1.0,2368
1067,2136067,17032,-56,1044,17064.06,27.21,-1.00,-1.0,2455
1070,2136070,17036,-64,1156,17075.29,27.21,-1.00,-1.0,2370
1072,2136072,17000,-76,928,17025.48,27.26,-1.00,-1.0,2361
1075,2136075,17076,-44,1084,17110.43,27.17,-1.00,-1.0,2424
1078,2136078,17044,0,1152,17082.89,27.21,-1.00,-1.0,2369
1081,2136081,17012,-88,1064,17045.47,27.35,-1.00,-1.0,2438
1083,2136083,17048,-28,1100,17083.47,27.21,-1.00,-1.0,2371
1086,2136086,16944,-120,1204,16987.15,27.26,-1.00,-1.0,2438
1089,2136089,17016,-88,980,17044.42,27.35,-1.00,-1.0,2365
1094,2136094,16956,-120,1068,16990.03,27.26,-1.00,-1.0,2444
1097,2136097,17052,4,1000,17081.30,27.26,-1.00,-1.0,2363
1099,2136099,16996,-108,1116,17032.94,27.17,-1.00,-1.0,2438
1102,2136102,17072,-52,1108,17108.00,27.26,-1.00,-1.0,2365
1105,2136105,17040,-76,1000,17069.49,27.26,-1.00,-1.0,2437
1108,2136108,17012,-124,1100,17047.98,27.26,-1.00,-1.0,2364
1110,2136110,17032,-64,1060,17065.07,27.26,-1.00,-1.0,2364
1113,2136113,17100,112,1008,17130.05,27.21,-1.00,-1.0,2438
1116,2136116,16828,-40,1016,16858.69,27.35,-1.00,-1.0,2353
1121,2136121,16988,-84,976,17016.22,27.26,-1.00,-1.0,2453
1124,2136124,16924,0,1156,16963.43,27.31,-1.00,-1.0,2366
1127,2136127,17072,-116,1108,17108.31,27.26,-1.00,-1.0,2430
1129,2136129,16896,-200,1068,16930.90,27.26,-1.00,-1.0,2372
1132,2136132,17056,-92,1036,17087.68,27.26,-1.00,-1.0,2438
1135,2136135,17144,-52,948,17170.27,27.21,-1.00,-1.0,2365
1138,2136138,17040,-120,1156,17079.59,27.26,-1.00,-1.0,2446
1140,2136140,17052,-24,1144,17090.35,27.26,-1.00,-1.0,2373
1145,2136145,16976,-4,1116,17012.64,27.21,-1.00,-1.0,2444
1148,2136148,17040,-112,1120,17077.13,27.21,-1.00,-1.0,2363
1151,2136151,17020,-100,884,17043.23,27.17,-1.00,-1.0,2365
1153,2136153,16932,-144,1060,16965.76,27.26,-1.00,-1.0,2440
1156,2136156,16972,44,1056,17004.88,27.17,-1.00,-1.0,2373
1159,2136159,17028,-76,1068,17061.63,27.26,-1.00,-1.0,2439
1162,2136162,17116,-144,1012,17146.50,27.45,-1.00,-1.0,2372
1164,2136164,17096,-112,936,17121.97,27.26,-1.00,-1.0,2439
1167,2136167,17088,-44,1140,17126.04,27.21,-1.00,-1.0,2365
1172,2136172,16952,-92,1044,16984.37,27.21,-1.00,-1.0,2445
1175,2136175,17012,-40,864,17033.97,27.35,-1.00,-1.0,2364
1178,2136178,16956,-172,944,16983.13,27.21,-1.00,-1.0,2442
1180,2136180,17072,-16,1116,17108.45,27.26,-1.00,-1.0,2365
1183,2136183,17012,-56,1244,17057.52,27.31,-1.00,-1.0,2438
1186,2136186,17052,16,948,17078.34,27.17,-1.00,-1.0,2365
1188,2136188,17116,-36,1084,17150.33,27.31,-1.00,-1.0,2360
1191,2136191,17028,-156,860,17050.42,27.26,-1.00,-1.0,2446
1194,2136194,16956,-244,1008,16987.69,27.31,-1.00,-1.0,2368
1199,2136199,17080,8,1100,17115.39,27.31,-1.00,-1.0,2446
1202,2136202,17000,-64,1052,17032.64,27.31,-1.00,-1.0,2365
1205,2136205,16980,-152,1188,17022.19,27.31,-1.00,-1.0,2447
1207,2136207,17008,-136,972,17036.29,27.21,-1.00,-1.0,2365
1210,2136210,17080,-60,988,17108.66,27.31,-1.00,-1.0,2439
1213,2136213,17120,36,1144,17158.22,27.31,-1.00,-1.0,2364
1216,2136216,16972,-64,932,16997.69,27.31,-1.00,-1.0,2440
1218,2136218,17152,-56,1084,17186.31,27.21,-1.00,-1.0,2364
1221,2136221,17028,-140,888,17051.71,27.26,-1.00,-1.0,2364
1226,2136226,16936,-40,920,16961.02,27.26,-1.00,-1.0,2445
1229,2136229,16984,4,1168,17024.12,27.21,-1.00,-1.0,2364
1232,2136232,17148,-96,932,17173.58,27.31,-1.00,-1.0,2443
1234,2136234,16920,-136,1156,16959.99,27.21,-1.00,-1.0,2366
1237,2136237,17040,-92,1036,17071.71,27.26,-1.00,-1.0,2439
1240,2136240,17032,-104,1076,17066.27,27.31,-1.00,-1.0,2366
1243,2136243,16972,12,964,16999.36,27.31,-1.00,-1.0,2448
1245,2136245,17028,-100,1108,17064.30,27.21,-1.00,-1.0,2365
1250,2136250,17060,-152,916,17085.25,27.31,-1.00,-1.0,2445
1253,2136253,17004,-44,920,17028.93,27.31,-1.00,-1.0,2364
1256,2136256,17044,-20,836,17064.50,27.21,-1.00,-1.0,2367
1259,2136259,17032,-112,1172,17072.64,27.26,-1.00,-1.0,2437
1261,2136261,17020,-56,976,17048.05,27.31,-1.00,-1.0,2365
1264,2136264,16952,-172,1052,16985.48,27.35,-1.00,-1.0,2436
1267,2136267,17064,-104,1016,17094.54,27.31,-1.00,-1.0,2364
1269,2136269,16968,-176,1128,17006.36,27.26,-1.00,-1.0,2438
1272,2136272,16980,-28,1088,17014.84,27.21,-1.00,-1.0,2372
1277,2136277,17080,-4,1072,17113.61,27.21,-1.00,-1.0,2431
1280,2136280,17068,-64,972,17095.78,27.21,-1.00,-1.0,2364
1283,2136283,17080,-140,1056,17113.19,27.31,-1.00,-1.0,2434
1285,2136285,16956,-68,1232,17000.83,27.21,-1.00,-1.0,2368
1288,2136288,16956,-156,1016,16987.13,27.21,-1.00,-1.0,2437
1291,2136291,16964,-100,1076,16998.38,27.21,-1.00,-1.0,2366
1294,2136294,16976,-88,1188,17017.75,27.31,-1.00,-1.0,2436
1296,2136296,17000,44,1028,17031.11,27.21,-1.00,-1.0,2367
1299,2136299,16988,88,1128,17025.63,27.21,-1.00,-1.0,2363
1304,2136304,17072,-152,1028,17103.60,27.21,-1.00,-1.0,2444
1307,2136307,17060,-188,1056,17093.69,27.31,-1.00,-1.0,2366
1310,2136310,17020,-60,1052,17052.59,27.31,-1.00,-1.0,2436
1312,2136312,17048,36,1008,17077.81,27.31,-1.00,-1.0,2368
1315,2136315,17112,-44,940,17137.86,27.21,-1.00,-1.0,2437
1318,2136318,17044,-188,1000,17074.35,27.21,-1.00,-1.0,2366
1321,2136321,17024,-36,1068,17057.51,27.31,-1.00,-1.0,2430
1323,2136323,17000,32,1044,17032.06,27.21,-1.00,-1.0,2365
1328,2136328,16964,16,1028,16995.13,27.21,-1.00,-1.0,2432
1331,2136331,17008,-76,1060,17041.17,27.21,-1.00,-1.0,2371
1334,2136334,17032,-20,1212,17075.08,27.31,-1.00,-1.0,2360
1336,2136336,17004,-124,1060,17037.46,27.26,-1.00,-1.0,2438
1339,2136339,17024,-48,1008,17053.88,27.35,-1.00,-1.0,2365
1342,2136342,17080,-88,1200,17122.33,27.26,-1.00,-1.0,2436
1345,2136345,17000,-204,1036,17032.76,27.21,-1.00,-1.0,2364
1347,2136347,16988,-108,1064,17021.63,27.17,-1.00,-1.0,2437
1350,2136350,16956,-40,1008,16985.98,27.26,-1.00,-1.0,2365
1355,2136355,16984,20,1044,17016.07,27.17,-1.00,-1.0,2445
1358,2136358,16992,-20,996,17021.18,27.31,-1.00,-1.0,2364
1361,2136361,17004,-16,1020,17034.57,27.26,-1.00,-1.0,2438
1364,2136364,17116,-84,1024,17146.81,27.31,-1.00,-1.0,2367
1366,2136366,17008,-76,1224,17052.16,27.17,-1.00,-1.0,2437
1369,2136369,17068,-52,1036,17099.49,27.31,-1.00,-1.0,2367
1372,2136372,16960,4,1212,17003.25,27.26,-1.00,-1.0,2360
1375,2136375,16976,-120,964,17003.77,27.21,-1.00,-1.0,2438
1377,2136377,17044,-84,1184,17085.28,27.26,-1.00,-1.0,2364
1383,2136383,17068,-112,1068,17101.75,27.31,-1.00,-1.0,2445
1385,2136385,16988,-164,1088,17023.60,27.31,-1.00,-1.0,2371
1388,2136388,16960,-36,1036,16991.65,27.26,-1.00,-1.0,2437
1391,2136391,17032,-52,1028,17063.07,27.21,-1.00,-1.0,2352
1394,2136394,16972,-148,1064,17005.96,27.21,-1.00,-1.0,2449
1396,2136396,17012,40,1096,17047.31,27.31,-1.00,-1.0,2375
1399,2136399,16964,-60,1020,16994.74,27.26,-1.00,-1.0,2437
1402,2136402,16964,-80,976,16992.24,27.31,-1.00,-1.0,2366
1407,2136407,16952,-136,1016,16982.96,27.31,-1.00,-1.0,2451
1409,2136409,17060,-164,1168,17100.72,27.31,-1.00,-1.0,2364
1412,2136412,16988,-96,992,17017.21,27.31,-1.00,-1.0,2367
1415,2136415,17040,-80,1068,17073.62,27.26,-1.00,-1.0,2440
1418,2136418,16984,-116,1088,17019.21,27.31,-1.00,-1.0,2375
1420,2136420,17036,-32,1140,17074.13,27.26,-1.00,-1.0,2438
1423,2136423,16972,-32,1024,17002.89,27.21,-1.00,-1.0,2378
1426,2136426,16996,-156,1116,17033.31,27.26,-1.00,-1.0,2439
1429,2136429,16904,-72,1020,16934.90,27.21,-1.00,-1.0,2372
1434,2136434,17044,-4,1156,17083.16,27.21,-1.00,-1.0,2444
1436,2136436,16996,-80,1148,17034.91,27.31,-1.00,-1.0,2366
1439,2136439,17044,-28,996,17073.10,27.31,-1.00,-1.0,2444
1442,2136442,17024,-112,1272,17071.82,27.31,-1.00,-1.0,2373
1445,2136445,17048,-68,924,17073.16,27.31,-1.00,-1.0,2437
1447,2136447,17024,-180,1120,17061.75,27.21,-1.00,-1.0,2365
1450,2136450,17004,-124,1052,17036.96,27.21,-1.00,-1.0,2363
1453,2136453,16900,-96,1064,16933.73,27.26,-1.00,-1.0,2450
1456,2136456,16988,-120,1112,17024.78,27.31,-1.00,-1.0,2367
1460,2136460,17088,-40,1008,17117.75,27.21,-1.00,-1.0,2445
1463,2136463,16988,32,1148,17026.78,27.21,-1.00,-1.0,2365
1466,2136466,16924,-4,1020,16954.71,27.31,-1.00,-1.0,2437
1469,2136469,16904,-136,1092,16939.78,27.31,-1.00,-1.0,2365
1471,2136471,17108,-112,1044,17140.19,27.21,-1.00,-1.0,2437
1474,2136474,17008,4,1024,17038.80,27.31,-1.00,-1.0,2351
1477,2136477,17064,-52,1092,17098.98,27.40,-1.00,-1.0,2438
1480,2136480,17080,-164,856,17102.22,27.17,-1.00,-1.0,2367
1484,2136484,16956,-124,1124,16993.67,27.21,-1.00,-1.0,2444
1487,2136487,17008,-112,1148,17047.07,27.31,-1.00,-1.0,2364
1490,2136490,17036,-16,1120,17072.78,27.31,-1.00,-1.0,2362
1493,2136493,17012,-68,1028,17043.17,27.21,-1.00,-1.0,2437
1495,2136495,17020,-64,1060,17053.10,27.31,-1.00,-1.0,2368
1498,2136498,17076,-132,1100,17111.90,27.26,-1.00,-1.0,2436
1501,2136501,17064,68,1112,17100.33,27.21,-1.00,-1.0,2372
1504,2136504,17084,-16,1096,17119.13,27.21,-1.00,-1.0,2446
1507,2136507,17032,-12,1164,17071.73,27.17,-1.00,-1.0,2369
1511,2136511,16956,-160,1204,16999.45,27.26,-1.00,-1.0,2447
1514,2136514,16968,-88,1096,17003.59,27.35,-1.00,-1.0,2366
1517,2136517,17048,-44,1088,17082.74,27.21,-1.00,-1.0,2438
1520,2136520,17000,-44,1108,17036.13,27.35,-1.00,-1.0,2363
1522,2136522,17088,-144,1112,17124.75,27.21,-1.00,-1.0,2439
1525,2136525,17068,-224,1052,17101.86,27.26,-1.00,-1.0,2378
1528,2136528,17104,-180,1068,17138.26,27.31,-1.00,-1.0,2360
1531,2136531,16912,-120,1040,16944.37,27.31,-1.00,-1.0,2437
1534,2136534,17044,-52,1184,17085.15,27.26,-1.00,-1.0,2366
1539,2136539,16920,-48,960,16947.28,27.26,-1.00,-1.0,2450
1541,2136541,16996,-52,1068,17029.60,27.26,-1.00,-1.0,2364
1544,2136544,16996,-32,1036,17027.58,27.26,-1.00,-1.0,2432
1547,2136547,17104,-16,1208,17146.61,27.26,-1.00,-1.0,2373
1550,2136550,16932,-44,1096,16967.49,27.26,-1.00,-1.0,2445
1552,2136552,16928,-148,1016,16959.11,27.26,-1.00,-1.0,2366
1555,2136555,17056,-204,988,17085.81,27.26,-1.00,-1.0,2446
1558,2136558,16964,-136,996,16993.76,27.26,-1.00,-1.0,2371
1563,2136563,17060,-28,1040,17091.69,27.35,-1.00,-1.0,2451
1565,2136565,17052,-128,1076,17086.39,27.31,-1.00,-1.0,2365
1568,2136568,17052,-20,896,17075.54,27.17,-1.00,-1.0,2441
1571,2136571,17000,-88,1148,17038.95,27.21,-1.00,-1.0,2366
1574,2136574,16912,-4,1060,16945.19,27.26,-1.00,-1.0,2362
1576,2136576,17020,24,992,17048.90,27.31,-1.00,-1.0,2450
1579,2136579,16980,-44,1216,17023.54,27.26,-1.00,-1.0,2365
1582,2136582,17028,-64,992,17056.99,27.17,-1.00,-1.0,2444
1585,2136585,17052,-84,1140,17090.27,27.21,-1.00,-1.0,2367
1590,2136590,17100,20,1100,17135.36,27.31,-1.00,-1.0,2446
1592,2136592,17012,-24,1040,17043.78,27.21,-1.00,-1.0,2372
1595,2136595,17060,-48,1068,17093.46,27.21,-1.00,-1.0,2438
1598,2136598,17020,-64,936,17045.84,27.21,-1.00,-1.0,2364
1601,2136601,17016,-64,1204,17058.66,27.31,-1.00,-1.0,2446
1603,2136603,17044,-140,1080,17078.76,27.12,-1.00,-1.0,2372
1606,2136606,16928,-28,1072,16961.93,27.31,-1.00,-1.0,2361
1609,2136609,17048,-192,1096,17084.27,27.26,-1.00,-1.0,2442
1612,2136612,17016,-92,1032,17047.51,27.26,-1.00,-1.0,2364
1617,2136617,16924,-112,1068,16958.04,27.21,-1.00,-1.0,2444
1619,2136619,16988,-4,1208,17030.90,27.31,-1.00,-1.0,2352
1622,2136622,16956,-68,1156,16995.50,27.26,-1.00,-1.0,2438
1625,2136625,17000,-112,1056,17033.13,27.31,-1.00,-1.0,2366
1628,2136628,17128,-172,1252,17174.56,27.21,-1.00,-1.0,2433
1630,2136630,16992,-100,1056,17025.08,27.31,-1.00,-1.0,2373
1633,2136633,17028,12,1068,17061.46,27.31,-1.00,-1.0,2438
1636,2136636,17008,-64,1036,17039.64,27.31,-1.00,-1.0,2364
1641,2136641,16984,-116,1084,17018.95,27.31,-1.00,-1.0,2457
1644,2136644,16940,-28,1060,16973.15,27.31,-1.00,-1.0,2370
1646,2136646,17032,-96,1192,17073.93,27.31,-1.00,-1.0,2362
1649,2136649,17088,-96,1132,17125.72,27.17,-1.00,-1.0,2437
1652,2136652,17028,-48,980,17056.24,27.31,-1.00,-1.0,2367
1654,2136654,17052,-88,1092,17087.16,27.31,-1.00,-1.0,2437
1657,2136657,17056,-52,1140,17094.13,27.31,-1.00,-1.0,2368
1660,2136660,16932,-44,1144,16970.66,27.26,-1.00,-1.0,2438
1663,2136663,17036,-60,1060,17069.05,27.35,-1.00,-1.0,2367
1668,2136668,16944,-128,1140,16982.79,27.17,-1.00,-1.0,2453
1670,2136670,16964,-40,1028,16995.17,27.26,-1.00,-1.0,2365
1673,2136673,17028,-68,1144,17066.52,27.35,-1.00,-1.0,2439
1676,2136676,17000,-24,1072,17033.78,27.26,-1.00,-1.0,2366
1679,2136679,17064,-68,920,17088.92,27.26,-1.00,-1.0,2445
1681,2136681,17140,-128,1120,17177.03,27.26,-1.00,-1.0,2365
1684,2136684,17080,-144,896,17104.09,27.21,-1.00,-1.0,2361
1687,2136687,17064,-28,1048,17096.17,27.21,-1.00,-1.0,2444
1690,2136690,16988,12,1124,17025.15,27.31,-1.00,-1.0,2372
1695,2136695,17092,-100,1016,17122.46,27.35,-1.00,-1.0,2460
1697,2136697,17080,-156,1116,17117.13,27.40,-1.00,-1.0,2367
1700,2136700,17028,8,1008,17057.81,27.26,-1.00,-1.0,2438
1703,2136703,16984,-48,1188,17025.57,27.17,-1.00,-1.0,2365
1706,2136706,17016,-152,1228,17060.93,27.26,-1.00,-1.0,2434
1708,2136708,17040,-120,1068,17073.86,27.12,-1.00,-1.0,2368
1711,2136711,17080,-92,1200,17122.35,27.26,-1.00,-1.0,2438
1714,2136714,17008,4,1020,17038.56,27.26,-1.00,-1.0,2365
1719,2136719,17060,-84,1048,17092.37,27.26,-1.00,-1.0,2445
1721,2136721,17000,-112,992,17029.29,27.26,-1.00,-1.0,2366
1724,2136724,17040,-208,1024,17072.01,27.31,-1.00,-1.0,2364
1727,2136727,16972,-140,1144,17011.09,27.21,-1.00,-1.0,2447
1729,2136729,17068,-52,1072,17101.71,27.21,-1.00,-1.0,2364
1732,2136732,16964,-108,1152,17003.41,27.31,-1.00,-1.0,2438
1735,2136735,17116,-260,1248,17163.41,27.31,-1.00,-1.0,2365
1738,2136738,17016,-156,1028,17047.74,27.26,-1.00,-1.0,2439
1741,2136741,17020,-60,1152,17059.05,27.21,-1.00,-1.0,2353
1746,2136746,17080,-112,964,17107.55,27.31,-1.00,-1.0,2453
1748,2136748,17000,-100,1112,17036.62,27.31,-1.00,-1.0,2365
1751,2136751,16996,-76,1120,17033.03,27.31,-1.00,-1.0,2451
1754,2136754,17008,-64,1120,17044.96,27.31,-1.00,-1.0,2364
1757,2136757,16956,-176,1044,16989.02,27.35,-1.00,-1.0,2445
1759,2136759,16940,-84,1000,16969.70,27.21,-1.00,-1.0,2366
1762,2136762,17036,4,1036,17067.47,27.21,-1.00,-1.0,2444
1765,2136765,17084,-72,1044,17116.02,27.21,-1.00,-1.0,2364
1768,2136768,17056,-40,996,17085.10,27.35,-1.00,-1.0,2360
1773,2136773,16956,-76,1172,16996.63,27.26,-1.00,-1.0,2454
1776,2136776,16956,-48,1044,16988.18,27.26,-1.00,-1.0,2370
1778,2136778,17060,-60,1172,17100.31,27.35,-1.00,-1.0,2446
1781,2136781,16976,-128,996,17005.68,27.26,-1.00,-1.0,2372
1784,2136784,16924,-76,1244,16969.83,27.17,-1.00,-1.0,2425
1787,2136787,17056,-104,984,17084.68,27.21,-1.00,-1.0,2365
1789,2136789,16980,-28,1208,17022.94,27.26,-1.00,-1.0,2449
1792,2136792,17000,36,1048,17032.31,27.26,-1.00,-1.0,2364
1797,2136797,16992,-4,1036,17023.55,27.21,-1.00,-1.0,2446
1800,2136800,16984,-16,1088,17018.82,27.21,-1.00,-1.0,2365
1802,2136802,17032,-80,1076,17066.14,27.21,-1.00,-1.0,2361
1805,2136805,16908,-108,1100,16944.09,27.31,-1.00,-1.0,2437
1808,2136808,17060,-28,984,17088.38,27.21,-1.00,-1.0,2365
1811,2136811,17052,-56,1072,17085.76,27.26,-1.00,-1.0,2439
1813,2136813,17020,100,1132,17057.90,27.21,-1.00,-1.0,2364
1816,2136816,16964,-76,1072,16998.01,27.31,-1.00,-1.0,2440
1819,2136819,16932,-48,836,16952.69,27.21,-1.00,-1.0,2365
1824,2136824,16928,-52,1060,16961.23,27.21,-1.00,-1.0,2445
1827,2136827,16984,-84,1028,17015.29,27.26,-1.00,-1.0,2365
1829,2136829,17020,-60,1016,17050.40,27.21,-1.00,-1.0,2437
1832,2136832,16980,-40,1008,17009.94,27.17,-1.00,-1.0,2368
1835,2136835,17024,-136,1016,17054.83,27.21,-1.00,-1.0,2437
1838,2136838,17128,-156,1176,17169.03,27.26,-1.00,-1.0,2362
1840,2136840,17004,-20,1068,17037.52,27.31,-1.00,-1.0,2359
1843,2136843,16984,-12,1188,17025.50,27.17,-1.00,-1.0,2438
1846,2136846,17000,-120,972,17028.19,27.21,-1.00,-1.0,2366
1851,2136851,17012,-84,1280,17060.29,27.31,-1.00,-1.0,2445
1854,2136854,17008,-128,1016,17038.80,27.35,-1.00,-1.0,2362
1856,2136856,16996,-32,968,17023.57,27.31,-1.00,-1.0,2425
1859,2136859,17112,-196,1064,17146.17,27.26,-1.00,-1.0,2379
1862,2136862,16996,-164,1024,17027.61,27.31,-1.00,-1.0,2442
1865,2136865,17016,-16,1024,17046.79,27.26,-1.00,-1.0,2374
1867,2136867,16988,-48,1156,17027.35,27.21,-1.00,-1.0,2440
1870,2136870,17012,-124,1104,17048.24,27.31,-1.00,-1.0,2379
1875,2136875,16940,4,1052,16972.63,27.26,-1.00,-1.0,2444
1878,2136878,16884,-60,968,16911.83,27.26,-1.00,-1.0,2371
1880,2136880,16912,-156,948,16939.27,27.21,-1.00,-1.0,2370
1883,2136883,17016,-20,1044,17048.01,27.21,-1.00,-1.0,2445
1886,2136886,16976,-108,1152,17015.38,27.21,-1.00,-1.0,2368
1889,2136889,17016,-64,1112,17052.42,27.31,-1.00,-1.0,2446
1891,2136891,16988,-176,1136,17026.85,27.31,-1.00,-1.0,2373
1894,2136894,17000,-76,928,17025.48,27.21,-1.00,-1.0,2444
1897,2136897,16976,-64,1076,17010.19,27.35,-1.00,-1.0,2366
1902,2136902,17044,-124,1092,17079.40,27.26,-1.00,-1.0,2451
1904,2136904,17012,-188,1016,17043.35,27.26,-1.00,-1.0,2364
1907,2136907,16964,-44,1008,16993.98,27.21,-1.00,-1.0,2451
1910,2136910,17004,-20,1040,17035.79,27.17,-1.00,-1.0,2365
1913,2136913,16976,48,1100,17011.67,27.21,-1.00,-1.0,2442
1915,2136915,17076,-12,1024,17106.68,27.26,-1.00,-1.0,2365
1918,2136918,16936,-92,1100,16971.93,27.21,-1.00,-1.0,2375
1921,2136921,17024,-52,1064,17057.30,27.21,-1.00,-1.0,2453
1924,2136924,16984,-60,980,17012.36,27.26,-1.00,-1.0,2365
1929,2136929,17104,-44,1020,17134.44,27.21,-1.00,-1.0,2453
1931,2136931,17108,-92,1016,17138.39,27.26,-1.00,-1.0,2367
1934,2136934,17028,-120,920,17053.26,27.12,-1.00,-1.0,2445
1937,2136937,17012,-8,1112,17048.31,27.26,-1.00,-1.0,2365
1940,2136940,17036,-100,1144,17074.66,27.21,-1.00,-1.0,2444
1942,2136942,17032,-72,928,17057.41,27.17,-1.00,-1.0,2364
1945,2136945,16980,-92,1036,17011.82,27.21,-1.00,-1.0,2441
1948,2136948,16984,-56,1028,17015.18,27.31,-1.00,-1.0,2372
1953,2136953,16928,-32,1044,16960.19,27.26,-1.00,-1.0,2444
1956,2136956,17084,-36,1116,17120.45,27.26,-1.00,-1.0,2371
1958,2136958,17052,-124,928,17077.68,27.21,-1.00,-1.0,2361
1961,2136961,17128,-72,1092,17162.93,27.21,-1.00,-1.0,2452
1964,2136964,17048,-64,1084,17082.55,27.31,-1.00,-1.0,2372
1967,2136967,17040,64,1160,17079.56,27.21,-1.00,-1.0,2447
1969,2136969,17060,-148,1164,17100.30,27.21,-1.00,-1.0,2367
1972,2136972,16984,-224,1144,17023.96,27.21,-1.00,-1.0,2446
1975,2136975,17052,-136,1104,17088.24,27.21,-1.00,-1.0,2381
1980,2136980,17032,-96,1068,17065.72,27.21,-1.00,-1.0,2445
1983,2136983,16964,-16,1152,17003.08,27.21,-1.00,-1.0,2367
1986,2136986,17000,-84,1144,17038.66,27.21,-1.00,-1.0,2437
1988,2136988,17016,-192,1040,17048.83,27.31,-1.00,-1.0,2366
1991,2136991,17004,-88,1144,17042.67,27.31,-1.00,-1.0,2437
1994,2136994,16992,-48,1116,17028.68,27.26,-1.00,-1.0,2371
1996,2136996,17068,-8,1156,17107.10,27.21,-1.00,-1.0,2364
1999,2136999,16968,-80,1088,17003.03,27.26,-1.00,-1.0,2437
2002,2137002,17060,-28,1124,17097.01,27.31,-1.00,-1.0,2373
2007,2137007,16948,-188,1052,16981.66,27.21,-1.00,-1.0,2444
2010,2137010,17108,-20,1120,17144.63,27.21,-1.00,-1.0,2360
2013,2137013,17028,-84,1176,17068.77,27.31,-1.00,-1.0,2437
2015,2137015,17060,-20,1020,17090.48,27.31,-1.00,-1.0,2367
2018,2137018,17076,-128,1192,17118.03,27.21,-1.00,-1.0,2436
2021,2137021,17120,-72,1052,17152.44,27.31,-1.00,-1.0,2372
2024,2137024,17020,-172,1056,17053.60,27.31,-1.00,-1.0,2438
2026,2137026,16992,-100,1000,17021.69,27.31,-1.00,-1.0,2366
2031,2137031,17036,-100,948,17062.65,27.26,-1.00,-1.0,2431
2034,2137034,17024,-136,1060,17057.51,27.35,-1.00,-1.0,2367
2036,2137036,17020,-76,1096,17055.42,27.21,-1.00,-1.0,2360
2039,2137039,17028,-140,1076,17062.54,27.31,-1.00,-1.0,2438
2042,2137042,17032,-72,1092,17067.12,27.12,-1.00,-1.0,2365
2045,2137045,17036,-24,1052,17068.47,27.31,-1.00,-1.0,2444
2047,2137047,17048,-124,1020,17078.94,27.21,-1.00,-1.0,2364
2050,2137050,16932,-88,1084,16966.89,27.21,-1.00,-1.0,2439
2053,2137053,17036,-20,1032,17067.24,27.26,-1.00,-1.0,2365
2058,2137058,17044,-28,1000,17073.33,27.26,-1.00,-1.0,2454
2061,2137061,16872,-32,1104,16908.11,27.26,-1.00,-1.0,2351
2064,2137064,16992,-84,980,17020.44,27.26,-1.00,-1.0,2451
2066,2137066,17032,-148,992,17061.51,27.26,-1.00,-1.0,2375
2069,2137069,17032,-112,1104,17068.11,27.17,-1.00,-1.0,2444
2072,2137072,17048,4,928,17073.24,27.26,-1.00,-1.0,2367
2074,2137074,16964,-112,1132,17002.10,27.26,-1.00,-1.0,2347
2077,2137077,16956,-108,1044,16988.45,27.21,-1.00,-1.0,2438
2080,2137080,17060,-72,1156,17099.27,27.21,-1.00,-1.0,2365
2085,2137085,17100,-256,1112,17138.03,27.21,-1.00,-1.0,2453
2088,2137088,16980,-8,1076,17014.06,27.26,-1.00,-1.0,2351
2091,2137091,16992,-72,1148,17030.89,27.21,-1.00,-1.0,2448
2093,2137093,17032,-104,952,17058.90,27.35,-1.00,-1.0,2373
2096,2137096,17052,-68,1072,17085.80,27.31,-1.00,-1.0,2438
2099,2137099,16992,-32,1000,17021.43,27.35,-1.00,-1.0,2366
2102,2137102,17016,-92,1132,17053.86,27.31,-1.00,-1.0,2448
2104,2137104,16972,-80,1068,17005.76,27.26,-1.00,-1.0,2373
2109,2137109,17008,-84,928,17033.51,27.21,-1.00,-1.0,2445
2112,2137112,17008,-52,1048,17040.34,27.31,-1.00,-1.0,2366
2114,2137114,17052,-68,1064,17085.30,27.21,-1.00,-1.0,2360
2117,2137117,17020,72,1092,17055.15,27.26,-1.00,-1.0,2439
2120,2137120,16980,-68,1212,17023.34,27.31,-1.00,-1.0,2366
2123,2137123,17040,-80,1200,17082.39,27.31,-1.00,-1.0,2444
2125,2137125,17064,-100,1096,17099.45,27.31,-1.00,-1.0,2365
2128,2137128,16976,-128,1072,17010.29,27.26,-1.00,-1.0,2438
2131,2137131,16964,-68,1124,17001.33,27.31,-1.00,-1.0,2367
2136,2137136,16960,-24,964,16987.39,27.31,-1.00,-1.0,2444
2139,2137139,17036,4,1064,17069.20,27.21,-1.00,-1.0,2364
2142,2137142,17024,-52,1052,17056.55,27.26,-1.00,-1.0,2437
2144,2137144,16988,-64,1020,17018.71,27.31,-1.00,-1.0,2366
2147,2137147,17088,-200,1088,17123.77,27.21,-1.00,-1.0,2436
2150,2137150,16956,-4,1128,16993.48,27.31,-1.00,-1.0,2365
2152,2137152,16996,-60,1060,17029.13,27.35,-1.00,-1.0,2360
2155,2137155,17060,-40,1120,17096.77,27.26,-1.00,-1.0,2444
2158,2137158,16960,-24,992,16989.00,27.26,-1.00,-1.0,2368
2163,2137163,17132,16,1076,17165.76,27.35,-1.00,-1.0,2447
2166,2137166,17020,-52,1000,17049.43,27.31,-1.00,-1.0,2364
2169,2137169,17108,-136,1168,17148.36,27.26,-1.00,-1.0,2443
2171,2137171,17044,-124,1112,17080.69,27.26,-1.00,-1.0,2367
2174,2137174,16932,-124,980,16960.79,27.26,-1.00,-1.0,2438
2177,2137177,17012,-112,1008,17042.21,27.31,-1.00,-1.0,2366
2180,2137180,17052,-32,1048,17084.21,27.26,-1.00,-1.0,2444
2182,2137182,16984,-52,1068,17017.62,27.26,-1.00,-1.0,2366
2188,2137188,17068,-132,1088,17103.15,27.17,-1.00,-1.0,2464
2190,2137190,17056,-120,1056,17089.08,27.17,-1.00,-1.0,2368
2193,2137193,17092,-124,1068,17125.78,27.21,-1.00,-1.0,2367
2196,2137196,17040,36,980,17068.20,27.31,-1.00,-1.0,2448
2198,2137198,16976,-36,1064,17009.35,27.21,-1.00,-1.0,2374
2201,2137201,16948,-120,1156,16987.80,27.31,-1.00,-1.0,2438
2204,2137204,17008,-184,1044,17041.01,27.21,-1.00,-1.0,2366
2207,2137207,17004,-72,1000,17033.53,27.21,-1.00,-1.0,2448
2209,2137209,16976,-92,1120,17013.15,27.31,-1.00,-1.0,2377
2215,2137215,17016,-76,1048,17048.41,27.26,-1.00,-1.0,2446
2217,2137217,16916,-116,1132,16954.23,27.26,-1.00,-1.0,2366
2220,2137220,17024,-64,1036,17055.61,27.21,-1.00,-1.0,2437
2223,2137223,17052,-40,1100,17087.49,27.26,-1.00,-1.0,2374
2226,2137226,17100,-72,1216,17143.33,27.26,-1.00,-1.0,2438
2228,2137228,17016,-112,944,17042.53,27.26,-1.00,-1.0,2366
2231,2137231,16976,-100,1028,17007.39,27.31,-1.00,-1.0,2368
2234,2137234,16896,-52,1060,16929.30,27.21,-1.00,-1.0,2454
2236,2137236,17072,-16,980,17100.11,27.12,-1.00,-1.0,2375
2241,2137241,16952,-80,1156,16991.56,27.31,-1.00,-1.0,2446
2244,2137244,17044,20,1092,17078.96,27.26,-1.00,-1.0,2366
2247,2137247,17072,-124,1048,17104.59,27.21,-1.00,-1.0,2446
2249,2137249,17016,-88,1040,17047.98,27.17,-1.00,-1.0,2366
2252,2137252,17044,-76,1096,17079.37,27.31,-1.00,-1.0,2439
2255,2137255,17012,-36,1068,17045.53,27.26,-1.00,-1.0,2366
2258,2137258,16992,-180,964,17020.28,27.31,-1.00,-1.0,2446
2260,2137260,16940,-136,1088,16975.45,27.17,-1.00,-1.0,2366
2265,2137265,17008,-104,1104,17044.11,27.26,-1.00,-1.0,2445
2268,2137268,17028,-96,1088,17062.99,27.35,-1.00,-1.0,2365
2271,2137271,17104,-80,1128,17141.34,27.35,-1.00,-1.0,2369
2274,2137274,17060,-28,860,17081.69,27.31,-1.00,-1.0,2438
2276,2137276,17000,12,948,17026.42,27.26,-1.00,-1.0,2354
2279,2137279,17000,-20,1056,17032.78,27.31,-1.00,-1.0,2437
2282,2137282,17108,-128,1028,17139.34,27.35,-1.00,-1.0,2367
2284,2137284,17068,-44,1064,17101.19,27.31,-1.00,-1.0,2439
2287,2137287,16960,-84,968,16987.81,27.26,-1.00,-1.0,2373
2292,2137292,17024,-92,952,17050.85,27.35,-1.00,-1.0,2457
2295,2137295,17036,-84,1052,17068.66,27.21,-1.00,-1.0,2381
2298,2137298,17088,-76,952,17114.67,27.21,-1.00,-1.0,2441
2301,2137301,17068,-76,1084,17102.56,27.31,-1.00,-1.0,2372
2303,2137303,16996,-52,992,17025.00,27.26,-1.00,-1.0,2362
2306,2137306,17024,-92,956,17051.07,27.26,-1.00,-1.0,2437
2309,2137309,17036,-40,1072,17069.74,27.26,-1.00,-1.0,2366
2311,2137311,17016,-68,1200,17058.40,27.31,-1.00,-1.0,2439
2314,2137314,17052,36,1168,17091.99,27.26,-1.00,-1.0,2365
2319,2137319,17152,-100,1104,17187.78,27.21,-1.00,-1.0,2444
2322,2137322,17004,-96,1080,17038.53,27.26,-1.00,-1.0,2366
2325,2137325,17048,-100,1020,17078.78,27.31,-1.00,-1.0,2443
2327,2137327,17032,-96,1144,17070.65,27.26,-1.00,-1.0,2366
2330,2137330,16968,-24,1096,17003.38,27.31,-1.00,-1.0,2425
2333,2137333,17000,-120,1164,17040.23,27.35,-1.00,-1.0,2366
2336,2137336,17044,-148,1084,17079.08,27.26,-1.00,-1.0,2436
2338,2137338,17052,-148,1048,17084.81,27.26,-1.00,-1.0,2367
2343,2137343,16952,-76,1132,16989.92,27.21,-1.00,-1.0,2433
2346,2137346,17020,-148,1056,17053.37,27.26,-1.00,-1.0,2366
2348,2137348,16976,-64,992,17005.08,27.31,-1.00,-1.0,2348
2351,2137351,16912,-28,1136,16950.13,27.21,-1.00,-1.0,2440
2354,2137354,17088,-28,1188,17129.27,27.31,-1.00,-1.0,2366
2357,2137357,17088,-112,1036,17119.74,27.31,-1.00,-1.0,2445
2359,2137359,17004,8,1048,17036.27,27.21,-1.00,-1.0,2365
2363,2137363,17072,-116,964,17099.59,27.21,-1.00,-1.0,2439
2365,2137365,17020,-24,1040,17051.76,27.21,-1.00,-1.0,2366
2370,2137370,17000,12,1068,17033.52,27.21,-1.00,-1.0,2446
2373,2137373,16984,-8,1004,17013.65,27.26,-1.00,-1.0,2366
2376,2137376,16940,-84,1228,16984.66,27.21,-1.00,-1.0,2438
2379,2137379,17016,-36,936,17041.76,27.26,-1.00,-1.0,2367
2381,2137381,16932,-72,1140,16970.49,27.31,-1.00,-1.0,2362
2384,2137384,17112,-56,1036,17143.42,27.31,-1.00,-1.0,2437
2387,2137387,17052,-136,1088,17087.21,27.31,-1.00,-1.0,2368
2390,2137390,17056,-168,904,17080.77,27.26,-1.00,-1.0,2437
2392,2137392,16980,-180,896,17004.58,27.31,-1.00,-1.0,2352
2397,2137397,16992,-188,1080,17027.33,27.21,-1.00,-1.0,2446
2400,2137400,17048,-196,1136,17086.93,27.31,-1.00,-1.0,2366
2403,2137403,17120,-128,948,17146.71,27.21,-1.00,-1.0,2424
2406,2137406,17076,-60,1108,17112.01,27.17,-1.00,-1.0,2368
2408,2137408,17024,-112,1088,17059.10,27.21,-1.00,-1.0,2439
2411,2137411,16964,-48,1040,16995.92,27.17,-1.00,-1.0,2370
2414,2137414,17020,-76,1012,17050.23,27.31,-1.00,-1.0,2438
2417,2137417,16908,-68,1036,16939.85,27.26,-1.00,-1.0,2370
2419,2137419,16944,-24,1180,16985.05,27.26,-1.00,-1.0,2361
2424,2137424,16988,-24,984,17016.49,27.31,-1.00,-1.0,2448
2427,2137427,16976,-176,1056,17009.72,27.31,-1.00,-1.0,2367
2430,2137430,16992,-48,1188,17033.55,27.26,-1.00,-1.0,2436
2433,2137433,16996,-84,1140,17034.40,27.31,-1.00,-1.0,2365
2435,2137435,17012,-88,1148,17050.92,27.17,-1.00,-1.0,2440
2438,2137438,17008,-180,1156,17048.19,27.21,-1.00,-1.0,2367
2441,2137441,17012,-108,1024,17043.13,27.31,-1.00,-1.0,2437
2444,2137444,17072,-84,1168,17112.12,27.21,-1.00,-1.0,2366
2449,2137449,17064,-16,1116,17100.46,27.21,-1.00,-1.0,2448
2451,2137451,17048,-4,992,17076.84,27.21,-1.00,-1.0,2376
2454,2137454,16992,-56,1184,17033.29,27.21,-1.00,-1.0,2445
2457,2137457,17016,-112,1040,17048.12,27.35,-1.00,-1.0,2355
2459,2137459,16988,-60,992,17017.04,27.21,-1.00,-1.0,2363
2462,2137462,16996,-136,1052,17029.07,27.31,-1.00,-1.0,2438
2465,2137465,17088,-180,980,17117.03,27.31,-1.00,-1.0,2368
2468,2137468,17072,-64,1060,17105.00,27.31,-1.00,-1.0,2436
2471,2137471,16856,-48,1104,16892.18,27.26,-1.00,-1.0,2370
2476,2137476,17000,-192,960,17028.17,27.17,-1.00,-1.0,2447
2478,2137478,16992,-76,1108,17028.26,27.26,-1.00,-1.0,2368
2481,2137481,17028,-156,1188,17070.10,27.31,-1.00,-1.0,2444
2484,2137484,17028,-88,1108,17064.24,27.26,-1.00,-1.0,2373
2487,2137487,16992,32,1144,17030.50,27.21,-1.00,-1.0,2439
2489,2137489,17032,4,1104,17067.74,27.26,-1.00,-1.0,2367
2492,2137492,16972,-96,1004,17001.94,27.26,-1.00,-1.0,2436
2495,2137495,17044,48,1024,17074.80,27.26,-1.00,-1.0,2374
2498,2137498,17176,-24,1128,17213.02,27.31,-1.00,-1.0,2363
2503,2137503,17044,-112,1056,17077.05,27.31,-1.00,-1.0,2447
2505,2137505,16972,-160,1108,17008.88,27.26,-1.00,-1.0,2369
2508,2137508,16940,-84,1068,16973.84,27.21,-1.00,-1.0,2450
2511,2137511,16940,-76,1184,16981.50,27.31,-1.00,-1.0,2376
2514,2137514,17044,8,1248,17089.63,27.21,-1.00,-1.0,2453
2516,2137516,17032,-112,972,17060.08,27.31,-1.00,-1.0,2370
2519,2137519,17008,-112,980,17036.58,27.31,-1.00,-1.0,2452
2522,2137522,17024,-88,1116,17060.77,27.21,-1.00,-1.0,2377
2527,2137527,17008,-64,880,17030.87,27.31,-1.00,-1.0,2459
2530,2137530,17036,-100,1104,17072.03,27.31,-1.00,-1.0,2374
2533,2137533,16996,-92,1044,17028.28,27.21,-1.00,-1.0,2440
2536,2137536,17000,-100,1084,17034.82,27.31,-1.00,-1.0,2365
2538,2137538,17016,28,1096,17051.28,27.31,-1.00,-1.0,2363
2541,2137541,17004,-212,1092,17040.35,27.26,-1.00,-1.0,2438
2544,2137544,17000,-124,1060,17033.47,27.31,-1.00,-1.0,2369
2546,2137546,16952,-32,1088,16986.91,27.26,-1.00,-1.0,2440
2549,2137549,17036,-76,1044,17068.13,27.31,-1.00,-1.0,2381
2554,2137554,17020,-176,1088,17055.65,27.26,-1.00,-1.0,2449
2557,2137557,16928,-88,1032,16959.66,27.31,-1.00,-1.0,2367
2559,2137559,17052,-200,1052,17085.59,27.17,-1.00,-1.0,2438
2562,2137562,17028,-100,1104,17064.04,27.26,-1.00,-1.0,2368
2565,2137565,16936,-44,996,16965.32,27.17,-1.00,-1.0,2439
2568,2137568,16984,-60,1152,17023.13,27.21,-1.00,-1.0,2363
2570,2137570,17016,-88,1068,17049.71,27.26,-1.00,-1.0,2440
2573,2137573,17060,-52,1176,17100.56,27.21,-1.00,-1.0,2380
2576,2137576,17092,-76,1032,17123.30,27.26,-1.00,-1.0,2361
2581,2137581,17120,-128,1064,17153.51,27.21,-1.00,-1.0,2447
2583,2137583,17040,-28,1052,17072.46,27.26,-1.00,-1.0,2373
2586,2137586,16956,-36,952,16982.74,27.26,-1.00,-1.0,2438
2589,2137589,16984,-112,944,17010.58,27.26,-1.00,-1.0,2365
2592,2137592,17044,-88,1036,17075.68,27.35,-1.00,-1.0,2448
2594,2137594,17044,-124,1056,17077.13,27.26,-1.00,-1.0,2373
2597,2137597,17088,-52,1124,17125.01,27.35,-1.00,-1.0,2438
2600,2137600,16920,-88,1164,16960.22,27.26,-1.00,-1.0,2368
2605,2137605,17104,8,1192,17145.49,27.26,-1.00,-1.0,2456
2608,2137608,17036,-108,1020,17066.85,27.31,-1.00,-1.0,2375
2610,2137610,16928,-88,1024,16959.17,27.26,-1.00,-1.0,2448
2613,2137613,17032,-60,1128,17069.42,27.26,-1.00,-1.0,2381
2616,2137616,17060,-68,1048,17092.29,27.26,-1.00,-1.0,2361
2618,2137618,16960,-92,1120,16997.19,27.31,-1.00,-1.0,2438
2621,2137621,16980,-4,1072,17013.81,27.26,-1.00,-1.0,2366
2624,2137624,16996,-56,944,17022.29,27.35,-1.00,-1.0,2437
2627,2137627,17016,-144,1000,17045.97,27.21,-1.00,-1.0,2365
2632,2137632,16976,16,1032,17007.35,27.31,-1.00,-1.0,2447
2634,2137634,16964,-180,1016,16995.35,27.26,-1.00,-1.0,2366
2637,2137637,16944,-148,1032,16976.04,27.31,-1.00,-1.0,2439
2640,2137640,17040,-96,1084,17074.71,27.26,-1.00,-1.0,2365
2643,2137643,16968,20,1056,17000.84,27.31,-1.00,-1.0,2446
2645,2137645,17012,88,1088,17046.98,27.26,-1.00,-1.0,2368
2648,2137648,17040,-140,940,17066.48,27.31,-1.00,-1.0,2438
2651,2137651,16980,-48,944,17006.29,27.26,-1.00,-1.0,2366
2654,2137654,17072,-132,1036,17103.91,27.31,-1.00,-1.0,2369
2659,2137659,17012,-104,1156,17051.55,27.31,-1.00,-1.0,2448
2662,2137662,16996,-52,1128,17033.47,27.26,-1.00,-1.0,2367
2664,2137664,16940,-124,1012,16970.65,27.31,-1.00,-1.0,2438
2667,2137667,16992,-136,1080,17026.83,27.35,-1.00,-1.0,2365
2670,2137670,17140,-84,1196,17181.88,27.21,-1.00,-1.0,2437
2673,2137673,16996,-56,1164,17035.90,27.26,-1.00,-1.0,2369
2675,2137675,16908,-128,1092,16943.71,27.31,-1.00,-1.0,2438
2678,2137678,17028,-196,1108,17065.14,27.35,-1.00,-1.0,2368
2683,2137683,17104,-56,1236,17148.69,27.26,-1.00,-1.0,2460
2686,2137686,17012,-124,908,17036.67,27.26,-1.00,-1.0,2372
2689,2137689,16968,-108,1112,17004.74,27.26,-1.00,-1.0,2450
2691,2137691,17048,-92,1096,17083.44,27.26,-1.00,-1.0,2371
2694,2137694,17076,-108,1088,17110.97,27.21,-1.00,-1.0,2363
2697,2137697,17020,-80,1104,17055.96,27.31,-1.00,-1.0,2433
2699,2137699,17184,-40,1016,17214.05,27.26,-1.00,-1.0,2374
2702,2137702,16948,-80,1036,16979.82,27.31,-1.00,-1.0,2438
2705,2137705,17044,-80,1084,17078.62,27.26,-1.00,-1.0,2368
2710,2137710,17040,-56,1092,17075.05,27.26,-1.00,-1.0,2453
2712,2137712,16932,-108,1164,16972.31,27.31,-1.00,-1.0,2366
2715,2137715,16968,-68,1132,17005.85,27.26,-1.00,-1.0,2456
2718,2137718,17016,-16,1036,17047.52,27.26,-1.00,-1.0,2365
2721,2137721,17060,-28,980,17088.15,27.26,-1.00,-1.0,2445
2723,2137723,16984,-52,1128,17021.50,27.21,-1.00,-1.0,2367
2726,2137726,16908,32,1040,16939.98,27.26,-1.00,-1.0,2455
2729,2137729,17052,-76,1052,17084.59,27.17,-1.00,-1.0,2366
2732,2137732,17020,-28,1052,17052.50,27.35,-1.00,-1.0,2364
2737,2137737,17040,-140,1068,17074.01,27.31,-1.00,-1.0,2451
2739,2137739,17020,-16,1100,17055.52,27.31,-1.00,-1.0,2373
2742,2137742,16992,-112,1132,17030.03,27.31,-1.00,-1.0,2445
2745,2137745,17088,-36,1016,17118.21,27.40,-1.00,-1.0,2369
2748,2137748,17012,-100,1076,17046.29,27.21,-1.00,-1.0,2448
2750,2137750,17008,-88,1096,17043.50,27.21,-1.00,-1.0,2374
2753,2137753,17084,-88,1084,17118.58,27.40,-1.00,-1.0,2445
2756,2137756,16948,-112,1128,16985.87,27.31,-1.00,-1.0,2366
2761,2137761,17068,-96,1052,17100.66,27.21,-1.00,-1.0,2449
2763,2137763,16920,-36,1032,16951.48,27.31,-1.00,-1.0,2375
2766,2137766,16964,-116,1008,16994.32,27.31,-1.00,-1.0,2446
2769,2137769,17040,-68,888,17063.26,27.21,-1.00,-1.0,2370
2771,2137771,17044,-100,1084,17078.73,27.31,-1.00,-1.0,2362
2774,2137774,17112,-76,1116,17148.52,27.26,-1.00,-1.0,2438
2777,2137777,17052,-128,1020,17082.96,27.21,-1.00,-1.0,2367
2780,2137780,17020,-36,1088,17054.78,27.35,-1.00,-1.0,2436
2783,2137783,17072,-132,968,17099.93,27.21,-1.00,-1.0,2368
2788,2137788,16988,-72,1016,17018.51,27.31,-1.00,-1.0,2452
2791,2137791,16944,-40,1080,16978.43,27.21,-1.00,-1.0,2370
2793,2137793,17040,-56,1012,17070.12,27.31,-1.00,-1.0,2447
2796,2137796,17020,-44,1104,17055.82,27.31,-1.00,-1.0,2374
2799,2137799,17044,-152,968,17072.14,27.21,-1.00,-1.0,2441
2802,2137802,17028,-60,1056,17060.82,27.21,-1.00,-1.0,2366
2804,2137804,16980,-128,976,17008.51,27.31,-1.00,-1.0,2452
2807,2137807,16912,-28,1092,16947.24,27.21,-1.00,-1.0,2374
2812,2137812,17112,-168,1072,17146.37,27.26,-1.00,-1.0,2446
2815,2137815,17004,-216,1004,17034.98,27.35,-1.00,-1.0,2368
2817,2137817,16964,-100,1088,16999.15,27.31,-1.00,-1.0,2364
2820,2137820,17148,-52,996,17176.98,27.21,-1.00,-1.0,2453
2823,2137823,17032,-16,1148,17070.65,27.21,-1.00,-1.0,2377
2826,2137826,17100,-80,1148,17138.68,27.31,-1.00,-1.0,2453
2828,2137828,17088,-136,1004,17118.01,27.21,-1.00,-1.0,2372
2831,2137831,16932,-108,900,16956.25,27.31,-1.00,-1.0,2452
2834,2137834,17024,-20,1060,17056.98,27.26,-1.00,-1.0,2366
2839,2137839,17112,-116,932,17137.75,27.26,-1.00,-1.0,2447
2842,2137842,17032,-48,1196,17074.01,27.31,-1.00,-1.0,2365
2844,2137844,17056,-56,984,17084.45,27.31,-1.00,-1.0,2440
2847,2137847,16988,-108,1108,17024.44,27.31,-1.00,-1.0,2384
2850,2137850,16988,-72,1024,17018.99,27.17,-1.00,-1.0,2437
2853,2137853,17036,-28,1172,17076.29,27.31,-1.00,-1.0,2370
2855,2137855,17016,-76,920,17041.02,27.26,-1.00,-1.0,2362
2858,2137858,16956,-124,1076,16990.56,27.21,-1.00,-1.0,2437
2861,2137861,16952,-132,972,16980.36,27.26,-1.00,-1.0,2366
2866,2137866,17076,-36,896,17099.53,27.35,-1.00,-1.0,2446
2869,2137869,17048,44,1104,17083.77,27.26,-1.00,-1.0,2366
2871,2137871,16948,-76,1052,16980.79,27.26,-1.00,-1.0,2438
2874,2137874,17108,-16,1028,17138.87,27.26,-1.00,-1.0,2370
2877,2137877,16984,-32,1040,17015.84,27.17,-1.00,-1.0,2436
2880,2137880,17060,28,1084,17094.43,27.35,-1.00,-1.0,2367
2882,2137882,17008,88,1072,17041.98,27.26,-1.00,-1.0,2440
2885,2137885,17116,-148,960,17143.54,27.26,-1.00,-1.0,2375
2888,2137888,17068,-200,896,17092.67,27.21,-1.00,-1.0,2362
2893,2137893,16956,-168,1128,16994.31,27.17,-1.00,-1.0,2445
2896,2137896,16984,12,1060,17017.05,27.26,-1.00,-1.0,2366
2898,2137898,17016,0,984,17044.43,27.21,-1.00,-1.0,2438
2901,2137901,17064,-164,1048,17096.94,27.17,-1.00,-1.0,2367
2904,2137904,16980,-192,944,17007.30,27.26,-1.00,-1.0,2423
2907,2137907,16960,-84,1036,16991.82,27.26,-1.00,-1.0,2369
2909,2137909,17008,-36,956,17034.88,27.26,-1.00,-1.0,2436
2912,2137912,17024,-32,1072,17057.75,27.35,-1.00,-1.0,2370
2917,2137917,17072,-140,980,17100.68,27.35,-1.00,-1.0,2460
2920,2137920,17036,-16,1152,17074.91,27.35,-1.00,-1.0,2375
2923,2137923,17068,-96,1048,17100.41,27.26,-1.00,-1.0,2452
2925,2137925,16956,-64,1132,16993.87,27.21,-1.00,-1.0,2374
2928,2137928,17088,-192,1228,17133.14,27.26,-1.00,-1.0,2363
2931,2137931,16908,-140,1052,16941.27,27.31,-1.00,-1.0,2435
2933,2137933,17008,-16,1208,17050.85,27.17,-1.00,-1.0,2370
2936,2137936,17036,16,1068,17069.45,27.31,-1.00,-1.0,2437
2939,2137939,17080,-24,1056,17112.63,27.21,-1.00,-1.0,2367
2944,2137944,17012,-120,1084,17046.92,27.17,-1.00,-1.0,2449
2947,2137947,17048,-112,1060,17081.29,27.26,-1.00,-1.0,2373
2949,2137949,17032,-92,1044,17064.21,27.26,-1.00,-1.0,2447
2952,2137952,17036,-88,968,17063.71,27.26,-1.00,-1.0,2382
2955,2137955,16992,-24,1192,17033.78,27.26,-1.00,-1.0,2439
2958,2137958,17104,-40,992,17132.79,27.17,-1.00,-1.0,2372
2960,2137960,17016,-84,1060,17049.19,27.26,-1.00,-1.0,2446
2963,2137963,16992,-112,1008,17022.24,27.26,-1.00,-1.0,2373
2966,2137966,16956,20,1116,16992.70,27.26,-1.00,-1.0,2368
2971,2137971,17096,-16,1028,17126.89,27.26,-1.00,-1.0,2454
2974,2137974,17092,-68,964,17119.30,27.26,-1.00,-1.0,2371
2976,2137976,16992,-52,1152,17031.09,27.26,-1.00,-1.0,2448
2979,2137979,16984,-52,1072,17017.88,27.26,-1.00,-1.0,2373
2982,2137982,16948,28,1068,16981.64,27.35,-1.00,-1.0,2439
2985,2137985,17048,-72,1036,17079.60,27.26,-1.00,-1.0,2368
2987,2137987,16988,-64,920,17013.01,27.17,-1.00,-1.0,2449
2990,2137990,16996,-136,988,17025.24,27.26,-1.00,-1.0,2382
2995,2137995,16972,-88,1068,17005.80,27.17,-1.00,-1.0,2462
2998,2137998,17040,-88,1012,17070.25,27.26,-1.00,-1.0,2375
3000,2138000,16932,-84,1132,16970.01,27.31,-1.00,-1.0,2370
3003,2138003,16976,-140,992,17005.54,27.21,-1.00,-1.0,2436
3006,2138006,16988,-32,1060,17021.07,27.40,-1.00,-1.0,2369
3009,2138009,16976,-32,1128,17013.46,27.21,-1.00,-1.0,2436
3011,2138011,17092,-80,1048,17124.29,27.21,-1.00,-1.0,2374
3014,2138014,16924,-12,984,16952.59,27.21,-1.00,-1.0,2436
3017,2138017,17048,-76,1028,17079.13,27.31,-1.00,-1.0,2371
3022,2138022,17036,-100,1144,17074.66,27.31,-1.00,-1.0,2460
3025,2138025,17012,-164,1184,17053.94,27.17,-1.00,-1.0,2375
3028,2138028,17044,-68,996,17073.21,27.21,-1.00,-1.0,2452
3030,2138030,16980,-100,972,17008.09,27.21,-1.00,-1.0,2378
3033,2138033,16960,-84,1072,16994.05,27.21,-1.00,-1.0,2448
3036,2138036,17032,-76,980,17060.34,27.31,-1.00,-1.0,2370
3038,2138038,17084,-84,1112,17120.36,27.21,-1.00,-1.0,2348
3041,2138041,16940,-104,1208,16983.34,27.21,-1.00,-1.0,2437
3044,2138044,17064,-104,1132,17101.82,27.31,-1.00,-1.0,2369
3049,2138049,17084,44,980,17112.14,27.21,-1.00,-1.0,2440
3052,2138052,16924,-84,1016,16954.68,27.21,-1.00,-1.0,2369
3055,2138055,16976,-76,1064,17009.48,27.21,-1.00,-1.0,2451
3057,2138057,17012,-52,1032,17043.35,27.31,-1.00,-1.0,2378
3060,2138060,16984,-28,980,17012.27,27.12,-1.00,-1.0,2447
3063,2138063,16984,-116,1036,17015.96,27.31,-1.00,-1.0,2371
3066,2138066,16956,-28,1060,16989.12,27.31,-1.00,-1.0,2450
3068,2138068,16952,36,1092,16987.17,27.21,-1.00,-1.0,2376
3073,2138073,16932,-68,1072,16966.04,27.26,-1.00,-1.0,2445
3076,2138076,17088,-24,1124,17124.94,27.26,-1.00,-1.0,2367
3079,2138079,17052,-36,1132,17089.57,27.21,-1.00,-1.0,2368
3082,2138082,16964,-164,1172,17005.23,27.21,-1.00,-1.0,2446
3084,2138084,17072,-144,1104,17108.27,27.21,-1.00,-1.0,2370
3087,2138087,17044,-116,1096,17079.60,27.21,-1.00,-1.0,2450
3090,2138090,17044,-16,1012,17074.03,27.31,-1.00,-1.0,2373
3093,2138093,16920,-92,1152,16959.42,27.21,-1.00,-1.0,2448
3095,2138095,17076,-100,1008,17106.02,27.21,-1.00,-1.0,2371
3100,2138100,17132,-40,1008,17161.68,27.26,-1.00,-1.0,2446
3103,2138103,17100,-64,1108,17135.98,27.26,-1.00,-1.0,2367
3106,2138106,16976,-60,1008,17006.01,27.21,-1.00,-1.0,2439
3108,2138108,17128,-60,1036,17159.41,27.26,-1.00,-1.0,2367
3111,2138111,17000,-40,1060,17033.06,27.45,-1.00,-1.0,2439
3114,2138114,16932,-72,1116,16968.89,27.26,-1.00,-1.0,2367
3116,2138116,17068,-12,1060,17100.89,27.31,-1.00,-1.0,2361
3119,2138119,16968,-100,1156,17007.63,27.21,-1.00,-1.0,2456
3122,2138122,17052,-24,1080,17086.18,27.26,-1.00,-1.0,2367
3127,2138127,17024,-72,972,17051.88,27.17,-1.00,-1.0,2445
3130,2138130,17004,-64,1044,17036.14,27.35,-1.00,-1.0,2368
3133,2138133,17020,-128,1076,17054.46,27.17,-1.00,-1.0,2437
3135,2138135,17032,-28,1108,17068.03,27.26,-1.00,-1.0,2369
3138,2138138,17012,-132,1028,17043.54,27.17,-1.00,-1.0,2437
3141,2138141,17052,-108,1068,17085.75,27.35,-1.00,-1.0,2370
3144,2138144,17076,-76,984,17104.50,27.26,-1.00,-1.0,2431
3146,2138146,16968,-108,1128,17005.79,27.26,-1.00,-1.0,2375
3151,2138151,16972,-60,1072,17005.93,27.26,-1.00,-1.0,2444
3154,2138154,17048,-112,1036,17079.82,27.35,-1.00,-1.0,2370
3157,2138157,16976,-188,1092,17012.12,27.26,-1.00,-1.0,2435
3159,2138159,17020,-36,1040,17051.78,27.31,-1.00,-1.0,2424
3162,2138162,17028,-88,1212,17071.30,27.35,-1.00,-1.0,2363
3165,2138165,17000,-40,1052,17032.57,27.31,-1.00,-1.0,2428
3168,2138168,16944,-60,1000,16973.59,27.26,-1.00,-1.0,2372
3170,2138170,16960,-124,1156,16999.80,27.31,-1.00,-1.0,2431
3173,2138173,16972,68,1120,17009.05,27.21,-1.00,-1.0,2376
3178,2138178,17052,-56,1156,17091.23,27.21,-1.00,-1.0,2440
3181,2138181,16940,-72,1180,16981.20,27.31,-1.00,-1.0,2369
3184,2138184,17040,16,1016,17070.27,27.26,-1.00,-1.0,2439
3186,2138186,17012,-148,1076,17046.64,27.21,-1.00,-1.0,2368
3189,2138189,16960,-52,1164,16999.98,27.21,-1.00,-1.0,2440
3192,2138192,16908,-16,1156,16947.48,27.31,-1.00,-1.0,2374
3195,2138195,16932,-112,1000,16961.87,27.21,-1.00,-1.0,2435
3197,2138197,17044,-108,976,17072.26,27.31,-1.00,-1.0,2369
3200,2138200,17012,-152,1076,17046.67,27.21,-1.00,-1.0,2364
3205,2138205,17044,8,1040,17075.70,27.21,-1.00,-1.0,2442
3208,2138208,16972,-48,1044,17004.15,27.31,-1.00,-1.0,2368
3211,2138211,17068,-12,972,17095.66,27.21,-1.00,-1.0,2440
3213,2138213,16932,-60,1068,16965.76,27.31,-1.00,-1.0,2366
3216,2138216,17072,-112,1092,17107.26,27.21,-1.00,-1.0,2435
3219,2138219,17108,-72,1212,17151.03,27.21,-1.00,-1.0,2367
3222,2138222,17044,-12,1092,17078.95,27.31,-1.00,-1.0,2440
3224,2138224,16964,-52,1048,16996.42,27.21,-1.00,-1.0,2366
3229,2138229,16964,-84,872,16986.61,27.35,-1.00,-1.0,2446
3232,2138232,17060,-136,1116,17097.00,27.17,-1.00,-1.0,2370
3235,2138235,17056,-68,1088,17090.80,27.31,-1.00,-1.0,2434
3238,2138238,17020,-64,968,17047.62,27.26,-1.00,-1.0,2372
3240,2138240,17012,-164,1052,17045.29,27.26,-1.00,-1.0,2427
3243,2138243,17016,-144,956,17043.44,27.21,-1.00,-1.0,2423
3246,2138246,16980,-88,972,17008.03,27.35,-1.00,-1.0,2370
3249,2138249,17024,-124,1148,17063.11,27.31,-1.00,-1.0,2432
3251,2138251,17104,84,1064,17137.27,27.26,-1.00,-1.0,2373
3256,2138256,16996,-288,988,17027.13,27.35,-1.00,-1.0,2452
3259,2138259,16948,-104,1024,16979.22,27.26,-1.00,-1.0,2382
3262,2138262,17024,-76,1060,17057.14,27.31,-1.00,-1.0,2433
3265,2138265,16984,-8,876,17006.58,27.26,-1.00,-1.0,2373
3267,2138267,16988,-44,1128,17025.46,27.31,-1.00,-1.0,2442
3270,2138270,16976,-112,948,17002.82,27.26,-1.00,-1.0,2383
3273,2138273,16940,-128,944,16966.77,27.21,-1.00,-1.0,2361
3275,2138275,17024,-84,1012,17054.26,27.21,-1.00,-1.0,2433
3278,2138278,17100,-16,876,17122.43,27.21,-1.00,-1.0,2374
3283,2138283,17032,-88,948,17058.59,27.26,-1.00,-1.0,2450
3286,2138286,17024,-120,972,17052.15,27.17,-1.00,-1.0,2374
3289,2138289,17020,-60,988,17048.76,27.31,-1.00,-1.0,2433
3292,2138292,17100,-92,1044,17132.09,27.35,-1.00,-1.0,2370
3294,2138294,16948,-152,1136,16986.71,27.21,-1.00,-1.0,2442
3297,2138297,17012,-52,972,17039.82,27.26,-1.00,-1.0,2373
3300,2138300,16992,-100,1052,17024.83,27.17,-1.00,-1.0,2425
3302,2138302,17016,-12,1156,17055.23,27.26,-1.00,-1.0,2367
3307,2138307,16992,-16,1112,17028.36,27.17,-1.00,-1.0,2442
3310,2138310,17016,-80,1084,17050.68,27.17,-1.00,-1.0,2366
3313,2138313,17100,-16,912,17124.31,27.35,-1.00,-1.0,2366
3316,2138316,16984,12,1080,17018.31,27.31,-1.00,-1.0,2446
3318,2138318,17048,-28,1128,17085.30,27.26,-1.00,-1.0,2369
3321,2138321,17032,-136,1136,17070.38,27.31,-1.00,-1.0,2447
3324,2138324,17044,-144,1080,17078.79,27.26,-1.00,-1.0,2377
3327,2138327,17052,-80,912,17076.56,27.21,-1.00,-1.0,2443
3329,2138329,16992,-76,1048,17024.46,27.31,-1.00,-1.0,2367
3334,2138334,16976,12,1016,17006.38,27.21,-1.00,-1.0,2443
3337,2138337,17072,-28,868,17094.07,27.31,-1.00,-1.0,2369
3340,2138340,17056,-148,972,17084.31,27.31,-1.00,-1.0,2433
3343,2138343,17020,-108,1148,17059.01,27.31,-1.00,-1.0,2366
3345,2138345,17016,-56,1064,17049.32,27.31,-1.00,-1.0,2435
3348,2138348,17012,8,960,17039.07,27.31,-1.00,-1.0,2381
3351,2138351,16976,-160,1152,17015.79,27.31,-1.00,-1.0,2360
3353,2138353,17060,-136,1052,17092.95,27.26,-1.00,-1.0,2434
3356,2138356,17020,-96,1140,17058.41,27.26,-1.00,-1.0,2367
3362,2138362,16948,0,912,16972.52,27.26,-1.00,-1.0,2454
3365,2138365,17020,-36,1132,17057.64,27.35,-1.00,-1.0,2373
3368,2138368,16924,-80,1032,16955.62,27.21,-1.00,-1.0,2448
3370,2138370,17076,-80,984,17104.52,27.17,-1.00,-1.0,2420
3373,2138373,17036,-108,1052,17068.79,27.31,-1.00,-1.0,2432
3376,2138376,17008,-88,1088,17042.99,27.26,-1.00,-1.0,2374
3379,2138379,16956,0,1124,16993.21,27.21,-1.00,-1.0,2436
3381,2138381,17104,-48,1040,17135.66,27.35,-1.00,-1.0,2373
3384,2138384,16940,-20,1172,16980.51,27.21,-1.00,-1.0,2368
3389,2138389,17008,-68,1068,17041.63,27.31,-1.00,-1.0,2446
3392,2138392,17036,-72,1156,17075.33,27.21,-1.00,-1.0,2373
3394,2138394,17092,-32,892,17115.29,27.26,-1.00,-1.0,2438
3397,2138397,16996,-24,1028,17027.08,27.21,-1.00,-1.0,2375
3400,2138400,17000,-140,1140,17038.76,27.31,-1.00,-1.0,2433
3403,2138403,16960,-136,1048,16992.89,27.31,-1.00,-1.0,2371
3405,2138405,16996,-104,956,17023.18,27.26,-1.00,-1.0,2422
3408,2138408,17008,-44,1096,17043.33,27.31,-1.00,-1.0,2383
3413,2138413,17060,-92,948,17086.57,27.31,-1.00,-1.0,2448
3416,2138416,17020,-88,1040,17051.97,27.21,-1.00,-1.0,2377
3419,2138419,17064,-120,1160,17103.80,27.21,-1.00,-1.0,2449
3421,2138421,16960,-96,1072,16994.12,27.21,-1.00,-1.0,2371
3424,2138424,17072,-144,1064,17105.73,27.21,-1.00,-1.0,2361
3427,2138427,17008,-68,1012,17038.22,27.26,-1.00,-1.0,2441
3429,2138429,17144,-40,1044,17175.80,27.35,-1.00,-1.0,2378
3432,2138432,17016,-112,948,17042.76,27.26,-1.00,-1.0,2433
3435,2138435,17012,-48,1152,17051.03,27.31,-1.00,-1.0,2370
3440,2138440,17056,-52,1124,17093.07,27.31,-1.00,-1.0,2450
3443,2138443,17016,-152,1036,17048.19,27.31,-1.00,-1.0,2367
3445,2138445,17052,-40,1168,17092.00,27.26,-1.00,-1.0,2442
3448,2138448,17020,-76,1072,17053.90,27.31,-1.00,-1.0,2375
3451,2138451,16976,-136,1100,17012.14,27.31,-1.00,-1.0,2435
3454,2138454,17044,-132,1012,17074.53,27.31,-1.00,-1.0,2368
3456,2138456,17048,-52,980,17076.22,27.26,-1.00,-1.0,2445
3459,2138459,16940,-128,1068,16974.12,27.31,-1.00,-1.0,2367
3462,2138462,17088,-168,1012,17118.77,27.26,-1.00,-1.0,2362
3467,2138467,17012,-104,1040,17044.08,27.26,-1.00,-1.0,2447
3469,2138469,17000,-92,1112,17036.58,27.21,-1.00,-1.0,2368
3472,2138472,17028,-64,1072,17061.83,27.26,-1.00,-1.0,2446
3475,2138475,17020,-44,1132,17057.66,27.21,-1.00,-1.0,2376
3478,2138478,17032,-136,1100,17068.03,27.26,-1.00,-1.0,2446
3480,2138480,17068,-200,920,17093.95,27.31,-1.00,-1.0,2369
3483,2138483,17096,-104,1056,17128.90,27.26,-1.00,-1.0,2447
3486,2138486,17028,-148,1108,17064.65,27.31,-1.00,-1.0,2376
3491,2138491,17056,-112,1140,17094.42,27.31,-1.00,-1.0,2450
3493,2138493,17004,-44,1084,17038.57,27.21,-1.00,-1.0,2367
3496,2138496,17036,-112,1060,17069.31,27.35,-1.00,-1.0,2441
3499,2138499,17056,-176,1176,17097.40,27.31,-1.00,-1.0,2367
3502,2138502,17008,-160,1040,17040.52,27.21,-1.00,-1.0,2441
3504,2138504,16980,-116,1104,17016.25,27.31,-1.00,-1.0,2367
3507,2138507,17000,-84,940,17026.18,27.26,-1.00,-1.0,2368
3510,2138510,16956,-64,1040,16987.98,27.26,-1.00,-1.0,2435
3513,2138513,17020,-92,1048,17052.48,27.35,-1.00,-1.0,2368
3518,2138518,16928,-40,992,16957.09,27.31,-1.00,-1.0,2450
3520,2138520,17044,-144,888,17067.72,27.31,-1.00,-1.0,2367
3523,2138523,16992,-108,1000,17021.74,27.26,-1.00,-1.0,2443
3526,2138526,17112,44,1020,17142.43,27.31,-1.00,-1.0,2367
3529,2138529,16920,24,1156,16959.46,27.21,-1.00,-1.0,2439
3531,2138531,17036,-104,1052,17068.77,27.21,-1.00,-1.0,2354
3534,2138534,17052,-64,1128,17089.39,27.26,-1.00,-1.0,2434
3537,2138537,17052,-76,1020,17082.65,27.31,-1.00,-1.0,2366
3542,2138542,16944,-104,960,16971.49,27.31,-1.00,-1.0,2444
3545,2138545,16984,-64,1028,17015.20,27.35,-1.00,-1.0,2370
3547,2138547,16960,-100,1060,16993.39,27.21,-1.00,-1.0,2360
3550,2138550,17020,-64,996,17049.24,27.31,-1.00,-1.0,2433
3553,2138553,16880,-200,1076,16915.44,27.21,-1.00,-1.0,2367
3555,2138555,16996,-184,1088,17031.78,27.31,-1.00,-1.0,2433
3558,2138558,17000,-92,928,17025.56,27.31,-1.00,-1.0,2367
3561,2138561,17060,-68,992,17088.95,27.21,-1.00,-1.0,2433
3564,2138564,17000,-68,1168,17040.21,27.31,-1.00,-1.0,2367
3568,2138568,17020,-104,1128,17057.65,27.31,-1.00,-1.0,2441
3571,2138571,16964,-80,980,16992.47,27.31,-1.00,-1.0,2366
3574,2138574,17088,-108,1140,17126.32,27.31,-1.00,-1.0,2435
3577,2138577,17032,-140,1072,17066.28,27.31,-1.00,-1.0,2367
3579,2138579,17008,-92,992,17037.15,27.31,-1.00,-1.0,2433
3582,2138582,16980,-112,1060,17013.42,27.31,-1.00,-1.0,2367
3585,2138585,16980,-160,1040,17012.57,27.21,-1.00,-1.0,2367
3588,2138588,17056,-100,1064,17089.45,27.31,-1.00,-1.0,2442
3591,2138591,16940,-184,1196,16983.16,27.31,-1.00,-1.0,2368
3595,2138595,17020,-68,1188,17061.55,27.26,-1.00,-1.0,2441
3598,2138598,16924,60,1004,16953.86,27.31,-1.00,-1.0,2366
3601,2138601,16996,16,928,17021.32,27.26,-1.00,-1.0,2433
3604,2138604,17072,-120,1028,17103.34,27.31,-1.00,-1.0,2367
3606,2138606,17040,-148,964,17067.89,27.26,-1.00,-1.0,2432
3609,2138609,17020,-148,980,17048.83,27.31,-1.00,-1.0,2367
3612,2138612,16980,0,1164,17019.85,27.35,-1.00,-1.0,2435
3615,2138615,17012,-40,1040,17043.81,27.21,-1.00,-1.0,2368
3620,2138620,16984,-72,1072,17017.95,27.31,-1.00,-1.0,2440
3622,2138622,16956,-64,1176,16996.85,27.31,-1.00,-1.0,2368
3625,2138625,17044,-76,1128,17081.46,27.17,-1.00,-1.0,2360
3628,2138628,17056,-68,1132,17093.66,27.26,-1.00,-1.0,2436
3630,2138630,16972,12,924,16997.14,27.26,-1.00,-1.0,2369
3633,2138633,17080,-36,1012,17109.99,27.26,-1.00,-1.0,2435
3636,2138636,17020,-24,1028,17051.03,27.35,-1.00,-1.0,2368
3639,2138639,16960,-88,1208,17003.19,27.17,-1.00,-1.0,2442
3642,2138642,17096,-156,920,17121.45,27.26,-1.00,-1.0,2374
3647,2138647,17032,-56,1096,17067.32,27.31,-1.00,-1.0,2441
3649,2138649,17072,-20,1132,17109.50,27.21,-1.00,-1.0,2369
3652,2138652,16932,-36,968,16959.69,27.26,-1.00,-1.0,2418
3655,2138655,16936,-60,1196,16978.28,27.31,-1.00,-1.0,2373
3657,2138657,17024,-100,1092,17059.28,27.26,-1.00,-1.0,2361
3660,2138660,16900,-128,1036,16932.21,27.35,-1.00,-1.0,2435
3663,2138663,17012,-164,1024,17043.58,27.26,-1.00,-1.0,2368
3666,2138666,17008,-80,1076,17042.19,27.31,-1.00,-1.0,2437
3669,2138669,16988,-124,1152,17027.47,27.26,-1.00,-1.0,2374
3674,2138674,17016,-64,1112,17052.42,27.26,-1.00,-1.0,2449
3676,2138676,16932,-76,1044,16964.33,27.17,-1.00,-1.0,2368
3679,2138679,17076,-84,1008,17105.93,27.26,-1.00,-1.0,2432
3682,2138682,17020,-48,1148,17058.74,27.26,-1.00,-1.0,2368
3685,2138685,16960,-128,948,16986.96,27.26,-1.00,-1.0,2440
3687,2138687,17068,-136,1028,17099.47,27.35,-1.00,-1.0,2368
3690,2138690,17060,-136,1020,17091.01,27.26,-1.00,-1.0,2432
3693,2138693,17116,-28,884,17138.84,27.26,-1.00,-1.0,2371
3698,2138698,17068,-76,1092,17103.07,27.31,-1.00,-1.0,2431
3701,2138701,16924,-60,1024,16955.06,27.31,-1.00,-1.0,2378
3703,2138703,16928,-132,952,16955.26,27.26,-1.00,-1.0,2360
3706,2138706,17096,0,924,17120.95,27.35,-1.00,-1.0,2431
3709,2138709,17044,16,1144,17082.36,27.31,-1.00,-1.0,2368
3711,2138711,16968,0,1004,16997.68,27.26,-1.00,-1.0,2434
3714,2138714,17084,-40,1024,17114.71,27.26,-1.00,-1.0,2371
3717,2138717,16972,-216,1072,17007.19,27.26,-1.00,-1.0,2433
3720,2138720,17036,-112,1056,17069.06,27.21,-1.00,-1.0,2374
3725,2138725,17056,-76,1072,17089.82,27.31,-1.00,-1.0,2451
3727,2138727,17024,-176,1036,17056.40,27.31,-1.00,-1.0,2368
3730,2138730,16924,-28,1192,16965.95,27.21,-1.00,-1.0,2442
3733,2138733,16896,-212,1124,16934.67,27.31,-1.00,-1.0,2368
3736,2138736,17144,-32,1160,17183.23,27.31,-1.00,-1.0,2366
3738,2138738,16964,-88,984,16992.74,27.26,-1.00,-1.0,2441
3741,2138741,17016,12,1072,17049.74,27.21,-1.00,-1.0,2376
3744,2138744,17044,-188,1124,17082.06,27.26,-1.00,-1.0,2434
3747,2138747,17004,-128,1108,17040.54,27.40,-1.00,-1.0,2353
3752,2138752,17056,-8,1068,17089.41,27.31,-1.00,-1.0,2450
3754,2138754,17064,-72,1080,17098.29,27.21,-1.00,-1.0,2368
3757,2138757,17084,-128,1132,17121.94,27.26,-1.00,-1.0,2448
3760,2138760,17000,-124,1028,17031.51,27.21,-1.00,-1.0,2367
3763,2138763,17028,-124,1024,17059.21,27.26,-1.00,-1.0,2438
3765,2138765,17056,20,940,17081.89,27.31,-1.00,-1.0,2373
3768,2138768,16924,-104,980,16952.67,27.26,-1.00,-1.0,2452
3771,2138771,17052,-68,1028,17083.09,27.31,-1.00,-1.0,2367
3774,2138774,16964,-124,1044,16996.55,27.26,-1.00,-1.0,2360
3779,2138779,17104,-72,1100,17139.49,27.17,-1.00,-1.0,2436
3781,2138781,17064,4,1040,17095.66,27.26,-1.00,-1.0,2375
3784,2138784,16964,-128,1132,17002.21,27.31,-1.00,-1.0,2433
3787,2138787,17008,-172,932,17034.38,27.26,-1.00,-1.0,2370
3790,2138790,17008,-196,1112,17045.44,27.21,-1.00,-1.0,2432
3792,2138792,17124,-40,1028,17154.88,27.26,-1.00,-1.0,2375
3795,2138795,17032,-32,1068,17065.48,27.21,-1.00,-1.0,2459
3798,2138798,17044,-4,876,17066.50,27.31,-1.00,-1.0,2367
3803,2138803,16896,-116,1040,16928.38,27.35,-1.00,-1.0,2455
3806,2138806,16992,-80,1104,17028.01,27.21,-1.00,-1.0,2421
3809,2138809,17092,0,1152,17130.78,27.21,-1.00,-1.0,2434
3811,2138811,16936,-52,1144,16974.67,27.21,-1.00,-1.0,2372
3814,2138814,16976,-52,992,17005.04,27.26,-1.00,-1.0,2363
3817,2138817,16992,-120,1112,17028.77,27.26,-1.00,-1.0,2445
3819,2138819,16936,-116,1028,16967.57,27.26,-1.00,-1.0,2382
3822,2138822,17024,-28,1220,17067.68,27.17,-1.00,-1.0,2437
3825,2138825,17036,-20,1076,17069.96,27.21,-1.00,-1.0,2358
3830,2138830,17040,-116,1104,17076.12,27.31,-1.00,-1.0,2443
3833,2138833,17072,-52,1084,17106.46,27.35,-1.00,-1.0,2365
3835,2138835,17056,-64,1104,17091.81,27.21,-1.00,-1.0,2436
3838,2138838,16968,-32,1112,17004.43,27.26,-1.00,-1.0,2373
3841,2138841,17064,-56,1084,17098.49,27.31,-1.00,-1.0,2435
3844,2138844,16932,-68,1092,16967.31,27.35,-1.00,-1.0,2373
3846,2138846,16976,-72,1032,17007.49,27.21,-1.00,-1.0,2420
3849,2138849,17008,-76,1064,17041.42,27.26,-1.00,-1.0,2381
3852,2138852,17020,-116,1096,17055.65,27.31,-1.00,-1.0,2360
3857,2138857,17000,-60,1128,17037.49,27.31,-1.00,-1.0,2441
3860,2138860,17120,-160,1148,17159.19,27.26,-1.00,-1.0,2369
3862,2138862,17096,-100,1100,17131.64,27.31,-1.00,-1.0,2437
3865,2138865,17116,-24,1092,17150.82,27.31,-1.00,-1.0,2369
3868,2138868,17056,-16,1028,17086.96,27.31,-1.00,-1.0,2433
3871,2138871,17028,-28,944,17054.17,27.26,-1.00,-1.0,2370
3873,2138873,17092,-44,1044,17123.91,27.31,-1.00,-1.0,2420
3876,2138876,17096,-108,952,17122.83,27.35,-1.00,-1.0,2382
3881,2138881,17008,-92,1148,17046.95,27.26,-1.00,-1.0,2446
3884,2138884,17060,-16,1160,17099.40,27.26,-1.00,-1.0,2378
3887,2138887,17032,52,1072,17065.78,27.21,-1.00,-1.0,2452
3889,2138889,17000,-104,1188,17041.78,27.35,-1.00,-1.0,2371
3892,2138892,16988,-88,960,17015.33,27.21,-1.00,-1.0,2363
3895,2138895,17036,-72,1184,17077.25,27.31,-1.00,-1.0,2429
3897,2138897,16948,-104,1032,16979.71,27.31,-1.00,-1.0,2378
3900,2138900,17000,-16,988,17028.69,27.21,-1.00,-1.0,2434
3903,2138903,17096,-56,1068,17129.42,27.26,-1.00,-1.0,2367
3908,2138908,16984,-36,1072,17017.84,27.26,-1.00,-1.0,2440
3911,2138911,16976,-52,1136,17014.05,27.21,-1.00,-1.0,2368
3913,2138913,17112,-164,1224,17156.50,27.17,-1.00,-1.0,2436
3916,2138916,17020,-136,960,17047.60,27.21,-1.00,-1.0,2366
3919,2138919,16992,-144,1028,17023.68,27.17,-1.00,-1.0,2434
3922,2138922,17048,-68,1028,17079.10,27.21,-1.00,-1.0,2367
3924,2138924,17080,-72,1112,17116.31,27.21,-1.00,-1.0,2433
3927,2138927,17068,-172,1092,17103.76,27.31,-1.00,-1.0,2367
3930,2138930,17048,-104,1044,17080.25,27.26,-1.00,-1.0,2360
3935,2138935,16936,12,1140,16974.33,27.26,-1.00,-1.0,2440
3938,2138938,16980,52,1096,17015.41,27.21,-1.00,-1.0,2368
3941,2138941,16976,-16,1084,17010.58,27.26,-1.00,-1.0,2435
3943,2138943,16928,-40,1092,16963.23,27.21,-1.00,-1.0,2369
3946,2138946,17044,-4,1052,17076.44,27.26,-1.00,-1.0,2434
3949,2138949,17040,-124,1096,17075.66,27.21,-1.00,-1.0,2370
3952,2138952,17052,16,1164,17091.69,27.26,-1.00,-1.0,2433
3954,2138954,16964,-156,1228,17009.10,27.31,-1.00,-1.0,2374
3959,2138959,17120,-48,1072,17153.60,27.31,-1.00,-1.0,2447
3962,2138962,16948,-8,1156,16987.38,27.31,-1.00,-1.0,2376
3965,2138965,17084,-72,1104,17119.79,27.21,-1.00,-1.0,2440
3968,2138968,17000,-148,1092,17035.68,27.31,-1.00,-1.0,2367
3970,2138970,16936,-148,1064,16970.04,27.31,-1.00,-1.0,2353
3973,2138973,16968,-24,1052,17000.60,27.26,-1.00,-1.0,2434
3976,2138976,16988,-200,1068,17022.71,27.21,-1.00,-1.0,2371
3978,2138978,16964,-76,1240,17009.43,27.31,-1.00,-1.0,2436
3981,2138981,17024,-32,1136,17061.89,27.31,-1.00,-1.0,2381
3986,2138986,16976,-48,1112,17012.45,27.35,-1.00,-1.0,2442
3989,2138989,17056,-48,916,17080.65,27.31,-1.00,-1.0,2376
3991,2138991,17152,-56,1108,17187.84,27.31,-1.00,-1.0,2435
3994,2138994,16952,-12,1040,16983.88,27.31,-1.00,-1.0,2373
3997,2138997,17064,28,1208,17106.73,27.26,-1.00,-1.0,2434
4000,2139000,17052,-88,1076,17086.14,27.31,-1.00,-1.0,2373
4002,2139002,16988,-28,964,17015.35,27.31,-1.00,-1.0,2422
4005,2139005,17104,-36,992,17132.78,27.31,-1.00,-1.0,2374
4008,2139008,17048,-32,1160,17087.45,27.31,-1.00,-1.0,2367
4013,2139013,16936,-16,1068,16969.65,27.26,-1.00,-1.0,2443
4016,2139016,16992,-44,1096,17027.37,27.31,-1.00,-1.0,2375
4018,2139018,17052,-48,1076,17085.98,27.31,-1.00,-1.0,2425
4021,2139021,17052,-76,908,17076.33,27.31,-1.00,-1.0,2381
4024,2139024,17004,76,928,17029.47,27.26,-1.00,-1.0,2437
4027,2139027,17008,-28,1000,17037.40,27.31,-1.00,-1.0,2372
4029,2139029,17040,-116,1060,17073.33,27.35,-1.00,-1.0,2442
4032,2139032,17044,-84,992,17073.05,27.35,-1.00,-1.0,2369
4037,2139037,17016,-8,1000,17045.36,27.26,-1.00,-1.0,2453
4040,2139040,16976,-120,1132,17014.12,27.21,-1.00,-1.0,2373
4042,2139042,17020,-52,1000,17049.43,27.35,-1.00,-1.0,2364
4045,2139045,16992,-72,952,17018.80,27.26,-1.00,-1.0,2436
4048,2139048,17072,-20,1148,17110.57,27.26,-1.00,-1.0,2355
4051,2139051,16992,-88,1036,17023.78,27.26,-1.00,-1.0,2442
4053,2139053,17056,20,980,17084.14,27.21,-1.00,-1.0,2374
4056,2139056,17056,-36,872,17078.31,27.31,-1.00,-1.0,2421
4059,2139059,16984,-172,1244,17030.37,27.17,-1.00,-1.0,2368
4064,2139064,17024,-136,1148,17063.21,27.35,-1.00,-1.0,2446
4067,2139067,16984,-68,1032,17015.46,27.35,-1.00,-1.0,2369
4070,2139070,17020,-100,1024,17051.07,27.26,-1.00,-1.0,2449
4072,2139072,17028,-152,1036,17060.16,27.31,-1.00,-1.0,2375
4075,2139075,17024,-116,948,17050.77,27.35,-1.00,-1.0,2441
4078,2139078,17008,-68,1168,17048.19,27.07,-1.00,-1.0,2370
4080,2139080,17068,-24,1076,17101.90,27.35,-1.00,-1.0,2362
4083,2139083,17008,-80,1052,17040.69,27.21,-1.00,-1.0,2434
4086,2139086,16976,8,1012,17006.14,27.31,-1.00,-1.0,2368
4091,2139091,17076,-48,992,17104.86,27.26,-1.00,-1.0,2444
4094,2139094,16988,-76,1152,17027.19,27.26,-1.00,-1.0,2353
4097,2139097,16964,-12,1108,17000.15,27.26,-1.00,-1.0,2449
4099,2139099,17052,-64,1064,17085.28,27.26,-1.00,-1.0,2377
4102,2139102,16928,-28,1016,16958.48,27.26,-1.00,-1.0,2440
4105,2139105,17024,-148,1048,17056.87,27.26,-1.00,-1.0,2369
4108,2139108,17036,-100,1020,17066.80,27.26,-1.00,-1.0,2445
4110,2139110,17024,-96,1064,17057.49,27.26,-1.00,-1.0,2375
4115,2139115,17012,-56,984,17040.53,27.31,-1.00,-1.0,2437
4118,2139118,17148,-100,1140,17186.14,27.31,-1.00,-1.0,2366
4121,2139121,16928,-76,1092,16963.36,27.26,-1.00,-1.0,2369
4123,2139123,16988,-60,1040,17019.91,27.21,-1.00,-1.0,2441
4126,2139126,16972,-52,1044,17004.16,27.26,-1.00,-1.0,2382
4129,2139129,17104,-68,1080,17138.20,27.31,-1.00,-1.0,2436
4132,2139132,17044,-108,1060,17077.27,27.26,-1.00,-1.0,2371
4134,2139134,16988,-144,1040,17020.41,27.31,-1.00,-1.0,2438
4137,2139137,17012,-156,976,17040.69,27.21,-1.00,-1.0,2368
4142,2139142,16972,-84,1016,17002.59,27.21,-1.00,-1.0,2437
4145,2139145,16996,-56,1008,17025.96,27.31,-1.00,-1.0,2366
4148,2139148,17048,-100,1052,17080.72,27.40,-1.00,-1.0,2434
4150,2139150,16996,-12,876,17018.56,27.31,-1.00,-1.0,2370
4153,2139153,16868,-128,1040,16900.52,27.21,-1.00,-1.0,2435
4156,2139156,17048,-144,1136,17086.41,27.31,-1.00,-1.0,2369
4158,2139158,16988,4,1052,17020.54,27.31,-1.00,-1.0,2359
4161,2139161,17068,-40,1148,17106.61,27.26,-1.00,-1.0,2450
4164,2139164,17104,-156,956,17131.41,27.31,-1.00,-1.0,2370
4169,2139169,16984,-84,1140,17022.42,27.21,-1.00,-1.0,2440
4172,2139172,17032,-80,980,17060.36,27.21,-1.00,-1.0,2366
4175,2139175,17008,-84,1048,17040.46,27.17,-1.00,-1.0,2445
4177,2139177,16932,-136,964,16959.96,27.21,-1.00,-1.0,2367
4180,2139180,16976,-48,912,17000.55,27.31,-1.00,-1.0,2434
4183,2139183,17172,-188,1108,17208.74,27.21,-1.00,-1.0,2367
4186,2139186,17060,-56,1060,17092.99,27.26,-1.00,-1.0,2441
4188,2139188,17056,-112,1052,17088.78,27.31,-1.00,-1.0,2369
4194,2139194,17008,-64,1176,17048.73,27.35,-1.00,-1.0,2441
4197,2139197,17044,-8,1168,17083.98,27.21,-1.00,-1.0,2367
4199,2139199,16988,-164,1044,17020.84,27.26,-1.00,-1.0,2360
4202,2139202,17004,-76,1092,17039.20,27.26,-1.00,-1.0,2438
4205,2139205,17008,-92,1132,17045.88,27.35,-1.00,-1.0,2376
4208,2139208,17028,-144,928,17053.88,27.26,-1.00,-1.0,2433
4210,2139210,16932,-48,1104,16968.02,27.31,-1.00,-1.0,2366
4213,2139213,16928,-36,952,16954.79,27.26,-1.00,-1.0,2434
4216,2139216,17072,-68,1140,17110.15,27.26,-1.00,-1.0,2368
4223,2139223,16968,20,1172,17008.44,27.31,-1.00,-1.0,2444
4225,2139225,16988,-176,952,17015.56,27.21,-1.00,-1.0,2374
4228,2139228,17008,-80,1104,17043.98,27.21,-1.00,-1.0,2444
4231,2139231,17192,-48,988,17220.43,27.31,-1.00,-1.0,2376
4234,2139234,17048,-112,1180,17089.16,27.21,-1.00,-1.0,2443
4236,2139236,17012,-76,1112,17048.47,27.31,-1.00,-1.0,2377
4239,2139239,17036,-76,1060,17069.12,27.21,-1.00,-1.0,2360
4242,2139242,17016,-72,1096,17051.41,27.26,-1.00,-1.0,2431
4244,2139244,16996,-160,1000,17026.14,27.31,-1.00,-1.0,2370
4249,2139249,17020,-52,916,17044.71,27.21,-1.00,-1.0,2446
4252,2139252,17028,-8,1068,17061.46,27.21,-1.00,-1.0,2381
4255,2139255,16988,-28,1020,17018.62,27.21,-1.00,-1.0,2439
4258,2139258,16960,-136,1060,16993.64,27.21,-1.00,-1.0,2376
4260,2139260,16988,-168,980,17017.07,27.26,-1.00,-1.0,2435
4263,2139263,17004,-52,1008,17033.93,27.21,-1.00,-1.0,2382
4266,2139266,16988,-52,1096,17023.40,27.26,-1.00,-1.0,2437
4269,2139269,17016,-48,1052,17048.56,27.31,-1.00,-1.0,2371
4274,2139274,16948,40,1040,16979.93,27.21,-1.00,-1.0,2437
4276,2139276,17108,-188,1040,17140.61,27.31,-1.00,-1.0,2367
4279,2139279,16976,-112,1168,17016.50,27.31,-1.00,-1.0,2362
4282,2139282,16944,-116,956,16971.34,27.26,-1.00,-1.0,2449
4284,2139284,17008,-76,976,17036.15,27.21,-1.00,-1.0,2378
4287,2139287,17004,-116,1068,17037.90,27.31,-1.00,-1.0,2442
4290,2139290,17076,-28,1072,17109.64,27.31,-1.00,-1.0,2370
4293,2139293,17020,-204,1060,17054.20,27.26,-1.00,-1.0,2445
4295,2139295,17060,-60,1120,17096.83,27.21,-1.00,-1.0,2377
4300,2139300,17040,-52,1184,17081.16,27.21,-1.00,-1.0,2437
4303,2139303,16996,-140,988,17025.27,27.21,-1.00,-1.0,2367
4306,2139306,16980,-88,1112,17016.60,27.31,-1.00,-1.0,2445
4308,2139308,17052,-116,1052,17084.81,27.31,-1.00,-1.0,2367
4311,2139311,17096,-132,1140,17134.47,27.21,-1.00,-1.0,2449
4314,2139314,16988,-92,1020,17018.84,27.21,-1.00,-1.0,2367
4317,2139317,17060,-144,1208,17103.32,27.21,-1.00,-1.0,2364
4319,2139319,17000,-200,1016,17031.51,27.35,-1.00,-1.0,2437
4322,2139322,17060,-52,1244,17105.38,27.31,-1.00,-1.0,2382
4327,2139327,17008,-48,972,17035.82,27.26,-1.00,-1.0,2471
4330,2139330,17044,-120,1116,17080.92,27.26,-1.00,-1.0,2368
4333,2139333,17144,-92,1136,17181.84,27.31,-1.00,-1.0,2445
4335,2139335,17084,-224,1060,17118.32,27.26,-1.00,-1.0,2366
4338,2139338,17112,-24,984,17140.29,27.21,-1.00,-1.0,2438
4341,2139341,17016,-132,948,17042.90,27.26,-1.00,-1.0,2365
4344,2139344,17008,-8,1144,17046.43,27.40,-1.00,-1.0,2437
4346,2139346,17028,-52,936,17053.79,27.35,-1.00,-1.0,2354
4351,2139351,17060,-20,1120,17096.74,27.17,-1.00,-1.0,2455
4354,2139354,17004,4,1156,17043.25,27.26,-1.00,-1.0,2373
4357,2139357,17000,-76,1112,17036.50,27.26,-1.00,-1.0,2360
4359,2139359,16928,-88,940,16954.31,27.31,-1.00,-1.0,2439
4362,2139362,16888,-104,1044,16920.56,27.35,-1.00,-1.0,2366
4365,2139365,17044,-116,1036,17075.85,27.40,-1.00,-1.0,2438
4368,2139368,17028,-24,1076,17061.98,27.35,-1.00,-1.0,2365
4370,2139370,17044,-44,988,17072.67,27.21,-1.00,-1.0,2438
4373,2139373,17056,-92,988,17084.84,27.26,-1.00,-1.0,2367
4378,2139378,17124,-152,1068,17157.95,27.26,-1.00,-1.0,2447
4381,2139381,16964,-32,1128,17001.49,27.31,-1.00,-1.0,2365
4384,2139384,16960,-40,1072,16993.89,27.26,-1.00,-1.0,2445
4386,2139386,16932,36,1092,16967.21,27.21,-1.00,-1.0,2366
4389,2139389,17032,-104,1088,17067.03,27.26,-1.00,-1.0,2447
4392,2139392,17096,-196,984,17125.42,27.21,-1.00,-1.0,2365
4395,2139395,17092,0,1092,17126.85,27.26,-1.00,-1.0,2368
4397,2139397,16924,-200,956,16952.16,27.26,-1.00,-1.0,2446
4400,2139400,17016,-172,1072,17050.60,27.26,-1.00,-1.0,2382
4405,2139405,17160,-16,1064,17192.96,27.26,-1.00,-1.0,2447
4408,2139408,16968,-40,1104,17003.92,27.26,-1.00,-1.0,2371
4410,2139410,17028,-148,948,17055.01,27.31,-1.00,-1.0,2442
4413,2139413,16996,-172,1056,17029.64,27.26,-1.00,-1.0,2373
4416,2139416,17080,-44,1000,17109.30,27.31,-1.00,-1.0,2438
4419,2139419,17028,-56,1068,17061.55,27.26,-1.00,-1.0,2370
4421,2139421,17088,-96,940,17114.10,27.21,-1.00,-1.0,2428
4424,2139424,16924,-164,1188,16966.44,27.35,-1.00,-1.0,2380
4429,2139429,17092,-96,976,17120.11,27.35,-1.00,-1.0,2436
4432,2139432,17052,-140,952,17079.13,27.26,-1.00,-1.0,2371
4434,2139434,17044,-100,960,17071.31,27.21,-1.00,-1.0,2361
4437,2139437,17112,-16,1164,17151.55,27.21,-1.00,-1.0,2438
4440,2139440,17012,-76,1048,17044.42,27.21,-1.00,-1.0,2367
4442,2139442,17044,-44,976,17071.98,27.21,-1.00,-1.0,2437
4445,2139445,16984,-116,984,17012.88,27.31,-1.00,-1.0,2359
4448,2139448,16956,-128,1072,16990.34,27.21,-1.00,-1.0,2439
4451,2139451,17052,-80,1028,17083.15,27.26,-1.00,-1.0,2369
4456,2139456,17028,-172,1216,17072.23,27.26,-1.00,-1.0,2445
4458,2139458,17112,-100,948,17138.53,27.26,-1.00,-1.0,2367
4461,2139461,16996,-4,1092,17031.04,27.31,-1.00,-1.0,2452
4464,2139464,17052,-68,1152,17091.00,27.26,-1.00,-1.0,2376
4466,2139466,17048,-56,1244,17093.42,27.21,-1.00,-1.0,2370
4469,2139469,16948,-120,1032,16979.81,27.21,-1.00,-1.0,2438
4472,2139472,16976,-116,1060,17009.46,27.21,-1.00,-1.0,2368
4475,2139475,16988,-88,1000,17017.63,27.31,-1.00,-1.0,2449
4477,2139477,16972,-40,1132,17009.76,27.31,-1.00,-1.0,2375
4482,2139482,17040,8,956,17066.80,27.17,-1.00,-1.0,2447
4485,2139485,16984,20,1036,17015.58,27.17,-1.00,-1.0,2366
4488,2139488,17000,-44,1112,17036.39,27.31,-1.00,-1.0,2446
4490,2139490,17052,-104,980,17080.46,27.26,-1.00,-1.0,2365
4493,2139493,17072,-68,1068,17105.51,27.21,-1.00,-1.0,2452
4496,2139496,17044,-68,956,17070.93,27.35,-1.00,-1.0,2366
4499,2139499,17060,-84,1116,17096.67,27.40,-1.00,-1.0,2444
4501,2139501,17108,-88,1032,17139.32,27.26,-1.00,-1.0,2367
4504,2139504,17068,-136,1124,17105.51,27.21,-1.00,-1.0,2376
4509,2139509,17064,-132,1160,17103.89,27.26,-1.00,-1.0,2447
4512,2139512,17008,-168,992,17037.73,27.26,-1.00,-1.0,2369
4515,2139515,16992,-40,1060,17025.08,27.31,-1.00,-1.0,2438
4517,2139517,17012,-128,1088,17047.24,27.26,-1.00,-1.0,2369
4520,2139520,17028,-96,996,17057.38,27.21,-1.00,-1.0,2438
4523,2139523,17048,-136,1120,17085.29,27.12,-1.00,-1.0,2416
4526,2139526,17104,-36,988,17132.55,27.26,-1.00,-1.0,2440
4528,2139528,17056,-96,1104,17091.96,27.17,-1.00,-1.0,2374
4533,2139533,17096,20,1048,17128.10,27.26,-1.00,-1.0,2446
4536,2139536,16892,-32,1140,16930.46,27.31,-1.00,-1.0,2362
4539,2139539,17076,-168,944,17102.90,27.21,-1.00,-1.0,2434
4542,2139542,16960,-212,1044,16993.42,27.21,-1.00,-1.0,2371
4544,2139544,16972,-124,1040,17004.29,27.26,-1.00,-1.0,2361
4547,2139547,17048,-16,1160,17087.43,27.26,-1.00,-1.0,2435
4550,2139550,17032,-148,956,17059.45,27.17,-1.00,-1.0,2369
4552,2139552,17024,-108,1044,17056.32,27.26,-1.00,-1.0,2434
4555,2139555,17024,-156,1060,17057.68,27.17,-1.00,-1.0,2367
4560,2139560,16956,0,1132,16993.74,27.31,-1.00,-1.0,2453
4563,2139563,17076,-204,1152,17116.03,27.31,-1.00,-1.0,2375
4566,2139566,17052,-140,1088,17087.25,27.26,-1.00,-1.0,2444
4568,2139568,17076,-28,1016,17106.22,27.31,-1.00,-1.0,2376
4571,2139571,16960,-140,1024,16991.46,27.26,-1.00,-1.0,2443
4574,2139574,17036,-72,1112,17072.41,27.21,-1.00,-1.0,2371
4577,2139577,17000,-68,1132,17037.78,27.26,-1.00,-1.0,2444
4579,2139579,16956,-136,1188,16998.11,27.31,-1.00,-1.0,2377
4582,2139582,17012,-40,980,17040.25,27.26,-1.00,-1.0,2361
4587,2139587,16956,-76,1020,16986.82,27.21,-1.00,-1.0,2448
4590,2139590,17044,-200,1024,17075.90,27.31,-1.00,-1.0,2378
4592,2139592,17052,-76,1084,17086.59,27.26,-1.00,-1.0,2420
4595,2139595,17028,-68,1016,17058.42,27.31,-1.00,-1.0,2382
4598,2139598,17016,32,1168,17056.07,27.31,-1.00,-1.0,2434
4601,2139601,17004,20,1144,17042.45,27.21,-1.00,-1.0,2376
4603,2139603,17048,-44,1124,17085.07,27.26,-1.00,-1.0,2442
4606,2139606,17084,-148,1064,17117.74,27.21,-1.00,-1.0,2376
4611,2139611,17136,-84,1052,17168.47,27.35,-1.00,-1.0,2447
4614,2139614,17012,-96,1084,17046.77,27.17,-1.00,-1.0,2379
4616,2139616,16940,-48,1064,16973.45,27.35,-1.00,-1.0,2433
4619,2139619,17012,-4,920,17036.86,27.26,-1.00,-1.0,2371
4622,2139622,16996,-16,1024,17026.83,27.26,-1.00,-1.0,2361
4624,2139624,17064,0,832,17084.27,27.21,-1.00,-1.0,2435
4627,2139627,16956,-116,1096,16991.78,27.35,-1.00,-1.0,2370
4630,2139630,17064,-68,1012,17094.12,27.21,-1.00,-1.0,2433
4633,2139633,17032,-124,984,17060.85,27.31,-1.00,-1.0,2374
4638,2139638,16964,-128,972,16992.31,27.31,-1.00,-1.0,2444
4640,2139640,17008,-64,1068,17041.62,27.31,-1.00,-1.0,2369
4643,2139643,16940,-76,1112,16976.63,27.31,-1.00,-1.0,2433
4646,2139646,17048,-128,1104,17084.19,27.31,-1.00,-1.0,2367
4649,2139649,16980,-100,1044,17012.36,27.21,-1.00,-1.0,2435
4651,2139651,17020,-72,1008,17049.97,27.21,-1.00,-1.0,2369
4654,2139654,17012,-4,964,17039.29,27.31,-1.00,-1.0,2433
4657,2139657,17004,-104,1088,17039.09,27.21,-1.00,-1.0,2375
4660,2139660,16984,-100,1192,17026.07,27.31,-1.00,-1.0,2369
4665,2139665,17040,-196,980,17069.28,27.21,-1.00,-1.0,2451
4667,2139667,17032,-212,988,17061.95,27.31,-1.00,-1.0,2370
4670,2139670,17000,-8,1092,17035.04,27.31,-1.00,-1.0,2434
4673,2139673,16940,-44,1032,16971.46,27.31,-1.00,-1.0,2369
4676,2139676,17012,0,1056,17044.74,27.21,-1.00,-1.0,2441
4678,2139678,16952,-116,1024,16983.29,27.21,-1.00,-1.0,2372
4681,2139681,17064,-36,1068,17097.43,27.31,-1.00,-1.0,2434
4684,2139684,17032,-56,1128,17069.40,27.26,-1.00,-1.0,2369
4689,2139689,17040,-88,1060,17073.16,27.26,-1.00,-1.0,2445
4692,2139692,17092,-84,1004,17121.67,27.26,-1.00,-1.0,2379
4694,2139694,17016,-48,1120,17052.89,27.21,-1.00,-1.0,2433
4697,2139697,17032,-120,996,17061.52,27.26,-1.00,-1.0,2376
4700,2139700,17036,-24,1108,17072.01,27.31,-1.00,-1.0,2360
4702,2139702,17096,-32,988,17124.55,27.31,-1.00,-1.0,2435
4705,2139705,17104,-144,1112,17140.71,27.21,-1.00,-1.0,2370
4708,2139708,17080,-140,1076,17114.43,27.31,-1.00,-1.0,2435
4711,2139711,16984,-120,1008,17014.31,27.26,-1.00,-1.0,2376
4716,2139716,17036,-44,1152,17074.96,27.26,-1.00,-1.0,2451
4718,2139718,17048,-128,1040,17080.17,27.35,-1.00,-1.0,2371
4721,2139721,17016,-88,1156,17055.45,27.26,-1.00,-1.0,2448
4724,2139724,17008,-156,972,17036.47,27.26,-1.00,-1.0,2368
4727,2139727,17012,0,1088,17046.76,27.26,-1.00,-1.0,2439
4729,2139729,17036,0,1172,17076.27,27.26,-1.00,-1.0,2370
4732,2139732,17040,-80,1108,17076.17,27.26,-1.00,-1.0,2369
4735,2139735,17016,-52,1028,17047.10,27.21,-1.00,-1.0,2436
4738,2139738,17028,28,960,17055.06,27.26,-1.00,-1.0,2372
4743,2139743,17008,-20,996,17037.15,27.26,-1.00,-1.0,2450
4746,2139746,16900,4,1036,16931.72,27.26,-1.00,-1.0,2369
4748,2139748,16996,-60,988,17024.80,27.21,-1.00,-1.0,2444
4751,2139751,17008,-92,1020,17038.81,27.26,-1.00,-1.0,2368
4754,2139754,17008,-16,964,17035.30,27.21,-1.00,-1.0,2441
4756,2139756,17008,-52,956,17034.93,27.26,-1.00,-1.0,2369
4759,2139759,16844,40,1040,16876.12,27.21,-1.00,-1.0,2449
4762,2139762,17032,-4,1120,17068.79,27.26,-1.00,-1.0,2369
4765,2139765,16992,-128,1028,17023.55,27.21,-1.00,-1.0,2361
4770,2139770,16872,-28,1052,16904.79,27.21,-1.00,-1.0,2453
4773,2139773,17104,-100,1184,17145.22,27.35,-1.00,-1.0,2369
4775,2139775,16996,-136,948,17022.96,27.21,-1.00,-1.0,2444
4778,2139778,17004,-40,1004,17033.66,27.26,-1.00,-1.0,2377
4781,2139781,17072,-56,1108,17108.01,27.21,-1.00,-1.0,2436
4784,2139784,17044,-156,1048,17076.90,27.35,-1.00,-1.0,2369
4786,2139786,17112,-72,1020,17142.52,27.31,-1.00,-1.0,2447
4789,2139789,17000,-144,1100,17036.16,27.35,-1.00,-1.0,2369
4794,2139794,17020,-116,1084,17054.88,27.26,-1.00,-1.0,2444
4797,2139797,17084,-12,1260,17130.41,27.21,-1.00,-1.0,2369
4800,2139800,17048,-44,1184,17089.12,27.26,-1.00,-1.0,2441
4802,2139802,16904,-64,1208,16947.23,27.31,-1.00,-1.0,2372
4805,2139805,17024,-92,1092,17059.23,27.26,-1.00,-1.0,2434
4808,2139808,17028,-60,1120,17064.90,27.31,-1.00,-1.0,2373
4810,2139810,16956,-68,1172,16996.59,27.26,-1.00,-1.0,2362
4813,2139813,17012,-52,1004,17041.68,27.17,-1.00,-1.0,2433
4816,2139816,17032,-16,1148,17070.65,27.26,-1.00,-1.0,2370
4821,2139821,17052,-76,992,17081.00,27.26,-1.00,-1.0,2450
4823,2139823,17032,-88,1072,17065.93,27.26,-1.00,-1.0,2368
4826,2139826,17008,-60,1120,17044.94,27.21,-1.00,-1.0,2434
4829,2139829,16984,-92,1172,17024.64,27.35,-1.00,-1.0,2370
4832,2139832,17004,-132,964,17031.81,27.26,-1.00,-1.0,2440
4834,2139834,17012,-144,1088,17047.36,27.26,-1.00,-1.0,2369
4837,2139837,17020,-60,1112,17056.39,27.26,-1.00,-1.0,2434
4840,2139840,17068,56,1020,17098.54,27.26,-1.00,-1.0,2369
4845,2139845,17052,-68,1116,17088.62,27.26,-1.00,-1.0,2451
4847,2139847,16976,-48,1092,17011.15,27.26,-1.00,-1.0,2368
4850,2139850,16976,-28,1152,17015.07,27.21,-1.00,-1.0,2361
4853,2139853,16956,-148,1076,16990.75,27.31,-1.00,-1.0,2442
4855,2139855,17112,-12,1040,17143.58,27.26,-1.00,-1.0,2369
4858,2139858,17064,-32,1000,17093.31,27.31,-1.00,-1.0,2439
4861,2139861,17008,-132,1012,17038.59,27.26,-1.00,-1.0,2369
4864,2139864,17028,-184,968,17056.48,27.31,-1.00,-1.0,2434
4867,2139867,16984,-28,1080,17018.33,27.26,-1.00,-1.0,2368
4872,2139872,17028,12,928,17053.27,27.26,-1.00,-1.0,2443
4875,2139875,17072,-176,980,17101.01,27.31,-1.00,-1.0,2367
4877,2139877,16928,-136,1088,16963.47,27.26,-1.00,-1.0,2434
4880,2139880,17088,-8,1148,17126.52,27.26,-1.00,-1.0,2373
4883,2139883,17040,-12,1128,17077.30,27.26,-1.00,-1.0,2362
4885,2139885,17096,-40,944,17122.09,27.31,-1.00,-1.0,2432
4888,2139888,17044,-88,1136,17082.04,27.26,-1.00,-1.0,2369
4891,2139891,16904,-100,1164,16944.32,27.21,-1.00,-1.0,2433
4894,2139894,17004,-152,1136,17042.58,27.31,-1.00,-1.0,2367
4899,2139899,17052,-4,1076,17085.92,27.26,-1.00,-1.0,2445
4902,2139902,17052,-204,1044,17085.15,27.35,-1.00,-1.0,2369
4904,2139904,17000,-208,980,17029.49,27.21,-1.00,-1.0,2434
4907,2139907,17088,-164,1076,17122.63,27.26,-1.00,-1.0,2367
4910,2139910,17084,-152,1004,17114.15,27.21,-1.00,-1.0,2435
4913,2139913,16976,-60,1064,17009.42,27.35,-1.00,-1.0,2368
4915,2139915,17004,-20,876,17026.56,27.26,-1.00,-1.0,2434
4918,2139918,16992,-92,1036,17023.80,27.26,-1.00,-1.0,2361
4923,2139923,16992,-60,1080,17026.39,27.26,-1.00,-1.0,2460
4926,2139926,17068,-84,988,17096.78,27.31,-1.00,-1.0,2374
4928,2139928,16932,-24,1100,16967.71,27.26,-1.00,-1.0,2370
4931,2139931,17012,-44,1188,17053.49,27.35,-1.00,-1.0,2435
4934,2139934,16948,-252,1016,16980.30,27.26,-1.00,-1.0,2368
4937,2139937,17124,-124,1064,17157.47,27.17,-1.00,-1.0,2442
4939,2139939,17008,-152,1092,17043.70,27.26,-1.00,-1.0,2375
4942,2139942,17044,-104,1080,17078.50,27.17,-1.00,-1.0,2435
4945,2139945,17044,-56,1052,17076.53,27.35,-1.00,-1.0,2377
4950,2139950,17000,-44,992,17028.97,27.31,-1.00,-1.0,2442
4953,2139953,17076,-132,1052,17108.88,27.31,-1.00,-1.0,2367
4956,2139956,16988,-88,1028,17019.30,27.31,-1.00,-1.0,2436
4958,2139958,17008,0,1080,17042.26,27.21,-1.00,-1.0,2369
4961,2139961,17008,-24,1136,17045.91,27.21,-1.00,-1.0,2435
4964,2139964,17040,-148,1140,17078.73,27.31,-1.00,-1.0,2368
4966,2139966,16992,-32,1092,17027.08,27.31,-1.00,-1.0,2361
4969,2139969,17012,-180,1024,17043.74,27.26,-1.00,-1.0,2444
4972,2139972,17028,-72,1044,17060.13,27.26,-1.00,-1.0,2383
4977,2139977,17052,-80,1020,17082.67,27.17,-1.00,-1.0,2442
4980,2139980,17020,-108,1132,17057.95,27.21,-1.00,-1.0,2375
4983,2139983,17024,-120,1036,17055.92,27.26,-1.00,-1.0,2437
4985,2139985,17060,-168,1024,17091.53,27.31,-1.00,-1.0,2369
4988,2139988,17060,-128,1032,17091.66,27.26,-1.00,-1.0,2434
4991,2139991,16984,-80,1048,17016.49,27.31,-1.00,-1.0,2375
4994,2139994,16980,-92,1052,17012.81,27.21,-1.00,-1.0,2436
4996,2139996,16940,-68,1200,16982.59,27.31,-1.00,-1.0,2368
5001,2140001,16988,-136,972,17016.33,27.31,-1.00,-1.0,2442
5004,2140004,17096,-56,924,17121.04,27.21,-1.00,-1.0,2371
5006,2140006,17152,-76,1124,17188.96,27.31,-1.00,-1.0,2361
5009,2140009,17048,-24,1076,17081.94,27.26,-1.00,-1.0,2437
5012,2140012,17064,-144,1084,17099.00,27.21,-1.00,-1.0,2372
5015,2140015,17048,-112,1068,17081.79,27.35,-1.00,-1.0,2442
5017,2140017,17060,-28,936,17085.68,27.31,-1.00,-1.0,2368
5020,2140020,17032,-24,1204,17074.52,27.26,-1.00,-1.0,2435
5023,2140023,17012,-20,1112,17048.32,27.31,-1.00,-1.0,2371
5029,2140029,17028,-172,972,17056.59,27.26,-1.00,-1.0,2462
5031,2140031,16964,-16,1076,16998.10,27.12,-1.00,-1.0,2368
5034,2140034,17072,-132,1132,17110.00,27.26,-1.00,-1.0,2438
5037,2140037,16940,-28,1020,16970.70,27.35,-1.00,-1.0,2369
5040,2140040,17108,-80,948,17134.43,27.26,-1.00,-1.0,2442
5042,2140042,16996,-12,1148,17034.73,27.31,-1.00,-1.0,2368
5045,2140045,17052,-96,1240,17097.29,27.26,-1.00,-1.0,2369
5048,2140048,17064,-108,1068,17097.73,27.31,-1.00,-1.0,2443
5051,2140051,17076,-44,1036,17107.46,27.35,-1.00,-1.0,2368
5055,2140055,17052,16,1116,17088.49,27.31,-1.00,-1.0,2451
5058,2140058,17072,-40,1144,17110.33,27.26,-1.00,-1.0,2376
5061,2140061,16932,-72,1116,16968.89,27.21,-1.00,-1.0,2439
5064,2140064,16904,-104,1032,16935.79,27.26,-1.00,-1.0,2373
5066,2140066,17140,-128,1056,17172.98,27.31,-1.00,-1.0,2446
5069,2140069,17072,-172,1068,17106.24,27.21,-1.00,-1.0,2375
5072,2140072,16984,-132,1088,17019.32,27.31,-1.00,-1.0,2425
5075,2140075,16984,-100,1016,17014.66,27.35,-1.00,-1.0,2368
5080,2140080,17016,-112,1004,17045.96,27.35,-1.00,-1.0,2443
5082,2140082,16988,-124,1000,17017.86,27.26,-1.00,-1.0,2370
5085,2140085,17108,-28,1000,17137.22,27.26,-1.00,-1.0,2435
5088,2140088,17052,-120,1100,17087.86,27.35,-1.00,-1.0,2369
5090,2140090,16952,-112,1048,16984.73,27.31,-1.00,-1.0,2368
5093,2140093,17032,-152,1076,17066.63,27.21,-1.00,-1.0,2450
5096,2140096,16984,-40,1032,17015.37,27.21,-1.00,-1.0,2376
5099,2140099,16964,-76,1052,16996.76,27.21,-1.00,-1.0,2449
5101,2140101,17048,-184,1064,17082.16,27.21,-1.00,-1.0,2371
5106,2140106,17040,-60,1052,17072.55,27.31,-1.00,-1.0,2448
5109,2140109,17012,-108,1148,17051.03,27.26,-1.00,-1.0,2369
5112,2140112,16920,-88,1140,16958.59,27.31,-1.00,-1.0,2442
5114,2140114,17088,-136,1076,17122.38,27.26,-1.00,-1.0,2368
5117,2140117,16984,-68,1148,17022.89,27.31,-1.00,-1.0,2435
5120,2140120,17096,-8,1052,17128.34,27.35,-1.00,-1.0,2369
5123,2140123,16912,-36,1164,16952.05,27.26,-1.00,-1.0,2441
5125,2140125,16988,-24,936,17013.78,27.26,-1.00,-1.0,2367
5128,2140128,16988,-12,1020,17018.60,27.35,-1.00,-1.0,2361
5133,2140133,17008,-68,1044,17040.15,27.26,-1.00,-1.0,2444
5136,2140136,17124,-96,996,17153.21,27.26,-1.00,-1.0,2369
5139,2140139,17016,-148,1048,17048.88,27.26,-1.00,-1.0,2431
5141,2140141,16992,-124,1052,17024.99,27.31,-1.00,-1.0,2370
5144,2140144,17120,-56,940,17145.88,27.35,-1.00,-1.0,2435
5147,2140147,17008,-92,1056,17041.00,27.26,-1.00,-1.0,2372
5150,2140150,17048,-148,1076,17082.56,27.26,-1.00,-1.0,2427
5152,2140152,17020,-52,1148,17058.75,27.31,-1.00,-1.0,2376
5157,2140157,16956,-124,1032,16987.83,27.31,-1.00,-1.0,2453
5160,2140160,16988,-112,984,17016.84,27.40,-1.00,-1.0,2376
5163,2140163,16988,-64,1200,17030.45,27.35,-1.00,-1.0,2424
5166,2140166,17004,-80,904,17028.20,27.21,-1.00,-1.0,2367
5168,2140168,17076,-120,1068,17109.79,27.35,-1.00,-1.0,2367
5171,2140171,17044,-52,1088,17078.77,27.35,-1.00,-1.0,2438
5174,2140174,17052,-112,1108,17088.33,27.31,-1.00,-1.0,2372
5176,2140176,17016,-160,1052,17049.24,27.35,-1.00,-1.0,2437
5179,2140179,16996,-36,1040,17027.83,27.21,-1.00,-1.0,2369
5184,2140184,17056,-40,1216,17099.34,27.40,-1.00,-1.0,2446
5187,2140187,17052,-76,1024,17082.89,27.31,-1.00,-1.0,2369
5190,2140190,17036,-176,1088,17071.62,27.31,-1.00,-1.0,2436
5192,2140192,16928,-184,1036,16960.67,27.26,-1.00,-1.0,2368
5195,2140195,17052,-80,1068,17085.60,27.31,-1.00,-1.0,2438
5198,2140198,16932,-144,936,16958.46,27.26,-1.00,-1.0,2369
5201,2140201,17072,-124,1012,17102.42,27.31,-1.00,-1.0,2442
5203,2140203,17028,-168,980,17057.00,27.26,-1.00,-1.0,2367
5206,2140206,16960,-88,1040,16992.08,27.21,-1.00,-1.0,2363
5211,2140211,16952,-80,1020,16982.85,27.21,-1.00,-1.0,2445
5214,2140214,16988,-32,1016,17018.38,27.31,-1.00,-1.0,2373
5217,2140217,17088,-100,1156,17127.35,27.21,-1.00,-1.0,2440
5219,2140219,17148,-92,1132,17185.57,27.21,-1.00,-1.0,2368
5222,2140222,17032,-84,1032,17063.44,27.31,-1.00,-1.0,2438
5225,2140225,16980,-192,1032,17012.42,27.21,-1.00,-1.0,2368
5228,2140228,16988,-76,1044,17020.22,27.31,-1.00,-1.0,2436
5230,2140230,17036,-96,1000,17065.59,27.21,-1.00,-1.0,2368
5235,2140235,16996,-120,1144,17034.88,27.31,-1.00,-1.0,2444
5238,2140238,16988,-164,1120,17025.67,27.31,-1.00,-1.0,2369
5241,2140241,17164,-68,1036,17195.37,27.31,-1.00,-1.0,2438
5244,2140244,17156,-40,1032,17187.06,27.31,-1.00,-1.0,2368
5246,2140246,17012,-100,996,17041.43,27.21,-1.00,-1.0,2436
5249,2140249,16940,-236,1060,16974.77,27.17,-1.00,-1.0,2369
5252,2140252,16960,0,1036,16991.61,27.31,-1.00,-1.0,2369
5255,2140255,17128,-104,1076,17162.08,27.31,-1.00,-1.0,2434
5257,2140257,17000,-56,1132,17037.74,27.26,-1.00,-1.0,2377
5262,2140262,17024,-64,1040,17055.86,27.26,-1.00,-1.0,2448
5265,2140265,16976,-56,1164,17015.95,27.35,-1.00,-1.0,2371
5268,2140268,17156,16,968,17183.29,27.31,-1.00,-1.0,2445
5270,2140270,17052,-76,1156,17091.31,27.26,-1.00,-1.0,2377
5273,2140273,17024,-56,940,17050.02,27.31,-1.00,-1.0,2435
5276,2140276,17044,-72,1088,17078.84,27.26,-1.00,-1.0,2362
5279,2140279,16984,-80,1108,17020.29,27.21,-1.00,-1.0,2446
5281,2140281,17064,-60,1024,17094.80,27.21,-1.00,-1.0,2376
5284,2140284,17060,-84,1048,17092.37,27.21,-1.00,-1.0,2369
5289,2140289,17028,-148,1000,17057.98,27.26,-1.00,-1.0,2450
5292,2140292,16988,-188,1128,17026.45,27.35,-1.00,-1.0,2375
5295,2140295,17068,-136,1060,17101.42,27.21,-1.00,-1.0,2425
5298,2140298,17012,-72,1036,17043.67,27.26,-1.00,-1.0,2369
5300,2140300,17020,-28,1040,17051.77,27.35,-1.00,-1.0,2448
5303,2140303,16992,-176,1104,17028.74,27.26,-1.00,-1.0,2368
5306,2140306,17032,-132,1132,17070.09,27.35,-1.00,-1.0,2443
5308,2140308,17020,-60,1176,17060.69,27.17,-1.00,-1.0,2369
5313,2140313,17088,-56,1076,17121.94,27.26,-1.00,-1.0,2442
5316,2140316,16936,-88,1180,16977.29,27.21,-1.00,-1.0,2368
5319,2140319,17032,-108,1024,17063.10,27.26,-1.00,-1.0,2435
5322,2140322,16976,-192,1084,17011.66,27.31,-1.00,-1.0,2369
5324,2140324,16996,-136,1164,17036.36,27.17,-1.00,-1.0,2434
5327,2140327,16992,-32,1008,17021.90,27.31,-1.00,-1.0,2368
5330,2140330,16984,-84,1156,17023.50,27.26,-1.00,-1.0,2368
5333,2140333,16964,12,1152,17003.07,27.26,-1.00,-1.0,2436
5335,2140335,17020,-48,1028,17051.08,27.31,-1.00,-1.0,2369
5340,2140340,16960,-76,856,16981.76,27.31,-1.00,-1.0,2444
5343,2140343,17100,-108,1028,17131.21,27.21,-1.00,-1.0,2375
5346,2140346,16996,-124,1016,17026.79,27.21,-1.00,-1.0,2435
5349,2140349,16964,-136,1140,17002.80,27.40,-1.00,-1.0,2374
5351,2140351,17036,-216,1092,17072.33,27.31,-1.00,-1.0,2437
5354,2140354,17072,-8,1008,17101.73,27.21,-1.00,-1.0,2382
5357,2140357,17040,-132,1076,17074.45,27.40,-1.00,-1.0,2435
5360,2140360,16960,-152,1056,16993.52,27.21,-1.00,-1.0,2376
5365,2140365,17028,28,1092,17063.00,27.26,-1.00,-1.0,2442
5367,2140367,16996,-188,1092,17032.08,27.26,-1.00,-1.0,2371
5370,2140370,16996,-12,1084,17030.54,27.40,-1.00,-1.0,2348
5373,2140373,17072,8,1136,17109.76,27.21,-1.00,-1.0,2450
5375,2140375,17004,24,1092,17039.04,27.31,-1.00,-1.0,2378
5378,2140378,16980,-12,964,17007.35,27.31,-1.00,-1.0,2443
5381,2140381,16936,-56,944,16962.38,27.21,-1.00,-1.0,2376
5384,2140384,17096,-64,1100,17131.47,27.31,-1.00,-1.0,2451
5386,2140386,17092,-136,1060,17125.38,27.35,-1.00,-1.0,2368
5391,2140391,16964,-96,1044,16996.37,27.26,-1.00,-1.0,2442
5394,2140394,16972,-44,928,16997.41,27.21,-1.00,-1.0,2368
5397,2140397,17104,-148,1168,17144.47,27.26,-1.00,-1.0,2438
5400,2140400,17024,-24,1164,17063.76,27.31,-1.00,-1.0,2369
5402,2140402,17020,-80,1100,17055.70,27.17,-1.00,-1.0,2434
5405,2140405,16948,-84,1188,16989.79,27.21,-1.00,-1.0,2368
5408,2140408,16968,-80,1100,17003.81,27.17,-1.00,-1.0,2361
5411,2140411,17052,-116,1068,17085.81,27.31,-1.00,-1.0,2436
5413,2140413,16924,-28,1016,16954.49,27.35,-1.00,-1.0,2370
5418,2140418,16908,-208,1160,16949.02,27.26,-1.00,-1.0,2443
5421,2140421,17028,28,1180,17068.86,27.35,-1.00,-1.0,2368
5424,2140424,16976,-148,988,17005.37,27.26,-1.00,-1.0,2435
5427,2140427,16936,-128,1068,16970.12,27.35,-1.00,-1.0,2369
5429,2140429,17016,-84,1036,17047.71,27.26,-1.00,-1.0,2434
5432,2140432,17132,20,1092,17166.78,27.21,-1.00,-1.0,2368
5435,2140435,17000,-84,848,17021.34,27.17,-1.00,-1.0,2435
5438,2140438,17096,-24,1124,17132.93,27.26,-1.00,-1.0,2369
5442,2140442,17024,-100,1096,17059.54,27.17,-1.00,-1.0,2444
5445,2140445,17000,-112,956,17027.23,27.35,-1.00,-1.0,2368
5448,2140448,17056,-136,1004,17086.07,27.31,-1.00,-1.0,2369
5451,2140451,17096,-36,1088,17130.62,27.21,-1.00,-1.0,2436
5453,2140453,16956,-116,1052,16989.00,27.21,-1.00,-1.0,2371
5456,2140456,17012,-140,1104,17048.36,27.21,-1.00,-1.0,2434
5459,2140459,17012,-132,1068,17046.00,27.26,-1.00,-1.0,2368
5462,2140462,16988,-44,1108,17024.15,27.26,-1.00,-1.0,2448
5465,2140465,16980,28,1120,17016.92,27.31,-1.00,-1.0,2373
5469,2140469,17032,-132,980,17060.68,27.35,-1.00,-1.0,2450
5472,2140472,17044,-60,1208,17086.86,27.31,-1.00,-1.0,2375
5475,2140475,17052,-52,932,17077.53,27.35,-1.00,-1.0,2440
5478,2140478,17168,-16,1060,17200.70,27.31,-1.00,-1.0,2373
5480,2140480,17028,4,1080,17062.21,27.26,-1.00,-1.0,2444
5483,2140483,16964,-36,1060,16997.12,27.31,-1.00,-1.0,2376
5486,2140486,17008,-24,972,17035.77,27.26,-1.00,-1.0,2364
5489,2140489,17072,-192,1164,17112.71,27.26,-1.00,-1.0,2450
5492,2140492,16992,36,1024,17022.87,27.26,-1.00,-1.0,2377
5497,2140497,17064,-116,956,17091.15,27.26,-1.00,-1.0,2445
5499,2140499,17072,-68,1016,17102.34,27.21,-1.00,-1.0,2372
5502,2140502,16980,-68,1016,17010.51,27.26,-1.00,-1.0,2443
5505,2140505,16956,-76,1084,16990.79,27.31,-1.00,-1.0,2376
5508,2140508,17000,-76,868,17022.31,27.35,-1.00,-1.0,2444
5510,2140510,16980,-52,992,17009.03,27.31,-1.00,-1.0,2371
5513,2140513,17000,-88,1116,17036.82,27.35,-1.00,-1.0,2451
5516,2140516,17104,-176,1056,17137.47,27.21,-1.00,-1.0,2377
5519,2140519,17036,-72,1068,17069.60,27.35,-1.00,-1.0,2364
5524,2140524,17084,-48,1020,17114.49,27.26,-1.00,-1.0,2448
5526,2140526,16924,-64,1000,16953.64,27.26,-1.00,-1.0,2371
5529,2140529,17076,-92,968,17103.66,27.35,-1.00,-1.0,2443
5532,2140532,16996,-52,1096,17031.38,27.26,-1.00,-1.0,2375
5535,2140535,17076,56,1080,17110.21,27.26,-1.00,-1.0,2445
5537,2140537,17056,-164,1072,17090.44,27.26,-1.00,-1.0,2373
5540,2140540,17064,-160,1300,17114.20,27.26,-1.00,-1.0,2448
5543,2140543,16988,-120,948,17014.85,27.17,-1.00,-1.0,2374
5548,2140548,17068,-20,1044,17099.91,27.26,-1.00,-1.0,2451
5550,2140550,17124,-8,1232,17168.26,27.21,-1.00,-1.0,2368
5553,2140553,17068,0,1052,17100.39,27.35,-1.00,-1.0,2442
5556,2140556,17056,-88,936,17081.89,27.21,-1.00,-1.0,2368
5559,2140559,17008,-100,1088,17043.06,27.26,-1.00,-1.0,2370
5561,2140561,17044,12,1024,17074.74,27.26,-1.00,-1.0,2444
5564,2140564,17004,32,1032,17035.32,27.26,-1.00,-1.0,2376
5567,2140567,17044,-68,1076,17078.07,27.26,-1.00,-1.0,2424
5570,2140570,16928,4,864,16950.04,27.31,-1.00,-1.0,2367
5575,2140575,17016,-104,980,17044.51,27.31,-1.00,-1.0,2446
5577,2140577,17060,-88,1104,17095.91,27.35,-1.00,-1.0,2376
5580,2140580,16988,-48,1024,17018.90,27.31,-1.00,-1.0,2436
5583,2140583,16968,-64,968,16995.71,27.35,-1.00,-1.0,2368
5586,2140586,16984,-144,1108,17020.71,27.31,-1.00,-1.0,2445
5588,2140588,16996,-84,1096,17031.51,27.31,-1.00,-1.0,2379
5591,2140591,17052,16,1080,17086.17,27.40,-1.00,-1.0,2361
5594,2140594,17132,16,1096,17167.03,27.26,-1.00,-1.0,2440
5597,2140597,17016,-56,1028,17047.12,27.31,-1.00,-1.0,2368
5602,2140602,16980,-224,1100,17017.07,27.31,-1.00,-1.0,2444
5604,2140604,17100,-108,1064,17133.41,27.31,-1.00,-1.0,2372
5607,2140607,17020,-88,1036,17051.73,27.31,-1.00,-1.0,2435
5610,2140610,16956,-80,1120,16993.14,27.31,-1.00,-1.0,2369
5613,2140613,17040,8,936,17065.69,27.31,-1.00,-1.0,2436
5615,2140615,16912,-108,1040,16944.29,27.31,-1.00,-1.0,2376
5618,2140618,17104,-192,1092,17139.90,27.31,-1.00,-1.0,2436
5621,2140621,16984,-16,1088,17018.82,27.21,-1.00,-1.0,2368
5626,2140626,17004,-104,1216,17047.74,27.21,-1.00,-1.0,2448
5629,2140629,17004,-60,1040,17035.88,27.26,-1.00,-1.0,2371
5631,2140631,17108,-80,908,17132.27,27.21,-1.00,-1.0,2363
5634,2140634,16980,-8,1116,17016.64,27.31,-1.00,-1.0,2434
5637,2140637,16952,-116,1192,16994.25,27.31,-1.00,-1.0,2370
5639,2140639,17180,-24,936,17205.50,27.31,-1.00,-1.0,2436
5642,2140642,16980,0,1084,17014.57,27.21,-1.00,-1.0,2377
5645,2140645,17056,-104,984,17084.68,27.31,-1.00,-1.0,2436
5648,2140648,17084,-72,964,17111.33,27.26,-1.00,-1.0,2375
5653,2140653,17000,-56,1124,17037.21,27.26,-1.00,-1.0,2452
5655,2140655,17068,-88,1112,17104.41,27.26,-1.00,-1.0,2369
5658,2140658,17044,-36,1044,17075.98,27.26,-1.00,-1.0,2438
5661,2140661,17052,-128,1020,17082.96,27.21,-1.00,-1.0,2368
5664,2140664,16964,-108,980,16992.63,27.26,-1.00,-1.0,2439
5666,2140666,16968,-116,1044,17000.48,27.35,-1.00,-1.0,2368
5669,2140669,16976,-60,1000,17005.53,27.17,-1.00,-1.0,2362
5672,2140672,17108,-60,1044,17139.93,27.31,-1.00,-1.0,2443
5675,2140675,16984,-160,1040,17016.56,27.26,-1.00,-1.0,2370
5680,2140680,17120,-124,1160,17159.70,27.31,-1.00,-1.0,2444
5682,2140682,16960,-56,1012,16990.26,27.26,-1.00,-1.0,2369
5685,2140685,16948,-56,1108,16984.27,27.31,-1.00,-1.0,2450
5688,2140688,17032,-68,1164,17071.86,27.26,-1.00,-1.0,2371
5691,2140691,17056,-116,1092,17091.31,27.21,-1.00,-1.0,2436
5693,2140693,16984,-172,1000,17014.28,27.35,-1.00,-1.0,2369
5696,2140696,17072,-92,1036,17103.65,27.21,-1.00,-1.0,2434
5699,2140699,16932,-76,1200,16974.64,27.31,-1.00,-1.0,2375
5704,2140704,16908,-84,1056,16941.15,27.21,-1.00,-1.0,2451
5706,2140706,16988,-52,968,17015.64,27.35,-1.00,-1.0,2368
5709,2140709,17092,12,1120,17128.66,27.21,-1.00,-1.0,2368
5712,2140712,17024,0,1180,17064.85,27.21,-1.00,-1.0,2436
5714,2140714,17060,0,1112,17096.20,27.40,-1.00,-1.0,2368
5717,2140717,16988,-56,1012,17018.21,27.31,-1.00,-1.0,2451
5720,2140720,17048,-44,1184,17089.12,27.21,-1.00,-1.0,2368
5723,2140723,17036,-152,984,17065.07,27.31,-1.00,-1.0,2439
5726,2140726,16972,-176,992,17001.88,27.21,-1.00,-1.0,2376
5731,2140731,17012,-180,1140,17051.10,27.31,-1.00,-1.0,2452
5733,2140733,17072,-20,1064,17105.14,27.21,-1.00,-1.0,2369
5736,2140736,17088,-40,1056,17120.64,27.31,-1.00,-1.0,2443
5739,2140739,17028,-152,996,17057.78,27.31,-1.00,-1.0,2367
5742,2140742,17004,-148,1048,17036.91,27.31,-1.00,-1.0,2364
5744,2140744,16964,-152,1096,17000.05,27.26,-1.00,-1.0,2444
5747,2140747,17004,-68,1020,17034.70,27.31,-1.00,-1.0,2376
5750,2140750,17008,12,1072,17041.75,27.26,-1.00,-1.0,2434
5753,2140753,17088,-84,1164,17127.80,27.31,-1.00,-1.0,2371
5758,2140758,16988,-136,1168,17028.65,27.40,-1.00,-1.0,2451
5760,2140760,17036,-164,1192,17078.44,27.31,-1.00,-1.0,2368
5763,2140763,17040,-132,1164,17080.22,27.17,-1.00,-1.0,2447
5766,2140766,16984,-72,1008,17014.04,27.31,-1.00,-1.0,2367
5769,2140769,17052,-72,1128,17089.42,27.21,-1.00,-1.0,2441
5771,2140771,17036,-160,1088,17071.46,27.31,-1.00,-1.0,2369
5774,2140774,17092,36,1020,17122.45,27.17,-1.00,-1.0,2450
5777,2140777,16948,-44,1160,16987.71,27.31,-1.00,-1.0,2368
5782,2140782,16884,-36,1020,16914.82,27.21,-1.00,-1.0,2444
5785,2140785,16964,-16,1016,16994.40,27.26,-1.00,-1.0,2369
5787,2140787,17012,-28,1124,17049.12,27.21,-1.00,-1.0,2362
5790,2140790,17000,-52,1068,17033.59,27.40,-1.00,-1.0,2435
5793,2140793,17040,-36,1148,17078.67,27.31,-1.00,-1.0,2375
5796,2140796,16928,16,1120,16965.02,27.21,-1.00,-1.0,2433
5798,2140798,16964,-4,1036,16995.61,27.21,-1.00,-1.0,2368
5801,2140801,17016,-20,944,17042.18,27.21,-1.00,-1.0,2435
5804,2140804,17048,-88,1024,17078.95,27.26,-1.00,-1.0,2371
5809,2140809,17008,-88,968,17035.75,27.35,-1.00,-1.0,2445
5812,2140812,16948,-168,1172,16989.31,27.26,-1.00,-1.0,2376
5814,2140814,16992,-80,1044,17024.23,27.26,-1.00,-1.0,2437
5817,2140817,17080,-52,1084,17114.44,27.26,-1.00,-1.0,2384
5820,2140820,17080,-160,1088,17115.37,27.31,-1.00,-1.0,2362
5822,2140822,17004,-16,1096,17039.29,27.21,-1.00,-1.0,2434
5825,2140825,16888,-28,1100,16923.81,27.26,-1.00,-1.0,2369
5828,2140828,17008,-124,1060,17041.45,27.31,-1.00,-1.0,2434
5831,2140831,17056,-60,1096,17091.28,27.21,-1.00,-1.0,2354
5836,2140836,17036,-124,1020,17066.96,27.26,-1.00,-1.0,2449
5839,2140839,16992,-56,996,17021.26,27.26,-1.00,-1.0,2379
5841,2140841,17072,-56,1052,17104.47,27.26,-1.00,-1.0,2422
5844,2140844,16996,24,1024,17026.84,27.26,-1.00,-1.0,2383
5847,2140847,16948,-52,1068,16981.70,27.26,-1.00,-1.0,2436
5850,2140850,16948,-96,968,16975.89,27.26,-1.00,-1.0,2375
5852,2140852,16964,-92,1240,17009.51,27.26,-1.00,-1.0,2442
5855,2140855,17036,0,1040,17067.71,27.35,-1.00,-1.0,2376
5858,2140858,16984,-40,1076,17018.10,27.31,-1.00,-1.0,2362
5865,2140865,17096,-188,1060,17129.86,27.40,-1.00,-1.0,2452
5867,2140867,16924,-56,1044,16956.26,27.21,-1.00,-1.0,2370
5870,2140870,17060,-88,1100,17095.65,27.31,-1.00,-1.0,2434
5873,2140873,16900,-68,1076,16934.36,27.31,-1.00,-1.0,2369
5876,2140876,16916,-64,1112,16952.63,27.31,-1.00,-1.0,2442
5878,2140878,17000,-60,1088,17034.89,27.21,-1.00,-1.0,2372
5881,2140881,17008,-176,1096,17044.19,27.31,-1.00,-1.0,2421
5884,2140884,16984,-76,1056,17016.97,27.31,-1.00,-1.0,2371
5889,2140889,17068,-88,1164,17107.87,27.21,-1.00,-1.0,2444
5891,2140891,17096,-68,1068,17129.46,27.21,-1.00,-1.0,2370
5894,2140894,17020,-132,912,17044.93,27.31,-1.00,-1.0,2434
5897,2140897,17140,-120,1016,17170.51,27.21,-1.00,-1.0,2369
5899,2140899,16996,-168,912,17021.28,27.31,-1.00,-1.0,2361
5902,2140902,16984,-92,1008,17014.13,27.26,-1.00,-1.0,2437
5905,2140905,17020,-160,1036,17052.25,27.21,-1.00,-1.0,2373
5908,2140908,17028,-164,1012,17058.83,27.21,-1.00,-1.0,2440
5910,2140910,17032,-72,1060,17065.11,27.21,-1.00,-1.0,2369
5915,2140915,16976,-148,996,17005.84,27.21,-1.00,-1.0,2446
5918,2140918,17092,-72,956,17118.87,27.31,-1.00,-1.0,2358
5921,2140921,17148,8,996,17176.90,27.21,-1.00,-1.0,2435
5924,2140924,17068,-136,1144,17106.84,27.31,-1.00,-1.0,2377
5926,2140926,17100,-200,956,17127.87,27.31,-1.00,-1.0,2437
5929,2140929,17000,-128,1328,17052.27,27.31,-1.00,-1.0,2385
5932,2140932,16984,-76,1088,17018.98,27.31,-1.00,-1.0,2437
5935,2140935,16960,-112,928,16985.74,27.21,-1.00,-1.0,2374
5937,2140937,17084,-32,1096,17119.15,27.31,-1.00,-1.0,2361
5942,2140942,17048,-148,904,17072.59,27.21,-1.00,-1.0,2451
5945,2140945,17028,-68,1156,17067.33,27.31,-1.00,-1.0,2372
5948,2140948,17020,-192,916,17045.71,27.31,-1.00,-1.0,2442
5950,2140950,17000,-72,1016,17030.49,27.31,-1.00,-1.0,2379
5953,2140953,16992,-92,1188,17033.73,27.31,-1.00,-1.0,2433
5956,2140956,17040,-104,980,17068.47,27.31,-1.00,-1.0,2376
5959,2140959,17024,-144,1092,17059.60,27.31,-1.00,-1.0,2444
5961,2140961,17064,-52,1124,17101.06,27.21,-1.00,-1.0,2377
5966,2140966,16968,-32,1052,17000.61,27.31,-1.00,-1.0,2452
5969,2140969,17068,-112,1084,17102.75,27.21,-1.00,-1.0,2370
5972,2140972,16992,-120,1036,17023.98,27.31,-1.00,-1.0,2444
5974,2140974,17080,-160,1056,17113.36,27.35,-1.00,-1.0,2369
5977,2140977,17000,-120,1188,17041.88,27.31,-1.00,-1.0,2367
5980,2140980,17084,-80,968,17111.59,27.35,-1.00,-1.0,2435
5983,2140983,17024,-172,1064,17058.08,27.31,-1.00,-1.0,2378
5985,2140985,17088,-36,1164,17127.64,27.35,-1.00,-1.0,2436
5988,2140988,17060,-44,944,17086.15,27.21,-1.00,-1.0,2384
5993,2140993,17008,-64,1008,17037.96,27.21,-1.00,-1.0,2444
5996,2140996,16972,-80,1036,17003.78,27.31,-1.00,-1.0,2372
5999,2140999,17112,-132,1116,17148.86,27.31,-1.00,-1.0,2438
6001,2141001,17028,-68,1120,17064.93,27.31,-1.00,-1.0,2370
6004,2141004,17020,-136,1112,17056.83,27.31,-1.00,-1.0,2440
6007,2141007,16988,-72,1068,17021.69,27.35,-1.00,-1.0,2377
6010,2141010,16964,-140,1060,16997.66,27.31,-1.00,-1.0,2433
6012,2141012,17072,-28,1084,17106.40,27.26,-1.00,-1.0,2369
6017,2141017,17084,48,1168,17123.95,27.35,-1.00,-1.0,2445
6020,2141020,17040,-144,964,17067.85,27.45,-1.00,-1.0,2370
6022,2141022,17024,-88,1004,17053.81,27.31,-1.00,-1.0,2362
6025,2141025,17012,-20,1052,17044.51,27.21,-1.00,-1.0,2438
6028,2141028,17044,-52,1024,17074.81,27.31,-1.00,-1.0,2370
6031,2141031,16936,-32,1044,16968.18,27.31,-1.00,-1.0,2441
6033,2141033,17004,-52,928,17029.38,27.35,-1.00,-1.0,2368
6036,2141036,16964,-40,980,16992.33,27.31,-1.00,-1.0,2434
6039,2141039,17004,-108,1120,17041.19,27.26,-1.00,-1.0,2369
6044,2141044,16980,-80,1100,17015.78,27.26,-1.00,-1.0,2442
6047,2141047,16976,-96,972,17004.08,27.26,-1.00,-1.0,2368
6049,2141049,17044,-124,1072,17078.13,27.26,-1.00,-1.0,2435
6052,2141052,17044,-172,940,17070.77,27.17,-1.00,-1.0,2374
6055,2141055,17004,-60,1156,17043.36,27.21,-1.00,-1.0,2362
6057,2141057,17000,-112,1148,17039.09,27.21,-1.00,-1.0,2433
6060,2141060,17104,-152,1020,17135.06,27.35,-1.00,-1.0,2370
6063,2141063,17076,-160,1064,17109.87,27.21,-1.00,-1.0,2433
6066,2141066,17132,-56,1008,17161.72,27.26,-1.00,-1.0,2368
6070,2141070,16992,-44,1088,17026.85,27.31,-1.00,-1.0,2431
6073,2141073,17092,-160,1032,17123.88,27.26,-1.00,-1.0,2370
6076,2141076,16964,-52,1068,16997.67,27.35,-1.00,-1.0,2470
6079,2141079,16940,-72,1008,16970.12,27.26,-1.00,-1.0,2369
6082,2141082,16956,-128,1076,16990.59,27.26,-1.00,-1.0,2448
6084,2141084,16980,-88,824,17000.21,27.26,-1.00,-1.0,2372
6087,2141087,16932,-120,1032,16963.85,27.26,-1.00,-1.0,2437
6090,2141090,16980,-180,924,17006.07,27.17,-1.00,-1.0,2366
6095,2141095,17024,-60,996,17053.22,27.35,-1.00,-1.0,2453
6098,2141098,17044,-60,1124,17081.13,27.31,-1.00,-1.0,2364
6100,2141100,16988,-80,1060,17021.23,27.26,-1.00,-1.0,2368
6103,2141103,17044,-140,1112,17080.81,27.17,-1.00,-1.0,2441
6106,2141106,16912,-56,1048,16944.53,27.35,-1.00,-1.0,2365
6108,2141108,17040,-68,1100,17075.60,27.21,-1.00,-1.0,2439
6111,2141111,17004,-140,1052,17037.09,27.26,-1.00,-1.0,2372
6114,2141114,17016,-40,1104,17051.82,27.21,-1.00,-1.0,2437
6117,2141117,16928,-112,1028,16959.55,27.26,-1.00,-1.0,2367
