timestamp_ms,global_ms,accel_x,accel_y,accel_z,accel_mag,temp_c,voltage,soc,loop_us
2,2135002,17092,-108,1048,17124.44,26.84,-1.00,-1.0,2482
9,2135009,17064,-4,1080,17098.14,26.74,-1.00,-1.0,2469
12,2135012,17104,-56,992,17132.83,26.74,-1.00,-1.0,2374
14,2135014,17012,-60,1128,17049.46,26.74,-1.00,-1.0,2361
17,2135017,16980,-68,1024,17010.98,26.79,-1.00,-1.0,2431
20,2135020,17088,-100,1128,17125.48,26.79,-1.00,-1.0,2366
22,2135022,17120,-28,1304,17169.61,26.79,-1.00,-1.0,2431
25,2135025,17148,-60,1076,17181.83,26.84,-1.00,-1.0,2367
28,2135028,17104,24,1132,17141.44,26.69,-1.00,-1.0,2437
31,2135031,16988,-40,1072,17021.84,26.84,-1.00,-1.0,2364
35,2135035,16972,-56,1268,17019.39,26.79,-1.00,-1.0,2447
38,2135038,17020,-76,988,17048.82,26.65,-1.00,-1.0,2363
41,2135041,17008,-76,908,17032.39,26.69,-1.00,-1.0,2361
43,2135043,16956,-152,1112,16993.10,26.69,-1.00,-1.0,2419
46,2135046,17028,12,1060,17060.96,26.79,-1.00,-1.0,2367
49,2135049,16916,-80,1164,16956.19,26.69,-1.00,-1.0,2430
52,2135052,16976,24,1164,17015.88,26.69,-1.00,-1.0,2366
54,2135054,17192,-124,992,17221.04,26.69,-1.00,-1.0,2431
57,2135057,17020,-32,1056,17052.76,26.74,-1.00,-1.0,2370
62,2135062,16988,-52,1020,17018.67,26.74,-1.00,-1.0,2461
65,2135065,16896,-172,1132,16934.75,26.65,-1.00,-1.0,2369
67,2135067,17024,-40,1128,17061.38,26.69,-1.00,-1.0,2368
70,2135070,17060,-108,1116,17096.80,26.69,-1.00,-1.0,2431
73,2135073,16960,-124,1072,16994.30,26.69,-1.00,-1.0,2370
76,2135076,17072,-32,1016,17102.24,26.69,-1.00,-1.0,2440
78,2135078,17016,-4,988,17044.66,26.69,-1.00,-1.0,2377
81,2135081,16960,-4,1108,16996.15,26.88,-1.00,-1.0,2438
84,2135084,16976,-112,1048,17008.69,26.69,-1.00,-1.0,2375
89,2135089,16880,-60,1060,16913.36,26.65,-1.00,-1.0,2452
91,2135091,17036,-100,1024,17067.04,26.65,-1.00,-1.0,2361
94,2135094,16980,12,1060,17013.06,26.74,-1.00,-1.0,2375
97,2135097,17008,-96,1076,17042.27,26.79,-1.00,-1.0,2440
100,2135100,17096,-4,1084,17130.33,26.79,-1.00,-1.0,2370
102,2135102,17016,-88,1008,17046.06,26.69,-1.00,-1.0,2446
105,2135105,16980,-76,992,17009.12,26.74,-1.00,-1.0,2369
108,2135108,16936,-8,1088,16970.91,26.69,-1.00,-1.0,2440
111,2135111,17036,-88,1020,17066.73,26.74,-1.00,-1.0,2362
115,2135115,16992,-112,1096,17027.68,26.74,-1.00,-1.0,2445
118,2135118,17020,-116,936,17046.11,26.74,-1.00,-1.0,2361
121,2135121,17100,-116,1096,17135.48,26.84,-1.00,-1.0,2437
124,2135124,17052,-148,1028,17083.60,26.84,-1.00,-1.0,2366
126,2135126,16984,-40,1116,17020.67,26.74,-1.00,-1.0,2360
129,2135129,16960,-40,1060,16993.14,26.74,-1.00,-1.0,2436
132,2135132,17012,-72,1084,17046.65,26.65,-1.00,-1.0,2372
135,2135135,16972,-84,980,17000.48,26.69,-1.00,-1.0,2431
137,2135137,17096,-52,1152,17134.85,26.65,-1.00,-1.0,2366
142,2135142,17012,-84,1220,17055.90,26.74,-1.00,-1.0,2446
145,2135145,17044,-20,1008,17073.79,26.69,-1.00,-1.0,2364
148,2135148,16964,48,996,16993.28,26.74,-1.00,-1.0,2430
150,2135150,17112,-124,1104,17148.02,26.69,-1.00,-1.0,2374
153,2135153,17064,-32,972,17091.69,26.74,-1.00,-1.0,2431
156,2135156,17020,-68,1060,17053.11,26.69,-1.00,-1.0,2354
158,2135158,17108,-136,948,17134.79,26.65,-1.00,-1.0,2359
161,2135161,17004,-104,888,17027.49,26.65,-1.00,-1.0,2436
164,2135164,16960,-40,1060,16993.14,26.79,-1.00,-1.0,2378
169,2135169,16900,-64,972,16928.05,26.79,-1.00,-1.0,2446
172,2135172,17020,0,1104,17055.77,26.60,-1.00,-1.0,2364
175,2135175,17036,-128,1052,17068.93,26.60,-1.00,-1.0,2438
177,2135177,17052,-36,1240,17097.06,26.79,-1.00,-1.0,2362
180,2135180,16880,-172,1096,16916.42,26.69,-1.00,-1.0,2436
183,2135183,16920,-68,948,16946.67,26.74,-1.00,-1.0,2374
185,2135185,17064,-80,1016,17094.41,26.69,-1.00,-1.0,2361
188,2135188,17064,-64,916,17088.69,26.74,-1.00,-1.0,2436
191,2135191,16996,-168,1024,17027.65,26.74,-1.00,-1.0,2364
196,2135196,16972,-156,1216,17016.22,26.74,-1.00,-1.0,2461
199,2135199,17008,-108,1148,17047.04,26.69,-1.00,-1.0,2367
202,2135202,16964,-64,1200,17006.51,26.74,-1.00,-1.0,2446
204,2135204,16996,-72,1056,17028.93,26.79,-1.00,-1.0,2365
207,2135207,17012,-56,1252,17058.10,26.65,-1.00,-1.0,2451
210,2135210,17032,-24,1096,17067.24,26.69,-1.00,-1.0,2370
213,2135213,17032,36,1052,17064.50,26.65,-1.00,-1.0,2450
215,2135215,16996,-72,1156,17035.42,26.69,-1.00,-1.0,2363
218,2135218,16940,-52,1124,16977.33,26.74,-1.00,-1.0,2365
223,2135223,17072,-20,1144,17110.30,26.74,-1.00,-1.0,2445
226,2135226,16972,-12,1156,17011.33,26.65,-1.00,-1.0,2366
228,2135228,17184,-112,1120,17220.82,26.79,-1.00,-1.0,2432
231,2135231,17092,-116,1244,17137.60,26.74,-1.00,-1.0,2368
234,2135234,16928,-88,1128,16965.77,26.65,-1.00,-1.0,2431
237,2135237,17024,-140,1140,17062.70,26.74,-1.00,-1.0,2362
239,2135239,16956,-48,868,16978.27,26.65,-1.00,-1.0,2424
242,2135242,17028,-88,1052,17060.69,26.74,-1.00,-1.0,2361
247,2135247,16980,-144,1164,17020.46,26.84,-1.00,-1.0,2446
250,2135250,17000,20,1136,17037.93,26.74,-1.00,-1.0,2366
252,2135252,16996,-40,1080,17030.33,26.69,-1.00,-1.0,2356
255,2135255,17108,-112,1136,17146.04,26.69,-1.00,-1.0,2436
258,2135258,17068,-48,1036,17099.48,26.69,-1.00,-1.0,2366
260,2135260,17072,-52,1040,17103.73,26.69,-1.00,-1.0,2430
263,2135263,17092,-36,1128,17129.22,26.69,-1.00,-1.0,2367
266,2135266,17024,-48,988,17052.71,26.69,-1.00,-1.0,2432
269,2135269,17076,-16,992,17104.80,26.79,-1.00,-1.0,2368
274,2135274,17028,-20,964,17055.28,26.69,-1.00,-1.0,2446
277,2135277,17108,-60,1052,17140.42,26.74,-1.00,-1.0,2364
280,2135280,16980,28,1136,17017.98,26.69,-1.00,-1.0,2437
282,2135282,16936,-96,1048,16968.67,26.74,-1.00,-1.0,2364
285,2135285,16932,-32,1108,16968.24,26.79,-1.00,-1.0,2362
288,2135288,17004,0,1168,17044.07,26.69,-1.00,-1.0,2444
290,2135290,17044,-80,1044,17076.13,26.79,-1.00,-1.0,2361
293,2135293,16968,-76,1044,17000.26,26.74,-1.00,-1.0,2438
296,2135296,16988,-48,1088,17022.87,26.69,-1.00,-1.0,2362
301,2135301,17012,-24,1032,17043.29,26.69,-1.00,-1.0,2446
304,2135304,17088,-88,1096,17123.34,26.74,-1.00,-1.0,2362
307,2135307,17060,-108,1056,17092.99,26.79,-1.00,-1.0,2435
309,2135309,17060,-28,1036,17091.45,26.69,-1.00,-1.0,2369
312,2135312,17056,-80,1040,17087.87,26.69,-1.00,-1.0,2437
315,2135315,17128,-64,1136,17165.75,26.74,-1.00,-1.0,2361
317,2135317,17104,-76,1152,17142.92,26.69,-1.00,-1.0,2361
320,2135320,16996,-112,1108,17032.45,26.74,-1.00,-1.0,2438
323,2135323,17072,-68,1116,17108.57,26.84,-1.00,-1.0,2368
328,2135328,17060,-164,996,17089.84,26.74,-1.00,-1.0,2448
331,2135331,17108,-28,1180,17148.67,26.79,-1.00,-1.0,2361
334,2135334,17060,-28,1288,17108.57,26.65,-1.00,-1.0,2444
336,2135336,17044,-116,1076,17078.32,26.79,-1.00,-1.0,2362
339,2135339,17012,0,980,17040.20,26.65,-1.00,-1.0,2437
342,2135342,16992,-120,1052,17024.96,26.60,-1.00,-1.0,2362
344,2135344,16960,-64,1228,17004.52,26.84,-1.00,-1.0,2361
347,2135347,17020,-24,948,17046.40,26.79,-1.00,-1.0,2447
350,2135350,17040,-16,980,17068.16,26.65,-1.00,-1.0,2370
355,2135355,17092,-124,888,17115.50,26.65,-1.00,-1.0,2448
358,2135358,17060,-144,1224,17104.46,26.74,-1.00,-1.0,2360
361,2135361,17044,-8,1072,17077.68,26.74,-1.00,-1.0,2444
363,2135363,17100,48,1040,17131.66,26.74,-1.00,-1.0,2362
366,2135366,17028,-52,960,17055.12,26.84,-1.00,-1.0,2438
369,2135369,17048,-112,1136,17086.17,26.79,-1.00,-1.0,2362
372,2135372,17092,-88,1032,17123.35,26.65,-1.00,-1.0,2443
374,2135374,17000,24,1048,17032.29,26.69,-1.00,-1.0,2365
377,2135377,17004,-52,1064,17037.34,26.74,-1.00,-1.0,2365
382,2135382,17024,-120,1048,17056.65,26.74,-1.00,-1.0,2447
385,2135385,16948,-32,996,16977.27,26.74,-1.00,-1.0,2361
388,2135388,17132,-76,1080,17166.18,26.74,-1.00,-1.0,2444
390,2135390,17048,-60,1220,17091.70,26.65,-1.00,-1.0,2362
393,2135393,17052,-164,1084,17087.21,26.65,-1.00,-1.0,2439
396,2135396,16956,-28,1040,16987.89,26.74,-1.00,-1.0,2362
399,2135399,17008,-32,1076,17042.03,26.74,-1.00,-1.0,2445
401,2135401,17000,-68,936,17025.88,26.84,-1.00,-1.0,2362
406,2135406,17080,-100,1104,17115.93,26.74,-1.00,-1.0,2445
409,2135409,17008,-32,996,17037.17,26.69,-1.00,-1.0,2362
412,2135412,16984,-120,1160,17023.99,26.65,-1.00,-1.0,2361
414,2135414,17036,-124,972,17064.16,26.84,-1.00,-1.0,2431
417,2135417,17008,-36,1048,17040.29,26.74,-1.00,-1.0,2367
420,2135420,17052,48,1120,17088.81,26.65,-1.00,-1.0,2430
423,2135423,17000,-84,1084,17034.73,26.74,-1.00,-1.0,2365
425,2135425,16988,-16,1088,17022.81,26.74,-1.00,-1.0,2431
428,2135428,17044,-44,1060,17076.99,26.69,-1.00,-1.0,2375
433,2135433,16980,-128,1068,17014.04,26.74,-1.00,-1.0,2453
436,2135436,17036,-100,1044,17068.25,26.69,-1.00,-1.0,2369
439,2135439,17012,-28,1100,17047.55,26.65,-1.00,-1.0,2438
442,2135442,17076,44,1140,17114.07,26.79,-1.00,-1.0,2371
444,2135444,16988,-88,1060,17021.27,26.74,-1.00,-1.0,2362
447,2135447,17008,-32,1156,17047.27,26.65,-1.00,-1.0,2431
450,2135450,17008,-28,1056,17040.77,26.74,-1.00,-1.0,2369
452,2135452,17008,-44,1120,17044.89,26.84,-1.00,-1.0,2431
455,2135455,17056,-28,1036,17087.46,26.74,-1.00,-1.0,2374
460,2135460,17056,12,1060,17088.91,26.74,-1.00,-1.0,2446
463,2135463,17068,-68,948,17094.44,26.65,-1.00,-1.0,2363
466,2135466,16996,-136,940,17022.52,26.65,-1.00,-1.0,2436
468,2135468,17064,-140,1052,17096.97,26.74,-1.00,-1.0,2369
471,2135471,17060,-68,1004,17089.65,26.74,-1.00,-1.0,2360
474,2135474,17016,-80,1100,17051.71,26.65,-1.00,-1.0,2444
476,2135476,17004,-76,972,17031.93,26.74,-1.00,-1.0,2361
479,2135479,17012,-20,1208,17054.85,26.65,-1.00,-1.0,2437
482,2135482,17072,-96,1108,17108.19,26.74,-1.00,-1.0,2363
487,2135487,17092,-44,1172,17132.19,26.84,-1.00,-1.0,2454
490,2135490,17020,-32,1080,17054.26,26.74,-1.00,-1.0,2370
493,2135493,17104,-32,1196,17145.79,26.74,-1.00,-1.0,2438
496,2135496,17112,-112,1092,17147.17,26.74,-1.00,-1.0,2371
498,2135498,17148,-72,1148,17186.54,26.84,-1.00,-1.0,2444
501,2135501,17088,-92,1052,17120.60,26.74,-1.00,-1.0,2377
504,2135504,17052,-40,1044,17083.98,26.74,-1.00,-1.0,2362
506,2135506,17004,-32,1044,17036.05,26.69,-1.00,-1.0,2417
509,2135509,16976,-72,1216,17019.65,26.74,-1.00,-1.0,2367
514,2135514,17056,-80,1068,17089.59,26.74,-1.00,-1.0,2433
517,2135517,17008,-48,1188,17049.51,26.74,-1.00,-1.0,2368
520,2135520,17020,-32,1164,17059.79,26.84,-1.00,-1.0,2440
523,2135523,17004,-124,1180,17045.35,26.74,-1.00,-1.0,2370
525,2135525,17004,-212,1084,17039.84,26.74,-1.00,-1.0,2439
528,2135528,17056,-100,1048,17088.46,26.74,-1.00,-1.0,2375
531,2135531,17096,-44,1108,17131.92,26.74,-1.00,-1.0,2439
534,2135534,17068,-96,1048,17100.41,26.65,-1.00,-1.0,2370
536,2135536,17024,40,1068,17057.51,26.69,-1.00,-1.0,2362
541,2135541,17000,-104,972,17028.08,26.69,-1.00,-1.0,2446
544,2135544,17036,-116,1120,17073.17,26.74,-1.00,-1.0,2348
547,2135547,17012,-32,1144,17050.45,26.69,-1.00,-1.0,2438
550,2135550,16968,-160,940,16994.77,26.74,-1.00,-1.0,2371
552,2135552,16956,-64,1184,16997.41,26.74,-1.00,-1.0,2438
555,2135555,16976,-104,976,17004.35,26.93,-1.00,-1.0,2377
558,2135558,16972,-32,1120,17008.95,26.74,-1.00,-1.0,2440
561,2135561,16980,-52,1092,17015.16,26.74,-1.00,-1.0,2369
566,2135566,17036,-20,1092,17070.97,26.65,-1.00,-1.0,2445
568,2135568,17044,-192,1052,17077.51,26.79,-1.00,-1.0,2364
571,2135571,16960,-44,964,16987.43,26.74,-1.00,-1.0,2363
574,2135574,16984,-60,1068,17017.65,26.74,-1.00,-1.0,2443
576,2135576,17012,-172,1096,17048.14,26.74,-1.00,-1.0,2373
579,2135579,16948,-16,1196,16990.15,26.74,-1.00,-1.0,2441
582,2135582,17004,-140,1052,17037.09,26.74,-1.00,-1.0,2372
585,2135585,16988,-88,1048,17020.52,26.84,-1.00,-1.0,2443
587,2135587,16976,-76,1156,17015.48,26.84,-1.00,-1.0,2367
592,2135592,17064,-44,1012,17094.04,26.69,-1.00,-1.0,2445
595,2135595,17112,-40,1024,17142.66,26.69,-1.00,-1.0,2362
598,2135598,17008,-156,1024,17039.51,26.79,-1.00,-1.0,2438
601,2135601,17144,-68,1200,17186.08,26.79,-1.00,-1.0,2366
603,2135603,17008,-84,1052,17040.71,26.74,-1.00,-1.0,2357
606,2135606,16992,32,1108,17028.12,26.74,-1.00,-1.0,2436
609,2135609,17076,-64,1084,17110.49,26.69,-1.00,-1.0,2366
612,2135612,16936,-104,1112,16972.79,26.74,-1.00,-1.0,2442
615,2135615,16984,-168,1132,17022.51,26.84,-1.00,-1.0,2366
619,2135619,17204,-116,1216,17247.31,26.74,-1.00,-1.0,2449
622,2135622,17064,-88,1164,17103.88,26.74,-1.00,-1.0,2362
625,2135625,17036,-32,1180,17076.85,26.74,-1.00,-1.0,2436
628,2135628,17060,-68,1064,17093.28,26.69,-1.00,-1.0,2365
630,2135630,17112,28,1128,17149.16,26.65,-1.00,-1.0,2431
633,2135633,17000,-64,1044,17032.15,26.69,-1.00,-1.0,2368
636,2135636,17052,-144,1132,17090.14,26.74,-1.00,-1.0,2364
639,2135639,16940,-140,972,16968.44,26.69,-1.00,-1.0,2450
642,2135642,17016,-96,1008,17046.10,26.74,-1.00,-1.0,2370
646,2135646,17028,-24,1116,17064.55,26.69,-1.00,-1.0,2448
649,2135649,17064,-56,1108,17100.03,26.79,-1.00,-1.0,2369
652,2135652,17008,-76,1048,17040.43,26.69,-1.00,-1.0,2438
655,2135655,17004,-112,984,17032.82,26.65,-1.00,-1.0,2370
657,2135657,17104,-164,1004,17134.23,26.69,-1.00,-1.0,2443
660,2135660,16972,-92,1096,17007.60,26.79,-1.00,-1.0,2376
663,2135663,16952,-88,1012,16982.41,26.79,-1.00,-1.0,2438
666,2135666,17072,-12,1076,17105.88,26.65,-1.00,-1.0,2373
669,2135669,17044,16,1168,17083.98,26.65,-1.00,-1.0,2365
673,2135673,16956,-12,1184,16997.29,26.69,-1.00,-1.0,2454
676,2135676,17024,-112,1052,17056.84,26.69,-1.00,-1.0,2377
679,2135679,17064,-88,1224,17108.07,26.79,-1.00,-1.0,2439
682,2135682,17064,-64,1184,17105.15,26.74,-1.00,-1.0,2369
684,2135684,17052,-24,1160,17091.43,26.69,-1.00,-1.0,2439
687,2135687,16864,-96,1028,16895.58,26.79,-1.00,-1.0,2377
690,2135690,17012,-100,1004,17041.89,26.79,-1.00,-1.0,2440
693,2135693,17016,-36,1076,17050.02,26.69,-1.00,-1.0,2361
698,2135698,17036,-112,1096,17071.59,26.69,-1.00,-1.0,2448
700,2135700,17000,-76,1040,17031.95,26.79,-1.00,-1.0,2364
703,2135703,17008,-56,1072,17041.84,26.79,-1.00,-1.0,2364
706,2135706,17060,-116,1120,17097.12,26.65,-1.00,-1.0,2430
708,2135708,17020,-8,1016,17050.30,26.69,-1.00,-1.0,2374
711,2135711,17020,-80,984,17048.61,26.74,-1.00,-1.0,2431
714,2135714,16960,-80,1112,16996.60,26.69,-1.00,-1.0,2371
717,2135717,16988,20,960,17015.12,26.65,-1.00,-1.0,2430
720,2135720,17040,44,828,17060.16,26.74,-1.00,-1.0,2366
725,2135725,16936,-92,1232,16981.00,26.65,-1.00,-1.0,2448
727,2135727,16928,-8,1080,16962.42,26.69,-1.00,-1.0,2371
730,2135730,16972,-28,1024,17002.89,26.74,-1.00,-1.0,2362
733,2135733,16916,40,1000,16945.58,26.74,-1.00,-1.0,2434
735,2135735,17060,-8,1180,17100.76,26.84,-1.00,-1.0,2363
738,2135738,17064,-16,1216,17107.28,26.74,-1.00,-1.0,2437
741,2135741,17104,-44,1112,17140.17,26.69,-1.00,-1.0,2362
744,2135744,16832,-32,1184,16873.62,26.74,-1.00,-1.0,2443
747,2135747,17048,-144,944,17074.72,26.74,-1.00,-1.0,2360
752,2135752,16964,48,988,16992.81,26.74,-1.00,-1.0,2450
754,2135754,16992,-76,1076,17026.20,26.74,-1.00,-1.0,2370
757,2135757,17112,-92,968,17139.60,26.74,-1.00,-1.0,2437
760,2135760,17016,-24,1088,17050.77,26.74,-1.00,-1.0,2361
762,2135762,16976,-80,1012,17006.33,26.74,-1.00,-1.0,2361
765,2135765,17096,-60,1224,17139.87,26.74,-1.00,-1.0,2431
768,2135768,17048,-92,1072,17081.92,26.74,-1.00,-1.0,2367
771,2135771,17024,16,980,17052.19,26.69,-1.00,-1.0,2444
774,2135774,17012,-32,1036,17043.55,26.65,-1.00,-1.0,2360
779,2135779,17004,-44,1048,17036.32,26.74,-1.00,-1.0,2441
781,2135781,17048,-44,1008,17077.83,26.74,-1.00,-1.0,2375
784,2135784,17028,-76,1172,17068.46,26.74,-1.00,-1.0,2431
787,2135787,17148,-40,1064,17181.03,26.74,-1.00,-1.0,2353
790,2135790,17092,-32,1068,17125.37,26.74,-1.00,-1.0,2443
792,2135792,16944,-128,1040,16976.37,26.74,-1.00,-1.0,2377
795,2135795,16984,-172,1232,17029.49,26.65,-1.00,-1.0,2356
798,2135798,17028,-92,1064,17061.46,26.79,-1.00,-1.0,2445
801,2135801,17024,-24,1156,17063.22,26.69,-1.00,-1.0,2360
806,2135806,17088,-52,1088,17122.68,26.69,-1.00,-1.0,2446
808,2135808,16984,-32,1076,17018.08,26.65,-1.00,-1.0,2362
811,2135811,17036,-80,1004,17065.75,26.79,-1.00,-1.0,2438
814,2135814,16980,-76,1188,17021.68,26.65,-1.00,-1.0,2362
817,2135817,16996,-84,1104,17032.03,26.69,-1.00,-1.0,2437
819,2135819,17076,-72,1072,17109.77,26.74,-1.00,-1.0,2369
822,2135822,16956,-40,1112,16992.47,26.69,-1.00,-1.0,2438
825,2135825,17036,20,1096,17071.23,26.74,-1.00,-1.0,2361
828,2135828,17008,-176,1020,17039.47,26.69,-1.00,-1.0,2368
833,2135833,17020,-4,1068,17053.48,26.79,-1.00,-1.0,2454
835,2135835,16988,-116,988,17017.10,26.84,-1.00,-1.0,2362
838,2135838,17000,-76,1152,17039.16,26.69,-1.00,-1.0,2438
841,2135841,17040,-80,1164,17079.90,26.79,-1.00,-1.0,2348
844,2135844,17028,56,1024,17058.85,26.69,-1.00,-1.0,2435
846,2135846,16836,-28,1116,16872.97,26.74,-1.00,-1.0,2364
849,2135849,16960,-68,1068,16993.73,26.69,-1.00,-1.0,2438
852,2135852,16980,20,1236,17024.94,26.74,-1.00,-1.0,2362
855,2135855,17088,-28,1036,17119.40,26.74,-1.00,-1.0,2356
860,2135860,16948,20,1216,16991.58,26.74,-1.00,-1.0,2449
862,2135862,16888,-36,1208,16931.19,26.69,-1.00,-1.0,2349
865,2135865,17020,-48,1092,17055.06,26.74,-1.00,-1.0,2438
868,2135868,17064,-136,1084,17098.94,26.69,-1.00,-1.0,2362
871,2135871,17036,40,1172,17076.31,26.79,-1.00,-1.0,2445
873,2135873,17056,-100,1148,17094.88,26.69,-1.00,-1.0,2362
876,2135876,16952,-16,1048,16984.37,26.79,-1.00,-1.0,2438
879,2135879,16968,-32,1140,17006.28,26.79,-1.00,-1.0,2361
884,2135884,17032,-88,1240,17077.30,26.69,-1.00,-1.0,2446
886,2135886,16900,-16,1192,16941.99,26.69,-1.00,-1.0,2362
889,2135889,16960,-80,1096,16995.56,26.79,-1.00,-1.0,2361
892,2135892,17016,-40,1160,17055.54,26.74,-1.00,-1.0,2447
894,2135894,17084,92,992,17113.02,26.79,-1.00,-1.0,2361
897,2135897,16916,-48,1048,16948.50,26.74,-1.00,-1.0,2437
900,2135900,17076,-132,1060,17109.38,26.79,-1.00,-1.0,2364
903,2135903,17028,12,1044,17059.98,26.79,-1.00,-1.0,2440
906,2135906,16964,-32,1060,16997.12,26.65,-1.00,-1.0,2364
911,2135911,16972,12,1024,17002.87,26.74,-1.00,-1.0,2454
913,2135913,17076,-32,1000,17105.29,26.65,-1.00,-1.0,2361
916,2135916,17000,-28,1096,17035.32,26.74,-1.00,-1.0,2442
919,2135919,17000,-88,1056,17032.99,26.65,-1.00,-1.0,2361
922,2135922,17044,28,924,17069.05,26.74,-1.00,-1.0,2364
924,2135924,17020,-112,1072,17054.09,26.74,-1.00,-1.0,2441
927,2135927,17024,-132,1240,17069.61,26.84,-1.00,-1.0,2368
930,2135930,16988,-84,1076,17022.25,26.69,-1.00,-1.0,2438
933,2135933,16988,-104,1144,17026.79,26.60,-1.00,-1.0,2361
938,2135938,17076,-24,1148,17114.56,26.69,-1.00,-1.0,2453
940,2135940,17020,-88,1160,17059.71,26.74,-1.00,-1.0,2362
943,2135943,17060,-88,1040,17091.90,26.65,-1.00,-1.0,2449
946,2135946,16988,-112,972,17016.15,26.74,-1.00,-1.0,2361
949,2135949,17004,-88,1068,17037.73,26.69,-1.00,-1.0,2366
951,2135951,16912,-52,1084,16946.79,26.60,-1.00,-1.0,2439
954,2135954,17068,-44,1036,17099.47,26.69,-1.00,-1.0,2382
957,2135957,16896,-16,1172,16936.61,26.74,-1.00,-1.0,2436
960,2135960,17024,-84,1128,17061.54,26.79,-1.00,-1.0,2368
965,2135965,16948,-84,1152,16987.31,26.69,-1.00,-1.0,2454
968,2135968,17016,-64,1188,17057.54,26.69,-1.00,-1.0,2370
970,2135970,16956,8,984,16984.53,26.69,-1.00,-1.0,2447
973,2135973,16952,-76,1072,16986.03,26.79,-1.00,-1.0,2369
976,2135976,17072,-100,1080,17106.42,26.69,-1.00,-1.0,2440
979,2135979,17084,-88,1036,17115.61,26.69,-1.00,-1.0,2362
981,2135981,17008,-88,1032,17039.51,26.69,-1.00,-1.0,2364
984,2135984,17100,-4,1044,17131.84,26.74,-1.00,-1.0,2439
987,2135987,16908,-84,1192,16950.17,26.65,-1.00,-1.0,2367
992,2135992,17060,12,1140,17098.05,26.69,-1.00,-1.0,2450
995,2135995,17108,44,1028,17138.91,26.79,-1.00,-1.0,2374
997,2135997,17032,24,1060,17064.97,26.74,-1.00,-1.0,2439
1000,2136000,17084,-112,1188,17125.62,26.79,-1.00,-1.0,2377
1003,2136003,17088,-136,1068,17121.88,26.74,-1.00,-1.0,2438
1006,2136006,16976,8,948,17002.45,26.69,-1.00,-1.0,2369
1008,2136008,17032,44,888,17055.19,26.79,-1.00,-1.0,2446
1011,2136011,17088,-48,1024,17118.72,26.79,-1.00,-1.0,2369
1014,2136014,16984,-148,1000,17014.06,26.74,-1.00,-1.0,2360
1019,2136019,17048,-148,1060,17081.56,26.74,-1.00,-1.0,2448
1022,2136022,17036,-116,928,17061.65,26.60,-1.00,-1.0,2371
1024,2136024,17012,-52,1088,17046.84,26.74,-1.00,-1.0,2423
1027,2136027,17008,-24,1112,17044.33,26.69,-1.00,-1.0,2376
1030,2136030,16984,-56,896,17007.71,26.74,-1.00,-1.0,2438
1033,2136033,17028,28,1000,17057.36,26.79,-1.00,-1.0,2370
1035,2136035,17008,-72,1184,17049.31,26.74,-1.00,-1.0,2446
1038,2136038,17040,-120,1056,17073.11,26.69,-1.00,-1.0,2368
1043,2136043,17088,-68,1068,17121.48,26.69,-1.00,-1.0,2447
1046,2136046,17024,-8,1032,17055.25,26.60,-1.00,-1.0,2373
1049,2136049,17084,-52,976,17111.94,26.69,-1.00,-1.0,2432
1051,2136051,16980,-112,1168,17020.49,26.65,-1.00,-1.0,2366
1054,2136054,16972,36,1088,17006.88,26.60,-1.00,-1.0,2363
1057,2136057,17044,-52,1080,17078.26,26.65,-1.00,-1.0,2459
1059,2136059,16928,-8,1064,16961.41,26.65,-1.00,-1.0,2369
1062,2136062,16984,-100,1092,17019.36,26.69,-1.00,-1.0,2437
1065,2136065,16976,-116,1040,17008.22,26.79,-1.00,-1.0,2365
1070,2136070,17068,-112,1148,17106.93,26.69,-1.00,-1.0,2451
1072,2136072,16980,8,1064,17013.30,26.69,-1.00,-1.0,2367
1075,2136075,17052,-76,960,17079.17,26.84,-1.00,-1.0,2453
1078,2136078,16952,-96,1028,16983.41,26.69,-1.00,-1.0,2365
1081,2136081,17052,-32,1064,17085.19,26.74,-1.00,-1.0,2442
1083,2136083,17020,-164,1108,17056.82,26.79,-1.00,-1.0,2369
1086,2136086,16996,-168,908,17021.07,26.74,-1.00,-1.0,2376
1089,2136089,17040,-24,1012,17070.04,26.65,-1.00,-1.0,2450
1092,2136092,17064,-64,1160,17103.50,26.79,-1.00,-1.0,2366
1097,2136097,17028,-100,960,17055.33,26.74,-1.00,-1.0,2451
1099,2136099,17048,-48,1128,17085.34,26.69,-1.00,-1.0,2367
1102,2136102,17012,60,1140,17050.26,26.65,-1.00,-1.0,2443
1105,2136105,17020,-64,1200,17062.37,26.69,-1.00,-1.0,2365
1108,2136108,17096,36,1024,17126.68,26.65,-1.00,-1.0,2443
1110,2136110,16956,-8,956,16982.93,26.60,-1.00,-1.0,2367
1113,2136113,17008,-76,1088,17042.93,26.69,-1.00,-1.0,2437
1116,2136116,16956,0,1044,16988.11,26.74,-1.00,-1.0,2372
1121,2136121,17064,-136,1104,17100.22,26.69,-1.00,-1.0,2445
1124,2136124,17052,-100,1140,17090.36,26.69,-1.00,-1.0,2372
1126,2136126,17024,-140,1048,17056.80,26.74,-1.00,-1.0,2373
1129,2136129,17112,-88,928,17137.37,26.74,-1.00,-1.0,2444
1132,2136132,16924,0,1064,16957.41,26.84,-1.00,-1.0,2372
1135,2136135,17060,-76,1140,17098.21,26.74,-1.00,-1.0,2449
1137,2136137,16988,-64,1068,17021.66,26.74,-1.00,-1.0,2376
1140,2136140,17064,-92,1068,17097.64,26.74,-1.00,-1.0,2446
1143,2136143,17080,-60,1056,17112.72,26.74,-1.00,-1.0,2371
1148,2136148,17128,-32,1008,17157.67,26.65,-1.00,-1.0,2444
1151,2136151,17008,-4,1164,17047.79,26.74,-1.00,-1.0,2372
1154,2136154,17072,-80,1080,17106.31,26.84,-1.00,-1.0,2438
1156,2136156,17048,-4,1148,17086.61,26.74,-1.00,-1.0,2368
1159,2136159,17100,-68,1140,17138.09,26.74,-1.00,-1.0,2363
1162,2136162,16992,-152,1164,17032.50,26.69,-1.00,-1.0,2450
1164,2136164,17048,-108,964,17075.57,26.65,-1.00,-1.0,2377
1167,2136167,16952,-44,948,16978.54,26.79,-1.00,-1.0,2437
1170,2136170,16980,-72,1012,17010.28,26.84,-1.00,-1.0,2372
1175,2136175,17032,-16,1172,17072.28,26.65,-1.00,-1.0,2460
1178,2136178,16928,-132,1092,16963.70,26.74,-1.00,-1.0,2373
1181,2136181,17044,-28,1168,17084.00,26.69,-1.00,-1.0,2450
1183,2136183,17112,-60,1088,17146.66,26.74,-1.00,-1.0,2375
1186,2136186,17008,-100,1152,17047.26,26.84,-1.00,-1.0,2447
1189,2136189,17024,-100,1156,17063.50,26.74,-1.00,-1.0,2373
1192,2136192,16996,-128,1056,17029.26,26.69,-1.00,-1.0,2451
1194,2136194,16968,-64,1052,17000.70,26.74,-1.00,-1.0,2375
1199,2136199,17060,-48,1136,17097.85,26.74,-1.00,-1.0,2454
1202,2136202,17052,-64,1164,17091.80,26.74,-1.00,-1.0,2373
1205,2136205,17048,-4,1056,17080.68,26.69,-1.00,-1.0,2362
1207,2136207,17028,-120,1072,17062.13,26.69,-1.00,-1.0,2437
1210,2136210,17036,-92,1060,17069.19,26.65,-1.00,-1.0,2373
1213,2136213,17060,4,1096,17095.17,26.79,-1.00,-1.0,2439
1216,2136216,17076,-152,1204,17119.07,26.79,-1.00,-1.0,2372
1218,2136218,16948,44,1080,16982.43,26.79,-1.00,-1.0,2427
1221,2136221,16984,-76,992,17013.12,26.69,-1.00,-1.0,2365
1226,2136226,17012,-104,1076,17046.31,26.79,-1.00,-1.0,2438
1229,2136229,17052,-52,1008,17081.85,26.69,-1.00,-1.0,2367
1232,2136232,17088,-64,1020,17118.54,26.69,-1.00,-1.0,2453
1234,2136234,17072,-108,1064,17105.46,26.79,-1.00,-1.0,2377
1237,2136237,16948,-112,972,16976.22,26.79,-1.00,-1.0,2363
1240,2136240,17008,-88,984,17036.67,26.74,-1.00,-1.0,2432
1242,2136242,16988,-76,968,17015.73,26.79,-1.00,-1.0,2368
1245,2136245,17000,-92,1040,17032.03,26.74,-1.00,-1.0,2438
1248,2136248,17036,-168,1164,17076.54,26.74,-1.00,-1.0,2365
1253,2136253,16976,-120,1116,17013.07,26.69,-1.00,-1.0,2451
1256,2136256,17040,-40,1112,17076.29,26.79,-1.00,-1.0,2352
1259,2136259,17016,-32,1080,17050.27,26.74,-1.00,-1.0,2448
1261,2136261,17060,-84,1020,17090.67,26.60,-1.00,-1.0,2374
1264,2136264,17072,-20,1200,17114.13,26.84,-1.00,-1.0,2437
1267,2136267,17016,-152,1016,17046.98,26.69,-1.00,-1.0,2365
1270,2136270,17076,-56,1132,17113.57,26.84,-1.00,-1.0,2453
1272,2136272,17064,-56,1280,17112.03,26.60,-1.00,-1.0,2376
1275,2136275,17064,-32,988,17092.61,26.74,-1.00,-1.0,2361
1280,2136280,16984,-48,1028,17015.15,26.65,-1.00,-1.0,2443
1283,2136283,16844,-84,1044,16876.53,26.84,-1.00,-1.0,2365
1286,2136286,17032,-80,976,17060.13,26.74,-1.00,-1.0,2442
1288,2136288,17044,-100,1120,17081.05,26.65,-1.00,-1.0,2368
1291,2136291,17060,-112,1040,17092.04,26.74,-1.00,-1.0,2424
1294,2136294,16936,-76,1016,16966.62,26.74,-1.00,-1.0,2367
1297,2136297,17036,-92,972,17063.96,26.74,-1.00,-1.0,2435
1299,2136299,16956,60,1116,16992.79,26.74,-1.00,-1.0,2373
1304,2136304,16948,-28,992,16977.03,26.74,-1.00,-1.0,2444
1307,2136307,17128,-112,1092,17163.14,26.74,-1.00,-1.0,2367
1310,2136310,16992,24,1040,17023.81,26.65,-1.00,-1.0,2435
1312,2136312,16960,-64,1092,16995.24,26.74,-1.00,-1.0,2369
1315,2136315,17128,-136,1160,17167.78,26.74,-1.00,-1.0,2361
1318,2136318,17080,-116,964,17107.58,26.69,-1.00,-1.0,2443
1320,2136320,17032,-112,1084,17066.83,26.74,-1.00,-1.0,2367
1323,2136323,17020,-88,888,17043.38,26.79,-1.00,-1.0,2442
1326,2136326,17148,-120,1104,17183.92,26.69,-1.00,-1.0,2366
1331,2136331,16884,-16,1080,16918.51,26.79,-1.00,-1.0,2445
1334,2136334,16984,16,1164,17023.85,26.74,-1.00,-1.0,2366
1337,2136337,17072,-152,1084,17107.05,26.69,-1.00,-1.0,2443
1339,2136339,17020,-108,1140,17058.48,26.65,-1.00,-1.0,2367
1342,2136342,16968,-56,1288,17016.91,26.69,-1.00,-1.0,2436
1345,2136345,17020,-72,1072,17053.88,26.65,-1.00,-1.0,2366
1348,2136348,17088,-4,1204,17130.36,26.69,-1.00,-1.0,2436
1350,2136350,16992,-96,928,17017.59,26.74,-1.00,-1.0,2354
1353,2136353,16992,12,1024,17022.83,26.69,-1.00,-1.0,2362
1358,2136358,16952,-104,1032,16983.70,26.69,-1.00,-1.0,2444
1361,2136361,17068,-52,988,17096.65,26.84,-1.00,-1.0,2365
1364,2136364,17032,-56,1024,17062.85,26.79,-1.00,-1.0,2443
1366,2136366,17044,-36,1128,17081.32,26.65,-1.00,-1.0,2367
1369,2136369,16956,-72,1040,16988.02,26.79,-1.00,-1.0,2436
1372,2136372,17052,-48,1184,17093.12,26.74,-1.00,-1.0,2366
1375,2136375,17004,-64,972,17031.88,26.79,-1.00,-1.0,2433
1377,2136377,17004,12,1156,17043.25,26.74,-1.00,-1.0,2370
1382,2136382,16956,-148,984,16985.17,26.74,-1.00,-1.0,2453
1385,2136385,17032,-200,1040,17064.89,26.74,-1.00,-1.0,2381
1388,2136388,17044,-72,1008,17073.93,26.74,-1.00,-1.0,2438
1391,2136391,16980,-100,1044,17012.36,26.74,-1.00,-1.0,2375
1393,2136393,17096,-32,1056,17128.61,26.74,-1.00,-1.0,2361
1396,2136396,17064,-68,1128,17101.38,26.74,-1.00,-1.0,2435
1399,2136399,17028,8,1164,17067.74,26.74,-1.00,-1.0,2367
1401,2136401,17056,-212,980,17085.45,26.69,-1.00,-1.0,2436
1404,2136404,17016,-16,1136,17053.88,26.74,-1.00,-1.0,2377
1409,2136409,17012,-44,1124,17049.15,26.74,-1.00,-1.0,2445
1412,2136412,16964,-112,1060,16997.45,26.69,-1.00,-1.0,2366
1415,2136415,17076,-140,1120,17113.26,26.74,-1.00,-1.0,2443
1417,2136417,17032,-88,1164,17071.96,26.69,-1.00,-1.0,2370
1420,2136420,17008,-40,948,17034.45,26.74,-1.00,-1.0,2443
1423,2136423,16932,-16,1140,16970.34,26.79,-1.00,-1.0,2366
1426,2136426,16892,-28,996,16921.36,26.74,-1.00,-1.0,2443
1428,2136428,16992,-104,932,17017.86,26.69,-1.00,-1.0,2355
1431,2136431,16996,0,1064,17029.27,26.74,-1.00,-1.0,2372
1436,2136436,17088,-56,952,17114.59,26.74,-1.00,-1.0,2445
1439,2136439,16968,0,964,16995.36,26.74,-1.00,-1.0,2366
1442,2136442,16956,-132,1088,16991.38,26.84,-1.00,-1.0,2442
1444,2136444,17036,-88,1020,17066.73,26.84,-1.00,-1.0,2367
1447,2136447,16992,-40,968,17019.60,26.65,-1.00,-1.0,2441
1450,2136450,17068,-100,1104,17103.96,26.74,-1.00,-1.0,2365
1453,2136453,17064,56,1032,17095.27,26.84,-1.00,-1.0,2441
1455,2136455,17012,-20,1240,17057.14,26.74,-1.00,-1.0,2367
1460,2136460,17008,-140,1128,17045.94,26.69,-1.00,-1.0,2445
1463,2136463,17088,-76,1048,17120.28,26.79,-1.00,-1.0,2366
1466,2136466,17008,-84,1016,17038.53,26.74,-1.00,-1.0,2368
1469,2136469,17052,-144,1036,17084.05,26.74,-1.00,-1.0,2436
1471,2136471,16952,-60,1080,16986.47,26.74,-1.00,-1.0,2366
1474,2136474,17044,-128,1132,17082.03,26.74,-1.00,-1.0,2435
1477,2136477,17040,-36,1028,17071.02,26.65,-1.00,-1.0,2365
1479,2136479,16964,-108,1076,16998.43,26.74,-1.00,-1.0,2436
1482,2136482,17096,-64,948,17122.38,26.79,-1.00,-1.0,2370
1487,2136487,16880,-172,1064,16914.38,26.74,-1.00,-1.0,2445
1490,2136490,17016,-104,1172,17056.63,26.74,-1.00,-1.0,2418
1493,2136493,16988,0,884,17010.98,26.69,-1.00,-1.0,2437
1496,2136496,17040,-56,1040,17071.80,26.69,-1.00,-1.0,2377
1498,2136498,17044,-92,880,17066.95,26.79,-1.00,-1.0,2429
1501,2136501,16928,-84,1120,16965.22,26.69,-1.00,-1.0,2361
1504,2136504,17028,-52,1052,17060.54,26.79,-1.00,-1.0,2361
1506,2136506,17000,-4,1120,17036.86,26.74,-1.00,-1.0,2417
1509,2136509,17020,-152,1048,17052.91,26.65,-1.00,-1.0,2374
1514,2136514,17124,-188,1068,17158.30,26.74,-1.00,-1.0,2441
1517,2136517,17080,-76,1052,17112.54,26.74,-1.00,-1.0,2368
1520,2136520,17100,28,1008,17129.71,26.74,-1.00,-1.0,2441
1522,2136522,16992,-140,888,17015.76,26.74,-1.00,-1.0,2369
1525,2136525,16896,-60,1100,16931.88,26.74,-1.00,-1.0,2436
1528,2136528,16976,-40,1088,17010.88,26.69,-1.00,-1.0,2428
1531,2136531,17088,-128,1136,17126.20,26.74,-1.00,-1.0,2425
1534,2136534,17032,-124,1120,17069.24,26.79,-1.00,-1.0,2376
1539,2136539,16932,-84,1048,16964.61,26.79,-1.00,-1.0,2441
1541,2136541,17036,-120,1260,17082.95,26.79,-1.00,-1.0,2378
1544,2136544,17140,-16,1016,17170.09,26.74,-1.00,-1.0,2350
1547,2136547,16984,-164,1140,17023.01,26.74,-1.00,-1.0,2435
1549,2136549,16996,-100,1008,17026.16,26.79,-1.00,-1.0,2362
1552,2136552,16992,-128,1148,17031.22,26.74,-1.00,-1.0,2435
1555,2136555,17124,-116,1112,17160.46,26.60,-1.00,-1.0,2370
1558,2136558,17088,-52,1160,17127.41,26.74,-1.00,-1.0,2436
1560,2136560,17056,-104,1008,17086.08,26.74,-1.00,-1.0,2355
1565,2136565,16960,0,1048,16992.35,26.65,-1.00,-1.0,2439
1568,2136568,17020,-64,1044,17052.11,26.74,-1.00,-1.0,2367
1571,2136571,17156,-124,1108,17192.19,26.84,-1.00,-1.0,2438
1574,2136574,16976,-132,1256,17022.91,26.74,-1.00,-1.0,2368
1576,2136576,16992,36,1096,17027.35,26.74,-1.00,-1.0,2434
1579,2136579,17012,-36,972,17039.78,26.65,-1.00,-1.0,2368
1582,2136582,17036,-84,1076,17070.15,26.74,-1.00,-1.0,2361
1585,2136585,17060,-84,1032,17091.39,26.79,-1.00,-1.0,2438
1587,2136587,16960,-92,1116,16996.93,26.79,-1.00,-1.0,2369
1592,2136592,17064,-112,1020,17094.82,26.79,-1.00,-1.0,2438
1595,2136595,17020,-24,1228,17064.26,26.84,-1.00,-1.0,2367
1598,2136598,17064,-100,1044,17096.20,26.69,-1.00,-1.0,2439
1601,2136601,16984,8,1016,17014.36,26.74,-1.00,-1.0,2368
1603,2136603,17028,-128,1132,17066.07,26.79,-1.00,-1.0,2434
1606,2136606,17048,-140,1028,17079.54,26.74,-1.00,-1.0,2367
1609,2136609,17020,16,1028,17051.03,26.69,-1.00,-1.0,2435
1612,2136612,17068,-60,1172,17108.30,26.74,-1.00,-1.0,2368
1617,2136617,17064,-92,1052,17096.64,26.74,-1.00,-1.0,2441
1619,2136619,17024,-12,980,17052.19,26.65,-1.00,-1.0,2374
1622,2136622,16992,-56,1068,17025.62,26.74,-1.00,-1.0,2361
1625,2136625,16976,-52,1052,17008.64,26.74,-1.00,-1.0,2445
1627,2136627,17012,-196,1032,17044.40,26.74,-1.00,-1.0,2368
1630,2136630,17004,-32,1068,17037.54,26.69,-1.00,-1.0,2436
1633,2136633,17036,-44,1080,17070.26,26.84,-1.00,-1.0,2367
1636,2136636,17132,-76,1080,17166.18,26.74,-1.00,-1.0,2433
1639,2136639,17052,-32,1192,17093.64,26.69,-1.00,-1.0,2376
1644,2136644,17036,-108,1200,17078.55,26.69,-1.00,-1.0,2438
1646,2136646,16984,-64,1128,17021.54,26.69,-1.00,-1.0,2369
1649,2136649,17036,-64,1124,17073.16,26.65,-1.00,-1.0,2454
1652,2136652,17008,-56,1116,17044.67,26.69,-1.00,-1.0,2363
1655,2136655,17008,-96,884,17031.23,26.74,-1.00,-1.0,2437
1657,2136657,17068,-48,1060,17100.95,26.69,-1.00,-1.0,2369
1660,2136660,17072,28,1084,17106.40,26.74,-1.00,-1.0,2363
1663,2136663,17028,-40,1088,17062.77,26.65,-1.00,-1.0,2445
1666,2136666,17060,-124,1020,17090.91,26.74,-1.00,-1.0,2380
1671,2136671,17108,-76,1000,17137.37,26.65,-1.00,-1.0,2442
1673,2136673,17004,-132,1056,17037.27,26.74,-1.00,-1.0,2370
1676,2136676,17012,-92,1100,17047.77,26.74,-1.00,-1.0,2434
1679,2136679,16956,-124,1164,16996.36,26.74,-1.00,-1.0,2376
1682,2136682,16984,-128,1048,17016.79,26.74,-1.00,-1.0,2442
1684,2136684,17012,-68,948,17038.53,26.74,-1.00,-1.0,2368
1687,2136687,16976,32,1088,17010.86,26.74,-1.00,-1.0,2444
1690,2136690,17080,-48,1008,17109.79,26.74,-1.00,-1.0,2377
1695,2136695,17028,-124,1088,17063.17,26.74,-1.00,-1.0,2455
1698,2136698,16952,-52,1060,16985.19,26.74,-1.00,-1.0,2375
1700,2136700,17056,-140,1076,17090.48,26.79,-1.00,-1.0,2360
1703,2136703,17020,-40,896,17043.62,26.69,-1.00,-1.0,2438
1706,2136706,17044,-48,1100,17079.53,26.84,-1.00,-1.0,2368
1708,2136708,16936,-12,1068,16969.64,26.79,-1.00,-1.0,2434
1711,2136711,17028,-148,940,17054.57,26.69,-1.00,-1.0,2367
1714,2136714,17008,0,992,17036.90,26.69,-1.00,-1.0,2435
1717,2136717,16888,8,1132,16925.90,26.74,-1.00,-1.0,2368
1721,2136721,17012,-108,912,17036.77,26.79,-1.00,-1.0,2439
1724,2136724,16984,-92,1104,17020.09,26.79,-1.00,-1.0,2367
1727,2136727,17080,-92,1072,17113.86,26.79,-1.00,-1.0,2438
1730,2136730,16964,-40,1088,16998.90,26.69,-1.00,-1.0,2368
1732,2136732,16976,-36,1076,17010.10,26.79,-1.00,-1.0,2434
1735,2136735,17020,-60,1228,17064.35,26.79,-1.00,-1.0,2367
1738,2136738,16960,-8,1052,16992.60,26.79,-1.00,-1.0,2368
1741,2136741,16988,-124,1072,17022.24,26.79,-1.00,-1.0,2444
1744,2136744,17000,-76,1088,17034.95,26.69,-1.00,-1.0,2368
1749,2136749,16940,-24,1104,16975.95,26.74,-1.00,-1.0,2439
1751,2136751,17028,-88,980,17056.40,26.79,-1.00,-1.0,2378
1754,2136754,17032,-52,1008,17061.88,26.79,-1.00,-1.0,2438
1757,2136757,17020,-24,964,17047.29,26.69,-1.00,-1.0,2370
1760,2136760,17096,-156,1076,17130.54,26.79,-1.00,-1.0,2443
1762,2136762,17132,-16,1172,17172.05,26.79,-1.00,-1.0,2375
1765,2136765,17032,-36,1172,17072.31,26.69,-1.00,-1.0,2435
1768,2136768,16992,-104,1032,17023.63,26.69,-1.00,-1.0,2374
1773,2136773,16996,4,1124,17033.13,26.65,-1.00,-1.0,2447
1775,2136775,17072,0,1104,17107.66,26.84,-1.00,-1.0,2369
1778,2136778,17028,40,1148,17066.70,26.69,-1.00,-1.0,2376
1781,2136781,17056,-104,976,17084.22,26.69,-1.00,-1.0,2438
1784,2136784,17004,-84,1112,17040.53,26.65,-1.00,-1.0,2380
1786,2136786,17072,-112,1076,17106.24,26.69,-1.00,-1.0,2437
1789,2136789,17072,-180,1136,17110.70,26.69,-1.00,-1.0,2382
1792,2136792,16924,-100,1112,16960.79,26.69,-1.00,-1.0,2436
1795,2136795,17032,-112,1044,17064.33,26.74,-1.00,-1.0,2368
1800,2136800,17008,-64,1096,17043.40,26.74,-1.00,-1.0,2442
1802,2136802,16992,28,936,17017.78,26.69,-1.00,-1.0,2370
1805,2136805,17000,-64,1112,17036.45,26.74,-1.00,-1.0,2425
1808,2136808,17040,-124,1024,17071.19,26.79,-1.00,-1.0,2370
1810,2136810,16960,-168,1120,16997.77,26.74,-1.00,-1.0,2362
1813,2136813,16988,-68,1016,17018.49,26.65,-1.00,-1.0,2434
1816,2136816,17104,4,1064,17137.06,26.79,-1.00,-1.0,2355
1819,2136819,16936,36,1228,16980.50,26.79,-1.00,-1.0,2440
1822,2136822,17020,-64,1076,17054.10,26.65,-1.00,-1.0,2374
1827,2136827,17020,-68,1080,17054.37,26.65,-1.00,-1.0,2447
1829,2136829,17020,-132,912,17044.93,26.74,-1.00,-1.0,2368
1832,2136832,17028,-60,1004,17057.68,26.74,-1.00,-1.0,2439
1835,2136835,16940,-60,1084,16974.75,26.65,-1.00,-1.0,2366
1838,2136838,17044,-68,1068,17077.56,26.74,-1.00,-1.0,2443
1840,2136840,17068,-28,1172,17108.21,26.74,-1.00,-1.0,2370
1843,2136843,16992,-48,1072,17025.85,26.65,-1.00,-1.0,2434
1846,2136846,16988,-64,912,17012.58,26.74,-1.00,-1.0,2370
1849,2136849,17024,-4,916,17048.63,26.69,-1.00,-1.0,2368
1854,2136854,17004,-16,1116,17040.59,26.65,-1.00,-1.0,2447
1856,2136856,17092,-88,1192,17133.74,26.74,-1.00,-1.0,2367
1859,2136859,17008,-80,1064,17041.44,26.74,-1.00,-1.0,2439
1862,2136862,17096,-72,1072,17129.73,26.84,-1.00,-1.0,2354
1865,2136865,17040,-112,1076,17074.31,26.74,-1.00,-1.0,2443
1867,2136867,16932,-12,1112,16968.48,26.74,-1.00,-1.0,2370
1870,2136870,16992,-80,1108,17028.27,26.74,-1.00,-1.0,2435
1873,2136873,16992,-124,1124,17029.59,26.74,-1.00,-1.0,2368
1878,2136878,17008,-92,1184,17049.41,26.79,-1.00,-1.0,2430
1881,2136881,16988,-68,1020,17018.73,26.69,-1.00,-1.0,2371
1883,2136883,17040,-96,1140,17078.36,26.74,-1.00,-1.0,2449
1886,2136886,17064,-68,1080,17098.28,26.79,-1.00,-1.0,2375
1889,2136889,16964,-88,1160,17003.84,26.84,-1.00,-1.0,2361
1891,2136891,17088,-72,964,17115.32,26.74,-1.00,-1.0,2436
1894,2136894,17088,-80,1108,17124.07,26.74,-1.00,-1.0,2357
1897,2136897,16968,-68,988,16996.88,26.65,-1.00,-1.0,2437
1900,2136900,17080,32,1108,17115.93,26.74,-1.00,-1.0,2421
1905,2136905,17100,-68,1112,17136.25,26.79,-1.00,-1.0,2450
1907,2136907,16948,-16,1000,16977.48,26.74,-1.00,-1.0,2368
1910,2136910,17016,-84,916,17040.84,26.79,-1.00,-1.0,2435
1913,2136913,17020,-60,1016,17050.40,26.69,-1.00,-1.0,2367
1916,2136916,17032,32,1128,17069.34,26.69,-1.00,-1.0,2444
1918,2136918,16980,-40,1028,17011.14,26.74,-1.00,-1.0,2368
1921,2136921,17080,-140,1012,17110.53,26.69,-1.00,-1.0,2368
1924,2136924,17084,0,1088,17118.61,26.74,-1.00,-1.0,2433
1927,2136927,17044,-100,1008,17074.07,26.74,-1.00,-1.0,2369
1932,2136932,16940,-16,1004,16969.73,26.65,-1.00,-1.0,2446
1934,2136934,16948,-36,1036,16979.67,26.65,-1.00,-1.0,2375
1937,2136937,17060,-80,1012,17090.18,26.74,-1.00,-1.0,2434
1940,2136940,17044,-88,1024,17074.96,26.74,-1.00,-1.0,2368
1943,2136943,17000,-188,1088,17035.82,26.65,-1.00,-1.0,2443
1945,2136945,17148,-120,1148,17186.80,26.74,-1.00,-1.0,2375
1948,2136948,17052,-40,1064,17085.21,26.65,-1.00,-1.0,2434
1951,2136951,16948,-36,964,16975.43,26.74,-1.00,-1.0,2368
1956,2136956,17080,-32,940,17105.88,26.74,-1.00,-1.0,2437
1959,2136959,16960,-56,820,16979.90,26.74,-1.00,-1.0,2377
1961,2136961,17096,-140,1044,17128.42,26.74,-1.00,-1.0,2360
1964,2136964,17016,-76,1120,17052.99,26.79,-1.00,-1.0,2420
1967,2136967,17080,-180,956,17107.68,26.74,-1.00,-1.0,2369
1969,2136969,17124,-112,1112,17160.43,26.74,-1.00,-1.0,2435
1972,2136972,17160,-108,836,17180.69,26.74,-1.00,-1.0,2375
1975,2136975,17028,-52,1156,17067.27,26.60,-1.00,-1.0,2433
1978,2136978,17080,-168,1152,17119.63,26.69,-1.00,-1.0,2367
1983,2136983,17056,-32,1048,17088.20,26.79,-1.00,-1.0,2446
1986,2136986,16972,-24,1176,17012.71,26.65,-1.00,-1.0,2375
1988,2136988,16964,-92,1008,16994.17,26.74,-1.00,-1.0,2433
1991,2136991,16940,-68,1096,16975.55,26.84,-1.00,-1.0,2375
1994,2136994,16976,-124,1000,17005.88,26.79,-1.00,-1.0,2437
1997,2136997,17024,-120,860,17046.13,26.74,-1.00,-1.0,2373
1999,2136999,16852,-100,988,16881.23,26.79,-1.00,-1.0,2361
2002,2137002,16992,-16,1216,17035.46,26.69,-1.00,-1.0,2433
2005,2137005,17044,-36,1036,17075.49,26.69,-1.00,-1.0,2355
2010,2137010,16924,-148,1096,16960.10,26.69,-1.00,-1.0,2441
2013,2137013,16992,-12,1244,17037.48,26.65,-1.00,-1.0,2362
2015,2137015,16992,-100,920,17017.18,26.79,-1.00,-1.0,2435
2018,2137018,16932,-56,1184,16973.44,26.74,-1.00,-1.0,2375
2021,2137021,17028,-128,1100,17063.97,26.79,-1.00,-1.0,2434
2024,2137024,17088,-64,1104,17123.75,26.74,-1.00,-1.0,2375
2026,2137026,16940,80,1124,16977.44,26.74,-1.00,-1.0,2422
2029,2137029,17088,76,1056,17120.77,26.74,-1.00,-1.0,2383
2034,2137034,16956,-64,1008,16986.06,26.74,-1.00,-1.0,2457
2037,2137037,16988,8,1120,17024.88,26.74,-1.00,-1.0,2375
2039,2137039,17076,-60,1268,17123.12,26.74,-1.00,-1.0,2367
2042,2137042,16936,-104,1028,16967.49,26.69,-1.00,-1.0,2434
2045,2137045,17076,-80,1036,17107.59,26.79,-1.00,-1.0,2368
2048,2137048,16900,-96,1052,16932.98,26.69,-1.00,-1.0,2440
2050,2137050,17048,-180,1072,17082.62,26.74,-1.00,-1.0,2375
2053,2137053,17056,-100,1136,17094.08,26.79,-1.00,-1.0,2434
2056,2137056,17000,-68,1132,17037.78,26.74,-1.00,-1.0,2371
2061,2137061,16956,-132,1020,16987.16,26.84,-1.00,-1.0,2442
2064,2137064,17108,-64,1084,17142.43,26.69,-1.00,-1.0,2370
2066,2137066,17044,-52,920,17068.89,26.74,-1.00,-1.0,2435
2069,2137069,17072,-68,996,17101.16,26.79,-1.00,-1.0,2369
2072,2137072,16980,-64,1136,17018.08,26.74,-1.00,-1.0,2434
2075,2137075,17044,4,1184,17085.08,26.79,-1.00,-1.0,2367
2077,2137077,17064,-92,944,17090.34,26.65,-1.00,-1.0,2359
2080,2137080,16984,-28,1148,17022.78,26.69,-1.00,-1.0,2440
2083,2137083,17036,-104,984,17064.71,26.65,-1.00,-1.0,2368
2088,2137088,16932,-28,1024,16962.96,26.74,-1.00,-1.0,2440
2091,2137091,16964,-164,1160,17004.40,26.74,-1.00,-1.0,2367
2093,2137093,16980,-76,1172,17020.57,26.74,-1.00,-1.0,2438
2096,2137096,17040,-16,1036,17071.47,26.74,-1.00,-1.0,2368
2099,2137099,17072,-20,1096,17107.16,26.74,-1.00,-1.0,2433
2102,2137102,16964,20,1068,16997.60,26.74,-1.00,-1.0,2368
2104,2137104,17120,-52,860,17141.67,26.74,-1.00,-1.0,2434
2107,2137107,17088,-104,1028,17119.21,26.74,-1.00,-1.0,2368
2112,2137112,17080,-80,992,17108.97,26.74,-1.00,-1.0,2441
2115,2137115,17028,-56,1096,17063.33,26.79,-1.00,-1.0,2368
2117,2137117,17064,-116,996,17093.44,26.74,-1.00,-1.0,2360
2120,2137120,16996,-136,1108,17032.62,26.74,-1.00,-1.0,2435
2123,2137123,17056,-68,1028,17087.09,26.65,-1.00,-1.0,2371
2126,2137126,17008,-64,952,17034.74,26.65,-1.00,-1.0,2440
2128,2137128,16972,24,1132,17009.73,26.74,-1.00,-1.0,2368
2131,2137131,17000,-120,1180,17041.33,26.84,-1.00,-1.0,2433
2134,2137134,16912,-40,980,16940.42,26.69,-1.00,-1.0,2374
2139,2137139,17112,-40,1020,17142.42,26.69,-1.00,-1.0,2443
2142,2137142,16980,-76,992,17009.12,26.69,-1.00,-1.0,2368
2144,2137144,17048,-112,1056,17081.04,26.69,-1.00,-1.0,2444
2147,2137147,16964,-164,1092,16999.90,26.79,-1.00,-1.0,2375
2150,2137150,17004,0,1060,17037.01,26.65,-1.00,-1.0,2361
2152,2137152,17124,24,1088,17158.54,26.74,-1.00,-1.0,2432
2155,2137155,17080,60,1068,17113.46,26.79,-1.00,-1.0,2372
2158,2137158,17068,-152,1036,17100.09,26.74,-1.00,-1.0,2440
2161,2137161,17016,-28,1092,17051.03,26.69,-1.00,-1.0,2383
2166,2137166,16976,-96,1084,17010.85,26.88,-1.00,-1.0,2459
2169,2137169,16988,12,1120,17024.88,26.69,-1.00,-1.0,2375
2172,2137172,17072,-136,1128,17109.77,26.74,-1.00,-1.0,2442
2174,2137174,17044,-60,1000,17073.42,26.79,-1.00,-1.0,2369
2177,2137177,17072,-124,1080,17106.58,26.84,-1.00,-1.0,2443
2180,2137180,16988,-96,1004,17017.91,26.69,-1.00,-1.0,2376
2183,2137183,17048,-60,968,17075.56,26.65,-1.00,-1.0,2446
2185,2137185,16904,-52,1076,16938.29,26.69,-1.00,-1.0,2374
2188,2137188,16920,-28,1120,16957.05,26.74,-1.00,-1.0,2362
2193,2137193,17048,20,984,17076.39,26.69,-1.00,-1.0,2458
2196,2137196,17036,12,1036,17067.48,26.69,-1.00,-1.0,2376
2199,2137199,17012,-32,1204,17054.58,26.74,-1.00,-1.0,2442
2201,2137201,16992,-88,1000,17021.63,26.69,-1.00,-1.0,2369
2204,2137204,17020,-68,1032,17051.39,26.74,-1.00,-1.0,2444
2207,2137207,16988,-28,880,17010.80,26.79,-1.00,-1.0,2377
2210,2137210,16988,-64,1120,17025.00,26.74,-1.00,-1.0,2446
2212,2137212,16928,-16,964,16955.43,26.69,-1.00,-1.0,2372
2217,2137217,17024,-144,956,17051.43,26.79,-1.00,-1.0,2445
2220,2137220,17020,-168,1148,17059.50,26.69,-1.00,-1.0,2368
2223,2137223,16992,-36,1152,17031.04,26.79,-1.00,-1.0,2444
2225,2137225,16984,0,1060,17017.05,26.69,-1.00,-1.0,2367
2228,2137228,17020,-92,1084,17054.73,26.69,-1.00,-1.0,2367
2231,2137231,17048,-40,1032,17079.25,26.65,-1.00,-1.0,2444
2233,2137233,17112,-116,1028,17143.24,26.69,-1.00,-1.0,2369
2236,2137236,17016,-80,1080,17050.43,26.74,-1.00,-1.0,2447
2239,2137239,17080,-124,1088,17115.07,26.74,-1.00,-1.0,2367
2244,2137244,17044,-148,1044,17076.59,26.74,-1.00,-1.0,2451
2247,2137247,17068,-12,948,17094.31,26.84,-1.00,-1.0,2371
2250,2137250,17012,-32,1140,17050.18,26.84,-1.00,-1.0,2441
2252,2137252,16932,12,972,16959.88,26.74,-1.00,-1.0,2378
2255,2137255,16972,-72,1020,17002.78,26.84,-1.00,-1.0,2433
2258,2137258,16988,-12,1100,17023.58,26.74,-1.00,-1.0,2371
2260,2137260,17060,-92,1132,17097.76,26.69,-1.00,-1.0,2361
2263,2137263,16960,-4,944,16986.25,26.69,-1.00,-1.0,2433
2266,2137266,17040,-72,1080,17074.34,26.65,-1.00,-1.0,2368
2271,2137271,16896,4,1116,16932.82,26.74,-1.00,-1.0,2446
2274,2137274,17072,-128,1048,17104.62,26.74,-1.00,-1.0,2367
2277,2137277,17008,-188,1016,17039.36,26.79,-1.00,-1.0,2428
2279,2137279,17000,-116,976,17028.39,26.84,-1.00,-1.0,2376
2282,2137282,17032,-80,1100,17067.67,26.84,-1.00,-1.0,2434
2285,2137285,16984,-116,1080,17018.70,26.65,-1.00,-1.0,2354
2288,2137288,17020,-76,1108,17056.20,26.69,-1.00,-1.0,2444
2290,2137290,17060,-76,1084,17094.57,26.84,-1.00,-1.0,2379
2295,2137295,17012,-32,1108,17048.07,26.65,-1.00,-1.0,2441
2298,2137298,17048,48,952,17074.63,26.84,-1.00,-1.0,2367
2301,2137301,16976,-72,1148,17014.92,26.74,-1.00,-1.0,2365
2303,2137303,17060,-40,1040,17091.72,26.69,-1.00,-1.0,2437
2306,2137306,17020,-28,1060,17053.00,26.74,-1.00,-1.0,2384
2309,2137309,16992,-52,1068,17025.61,26.79,-1.00,-1.0,2437
2312,2137312,17112,-88,1028,17143.08,26.74,-1.00,-1.0,2372
2314,2137314,17156,-56,1092,17190.81,26.79,-1.00,-1.0,2438
2317,2137317,17088,-64,936,17113.73,26.74,-1.00,-1.0,2368
2322,2137322,16972,-44,968,16999.64,26.74,-1.00,-1.0,2449
2325,2137325,16884,-84,964,16911.71,26.74,-1.00,-1.0,2377
2328,2137328,17056,-100,968,17083.74,26.79,-1.00,-1.0,2447
2330,2137330,16968,-56,1092,17003.20,26.74,-1.00,-1.0,2372
2333,2137333,17052,-40,1096,17087.23,26.69,-1.00,-1.0,2361
2336,2137336,17064,-48,868,17086.13,26.79,-1.00,-1.0,2441
2338,2137338,17068,-36,1072,17101.67,26.79,-1.00,-1.0,2377
2341,2137341,16956,-8,1140,16994.28,26.79,-1.00,-1.0,2446
2344,2137344,17016,-104,1044,17048.31,26.74,-1.00,-1.0,2368
2349,2137349,17072,-112,1100,17107.77,26.74,-1.00,-1.0,2443
2352,2137352,17052,8,924,17077.02,26.84,-1.00,-1.0,2365
2355,2137355,17060,-100,1028,17091.24,26.79,-1.00,-1.0,2434
2357,2137357,17020,-52,1020,17050.62,26.74,-1.00,-1.0,2370
2360,2137360,17052,-76,1040,17083.85,26.84,-1.00,-1.0,2442
2363,2137363,16968,-100,1056,17001.12,26.74,-1.00,-1.0,2376
2366,2137366,17112,-52,1004,17141.51,26.74,-1.00,-1.0,2432
2368,2137368,17004,-92,1068,17037.76,26.74,-1.00,-1.0,2370
2371,2137371,17060,-44,988,17088.64,26.65,-1.00,-1.0,2360
2376,2137376,17060,-56,1096,17095.26,26.74,-1.00,-1.0,2443
2379,2137379,17036,-48,1216,17079.41,26.74,-1.00,-1.0,2367
2382,2137382,16904,-88,1060,16937.43,26.65,-1.00,-1.0,2443
2384,2137384,17012,-132,1124,17049.60,26.74,-1.00,-1.0,2367
2387,2137387,16984,-52,1132,17021.76,26.65,-1.00,-1.0,2437
2390,2137390,17008,-80,1024,17038.99,26.74,-1.00,-1.0,2368
2393,2137393,17040,8,1120,17076.77,26.65,-1.00,-1.0,2441
2395,2137395,17068,0,1004,17097.50,26.74,-1.00,-1.0,2367
2400,2137400,16976,-68,1076,17010.20,26.74,-1.00,-1.0,2442
2403,2137403,17112,-72,1076,17145.95,26.69,-1.00,-1.0,2370
2406,2137406,16976,-56,1076,17010.16,26.84,-1.00,-1.0,2419
2409,2137409,16976,-64,1132,17013.82,26.88,-1.00,-1.0,2368
2411,2137411,16960,-136,1112,16996.96,26.74,-1.00,-1.0,2359
2414,2137414,16968,-92,1040,17000.09,26.74,-1.00,-1.0,2437
2417,2137417,17052,-52,1076,17085.99,26.74,-1.00,-1.0,2368
2419,2137419,17048,-64,1112,17084.35,26.65,-1.00,-1.0,2432
2422,2137422,16972,-12,1000,17001.44,26.79,-1.00,-1.0,2375
2427,2137427,17016,24,1128,17053.36,26.69,-1.00,-1.0,2450
2430,2137430,17048,-44,1008,17077.83,26.79,-1.00,-1.0,2376
2433,2137433,17056,12,1096,17091.18,26.69,-1.00,-1.0,2423
2436,2137436,17040,-84,1012,17070.23,26.69,-1.00,-1.0,2367
2438,2137438,17028,-68,1156,17067.33,26.69,-1.00,-1.0,2443
2441,2137441,17000,-156,1044,17032.74,26.74,-1.00,-1.0,2368
2444,2137444,17020,-144,1184,17061.74,26.69,-1.00,-1.0,2440
2446,2137446,17068,-56,988,17096.66,26.69,-1.00,-1.0,2367
2449,2137449,17064,-84,900,17087.92,26.84,-1.00,-1.0,2367
2454,2137454,16960,-40,1112,16996.46,26.65,-1.00,-1.0,2453
2457,2137457,16920,-168,944,16947.15,26.69,-1.00,-1.0,2383
2460,2137460,17064,-136,1036,17095.96,26.74,-1.00,-1.0,2435
2463,2137463,16964,0,964,16991.37,26.69,-1.00,-1.0,2373
2465,2137465,17056,-16,1068,17089.41,26.74,-1.00,-1.0,2437
2468,2137468,16912,-100,1132,16950.14,26.69,-1.00,-1.0,2373
2471,2137471,17060,-72,892,17083.46,26.74,-1.00,-1.0,2422
2474,2137474,16992,28,1068,17025.55,26.79,-1.00,-1.0,2367
2479,2137479,17020,-92,1020,17050.79,26.69,-1.00,-1.0,2443
2481,2137481,17020,-8,1012,17050.06,26.69,-1.00,-1.0,2368
2484,2137484,17100,-20,1104,17135.61,26.69,-1.00,-1.0,2368
2487,2137487,17076,-64,1044,17108.00,26.74,-1.00,-1.0,2442
2489,2137489,17012,36,1104,17047.82,26.69,-1.00,-1.0,2374
2492,2137492,17028,-8,1136,17065.85,26.74,-1.00,-1.0,2441
2495,2137495,17016,-28,1096,17051.28,26.79,-1.00,-1.0,2375
2498,2137498,16968,12,1120,17004.93,26.74,-1.00,-1.0,2444
2500,2137500,17020,-136,1180,17061.40,26.74,-1.00,-1.0,2368
2505,2137505,16980,-56,1008,17009.98,26.84,-1.00,-1.0,2440
2508,2137508,17024,-20,1116,17060.55,26.74,-1.00,-1.0,2369
2511,2137511,17000,-76,1036,17031.71,26.84,-1.00,-1.0,2434
2514,2137514,16892,36,1068,16925.77,26.84,-1.00,-1.0,2369
2516,2137516,16988,-56,1096,17023.41,26.69,-1.00,-1.0,2433
2519,2137519,17064,-84,1020,17094.66,26.84,-1.00,-1.0,2370
2522,2137522,17072,-128,1128,17109.70,26.69,-1.00,-1.0,2359
2524,2137524,17028,-84,1084,17062.68,26.69,-1.00,-1.0,2434
2527,2137527,17008,-72,1108,17044.21,26.79,-1.00,-1.0,2368
2533,2137533,17016,-112,1148,17055.05,26.79,-1.00,-1.0,2441
2536,2137536,16964,44,1040,16995.91,26.74,-1.00,-1.0,2367
2539,2137539,17032,-140,1032,17063.81,26.69,-1.00,-1.0,2441
2541,2137541,17028,-136,1100,17064.04,26.65,-1.00,-1.0,2355
2544,2137544,16988,-92,1088,17023.05,26.69,-1.00,-1.0,2434
2547,2137547,16888,-100,1028,16919.55,26.74,-1.00,-1.0,2369
2550,2137550,17080,-36,1096,17115.17,26.79,-1.00,-1.0,2428
2552,2137552,17060,-100,1080,17094.44,26.74,-1.00,-1.0,2376
2557,2137557,17032,-92,1108,17068.25,26.69,-1.00,-1.0,2441
2560,2137560,17016,-116,1004,17045.99,26.84,-1.00,-1.0,2370
2562,2137562,17056,-48,1076,17089.97,26.79,-1.00,-1.0,2360
2565,2137565,17116,-36,936,17141.61,26.74,-1.00,-1.0,2435
2568,2137568,17036,-60,956,17062.91,26.79,-1.00,-1.0,2368
2571,2137571,16984,56,1140,17022.31,26.79,-1.00,-1.0,2440
2573,2137573,16940,-104,1084,16974.97,26.79,-1.00,-1.0,2367
2576,2137576,16980,-8,1144,17018.50,26.79,-1.00,-1.0,2434
2579,2137579,16976,-24,1040,17007.84,26.79,-1.00,-1.0,2368
2584,2137584,16948,-84,1072,16982.08,26.65,-1.00,-1.0,2445
2587,2137587,16984,-80,976,17012.21,26.65,-1.00,-1.0,2379
2589,2137589,17052,-36,940,17077.93,26.69,-1.00,-1.0,2436
2592,2137592,17016,-16,1076,17049.99,26.74,-1.00,-1.0,2385
2595,2137595,16940,-116,1020,16971.08,26.79,-1.00,-1.0,2436
2598,2137598,17048,-76,1072,17081.84,26.84,-1.00,-1.0,2372
2600,2137600,17048,-200,876,17071.66,26.69,-1.00,-1.0,2359
2603,2137603,17008,-100,1068,17041.79,26.69,-1.00,-1.0,2433
2606,2137606,17056,-104,1064,17089.47,26.79,-1.00,-1.0,2371
2611,2137611,17020,-84,1016,17050.50,26.69,-1.00,-1.0,2445
2613,2137613,17004,-40,1088,17038.82,26.74,-1.00,-1.0,2378
2616,2137616,17004,-92,1040,17036.02,26.79,-1.00,-1.0,2440
2619,2137619,17080,-88,1128,17117.43,26.84,-1.00,-1.0,2377
2622,2137622,17016,-124,1260,17063.04,26.79,-1.00,-1.0,2444
2624,2137624,16992,20,1120,17028.88,26.69,-1.00,-1.0,2378
2627,2137627,17036,-12,992,17064.86,26.69,-1.00,-1.0,2442
2630,2137630,17064,-84,1188,17105.51,26.84,-1.00,-1.0,2377
2635,2137635,17012,-16,1140,17050.16,26.74,-1.00,-1.0,2447
2637,2137637,17068,-140,1168,17108.49,26.74,-1.00,-1.0,2368
2640,2137640,17036,12,1088,17070.71,26.79,-1.00,-1.0,2374
2643,2137643,17036,-36,1044,17068.00,26.69,-1.00,-1.0,2435
2646,2137646,17036,-56,904,17060.06,26.79,-1.00,-1.0,2379
2648,2137648,17072,-88,1056,17104.86,26.69,-1.00,-1.0,2440
2651,2137651,17000,-92,1128,17037.63,26.69,-1.00,-1.0,2376
2654,2137654,16948,-112,968,16975.99,26.69,-1.00,-1.0,2434
2657,2137657,17020,12,844,17040.92,26.69,-1.00,-1.0,2376
2662,2137662,17032,-80,940,17058.11,26.79,-1.00,-1.0,2441
2664,2137664,17060,-160,948,17087.07,26.74,-1.00,-1.0,2369
2667,2137667,17056,48,1036,17087.50,26.79,-1.00,-1.0,2448
2670,2137670,17088,-16,1152,17126.79,26.74,-1.00,-1.0,2377
2672,2137672,17104,-40,960,17130.97,26.69,-1.00,-1.0,2368
2675,2137675,17000,-52,1164,17039.88,26.79,-1.00,-1.0,2439
2678,2137678,17020,-124,1200,17062.70,26.69,-1.00,-1.0,2372
2681,2137681,16896,-168,1044,16929.06,26.74,-1.00,-1.0,2437
2684,2137684,16980,-64,1076,17014.18,26.69,-1.00,-1.0,2372
2689,2137689,17020,-80,908,17044.39,26.69,-1.00,-1.0,2446
2691,2137691,17064,-4,1104,17099.68,26.79,-1.00,-1.0,2371
2694,2137694,17000,-52,1044,17032.11,26.69,-1.00,-1.0,2445
2697,2137697,16960,-36,1072,16993.88,26.74,-1.00,-1.0,2375
2700,2137700,17028,-88,1096,17063.46,26.79,-1.00,-1.0,2444
2702,2137702,17048,-124,996,17077.52,26.69,-1.00,-1.0,2372
2705,2137705,17064,-36,1116,17100.49,26.88,-1.00,-1.0,2444
2708,2137708,17024,12,1128,17061.33,26.74,-1.00,-1.0,2378
2711,2137711,16992,-168,1104,17028.66,26.69,-1.00,-1.0,2360
2716,2137716,16948,-28,1020,16978.69,26.79,-1.00,-1.0,2449
2718,2137718,17052,-108,1076,17086.26,26.79,-1.00,-1.0,2375
2721,2137721,16888,-64,984,16916.76,26.69,-1.00,-1.0,2428
2724,2137724,17028,-68,1184,17069.25,26.79,-1.00,-1.0,2377
2727,2137727,16932,-76,1108,16968.38,26.69,-1.00,-1.0,2444
2729,2137729,17056,-20,1012,17086.01,26.79,-1.00,-1.0,2371
2732,2137732,17068,-76,1128,17105.40,26.69,-1.00,-1.0,2447
2735,2137735,16968,-4,1192,17009.82,26.79,-1.00,-1.0,2375
2740,2137740,16964,-88,1000,16993.68,26.74,-1.00,-1.0,2447
2742,2137742,17032,-116,936,17058.09,26.79,-1.00,-1.0,2377
2745,2137745,16964,36,1088,16998.89,26.74,-1.00,-1.0,2440
2748,2137748,17076,-72,1104,17111.80,26.79,-1.00,-1.0,2371
2750,2137750,17024,-64,1032,17055.37,26.74,-1.00,-1.0,2362
2753,2137753,17020,-160,1208,17063.56,26.74,-1.00,-1.0,2432
2756,2137756,16948,-36,1124,16985.27,26.65,-1.00,-1.0,2372
2759,2137759,16976,-48,1192,17017.87,26.65,-1.00,-1.0,2431
2762,2137762,17028,-116,1112,17064.66,26.74,-1.00,-1.0,2367
2766,2137766,17004,-100,1020,17034.86,26.69,-1.00,-1.0,2443
2769,2137769,17036,-48,1140,17074.17,26.65,-1.00,-1.0,2370
2772,2137772,17008,-200,1208,17052.02,26.79,-1.00,-1.0,2432
2775,2137775,16912,52,900,16936.01,26.74,-1.00,-1.0,2367
2777,2137777,17012,-132,1036,17044.03,26.69,-1.00,-1.0,2433
2780,2137780,16944,-132,1044,16976.65,26.84,-1.00,-1.0,2370
2783,2137783,16944,-108,1056,16977.22,26.79,-1.00,-1.0,2432
2786,2137786,17112,-72,1016,17142.29,26.74,-1.00,-1.0,2367
2789,2137789,17016,-100,1208,17059.12,26.74,-1.00,-1.0,2359
2794,2137794,16972,-52,1092,17007.17,26.74,-1.00,-1.0,2442
2796,2137796,16940,-144,1024,16971.53,26.74,-1.00,-1.0,2372
2799,2137799,17028,-88,1060,17061.19,26.79,-1.00,-1.0,2433
2802,2137802,17000,-24,1072,17033.78,26.74,-1.00,-1.0,2369
2805,2137805,17024,-8,1012,17054.05,26.84,-1.00,-1.0,2434
2807,2137807,17008,-68,896,17031.72,26.74,-1.00,-1.0,2376
2810,2137810,17048,-84,1028,17079.17,26.79,-1.00,-1.0,2433
2813,2137813,16948,-48,892,16971.53,26.74,-1.00,-1.0,2370
2818,2137818,17048,-48,1148,17086.68,26.65,-1.00,-1.0,2446
2821,2137821,16980,-132,1164,17020.36,26.65,-1.00,-1.0,2375
2823,2137823,17020,-40,1076,17054.03,26.74,-1.00,-1.0,2436
2826,2137826,17000,-148,980,17028.87,26.74,-1.00,-1.0,2375
2829,2137829,17008,-24,1160,17047.53,26.84,-1.00,-1.0,2360
2831,2137831,17032,-20,1016,17062.29,26.79,-1.00,-1.0,2434
2834,2137834,17044,-52,996,17073.16,26.74,-1.00,-1.0,2357
2837,2137837,17056,-40,1192,17097.65,26.69,-1.00,-1.0,2432
2840,2137840,16972,-84,1088,17007.04,26.69,-1.00,-1.0,2374
2845,2137845,17036,40,1044,17068.01,26.69,-1.00,-1.0,2445
2847,2137847,16980,-88,1200,17022.58,26.60,-1.00,-1.0,2370
2850,2137850,16932,-132,1216,16976.12,26.74,-1.00,-1.0,2436
2853,2137853,17020,104,1040,17052.06,26.69,-1.00,-1.0,2368
2856,2137856,17020,-28,1012,17050.08,26.74,-1.00,-1.0,2436
2858,2137858,17016,-72,1276,17063.93,26.79,-1.00,-1.0,2370
2861,2137861,17028,-72,1168,17068.16,26.88,-1.00,-1.0,2433
2864,2137864,17072,0,1192,17113.56,26.79,-1.00,-1.0,2357
2867,2137867,16988,-68,1060,17021.17,26.84,-1.00,-1.0,2369
2872,2137872,16996,-28,1048,17028.30,26.74,-1.00,-1.0,2445
2874,2137874,17016,-40,1088,17050.79,26.69,-1.00,-1.0,2370
2877,2137877,16984,-20,1188,17025.51,26.74,-1.00,-1.0,2433
2880,2137880,16856,8,1076,16890.31,26.69,-1.00,-1.0,2368
2883,2137883,17052,-40,988,17080.64,26.65,-1.00,-1.0,2436
2885,2137885,17088,-196,1020,17119.54,26.88,-1.00,-1.0,2369
2888,2137888,16988,-68,1120,17025.02,26.74,-1.00,-1.0,2434
2891,2137891,16960,-64,1108,16996.28,26.79,-1.00,-1.0,2368
2896,2137896,16904,-80,1096,16939.68,26.69,-1.00,-1.0,2443
2899,2137899,17028,-36,948,17054.41,26.79,-1.00,-1.0,2369
2901,2137901,16984,-48,1124,17021.22,26.79,-1.00,-1.0,2348
2904,2137904,16996,-120,1140,17034.61,26.74,-1.00,-1.0,2432
2907,2137907,17020,-68,1028,17051.15,26.69,-1.00,-1.0,2368
2909,2137909,17036,-112,1064,17069.56,26.74,-1.00,-1.0,2431
2912,2137912,17048,-104,1120,17085.07,26.69,-1.00,-1.0,2368
2915,2137915,17004,-124,944,17030.63,26.74,-1.00,-1.0,2433
2918,2137918,16984,-52,1144,17022.56,26.69,-1.00,-1.0,2355
2923,2137923,16916,-36,1040,16947.98,26.69,-1.00,-1.0,2449
2925,2137925,17048,-52,1032,17079.29,26.74,-1.00,-1.0,2368
2928,2137928,17096,-12,1072,17129.58,26.69,-1.00,-1.0,2443
2931,2137931,16968,16,1116,17004.67,26.74,-1.00,-1.0,2370
2934,2137934,17084,-100,960,17111.24,26.69,-1.00,-1.0,2439
2936,2137936,17036,28,896,17059.57,26.84,-1.00,-1.0,2368
2939,2137939,17044,-88,1144,17082.58,26.79,-1.00,-1.0,2374
2942,2137942,16976,-32,1128,17013.46,26.79,-1.00,-1.0,2433
2945,2137945,17116,-148,1092,17151.44,26.69,-1.00,-1.0,2356
2950,2137950,17012,-8,1032,17043.28,26.74,-1.00,-1.0,2441
2952,2137952,17056,-148,1056,17089.30,26.79,-1.00,-1.0,2355
2955,2137955,17036,-88,1020,17066.73,26.74,-1.00,-1.0,2432
2958,2137958,16968,28,912,16992.51,26.69,-1.00,-1.0,2372
2961,2137961,16908,-48,1096,16943.55,26.74,-1.00,-1.0,2425
2963,2137963,17096,0,1024,17126.64,26.69,-1.00,-1.0,2376
2966,2137966,16952,-152,1100,16988.33,26.84,-1.00,-1.0,2432
2969,2137969,16992,76,1156,17031.45,26.79,-1.00,-1.0,2370
2974,2137974,17084,-40,1244,17129.28,26.69,-1.00,-1.0,2446
2977,2137977,16960,-64,1044,16992.22,26.69,-1.00,-1.0,2377
2979,2137979,17000,-144,1016,17030.94,26.74,-1.00,-1.0,2360
2982,2137982,16984,-40,1060,17017.09,26.74,-1.00,-1.0,2432
2985,2137985,16972,-88,1032,17003.57,26.65,-1.00,-1.0,2368
2987,2137987,17052,-56,1028,17083.05,26.74,-1.00,-1.0,2431
2990,2137990,16920,-48,1016,16950.54,26.74,-1.00,-1.0,2368
2993,2137993,17000,-152,1024,17031.49,26.74,-1.00,-1.0,2433
2996,2137996,17000,-32,1076,17034.05,26.65,-1.00,-1.0,2368
3001,2138001,16996,-24,1148,17034.74,26.74,-1.00,-1.0,2441
3004,2138004,17008,-44,1008,17037.90,26.69,-1.00,-1.0,2377
3006,2138006,17060,-84,1064,17093.35,26.84,-1.00,-1.0,2421
3009,2138009,17024,-16,1052,17056.48,26.79,-1.00,-1.0,2384
3012,2138012,17068,-184,1160,17108.36,26.74,-1.00,-1.0,2434
3015,2138015,17028,-124,1252,17074.42,26.69,-1.00,-1.0,2373
3017,2138017,17056,-12,1128,17093.26,26.74,-1.00,-1.0,2359
3020,2138020,17052,-20,1084,17086.43,26.69,-1.00,-1.0,2432
3023,2138023,16996,-76,1108,17032.25,26.74,-1.00,-1.0,2371
3028,2138028,17036,-52,1260,17082.61,26.74,-1.00,-1.0,2440
3031,2138031,17008,-232,1144,17048.01,26.74,-1.00,-1.0,2367
3033,2138033,17132,-52,1044,17163.86,26.74,-1.00,-1.0,2433
3036,2138036,17028,-20,1060,17060.97,26.74,-1.00,-1.0,2357
3039,2138039,16992,-52,1096,17027.39,26.74,-1.00,-1.0,2434
3042,2138042,16912,16,1100,16947.74,26.74,-1.00,-1.0,2375
3044,2138044,16984,-12,1028,17015.09,26.74,-1.00,-1.0,2436
3047,2138047,16976,-92,1088,17011.08,26.84,-1.00,-1.0,2384
3052,2138052,17056,-64,988,17084.71,26.74,-1.00,-1.0,2455
3055,2138055,17036,-48,1188,17077.44,26.79,-1.00,-1.0,2377
3057,2138057,17032,-108,1060,17065.29,26.74,-1.00,-1.0,2367
3060,2138060,16988,-76,1016,17018.53,26.74,-1.00,-1.0,2432
3063,2138063,16956,-40,952,16982.75,26.74,-1.00,-1.0,2370
3066,2138066,17008,-48,932,17033.58,26.74,-1.00,-1.0,2439
3068,2138068,16976,-88,1016,17006.60,26.74,-1.00,-1.0,2377
3071,2138071,17160,-52,992,17188.73,26.84,-1.00,-1.0,2432
3074,2138074,16968,-48,956,16994.98,26.79,-1.00,-1.0,2370
3079,2138079,17040,-8,1112,17076.25,26.69,-1.00,-1.0,2441
3082,2138082,17096,12,1100,17131.36,26.74,-1.00,-1.0,2367
3084,2138084,17036,16,1088,17070.71,26.69,-1.00,-1.0,2433
3087,2138087,17028,16,996,17057.11,26.74,-1.00,-1.0,2369
3090,2138090,17028,44,1000,17057.39,26.79,-1.00,-1.0,2368
3093,2138093,16912,-76,1148,16951.09,26.69,-1.00,-1.0,2432
3095,2138095,16988,-32,1068,17021.57,26.79,-1.00,-1.0,2370
3098,2138098,16988,-116,1092,17023.46,26.74,-1.00,-1.0,2447
3101,2138101,17052,-80,1124,17089.19,26.69,-1.00,-1.0,2368
3106,2138106,17016,-68,1104,17051.91,26.79,-1.00,-1.0,2443
3109,2138109,17212,-116,1024,17242.82,26.69,-1.00,-1.0,2369
3111,2138111,16984,-104,1056,17017.12,26.79,-1.00,-1.0,2431
3114,2138114,17060,-84,1020,17090.67,26.79,-1.00,-1.0,2369
3117,2138117,17040,-92,920,17065.07,26.69,-1.00,-1.0,2433
3120,2138120,17052,-76,1092,17087.10,26.69,-1.00,-1.0,2371
3122,2138122,17092,-44,1048,17124.16,26.79,-1.00,-1.0,2419
3125,2138125,17008,-88,1020,17038.79,26.69,-1.00,-1.0,2368
3128,2138128,17124,-80,1100,17159.48,26.74,-1.00,-1.0,2367
3133,2138133,17040,-92,1216,17083.58,26.74,-1.00,-1.0,2443
3136,2138136,16992,-172,1012,17022.98,26.69,-1.00,-1.0,2377
3139,2138139,17048,8,1044,17079.94,26.65,-1.00,-1.0,2432
3141,2138141,17056,4,1192,17097.60,26.69,-1.00,-1.0,2368
3144,2138144,17000,-28,1104,17035.83,26.74,-1.00,-1.0,2432
3147,2138147,17036,-84,1148,17074.84,26.69,-1.00,-1.0,2368
3149,2138149,17028,-64,944,17054.27,26.74,-1.00,-1.0,2431
3152,2138152,16992,-68,920,17017.02,26.88,-1.00,-1.0,2368
3157,2138157,16932,-100,1068,16965.94,26.84,-1.00,-1.0,2443
3160,2138160,17000,-136,1284,17048.96,26.79,-1.00,-1.0,2369
3162,2138162,17000,-76,1076,17034.19,26.74,-1.00,-1.0,2362
3165,2138165,17080,-24,1064,17113.12,26.79,-1.00,-1.0,2448
3168,2138168,17076,-96,1076,17110.14,26.69,-1.00,-1.0,2425
3171,2138171,17068,-8,1148,17106.57,26.74,-1.00,-1.0,2438
3173,2138173,16928,-72,1112,16964.64,26.74,-1.00,-1.0,2360
3176,2138176,16992,24,1116,17028.62,26.65,-1.00,-1.0,2433
3179,2138179,17012,-160,1072,17046.49,26.79,-1.00,-1.0,2425
3184,2138184,17096,88,1036,17127.59,26.74,-1.00,-1.0,2445
3187,2138187,16956,-52,1064,16989.43,26.84,-1.00,-1.0,2375
3190,2138190,17008,-84,1060,17041.21,26.74,-1.00,-1.0,2436
3192,2138192,16912,-64,1204,16954.92,26.74,-1.00,-1.0,2370
3195,2138195,16952,-48,1124,16989.29,26.74,-1.00,-1.0,2440
3198,2138198,17072,-12,1116,17108.44,26.74,-1.00,-1.0,2373
3200,2138200,16988,-48,1156,17027.35,26.74,-1.00,-1.0,2371
3203,2138203,17052,-156,1148,17091.31,26.69,-1.00,-1.0,2434
3206,2138206,16920,-28,1004,16949.79,26.79,-1.00,-1.0,2370
3211,2138211,17016,-168,1108,17052.86,26.79,-1.00,-1.0,2434
3214,2138214,17088,-76,1060,17121.01,26.69,-1.00,-1.0,2375
3217,2138217,16964,-12,1044,16996.10,26.79,-1.00,-1.0,2444
3219,2138219,17008,-112,1028,17039.41,26.74,-1.00,-1.0,2377
3222,2138222,17012,-84,1068,17045.70,26.79,-1.00,-1.0,2440
3225,2138225,16972,-108,1016,17002.73,26.79,-1.00,-1.0,2375
3228,2138228,17024,44,1168,17064.08,26.69,-1.00,-1.0,2446
3230,2138230,17040,-52,1140,17078.17,26.74,-1.00,-1.0,2376
3235,2138235,17008,-16,1032,17039.29,26.74,-1.00,-1.0,2451
3238,2138238,17092,-144,1036,17123.97,26.74,-1.00,-1.0,2367
3241,2138241,17016,-132,968,17044.02,26.69,-1.00,-1.0,2362
3243,2138243,17112,-44,1076,17145.85,26.74,-1.00,-1.0,2437
3246,2138246,16984,-80,1000,17013.60,26.69,-1.00,-1.0,2383
3249,2138249,16992,-28,1064,17025.30,26.74,-1.00,-1.0,2434
3252,2138252,16964,-36,1152,17003.11,26.69,-1.00,-1.0,2372
3254,2138254,16988,-192,1212,17032.26,26.88,-1.00,-1.0,2437
3257,2138257,17020,-48,1020,17050.60,26.65,-1.00,-1.0,2367
3262,2138262,16960,-100,1080,16994.65,26.74,-1.00,-1.0,2441
3265,2138265,17096,4,1076,17129.83,26.69,-1.00,-1.0,2370
3268,2138268,17020,-48,860,17041.78,26.74,-1.00,-1.0,2434
3270,2138270,17012,88,1200,17054.50,26.79,-1.00,-1.0,2375
3273,2138273,17008,-88,1196,17050.23,26.74,-1.00,-1.0,2434
3276,2138276,17076,-44,1156,17115.14,26.69,-1.00,-1.0,2354
3278,2138278,16972,-52,1132,17009.79,26.74,-1.00,-1.0,2360
3281,2138281,17040,-40,1084,17074.49,26.74,-1.00,-1.0,2434
3284,2138284,17052,-4,1060,17084.91,26.74,-1.00,-1.0,2354
3289,2138289,16988,-112,1020,17018.96,26.74,-1.00,-1.0,2441
3292,2138292,17088,0,1036,17119.38,26.74,-1.00,-1.0,2366
3295,2138295,17016,-28,1008,17045.85,26.84,-1.00,-1.0,2433
3297,2138297,17088,-64,1140,17126.10,26.74,-1.00,-1.0,2370
3300,2138300,16992,-96,1156,17031.55,26.74,-1.00,-1.0,2433
3303,2138303,17056,-100,1060,17089.20,26.74,-1.00,-1.0,2354
3306,2138306,16992,-56,1136,17030.02,26.74,-1.00,-1.0,2443
3308,2138308,17028,-24,1164,17067.75,26.74,-1.00,-1.0,2376
3313,2138313,16976,4,996,17005.19,26.74,-1.00,-1.0,2451
3316,2138316,17136,-52,1112,17172.12,26.79,-1.00,-1.0,2373
3319,2138319,16928,-40,1152,16967.20,26.74,-1.00,-1.0,2360
3321,2138321,16956,-52,1160,16995.71,26.74,-1.00,-1.0,2434
3324,2138324,16972,-96,1228,17016.64,26.74,-1.00,-1.0,2370
3327,2138327,16980,-52,1052,17012.64,26.74,-1.00,-1.0,2433
3330,2138330,16956,-180,1188,16998.52,26.65,-1.00,-1.0,2370
3332,2138332,16892,-92,944,16918.61,26.65,-1.00,-1.0,2438
3335,2138335,17068,-20,1132,17105.51,26.69,-1.00,-1.0,2370
3340,2138340,17124,-4,1144,17162.17,26.74,-1.00,-1.0,2443
3343,2138343,17064,-52,1112,17100.27,26.69,-1.00,-1.0,2368
3346,2138346,17000,56,1044,17032.12,26.69,-1.00,-1.0,2436
3348,2138348,17084,-100,1076,17118.14,26.84,-1.00,-1.0,2369
3351,2138351,17008,-8,1044,17040.01,26.69,-1.00,-1.0,2360
3354,2138354,16932,24,1048,16964.42,26.79,-1.00,-1.0,2438
3356,2138356,17072,-28,1020,17102.47,26.69,-1.00,-1.0,2368
3359,2138359,17036,-112,1076,17070.31,26.65,-1.00,-1.0,2442
3362,2138362,16996,-160,1068,17030.27,26.69,-1.00,-1.0,2372
3368,2138368,16932,-112,1064,16965.77,26.74,-1.00,-1.0,2456
3371,2138371,16948,-16,1072,16981.88,26.74,-1.00,-1.0,2366
3373,2138373,16996,4,940,17021.97,26.69,-1.00,-1.0,2434
3376,2138376,17008,-112,944,17034.54,26.65,-1.00,-1.0,2372
3379,2138379,17028,-96,992,17057.14,26.69,-1.00,-1.0,2431
3382,2138382,17020,-72,1016,17050.45,26.84,-1.00,-1.0,2365
3384,2138384,17076,-52,1152,17114.89,26.84,-1.00,-1.0,2421
3387,2138387,17100,-44,1012,17129.98,26.74,-1.00,-1.0,2384
3390,2138390,17000,-64,1156,17039.38,26.69,-1.00,-1.0,2360
3394,2138394,16920,-52,1140,16958.44,26.69,-1.00,-1.0,2441
3397,2138397,17044,-104,1204,17086.79,26.79,-1.00,-1.0,2369
3400,2138400,17020,-72,1032,17051.41,26.79,-1.00,-1.0,2432
3403,2138403,17020,-48,1048,17052.30,26.79,-1.00,-1.0,2369
3405,2138405,16996,-96,1076,17030.30,26.79,-1.00,-1.0,2421
3408,2138408,16968,-72,1108,17004.29,26.74,-1.00,-1.0,2369
3411,2138411,17044,-92,1024,17074.98,26.69,-1.00,-1.0,2431
3414,2138414,17072,-92,1028,17103.17,26.79,-1.00,-1.0,2367
3419,2138419,16996,-100,1088,17031.08,26.74,-1.00,-1.0,2447
3422,2138422,16992,-104,1244,17037.79,26.74,-1.00,-1.0,2369
3424,2138424,17044,-60,1124,17081.13,26.74,-1.00,-1.0,2442
3427,2138427,17064,-64,864,17085.98,26.74,-1.00,-1.0,2368
3430,2138430,17064,-64,1108,17100.05,26.65,-1.00,-1.0,2362
3432,2138432,17060,-96,1096,17095.44,26.79,-1.00,-1.0,2421
3435,2138435,17092,-36,1144,17130.28,26.74,-1.00,-1.0,2384
3438,2138438,16992,-92,1080,17026.54,26.79,-1.00,-1.0,2433
3441,2138441,17032,-116,1124,17069.44,26.74,-1.00,-1.0,2372
3446,2138446,17028,16,1176,17068.57,26.74,-1.00,-1.0,2443
3448,2138448,17104,-72,1044,17135.98,26.74,-1.00,-1.0,2368
3451,2138451,17068,-48,1088,17102.71,26.74,-1.00,-1.0,2431
3454,2138454,16908,-192,1176,16949.94,26.84,-1.00,-1.0,2374
3457,2138457,17036,-76,988,17064.79,26.84,-1.00,-1.0,2434
3459,2138459,17024,-72,912,17048.56,26.74,-1.00,-1.0,2369
3462,2138462,17072,32,1056,17104.66,26.74,-1.00,-1.0,2431
3465,2138465,17104,-72,972,17131.75,26.69,-1.00,-1.0,2367
3467,2138467,16980,-72,1188,17021.66,26.79,-1.00,-1.0,2362
3472,2138472,17052,-100,1220,17095.88,26.79,-1.00,-1.0,2452
3475,2138475,17012,-152,1012,17042.75,26.74,-1.00,-1.0,2374
3478,2138478,16932,-40,1068,16965.70,26.69,-1.00,-1.0,2419
3481,2138481,17100,16,1024,17130.64,26.74,-1.00,-1.0,2368
3483,2138483,17032,0,980,17060.17,26.69,-1.00,-1.0,2445
3486,2138486,17060,-96,1012,17090.26,26.74,-1.00,-1.0,2369
3489,2138489,17056,-64,1124,17093.12,26.69,-1.00,-1.0,2441
3491,2138491,17124,64,1072,17157.64,26.84,-1.00,-1.0,2368
3496,2138496,16948,-28,1128,16985.52,26.74,-1.00,-1.0,2443
3499,2138499,16980,-60,1052,17012.66,26.74,-1.00,-1.0,2356
3502,2138502,17008,-64,1064,17041.37,26.74,-1.00,-1.0,2368
3505,2138505,17008,-40,1000,17037.42,26.69,-1.00,-1.0,2433
3507,2138507,17056,-60,1152,17094.96,26.74,-1.00,-1.0,2371
3510,2138510,16976,-60,1128,17013.54,26.74,-1.00,-1.0,2432
3513,2138513,17028,-12,1032,17059.25,26.74,-1.00,-1.0,2374
3516,2138516,17000,-96,1052,17032.79,26.74,-1.00,-1.0,2434
3518,2138518,16860,-124,896,16884.25,26.84,-1.00,-1.0,2370
3523,2138523,16964,-88,1064,16997.56,26.74,-1.00,-1.0,2442
3526,2138526,16980,-164,1084,17015.36,26.79,-1.00,-1.0,2356
3529,2138529,16980,-84,1116,17016.84,26.74,-1.00,-1.0,2432
3532,2138532,16944,-76,1080,16978.55,26.69,-1.00,-1.0,2375
3534,2138534,17000,20,1016,17030.35,26.84,-1.00,-1.0,2434
3537,2138537,16904,-116,1048,16936.85,26.79,-1.00,-1.0,2382
3540,2138540,16976,-32,1052,17008.60,26.84,-1.00,-1.0,2360
3543,2138543,17064,-120,1044,17096.33,26.69,-1.00,-1.0,2433
3545,2138545,17000,-116,1112,17036.72,26.74,-1.00,-1.0,2369
3550,2138550,17044,-112,1148,17082.98,26.74,-1.00,-1.0,2441
3553,2138553,16976,-104,1028,17007.42,26.74,-1.00,-1.0,2367
3556,2138556,17044,-44,1096,17079.26,26.84,-1.00,-1.0,2432
3559,2138559,16964,-48,1108,17000.21,26.79,-1.00,-1.0,2368
3561,2138561,16916,-56,1192,16958.04,26.65,-1.00,-1.0,2432
3564,2138564,17072,-104,1004,17101.81,26.69,-1.00,-1.0,2371
3567,2138567,16972,-40,1024,17002.91,26.74,-1.00,-1.0,2433
3570,2138570,17088,8,1152,17126.79,26.69,-1.00,-1.0,2373
3574,2138574,16968,-120,980,16996.70,26.84,-1.00,-1.0,2441
3577,2138577,17060,-36,1140,17098.08,26.74,-1.00,-1.0,2370
3580,2138580,17016,-104,1060,17049.30,26.84,-1.00,-1.0,2359
3582,2138582,16956,-56,876,16978.71,26.79,-1.00,-1.0,2434
3585,2138585,17060,-152,980,17088.80,26.74,-1.00,-1.0,2369
3588,2138588,16968,16,1120,17004.93,26.84,-1.00,-1.0,2431
3591,2138591,17112,-52,1112,17148.17,26.84,-1.00,-1.0,2367
3594,2138594,16996,-88,980,17024.46,26.79,-1.00,-1.0,2439
3596,2138596,16980,-84,1024,17011.06,26.69,-1.00,-1.0,2369
3601,2138601,16948,-188,972,16976.89,26.69,-1.00,-1.0,2440
3604,2138604,17064,28,1004,17093.53,26.69,-1.00,-1.0,2367
3607,2138607,17028,12,1140,17066.12,26.79,-1.00,-1.0,2441
3609,2138609,17052,-120,1100,17087.86,26.79,-1.00,-1.0,2369
3612,2138612,17044,-88,1092,17079.17,26.74,-1.00,-1.0,2445
3615,2138615,17156,-40,1064,17189.01,26.69,-1.00,-1.0,2368
3618,2138618,17064,-48,1132,17101.57,26.74,-1.00,-1.0,2363
3621,2138621,16968,36,1024,16998.91,26.74,-1.00,-1.0,2441
3624,2138624,17116,-116,1044,17148.20,26.79,-1.00,-1.0,2369
3629,2138629,17108,-136,1088,17143.10,26.79,-1.00,-1.0,2441
3631,2138631,17088,-44,1088,17122.66,26.79,-1.00,-1.0,2368
3634,2138634,17028,-68,1152,17067.06,26.79,-1.00,-1.0,2432
3637,2138637,17032,-156,1068,17066.16,26.69,-1.00,-1.0,2368
3640,2138640,17084,-40,1148,17122.57,26.69,-1.00,-1.0,2432
3642,2138642,16916,-160,1164,16956.76,26.69,-1.00,-1.0,2355
3645,2138645,17012,-108,984,17040.78,26.69,-1.00,-1.0,2433
3648,2138648,16976,-64,1140,17014.36,26.84,-1.00,-1.0,2368
3653,2138653,17016,-12,1184,17057.15,26.74,-1.00,-1.0,2442
3655,2138655,17000,-168,832,17021.18,26.74,-1.00,-1.0,2376
3658,2138658,17060,-72,1048,17092.31,26.74,-1.00,-1.0,2359
3661,2138661,16980,-52,956,17006.97,26.69,-1.00,-1.0,2441
3663,2138663,16972,-112,920,16997.29,26.69,-1.00,-1.0,2370
3666,2138666,17124,-104,1140,17162.22,26.79,-1.00,-1.0,2433
3669,2138669,17024,-80,1048,17056.41,26.74,-1.00,-1.0,2355
3672,2138672,17084,-44,1088,17118.67,26.79,-1.00,-1.0,2441
3675,2138675,17080,-92,928,17105.44,26.74,-1.00,-1.0,2380
3680,2138680,17148,-76,1072,17181.64,26.84,-1.00,-1.0,2448
3682,2138682,16984,-188,1108,17021.14,26.74,-1.00,-1.0,2371
3685,2138685,16996,-120,1016,17026.76,26.84,-1.00,-1.0,2442
3688,2138688,17028,64,1112,17064.39,26.84,-1.00,-1.0,2377
3691,2138691,16956,-108,932,16981.94,26.74,-1.00,-1.0,2443
3693,2138693,16964,-16,980,16992.29,26.74,-1.00,-1.0,2373
3696,2138696,17092,-48,1160,17131.38,26.74,-1.00,-1.0,2363
3699,2138699,16980,-76,1028,17011.26,26.69,-1.00,-1.0,2434
3702,2138702,17048,-64,1016,17078.37,26.74,-1.00,-1.0,2370
3707,2138707,17112,-52,936,17137.66,26.65,-1.00,-1.0,2445
3709,2138709,16932,-104,1052,16964.97,26.74,-1.00,-1.0,2377
3712,2138712,17048,-112,1040,17080.06,26.79,-1.00,-1.0,2432
3715,2138715,17128,-164,1120,17165.36,26.74,-1.00,-1.0,2372
3718,2138718,17052,-120,952,17078.98,26.69,-1.00,-1.0,2440
3720,2138720,17040,-68,1092,17075.09,26.74,-1.00,-1.0,2376
3723,2138723,17072,-80,916,17096.74,26.88,-1.00,-1.0,2439
3726,2138726,17060,-112,1100,17095.79,26.74,-1.00,-1.0,2372
3731,2138731,16984,-56,1124,17021.24,26.74,-1.00,-1.0,2448
3733,2138733,16964,-64,1068,16997.71,26.84,-1.00,-1.0,2368
3736,2138736,17060,-56,1152,17098.94,26.84,-1.00,-1.0,2367
3739,2138739,17008,-80,1160,17047.70,26.69,-1.00,-1.0,2436
3742,2138742,17072,-44,1184,17113.06,26.74,-1.00,-1.0,2380
3744,2138744,17004,-100,1084,17038.81,26.88,-1.00,-1.0,2434
3747,2138747,16972,-96,1100,17007.88,26.74,-1.00,-1.0,2383
3750,2138750,16992,-64,1172,17032.49,26.60,-1.00,-1.0,2436
3753,2138753,17052,-148,1104,17088.34,26.69,-1.00,-1.0,2368
3758,2138758,16936,-72,1112,16972.62,26.79,-1.00,-1.0,2444
3760,2138760,16904,-64,1004,16933.91,26.69,-1.00,-1.0,2376
3763,2138763,17004,-112,1000,17033.75,26.79,-1.00,-1.0,2433
3766,2138766,16960,-168,1068,16994.42,26.69,-1.00,-1.0,2371
3769,2138769,17004,-100,964,17031.60,26.69,-1.00,-1.0,2432
3771,2138771,16924,-128,1012,16954.71,26.79,-1.00,-1.0,2376
3774,2138774,16988,24,1068,17021.55,26.79,-1.00,-1.0,2433
3777,2138777,16996,-76,1100,17031.73,26.79,-1.00,-1.0,2370
3780,2138780,16972,-128,1128,17009.93,26.84,-1.00,-1.0,2360
3785,2138785,16976,-32,1024,17006.89,26.74,-1.00,-1.0,2441
3787,2138787,16976,-128,1092,17011.57,26.65,-1.00,-1.0,2370
3790,2138790,16912,-56,1188,16953.77,26.84,-1.00,-1.0,2431
3793,2138793,16996,-104,1000,17025.71,26.84,-1.00,-1.0,2369
3796,2138796,17036,-132,1016,17066.78,26.65,-1.00,-1.0,2433
3798,2138798,17040,-84,1060,17073.14,26.65,-1.00,-1.0,2356
3801,2138801,17028,-84,980,17056.38,26.74,-1.00,-1.0,2431
3804,2138804,16980,-108,1096,17015.68,26.74,-1.00,-1.0,2374
3809,2138809,16924,-12,1036,16955.68,26.84,-1.00,-1.0,2443
3811,2138811,16972,-4,1172,17012.42,26.74,-1.00,-1.0,2369
3814,2138814,17020,36,1136,17057.91,26.69,-1.00,-1.0,2431
3817,2138817,17052,-164,1096,17087.97,26.74,-1.00,-1.0,2375
3819,2138819,16984,-176,1032,17016.23,26.79,-1.00,-1.0,2364
3822,2138822,16968,-60,1032,16999.46,26.79,-1.00,-1.0,2447
3825,2138825,16948,-36,968,16975.66,26.74,-1.00,-1.0,2375
3828,2138828,16996,-148,1076,17030.67,26.74,-1.00,-1.0,2439
3831,2138831,17076,-104,1116,17112.75,26.74,-1.00,-1.0,2374
3836,2138836,17012,16,1020,17042.56,26.74,-1.00,-1.0,2443
3839,2138839,16972,-160,1136,17010.73,26.74,-1.00,-1.0,2368
3841,2138841,16928,-156,988,16957.53,26.74,-1.00,-1.0,2432
3844,2138844,16976,32,996,17005.22,26.74,-1.00,-1.0,2368
3847,2138847,16972,-108,1136,17010.32,26.84,-1.00,-1.0,2419
3850,2138850,17032,4,1120,17068.79,26.79,-1.00,-1.0,2365
3852,2138852,17024,24,1060,17056.99,26.74,-1.00,-1.0,2360
3855,2138855,16936,-60,1044,16968.25,26.74,-1.00,-1.0,2431
3858,2138858,17060,-48,1028,17091.01,26.74,-1.00,-1.0,2378
3863,2138863,17076,-16,1120,17112.70,26.84,-1.00,-1.0,2448
3865,2138865,16984,-84,1020,17014.81,26.74,-1.00,-1.0,2368
3868,2138868,16964,-124,1084,16999.05,26.69,-1.00,-1.0,2433
3871,2138871,17096,-92,948,17122.51,26.74,-1.00,-1.0,2370
3874,2138874,16968,-148,1140,17006.90,26.74,-1.00,-1.0,2439
3876,2138876,16984,-100,1008,17014.18,26.74,-1.00,-1.0,2368
3879,2138879,16940,-56,1048,16972.48,26.79,-1.00,-1.0,2433
3882,2138882,17052,0,1152,17090.87,26.84,-1.00,-1.0,2357
3887,2138887,17008,-40,1112,17044.36,26.74,-1.00,-1.0,2442
3890,2138890,17032,-44,1136,17069.90,26.79,-1.00,-1.0,2377
3892,2138892,16968,40,1060,17001.12,26.74,-1.00,-1.0,2359
3895,2138895,17000,-60,1092,17035.14,26.79,-1.00,-1.0,2458
3898,2138898,17028,-140,912,17052.98,26.79,-1.00,-1.0,2378
3901,2138901,16988,-68,928,17013.46,26.65,-1.00,-1.0,2450
3903,2138903,17080,-132,1076,17114.37,26.79,-1.00,-1.0,2365
3906,2138906,17044,-8,1232,17088.47,26.74,-1.00,-1.0,2432
3909,2138909,17072,4,1108,17107.92,26.74,-1.00,-1.0,2367
3914,2138914,16996,-40,1024,17026.87,26.79,-1.00,-1.0,2449
3916,2138916,17000,-104,1180,17041.22,26.79,-1.00,-1.0,2365
3919,2138919,17032,40,1092,17067.02,26.74,-1.00,-1.0,2447
3922,2138922,16960,-36,1052,16992.63,26.69,-1.00,-1.0,2365
3925,2138925,17060,-96,1136,17098.05,26.84,-1.00,-1.0,2445
3927,2138927,17008,-132,1072,17042.26,26.79,-1.00,-1.0,2364
3930,2138930,16972,-72,1084,17006.73,26.74,-1.00,-1.0,2374
3933,2138933,17032,-64,1188,17073.50,26.84,-1.00,-1.0,2439
3936,2138936,17056,-60,1140,17094.16,26.74,-1.00,-1.0,2361
3941,2138941,17040,36,1128,17077.33,26.74,-1.00,-1.0,2449
3943,2138943,16972,-76,1004,17001.84,26.69,-1.00,-1.0,2364
3946,2138946,17028,-72,1008,17057.96,26.65,-1.00,-1.0,2457
3949,2138949,17036,-104,1132,17073.88,26.69,-1.00,-1.0,2364
3952,2138952,16984,-112,1084,17018.93,26.74,-1.00,-1.0,2447
3954,2138954,17012,-52,1148,17050.77,26.79,-1.00,-1.0,2364
3957,2138957,17080,-76,1008,17109.89,26.74,-1.00,-1.0,2450
3960,2138960,16996,-64,1184,17037.31,26.88,-1.00,-1.0,2364
3965,2138965,16924,-40,1068,16957.71,26.79,-1.00,-1.0,2442
3968,2138968,17080,-64,1084,17114.48,26.69,-1.00,-1.0,2364
3970,2138970,17032,-36,1048,17064.25,26.74,-1.00,-1.0,2362
3973,2138973,16960,-100,1048,16992.64,26.74,-1.00,-1.0,2457
3976,2138976,17008,-44,1096,17043.33,26.74,-1.00,-1.0,2374
3979,2138979,16968,20,1204,17010.67,26.74,-1.00,-1.0,2449
3981,2138981,16976,-176,1060,17009.97,26.74,-1.00,-1.0,2367
3984,2138984,17008,-40,1172,17048.38,26.65,-1.00,-1.0,2454
3987,2138987,17008,-20,996,17037.15,26.69,-1.00,-1.0,2368
3992,2138992,17008,-112,1080,17042.62,26.69,-1.00,-1.0,2448
3994,2138994,17076,-76,1068,17109.54,26.69,-1.00,-1.0,2365
3997,2138997,17052,-20,1104,17087.71,26.79,-1.00,-1.0,2440
4000,2139000,17016,16,980,17044.21,26.79,-1.00,-1.0,2366
4003,2139003,16952,4,1040,16983.87,26.79,-1.00,-1.0,2444
4005,2139005,16936,-136,1056,16969.44,26.69,-1.00,-1.0,2366
4008,2139008,16980,-72,1156,17019.46,26.79,-1.00,-1.0,2361
4011,2139011,16976,-68,1112,17012.52,26.74,-1.00,-1.0,2437
4014,2139014,16912,-140,1128,16950.15,26.69,-1.00,-1.0,2365
4019,2139019,16972,-20,1012,17002.16,26.79,-1.00,-1.0,2449
4021,2139021,16992,-48,1216,17035.52,26.79,-1.00,-1.0,2365
4024,2139024,17020,-108,952,17046.95,26.74,-1.00,-1.0,2441
4027,2139027,17008,-56,1140,17046.25,26.88,-1.00,-1.0,2366
4030,2139030,17036,-88,1300,17085.76,26.74,-1.00,-1.0,2443
4032,2139032,17088,-68,1160,17127.46,26.69,-1.00,-1.0,2365
4035,2139035,16972,0,1104,17007.87,26.74,-1.00,-1.0,2437
4038,2139038,16956,12,1012,16986.18,26.69,-1.00,-1.0,2366
4041,2139041,17016,-140,1136,17054.45,26.79,-1.00,-1.0,2361
4046,2139046,17012,-76,1280,17060.26,26.69,-1.00,-1.0,2441
4049,2139049,17000,24,1064,17033.28,26.69,-1.00,-1.0,2364
4051,2139051,17040,-12,1052,17072.45,26.69,-1.00,-1.0,2441
4054,2139054,17032,-44,912,17056.46,26.79,-1.00,-1.0,2365
4057,2139057,17088,-108,848,17109.37,26.79,-1.00,-1.0,2437
4060,2139060,16968,-108,1028,16999.46,26.79,-1.00,-1.0,2366
4062,2139062,17072,-84,1104,17107.87,26.79,-1.00,-1.0,2437
4065,2139065,17020,-124,1056,17053.18,26.69,-1.00,-1.0,2354
4070,2139070,17028,-124,1064,17061.66,26.79,-1.00,-1.0,2458
4073,2139073,17000,-76,1008,17030.03,26.69,-1.00,-1.0,2374
4076,2139076,17060,-88,1064,17093.38,26.69,-1.00,-1.0,2451
4078,2139078,17132,-72,956,17158.80,26.74,-1.00,-1.0,2419
4081,2139081,17100,-40,1040,17131.64,26.69,-1.00,-1.0,2377
4084,2139084,17028,-56,1088,17062.81,26.69,-1.00,-1.0,2432
4087,2139087,17036,-124,1060,17069.40,26.60,-1.00,-1.0,2382
4089,2139089,17004,-40,1096,17039.33,26.79,-1.00,-1.0,2431
4092,2139092,17036,-68,1224,17080.05,26.69,-1.00,-1.0,2388
4097,2139097,17052,-56,1140,17090.16,26.88,-1.00,-1.0,2454
4100,2139100,16984,-136,896,17008.16,26.69,-1.00,-1.0,2376
4103,2139103,17056,4,1056,17088.66,26.69,-1.00,-1.0,2447
4105,2139105,17060,-16,1016,17090.23,26.79,-1.00,-1.0,2378
4108,2139108,17032,-24,976,17059.96,26.79,-1.00,-1.0,2439
4111,2139111,17116,-124,920,17141.16,26.79,-1.00,-1.0,2376
4114,2139114,17028,-64,1104,17063.87,26.79,-1.00,-1.0,2446
4116,2139116,16948,-24,976,16976.10,26.79,-1.00,-1.0,2378
4119,2139119,16972,-72,1132,17009.86,26.79,-1.00,-1.0,2360
4124,2139124,16932,-48,1196,16974.26,26.69,-1.00,-1.0,2439
4127,2139127,16964,-80,1044,16996.28,26.74,-1.00,-1.0,2376
4130,2139130,16916,-92,1120,16953.29,26.74,-1.00,-1.0,2436
4132,2139132,16972,-124,1088,17007.29,26.74,-1.00,-1.0,2368
4135,2139135,16992,-140,980,17020.81,26.69,-1.00,-1.0,2432
4138,2139138,16964,-12,1052,16996.59,26.84,-1.00,-1.0,2368
4140,2139140,17036,-12,1088,17070.71,26.65,-1.00,-1.0,2436
4143,2139143,17012,-88,1228,17056.49,26.84,-1.00,-1.0,2367
4148,2139148,17036,-88,932,17061.70,26.84,-1.00,-1.0,2438
4151,2139151,17040,-4,968,17067.47,26.74,-1.00,-1.0,2372
4154,2139154,16932,-68,1268,16979.55,26.65,-1.00,-1.0,2435
4156,2139156,16900,-24,1044,16932.23,26.65,-1.00,-1.0,2374
4159,2139159,16992,-84,1064,17025.49,26.84,-1.00,-1.0,2359
4162,2139162,16968,-64,1124,17005.31,26.69,-1.00,-1.0,2441
4164,2139164,16988,-168,1024,17019.66,26.74,-1.00,-1.0,2370
4167,2139167,17012,-160,1088,17047.51,26.69,-1.00,-1.0,2433
4170,2139170,17028,-148,1052,17061.11,26.84,-1.00,-1.0,2376
4175,2139175,17068,-28,1304,17117.76,26.74,-1.00,-1.0,2454
4178,2139178,17180,-168,1112,17216.77,26.79,-1.00,-1.0,2378
4181,2139181,17000,-104,1080,17034.59,26.74,-1.00,-1.0,2446
4183,2139183,17088,-128,1104,17124.10,26.88,-1.00,-1.0,2377
4186,2139186,17012,-64,1248,17057.84,26.65,-1.00,-1.0,2440
4189,2139189,17024,-68,1016,17054.43,26.79,-1.00,-1.0,2378
4192,2139192,17008,-68,1100,17043.67,26.74,-1.00,-1.0,2443
4194,2139194,17008,-40,1188,17049.49,26.74,-1.00,-1.0,2378
4197,2139197,17004,-56,1196,17046.10,26.74,-1.00,-1.0,2367
4203,2139203,17124,-36,952,17150.48,26.74,-1.00,-1.0,2433
4205,2139205,16988,40,980,17016.29,26.74,-1.00,-1.0,2377
4208,2139208,16960,-32,1108,16996.18,26.74,-1.00,-1.0,2436
4211,2139211,17068,-44,1000,17097.33,26.84,-1.00,-1.0,2356
4214,2139214,17076,-188,1092,17111.91,26.74,-1.00,-1.0,2441
4216,2139216,17104,-20,1100,17139.35,26.74,-1.00,-1.0,2377
4219,2139219,17028,-8,1192,17069.67,26.65,-1.00,-1.0,2432
4222,2139222,16972,-96,1068,17005.84,26.84,-1.00,-1.0,2358
4227,2139227,17072,8,1052,17104.38,26.84,-1.00,-1.0,2441
4229,2139229,17020,-76,1112,17056.46,26.74,-1.00,-1.0,2376
4232,2139232,17132,-52,1000,17161.24,26.79,-1.00,-1.0,2363
4235,2139235,17000,-112,1032,17031.66,26.69,-1.00,-1.0,2441
4237,2139237,16976,-100,992,17005.25,26.74,-1.00,-1.0,2368
4240,2139240,16936,-112,1016,16966.82,26.69,-1.00,-1.0,2431
4243,2139243,17020,-44,1156,17059.27,26.79,-1.00,-1.0,2370
4246,2139246,16944,-52,968,16971.71,26.60,-1.00,-1.0,2438
4248,2139248,17016,0,1088,17050.75,26.74,-1.00,-1.0,2356
4253,2139253,17008,-136,1096,17043.82,26.74,-1.00,-1.0,2446
4256,2139256,17124,-152,1156,17163.65,26.74,-1.00,-1.0,2377
4259,2139259,17180,-64,1116,17216.33,26.60,-1.00,-1.0,2435
4262,2139262,17020,-108,1052,17052.82,26.84,-1.00,-1.0,2373
4264,2139264,17004,-60,1068,17037.61,26.84,-1.00,-1.0,2436
4267,2139267,17000,-44,1096,17035.35,26.74,-1.00,-1.0,2385
4270,2139270,16940,-84,1236,16985.24,26.79,-1.00,-1.0,2434
4273,2139273,16928,-84,1060,16961.36,26.74,-1.00,-1.0,2374
4275,2139275,17036,0,1108,17071.99,26.79,-1.00,-1.0,2360
4280,2139280,17036,-56,1016,17066.36,26.74,-1.00,-1.0,2450
4283,2139283,16892,-52,1084,16926.83,26.74,-1.00,-1.0,2384
4286,2139286,16940,-164,992,16969.81,26.79,-1.00,-1.0,2437
4289,2139289,17032,-76,1160,17071.62,26.74,-1.00,-1.0,2375
4291,2139291,17032,-120,1008,17062.22,26.79,-1.00,-1.0,2445
4294,2139294,17100,-120,1040,17132.02,26.79,-1.00,-1.0,2356
4297,2139297,17088,8,1116,17124.41,26.74,-1.00,-1.0,2436
4300,2139300,16968,-112,1024,16999.24,26.79,-1.00,-1.0,2365
4305,2139305,17048,-124,1112,17084.68,26.69,-1.00,-1.0,2443
4307,2139307,16964,-120,1040,16996.27,26.65,-1.00,-1.0,2373
4310,2139310,16964,-36,1136,17002.03,26.79,-1.00,-1.0,2440
4313,2139313,17060,-88,1228,17104.37,26.79,-1.00,-1.0,2367
4315,2139315,17064,-76,1140,17102.21,26.69,-1.00,-1.0,2359
4318,2139318,17020,-20,1120,17056.82,26.84,-1.00,-1.0,2436
4321,2139321,16964,-8,968,16991.60,26.79,-1.00,-1.0,2367
4324,2139324,17068,-64,1036,17099.53,26.74,-1.00,-1.0,2443
4326,2139326,17004,-28,1052,17036.54,26.79,-1.00,-1.0,2365
4331,2139331,16996,-48,1196,17038.10,26.79,-1.00,-1.0,2451
4334,2139334,17084,-220,1100,17120.79,26.79,-1.00,-1.0,2374
4337,2139337,17028,-88,1028,17059.23,26.79,-1.00,-1.0,2440
4340,2139340,17032,-76,1032,17063.41,26.79,-1.00,-1.0,2363
4342,2139342,17012,-24,960,17039.08,26.69,-1.00,-1.0,2439
4345,2139345,17076,-88,1072,17109.84,26.69,-1.00,-1.0,2382
4348,2139348,17036,-168,1060,17069.77,26.79,-1.00,-1.0,2361
4350,2139350,17000,-128,984,17028.94,26.74,-1.00,-1.0,2436
4353,2139353,16976,-80,996,17005.38,26.74,-1.00,-1.0,2368
4358,2139358,17004,-148,1136,17042.55,26.74,-1.00,-1.0,2444
4361,2139361,17020,-104,980,17048.51,26.74,-1.00,-1.0,2367
4364,2139364,16980,-140,1108,17016.69,26.84,-1.00,-1.0,2447
4366,2139366,16912,-16,1056,16944.94,26.84,-1.00,-1.0,2366
4369,2139369,17024,-76,1148,17062.83,26.74,-1.00,-1.0,2437
4372,2139372,17000,-136,1052,17033.06,26.65,-1.00,-1.0,2366
4375,2139375,17028,-124,1144,17066.84,26.65,-1.00,-1.0,2443
4377,2139377,16952,-116,1132,16990.15,26.74,-1.00,-1.0,2365
4382,2139382,16964,-72,1064,16997.49,26.79,-1.00,-1.0,2444
4385,2139385,16972,-60,1140,17010.35,26.79,-1.00,-1.0,2374
4388,2139388,16980,-152,1048,17012.99,26.74,-1.00,-1.0,2441
4391,2139391,17052,-144,1048,17084.78,26.69,-1.00,-1.0,2366
4393,2139393,16936,-48,1156,16975.47,26.84,-1.00,-1.0,2360
4396,2139396,17044,-80,984,17072.57,26.84,-1.00,-1.0,2435
4399,2139399,17068,-92,1092,17103.14,26.74,-1.00,-1.0,2365
4401,2139401,16984,-68,1116,17020.76,26.74,-1.00,-1.0,2436
4404,2139404,17036,-24,1124,17073.06,26.69,-1.00,-1.0,2375
4409,2139409,17000,-120,1116,17037.01,26.84,-1.00,-1.0,2448
4412,2139412,17024,-20,1036,17055.51,26.69,-1.00,-1.0,2367
4415,2139415,16980,-88,940,17006.23,26.74,-1.00,-1.0,2447
4417,2139417,16944,56,1076,16978.22,26.79,-1.00,-1.0,2372
4420,2139420,17012,-84,1028,17043.24,26.74,-1.00,-1.0,2436
4423,2139423,17080,-88,1048,17112.35,26.69,-1.00,-1.0,2367
4426,2139426,16988,-100,1092,17023.36,26.74,-1.00,-1.0,2445
4428,2139428,16928,-16,1112,16964.49,26.79,-1.00,-1.0,2374
4431,2139431,16984,-84,1200,17026.55,26.79,-1.00,-1.0,2368
4436,2139436,17060,-32,1096,17095.20,26.84,-1.00,-1.0,2447
4439,2139439,17032,56,1192,17073.75,26.69,-1.00,-1.0,2366
4442,2139442,17032,-88,1128,17069.54,26.74,-1.00,-1.0,2448
4444,2139444,16980,-44,1136,17018.02,26.84,-1.00,-1.0,2373
4447,2139447,17060,-72,1084,17094.56,26.74,-1.00,-1.0,2436
4450,2139450,17096,0,1092,17130.84,26.79,-1.00,-1.0,2367
4453,2139453,17068,-60,1060,17100.99,26.74,-1.00,-1.0,2445
4455,2139455,17012,-8,1128,17049.36,26.74,-1.00,-1.0,2372
4460,2139460,16996,-92,1048,17028.53,26.74,-1.00,-1.0,2451
4463,2139463,17060,-128,1136,17098.26,26.79,-1.00,-1.0,2372
4466,2139466,16956,-52,1088,16990.95,26.74,-1.00,-1.0,2361
4468,2139468,17012,4,1116,17048.57,26.74,-1.00,-1.0,2440
4471,2139471,17020,8,1128,17057.34,26.84,-1.00,-1.0,2366
4474,2139474,16952,-68,1052,16984.75,26.74,-1.00,-1.0,2435
4477,2139477,17032,-88,956,17059.04,26.74,-1.00,-1.0,2364
4479,2139479,17016,-72,1120,17052.97,26.69,-1.00,-1.0,2437
4482,2139482,16952,-104,1088,16987.20,26.74,-1.00,-1.0,2368
4487,2139487,17008,-84,1112,17044.52,26.84,-1.00,-1.0,2449
4490,2139490,17044,-20,1004,17073.56,26.65,-1.00,-1.0,2380
4493,2139493,17052,-36,960,17079.04,26.65,-1.00,-1.0,2442
4496,2139496,17020,-100,1084,17054.78,26.74,-1.00,-1.0,2372
4498,2139498,17036,-176,1164,17076.63,26.84,-1.00,-1.0,2438
4501,2139501,17044,0,1096,17079.20,26.84,-1.00,-1.0,2373
4504,2139504,16976,-28,1088,17010.85,26.74,-1.00,-1.0,2360
4506,2139506,17048,-76,1052,17080.60,26.69,-1.00,-1.0,2424
4509,2139509,16912,-100,1084,16947.00,26.69,-1.00,-1.0,2366
4514,2139514,17052,-64,1140,17090.18,26.74,-1.00,-1.0,2444
4517,2139517,16936,-144,1128,16974.13,26.84,-1.00,-1.0,2353
4520,2139520,16968,-84,952,16994.89,26.79,-1.00,-1.0,2443
4523,2139523,17052,-64,1108,17088.08,26.74,-1.00,-1.0,2366
4525,2139525,16960,-20,1096,16995.39,26.69,-1.00,-1.0,2437
4528,2139528,17028,-24,948,17054.38,26.84,-1.00,-1.0,2373
4531,2139531,17100,-148,1188,17141.86,26.69,-1.00,-1.0,2438
4534,2139534,17000,-56,1044,17032.12,26.74,-1.00,-1.0,2363
4539,2139539,16980,-80,1140,17018.41,26.84,-1.00,-1.0,2446
4541,2139541,17052,-124,1136,17090.25,26.84,-1.00,-1.0,2369
4544,2139544,16832,-56,1012,16862.49,26.65,-1.00,-1.0,2347
4547,2139547,17064,-108,1116,17100.79,26.79,-1.00,-1.0,2449
4549,2139549,17048,-148,1036,17080.09,26.74,-1.00,-1.0,2373
4552,2139552,17060,-28,1012,17090.01,26.74,-1.00,-1.0,2436
4555,2139555,17088,-28,1144,17126.27,26.74,-1.00,-1.0,2366
4558,2139558,16960,-92,1176,17000.97,26.79,-1.00,-1.0,2445
4560,2139560,17012,-44,988,17040.72,26.69,-1.00,-1.0,2365
4565,2139565,17180,24,1088,17214.43,26.79,-1.00,-1.0,2442
4568,2139568,16996,36,1072,17029.81,26.79,-1.00,-1.0,2365
4571,2139571,17028,-160,1048,17060.97,26.69,-1.00,-1.0,2439
4574,2139574,17032,-84,1052,17064.66,26.79,-1.00,-1.0,2365
4576,2139576,17116,-140,1064,17149.61,26.79,-1.00,-1.0,2436
4579,2139579,17088,-96,1096,17123.38,26.69,-1.00,-1.0,2365
4582,2139582,17016,-132,1052,17049.00,26.74,-1.00,-1.0,2366
4585,2139585,17052,-64,1028,17083.08,26.84,-1.00,-1.0,2437
4587,2139587,17076,16,1120,17112.70,26.74,-1.00,-1.0,2367
4592,2139592,16948,-164,1176,16989.54,26.74,-1.00,-1.0,2442
4595,2139595,17036,32,1056,17068.73,26.79,-1.00,-1.0,2365
4598,2139598,17068,-80,984,17096.53,26.65,-1.00,-1.0,2440
4601,2139601,17028,-128,1104,17064.23,26.79,-1.00,-1.0,2365
4603,2139603,16992,-168,1156,17032.11,26.74,-1.00,-1.0,2435
4606,2139606,17052,-80,1108,17088.15,26.69,-1.00,-1.0,2365
4609,2139609,17004,-44,1000,17033.44,26.74,-1.00,-1.0,2437
4612,2139612,16968,-12,924,16993.14,26.69,-1.00,-1.0,2365
4616,2139616,17004,-120,1008,17034.27,26.74,-1.00,-1.0,2442
4619,2139619,17100,-72,1188,17141.37,26.79,-1.00,-1.0,2352
4622,2139622,17028,-64,1092,17063.10,26.74,-1.00,-1.0,2367
4625,2139625,17072,-156,1092,17107.60,26.60,-1.00,-1.0,2441
4627,2139627,17080,-60,1100,17115.49,26.74,-1.00,-1.0,2367
4630,2139630,16956,-60,1032,16987.48,26.65,-1.00,-1.0,2442
4633,2139633,17068,-92,1132,17105.74,26.65,-1.00,-1.0,2372
4636,2139636,16944,-28,1120,16981.00,26.69,-1.00,-1.0,2449
4639,2139639,17044,-40,1100,17079.51,26.79,-1.00,-1.0,2373
4643,2139643,17004,-60,1088,17038.88,26.69,-1.00,-1.0,2452
4646,2139646,17020,-68,1012,17050.20,26.74,-1.00,-1.0,2380
4649,2139649,17028,-120,1076,17062.38,26.79,-1.00,-1.0,2441
4652,2139652,16988,60,1068,17021.64,26.79,-1.00,-1.0,2372
4654,2139654,17004,-44,1176,17044.67,26.69,-1.00,-1.0,2425
4657,2139657,16920,-72,1004,16949.91,26.69,-1.00,-1.0,2381
4660,2139660,17036,-68,1096,17071.35,26.79,-1.00,-1.0,2360
4663,2139663,17000,-188,1028,17032.09,26.69,-1.00,-1.0,2447
4666,2139666,16968,-132,1060,17001.59,26.79,-1.00,-1.0,2375
4671,2139671,16988,-44,1048,17020.35,26.79,-1.00,-1.0,2445
4673,2139673,16988,-4,1024,17018.83,26.79,-1.00,-1.0,2369
4676,2139676,16940,-88,1044,16972.37,26.79,-1.00,-1.0,2450
4679,2139679,17032,-216,1092,17068.34,26.79,-1.00,-1.0,2374
4682,2139682,17012,-72,1048,17044.40,26.69,-1.00,-1.0,2444
4684,2139684,17072,-124,1080,17106.58,26.79,-1.00,-1.0,2372
4687,2139687,17008,-44,1000,17037.43,26.79,-1.00,-1.0,2445
4690,2139690,17076,-84,1152,17115.02,26.69,-1.00,-1.0,2374
4695,2139695,17020,-40,1092,17055.04,26.65,-1.00,-1.0,2441
4698,2139698,17064,-120,1072,17098.06,26.84,-1.00,-1.0,2363
4700,2139700,17120,-100,956,17146.96,26.79,-1.00,-1.0,2361
4703,2139703,17028,28,1104,17063.77,26.79,-1.00,-1.0,2456
4706,2139706,17032,-60,940,17058.03,26.79,-1.00,-1.0,2362
4709,2139709,16992,-64,1100,17027.69,26.69,-1.00,-1.0,2436
4711,2139711,17060,-24,1084,17094.42,26.88,-1.00,-1.0,2367
4714,2139714,16972,-40,1116,17008.70,26.79,-1.00,-1.0,2436
4717,2139717,17012,-52,860,17033.80,26.74,-1.00,-1.0,2373
4722,2139722,16980,-52,1072,17013.88,26.84,-1.00,-1.0,2442
4724,2139724,17036,-136,1244,17081.90,26.84,-1.00,-1.0,2367
4727,2139727,16936,-124,1068,16970.09,26.74,-1.00,-1.0,2441
4730,2139730,16972,-36,1084,17006.62,26.74,-1.00,-1.0,2367
4733,2139733,17012,-84,1276,17059.99,26.84,-1.00,-1.0,2437
4735,2139735,16976,-52,1036,17007.66,26.74,-1.00,-1.0,2351
4738,2139738,17048,-12,980,17076.15,26.74,-1.00,-1.0,2360
4741,2139741,16932,-112,992,16961.40,26.79,-1.00,-1.0,2445
4744,2139744,16932,-76,1184,16973.52,26.74,-1.00,-1.0,2365
4749,2139749,16960,-60,1048,16992.46,26.84,-1.00,-1.0,2442
4751,2139751,16956,12,1132,16993.75,26.74,-1.00,-1.0,2371
4754,2139754,17048,-16,1108,17083.98,26.65,-1.00,-1.0,2447
4757,2139757,17136,-132,1092,17171.27,26.74,-1.00,-1.0,2368
4760,2139760,17092,-48,1028,17122.95,26.65,-1.00,-1.0,2448
4762,2139762,17024,-108,1012,17054.39,26.74,-1.00,-1.0,2372
4765,2139765,16984,-88,1016,17014.59,26.65,-1.00,-1.0,2443
4768,2139768,17072,-64,1184,17113.13,26.65,-1.00,-1.0,2352
4773,2139773,17032,-8,1076,17065.96,26.69,-1.00,-1.0,2450
4775,2139775,17000,-112,956,17027.23,26.79,-1.00,-1.0,2363
4778,2139778,17004,-52,1024,17034.88,26.65,-1.00,-1.0,2374
4781,2139781,17076,12,1020,17106.44,26.74,-1.00,-1.0,2442
4784,2139784,17076,-12,1072,17109.62,26.74,-1.00,-1.0,2373
4786,2139786,17044,-12,1084,17078.44,26.65,-1.00,-1.0,2444
4789,2139789,17016,-32,1096,17051.29,26.84,-1.00,-1.0,2377
4792,2139792,17016,-44,872,17038.38,26.65,-1.00,-1.0,2443
4795,2139795,17040,-88,1080,17074.42,26.88,-1.00,-1.0,2365
4800,2139800,17048,44,1116,17084.54,26.79,-1.00,-1.0,2436
4802,2139802,16992,-40,1024,17022.87,26.74,-1.00,-1.0,2366
4805,2139805,17044,-20,960,17071.03,26.69,-1.00,-1.0,2441
4808,2139808,17036,4,1020,17066.51,26.74,-1.00,-1.0,2366
4810,2139810,16992,-108,1116,17028.95,26.69,-1.00,-1.0,2361
4813,2139813,17076,-148,1032,17107.80,26.69,-1.00,-1.0,2436
4816,2139816,17040,-140,1072,17074.26,26.74,-1.00,-1.0,2365
4819,2139819,16980,-36,984,17008.53,26.74,-1.00,-1.0,2444
4822,2139822,17004,-88,952,17030.86,26.69,-1.00,-1.0,2371
4827,2139827,17040,-84,1164,17079.92,26.74,-1.00,-1.0,2442
4829,2139829,17012,-172,1152,17051.83,26.79,-1.00,-1.0,2367
4832,2139832,16972,-88,1196,17014.32,26.74,-1.00,-1.0,2456
4835,2139835,16968,-48,984,16996.58,26.74,-1.00,-1.0,2360
4838,2139838,17104,-88,1048,17136.30,26.74,-1.00,-1.0,2438
4840,2139840,17076,-172,1104,17112.52,26.69,-1.00,-1.0,2367
4843,2139843,17056,-108,1200,17098.50,26.74,-1.00,-1.0,2436
4846,2139846,17028,-196,1064,17062.34,26.74,-1.00,-1.0,2371
4849,2139849,17072,-108,1088,17106.97,26.74,-1.00,-1.0,2367
4854,2139854,17000,-96,1036,17031.81,26.65,-1.00,-1.0,2442
4856,2139856,17144,-8,1040,17175.52,26.84,-1.00,-1.0,2367
4859,2139859,17048,-76,1080,17082.34,26.84,-1.00,-1.0,2456
4862,2139862,17012,-48,1028,17043.10,26.74,-1.00,-1.0,2359
4865,2139865,17008,-76,1068,17041.67,26.74,-1.00,-1.0,2438
4867,2139867,16976,-112,968,17003.95,26.74,-1.00,-1.0,2366
4870,2139870,17052,-24,1112,17088.24,26.74,-1.00,-1.0,2436
4873,2139873,16968,8,1164,17007.88,26.74,-1.00,-1.0,2372
4878,2139878,17000,-112,1088,17035.15,26.84,-1.00,-1.0,2450
4880,2139880,17040,-88,1272,17087.64,26.74,-1.00,-1.0,2365
4883,2139883,17036,-120,1096,17071.64,26.74,-1.00,-1.0,2443
4886,2139886,16992,-64,1140,17030.32,26.74,-1.00,-1.0,2364
4889,2139889,16960,-76,1072,16994.02,26.74,-1.00,-1.0,2360
4891,2139891,17016,-44,1112,17052.35,26.69,-1.00,-1.0,2449
4894,2139894,17040,-88,996,17069.31,26.74,-1.00,-1.0,2373
4897,2139897,17044,12,1244,17089.34,26.88,-1.00,-1.0,2439
4900,2139900,16960,-24,920,16984.95,26.74,-1.00,-1.0,2366
4905,2139905,17000,-168,1052,17033.35,26.74,-1.00,-1.0,2452
4907,2139907,17060,-96,1132,17097.79,26.65,-1.00,-1.0,2364
4910,2139910,16992,-28,1172,17032.39,26.74,-1.00,-1.0,2449
4913,2139913,16980,-28,1172,17020.42,26.74,-1.00,-1.0,2364
4916,2139916,17056,-172,1008,17086.62,26.84,-1.00,-1.0,2444
4919,2139919,16996,-80,1100,17031.75,26.79,-1.00,-1.0,2431
4921,2139921,17048,-24,996,17077.09,26.84,-1.00,-1.0,2434
4924,2139924,17056,0,1192,17097.60,26.65,-1.00,-1.0,2372
4927,2139927,16952,16,972,16979.85,26.74,-1.00,-1.0,2346
4932,2139932,17056,-48,1016,17086.30,26.74,-1.00,-1.0,2444
4934,2139934,17056,-96,992,17085.09,26.74,-1.00,-1.0,2368
4937,2139937,17000,-16,1164,17039.81,26.79,-1.00,-1.0,2453
4940,2139940,16948,-104,1040,16980.20,26.74,-1.00,-1.0,2366
4943,2139943,17084,-124,1068,17117.80,26.74,-1.00,-1.0,2437
4945,2139945,17016,-120,1084,17050.92,26.74,-1.00,-1.0,2368
4948,2139948,16908,-108,1012,16938.60,26.79,-1.00,-1.0,2442
4951,2139951,16940,-192,960,16968.27,26.84,-1.00,-1.0,2366
4956,2139956,16944,-88,1064,16977.60,26.74,-1.00,-1.0,2439
4959,2139959,16964,-84,940,16990.23,26.74,-1.00,-1.0,2367
4961,2139961,16992,-64,1084,17026.66,26.74,-1.00,-1.0,2437
4964,2139964,17036,-80,1120,17072.96,26.74,-1.00,-1.0,2366
4967,2139967,17100,-112,1004,17129.81,26.74,-1.00,-1.0,2366
4970,2139970,17004,100,1112,17040.62,26.79,-1.00,-1.0,2435
4972,2139972,17084,-44,1132,17121.52,26.74,-1.00,-1.0,2370
4975,2139975,17060,-96,1012,17090.26,26.79,-1.00,-1.0,2431
4978,2139978,17012,-184,1096,17048.26,26.74,-1.00,-1.0,2366
4983,2139983,16992,-20,1140,17030.21,26.74,-1.00,-1.0,2440
4986,2139986,16988,-64,956,17015.00,26.69,-1.00,-1.0,2382
4988,2139988,16980,-120,904,17004.47,26.74,-1.00,-1.0,2435
4991,2139991,17012,-116,1084,17046.90,26.79,-1.00,-1.0,2369
4994,2139994,17052,-28,1008,17081.79,26.74,-1.00,-1.0,2434
4997,2139997,17044,-8,932,17069.46,26.79,-1.00,-1.0,2376
4999,2139999,17088,8,1208,17130.65,26.74,-1.00,-1.0,2360
5002,2140002,17004,-120,1260,17051.04,26.74,-1.00,-1.0,2433
5005,2140005,16948,-16,900,16971.89,26.74,-1.00,-1.0,2367
5010,2140010,17092,-80,1028,17123.07,26.74,-1.00,-1.0,2435
5013,2140013,17044,-76,1036,17075.63,26.69,-1.00,-1.0,2367
5015,2140015,17040,-48,1016,17070.33,26.74,-1.00,-1.0,2439
5018,2140018,17156,-104,956,17182.93,26.84,-1.00,-1.0,2374
5021,2140021,16984,-148,1144,17023.13,26.74,-1.00,-1.0,2432
5024,2140024,17032,-72,1076,17066.11,26.74,-1.00,-1.0,2375
5026,2140026,17060,-88,1060,17093.12,26.84,-1.00,-1.0,2422
5029,2140029,17052,4,1072,17085.66,26.74,-1.00,-1.0,2408
5035,2140035,16988,-84,1056,17021.00,26.84,-1.00,-1.0,2458
5038,2140038,17028,-144,1268,17075.75,26.84,-1.00,-1.0,2368
5040,2140040,17084,-92,1128,17121.45,26.74,-1.00,-1.0,2346
5043,2140043,17052,-40,1124,17089.05,26.79,-1.00,-1.0,2435
5046,2140046,17044,-116,1108,17080.37,26.74,-1.00,-1.0,2368
5048,2140048,17044,-88,1140,17082.31,26.79,-1.00,-1.0,2432
5051,2140051,17004,-148,1212,17047.78,26.74,-1.00,-1.0,2367
5054,2140054,17132,-112,944,17158.35,26.79,-1.00,-1.0,2433
5057,2140057,17068,-220,1104,17105.08,26.74,-1.00,-1.0,2368
5061,2140061,16980,8,1140,17018.23,26.79,-1.00,-1.0,2428
5064,2140064,17100,-136,1060,17133.36,26.69,-1.00,-1.0,2367
5067,2140067,16940,-8,1144,16978.59,26.69,-1.00,-1.0,2433
5070,2140070,17072,-24,1016,17102.22,26.84,-1.00,-1.0,2370
5072,2140072,16884,-124,1088,16919.47,26.79,-1.00,-1.0,2433
5075,2140075,17096,-12,1036,17127.37,26.65,-1.00,-1.0,2368
5078,2140078,17096,-100,952,17122.78,26.79,-1.00,-1.0,2368
5081,2140081,17100,-40,1216,17143.23,26.69,-1.00,-1.0,2434
5083,2140083,16912,-76,1108,16948.43,26.69,-1.00,-1.0,2367
5088,2140088,17060,-40,972,17087.71,26.79,-1.00,-1.0,2441
5091,2140091,17080,12,984,17108.33,26.79,-1.00,-1.0,2354
5094,2140094,16976,-32,1084,17010.60,26.79,-1.00,-1.0,2440
5096,2140096,17012,-68,1228,17056.40,26.79,-1.00,-1.0,2371
5099,2140099,17024,-24,1132,17061.61,26.79,-1.00,-1.0,2434
5102,2140102,17040,-100,992,17069.14,26.84,-1.00,-1.0,2370
5105,2140105,17104,-16,1148,17142.49,26.79,-1.00,-1.0,2434
5107,2140107,16936,-4,1084,16970.66,26.74,-1.00,-1.0,2371
5112,2140112,17076,-96,1088,17110.89,26.84,-1.00,-1.0,2448
5115,2140115,16960,-48,936,16985.88,26.74,-1.00,-1.0,2381
5118,2140118,16988,-44,1112,17024.41,26.74,-1.00,-1.0,2360
5120,2140120,17020,-60,1088,17054.85,26.79,-1.00,-1.0,2435
5123,2140123,17020,-136,912,17044.96,26.69,-1.00,-1.0,2368
5126,2140126,16920,-216,1056,16954.30,26.79,-1.00,-1.0,2432
5129,2140129,17076,-44,1048,17108.19,26.74,-1.00,-1.0,2367
5131,2140131,16992,-40,1036,17023.60,26.69,-1.00,-1.0,2435
5134,2140134,17004,-32,1012,17034.12,26.79,-1.00,-1.0,2369
5139,2140139,17052,36,1108,17088.00,26.74,-1.00,-1.0,2443
5142,2140142,16972,-112,1020,17002.99,26.74,-1.00,-1.0,2367
5145,2140145,17200,-48,1160,17239.14,26.74,-1.00,-1.0,2441
5147,2140147,16988,-84,1076,17022.25,26.74,-1.00,-1.0,2368
5150,2140150,17024,-52,1268,17071.24,26.84,-1.00,-1.0,2439
5153,2140153,16956,-108,1044,16988.45,26.84,-1.00,-1.0,2367
5156,2140156,17028,-32,1028,17059.03,26.74,-1.00,-1.0,2364
5158,2140158,17052,-24,1104,17087.72,26.79,-1.00,-1.0,2443
5161,2140161,17016,-76,1164,17055.94,26.74,-1.00,-1.0,2383
5166,2140166,17072,72,1040,17103.80,26.74,-1.00,-1.0,2441
5169,2140169,17024,-80,1028,17055.20,26.74,-1.00,-1.0,2370
5172,2140172,17040,-120,956,17067.22,26.74,-1.00,-1.0,2441
5174,2140174,17032,-64,1004,17061.69,26.74,-1.00,-1.0,2369
5177,2140177,17008,-128,1188,17049.92,26.74,-1.00,-1.0,2448
5180,2140180,17080,-52,920,17104.84,26.74,-1.00,-1.0,2375
5183,2140183,17088,-160,964,17115.92,26.74,-1.00,-1.0,2437
5185,2140185,16992,-96,1088,17027.07,26.74,-1.00,-1.0,2371
5190,2140190,16964,-52,1044,16996.17,26.84,-1.00,-1.0,2445
5193,2140193,16916,-20,1064,16949.44,26.69,-1.00,-1.0,2368
5195,2140195,17036,-56,1144,17074.46,26.84,-1.00,-1.0,2361
5198,2140198,17008,-40,1172,17048.38,26.74,-1.00,-1.0,2440
5201,2140201,16992,-24,1276,17039.86,26.84,-1.00,-1.0,2368
5204,2140204,17108,-52,1104,17143.66,26.74,-1.00,-1.0,2442
5206,2140206,17008,-40,1164,17047.83,26.84,-1.00,-1.0,2368
5209,2140209,17160,-28,1092,17194.73,26.74,-1.00,-1.0,2436
5212,2140212,16912,-68,1052,16944.82,26.69,-1.00,-1.0,2369
5217,2140217,17268,-44,1128,17304.86,26.69,-1.00,-1.0,2450
5220,2140220,17000,-44,1056,17032.82,26.69,-1.00,-1.0,2375
5223,2140223,17128,-72,972,17155.71,26.79,-1.00,-1.0,2447
5225,2140225,17052,-188,1068,17086.45,26.69,-1.00,-1.0,2373
5228,2140228,17044,-124,1084,17078.89,26.79,-1.00,-1.0,2362
5231,2140231,16988,-96,1096,17023.59,26.74,-1.00,-1.0,2432
5233,2140233,17008,-40,920,17032.91,26.79,-1.00,-1.0,2375
5236,2140236,16996,-100,1052,17028.82,26.74,-1.00,-1.0,2434
5239,2140239,17052,-96,1164,17091.95,26.74,-1.00,-1.0,2368
5244,2140244,16948,-72,980,16976.46,26.65,-1.00,-1.0,2442
5247,2140247,17052,-52,1104,17087.78,26.74,-1.00,-1.0,2371
5249,2140249,16948,0,1068,16981.62,26.74,-1.00,-1.0,2434
5252,2140252,17000,-104,1088,17035.10,26.74,-1.00,-1.0,2369
5255,2140255,16956,-96,928,16981.65,26.65,-1.00,-1.0,2433
5258,2140258,17148,-44,1128,17185.12,26.74,-1.00,-1.0,2367
5260,2140260,17048,-128,1196,17090.38,26.65,-1.00,-1.0,2434
5263,2140263,17024,-88,1124,17061.29,26.74,-1.00,-1.0,2368
5266,2140266,17156,-76,1216,17199.21,26.84,-1.00,-1.0,2361
5271,2140271,17032,-96,1096,17067.50,26.74,-1.00,-1.0,2441
5274,2140274,16936,-104,996,16965.58,26.84,-1.00,-1.0,2368
5276,2140276,17040,-92,1192,17081.89,26.74,-1.00,-1.0,2434
5279,2140279,16932,20,932,16957.64,26.84,-1.00,-1.0,2368
5282,2140282,17056,-4,1048,17088.17,26.74,-1.00,-1.0,2433
5285,2140285,16988,52,1068,17021.62,26.74,-1.00,-1.0,2368
5287,2140287,17080,-112,1048,17112.49,26.74,-1.00,-1.0,2432
5290,2140290,17032,-124,1080,17066.66,26.74,-1.00,-1.0,2354
5295,2140295,17020,-68,784,17038.18,26.74,-1.00,-1.0,2443
5298,2140298,16980,-104,1188,17021.83,26.84,-1.00,-1.0,2371
5301,2140301,17072,36,1320,17122.99,26.74,-1.00,-1.0,2431
5303,2140303,16932,0,1148,16970.87,26.74,-1.00,-1.0,2374
5306,2140306,16980,-60,1168,17020.23,26.84,-1.00,-1.0,2359
5309,2140309,17016,-16,1048,17048.25,26.79,-1.00,-1.0,2441
5311,2140311,17008,-160,928,17034.05,26.84,-1.00,-1.0,2368
5314,2140314,17048,24,1120,17084.77,26.79,-1.00,-1.0,2435
5317,2140317,17072,-8,1172,17112.18,26.79,-1.00,-1.0,2368
5322,2140322,17036,-52,1088,17070.79,26.79,-1.00,-1.0,2443
5325,2140325,16988,-108,1064,17021.63,26.74,-1.00,-1.0,2368
5328,2140328,17056,-20,1176,17096.51,26.69,-1.00,-1.0,2439
5330,2140330,16992,-92,1076,17026.28,26.74,-1.00,-1.0,2368
5333,2140333,16992,-88,1104,17028.05,26.79,-1.00,-1.0,2434
5336,2140336,16964,-196,1224,17009.23,26.74,-1.00,-1.0,2368
5339,2140339,17000,-52,1008,17029.94,26.79,-1.00,-1.0,2433
5341,2140341,17096,4,1068,17129.33,26.74,-1.00,-1.0,2375
5344,2140344,17044,-76,1036,17075.63,26.79,-1.00,-1.0,2361
5349,2140349,17036,-84,1104,17071.94,26.69,-1.00,-1.0,2448
5352,2140352,16972,-36,1192,17013.85,26.69,-1.00,-1.0,2368
5355,2140355,17036,-40,1080,17070.25,26.79,-1.00,-1.0,2440
5357,2140357,16964,-12,1036,16995.61,26.65,-1.00,-1.0,2367
5360,2140360,16976,-20,1128,17013.45,26.69,-1.00,-1.0,2435
5363,2140363,17036,-44,968,17063.54,26.74,-1.00,-1.0,2369
5366,2140366,17076,-72,984,17104.48,26.79,-1.00,-1.0,2431
5368,2140368,17064,-112,1112,17100.56,26.65,-1.00,-1.0,2369
5373,2140373,17052,-100,1108,17088.25,26.84,-1.00,-1.0,2450
5376,2140376,17076,-32,1124,17112.98,26.84,-1.00,-1.0,2375
5379,2140379,17020,-104,1060,17053.29,26.69,-1.00,-1.0,2361
5381,2140381,16956,-40,1080,16990.41,26.69,-1.00,-1.0,2419
5384,2140384,16960,24,956,16986.94,26.60,-1.00,-1.0,2369
5387,2140387,16856,-20,1032,16887.57,26.79,-1.00,-1.0,2432
5390,2140390,17072,-24,980,17100.12,26.84,-1.00,-1.0,2367
5392,2140392,17044,-88,1252,17090.15,26.79,-1.00,-1.0,2435
5395,2140395,17012,-44,1224,17056.03,26.74,-1.00,-1.0,2371
5400,2140400,17016,4,1120,17052.82,26.74,-1.00,-1.0,2442
5403,2140403,17056,-108,1072,17090.00,26.69,-1.00,-1.0,2367
5406,2140406,17044,-80,1076,17078.12,26.74,-1.00,-1.0,2440
5408,2140408,17008,56,1016,17038.41,26.79,-1.00,-1.0,2368
5411,2140411,17044,116,1184,17085.47,26.74,-1.00,-1.0,2439
5414,2140414,17016,-88,1108,17052.26,26.79,-1.00,-1.0,2367
5417,2140417,17004,-116,1084,17038.91,26.74,-1.00,-1.0,2364
5419,2140419,17004,-120,1080,17038.69,26.74,-1.00,-1.0,2437
5422,2140422,17012,-108,944,17038.51,26.65,-1.00,-1.0,2377
5427,2140427,17036,-32,1016,17066.30,26.74,-1.00,-1.0,2452
5430,2140430,16980,-12,1092,17015.08,26.74,-1.00,-1.0,2374
5433,2140433,16892,-4,1076,16926.24,26.79,-1.00,-1.0,2424
5436,2140436,17012,-56,1144,17050.51,26.84,-1.00,-1.0,2368
5438,2140438,16992,-92,1068,17025.78,26.74,-1.00,-1.0,2443
5441,2140441,17028,-72,1148,17066.81,26.74,-1.00,-1.0,2367
5444,2140444,17040,-32,1048,17072.23,26.84,-1.00,-1.0,2441
5446,2140446,17000,36,1104,17035.85,26.74,-1.00,-1.0,2368
5451,2140451,17028,-112,1112,17064.64,26.84,-1.00,-1.0,2448
5454,2140454,17056,-116,992,17085.22,26.74,-1.00,-1.0,2373
5457,2140457,17028,-156,1072,17062.42,26.79,-1.00,-1.0,2361
5459,2140459,17184,0,1080,17217.90,26.69,-1.00,-1.0,2435
5462,2140462,17020,-152,1108,17056.71,26.79,-1.00,-1.0,2371
5465,2140465,16980,-176,992,17009.86,26.88,-1.00,-1.0,2432
5468,2140468,17016,-88,1132,17053.84,26.79,-1.00,-1.0,2374
5470,2140470,17080,-48,1016,17110.26,26.79,-1.00,-1.0,2435
5473,2140473,17132,-96,1088,17166.78,26.69,-1.00,-1.0,2370
5478,2140478,16940,-108,1100,16976.02,26.74,-1.00,-1.0,2440
5481,2140481,16980,-72,960,17007.27,26.79,-1.00,-1.0,2368
5484,2140484,17008,-88,1140,17046.39,26.74,-1.00,-1.0,2431
5486,2140486,16920,-48,1088,16955.01,26.69,-1.00,-1.0,2371
5489,2140489,17080,-160,1012,17110.70,26.84,-1.00,-1.0,2435
5492,2140492,16988,-132,1104,17024.35,26.69,-1.00,-1.0,2370
5494,2140494,16944,-96,1060,16977.39,26.84,-1.00,-1.0,2359
5497,2140497,16948,-192,1112,16985.53,26.74,-1.00,-1.0,2434
5500,2140500,16992,-112,1008,17022.24,26.79,-1.00,-1.0,2368
5505,2140505,17156,-8,1200,17197.92,26.69,-1.00,-1.0,2443
5508,2140508,17040,-60,1064,17073.29,26.79,-1.00,-1.0,2355
5511,2140511,17100,-88,1248,17145.71,26.84,-1.00,-1.0,2436
5514,2140514,17048,-92,1232,17092.71,26.79,-1.00,-1.0,2375
5516,2140516,16940,-100,1104,16976.23,26.69,-1.00,-1.0,2435
5519,2140519,17048,-60,996,17077.18,26.79,-1.00,-1.0,2381
5522,2140522,17132,4,944,17157.99,26.69,-1.00,-1.0,2434
5525,2140525,17020,-56,1120,17056.90,26.79,-1.00,-1.0,2380
5530,2140530,16944,48,1116,16980.78,26.79,-1.00,-1.0,2448
5532,2140532,17040,24,960,17067.04,26.74,-1.00,-1.0,2372
5535,2140535,17064,-144,956,17091.37,26.69,-1.00,-1.0,2362
5538,2140538,17144,8,1024,17174.56,26.65,-1.00,-1.0,2427
5540,2140540,17024,-64,1128,17061.45,26.79,-1.00,-1.0,2377
5543,2140543,17048,-52,1008,17077.85,26.84,-1.00,-1.0,2434
5546,2140546,17044,-148,1048,17076.83,26.79,-1.00,-1.0,2370
5549,2140549,16916,-88,1060,16949.41,26.65,-1.00,-1.0,2443
5551,2140551,17020,-88,1112,17056.51,26.74,-1.00,-1.0,2368
5557,2140557,17100,-92,1120,17136.89,26.74,-1.00,-1.0,2442
5559,2140559,16924,-40,976,16952.17,26.69,-1.00,-1.0,2375
5562,2140562,17044,-148,1048,17076.83,26.74,-1.00,-1.0,2434
5565,2140565,17012,-76,1084,17046.67,26.79,-1.00,-1.0,2369
5567,2140567,17000,-24,1032,17031.31,26.74,-1.00,-1.0,2360
5570,2140570,17040,12,904,17063.97,26.74,-1.00,-1.0,2432
5573,2140573,16996,8,1120,17032.87,26.74,-1.00,-1.0,2370
5576,2140576,17056,-88,1076,17090.13,26.65,-1.00,-1.0,2429
5578,2140578,17040,-96,1096,17075.48,26.79,-1.00,-1.0,2367
5583,2140583,17028,-48,1104,17063.82,26.65,-1.00,-1.0,2443
5586,2140586,17072,-40,1120,17108.75,26.74,-1.00,-1.0,2368
5589,2140589,17080,-12,1120,17116.69,26.79,-1.00,-1.0,2434
5592,2140592,16948,-32,1160,16987.68,26.74,-1.00,-1.0,2367
5594,2140594,17036,-56,1152,17075.00,26.65,-1.00,-1.0,2435
5597,2140597,16984,-88,1040,17016.04,26.74,-1.00,-1.0,2368
5600,2140600,17112,-124,1128,17149.59,26.74,-1.00,-1.0,2434
5603,2140603,17156,-88,1052,17188.45,26.74,-1.00,-1.0,2368
5605,2140605,17080,-144,1036,17112.00,26.69,-1.00,-1.0,2360
5610,2140610,17060,-76,1136,17097.95,26.69,-1.00,-1.0,2443
5613,2140613,17004,-64,1148,17042.83,26.74,-1.00,-1.0,2368
5616,2140616,16948,-52,996,16977.32,26.79,-1.00,-1.0,2433
5619,2140619,17044,-52,1072,17077.76,26.74,-1.00,-1.0,2367
5621,2140621,17056,-60,1008,17085.87,26.69,-1.00,-1.0,2435
5624,2140624,17032,-16,1100,17067.49,26.84,-1.00,-1.0,2368
5627,2140627,16936,-48,1080,16970.47,26.69,-1.00,-1.0,2432
5630,2140630,17124,-112,972,17151.93,26.74,-1.00,-1.0,2367
5635,2140635,17040,-108,1080,17074.53,26.74,-1.00,-1.0,2445
5637,2140637,17068,12,1216,17111.27,26.74,-1.00,-1.0,2376
5640,2140640,17092,-68,1048,17124.23,26.74,-1.00,-1.0,2441
5643,2140643,17008,-108,1068,17041.84,26.74,-1.00,-1.0,2370
5645,2140645,16956,-172,1060,16989.97,26.74,-1.00,-1.0,2347
5648,2140648,16992,-64,1108,17028.21,26.74,-1.00,-1.0,2434
5651,2140651,17052,-68,1036,17083.58,26.65,-1.00,-1.0,2369
5654,2140654,16972,-56,1068,17005.66,26.79,-1.00,-1.0,2429
5657,2140657,17008,-56,1088,17042.86,26.74,-1.00,-1.0,2378
5661,2140661,17060,-96,960,17087.26,26.74,-1.00,-1.0,2430
5664,2140664,17072,-104,956,17099.06,26.74,-1.00,-1.0,2374
5667,2140667,16984,32,1068,17017.58,26.69,-1.00,-1.0,2436
5670,2140670,16984,68,1004,17013.79,26.65,-1.00,-1.0,2374
5672,2140672,17028,-88,1184,17069.34,26.79,-1.00,-1.0,2437
5675,2140675,16988,-80,1128,17025.60,26.74,-1.00,-1.0,2383
5678,2140678,17120,-48,1156,17159.05,26.88,-1.00,-1.0,2360
5681,2140681,16976,-64,1176,17016.80,26.79,-1.00,-1.0,2442
5684,2140684,17072,-72,1124,17109.11,26.74,-1.00,-1.0,2374
5688,2140688,16968,-12,876,16990.60,26.69,-1.00,-1.0,2443
5691,2140691,16956,16,1000,16985.47,26.74,-1.00,-1.0,2374
5694,2140694,16968,-68,1204,17010.80,26.79,-1.00,-1.0,2434
5697,2140697,17156,-92,1092,17190.96,26.74,-1.00,-1.0,2375
5699,2140699,17032,-72,1052,17064.61,26.79,-1.00,-1.0,2435
5702,2140702,17056,-80,908,17080.34,26.74,-1.00,-1.0,2382
5705,2140705,17048,-12,1048,17080.19,26.69,-1.00,-1.0,2436
5708,2140708,17032,-108,1004,17061.91,26.79,-1.00,-1.0,2369
5713,2140713,17096,84,1124,17133.12,26.79,-1.00,-1.0,2446
5715,2140715,17040,-188,1024,17071.78,26.74,-1.00,-1.0,2377
5718,2140718,17056,-52,952,17082.63,26.79,-1.00,-1.0,2359
5721,2140721,17044,12,1064,17077.18,26.79,-1.00,-1.0,2431
5723,2140723,16968,-112,1088,17003.21,26.88,-1.00,-1.0,2371
5726,2140726,17008,-92,1032,17039.53,26.69,-1.00,-1.0,2434
5729,2140729,17060,-68,1000,17089.42,26.79,-1.00,-1.0,2370
5732,2140732,17008,-16,1060,17041.01,26.69,-1.00,-1.0,2433
5735,2140735,16972,-16,968,16999.59,26.79,-1.00,-1.0,2368
5740,2140740,17040,-60,988,17068.72,26.79,-1.00,-1.0,2443
5742,2140742,17080,-76,1056,17112.78,26.69,-1.00,-1.0,2374
5745,2140745,17040,-116,996,17069.48,26.79,-1.00,-1.0,2441
5748,2140748,17108,-36,972,17135.63,26.69,-1.00,-1.0,2372
5751,2140751,17040,-44,1024,17070.80,26.69,-1.00,-1.0,2442
5753,2140753,17004,-40,1024,17034.85,26.69,-1.00,-1.0,2376
5756,2140756,16932,-40,1088,16966.97,26.69,-1.00,-1.0,2362
5759,2140759,17064,-104,1052,17096.71,26.84,-1.00,-1.0,2438
5762,2140762,16984,-32,944,17010.24,26.69,-1.00,-1.0,2369
5767,2140767,16976,-64,1112,17012.50,26.79,-1.00,-1.0,2442
5769,2140769,17020,-28,1116,17056.57,26.69,-1.00,-1.0,2375
5772,2140772,17036,-232,952,17064.16,26.69,-1.00,-1.0,2434
5775,2140775,16992,-192,1028,17024.15,26.79,-1.00,-1.0,2369
5778,2140778,17084,36,1120,17120.71,26.79,-1.00,-1.0,2429
5780,2140780,17064,-100,1072,17097.93,26.79,-1.00,-1.0,2376
5783,2140783,16976,-76,1172,17016.58,26.69,-1.00,-1.0,2434
5786,2140786,16932,-80,1188,16973.81,26.69,-1.00,-1.0,2371
5791,2140791,17044,-112,1024,17075.10,26.69,-1.00,-1.0,2450
5794,2140794,17040,-80,972,17067.89,26.79,-1.00,-1.0,2368
5796,2140796,17064,-100,1084,17098.69,26.79,-1.00,-1.0,2362
5799,2140799,17028,-80,1176,17068.75,26.84,-1.00,-1.0,2434
5802,2140802,17092,-84,1088,17126.80,26.69,-1.00,-1.0,2376
5804,2140804,16908,-12,1076,16942.21,26.74,-1.00,-1.0,2435
5807,2140807,17020,-112,1196,17062.34,26.69,-1.00,-1.0,2380
5810,2140810,16940,-36,1180,16981.09,26.74,-1.00,-1.0,2436
5813,2140813,16984,-92,1068,17017.79,26.84,-1.00,-1.0,2375
5818,2140818,17044,-120,1092,17079.37,26.74,-1.00,-1.0,2448
5820,2140820,16964,-140,1100,17000.20,26.74,-1.00,-1.0,2367
5823,2140823,17096,-92,1076,17130.07,26.74,-1.00,-1.0,2434
5826,2140826,17124,-64,1100,17159.41,26.65,-1.00,-1.0,2368
5829,2140829,16992,-48,1024,17022.89,26.74,-1.00,-1.0,2438
5831,2140831,17096,-112,1172,17136.49,26.74,-1.00,-1.0,2354
5834,2140834,16940,-184,1048,16973.38,26.84,-1.00,-1.0,2359
5837,2140837,17116,-80,1184,17157.09,26.69,-1.00,-1.0,2441
5840,2140840,17032,-52,1056,17064.79,26.79,-1.00,-1.0,2378
5845,2140845,17040,-116,1096,17075.61,26.79,-1.00,-1.0,2443
5847,2140847,17000,0,1080,17034.27,26.65,-1.00,-1.0,2368
5850,2140850,16992,-76,1032,17023.48,26.69,-1.00,-1.0,2433
5853,2140853,16940,-36,1176,16980.81,26.74,-1.00,-1.0,2369
5856,2140856,16964,60,1000,16993.55,26.69,-1.00,-1.0,2439
5858,2140858,16916,-124,1116,16953.23,26.84,-1.00,-1.0,2368
5861,2140861,17044,-196,1084,17079.56,26.79,-1.00,-1.0,2433
5864,2140864,16964,-44,1168,17004.22,26.84,-1.00,-1.0,2356
5871,2140871,16932,-108,1036,16964.01,26.74,-1.00,-1.0,2440
5873,2140873,16944,-80,1088,16979.08,26.74,-1.00,-1.0,2371
5876,2140876,17072,-52,1064,17105.20,26.65,-1.00,-1.0,2359
5879,2140879,17028,-68,1196,17070.09,26.79,-1.00,-1.0,2443
5881,2140881,17104,-176,1176,17145.28,26.79,-1.00,-1.0,2370
5884,2140884,17060,-52,1180,17100.84,26.79,-1.00,-1.0,2433
5887,2140887,16900,-68,1068,16933.85,26.74,-1.00,-1.0,2368
5890,2140890,16992,-92,984,17020.72,26.69,-1.00,-1.0,2440
5892,2140892,16980,24,1088,17014.84,26.74,-1.00,-1.0,2369
5897,2140897,16944,-116,1084,16979.04,26.79,-1.00,-1.0,2442
5900,2140900,17088,-52,1192,17129.60,26.84,-1.00,-1.0,2369
5903,2140903,17056,0,940,17081.88,26.69,-1.00,-1.0,2439
5905,2140905,17092,-36,1044,17123.89,26.79,-1.00,-1.0,2370
5908,2140908,17000,8,892,17023.39,26.69,-1.00,-1.0,2434
5911,2140911,16932,-108,1004,16962.08,26.84,-1.00,-1.0,2368
5913,2140913,16904,-76,1140,16942.57,26.88,-1.00,-1.0,2359
5916,2140916,17024,-140,912,17048.99,26.65,-1.00,-1.0,2445
5919,2140919,17072,-112,1104,17108.03,26.79,-1.00,-1.0,2369
5924,2140924,17012,-128,1264,17059.37,26.69,-1.00,-1.0,2440
5927,2140927,17112,-72,992,17140.88,26.69,-1.00,-1.0,2367
5929,2140929,17056,-116,1124,17093.39,26.69,-1.00,-1.0,2434
5932,2140932,17044,-136,1164,17084.24,26.79,-1.00,-1.0,2370
5935,2140935,16984,-52,1120,17020.97,26.79,-1.00,-1.0,2432
5938,2140938,17044,-84,1200,17086.40,26.79,-1.00,-1.0,2371
5940,2140940,17040,-88,1008,17070.02,26.79,-1.00,-1.0,2421
5943,2140943,17060,-188,1168,17100.97,26.79,-1.00,-1.0,2369
5948,2140948,17020,-24,992,17048.90,26.74,-1.00,-1.0,2449
5951,2140951,17036,-92,1024,17067.00,26.84,-1.00,-1.0,2371
5953,2140953,16988,-68,1100,17023.71,26.79,-1.00,-1.0,2360
5956,2140956,16856,0,1136,16894.24,26.69,-1.00,-1.0,2432
5959,2140959,17020,-28,1008,17049.85,26.74,-1.00,-1.0,2372
5962,2140962,17024,-52,1124,17061.14,26.69,-1.00,-1.0,2429
5964,2140964,16972,32,972,16999.84,26.74,-1.00,-1.0,2371
5967,2140967,16944,-80,1036,16975.83,26.69,-1.00,-1.0,2432
5970,2140970,17076,-12,1180,17116.73,26.65,-1.00,-1.0,2369
5975,2140975,16940,-120,968,16968.06,26.65,-1.00,-1.0,2444
5978,2140978,17008,-188,1076,17043.04,26.74,-1.00,-1.0,2369
5980,2140980,17040,-76,1100,17075.64,26.74,-1.00,-1.0,2443
5983,2140983,16992,-84,948,17018.63,26.74,-1.00,-1.0,2376
5986,2140986,17012,-96,996,17041.40,26.79,-1.00,-1.0,2362
5988,2140988,17056,48,976,17083.97,26.79,-1.00,-1.0,2431
5991,2140991,17100,-84,1128,17137.37,26.84,-1.00,-1.0,2372
5994,2140994,17000,-88,1168,17040.30,26.79,-1.00,-1.0,2433
5997,2140997,17052,-124,1152,17091.32,26.84,-1.00,-1.0,2373
6002,2141002,17092,4,1144,17130.24,26.74,-1.00,-1.0,2445
6004,2141004,17004,24,1068,17037.52,26.69,-1.00,-1.0,2369
6007,2141007,16960,-72,900,16984.02,26.74,-1.00,-1.0,2438
6010,2141010,16964,-60,872,16986.50,26.79,-1.00,-1.0,2369
6013,2141013,16944,-124,996,16973.70,26.84,-1.00,-1.0,2435
6015,2141015,17088,-48,924,17113.03,26.79,-1.00,-1.0,2370
6018,2141018,16988,-96,1060,17021.31,26.74,-1.00,-1.0,2360
6021,2141021,16960,-40,1096,16995.42,26.84,-1.00,-1.0,2439
6023,2141023,16988,-132,1064,17021.80,26.74,-1.00,-1.0,2370
6028,2141028,17016,-124,1076,17050.44,26.74,-1.00,-1.0,2443
6031,2141031,16904,-88,1144,16942.89,26.79,-1.00,-1.0,2369
6034,2141034,17020,-88,884,17043.17,26.74,-1.00,-1.0,2434
6037,2141037,17020,-152,1216,17064.06,26.79,-1.00,-1.0,2367
6039,2141039,17004,-72,1048,17036.42,26.74,-1.00,-1.0,2433
6042,2141042,16992,-108,936,17018.10,26.69,-1.00,-1.0,2370
6045,2141045,17088,-72,1064,17121.24,26.74,-1.00,-1.0,2432
6048,2141048,17008,-144,1160,17048.12,26.79,-1.00,-1.0,2370
6053,2141053,16984,-164,1192,17026.57,26.69,-1.00,-1.0,2449
6055,2141055,16996,-120,968,17023.97,26.69,-1.00,-1.0,2372
6058,2141058,16988,-124,972,17016.24,26.69,-1.00,-1.0,2443
6061,2141061,17096,-48,1104,17131.68,26.74,-1.00,-1.0,2376
6063,2141063,16932,-144,1132,16970.41,26.79,-1.00,-1.0,2363
6066,2141066,17036,-80,1096,17071.41,26.74,-1.00,-1.0,2433
6069,2141069,16936,-192,992,16966.11,26.69,-1.00,-1.0,2356
6072,2141072,16912,-172,996,16942.18,26.69,-1.00,-1.0,2438
6074,2141074,17020,-32,1160,17059.51,26.79,-1.00,-1.0,2377
6079,2141079,16944,-124,1052,16977.08,26.74,-1.00,-1.0,2442
6082,2141082,17048,-24,1060,17080.94,26.69,-1.00,-1.0,2369
6085,2141085,16984,-32,1084,17018.59,26.84,-1.00,-1.0,2425
6087,2141087,17044,20,1116,17080.51,26.79,-1.00,-1.0,2377
6090,2141090,16956,-160,964,16984.13,26.74,-1.00,-1.0,2432
6093,2141093,17012,-36,1008,17041.88,26.79,-1.00,-1.0,2373
6096,2141096,17016,-120,1052,17048.91,26.74,-1.00,-1.0,2464
6098,2141098,16940,-36,1084,16974.69,26.84,-1.00,-1.0,2367
6101,2141101,17088,-32,1064,17121.12,26.69,-1.00,-1.0,2366
6106,2141106,17000,-116,976,17028.39,26.79,-1.00,-1.0,2460
6109,2141109,17052,-124,1156,17091.59,26.69,-1.00,-1.0,2372
6111,2141111,17084,-64,1028,17115.02,26.69,-1.00,-1.0,2440
6114,2141114,16952,-140,1040,16984.45,26.79,-1.00,-1.0,2381
6117,2141117,16984,-44,1184,17025.28,26.79,-1.00,-1.0,2437
6120,2141120,17044,-100,920,17069.11,26.79,-1.00,-1.0,2373
6122,2141122,16976,-104,1156,17015.63,26.84,-1.00,-1.0,2446
6125,2141125,16968,24,1036,16999.62,26.79,-1.00,-1.0,2380
