timestamp_ms,global_ms,accel_x,accel_y,accel_z,accel_mag,temp_c,voltage,soc,loop_us
3,2135003,17032,-28,1092,17066.99,26.65,-1.00,-1.0,2497
9,2135009,17040,-56,1172,17080.35,26.60,-1.00,-1.0,2461
12,2135012,17088,-64,1124,17125.05,26.60,-1.00,-1.0,2364
15,2135015,17096,-64,1232,17140.45,26.51,-1.00,-1.0,2360
17,2135017,16976,-12,912,17000.48,26.55,-1.00,-1.0,2443
20,2135020,17032,24,1124,17069.06,26.60,-1.00,-1.0,2373
23,2135023,16956,-108,1272,17003.99,26.55,-1.00,-1.0,2446
25,2135025,16992,-20,1032,17023.32,26.41,-1.00,-1.0,2359
28,2135028,16948,-16,1096,16983.41,26.55,-1.00,-1.0,2452
31,2135031,17016,-72,1132,17053.76,26.51,-1.00,-1.0,2360
36,2135036,17012,12,1120,17048.83,26.55,-1.00,-1.0,2452
39,2135039,17028,-88,1024,17058.99,26.65,-1.00,-1.0,2360
41,2135041,16968,-32,1252,17014.16,26.55,-1.00,-1.0,2368
44,2135044,17036,-72,1092,17071.12,26.60,-1.00,-1.0,2440
47,2135047,17040,-20,1016,17070.27,26.65,-1.00,-1.0,2365
49,2135049,17036,-88,1148,17074.86,26.65,-1.00,-1.0,2440
52,2135052,16996,20,952,17022.65,26.55,-1.00,-1.0,2375
55,2135055,17008,-76,1084,17042.68,26.65,-1.00,-1.0,2442
58,2135058,17028,-128,1164,17068.22,26.65,-1.00,-1.0,2370
63,2135063,17088,-72,1028,17119.04,26.55,-1.00,-1.0,2446
65,2135065,17076,-12,1120,17112.70,26.60,-1.00,-1.0,2360
68,2135068,17052,-56,1096,17087.28,26.55,-1.00,-1.0,2369
71,2135071,16972,-156,916,16997.42,26.55,-1.00,-1.0,2444
73,2135073,16988,-60,944,17014.31,26.46,-1.00,-1.0,2367
76,2135076,16988,-16,988,17016.71,26.55,-1.00,-1.0,2446
79,2135079,17000,-104,980,17028.54,26.55,-1.00,-1.0,2361
82,2135082,17052,-36,1028,17083.00,26.55,-1.00,-1.0,2434
84,2135084,17096,-160,1212,17139.65,26.51,-1.00,-1.0,2366
89,2135089,17028,-232,1116,17066.11,26.60,-1.00,-1.0,2449
92,2135092,17036,-64,980,17064.28,26.51,-1.00,-1.0,2360
94,2135094,16976,-60,1208,17019.03,26.55,-1.00,-1.0,2360
97,2135097,17000,-88,1008,17030.09,26.55,-1.00,-1.0,2435
100,2135100,17000,-64,1128,17037.50,26.51,-1.00,-1.0,2365
103,2135103,17036,-36,1212,17079.10,26.55,-1.00,-1.0,2445
105,2135105,16948,-104,1036,16979.95,26.60,-1.00,-1.0,2360
108,2135108,17032,-148,1164,17072.37,26.55,-1.00,-1.0,2440
111,2135111,17076,84,1112,17112.38,26.60,-1.00,-1.0,2348
116,2135116,17004,-88,1172,17044.57,26.46,-1.00,-1.0,2463
119,2135119,17056,-24,1100,17091.45,26.55,-1.00,-1.0,2376
122,2135122,16928,0,1120,16965.01,26.55,-1.00,-1.0,2430
124,2135124,16988,-72,1120,17025.03,26.55,-1.00,-1.0,2367
127,2135127,17040,-68,1164,17079.85,26.55,-1.00,-1.0,2364
130,2135130,16980,-88,1208,17023.14,26.60,-1.00,-1.0,2445
132,2135132,17024,-84,976,17052.16,26.65,-1.00,-1.0,2365
135,2135135,17036,64,1172,17076.39,26.60,-1.00,-1.0,2451
138,2135138,16976,-112,1008,17006.27,26.55,-1.00,-1.0,2369
143,2135143,16980,-64,1128,17017.55,26.55,-1.00,-1.0,2449
145,2135145,16972,-116,1100,17008.01,26.55,-1.00,-1.0,2362
148,2135148,16976,-76,1044,17008.24,26.55,-1.00,-1.0,2441
151,2135151,17044,-36,1032,17075.25,26.55,-1.00,-1.0,2361
154,2135154,17048,-24,960,17075.03,26.55,-1.00,-1.0,2445
156,2135156,17008,-36,1096,17043.31,26.65,-1.00,-1.0,2362
159,2135159,16968,-56,1048,17000.43,26.55,-1.00,-1.0,2361
162,2135162,17040,-68,1240,17085.19,26.60,-1.00,-1.0,2444
165,2135165,17052,-84,1108,17088.17,26.55,-1.00,-1.0,2360
170,2135170,17112,-140,1084,17146.87,26.55,-1.00,-1.0,2446
172,2135172,17048,-76,972,17075.86,26.51,-1.00,-1.0,2351
175,2135175,16956,-72,1048,16988.51,26.55,-1.00,-1.0,2438
178,2135178,16968,-36,1116,17004.70,26.51,-1.00,-1.0,2361
181,2135181,17008,-80,912,17032.62,26.65,-1.00,-1.0,2447
183,2135183,17000,12,928,17025.31,26.60,-1.00,-1.0,2373
186,2135186,17028,0,1068,17061.46,26.65,-1.00,-1.0,2362
189,2135189,17064,-68,1056,17096.78,26.51,-1.00,-1.0,2445
192,2135192,16984,-136,1084,17019.10,26.65,-1.00,-1.0,2368
197,2135197,16944,-172,1112,16981.32,26.37,-1.00,-1.0,2446
199,2135199,17020,-88,964,17047.51,26.55,-1.00,-1.0,2361
202,2135202,17028,-52,980,17056.26,26.55,-1.00,-1.0,2438
205,2135205,16972,-84,1104,17008.08,26.65,-1.00,-1.0,2364
208,2135208,17032,-64,1104,17067.86,26.55,-1.00,-1.0,2438
210,2135210,17040,36,1176,17080.57,26.65,-1.00,-1.0,2369
213,2135213,17032,-80,1208,17074.97,26.55,-1.00,-1.0,2438
216,2135216,17056,-44,1048,17088.22,26.60,-1.00,-1.0,2349
219,2135219,17052,-128,1076,17086.39,26.51,-1.00,-1.0,2367
224,2135224,17068,-20,848,17089.06,26.60,-1.00,-1.0,2447
226,2135226,16992,-36,1052,17024.57,26.55,-1.00,-1.0,2366
229,2135229,16896,-104,948,16922.89,26.51,-1.00,-1.0,2451
232,2135232,17000,-48,1140,17038.25,26.60,-1.00,-1.0,2357
235,2135235,17100,-36,972,17127.64,26.60,-1.00,-1.0,2437
237,2135237,16968,16,964,16995.37,26.55,-1.00,-1.0,2362
240,2135240,17092,-28,900,17115.70,26.51,-1.00,-1.0,2436
243,2135243,17040,-76,1244,17085.52,26.60,-1.00,-1.0,2377
246,2135246,16944,-40,1012,16974.24,26.60,-1.00,-1.0,2351
251,2135251,17044,-24,1152,17082.90,26.60,-1.00,-1.0,2447
253,2135253,17040,-12,1020,17070.51,26.55,-1.00,-1.0,2364
256,2135256,16980,-44,1120,17016.96,26.60,-1.00,-1.0,2436
259,2135259,16908,-28,920,16933.04,26.60,-1.00,-1.0,2374
262,2135262,16972,24,1164,17011.88,26.60,-1.00,-1.0,2431
264,2135264,16948,-96,1216,16991.84,26.46,-1.00,-1.0,2367
267,2135267,16972,-164,1056,17005.61,26.60,-1.00,-1.0,2432
270,2135270,17080,-88,1076,17114.09,26.60,-1.00,-1.0,2373
275,2135275,17080,-28,1060,17112.88,26.51,-1.00,-1.0,2452
277,2135277,17012,-96,1008,17042.11,26.60,-1.00,-1.0,2362
280,2135280,17036,-132,1168,17076.50,26.55,-1.00,-1.0,2377
283,2135283,17004,-64,1092,17039.15,26.65,-1.00,-1.0,2438
286,2135286,17044,-36,1056,17076.72,26.55,-1.00,-1.0,2366
288,2135288,17088,-64,1036,17119.50,26.55,-1.00,-1.0,2446
291,2135291,17060,-96,1044,17092.18,26.55,-1.00,-1.0,2369
294,2135294,17064,16,1128,17101.25,26.65,-1.00,-1.0,2436
297,2135297,16852,-120,1016,16883.03,26.55,-1.00,-1.0,2363
302,2135302,17048,-104,1120,17085.07,26.55,-1.00,-1.0,2454
305,2135305,16968,12,1040,16999.85,26.60,-1.00,-1.0,2362
307,2135307,17000,-116,1008,17030.25,26.55,-1.00,-1.0,2451
310,2135310,16988,-132,1108,17024.61,26.60,-1.00,-1.0,2361
313,2135313,16932,-32,1060,16965.18,26.55,-1.00,-1.0,2364
315,2135315,16948,-120,1028,16979.57,26.55,-1.00,-1.0,2434
318,2135318,17076,-76,1012,17106.13,26.55,-1.00,-1.0,2382
321,2135321,16964,-132,1112,17000.92,26.60,-1.00,-1.0,2436
324,2135324,17052,-124,1124,17089.46,26.55,-1.00,-1.0,2366
329,2135329,17080,-56,988,17108.64,26.55,-1.00,-1.0,2447
332,2135332,16956,-28,1060,16989.12,26.60,-1.00,-1.0,2375
335,2135335,17036,-76,1024,17066.92,26.65,-1.00,-1.0,2430
337,2135337,16908,-92,1076,16942.45,26.60,-1.00,-1.0,2366
340,2135340,17072,-72,1116,17108.59,26.65,-1.00,-1.0,2431
343,2135343,17060,-88,1052,17092.63,26.51,-1.00,-1.0,2366
345,2135345,17008,-120,1092,17043.44,26.55,-1.00,-1.0,2357
348,2135348,16928,0,1052,16960.66,26.55,-1.00,-1.0,2443
351,2135351,16964,-52,1072,16997.92,26.60,-1.00,-1.0,2370
356,2135356,17064,-80,1064,17097.33,26.55,-1.00,-1.0,2450
359,2135359,16896,-84,1012,16926.49,26.55,-1.00,-1.0,2367
361,2135361,16944,-140,1144,16983.15,26.60,-1.00,-1.0,2445
364,2135364,16948,-40,936,16973.88,26.55,-1.00,-1.0,2369
367,2135367,17056,-16,1100,17091.44,26.60,-1.00,-1.0,2458
370,2135370,16964,-52,1132,17001.81,26.69,-1.00,-1.0,2368
372,2135372,17092,-112,1088,17126.96,26.55,-1.00,-1.0,2432
375,2135375,17000,-112,1188,17041.83,26.60,-1.00,-1.0,2368
378,2135378,16984,-28,1064,17017.32,26.51,-1.00,-1.0,2359
383,2135383,16928,-128,1132,16966.29,26.60,-1.00,-1.0,2451
386,2135386,17060,-44,1060,17092.96,26.55,-1.00,-1.0,2373
388,2135388,17032,-112,1148,17071.01,26.51,-1.00,-1.0,2440
391,2135391,17112,-44,1092,17146.86,26.65,-1.00,-1.0,2377
394,2135394,17036,4,1048,17068.21,26.51,-1.00,-1.0,2440
397,2135397,17032,-160,1068,17066.20,26.55,-1.00,-1.0,2366
399,2135399,17080,-208,1164,17120.88,26.51,-1.00,-1.0,2445
402,2135402,16972,-92,1212,17015.47,26.65,-1.00,-1.0,2368
407,2135407,16952,4,1076,16986.12,26.65,-1.00,-1.0,2447
410,2135410,17024,-60,952,17050.70,26.55,-1.00,-1.0,2374
412,2135412,16956,-176,1132,16994.66,26.55,-1.00,-1.0,2364
415,2135415,17040,-136,1116,17077.05,26.55,-1.00,-1.0,2446
418,2135418,17148,-104,1208,17190.81,26.65,-1.00,-1.0,2370
421,2135421,16956,-40,1060,16989.15,26.69,-1.00,-1.0,2451
423,2135423,17000,-60,1032,17031.40,26.65,-1.00,-1.0,2361
426,2135426,16960,-164,1044,16992.89,26.55,-1.00,-1.0,2454
429,2135429,17012,-28,956,17038.86,26.55,-1.00,-1.0,2361
434,2135434,17008,12,1032,17039.29,26.55,-1.00,-1.0,2449
436,2135436,17084,-16,996,17113.02,26.55,-1.00,-1.0,2361
439,2135439,17008,-68,1188,17049.58,26.55,-1.00,-1.0,2440
442,2135442,17072,12,1136,17109.76,26.55,-1.00,-1.0,2361
444,2135444,16972,-12,1140,17010.25,26.55,-1.00,-1.0,2362
447,2135447,17024,-116,1072,17058.11,26.60,-1.00,-1.0,2441
450,2135450,17124,-116,1000,17153.57,26.65,-1.00,-1.0,2366
453,2135453,17040,-100,988,17068.91,26.55,-1.00,-1.0,2437
456,2135456,17128,-104,1140,17166.21,26.55,-1.00,-1.0,2365
461,2135461,17132,-28,1040,17163.56,26.60,-1.00,-1.0,2457
463,2135463,16980,-76,1060,17013.22,26.55,-1.00,-1.0,2361
466,2135466,17068,-112,1024,17099.06,26.51,-1.00,-1.0,2440
469,2135469,16996,-100,1160,17035.83,26.55,-1.00,-1.0,2360
472,2135472,16964,-56,1192,17005.92,26.74,-1.00,-1.0,2441
474,2135474,17044,-64,1120,17080.88,26.55,-1.00,-1.0,2361
477,2135477,17028,-52,1124,17065.14,26.55,-1.00,-1.0,2362
480,2135480,17132,-32,992,17160.73,26.69,-1.00,-1.0,2452
483,2135483,16992,-24,1080,17026.30,26.55,-1.00,-1.0,2360
488,2135488,17092,-8,1044,17123.86,26.46,-1.00,-1.0,2447
491,2135491,16944,-124,992,16973.47,26.55,-1.00,-1.0,2367
493,2135493,17060,-60,1052,17092.51,26.55,-1.00,-1.0,2432
496,2135496,17016,-16,1136,17053.88,26.55,-1.00,-1.0,2365
499,2135499,17052,0,1116,17088.48,26.55,-1.00,-1.0,2433
502,2135502,17024,-40,1088,17058.78,26.65,-1.00,-1.0,2366
504,2135504,16960,-92,1060,16993.34,26.55,-1.00,-1.0,2357
507,2135507,17028,-40,1156,17067.24,26.60,-1.00,-1.0,2448
510,2135510,16956,-56,1052,16988.70,26.60,-1.00,-1.0,2369
515,2135515,17012,-68,1184,17053.29,26.55,-1.00,-1.0,2445
518,2135518,17016,-28,1116,17052.58,26.65,-1.00,-1.0,2372
521,2135521,17052,-80,1032,17083.39,26.60,-1.00,-1.0,2432
523,2135523,17024,-56,1020,17054.62,26.46,-1.00,-1.0,2365
526,2135526,17056,-24,1164,17095.69,26.55,-1.00,-1.0,2432
529,2135529,17016,-4,940,17041.95,26.55,-1.00,-1.0,2365
531,2135531,17016,-60,1040,17047.86,26.60,-1.00,-1.0,2433
534,2135534,17044,-40,1048,17076.24,26.65,-1.00,-1.0,2366
537,2135537,17040,4,1112,17076.25,26.60,-1.00,-1.0,2370
542,2135542,17000,-76,1092,17035.21,26.51,-1.00,-1.0,2445
545,2135545,17072,-100,1036,17103.70,26.60,-1.00,-1.0,2374
548,2135548,17048,-8,1168,17087.97,26.69,-1.00,-1.0,2433
550,2135550,16960,-12,1016,16990.41,26.51,-1.00,-1.0,2365
553,2135553,17084,-128,1200,17126.57,26.60,-1.00,-1.0,2433
556,2135556,17004,-68,1116,17040.72,26.60,-1.00,-1.0,2366
558,2135558,17032,-16,952,17058.59,26.51,-1.00,-1.0,2431
561,2135561,17120,-140,980,17148.60,26.55,-1.00,-1.0,2366
566,2135566,16960,-112,1104,16996.26,26.55,-1.00,-1.0,2446
569,2135569,16996,-16,1088,17030.80,26.55,-1.00,-1.0,2362
571,2135571,16952,-116,1000,16981.87,26.60,-1.00,-1.0,2362
574,2135574,17092,-148,1060,17125.48,26.60,-1.00,-1.0,2431
577,2135577,17080,-52,1088,17114.70,26.55,-1.00,-1.0,2367
580,2135580,17008,-128,1088,17043.24,26.51,-1.00,-1.0,2436
582,2135582,17004,-84,972,17031.96,26.55,-1.00,-1.0,2348
585,2135585,17064,-108,980,17092.46,26.60,-1.00,-1.0,2439
588,2135588,16948,-68,1040,16980.02,26.55,-1.00,-1.0,2350
593,2135593,17072,-116,988,17100.96,26.65,-1.00,-1.0,2461
596,2135596,16972,-68,1064,17005.46,26.55,-1.00,-1.0,2368
599,2135599,16988,-80,956,17015.07,26.65,-1.00,-1.0,2449
601,2135601,16916,-80,1112,16952.70,26.55,-1.00,-1.0,2365
604,2135604,17016,-88,956,17043.06,26.65,-1.00,-1.0,2348
607,2135607,17036,-28,1016,17066.29,26.55,-1.00,-1.0,2447
609,2135609,16948,-112,1068,16981.99,26.65,-1.00,-1.0,2376
612,2135612,17008,-76,996,17037.31,26.69,-1.00,-1.0,2420
615,2135615,17000,-120,1140,17038.60,26.60,-1.00,-1.0,2365
620,2135620,17020,-244,1160,17061.23,26.65,-1.00,-1.0,2454
623,2135623,17032,-124,1056,17065.16,26.55,-1.00,-1.0,2363
626,2135626,17028,-4,1032,17059.24,26.60,-1.00,-1.0,2448
628,2135628,17148,20,1124,17184.81,26.55,-1.00,-1.0,2371
631,2135631,17044,12,1140,17082.09,26.60,-1.00,-1.0,2444
634,2135634,16996,-36,1092,17031.08,26.65,-1.00,-1.0,2363
636,2135636,17032,-92,988,17060.88,26.51,-1.00,-1.0,2364
639,2135639,16992,-92,1004,17021.88,26.60,-1.00,-1.0,2432
642,2135642,17000,-92,964,17027.56,26.51,-1.00,-1.0,2365
647,2135647,17048,32,1116,17084.52,26.60,-1.00,-1.0,2445
650,2135650,17032,-192,860,17054.78,26.60,-1.00,-1.0,2366
652,2135652,17044,-112,1020,17074.86,26.55,-1.00,-1.0,2435
655,2135655,16964,92,1120,17001.18,26.60,-1.00,-1.0,2366
658,2135658,17104,-4,1148,17142.48,26.55,-1.00,-1.0,2432
661,2135661,17060,-92,1084,17094.65,26.60,-1.00,-1.0,2366
663,2135663,17080,-32,1012,17109.98,26.55,-1.00,-1.0,2356
666,2135666,16992,-88,1020,17022.81,26.65,-1.00,-1.0,2440
669,2135669,16908,0,1068,16941.70,26.60,-1.00,-1.0,2361
674,2135674,17076,0,932,17101.42,26.65,-1.00,-1.0,2448
677,2135677,16960,-8,1212,17003.25,26.51,-1.00,-1.0,2365
679,2135679,17048,-96,940,17074.17,26.55,-1.00,-1.0,2433
682,2135682,17000,-12,996,17029.16,26.60,-1.00,-1.0,2367
685,2135685,17012,4,984,17040.44,26.60,-1.00,-1.0,2432
688,2135688,17076,-96,972,17103.91,26.60,-1.00,-1.0,2366
690,2135690,17012,-52,1164,17051.86,26.65,-1.00,-1.0,2356
693,2135693,16928,-92,1032,16959.68,26.55,-1.00,-1.0,2440
696,2135696,17092,-24,992,17120.78,26.65,-1.00,-1.0,2364
701,2135701,17124,-8,1052,17156.29,26.65,-1.00,-1.0,2445
704,2135704,17016,0,1116,17052.56,26.60,-1.00,-1.0,2348
707,2135707,16888,-104,972,16916.27,26.55,-1.00,-1.0,2435
709,2135709,17140,-60,1108,17175.88,26.51,-1.00,-1.0,2363
712,2135712,17044,-76,1128,17081.46,26.51,-1.00,-1.0,2438
715,2135715,17004,-8,1192,17045.73,26.60,-1.00,-1.0,2360
717,2135717,16972,-40,1156,17011.37,26.51,-1.00,-1.0,2360
720,2135720,17028,-48,1084,17062.54,26.60,-1.00,-1.0,2448
723,2135723,17008,-16,1116,17044.58,26.55,-1.00,-1.0,2368
728,2135728,16932,-108,1268,16979.76,26.55,-1.00,-1.0,2448
731,2135731,17020,-128,1000,17049.83,26.46,-1.00,-1.0,2359
734,2135734,16980,8,1044,17012.07,26.55,-1.00,-1.0,2445
736,2135736,17068,-80,992,17096.99,26.65,-1.00,-1.0,2362
739,2135739,16988,-96,996,17017.44,26.55,-1.00,-1.0,2438
742,2135742,17044,-36,1184,17085.11,26.65,-1.00,-1.0,2361
745,2135745,16936,-88,1000,16965.72,26.55,-1.00,-1.0,2437
747,2135747,16992,-124,1160,17032.00,26.60,-1.00,-1.0,2349
750,2135750,17060,-56,1044,17092.01,26.60,-1.00,-1.0,2364
755,2135755,17032,-92,1104,17067.99,26.55,-1.00,-1.0,2446
758,2135758,17000,-116,1120,17037.25,26.55,-1.00,-1.0,2361
761,2135761,17000,-124,948,17026.86,26.55,-1.00,-1.0,2438
764,2135764,17084,-124,1076,17118.30,26.55,-1.00,-1.0,2366
766,2135766,17040,-88,1068,17073.66,26.55,-1.00,-1.0,2430
769,2135769,16968,-48,908,16992.35,26.60,-1.00,-1.0,2354
772,2135772,17020,-152,1180,17061.53,26.46,-1.00,-1.0,2440
775,2135775,16996,-100,1012,17026.40,26.60,-1.00,-1.0,2368
780,2135780,17052,-24,984,17080.38,26.51,-1.00,-1.0,2445
782,2135782,17044,88,1032,17075.44,26.51,-1.00,-1.0,2362
785,2135785,17044,16,1072,17077.69,26.60,-1.00,-1.0,2363
788,2135788,17080,36,1228,17124.12,26.55,-1.00,-1.0,2448
790,2135790,17080,-12,1076,17113.86,26.55,-1.00,-1.0,2424
793,2135793,16992,-8,984,17020.47,26.51,-1.00,-1.0,2443
796,2135796,17008,-36,1104,17043.83,26.60,-1.00,-1.0,2373
799,2135799,17120,24,1120,17156.61,26.60,-1.00,-1.0,2436
801,2135801,17100,-68,1024,17130.77,26.60,-1.00,-1.0,2369
806,2135806,16988,-116,1132,17026.07,26.69,-1.00,-1.0,2442
809,2135809,16884,-52,1124,16921.45,26.65,-1.00,-1.0,2362
812,2135812,16972,12,1112,17008.39,26.55,-1.00,-1.0,2368
815,2135815,17004,20,1040,17035.79,26.69,-1.00,-1.0,2430
817,2135817,17024,-68,1160,17063.61,26.51,-1.00,-1.0,2367
820,2135820,17072,-100,1112,17108.47,26.60,-1.00,-1.0,2428
823,2135823,17064,-120,1000,17093.70,26.55,-1.00,-1.0,2367
825,2135825,16928,24,1224,16972.21,26.60,-1.00,-1.0,2431
828,2135828,16984,-68,980,17012.39,26.65,-1.00,-1.0,2375
833,2135833,17044,-44,1064,17077.24,26.55,-1.00,-1.0,2451
836,2135836,17044,-32,1216,17087.35,26.60,-1.00,-1.0,2370
839,2135839,17040,-108,952,17066.91,26.55,-1.00,-1.0,2422
841,2135841,17076,-140,1004,17106.06,26.60,-1.00,-1.0,2363
844,2135844,17048,-68,1052,17080.56,26.65,-1.00,-1.0,2367
847,2135847,16984,-112,1056,17017.17,26.65,-1.00,-1.0,2435
850,2135850,16984,-60,1024,17014.95,26.55,-1.00,-1.0,2366
852,2135852,17040,-152,1000,17069.99,26.60,-1.00,-1.0,2436
855,2135855,16940,96,1084,16974.92,26.65,-1.00,-1.0,2365
860,2135860,17060,-100,1016,17090.52,26.51,-1.00,-1.0,2441
863,2135863,16944,-52,1136,16982.12,26.55,-1.00,-1.0,2363
866,2135866,16984,-148,976,17012.66,26.65,-1.00,-1.0,2441
868,2135868,16916,-28,1128,16953.59,26.46,-1.00,-1.0,2350
871,2135871,17040,-224,1084,17075.91,26.60,-1.00,-1.0,2435
874,2135874,16980,-60,1004,17009.76,26.46,-1.00,-1.0,2362
876,2135876,16984,-72,1048,17016.46,26.60,-1.00,-1.0,2361
879,2135879,17064,-72,1088,17098.80,26.60,-1.00,-1.0,2430
882,2135882,17108,-196,1136,17146.79,26.60,-1.00,-1.0,2368
887,2135887,16968,-16,1112,17004.41,26.60,-1.00,-1.0,2442
890,2135890,17132,-76,1124,17169.00,26.69,-1.00,-1.0,2362
893,2135893,16932,-80,1036,16963.85,26.60,-1.00,-1.0,2442
895,2135895,17044,-8,1144,17082.35,26.51,-1.00,-1.0,2365
898,2135898,17080,-144,1036,17112.00,26.60,-1.00,-1.0,2435
901,2135901,17000,-56,1168,17040.17,26.55,-1.00,-1.0,2362
904,2135904,16928,-76,928,16953.59,26.55,-1.00,-1.0,2435
906,2135906,16976,-80,1056,17009.00,26.60,-1.00,-1.0,2363
909,2135909,17088,-16,1108,17123.89,26.60,-1.00,-1.0,2362
914,2135914,17040,-4,988,17068.62,26.60,-1.00,-1.0,2443
917,2135917,16940,-56,964,16967.50,26.65,-1.00,-1.0,2364
920,2135920,16976,-148,980,17004.91,26.60,-1.00,-1.0,2435
923,2135923,16996,-160,1088,17031.54,26.65,-1.00,-1.0,2368
925,2135925,17012,-64,1012,17042.19,26.60,-1.00,-1.0,2423
928,2135928,17064,-112,960,17091.35,26.55,-1.00,-1.0,2368
931,2135931,16972,-96,1048,17004.60,26.55,-1.00,-1.0,2425
933,2135933,17112,-60,1060,17144.90,26.55,-1.00,-1.0,2363
938,2135938,17056,-76,1044,17088.09,26.55,-1.00,-1.0,2442
941,2135941,16964,0,1256,17010.43,26.60,-1.00,-1.0,2362
944,2135944,17048,-56,1256,17094.30,26.55,-1.00,-1.0,2363
947,2135947,17032,-16,1100,17067.49,26.55,-1.00,-1.0,2430
949,2135949,16976,-104,1108,17012.44,26.55,-1.00,-1.0,2368
952,2135952,16964,-36,1052,16996.63,26.55,-1.00,-1.0,2428
955,2135955,17012,4,1096,17047.27,26.60,-1.00,-1.0,2367
958,2135958,17100,-52,1200,17142.13,26.65,-1.00,-1.0,2430
960,2135960,17124,-72,1124,17161.00,26.55,-1.00,-1.0,2369
965,2135965,16972,-88,952,16998.91,26.55,-1.00,-1.0,2442
968,2135968,16892,-68,1048,16924.62,26.60,-1.00,-1.0,2362
971,2135971,17060,-76,1116,17096.63,26.65,-1.00,-1.0,2369
974,2135974,17036,-64,1060,17069.06,26.55,-1.00,-1.0,2430
976,2135976,17088,-12,1012,17117.95,26.65,-1.00,-1.0,2369
979,2135979,17036,-68,1120,17072.91,26.65,-1.00,-1.0,2428
982,2135982,17060,-60,1020,17090.57,26.51,-1.00,-1.0,2366
985,2135985,16996,-84,1052,17028.73,26.65,-1.00,-1.0,2442
987,2135987,16968,-112,1096,17003.73,26.65,-1.00,-1.0,2368
992,2135992,16912,-48,1076,16946.26,26.55,-1.00,-1.0,2442
995,2135995,16976,-12,1000,17005.43,26.55,-1.00,-1.0,2362
998,2135998,16980,-68,984,17008.62,26.55,-1.00,-1.0,2435
1001,2136001,17052,-100,1128,17089.56,26.55,-1.00,-1.0,2369
1003,2136003,17056,-44,1016,17086.29,26.65,-1.00,-1.0,2360
1006,2136006,16984,-104,1088,17019.13,26.60,-1.00,-1.0,2442
1009,2136009,17096,-32,1044,17127.88,26.65,-1.00,-1.0,2370
1012,2136012,17012,-148,992,17041.54,26.60,-1.00,-1.0,2444
1015,2136015,17052,-24,1148,17090.62,26.65,-1.00,-1.0,2362
1020,2136020,16996,-140,1104,17032.39,26.55,-1.00,-1.0,2444
1022,2136022,17100,-108,988,17128.86,26.65,-1.00,-1.0,2363
1025,2136025,16988,-80,1088,17022.99,26.51,-1.00,-1.0,2433
1028,2136028,16996,-52,1152,17035.08,26.55,-1.00,-1.0,2375
1031,2136031,16980,-60,1200,17022.46,26.65,-1.00,-1.0,2431
1033,2136033,17008,12,1052,17040.51,26.55,-1.00,-1.0,2355
1036,2136036,17048,-24,1112,17084.24,26.55,-1.00,-1.0,2428
1039,2136039,17044,-164,1040,17076.49,26.55,-1.00,-1.0,2367
1042,2136042,17088,-36,1196,17129.84,26.60,-1.00,-1.0,2364
1047,2136047,17012,-60,1112,17048.41,26.55,-1.00,-1.0,2445
1049,2136049,16992,-72,1040,17023.95,26.51,-1.00,-1.0,2363
1052,2136052,17020,-52,1132,17057.68,26.60,-1.00,-1.0,2449
1055,2136055,17024,-68,1132,17061.73,26.55,-1.00,-1.0,2370
1058,2136058,16964,-80,1084,16998.79,26.60,-1.00,-1.0,2436
1060,2136060,17036,-52,976,17064.01,26.55,-1.00,-1.0,2363
1063,2136063,17040,-52,1104,17075.80,26.60,-1.00,-1.0,2434
1066,2136066,17032,84,1120,17068.99,26.55,-1.00,-1.0,2368
1071,2136071,17096,-4,1076,17129.83,26.60,-1.00,-1.0,2444
1073,2136073,16964,-44,1080,16998.40,26.51,-1.00,-1.0,2363
1076,2136076,17048,-112,1112,17084.60,26.51,-1.00,-1.0,2433
1079,2136079,17008,-56,1100,17043.63,26.65,-1.00,-1.0,2375
1081,2136081,17028,-60,1120,17064.90,26.60,-1.00,-1.0,2360
1084,2136084,17080,-24,1108,17115.92,26.51,-1.00,-1.0,2448
1087,2136087,16928,-72,1036,16959.82,26.51,-1.00,-1.0,2371
1090,2136090,17044,8,1068,17077.43,26.65,-1.00,-1.0,2435
1093,2136093,17072,-28,1172,17112.21,26.55,-1.00,-1.0,2363
1097,2136097,17044,16,1032,17075.22,26.55,-1.00,-1.0,2446
1100,2136100,17044,-20,1152,17082.90,26.55,-1.00,-1.0,2350
1103,2136103,17004,-20,1144,17042.45,26.55,-1.00,-1.0,2436
1106,2136106,16996,-100,1008,17026.16,26.55,-1.00,-1.0,2367
1108,2136108,16988,-64,1024,17018.96,26.55,-1.00,-1.0,2425
1111,2136111,17028,16,972,17055.73,26.51,-1.00,-1.0,2369
1114,2136114,17028,-12,832,17048.32,26.46,-1.00,-1.0,2361
1117,2136117,17040,60,1044,17072.06,26.60,-1.00,-1.0,2427
1120,2136120,17040,-76,1108,17076.15,26.55,-1.00,-1.0,2369
1125,2136125,16996,48,1144,17034.53,26.55,-1.00,-1.0,2442
1127,2136127,16952,-4,1184,16993.30,26.55,-1.00,-1.0,2369
1130,2136130,17024,-16,1096,17059.25,26.55,-1.00,-1.0,2435
1133,2136133,17084,-56,1256,17130.20,26.55,-1.00,-1.0,2362
1136,2136136,16988,-136,1020,17019.14,26.55,-1.00,-1.0,2444
1138,2136138,16956,-100,1048,16988.65,26.65,-1.00,-1.0,2372
1141,2136141,17060,-128,1120,17097.20,26.55,-1.00,-1.0,2441
1144,2136144,16932,-124,1024,16963.39,26.55,-1.00,-1.0,2366
1149,2136149,16988,-24,1096,17023.34,26.55,-1.00,-1.0,2449
1151,2136151,16976,-92,956,17003.15,26.60,-1.00,-1.0,2362
1154,2136154,16980,-20,1244,17025.52,26.65,-1.00,-1.0,2368
1157,2136157,17020,-80,1136,17058.06,26.55,-1.00,-1.0,2438
1160,2136160,17048,-136,1032,17079.75,26.65,-1.00,-1.0,2368
1162,2136162,17040,32,1084,17074.47,26.55,-1.00,-1.0,2437
1165,2136165,16988,-136,1096,17023.86,26.55,-1.00,-1.0,2377
1168,2136168,16916,-68,1104,16952.12,26.55,-1.00,-1.0,2437
1171,2136171,17000,-4,1008,17029.86,26.60,-1.00,-1.0,2363
1176,2136176,17008,-104,1092,17043.34,26.65,-1.00,-1.0,2444
1179,2136179,17016,-88,1140,17054.37,26.65,-1.00,-1.0,2370
1181,2136181,17032,-72,992,17061.02,26.55,-1.00,-1.0,2438
1184,2136184,17032,-164,1124,17069.84,26.65,-1.00,-1.0,2377
1187,2136187,17116,-112,1096,17151.42,26.55,-1.00,-1.0,2435
1190,2136190,16988,-124,992,17017.39,26.65,-1.00,-1.0,2368
1192,2136192,16960,-88,1136,16998.23,26.51,-1.00,-1.0,2360
1195,2136195,17056,-84,1080,17090.37,26.69,-1.00,-1.0,2428
1198,2136198,16996,-76,1040,17027.96,26.60,-1.00,-1.0,2375
1203,2136203,17064,-76,1040,17095.83,26.60,-1.00,-1.0,2442
1205,2136205,17080,-108,1124,17117.29,26.65,-1.00,-1.0,2362
1208,2136208,16984,-40,1000,17013.46,26.51,-1.00,-1.0,2421
1211,2136211,16960,-12,1052,16992.60,26.60,-1.00,-1.0,2365
1214,2136214,17084,-52,1260,17130.48,26.60,-1.00,-1.0,2428
1216,2136216,16968,-32,1092,17003.13,26.65,-1.00,-1.0,2375
1219,2136219,17044,-28,1048,17076.21,26.60,-1.00,-1.0,2429
1222,2136222,17036,-32,1024,17066.78,26.65,-1.00,-1.0,2370
1227,2136227,17040,-76,1008,17069.96,26.65,-1.00,-1.0,2449
1229,2136229,17104,-16,1032,17135.11,26.65,-1.00,-1.0,2362
1232,2136232,17020,-84,1088,17054.95,26.65,-1.00,-1.0,2375
1235,2136235,17140,-48,1080,17174.06,26.60,-1.00,-1.0,2436
1238,2136238,17024,-144,1088,17059.34,26.65,-1.00,-1.0,2368
1240,2136240,17060,-112,984,17088.72,26.55,-1.00,-1.0,2444
1243,2136243,16948,-16,1160,16987.66,26.55,-1.00,-1.0,2369
1246,2136246,17024,24,1044,17056.00,26.51,-1.00,-1.0,2421
1249,2136249,16976,-68,960,17003.26,26.65,-1.00,-1.0,2372
1254,2136254,16956,-12,1104,16991.91,26.55,-1.00,-1.0,2450
1256,2136256,17020,-128,1128,17057.82,26.55,-1.00,-1.0,2362
1259,2136259,17076,-20,992,17104.80,26.55,-1.00,-1.0,2436
1262,2136262,17072,-12,1072,17105.63,26.60,-1.00,-1.0,2363
1265,2136265,16940,-116,1036,16972.05,26.65,-1.00,-1.0,2441
1267,2136267,17084,-24,1024,17114.68,26.51,-1.00,-1.0,2362
1270,2136270,16980,-60,1096,17015.44,26.46,-1.00,-1.0,2360
1273,2136273,17028,-140,1000,17057.91,26.51,-1.00,-1.0,2421
1276,2136276,16992,-64,1200,17034.44,26.60,-1.00,-1.0,2370
1281,2136281,16996,48,1148,17034.79,26.60,-1.00,-1.0,2447
1283,2136283,16932,36,1036,16963.70,26.55,-1.00,-1.0,2373
1286,2136286,17072,-88,1232,17116.62,26.51,-1.00,-1.0,2434
1289,2136289,16984,-68,1024,17014.98,26.51,-1.00,-1.0,2365
1292,2136292,17076,-80,1032,17107.34,26.60,-1.00,-1.0,2447
1294,2136294,16964,12,1056,16996.84,26.65,-1.00,-1.0,2363
1297,2136297,17056,-104,1012,17086.31,26.51,-1.00,-1.0,2431
1300,2136300,16992,-24,1096,17027.33,26.51,-1.00,-1.0,2365
1305,2136305,17016,-12,1164,17055.77,26.60,-1.00,-1.0,2447
1307,2136307,16920,16,1040,16951.94,26.51,-1.00,-1.0,2371
1310,2136310,17000,-28,1136,17037.94,26.55,-1.00,-1.0,2361
1313,2136313,17064,-72,1028,17095.09,26.65,-1.00,-1.0,2439
1315,2136315,17020,-96,1068,17053.75,26.69,-1.00,-1.0,2366
1318,2136318,16980,-48,1008,17009.96,26.65,-1.00,-1.0,2434
1321,2136321,17016,-60,1040,17047.86,26.60,-1.00,-1.0,2349
1324,2136324,17096,-108,1208,17138.96,26.55,-1.00,-1.0,2436
1327,2136327,17076,-128,1064,17109.60,26.60,-1.00,-1.0,2363
1332,2136332,16944,-40,1104,16979.97,26.60,-1.00,-1.0,2451
1335,2136335,17008,-40,1180,17048.93,26.60,-1.00,-1.0,2362
1337,2136337,17096,-56,1044,17127.94,26.51,-1.00,-1.0,2445
1340,2136340,16888,-84,1040,16920.20,26.60,-1.00,-1.0,2362
1343,2136343,17056,-64,1164,17095.79,26.60,-1.00,-1.0,2443
1345,2136345,17020,-160,1008,17050.57,26.51,-1.00,-1.0,2361
1348,2136348,17048,-60,996,17077.18,26.51,-1.00,-1.0,2376
1351,2136351,17020,-124,1240,17065.56,26.55,-1.00,-1.0,2421
1354,2136354,16960,-100,1100,16995.93,26.65,-1.00,-1.0,2370
1359,2136359,17080,-140,1108,17116.47,26.55,-1.00,-1.0,2444
1362,2136362,16968,-28,1092,17003.12,26.60,-1.00,-1.0,2369
1364,2136364,17076,-168,1308,17126.85,26.46,-1.00,-1.0,2448
1367,2136367,17056,-32,1152,17094.89,26.46,-1.00,-1.0,2349
1370,2136370,16880,-84,992,16909.33,26.60,-1.00,-1.0,2437
1373,2136373,17024,-36,1128,17061.37,26.55,-1.00,-1.0,2365
1375,2136375,17052,-96,1168,17092.22,26.55,-1.00,-1.0,2420
1378,2136378,16968,-52,1152,17007.14,26.65,-1.00,-1.0,2366
1383,2136383,17028,-8,1096,17063.24,26.55,-1.00,-1.0,2450
1386,2136386,17044,-112,1076,17078.30,26.69,-1.00,-1.0,2347
1388,2136388,16988,-88,1048,17020.52,26.65,-1.00,-1.0,2363
1391,2136391,16904,-76,996,16933.49,26.55,-1.00,-1.0,2435
1394,2136394,16956,-12,1072,16989.86,26.55,-1.00,-1.0,2368
1397,2136397,17048,-24,1204,17090.48,26.65,-1.00,-1.0,2431
1399,2136399,17028,-68,1172,17068.42,26.65,-1.00,-1.0,2372
1402,2136402,17092,-20,916,17116.54,26.55,-1.00,-1.0,2432
1405,2136405,17044,-124,1124,17081.47,26.55,-1.00,-1.0,2368
1410,2136410,16992,-36,1048,17024.33,26.55,-1.00,-1.0,2442
1413,2136413,16980,-104,1072,17014.12,26.65,-1.00,-1.0,2366
1415,2136415,17112,-40,1124,17148.92,26.65,-1.00,-1.0,2436
1418,2136418,16976,-48,1060,17009.13,26.65,-1.00,-1.0,2368
1421,2136421,16980,-44,1096,17015.39,26.55,-1.00,-1.0,2431
1424,2136424,17020,-100,1012,17050.35,26.55,-1.00,-1.0,2362
1426,2136426,17072,-28,1060,17104.90,26.55,-1.00,-1.0,2361
1429,2136429,17028,-96,1096,17063.51,26.60,-1.00,-1.0,2432
1432,2136432,16984,4,1044,17016.06,26.51,-1.00,-1.0,2365
1437,2136437,17128,-32,1232,17172.28,26.60,-1.00,-1.0,2429
1440,2136440,17068,-88,1028,17099.16,26.65,-1.00,-1.0,2365
1442,2136442,16984,-108,1112,17020.71,26.51,-1.00,-1.0,2436
1445,2136445,17084,-44,1148,17122.58,26.65,-1.00,-1.0,2367
1448,2136448,16984,-52,920,17008.98,26.60,-1.00,-1.0,2432
1451,2136451,16892,-108,1092,16927.60,26.55,-1.00,-1.0,2367
1453,2136453,16948,-88,1092,16983.37,26.55,-1.00,-1.0,2435
1456,2136456,16984,-88,1036,17015.79,26.65,-1.00,-1.0,2373
1461,2136461,17080,-84,952,17106.72,26.65,-1.00,-1.0,2457
1464,2136464,16952,-140,1076,16986.69,26.55,-1.00,-1.0,2366
1466,2136466,17044,-64,1180,17084.92,26.55,-1.00,-1.0,2369
1469,2136469,17016,-112,1096,17051.63,26.65,-1.00,-1.0,2435
1472,2136472,16988,-136,1144,17027.02,26.55,-1.00,-1.0,2353
1475,2136475,17052,-136,1048,17084.71,26.60,-1.00,-1.0,2442
1477,2136477,17080,-20,1012,17109.97,26.55,-1.00,-1.0,2375
1480,2136480,17020,-72,1168,17060.18,26.55,-1.00,-1.0,2438
1483,2136483,17000,-48,1216,17043.50,26.65,-1.00,-1.0,2366
1488,2136488,17068,-92,1144,17106.54,26.55,-1.00,-1.0,2451
1491,2136491,16948,-132,1096,16983.91,26.55,-1.00,-1.0,2360
1493,2136493,16984,-168,964,17012.17,26.55,-1.00,-1.0,2451
1496,2136496,17072,-108,1112,17108.52,26.55,-1.00,-1.0,2368
1499,2136499,17012,4,1140,17050.15,26.65,-1.00,-1.0,2445
1502,2136502,17000,-72,1120,17037.01,26.55,-1.00,-1.0,2360
1504,2136504,16928,-76,1024,16959.11,26.55,-1.00,-1.0,2369
1507,2136507,16992,-116,1136,17030.33,26.55,-1.00,-1.0,2448
1510,2136510,17032,-16,1092,17066.98,26.55,-1.00,-1.0,2369
1515,2136515,17160,-60,904,17183.90,26.65,-1.00,-1.0,2452
1518,2136518,16972,-84,976,17000.25,26.55,-1.00,-1.0,2360
1520,2136520,17072,-44,912,17096.40,26.60,-1.00,-1.0,2457
1523,2136523,17016,-64,1128,17053.47,26.55,-1.00,-1.0,2368
1526,2136526,17016,-184,1264,17063.88,26.60,-1.00,-1.0,2448
1529,2136529,17000,-68,1008,17029.99,26.60,-1.00,-1.0,2422
1532,2136532,17044,-116,1112,17080.63,26.65,-1.00,-1.0,2436
1534,2136534,17040,20,980,17068.17,26.55,-1.00,-1.0,2373
1539,2136539,17032,-100,1100,17067.78,26.55,-1.00,-1.0,2439
1542,2136542,17000,-92,1064,17033.51,26.60,-1.00,-1.0,2366
1544,2136544,16924,-152,1028,16955.88,26.55,-1.00,-1.0,2362
1547,2136547,16988,-56,1168,17028.20,26.51,-1.00,-1.0,2464
1550,2136550,16856,-32,1032,16887.59,26.51,-1.00,-1.0,2368
1553,2136553,16992,36,1148,17030.77,26.55,-1.00,-1.0,2437
1556,2136556,17052,-136,1048,17084.71,26.51,-1.00,-1.0,2365
1558,2136558,16900,16,1084,16934.74,26.55,-1.00,-1.0,2438
1561,2136561,16956,-24,1132,16993.76,26.60,-1.00,-1.0,2366
1566,2136566,17056,-108,1164,17096.01,26.60,-1.00,-1.0,2450
1569,2136569,17044,-16,1016,17074.26,26.60,-1.00,-1.0,2367
1572,2136572,17112,-40,1096,17147.11,26.60,-1.00,-1.0,2451
1574,2136574,17024,-76,1084,17058.65,26.51,-1.00,-1.0,2373
1577,2136577,17052,-8,1164,17091.68,26.60,-1.00,-1.0,2438
1580,2136580,17036,-96,1108,17072.26,26.60,-1.00,-1.0,2368
1582,2136582,17088,-48,1016,17118.24,26.60,-1.00,-1.0,2361
1585,2136585,16992,-128,1032,17023.79,26.65,-1.00,-1.0,2424
1588,2136588,17020,-104,1068,17053.79,26.51,-1.00,-1.0,2355
1593,2136593,17128,-68,1000,17157.30,26.65,-1.00,-1.0,2443
1596,2136596,17028,28,1076,17061.98,26.55,-1.00,-1.0,2366
1599,2136599,17080,-132,932,17105.92,26.51,-1.00,-1.0,2447
1601,2136601,17024,-44,972,17051.78,26.55,-1.00,-1.0,2353
1604,2136604,17060,-60,1084,17094.51,26.46,-1.00,-1.0,2437
1607,2136607,16952,-52,980,16980.38,26.65,-1.00,-1.0,2364
1610,2136610,17032,-148,1200,17074.86,26.55,-1.00,-1.0,2446
1612,2136612,17064,12,1160,17103.39,26.55,-1.00,-1.0,2366
1617,2136617,16960,-44,980,16988.35,26.65,-1.00,-1.0,2446
1620,2136620,17020,-88,1140,17058.36,26.60,-1.00,-1.0,2368
1623,2136623,17048,-112,1188,17089.71,26.55,-1.00,-1.0,2362
1625,2136625,17028,-76,1168,17068.18,26.65,-1.00,-1.0,2440
1628,2136628,16968,-32,1108,17004.17,26.55,-1.00,-1.0,2366
1631,2136631,16968,-12,984,16996.51,26.65,-1.00,-1.0,2439
1634,2136634,17040,-76,948,17066.52,26.55,-1.00,-1.0,2365
1636,2136636,17028,-168,1060,17061.79,26.55,-1.00,-1.0,2438
1639,2136639,17020,-40,972,17047.78,26.55,-1.00,-1.0,2366
1644,2136644,17016,24,892,17039.38,26.55,-1.00,-1.0,2450
1647,2136647,16944,-120,1204,16987.15,26.60,-1.00,-1.0,2369
1650,2136650,16956,-36,1128,16993.52,26.55,-1.00,-1.0,2451
1652,2136652,17076,-144,1008,17106.33,26.55,-1.00,-1.0,2374
1655,2136655,17112,-28,1120,17148.64,26.55,-1.00,-1.0,2362
1658,2136658,17040,-60,1052,17072.55,26.55,-1.00,-1.0,2443
1660,2136660,17000,-80,1116,17036.78,26.65,-1.00,-1.0,2365
1663,2136663,17068,0,1020,17098.45,26.60,-1.00,-1.0,2440
1666,2136666,17012,-132,1164,17052.29,26.55,-1.00,-1.0,2366
1671,2136671,17080,-52,1304,17129.79,26.55,-1.00,-1.0,2443
1674,2136674,17052,-44,1128,17089.32,26.65,-1.00,-1.0,2367
1677,2136677,17024,-24,1036,17055.51,26.55,-1.00,-1.0,2433
1679,2136679,17056,-28,1128,17093.28,26.55,-1.00,-1.0,2373
1682,2136682,17000,-20,1196,17042.03,26.55,-1.00,-1.0,2439
1685,2136685,16964,-96,980,16992.55,26.65,-1.00,-1.0,2365
1688,2136688,16988,-24,1052,17020.56,26.65,-1.00,-1.0,2447
1690,2136690,17032,-44,1060,17065.01,26.55,-1.00,-1.0,2374
1693,2136693,17056,-8,1112,17092.21,26.60,-1.00,-1.0,2362
1698,2136698,16940,-56,996,16969.35,26.55,-1.00,-1.0,2471
1701,2136701,17028,-148,1052,17061.11,26.65,-1.00,-1.0,2373
1704,2136704,17020,-48,948,17046.45,26.55,-1.00,-1.0,2455
1706,2136706,17100,-104,1080,17134.39,26.46,-1.00,-1.0,2372
1709,2136709,16916,4,1104,16951.99,26.55,-1.00,-1.0,2439
1712,2136712,16924,-80,1060,16957.35,26.55,-1.00,-1.0,2368
1715,2136715,17116,-60,1148,17154.56,26.55,-1.00,-1.0,2448
1717,2136717,17024,-136,1116,17061.08,26.55,-1.00,-1.0,2373
1722,2136722,16996,-28,1124,17033.15,26.51,-1.00,-1.0,2442
1725,2136725,16992,52,988,17020.78,26.55,-1.00,-1.0,2365
1728,2136728,17012,-124,1012,17042.53,26.51,-1.00,-1.0,2437
1730,2136730,16928,-4,1144,16966.61,26.55,-1.00,-1.0,2368
1733,2136733,17104,-156,1180,17145.37,26.60,-1.00,-1.0,2362
1736,2136736,17044,-20,1124,17081.03,26.51,-1.00,-1.0,2443
1738,2136738,16964,36,1016,16994.44,26.51,-1.00,-1.0,2365
1741,2136741,16940,-84,940,16966.27,26.65,-1.00,-1.0,2446
1744,2136744,17092,-136,1172,17132.67,26.65,-1.00,-1.0,2369
1749,2136749,17032,-92,1100,17067.73,26.51,-1.00,-1.0,2446
1752,2136752,16924,-244,1092,16960.95,26.60,-1.00,-1.0,2365
1755,2136755,17012,-152,1128,17050.03,26.51,-1.00,-1.0,2442
1757,2136757,17056,48,1132,17093.59,26.51,-1.00,-1.0,2366
1760,2136760,17000,-8,1092,17035.04,26.60,-1.00,-1.0,2438
1763,2136763,17060,-128,1128,17097.73,26.60,-1.00,-1.0,2366
1766,2136766,17000,-12,1104,17035.81,26.60,-1.00,-1.0,2444
1768,2136768,17040,-112,1056,17073.06,26.51,-1.00,-1.0,2366
1771,2136771,16968,-64,1056,17000.95,26.55,-1.00,-1.0,2364
1776,2136776,17044,-36,1016,17074.29,26.55,-1.00,-1.0,2444
1779,2136779,17048,-128,1164,17088.17,26.51,-1.00,-1.0,2366
1782,2136782,16904,-24,1000,16933.57,26.55,-1.00,-1.0,2451
1784,2136784,16952,-16,988,16980.78,26.60,-1.00,-1.0,2367
1787,2136787,16868,-164,1168,16909.19,26.65,-1.00,-1.0,2440
1790,2136790,17060,-88,1156,17099.35,26.60,-1.00,-1.0,2366
1793,2136793,17040,-124,1032,17071.67,26.65,-1.00,-1.0,2440
1795,2136795,17072,-124,1136,17110.20,26.60,-1.00,-1.0,2367
1800,2136800,17056,-88,1188,17097.55,26.60,-1.00,-1.0,2444
1803,2136803,17004,-84,1088,17038.98,26.51,-1.00,-1.0,2365
1806,2136806,17088,-76,1112,17124.31,26.51,-1.00,-1.0,2439
1809,2136809,17024,12,980,17052.19,26.69,-1.00,-1.0,2366
1811,2136811,16988,-104,1168,17028.42,26.51,-1.00,-1.0,2348
1814,2136814,17040,-64,992,17068.97,26.55,-1.00,-1.0,2436
1817,2136817,16932,-100,956,16959.26,26.60,-1.00,-1.0,2366
1819,2136819,17012,8,900,17035.79,26.55,-1.00,-1.0,2436
1822,2136822,16884,-40,1004,16913.87,26.51,-1.00,-1.0,2373
1827,2136827,16964,-108,1112,17000.75,26.60,-1.00,-1.0,2453
1830,2136830,16964,-64,1068,16997.71,26.55,-1.00,-1.0,2374
1833,2136833,17032,-20,1096,17067.24,26.60,-1.00,-1.0,2442
1836,2136836,17076,-88,984,17104.55,26.55,-1.00,-1.0,2371
1838,2136838,17004,-4,1056,17036.76,26.60,-1.00,-1.0,2445
1841,2136841,17044,32,928,17069.28,26.55,-1.00,-1.0,2373
1844,2136844,16988,-60,1040,17019.91,26.51,-1.00,-1.0,2363
1846,2136846,17072,-20,1068,17105.38,26.55,-1.00,-1.0,2436
1849,2136849,17052,24,1076,17085.93,26.60,-1.00,-1.0,2370
1854,2136854,16956,-116,980,16984.69,26.60,-1.00,-1.0,2452
1857,2136857,17076,-96,1184,17117.27,26.51,-1.00,-1.0,2381
1860,2136860,16916,-24,1044,16948.20,26.60,-1.00,-1.0,2441
1863,2136863,17088,-20,1040,17119.63,26.60,-1.00,-1.0,2371
1865,2136865,16976,-28,1132,17013.72,26.51,-1.00,-1.0,2438
1868,2136868,17028,-40,1144,17066.43,26.60,-1.00,-1.0,2381
1871,2136871,16976,-136,1084,17011.12,26.51,-1.00,-1.0,2437
1874,2136874,17080,-144,1068,17113.96,26.60,-1.00,-1.0,2376
1879,2136879,16976,0,1020,17006.62,26.60,-1.00,-1.0,2444
1881,2136881,17016,4,1056,17048.74,26.60,-1.00,-1.0,2367
1884,2136884,17036,-56,1112,17072.35,26.60,-1.00,-1.0,2361
1887,2136887,16936,-56,1044,16968.24,26.55,-1.00,-1.0,2450
1889,2136889,17104,-88,1180,17144.88,26.51,-1.00,-1.0,2374
1892,2136892,16972,0,968,16999.58,26.65,-1.00,-1.0,2438
1895,2136895,17056,-24,1276,17103.68,26.60,-1.00,-1.0,2371
1898,2136898,16960,-4,1068,16993.59,26.55,-1.00,-1.0,2448
1900,2136900,16992,-52,1036,17023.63,26.65,-1.00,-1.0,2367
1905,2136905,16988,-104,1204,17030.93,26.60,-1.00,-1.0,2443
1908,2136908,16964,-152,1084,16999.28,26.55,-1.00,-1.0,2366
1911,2136911,17004,-96,1172,17044.61,26.55,-1.00,-1.0,2450
1913,2136913,16932,-84,1092,16967.38,26.55,-1.00,-1.0,2367
1916,2136916,16964,-156,1092,16999.83,26.51,-1.00,-1.0,2370
1919,2136919,17000,-124,1020,17031.02,26.60,-1.00,-1.0,2445
1922,2136922,17028,52,1172,17068.37,26.60,-1.00,-1.0,2367
1925,2136925,17016,-76,1128,17053.52,26.60,-1.00,-1.0,2437
1927,2136927,16984,-92,1036,17015.82,26.55,-1.00,-1.0,2367
1932,2136932,17052,-40,1052,17084.47,26.69,-1.00,-1.0,2445
1935,2136935,17028,-52,1040,17059.81,26.55,-1.00,-1.0,2365
1938,2136938,17004,-112,1048,17036.63,26.55,-1.00,-1.0,2442
1940,2136940,16996,-96,952,17022.91,26.55,-1.00,-1.0,2367
1943,2136943,17004,-44,1172,17044.40,26.51,-1.00,-1.0,2439
1946,2136946,16948,-92,1096,16983.65,26.55,-1.00,-1.0,2366
1949,2136949,17040,-32,1100,17075.50,26.55,-1.00,-1.0,2446
1951,2136951,17084,-92,1108,17120.14,26.60,-1.00,-1.0,2354
1954,2136954,17020,-4,1092,17055.00,26.60,-1.00,-1.0,2349
1959,2136959,17008,-104,1116,17044.89,26.55,-1.00,-1.0,2443
1962,2136962,17164,-80,1008,17193.76,26.55,-1.00,-1.0,2366
1965,2136965,16992,-56,1096,17027.40,26.60,-1.00,-1.0,2440
1968,2136968,17052,-72,1100,17087.59,26.55,-1.00,-1.0,2366
1970,2136970,17124,-148,1052,17156.92,26.60,-1.00,-1.0,2436
1973,2136973,17020,-152,1044,17052.67,26.65,-1.00,-1.0,2365
1976,2136976,16956,-32,1004,16985.73,26.55,-1.00,-1.0,2425
1979,2136979,17040,-64,1024,17070.86,26.65,-1.00,-1.0,2368
1984,2136984,17032,-16,1168,17072.01,26.55,-1.00,-1.0,2446
1986,2136986,17040,-24,1160,17079.46,26.46,-1.00,-1.0,2373
1989,2136989,16984,-164,1120,17021.68,26.55,-1.00,-1.0,2446
1992,2136992,16948,-104,992,16977.33,26.55,-1.00,-1.0,2355
1995,2136995,17004,-44,872,17026.40,26.55,-1.00,-1.0,2452
1997,2136997,17008,-60,988,17036.78,26.55,-1.00,-1.0,2376
2000,2137000,17008,-52,1072,17041.83,26.55,-1.00,-1.0,2362
2003,2137003,16988,-92,980,17016.49,26.55,-1.00,-1.0,2437
2006,2137006,17040,-132,964,17067.76,26.51,-1.00,-1.0,2367
2013,2137013,16932,-100,1044,16964.45,26.55,-1.00,-1.0,2447
2015,2137015,17092,-80,1068,17125.52,26.65,-1.00,-1.0,2376
2018,2137018,16984,-140,1000,17013.99,26.55,-1.00,-1.0,2447
2021,2137021,17048,-20,1056,17080.69,26.65,-1.00,-1.0,2370
2024,2137024,16980,-32,1036,17011.61,26.55,-1.00,-1.0,2448
2026,2137026,17028,-116,992,17057.27,26.55,-1.00,-1.0,2375
2029,2137029,16932,-60,1140,16970.44,26.55,-1.00,-1.0,2443
2032,2137032,17044,-68,1080,17078.32,26.65,-1.00,-1.0,2369
2034,2137034,16988,-108,1116,17024.96,26.55,-1.00,-1.0,2350
2039,2137039,17032,-44,1088,17066.77,26.65,-1.00,-1.0,2452
2042,2137042,16956,-4,1260,17002.75,26.55,-1.00,-1.0,2373
2045,2137045,17064,-80,1136,17101.96,26.65,-1.00,-1.0,2427
2048,2137048,17068,-48,1240,17113.05,26.55,-1.00,-1.0,2366
2050,2137050,16928,-84,1128,16965.75,26.55,-1.00,-1.0,2448
2053,2137053,17024,-16,1064,17057.22,26.65,-1.00,-1.0,2374
2056,2137056,17040,-48,1128,17077.36,26.65,-1.00,-1.0,2440
2059,2137059,16964,-60,1108,17000.25,26.55,-1.00,-1.0,2366
2063,2137063,16992,-48,896,17015.67,26.55,-1.00,-1.0,2444
2066,2137066,16920,-36,1060,16953.21,26.69,-1.00,-1.0,2367
2069,2137069,16900,-24,1096,16935.52,26.55,-1.00,-1.0,2439
2072,2137072,16952,-32,1100,16987.68,26.51,-1.00,-1.0,2364
2074,2137074,17008,-140,1180,17049.46,26.65,-1.00,-1.0,2362
2077,2137077,16996,-52,1112,17032.42,26.55,-1.00,-1.0,2445
2080,2137080,17004,-128,1164,17044.28,26.46,-1.00,-1.0,2374
2083,2137083,17040,-88,1120,17076.99,26.65,-1.00,-1.0,2436
2085,2137085,16980,-48,980,17008.32,26.65,-1.00,-1.0,2366
2090,2137090,17008,-28,1076,17042.03,26.60,-1.00,-1.0,2444
2093,2137093,17040,-16,1036,17071.47,26.60,-1.00,-1.0,2354
2096,2137096,17140,-72,1048,17172.16,26.60,-1.00,-1.0,2446
2098,2137098,17004,-88,1044,17036.25,26.60,-1.00,-1.0,2370
2101,2137101,17040,-32,1184,17081.12,26.55,-1.00,-1.0,2438
2104,2137104,17040,-128,1088,17075.18,26.60,-1.00,-1.0,2369
2107,2137107,17096,-16,1048,17128.10,26.60,-1.00,-1.0,2434
2109,2137109,16940,-88,1088,16975.13,26.51,-1.00,-1.0,2368
2112,2137112,17036,-60,1032,17067.33,26.55,-1.00,-1.0,2360
2117,2137117,16972,28,1228,17016.39,26.55,-1.00,-1.0,2451
2119,2137119,17092,8,1016,17122.17,26.65,-1.00,-1.0,2367
2122,2137122,16996,-96,1156,17035.54,26.55,-1.00,-1.0,2443
2125,2137125,17016,-96,1140,17054.41,26.55,-1.00,-1.0,2366
2128,2137128,17060,-68,1108,17096.08,26.55,-1.00,-1.0,2440
2130,2137130,16988,-36,1080,17022.33,26.55,-1.00,-1.0,2367
2133,2137133,16968,-124,1100,17004.07,26.65,-1.00,-1.0,2439
2136,2137136,16972,-76,988,17000.90,26.65,-1.00,-1.0,2366
2141,2137141,16940,-96,1012,16970.47,26.55,-1.00,-1.0,2451
2143,2137143,16956,-60,1080,16990.47,26.55,-1.00,-1.0,2367
2146,2137146,16964,-36,968,16991.63,26.65,-1.00,-1.0,2443
2149,2137149,17080,-152,1164,17120.29,26.65,-1.00,-1.0,2365
2151,2137151,16896,-24,1164,16936.06,26.65,-1.00,-1.0,2361
2154,2137154,16980,-164,1084,17015.36,26.51,-1.00,-1.0,2443
2157,2137157,17008,-176,1072,17042.66,26.55,-1.00,-1.0,2367
2160,2137160,17016,-40,1036,17047.55,26.60,-1.00,-1.0,2443
2162,2137162,17020,-32,1088,17054.77,26.46,-1.00,-1.0,2365
2167,2137167,16976,-72,1148,17014.92,26.55,-1.00,-1.0,2444
2170,2137170,16988,-16,932,17013.55,26.55,-1.00,-1.0,2367
2173,2137173,16992,-76,1272,17039.71,26.55,-1.00,-1.0,2439
2176,2137176,16984,-56,1052,17016.64,26.55,-1.00,-1.0,2364
2178,2137178,17052,0,1148,17090.60,26.55,-1.00,-1.0,2438
2181,2137181,17020,-100,1292,17069.26,26.65,-1.00,-1.0,2367
2184,2137184,16996,-12,1076,17030.03,26.55,-1.00,-1.0,2424
2187,2137187,17052,-96,1248,17097.88,26.51,-1.00,-1.0,2367
2189,2137189,17028,-116,1024,17059.16,26.65,-1.00,-1.0,2361
2194,2137194,17044,-72,1104,17079.87,26.55,-1.00,-1.0,2444
2197,2137197,17012,-12,920,17036.86,26.65,-1.00,-1.0,2370
2200,2137200,17076,-64,1132,17113.60,26.55,-1.00,-1.0,2433
2202,2137202,17004,-32,996,17033.18,26.55,-1.00,-1.0,2374
2205,2137205,16972,-124,1020,17003.07,26.55,-1.00,-1.0,2438
2208,2137208,17044,-132,992,17073.35,26.51,-1.00,-1.0,2354
2211,2137211,16972,-96,1068,17005.84,26.55,-1.00,-1.0,2447
2213,2137213,17104,-52,1152,17142.83,26.60,-1.00,-1.0,2376
2218,2137218,17000,-156,1004,17030.34,26.60,-1.00,-1.0,2455
2221,2137221,17088,-132,1076,17122.35,26.60,-1.00,-1.0,2374
2224,2137224,16996,16,1036,17027.55,26.60,-1.00,-1.0,2442
2227,2137227,17004,8,1052,17036.51,26.60,-1.00,-1.0,2367
2229,2137229,17080,-164,1084,17115.15,26.55,-1.00,-1.0,2363
2232,2137232,17088,-28,1120,17124.69,26.55,-1.00,-1.0,2440
2235,2137235,17000,-8,1104,17035.81,26.55,-1.00,-1.0,2372
2237,2137237,17020,-136,972,17048.28,26.55,-1.00,-1.0,2439
2240,2137240,17020,-116,916,17045.03,26.65,-1.00,-1.0,2381
2245,2137245,17016,-12,1096,17051.26,26.65,-1.00,-1.0,2460
2248,2137248,17048,32,1160,17087.45,26.60,-1.00,-1.0,2373
2251,2137251,17028,-100,1016,17058.58,26.65,-1.00,-1.0,2449
2253,2137253,17092,-92,1108,17128.12,26.51,-1.00,-1.0,2367
2256,2137256,17064,-56,1184,17105.12,26.65,-1.00,-1.0,2448
2259,2137259,17020,-12,1088,17054.74,26.51,-1.00,-1.0,2373
2261,2137261,16936,-12,1120,16973.00,26.55,-1.00,-1.0,2369
2264,2137264,17032,-28,1080,17066.23,26.65,-1.00,-1.0,2437
2267,2137267,17012,-92,1028,17043.28,26.55,-1.00,-1.0,2368
2272,2137272,16908,-80,1116,16944.98,26.55,-1.00,-1.0,2446
2275,2137275,17080,12,996,17109.02,26.55,-1.00,-1.0,2370
2277,2137277,17020,-188,1248,17066.73,26.46,-1.00,-1.0,2449
2280,2137280,16992,-36,1076,17026.07,26.55,-1.00,-1.0,2381
2283,2137283,17072,-72,1184,17113.16,26.65,-1.00,-1.0,2438
2286,2137286,17028,-36,1068,17061.50,26.55,-1.00,-1.0,2368
2288,2137288,16976,-104,1108,17012.44,26.65,-1.00,-1.0,2449
2291,2137291,17036,-8,1020,17066.51,26.65,-1.00,-1.0,2380
2296,2137296,17016,-8,1060,17048.99,26.65,-1.00,-1.0,2442
2299,2137299,16956,-52,1108,16992.24,26.51,-1.00,-1.0,2367
2301,2137301,17032,-36,956,17058.85,26.55,-1.00,-1.0,2370
2304,2137304,17012,40,1120,17048.88,26.55,-1.00,-1.0,2447
2307,2137307,17116,0,996,17144.96,26.60,-1.00,-1.0,2427
2310,2137310,17032,-152,1136,17070.52,26.55,-1.00,-1.0,2437
2313,2137313,17004,-12,1104,17039.80,26.55,-1.00,-1.0,2373
2315,2137315,17128,36,984,17156.28,26.55,-1.00,-1.0,2441
2318,2137318,16988,-44,1044,17020.11,26.65,-1.00,-1.0,2381
2323,2137323,16948,-136,1108,16984.72,26.55,-1.00,-1.0,2442
2326,2137326,17028,-40,1148,17066.70,26.55,-1.00,-1.0,2374
2328,2137328,16976,-64,1044,17008.19,26.65,-1.00,-1.0,2432
2331,2137331,16944,56,928,16969.49,26.65,-1.00,-1.0,2383
2334,2137334,16932,-92,1112,16968.72,26.69,-1.00,-1.0,2362
2336,2137336,17016,-8,1116,17052.56,26.60,-1.00,-1.0,2434
2339,2137339,17160,-136,1068,17193.74,26.60,-1.00,-1.0,2369
2342,2137342,17056,-76,1084,17090.58,26.51,-1.00,-1.0,2433
2345,2137345,17016,-28,980,17044.22,26.60,-1.00,-1.0,2369
2350,2137350,16936,24,1112,16972.48,26.60,-1.00,-1.0,2436
2352,2137352,16948,-20,944,16974.28,26.55,-1.00,-1.0,2376
2355,2137355,17008,-76,1116,17044.74,26.60,-1.00,-1.0,2438
2358,2137358,17068,-24,1084,17102.40,26.60,-1.00,-1.0,2369
2361,2137361,16956,-84,1048,16988.56,26.60,-1.00,-1.0,2430
2363,2137363,17000,-4,1180,17040.90,26.55,-1.00,-1.0,2376
2366,2137366,17116,-48,1060,17148.86,26.60,-1.00,-1.0,2436
2369,2137369,16948,-44,992,16977.06,26.60,-1.00,-1.0,2367
2372,2137372,16904,-12,1236,16949.13,26.60,-1.00,-1.0,2362
2377,2137377,17100,-124,896,17123.91,26.60,-1.00,-1.0,2444
2380,2137380,17020,-136,1088,17055.28,26.51,-1.00,-1.0,2375
2382,2137382,16960,-100,916,16985.01,26.60,-1.00,-1.0,2436
2385,2137385,16964,-156,1100,17000.34,26.60,-1.00,-1.0,2374
2388,2137388,17052,36,1008,17081.80,26.51,-1.00,-1.0,2436
2391,2137391,17004,-64,1148,17042.83,26.60,-1.00,-1.0,2372
2393,2137393,17068,-72,1080,17102.29,26.69,-1.00,-1.0,2421
2396,2137396,17064,-140,1124,17101.55,26.60,-1.00,-1.0,2384
2401,2137401,16980,-68,940,17006.13,26.60,-1.00,-1.0,2456
2404,2137404,17020,12,1068,17053.48,26.55,-1.00,-1.0,2375
2407,2137407,17044,20,1088,17078.70,26.69,-1.00,-1.0,2448
2409,2137409,17024,-52,1056,17056.80,26.55,-1.00,-1.0,2369
2412,2137412,17028,-44,1104,17063.81,26.60,-1.00,-1.0,2364
2415,2137415,17064,4,1016,17094.22,26.60,-1.00,-1.0,2430
2417,2137417,17040,-24,912,17064.40,26.60,-1.00,-1.0,2378
2420,2137420,17004,-48,1068,17037.57,26.69,-1.00,-1.0,2435
2423,2137423,16960,36,1124,16997.24,26.55,-1.00,-1.0,2368
2428,2137428,17036,-60,1060,17069.05,26.60,-1.00,-1.0,2448
2431,2137431,16988,-200,1080,17023.47,26.60,-1.00,-1.0,2371
2434,2137434,17104,16,1096,17139.09,26.60,-1.00,-1.0,2446
2436,2137436,17000,-120,972,17028.19,26.51,-1.00,-1.0,2376
2439,2137439,16948,-124,1048,16980.82,26.55,-1.00,-1.0,2435
2442,2137442,17016,-136,1112,17052.84,26.60,-1.00,-1.0,2372
2444,2137444,16984,-60,920,17009.01,26.55,-1.00,-1.0,2362
2447,2137447,17072,-120,904,17096.34,26.55,-1.00,-1.0,2434
2450,2137450,17064,-60,976,17091.99,26.65,-1.00,-1.0,2368
2455,2137455,17036,-176,1088,17071.62,26.55,-1.00,-1.0,2427
2458,2137458,16860,-36,1172,16900.72,26.51,-1.00,-1.0,2367
2460,2137460,16980,-112,1120,17017.27,26.55,-1.00,-1.0,2439
2463,2137463,16952,-108,1004,16982.05,26.65,-1.00,-1.0,2369
2466,2137466,17008,-44,1232,17052.62,26.55,-1.00,-1.0,2434
2469,2137469,16976,-108,1116,17012.99,26.60,-1.00,-1.0,2368
2471,2137471,17036,-88,956,17063.03,26.55,-1.00,-1.0,2436
2474,2137474,16972,-32,996,17001.23,26.51,-1.00,-1.0,2370
2479,2137479,16980,-64,1040,17011.94,26.51,-1.00,-1.0,2455
2482,2137482,17032,4,1052,17064.46,26.60,-1.00,-1.0,2373
2484,2137484,16956,-12,1100,16991.65,26.65,-1.00,-1.0,2369
2487,2137487,16984,-124,1112,17020.82,26.55,-1.00,-1.0,2438
2490,2137490,17052,-112,1148,17090.97,26.51,-1.00,-1.0,2369
2493,2137493,17104,-24,988,17132.53,26.55,-1.00,-1.0,2433
2495,2137495,17060,-48,972,17087.73,26.69,-1.00,-1.0,2375
2498,2137498,17020,-68,1008,17049.96,26.55,-1.00,-1.0,2435
2501,2137501,17060,-112,1112,17096.57,26.60,-1.00,-1.0,2376
2506,2137506,17036,-44,1144,17074.42,26.51,-1.00,-1.0,2439
2509,2137509,17008,48,968,17035.59,26.65,-1.00,-1.0,2368
2512,2137512,17028,-108,1192,17070.01,26.69,-1.00,-1.0,2438
2514,2137514,17000,-12,1020,17030.58,26.55,-1.00,-1.0,2369
2517,2137517,17032,-112,988,17061.00,26.51,-1.00,-1.0,2434
2520,2137520,17020,-92,896,17043.82,26.55,-1.00,-1.0,2367
2522,2137522,17012,-24,1084,17046.52,26.51,-1.00,-1.0,2361
2525,2137525,16984,-112,1088,17019.18,26.55,-1.00,-1.0,2428
2528,2137528,16992,-108,1156,17031.62,26.51,-1.00,-1.0,2383
2534,2137534,16924,-200,1088,16960.12,26.65,-1.00,-1.0,2444
2536,2137536,17008,-40,1140,17046.21,26.65,-1.00,-1.0,2376
2539,2137539,17072,-148,1012,17102.61,26.65,-1.00,-1.0,2444
2542,2137542,16976,-84,1192,17018.01,26.55,-1.00,-1.0,2372
2545,2137545,16968,-164,1020,16999.42,26.55,-1.00,-1.0,2445
2547,2137547,16984,-176,1044,17016.97,26.55,-1.00,-1.0,2378
2550,2137550,17052,-132,1100,17087.95,26.65,-1.00,-1.0,2441
2553,2137553,16972,20,1024,17002.88,26.65,-1.00,-1.0,2376
2558,2137558,16980,112,1088,17015.19,26.60,-1.00,-1.0,2471
2560,2137560,17020,0,1184,17061.13,26.60,-1.00,-1.0,2367
2563,2137563,17052,-36,1052,17084.46,26.55,-1.00,-1.0,2375
2566,2137566,16984,44,1052,17016.61,26.65,-1.00,-1.0,2437
2569,2137569,17136,-80,1044,17167.96,26.65,-1.00,-1.0,2377
2571,2137571,17064,-84,1080,17098.35,26.65,-1.00,-1.0,2438
2574,2137574,17020,-40,1096,17055.30,26.55,-1.00,-1.0,2381
2577,2137577,17052,-64,1096,17087.31,26.65,-1.00,-1.0,2438
2580,2137580,17044,-56,1212,17087.13,26.55,-1.00,-1.0,2371
2585,2137585,17064,-24,952,17090.55,26.55,-1.00,-1.0,2445
2587,2137587,17020,12,1004,17049.59,26.51,-1.00,-1.0,2366
2590,2137590,16924,0,1000,16953.52,26.55,-1.00,-1.0,2450
2593,2137593,17008,-56,1104,17043.88,26.55,-1.00,-1.0,2361
2595,2137595,16924,-76,1152,16963.33,26.55,-1.00,-1.0,2371
2598,2137598,16900,-4,1152,16939.22,26.55,-1.00,-1.0,2442
2601,2137601,17008,-116,1084,17042.90,26.65,-1.00,-1.0,2368
2604,2137604,17044,-88,1016,17074.48,26.65,-1.00,-1.0,2448
2606,2137606,17052,44,1008,17081.82,26.65,-1.00,-1.0,2375
2611,2137611,17024,-32,1004,17053.61,26.55,-1.00,-1.0,2445
2614,2137614,16960,-120,1020,16991.07,26.55,-1.00,-1.0,2366
2617,2137617,17020,36,1080,17054.27,26.65,-1.00,-1.0,2442
2619,2137619,17032,-116,984,17060.79,26.65,-1.00,-1.0,2365
2622,2137622,17040,-44,1100,17075.53,26.55,-1.00,-1.0,2444
2625,2137625,17016,-52,1132,17053.69,26.65,-1.00,-1.0,2366
2628,2137628,16968,-76,1084,17002.76,26.46,-1.00,-1.0,2441
2630,2137630,17080,28,1020,17110.45,26.60,-1.00,-1.0,2366
2633,2137633,17044,-108,928,17069.59,26.60,-1.00,-1.0,2360
2638,2137638,17120,-76,956,17146.84,26.55,-1.00,-1.0,2452
2641,2137641,16952,-12,1092,16987.14,26.65,-1.00,-1.0,2369
2644,2137644,17036,-12,1048,17068.21,26.60,-1.00,-1.0,2444
2646,2137646,17104,-60,928,17129.26,26.51,-1.00,-1.0,2374
2649,2137649,17072,-100,1164,17111.93,26.51,-1.00,-1.0,2435
2652,2137652,17020,-24,1096,17055.27,26.55,-1.00,-1.0,2369
2655,2137655,17064,-80,1084,17098.58,26.60,-1.00,-1.0,2449
2657,2137657,16980,-48,1160,17019.64,26.60,-1.00,-1.0,2373
2662,2137662,17032,-120,1144,17070.80,26.55,-1.00,-1.0,2456
2665,2137665,17004,8,1044,17036.02,26.55,-1.00,-1.0,2374
2668,2137668,16996,-88,1036,17027.77,26.60,-1.00,-1.0,2439
2671,2137671,17028,-16,1120,17064.80,26.55,-1.00,-1.0,2366
2673,2137673,17040,-140,1024,17071.31,26.55,-1.00,-1.0,2361
2676,2137676,16988,4,1088,17022.80,26.51,-1.00,-1.0,2437
2679,2137679,17000,-88,924,17025.32,26.60,-1.00,-1.0,2371
2681,2137681,17004,-36,1072,17037.80,26.60,-1.00,-1.0,2438
2684,2137684,17036,-52,1152,17074.98,26.46,-1.00,-1.0,2365
2689,2137689,17092,-128,1024,17123.12,26.65,-1.00,-1.0,2445
2692,2137692,16956,-112,1008,16986.30,26.55,-1.00,-1.0,2420
2695,2137695,16904,-84,1144,16942.88,26.60,-1.00,-1.0,2436
2698,2137698,17036,-112,1084,17070.82,26.65,-1.00,-1.0,2422
2701,2137701,17040,-40,1104,17075.77,26.60,-1.00,-1.0,2444
2703,2137703,16972,-40,1104,17007.92,26.60,-1.00,-1.0,2375
2706,2137706,16996,-112,1104,17032.19,26.51,-1.00,-1.0,2436
2709,2137709,17000,-40,1108,17036.12,26.60,-1.00,-1.0,2379
2711,2137711,16960,-52,1128,16997.55,26.69,-1.00,-1.0,2363
2716,2137716,17008,24,1176,17048.62,26.69,-1.00,-1.0,2447
2719,2137719,17012,-156,1040,17044.47,26.65,-1.00,-1.0,2407
2722,2137722,17000,36,1044,17032.06,26.65,-1.00,-1.0,2449
2725,2137725,17012,-16,1108,17048.05,26.46,-1.00,-1.0,2367
2728,2137728,16920,-100,1000,16949.82,26.60,-1.00,-1.0,2436
2730,2137730,16976,-112,1080,17010.69,26.55,-1.00,-1.0,2374
2733,2137733,17028,-40,1180,17068.88,26.60,-1.00,-1.0,2443
2736,2137736,16984,-44,1064,17017.35,26.55,-1.00,-1.0,2380
2741,2137741,17040,-108,1052,17072.79,26.60,-1.00,-1.0,2443
2743,2137743,16976,-52,1164,17015.94,26.60,-1.00,-1.0,2373
2746,2137746,16976,-116,1156,17015.71,26.60,-1.00,-1.0,2432
2749,2137749,16912,-96,1100,16948.01,26.51,-1.00,-1.0,2374
2751,2137751,17008,-24,1144,17046.45,26.60,-1.00,-1.0,2368
2754,2137754,17000,-88,1112,17036.56,26.65,-1.00,-1.0,2434
2757,2137757,16968,-36,1120,17004.96,26.51,-1.00,-1.0,2367
2760,2137760,17080,-88,1016,17110.42,26.65,-1.00,-1.0,2442
2762,2137762,16988,-44,996,17017.23,26.60,-1.00,-1.0,2376
2767,2137767,16968,-80,1120,17005.11,26.55,-1.00,-1.0,2439
2770,2137770,16932,-56,1052,16964.74,26.60,-1.00,-1.0,2366
2773,2137773,16960,-52,1004,16989.77,26.55,-1.00,-1.0,2434
2775,2137775,17024,-108,1132,17061.94,26.60,-1.00,-1.0,2373
2778,2137778,16956,-88,948,16982.71,26.65,-1.00,-1.0,2434
2781,2137781,16968,-64,1072,17001.95,26.60,-1.00,-1.0,2370
2784,2137784,17024,-48,1176,17064.64,26.55,-1.00,-1.0,2442
2786,2137786,17004,-32,1080,17038.29,26.51,-1.00,-1.0,2374
2789,2137789,17124,-108,1180,17164.95,26.51,-1.00,-1.0,2361
2794,2137794,16972,-116,1104,17008.26,26.60,-1.00,-1.0,2439
2797,2137797,17032,-124,1128,17069.76,26.65,-1.00,-1.0,2366
2800,2137800,16972,-88,1156,17011.55,26.60,-1.00,-1.0,2445
2802,2137802,16932,-40,1060,16965.20,26.69,-1.00,-1.0,2367
2805,2137805,17084,-112,1128,17121.56,26.60,-1.00,-1.0,2449
2808,2137808,17016,12,1104,17051.78,26.51,-1.00,-1.0,2367
2811,2137811,17048,-140,1096,17083.77,26.60,-1.00,-1.0,2441
2813,2137813,17068,-120,1140,17106.45,26.51,-1.00,-1.0,2366
2818,2137818,16956,-64,1152,16995.21,26.60,-1.00,-1.0,2439
2821,2137821,17008,-12,1000,17037.38,26.55,-1.00,-1.0,2367
2824,2137824,16960,-88,1028,16991.36,26.60,-1.00,-1.0,2436
2827,2137827,17012,-128,1128,17049.84,26.65,-1.00,-1.0,2366
2829,2137829,17008,-16,1120,17044.84,26.60,-1.00,-1.0,2362
2832,2137832,17080,-84,1136,17117.94,26.60,-1.00,-1.0,2434
2835,2137835,17032,-124,1196,17074.39,26.60,-1.00,-1.0,2374
2838,2137838,17020,-180,1004,17050.54,26.60,-1.00,-1.0,2433
2840,2137840,16980,-64,1100,17015.71,26.55,-1.00,-1.0,2369
2845,2137845,17004,-124,1120,17041.30,26.55,-1.00,-1.0,2449
2848,2137848,16936,-32,1064,16969.42,26.55,-1.00,-1.0,2382
2851,2137851,17080,-16,1076,17113.87,26.65,-1.00,-1.0,2439
2854,2137854,16912,-16,1032,16943.46,26.55,-1.00,-1.0,2372
2856,2137856,16980,-100,1064,17013.60,26.65,-1.00,-1.0,2422
2859,2137859,17064,-76,1084,17098.56,26.55,-1.00,-1.0,2383
2862,2137862,17056,-28,904,17079.96,26.65,-1.00,-1.0,2434
2865,2137865,16992,-44,952,17018.71,26.55,-1.00,-1.0,2371
2870,2137870,17016,-68,1208,17058.96,26.60,-1.00,-1.0,2447
2872,2137872,17080,-16,1144,17118.28,26.60,-1.00,-1.0,2367
2875,2137875,16960,-64,1100,16995.76,26.55,-1.00,-1.0,2360
2878,2137878,17004,-132,1200,17046.80,26.55,-1.00,-1.0,2444
2880,2137880,17072,-68,1072,17105.76,26.60,-1.00,-1.0,2366
2883,2137883,16976,-92,1016,17006.62,26.55,-1.00,-1.0,2448
2886,2137886,17004,-112,956,17031.22,26.60,-1.00,-1.0,2421
2889,2137889,17008,-52,1084,17042.59,26.55,-1.00,-1.0,2434
2892,2137892,17060,-56,1252,17105.97,26.60,-1.00,-1.0,2371
2897,2137897,16992,-52,1172,17032.45,26.69,-1.00,-1.0,2439
2899,2137899,17000,-32,1096,17035.32,26.60,-1.00,-1.0,2354
2902,2137902,16932,8,1188,16973.63,26.51,-1.00,-1.0,2437
2905,2137905,16976,-116,1096,17011.74,26.65,-1.00,-1.0,2368
2907,2137907,17016,-136,948,17042.93,26.60,-1.00,-1.0,2360
2910,2137910,17036,-40,840,17056.74,26.65,-1.00,-1.0,2436
2913,2137913,17068,-80,1240,17113.17,26.51,-1.00,-1.0,2367
2916,2137916,16976,-32,1088,17010.86,26.60,-1.00,-1.0,2440
2918,2137918,17000,-172,1180,17041.77,26.69,-1.00,-1.0,2366
2923,2137923,17044,-28,1012,17074.04,26.60,-1.00,-1.0,2439
2926,2137926,17028,-36,964,17055.30,26.60,-1.00,-1.0,2369
2929,2137929,16996,-124,1132,17034.11,26.60,-1.00,-1.0,2437
2932,2137932,16956,-64,1060,16989.22,26.60,-1.00,-1.0,2368
2934,2137934,17000,-100,1040,17032.08,26.60,-1.00,-1.0,2435
2937,2137937,17044,-156,1120,17081.47,26.60,-1.00,-1.0,2356
2940,2137940,17068,12,1100,17103.41,26.51,-1.00,-1.0,2433
2943,2137943,17024,12,1076,17057.97,26.60,-1.00,-1.0,2372
2945,2137945,16976,-32,988,17004.76,26.65,-1.00,-1.0,2360
2950,2137950,17016,-96,1108,17052.31,26.46,-1.00,-1.0,2440
2953,2137953,16920,-80,1016,16950.67,26.55,-1.00,-1.0,2367
2956,2137956,17024,60,1076,17058.08,26.65,-1.00,-1.0,2442
2958,2137958,17016,-68,1044,17048.13,26.55,-1.00,-1.0,2353
2961,2137961,17064,-132,1088,17099.16,26.65,-1.00,-1.0,2433
2964,2137964,17028,-124,1120,17065.24,26.65,-1.00,-1.0,2366
2967,2137967,17076,-76,1064,17109.29,26.55,-1.00,-1.0,2435
2969,2137969,17004,-24,1272,17051.53,26.55,-1.00,-1.0,2366
2974,2137974,17064,-72,1020,17094.61,26.65,-1.00,-1.0,2440
2977,2137977,16992,-100,1292,17041.34,26.55,-1.00,-1.0,2367
2980,2137980,16988,24,1092,17023.08,26.55,-1.00,-1.0,2443
2982,2137982,16952,-12,1072,16985.87,26.55,-1.00,-1.0,2366
2985,2137985,17048,-172,972,17076.55,26.60,-1.00,-1.0,2367
2988,2137988,16992,-132,1124,17029.65,26.55,-1.00,-1.0,2419
2990,2137990,16976,-72,968,17003.73,26.55,-1.00,-1.0,2367
2994,2137994,16976,-24,1108,17012.14,26.60,-1.00,-1.0,2448
2997,2137997,17008,-92,1124,17045.35,26.55,-1.00,-1.0,2366
3001,2138001,16924,-88,972,16952.12,26.55,-1.00,-1.0,2439
3004,2138004,17084,16,1040,17115.63,26.65,-1.00,-1.0,2354
3007,2138007,17028,-96,1144,17066.66,26.55,-1.00,-1.0,2437
3010,2138010,16992,0,1040,17023.80,26.65,-1.00,-1.0,2365
3012,2138012,16984,-92,1068,17017.79,26.65,-1.00,-1.0,2435
3015,2138015,17044,-136,1196,17086.45,26.55,-1.00,-1.0,2367
3018,2138018,16932,-40,1148,16970.92,26.65,-1.00,-1.0,2435
3021,2138021,17004,52,1204,17046.65,26.55,-1.00,-1.0,2366
3024,2138024,16944,-76,1096,16979.58,26.60,-1.00,-1.0,2365
3029,2138029,17052,-72,1168,17092.11,26.51,-1.00,-1.0,2438
3031,2138031,16980,-16,944,17006.23,26.65,-1.00,-1.0,2368
3034,2138034,17012,-92,980,17040.45,26.60,-1.00,-1.0,2436
3037,2138037,17000,-136,1164,17040.35,26.65,-1.00,-1.0,2366
3040,2138040,16976,24,1088,17010.85,26.60,-1.00,-1.0,2435
3042,2138042,17036,-96,1108,17072.26,26.65,-1.00,-1.0,2353
3045,2138045,17052,-80,1144,17090.52,26.55,-1.00,-1.0,2433
3048,2138048,17004,-112,1120,17041.21,26.55,-1.00,-1.0,2366
3053,2138053,17004,-96,1136,17042.18,26.55,-1.00,-1.0,2442
3055,2138055,16988,4,968,17015.56,26.55,-1.00,-1.0,2375
3058,2138058,17128,-8,1072,17161.52,26.65,-1.00,-1.0,2360
3061,2138061,16984,8,1068,17017.55,26.55,-1.00,-1.0,2442
3063,2138063,17056,-76,1236,17100.89,26.65,-1.00,-1.0,2366
3066,2138066,16980,-76,924,17005.29,26.55,-1.00,-1.0,2434
3069,2138069,17128,-36,1216,17171.15,26.46,-1.00,-1.0,2369
3072,2138072,17144,-80,1160,17183.38,26.55,-1.00,-1.0,2431
3075,2138075,16988,-76,1076,17022.21,26.55,-1.00,-1.0,2368
3080,2138080,17016,-132,1068,17049.99,26.51,-1.00,-1.0,2442
3082,2138082,17140,0,1192,17181.40,26.60,-1.00,-1.0,2369
3085,2138085,17024,-68,1036,17055.63,26.55,-1.00,-1.0,2450
3088,2138088,17048,-64,1172,17088.36,26.60,-1.00,-1.0,2374
3091,2138091,17000,-16,1016,17030.34,26.55,-1.00,-1.0,2444
3093,2138093,16928,-60,1164,16968.08,26.51,-1.00,-1.0,2371
3096,2138096,17004,-80,1176,17044.80,26.55,-1.00,-1.0,2363
3099,2138099,16972,4,1144,17010.51,26.65,-1.00,-1.0,2426
3102,2138102,17032,12,1120,17068.79,26.55,-1.00,-1.0,2367
3107,2138107,16964,-76,1136,17002.16,26.55,-1.00,-1.0,2440
3109,2138109,17000,12,1100,17035.55,26.65,-1.00,-1.0,2376
3112,2138112,16956,-84,1100,16991.85,26.65,-1.00,-1.0,2444
3115,2138115,16932,-108,1300,16982.18,26.65,-1.00,-1.0,2356
3118,2138118,16968,44,1068,17001.63,26.55,-1.00,-1.0,2443
3120,2138120,17072,-68,848,17093.18,26.65,-1.00,-1.0,2375
3123,2138123,17100,-52,1152,17138.84,26.55,-1.00,-1.0,2439
3126,2138126,16936,-72,1172,16976.66,26.55,-1.00,-1.0,2375
3129,2138129,16984,-40,1084,17018.61,26.65,-1.00,-1.0,2360
3134,2138134,16932,-56,1060,16965.24,26.65,-1.00,-1.0,2440
3136,2138136,17028,-96,1128,17065.59,26.65,-1.00,-1.0,2377
3139,2138139,16984,-56,1120,17020.98,26.51,-1.00,-1.0,2437
3142,2138142,17012,-16,1076,17046.00,26.55,-1.00,-1.0,2366
3145,2138145,17008,-8,1036,17039.53,26.55,-1.00,-1.0,2445
3147,2138147,17032,-112,1096,17067.59,26.55,-1.00,-1.0,2375
3150,2138150,17064,-36,1120,17100.75,26.69,-1.00,-1.0,2434
3153,2138153,16968,-124,804,16987.49,26.65,-1.00,-1.0,2369
3158,2138158,16964,-84,1196,17006.32,26.55,-1.00,-1.0,2440
3160,2138160,16944,-40,1172,16984.53,26.65,-1.00,-1.0,2369
3163,2138163,16964,-56,1052,16996.68,26.60,-1.00,-1.0,2437
3166,2138166,16872,-96,1032,16903.80,26.65,-1.00,-1.0,2369
3168,2138168,17116,-4,1204,17158.29,26.60,-1.00,-1.0,2360
3171,2138171,16932,60,1092,16967.28,26.60,-1.00,-1.0,2436
3174,2138174,16984,-12,1188,17025.50,26.51,-1.00,-1.0,2366
3177,2138177,17004,-128,1144,17042.92,26.55,-1.00,-1.0,2435
3180,2138180,16996,-16,1156,17035.28,26.60,-1.00,-1.0,2366
3184,2138184,17016,-88,1016,17046.53,26.65,-1.00,-1.0,2438
3187,2138187,17024,-40,1000,17053.39,26.51,-1.00,-1.0,2353
3190,2138190,16884,-76,904,16908.35,26.65,-1.00,-1.0,2436
3193,2138193,17028,-112,1008,17058.18,26.60,-1.00,-1.0,2366
3195,2138195,16984,-68,1112,17020.50,26.55,-1.00,-1.0,2435
3198,2138198,17000,28,1020,17030.60,26.60,-1.00,-1.0,2367
3201,2138201,16988,-80,968,17015.74,26.60,-1.00,-1.0,2433
3204,2138204,16952,4,1104,16987.91,26.65,-1.00,-1.0,2373
3207,2138207,16972,-76,1016,17002.55,26.55,-1.00,-1.0,2367
3212,2138212,16976,-84,1152,17015.25,26.60,-1.00,-1.0,2447
3214,2138214,17080,-116,1096,17115.52,26.60,-1.00,-1.0,2367
3217,2138217,17076,-44,1076,17109.92,26.55,-1.00,-1.0,2438
3220,2138220,16928,-112,1032,16959.80,26.60,-1.00,-1.0,2353
3223,2138223,17052,-124,980,17080.59,26.55,-1.00,-1.0,2443
3225,2138225,17032,-28,1136,17069.87,26.60,-1.00,-1.0,2370
3228,2138228,16928,-16,972,16955.89,26.55,-1.00,-1.0,2435
3231,2138231,17104,-72,1136,17141.83,26.51,-1.00,-1.0,2367
3236,2138236,16968,-32,1016,16998.42,26.60,-1.00,-1.0,2440
3239,2138239,17000,-60,1300,17049.74,26.55,-1.00,-1.0,2379
3241,2138241,16888,-52,1152,16927.33,26.60,-1.00,-1.0,2361
3244,2138244,16992,-64,1032,17023.43,26.46,-1.00,-1.0,2436
3247,2138247,16980,-108,1084,17014.91,26.60,-1.00,-1.0,2367
3249,2138249,17044,-100,1120,17081.05,26.55,-1.00,-1.0,2432
3252,2138252,17112,-96,1008,17141.93,26.60,-1.00,-1.0,2367
3255,2138255,17096,-24,1048,17128.11,26.55,-1.00,-1.0,2434
3258,2138258,17100,-108,1140,17138.30,26.55,-1.00,-1.0,2373
3263,2138263,16988,-72,972,17015.94,26.55,-1.00,-1.0,2444
3265,2138265,17048,-152,1048,17080.86,26.55,-1.00,-1.0,2366
3268,2138268,17080,-112,1112,17116.53,26.60,-1.00,-1.0,2445
3271,2138271,17112,-92,1160,17151.52,26.55,-1.00,-1.0,2368
3274,2138274,17104,20,1136,17141.70,26.60,-1.00,-1.0,2441
3276,2138276,16940,-156,1164,16980.66,26.55,-1.00,-1.0,2366
3279,2138279,17000,-116,1188,17041.85,26.60,-1.00,-1.0,2435
3282,2138282,16924,-20,972,16951.90,26.55,-1.00,-1.0,2367
3285,2138285,17128,-76,1068,17161.43,26.60,-1.00,-1.0,2364
3290,2138290,17036,-96,1196,17078.20,26.55,-1.00,-1.0,2437
3293,2138293,16976,-104,1108,17012.44,26.55,-1.00,-1.0,2367
3295,2138295,16980,-100,908,17004.55,26.55,-1.00,-1.0,2437
3298,2138298,17000,-72,1084,17034.68,26.65,-1.00,-1.0,2366
3301,2138301,16964,-8,1036,16995.61,26.55,-1.00,-1.0,2433
3304,2138304,17012,0,1072,17045.74,26.55,-1.00,-1.0,2367
3306,2138306,17060,24,1104,17095.70,26.65,-1.00,-1.0,2433
3309,2138309,16988,-40,1024,17018.88,26.55,-1.00,-1.0,2367
3314,2138314,17040,-16,1212,17083.06,26.60,-1.00,-1.0,2447
3317,2138317,17024,-144,1052,17057.08,26.60,-1.00,-1.0,2369
3319,2138319,17100,-128,1016,17130.63,26.55,-1.00,-1.0,2363
3322,2138322,17012,-88,1144,17050.65,26.65,-1.00,-1.0,2436
3325,2138325,16932,-32,972,16959.91,26.55,-1.00,-1.0,2369
3328,2138328,16976,-124,1036,17008.04,26.55,-1.00,-1.0,2431
3330,2138330,17040,32,1140,17078.12,26.65,-1.00,-1.0,2368
3333,2138333,17016,-124,1084,17050.94,26.55,-1.00,-1.0,2434
3336,2138336,17040,-60,1080,17074.30,26.46,-1.00,-1.0,2369
3341,2138341,16988,-68,1036,17019.70,26.60,-1.00,-1.0,2441
3344,2138344,16968,-60,1072,17001.94,26.60,-1.00,-1.0,2369
3346,2138346,16964,-144,960,16991.75,26.65,-1.00,-1.0,2449
3349,2138349,16932,-72,964,16959.57,26.60,-1.00,-1.0,2381
3352,2138352,16996,-52,996,17025.24,26.65,-1.00,-1.0,2435
3355,2138355,17072,-148,1016,17102.85,26.60,-1.00,-1.0,2371
3357,2138357,17080,-12,980,17108.10,26.55,-1.00,-1.0,2360
3360,2138360,17040,-88,1068,17073.66,26.55,-1.00,-1.0,2434
3363,2138363,17040,-132,1032,17071.73,26.65,-1.00,-1.0,2368
3368,2138368,16904,-88,1032,16935.70,26.65,-1.00,-1.0,2450
3371,2138371,17040,-100,940,17066.20,26.55,-1.00,-1.0,2355
3374,2138374,17092,-64,1028,17123.01,26.60,-1.00,-1.0,2437
3377,2138377,17060,-64,1080,17094.27,26.55,-1.00,-1.0,2367
3379,2138379,16992,-72,1176,17032.80,26.60,-1.00,-1.0,2433
3382,2138382,16960,-84,988,16988.96,26.55,-1.00,-1.0,2366
3385,2138385,16924,-88,1156,16963.66,26.60,-1.00,-1.0,2433
3388,2138388,16984,-40,1100,17019.63,26.55,-1.00,-1.0,2368
3392,2138392,16996,-144,1124,17033.73,26.60,-1.00,-1.0,2438
3395,2138395,16996,-144,932,17022.14,26.60,-1.00,-1.0,2366
3398,2138398,16976,-44,1000,17005.48,26.60,-1.00,-1.0,2370
3401,2138401,17088,-132,1088,17123.11,26.46,-1.00,-1.0,2452
3403,2138403,16992,-120,1032,17023.73,26.60,-1.00,-1.0,2369
3406,2138406,17056,-96,1068,17089.67,26.65,-1.00,-1.0,2446
3409,2138409,17032,-56,964,17059.35,26.60,-1.00,-1.0,2373
3412,2138412,16968,-8,1112,17004.40,26.65,-1.00,-1.0,2448
3414,2138414,16980,-52,1292,17029.16,26.60,-1.00,-1.0,2371
3419,2138419,16980,-112,780,16998.28,26.60,-1.00,-1.0,2437
3422,2138422,17048,-104,1104,17084.03,26.69,-1.00,-1.0,2366
3425,2138425,17064,-60,1168,17104.03,26.60,-1.00,-1.0,2447
3427,2138427,17076,-44,1108,17111.97,26.60,-1.00,-1.0,2367
3430,2138430,16964,0,1076,16998.09,26.51,-1.00,-1.0,2433
3433,2138433,17108,-20,1076,17141.82,26.69,-1.00,-1.0,2366
3435,2138435,16988,-80,1028,17019.26,26.60,-1.00,-1.0,2359
3438,2138438,17056,-120,944,17082.53,26.55,-1.00,-1.0,2453
3441,2138441,17068,-56,1148,17106.66,26.60,-1.00,-1.0,2367
3446,2138446,17024,-108,1156,17063.54,26.60,-1.00,-1.0,2437
3449,2138449,17080,-88,980,17108.32,26.60,-1.00,-1.0,2367
3451,2138451,17100,-76,1064,17133.24,26.55,-1.00,-1.0,2438
3454,2138454,17004,-56,976,17032.08,26.60,-1.00,-1.0,2367
3457,2138457,16976,-44,860,16997.83,26.51,-1.00,-1.0,2431
3460,2138460,17080,-64,1088,17114.74,26.60,-1.00,-1.0,2366
3462,2138462,16960,-28,1036,16991.63,26.60,-1.00,-1.0,2436
3465,2138465,17052,108,1064,17085.50,26.60,-1.00,-1.0,2368
3470,2138470,17000,-96,1004,17029.89,26.60,-1.00,-1.0,2444
3473,2138473,16984,-44,1044,17016.11,26.65,-1.00,-1.0,2367
3475,2138475,17028,-60,1088,17062.83,26.60,-1.00,-1.0,2360
3478,2138478,16968,60,1148,17006.90,26.60,-1.00,-1.0,2437
3481,2138481,16980,-80,1140,17018.41,26.60,-1.00,-1.0,2368
3484,2138484,16928,28,1036,16959.70,26.60,-1.00,-1.0,2430
3486,2138486,16984,-148,1104,17020.49,26.55,-1.00,-1.0,2369
3489,2138489,16924,-28,1052,16956.69,26.60,-1.00,-1.0,2433
3492,2138492,17000,-16,1164,17039.81,26.55,-1.00,-1.0,2367
3497,2138497,16984,-44,1132,17021.74,26.46,-1.00,-1.0,2435
3500,2138500,16964,-84,1212,17007.45,26.60,-1.00,-1.0,2366
3502,2138502,17072,-68,1136,17109.89,26.55,-1.00,-1.0,2438
3505,2138505,16996,-80,1064,17029.46,26.69,-1.00,-1.0,2367
3508,2138508,17056,-112,1056,17089.03,26.65,-1.00,-1.0,2356
3511,2138511,17044,-8,1100,17079.46,26.65,-1.00,-1.0,2433
3513,2138513,17072,-52,952,17098.60,26.65,-1.00,-1.0,2368
3516,2138516,16980,12,1208,17022.92,26.51,-1.00,-1.0,2441
3519,2138519,17032,-76,1096,17067.40,26.55,-1.00,-1.0,2374
3524,2138524,16940,-96,1044,16972.41,26.55,-1.00,-1.0,2439
3527,2138527,17048,-12,1124,17085.02,26.65,-1.00,-1.0,2374
3530,2138530,17076,-124,1096,17111.59,26.65,-1.00,-1.0,2436
3532,2138532,17052,-152,1088,17087.35,26.55,-1.00,-1.0,2369
3535,2138535,17076,-120,1144,17114.70,26.55,-1.00,-1.0,2433
3538,2138538,16992,-48,1044,17024.11,26.55,-1.00,-1.0,2368
3541,2138541,16920,-96,1060,16953.44,26.55,-1.00,-1.0,2433
3543,2138543,16948,-8,1036,16979.64,26.65,-1.00,-1.0,2366
3546,2138546,16992,-12,976,17020.01,26.60,-1.00,-1.0,2375
3551,2138551,17024,-104,1164,17064.06,26.51,-1.00,-1.0,2437
3554,2138554,17016,24,964,17043.30,26.55,-1.00,-1.0,2375
3557,2138557,17016,32,1052,17048.52,26.60,-1.00,-1.0,2443
3559,2138559,16944,-44,1100,16979.72,26.65,-1.00,-1.0,2368
3562,2138562,16980,-28,1072,17013.83,26.60,-1.00,-1.0,2448
3565,2138565,16976,-108,1016,17006.72,26.55,-1.00,-1.0,2370
3568,2138568,17048,-176,1036,17080.36,26.60,-1.00,-1.0,2439
3570,2138570,16928,-68,1052,16960.79,26.65,-1.00,-1.0,2367
3575,2138575,17024,-136,1212,17067.63,26.60,-1.00,-1.0,2453
3578,2138578,17004,-56,1048,17036.36,26.60,-1.00,-1.0,2374
3581,2138581,17028,-56,1092,17063.07,26.60,-1.00,-1.0,2448
3583,2138583,17012,-100,956,17039.13,26.55,-1.00,-1.0,2371
3586,2138586,17032,-40,964,17059.31,26.69,-1.00,-1.0,2364
3589,2138589,16980,-4,1156,17019.30,26.65,-1.00,-1.0,2432
3591,2138591,17032,-36,996,17061.13,26.51,-1.00,-1.0,2373
3594,2138594,17072,-68,1064,17105.26,26.55,-1.00,-1.0,2433
3597,2138597,17052,4,1064,17085.16,26.60,-1.00,-1.0,2369
3602,2138602,16992,16,1084,17026.55,26.55,-1.00,-1.0,2439
3605,2138605,17064,-88,896,17087.73,26.55,-1.00,-1.0,2370
3607,2138607,17048,-4,1072,17081.67,26.55,-1.00,-1.0,2436
3610,2138610,16928,-108,1124,16965.62,26.55,-1.00,-1.0,2368
3613,2138613,17032,56,1036,17063.57,26.55,-1.00,-1.0,2419
3616,2138616,16956,-156,956,16983.64,26.60,-1.00,-1.0,2368
3618,2138618,17088,-40,1112,17124.19,26.55,-1.00,-1.0,2361
3621,2138621,16888,-16,1036,16919.75,26.55,-1.00,-1.0,2420
3624,2138624,17052,-40,1108,17088.01,26.55,-1.00,-1.0,2367
3629,2138629,17080,-72,1132,17117.62,26.55,-1.00,-1.0,2437
3632,2138632,16996,-88,1000,17025.62,26.60,-1.00,-1.0,2366
3635,2138635,17004,-92,1108,17040.31,26.65,-1.00,-1.0,2444
3637,2138637,16948,-8,1136,16986.03,26.65,-1.00,-1.0,2374
3640,2138640,16984,-88,1184,17025.45,26.65,-1.00,-1.0,2433
3643,2138643,16996,36,992,17024.96,26.65,-1.00,-1.0,2366
3646,2138646,17060,-128,1132,17097.99,26.55,-1.00,-1.0,2443
3648,2138648,17012,-212,1156,17052.55,26.55,-1.00,-1.0,2377
3653,2138653,17000,-48,1104,17035.88,26.55,-1.00,-1.0,2447
3656,2138656,17040,-20,1044,17071.96,26.60,-1.00,-1.0,2374
3659,2138659,16952,-68,892,16975.59,26.65,-1.00,-1.0,2360
3661,2138661,16992,0,1124,17029.13,26.55,-1.00,-1.0,2438
3664,2138664,17076,-40,1088,17110.67,26.65,-1.00,-1.0,2370
3667,2138667,16992,-68,1140,17030.33,26.55,-1.00,-1.0,2433
3670,2138670,16948,-108,1092,16983.49,26.55,-1.00,-1.0,2370
3672,2138672,16996,-28,1068,17029.54,26.55,-1.00,-1.0,2437
3675,2138675,16976,-104,992,17005.28,26.55,-1.00,-1.0,2354
3680,2138680,17056,-20,1108,17091.96,26.55,-1.00,-1.0,2437
3683,2138683,16956,-40,1128,16993.53,26.55,-1.00,-1.0,2371
3686,2138686,16996,-92,1152,17035.25,26.60,-1.00,-1.0,2435
3688,2138688,16964,-128,1084,16999.08,26.55,-1.00,-1.0,2370
3691,2138691,17024,-76,1052,17056.64,26.65,-1.00,-1.0,2434
3694,2138694,17040,-88,1020,17070.73,26.65,-1.00,-1.0,2368
3696,2138696,17076,16,1144,17114.29,26.60,-1.00,-1.0,2360
3699,2138699,16976,-108,1016,17006.72,26.69,-1.00,-1.0,2437
3702,2138702,17024,-76,1032,17055.42,26.51,-1.00,-1.0,2367
3707,2138707,17056,-60,1120,17092.84,26.60,-1.00,-1.0,2438
3710,2138710,17020,-76,1152,17059.11,26.55,-1.00,-1.0,2353
3713,2138713,17044,-24,1132,17081.57,26.60,-1.00,-1.0,2443
3715,2138715,17104,-140,1108,17140.42,26.60,-1.00,-1.0,2370
3718,2138718,17080,-124,1120,17117.13,26.55,-1.00,-1.0,2420
3721,2138721,17056,-144,1144,17094.93,26.46,-1.00,-1.0,2368
3724,2138724,17064,-88,1072,17097.87,26.69,-1.00,-1.0,2433
3726,2138726,17020,-68,972,17047.87,26.65,-1.00,-1.0,2375
3732,2138732,17060,-88,1176,17100.71,26.55,-1.00,-1.0,2437
3734,2138734,16964,-80,1072,16998.03,26.51,-1.00,-1.0,2367
3737,2138737,16996,36,1132,17033.69,26.55,-1.00,-1.0,2348
3740,2138740,16972,24,1160,17011.61,26.55,-1.00,-1.0,2451
3742,2138742,17044,-136,1164,17084.24,26.55,-1.00,-1.0,2376
3745,2138745,16964,-68,1096,16999.50,26.55,-1.00,-1.0,2442
3748,2138748,17004,-92,1184,17045.42,26.55,-1.00,-1.0,2374
3751,2138751,16996,-172,1072,17030.64,26.60,-1.00,-1.0,2443
3753,2138753,16996,-96,1080,17030.55,26.65,-1.00,-1.0,2378
3758,2138758,16976,-44,1052,17008.62,26.55,-1.00,-1.0,2437
3761,2138761,17016,-148,1040,17048.39,26.55,-1.00,-1.0,2366
3764,2138764,17076,-84,1024,17106.88,26.55,-1.00,-1.0,2444
3766,2138766,17116,-48,1176,17156.42,26.55,-1.00,-1.0,2367
3769,2138769,17004,-96,1004,17033.88,26.55,-1.00,-1.0,2438
3772,2138772,17056,-72,1020,17086.62,26.60,-1.00,-1.0,2368
3775,2138775,17012,-44,1100,17047.58,26.55,-1.00,-1.0,2369
3777,2138777,16940,8,1184,16981.33,26.60,-1.00,-1.0,2443
3780,2138780,16856,-176,1020,16887.75,26.55,-1.00,-1.0,2371
3785,2138785,16920,-104,1060,16953.49,26.65,-1.00,-1.0,2443
3788,2138788,17004,-64,1252,17050.15,26.60,-1.00,-1.0,2371
3791,2138791,16984,-24,1092,17019.09,26.60,-1.00,-1.0,2446
3793,2138793,17016,-116,1208,17059.22,26.60,-1.00,-1.0,2376
3796,2138796,17044,-92,1156,17083.41,26.51,-1.00,-1.0,2433
3799,2138799,17096,-80,1020,17126.59,26.60,-1.00,-1.0,2369
3802,2138802,17092,-108,1128,17129.52,26.60,-1.00,-1.0,2443
3804,2138804,16968,-32,1064,17001.36,26.60,-1.00,-1.0,2377
3809,2138809,17028,-176,1084,17063.38,26.60,-1.00,-1.0,2443
3812,2138812,17052,-60,1092,17087.04,26.60,-1.00,-1.0,2369
3814,2138814,16960,-4,1128,16997.47,26.60,-1.00,-1.0,2359
3817,2138817,17040,-64,1040,17071.83,26.65,-1.00,-1.0,2437
3820,2138820,17000,-12,1040,17031.79,26.60,-1.00,-1.0,2368
3823,2138823,17008,-48,1128,17045.43,26.55,-1.00,-1.0,2429
3825,2138825,16980,8,944,17006.22,26.60,-1.00,-1.0,2374
3828,2138828,17120,-108,900,17143.98,26.60,-1.00,-1.0,2435
3831,2138831,16984,-52,1156,17023.38,26.60,-1.00,-1.0,2376
3836,2138836,17072,-112,1108,17108.29,26.65,-1.00,-1.0,2463
3839,2138839,17028,-180,1172,17069.23,26.65,-1.00,-1.0,2366
3842,2138842,17004,-56,1184,17045.26,26.65,-1.00,-1.0,2436
3845,2138845,16984,-96,1000,17013.69,26.65,-1.00,-1.0,2365
3847,2138847,17040,-52,1048,17072.28,26.65,-1.00,-1.0,2439
3850,2138850,16960,-68,1072,16993.98,26.65,-1.00,-1.0,2364
3853,2138853,17028,-20,1080,17062.23,26.55,-1.00,-1.0,2355
3856,2138856,16896,-108,1044,16928.57,26.60,-1.00,-1.0,2437
3858,2138858,17012,-124,1084,17046.95,26.51,-1.00,-1.0,2367
3863,2138863,17000,-28,1044,17032.05,26.51,-1.00,-1.0,2452
3866,2138866,16948,-40,1080,16982.42,26.60,-1.00,-1.0,2380
3869,2138869,17028,-88,976,17056.18,26.60,-1.00,-1.0,2438
3872,2138872,16956,-40,1048,16988.40,26.51,-1.00,-1.0,2375
3874,2138874,17040,-48,1060,17073.01,26.60,-1.00,-1.0,2439
3877,2138877,17068,-28,1020,17098.47,26.60,-1.00,-1.0,2379
3880,2138880,17120,-56,1112,17156.17,26.51,-1.00,-1.0,2440
3883,2138883,17072,-52,972,17099.73,26.60,-1.00,-1.0,2373
3888,2138888,17080,-88,1100,17115.61,26.60,-1.00,-1.0,2445
3890,2138890,17000,-64,1060,17033.13,26.60,-1.00,-1.0,2365
3893,2138893,17092,-20,1068,17125.35,26.51,-1.00,-1.0,2349
3896,2138896,17068,16,1136,17105.77,26.65,-1.00,-1.0,2451
3898,2138898,16924,-24,1000,16953.54,26.60,-1.00,-1.0,2377
3901,2138901,16976,-76,1112,17012.55,26.55,-1.00,-1.0,2446
3904,2138904,16992,-28,1068,17025.55,26.60,-1.00,-1.0,2372
3907,2138907,17080,-80,1084,17114.55,26.55,-1.00,-1.0,2449
3909,2138909,17104,-44,1044,17135.89,26.65,-1.00,-1.0,2365
3914,2138914,17068,-112,1112,17104.55,26.55,-1.00,-1.0,2445
3917,2138917,17024,-88,1196,17066.19,26.55,-1.00,-1.0,2366
3920,2138920,17072,-88,1164,17111.86,26.55,-1.00,-1.0,2436
3923,2138923,17104,-36,1012,17133.95,26.55,-1.00,-1.0,2367
3925,2138925,17096,-56,1056,17128.67,26.55,-1.00,-1.0,2436
3928,2138928,16984,-68,1124,17021.29,26.55,-1.00,-1.0,2367
3931,2138931,17080,-120,1044,17112.30,26.55,-1.00,-1.0,2360
3934,2138934,17056,-72,1136,17093.94,26.60,-1.00,-1.0,2438
3936,2138936,17060,-92,1204,17102.68,26.60,-1.00,-1.0,2365
3941,2138941,17000,-68,992,17029.05,26.55,-1.00,-1.0,2444
3944,2138944,17024,-228,1020,17056.05,26.55,-1.00,-1.0,2364
3947,2138947,17032,-64,1080,17066.33,26.55,-1.00,-1.0,2436
3950,2138950,16960,4,1012,16990.17,26.65,-1.00,-1.0,2365
3952,2138952,17044,16,984,17072.39,26.55,-1.00,-1.0,2437
3955,2138955,16968,-12,1088,17002.85,26.65,-1.00,-1.0,2367
3958,2138958,17040,-12,1084,17074.45,26.55,-1.00,-1.0,2436
3961,2138961,16940,-112,1128,16977.88,26.65,-1.00,-1.0,2368
3963,2138963,17008,-32,1116,17044.61,26.60,-1.00,-1.0,2361
3968,2138968,17012,8,1060,17044.99,26.60,-1.00,-1.0,2445
3971,2138971,17060,-52,1068,17093.48,26.60,-1.00,-1.0,2365
3974,2138974,17068,-88,1076,17102.11,26.60,-1.00,-1.0,2436
3977,2138977,17112,-24,1004,17141.45,26.65,-1.00,-1.0,2364
3979,2138979,16912,-52,1076,16946.28,26.60,-1.00,-1.0,2438
3982,2138982,17088,-44,1044,17119.92,26.55,-1.00,-1.0,2366
3985,2138985,17080,-124,992,17109.23,26.55,-1.00,-1.0,2436
3988,2138988,16960,-40,952,16986.74,26.65,-1.00,-1.0,2364
3992,2138992,16996,-80,1048,17028.47,26.60,-1.00,-1.0,2446
3995,2138995,17092,-140,1072,17126.16,26.60,-1.00,-1.0,2365
3998,2138998,17016,-16,1152,17054.96,26.60,-1.00,-1.0,2436
4001,2139001,17028,-36,1100,17063.53,26.60,-1.00,-1.0,2364
4003,2139003,17084,-116,1136,17122.12,26.60,-1.00,-1.0,2360
4006,2139006,17060,-100,1080,17094.44,26.65,-1.00,-1.0,2437
4009,2139009,16972,-100,1096,17007.64,26.60,-1.00,-1.0,2365
4012,2139012,17128,-52,1160,17167.31,26.65,-1.00,-1.0,2444
4015,2139015,17028,-96,1048,17060.49,26.65,-1.00,-1.0,2364
4019,2139019,16948,-200,1120,16986.14,26.55,-1.00,-1.0,2458
4022,2139022,16960,-64,1028,16991.25,26.55,-1.00,-1.0,2380
4025,2139025,16928,-120,944,16954.73,26.65,-1.00,-1.0,2438
4028,2139028,16972,-28,1056,17004.84,26.65,-1.00,-1.0,2370
4030,2139030,17048,-44,1196,17089.96,26.60,-1.00,-1.0,2447
4033,2139033,17120,60,1072,17153.63,26.55,-1.00,-1.0,2380
4036,2139036,17064,-12,1196,17105.87,26.65,-1.00,-1.0,2436
4039,2139039,17028,0,1136,17065.85,26.55,-1.00,-1.0,2371
4042,2139042,17068,-188,1072,17102.67,26.65,-1.00,-1.0,2365
4047,2139047,16992,-56,1140,17030.29,26.65,-1.00,-1.0,2446
4049,2139049,16952,-64,1168,16992.31,26.55,-1.00,-1.0,2367
4052,2139052,17048,-200,976,17077.09,26.55,-1.00,-1.0,2451
4055,2139055,17032,-124,1084,17066.91,26.55,-1.00,-1.0,2375
4058,2139058,16980,-80,1156,17019.49,26.65,-1.00,-1.0,2450
4060,2139060,17068,-24,924,17093.01,26.55,-1.00,-1.0,2368
4063,2139063,17004,-136,1076,17038.55,26.65,-1.00,-1.0,2449
4066,2139066,16956,-32,1148,16994.85,26.55,-1.00,-1.0,2371
4071,2139071,16920,-48,1084,16954.76,26.55,-1.00,-1.0,2447
4073,2139073,16988,-184,1052,17021.54,26.55,-1.00,-1.0,2353
4076,2139076,16924,-120,1092,16959.62,26.65,-1.00,-1.0,2437
4079,2139079,16948,12,1088,16982.89,26.55,-1.00,-1.0,2364
4082,2139082,17020,-76,1144,17058.57,26.65,-1.00,-1.0,2360
4084,2139084,17000,-40,1152,17039.04,26.60,-1.00,-1.0,2452
4087,2139087,16948,-124,1012,16978.64,26.65,-1.00,-1.0,2366
4090,2139090,17048,-52,1136,17085.89,26.65,-1.00,-1.0,2444
4093,2139093,16916,-44,1056,16948.99,26.60,-1.00,-1.0,2367
4098,2139098,17060,-92,956,17087.01,26.60,-1.00,-1.0,2449
4100,2139100,16956,-44,996,16985.29,26.69,-1.00,-1.0,2375
4103,2139103,17028,-136,1072,17062.25,26.60,-1.00,-1.0,2445
4106,2139106,17024,-64,1172,17064.41,26.55,-1.00,-1.0,2353
4109,2139109,16976,-88,1016,17006.60,26.60,-1.00,-1.0,2448
4111,2139111,16936,-80,1148,16975.05,26.60,-1.00,-1.0,2373
4114,2139114,17048,-36,1060,17080.96,26.51,-1.00,-1.0,2430
4117,2139117,17060,-28,1008,17089.78,26.74,-1.00,-1.0,2370
4120,2139120,16984,-168,988,17013.54,26.69,-1.00,-1.0,2360
4125,2139125,16948,-20,1200,16990.44,26.60,-1.00,-1.0,2449
4127,2139127,17020,-92,1068,17053.72,26.69,-1.00,-1.0,2373
4130,2139130,16972,-40,1156,17011.37,26.60,-1.00,-1.0,2437
4133,2139133,17076,-32,1008,17105.76,26.69,-1.00,-1.0,2364
4136,2139136,17040,-112,1120,17077.13,26.60,-1.00,-1.0,2450
4138,2139138,17020,-8,1092,17055.00,26.51,-1.00,-1.0,2375
4141,2139141,16956,-180,1056,16989.80,26.51,-1.00,-1.0,2442
4144,2139144,17028,-60,1100,17063.60,26.60,-1.00,-1.0,2371
4149,2139149,17072,-92,1068,17105.62,26.55,-1.00,-1.0,2444
4152,2139152,17044,-40,1020,17074.54,26.55,-1.00,-1.0,2373
4155,2139155,16976,-4,1180,17016.96,26.51,-1.00,-1.0,2436
4157,2139157,17120,-140,1032,17151.65,26.55,-1.00,-1.0,2365
4160,2139160,16968,-4,1156,17007.33,26.69,-1.00,-1.0,2368
4163,2139163,17064,-112,956,17091.12,26.69,-1.00,-1.0,2444
4165,2139165,17104,-164,1024,17135.41,26.65,-1.00,-1.0,2424
4168,2139168,17032,-56,1224,17076.02,26.60,-1.00,-1.0,2447
4171,2139171,16912,-92,1024,16943.22,26.60,-1.00,-1.0,2372
4176,2139176,17092,-16,1100,17127.37,26.65,-1.00,-1.0,2442
4179,2139179,17040,-36,944,17066.17,26.55,-1.00,-1.0,2368
4181,2139181,16984,-76,940,17010.16,26.60,-1.00,-1.0,2433
4184,2139184,16960,-8,1200,17002.40,26.65,-1.00,-1.0,2366
4187,2139187,17044,-56,1152,17082.98,26.60,-1.00,-1.0,2433
4190,2139190,17028,-136,1112,17064.81,26.55,-1.00,-1.0,2368
4192,2139192,17044,-68,1108,17080.11,26.55,-1.00,-1.0,2432
4195,2139195,17012,-8,1032,17043.28,26.65,-1.00,-1.0,2366
4198,2139198,17052,-40,1076,17085.96,26.55,-1.00,-1.0,2367
4203,2139203,17032,-68,1160,17071.59,26.60,-1.00,-1.0,2447
4206,2139206,16920,-172,1148,16959.77,26.60,-1.00,-1.0,2367
4209,2139209,17000,-24,1024,17030.83,26.60,-1.00,-1.0,2438
4211,2139211,17012,-112,1024,17043.16,26.60,-1.00,-1.0,2366
4214,2139214,17016,-60,1176,17056.70,26.60,-1.00,-1.0,2444
4217,2139217,16984,-48,1052,17016.62,26.60,-1.00,-1.0,2367
4220,2139220,17064,-36,1212,17107.03,26.60,-1.00,-1.0,2439
4222,2139222,17052,-72,1128,17089.42,26.60,-1.00,-1.0,2366
4227,2139227,17052,-140,1132,17090.11,26.60,-1.00,-1.0,2447
4230,2139230,17100,-108,1096,17135.43,26.69,-1.00,-1.0,2367
4233,2139233,16980,-44,1036,17011.63,26.65,-1.00,-1.0,2440
4235,2139235,17056,8,964,17083.22,26.60,-1.00,-1.0,2366
4238,2139238,16968,8,1020,16998.63,26.65,-1.00,-1.0,2374
4241,2139241,16948,-36,1024,16978.95,26.55,-1.00,-1.0,2435
4244,2139244,16996,36,960,17023.13,26.55,-1.00,-1.0,2373
4246,2139246,17064,-72,1044,17096.06,26.65,-1.00,-1.0,2441
4249,2139249,17128,-40,1164,17167.55,26.55,-1.00,-1.0,2373
4254,2139254,17076,-48,1128,17113.28,26.51,-1.00,-1.0,2441
4257,2139257,17060,44,1144,17098.37,26.60,-1.00,-1.0,2375
4260,2139260,17056,-88,1128,17093.49,26.65,-1.00,-1.0,2433
4262,2139262,17076,-124,1036,17107.85,26.69,-1.00,-1.0,2366
4265,2139265,17036,-96,1200,17078.48,26.60,-1.00,-1.0,2433
4268,2139268,17072,-40,1048,17104.18,26.60,-1.00,-1.0,2367
4270,2139270,17032,-112,1040,17064.09,26.55,-1.00,-1.0,2363
4273,2139273,17052,-120,1128,17089.69,26.65,-1.00,-1.0,2447
4276,2139276,17028,-4,1068,17061.46,26.65,-1.00,-1.0,2375
4281,2139281,16888,-24,948,16914.60,26.65,-1.00,-1.0,2447
4283,2139283,17064,28,1100,17099.44,26.69,-1.00,-1.0,2366
4286,2139286,16984,-112,1100,17019.95,26.65,-1.00,-1.0,2441
4289,2139289,17120,-44,1120,17156.65,26.60,-1.00,-1.0,2368
4292,2139292,17036,-72,1136,17073.99,26.55,-1.00,-1.0,2439
4294,2139294,16968,-76,1132,17005.89,26.69,-1.00,-1.0,2366
4297,2139297,17024,-180,912,17049.36,26.55,-1.00,-1.0,2435
4300,2139300,17000,-92,1060,17033.26,26.60,-1.00,-1.0,2367
4305,2139305,16988,-48,1176,17028.72,26.60,-1.00,-1.0,2440
4308,2139308,16996,108,1132,17034.00,26.55,-1.00,-1.0,2367
4310,2139310,16920,-96,1168,16960.54,26.60,-1.00,-1.0,2360
4313,2139313,17004,-116,1024,17035.20,26.55,-1.00,-1.0,2433
4316,2139316,16976,12,996,17005.20,26.60,-1.00,-1.0,2368
4318,2139318,17068,-8,1164,17107.65,26.60,-1.00,-1.0,2433
4321,2139321,17072,-96,1072,17105.89,26.51,-1.00,-1.0,2366
4324,2139324,17008,-88,1128,17045.59,26.69,-1.00,-1.0,2435
4327,2139327,16992,-92,948,17018.67,26.55,-1.00,-1.0,2367
4332,2139332,17024,-100,1088,17059.03,26.65,-1.00,-1.0,2450
4335,2139335,16940,-88,1080,16974.62,26.65,-1.00,-1.0,2366
4337,2139337,16992,-60,1044,17024.15,26.69,-1.00,-1.0,2442
4340,2139340,16952,-116,1052,16985.01,26.55,-1.00,-1.0,2375
4343,2139343,17020,-132,1140,17058.65,26.65,-1.00,-1.0,2434
4346,2139346,16964,-52,1064,16997.41,26.55,-1.00,-1.0,2366
4348,2139348,17068,-120,1096,17103.57,26.60,-1.00,-1.0,2367
4351,2139351,17020,-84,988,17048.86,26.60,-1.00,-1.0,2420
4354,2139354,17096,-44,1024,17126.70,26.69,-1.00,-1.0,2369
4359,2139359,16988,-48,1032,17019.38,26.51,-1.00,-1.0,2441
4362,2139362,17000,-140,1020,17031.15,26.55,-1.00,-1.0,2377
4364,2139364,16948,-80,1216,16991.76,26.60,-1.00,-1.0,2422
4367,2139367,16992,-44,1080,17026.34,26.65,-1.00,-1.0,2382
4370,2139370,16960,-124,1196,17002.57,26.60,-1.00,-1.0,2433
4373,2139373,16964,-100,1124,17001.49,26.65,-1.00,-1.0,2372
4375,2139375,17056,-40,1056,17088.71,26.60,-1.00,-1.0,2443
4378,2139378,17044,-48,1044,17076.01,26.55,-1.00,-1.0,2374
4383,2139383,16956,-156,1152,16995.80,26.55,-1.00,-1.0,2440
4386,2139386,17096,-28,1008,17125.71,26.55,-1.00,-1.0,2374
4388,2139388,16972,-56,1044,17004.17,26.60,-1.00,-1.0,2369
4391,2139391,17040,8,1252,17085.94,26.60,-1.00,-1.0,2442
4394,2139394,17016,-116,1088,17051.14,26.51,-1.00,-1.0,2374
4397,2139397,17032,-8,1096,17067.23,26.60,-1.00,-1.0,2448
4399,2139399,17076,-84,972,17103.85,26.69,-1.00,-1.0,2375
4402,2139402,16992,-112,1020,17022.96,26.51,-1.00,-1.0,2441
4405,2139405,17080,-132,1128,17117.72,26.65,-1.00,-1.0,2367
4410,2139410,17080,-120,1052,17112.79,26.65,-1.00,-1.0,2442
4412,2139412,17052,-16,1048,17084.18,26.65,-1.00,-1.0,2366
4415,2139415,16948,-28,1140,16986.32,26.55,-1.00,-1.0,2435
4418,2139418,17088,-112,944,17114.42,26.65,-1.00,-1.0,2368
4421,2139421,17020,-72,1140,17058.29,26.65,-1.00,-1.0,2434
4423,2139423,17056,-80,1176,17096.68,26.55,-1.00,-1.0,2367
4426,2139426,16956,8,1064,16989.35,26.65,-1.00,-1.0,2360
4429,2139429,16964,0,1232,17008.68,26.65,-1.00,-1.0,2433
4432,2139432,17060,-108,956,17087.11,26.55,-1.00,-1.0,2367
4437,2139437,16976,-52,1008,17005.98,26.55,-1.00,-1.0,2442
4439,2139439,16920,-48,1076,16954.25,26.65,-1.00,-1.0,2366
4442,2139442,17028,0,1120,17064.79,26.60,-1.00,-1.0,2436
4445,2139445,17000,0,1016,17030.33,26.55,-1.00,-1.0,2368
4448,2139448,17148,-60,1096,17183.09,26.55,-1.00,-1.0,2435
4450,2139450,17052,-88,1012,17082.23,26.55,-1.00,-1.0,2366
4453,2139453,17016,0,1028,17047.02,26.65,-1.00,-1.0,2433
4456,2139456,17068,-88,1120,17104.93,26.55,-1.00,-1.0,2367
4459,2139459,17044,-72,1104,17079.87,26.55,-1.00,-1.0,2361
4464,2139464,16984,-124,1064,17017.75,26.65,-1.00,-1.0,2440
4467,2139467,16916,32,1052,16948.71,26.55,-1.00,-1.0,2366
4469,2139469,17056,-92,1052,17088.66,26.55,-1.00,-1.0,2422
4472,2139472,16984,-48,1056,17016.87,26.55,-1.00,-1.0,2367
4475,2139475,17008,-156,1036,17040.24,26.65,-1.00,-1.0,2433
4478,2139478,17072,-96,1096,17107.41,26.65,-1.00,-1.0,2367
4480,2139480,17000,-100,1100,17035.84,26.55,-1.00,-1.0,2432
4483,2139483,16984,-84,1068,17017.75,26.65,-1.00,-1.0,2368
4488,2139488,17032,24,940,17057.94,26.65,-1.00,-1.0,2451
4491,2139491,17012,-52,1148,17050.77,26.60,-1.00,-1.0,2372
4494,2139494,16952,-188,1148,16991.87,26.65,-1.00,-1.0,2440
4496,2139496,17092,-156,1124,17129.63,26.65,-1.00,-1.0,2374
4499,2139499,17032,-108,1152,17071.26,26.65,-1.00,-1.0,2360
4502,2139502,17076,-116,1160,17115.75,26.65,-1.00,-1.0,2430
4504,2139504,17036,4,1076,17069.95,26.65,-1.00,-1.0,2369
4507,2139507,16928,-112,868,16950.61,26.55,-1.00,-1.0,2434
4510,2139510,17028,-112,972,17056.09,26.60,-1.00,-1.0,2374
4515,2139515,17020,-112,1024,17051.14,26.69,-1.00,-1.0,2442
4518,2139518,17052,-44,1104,17087.76,26.60,-1.00,-1.0,2375
4521,2139521,17100,12,1100,17135.35,26.69,-1.00,-1.0,2433
4523,2139523,16992,-60,1116,17028.71,26.60,-1.00,-1.0,2366
4526,2139526,17004,60,1168,17044.17,26.60,-1.00,-1.0,2433
4529,2139529,17060,-64,1020,17090.59,26.60,-1.00,-1.0,2374
4532,2139532,17088,-44,1068,17121.40,26.60,-1.00,-1.0,2432
4534,2139534,16996,-100,1148,17035.02,26.60,-1.00,-1.0,2366
4537,2139537,16992,-92,980,17020.49,26.55,-1.00,-1.0,2366
4542,2139542,16952,-108,1128,16989.83,26.60,-1.00,-1.0,2442
4545,2139545,16980,-160,996,17009.94,26.60,-1.00,-1.0,2370
4548,2139548,16980,-76,1052,17012.73,26.55,-1.00,-1.0,2438
4550,2139550,17036,-24,1136,17073.85,26.60,-1.00,-1.0,2367
4553,2139553,17136,-128,1060,17169.23,26.55,-1.00,-1.0,2440
4556,2139556,16992,-16,1100,17027.58,26.51,-1.00,-1.0,2375
4559,2139559,17108,-124,1188,17149.65,26.65,-1.00,-1.0,2432
4561,2139561,16972,-88,1120,17009.14,26.60,-1.00,-1.0,2366
4566,2139566,17064,-24,1032,17095.20,26.60,-1.00,-1.0,2445
4569,2139569,16956,60,916,16980.83,26.60,-1.00,-1.0,2367
4572,2139572,17104,-72,1036,17135.50,26.60,-1.00,-1.0,2438
4574,2139574,16924,-24,1064,16957.43,26.55,-1.00,-1.0,2368
4577,2139577,16964,-20,1040,16995.86,26.60,-1.00,-1.0,2360
4580,2139580,17016,-88,1108,17052.26,26.55,-1.00,-1.0,2439
4582,2139582,17072,-44,1140,17110.08,26.60,-1.00,-1.0,2368
4585,2139585,17008,-108,1104,17044.13,26.55,-1.00,-1.0,2433
4588,2139588,17128,-36,1136,17165.67,26.55,-1.00,-1.0,2356
4593,2139593,17016,0,1096,17051.26,26.65,-1.00,-1.0,2443
4596,2139596,17076,-76,1236,17120.84,26.60,-1.00,-1.0,2368
4599,2139599,16972,0,1060,17005.07,26.65,-1.00,-1.0,2438
4601,2139601,17020,-12,1188,17061.42,26.60,-1.00,-1.0,2367
4604,2139604,16956,-104,1000,16985.78,26.65,-1.00,-1.0,2434
4607,2139607,16952,-80,988,16980.96,26.60,-1.00,-1.0,2369
4610,2139610,16988,0,1208,17030.90,26.55,-1.00,-1.0,2426
4612,2139612,17080,-32,1012,17109.98,26.51,-1.00,-1.0,2367
4615,2139615,17072,-144,1140,17110.62,26.60,-1.00,-1.0,2360
4620,2139620,17048,-120,1172,17088.66,26.55,-1.00,-1.0,2465
4623,2139623,16984,-56,1084,17018.65,26.55,-1.00,-1.0,2373
4626,2139626,16992,-40,1084,17026.59,26.60,-1.00,-1.0,2449
4628,2139628,16972,-120,1044,17004.50,26.55,-1.00,-1.0,2373
4631,2139631,16960,-104,1116,16997.00,26.60,-1.00,-1.0,2448
4634,2139634,17096,-164,1128,17133.96,26.65,-1.00,-1.0,2367
4637,2139637,17068,24,1156,17107.12,26.51,-1.00,-1.0,2448
4639,2139639,17004,-88,1124,17041.34,26.65,-1.00,-1.0,2372
4644,2139644,17020,-92,1036,17051.75,26.60,-1.00,-1.0,2452
4647,2139647,17072,24,1028,17102.94,26.60,-1.00,-1.0,2369
4650,2139650,17024,-56,1012,17054.14,26.60,-1.00,-1.0,2446
4652,2139652,17008,-60,972,17035.86,26.65,-1.00,-1.0,2371
4655,2139655,17068,44,988,17096.63,26.60,-1.00,-1.0,2347
4658,2139658,16956,12,1052,16988.61,26.65,-1.00,-1.0,2433
4660,2139660,16964,-76,1136,17002.16,26.60,-1.00,-1.0,2368
4663,2139663,16996,-76,996,17025.33,26.55,-1.00,-1.0,2440
4666,2139666,16936,-20,1016,16966.46,26.65,-1.00,-1.0,2364
4671,2139671,17060,52,1108,17096.02,26.60,-1.00,-1.0,2446
4674,2139674,17012,-52,1064,17045.32,26.60,-1.00,-1.0,2366
4677,2139677,16944,12,1088,16978.90,26.65,-1.00,-1.0,2435
4679,2139679,17028,-68,952,17054.73,26.60,-1.00,-1.0,2371
4682,2139682,16952,-44,1112,16988.49,26.55,-1.00,-1.0,2437
4685,2139685,16972,-60,980,17000.38,26.60,-1.00,-1.0,2368
4687,2139687,16972,-16,1012,17002.15,26.65,-1.00,-1.0,2360
4690,2139690,16884,-92,984,16912.90,26.55,-1.00,-1.0,2437
4693,2139693,16980,-28,1128,17017.45,26.65,-1.00,-1.0,2364
4698,2139698,16888,-76,1164,16928.24,26.65,-1.00,-1.0,2444
4701,2139701,16988,-56,1116,17024.71,26.60,-1.00,-1.0,2365
4704,2139704,16976,-44,1128,17013.49,26.55,-1.00,-1.0,2434
4706,2139706,17116,-40,1096,17151.10,26.60,-1.00,-1.0,2367
4709,2139709,16956,-76,1000,16985.63,26.65,-1.00,-1.0,2437
4712,2139712,17024,0,1028,17055.01,26.51,-1.00,-1.0,2365
4715,2139715,17112,-24,1052,17144.32,26.55,-1.00,-1.0,2432
4717,2139717,17040,-64,1080,17074.31,26.69,-1.00,-1.0,2372
4720,2139720,16928,-88,1060,16961.38,26.65,-1.00,-1.0,2360
4725,2139725,17080,-64,1044,17112.00,26.55,-1.00,-1.0,2445
4728,2139728,16996,-64,1040,17027.91,26.65,-1.00,-1.0,2363
4731,2139731,17052,-72,1040,17083.84,26.55,-1.00,-1.0,2443
4733,2139733,16920,-108,1100,16956.06,26.65,-1.00,-1.0,2365
4736,2139736,17004,-64,1176,17044.74,26.74,-1.00,-1.0,2438
4739,2139739,17008,-160,1016,17039.07,26.55,-1.00,-1.0,2365
4742,2139742,17036,-20,1072,17069.71,26.55,-1.00,-1.0,2434
4744,2139744,16988,-32,1096,17023.35,26.65,-1.00,-1.0,2367
4749,2139749,16964,-88,1032,16995.59,26.60,-1.00,-1.0,2453
4752,2139752,17060,-48,1076,17093.97,26.60,-1.00,-1.0,2379
4755,2139755,17080,-16,1060,17112.87,26.65,-1.00,-1.0,2439
4758,2139758,17008,20,1012,17038.09,26.51,-1.00,-1.0,2371
4760,2139760,16944,-16,1136,16982.05,26.55,-1.00,-1.0,2360
4763,2139763,17064,-176,1024,17095.60,26.55,-1.00,-1.0,2436
4766,2139766,17064,-56,1028,17095.03,26.65,-1.00,-1.0,2364
4768,2139768,16992,-68,1148,17030.87,26.65,-1.00,-1.0,2437
4771,2139771,17088,-28,1036,17119.40,26.60,-1.00,-1.0,2372
4776,2139776,17008,-12,1132,17045.63,26.51,-1.00,-1.0,2445
4779,2139779,17036,-92,1076,17070.20,26.60,-1.00,-1.0,2364
4782,2139782,16964,-60,1056,16996.94,26.60,-1.00,-1.0,2444
4784,2139784,17036,-116,1216,17079.74,26.60,-1.00,-1.0,2353
4787,2139787,16888,-80,1080,16922.69,26.60,-1.00,-1.0,2438
4790,2139790,17016,-72,1076,17050.14,26.65,-1.00,-1.0,2363
4793,2139793,16976,-28,1000,17005.45,26.60,-1.00,-1.0,2444
4795,2139795,17072,-128,1132,17109.97,26.65,-1.00,-1.0,2365
4800,2139800,16956,-88,1020,16986.88,26.65,-1.00,-1.0,2448
4803,2139803,17036,-124,1128,17073.75,26.65,-1.00,-1.0,2366
4806,2139806,17060,0,980,17088.12,26.60,-1.00,-1.0,2360
4809,2139809,17000,-16,1168,17040.08,26.55,-1.00,-1.0,2476
4811,2139811,16956,-8,1200,16998.41,26.55,-1.00,-1.0,2376
4814,2139814,17016,-172,1128,17054.21,26.65,-1.00,-1.0,2436
4817,2139817,17000,-80,1172,17040.54,26.55,-1.00,-1.0,2365
4820,2139820,16972,-124,1004,17002.12,26.55,-1.00,-1.0,2446
4822,2139822,16948,-76,1172,16988.64,26.65,-1.00,-1.0,2372
4827,2139827,17048,-60,1104,17083.81,26.55,-1.00,-1.0,2440
4830,2139830,16984,-100,1024,17015.13,26.65,-1.00,-1.0,2365
4833,2139833,17024,-200,980,17053.36,26.60,-1.00,-1.0,2436
4835,2139835,16924,-16,1068,16957.67,26.65,-1.00,-1.0,2351
4838,2139838,17032,20,1104,17067.75,26.60,-1.00,-1.0,2360
4841,2139841,17028,-96,1076,17062.23,26.69,-1.00,-1.0,2441
4843,2139843,16932,-100,1136,16970.36,26.60,-1.00,-1.0,2363
4846,2139846,17008,-64,1120,17044.96,26.60,-1.00,-1.0,2438
4849,2139849,17008,-76,1152,17047.14,26.55,-1.00,-1.0,2373
4854,2139854,17100,-52,1048,17132.16,26.55,-1.00,-1.0,2440
4857,2139857,17012,-24,976,17039.99,26.55,-1.00,-1.0,2365
4860,2139860,16940,-108,940,16966.40,26.60,-1.00,-1.0,2439
4862,2139862,17068,-80,1124,17105.16,26.55,-1.00,-1.0,2354
4865,2139865,17068,-76,1088,17102.81,26.55,-1.00,-1.0,2437
4868,2139868,16988,-112,904,17012.40,26.65,-1.00,-1.0,2367
4871,2139871,17152,-16,1200,17193.93,26.69,-1.00,-1.0,2435
4873,2139873,17004,-72,1028,17035.20,26.60,-1.00,-1.0,2368
4876,2139876,16984,-48,992,17013.01,26.60,-1.00,-1.0,2363
4881,2139881,16992,-56,1200,17034.41,26.60,-1.00,-1.0,2443
4884,2139884,17132,-96,1012,17162.13,26.55,-1.00,-1.0,2371
4887,2139887,17008,-56,1040,17039.86,26.60,-1.00,-1.0,2443
4890,2139890,16992,-40,1096,17027.36,26.74,-1.00,-1.0,2366
4892,2139892,16972,-28,1084,17006.61,26.60,-1.00,-1.0,2439
4895,2139895,16952,-64,988,16980.89,26.65,-1.00,-1.0,2372
4898,2139898,16976,-40,1000,17005.47,26.60,-1.00,-1.0,2437
4901,2139901,16996,0,1164,17035.81,26.65,-1.00,-1.0,2367
4906,2139906,17020,-124,1024,17051.23,26.55,-1.00,-1.0,2444
4908,2139908,16968,-100,1128,17005.75,26.55,-1.00,-1.0,2368
4911,2139911,17016,-40,1060,17049.03,26.55,-1.00,-1.0,2455
4914,2139914,17008,0,1032,17039.28,26.55,-1.00,-1.0,2374
4916,2139916,17008,-76,1084,17042.68,26.51,-1.00,-1.0,2368
4919,2139919,16996,-112,1028,17027.43,26.60,-1.00,-1.0,2435
4922,2139922,16896,-60,1088,16931.10,26.60,-1.00,-1.0,2353
4925,2139925,16988,-184,1024,17019.83,26.51,-1.00,-1.0,2446
4927,2139927,16956,-164,1024,16987.68,26.60,-1.00,-1.0,2364
4932,2139932,17032,-64,984,17060.52,26.60,-1.00,-1.0,2442
4935,2139935,16972,-92,1024,17003.11,26.60,-1.00,-1.0,2365
4938,2139938,17048,-176,1064,17082.08,26.60,-1.00,-1.0,2426
4941,2139941,17024,-52,1096,17059.32,26.60,-1.00,-1.0,2366
4943,2139943,17016,-76,1056,17048.90,26.60,-1.00,-1.0,2437
4946,2139946,17048,-8,1028,17078.97,26.65,-1.00,-1.0,2352
4949,2139949,17012,-52,1152,17051.04,26.60,-1.00,-1.0,2436
4952,2139952,16976,16,1020,17006.62,26.60,-1.00,-1.0,2366
4954,2139954,17064,-16,964,17091.21,26.74,-1.00,-1.0,2346
4959,2139959,17044,-108,1132,17081.89,26.65,-1.00,-1.0,2441
4962,2139962,17044,-128,1036,17075.94,26.60,-1.00,-1.0,2365
4965,2139965,17012,-100,1172,17052.62,26.65,-1.00,-1.0,2439
4968,2139968,16984,-88,1096,17019.55,26.60,-1.00,-1.0,2364
4970,2139970,17076,-88,1044,17108.11,26.65,-1.00,-1.0,2437
4973,2139973,17040,-68,1008,17069.92,26.69,-1.00,-1.0,2366
4976,2139976,17032,56,1004,17061.66,26.65,-1.00,-1.0,2436
4979,2139979,17060,-84,1032,17091.39,26.60,-1.00,-1.0,2366
4984,2139984,16956,-208,1112,16993.70,26.51,-1.00,-1.0,2441
4986,2139986,17040,-128,1096,17075.69,26.60,-1.00,-1.0,2374
4989,2139989,17080,-124,1016,17110.64,26.60,-1.00,-1.0,2448
4992,2139992,17088,-188,1172,17129.18,26.69,-1.00,-1.0,2366
4994,2139994,16960,-128,1104,16996.38,26.65,-1.00,-1.0,2359
4997,2139997,16952,-140,1016,16983.00,26.65,-1.00,-1.0,2436
5000,2140000,17004,-60,1112,17040.43,26.55,-1.00,-1.0,2368
5003,2140003,16984,-248,1004,17015.46,26.55,-1.00,-1.0,2434
5006,2140006,17024,-60,1076,17058.08,26.60,-1.00,-1.0,2364
5011,2140011,17028,-88,1092,17063.21,26.55,-1.00,-1.0,2448
5013,2140013,16984,-148,1128,17022.06,26.65,-1.00,-1.0,2365
5016,2140016,17060,-44,988,17088.64,26.65,-1.00,-1.0,2440
5019,2140019,17004,-128,1100,17040.02,26.65,-1.00,-1.0,2351
5022,2140022,17072,92,1048,17104.38,26.55,-1.00,-1.0,2434
5024,2140024,17024,56,1168,17064.11,26.55,-1.00,-1.0,2354
5027,2140027,17012,-36,992,17040.94,26.55,-1.00,-1.0,2437
5030,2140030,16984,-40,1052,17016.60,26.69,-1.00,-1.0,2352
5033,2140033,17048,-80,1076,17082.11,26.60,-1.00,-1.0,2363
5038,2140038,16956,-40,1092,16991.17,26.60,-1.00,-1.0,2458
5041,2140041,16940,-84,1032,16971.61,26.65,-1.00,-1.0,2367
5044,2140044,17092,-144,1116,17129.00,26.69,-1.00,-1.0,2445
5046,2140046,16924,-172,972,16952.76,26.69,-1.00,-1.0,2363
5049,2140049,17060,-172,1156,17099.99,26.60,-1.00,-1.0,2438
5052,2140052,17048,-116,1084,17082.82,26.55,-1.00,-1.0,2367
5055,2140055,17016,-196,1148,17055.81,26.69,-1.00,-1.0,2447
5057,2140057,16972,-92,952,16998.93,26.60,-1.00,-1.0,2364
5062,2140062,16980,-60,1092,17015.18,26.60,-1.00,-1.0,2445
5065,2140065,16960,-16,1188,17001.56,26.55,-1.00,-1.0,2365
5068,2140068,17032,0,1164,17071.73,26.60,-1.00,-1.0,2444
5070,2140070,17092,-100,1048,17124.39,26.60,-1.00,-1.0,2364
5073,2140073,17016,-180,944,17043.12,26.51,-1.00,-1.0,2367
5076,2140076,17060,-24,1156,17099.14,26.65,-1.00,-1.0,2439
5079,2140079,17024,-120,952,17051.02,26.51,-1.00,-1.0,2365
5081,2140081,17052,60,1124,17089.11,26.55,-1.00,-1.0,2449
5084,2140084,17020,-108,924,17045.40,26.60,-1.00,-1.0,2364
5089,2140089,17012,-76,1024,17042.96,26.60,-1.00,-1.0,2443
5092,2140092,17060,-76,1044,17092.08,26.60,-1.00,-1.0,2366
5094,2140094,17000,-104,1136,17038.23,26.69,-1.00,-1.0,2440
5097,2140097,17032,-96,1008,17062.07,26.60,-1.00,-1.0,2352
5100,2140100,17012,-136,1148,17051.23,26.51,-1.00,-1.0,2437
5103,2140103,16964,-76,1160,17003.78,26.65,-1.00,-1.0,2365
5105,2140105,17124,-60,956,17150.77,26.60,-1.00,-1.0,2436
5108,2140108,16900,8,1076,16934.22,26.65,-1.00,-1.0,2364
5111,2140111,17008,-16,1032,17039.29,26.60,-1.00,-1.0,2367
5116,2140116,17028,-116,984,17056.80,26.60,-1.00,-1.0,2442
5118,2140118,16944,-96,1180,16985.31,26.65,-1.00,-1.0,2367
5121,2140121,17092,-64,976,17119.96,26.60,-1.00,-1.0,2440
5124,2140124,16964,-64,1044,16996.21,26.55,-1.00,-1.0,2365
5127,2140127,16960,-12,1032,16991.37,26.60,-1.00,-1.0,2434
5129,2140129,17072,100,1020,17102.74,26.55,-1.00,-1.0,2367
5132,2140132,16956,100,1036,16987.91,26.60,-1.00,-1.0,2438
5135,2140135,16992,-176,1144,17031.38,26.55,-1.00,-1.0,2364
5140,2140140,17080,-16,1052,17112.38,26.55,-1.00,-1.0,2451
5143,2140143,17048,-76,1004,17077.71,26.60,-1.00,-1.0,2419
5146,2140146,16996,-68,1076,17030.16,26.65,-1.00,-1.0,2433
5148,2140148,17012,-88,1172,17052.55,26.60,-1.00,-1.0,2373
5151,2140151,16960,-96,976,16988.33,26.55,-1.00,-1.0,2347
5154,2140154,16976,-116,1072,17010.21,26.55,-1.00,-1.0,2443
5156,2140156,17028,-60,984,17056.51,26.65,-1.00,-1.0,2385
5159,2140159,16992,-100,1008,17022.17,26.60,-1.00,-1.0,2437
5162,2140162,16916,-36,1076,16950.22,26.55,-1.00,-1.0,2380
5167,2140167,17028,-84,1068,17061.67,26.55,-1.00,-1.0,2446
5169,2140169,17060,-68,1088,17094.79,26.60,-1.00,-1.0,2366
5172,2140172,16984,-40,1064,17017.34,26.55,-1.00,-1.0,2445
5175,2140175,16948,-80,876,16970.81,26.55,-1.00,-1.0,2366
5178,2140178,17084,-256,1028,17116.82,26.55,-1.00,-1.0,2442
5180,2140180,17028,-128,1128,17065.80,26.65,-1.00,-1.0,2367
5183,2140183,17104,-16,1124,17140.90,26.74,-1.00,-1.0,2439
5186,2140186,16936,-108,1204,16979.09,26.60,-1.00,-1.0,2367
5189,2140189,17080,-80,1184,17121.18,26.60,-1.00,-1.0,2360
5194,2140194,17020,-168,992,17049.71,26.51,-1.00,-1.0,2439
5196,2140196,17000,-188,1280,17049.16,26.60,-1.00,-1.0,2375
5199,2140199,17020,-52,1120,17056.89,26.60,-1.00,-1.0,2438
5202,2140202,17024,-124,1036,17055.95,26.65,-1.00,-1.0,2369
5205,2140205,17076,-64,984,17104.45,26.60,-1.00,-1.0,2435
5207,2140207,16920,-80,1100,16955.91,26.60,-1.00,-1.0,2374
5210,2140210,17080,-72,1120,17116.83,26.60,-1.00,-1.0,2434
5213,2140213,17036,-92,1172,17076.51,26.55,-1.00,-1.0,2368
5218,2140218,17000,-28,1164,17039.83,26.55,-1.00,-1.0,2446
5221,2140221,17048,-100,1056,17080.97,26.55,-1.00,-1.0,2367
5223,2140223,17040,-208,1196,17083.19,26.60,-1.00,-1.0,2446
5226,2140226,16920,-72,1164,16960.14,26.55,-1.00,-1.0,2374
5229,2140229,16924,-100,1200,16966.79,26.60,-1.00,-1.0,2360
5231,2140231,16944,-12,964,16971.40,26.60,-1.00,-1.0,2435
5234,2140234,17060,-48,1068,17093.46,26.51,-1.00,-1.0,2369
5237,2140237,17008,-72,1008,17038.00,26.60,-1.00,-1.0,2432
5240,2140240,17096,-32,976,17123.87,26.55,-1.00,-1.0,2361
5245,2140245,17096,28,1088,17130.61,26.60,-1.00,-1.0,2445
5247,2140247,17136,-36,1032,17167.09,26.65,-1.00,-1.0,2369
5250,2140250,17024,-152,964,17051.95,26.69,-1.00,-1.0,2451
5253,2140253,17112,-64,1140,17150.05,26.55,-1.00,-1.0,2374
5256,2140256,16908,-116,1016,16938.89,26.51,-1.00,-1.0,2444
5258,2140258,17088,-80,1188,17129.43,26.51,-1.00,-1.0,2370
5261,2140261,16984,-92,1048,17016.55,26.60,-1.00,-1.0,2442
5264,2140264,17028,-36,940,17053.96,26.65,-1.00,-1.0,2374
5267,2140267,17112,-116,1108,17148.23,26.55,-1.00,-1.0,2367
5272,2140272,17036,-60,1080,17070.30,26.60,-1.00,-1.0,2446
5274,2140274,16916,-36,1144,16954.68,26.60,-1.00,-1.0,2370
5277,2140277,16984,-40,1096,17019.37,26.60,-1.00,-1.0,2451
5280,2140280,16968,-16,1200,17010.39,26.55,-1.00,-1.0,2374
5283,2140283,17024,8,1116,17060.54,26.60,-1.00,-1.0,2446
5285,2140285,17000,-84,1040,17031.99,26.60,-1.00,-1.0,2371
5288,2140288,16972,-104,928,16997.67,26.60,-1.00,-1.0,2442
5291,2140291,17056,-100,1056,17088.95,26.60,-1.00,-1.0,2369
5296,2140296,17068,-44,1160,17107.43,26.69,-1.00,-1.0,2445
5298,2140298,17004,-40,1140,17042.22,26.60,-1.00,-1.0,2367
5301,2140301,16960,0,1076,16994.10,26.51,-1.00,-1.0,2451
5304,2140304,16896,-68,1104,16932.17,26.60,-1.00,-1.0,2366
5307,2140307,16984,20,1052,17016.56,26.60,-1.00,-1.0,2358
5309,2140309,16948,-8,1132,16985.76,26.65,-1.00,-1.0,2437
5312,2140312,17112,-68,1084,17146.44,26.51,-1.00,-1.0,2381
5315,2140315,17024,-64,1096,17059.36,26.65,-1.00,-1.0,2433
5318,2140318,16904,-176,1104,16940.93,26.60,-1.00,-1.0,2369
5323,2140323,16908,-112,1160,16948.12,26.51,-1.00,-1.0,2446
5326,2140326,17056,28,1008,17085.78,26.60,-1.00,-1.0,2367
5328,2140328,17016,-52,1096,17051.34,26.65,-1.00,-1.0,2445
5331,2140331,16948,36,992,16977.04,26.60,-1.00,-1.0,2373
5334,2140334,17084,-24,1056,17116.62,26.55,-1.00,-1.0,2437
5337,2140337,17040,-36,1112,17076.28,26.60,-1.00,-1.0,2367
5339,2140339,16956,12,1072,16989.86,26.55,-1.00,-1.0,2364
5342,2140342,16992,-64,1128,17029.52,26.55,-1.00,-1.0,2433
5345,2140345,17080,-40,1120,17116.73,26.65,-1.00,-1.0,2368
5350,2140350,17112,-28,944,17138.04,26.65,-1.00,-1.0,2430
5353,2140353,16984,8,1032,17015.33,26.60,-1.00,-1.0,2367
5355,2140355,17100,-84,1116,17136.58,26.55,-1.00,-1.0,2446
5358,2140358,17108,-40,1076,17141.85,26.60,-1.00,-1.0,2373
5361,2140361,17072,-40,1044,17103.94,26.65,-1.00,-1.0,2423
5364,2140364,17036,-40,1068,17069.49,26.60,-1.00,-1.0,2367
5366,2140366,17020,-44,1112,17056.34,26.55,-1.00,-1.0,2444
5369,2140369,17000,-28,1108,17036.09,26.51,-1.00,-1.0,2366
5374,2140374,16972,-60,1104,17007.97,26.60,-1.00,-1.0,2439
5377,2140377,16968,-96,1096,17003.63,26.65,-1.00,-1.0,2367
5379,2140379,17004,-52,1076,17038.09,26.69,-1.00,-1.0,2362
5382,2140382,16972,-28,1108,17008.15,26.55,-1.00,-1.0,2452
5385,2140385,16948,16,1072,16981.88,26.60,-1.00,-1.0,2375
5388,2140388,16956,-192,1068,16990.69,26.55,-1.00,-1.0,2443
5390,2140390,17080,-92,1088,17114.87,26.60,-1.00,-1.0,2369
5393,2140393,16956,-76,980,16984.47,26.65,-1.00,-1.0,2449
5396,2140396,16980,-108,1080,17014.65,26.60,-1.00,-1.0,2367
5401,2140401,17052,-84,1172,17092.44,26.65,-1.00,-1.0,2439
5404,2140404,17112,-148,980,17140.68,26.65,-1.00,-1.0,2367
5406,2140406,17028,-36,1204,17070.55,26.51,-1.00,-1.0,2438
5409,2140409,16956,100,1156,16995.65,26.55,-1.00,-1.0,2355
5412,2140412,16968,-52,1052,17000.66,26.60,-1.00,-1.0,2437
5415,2140415,17100,-84,960,17127.13,26.65,-1.00,-1.0,2370
5417,2140417,16988,40,980,17016.29,26.69,-1.00,-1.0,2360
5420,2140420,17020,-52,1032,17051.34,26.60,-1.00,-1.0,2434
5423,2140423,17044,40,1084,17078.48,26.60,-1.00,-1.0,2367
5428,2140428,16940,24,1052,16972.65,26.69,-1.00,-1.0,2437
5431,2140431,17016,-20,1068,17049.49,26.55,-1.00,-1.0,2366
5433,2140433,16972,-108,1088,17007.18,26.60,-1.00,-1.0,2438
5436,2140436,17112,-8,1076,17145.80,26.51,-1.00,-1.0,2366
5439,2140439,17016,16,1032,17047.27,26.60,-1.00,-1.0,2420
5442,2140442,17020,-124,1144,17058.85,26.65,-1.00,-1.0,2366
5444,2140444,17000,-8,1012,17030.10,26.69,-1.00,-1.0,2435
5447,2140447,16972,-120,1100,17008.03,26.55,-1.00,-1.0,2369
5450,2140450,17112,8,1216,17155.15,26.69,-1.00,-1.0,2360
5455,2140455,16960,-68,1060,16993.23,26.69,-1.00,-1.0,2437
5458,2140458,16932,-136,1064,16965.94,26.60,-1.00,-1.0,2367
5460,2140460,16956,-80,1056,16989.04,26.55,-1.00,-1.0,2438
5463,2140463,17072,-84,1124,17109.17,26.60,-1.00,-1.0,2367
5466,2140466,17004,-96,1012,17034.36,26.65,-1.00,-1.0,2434
5469,2140469,17028,32,976,17055.98,26.60,-1.00,-1.0,2368
5471,2140471,16972,-44,1012,17002.20,26.55,-1.00,-1.0,2433
5474,2140474,17008,-148,1180,17049.53,26.60,-1.00,-1.0,2366
5479,2140479,16932,-4,1004,16961.74,26.60,-1.00,-1.0,2427
5482,2140482,17016,-76,964,17043.46,26.65,-1.00,-1.0,2367
5484,2140484,17180,32,1100,17215.21,26.60,-1.00,-1.0,2360
5487,2140487,17124,-24,1112,17160.08,26.65,-1.00,-1.0,2437
5490,2140490,17036,-108,1076,17070.29,26.60,-1.00,-1.0,2367
5492,2140492,16988,-48,912,17012.53,26.55,-1.00,-1.0,2434
5495,2140495,17048,-100,1128,17085.57,26.60,-1.00,-1.0,2366
5498,2140498,16928,-116,912,16952.95,26.60,-1.00,-1.0,2447
5501,2140501,17004,-136,952,17031.17,26.65,-1.00,-1.0,2366
5506,2140506,16932,-88,1068,16965.88,26.65,-1.00,-1.0,2437
5509,2140509,16948,-16,1200,16990.44,26.69,-1.00,-1.0,2366
5511,2140511,17012,-120,1036,17043.94,26.65,-1.00,-1.0,2438
5514,2140514,16992,-116,928,17017.72,26.69,-1.00,-1.0,2354
5517,2140517,17024,-56,1016,17054.38,26.65,-1.00,-1.0,2433
5520,2140520,16936,-100,1140,16974.62,26.60,-1.00,-1.0,2366
5522,2140522,17020,-76,1028,17051.19,26.65,-1.00,-1.0,2434
5525,2140525,17024,-100,1072,17058.01,26.51,-1.00,-1.0,2367
5528,2140528,16940,-56,1188,16981.70,26.60,-1.00,-1.0,2367
5533,2140533,17116,-8,1168,17155.81,26.65,-1.00,-1.0,2437
5536,2140536,17024,20,952,17050.61,26.65,-1.00,-1.0,2367
5539,2140539,17112,-84,1112,17148.30,26.55,-1.00,-1.0,2438
5541,2140541,17052,20,968,17079.46,26.65,-1.00,-1.0,2365
5544,2140544,16968,-48,996,16997.28,26.55,-1.00,-1.0,2433
5547,2140547,16992,-120,1032,17023.73,26.55,-1.00,-1.0,2367
5549,2140549,16916,-64,1084,16950.82,26.65,-1.00,-1.0,2436
5552,2140552,17040,-36,1088,17074.74,26.55,-1.00,-1.0,2366
5557,2140557,17064,-148,1128,17101.88,26.55,-1.00,-1.0,2439
5560,2140560,16924,-104,1100,16960.03,26.60,-1.00,-1.0,2367
5562,2140562,17020,-64,1004,17049.71,26.55,-1.00,-1.0,2361
5565,2140565,17040,-20,1100,17075.48,26.55,-1.00,-1.0,2437
5568,2140568,17056,24,1104,17091.71,26.55,-1.00,-1.0,2354
5571,2140571,17056,-20,1180,17096.78,26.65,-1.00,-1.0,2439
5573,2140573,17076,-16,1064,17109.12,26.55,-1.00,-1.0,2368
5576,2140576,16984,-48,1008,17013.95,26.60,-1.00,-1.0,2483
5579,2140579,17036,-12,1004,17065.56,26.60,-1.00,-1.0,2370
5584,2140584,16996,-40,1100,17031.61,26.60,-1.00,-1.0,2454
5587,2140587,16976,-112,936,17002.15,26.60,-1.00,-1.0,2371
5590,2140590,17024,-136,984,17052.96,26.55,-1.00,-1.0,2452
5592,2140592,17004,-56,1136,17042.00,26.60,-1.00,-1.0,2375
5595,2140595,17036,-44,1016,17066.33,26.65,-1.00,-1.0,2444
5598,2140598,17072,120,1160,17111.79,26.60,-1.00,-1.0,2366
5600,2140600,16964,-152,988,16993.43,26.65,-1.00,-1.0,2362
5603,2140603,17072,-132,976,17100.38,26.65,-1.00,-1.0,2436
5606,2140606,17032,-112,1260,17078.91,26.65,-1.00,-1.0,2368
5611,2140611,17072,-88,1048,17104.36,26.65,-1.00,-1.0,2455
5614,2140614,16972,-72,980,17000.42,26.60,-1.00,-1.0,2371
5617,2140617,17076,-112,1152,17115.18,26.65,-1.00,-1.0,2454
5619,2140619,16940,-100,1008,16970.26,26.60,-1.00,-1.0,2373
5622,2140622,16980,-44,1036,17011.63,26.65,-1.00,-1.0,2443
5625,2140625,17012,-64,1140,17050.27,26.60,-1.00,-1.0,2352
5628,2140628,16972,-128,1128,17009.93,26.55,-1.00,-1.0,2449
5630,2140630,17036,-80,1004,17065.75,26.60,-1.00,-1.0,2375
5635,2140635,17020,-128,1060,17053.46,26.51,-1.00,-1.0,2442
5638,2140638,16984,-64,1092,17019.19,26.60,-1.00,-1.0,2364
5641,2140641,17080,-16,1052,17112.38,26.60,-1.00,-1.0,2366
5643,2140643,17084,-104,1144,17122.58,26.65,-1.00,-1.0,2460
5646,2140646,17052,-148,1092,17087.57,26.55,-1.00,-1.0,2354
5649,2140649,17008,-148,1196,17050.64,26.60,-1.00,-1.0,2436
5652,2140652,16924,-120,1064,16957.84,26.55,-1.00,-1.0,2364
5654,2140654,16968,-48,1124,17005.26,26.69,-1.00,-1.0,2437
5657,2140657,16964,-4,1088,16998.86,26.74,-1.00,-1.0,2365
5662,2140662,16948,-144,948,16975.10,26.60,-1.00,-1.0,2440
5665,2140665,17016,-136,1104,17052.32,26.60,-1.00,-1.0,2364
5667,2140667,17028,-116,1096,17063.63,26.69,-1.00,-1.0,2440
5670,2140670,17012,-108,904,17036.34,26.60,-1.00,-1.0,2364
5673,2140673,16984,-108,1172,17024.73,26.60,-1.00,-1.0,2436
5676,2140676,16948,-68,1008,16978.09,26.69,-1.00,-1.0,2363
5678,2140678,17004,-160,1080,17039.01,26.60,-1.00,-1.0,2437
5681,2140681,17096,-20,1004,17125.47,26.60,-1.00,-1.0,2352
5684,2140684,17012,-124,1076,17046.45,26.60,-1.00,-1.0,2348
5689,2140689,16972,-96,980,17000.54,26.60,-1.00,-1.0,2440
5692,2140692,16964,48,1080,16998.41,26.60,-1.00,-1.0,2366
5694,2140694,17048,-28,1096,17083.22,26.60,-1.00,-1.0,2441
5697,2140697,16996,-52,1148,17034.81,26.60,-1.00,-1.0,2364
5700,2140700,17008,-160,1116,17045.33,26.60,-1.00,-1.0,2437
5703,2140703,17036,-44,1052,17068.51,26.60,-1.00,-1.0,2365
5705,2140705,16984,-112,1288,17033.14,26.60,-1.00,-1.0,2437
5708,2140708,17020,-16,936,17045.72,26.60,-1.00,-1.0,2364
5713,2140713,17080,-160,980,17108.84,26.60,-1.00,-1.0,2442
5716,2140716,16976,-60,1176,17016.79,26.69,-1.00,-1.0,2351
5719,2140719,17052,-124,1008,17082.22,26.60,-1.00,-1.0,2445
5721,2140721,17008,-24,1036,17039.54,26.65,-1.00,-1.0,2363
5724,2140724,17044,12,1200,17086.20,26.69,-1.00,-1.0,2361
5727,2140727,17036,-16,1136,17073.84,26.65,-1.00,-1.0,2447
5729,2140729,17032,-124,960,17059.48,26.69,-1.00,-1.0,2364
5732,2140732,17016,-136,1168,17056.58,26.55,-1.00,-1.0,2454
5735,2140735,17088,-56,924,17113.05,26.65,-1.00,-1.0,2366
5740,2140740,17048,52,1024,17078.80,26.69,-1.00,-1.0,2443
5743,2140743,17004,-104,1060,17037.32,26.51,-1.00,-1.0,2367
5746,2140746,17104,-48,996,17133.04,26.65,-1.00,-1.0,2446
5748,2140748,17072,-76,1152,17110.99,26.60,-1.00,-1.0,2365
5751,2140751,17032,-20,964,17059.27,26.55,-1.00,-1.0,2438
5754,2140754,17048,-124,1160,17087.87,26.69,-1.00,-1.0,2369
5757,2140757,17048,-24,960,17075.03,26.55,-1.00,-1.0,2442
5759,2140759,17032,-84,1100,17067.69,26.60,-1.00,-1.0,2365
5762,2140762,16944,-28,988,16972.80,26.65,-1.00,-1.0,2361
5767,2140767,16996,-112,1008,17026.23,26.65,-1.00,-1.0,2444
5770,2140770,16988,-104,1040,17020.12,26.60,-1.00,-1.0,2366
5773,2140773,17016,-84,1064,17049.44,26.55,-1.00,-1.0,2440
5775,2140775,17156,-88,1060,17188.94,26.55,-1.00,-1.0,2364
5778,2140778,17068,-88,1064,17101.36,26.65,-1.00,-1.0,2437
5781,2140781,17008,-144,1108,17044.66,26.60,-1.00,-1.0,2366
5784,2140784,17044,0,1288,17092.60,26.65,-1.00,-1.0,2442
5786,2140786,17004,-88,992,17033.14,26.69,-1.00,-1.0,2365
5791,2140791,17044,-88,1144,17082.58,26.60,-1.00,-1.0,2442
5794,2140794,17072,-92,1128,17109.47,26.69,-1.00,-1.0,2368
5797,2140797,17004,-4,1132,17041.64,26.55,-1.00,-1.0,2361
5799,2140799,17040,-56,1060,17073.03,26.65,-1.00,-1.0,2438
5802,2140802,17052,4,1076,17085.92,26.65,-1.00,-1.0,2352
5805,2140805,16940,-124,888,16963.71,26.65,-1.00,-1.0,2434
5808,2140808,17004,-88,1096,17039.51,26.51,-1.00,-1.0,2364
5810,2140810,17008,-124,1048,17040.71,26.65,-1.00,-1.0,2436
5813,2140813,17000,-124,1024,17031.26,26.60,-1.00,-1.0,2374
5818,2140818,17044,-64,1084,17078.56,26.55,-1.00,-1.0,2451
5821,2140821,17104,-32,1128,17141.19,26.60,-1.00,-1.0,2372
5824,2140824,16924,-32,948,16950.56,26.69,-1.00,-1.0,2442
5827,2140827,17036,-60,892,17059.44,26.60,-1.00,-1.0,2371
5829,2140829,16992,-112,1144,17030.84,26.51,-1.00,-1.0,2444
5832,2140832,16996,-44,988,17024.75,26.69,-1.00,-1.0,2373
5835,2140835,17032,-112,1068,17065.82,26.60,-1.00,-1.0,2361
5837,2140837,17000,-72,1068,17033.67,26.65,-1.00,-1.0,2436
5840,2140840,16984,-40,1192,17025.82,26.60,-1.00,-1.0,2373
5845,2140845,16936,-116,1112,16972.86,26.60,-1.00,-1.0,2451
5848,2140848,17020,0,1036,17051.50,26.51,-1.00,-1.0,2379
5851,2140851,17012,28,1116,17048.59,26.51,-1.00,-1.0,2441
5854,2140854,17108,-124,1112,17144.55,26.60,-1.00,-1.0,2375
5856,2140856,16940,-84,992,16969.23,26.55,-1.00,-1.0,2438
5859,2140859,17036,-36,928,17061.29,26.60,-1.00,-1.0,2381
5862,2140862,17000,36,1148,17038.76,26.55,-1.00,-1.0,2436
5865,2140865,17088,-72,948,17114.43,26.60,-1.00,-1.0,2371
5867,2140867,16888,-132,1060,16921.75,26.65,-1.00,-1.0,2350
5874,2140874,17052,-72,1236,17096.89,26.55,-1.00,-1.0,2443
5877,2140877,16956,-156,1048,16989.07,26.60,-1.00,-1.0,2373
5880,2140880,17000,-44,1144,17038.51,26.55,-1.00,-1.0,2439
5883,2140883,17028,-188,1052,17061.50,26.60,-1.00,-1.0,2365
5885,2140885,16948,-52,1036,16979.71,26.55,-1.00,-1.0,2439
5888,2140888,16904,-184,916,16929.80,26.60,-1.00,-1.0,2369
5891,2140891,16992,24,1108,17028.10,26.65,-1.00,-1.0,2437
5894,2140894,17124,-36,1168,17163.83,26.51,-1.00,-1.0,2366
5898,2140898,17084,-164,1132,17122.25,26.55,-1.00,-1.0,2441
5901,2140901,17020,-116,1024,17051.17,26.65,-1.00,-1.0,2353
5904,2140904,17016,-136,1048,17048.79,26.65,-1.00,-1.0,2438
5907,2140907,17072,-60,1112,17108.28,26.55,-1.00,-1.0,2365
5909,2140909,17108,24,1016,17138.16,26.65,-1.00,-1.0,2439
5912,2140912,17000,-100,1028,17031.35,26.65,-1.00,-1.0,2373
5915,2140915,17000,-60,1044,17032.13,26.65,-1.00,-1.0,2361
5917,2140917,16988,-68,916,17012.81,26.60,-1.00,-1.0,2436
5920,2140920,16996,-48,1116,17032.67,26.65,-1.00,-1.0,2366
5925,2140925,17040,32,1068,17073.47,26.65,-1.00,-1.0,2449
5928,2140928,16976,-64,1112,17012.50,26.60,-1.00,-1.0,2367
5931,2140931,17040,-56,1004,17069.64,26.65,-1.00,-1.0,2453
5933,2140933,16996,-184,1016,17027.33,26.55,-1.00,-1.0,2373
5936,2140936,17040,-48,1204,17082.55,26.65,-1.00,-1.0,2444
5939,2140939,16964,-88,1164,17004.12,26.65,-1.00,-1.0,2351
5942,2140942,17072,-100,1180,17113.02,26.65,-1.00,-1.0,2449
5944,2140944,17008,-44,1144,17046.49,26.55,-1.00,-1.0,2375
5949,2140949,16980,4,1016,17010.37,26.60,-1.00,-1.0,2441
5952,2140952,17004,-136,1084,17039.06,26.60,-1.00,-1.0,2364
5955,2140955,16932,-16,992,16961.04,26.65,-1.00,-1.0,2366
5957,2140957,16964,-136,996,16993.76,26.55,-1.00,-1.0,2449
5960,2140960,16968,-56,1176,17008.79,26.55,-1.00,-1.0,2381
5963,2140963,16964,-88,1064,16997.56,26.65,-1.00,-1.0,2438
5966,2140966,17084,-60,1028,17115.01,26.65,-1.00,-1.0,2369
5968,2140968,16976,-116,1116,17013.04,26.55,-1.00,-1.0,2445
5971,2140971,17000,-12,1052,17032.52,26.55,-1.00,-1.0,2382
5976,2140976,17056,-24,992,17084.84,26.60,-1.00,-1.0,2440
5979,2140979,16992,-120,1064,17025.70,26.60,-1.00,-1.0,2371
5982,2140982,16952,-8,976,16980.07,26.65,-1.00,-1.0,2440
5984,2140984,16948,-64,1180,16989.15,26.60,-1.00,-1.0,2365
5987,2140987,17044,-60,1008,17073.89,26.55,-1.00,-1.0,2369
5990,2140990,17040,-28,1236,17084.79,26.55,-1.00,-1.0,2444
5992,2140992,17072,-52,1028,17103.00,26.55,-1.00,-1.0,2370
5995,2140995,17036,72,1032,17067.38,26.65,-1.00,-1.0,2446
5998,2140998,17072,-92,1036,17103.65,26.55,-1.00,-1.0,2372
6003,2141003,16956,-156,1192,16998.56,26.69,-1.00,-1.0,2448
6005,2141005,17104,-52,1096,17139.16,26.51,-1.00,-1.0,2364
6008,2141008,17036,-60,1028,17067.09,26.65,-1.00,-1.0,2443
6011,2141011,17000,-104,920,17025.19,26.69,-1.00,-1.0,2364
6014,2141014,17084,-56,1028,17114.99,26.65,-1.00,-1.0,2439
6016,2141016,16976,-24,1064,17009.33,26.69,-1.00,-1.0,2364
6019,2141019,17008,-76,964,17035.47,26.65,-1.00,-1.0,2439
6022,2141022,17060,-124,1064,17093.60,26.60,-1.00,-1.0,2366
6024,2141024,17012,44,980,17040.26,26.65,-1.00,-1.0,2360
6029,2141029,17020,-72,1052,17052.63,26.60,-1.00,-1.0,2442
6032,2141032,17080,24,956,17106.75,26.60,-1.00,-1.0,2365
6035,2141035,16976,-12,1052,17008.57,26.51,-1.00,-1.0,2439
6038,2141038,16972,-108,1024,17003.21,26.60,-1.00,-1.0,2365
6040,2141040,16932,-168,1076,16966.99,26.60,-1.00,-1.0,2438
6043,2141043,17112,-136,944,17138.56,26.51,-1.00,-1.0,2364
6046,2141046,16956,-32,1036,16987.65,26.60,-1.00,-1.0,2436
6049,2141049,17024,-72,1144,17062.55,26.69,-1.00,-1.0,2365
6054,2141054,17104,-100,1076,17138.10,26.60,-1.00,-1.0,2444
6056,2141056,16996,-96,1084,17030.80,26.65,-1.00,-1.0,2368
6059,2141059,16984,-116,1036,17015.96,26.55,-1.00,-1.0,2451
6062,2141062,16984,-112,1012,17014.49,26.74,-1.00,-1.0,2371
6064,2141064,17044,-192,1048,17077.27,26.60,-1.00,-1.0,2348
6067,2141067,17000,-80,1116,17036.78,26.60,-1.00,-1.0,2437
6070,2141070,17004,-100,1080,17038.56,26.69,-1.00,-1.0,2352
6073,2141073,17060,-184,1060,17093.89,26.60,-1.00,-1.0,2446
6075,2141075,17056,-52,972,17083.75,26.60,-1.00,-1.0,2372
6080,2141080,17020,-28,960,17047.08,26.51,-1.00,-1.0,2447
6083,2141083,16944,-72,1008,16974.11,26.51,-1.00,-1.0,2364
6086,2141086,17048,48,988,17076.67,26.60,-1.00,-1.0,2449
6088,2141088,17112,-144,964,17139.74,26.60,-1.00,-1.0,2371
6091,2141091,17048,-168,1088,17083.51,26.60,-1.00,-1.0,2436
6094,2141094,17000,-36,1256,17046.37,26.69,-1.00,-1.0,2352
6097,2141097,17032,-36,1108,17068.04,26.60,-1.00,-1.0,2446
6099,2141099,17096,-40,1148,17134.55,26.60,-1.00,-1.0,2374
6102,2141102,17000,-72,1136,17038.07,26.51,-1.00,-1.0,2346
6107,2141107,17036,-24,988,17064.64,26.65,-1.00,-1.0,2441
6109,2141109,17000,-88,1044,17032.25,26.60,-1.00,-1.0,2368
6112,2141112,17008,-48,1072,17041.82,26.65,-1.00,-1.0,2439
6115,2141115,16980,-64,1100,17015.71,26.51,-1.00,-1.0,2365
6118,2141118,16992,-168,948,17019.25,26.65,-1.00,-1.0,2435
6120,2141120,17048,-32,1028,17079.00,26.60,-1.00,-1.0,2368
6123,2141123,16984,-112,1060,17017.41,26.55,-1.00,-1.0,2436
6126,2141126,17028,-52,1040,17059.81,26.51,-1.00,-1.0,2368
