timestamp_ms,global_ms,accel_x,accel_y,accel_z,accel_mag,temp_c,voltage,soc,loop_us
3,2135003,17108,64,1604,17183.15,24.62,-1.00,-1.0,2489
9,2135009,16980,-188,1444,17042.33,24.67,-1.00,-1.0,2464
12,2135012,17168,-48,1444,17228.69,24.58,-1.00,-1.0,2368
15,2135015,17048,268,1492,17115.26,24.62,-1.00,-1.0,2367
17,2135017,17060,56,1408,17118.10,24.62,-1.00,-1.0,2446
20,2135020,17056,-184,1304,17106.77,24.62,-1.00,-1.0,2382
23,2135023,16836,-336,1260,16886.43,24.53,-1.00,-1.0,2439
26,2135026,17124,-244,1276,17173.21,24.62,-1.00,-1.0,2371
28,2135028,16932,216,1276,16981.38,24.67,-1.00,-1.0,2447
31,2135031,16904,416,972,16937.03,24.62,-1.00,-1.0,2381
36,2135036,17048,384,1192,17093.94,24.58,-1.00,-1.0,2450
39,2135039,16916,508,1024,16954.58,24.72,-1.00,-1.0,2376
41,2135041,17128,280,1356,17183.87,24.67,-1.00,-1.0,2441
44,2135044,16792,-52,1144,16831.00,24.72,-1.00,-1.0,2376
47,2135047,17012,-272,952,17040.79,24.58,-1.00,-1.0,2364
49,2135049,17060,88,896,17083.74,24.58,-1.00,-1.0,2437
52,2135052,17056,644,1188,17109.45,24.67,-1.00,-1.0,2368
55,2135055,16948,716,1236,17008.09,24.67,-1.00,-1.0,2436
58,2135058,17112,84,912,17136.49,24.58,-1.00,-1.0,2365
63,2135063,17052,-200,844,17074.04,24.67,-1.00,-1.0,2449
65,2135065,16932,332,968,16962.90,24.62,-1.00,-1.0,2377
68,2135068,17012,636,992,17052.76,24.67,-1.00,-1.0,2363
71,2135071,16940,348,980,16971.89,24.67,-1.00,-1.0,2435
73,2135073,16964,-4,868,16986.19,24.58,-1.00,-1.0,2369
76,2135076,16992,-60,740,17008.21,24.58,-1.00,-1.0,2438
79,2135079,16960,180,856,16982.54,24.58,-1.00,-1.0,2369
82,2135082,17036,432,1020,17071.97,24.67,-1.00,-1.0,2437
84,2135084,17088,260,992,17118.74,24.58,-1.00,-1.0,2374
89,2135089,16932,-236,1012,16963.86,24.58,-1.00,-1.0,2454
92,2135092,16932,68,1004,16961.88,24.62,-1.00,-1.0,2375
95,2135095,17060,156,1044,17092.63,24.67,-1.00,-1.0,2363
97,2135097,17040,48,1136,17077.89,24.67,-1.00,-1.0,2437
100,2135100,17120,-116,956,17147.06,24.58,-1.00,-1.0,2370
103,2135103,16908,-300,1124,16947.97,24.58,-1.00,-1.0,2437
106,2135106,17112,-108,1088,17146.89,24.58,-1.00,-1.0,2372
108,2135108,17116,64,1164,17155.65,24.67,-1.00,-1.0,2426
111,2135111,17076,72,1148,17114.70,24.48,-1.00,-1.0,2381
116,2135116,16952,-432,1040,16989.37,24.58,-1.00,-1.0,2445
119,2135119,16992,-300,1100,17030.21,24.62,-1.00,-1.0,2368
121,2135121,17072,-160,1124,17109.71,24.67,-1.00,-1.0,2371
124,2135124,16996,4,1056,17028.78,24.58,-1.00,-1.0,2445
127,2135127,16992,-104,1028,17023.39,24.67,-1.00,-1.0,2369
130,2135130,17028,-228,1084,17063.99,24.67,-1.00,-1.0,2449
132,2135132,16980,-320,1052,17015.57,24.58,-1.00,-1.0,2375
135,2135135,16940,-328,940,16969.23,24.58,-1.00,-1.0,2446
138,2135138,16968,-188,1088,17003.88,24.67,-1.00,-1.0,2366
143,2135143,17052,-120,1048,17084.60,24.67,-1.00,-1.0,2453
146,2135146,16984,-264,1068,17019.59,24.67,-1.00,-1.0,2365
148,2135148,16964,-388,1056,17001.26,24.58,-1.00,-1.0,2451
151,2135151,17036,-52,1104,17071.81,24.58,-1.00,-1.0,2374
154,2135154,17044,-64,984,17072.50,24.58,-1.00,-1.0,2446
157,2135157,16900,-28,1104,16936.04,24.58,-1.00,-1.0,2366
159,2135159,17036,-224,1160,17076.92,24.67,-1.00,-1.0,2363
162,2135162,16984,-368,964,17015.32,24.53,-1.00,-1.0,2425
165,2135165,17044,-288,964,17073.67,24.72,-1.00,-1.0,2366
170,2135170,17000,-284,996,17031.52,24.58,-1.00,-1.0,2448
173,2135173,16952,-288,944,16980.71,24.67,-1.00,-1.0,2369
175,2135175,17040,-236,1000,17070.95,24.62,-1.00,-1.0,2450
178,2135178,17028,-92,972,17055.97,24.67,-1.00,-1.0,2374
181,2135181,16952,76,1036,16983.80,24.58,-1.00,-1.0,2432
184,2135184,16932,196,1124,16970.40,24.67,-1.00,-1.0,2365
186,2135186,16992,-100,988,17020.99,24.58,-1.00,-1.0,2449
189,2135189,17072,-184,828,17093.06,24.67,-1.00,-1.0,2366
192,2135192,16916,-72,952,16942.92,24.62,-1.00,-1.0,2364
197,2135197,17072,60,1056,17104.73,24.62,-1.00,-1.0,2448
200,2135200,17052,-168,1120,17089.57,24.53,-1.00,-1.0,2381
202,2135202,16980,-300,964,17009.99,24.62,-1.00,-1.0,2426
205,2135205,17008,-368,1204,17054.53,24.67,-1.00,-1.0,2381
208,2135208,17136,-152,968,17163.99,24.53,-1.00,-1.0,2442
211,2135211,17012,-164,1128,17050.14,24.58,-1.00,-1.0,2374
213,2135213,17008,-268,1032,17041.39,24.62,-1.00,-1.0,2440
216,2135216,16984,-348,1016,17017.92,24.67,-1.00,-1.0,2381
221,2135221,16992,-104,1120,17029.19,24.62,-1.00,-1.0,2448
224,2135224,16960,-128,924,16985.63,24.62,-1.00,-1.0,2370
226,2135226,17052,-136,1064,17085.71,24.72,-1.00,-1.0,2362
229,2135229,16992,-260,1076,17028.02,24.67,-1.00,-1.0,2440
232,2135232,17080,-236,1108,17117.53,24.62,-1.00,-1.0,2366
234,2135234,16996,-264,1272,17045.58,24.67,-1.00,-1.0,2437
237,2135237,17040,-184,964,17068.24,24.53,-1.00,-1.0,2366
240,2135240,17064,-204,1224,17109.06,24.67,-1.00,-1.0,2438
243,2135243,17060,-308,1152,17101.62,24.67,-1.00,-1.0,2368
248,2135248,17076,-136,1188,17117.82,24.62,-1.00,-1.0,2475
251,2135251,16956,-200,1172,16997.63,24.62,-1.00,-1.0,2366
253,2135253,16972,-220,1132,17011.13,24.62,-1.00,-1.0,2440
256,2135256,16976,-176,1128,17014.35,24.72,-1.00,-1.0,2370
259,2135259,16940,-136,1212,16983.85,24.77,-1.00,-1.0,2362
261,2135261,17016,-124,1164,17056.22,24.67,-1.00,-1.0,2438
264,2135264,17028,-224,1160,17068.94,24.58,-1.00,-1.0,2367
267,2135267,17028,-288,1152,17069.35,24.67,-1.00,-1.0,2437
270,2135270,17040,-264,1188,17083.40,24.67,-1.00,-1.0,2365
275,2135275,17008,20,1096,17043.29,24.67,-1.00,-1.0,2447
278,2135278,16988,8,1320,17039.21,24.58,-1.00,-1.0,2368
280,2135280,17008,-184,1200,17051.27,24.67,-1.00,-1.0,2437
283,2135283,17028,-208,1164,17069.01,24.58,-1.00,-1.0,2366
286,2135286,16984,-332,1140,17025.45,24.67,-1.00,-1.0,2439
289,2135289,16968,-316,1192,17012.75,24.58,-1.00,-1.0,2366
291,2135291,17044,-336,1244,17092.64,24.67,-1.00,-1.0,2437
294,2135294,17032,-308,1004,17064.35,24.67,-1.00,-1.0,2365
297,2135297,17020,-264,1300,17071.62,24.58,-1.00,-1.0,2362
302,2135302,17048,-260,1240,17095.01,24.67,-1.00,-1.0,2446
305,2135305,16920,-248,1192,16963.75,24.58,-1.00,-1.0,2369
308,2135308,17016,-408,1048,17053.12,24.58,-1.00,-1.0,2437
310,2135310,17004,-316,1104,17042.73,24.67,-1.00,-1.0,2368
313,2135313,17072,-180,1100,17108.35,24.58,-1.00,-1.0,2439
316,2135316,17016,-224,1052,17049.96,24.67,-1.00,-1.0,2369
319,2135319,16984,-152,1204,17027.30,24.58,-1.00,-1.0,2432
321,2135321,16988,-328,960,17018.26,24.58,-1.00,-1.0,2374
326,2135326,16968,-308,1048,17003.12,24.72,-1.00,-1.0,2446
329,2135329,16956,-296,996,16987.81,24.72,-1.00,-1.0,2367
332,2135332,16900,-144,884,16923.72,24.53,-1.00,-1.0,2366
334,2135334,16948,-216,964,16976.77,24.67,-1.00,-1.0,2441
337,2135337,17008,-168,928,17034.13,24.58,-1.00,-1.0,2382
340,2135340,17008,-16,984,17036.45,24.67,-1.00,-1.0,2441
343,2135343,16956,-160,1068,16990.36,24.62,-1.00,-1.0,2377
345,2135345,17040,-128,996,17069.56,24.67,-1.00,-1.0,2446
348,2135348,17012,-268,920,17038.97,24.67,-1.00,-1.0,2383
353,2135353,17004,-144,1016,17034.94,24.62,-1.00,-1.0,2445
356,2135356,17124,-76,1104,17159.72,24.62,-1.00,-1.0,2373
359,2135359,16992,-44,1104,17027.88,24.72,-1.00,-1.0,2439
361,2135361,16916,-164,1160,16956.52,24.53,-1.00,-1.0,2367
364,2135364,17060,-52,1076,17093.98,24.58,-1.00,-1.0,2370
367,2135367,17044,-72,1052,17076.59,24.77,-1.00,-1.0,2446
369,2135369,17028,-48,1060,17061.03,24.67,-1.00,-1.0,2371
372,2135372,17136,-120,1044,17168.19,24.58,-1.00,-1.0,2438
375,2135375,17132,-88,1004,17161.62,24.67,-1.00,-1.0,2373
380,2135380,17032,-124,992,17061.31,24.62,-1.00,-1.0,2446
383,2135383,17004,-52,960,17031.16,24.62,-1.00,-1.0,2375
386,2135386,17004,-140,1032,17035.86,24.58,-1.00,-1.0,2437
388,2135388,17028,-188,1112,17065.31,24.62,-1.00,-1.0,2369
391,2135391,16940,-128,1072,16974.37,24.58,-1.00,-1.0,2438
394,2135394,16968,-136,1080,17002.88,24.62,-1.00,-1.0,2375
397,2135397,17008,-124,1084,17042.96,24.67,-1.00,-1.0,2438
399,2135399,17008,-248,1084,17044.31,24.62,-1.00,-1.0,2366
402,2135402,17076,-164,924,17101.77,24.67,-1.00,-1.0,2364
407,2135407,16900,-232,1008,16931.62,24.67,-1.00,-1.0,2446
410,2135410,16932,-172,1020,16963.57,24.67,-1.00,-1.0,2378
413,2135413,17020,-120,940,17046.36,24.67,-1.00,-1.0,2450
415,2135415,16976,-108,1032,17007.68,24.58,-1.00,-1.0,2367
418,2135418,17040,-140,936,17066.26,24.58,-1.00,-1.0,2454
421,2135421,16984,-164,1136,17022.74,24.58,-1.00,-1.0,2377
424,2135424,16944,-200,1032,16976.58,24.58,-1.00,-1.0,2450
426,2135426,16984,-248,1092,17020.88,24.67,-1.00,-1.0,2369
431,2135431,16976,-120,1096,17011.77,24.58,-1.00,-1.0,2461
434,2135434,17012,-128,984,17040.91,24.58,-1.00,-1.0,2369
436,2135436,17028,-200,1064,17062.38,24.62,-1.00,-1.0,2352
439,2135439,16988,-320,1200,17033.34,24.62,-1.00,-1.0,2437
442,2135442,16968,-204,1108,17005.36,24.67,-1.00,-1.0,2371
445,2135445,16872,-252,1052,16906.64,24.62,-1.00,-1.0,2437
447,2135447,17004,-188,972,17032.80,24.58,-1.00,-1.0,2374
450,2135450,16908,-184,1132,16946.85,24.53,-1.00,-1.0,2438
453,2135453,16904,-144,1004,16934.40,24.53,-1.00,-1.0,2367
458,2135458,16976,-4,972,17003.80,24.62,-1.00,-1.0,2446
461,2135461,16884,-120,1128,16922.06,24.62,-1.00,-1.0,2366
463,2135463,17024,-120,1192,17066.10,24.62,-1.00,-1.0,2439
466,2135466,16956,-140,1108,16992.74,24.62,-1.00,-1.0,2367
469,2135469,17008,-164,1168,17048.85,24.72,-1.00,-1.0,2438
472,2135472,16960,-108,1104,16996.24,24.62,-1.00,-1.0,2369
474,2135474,17020,-36,1164,17059.79,24.62,-1.00,-1.0,2361
477,2135477,17052,-16,944,17078.12,24.67,-1.00,-1.0,2440
480,2135480,17000,-200,1024,17031.99,24.72,-1.00,-1.0,2367
485,2135485,17088,-108,1024,17118.99,24.62,-1.00,-1.0,2452
488,2135488,16976,-144,1200,17018.97,24.72,-1.00,-1.0,2370
491,2135491,17052,-104,996,17081.38,24.72,-1.00,-1.0,2436
493,2135493,17028,-40,1004,17057.62,24.62,-1.00,-1.0,2374
496,2135496,17000,-64,1000,17029.51,24.72,-1.00,-1.0,2439
499,2135499,16956,-28,1068,16989.62,24.67,-1.00,-1.0,2367
502,2135502,17020,-36,1024,17050.81,24.67,-1.00,-1.0,2468
504,2135504,17028,-64,1304,17077.98,24.58,-1.00,-1.0,2365
507,2135507,16980,-40,1096,17015.38,24.67,-1.00,-1.0,2362
512,2135512,17012,84,1088,17046.96,24.67,-1.00,-1.0,2447
515,2135515,17032,-28,1040,17063.75,24.62,-1.00,-1.0,2365
518,2135518,17016,-24,1196,17058.00,24.67,-1.00,-1.0,2444
520,2135520,17212,-72,1100,17247.26,24.72,-1.00,-1.0,2367
523,2135523,17060,-76,1156,17099.29,24.67,-1.00,-1.0,2425
526,2135526,17032,-92,1152,17071.16,24.72,-1.00,-1.0,2366
529,2135529,17016,-104,1176,17056.91,24.67,-1.00,-1.0,2431
531,2135531,17016,32,1132,17053.64,24.72,-1.00,-1.0,2374
536,2135536,17056,-108,992,17085.16,24.72,-1.00,-1.0,2458
539,2135539,17020,-32,1164,17059.79,24.62,-1.00,-1.0,2381
542,2135542,17040,-20,1260,17086.53,24.62,-1.00,-1.0,2361
544,2135544,16932,-64,1056,16965.02,24.67,-1.00,-1.0,2439
547,2135547,16948,-20,1076,16982.13,24.62,-1.00,-1.0,2366
550,2135550,16924,-36,1176,16964.85,24.58,-1.00,-1.0,2437
553,2135553,17004,-108,1280,17052.45,24.53,-1.00,-1.0,2365
555,2135555,16984,-4,1172,17024.39,24.67,-1.00,-1.0,2439
558,2135558,16964,-88,1320,17015.51,24.62,-1.00,-1.0,2366
563,2135563,16984,-116,1272,17031.96,24.67,-1.00,-1.0,2448
566,2135566,17044,4,1200,17086.19,24.77,-1.00,-1.0,2365
568,2135568,17068,-120,1156,17107.52,24.72,-1.00,-1.0,2361
571,2135571,17004,-116,1152,17043.37,24.72,-1.00,-1.0,2451
574,2135574,17116,-52,1372,17170.98,24.72,-1.00,-1.0,2366
577,2135577,17020,-8,1168,17060.03,24.72,-1.00,-1.0,2444
579,2135579,16940,-84,1372,16995.68,24.72,-1.00,-1.0,2366
582,2135582,17084,36,1144,17122.30,24.67,-1.00,-1.0,2447
585,2135585,17032,12,1216,17075.36,24.53,-1.00,-1.0,2371
590,2135590,17104,20,1164,17143.57,24.62,-1.00,-1.0,2446
593,2135593,17056,24,1184,17097.06,24.62,-1.00,-1.0,2365
596,2135596,17024,160,1048,17056.98,24.53,-1.00,-1.0,2447
598,2135598,17088,112,1296,17137.44,24.58,-1.00,-1.0,2353
601,2135601,17040,116,1100,17075.86,24.72,-1.00,-1.0,2370
604,2135604,17004,224,1172,17045.81,24.62,-1.00,-1.0,2445
607,2135607,17044,24,1004,17073.56,24.62,-1.00,-1.0,2366
609,2135609,16948,84,1104,16984.13,24.58,-1.00,-1.0,2441
612,2135612,16932,36,1064,16965.44,24.67,-1.00,-1.0,2375
617,2135617,17092,172,1060,17125.70,24.62,-1.00,-1.0,2445
620,2135620,16984,80,1040,17016.00,24.62,-1.00,-1.0,2365
623,2135623,17016,140,1212,17059.68,24.62,-1.00,-1.0,2445
625,2135625,17020,184,1124,17058.07,24.62,-1.00,-1.0,2365
628,2135628,17016,96,1016,17046.58,24.67,-1.00,-1.0,2376
631,2135631,17000,120,1156,17039.68,24.67,-1.00,-1.0,2440
634,2135634,17044,204,1028,17076.19,24.58,-1.00,-1.0,2379
636,2135636,17000,132,1076,17034.53,24.58,-1.00,-1.0,2439
639,2135639,17068,172,1152,17107.70,24.67,-1.00,-1.0,2373
644,2135644,17036,128,1044,17068.44,24.62,-1.00,-1.0,2446
647,2135647,17064,148,1112,17100.83,24.67,-1.00,-1.0,2367
650,2135650,17040,132,1128,17077.80,24.67,-1.00,-1.0,2435
652,2135652,17040,160,980,17068.91,24.58,-1.00,-1.0,2369
655,2135655,16976,144,948,17003.06,24.62,-1.00,-1.0,2439
658,2135658,17048,120,1216,17091.73,24.58,-1.00,-1.0,2367
660,2135660,17044,20,1104,17079.73,24.53,-1.00,-1.0,2360
663,2135663,17044,100,1132,17081.84,24.62,-1.00,-1.0,2439
666,2135666,16980,0,964,17007.34,24.58,-1.00,-1.0,2369
671,2135671,17000,28,1148,17038.74,24.62,-1.00,-1.0,2446
674,2135674,17016,-8,1240,17061.12,24.58,-1.00,-1.0,2370
677,2135677,17064,4,1164,17103.65,24.67,-1.00,-1.0,2437
679,2135679,17016,52,1288,17064.76,24.58,-1.00,-1.0,2373
682,2135682,17060,52,1156,17099.20,24.72,-1.00,-1.0,2439
685,2135685,17044,104,1312,17094.74,24.67,-1.00,-1.0,2367
687,2135687,17088,108,1144,17126.59,24.72,-1.00,-1.0,2361
690,2135690,16992,96,1292,17041.32,24.62,-1.00,-1.0,2438
693,2135693,17084,116,1224,17128.18,24.62,-1.00,-1.0,2366
698,2135698,16912,164,1308,16963.30,24.62,-1.00,-1.0,2454
701,2135701,17068,20,1228,17112.13,24.67,-1.00,-1.0,2368
704,2135704,17012,104,1344,17065.32,24.53,-1.00,-1.0,2438
707,2135707,17056,48,1252,17101.96,24.67,-1.00,-1.0,2364
709,2135709,16968,48,1276,17015.98,24.62,-1.00,-1.0,2440
712,2135712,17044,44,1308,17094.17,24.58,-1.00,-1.0,2373
715,2135715,16960,92,1312,17010.92,24.53,-1.00,-1.0,2360
717,2135717,17064,176,1216,17108.18,24.58,-1.00,-1.0,2438
720,2135720,17112,60,1296,17161.11,24.62,-1.00,-1.0,2367
726,2135726,17000,84,1460,17062.79,24.77,-1.00,-1.0,2448
728,2135728,16940,132,1288,16989.41,24.67,-1.00,-1.0,2376
731,2135731,17020,36,1336,17072.39,24.62,-1.00,-1.0,2447
734,2135734,16928,148,1408,16987.10,24.67,-1.00,-1.0,2369
737,2135737,16956,184,1252,17003.16,24.67,-1.00,-1.0,2450
739,2135739,16948,148,1120,16985.61,24.67,-1.00,-1.0,2375
742,2135742,17052,96,1236,17097.01,24.62,-1.00,-1.0,2446
745,2135745,16928,84,1212,16971.54,24.67,-1.00,-1.0,2369
747,2135747,17032,136,1276,17080.27,24.67,-1.00,-1.0,2362
752,2135752,16996,144,1272,17044.14,24.62,-1.00,-1.0,2435
755,2135755,17108,72,1340,17160.55,24.72,-1.00,-1.0,2369
758,2135758,17068,168,1140,17106.85,24.62,-1.00,-1.0,2438
761,2135761,17060,84,1132,17097.72,24.67,-1.00,-1.0,2365
763,2135763,17032,140,1252,17078.53,24.62,-1.00,-1.0,2441
766,2135766,17004,136,1260,17051.16,24.62,-1.00,-1.0,2382
769,2135769,16968,144,1244,17014.15,24.53,-1.00,-1.0,2439
772,2135772,17048,144,1192,17090.23,24.67,-1.00,-1.0,2375
774,2135774,17012,232,1180,17054.45,24.67,-1.00,-1.0,2361
779,2135779,17120,144,1096,17155.65,24.58,-1.00,-1.0,2447
782,2135782,17016,160,1192,17058.45,24.62,-1.00,-1.0,2366
785,2135785,17064,172,1232,17109.28,24.58,-1.00,-1.0,2438
788,2135788,17048,160,1096,17083.94,24.62,-1.00,-1.0,2365
790,2135790,17040,224,1312,17091.90,24.67,-1.00,-1.0,2438
793,2135793,17084,172,1260,17131.27,24.62,-1.00,-1.0,2366
796,2135796,17068,120,1236,17113.12,24.67,-1.00,-1.0,2438
799,2135799,16932,144,1084,16967.28,24.62,-1.00,-1.0,2368
804,2135804,17052,252,1208,17096.59,24.67,-1.00,-1.0,2448
806,2135806,17020,172,1192,17062.56,24.72,-1.00,-1.0,2372
809,2135809,17048,160,1252,17094.66,24.53,-1.00,-1.0,2364
812,2135812,17072,124,1324,17123.71,24.67,-1.00,-1.0,2437
814,2135814,17036,236,1268,17084.75,24.62,-1.00,-1.0,2374
817,2135817,17016,72,1172,17056.46,24.67,-1.00,-1.0,2439
820,2135820,16988,124,1208,17031.35,24.72,-1.00,-1.0,2366
823,2135823,17088,220,1232,17133.77,24.58,-1.00,-1.0,2447
826,2135826,16940,224,1216,16985.06,24.58,-1.00,-1.0,2366
830,2135830,17120,140,1160,17159.82,24.67,-1.00,-1.0,2446
833,2135833,17052,152,1356,17106.51,24.67,-1.00,-1.0,2365
836,2135836,16948,144,1180,16989.64,24.62,-1.00,-1.0,2439
839,2135839,17104,88,1208,17146.83,24.67,-1.00,-1.0,2367
841,2135841,16924,136,1208,16967.60,24.72,-1.00,-1.0,2365
844,2135844,16988,228,1260,17036.19,24.53,-1.00,-1.0,2452
847,2135847,17044,188,1248,17090.66,24.62,-1.00,-1.0,2361
850,2135850,17040,92,1380,17096.04,24.58,-1.00,-1.0,2445
853,2135853,16984,0,1252,17030.08,24.62,-1.00,-1.0,2374
857,2135857,16984,40,1168,17024.16,24.67,-1.00,-1.0,2454
860,2135860,17052,-8,1164,17091.68,24.67,-1.00,-1.0,2374
863,2135863,16980,72,1160,17019.73,24.67,-1.00,-1.0,2440
866,2135866,16988,108,1080,17022.64,24.62,-1.00,-1.0,2372
868,2135868,17044,28,1024,17074.76,24.58,-1.00,-1.0,2360
871,2135871,16940,168,1296,16990.33,24.67,-1.00,-1.0,2438
874,2135874,17128,96,1140,17166.16,24.67,-1.00,-1.0,2366
877,2135877,17000,0,1216,17043.43,24.58,-1.00,-1.0,2446
880,2135880,17032,-32,1256,17078.28,24.67,-1.00,-1.0,2372
884,2135884,17084,12,1108,17119.90,24.77,-1.00,-1.0,2454
887,2135887,16964,40,1048,16996.39,24.58,-1.00,-1.0,2373
890,2135890,17024,56,1076,17058.06,24.77,-1.00,-1.0,2439
893,2135893,16948,24,1132,16985.78,24.58,-1.00,-1.0,2372
895,2135895,16972,-16,1112,17008.40,24.67,-1.00,-1.0,2361
898,2135898,16984,-16,1024,17014.85,24.53,-1.00,-1.0,2438
901,2135901,16904,68,1096,16939.63,24.58,-1.00,-1.0,2366
904,2135904,16980,48,936,17005.85,24.67,-1.00,-1.0,2438
907,2135907,17012,-28,1036,17043.54,24.67,-1.00,-1.0,2366
912,2135912,17064,0,1056,17096.64,24.67,-1.00,-1.0,2449
914,2135914,17044,-64,936,17069.80,24.67,-1.00,-1.0,2373
917,2135917,17016,-12,1196,17057.98,24.67,-1.00,-1.0,2449
920,2135920,17080,-32,1196,17121.85,24.58,-1.00,-1.0,2373
923,2135923,16992,-52,1044,17024.12,24.67,-1.00,-1.0,2445
925,2135925,17016,52,1136,17053.96,24.67,-1.00,-1.0,2370
928,2135928,16984,104,1144,17022.80,24.67,-1.00,-1.0,2364
931,2135931,17064,8,1132,17101.51,24.72,-1.00,-1.0,2432
934,2135934,16988,-40,1000,17017.45,24.67,-1.00,-1.0,2366
939,2135939,16988,-100,1144,17026.77,24.67,-1.00,-1.0,2448
941,2135941,17040,-68,1052,17072.58,24.67,-1.00,-1.0,2375
944,2135944,16952,-36,1180,16993.06,24.67,-1.00,-1.0,2445
947,2135947,16864,-48,1116,16900.96,24.58,-1.00,-1.0,2368
950,2135950,16992,0,1228,17036.32,24.58,-1.00,-1.0,2447
952,2135952,17032,-100,1108,17068.29,24.58,-1.00,-1.0,2375
955,2135955,17008,-64,1132,17045.75,24.72,-1.00,-1.0,2363
958,2135958,17132,-112,1124,17169.20,24.53,-1.00,-1.0,2444
961,2135961,16956,-60,1244,17001.68,24.62,-1.00,-1.0,2367
966,2135966,17012,-144,1312,17063.12,24.62,-1.00,-1.0,2447
968,2135968,17004,-116,1260,17051.01,24.72,-1.00,-1.0,2422
971,2135971,16968,-248,1144,17008.33,24.67,-1.00,-1.0,2443
974,2135974,17056,-68,1344,17109.01,24.67,-1.00,-1.0,2390
977,2135977,17052,-172,1200,17095.04,24.72,-1.00,-1.0,2429
980,2135980,17028,-104,1284,17076.66,24.67,-1.00,-1.0,2379
982,2135982,17028,-112,1144,17066.75,24.67,-1.00,-1.0,2435
985,2135985,17024,-148,1084,17059.12,24.77,-1.00,-1.0,2389
990,2135990,17072,-200,1204,17115.57,24.58,-1.00,-1.0,2437
993,2135993,17016,-128,1084,17050.97,24.58,-1.00,-1.0,2375
995,2135995,16992,-208,1092,17028.32,24.77,-1.00,-1.0,2370
998,2135998,16972,-204,1236,17018.17,24.53,-1.00,-1.0,2443
1001,2136001,16964,-116,1120,17001.33,24.58,-1.00,-1.0,2371
1004,2136004,17104,-136,1092,17139.36,24.53,-1.00,-1.0,2443
1006,2136006,17032,-108,1248,17078.00,24.58,-1.00,-1.0,2378
1009,2136009,17072,-104,988,17100.88,24.62,-1.00,-1.0,2441
1012,2136012,16972,-292,1156,17013.83,24.67,-1.00,-1.0,2376
1017,2136017,17064,-248,1152,17104.64,24.67,-1.00,-1.0,2444
1019,2136019,17060,-204,1260,17107.68,24.67,-1.00,-1.0,2367
1022,2136022,16908,-48,1208,16951.17,24.67,-1.00,-1.0,2455
1025,2136025,16948,-88,1172,16988.70,24.77,-1.00,-1.0,2368
1028,2136028,17044,-88,1080,17078.41,24.67,-1.00,-1.0,2440
1030,2136030,16988,-200,1132,17026.85,24.67,-1.00,-1.0,2367
1033,2136033,16984,-88,1076,17018.28,24.62,-1.00,-1.0,2376
1036,2136036,16988,-8,1152,17027.02,24.53,-1.00,-1.0,2434
1039,2136039,16992,-104,1100,17027.88,24.77,-1.00,-1.0,2370
1044,2136044,17032,-56,968,17059.58,24.67,-1.00,-1.0,2445
1046,2136046,17012,-100,980,17040.50,24.62,-1.00,-1.0,2367
1049,2136049,16924,-88,952,16950.98,24.67,-1.00,-1.0,2438
1052,2136052,16904,-108,928,16929.80,24.62,-1.00,-1.0,2356
1055,2136055,17084,-100,972,17111.92,24.67,-1.00,-1.0,2440
1057,2136057,17024,-12,988,17052.65,24.72,-1.00,-1.0,2370
1060,2136060,16956,-48,1052,16988.67,24.67,-1.00,-1.0,2435
1063,2136063,16976,-68,1044,17008.21,24.62,-1.00,-1.0,2372
1068,2136068,16964,-124,980,16992.74,24.58,-1.00,-1.0,2438
1070,2136070,16948,-172,1024,16979.78,24.62,-1.00,-1.0,2370
1073,2136073,16960,-124,1060,16993.54,24.67,-1.00,-1.0,2362
1076,2136076,16960,-176,1128,16998.38,24.72,-1.00,-1.0,2447
1078,2136078,17040,-96,992,17069.12,24.67,-1.00,-1.0,2369
1081,2136081,16976,-76,1100,17011.77,24.58,-1.00,-1.0,2438
1084,2136084,16896,-104,980,16924.72,24.58,-1.00,-1.0,2368
1087,2136087,17024,-44,940,17049.99,24.72,-1.00,-1.0,2424
1090,2136090,17064,-48,1040,17095.73,24.72,-1.00,-1.0,2375
1095,2136095,17036,-192,1052,17069.53,24.72,-1.00,-1.0,2446
1097,2136097,17000,-88,988,17028.91,24.62,-1.00,-1.0,2372
1100,2136100,17068,-112,1016,17098.58,24.62,-1.00,-1.0,2434
1103,2136103,16932,-128,1080,16966.89,24.62,-1.00,-1.0,2376
1106,2136106,16920,-108,856,16941.98,24.53,-1.00,-1.0,2442
1108,2136108,17008,-112,1060,17041.37,24.62,-1.00,-1.0,2376
1111,2136111,16984,-188,936,17010.81,24.67,-1.00,-1.0,2364
1114,2136114,17048,-108,1056,17081.02,24.58,-1.00,-1.0,2430
1117,2136117,16944,-188,956,16971.99,24.62,-1.00,-1.0,2357
1122,2136122,16976,-224,980,17005.74,24.72,-1.00,-1.0,2446
1124,2136124,17012,-164,1060,17045.78,24.62,-1.00,-1.0,2367
1127,2136127,17060,-204,1004,17090.73,24.62,-1.00,-1.0,2457
1130,2136130,16964,-188,1088,16999.89,24.62,-1.00,-1.0,2368
1133,2136133,16968,-104,1124,17005.51,24.72,-1.00,-1.0,2441
1135,2136135,16964,-240,976,16993.75,24.62,-1.00,-1.0,2367
1138,2136138,16928,-208,1100,16964.98,24.72,-1.00,-1.0,2453
1141,2136141,16972,-200,1060,17006.25,24.62,-1.00,-1.0,2369
1146,2136146,16976,-188,980,17005.30,24.67,-1.00,-1.0,2438
1149,2136149,16912,-176,1004,16942.69,24.67,-1.00,-1.0,2370
1152,2136152,16988,-188,992,17017.98,24.67,-1.00,-1.0,2437
1154,2136154,17020,-132,1080,17054.74,24.67,-1.00,-1.0,2371
1157,2136157,16988,-140,1024,17019.41,24.62,-1.00,-1.0,2362
1160,2136160,17080,-240,1048,17113.80,24.72,-1.00,-1.0,2441
1162,2136162,17052,-260,1036,17085.42,24.58,-1.00,-1.0,2367
1165,2136165,16944,-240,1020,16976.37,24.72,-1.00,-1.0,2435
1168,2136168,16988,-176,1008,17018.79,24.67,-1.00,-1.0,2369
1173,2136173,16980,-192,1156,17020.39,24.58,-1.00,-1.0,2437
1176,2136176,17096,-244,1016,17127.90,24.67,-1.00,-1.0,2381
1178,2136178,16996,-100,1232,17040.89,24.77,-1.00,-1.0,2428
1181,2136181,16948,-120,1036,16980.06,24.58,-1.00,-1.0,2383
1184,2136184,17048,-284,1136,17088.17,24.67,-1.00,-1.0,2438
1187,2136187,16968,-284,1184,17011.63,24.67,-1.00,-1.0,2374
1189,2136189,16980,-244,1072,17015.55,24.67,-1.00,-1.0,2439
1192,2136192,16896,-440,1016,16932.24,24.67,-1.00,-1.0,2383
1197,2136197,17004,-264,1080,17040.31,24.72,-1.00,-1.0,2437
1200,2136200,17052,-296,1036,17086.01,24.72,-1.00,-1.0,2376
1203,2136203,16988,-220,1072,17023.21,24.58,-1.00,-1.0,2440
1205,2136205,17012,-220,1012,17043.49,24.62,-1.00,-1.0,2369
1208,2136208,17000,-204,1044,17033.25,24.58,-1.00,-1.0,2365
1211,2136211,16964,-228,1024,16996.41,24.58,-1.00,-1.0,2445
1213,2136213,16984,-264,960,17013.16,24.77,-1.00,-1.0,2374
1216,2136216,17016,-276,1176,17058.82,24.67,-1.00,-1.0,2444
1219,2136219,16976,-356,1048,17012.04,24.72,-1.00,-1.0,2368
1224,2136224,16964,-256,1056,16998.76,24.58,-1.00,-1.0,2441
1227,2136227,16956,-236,968,16985.25,24.67,-1.00,-1.0,2378
1229,2136229,16900,-160,1128,16938.36,24.72,-1.00,-1.0,2440
1232,2136232,17012,-180,1140,17051.10,24.67,-1.00,-1.0,2370
1235,2136235,16988,-296,1060,17023.61,24.62,-1.00,-1.0,2437
1238,2136238,16880,-220,1096,16916.97,24.58,-1.00,-1.0,2374
1240,2136240,17000,-120,1076,17034.44,24.72,-1.00,-1.0,2436
1243,2136243,16948,-188,1100,16984.70,24.58,-1.00,-1.0,2375
1248,2136248,16988,-96,1120,17025.15,24.58,-1.00,-1.0,2439
1251,2136251,16968,-272,1044,17002.26,24.67,-1.00,-1.0,2377
1253,2136253,17036,-132,1052,17068.96,24.67,-1.00,-1.0,2370
1256,2136256,16956,-124,1212,16999.71,24.67,-1.00,-1.0,2445
1259,2136259,16884,-156,996,16914.07,24.67,-1.00,-1.0,2356
1262,2136262,16932,-304,1124,16971.99,24.62,-1.00,-1.0,2446
1264,2136264,17008,-132,1108,17044.56,24.67,-1.00,-1.0,2379
1267,2136267,16956,-200,1096,16992.56,24.58,-1.00,-1.0,2443
1270,2136270,17024,-124,1192,17066.13,24.67,-1.00,-1.0,2368
1275,2136275,16980,-204,1120,17018.12,24.67,-1.00,-1.0,2448
1277,2136277,17048,-212,1092,17084.25,24.58,-1.00,-1.0,2367
1280,2136280,17028,-208,1132,17066.85,24.58,-1.00,-1.0,2447
1283,2136283,16968,-148,1220,17012.45,24.67,-1.00,-1.0,2368
1286,2136286,16968,-40,1128,17005.50,24.67,-1.00,-1.0,2440
1288,2136288,16964,-80,1112,17000.60,24.67,-1.00,-1.0,2368
1291,2136291,16996,-184,1208,17039.87,24.67,-1.00,-1.0,2435
1294,2136294,17000,-72,1120,17037.01,24.58,-1.00,-1.0,2369
1297,2136297,17072,-152,1108,17108.59,24.67,-1.00,-1.0,2363
1302,2136302,16964,-124,1136,17002.45,24.67,-1.00,-1.0,2440
1304,2136304,16980,-196,1164,17020.98,24.58,-1.00,-1.0,2368
1307,2136307,16972,-172,952,16999.55,24.77,-1.00,-1.0,2439
1310,2136310,16996,-220,1148,17036.15,24.58,-1.00,-1.0,2368
1313,2136313,17040,-224,1144,17079.83,24.58,-1.00,-1.0,2437
1315,2136315,16976,-44,1152,17015.10,24.58,-1.00,-1.0,2368
1318,2136318,17060,-160,984,17089.10,24.67,-1.00,-1.0,2437
1321,2136321,16952,-232,1200,16996.00,24.67,-1.00,-1.0,2376
1326,2136326,17000,-180,992,17029.87,24.58,-1.00,-1.0,2440
1329,2136329,17016,-104,976,17044.29,24.67,-1.00,-1.0,2369
1332,2136332,17060,-128,1156,17099.60,24.58,-1.00,-1.0,2437
1334,2136334,17004,-92,1136,17042.15,24.67,-1.00,-1.0,2368
1337,2136337,16932,-112,1192,16974.28,24.72,-1.00,-1.0,2371
1340,2136340,16964,-96,1028,16995.39,24.62,-1.00,-1.0,2449
1342,2136342,16992,-68,1200,17034.46,24.62,-1.00,-1.0,2371
1345,2136345,16996,-48,1116,17032.67,24.72,-1.00,-1.0,2442
1348,2136348,16988,-48,1008,17017.95,24.72,-1.00,-1.0,2383
1353,2136353,17016,-76,1200,17058.43,24.58,-1.00,-1.0,2440
1356,2136356,17024,24,956,17050.84,24.67,-1.00,-1.0,2377
1359,2136359,17040,-24,1108,17076.00,24.62,-1.00,-1.0,2437
1361,2136361,17060,-28,1088,17094.68,24.77,-1.00,-1.0,2367
1364,2136364,16932,136,1232,16977.31,24.67,-1.00,-1.0,2434
1367,2136367,17044,16,1108,17079.98,24.67,-1.00,-1.0,2377
1370,2136370,16992,80,1212,17035.36,24.72,-1.00,-1.0,2435
1372,2136372,17064,24,1316,17114.69,24.67,-1.00,-1.0,2368
1375,2136375,16968,36,1120,17004.96,24.53,-1.00,-1.0,2368
1380,2136380,16968,4,1112,17004.40,24.62,-1.00,-1.0,2440
1383,2136383,16996,-28,1224,17040.04,24.62,-1.00,-1.0,2376
1386,2136386,17012,-28,1028,17043.05,24.72,-1.00,-1.0,2438
1388,2136388,17012,160,1164,17052.53,24.62,-1.00,-1.0,2370
1391,2136391,16972,36,1252,17018.15,24.62,-1.00,-1.0,2442
1394,2136394,17036,-12,1124,17073.04,24.62,-1.00,-1.0,2376
1397,2136397,17104,72,1208,17146.76,24.53,-1.00,-1.0,2433
1399,2136399,16964,80,1316,17015.16,24.62,-1.00,-1.0,2368
1404,2136404,17044,16,1112,17080.24,24.77,-1.00,-1.0,2440
1407,2136407,17052,16,1220,17095.60,24.67,-1.00,-1.0,2357
1409,2136409,17036,8,1296,17085.23,24.67,-1.00,-1.0,2349
1412,2136412,17052,60,1184,17093.16,24.62,-1.00,-1.0,2439
1415,2136415,17016,76,1084,17050.66,24.67,-1.00,-1.0,2369
1418,2136418,17028,36,1264,17074.89,24.62,-1.00,-1.0,2440
1420,2136420,17060,24,1168,17099.95,24.58,-1.00,-1.0,2368
1423,2136423,17036,40,1268,17083.17,24.72,-1.00,-1.0,2436
1426,2136426,17060,64,1116,17096.58,24.67,-1.00,-1.0,2368
1431,2136431,17052,56,1112,17088.31,24.67,-1.00,-1.0,2446
1434,2136434,16872,32,1208,16915.22,24.58,-1.00,-1.0,2375
1437,2136437,17104,-16,1196,17145.77,24.67,-1.00,-1.0,2450
1439,2136439,17136,28,1108,17171.81,24.58,-1.00,-1.0,2376
1442,2136442,17012,80,1236,17057.03,24.67,-1.00,-1.0,2362
1445,2136445,17108,0,1236,17152.59,24.72,-1.00,-1.0,2430
1447,2136447,16984,0,1000,17013.41,24.67,-1.00,-1.0,2369
1450,2136450,16980,20,1060,17013.07,24.62,-1.00,-1.0,2435
1453,2136453,16868,-28,1144,16906.77,24.67,-1.00,-1.0,2369
1458,2136458,17052,-48,1112,17088.29,24.67,-1.00,-1.0,2447
1461,2136461,17008,8,1128,17045.37,24.58,-1.00,-1.0,2371
1464,2136464,16976,-24,972,17003.82,24.67,-1.00,-1.0,2449
1466,2136466,17004,-20,1140,17042.18,24.58,-1.00,-1.0,2376
1469,2136469,16992,44,1172,17032.43,24.67,-1.00,-1.0,2434
1472,2136472,16944,-12,1192,16985.88,24.67,-1.00,-1.0,2368
1474,2136474,16984,-124,1288,17033.22,24.62,-1.00,-1.0,2361
1477,2136477,17148,0,1104,17183.50,24.62,-1.00,-1.0,2437
1480,2136480,17000,-28,1244,17045.48,24.62,-1.00,-1.0,2368
1485,2136485,16956,-76,1168,16996.35,24.72,-1.00,-1.0,2437
1488,2136488,17092,-24,1044,17123.87,24.62,-1.00,-1.0,2367
1491,2136491,16972,-112,1148,17011.15,24.67,-1.00,-1.0,2439
1493,2136493,16992,-72,1192,17033.91,24.62,-1.00,-1.0,2369
1496,2136496,17028,-36,1232,17072.55,24.72,-1.00,-1.0,2433
1499,2136499,17040,-84,1176,17080.74,24.62,-1.00,-1.0,2368
1501,2136501,17024,72,1052,17056.62,24.62,-1.00,-1.0,2436
1504,2136504,17008,80,1076,17042.19,24.58,-1.00,-1.0,2442
1507,2136507,17052,-72,1260,17098.64,24.62,-1.00,-1.0,2363
1512,2136512,17112,60,1080,17146.15,24.67,-1.00,-1.0,2443
1515,2136515,17084,80,1252,17130.00,24.62,-1.00,-1.0,2374
1518,2136518,17104,88,1136,17141.91,24.67,-1.00,-1.0,2436
1520,2136520,16940,-36,1040,16971.93,24.72,-1.00,-1.0,2369
1523,2136523,17068,56,1192,17109.66,24.67,-1.00,-1.0,2433
1526,2136526,16924,48,1212,16967.41,24.62,-1.00,-1.0,2367
1529,2136529,17048,56,1124,17085.11,24.67,-1.00,-1.0,2436
1531,2136531,17008,168,1244,17054.26,24.67,-1.00,-1.0,2368
1536,2136536,16928,28,1144,16966.63,24.67,-1.00,-1.0,2444
1539,2136539,16948,80,1180,16989.22,24.62,-1.00,-1.0,2370
1542,2136542,17012,120,1172,17052.75,24.67,-1.00,-1.0,2442
1544,2136544,16968,48,1216,17011.58,24.72,-1.00,-1.0,2369
1547,2136547,16860,76,1368,16915.58,24.67,-1.00,-1.0,2362
1550,2136550,17060,48,1124,17097.05,24.67,-1.00,-1.0,2439
1552,2136552,17076,64,1120,17112.81,24.67,-1.00,-1.0,2368
1555,2136555,17096,48,1204,17138.41,24.72,-1.00,-1.0,2447
1558,2136558,17040,144,1268,17087.72,24.67,-1.00,-1.0,2372
1563,2136563,17056,208,1144,17095.59,24.72,-1.00,-1.0,2442
1566,2136566,17032,72,1260,17078.70,24.62,-1.00,-1.0,2369
1569,2136569,17064,144,1348,17117.77,24.58,-1.00,-1.0,2434
1572,2136572,17048,100,1264,17095.09,24.62,-1.00,-1.0,2368
1574,2136574,17064,176,1348,17118.07,24.67,-1.00,-1.0,2433
1577,2136577,17052,228,1260,17100.01,24.62,-1.00,-1.0,2369
1580,2136580,17060,144,1232,17105.03,24.67,-1.00,-1.0,2361
1582,2136582,17036,196,1204,17079.62,24.67,-1.00,-1.0,2435
1585,2136585,17000,204,1156,17040.48,24.72,-1.00,-1.0,2375
1590,2136590,17040,220,1244,17086.77,24.67,-1.00,-1.0,2443
1593,2136593,16996,176,1188,17038.38,24.67,-1.00,-1.0,2368
1596,2136596,17104,200,1200,17147.21,24.58,-1.00,-1.0,2443
1598,2136598,17000,168,1148,17039.55,24.67,-1.00,-1.0,2369
1601,2136601,17176,200,1152,17215.75,24.67,-1.00,-1.0,2435
1604,2136604,17008,288,1200,17052.71,24.67,-1.00,-1.0,2369
1607,2136607,17064,136,968,17091.97,24.58,-1.00,-1.0,2441
1609,2136609,17072,300,1176,17115.09,24.67,-1.00,-1.0,2370
1614,2136614,17104,136,1264,17151.18,24.67,-1.00,-1.0,2443
1617,2136617,17064,244,1328,17117.34,24.62,-1.00,-1.0,2371
1620,2136620,17052,196,1284,17101.40,24.67,-1.00,-1.0,2362
1622,2136622,17008,56,1240,17053.23,24.58,-1.00,-1.0,2437
1625,2136625,17072,272,1216,17117.41,24.67,-1.00,-1.0,2370
1628,2136628,17008,144,1188,17050.05,24.67,-1.00,-1.0,2432
1631,2136631,17032,224,1236,17078.26,24.77,-1.00,-1.0,2368
1633,2136633,16968,236,1276,17017.55,24.67,-1.00,-1.0,2422
1636,2136636,17032,232,1228,17077.79,24.62,-1.00,-1.0,2378
1641,2136641,16976,220,1156,17016.74,24.62,-1.00,-1.0,2452
1644,2136644,17072,164,1172,17112.97,24.62,-1.00,-1.0,2375
1647,2136647,17100,180,1256,17147.01,24.62,-1.00,-1.0,2425
1650,2136650,16940,120,1260,16987.22,24.62,-1.00,-1.0,2369
1652,2136652,17052,144,1188,17093.94,24.72,-1.00,-1.0,2363
1655,2136655,17068,148,1148,17107.20,24.67,-1.00,-1.0,2432
1658,2136658,16948,120,1240,16993.72,24.62,-1.00,-1.0,2374
1660,2136660,17044,184,1252,17090.91,24.67,-1.00,-1.0,2435
1663,2136663,17120,172,1236,17165.42,24.67,-1.00,-1.0,2372
1668,2136668,17156,196,1284,17205.10,24.62,-1.00,-1.0,2454
1671,2136671,16992,12,1056,17024.79,24.62,-1.00,-1.0,2376
1674,2136674,17048,104,1304,17098.12,24.67,-1.00,-1.0,2420
1677,2136677,17020,56,1068,17053.57,24.72,-1.00,-1.0,2370
1679,2136679,17048,108,1156,17087.49,24.67,-1.00,-1.0,2445
1682,2136682,17016,128,1268,17063.66,24.72,-1.00,-1.0,2377
1685,2136685,16992,48,1240,17037.25,24.67,-1.00,-1.0,2437
1688,2136688,17124,60,1264,17170.69,24.62,-1.00,-1.0,2370
1690,2136690,16936,24,1104,16971.96,24.58,-1.00,-1.0,2364
1695,2136695,17056,156,1168,17096.66,24.62,-1.00,-1.0,2457
1698,2136698,17048,8,1236,17092.75,24.62,-1.00,-1.0,2368
1701,2136701,17008,44,1148,17046.76,24.62,-1.00,-1.0,2441
1703,2136703,17004,20,1224,17048.01,24.62,-1.00,-1.0,2355
1706,2136706,16912,48,1336,16964.76,24.62,-1.00,-1.0,2435
1709,2136709,17124,80,992,17152.90,24.62,-1.00,-1.0,2368
1712,2136712,17008,72,1260,17054.76,24.62,-1.00,-1.0,2442
1714,2136714,17096,72,1044,17128.00,24.72,-1.00,-1.0,2370
1719,2136719,16888,40,1156,16927.57,24.62,-1.00,-1.0,2446
1722,2136722,16992,-16,1136,17029.94,24.72,-1.00,-1.0,2368
1724,2136724,17020,-4,1220,17063.67,24.62,-1.00,-1.0,2361
1727,2136727,16932,-8,1316,16983.07,24.58,-1.00,-1.0,2448
1730,2136730,17072,-56,1156,17111.19,24.72,-1.00,-1.0,2369
1733,2136733,16992,-8,1020,17022.59,24.67,-1.00,-1.0,2441
1735,2136735,17052,0,1192,17093.61,24.62,-1.00,-1.0,2369
1739,2136739,16924,36,1104,16960.01,24.72,-1.00,-1.0,2435
1741,2136741,17060,24,1180,17100.78,24.62,-1.00,-1.0,2370
1746,2136746,16972,104,1100,17007.93,24.62,-1.00,-1.0,2442
1749,2136749,16940,-8,1092,16975.16,24.67,-1.00,-1.0,2368
1752,2136752,17088,28,1164,17127.62,24.72,-1.00,-1.0,2420
1755,2136755,16936,-64,1124,16973.38,24.67,-1.00,-1.0,2370
1757,2136757,16944,-20,1008,16973.97,24.72,-1.00,-1.0,2362
1760,2136760,16996,-12,1228,17040.31,24.72,-1.00,-1.0,2433
1763,2136763,17020,-20,1172,17060.32,24.67,-1.00,-1.0,2369
1766,2136766,17116,-116,1044,17148.20,24.77,-1.00,-1.0,2433
1768,2136768,17008,28,1160,17047.54,24.72,-1.00,-1.0,2368
1773,2136773,16992,120,1108,17028.51,24.72,-1.00,-1.0,2444
1776,2136776,17060,-60,1112,17096.31,24.72,-1.00,-1.0,2370
1779,2136779,17068,-88,932,17093.65,24.62,-1.00,-1.0,2435
1782,2136782,16988,-48,1020,17018.66,24.67,-1.00,-1.0,2368
1784,2136784,16928,80,1160,16967.89,24.72,-1.00,-1.0,2435
1787,2136787,17012,-28,904,17036.03,24.72,-1.00,-1.0,2370
1790,2136790,16932,-4,984,16960.57,24.72,-1.00,-1.0,2362
1793,2136793,16932,68,1208,16975.17,24.67,-1.00,-1.0,2437
1795,2136795,17020,12,1036,17051.51,24.67,-1.00,-1.0,2369
1800,2136800,17080,-60,1052,17112.47,24.62,-1.00,-1.0,2429
1803,2136803,16968,-60,1112,17004.50,24.72,-1.00,-1.0,2368
1806,2136806,16912,-24,1052,16944.71,24.67,-1.00,-1.0,2434
1809,2136809,16992,-56,1104,17027.92,24.72,-1.00,-1.0,2368
1811,2136811,17020,-92,992,17049.13,24.67,-1.00,-1.0,2433
1814,2136814,16896,-104,1156,16935.82,24.53,-1.00,-1.0,2368
1817,2136817,17112,-8,1032,17143.09,24.72,-1.00,-1.0,2434
1820,2136820,17052,-128,1028,17083.44,24.62,-1.00,-1.0,2368
1825,2136825,17088,-80,1016,17118.37,24.77,-1.00,-1.0,2449
1827,2136827,17012,-156,1076,17046.71,24.62,-1.00,-1.0,2379
1830,2136830,16964,-176,1080,16999.26,24.62,-1.00,-1.0,2361
1833,2136833,17012,-112,948,17038.76,24.67,-1.00,-1.0,2443
1835,2136835,17016,-132,1052,17049.00,24.62,-1.00,-1.0,2371
1838,2136838,16996,-16,1184,17037.20,24.67,-1.00,-1.0,2435
1841,2136841,17000,-40,1044,17032.07,24.72,-1.00,-1.0,2372
1844,2136844,16976,-164,1004,17006.46,24.67,-1.00,-1.0,2433
1847,2136847,16936,-88,1060,16969.37,24.58,-1.00,-1.0,2376
1852,2136852,16984,-180,1112,17021.32,24.67,-1.00,-1.0,2442
1854,2136854,16944,-148,1044,16976.78,24.67,-1.00,-1.0,2369
1857,2136857,16968,-152,1152,17007.74,24.62,-1.00,-1.0,2450
1860,2136860,17040,-100,1152,17079.19,24.67,-1.00,-1.0,2377
1863,2136863,17048,-148,1000,17077.95,24.67,-1.00,-1.0,2436
1865,2136865,17072,-124,1184,17113.46,24.58,-1.00,-1.0,2369
1868,2136868,16900,-240,1116,16938.51,24.62,-1.00,-1.0,2441
1871,2136871,16908,-60,1108,16944.37,24.67,-1.00,-1.0,2377
1874,2136874,17020,-100,1060,17053.27,24.72,-1.00,-1.0,2363
1879,2136879,16992,-252,1224,17037.89,24.67,-1.00,-1.0,2442
1881,2136881,17020,-172,1088,17055.61,24.58,-1.00,-1.0,2371
1884,2136884,16964,-240,1184,17006.96,24.62,-1.00,-1.0,2448
1887,2136887,16976,-100,1136,17014.26,24.72,-1.00,-1.0,2366
1890,2136890,17008,-348,1108,17047.61,24.67,-1.00,-1.0,2435
1892,2136892,17080,-200,1172,17121.33,24.58,-1.00,-1.0,2373
1895,2136895,16912,-232,1192,16955.54,24.62,-1.00,-1.0,2440
1898,2136898,17016,-184,1156,17056.21,24.58,-1.00,-1.0,2376
1903,2136903,16980,-112,1288,17029.15,24.53,-1.00,-1.0,2444
1905,2136905,17004,-208,1148,17043.98,24.62,-1.00,-1.0,2373
1908,2136908,17036,-268,1124,17075.14,24.62,-1.00,-1.0,2448
1911,2136911,17000,-104,1024,17031.13,24.72,-1.00,-1.0,2378
1914,2136914,16904,-124,1224,16948.71,24.62,-1.00,-1.0,2448
1916,2136916,16924,-112,984,16952.95,24.62,-1.00,-1.0,2371
1919,2136919,17032,-156,1016,17062.99,24.72,-1.00,-1.0,2362
1922,2136922,17024,-296,1096,17061.81,24.67,-1.00,-1.0,2433
1925,2136925,17024,-228,1012,17055.58,24.67,-1.00,-1.0,2368
1929,2136929,17020,-180,1160,17060.43,24.67,-1.00,-1.0,2442
1932,2136932,17008,-268,1140,17048.27,24.77,-1.00,-1.0,2368
1935,2136935,17100,-64,1096,17135.21,24.67,-1.00,-1.0,2420
1938,2136938,17004,-192,1188,17046.53,24.67,-1.00,-1.0,2366
1940,2136940,16992,-196,1076,17027.16,24.67,-1.00,-1.0,2435
1943,2136943,16936,-196,1120,16974.12,24.67,-1.00,-1.0,2371
1946,2136946,17028,-96,1192,17069.94,24.62,-1.00,-1.0,2464
1949,2136949,16932,-108,1004,16962.08,24.53,-1.00,-1.0,2372
1954,2136954,17148,-212,1084,17183.54,24.72,-1.00,-1.0,2455
1956,2136956,16880,-104,1076,16914.58,24.67,-1.00,-1.0,2364
1959,2136959,16980,-176,1040,17012.73,24.72,-1.00,-1.0,2439
1962,2136962,16952,-16,1096,16987.40,24.72,-1.00,-1.0,2366
1965,2136965,16884,-216,1204,16928.25,24.62,-1.00,-1.0,2362
1967,2136967,17032,-236,1160,17073.09,24.67,-1.00,-1.0,2452
1970,2136970,17016,-120,1116,17052.98,24.62,-1.00,-1.0,2366
1973,2136973,16980,-132,1044,17012.58,24.77,-1.00,-1.0,2448
1976,2136976,16992,-164,1236,17037.68,24.67,-1.00,-1.0,2365
1981,2136981,17104,-116,1040,17135.98,24.67,-1.00,-1.0,2437
1984,2136984,17012,-180,1140,17051.10,24.77,-1.00,-1.0,2371
1986,2136986,17024,-216,1116,17061.91,24.58,-1.00,-1.0,2447
1989,2136989,16932,-308,1032,16966.22,24.67,-1.00,-1.0,2379
1992,2136992,16944,-128,1104,16980.41,24.67,-1.00,-1.0,2440
1995,2136995,16956,-168,1096,16992.21,24.67,-1.00,-1.0,2373
1997,2136997,16948,-132,992,16977.52,24.67,-1.00,-1.0,2447
2000,2137000,17000,-236,1020,17032.21,24.67,-1.00,-1.0,2379
2005,2137005,17116,-172,972,17144.44,24.62,-1.00,-1.0,2447
2008,2137008,16992,-244,816,17013.33,24.62,-1.00,-1.0,2373
2010,2137010,17040,-80,1048,17072.38,24.67,-1.00,-1.0,2373
2013,2137013,17056,-204,1076,17091.12,24.67,-1.00,-1.0,2446
2016,2137016,17072,-164,884,17095.66,24.62,-1.00,-1.0,2429
2019,2137019,16932,-188,988,16961.84,24.67,-1.00,-1.0,2436
2022,2137022,17080,-132,936,17106.14,24.67,-1.00,-1.0,2375
2024,2137024,16888,-308,992,16919.91,24.77,-1.00,-1.0,2437
2027,2137027,16996,-172,1092,17031.91,24.67,-1.00,-1.0,2376
2032,2137032,17052,-124,1084,17086.87,24.62,-1.00,-1.0,2443
2035,2137035,16932,-224,1016,16963.93,24.62,-1.00,-1.0,2370
2037,2137037,16888,-108,964,16915.84,24.62,-1.00,-1.0,2434
2040,2137040,17036,-188,1024,17067.78,24.62,-1.00,-1.0,2371
2043,2137043,17048,-180,1032,17080.16,24.72,-1.00,-1.0,2432
2046,2137046,17032,-88,936,17057.93,24.62,-1.00,-1.0,2370
2048,2137048,17092,-36,1040,17123.65,24.62,-1.00,-1.0,2433
2051,2137051,16908,-228,1048,16941.98,24.62,-1.00,-1.0,2370
2054,2137054,17008,-248,980,17038.02,24.77,-1.00,-1.0,2365
2059,2137059,17032,-228,1032,17064.76,24.72,-1.00,-1.0,2448
2061,2137061,17084,-244,1036,17117.12,24.72,-1.00,-1.0,2371
2064,2137064,16968,-100,1168,17008.45,24.62,-1.00,-1.0,2433
2067,2137067,16964,-112,1064,16997.70,24.62,-1.00,-1.0,2370
2070,2137070,16976,-228,1048,17009.85,24.62,-1.00,-1.0,2442
2072,2137072,16980,-136,816,17000.14,24.72,-1.00,-1.0,2371
2075,2137075,16932,-228,1148,16972.40,24.62,-1.00,-1.0,2433
2078,2137078,16900,-124,1112,16937.00,24.72,-1.00,-1.0,2373
2083,2137083,16976,-92,1044,17008.32,24.72,-1.00,-1.0,2446
2086,2137086,16972,-200,956,17000.08,24.58,-1.00,-1.0,2379
2088,2137088,16956,-124,968,16984.06,24.67,-1.00,-1.0,2440
2091,2137091,16976,-156,1100,17012.32,24.58,-1.00,-1.0,2385
2094,2137094,16900,-212,1164,16941.37,24.53,-1.00,-1.0,2433
2097,2137097,17056,-248,1200,17099.96,24.67,-1.00,-1.0,2376
2099,2137099,17004,-212,1044,17037.34,24.62,-1.00,-1.0,2362
2102,2137102,16976,-272,1048,17010.49,24.62,-1.00,-1.0,2431
2105,2137105,17028,-200,1104,17064.92,24.62,-1.00,-1.0,2372
2110,2137110,16988,-184,1052,17021.54,24.62,-1.00,-1.0,2447
2112,2137112,17028,-92,1056,17060.96,24.67,-1.00,-1.0,2379
2115,2137115,16916,-176,1016,16947.40,24.62,-1.00,-1.0,2433
2118,2137118,16912,-144,1064,16946.05,24.72,-1.00,-1.0,2372
2121,2137121,16956,-176,1056,16989.76,24.62,-1.00,-1.0,2443
2123,2137123,16924,-60,1116,16960.86,24.67,-1.00,-1.0,2380
2126,2137126,16992,-140,1016,17022.92,24.62,-1.00,-1.0,2433
2129,2137129,16964,-72,1024,16995.03,24.62,-1.00,-1.0,2373
2134,2137134,17040,-264,1152,17080.94,24.62,-1.00,-1.0,2448
2136,2137136,17020,-56,1168,17060.12,24.62,-1.00,-1.0,2378
2139,2137139,17048,-132,1128,17085.79,24.72,-1.00,-1.0,2433
2142,2137142,16960,-176,1200,17003.31,24.72,-1.00,-1.0,2372
2144,2137144,17048,-144,1092,17083.54,24.67,-1.00,-1.0,2361
2147,2137147,16984,-140,1156,17023.87,24.77,-1.00,-1.0,2433
2150,2137150,16972,-108,1156,17011.67,24.62,-1.00,-1.0,2374
2153,2137153,17028,-88,1228,17072.45,24.67,-1.00,-1.0,2429
2156,2137156,16880,-44,1128,16917.71,24.72,-1.00,-1.0,2366
2161,2137161,17064,-92,1224,17108.09,24.72,-1.00,-1.0,2450
2164,2137164,17044,-128,1164,17084.18,24.62,-1.00,-1.0,2371
2166,2137166,16956,-132,1064,16989.86,24.62,-1.00,-1.0,2444
2169,2137169,17024,-120,1108,17060.44,24.81,-1.00,-1.0,2378
2172,2137172,17000,-92,1144,17038.70,24.72,-1.00,-1.0,2436
2175,2137175,17020,-84,1044,17052.20,24.62,-1.00,-1.0,2371
2177,2137177,17080,-40,1148,17118.58,24.62,-1.00,-1.0,2442
2180,2137180,17064,-36,1132,17101.54,24.62,-1.00,-1.0,2370
2183,2137183,16972,-20,1152,17011.06,24.77,-1.00,-1.0,2364
2188,2137188,17012,-120,972,17040.17,24.62,-1.00,-1.0,2445
2191,2137191,16980,-132,1108,17016.62,24.62,-1.00,-1.0,2375
2193,2137193,17128,-28,1128,17165.13,24.67,-1.00,-1.0,2436
2196,2137196,17016,-56,1116,17052.65,24.62,-1.00,-1.0,2384
2199,2137199,17008,-72,1260,17054.76,24.67,-1.00,-1.0,2433
2202,2137202,17104,-24,1124,17140.91,24.72,-1.00,-1.0,2379
2204,2137204,16920,-156,1140,16959.08,24.67,-1.00,-1.0,2442
2207,2137207,17044,4,968,17071.47,24.72,-1.00,-1.0,2385
2212,2137212,17012,-76,1224,17056.14,24.72,-1.00,-1.0,2442
2215,2137215,16904,-52,1172,16944.66,24.72,-1.00,-1.0,2373
2218,2137218,16996,-28,1208,17038.90,24.72,-1.00,-1.0,2432
2220,2137220,17024,-28,1128,17061.35,24.67,-1.00,-1.0,2370
2223,2137223,17056,-52,1196,17097.96,24.72,-1.00,-1.0,2369
2226,2137226,17008,36,1196,17050.04,24.67,-1.00,-1.0,2445
2228,2137228,16892,-20,1192,16934.02,24.72,-1.00,-1.0,2372
2231,2137231,16956,16,1048,16988.36,24.67,-1.00,-1.0,2427
2234,2137234,17076,100,1112,17112.46,24.67,-1.00,-1.0,2370
2239,2137239,17036,12,1168,17076.00,24.67,-1.00,-1.0,2442
2242,2137242,17016,-48,1236,17060.90,24.67,-1.00,-1.0,2371
2244,2137244,17032,-16,1140,17070.12,24.62,-1.00,-1.0,2432
2247,2137247,17056,-24,1212,17099.03,24.77,-1.00,-1.0,2369
2250,2137250,16952,60,1180,16993.12,24.77,-1.00,-1.0,2433
2253,2137253,16964,8,1224,17008.10,24.72,-1.00,-1.0,2434
2255,2137255,17080,-4,1080,17114.11,24.67,-1.00,-1.0,2364
2258,2137258,17024,-44,1256,17070.33,24.67,-1.00,-1.0,2416
2261,2137261,17028,36,1132,17065.62,24.62,-1.00,-1.0,2373
2266,2137266,17056,-40,1088,17090.71,24.72,-1.00,-1.0,2441
2269,2137269,16960,-28,1280,17008.26,24.67,-1.00,-1.0,2366
2271,2137271,17120,72,1148,17158.60,24.72,-1.00,-1.0,2435
2274,2137274,17028,84,1092,17063.19,24.67,-1.00,-1.0,2368
2277,2137277,16880,-12,1156,16919.54,24.62,-1.00,-1.0,2433
2280,2137280,17060,16,1176,17100.49,24.67,-1.00,-1.0,2367
2282,2137282,17004,8,1220,17047.71,24.62,-1.00,-1.0,2435
2285,2137285,16892,8,1112,16928.56,24.67,-1.00,-1.0,2368
2288,2137288,17008,80,1244,17053.62,24.62,-1.00,-1.0,2362
2293,2137293,17084,-80,1236,17128.84,24.53,-1.00,-1.0,2440
2296,2137296,16956,28,1164,16995.93,24.62,-1.00,-1.0,2369
2298,2137298,16972,92,1208,17015.19,24.62,-1.00,-1.0,2434
2301,2137301,17048,-28,1196,17089.92,24.67,-1.00,-1.0,2367
2304,2137304,17040,76,1160,17079.61,24.72,-1.00,-1.0,2434
2307,2137307,17000,72,1092,17035.19,24.62,-1.00,-1.0,2367
2309,2137309,17000,-68,1176,17040.76,24.72,-1.00,-1.0,2433
2312,2137312,16940,24,1136,16978.06,24.67,-1.00,-1.0,2367
2317,2137317,17008,36,1264,17054.94,24.62,-1.00,-1.0,2430
2320,2137320,16984,-24,1096,17019.34,24.72,-1.00,-1.0,2368
2322,2137322,17032,-8,1252,17077.96,24.62,-1.00,-1.0,2434
2325,2137325,17120,124,1160,17159.70,24.67,-1.00,-1.0,2366
2328,2137328,17052,88,1188,17093.56,24.62,-1.00,-1.0,2359
2330,2137330,17060,48,1216,17103.35,24.67,-1.00,-1.0,2435
2333,2137333,17132,8,1160,17171.23,24.72,-1.00,-1.0,2367
2336,2137336,16976,84,1172,17016.62,24.67,-1.00,-1.0,2429
2339,2137339,17000,120,1132,17038.07,24.67,-1.00,-1.0,2372
2344,2137344,16884,144,1244,16930.38,24.67,-1.00,-1.0,2452
2347,2137347,17096,-16,1200,17138.07,24.77,-1.00,-1.0,2377
2349,2137349,17048,124,1188,17089.79,24.72,-1.00,-1.0,2441
2352,2137352,17112,76,1236,17156.75,24.58,-1.00,-1.0,2381
2355,2137355,17032,88,1116,17068.75,24.62,-1.00,-1.0,2435
2358,2137358,16960,28,1208,17002.99,24.67,-1.00,-1.0,2373
2360,2137360,17016,72,1244,17061.56,24.62,-1.00,-1.0,2361
2363,2137363,17112,132,1252,17158.25,24.72,-1.00,-1.0,2439
2366,2137366,17000,204,1120,17038.08,24.58,-1.00,-1.0,2380
2371,2137371,17108,92,1312,17158.48,24.77,-1.00,-1.0,2458
2374,2137374,17080,184,1168,17120.88,24.67,-1.00,-1.0,2373
2377,2137377,17020,144,1260,17067.18,24.62,-1.00,-1.0,2443
2379,2137379,16976,144,1176,17017.29,24.67,-1.00,-1.0,2371
2382,2137382,17020,192,1164,17060.84,24.58,-1.00,-1.0,2430
2385,2137385,16972,128,1236,17017.43,24.58,-1.00,-1.0,2374
2388,2137388,17124,188,1360,17178.95,24.72,-1.00,-1.0,2440
2390,2137390,16916,172,1268,16964.33,24.67,-1.00,-1.0,2368
2393,2137393,17060,72,1224,17104.00,24.72,-1.00,-1.0,2366
2398,2137398,17008,116,1336,17060.79,24.67,-1.00,-1.0,2446
2401,2137401,16972,104,1148,17011.10,24.67,-1.00,-1.0,2371
2404,2137404,16932,136,1224,16976.73,24.67,-1.00,-1.0,2442
2406,2137406,16864,100,1252,16910.71,24.77,-1.00,-1.0,2366
2409,2137409,17044,48,1356,17097.92,24.67,-1.00,-1.0,2435
2412,2137412,17000,72,1164,17039.96,24.77,-1.00,-1.0,2368
2415,2137415,17104,144,1320,17155.46,24.67,-1.00,-1.0,2435
2417,2137417,16980,16,1276,17027.88,24.67,-1.00,-1.0,2366
2422,2137422,17060,96,1276,17107.92,24.62,-1.00,-1.0,2430
2425,2137425,17120,136,1284,17168.62,24.62,-1.00,-1.0,2375
2428,2137428,16964,-52,1308,17014.43,24.67,-1.00,-1.0,2433
2431,2137431,16956,84,1236,17001.20,24.62,-1.00,-1.0,2373
2433,2137433,16976,104,1172,17016.73,24.86,-1.00,-1.0,2359
2436,2137436,16924,56,1300,16973.95,24.77,-1.00,-1.0,2433
2439,2137439,16964,136,1100,17000.17,24.67,-1.00,-1.0,2368
2441,2137441,17020,88,1128,17057.56,24.67,-1.00,-1.0,2433
2444,2137444,17096,136,1156,17135.58,24.58,-1.00,-1.0,2367
2449,2137449,17072,88,1136,17109.98,24.72,-1.00,-1.0,2444
2452,2137452,16984,132,1188,17026.01,24.62,-1.00,-1.0,2375
2455,2137455,16992,176,1204,17035.51,24.67,-1.00,-1.0,2442
2457,2137457,17048,92,1168,17088.21,24.72,-1.00,-1.0,2377
2460,2137460,17020,96,1100,17055.78,24.67,-1.00,-1.0,2440
2463,2137463,16988,100,1232,17032.91,24.72,-1.00,-1.0,2370
2465,2137465,17016,180,1076,17050.94,24.67,-1.00,-1.0,2364
2468,2137468,17076,-8,948,17102.30,24.72,-1.00,-1.0,2433
2471,2137471,17044,56,1300,17093.60,24.67,-1.00,-1.0,2368
2476,2137476,17040,220,1328,17093.09,24.67,-1.00,-1.0,2448
2479,2137479,16936,8,1088,16970.91,24.77,-1.00,-1.0,2367
2482,2137482,16976,160,1140,17014.99,24.67,-1.00,-1.0,2443
2484,2137484,16936,36,1140,16974.36,24.67,-1.00,-1.0,2375
2487,2137487,16992,72,1128,17029.55,24.58,-1.00,-1.0,2435
2490,2137490,16984,-28,1044,17016.08,24.77,-1.00,-1.0,2367
2493,2137493,16964,152,1148,17003.48,24.67,-1.00,-1.0,2443
2495,2137495,17024,100,1148,17062.96,24.67,-1.00,-1.0,2374
2498,2137498,16896,176,1224,16941.19,24.58,-1.00,-1.0,2348
2503,2137503,17056,64,1168,17096.07,24.67,-1.00,-1.0,2447
2506,2137506,17008,96,1224,17052.26,24.67,-1.00,-1.0,2367
2509,2137509,17052,64,1180,17092.90,24.67,-1.00,-1.0,2442
2511,2137511,17044,48,1096,17079.27,24.67,-1.00,-1.0,2374
2514,2137514,17076,52,1116,17112.51,24.58,-1.00,-1.0,2434
2517,2137517,16988,68,1204,17030.75,24.67,-1.00,-1.0,2370
2520,2137520,16932,-52,1160,16971.77,24.67,-1.00,-1.0,2443
2522,2137522,16964,-48,1288,17012.89,24.67,-1.00,-1.0,2376
2528,2137528,17108,52,1120,17144.70,24.58,-1.00,-1.0,2443
2531,2137531,16988,152,1172,17029.06,24.67,-1.00,-1.0,2367
2533,2137533,17020,72,1000,17049.50,24.72,-1.00,-1.0,2359
2536,2137536,17028,64,1324,17079.52,24.72,-1.00,-1.0,2434
2539,2137539,17028,52,1060,17061.04,24.72,-1.00,-1.0,2367
2541,2137541,17128,-8,1112,17164.06,24.62,-1.00,-1.0,2421
2544,2137544,17080,36,1076,17113.90,24.67,-1.00,-1.0,2367
2547,2137547,17040,-92,1132,17077.81,24.72,-1.00,-1.0,2435
2550,2137550,17068,12,1188,17109.30,24.67,-1.00,-1.0,2368
2554,2137554,16980,-28,1088,17014.84,24.72,-1.00,-1.0,2441
2557,2137557,17028,68,1060,17061.10,24.62,-1.00,-1.0,2366
2560,2137560,16964,-28,1184,17005.29,24.72,-1.00,-1.0,2433
2563,2137563,17004,32,1156,17043.28,24.72,-1.00,-1.0,2367
2565,2137565,16996,24,1056,17028.79,24.62,-1.00,-1.0,2361
2568,2137568,16988,12,1116,17024.62,24.67,-1.00,-1.0,2432
2571,2137571,16996,60,1432,17056.33,24.72,-1.00,-1.0,2368
2573,2137573,16952,8,1168,16992.19,24.77,-1.00,-1.0,2432
2576,2137576,16992,-44,1104,17027.88,24.67,-1.00,-1.0,2374
2581,2137581,17016,-104,1164,17056.08,24.67,-1.00,-1.0,2444
2584,2137584,16972,-24,1056,17004.84,24.72,-1.00,-1.0,2367
2587,2137587,17112,-56,1004,17141.52,24.67,-1.00,-1.0,2442
2589,2137589,16984,60,1244,17029.60,24.72,-1.00,-1.0,2366
2592,2137592,17012,60,1132,17049.73,24.67,-1.00,-1.0,2434
2595,2137595,17008,-100,1192,17050.01,24.72,-1.00,-1.0,2368
2598,2137598,16936,0,1184,16977.34,24.67,-1.00,-1.0,2441
2600,2137600,16952,-68,1120,16989.09,24.62,-1.00,-1.0,2366
2603,2137603,16992,-56,1192,17033.85,24.67,-1.00,-1.0,2361
2608,2137608,17056,-96,1188,17097.59,24.58,-1.00,-1.0,2444
2611,2137611,17060,-28,1128,17097.27,24.67,-1.00,-1.0,2367
2614,2137614,17044,56,1136,17081.91,24.77,-1.00,-1.0,2440
2616,2137616,17068,-20,1104,17103.68,24.77,-1.00,-1.0,2366
2619,2137619,16988,0,1084,17022.55,24.67,-1.00,-1.0,2435
2622,2137622,16992,-84,1228,17036.52,24.62,-1.00,-1.0,2368
2625,2137625,16972,-76,1036,17003.76,24.58,-1.00,-1.0,2436
2627,2137627,17032,84,1200,17074.43,24.62,-1.00,-1.0,2367
2632,2137632,17040,-40,1112,17076.29,24.62,-1.00,-1.0,2444
2635,2137635,17040,-76,1156,17079.34,24.72,-1.00,-1.0,2367
2638,2137638,17152,-44,1172,17192.05,24.72,-1.00,-1.0,2361
2640,2137640,16992,-52,1124,17029.21,24.67,-1.00,-1.0,2432
2643,2137643,17044,36,1124,17081.06,24.72,-1.00,-1.0,2367
2646,2137646,16940,-28,1092,16975.18,24.67,-1.00,-1.0,2433
2649,2137649,16984,-112,1100,17019.95,24.72,-1.00,-1.0,2367
2651,2137651,17088,-76,1268,17135.15,24.67,-1.00,-1.0,2435
2654,2137654,17088,-128,1120,17125.14,24.62,-1.00,-1.0,2375
2659,2137659,17028,4,1176,17068.56,24.62,-1.00,-1.0,2448
2662,2137662,16932,20,956,16958.98,24.62,-1.00,-1.0,2380
2665,2137665,17040,-8,1312,17090.44,24.72,-1.00,-1.0,2435
2668,2137668,16960,-76,1204,17002.85,24.62,-1.00,-1.0,2375
2670,2137670,16996,-124,1128,17033.84,24.72,-1.00,-1.0,2437
2673,2137673,16932,16,1168,16972.24,24.62,-1.00,-1.0,2381
2676,2137676,17000,24,1136,17037.93,24.72,-1.00,-1.0,2360
2678,2137678,16948,-12,1060,16981.12,24.67,-1.00,-1.0,2435
2681,2137681,17008,-64,1072,17041.87,24.62,-1.00,-1.0,2370
2686,2137686,17044,-112,1064,17077.55,24.81,-1.00,-1.0,2448
2689,2137689,16956,120,1116,16993.11,24.72,-1.00,-1.0,2373
2692,2137692,17008,32,992,17036.94,24.67,-1.00,-1.0,2434
2695,2137695,17008,-64,1056,17040.87,24.72,-1.00,-1.0,2373
2697,2137697,16912,-4,1268,16959.47,24.77,-1.00,-1.0,2435
2700,2137700,17100,-84,1080,17134.28,24.72,-1.00,-1.0,2381
2703,2137703,17072,-60,1088,17106.74,24.67,-1.00,-1.0,2434
2706,2137706,17028,-8,1108,17064.01,24.72,-1.00,-1.0,2373
2708,2137708,17072,12,1128,17109.23,24.67,-1.00,-1.0,2361
2713,2137713,17004,-116,1016,17034.72,24.67,-1.00,-1.0,2444
2716,2137716,17096,-128,980,17124.54,24.62,-1.00,-1.0,2370
2719,2137719,17068,-72,1032,17099.32,24.67,-1.00,-1.0,2434
2722,2137722,16984,-104,1156,17023.61,24.81,-1.00,-1.0,2373
2724,2137724,17068,-100,1132,17105.79,24.67,-1.00,-1.0,2438
2727,2137727,16976,-132,1048,17008.83,24.62,-1.00,-1.0,2370
2730,2137730,16912,-44,996,16941.36,24.67,-1.00,-1.0,2436
2733,2137733,17052,-156,828,17072.80,24.72,-1.00,-1.0,2373
2737,2137737,16992,16,1004,17021.64,24.67,-1.00,-1.0,2442
2740,2137740,16860,-224,1104,16897.59,24.77,-1.00,-1.0,2370
2743,2137743,16888,-216,944,16915.74,24.77,-1.00,-1.0,2433
2746,2137746,16956,-188,1012,16987.21,24.67,-1.00,-1.0,2367
2748,2137748,16976,-136,1128,17013.98,24.67,-1.00,-1.0,2360
2751,2137751,16992,-44,1084,17026.60,24.62,-1.00,-1.0,2434
2754,2137754,16932,-132,1100,16968.21,24.67,-1.00,-1.0,2367
2757,2137757,17056,-188,884,17079.93,24.72,-1.00,-1.0,2432
2759,2137759,17072,-76,1172,17112.35,24.62,-1.00,-1.0,2367
2764,2137764,17008,-64,1016,17038.44,24.72,-1.00,-1.0,2444
2767,2137767,17056,-72,1040,17087.83,24.72,-1.00,-1.0,2367
2770,2137770,17008,-196,1080,17043.38,24.72,-1.00,-1.0,2443
2772,2137772,16984,-200,1100,17020.76,24.53,-1.00,-1.0,2365
2775,2137775,17020,-236,1008,17051.46,24.62,-1.00,-1.0,2434
2778,2137778,16988,-120,996,17017.60,24.72,-1.00,-1.0,2368
2781,2137781,17064,-172,992,17093.68,24.72,-1.00,-1.0,2436
2783,2137783,16992,-204,964,17020.54,24.72,-1.00,-1.0,2368
2788,2137788,16956,-144,996,16985.84,24.62,-1.00,-1.0,2443
2791,2137791,16868,-192,1060,16902.36,24.62,-1.00,-1.0,2354
2794,2137794,17012,-112,1140,17050.52,24.72,-1.00,-1.0,2363
2797,2137797,17052,-208,1104,17088.97,24.67,-1.00,-1.0,2434
2799,2137799,17012,-148,1144,17051.06,24.72,-1.00,-1.0,2370
2802,2137802,17052,-140,1124,17089.58,24.77,-1.00,-1.0,2440
2805,2137805,17088,-12,992,17116.77,24.62,-1.00,-1.0,2375
2808,2137808,17072,-304,1120,17111.40,24.67,-1.00,-1.0,2446
2811,2137811,17128,-84,1056,17160.73,24.62,-1.00,-1.0,2367
2815,2137815,17004,-204,1008,17035.07,24.62,-1.00,-1.0,2441
2818,2137818,16956,-204,1020,16987.88,24.62,-1.00,-1.0,2369
2821,2137821,17060,-156,1188,17102.03,24.72,-1.00,-1.0,2434
2824,2137824,17012,-232,1136,17051.46,24.81,-1.00,-1.0,2367
2826,2137826,17104,-200,1116,17141.54,24.72,-1.00,-1.0,2432
2829,2137829,16976,-236,1048,17009.96,24.72,-1.00,-1.0,2353
2832,2137832,16960,-220,1036,16993.04,24.62,-1.00,-1.0,2434
2835,2137835,16932,-144,1004,16962.35,24.67,-1.00,-1.0,2367
2838,2137838,17068,-228,996,17098.56,24.67,-1.00,-1.0,2367
2843,2137843,16984,-216,1260,17032.04,24.72,-1.00,-1.0,2447
2845,2137845,17056,-256,1160,17097.32,24.72,-1.00,-1.0,2367
2848,2137848,17028,-236,1116,17066.16,24.53,-1.00,-1.0,2437
2851,2137851,16972,-276,1088,17009.08,24.72,-1.00,-1.0,2366
2854,2137854,17020,-216,1148,17060.04,24.72,-1.00,-1.0,2442
2856,2137856,16920,-140,1100,16956.30,24.62,-1.00,-1.0,2368
2859,2137859,17004,-216,1160,17044.89,24.53,-1.00,-1.0,2433
2862,2137862,16964,-248,1156,17005.15,24.72,-1.00,-1.0,2367
2867,2137867,16948,-208,1148,16988.11,24.72,-1.00,-1.0,2448
2870,2137870,16964,-160,1180,17005.74,24.77,-1.00,-1.0,2380
2872,2137872,17060,-192,1312,17111.45,24.53,-1.00,-1.0,2433
2875,2137875,16912,-216,1120,16950.42,24.67,-1.00,-1.0,2383
2878,2137878,17044,-252,1036,17077.32,24.72,-1.00,-1.0,2436
2881,2137881,17032,-260,1084,17068.44,24.77,-1.00,-1.0,2376
2883,2137883,16932,-160,1160,16972.44,24.72,-1.00,-1.0,2361
2886,2137886,16992,-360,1064,17029.09,24.72,-1.00,-1.0,2435
2889,2137889,17028,-108,1144,17066.73,24.72,-1.00,-1.0,2368
2894,2137894,17056,-284,1128,17095.62,24.67,-1.00,-1.0,2444
2896,2137896,17012,-136,1204,17055.09,24.72,-1.00,-1.0,2376
2899,2137899,17024,-184,1120,17061.79,24.81,-1.00,-1.0,2439
2902,2137902,17024,-156,912,17049.12,24.77,-1.00,-1.0,2373
2905,2137905,16960,-148,1172,17001.09,24.67,-1.00,-1.0,2467
2907,2137907,17136,-140,1132,17173.92,24.77,-1.00,-1.0,2364
2910,2137910,17024,-124,1104,17060.21,24.67,-1.00,-1.0,2443
2913,2137913,17052,-220,1176,17093.92,24.77,-1.00,-1.0,2367
2918,2137918,16988,-120,1044,17020.47,24.62,-1.00,-1.0,2431
2921,2137921,16872,-152,1056,16905.70,24.62,-1.00,-1.0,2364
2923,2137923,16976,-84,1124,17013.38,24.77,-1.00,-1.0,2436
2926,2137926,17012,-156,1152,17051.67,24.62,-1.00,-1.0,2366
2929,2137929,17048,-88,1060,17081.15,24.58,-1.00,-1.0,2361
2931,2137931,16896,-68,1136,16934.28,24.67,-1.00,-1.0,2436
2934,2137934,16976,-60,1180,17017.07,24.67,-1.00,-1.0,2366
2937,2137937,16912,-76,1080,16946.62,24.58,-1.00,-1.0,2435
2940,2137940,17132,-124,1112,17168.50,24.67,-1.00,-1.0,2364
2944,2137944,16964,4,1288,17012.83,24.67,-1.00,-1.0,2445
2947,2137947,16976,-88,1216,17019.72,24.67,-1.00,-1.0,2367
2950,2137950,16936,-76,1192,16978.07,24.67,-1.00,-1.0,2435
2953,2137953,17056,-92,1164,17095.92,24.67,-1.00,-1.0,2365
2955,2137955,16948,-112,1068,16981.99,24.67,-1.00,-1.0,2437
2958,2137958,17140,-84,984,17168.43,24.67,-1.00,-1.0,2354
2961,2137961,16948,4,1036,16979.63,24.67,-1.00,-1.0,2435
2964,2137964,17024,-140,1080,17058.80,24.67,-1.00,-1.0,2365
2967,2137967,16900,-32,1084,16934.76,24.77,-1.00,-1.0,2361
2971,2137971,17032,-76,1148,17070.81,24.77,-1.00,-1.0,2446
2974,2137974,16992,-68,1132,17029.80,24.77,-1.00,-1.0,2366
2977,2137977,17020,-176,1196,17062.88,24.67,-1.00,-1.0,2435
2980,2137980,16872,-48,1204,16914.97,24.67,-1.00,-1.0,2364
2982,2137982,16976,-104,1052,17008.88,24.67,-1.00,-1.0,2436
2985,2137985,17072,-88,1252,17118.07,24.77,-1.00,-1.0,2366
2988,2137988,17064,-124,928,17089.67,24.67,-1.00,-1.0,2435
2991,2137991,17020,-52,1168,17060.11,24.77,-1.00,-1.0,2364
2996,2137996,16952,-208,1044,16985.39,24.67,-1.00,-1.0,2446
2998,2137998,17080,-172,1008,17110.58,24.67,-1.00,-1.0,2368
3001,2138001,16968,-184,976,16997.04,24.67,-1.00,-1.0,2436
3004,2138004,16952,-172,1120,16989.83,24.67,-1.00,-1.0,2365
3007,2138007,17096,-4,1056,17128.58,24.77,-1.00,-1.0,2435
3009,2138009,17104,-120,916,17128.93,24.67,-1.00,-1.0,2369
3012,2138012,17044,-76,1244,17089.51,24.67,-1.00,-1.0,2361
3015,2138015,16980,-84,1080,17014.52,24.62,-1.00,-1.0,2442
3018,2138018,17000,-160,992,17029.67,24.62,-1.00,-1.0,2371
3023,2138023,17080,-252,1252,17127.68,24.67,-1.00,-1.0,2445
3025,2138025,17080,-124,1144,17118.72,24.67,-1.00,-1.0,2366
3028,2138028,17040,-104,1136,17078.14,24.67,-1.00,-1.0,2437
3031,2138031,16992,-160,1020,17023.34,24.67,-1.00,-1.0,2368
3034,2138034,16916,-96,1136,16954.37,24.77,-1.00,-1.0,2435
3036,2138036,17068,-116,1152,17107.23,24.67,-1.00,-1.0,2354
3039,2138039,17008,-116,1108,17044.45,24.67,-1.00,-1.0,2437
3042,2138042,17076,-168,1184,17117.82,24.67,-1.00,-1.0,2367
3047,2138047,16976,-96,1084,17010.85,24.67,-1.00,-1.0,2455
3050,2138050,16992,-176,1212,17036.08,24.72,-1.00,-1.0,2373
3052,2138052,17084,-96,1184,17125.25,24.67,-1.00,-1.0,2361
3055,2138055,17024,-48,1288,17072.72,24.67,-1.00,-1.0,2435
3058,2138058,16948,-116,1132,16986.16,24.67,-1.00,-1.0,2364
3060,2138060,17044,64,1092,17079.07,24.67,-1.00,-1.0,2437
3063,2138063,17080,-56,1096,17115.22,24.77,-1.00,-1.0,2368
3066,2138066,16988,32,1228,17032.36,24.67,-1.00,-1.0,2438
3069,2138069,16984,48,1104,17019.91,24.72,-1.00,-1.0,2375
3074,2138074,16976,-28,1168,17016.16,24.62,-1.00,-1.0,2448
3076,2138076,17012,100,1072,17046.04,24.62,-1.00,-1.0,2353
3079,2138079,17072,0,1216,17115.25,24.72,-1.00,-1.0,2439
3082,2138082,16916,-116,1148,16955.31,24.62,-1.00,-1.0,2366
3085,2138085,17020,-28,1140,17058.16,24.72,-1.00,-1.0,2443
3087,2138087,16964,-72,1020,16994.79,24.58,-1.00,-1.0,2366
3090,2138090,17032,-76,1140,17070.28,24.72,-1.00,-1.0,2360
3093,2138093,17096,-36,1068,17129.37,24.77,-1.00,-1.0,2434
3096,2138096,16984,-80,988,17012.90,24.67,-1.00,-1.0,2371
3101,2138101,17076,-44,1304,17125.77,24.77,-1.00,-1.0,2452
3103,2138103,17020,-104,1144,17058.72,24.72,-1.00,-1.0,2367
3106,2138106,17088,8,1272,17135.28,24.77,-1.00,-1.0,2448
3109,2138109,17100,12,1184,17140.95,24.72,-1.00,-1.0,2366
3112,2138112,16984,4,1044,17016.06,24.67,-1.00,-1.0,2444
3114,2138114,17024,-68,1128,17061.46,24.62,-1.00,-1.0,2368
3117,2138117,16948,32,1132,16985.79,24.67,-1.00,-1.0,2442
3120,2138120,17020,-24,1348,17073.31,24.62,-1.00,-1.0,2365
3123,2138123,17008,32,1132,17045.66,24.77,-1.00,-1.0,2347
3128,2138128,17024,-72,1220,17067.81,24.67,-1.00,-1.0,2453
3130,2138130,17012,20,1296,17061.31,24.67,-1.00,-1.0,2366
3133,2138133,17008,52,1224,17052.07,24.67,-1.00,-1.0,2447
3136,2138136,17044,24,1204,17086.49,24.77,-1.00,-1.0,2365
3139,2138139,16948,40,1268,16995.41,24.77,-1.00,-1.0,2442
3141,2138141,17056,24,1176,17096.51,24.77,-1.00,-1.0,2366
3144,2138144,17012,-16,1164,17051.78,24.67,-1.00,-1.0,2442
3147,2138147,17020,16,1112,17056.29,24.77,-1.00,-1.0,2365
3152,2138152,17024,12,1268,17071.16,24.67,-1.00,-1.0,2452
3155,2138155,16956,-28,1204,16998.71,24.77,-1.00,-1.0,2366
3157,2138157,16984,84,1192,17025.98,24.72,-1.00,-1.0,2363
3160,2138160,16968,36,1304,17018.07,24.72,-1.00,-1.0,2436
3163,2138163,17068,-68,1200,17110.27,24.62,-1.00,-1.0,2371
3165,2138165,17012,108,1204,17054.89,24.62,-1.00,-1.0,2424
3168,2138168,16896,88,1224,16940.51,24.72,-1.00,-1.0,2381
3171,2138171,16964,84,1220,17008.02,24.62,-1.00,-1.0,2435
3174,2138174,16984,-44,1244,17029.55,24.62,-1.00,-1.0,2366
3179,2138179,16996,12,1172,17036.37,24.72,-1.00,-1.0,2439
3181,2138181,16988,-20,1252,17034.08,24.62,-1.00,-1.0,2369
3184,2138184,17012,68,1244,17057.56,24.72,-1.00,-1.0,2436
3187,2138187,17084,92,1272,17131.54,24.72,-1.00,-1.0,2366
3189,2138189,16992,108,1144,17030.81,24.58,-1.00,-1.0,2360
3192,2138192,16992,48,1240,17037.25,24.67,-1.00,-1.0,2436
3195,2138195,16964,88,1320,17015.51,24.72,-1.00,-1.0,2367
3198,2138198,17096,92,1148,17134.75,24.67,-1.00,-1.0,2436
3201,2138201,17032,48,1168,17072.07,24.72,-1.00,-1.0,2364
3206,2138206,17016,140,1256,17062.87,24.72,-1.00,-1.0,2445
3209,2138209,17044,220,1128,17082.70,24.72,-1.00,-1.0,2369
3211,2138211,16936,72,1172,16976.66,24.67,-1.00,-1.0,2435
3214,2138214,17036,180,1228,17081.15,24.62,-1.00,-1.0,2352
3217,2138217,17044,40,1124,17081.07,24.72,-1.00,-1.0,2436
3220,2138220,16968,144,1072,17002.44,24.62,-1.00,-1.0,2372
3222,2138222,17016,12,1300,17065.59,24.62,-1.00,-1.0,2424
3225,2138225,17032,52,1144,17070.46,24.53,-1.00,-1.0,2379
3228,2138228,17028,112,1204,17070.88,24.67,-1.00,-1.0,2360
3233,2138233,17064,84,1108,17100.14,24.67,-1.00,-1.0,2447
3236,2138236,17112,88,1160,17151.50,24.72,-1.00,-1.0,2365
3238,2138238,17040,156,1116,17077.22,24.67,-1.00,-1.0,2435
3241,2138241,17160,60,1192,17201.46,24.62,-1.00,-1.0,2369
3244,2138244,17040,224,1256,17087.70,24.67,-1.00,-1.0,2436
3247,2138247,16872,88,1056,16905.24,24.72,-1.00,-1.0,2366
3249,2138249,17020,176,1292,17069.88,24.67,-1.00,-1.0,2435
3252,2138252,17016,172,1188,17058.29,24.67,-1.00,-1.0,2427
3258,2138258,17012,104,1188,17053.75,24.72,-1.00,-1.0,2445
3260,2138260,17068,56,1224,17111.92,24.58,-1.00,-1.0,2368
3263,2138263,17060,164,1188,17102.10,24.62,-1.00,-1.0,2368
3266,2138266,16936,96,1228,16980.73,24.67,-1.00,-1.0,2445
3268,2138268,16968,108,1064,17001.67,24.72,-1.00,-1.0,2370
3271,2138271,16968,144,1292,17017.73,24.77,-1.00,-1.0,2444
3274,2138274,17060,80,1140,17098.23,24.72,-1.00,-1.0,2374
3277,2138277,17016,136,1292,17065.52,24.67,-1.00,-1.0,2446
3279,2138279,17052,36,1132,17089.57,24.72,-1.00,-1.0,2376
3284,2138284,17056,52,1092,17091.00,24.72,-1.00,-1.0,2442
3287,2138287,17012,176,1108,17048.95,24.72,-1.00,-1.0,2366
3290,2138290,17020,112,1252,17066.35,24.72,-1.00,-1.0,2441
3292,2138292,17072,168,1128,17110.05,24.72,-1.00,-1.0,2367
3295,2138295,17056,176,1068,17090.31,24.72,-1.00,-1.0,2366
3298,2138298,17000,100,1040,17032.08,24.67,-1.00,-1.0,2423
3301,2138301,17032,112,1336,17084.69,24.72,-1.00,-1.0,2366
3303,2138303,16968,100,1152,17007.36,24.77,-1.00,-1.0,2446
3306,2138306,17036,-8,1284,17084.32,24.72,-1.00,-1.0,2375
3311,2138311,16956,48,1024,16986.96,24.62,-1.00,-1.0,2441
3314,2138314,17052,60,1100,17087.55,24.72,-1.00,-1.0,2367
3317,2138317,17008,92,1164,17048.03,24.72,-1.00,-1.0,2435
3319,2138319,17016,92,1196,17058.23,24.67,-1.00,-1.0,2354
3322,2138322,16996,36,1096,17031.34,24.72,-1.00,-1.0,2432
3325,2138325,17052,180,1212,17095.97,24.67,-1.00,-1.0,2370
3327,2138327,17028,92,1184,17069.36,24.72,-1.00,-1.0,2422
3330,2138330,16984,0,1192,17025.78,24.77,-1.00,-1.0,2367
3333,2138333,17032,-44,1000,17061.39,24.72,-1.00,-1.0,2368
3338,2138338,16984,12,1156,17023.30,24.72,-1.00,-1.0,2441
3341,2138341,17056,52,1228,17100.23,24.72,-1.00,-1.0,2367
3344,2138344,17012,136,1056,17045.29,24.72,-1.00,-1.0,2435
3346,2138346,17100,32,1060,17132.85,24.77,-1.00,-1.0,2366
3349,2138349,16964,-20,1148,17002.81,24.72,-1.00,-1.0,2434
3352,2138352,17092,-28,1136,17129.73,24.72,-1.00,-1.0,2367
3354,2138354,17100,96,1096,17135.36,24.62,-1.00,-1.0,2433
3357,2138357,17040,32,1224,17083.93,24.67,-1.00,-1.0,2366
3363,2138363,16908,40,1168,16948.34,24.62,-1.00,-1.0,2458
3365,2138365,17092,16,1196,17133.80,24.72,-1.00,-1.0,2366
3368,2138368,17000,-52,1236,17044.95,24.77,-1.00,-1.0,2375
3371,2138371,17104,-44,1076,17137.87,24.67,-1.00,-1.0,2436
3374,2138374,16916,-16,1088,16950.96,24.67,-1.00,-1.0,2376
3376,2138376,17024,24,1160,17063.49,24.62,-1.00,-1.0,2438
3379,2138379,17040,-8,1044,17071.95,24.67,-1.00,-1.0,2382
3382,2138382,16900,12,944,16926.35,24.67,-1.00,-1.0,2434
3385,2138385,17080,84,1080,17114.32,24.67,-1.00,-1.0,2374
3389,2138389,17072,24,1140,17110.04,24.62,-1.00,-1.0,2447
3392,2138392,17008,32,1128,17045.39,24.67,-1.00,-1.0,2367
3395,2138395,17056,-8,1220,17099.58,24.62,-1.00,-1.0,2433
3398,2138398,17028,16,1060,17060.97,24.67,-1.00,-1.0,2366
3400,2138400,17064,76,1036,17095.59,24.72,-1.00,-1.0,2359
3403,2138403,17100,4,1056,17132.58,24.72,-1.00,-1.0,2433
3406,2138406,17000,-32,1336,17052.45,24.81,-1.00,-1.0,2367
3408,2138408,16988,-16,1216,17031.47,24.62,-1.00,-1.0,2434
3411,2138411,17032,-56,1204,17074.59,24.62,-1.00,-1.0,2366
3416,2138416,16952,0,1156,16991.37,24.67,-1.00,-1.0,2451
3419,2138419,17008,20,1064,17041.26,24.67,-1.00,-1.0,2355
3422,2138422,17000,4,1120,17036.86,24.72,-1.00,-1.0,2443
3424,2138424,17024,-160,1084,17059.23,24.67,-1.00,-1.0,2375
3427,2138427,17032,-44,1300,17081.60,24.67,-1.00,-1.0,2442
3430,2138430,16980,-32,1076,17014.09,24.67,-1.00,-1.0,2375
3432,2138432,17040,-36,1096,17075.25,24.81,-1.00,-1.0,2364
3435,2138435,16984,0,1112,17020.37,24.81,-1.00,-1.0,2433
3438,2138438,17052,8,1152,17090.87,24.72,-1.00,-1.0,2367
3443,2138443,17044,-24,1040,17075.72,24.72,-1.00,-1.0,2449
3446,2138446,16960,-116,1060,16993.49,24.67,-1.00,-1.0,2353
3449,2138449,17000,-16,1164,17039.81,24.72,-1.00,-1.0,2446
3451,2138451,17056,48,1260,17102.54,24.72,-1.00,-1.0,2375
3454,2138454,16976,-36,1076,17010.10,24.72,-1.00,-1.0,2441
3457,2138457,17016,-92,1076,17050.23,24.72,-1.00,-1.0,2369
3460,2138460,16964,-104,1196,17006.43,24.72,-1.00,-1.0,2446
3462,2138462,17024,8,1164,17063.75,24.62,-1.00,-1.0,2379
3465,2138465,17020,-80,1336,17072.54,24.72,-1.00,-1.0,2360
3470,2138470,17020,-88,1196,17062.20,24.62,-1.00,-1.0,2448
3473,2138473,16968,-100,1196,17010.39,24.72,-1.00,-1.0,2366
3476,2138476,16968,-112,1108,17004.51,24.72,-1.00,-1.0,2444
3478,2138478,17008,-20,1152,17046.98,24.72,-1.00,-1.0,2377
3481,2138481,17080,20,1080,17114.12,24.62,-1.00,-1.0,2434
3484,2138484,17036,48,1028,17067.05,24.72,-1.00,-1.0,2367
3487,2138487,17020,-40,1208,17062.86,24.72,-1.00,-1.0,2444
3489,2138489,17028,-100,1152,17067.22,24.72,-1.00,-1.0,2375
3494,2138494,17036,-16,1060,17068.95,24.72,-1.00,-1.0,2452
3497,2138497,17004,36,1232,17048.61,24.58,-1.00,-1.0,2365
3500,2138500,16920,-28,1084,16954.71,24.72,-1.00,-1.0,2442
3503,2138503,16996,-56,1072,17029.87,24.77,-1.00,-1.0,2366
3505,2138505,17020,-172,1324,17072.29,24.62,-1.00,-1.0,2366
3508,2138508,17108,44,1140,17146.00,24.67,-1.00,-1.0,2436
3511,2138511,17012,-104,996,17041.45,24.72,-1.00,-1.0,2374
3513,2138513,17032,80,1060,17065.14,24.62,-1.00,-1.0,2424
3516,2138516,16956,-40,1252,17002.21,24.67,-1.00,-1.0,2367
3521,2138521,16972,-64,1132,17009.83,24.67,-1.00,-1.0,2441
3524,2138524,17064,-76,1064,17097.31,24.67,-1.00,-1.0,2366
3527,2138527,17000,-40,1264,17046.97,24.67,-1.00,-1.0,2440
3529,2138529,16920,-92,1140,16958.61,24.77,-1.00,-1.0,2367
3532,2138532,16952,-16,1056,16984.87,24.77,-1.00,-1.0,2434
3535,2138535,16968,-108,1336,17020.86,24.67,-1.00,-1.0,2370
3538,2138538,17008,-172,1092,17043.89,24.58,-1.00,-1.0,2433
3540,2138540,17044,-44,1188,17085.41,24.67,-1.00,-1.0,2369
3543,2138543,17032,-40,1144,17070.42,24.72,-1.00,-1.0,2363
3548,2138548,17080,-104,1148,17118.85,24.67,-1.00,-1.0,2444
3551,2138551,17052,-152,1072,17086.34,24.67,-1.00,-1.0,2366
3554,2138554,16996,-72,1072,17029.93,24.72,-1.00,-1.0,2441
3556,2138556,16976,-116,1204,17019.04,24.67,-1.00,-1.0,2367
3559,2138559,16948,-116,996,16977.64,24.72,-1.00,-1.0,2434
3562,2138562,17116,-256,1036,17149.24,24.77,-1.00,-1.0,2353
3565,2138565,16952,-12,1276,16999.96,24.77,-1.00,-1.0,2442
3567,2138567,16956,180,1336,17009.50,24.77,-1.00,-1.0,2369
3572,2138572,16996,-88,1084,17030.76,24.72,-1.00,-1.0,2443
3575,2138575,17064,-528,948,17098.47,24.67,-1.00,-1.0,2366
3578,2138578,17024,-204,1012,17055.27,24.72,-1.00,-1.0,2441
3580,2138580,17052,0,1208,17094.73,24.67,-1.00,-1.0,2368
3583,2138583,16968,132,1088,17003.36,24.72,-1.00,-1.0,2360
3586,2138586,17064,-220,836,17085.88,24.72,-1.00,-1.0,2438
3588,2138588,17008,-272,1036,17041.69,24.72,-1.00,-1.0,2367
3591,2138591,16972,-228,1120,17010.44,24.77,-1.00,-1.0,2444
3594,2138594,16956,4,1104,16991.90,24.62,-1.00,-1.0,2372
3599,2138599,17024,-56,1036,17055.59,24.58,-1.00,-1.0,2436
3602,2138602,16888,-80,1076,16922.43,24.67,-1.00,-1.0,2374
3605,2138605,16984,-140,1024,17015.42,24.77,-1.00,-1.0,2444
3607,2138607,16944,-164,1000,16974.28,24.67,-1.00,-1.0,2377
3610,2138610,16960,-100,1048,16992.64,24.77,-1.00,-1.0,2440
3613,2138613,16996,-40,1080,17030.33,24.67,-1.00,-1.0,2370
3616,2138616,16988,-164,1188,17030.28,24.58,-1.00,-1.0,2443
3618,2138618,16972,-120,1040,17004.26,24.67,-1.00,-1.0,2375
3623,2138623,16964,-112,1140,17002.63,24.77,-1.00,-1.0,2447
3626,2138626,17008,-144,1080,17042.86,24.67,-1.00,-1.0,2373
3629,2138629,17016,-112,1128,17053.71,24.67,-1.00,-1.0,2363
3631,2138631,17004,-192,1160,17044.60,24.72,-1.00,-1.0,2435
3634,2138634,17076,-108,1304,17126.06,24.67,-1.00,-1.0,2354
3637,2138637,17092,-156,1040,17124.32,24.67,-1.00,-1.0,2433
3640,2138640,17084,-204,1096,17120.34,24.67,-1.00,-1.0,2371
3642,2138642,17008,-64,1116,17044.70,24.72,-1.00,-1.0,2435
3645,2138645,16968,-168,1072,17002.66,24.77,-1.00,-1.0,2374
3650,2138650,16964,-232,972,16993.41,24.67,-1.00,-1.0,2448
3653,2138653,17092,-28,984,17120.32,24.67,-1.00,-1.0,2381
3656,2138656,16948,-40,1120,16985.01,24.67,-1.00,-1.0,2435
3659,2138659,17020,-112,1040,17052.11,24.67,-1.00,-1.0,2375
3661,2138661,16936,-192,1124,16974.34,24.62,-1.00,-1.0,2442
3664,2138664,16968,-160,1040,17000.60,24.77,-1.00,-1.0,2381
3667,2138667,16992,-232,1180,17034.50,24.77,-1.00,-1.0,2434
3670,2138670,16980,-44,1068,17013.61,24.67,-1.00,-1.0,2374
3672,2138672,16980,-144,988,17009.33,24.72,-1.00,-1.0,2363
3677,2138677,17024,-212,1104,17061.08,24.72,-1.00,-1.0,2449
3680,2138680,17036,-176,1024,17067.65,24.58,-1.00,-1.0,2381
3683,2138683,17088,-224,1108,17125.35,24.77,-1.00,-1.0,2437
3686,2138686,16964,-156,1156,17004.06,24.67,-1.00,-1.0,2376
3688,2138688,17044,-16,1068,17077.44,24.72,-1.00,-1.0,2421
3691,2138691,17044,-184,1160,17084.42,24.67,-1.00,-1.0,2381
3694,2138694,17020,-220,1068,17054.89,24.67,-1.00,-1.0,2434
3697,2138697,17036,-236,1036,17069.10,24.77,-1.00,-1.0,2372
3702,2138702,16960,-44,1204,17002.74,24.67,-1.00,-1.0,2449
3704,2138704,16996,-204,1128,17034.61,24.62,-1.00,-1.0,2366
3707,2138707,17020,-260,1068,17055.46,24.67,-1.00,-1.0,2436
3710,2138710,17060,-136,1004,17090.06,24.72,-1.00,-1.0,2367
3713,2138713,17012,-116,1076,17046.39,24.67,-1.00,-1.0,2441
3715,2138715,17036,-112,1148,17075.00,24.72,-1.00,-1.0,2367
3718,2138718,16860,-204,1128,16898.92,24.67,-1.00,-1.0,2359
3721,2138721,17004,-136,1168,17044.61,24.67,-1.00,-1.0,2442
3723,2138723,16944,-268,1124,16983.36,24.67,-1.00,-1.0,2366
3728,2138728,16952,-84,1040,16984.08,24.77,-1.00,-1.0,2441
3731,2138731,17040,-128,1244,17085.83,24.72,-1.00,-1.0,2366
3734,2138734,17028,-140,1052,17061.04,24.67,-1.00,-1.0,2433
3737,2138737,17020,-124,1060,17053.43,24.62,-1.00,-1.0,2367
3739,2138739,16948,-32,1156,16987.41,24.67,-1.00,-1.0,2432
3742,2138742,16964,-140,1128,17002.04,24.62,-1.00,-1.0,2367
3745,2138745,16992,-120,1008,17022.29,24.77,-1.00,-1.0,2433
3748,2138748,17044,-76,1024,17074.90,24.72,-1.00,-1.0,2367
3753,2138753,17080,-88,1164,17119.84,24.72,-1.00,-1.0,2445
3755,2138755,16992,-108,960,17019.44,24.72,-1.00,-1.0,2375
3758,2138758,16992,-64,948,17018.54,24.81,-1.00,-1.0,2362
3761,2138761,16964,-128,1100,17000.11,24.67,-1.00,-1.0,2434
3763,2138763,17028,-44,1204,17070.57,24.62,-1.00,-1.0,2369
3766,2138766,17060,-84,1216,17103.49,24.67,-1.00,-1.0,2434
3769,2138769,16980,-112,1176,17021.04,24.72,-1.00,-1.0,2369
3772,2138772,17072,-140,1096,17107.72,24.67,-1.00,-1.0,2437
3774,2138774,17024,-220,1012,17055.47,24.77,-1.00,-1.0,2366
3779,2138779,16992,-52,1112,17028.43,24.62,-1.00,-1.0,2440
3782,2138782,17132,-144,1104,17168.14,24.67,-1.00,-1.0,2366
3785,2138785,17088,-124,1192,17129.97,24.72,-1.00,-1.0,2442
3787,2138787,17032,-100,1108,17068.29,24.77,-1.00,-1.0,2366
3790,2138790,17024,-100,1252,17070.27,24.72,-1.00,-1.0,2447
3793,2138793,16940,-124,1188,16982.06,24.77,-1.00,-1.0,2366
3796,2138796,16976,-100,1164,17016.15,24.62,-1.00,-1.0,2441
3798,2138798,17112,-40,1144,17150.24,24.72,-1.00,-1.0,2367
3801,2138801,17064,-188,1148,17103.61,24.62,-1.00,-1.0,2361
3806,2138806,16988,-124,1224,17032.49,24.62,-1.00,-1.0,2442
3809,2138809,16932,-92,1140,16970.58,24.62,-1.00,-1.0,2366
3812,2138812,17008,-88,1240,17053.37,24.72,-1.00,-1.0,2441
3814,2138814,17032,-20,1208,17074.80,24.62,-1.00,-1.0,2367
3817,2138817,16996,28,1052,17028.55,24.72,-1.00,-1.0,2441
3820,2138820,16980,-68,1084,17014.70,24.62,-1.00,-1.0,2366
3823,2138823,16936,-204,1096,16972.65,24.72,-1.00,-1.0,2443
3826,2138826,17064,-68,1108,17100.07,24.72,-1.00,-1.0,2367
3830,2138830,16948,-60,1104,16984.03,24.62,-1.00,-1.0,2442
3833,2138833,17088,-104,1200,17130.40,24.62,-1.00,-1.0,2367
3836,2138836,17000,-96,1044,17032.30,24.62,-1.00,-1.0,2434
3839,2138839,16968,-144,1044,17000.70,24.77,-1.00,-1.0,2367
3842,2138842,16944,-84,1068,16977.83,24.62,-1.00,-1.0,2434
3844,2138844,17040,-52,1168,17080.06,24.67,-1.00,-1.0,2353
3847,2138847,16952,-80,1144,16990.75,24.72,-1.00,-1.0,2367
3850,2138850,17052,-76,1176,17092.67,24.77,-1.00,-1.0,2443
3853,2138853,17032,-16,1164,17071.74,24.72,-1.00,-1.0,2375
3858,2138858,16912,36,1108,16948.29,24.62,-1.00,-1.0,2441
3860,2138860,16948,8,1088,16982.89,24.72,-1.00,-1.0,2368
3863,2138863,17080,-80,1160,17119.53,24.77,-1.00,-1.0,2449
3866,2138866,16992,-104,1132,17029.98,24.81,-1.00,-1.0,2370
3869,2138869,17068,-16,1136,17105.77,24.62,-1.00,-1.0,2432
3871,2138871,17024,-116,1168,17064.41,24.62,-1.00,-1.0,2366
3874,2138874,16964,0,1152,17003.07,24.72,-1.00,-1.0,2434
3877,2138877,16988,-8,1108,17024.10,24.67,-1.00,-1.0,2375
3880,2138880,17008,-104,1204,17050.88,24.77,-1.00,-1.0,2365
3885,2138885,16988,-112,1040,17020.17,24.67,-1.00,-1.0,2441
3887,2138887,16948,-56,1112,16984.53,24.62,-1.00,-1.0,2368
3890,2138890,17032,32,1364,17086.56,24.67,-1.00,-1.0,2448
3893,2138893,17004,-96,1164,17044.06,24.72,-1.00,-1.0,2361
3896,2138896,16976,-64,1144,17014.62,24.77,-1.00,-1.0,2436
3898,2138898,17044,-36,1208,17086.79,24.72,-1.00,-1.0,2370
3901,2138901,17080,-8,1192,17121.54,24.67,-1.00,-1.0,2440
3904,2138904,16896,-28,1176,16936.90,24.72,-1.00,-1.0,2374
3909,2138909,17024,0,1120,17060.80,24.72,-1.00,-1.0,2450
3911,2138911,16972,-48,1096,17007.42,24.72,-1.00,-1.0,2367
3914,2138914,16920,-132,1096,16955.97,24.81,-1.00,-1.0,2435
3917,2138917,16976,-132,1172,17016.92,24.62,-1.00,-1.0,2366
3919,2138919,16996,-80,1040,17027.98,24.72,-1.00,-1.0,2359
3922,2138922,16928,-16,1280,16976.33,24.77,-1.00,-1.0,2434
3925,2138925,16952,24,1172,16992.48,24.72,-1.00,-1.0,2367
3928,2138928,17012,-96,1096,17047.54,24.77,-1.00,-1.0,2435
3931,2138931,17016,-68,1364,17070.72,24.67,-1.00,-1.0,2366
3936,2138936,17020,16,952,17046.61,24.67,-1.00,-1.0,2448
3938,2138938,16948,20,1180,16989.04,24.77,-1.00,-1.0,2376
3941,2138941,16956,-12,1148,16994.82,24.72,-1.00,-1.0,2434
3944,2138944,17000,40,1212,17043.20,24.77,-1.00,-1.0,2367
3947,2138947,17120,36,1100,17155.34,24.67,-1.00,-1.0,2443
3949,2138949,17112,-40,1252,17157.79,24.77,-1.00,-1.0,2374
3952,2138952,16960,32,1236,17005.01,24.72,-1.00,-1.0,2360
3955,2138955,17064,68,1256,17110.30,24.72,-1.00,-1.0,2438
3958,2138958,17028,-4,1212,17071.08,24.72,-1.00,-1.0,2367
3963,2138963,17024,-40,1164,17063.79,24.72,-1.00,-1.0,2444
3965,2138965,17032,8,1160,17071.46,24.72,-1.00,-1.0,2369
3968,2138968,16936,64,1096,16971.55,24.72,-1.00,-1.0,2434
3971,2138971,17068,20,1092,17102.91,24.72,-1.00,-1.0,2368
3974,2138974,17052,-68,1144,17090.47,24.72,-1.00,-1.0,2434
3976,2138976,16824,-76,1164,16864.39,24.72,-1.00,-1.0,2374
3979,2138979,17036,48,1140,17074.17,24.72,-1.00,-1.0,2434
3982,2138982,16956,-52,1108,16992.24,24.62,-1.00,-1.0,2366
3985,2138985,16992,88,1160,17031.78,24.62,-1.00,-1.0,2359
3989,2138989,17052,-36,1104,17087.74,24.77,-1.00,-1.0,2443
3992,2138992,16968,48,1016,16998.46,24.67,-1.00,-1.0,2370
3995,2138995,16984,-28,1172,17024.41,24.67,-1.00,-1.0,2433
3998,2138998,17040,0,1172,17080.26,24.77,-1.00,-1.0,2366
4001,2139001,17088,-4,1132,17125.46,24.77,-1.00,-1.0,2435
4003,2139003,16968,56,1152,17007.15,24.67,-1.00,-1.0,2367
4006,2139006,17080,64,1148,17118.66,24.77,-1.00,-1.0,2432
4009,2139009,17036,-24,1084,17070.47,24.67,-1.00,-1.0,2373
4014,2139014,17004,28,1192,17045.75,24.77,-1.00,-1.0,2442
4016,2139016,17108,-32,1148,17146.50,24.77,-1.00,-1.0,2367
4019,2139019,17008,48,1164,17047.85,24.81,-1.00,-1.0,2367
4022,2139022,17004,24,1196,17046.03,24.62,-1.00,-1.0,2442
4024,2139024,17008,108,1132,17045.97,24.72,-1.00,-1.0,2372
4027,2139027,17012,8,1060,17044.99,24.72,-1.00,-1.0,2430
4030,2139030,16944,32,1076,16978.16,24.62,-1.00,-1.0,2374
4033,2139033,16980,16,1132,17017.70,24.72,-1.00,-1.0,2441
4036,2139036,17072,-36,1168,17111.95,24.77,-1.00,-1.0,2374
4041,2139041,16924,24,1104,16959.99,24.77,-1.00,-1.0,2449
4043,2139043,17040,-8,964,17067.25,24.77,-1.00,-1.0,2366
4046,2139046,17000,48,1104,17035.88,24.77,-1.00,-1.0,2436
4049,2139049,17064,-112,1204,17106.79,24.67,-1.00,-1.0,2367
4051,2139051,17008,24,1276,17055.81,24.67,-1.00,-1.0,2361
4054,2139054,17080,20,1144,17118.28,24.72,-1.00,-1.0,2445
4057,2139057,17100,76,1272,17147.41,24.86,-1.00,-1.0,2367
4060,2139060,17028,96,1080,17062.48,24.72,-1.00,-1.0,2437
4063,2139063,17020,-64,1248,17065.81,24.72,-1.00,-1.0,2377
4068,2139068,16984,24,1044,17016.07,24.62,-1.00,-1.0,2446
4070,2139070,17044,88,1136,17082.04,24.67,-1.00,-1.0,2367
4073,2139073,17000,-16,1264,17046.93,24.62,-1.00,-1.0,2438
4076,2139076,16992,20,1060,17025.04,24.67,-1.00,-1.0,2366
4079,2139079,17036,-96,1136,17074.10,24.72,-1.00,-1.0,2436
4081,2139081,17052,60,1092,17087.04,24.67,-1.00,-1.0,2368
4084,2139084,16940,-36,1180,16981.09,24.72,-1.00,-1.0,2437
4087,2139087,17100,32,1108,17135.89,24.77,-1.00,-1.0,2366
4090,2139090,16948,28,1276,16995.99,24.72,-1.00,-1.0,2368
4095,2139095,16996,16,1224,17040.03,24.81,-1.00,-1.0,2451
4097,2139097,17048,44,1240,17093.09,24.67,-1.00,-1.0,2369
4100,2139100,17040,84,1196,17082.13,24.72,-1.00,-1.0,2447
4103,2139103,16996,-44,1228,17040.36,24.72,-1.00,-1.0,2366
4106,2139106,16984,16,1088,17018.82,24.72,-1.00,-1.0,2440
4108,2139108,17060,148,1192,17102.23,24.77,-1.00,-1.0,2367
4111,2139111,16996,-8,1188,17037.47,24.62,-1.00,-1.0,2440
4114,2139114,17016,-12,1204,17058.55,24.81,-1.00,-1.0,2366
4119,2139119,17056,-16,1336,17108.25,24.67,-1.00,-1.0,2443
4122,2139122,17036,-8,1304,17085.84,24.67,-1.00,-1.0,2368
4124,2139124,16988,16,1144,17026.48,24.67,-1.00,-1.0,2361
4127,2139127,17024,52,1328,17075.80,24.62,-1.00,-1.0,2433
4130,2139130,17044,44,1252,17089.98,24.77,-1.00,-1.0,2367
4133,2139133,17100,-28,1188,17141.24,24.72,-1.00,-1.0,2439
4135,2139135,16988,-100,1172,17028.67,24.67,-1.00,-1.0,2366
4138,2139138,17044,48,1196,17085.98,24.72,-1.00,-1.0,2434
4141,2139141,16992,80,1168,17032.28,24.77,-1.00,-1.0,2367
4146,2139146,16976,48,1200,17018.43,24.77,-1.00,-1.0,2430
4149,2139149,16948,24,1216,16991.58,24.67,-1.00,-1.0,2372
4151,2139151,16908,44,1076,16942.26,24.58,-1.00,-1.0,2443
4154,2139154,17024,68,1204,17066.66,24.77,-1.00,-1.0,2373
4157,2139157,17072,48,1124,17109.03,24.67,-1.00,-1.0,2361
4159,2139159,16948,64,1008,16978.07,24.67,-1.00,-1.0,2433
4162,2139162,17020,40,1020,17050.58,24.67,-1.00,-1.0,2370
4165,2139165,17024,-44,1064,17057.27,24.72,-1.00,-1.0,2419
4168,2139168,16948,0,1184,16989.31,24.77,-1.00,-1.0,2365
4173,2139173,16932,8,1064,16965.40,24.67,-1.00,-1.0,2452
4176,2139176,17056,164,1204,17099.23,24.67,-1.00,-1.0,2375
4178,2139178,16992,24,1284,17040.46,24.67,-1.00,-1.0,2442
4181,2139181,16972,-20,1120,17008.93,24.77,-1.00,-1.0,2381
4184,2139184,17040,68,1224,17084.04,24.77,-1.00,-1.0,2435
4187,2139187,16960,60,1128,16997.58,24.67,-1.00,-1.0,2372
4189,2139189,17000,48,1096,17035.36,24.81,-1.00,-1.0,2361
4192,2139192,16996,-4,1080,17030.28,24.72,-1.00,-1.0,2433
4195,2139195,16996,-72,1228,17040.46,24.81,-1.00,-1.0,2367
4200,2139200,16940,-80,972,16968.05,24.72,-1.00,-1.0,2443
4203,2139203,17084,-76,1144,17122.43,24.72,-1.00,-1.0,2367
4206,2139206,17036,-24,1072,17069.71,24.72,-1.00,-1.0,2433
4209,2139209,17044,-52,1104,17079.80,24.72,-1.00,-1.0,2366
4211,2139211,17036,48,1052,17068.52,24.72,-1.00,-1.0,2436
4214,2139214,17004,-16,1132,17041.65,24.72,-1.00,-1.0,2367
4217,2139217,17052,116,1176,17092.90,24.72,-1.00,-1.0,2434
4220,2139220,16988,-16,1216,17031.47,24.72,-1.00,-1.0,2367
4222,2139222,16984,100,1096,17019.62,24.62,-1.00,-1.0,2359
4227,2139227,16976,4,1216,17019.50,24.67,-1.00,-1.0,2443
4230,2139230,16988,-72,1012,17018.27,24.67,-1.00,-1.0,2375
4233,2139233,17028,-76,1044,17060.14,24.77,-1.00,-1.0,2434
4235,2139235,17096,-28,1128,17133.20,24.67,-1.00,-1.0,2368
4238,2139238,17084,-72,1076,17118.00,24.67,-1.00,-1.0,2434
4241,2139241,17012,-4,980,17040.21,24.77,-1.00,-1.0,2373
4244,2139244,16948,16,1080,16982.38,24.67,-1.00,-1.0,2433
4246,2139246,17044,52,1220,17087.69,24.67,-1.00,-1.0,2366
4251,2139251,16964,24,1048,16996.36,24.62,-1.00,-1.0,2443
4254,2139254,17020,-20,1328,17071.74,24.72,-1.00,-1.0,2368
4256,2139256,17044,76,1016,17074.42,24.67,-1.00,-1.0,2361
4259,2139259,17036,36,1124,17073.08,24.77,-1.00,-1.0,2434
4262,2139262,17076,-32,1140,17114.04,24.67,-1.00,-1.0,2367
4265,2139265,16972,-12,1108,17008.13,24.67,-1.00,-1.0,2440
4267,2139267,17016,-72,1240,17061.27,24.62,-1.00,-1.0,2366
4270,2139270,17072,-76,1104,17107.83,24.67,-1.00,-1.0,2434
4273,2139273,16968,-40,1156,17007.38,24.67,-1.00,-1.0,2367
4278,2139278,17004,-36,1184,17045.21,24.77,-1.00,-1.0,2428
4281,2139281,17100,-16,1120,17136.65,24.72,-1.00,-1.0,2366
4283,2139283,16968,52,1148,17006.87,24.77,-1.00,-1.0,2435
4286,2139286,17052,8,1072,17085.67,24.72,-1.00,-1.0,2367
4289,2139289,16992,-20,1080,17026.30,24.67,-1.00,-1.0,2419
4292,2139292,16964,32,1216,17007.56,24.72,-1.00,-1.0,2367
4294,2139294,16920,0,1108,16956.24,24.67,-1.00,-1.0,2359
4297,2139297,17040,48,1160,17079.51,24.81,-1.00,-1.0,2449
4300,2139300,17048,36,1156,17087.19,24.77,-1.00,-1.0,2367
4305,2139305,16940,-32,1180,16981.08,24.77,-1.00,-1.0,2442
4308,2139308,17072,-76,1136,17109.92,24.77,-1.00,-1.0,2366
4310,2139310,17000,-148,1012,17030.74,24.77,-1.00,-1.0,2435
4313,2139313,17108,-28,1112,17144.12,24.67,-1.00,-1.0,2367
4316,2139316,17052,120,1048,17084.60,24.72,-1.00,-1.0,2475
4319,2139319,17008,-24,1056,17040.77,24.72,-1.00,-1.0,2367
4322,2139322,17052,-4,940,17077.89,24.67,-1.00,-1.0,2449
4324,2139324,16896,-28,1000,16925.59,24.72,-1.00,-1.0,2373
4327,2139327,16940,20,964,16967.42,24.81,-1.00,-1.0,2368
4332,2139332,17040,108,1112,17076.59,24.77,-1.00,-1.0,2444
4335,2139335,16940,-116,1128,16977.91,24.77,-1.00,-1.0,2371
4338,2139338,17024,-132,1164,17064.26,24.72,-1.00,-1.0,2437
4340,2139340,17020,24,1048,17052.25,24.67,-1.00,-1.0,2365
4343,2139343,16888,-40,1132,16925.94,24.62,-1.00,-1.0,2436
4346,2139346,17072,-40,1132,17109.54,24.77,-1.00,-1.0,2364
4348,2139348,16980,72,1212,17023.35,24.72,-1.00,-1.0,2437
4351,2139351,16916,-92,1052,16948.93,24.77,-1.00,-1.0,2364
4356,2139356,16972,-132,1052,17005.08,24.77,-1.00,-1.0,2444
4359,2139359,16936,12,1048,16968.40,24.77,-1.00,-1.0,2364
4362,2139362,17052,-112,1128,17089.63,24.67,-1.00,-1.0,2431
4364,2139364,16912,-72,1044,16944.35,24.67,-1.00,-1.0,2372
4367,2139367,16972,-56,1080,17006.42,24.77,-1.00,-1.0,2363
4370,2139370,16956,-80,1200,16998.60,24.72,-1.00,-1.0,2442
4372,2139372,17024,-72,1212,17067.24,24.67,-1.00,-1.0,2363
4375,2139375,16892,-76,1200,16934.74,24.77,-1.00,-1.0,2437
4378,2139378,16988,40,1004,17017.69,24.67,-1.00,-1.0,2372
4383,2139383,16996,16,1132,17033.66,24.67,-1.00,-1.0,2460
4386,2139386,16920,-36,1000,16949.56,24.72,-1.00,-1.0,2371
4389,2139389,17024,-32,1104,17059.79,24.67,-1.00,-1.0,2450
4391,2139391,16988,-44,1152,17027.07,24.62,-1.00,-1.0,2374
4394,2139394,17024,-120,1140,17062.55,24.77,-1.00,-1.0,2445
4397,2139397,16968,-16,976,16996.05,24.72,-1.00,-1.0,2372
4400,2139400,16992,-80,1220,17035.93,24.67,-1.00,-1.0,2451
4402,2139402,16960,-108,1156,16999.69,24.67,-1.00,-1.0,2374
4405,2139405,17032,-116,1132,17069.97,24.77,-1.00,-1.0,2362
4410,2139410,17024,8,1216,17067.38,24.67,-1.00,-1.0,2444
4413,2139413,16956,-116,1156,16995.76,24.81,-1.00,-1.0,2423
4416,2139416,17024,-116,1216,17067.77,24.67,-1.00,-1.0,2445
4418,2139418,17072,-12,1016,17102.21,24.67,-1.00,-1.0,2380
4421,2139421,16976,24,1100,17011.62,24.67,-1.00,-1.0,2429
4424,2139424,16968,-16,1176,17008.71,24.67,-1.00,-1.0,2372
4427,2139427,17012,-48,1064,17045.31,24.67,-1.00,-1.0,2429
4429,2139429,16976,-136,1028,17007.64,24.77,-1.00,-1.0,2382
4434,2139434,16916,-96,1112,16952.78,24.58,-1.00,-1.0,2437
4437,2139437,16996,-36,1048,17028.32,24.67,-1.00,-1.0,2366
4440,2139440,17020,-80,1228,17064.43,24.62,-1.00,-1.0,2436
4442,2139442,16904,-164,1268,16952.28,24.67,-1.00,-1.0,2374
4445,2139445,17088,-44,1148,17126.58,24.72,-1.00,-1.0,2360
4448,2139448,16948,-56,948,16974.59,24.81,-1.00,-1.0,2439
4450,2139450,17044,-188,1168,17085.01,24.62,-1.00,-1.0,2365
4453,2139453,16960,-24,1120,16996.96,24.72,-1.00,-1.0,2435
4456,2139456,17068,-28,1116,17104.47,24.77,-1.00,-1.0,2368
4461,2139461,16984,-128,1224,17028.53,24.67,-1.00,-1.0,2437
4464,2139464,17056,-124,1164,17096.12,24.77,-1.00,-1.0,2353
4467,2139467,17052,-48,1096,17087.25,24.72,-1.00,-1.0,2448
4469,2139469,17016,-136,1120,17053.36,24.77,-1.00,-1.0,2375
4472,2139472,16984,-100,1024,17015.13,24.77,-1.00,-1.0,2434
4475,2139475,17084,-92,1124,17121.18,24.77,-1.00,-1.0,2366
4478,2139478,17136,-84,1160,17175.42,24.72,-1.00,-1.0,2443
4480,2139480,17000,-88,1196,17042.25,24.67,-1.00,-1.0,2376
4483,2139483,16968,-136,1152,17007.61,24.72,-1.00,-1.0,2360
4488,2139488,17024,-192,1176,17065.65,24.72,-1.00,-1.0,2437
4491,2139491,16928,-116,1108,16964.62,24.72,-1.00,-1.0,2369
4494,2139494,16972,-164,1216,17016.30,24.72,-1.00,-1.0,2437
4496,2139496,16968,-100,1204,17010.96,24.72,-1.00,-1.0,2375
4499,2139499,17040,-172,1156,17080.03,24.72,-1.00,-1.0,2434
4502,2139502,17072,-212,1164,17112.95,24.72,-1.00,-1.0,2369
4505,2139505,17040,-188,1176,17081.57,24.62,-1.00,-1.0,2437
4507,2139507,17032,-104,984,17060.72,24.72,-1.00,-1.0,2374
4512,2139512,16964,-100,1084,16998.89,24.81,-1.00,-1.0,2448
4515,2139515,16940,-164,1144,16979.38,24.77,-1.00,-1.0,2381
4518,2139518,16936,-76,1156,16975.58,24.72,-1.00,-1.0,2439
4521,2139521,16992,-68,1112,17028.48,24.72,-1.00,-1.0,2373
4523,2139523,17148,-136,968,17175.84,24.72,-1.00,-1.0,2436
4526,2139526,16932,-156,1064,16966.12,24.77,-1.00,-1.0,2381
4529,2139529,17032,-144,1096,17067.83,24.72,-1.00,-1.0,2360
4531,2139531,16952,-48,1164,16991.98,24.67,-1.00,-1.0,2435
4534,2139534,16924,-144,1164,16964.59,24.67,-1.00,-1.0,2371
4539,2139539,16960,-52,1156,16999.43,24.77,-1.00,-1.0,2439
4542,2139542,17068,-184,1160,17108.36,24.67,-1.00,-1.0,2365
4545,2139545,17032,-164,1184,17073.89,24.77,-1.00,-1.0,2444
4547,2139547,16972,-116,1112,17008.79,24.67,-1.00,-1.0,2368
4550,2139550,16964,-148,1316,17015.61,24.67,-1.00,-1.0,2434
4553,2139553,16956,-84,1204,16998.90,24.77,-1.00,-1.0,2367
4556,2139556,16992,-116,1248,17038.16,24.67,-1.00,-1.0,2441
4558,2139558,16824,-112,1216,16868.26,24.77,-1.00,-1.0,2368
4564,2139564,16952,-60,1032,16983.49,24.62,-1.00,-1.0,2440
4566,2139566,16984,-76,1156,17023.46,24.62,-1.00,-1.0,2376
4569,2139569,16940,-16,1148,16978.86,24.72,-1.00,-1.0,2442
4572,2139572,17024,-104,1000,17053.66,24.72,-1.00,-1.0,2371
4574,2139574,16952,-48,936,16977.89,24.62,-1.00,-1.0,2348
4577,2139577,17004,-176,1156,17044.16,24.77,-1.00,-1.0,2432
4580,2139580,17060,-68,988,17088.72,24.72,-1.00,-1.0,2356
4583,2139583,17060,-84,1088,17094.87,24.77,-1.00,-1.0,2440
4585,2139585,17052,-60,1188,17093.44,24.62,-1.00,-1.0,2375
4590,2139590,16968,-188,1148,17007.83,24.72,-1.00,-1.0,2439
4593,2139593,17008,-92,1080,17042.50,24.67,-1.00,-1.0,2368
4596,2139596,17056,-176,1056,17089.57,24.72,-1.00,-1.0,2442
4598,2139598,16976,-124,1176,17017.14,24.67,-1.00,-1.0,2369
4601,2139601,17008,-108,1072,17042.09,24.72,-1.00,-1.0,2446
4604,2139604,16968,-108,1028,16999.46,24.77,-1.00,-1.0,2368
4607,2139607,17012,-196,980,17041.33,24.62,-1.00,-1.0,2439
4609,2139609,17076,-132,1112,17112.68,24.67,-1.00,-1.0,2367
4612,2139612,17028,-216,1104,17065.12,24.72,-1.00,-1.0,2368
4617,2139617,17004,-152,1120,17041.52,24.86,-1.00,-1.0,2446
4620,2139620,16908,-96,1064,16941.72,24.72,-1.00,-1.0,2371
4623,2139623,17008,-100,924,17033.38,24.77,-1.00,-1.0,2443
4625,2139625,17040,-56,952,17066.66,24.77,-1.00,-1.0,2421
4628,2139628,16900,-124,1068,16934.17,24.67,-1.00,-1.0,2441
4631,2139631,17072,-92,1040,17103.90,24.72,-1.00,-1.0,2388
4634,2139634,16940,-56,1100,16975.77,24.67,-1.00,-1.0,2430
4637,2139637,16912,-268,1184,16955.51,24.72,-1.00,-1.0,2377
4641,2139641,16940,-92,1160,16979.92,24.67,-1.00,-1.0,2447
4644,2139644,17028,-148,1236,17073.44,24.81,-1.00,-1.0,2382
4647,2139647,17072,-44,1148,17110.61,24.67,-1.00,-1.0,2438
4650,2139650,16968,-152,1128,17006.13,24.72,-1.00,-1.0,2373
4652,2139652,16912,-100,1092,16947.51,24.67,-1.00,-1.0,2424
4655,2139655,16992,-160,1172,17033.12,24.62,-1.00,-1.0,2383
4658,2139658,17052,-100,1084,17086.71,24.67,-1.00,-1.0,2361
4660,2139660,17072,-84,1156,17111.30,24.67,-1.00,-1.0,2433
4663,2139663,16964,-140,1140,17002.84,24.77,-1.00,-1.0,2374
4668,2139668,16944,-164,1280,16993.07,24.67,-1.00,-1.0,2446
4671,2139671,16984,-48,1120,17020.96,24.62,-1.00,-1.0,2373
4674,2139674,17024,-144,1192,17066.29,24.77,-1.00,-1.0,2437
4677,2139677,17032,-28,1048,17064.23,24.72,-1.00,-1.0,2375
4679,2139679,16888,-60,1148,16927.08,24.77,-1.00,-1.0,2442
4682,2139682,16984,-184,1024,17015.84,24.67,-1.00,-1.0,2373
4685,2139685,17004,-12,1032,17035.29,24.67,-1.00,-1.0,2421
4688,2139688,17044,-52,1092,17079.03,24.72,-1.00,-1.0,2367
4692,2139692,16992,-68,1056,17024.92,24.62,-1.00,-1.0,2438
4695,2139695,16956,-108,1184,16997.63,24.81,-1.00,-1.0,2367
4698,2139698,17052,-144,1196,17094.50,24.72,-1.00,-1.0,2371
4701,2139701,17080,-76,1184,17121.16,24.77,-1.00,-1.0,2453
4703,2139703,17000,-64,1108,17036.19,24.67,-1.00,-1.0,2371
4706,2139706,16988,-28,1012,17018.14,24.77,-1.00,-1.0,2446
4709,2139709,17104,-124,1040,17136.04,24.67,-1.00,-1.0,2372
4712,2139712,17044,-124,1156,17083.61,24.58,-1.00,-1.0,2443
4714,2139714,16948,-36,992,16977.04,24.72,-1.00,-1.0,2367
4719,2139719,17088,-36,1120,17124.70,24.67,-1.00,-1.0,2440
4722,2139722,16980,-148,1056,17013.45,24.67,-1.00,-1.0,2374
4725,2139725,17076,-104,1164,17115.94,24.67,-1.00,-1.0,2438
4728,2139728,17064,-60,1144,17102.41,24.77,-1.00,-1.0,2365
4730,2139730,17060,-76,1128,17097.42,24.72,-1.00,-1.0,2420
4733,2139733,17056,-132,1080,17090.67,24.77,-1.00,-1.0,2381
4736,2139736,17052,-80,1112,17088.41,24.77,-1.00,-1.0,2434
4739,2139739,17052,-40,1092,17086.98,24.67,-1.00,-1.0,2371
4741,2139741,17032,20,1164,17071.74,24.81,-1.00,-1.0,2361
4746,2139746,17052,-8,1060,17084.92,24.72,-1.00,-1.0,2438
4749,2139749,16976,-160,1116,17013.40,24.67,-1.00,-1.0,2369
4752,2139752,17088,-76,1136,17125.89,24.72,-1.00,-1.0,2437
4755,2139755,16948,8,1220,16991.86,24.72,-1.00,-1.0,2369
4757,2139757,17096,-40,1156,17135.09,24.72,-1.00,-1.0,2433
4760,2139760,16996,-112,1076,17030.39,24.67,-1.00,-1.0,2369
4763,2139763,17028,-8,1172,17068.29,24.72,-1.00,-1.0,2436
4766,2139766,16964,-72,960,16991.29,24.67,-1.00,-1.0,2371
4771,2139771,17112,-60,1052,17144.41,24.86,-1.00,-1.0,2437
4773,2139773,17052,-24,1012,17082.02,24.67,-1.00,-1.0,2367
4776,2139776,17024,4,1228,17068.23,24.77,-1.00,-1.0,2360
4779,2139779,16964,-8,1140,17002.26,24.62,-1.00,-1.0,2449
4781,2139781,17072,-56,1132,17109.58,24.72,-1.00,-1.0,2375
4784,2139784,16904,-72,1168,16944.46,24.72,-1.00,-1.0,2433
4787,2139787,17048,-76,1112,17084.40,24.67,-1.00,-1.0,2355
4790,2139790,16968,-8,1116,17004.66,24.72,-1.00,-1.0,2446
4792,2139792,16992,-44,1204,17034.66,24.77,-1.00,-1.0,2366
4797,2139797,16988,-64,1208,17031.02,24.67,-1.00,-1.0,2425
4800,2139800,17044,-96,1116,17080.77,24.72,-1.00,-1.0,2366
4803,2139803,17028,-52,1112,17064.35,24.77,-1.00,-1.0,2437
4806,2139806,17056,92,1236,17100.97,24.81,-1.00,-1.0,2368
4808,2139808,16948,-4,1280,16996.27,24.77,-1.00,-1.0,2432
4811,2139811,16948,-76,1208,16991.17,24.72,-1.00,-1.0,2366
4814,2139814,17060,-60,1052,17092.51,24.67,-1.00,-1.0,2367
4817,2139817,17040,-24,1260,17086.54,24.72,-1.00,-1.0,2444
4820,2139820,17020,24,1268,17067.19,24.67,-1.00,-1.0,2367
4824,2139824,17060,44,1020,17090.52,24.72,-1.00,-1.0,2446
4827,2139827,17004,48,1160,17043.59,24.81,-1.00,-1.0,2381
4830,2139830,16992,-8,1236,17036.90,24.62,-1.00,-1.0,2437
4833,2139833,17044,-52,1076,17078.01,24.91,-1.00,-1.0,2379
4835,2139835,16984,-24,1068,17017.56,24.72,-1.00,-1.0,2436
4838,2139838,16964,-36,1104,16999.92,24.72,-1.00,-1.0,2380
4841,2139841,16984,60,1148,17022.86,24.72,-1.00,-1.0,2436
4844,2139844,16936,48,1280,16984.37,24.81,-1.00,-1.0,2376
4847,2139847,16992,-4,1076,17026.04,24.72,-1.00,-1.0,2365
4851,2139851,16980,-84,1120,17017.11,24.72,-1.00,-1.0,2447
4854,2139854,17028,-32,1016,17058.31,24.81,-1.00,-1.0,2375
4857,2139857,17092,20,1192,17133.53,24.72,-1.00,-1.0,2423
4860,2139860,16976,-104,952,17002.99,24.72,-1.00,-1.0,2366
4862,2139862,17104,-104,1248,17149.79,24.72,-1.00,-1.0,2446
4865,2139865,16920,-52,1000,16949.61,24.62,-1.00,-1.0,2375
4868,2139868,16956,-20,1072,16989.87,24.72,-1.00,-1.0,2435
4871,2139871,17092,-8,1224,17135.77,24.72,-1.00,-1.0,2375
4876,2139876,17124,124,1120,17161.04,24.81,-1.00,-1.0,2444
4878,2139878,17084,28,1172,17124.18,24.72,-1.00,-1.0,2376
4881,2139881,16964,-40,1136,17002.04,24.86,-1.00,-1.0,2363
4884,2139884,16948,-32,1188,16989.62,24.77,-1.00,-1.0,2429
4886,2139886,17040,-64,1088,17074.82,24.67,-1.00,-1.0,2375
4889,2139889,16972,20,1044,17004.09,24.67,-1.00,-1.0,2434
4892,2139892,17024,-96,1052,17056.74,24.81,-1.00,-1.0,2367
4895,2139895,17064,-4,1160,17103.38,24.67,-1.00,-1.0,2434
4898,2139898,17008,-4,1040,17039.77,24.77,-1.00,-1.0,2370
4903,2139903,17000,64,1052,17032.64,24.81,-1.00,-1.0,2439
4905,2139905,16976,36,1000,17005.47,24.72,-1.00,-1.0,2372
4908,2139908,16972,-16,1116,17008.66,24.77,-1.00,-1.0,2430
4911,2139911,17064,80,1184,17105.21,24.72,-1.00,-1.0,2374
4914,2139914,17044,32,1144,17082.38,24.77,-1.00,-1.0,2441
4916,2139916,17032,-8,1040,17063.72,24.72,-1.00,-1.0,2371
4919,2139919,16984,24,1132,17021.70,24.77,-1.00,-1.0,2362
4922,2139922,16940,-8,1240,16985.32,24.67,-1.00,-1.0,2428
4925,2139925,17028,-16,1232,17072.52,24.77,-1.00,-1.0,2367
4930,2139930,16968,-80,1172,17008.62,24.77,-1.00,-1.0,2441
4932,2139932,17012,-56,1132,17049.71,24.77,-1.00,-1.0,2373
4935,2139935,17016,92,1180,17057.11,24.77,-1.00,-1.0,2442
4938,2139938,16940,0,1104,16975.94,24.77,-1.00,-1.0,2371
4941,2139941,17020,-28,1036,17051.52,24.67,-1.00,-1.0,2441
4943,2139943,16980,32,1196,17022.10,24.58,-1.00,-1.0,2373
4946,2139946,16952,-8,988,16980.77,24.77,-1.00,-1.0,2439
4949,2139949,17040,-44,1184,17081.14,24.77,-1.00,-1.0,2370
4952,2139952,16992,48,1120,17028.94,24.67,-1.00,-1.0,2361
4957,2139957,16980,-16,1232,17024.64,24.77,-1.00,-1.0,2438
4959,2139959,17040,-28,1100,17075.49,24.67,-1.00,-1.0,2375
4962,2139962,17004,16,1164,17043.80,24.67,-1.00,-1.0,2437
4965,2139965,17088,16,1100,17123.38,24.77,-1.00,-1.0,2367
4968,2139968,16992,8,1144,17030.47,24.72,-1.00,-1.0,2469
4970,2139970,17092,20,1148,17130.52,24.72,-1.00,-1.0,2365
4973,2139973,17060,-40,1172,17100.26,24.67,-1.00,-1.0,2450
4976,2139976,17036,56,1180,17076.91,24.67,-1.00,-1.0,2373
4981,2139981,17068,-24,1284,17116.25,24.72,-1.00,-1.0,2442
4984,2139984,17016,-8,1208,17058.83,24.72,-1.00,-1.0,2353
4986,2139986,17000,12,1168,17040.08,24.81,-1.00,-1.0,2361
4989,2139989,17076,-76,1156,17115.25,24.86,-1.00,-1.0,2442
4992,2139992,17012,104,1164,17052.09,24.72,-1.00,-1.0,2368
4995,2139995,17088,16,1116,17124.41,24.67,-1.00,-1.0,2430
4997,2139997,17048,-32,1168,17087.99,24.62,-1.00,-1.0,2365
5000,2140000,17008,0,1096,17043.28,24.72,-1.00,-1.0,2438
5003,2140003,16968,8,1084,17002.59,24.72,-1.00,-1.0,2367
5008,2140008,16972,-8,1112,17008.39,24.72,-1.00,-1.0,2441
5011,2140011,16944,60,1012,16974.30,24.77,-1.00,-1.0,2360
5013,2140013,17008,60,1248,17053.83,24.72,-1.00,-1.0,2443
5016,2140016,16900,-24,1252,16946.33,24.77,-1.00,-1.0,2369
5019,2140019,17000,-56,1132,17037.74,24.72,-1.00,-1.0,2361
5021,2140021,16984,68,1108,17020.24,24.72,-1.00,-1.0,2436
5024,2140024,17120,-72,1124,17157.01,24.72,-1.00,-1.0,2366
5027,2140027,16976,20,1024,17006.87,24.72,-1.00,-1.0,2435
5030,2140030,16944,12,1012,16974.20,24.67,-1.00,-1.0,2371
5035,2140035,16972,16,1008,17001.91,24.72,-1.00,-1.0,2462
5038,2140038,16976,0,1152,17015.04,24.72,-1.00,-1.0,2368
5041,2140041,17048,-56,1140,17086.17,24.72,-1.00,-1.0,2438
5044,2140044,16980,-12,1204,17022.64,24.77,-1.00,-1.0,2365
5046,2140046,16928,28,1000,16957.54,24.72,-1.00,-1.0,2436
5049,2140049,17096,-84,1208,17138.83,24.81,-1.00,-1.0,2354
5052,2140052,16968,64,1172,17008.55,24.72,-1.00,-1.0,2362
5054,2140054,16984,-68,988,17012.85,24.77,-1.00,-1.0,2434
5057,2140057,17040,84,1196,17082.13,24.72,-1.00,-1.0,2367
5062,2140062,16956,-52,1256,17002.54,24.77,-1.00,-1.0,2443
5065,2140065,17052,-36,1156,17091.18,24.72,-1.00,-1.0,2364
5067,2140067,16956,-4,1100,16991.64,24.77,-1.00,-1.0,2440
5070,2140070,17016,-20,1184,17057.15,24.72,-1.00,-1.0,2353
5073,2140073,17096,-104,1080,17130.39,24.77,-1.00,-1.0,2434
5076,2140076,17008,44,1172,17048.39,24.72,-1.00,-1.0,2364
5078,2140078,17048,24,1112,17084.24,24.67,-1.00,-1.0,2436
5081,2140081,17020,-56,1236,17064.91,24.72,-1.00,-1.0,2366
5084,2140084,16884,-100,1204,16927.17,24.67,-1.00,-1.0,2369
5089,2140089,17052,-84,1280,17100.18,24.77,-1.00,-1.0,2447
5091,2140091,16940,-8,1176,16980.77,24.67,-1.00,-1.0,2365
5094,2140094,16972,-16,1156,17011.33,24.77,-1.00,-1.0,2442
5097,2140097,17160,92,1188,17201.32,24.77,-1.00,-1.0,2365
5100,2140100,16964,32,1332,17016.24,24.67,-1.00,-1.0,2438
5102,2140102,16964,44,1204,17006.73,24.77,-1.00,-1.0,2365
5105,2140105,16992,-12,1140,17030.20,24.67,-1.00,-1.0,2439
5108,2140108,17052,44,1260,17098.54,24.77,-1.00,-1.0,2365
5113,2140113,17036,-28,1152,17074.93,24.72,-1.00,-1.0,2441
5116,2140116,16964,-16,1068,16997.59,24.72,-1.00,-1.0,2360
5118,2140118,17020,-60,1168,17060.13,24.67,-1.00,-1.0,2438
5121,2140121,17092,0,1388,17148.27,24.72,-1.00,-1.0,2368
5124,2140124,16984,0,1140,17022.22,24.67,-1.00,-1.0,2360
5126,2140126,17048,52,1188,17089.42,24.77,-1.00,-1.0,2436
5129,2140129,17032,40,1264,17078.88,24.67,-1.00,-1.0,2367
5132,2140132,16968,-8,1028,16999.11,24.67,-1.00,-1.0,2435
5135,2140135,17004,-24,1116,17040.60,24.53,-1.00,-1.0,2367
5140,2140140,16964,36,1172,17004.47,24.72,-1.00,-1.0,2448
5142,2140142,16996,-168,1124,17033.96,24.77,-1.00,-1.0,2366
5145,2140145,17008,36,1096,17043.31,24.72,-1.00,-1.0,2455
5148,2140148,17028,56,1080,17062.31,24.81,-1.00,-1.0,2373
5151,2140151,17052,72,1020,17082.63,24.62,-1.00,-1.0,2444
5154,2140154,17056,8,1108,17091.95,24.77,-1.00,-1.0,2365
5156,2140156,16940,-64,1100,16975.80,24.72,-1.00,-1.0,2363
5159,2140159,17056,4,1080,17090.16,24.77,-1.00,-1.0,2434
5162,2140162,17016,-16,1184,17057.15,24.67,-1.00,-1.0,2366
5167,2140167,16992,-56,1292,17041.14,24.81,-1.00,-1.0,2449
5170,2140170,17032,12,1212,17075.07,24.72,-1.00,-1.0,2367
5172,2140172,17084,-8,1044,17115.87,24.77,-1.00,-1.0,2450
5175,2140175,17040,-64,1164,17079.83,24.72,-1.00,-1.0,2373
5178,2140178,17044,-36,1164,17083.74,24.72,-1.00,-1.0,2423
5181,2140181,17036,36,1088,17070.74,24.72,-1.00,-1.0,2366
5183,2140183,17000,8,1184,17041.18,24.67,-1.00,-1.0,2449
5186,2140186,16956,-44,1148,16994.88,24.62,-1.00,-1.0,2373
5189,2140189,16944,-8,1060,16977.12,24.77,-1.00,-1.0,2416
5194,2140194,16932,-12,1260,16978.82,24.72,-1.00,-1.0,2450
5197,2140197,17020,-8,984,17048.42,24.72,-1.00,-1.0,2373
5200,2140200,17024,-156,1052,17057.19,24.81,-1.00,-1.0,2436
5202,2140202,16888,-52,1040,16920.07,24.72,-1.00,-1.0,2368
5205,2140205,17008,-76,1184,17049.33,24.62,-1.00,-1.0,2438
5208,2140208,17028,-32,1132,17065.62,24.81,-1.00,-1.0,2373
5211,2140211,17000,-52,972,17027.84,24.72,-1.00,-1.0,2436
5213,2140213,17056,60,1188,17097.43,24.72,-1.00,-1.0,2367
5218,2140218,16940,-48,1092,16975.23,24.62,-1.00,-1.0,2434
5221,2140221,16976,-72,920,17001.06,24.67,-1.00,-1.0,2367
5223,2140223,17072,-40,1140,17110.07,24.77,-1.00,-1.0,2361
5226,2140226,16992,-96,1204,17034.87,24.62,-1.00,-1.0,2439
5229,2140229,16960,-64,1036,16991.73,24.72,-1.00,-1.0,2367
5232,2140232,16980,-12,1180,17020.96,24.72,-1.00,-1.0,2444
5234,2140234,16932,-40,1116,16968.79,24.77,-1.00,-1.0,2366
5237,2140237,17008,-80,1004,17037.79,24.81,-1.00,-1.0,2439
5240,2140240,17048,-136,1008,17078.32,24.72,-1.00,-1.0,2367
5245,2140245,16928,-92,1100,16963.95,24.72,-1.00,-1.0,2449
5247,2140247,17076,-72,1124,17113.10,24.81,-1.00,-1.0,2354
5250,2140250,16956,-108,1220,17000.18,24.72,-1.00,-1.0,2437
5253,2140253,16996,-40,1000,17025.44,24.72,-1.00,-1.0,2367
5256,2140256,17028,4,1116,17064.53,24.81,-1.00,-1.0,2445
5258,2140258,16968,-84,1048,17000.54,24.72,-1.00,-1.0,2366
5261,2140261,17096,-124,1088,17131.04,24.72,-1.00,-1.0,2361
5264,2140264,16972,-20,1068,17005.58,24.67,-1.00,-1.0,2437
5267,2140267,16996,-116,1004,17026.02,24.72,-1.00,-1.0,2367
5272,2140272,17060,0,1172,17100.21,24.72,-1.00,-1.0,2454
5274,2140274,17120,-52,1192,17161.53,24.72,-1.00,-1.0,2351
5277,2140277,16976,-68,1160,17015.72,24.77,-1.00,-1.0,2440
5280,2140280,16968,-28,1096,17003.38,24.72,-1.00,-1.0,2366
5283,2140283,16996,-80,1228,17040.49,24.72,-1.00,-1.0,2445
5285,2140285,17000,-104,1128,17037.70,24.72,-1.00,-1.0,2365
5288,2140288,17080,-52,1132,17117.55,24.77,-1.00,-1.0,2439
5291,2140291,17064,-104,1052,17096.71,24.77,-1.00,-1.0,2366
5296,2140296,16896,-32,1044,16928.25,24.72,-1.00,-1.0,2446
5299,2140299,17000,-52,1120,17036.93,24.72,-1.00,-1.0,2365
5301,2140301,17000,-88,1216,17043.66,24.77,-1.00,-1.0,2363
5304,2140304,17008,-104,1008,17038.16,24.77,-1.00,-1.0,2454
5307,2140307,17000,-84,1184,17041.39,24.77,-1.00,-1.0,2375
5310,2140310,16952,-76,1172,16992.63,24.67,-1.00,-1.0,2450
5312,2140312,17052,-28,1124,17089.03,24.77,-1.00,-1.0,2366
5315,2140315,16948,-52,1216,16991.65,24.81,-1.00,-1.0,2447
5318,2140318,16924,-108,1144,16962.96,24.77,-1.00,-1.0,2365
5323,2140323,16928,8,1132,16965.81,24.77,-1.00,-1.0,2445
5326,2140326,17068,-112,1140,17106.40,24.77,-1.00,-1.0,2372
5329,2140329,17040,-132,1076,17074.45,24.77,-1.00,-1.0,2438
5331,2140331,17044,-68,1216,17087.46,24.77,-1.00,-1.0,2366
5334,2140334,16940,-116,1188,16982.00,24.67,-1.00,-1.0,2438
5337,2140337,16968,-104,1204,17010.98,24.77,-1.00,-1.0,2364
5339,2140339,16992,-204,1164,17033.04,24.77,-1.00,-1.0,2365
5342,2140342,17064,-28,1200,17106.16,24.81,-1.00,-1.0,2448
5345,2140345,16976,-80,1092,17011.27,24.77,-1.00,-1.0,2373
5350,2140350,16928,-100,1208,16971.34,24.67,-1.00,-1.0,2446
5353,2140353,17056,-172,1120,17093.60,24.77,-1.00,-1.0,2372
5356,2140356,16912,-28,1204,16954.83,24.72,-1.00,-1.0,2438
5358,2140358,17020,-136,1104,17056.31,24.67,-1.00,-1.0,2368
5361,2140361,16924,-136,1084,16959.22,24.67,-1.00,-1.0,2438
5364,2140364,17044,-184,1016,17075.25,24.77,-1.00,-1.0,2372
5367,2140367,16940,-140,1064,16973.96,24.77,-1.00,-1.0,2439
5369,2140369,16968,24,1232,17012.68,24.67,-1.00,-1.0,2366
5374,2140374,17068,-132,1220,17112.05,24.77,-1.00,-1.0,2446
5377,2140377,17076,-152,1148,17115.22,24.77,-1.00,-1.0,2365
5380,2140380,17048,-88,1148,17086.84,24.77,-1.00,-1.0,2445
5382,2140382,17048,-136,1180,17089.33,24.77,-1.00,-1.0,2365
5385,2140385,17044,-208,1096,17080.47,24.77,-1.00,-1.0,2362
5388,2140388,16988,-52,1056,17020.87,24.81,-1.00,-1.0,2445
5390,2140390,17080,-208,1060,17114.12,24.77,-1.00,-1.0,2352
5393,2140393,17052,-192,1052,17085.50,24.72,-1.00,-1.0,2473
5396,2140396,17076,-124,1140,17114.46,24.72,-1.00,-1.0,2367
5401,2140401,17000,-152,1000,17030.06,24.81,-1.00,-1.0,2455
5404,2140404,17032,-84,1216,17075.56,24.72,-1.00,-1.0,2364
5407,2140407,16940,-96,856,16961.88,24.77,-1.00,-1.0,2446
5409,2140409,17096,-52,1172,17136.21,24.72,-1.00,-1.0,2372
5412,2140412,17012,-124,1148,17051.14,24.67,-1.00,-1.0,2437
5415,2140415,16916,-72,1100,16951.88,24.81,-1.00,-1.0,2367
5418,2140418,17076,-56,1160,17115.45,24.67,-1.00,-1.0,2446
5420,2140420,16984,-200,1096,17020.50,24.81,-1.00,-1.0,2372
5426,2140426,17108,-176,1132,17146.31,24.72,-1.00,-1.0,2444
5428,2140428,17060,-128,1132,17097.99,24.77,-1.00,-1.0,2364
5431,2140431,16988,-136,1060,17021.58,24.72,-1.00,-1.0,2368
5434,2140434,16936,-124,1260,16983.26,24.77,-1.00,-1.0,2449
5436,2140436,17064,-24,1188,17105.32,24.72,-1.00,-1.0,2375
5439,2140439,16940,-140,1224,16984.74,24.77,-1.00,-1.0,2445
5442,2140442,17072,-56,1104,17107.75,24.72,-1.00,-1.0,2367
5445,2140445,17008,-36,1140,17046.20,24.67,-1.00,-1.0,2448
5447,2140447,17072,-60,1056,17104.73,24.72,-1.00,-1.0,2373
5452,2140452,16984,-112,1016,17014.73,24.77,-1.00,-1.0,2452
5455,2140455,16908,-8,1020,16938.74,24.77,-1.00,-1.0,2364
5458,2140458,16968,-48,1284,17016.58,24.77,-1.00,-1.0,2445
5460,2140460,17020,-100,1184,17061.43,24.77,-1.00,-1.0,2372
5463,2140463,17020,-24,1096,17055.27,24.77,-1.00,-1.0,2436
5466,2140466,17064,-80,1224,17108.03,24.77,-1.00,-1.0,2365
5468,2140468,17040,-108,1196,17082.26,24.67,-1.00,-1.0,2360
5471,2140471,17052,-56,1120,17088.83,24.77,-1.00,-1.0,2437
5474,2140474,17020,-112,1148,17059.04,24.67,-1.00,-1.0,2365
5479,2140479,17084,-160,1032,17115.89,24.72,-1.00,-1.0,2444
5482,2140482,17064,4,1064,17097.14,24.77,-1.00,-1.0,2364
5484,2140484,17000,-132,1076,17034.53,24.81,-1.00,-1.0,2437
5487,2140487,17044,24,1200,17086.21,24.86,-1.00,-1.0,2365
5490,2140490,16980,-116,1088,17015.22,24.72,-1.00,-1.0,2436
5493,2140493,17076,40,1164,17115.67,24.77,-1.00,-1.0,2364
5495,2140495,17080,8,1112,17116.16,24.72,-1.00,-1.0,2437
5498,2140498,16984,12,1140,17022.22,24.77,-1.00,-1.0,2352
5503,2140503,17016,-32,1252,17062.03,24.77,-1.00,-1.0,2443
5506,2140506,17028,-60,1148,17066.76,24.77,-1.00,-1.0,2364
5508,2140508,17020,-96,1096,17055.52,24.72,-1.00,-1.0,2360
5511,2140511,17056,-188,1060,17089.94,24.72,-1.00,-1.0,2437
5514,2140514,17032,-80,1116,17068.71,24.62,-1.00,-1.0,2365
5517,2140517,16984,-52,1124,17021.23,24.72,-1.00,-1.0,2442
5519,2140519,17012,-52,1132,17049.70,24.72,-1.00,-1.0,2363
5522,2140522,16908,-84,1236,16953.32,24.67,-1.00,-1.0,2442
5525,2140525,16952,-60,1176,16992.85,24.81,-1.00,-1.0,2365
5530,2140530,16932,12,1132,16969.80,24.62,-1.00,-1.0,2443
5533,2140533,17020,-100,1244,17065.70,24.72,-1.00,-1.0,2364
5536,2140536,16984,-24,1168,17024.13,24.72,-1.00,-1.0,2442
5538,2140538,16936,100,1160,16975.97,24.72,-1.00,-1.0,2367
5541,2140541,17036,24,1116,17072.53,24.81,-1.00,-1.0,2424
5544,2140544,17088,-88,1084,17122.57,24.72,-1.00,-1.0,2367
5546,2140546,17012,-56,1068,17045.58,24.72,-1.00,-1.0,2360
5549,2140549,16952,-44,1136,16990.08,24.77,-1.00,-1.0,2451
5552,2140552,16996,-124,948,17022.87,24.67,-1.00,-1.0,2366
5557,2140557,17032,16,1072,17065.71,24.72,-1.00,-1.0,2444
5560,2140560,16956,-8,1184,16997.29,24.81,-1.00,-1.0,2363
5563,2140563,17032,-48,1156,17071.25,24.81,-1.00,-1.0,2443
5565,2140565,17032,-132,1112,17068.77,24.72,-1.00,-1.0,2365
5568,2140568,17004,-60,1140,17042.28,24.72,-1.00,-1.0,2437
5571,2140571,16924,20,1036,16955.69,24.72,-1.00,-1.0,2364
5574,2140574,17020,-24,1160,17059.50,24.81,-1.00,-1.0,2444
5576,2140576,16992,-4,1052,17024.54,24.72,-1.00,-1.0,2364
5579,2140579,17004,4,1100,17039.54,24.67,-1.00,-1.0,2363
5584,2140584,16968,-104,1252,17014.45,24.77,-1.00,-1.0,2446
5587,2140587,17068,-156,928,17093.92,24.72,-1.00,-1.0,2364
5590,2140590,17020,-104,1192,17062.01,24.77,-1.00,-1.0,2439
5592,2140592,17020,-20,1192,17061.70,24.72,-1.00,-1.0,2365
5595,2140595,16996,-68,1196,17038.16,24.67,-1.00,-1.0,2438
5598,2140598,17048,-112,1052,17080.79,24.72,-1.00,-1.0,2364
5601,2140601,17016,-40,932,17041.55,24.67,-1.00,-1.0,2444
5603,2140603,17012,-16,1116,17048.57,24.72,-1.00,-1.0,2364
5608,2140608,16972,-148,1116,17009.29,24.81,-1.00,-1.0,2447
5611,2140611,16952,-68,1252,16998.31,24.72,-1.00,-1.0,2366
5614,2140614,17096,-40,1068,17129.37,24.62,-1.00,-1.0,2437
5617,2140617,16920,-116,1028,16951.60,24.72,-1.00,-1.0,2361
5619,2140619,16996,-20,1088,17030.80,24.81,-1.00,-1.0,2425
5622,2140622,17068,-88,1088,17102.87,24.95,-1.00,-1.0,2379
5625,2140625,16992,-100,1032,17023.60,24.81,-1.00,-1.0,2360
5627,2140627,17072,-68,1232,17116.53,24.77,-1.00,-1.0,2437
5630,2140630,16972,-132,944,16998.75,24.72,-1.00,-1.0,2372
5635,2140635,17012,-64,1128,17049.48,24.72,-1.00,-1.0,2454
5638,2140638,17052,-144,1016,17082.85,24.77,-1.00,-1.0,2371
5641,2140641,17032,-104,1104,17068.06,24.81,-1.00,-1.0,2445
5644,2140644,16988,-80,1192,17029.96,24.77,-1.00,-1.0,2365
5646,2140646,17044,28,1224,17087.92,24.72,-1.00,-1.0,2449
5649,2140649,17024,-96,1076,17058.24,24.77,-1.00,-1.0,2372
5652,2140652,17060,-52,1088,17094.74,24.81,-1.00,-1.0,2445
5655,2140655,17016,-92,1176,17056.84,24.72,-1.00,-1.0,2365
5659,2140659,17012,-60,1020,17042.66,24.72,-1.00,-1.0,2454
5662,2140662,16992,-56,1088,17026.89,24.72,-1.00,-1.0,2378
5665,2140665,17040,-76,996,17069.25,24.77,-1.00,-1.0,2360
5667,2140667,16948,20,1160,16987.66,24.77,-1.00,-1.0,2437
5670,2140670,17020,-136,1128,17057.88,24.77,-1.00,-1.0,2364
5673,2140673,16980,-72,1224,17024.21,24.67,-1.00,-1.0,2436
5676,2140676,16924,-12,1080,16958.43,24.67,-1.00,-1.0,2364
5678,2140678,16976,48,1132,17013.77,24.77,-1.00,-1.0,2437
5681,2140681,17048,-40,1176,17088.56,24.72,-1.00,-1.0,2352
5686,2140686,16988,20,1072,17021.80,24.77,-1.00,-1.0,2443
5689,2140689,16964,-128,1168,17004.64,24.77,-1.00,-1.0,2366
5692,2140692,17028,-44,1020,17058.58,24.67,-1.00,-1.0,2436
5694,2140694,16980,16,952,17006.67,24.86,-1.00,-1.0,2367
5697,2140697,17000,8,1140,17038.18,24.77,-1.00,-1.0,2361
5700,2140700,17076,-40,1068,17109.41,24.62,-1.00,-1.0,2442
5702,2140702,16880,-88,1060,16913.48,24.86,-1.00,-1.0,2365
5705,2140705,16988,-92,1060,17021.29,24.77,-1.00,-1.0,2436
5708,2140708,17020,56,1272,17067.56,24.67,-1.00,-1.0,2366
5713,2140713,17104,-52,1160,17143.37,24.77,-1.00,-1.0,2432
5716,2140716,17068,60,1008,17097.84,24.67,-1.00,-1.0,2367
5719,2140719,16876,-32,1144,16914.76,24.77,-1.00,-1.0,2436
5722,2140722,17028,-36,1180,17068.88,24.67,-1.00,-1.0,2363
5724,2140724,16976,-88,1116,17012.87,24.72,-1.00,-1.0,2461
5727,2140727,17092,-36,1092,17126.89,24.81,-1.00,-1.0,2366
5730,2140730,17048,-48,1100,17083.52,24.81,-1.00,-1.0,2438
5733,2140733,16996,-52,1028,17027.14,24.72,-1.00,-1.0,2372
5735,2140735,17104,-4,1204,17146.32,24.77,-1.00,-1.0,2360
5740,2140740,17024,-12,1160,17063.48,24.77,-1.00,-1.0,2446
5743,2140743,17072,8,1200,17114.12,24.77,-1.00,-1.0,2364
5746,2140746,17048,-28,1108,17083.99,24.81,-1.00,-1.0,2462
5749,2140749,17008,96,1020,17038.83,24.81,-1.00,-1.0,2366
5752,2140752,16976,-28,1148,17014.79,24.67,-1.00,-1.0,2452
5754,2140754,17052,16,1064,17085.17,24.72,-1.00,-1.0,2366
5757,2140757,17036,-16,1052,17068.46,24.67,-1.00,-1.0,2452
5760,2140760,16984,-48,1252,17030.15,24.81,-1.00,-1.0,2371
5765,2140765,16964,16,1248,17009.85,24.81,-1.00,-1.0,2444
5767,2140767,17008,-76,1272,17055.67,24.72,-1.00,-1.0,2364
5770,2140770,17048,-12,1212,17091.03,24.72,-1.00,-1.0,2368
5773,2140773,17100,-48,1156,17139.10,24.77,-1.00,-1.0,2448
5776,2140776,17028,44,1112,17064.33,24.67,-1.00,-1.0,2368
5778,2140778,17000,12,1212,17043.15,24.77,-1.00,-1.0,2445
5781,2140781,17052,-88,1144,17090.56,24.77,-1.00,-1.0,2371
5784,2140784,17024,16,1092,17058.99,24.67,-1.00,-1.0,2440
5787,2140787,17012,-24,1208,17054.85,24.77,-1.00,-1.0,2365
5792,2140792,17000,0,1208,17042.87,24.72,-1.00,-1.0,2442
5794,2140794,16956,-32,1216,16999.58,24.72,-1.00,-1.0,2364
5797,2140797,17112,-44,1092,17146.86,24.77,-1.00,-1.0,2439
5800,2140800,17020,-36,1184,17061.17,24.72,-1.00,-1.0,2371
5802,2140802,17016,12,1244,17061.42,24.77,-1.00,-1.0,2362
5805,2140805,16980,72,1084,17014.72,24.77,-1.00,-1.0,2447
5808,2140808,16936,12,1100,16971.69,24.77,-1.00,-1.0,2370
5811,2140811,16976,-32,1184,17017.27,24.77,-1.00,-1.0,2446
5813,2140813,17072,-12,1280,17119.92,24.77,-1.00,-1.0,2364
5818,2140818,16984,-72,1104,17020.00,24.77,-1.00,-1.0,2444
5821,2140821,16984,-128,1200,17026.82,24.72,-1.00,-1.0,2365
5824,2140824,16992,-104,1184,17033.52,24.77,-1.00,-1.0,2440
5827,2140827,16964,-52,1276,17012.00,24.72,-1.00,-1.0,2364
5830,2140830,16944,112,1236,16989.39,24.77,-1.00,-1.0,2438
5832,2140832,17048,72,1160,17087.57,24.81,-1.00,-1.0,2364
5835,2140835,17008,-88,1212,17051.36,24.77,-1.00,-1.0,2436
5838,2140838,17020,-64,1156,17059.33,24.81,-1.00,-1.0,2363
5841,2140841,17044,-56,1180,17084.89,24.77,-1.00,-1.0,2363
5846,2140846,16964,28,1216,17007.55,24.72,-1.00,-1.0,2449
5848,2140848,17032,0,1128,17069.31,24.72,-1.00,-1.0,2365
5851,2140851,17040,0,1092,17074.96,24.77,-1.00,-1.0,2441
5854,2140854,17044,-56,1180,17084.89,24.81,-1.00,-1.0,2363
5857,2140857,17028,-24,1176,17068.58,24.77,-1.00,-1.0,2443
5859,2140859,16880,-28,1200,16922.62,24.72,-1.00,-1.0,2365
5862,2140862,17100,8,1364,17154.32,24.67,-1.00,-1.0,2438
5865,2140865,16964,68,1120,17001.07,24.62,-1.00,-1.0,2363
5872,2140872,16832,-60,1180,16873.42,24.77,-1.00,-1.0,2448
5874,2140874,16948,-16,1080,16982.38,24.72,-1.00,-1.0,2365
5877,2140877,16912,52,1156,16951.54,24.77,-1.00,-1.0,2360
5880,2140880,17016,-52,1188,17057.50,24.67,-1.00,-1.0,2446
5882,2140882,17020,-44,1140,17058.19,24.77,-1.00,-1.0,2363
5885,2140885,16964,-8,1156,17003.34,24.77,-1.00,-1.0,2438
5888,2140888,17080,16,1204,17122.39,24.77,-1.00,-1.0,2367
5891,2140891,17052,24,1168,17091.97,24.77,-1.00,-1.0,2446
5893,2140893,17028,-16,972,17055.73,24.77,-1.00,-1.0,2363
5898,2140898,17000,-16,1128,17037.39,24.77,-1.00,-1.0,2442
5901,2140901,17008,0,1088,17042.76,24.77,-1.00,-1.0,2364
5904,2140904,16964,32,1212,17007.27,24.77,-1.00,-1.0,2447
5906,2140906,17036,-32,1156,17075.21,24.77,-1.00,-1.0,2364
5909,2140909,16980,-4,1156,17019.30,24.72,-1.00,-1.0,2375
5912,2140912,16888,-20,1112,16924.58,24.72,-1.00,-1.0,2438
5915,2140915,17056,-8,1076,17089.91,24.81,-1.00,-1.0,2370
5917,2140917,17048,-40,1208,17090.79,24.72,-1.00,-1.0,2447
5920,2140920,17000,-60,1040,17031.89,24.72,-1.00,-1.0,2379
5925,2140925,17096,16,1088,17130.59,24.77,-1.00,-1.0,2441
5928,2140928,16996,-28,1224,17040.04,24.77,-1.00,-1.0,2373
5931,2140931,17020,-8,1148,17058.67,24.72,-1.00,-1.0,2440
5933,2140933,17012,-24,1108,17048.06,24.77,-1.00,-1.0,2364
5936,2140936,16940,28,1096,16975.44,24.62,-1.00,-1.0,2438
5939,2140939,17032,-72,1008,17061.95,24.77,-1.00,-1.0,2372
5942,2140942,16988,-56,1188,17029.58,24.62,-1.00,-1.0,2436
5944,2140944,16984,32,1212,17027.22,24.77,-1.00,-1.0,2363
5947,2140947,17020,8,1204,17062.54,24.77,-1.00,-1.0,2366
5952,2140952,17020,-4,1196,17061.97,24.67,-1.00,-1.0,2449
5954,2140954,17140,20,1064,17173.00,24.77,-1.00,-1.0,2364
5957,2140957,17016,0,1036,17047.51,24.67,-1.00,-1.0,2444
5960,2140960,17056,20,1020,17086.48,24.77,-1.00,-1.0,2364
5963,2140963,16984,56,1084,17018.65,24.77,-1.00,-1.0,2444
5965,2140965,17012,8,1024,17042.79,24.77,-1.00,-1.0,2364
5968,2140968,17048,92,1168,17088.21,24.72,-1.00,-1.0,2438
5971,2140971,17120,8,1016,17150.12,24.77,-1.00,-1.0,2364
5973,2140973,17000,36,1172,17040.39,24.72,-1.00,-1.0,2360
5978,2140978,17068,-28,1180,17108.76,24.77,-1.00,-1.0,2442
5981,2140981,16992,0,1132,17029.66,24.77,-1.00,-1.0,2364
5984,2140984,16968,48,1140,17006.32,24.77,-1.00,-1.0,2440
5987,2140987,17004,-28,1180,17044.92,24.77,-1.00,-1.0,2363
5989,2140989,17068,-28,1104,17103.69,24.77,-1.00,-1.0,2438
5992,2140992,16976,-60,1148,17014.88,24.67,-1.00,-1.0,2365
5995,2140995,17028,-68,1108,17064.15,24.86,-1.00,-1.0,2436
5998,2140998,16900,100,1044,16932.51,24.77,-1.00,-1.0,2364
6003,2141003,16968,-36,1036,16999.64,24.72,-1.00,-1.0,2444
6005,2141005,17092,-52,1100,17127.44,24.72,-1.00,-1.0,2371
6008,2141008,16972,44,1200,17014.43,24.77,-1.00,-1.0,2449
6011,2141011,17060,32,1192,17101.62,24.72,-1.00,-1.0,2371
6013,2141013,16964,-28,1296,17013.46,24.77,-1.00,-1.0,2362
6016,2141016,16932,-40,1172,16972.56,24.77,-1.00,-1.0,2437
6019,2141019,16928,-92,1120,16965.26,24.77,-1.00,-1.0,2365
6022,2141022,17104,-60,964,17131.25,24.77,-1.00,-1.0,2436
6024,2141024,16924,0,1128,16961.55,24.86,-1.00,-1.0,2371
6029,2141029,17056,56,1224,17099.96,24.77,-1.00,-1.0,2444
6032,2141032,16976,-32,1160,17015.62,24.72,-1.00,-1.0,2364
6035,2141035,16916,-112,1212,16959.73,24.77,-1.00,-1.0,2446
6037,2141037,16988,40,1312,17038.63,24.72,-1.00,-1.0,2363
6040,2141040,16996,112,1064,17029.64,24.77,-1.00,-1.0,2451
6043,2141043,17132,-4,1132,17169.36,24.81,-1.00,-1.0,2365
6046,2141046,17008,-44,1212,17051.19,24.67,-1.00,-1.0,2363
6048,2141048,16976,-112,1160,17015.96,24.77,-1.00,-1.0,2438
6051,2141051,17000,28,1180,17040.93,24.86,-1.00,-1.0,2379
6056,2141056,17020,-168,1136,17058.70,24.67,-1.00,-1.0,2441
6059,2141059,17092,-24,1200,17134.09,24.72,-1.00,-1.0,2372
6062,2141062,16928,-60,1108,16964.33,24.77,-1.00,-1.0,2441
6064,2141064,16948,-32,1108,16984.21,24.72,-1.00,-1.0,2366
6067,2141067,17036,-64,1196,17078.05,24.77,-1.00,-1.0,2443
6070,2141070,16972,12,1068,17005.57,24.72,-1.00,-1.0,2371
6073,2141073,17016,-104,1148,17055.00,24.77,-1.00,-1.0,2437
6075,2141075,16992,-80,1052,17024.72,24.72,-1.00,-1.0,2365
6080,2141080,17052,88,1192,17093.84,24.86,-1.00,-1.0,2441
6083,2141083,17028,60,1276,17075.85,24.72,-1.00,-1.0,2372
6085,2141085,17044,-8,1132,17081.55,24.67,-1.00,-1.0,2369
6088,2141088,17048,-24,1120,17084.77,24.72,-1.00,-1.0,2448
6091,2141091,17028,-40,1048,17060.27,24.77,-1.00,-1.0,2353
6094,2141094,17052,-56,1004,17081.62,24.67,-1.00,-1.0,2447
6096,2141096,17112,-76,1184,17153.08,24.77,-1.00,-1.0,2372
6099,2141099,16956,-84,1140,16994.49,24.72,-1.00,-1.0,2446
6102,2141102,16964,-144,1024,16995.49,24.77,-1.00,-1.0,2373
6107,2141107,17040,-12,1056,17072.69,24.77,-1.00,-1.0,2448
6109,2141109,17148,-16,1080,17181.98,24.67,-1.00,-1.0,2367
6112,2141112,16924,-88,1172,16964.76,24.67,-1.00,-1.0,2436
6115,2141115,17060,-60,1072,17093.75,24.67,-1.00,-1.0,2372
6118,2141118,17028,-4,1028,17059.00,24.67,-1.00,-1.0,2447
6120,2141120,17064,-36,1108,17099.97,24.77,-1.00,-1.0,2368
6123,2141123,16908,-100,1080,16942.75,24.72,-1.00,-1.0,2360
6126,2141126,17016,0,996,17045.12,24.81,-1.00,-1.0,2431
6129,2141129,16936,-16,1220,16979.89,24.81,-1.00,-1.0,2422
