timestamp_ms,global_ms,accel_x,accel_y,accel_z,accel_mag,temp_c,voltage,soc,loop_us
2,2135002,17032,80,-640,17044.21,27.35,-1.00,-1.0,2487
5,2135005,17004,144,-912,17029.05,27.40,-1.00,-1.0,2378
8,2135008,17144,104,-368,17148.26,27.40,-1.00,-1.0,2375
11,2135011,16988,116,-540,16996.98,27.40,-1.00,-1.0,2373
14,2135014,16548,364,-392,16556.64,27.40,-1.00,-1.0,2376
17,2135017,17220,124,-164,17221.23,27.40,-1.00,-1.0,2366
20,2135020,17200,100,-924,17225.09,27.40,-1.00,-1.0,2369
23,2135023,16976,320,-532,16987.35,27.40,-1.00,-1.0,2366
26,2135026,17292,88,-472,17298.66,27.45,-1.00,-1.0,2368
29,2135029,16948,336,-936,16977.15,27.26,-1.00,-1.0,2365
32,2135032,16828,160,-500,16836.19,27.35,-1.00,-1.0,2368
35,2135035,17040,72,-764,17057.27,27.26,-1.00,-1.0,2360
38,2135038,17168,28,-784,17185.91,27.35,-1.00,-1.0,2368
41,2135041,17068,132,-612,17079.48,27.35,-1.00,-1.0,2365
44,2135044,17040,68,-584,17050.14,27.35,-1.00,-1.0,2363
47,2135047,16984,8,-768,17001.36,27.35,-1.00,-1.0,2361
50,2135050,17024,-20,-720,17039.23,27.35,-1.00,-1.0,2363
53,2135053,17020,160,-480,17027.52,27.35,-1.00,-1.0,2352
56,2135056,17104,192,-644,17117.20,27.35,-1.00,-1.0,2348
59,2135059,17064,124,-488,17071.43,27.45,-1.00,-1.0,2345
62,2135062,17092,172,-996,17121.86,27.45,-1.00,-1.0,2363
65,2135065,17016,208,-728,17032.84,27.35,-1.00,-1.0,2360
68,2135068,17080,-184,-736,17096.84,27.45,-1.00,-1.0,2363
71,2135071,17096,24,-800,17114.72,27.35,-1.00,-1.0,2359
74,2135074,17116,-512,96,17123.93,27.35,-1.00,-1.0,2361
77,2135077,17096,-372,-1104,17135.65,27.35,-1.00,-1.0,2357
80,2135080,17084,236,380,17089.86,27.35,-1.00,-1.0,2360
83,2135083,16908,132,-684,16922.34,27.35,-1.00,-1.0,2358
86,2135086,16944,-256,-292,16948.45,27.35,-1.00,-1.0,2360
89,2135089,16996,248,-532,17006.13,27.45,-1.00,-1.0,2358
92,2135092,17168,220,-432,17174.84,27.35,-1.00,-1.0,2361
95,2135095,17008,220,-464,17015.75,27.35,-1.00,-1.0,2359
98,2135098,17140,132,-580,17150.32,27.40,-1.00,-1.0,2360
101,2135101,17052,84,-540,17060.76,27.40,-1.00,-1.0,2358
104,2135104,17096,116,-808,17115.48,27.40,-1.00,-1.0,2360
107,2135107,16940,288,-924,16967.62,27.40,-1.00,-1.0,2358
110,2135110,16712,-364,-740,16732.34,27.40,-1.00,-1.0,2403
113,2135113,17112,136,-592,17122.78,27.40,-1.00,-1.0,2359
116,2135116,17552,116,-636,17563.90,27.40,-1.00,-1.0,2360
119,2135119,16844,212,-516,16853.23,27.40,-1.00,-1.0,2358
122,2135122,16968,424,-524,16981.38,27.40,-1.00,-1.0,2361
125,2135125,16972,8,40,16972.05,27.31,-1.00,-1.0,2358
128,2135128,16888,692,-220,16903.60,27.40,-1.00,-1.0,2360
131,2135131,17148,352,-708,17166.22,27.40,-1.00,-1.0,2357
134,2135134,17068,0,-604,17078.68,27.40,-1.00,-1.0,2360
137,2135137,17132,236,-420,17138.77,27.40,-1.00,-1.0,2357
140,2135140,17100,100,-832,17120.52,27.40,-1.00,-1.0,2347
143,2135143,16984,96,-340,16987.67,27.40,-1.00,-1.0,2344
146,2135146,17036,112,-652,17048.84,27.49,-1.00,-1.0,2360
149,2135149,17056,80,-592,17066.46,27.31,-1.00,-1.0,2358
152,2135152,17040,96,-428,17045.64,27.40,-1.00,-1.0,2360
155,2135155,16432,-172,-1708,16521.42,27.40,-1.00,-1.0,2357
158,2135158,17076,292,644,17090.63,27.31,-1.00,-1.0,2362
161,2135161,17248,-96,-1076,17281.80,27.40,-1.00,-1.0,2357
164,2135164,17500,56,-700,17514.08,27.35,-1.00,-1.0,2361
167,2135167,16832,80,-4,16832.19,27.35,-1.00,-1.0,2358
170,2135170,16816,108,-284,16818.74,27.45,-1.00,-1.0,2360
173,2135173,17124,264,-544,17134.67,27.45,-1.00,-1.0,2358
176,2135176,17072,212,-404,17078.10,27.45,-1.00,-1.0,2360
179,2135179,17096,72,-428,17101.51,27.35,-1.00,-1.0,2358
182,2135182,17008,116,-532,17016.71,27.45,-1.00,-1.0,2360
185,2135185,16916,144,-768,16934.04,27.35,-1.00,-1.0,2359
188,2135188,17168,172,-468,17175.24,27.45,-1.00,-1.0,2363
191,2135191,17100,136,-592,17110.79,27.35,-1.00,-1.0,2361
194,2135194,16928,-24,-380,16932.28,27.35,-1.00,-1.0,2362
197,2135197,17172,-36,-360,17175.81,27.45,-1.00,-1.0,2361
200,2135200,16948,48,-376,16952.24,27.35,-1.00,-1.0,2361
203,2135203,16956,116,-160,16957.15,27.45,-1.00,-1.0,2357
206,2135206,17024,208,-404,17030.06,27.45,-1.00,-1.0,2363
209,2135209,17164,332,-224,17168.67,27.35,-1.00,-1.0,2359
212,2135212,17172,340,-568,17184.76,27.35,-1.00,-1.0,2364
228,2135228,17148,212,-208,17150.57,27.31,-1.00,-1.0,2468
230,2135230,17144,84,-1036,17175.48,27.40,-1.00,-1.0,2366
233,2135233,16956,236,-792,16976.13,27.45,-1.00,-1.0,2361
236,2135236,17016,184,-472,17023.54,27.35,-1.00,-1.0,2361
238,2135238,16964,284,-336,16969.70,27.40,-1.00,-1.0,2363
241,2135241,16880,352,-396,16888.31,27.26,-1.00,-1.0,2360
243,2135243,17104,192,-52,17105.16,27.35,-1.00,-1.0,2360
246,2135246,17048,196,-688,17063.00,27.40,-1.00,-1.0,2366
248,2135248,17060,228,-448,17067.40,27.40,-1.00,-1.0,2368
251,2135251,16972,64,-588,16982.30,27.45,-1.00,-1.0,2347
253,2135253,17064,64,-336,17067.43,27.35,-1.00,-1.0,2360
256,2135256,16992,204,-516,17001.06,27.49,-1.00,-1.0,2359
259,2135259,17084,184,-464,17091.29,27.40,-1.00,-1.0,2356
261,2135261,16992,88,-492,16999.35,27.35,-1.00,-1.0,2360
264,2135264,17024,176,-300,17027.55,27.35,-1.00,-1.0,2360
266,2135266,16968,432,-500,16980.86,27.31,-1.00,-1.0,2361
269,2135269,17132,84,-556,17141.23,27.40,-1.00,-1.0,2361
271,2135271,17060,60,-516,17067.91,27.35,-1.00,-1.0,2362
274,2135274,16912,232,-648,16926.00,27.35,-1.00,-1.0,2360
277,2135277,17300,12,-464,17306.22,27.35,-1.00,-1.0,2360
279,2135279,17016,112,-664,17029.32,27.49,-1.00,-1.0,2367
282,2135282,17048,92,-168,17049.08,27.45,-1.00,-1.0,2360
284,2135284,17088,228,-524,17097.55,27.45,-1.00,-1.0,2360
287,2135287,17128,248,-596,17140.16,27.40,-1.00,-1.0,2366
289,2135289,16920,300,-188,16923.70,27.40,-1.00,-1.0,2367
292,2135292,17096,140,-596,17106.96,27.35,-1.00,-1.0,2347
294,2135294,17032,232,-392,17038.09,27.35,-1.00,-1.0,2360
297,2135297,17072,280,-436,17079.86,27.40,-1.00,-1.0,2367
300,2135300,17080,-72,-404,17084.93,27.40,-1.00,-1.0,2363
302,2135302,17136,124,-436,17141.99,27.45,-1.00,-1.0,2368
305,2135305,16980,304,-236,16984.36,27.35,-1.00,-1.0,2368
308,2135308,16996,144,-436,17002.20,27.45,-1.00,-1.0,2367
311,2135311,17048,192,-520,17057.01,27.45,-1.00,-1.0,2367
314,2135314,16916,52,-100,16916.38,27.45,-1.00,-1.0,2368
317,2135317,17056,64,-480,17062.87,27.35,-1.00,-1.0,2401
320,2135320,17228,196,0,17229.12,27.45,-1.00,-1.0,2363
323,2135323,16916,120,-872,16938.88,27.45,-1.00,-1.0,2362
326,2135326,17084,16,-156,17084.72,27.35,-1.00,-1.0,2362
329,2135329,17008,364,-520,17019.84,27.45,-1.00,-1.0,2348
332,2135332,17032,204,-1132,17070.79,27.35,-1.00,-1.0,2347
335,2135335,17132,80,-236,17133.81,27.35,-1.00,-1.0,2362
338,2135338,16892,416,-172,16898.00,27.35,-1.00,-1.0,2362
341,2135341,17008,56,-592,17018.39,27.35,-1.00,-1.0,2361
344,2135344,17292,240,-380,17297.84,27.35,-1.00,-1.0,2362
347,2135347,16976,116,-704,16990.99,27.35,-1.00,-1.0,2359
350,2135350,17040,344,-544,17052.15,27.35,-1.00,-1.0,2359
353,2135353,16908,180,-376,16913.14,27.35,-1.00,-1.0,2359
356,2135356,16972,240,-204,16974.92,27.35,-1.00,-1.0,2360
359,2135359,16872,104,-264,16874.39,27.35,-1.00,-1.0,2359
362,2135362,17004,184,-188,17006.04,27.35,-1.00,-1.0,2359
365,2135365,16896,216,-632,16909.20,27.35,-1.00,-1.0,2360
368,2135368,17176,392,-96,17180.74,27.35,-1.00,-1.0,2359
371,2135371,17060,336,-760,17080.22,27.35,-1.00,-1.0,2360
374,2135374,17036,264,-592,17048.33,27.35,-1.00,-1.0,2359
377,2135377,16940,280,-296,16944.90,27.26,-1.00,-1.0,2359
380,2135380,17132,56,-452,17138.05,27.45,-1.00,-1.0,2359
383,2135383,16812,32,-592,16822.45,27.35,-1.00,-1.0,2359
386,2135386,16988,292,296,16993.09,27.35,-1.00,-1.0,2359
389,2135389,16956,252,-692,16971.99,27.40,-1.00,-1.0,2359
392,2135392,16932,192,-260,16935.08,27.40,-1.00,-1.0,2359
395,2135395,17148,180,-536,17157.32,27.49,-1.00,-1.0,2359
398,2135398,17180,172,-380,17185.06,27.40,-1.00,-1.0,2359
401,2135401,17000,72,-392,17004.67,27.40,-1.00,-1.0,2359
404,2135404,17208,-64,-220,17209.53,27.40,-1.00,-1.0,2359
407,2135407,16360,64,-404,16365.11,27.49,-1.00,-1.0,2359
410,2135410,16452,16,372,16456.21,27.40,-1.00,-1.0,2359
413,2135413,16784,20,44,16784.07,27.40,-1.00,-1.0,2360
416,2135416,16152,464,-80,16158.86,27.49,-1.00,-1.0,2346
419,2135419,17644,-296,-464,17652.58,27.49,-1.00,-1.0,2346
422,2135422,16060,-132,-1372,16119.04,27.40,-1.00,-1.0,2359
425,2135425,17940,460,944,17970.71,27.40,-1.00,-1.0,2359
438,2135438,17560,256,-1012,17591.00,27.35,-1.00,-1.0,2460
440,2135440,17072,356,-420,17080.88,27.45,-1.00,-1.0,2365
443,2135443,17132,64,-416,17137.17,27.40,-1.00,-1.0,2403
446,2135446,17068,200,-84,17069.38,27.45,-1.00,-1.0,2361
448,2135448,17128,208,-268,17131.36,27.45,-1.00,-1.0,2367
451,2135451,16968,312,-528,16979.08,27.40,-1.00,-1.0,2359
453,2135453,16920,140,-324,16923.68,27.35,-1.00,-1.0,2359
456,2135456,16988,236,-216,16991.01,27.35,-1.00,-1.0,2366
458,2135458,17196,212,-272,17199.46,27.45,-1.00,-1.0,2366
461,2135461,17028,268,-608,17040.96,27.40,-1.00,-1.0,2359
463,2135463,17008,32,-436,17013.62,27.45,-1.00,-1.0,2360
466,2135466,17220,260,-292,17224.44,27.35,-1.00,-1.0,2367
469,2135469,17036,132,-532,17044.82,27.40,-1.00,-1.0,2363
471,2135471,17244,236,-312,17248.44,27.49,-1.00,-1.0,2359
474,2135474,17144,160,-376,17148.87,27.35,-1.00,-1.0,2367
476,2135476,17104,396,-464,17114.88,27.26,-1.00,-1.0,2369
479,2135479,17048,168,-464,17055.14,27.35,-1.00,-1.0,2396
482,2135482,17032,288,-260,17036.42,27.40,-1.00,-1.0,2367
484,2135484,17020,264,-772,17039.54,27.49,-1.00,-1.0,2359
487,2135487,17108,100,-384,17112.60,27.45,-1.00,-1.0,2360
489,2135489,17064,148,-124,17065.09,27.35,-1.00,-1.0,2361
492,2135492,16984,116,-428,16989.79,27.40,-1.00,-1.0,2362
495,2135495,17000,164,-304,17003.51,27.35,-1.00,-1.0,2364
498,2135498,17012,148,-232,17014.22,27.40,-1.00,-1.0,2365
501,2135501,16940,216,-296,16943.96,27.49,-1.00,-1.0,2365
504,2135504,16928,200,-312,16932.06,27.40,-1.00,-1.0,2365
507,2135507,16988,112,-312,16991.23,27.40,-1.00,-1.0,2369
510,2135510,17060,100,-344,17063.76,27.40,-1.00,-1.0,2365
513,2135513,17000,164,-152,17001.47,27.40,-1.00,-1.0,2367
516,2135516,17008,144,-280,17010.91,27.40,-1.00,-1.0,2372
519,2135519,17052,256,8,17053.92,27.49,-1.00,-1.0,2369
522,2135522,17032,116,-388,17036.81,27.49,-1.00,-1.0,2369
525,2135525,17180,280,24,17182.30,27.40,-1.00,-1.0,2368
528,2135528,17180,188,-264,17183.06,27.40,-1.00,-1.0,2364
531,2135531,17072,192,8,17073.08,27.40,-1.00,-1.0,2363
534,2135534,16956,68,-268,16958.25,27.40,-1.00,-1.0,2361
537,2135537,16792,64,76,16792.29,27.40,-1.00,-1.0,2361
540,2135540,16796,180,-156,16797.69,27.40,-1.00,-1.0,2362
543,2135543,17412,120,-152,17413.08,27.40,-1.00,-1.0,2360
546,2135546,17376,132,-516,17384.16,27.40,-1.00,-1.0,2362
549,2135549,17172,132,-564,17181.77,27.40,-1.00,-1.0,2362
552,2135552,17044,208,-324,17048.35,27.40,-1.00,-1.0,2359
555,2135555,16956,264,-344,16961.54,27.40,-1.00,-1.0,2362
558,2135558,17112,132,200,17113.68,27.40,-1.00,-1.0,2361
561,2135561,16860,144,-648,16873.06,27.49,-1.00,-1.0,2359
564,2135564,17016,144,96,17016.88,27.40,-1.00,-1.0,2360
567,2135567,16848,120,-304,16851.17,27.35,-1.00,-1.0,2361
570,2135570,16992,20,-188,16993.05,27.35,-1.00,-1.0,2360
573,2135573,17064,96,-348,17067.82,27.35,-1.00,-1.0,2359
576,2135576,16900,380,-268,16906.40,27.35,-1.00,-1.0,2359
579,2135579,16912,0,-168,16912.83,27.35,-1.00,-1.0,2359
582,2135582,15672,104,-36,15672.39,27.54,-1.00,-1.0,2360
585,2135585,17236,428,-36,17241.35,27.45,-1.00,-1.0,2359
588,2135588,16992,8,-1088,17026.80,27.45,-1.00,-1.0,2360
591,2135591,16904,-592,-408,16919.28,27.45,-1.00,-1.0,2359
594,2135594,17176,-668,-512,17196.61,27.45,-1.00,-1.0,2360
597,2135597,17544,444,-212,17550.90,27.45,-1.00,-1.0,2360
600,2135600,17116,-1396,-856,17194.16,27.45,-1.00,-1.0,2360
603,2135603,17280,1444,748,17356.35,27.35,-1.00,-1.0,2359
606,2135606,17344,756,-808,17379.26,27.35,-1.00,-1.0,2359
609,2135609,16948,136,-944,16974.81,27.35,-1.00,-1.0,2361
612,2135612,16976,556,-736,17001.04,27.35,-1.00,-1.0,2362
615,2135615,17964,-1284,-3664,18378.76,27.45,-1.00,-1.0,2359
618,2135618,17112,368,4456,17686.49,27.35,-1.00,-1.0,2359
621,2135621,16588,-820,-2152,16747.10,27.45,-1.00,-1.0,2359
624,2135624,14824,-4308,-24,15437.31,27.45,-1.00,-1.0,2359
627,2135627,16820,4472,800,17422.72,27.45,-1.00,-1.0,2359
630,2135630,18064,3044,-3180,18592.64,27.35,-1.00,-1.0,2359
633,2135633,18044,1592,-348,18117.44,27.40,-1.00,-1.0,2359
636,2135636,17372,372,92,17376.23,27.49,-1.00,-1.0,2359
648,2135648,17088,388,-544,17101.06,27.40,-1.00,-1.0,2460
650,2135650,16736,-208,-444,16743.18,27.40,-1.00,-1.0,2366
653,2135653,17268,-168,-100,17269.11,27.40,-1.00,-1.0,2360
656,2135656,16708,-88,-428,16713.71,27.45,-1.00,-1.0,2365
658,2135658,17400,644,-572,17421.31,27.35,-1.00,-1.0,2359
661,2135661,17792,520,8,17799.60,27.49,-1.00,-1.0,2359
663,2135663,17316,116,284,17318.72,27.40,-1.00,-1.0,2362
666,2135666,16856,148,-228,16858.19,27.35,-1.00,-1.0,2360
668,2135668,17220,280,-608,17233.01,27.40,-1.00,-1.0,2359
671,2135671,17028,184,-244,17030.74,27.40,-1.00,-1.0,2359
674,2135674,17216,256,-300,17220.52,27.45,-1.00,-1.0,2360
676,2135676,17172,140,-272,17174.72,27.45,-1.00,-1.0,2366
679,2135679,17168,220,-292,17171.89,27.31,-1.00,-1.0,2359
681,2135681,17168,48,-96,17168.34,27.31,-1.00,-1.0,2360
684,2135684,17028,76,-252,17030.03,27.45,-1.00,-1.0,2366
686,2135686,17080,56,-124,17080.54,27.45,-1.00,-1.0,2367
689,2135689,17172,-80,-208,17173.45,27.40,-1.00,-1.0,2359
691,2135691,16796,-60,-136,16796.66,27.49,-1.00,-1.0,2358
694,2135694,16992,56,-224,16993.57,27.45,-1.00,-1.0,2366
697,2135697,16852,-16,-280,16854.33,27.35,-1.00,-1.0,2359
699,2135699,17104,-24,-232,17105.59,27.40,-1.00,-1.0,2358
702,2135702,16972,-76,-300,16974.82,27.35,-1.00,-1.0,2362
705,2135705,17116,-4,-268,17118.10,27.45,-1.00,-1.0,2357
708,2135708,16932,-100,-248,16934.11,27.45,-1.00,-1.0,2354
711,2135711,17224,160,-196,17225.86,27.45,-1.00,-1.0,2370
714,2135714,17200,400,0,17204.65,27.45,-1.00,-1.0,2369
717,2135717,17112,64,-396,17116.70,27.35,-1.00,-1.0,2368
720,2135720,17180,216,-308,17184.12,27.35,-1.00,-1.0,2369
723,2135723,17300,112,-364,17304.19,27.45,-1.00,-1.0,2366
726,2135726,17092,84,-340,17095.59,27.26,-1.00,-1.0,2366
729,2135729,17000,-4,-1128,17037.38,27.45,-1.00,-1.0,2367
732,2135732,17244,88,388,17248.59,27.35,-1.00,-1.0,2365
735,2135735,16964,96,-768,16981.65,27.45,-1.00,-1.0,2367
738,2135738,16608,-220,-1360,16665.04,27.45,-1.00,-1.0,2368
741,2135741,16880,128,776,16898.31,27.45,-1.00,-1.0,2367
744,2135744,16928,-36,84,16928.25,27.35,-1.00,-1.0,2367
747,2135747,16928,-200,-328,16932.36,27.45,-1.00,-1.0,2367
750,2135750,16972,-372,88,16976.30,27.45,-1.00,-1.0,2368
753,2135753,16820,-244,-304,16824.52,27.45,-1.00,-1.0,2367
756,2135756,16756,-256,-744,16774.46,27.35,-1.00,-1.0,2363
759,2135759,17320,420,288,17327.48,27.45,-1.00,-1.0,2362
762,2135762,17156,92,-516,17164.00,27.45,-1.00,-1.0,2362
765,2135765,17128,116,-536,17136.78,27.40,-1.00,-1.0,2364
768,2135768,17152,-108,-152,17153.01,27.45,-1.00,-1.0,2349
771,2135771,16944,-60,-436,16949.71,27.45,-1.00,-1.0,2347
774,2135774,17056,216,-16,17057.38,27.40,-1.00,-1.0,2363
777,2135777,16304,-124,-1928,16418.07,27.40,-1.00,-1.0,2404
780,2135780,17816,600,864,17847.03,27.40,-1.00,-1.0,2359
783,2135783,17060,212,-360,17065.12,27.49,-1.00,-1.0,2361
786,2135786,17060,148,148,17061.28,27.40,-1.00,-1.0,2359
789,2135789,17192,120,-400,17197.07,27.40,-1.00,-1.0,2359
792,2135792,16996,148,-604,17007.37,27.40,-1.00,-1.0,2360
795,2135795,17052,84,-300,17054.85,27.40,-1.00,-1.0,2359
798,2135798,17080,140,-664,17093.47,27.40,-1.00,-1.0,2346
801,2135801,17052,160,-340,17056.14,27.40,-1.00,-1.0,2347
804,2135804,16620,332,-284,16625.74,27.40,-1.00,-1.0,2360
807,2135807,17192,104,68,17192.45,27.40,-1.00,-1.0,2362
810,2135810,17068,48,-132,17068.58,27.40,-1.00,-1.0,2361
813,2135813,17012,-144,-128,17013.09,27.40,-1.00,-1.0,2362
816,2135816,16888,-64,-64,16888.24,27.40,-1.00,-1.0,2359
819,2135819,17040,-132,-184,17041.50,27.40,-1.00,-1.0,2359
822,2135822,16940,32,32,16940.06,27.40,-1.00,-1.0,2361
825,2135825,17096,24,-280,17098.31,27.49,-1.00,-1.0,2361
828,2135828,17008,-72,-476,17014.81,27.31,-1.00,-1.0,2359
831,2135831,17144,256,-272,17148.07,27.40,-1.00,-1.0,2362
834,2135834,17132,112,-120,17132.79,27.45,-1.00,-1.0,2360
837,2135837,17188,176,-380,17193.10,27.45,-1.00,-1.0,2360
840,2135840,17008,72,-320,17011.16,27.45,-1.00,-1.0,2361
843,2135843,17260,124,-256,17262.34,27.45,-1.00,-1.0,2360
846,2135846,17200,68,-852,17221.22,27.45,-1.00,-1.0,2359
849,2135849,16992,0,-352,16995.65,27.45,-1.00,-1.0,2360
852,2135852,17048,-236,-832,17069.92,27.45,-1.00,-1.0,2360
864,2135864,17008,-144,-472,17015.16,27.35,-1.00,-1.0,2461
867,2135867,17192,-144,-256,17194.51,27.26,-1.00,-1.0,2363
869,2135869,16972,-120,-852,16993.79,27.45,-1.00,-1.0,2360
872,2135872,17148,228,-192,17150.59,27.40,-1.00,-1.0,2368
874,2135874,17080,60,-132,17080.62,27.40,-1.00,-1.0,2367
877,2135877,17116,76,-288,17118.59,27.35,-1.00,-1.0,2359
879,2135879,16904,120,-536,16912.92,27.45,-1.00,-1.0,2358
882,2135882,17040,12,-600,17050.56,27.40,-1.00,-1.0,2366
885,2135885,17096,24,-500,17103.33,27.45,-1.00,-1.0,2360
887,2135887,17088,60,-316,17091.03,27.35,-1.00,-1.0,2359
890,2135890,16988,24,-492,16995.14,27.49,-1.00,-1.0,2366
892,2135892,17180,44,-312,17182.89,27.40,-1.00,-1.0,2359
895,2135895,17016,56,-364,17019.98,27.45,-1.00,-1.0,2346
897,2135897,17072,-80,-436,17077.75,27.45,-1.00,-1.0,2358
900,2135900,17116,-68,-400,17120.81,27.45,-1.00,-1.0,2359
903,2135903,17224,-3672,-6692,18839.66,27.40,-1.00,-1.0,2359
905,2135905,16156,7112,5112,18377.42,27.45,-1.00,-1.0,2366
908,2135908,18956,1948,-1072,19085.96,27.45,-1.00,-1.0,2359
910,2135910,17180,-336,480,17189.99,27.40,-1.00,-1.0,2359
913,2135913,16920,-744,-1872,17039.49,27.40,-1.00,-1.0,2365
915,2135915,17220,-700,-296,17236.76,27.45,-1.00,-1.0,2367
918,2135918,16464,160,-556,16474.16,27.45,-1.00,-1.0,2359
921,2135921,17220,-16,28,17220.03,27.45,-1.00,-1.0,2359
924,2135924,17336,-32,-540,17344.44,27.35,-1.00,-1.0,2359
927,2135927,17048,64,-480,17054.88,27.40,-1.00,-1.0,2360
930,2135930,17156,124,-404,17161.21,27.31,-1.00,-1.0,2359
933,2135933,17116,68,-288,17118.56,27.40,-1.00,-1.0,2359
936,2135936,17096,-20,-320,17099.01,27.40,-1.00,-1.0,2359
939,2135939,17136,-32,-352,17139.64,27.31,-1.00,-1.0,2359
942,2135942,16988,32,-360,16991.84,27.40,-1.00,-1.0,2359
945,2135945,17132,-8,-256,17133.91,27.49,-1.00,-1.0,2359
948,2135948,17260,-36,-448,17265.85,27.40,-1.00,-1.0,2360
951,2135951,17088,44,-452,17094.03,27.49,-1.00,-1.0,2359
954,2135954,17096,-20,-364,17099.89,27.49,-1.00,-1.0,2359
957,2135957,17028,0,-488,17034.99,27.40,-1.00,-1.0,2359
960,2135960,17168,-40,-256,17169.96,27.49,-1.00,-1.0,2359
963,2135963,17100,52,-428,17105.43,27.49,-1.00,-1.0,2360
966,2135966,17020,-12,-316,17022.94,27.40,-1.00,-1.0,2359
969,2135969,17052,-68,-288,17054.57,27.45,-1.00,-1.0,2367
972,2135972,17056,8,-340,17059.39,27.45,-1.00,-1.0,2367
975,2135975,17092,44,-308,17094.83,27.45,-1.00,-1.0,2367
978,2135978,17028,-4,-192,17029.08,27.45,-1.00,-1.0,2367
981,2135981,17124,-72,-232,17125.72,27.45,-1.00,-1.0,2366
984,2135984,17020,-60,-320,17023.11,27.35,-1.00,-1.0,2367
987,2135987,16880,-152,-160,16881.44,27.45,-1.00,-1.0,2367
990,2135990,16912,-256,156,16914.66,27.45,-1.00,-1.0,2365
993,2135993,17168,-40,-492,17175.10,27.45,-1.00,-1.0,2366
996,2135996,17360,32,-288,17362.42,27.35,-1.00,-1.0,2366
999,2135999,17352,-16,400,17356.62,27.54,-1.00,-1.0,2375
1002,2136002,16924,-20,-752,16940.71,27.35,-1.00,-1.0,2375
1005,2136005,16884,-112,-692,16898.55,27.45,-1.00,-1.0,2372
1008,2136008,16944,-16,-220,16945.44,27.45,-1.00,-1.0,2373
1011,2136011,17004,-44,-168,17004.89,27.35,-1.00,-1.0,2372
1014,2136014,17036,-368,-440,17045.65,27.45,-1.00,-1.0,2375
1017,2136017,16908,-28,528,16916.27,27.35,-1.00,-1.0,2374
1020,2136020,15108,-2912,-2456,15580.86,27.45,-1.00,-1.0,2367
1023,2136023,9340,-3832,408,10103.78,27.35,-1.00,-1.0,2367
1026,2136026,8704,4140,-1896,9823.14,27.45,-1.00,-1.0,2367
1029,2136029,6940,-2496,656,7404.32,27.45,-1.00,-1.0,2367
1032,2136032,13588,-304,-552,13602.61,27.40,-1.00,-1.0,2367
1035,2136035,16744,-268,-144,16746.76,27.49,-1.00,-1.0,2366
1038,2136038,15856,1036,-292,15892.49,27.40,-1.00,-1.0,2367
1041,2136041,14828,220,-476,14837.27,27.40,-1.00,-1.0,2366
1044,2136044,15388,492,704,15411.95,27.40,-1.00,-1.0,2361
1047,2136047,17304,-72,-1012,17333.72,27.49,-1.00,-1.0,2361
1050,2136050,20096,876,480,20120.81,27.40,-1.00,-1.0,2361
1053,2136053,19948,456,-368,19956.61,27.40,-1.00,-1.0,2361
1056,2136056,20360,60,328,20362.73,27.49,-1.00,-1.0,2347
1059,2136059,20900,-464,-932,20925.91,27.49,-1.00,-1.0,2346
1062,2136062,21420,592,328,21430.69,27.40,-1.00,-1.0,2361
1074,2136074,18996,56,-552,19004.10,27.40,-1.00,-1.0,2462
1077,2136077,17664,24,-688,17677.41,27.45,-1.00,-1.0,2370
1079,2136079,17392,48,-636,17403.69,27.49,-1.00,-1.0,2357
1082,2136082,17528,-12,-768,17544.82,27.45,-1.00,-1.0,2358
1084,2136084,17260,-8,-464,17266.24,27.45,-1.00,-1.0,2352
1087,2136087,17328,80,-828,17347.96,27.40,-1.00,-1.0,2367
1090,2136090,17216,20,-468,17222.37,27.40,-1.00,-1.0,2355
1092,2136092,17224,116,-524,17232.36,27.45,-1.00,-1.0,2358
1095,2136095,17124,184,-464,17131.27,27.45,-1.00,-1.0,2367
1097,2136097,17296,248,-544,17306.33,27.49,-1.00,-1.0,2355
1100,2136100,15820,-404,-864,15848.73,27.31,-1.00,-1.0,2361
1102,2136102,15688,348,-540,15701.15,27.35,-1.00,-1.0,2354
1105,2136105,17368,-548,-48,17376.71,27.35,-1.00,-1.0,2359
1108,2136108,17316,1356,-928,17393.79,27.49,-1.00,-1.0,2356
1110,2136110,17260,-288,-96,17262.67,27.49,-1.00,-1.0,2353
1113,2136113,17296,-164,-656,17309.21,27.45,-1.00,-1.0,2360
1115,2136115,16736,176,84,16737.14,27.45,-1.00,-1.0,2353
1118,2136118,17200,-372,-616,17215.05,27.35,-1.00,-1.0,2366
1120,2136120,16720,-72,-164,16720.96,27.49,-1.00,-1.0,2361
1123,2136123,16176,468,-520,16191.12,27.35,-1.00,-1.0,2359
1125,2136125,16912,-112,-628,16924.03,27.45,-1.00,-1.0,2340
1128,2136128,17228,-8,-596,17238.31,27.54,-1.00,-1.0,2359
1131,2136131,17004,40,-612,17015.06,27.45,-1.00,-1.0,2359
1134,2136134,17192,-324,-420,17200.18,27.35,-1.00,-1.0,2359
1137,2136137,17568,-52,-728,17583.15,27.45,-1.00,-1.0,2359
1140,2136140,18632,-104,-572,18641.07,27.54,-1.00,-1.0,2359
1143,2136143,17508,96,-568,17517.47,27.35,-1.00,-1.0,2346
1146,2136146,17032,-16,-512,17039.70,27.45,-1.00,-1.0,2346
1149,2136149,17056,-36,-304,17058.75,27.45,-1.00,-1.0,2358
1152,2136152,17136,-200,-708,17151.79,27.45,-1.00,-1.0,2359
1155,2136155,17244,60,-320,17247.07,27.45,-1.00,-1.0,2353
1158,2136158,17320,48,-592,17330.18,27.35,-1.00,-1.0,2359
1161,2136161,16984,4,-524,16992.08,27.45,-1.00,-1.0,2353
1164,2136164,17096,36,-536,17104.44,27.45,-1.00,-1.0,2362
1167,2136167,17072,12,-616,17083.11,27.45,-1.00,-1.0,2353
1170,2136170,16808,28,-512,16815.82,27.49,-1.00,-1.0,2359
1173,2136173,16924,-88,-340,16927.64,27.40,-1.00,-1.0,2353
1176,2136176,16768,52,-524,16776.27,27.49,-1.00,-1.0,2359
1179,2136179,16708,104,-624,16719.97,27.31,-1.00,-1.0,2353
1182,2136182,16600,224,-672,16615.11,27.49,-1.00,-1.0,2359
1185,2136185,16352,192,-828,16374.08,27.40,-1.00,-1.0,2353
1188,2136188,16752,244,-488,16760.88,27.49,-1.00,-1.0,2360
1191,2136191,17136,180,-488,17143.89,27.49,-1.00,-1.0,2356
1194,2136194,17348,84,-800,17366.64,27.40,-1.00,-1.0,2360
1197,2136197,16924,-24,-576,16933.82,27.49,-1.00,-1.0,2355
1200,2136200,16520,384,-568,16534.22,27.49,-1.00,-1.0,2360
1203,2136203,16660,192,-1028,16692.79,27.49,-1.00,-1.0,2355
1206,2136206,16544,256,-380,16550.34,27.40,-1.00,-1.0,2360
1209,2136209,16916,-48,-804,16935.16,27.40,-1.00,-1.0,2356
1212,2136212,18520,-504,40,18526.90,27.49,-1.00,-1.0,2359
1215,2136215,19936,-1136,-668,19979.51,27.49,-1.00,-1.0,2354
1218,2136218,17276,-64,-1140,17313.69,27.49,-1.00,-1.0,2360
1221,2136221,16896,208,192,16898.37,27.40,-1.00,-1.0,2354
1224,2136224,16976,92,-464,16982.59,27.49,-1.00,-1.0,2362
1227,2136227,16996,136,76,16996.71,27.40,-1.00,-1.0,2356
1230,2136230,16860,68,-448,16866.09,27.40,-1.00,-1.0,2363
1233,2136233,17112,112,-420,17117.52,27.40,-1.00,-1.0,2359
1236,2136236,17004,76,-664,17017.13,27.45,-1.00,-1.0,2359
1239,2136239,16872,-60,-624,16883.64,27.45,-1.00,-1.0,2361
1242,2136242,17016,244,-312,17020.61,27.45,-1.00,-1.0,2362
1245,2136245,16888,604,136,16899.35,27.45,-1.00,-1.0,2358
1248,2136248,17096,564,612,17116.25,27.45,-1.00,-1.0,2362
1251,2136251,16868,48,-872,16890.59,27.45,-1.00,-1.0,2356
1254,2136254,17152,120,-1204,17194.62,27.45,-1.00,-1.0,2369
1257,2136257,16864,184,336,16868.35,27.45,-1.00,-1.0,2403
1260,2136260,17064,-76,-1316,17114.84,27.45,-1.00,-1.0,2370
1263,2136263,16804,132,-828,16824.90,27.45,-1.00,-1.0,2363
1266,2136266,17096,36,240,17097.72,27.45,-1.00,-1.0,2367
1269,2136269,17024,-272,-276,17028.41,27.45,-1.00,-1.0,2362
1272,2136272,17092,-240,-392,17098.18,27.45,-1.00,-1.0,2368
1284,2136284,17108,160,44,17108.80,27.45,-1.00,-1.0,2472
1287,2136287,17104,188,212,17106.35,27.45,-1.00,-1.0,2371
1290,2136290,17020,-588,-1652,17110.09,27.40,-1.00,-1.0,2360
1292,2136292,17704,-504,-1648,17787.68,27.40,-1.00,-1.0,2360
1295,2136295,17032,-188,-996,17062.13,27.45,-1.00,-1.0,2367
1297,2136297,17044,20,972,17071.71,27.49,-1.00,-1.0,2366
1300,2136300,17084,-104,-516,17092.11,27.49,-1.00,-1.0,2359
1302,2136302,17272,40,-208,17273.30,27.45,-1.00,-1.0,2359
1305,2136305,17184,44,-332,17187.26,27.45,-1.00,-1.0,2375
1308,2136308,16928,68,-92,16928.39,27.35,-1.00,-1.0,2360
1310,2136310,16764,288,-348,16770.08,27.49,-1.00,-1.0,2359
1313,2136313,17056,256,-136,17058.46,27.45,-1.00,-1.0,2369
1315,2136315,17132,144,-228,17134.12,27.40,-1.00,-1.0,2366
1318,2136318,16968,40,-436,16973.65,27.49,-1.00,-1.0,2346
1320,2136320,17084,452,-208,17091.24,27.49,-1.00,-1.0,2359
1323,2136323,16984,360,-556,16996.91,27.45,-1.00,-1.0,2360
1326,2136326,17112,432,564,17126.74,27.45,-1.00,-1.0,2357
1328,2136328,16992,760,-572,17018.60,27.49,-1.00,-1.0,2359
1331,2136331,17152,-68,252,17153.99,27.54,-1.00,-1.0,2360
1333,2136333,16924,592,772,16951.94,27.45,-1.00,-1.0,2361
1336,2136336,16952,452,-768,16975.41,27.40,-1.00,-1.0,2360
1338,2136338,16888,292,224,16892.01,27.40,-1.00,-1.0,2359
1341,2136341,17120,-164,-1308,17170.68,27.49,-1.00,-1.0,2361
1344,2136344,17468,-404,-624,17483.81,27.40,-1.00,-1.0,2363
1347,2136347,16984,232,-304,16988.30,27.40,-1.00,-1.0,2360
1350,2136350,17072,168,-468,17079.24,27.49,-1.00,-1.0,2359
1353,2136353,17304,200,336,17308.42,27.40,-1.00,-1.0,2359
1356,2136356,17048,236,-168,17050.46,27.49,-1.00,-1.0,2359
1359,2136359,17092,288,-984,17122.72,27.40,-1.00,-1.0,2359
1362,2136362,16888,652,564,16909.99,27.49,-1.00,-1.0,2359
1365,2136365,17140,-36,-492,17147.10,27.40,-1.00,-1.0,2358
1368,2136368,17488,-548,144,17497.18,27.49,-1.00,-1.0,2359
1371,2136371,17064,-168,-1324,17116.11,27.45,-1.00,-1.0,2359
1374,2136374,17160,16,-100,17160.30,27.45,-1.00,-1.0,2360
1377,2136377,17184,176,88,17185.13,27.45,-1.00,-1.0,2359
1380,2136380,17144,68,-336,17147.43,27.45,-1.00,-1.0,2359
1383,2136383,17096,140,192,17097.65,27.45,-1.00,-1.0,2359
1386,2136386,16940,512,160,16948.49,27.45,-1.00,-1.0,2359
1389,2136389,16760,316,160,16763.74,27.45,-1.00,-1.0,2359
1392,2136392,16892,144,548,16901.50,27.45,-1.00,-1.0,2359
1395,2136395,17316,136,-1076,17349.93,27.45,-1.00,-1.0,2359
1398,2136398,17308,-328,116,17311.50,27.45,-1.00,-1.0,2360
1401,2136401,17036,-236,-772,17055.12,27.54,-1.00,-1.0,2359
1404,2136404,17096,-80,-544,17104.84,27.45,-1.00,-1.0,2359
1407,2136407,17028,172,224,17030.34,27.45,-1.00,-1.0,2359
1410,2136410,17084,228,-40,17085.57,27.45,-1.00,-1.0,2359
1413,2136413,17116,132,24,17116.53,27.45,-1.00,-1.0,2359
1416,2136416,17128,220,-408,17134.27,27.45,-1.00,-1.0,2345
1419,2136419,17100,164,-100,17101.08,27.45,-1.00,-1.0,2346
1422,2136422,17196,100,136,17196.83,27.35,-1.00,-1.0,2359
1425,2136425,17060,200,508,17068.73,27.45,-1.00,-1.0,2360
1428,2136428,17184,212,-344,17188.75,27.35,-1.00,-1.0,2359
1431,2136431,16704,448,-1028,16741.60,27.45,-1.00,-1.0,2359
1434,2136434,16868,716,-340,16886.61,27.45,-1.00,-1.0,2359
1437,2136437,17340,324,564,17352.20,27.54,-1.00,-1.0,2362
1440,2136440,17128,528,-56,17136.23,27.45,-1.00,-1.0,2362
1443,2136443,16992,48,-884,17015.05,27.45,-1.00,-1.0,2359
1447,2136447,16508,1660,-360,16595.16,27.35,-1.00,-1.0,2359
1450,2136450,16516,928,-432,16547.69,27.45,-1.00,-1.0,2359
1453,2136453,13808,600,-1676,13922.28,27.45,-1.00,-1.0,2359
1456,2136456,-2540,6476,-5880,9108.49,27.45,-1.00,-1.0,2360
1459,2136459,6712,1036,-564,6814.86,27.45,-1.00,-1.0,2359
1462,2136462,16476,-4176,-4520,17587.72,27.40,-1.00,-1.0,2359
1465,2136465,21292,-1544,4796,21880.01,27.40,-1.00,-1.0,2359
1468,2136468,13548,-1396,-104,13620.13,27.49,-1.00,-1.0,2359
1471,2136471,17932,-932,-976,17982.71,27.40,-1.00,-1.0,2360
1474,2136474,20292,-936,2728,20495.94,27.49,-1.00,-1.0,2359
1477,2136477,20740,164,-1832,20821.40,27.40,-1.00,-1.0,2359
1480,2136480,20396,368,3284,20661.97,27.49,-1.00,-1.0,2359
1492,2136492,18692,1036,-648,18731.90,27.40,-1.00,-1.0,2446
1494,2136494,20012,-904,468,20037.87,27.40,-1.00,-1.0,2362
1497,2136497,19048,-384,-808,19069.00,27.49,-1.00,-1.0,2367
1499,2136499,18336,-412,1436,18396.76,27.45,-1.00,-1.0,2367
1502,2136502,17724,-308,-120,17727.08,27.54,-1.00,-1.0,2359
1504,2136504,17164,280,48,17166.35,27.40,-1.00,-1.0,2359
1507,2136507,17688,-360,572,17700.91,27.45,-1.00,-1.0,2366
1510,2136510,16996,60,-648,17008.46,27.45,-1.00,-1.0,2359
1512,2136512,17192,96,196,17193.38,27.49,-1.00,-1.0,2359
1515,2136515,16636,112,20,16636.39,27.49,-1.00,-1.0,2362
1517,2136517,17480,0,128,17480.47,27.45,-1.00,-1.0,2370
1520,2136520,18436,-336,-16,18439.07,27.35,-1.00,-1.0,2359
1522,2136522,18260,-100,-228,18261.70,27.64,-1.00,-1.0,2359
1525,2136525,17556,-8,116,17556.38,27.59,-1.00,-1.0,2360
1528,2136528,17388,160,128,17389.21,27.35,-1.00,-1.0,2362
1530,2136530,17472,-16,-252,17473.82,27.54,-1.00,-1.0,2359
1533,2136533,17524,0,-68,17524.13,27.49,-1.00,-1.0,2359
1535,2136535,17452,60,-284,17454.41,27.49,-1.00,-1.0,2362
1538,2136538,16880,44,-88,16880.29,27.45,-1.00,-1.0,2362
1540,2136540,16780,256,-412,16787.01,27.45,-1.00,-1.0,2359
1543,2136543,16856,48,-512,16863.84,27.49,-1.00,-1.0,2360
1546,2136546,17660,92,-524,17668.01,27.45,-1.00,-1.0,2360
1549,2136549,17148,324,-244,17152.80,27.45,-1.00,-1.0,2362
1552,2136552,16832,272,-344,16837.71,27.54,-1.00,-1.0,2363
1555,2136555,16576,308,-512,16586.77,27.35,-1.00,-1.0,2361
1558,2136558,16064,556,-276,16075.99,27.45,-1.00,-1.0,2362
1561,2136561,16336,404,-776,16359.41,27.35,-1.00,-1.0,2361
1564,2136564,15908,504,-28,15916.01,27.45,-1.00,-1.0,2360
1567,2136567,16440,112,-1108,16477.68,27.45,-1.00,-1.0,2360
1570,2136570,15964,560,-528,15982.54,27.49,-1.00,-1.0,2361
1573,2136573,16156,348,-208,16161.09,27.49,-1.00,-1.0,2359
1576,2136576,14684,688,-680,14715.83,27.49,-1.00,-1.0,2359
1579,2136579,13816,1644,-752,13933.78,27.49,-1.00,-1.0,2360
1582,2136582,15888,952,-192,15917.65,27.40,-1.00,-1.0,2359
1585,2136585,15808,628,-144,15821.12,27.49,-1.00,-1.0,2360
1588,2136588,15892,700,-656,15920.93,27.40,-1.00,-1.0,2402
1591,2136591,16388,564,-400,16402.58,27.49,-1.00,-1.0,2359
1594,2136594,18500,8,156,18500.66,27.49,-1.00,-1.0,2359
1597,2136597,16760,120,-1044,16792.91,27.40,-1.00,-1.0,2360
1600,2136600,16224,1624,180,16306.07,27.49,-1.00,-1.0,2359
1603,2136603,18680,560,-1164,18724.61,27.40,-1.00,-1.0,2359
1606,2136606,18952,640,1280,19005.96,27.40,-1.00,-1.0,2359
1609,2136609,19448,-860,-1276,19508.78,27.49,-1.00,-1.0,2358
1612,2136612,16972,720,1620,17064.34,27.49,-1.00,-1.0,2359
1615,2136615,17828,-592,-2752,18048.87,27.49,-1.00,-1.0,2361
1618,2136618,16352,968,468,16387.31,27.49,-1.00,-1.0,2359
1621,2136621,18976,-296,148,18978.88,27.49,-1.00,-1.0,2360
1624,2136624,18144,292,600,18156.27,27.49,-1.00,-1.0,2359
1627,2136627,16828,1192,-296,16872.76,27.40,-1.00,-1.0,2359
1630,2136630,19100,-504,684,19118.89,27.49,-1.00,-1.0,2359
1633,2136633,19616,-412,-228,19621.65,27.49,-1.00,-1.0,2359
1636,2136636,17640,492,1164,17685.21,27.49,-1.00,-1.0,2359
1639,2136639,16936,584,-868,16968.28,27.45,-1.00,-1.0,2359
1642,2136642,16808,296,348,16814.21,27.45,-1.00,-1.0,2359
1645,2136645,16808,652,32,16820.67,27.45,-1.00,-1.0,2359
1648,2136648,17712,-68,628,17723.26,27.54,-1.00,-1.0,2360
1651,2136651,17512,872,708,17547.99,27.54,-1.00,-1.0,2360
1654,2136654,17428,972,-1392,17510.50,27.45,-1.00,-1.0,2359
1657,2136657,17112,1020,116,17142.77,27.54,-1.00,-1.0,2360
1660,2136660,17812,212,-616,17823.91,27.54,-1.00,-1.0,2367
1663,2136663,18016,-304,344,18021.85,27.45,-1.00,-1.0,2366
1666,2136666,17000,404,-412,17009.79,27.54,-1.00,-1.0,2367
1669,2136669,17860,-408,200,17865.78,27.45,-1.00,-1.0,2367
1672,2136672,17460,300,-944,17488.07,27.45,-1.00,-1.0,2367
1675,2136675,17420,176,340,17424.21,27.45,-1.00,-1.0,2367
1678,2136678,17072,352,-112,17076.00,27.45,-1.00,-1.0,2367
1681,2136681,17024,244,-20,17025.76,27.35,-1.00,-1.0,2367
1684,2136684,17660,-144,-56,17660.68,27.45,-1.00,-1.0,2367
1687,2136687,17148,472,-556,17163.50,27.54,-1.00,-1.0,2367
1690,2136690,17468,212,-280,17471.53,27.45,-1.00,-1.0,2366
1702,2136702,17080,280,80,17082.48,27.45,-1.00,-1.0,2468
1704,2136704,17044,252,-320,17048.87,27.35,-1.00,-1.0,2357
1707,2136707,17060,356,332,17066.94,27.40,-1.00,-1.0,2368
1710,2136710,16996,200,-268,16999.29,27.40,-1.00,-1.0,2364
1712,2136712,17120,336,-248,17125.09,27.45,-1.00,-1.0,2354
1715,2136715,16484,16,696,16498.70,27.45,-1.00,-1.0,2366
1717,2136717,17112,520,-404,17124.67,27.49,-1.00,-1.0,2358
1720,2136720,16876,440,-436,16887.37,27.49,-1.00,-1.0,2361
1722,2136722,16980,468,-396,16991.06,27.54,-1.00,-1.0,2355
1725,2136725,16936,416,-204,16942.34,27.45,-1.00,-1.0,2358
1728,2136728,16932,368,-116,16936.40,27.40,-1.00,-1.0,2359
1730,2136730,17072,272,-252,17076.03,27.49,-1.00,-1.0,2347
1733,2136733,17168,544,-292,17179.10,27.54,-1.00,-1.0,2361
1735,2136735,17024,500,-232,17032.92,27.45,-1.00,-1.0,2354
1738,2136738,17220,504,-372,17231.39,27.49,-1.00,-1.0,2365
1740,2136740,17128,456,-68,17134.20,27.45,-1.00,-1.0,2360
1743,2136743,17192,496,-132,17199.66,27.45,-1.00,-1.0,2346
1745,2136745,17072,256,188,17074.96,27.45,-1.00,-1.0,2354
1748,2136748,17224,448,-296,17232.37,27.49,-1.00,-1.0,2358
1751,2136751,17044,344,-272,17049.64,27.40,-1.00,-1.0,2357
1753,2136753,17004,328,-132,17007.68,27.45,-1.00,-1.0,2359
1756,2136756,17028,404,-228,17034.32,27.49,-1.00,-1.0,2356
1759,2136759,17192,420,-128,17197.61,27.49,-1.00,-1.0,2362
1762,2136762,17236,352,-44,17239.65,27.40,-1.00,-1.0,2356
1765,2136765,17320,576,-24,17329.59,27.49,-1.00,-1.0,2364
1768,2136768,17164,420,68,17169.27,27.49,-1.00,-1.0,2357
1771,2136771,17104,476,-416,17115.68,27.49,-1.00,-1.0,2347
1774,2136774,17132,444,-68,17137.89,27.49,-1.00,-1.0,2342
1777,2136777,17020,408,-152,17025.57,27.45,-1.00,-1.0,2362
1780,2136780,17112,312,-96,17115.11,27.45,-1.00,-1.0,2357
1783,2136783,17104,368,-284,17110.32,27.45,-1.00,-1.0,2363
1786,2136786,17052,316,-176,17055.84,27.45,-1.00,-1.0,2357
1789,2136789,17040,304,-180,17043.66,27.45,-1.00,-1.0,2360
1792,2136792,17040,432,-228,17047.00,27.45,-1.00,-1.0,2354
1795,2136795,17088,416,-192,17094.14,27.35,-1.00,-1.0,2359
1798,2136798,17104,336,-136,17107.84,27.35,-1.00,-1.0,2354
1801,2136801,17060,300,-168,17063.46,27.45,-1.00,-1.0,2346
1804,2136804,17120,372,-156,17124.75,27.54,-1.00,-1.0,2342
1807,2136807,17088,364,-56,17091.97,27.45,-1.00,-1.0,2361
1810,2136810,17088,344,-168,17092.29,27.54,-1.00,-1.0,2356
1813,2136813,17124,536,-248,17134.18,27.45,-1.00,-1.0,2361
1816,2136816,16980,368,-208,16985.26,27.35,-1.00,-1.0,2355
1819,2136819,17076,432,-144,17082.07,27.54,-1.00,-1.0,2360
1822,2136822,17076,308,-128,17079.26,27.45,-1.00,-1.0,2356
1825,2136825,17204,452,-200,17211.10,27.45,-1.00,-1.0,2362
1828,2136828,17076,364,-112,17080.25,27.45,-1.00,-1.0,2357
1831,2136831,16972,340,-164,16976.20,27.35,-1.00,-1.0,2362
1834,2136834,16968,464,-184,16975.34,27.54,-1.00,-1.0,2358
1837,2136837,17100,292,-220,17103.91,27.49,-1.00,-1.0,2360
1840,2136840,17164,440,-276,17171.86,27.49,-1.00,-1.0,2355
1843,2136843,17084,328,-296,17089.71,27.49,-1.00,-1.0,2360
1846,2136846,16984,352,-132,16988.16,27.49,-1.00,-1.0,2355
1849,2136849,17088,412,-276,17095.19,27.49,-1.00,-1.0,2359
1852,2136852,17172,356,-180,17176.63,27.49,-1.00,-1.0,2353
1855,2136855,17120,376,-36,17124.17,27.40,-1.00,-1.0,2349
1858,2136858,17636,316,-212,17640.11,27.40,-1.00,-1.0,2343
1861,2136861,16464,632,-436,16481.89,27.49,-1.00,-1.0,2359
1864,2136864,17236,280,232,17239.84,27.40,-1.00,-1.0,2354
1867,2136867,17180,400,-392,17189.13,27.40,-1.00,-1.0,2359
1870,2136870,17092,508,-264,17101.59,27.49,-1.00,-1.0,2354
1873,2136873,17124,244,100,17126.03,27.49,-1.00,-1.0,2361
1876,2136876,17208,408,-144,17213.44,27.40,-1.00,-1.0,2354
1879,2136879,17036,472,-256,17044.46,27.49,-1.00,-1.0,2361
1882,2136882,17156,352,-116,17160.00,27.49,-1.00,-1.0,2354
1885,2136885,17008,448,-336,17017.22,27.49,-1.00,-1.0,2360
1888,2136888,17124,460,-60,17130.28,27.40,-1.00,-1.0,2354
1891,2136891,17128,328,-24,17131.16,27.40,-1.00,-1.0,2359
1894,2136894,16976,532,-340,16987.74,27.59,-1.00,-1.0,2354
1897,2136897,17092,344,-80,17095.65,27.49,-1.00,-1.0,2359
1900,2136900,16908,352,-28,16911.69,27.40,-1.00,-1.0,2354
1914,2136914,17036,404,-308,17043.57,27.49,-1.00,-1.0,2458
1917,2136917,17000,280,72,17002.46,27.49,-1.00,-1.0,2360
1920,2136920,16956,628,-596,16978.09,27.40,-1.00,-1.0,2360
1922,2136922,16884,764,-352,16904.94,27.35,-1.00,-1.0,2356
1925,2136925,17256,116,272,17258.53,27.49,-1.00,-1.0,2366
1927,2136927,17340,372,48,17344.06,27.40,-1.00,-1.0,2356
1930,2136930,17056,424,-160,17062.02,27.54,-1.00,-1.0,2361
1932,2136932,17068,456,960,17101.06,27.45,-1.00,-1.0,2353
1935,2136935,16876,448,-688,16895.96,27.54,-1.00,-1.0,2366
1938,2136938,17088,928,-1136,17150.84,27.49,-1.00,-1.0,2359
1940,2136940,17228,192,400,17233.71,27.54,-1.00,-1.0,2354
1943,2136943,16936,452,-1016,16972.47,27.54,-1.00,-1.0,2367
1945,2136945,17252,232,-332,17256.75,27.49,-1.00,-1.0,2362
1948,2136948,17016,264,-332,17021.29,27.49,-1.00,-1.0,2360
1950,2136950,17132,460,-84,17138.38,27.45,-1.00,-1.0,2354
1953,2136953,16932,412,-24,16937.03,27.54,-1.00,-1.0,2359
1956,2136956,17160,740,-264,17177.98,27.49,-1.00,-1.0,2359
1958,2136958,17096,508,-152,17104.22,27.49,-1.00,-1.0,2359
1961,2136961,17192,544,552,17209.46,27.45,-1.00,-1.0,2354
1963,2136963,17288,524,-840,17316.33,27.45,-1.00,-1.0,2361
1966,2136966,17208,44,356,17211.74,27.49,-1.00,-1.0,2361
1968,2136968,17184,516,-172,17192.61,27.40,-1.00,-1.0,2361
1971,2136971,17164,500,-172,17172.14,27.45,-1.00,-1.0,2354
1973,2136973,16892,396,-184,16897.64,27.45,-1.00,-1.0,2361
1976,2136976,17084,324,36,17087.11,27.49,-1.00,-1.0,2369
1979,2136979,17124,460,-36,17130.21,27.40,-1.00,-1.0,2359
1981,2136981,16976,492,-64,16983.25,27.45,-1.00,-1.0,2353
1984,2136984,17032,384,-84,17036.54,27.45,-1.00,-1.0,2366
1987,2136987,17332,416,-528,17345.03,27.45,-1.00,-1.0,2367
1990,2136990,16860,-140,1108,16896.95,27.45,-1.00,-1.0,2367
1993,2136993,16816,876,-1256,16885.58,27.49,-1.00,-1.0,2367
1996,2136996,17480,280,772,17499.28,27.40,-1.00,-1.0,2367
1999,2136999,16644,576,-168,16654.81,27.40,-1.00,-1.0,2374
2002,2137002,16820,620,16,16831.43,27.49,-1.00,-1.0,2374
2005,2137005,16452,508,-268,16462.02,27.49,-1.00,-1.0,2373
2008,2137008,17516,552,-552,17533.39,27.49,-1.00,-1.0,2374
2011,2137011,16652,436,-96,16657.98,27.49,-1.00,-1.0,2372
2014,2137014,16228,632,40,16240.35,27.49,-1.00,-1.0,2374
2017,2137017,15096,848,-132,15120.38,27.59,-1.00,-1.0,2374
2020,2137020,15024,920,-124,15052.65,27.45,-1.00,-1.0,2402
2023,2137023,15276,908,80,15303.17,27.40,-1.00,-1.0,2369
2026,2137026,14240,676,-812,14279.14,27.49,-1.00,-1.0,2367
2029,2137029,11264,784,-672,11311.23,27.40,-1.00,-1.0,2367
2032,2137032,13708,1032,-272,13749.48,27.49,-1.00,-1.0,2367
2035,2137035,19000,76,684,19012.46,27.45,-1.00,-1.0,2367
2038,2137038,21668,-680,1304,21717.85,27.54,-1.00,-1.0,2368
2041,2137041,17140,492,-132,17147.57,27.35,-1.00,-1.0,2366
2044,2137044,12960,868,-1036,13030.29,27.45,-1.00,-1.0,2362
2047,2137047,15664,1016,-228,15698.57,27.54,-1.00,-1.0,2362
2050,2137050,17588,168,624,17599.87,27.45,-1.00,-1.0,2362
2053,2137053,25688,-1588,-208,25737.88,27.45,-1.00,-1.0,2362
2056,2137056,21364,-992,492,21392.68,27.45,-1.00,-1.0,2347
2059,2137059,19176,236,-840,19195.84,27.54,-1.00,-1.0,2347
2062,2137062,17964,-104,280,17966.48,27.45,-1.00,-1.0,2362
2065,2137065,17236,564,-356,17248.90,27.45,-1.00,-1.0,2362
2068,2137068,17416,372,16,17419.98,27.45,-1.00,-1.0,2359
2071,2137071,17232,500,-132,17239.76,27.45,-1.00,-1.0,2361
2074,2137074,17212,484,24,17218.82,27.45,-1.00,-1.0,2359
2077,2137077,17124,376,-244,17129.87,27.45,-1.00,-1.0,2359
2080,2137080,17252,344,100,17255.72,27.64,-1.00,-1.0,2360
2083,2137083,17112,452,-88,17118.20,27.45,-1.00,-1.0,2359
2086,2137086,17020,572,-44,17029.67,27.45,-1.00,-1.0,2360
2089,2137089,17164,412,68,17169.08,27.45,-1.00,-1.0,2359
2092,2137092,17252,328,-88,17255.34,27.45,-1.00,-1.0,2359
2095,2137095,17156,396,-108,17160.91,27.54,-1.00,-1.0,2355
2098,2137098,16928,472,-160,16935.33,27.45,-1.00,-1.0,2359
2101,2137101,17104,344,-20,17107.47,27.54,-1.00,-1.0,2354
2104,2137104,17028,468,20,17034.44,27.45,-1.00,-1.0,2359
2107,2137107,16972,428,-128,16977.88,27.35,-1.00,-1.0,2355
2110,2137110,17072,448,4,17077.88,27.49,-1.00,-1.0,2359
2122,2137122,17104,492,-28,17111.10,27.54,-1.00,-1.0,2470
2125,2137125,17032,356,-64,17035.84,27.54,-1.00,-1.0,2362
2128,2137128,16980,504,-96,16987.75,27.49,-1.00,-1.0,2364
2130,2137130,16972,520,-128,16980.45,27.40,-1.00,-1.0,2354
2133,2137133,17096,380,-200,17101.39,27.45,-1.00,-1.0,2367
2135,2137135,17252,304,-84,17254.88,27.45,-1.00,-1.0,2362
2138,2137138,17000,484,-44,17006.95,27.45,-1.00,-1.0,2359
2140,2137140,17256,348,-12,17259.51,27.59,-1.00,-1.0,2354
2143,2137143,16900,356,36,16903.79,27.45,-1.00,-1.0,2367
2146,2137146,16860,576,80,16870.03,27.45,-1.00,-1.0,2362
2148,2137148,16860,700,-84,16874.73,27.40,-1.00,-1.0,2354
2151,2137151,17356,380,104,17360.47,27.49,-1.00,-1.0,2367
2153,2137153,17204,352,-264,17209.62,27.45,-1.00,-1.0,2356
2156,2137156,17272,440,-56,17277.69,27.49,-1.00,-1.0,2403
2159,2137159,17292,504,-12,17299.35,27.45,-1.00,-1.0,2360
2161,2137161,17288,512,-32,17295.61,27.40,-1.00,-1.0,2359
2164,2137164,17212,368,-44,17215.99,27.49,-1.00,-1.0,2354
2166,2137166,17164,520,-144,17172.48,27.54,-1.00,-1.0,2363
2169,2137169,17032,380,176,17037.15,27.45,-1.00,-1.0,2357
2171,2137171,17020,540,-216,17029.93,27.49,-1.00,-1.0,2362
2174,2137174,16968,504,68,16975.62,27.40,-1.00,-1.0,2354
2177,2137177,17060,396,40,17064.64,27.54,-1.00,-1.0,2359
2179,2137179,16960,440,-60,16965.81,27.54,-1.00,-1.0,2354
2182,2137182,16768,484,372,16779.11,27.54,-1.00,-1.0,2360
2185,2137185,17228,372,-216,17233.37,27.45,-1.00,-1.0,2354
2188,2137188,17076,184,32,17077.02,27.54,-1.00,-1.0,2363
2191,2137191,17016,584,-104,17026.34,27.54,-1.00,-1.0,2354
2194,2137194,17028,224,236,17031.11,27.54,-1.00,-1.0,2362
2197,2137197,16924,588,-124,16934.67,27.45,-1.00,-1.0,2357
2200,2137200,17016,484,172,17023.75,27.35,-1.00,-1.0,2362
2203,2137203,17064,464,148,17070.95,27.45,-1.00,-1.0,2357
2206,2137206,17028,552,-32,17036.97,27.45,-1.00,-1.0,2362
2209,2137209,16808,484,76,16815.14,27.45,-1.00,-1.0,2354
2212,2137212,16340,672,0,16353.81,27.45,-1.00,-1.0,2360
2215,2137215,16076,644,-240,16090.68,27.35,-1.00,-1.0,2356
2218,2137218,16252,504,132,16260.35,27.45,-1.00,-1.0,2361
2221,2137221,17064,84,-104,17064.52,27.45,-1.00,-1.0,2357
2224,2137224,16968,300,-56,16970.74,27.45,-1.00,-1.0,2360
2227,2137227,17388,280,16,17390.26,27.45,-1.00,-1.0,2355
2230,2137230,17304,344,-156,17308.12,27.45,-1.00,-1.0,2362
2233,2137233,17384,456,-124,17390.42,27.45,-1.00,-1.0,2360
2236,2137236,16812,400,68,16816.89,27.45,-1.00,-1.0,2360
2239,2137239,16660,508,0,16667.74,27.54,-1.00,-1.0,2356
2242,2137242,16592,500,-168,16600.38,27.49,-1.00,-1.0,2363
2245,2137245,16936,528,8,16944.23,27.49,-1.00,-1.0,2359
2248,2137248,17340,420,280,17347.35,27.49,-1.00,-1.0,2362
2251,2137251,17560,376,152,17564.68,27.49,-1.00,-1.0,2356
2254,2137254,17292,324,120,17295.45,27.40,-1.00,-1.0,2367
2257,2137257,17744,320,336,17750.07,27.49,-1.00,-1.0,2366
2260,2137260,17460,432,64,17465.46,27.31,-1.00,-1.0,2370
2263,2137263,17688,432,172,17694.11,27.49,-1.00,-1.0,2363
2266,2137266,17312,388,52,17316.43,27.40,-1.00,-1.0,2369
2269,2137269,17428,428,-12,17433.26,27.49,-1.00,-1.0,2363
2272,2137272,17340,544,32,17348.56,27.49,-1.00,-1.0,2370
2275,2137275,17140,404,52,17144.84,27.40,-1.00,-1.0,2364
2278,2137278,16968,468,-56,16974.54,27.49,-1.00,-1.0,2367
2281,2137281,17200,312,212,17204.14,27.49,-1.00,-1.0,2361
2284,2137284,17240,564,4,17249.22,27.49,-1.00,-1.0,2367
2287,2137287,17020,408,-64,17025.01,27.40,-1.00,-1.0,2362
2290,2137290,17016,436,-96,17021.86,27.49,-1.00,-1.0,2367
2293,2137293,17264,316,96,17267.16,27.40,-1.00,-1.0,2361
2296,2137296,17172,468,-212,17179.68,27.40,-1.00,-1.0,2366
2299,2137299,17172,452,44,17178.00,27.59,-1.00,-1.0,2362
2302,2137302,17100,500,-188,17108.34,27.45,-1.00,-1.0,2367
2305,2137305,17148,368,-44,17152.00,27.45,-1.00,-1.0,2362
2308,2137308,17240,524,-32,17247.99,27.45,-1.00,-1.0,2367
2311,2137311,17096,532,-12,17104.28,27.45,-1.00,-1.0,2361
2314,2137314,17028,340,148,17032.04,27.54,-1.00,-1.0,2367
2317,2137317,17088,444,16,17093.78,27.35,-1.00,-1.0,2362
2320,2137320,16900,504,108,16907.86,27.54,-1.00,-1.0,2362
2333,2137333,17020,300,100,17022.94,27.49,-1.00,-1.0,2467
2336,2137336,16828,520,-104,16836.35,27.49,-1.00,-1.0,2362
2338,2137338,16732,540,-16,16740.72,27.45,-1.00,-1.0,2347
2341,2137341,16396,672,20,16409.78,27.45,-1.00,-1.0,2361
2343,2137343,16312,684,-288,16328.88,27.49,-1.00,-1.0,2354
2346,2137346,16752,376,52,16756.30,27.54,-1.00,-1.0,2403
2348,2137348,16968,600,-204,16979.83,27.40,-1.00,-1.0,2355
2351,2137351,16364,508,-36,16371.92,27.45,-1.00,-1.0,2374
2354,2137354,16276,560,-8,16285.63,27.45,-1.00,-1.0,2359
2356,2137356,16776,548,-8,16784.95,27.45,-1.00,-1.0,2341
2359,2137359,16192,288,84,16194.78,27.49,-1.00,-1.0,2366
2361,2137361,15980,656,12,15993.46,27.45,-1.00,-1.0,2365
2364,2137364,16304,424,-208,16310.84,27.45,-1.00,-1.0,2362
2366,2137366,14996,260,216,14999.81,27.49,-1.00,-1.0,2354
2369,2137369,16616,544,-140,16625.49,27.49,-1.00,-1.0,2359
2372,2137372,15596,380,-32,15600.66,27.45,-1.00,-1.0,2365
2374,2137374,14888,680,0,14903.52,27.45,-1.00,-1.0,2360
2377,2137377,14488,912,-332,14520.47,27.54,-1.00,-1.0,2355
2379,2137379,13384,1168,-164,13435.87,27.49,-1.00,-1.0,2360
2382,2137382,17116,840,-332,17139.82,27.45,-1.00,-1.0,2357
2384,2137384,17556,-300,520,17566.26,27.54,-1.00,-1.0,2362
2387,2137387,19372,12,388,19375.89,27.49,-1.00,-1.0,2354
2389,2137389,18192,456,172,18198.53,27.49,-1.00,-1.0,2360
2392,2137392,17956,748,-52,17971.65,27.49,-1.00,-1.0,2354
2395,2137395,17712,368,64,17715.94,27.49,-1.00,-1.0,2359
2398,2137398,17544,160,12,17544.73,27.49,-1.00,-1.0,2353
2401,2137401,17788,120,-92,17788.64,27.40,-1.00,-1.0,2359
2404,2137404,18084,132,68,18084.61,27.49,-1.00,-1.0,2353
2407,2137407,18772,52,44,18772.12,27.40,-1.00,-1.0,2359
2410,2137410,17944,676,-300,17959.23,27.49,-1.00,-1.0,2354
2413,2137413,17876,532,244,17885.58,27.49,-1.00,-1.0,2359
2416,2137416,17372,612,240,17384.43,27.40,-1.00,-1.0,2354
2419,2137419,17360,392,152,17365.09,27.49,-1.00,-1.0,2346
2422,2137422,17172,412,208,17178.20,27.40,-1.00,-1.0,2341
2425,2137425,17408,280,188,17411.27,27.49,-1.00,-1.0,2359
2428,2137428,17680,348,-284,17685.71,27.49,-1.00,-1.0,2354
2431,2137431,17516,328,240,17520.71,27.49,-1.00,-1.0,2359
2434,2137434,17908,324,32,17910.96,27.49,-1.00,-1.0,2354
2437,2137437,17716,432,64,17721.38,27.49,-1.00,-1.0,2360
2440,2137440,17780,252,288,17784.12,27.59,-1.00,-1.0,2354
2443,2137443,17632,372,-36,17635.96,27.45,-1.00,-1.0,2360
2446,2137446,17508,352,-8,17511.54,27.54,-1.00,-1.0,2356
2450,2137450,17376,444,92,17381.92,27.54,-1.00,-1.0,2360
2453,2137453,17212,436,88,17217.75,27.45,-1.00,-1.0,2354
2456,2137456,17184,452,128,17190.42,27.45,-1.00,-1.0,2359
2459,2137459,17072,452,76,17078.15,27.45,-1.00,-1.0,2354
2462,2137462,17172,404,188,17177.78,27.35,-1.00,-1.0,2360
2465,2137465,16988,484,80,16995.08,27.45,-1.00,-1.0,2354
2468,2137468,16876,380,140,16880.86,27.54,-1.00,-1.0,2360
2471,2137471,16652,724,-380,16672.06,27.45,-1.00,-1.0,2354
2474,2137474,18168,-60,-692,18181.27,27.45,-1.00,-1.0,2359
2477,2137477,18244,260,-324,18248.73,27.54,-1.00,-1.0,2354
2480,2137480,15352,-72,1040,15387.35,27.45,-1.00,-1.0,2359
2483,2137483,17048,244,-40,17049.79,27.45,-1.00,-1.0,2354
2486,2137486,17552,1388,-400,17611.34,27.45,-1.00,-1.0,2361
2489,2137489,17292,-288,264,17296.41,27.54,-1.00,-1.0,2356
2492,2137492,16788,544,-40,16796.86,27.54,-1.00,-1.0,2368
2495,2137495,17084,480,-140,17091.31,27.45,-1.00,-1.0,2361
2498,2137498,17224,472,272,17232.61,27.54,-1.00,-1.0,2364
2501,2137501,17048,480,96,17055.03,27.45,-1.00,-1.0,2359
2504,2137504,16952,420,112,16957.57,27.45,-1.00,-1.0,2366
2507,2137507,16956,508,12,16963.61,27.45,-1.00,-1.0,2365
2510,2137510,17064,496,48,17071.28,27.54,-1.00,-1.0,2367
2513,2137513,17016,440,176,17022.60,27.54,-1.00,-1.0,2361
2516,2137516,17104,576,-220,17115.11,27.45,-1.00,-1.0,2366
2519,2137519,17068,432,120,17073.89,27.54,-1.00,-1.0,2363
2522,2137522,17288,-16,-236,17289.62,27.45,-1.00,-1.0,2368
2525,2137525,17224,252,-204,17227.05,27.54,-1.00,-1.0,2364
2528,2137528,17240,724,300,17257.80,27.49,-1.00,-1.0,2367
2531,2137531,17124,460,192,17131.25,27.45,-1.00,-1.0,2358
2534,2137534,17796,428,-84,17801.34,27.40,-1.00,-1.0,2361
2546,2137546,17400,400,-48,17404.66,27.49,-1.00,-1.0,2470
2549,2137549,17208,512,52,17215.69,27.49,-1.00,-1.0,2373
2551,2137551,17072,604,-116,17083.07,27.45,-1.00,-1.0,2360
2554,2137554,17284,496,208,17292.37,27.54,-1.00,-1.0,2363
2556,2137556,16904,576,96,16914.08,27.49,-1.00,-1.0,2361
2559,2137559,17128,540,140,17137.08,27.49,-1.00,-1.0,2354
2561,2137561,16948,396,12,16952.63,27.54,-1.00,-1.0,2362
2564,2137564,17072,428,40,17077.41,27.45,-1.00,-1.0,2354
2567,2137567,16940,328,-116,16943.57,27.45,-1.00,-1.0,2359
2569,2137569,16940,604,-48,16950.83,27.49,-1.00,-1.0,2362
2572,2137572,17176,548,332,17187.95,27.45,-1.00,-1.0,2360
2574,2137574,17048,516,-44,17055.86,27.45,-1.00,-1.0,2355
2577,2137577,17152,452,80,17158.14,27.49,-1.00,-1.0,2369
2579,2137579,16864,584,-24,16874.13,27.40,-1.00,-1.0,2361
2582,2137582,17056,428,0,17061.37,27.45,-1.00,-1.0,2359
2584,2137584,16964,456,56,16970.22,27.45,-1.00,-1.0,2354
2587,2137587,17080,484,-12,17086.86,27.49,-1.00,-1.0,2359
2590,2137590,16928,452,136,16934.58,27.49,-1.00,-1.0,2356
2592,2137592,17156,460,24,17162.18,27.45,-1.00,-1.0,2359
2595,2137595,17048,436,-32,17053.60,27.54,-1.00,-1.0,2355
2597,2137597,17092,436,-8,17097.56,27.40,-1.00,-1.0,2362
2600,2137600,16996,432,24,17001.51,27.49,-1.00,-1.0,2357
2603,2137603,17308,572,-72,17317.60,27.45,-1.00,-1.0,2360
2606,2137606,17128,564,-32,17137.31,27.45,-1.00,-1.0,2354
2609,2137609,17040,364,128,17044.37,27.54,-1.00,-1.0,2360
2612,2137612,17060,684,-120,17074.13,27.54,-1.00,-1.0,2354
2615,2137615,17168,384,364,17176.15,27.54,-1.00,-1.0,2362
2618,2137618,16972,540,220,16982.01,27.54,-1.00,-1.0,2356
2621,2137621,17084,528,76,17092.33,27.45,-1.00,-1.0,2359
2624,2137624,17044,492,-76,17051.27,27.45,-1.00,-1.0,2354
2627,2137627,17108,368,28,17111.98,27.45,-1.00,-1.0,2359
2630,2137630,17208,420,-16,17213.13,27.45,-1.00,-1.0,2354
2633,2137633,17080,440,84,17085.87,27.54,-1.00,-1.0,2360
2636,2137636,17080,452,264,17088.02,27.45,-1.00,-1.0,2354
2639,2137639,16944,528,-8,16952.23,27.45,-1.00,-1.0,2359
2642,2137642,17100,412,-40,17105.01,27.64,-1.00,-1.0,2355
2645,2137645,17088,512,140,17096.24,27.40,-1.00,-1.0,2359
2648,2137648,17012,520,-20,17019.96,27.49,-1.00,-1.0,2353
2651,2137651,17112,664,32,17124.91,27.49,-1.00,-1.0,2359
2654,2137654,17092,500,76,17099.48,27.49,-1.00,-1.0,2354
2657,2137657,17072,300,-104,17074.95,27.49,-1.00,-1.0,2359
2660,2137660,17096,192,120,17097.50,27.40,-1.00,-1.0,2353
2663,2137663,17172,328,212,17176.44,27.49,-1.00,-1.0,2366
2666,2137666,17212,676,-124,17225.72,27.40,-1.00,-1.0,2361
2669,2137669,17096,376,268,17102.23,27.49,-1.00,-1.0,2367
2672,2137672,16672,776,-308,16692.89,27.59,-1.00,-1.0,2361
2675,2137675,16992,760,-100,17009.28,27.59,-1.00,-1.0,2367
2678,2137678,16344,860,-116,16367.02,27.49,-1.00,-1.0,2361
2681,2137681,16600,572,-12,16609.86,27.49,-1.00,-1.0,2367
2684,2137684,17208,292,-132,17210.98,27.49,-1.00,-1.0,2362
2687,2137687,17460,60,224,17461.54,27.40,-1.00,-1.0,2367
2690,2137690,17116,336,0,17119.30,27.49,-1.00,-1.0,2361
2693,2137693,16964,428,-72,16969.55,27.59,-1.00,-1.0,2367
2696,2137696,17144,360,108,17148.12,27.49,-1.00,-1.0,2361
2699,2137699,17124,488,-80,17131.14,27.49,-1.00,-1.0,2367
2702,2137702,17016,500,64,17023.46,27.59,-1.00,-1.0,2362
2705,2137705,16916,440,8,16921.72,27.49,-1.00,-1.0,2362
2708,2137708,17104,516,-72,17111.93,27.49,-1.00,-1.0,2356
2711,2137711,17016,520,36,17023.98,27.45,-1.00,-1.0,2354
2714,2137714,17068,440,188,17074.71,27.45,-1.00,-1.0,2349
2717,2137717,17204,460,-104,17210.46,27.45,-1.00,-1.0,2369
2720,2137720,17064,440,164,17070.46,27.45,-1.00,-1.0,2364
2723,2137723,17044,408,-32,17048.91,27.54,-1.00,-1.0,2369
2726,2137726,17064,500,-108,17071.67,27.45,-1.00,-1.0,2364
2729,2137729,17136,392,244,17142.22,27.45,-1.00,-1.0,2366
2732,2137732,17028,504,-152,17036.13,27.54,-1.00,-1.0,2362
2735,2137735,16988,376,72,16992.31,27.45,-1.00,-1.0,2366
2738,2137738,17072,584,-80,17082.17,27.45,-1.00,-1.0,2361
2741,2137741,17088,496,0,17095.20,27.54,-1.00,-1.0,2367
2744,2137744,16992,552,24,17000.98,27.54,-1.00,-1.0,2363
2747,2137747,17084,500,-100,17091.61,27.54,-1.00,-1.0,2367
2759,2137759,17072,324,272,17077.24,27.45,-1.00,-1.0,2453
2762,2137762,16920,632,-260,16933.79,27.54,-1.00,-1.0,2359
2764,2137764,17108,392,344,17115.95,27.54,-1.00,-1.0,2375
2767,2137767,16956,460,-80,16962.43,27.59,-1.00,-1.0,2361
2769,2137769,17008,420,100,17013.48,27.49,-1.00,-1.0,2354
2772,2137772,17036,516,40,17043.86,27.45,-1.00,-1.0,2370
2774,2137774,16932,588,124,16942.66,27.45,-1.00,-1.0,2365
2777,2137777,17040,232,160,17042.33,27.59,-1.00,-1.0,2359
2779,2137779,17540,548,-556,17557.37,27.45,-1.00,-1.0,2354
2782,2137782,16792,384,-88,16796.62,27.45,-1.00,-1.0,2359
2785,2137785,16968,328,276,16973.41,27.59,-1.00,-1.0,2357
2787,2137787,17344,380,-48,17348.23,27.49,-1.00,-1.0,2359
2790,2137790,16996,428,-184,17002.38,27.45,-1.00,-1.0,2354
2792,2137792,17048,376,320,17055.15,27.45,-1.00,-1.0,2360
2795,2137795,17096,392,232,17102.07,27.49,-1.00,-1.0,2357
2797,2137797,16976,448,-8,16981.91,27.59,-1.00,-1.0,2361
2800,2137800,17100,400,-12,17104.68,27.54,-1.00,-1.0,2354
2803,2137803,17088,552,-132,17097.42,27.54,-1.00,-1.0,2359
2805,2137805,16848,444,52,16853.93,27.59,-1.00,-1.0,2361
2808,2137808,17104,416,80,17109.25,27.59,-1.00,-1.0,2359
2810,2137810,16924,516,116,16932.26,27.54,-1.00,-1.0,2354
2813,2137813,17092,484,-36,17098.89,27.49,-1.00,-1.0,2361
2816,2137816,17068,468,80,17074.60,27.40,-1.00,-1.0,2356
2819,2137819,17124,488,-44,17131.01,27.59,-1.00,-1.0,2361
2822,2137822,17088,528,64,17096.28,27.49,-1.00,-1.0,2354
2825,2137825,17040,676,40,17053.45,27.59,-1.00,-1.0,2360
2828,2137828,17016,372,56,17020.16,27.49,-1.00,-1.0,2355
2831,2137831,16928,628,-252,16941.52,27.49,-1.00,-1.0,2359
2834,2137834,17044,156,644,17056.88,27.49,-1.00,-1.0,2354
2837,2137837,17228,840,-344,17251.90,27.45,-1.00,-1.0,2388
2840,2137840,17100,612,68,17111.08,27.59,-1.00,-1.0,2355
2843,2137843,17028,272,132,17030.68,27.45,-1.00,-1.0,2361
2846,2137846,16976,652,-188,16989.56,27.45,-1.00,-1.0,2356
2849,2137849,16856,348,84,16859.80,27.45,-1.00,-1.0,2359
2852,2137852,17304,1764,1408,17450.58,27.45,-1.00,-1.0,2354
2855,2137855,16892,1660,-764,16990.55,27.45,-1.00,-1.0,2348
2858,2137858,17056,1576,2840,17362.50,27.45,-1.00,-1.0,2344
2861,2137861,16976,2400,-1124,17181.62,27.45,-1.00,-1.0,2346
2864,2137864,17128,932,-140,17153.91,27.45,-1.00,-1.0,2354
2867,2137867,16580,-804,1052,16632.79,27.54,-1.00,-1.0,2359
2870,2137870,16852,608,-3352,17192.89,27.45,-1.00,-1.0,2354
2873,2137873,16836,-2688,1924,17157.45,27.54,-1.00,-1.0,2359
2876,2137876,16656,1056,-2636,16896.33,27.45,-1.00,-1.0,2353
2879,2137879,17796,-1196,2276,17980.77,27.54,-1.00,-1.0,2361
2882,2137882,16896,1004,-1532,16994.99,27.45,-1.00,-1.0,2354
2885,2137885,17120,36,1000,17149.22,27.45,-1.00,-1.0,2359
2888,2137888,17196,592,-356,17209.87,27.45,-1.00,-1.0,2354
2891,2137891,16984,624,-124,16995.91,27.54,-1.00,-1.0,2360
2894,2137894,17104,120,600,17114.94,27.45,-1.00,-1.0,2354
2897,2137897,16936,968,-620,16974.97,27.54,-1.00,-1.0,2360
2900,2137900,17060,200,552,17070.10,27.45,-1.00,-1.0,2354
2903,2137903,17176,668,-404,17193.73,27.45,-1.00,-1.0,2359
2906,2137906,17076,236,216,17079.00,27.45,-1.00,-1.0,2354
2909,2137909,17024,692,-120,17038.48,27.49,-1.00,-1.0,2359
2912,2137912,17020,532,-244,17030.06,27.49,-1.00,-1.0,2354
2915,2137915,17156,236,424,17162.86,27.49,-1.00,-1.0,2363
2918,2137918,17076,536,-436,17089.97,27.49,-1.00,-1.0,2353
2921,2137921,16412,-180,788,16431.89,27.49,-1.00,-1.0,2359
2924,2137924,17792,1108,-1268,17871.51,27.49,-1.00,-1.0,2354
2927,2137927,17496,248,504,17505.01,27.59,-1.00,-1.0,2360
2930,2137930,16400,216,168,16402.28,27.49,-1.00,-1.0,2353
2933,2137933,17324,624,-124,17335.68,27.49,-1.00,-1.0,2359
2936,2137936,16484,636,-48,16496.33,27.49,-1.00,-1.0,2354
2939,2137939,17224,396,-12,17228.56,27.49,-1.00,-1.0,2359
2942,2137942,16808,820,-836,16848.74,27.49,-1.00,-1.0,2354
2945,2137945,17644,608,352,17657.98,27.59,-1.00,-1.0,2359
2948,2137948,16448,520,388,16460.79,27.40,-1.00,-1.0,2354
2951,2137951,17380,608,-604,17401.12,27.40,-1.00,-1.0,2359
2954,2137954,16280,96,-252,16282.23,27.40,-1.00,-1.0,2354
2957,2137957,16872,672,-840,16906.26,27.59,-1.00,-1.0,2359
2969,2137969,15508,292,-880,15535.69,27.54,-1.00,-1.0,2448
2972,2137972,14608,632,-1892,14743.57,27.49,-1.00,-1.0,2358
2974,2137974,15584,120,-268,15586.77,27.59,-1.00,-1.0,2342
2977,2137977,16332,520,-1840,16443.55,27.49,-1.00,-1.0,2354
2980,2137980,16588,864,-1340,16664.45,27.54,-1.00,-1.0,2358
2982,2137982,16044,164,-4,16044.84,27.54,-1.00,-1.0,2354
2985,2137985,16348,504,-4,16355.77,27.49,-1.00,-1.0,2359
2987,2137987,18268,604,52,18278.06,27.49,-1.00,-1.0,2351
2990,2137990,18140,-288,956,18167.46,27.54,-1.00,-1.0,2362
2992,2137992,19340,132,652,19351.44,27.45,-1.00,-1.0,2351
2995,2137995,18672,352,1424,18729.53,27.49,-1.00,-1.0,2359
2997,2137997,18392,608,1032,18430.96,27.40,-1.00,-1.0,2348
3000,2138000,17844,876,784,17882.68,27.54,-1.00,-1.0,2368
3003,2138003,17844,672,780,17873.68,27.54,-1.00,-1.0,2357
3005,2138005,17292,652,-408,17309.10,27.54,-1.00,-1.0,2354
3008,2138008,17024,504,-116,17031.85,27.59,-1.00,-1.0,2367
3010,2138010,17252,396,-532,17264.74,27.45,-1.00,-1.0,2355
3013,2138013,16904,344,-316,16910.45,27.54,-1.00,-1.0,2346
3015,2138015,17564,676,-900,17600.03,27.49,-1.00,-1.0,2350
3018,2138018,17296,468,-48,17302.40,27.49,-1.00,-1.0,2359
3020,2138020,17452,604,-288,17464.82,27.45,-1.00,-1.0,2349
3023,2138023,17772,508,284,17781.53,27.54,-1.00,-1.0,2368
3026,2138026,17488,684,24,17501.39,27.54,-1.00,-1.0,2367
3029,2138029,17388,516,32,17395.68,27.54,-1.00,-1.0,2367
3032,2138032,17084,556,-136,17093.59,27.54,-1.00,-1.0,2366
3035,2138035,17156,724,-748,17187.55,27.45,-1.00,-1.0,2366
3038,2138038,17408,-1332,2196,17596.45,27.54,-1.00,-1.0,2367
3041,2138041,17280,1748,-3056,17634.99,27.54,-1.00,-1.0,2368
3044,2138044,17092,204,576,17102.92,27.45,-1.00,-1.0,2366
3047,2138047,16924,720,-868,16961.53,27.54,-1.00,-1.0,2361
3050,2138050,17016,404,-184,17021.79,27.64,-1.00,-1.0,2361
3053,2138053,17028,336,-336,17034.63,27.64,-1.00,-1.0,2361
3056,2138056,17016,684,-668,17042.84,27.54,-1.00,-1.0,2362
3059,2138059,16936,108,256,16938.28,27.54,-1.00,-1.0,2346
3062,2138062,16872,504,-612,16890.62,27.54,-1.00,-1.0,2347
3065,2138065,16912,300,-56,16914.75,27.45,-1.00,-1.0,2361
3068,2138068,17044,544,-584,17062.68,27.49,-1.00,-1.0,2361
3071,2138071,17020,1020,-1580,17123.59,27.49,-1.00,-1.0,2358
3074,2138074,16484,-44,512,16492.01,27.49,-1.00,-1.0,2360
3077,2138077,16876,2060,-2392,17168.71,27.49,-1.00,-1.0,2356
3080,2138080,16492,-676,1664,16589.51,27.49,-1.00,-1.0,2358
3083,2138083,16120,780,-1128,16178.23,27.59,-1.00,-1.0,2353
3086,2138086,16644,760,-1220,16705.95,27.49,-1.00,-1.0,2359
3089,2138089,16784,724,-100,16799.91,27.40,-1.00,-1.0,2353
3092,2138092,16616,192,24,16617.13,27.49,-1.00,-1.0,2358
3095,2138095,16336,180,120,16337.43,27.40,-1.00,-1.0,2353
3098,2138098,16012,512,-544,16029.42,27.49,-1.00,-1.0,2359
3101,2138101,15484,816,-608,15517.40,27.49,-1.00,-1.0,2353
3104,2138104,16728,-52,-56,16728.17,27.49,-1.00,-1.0,2359
3107,2138107,16252,244,-240,16255.60,27.40,-1.00,-1.0,2353
3110,2138110,16028,1016,-652,16073.40,27.45,-1.00,-1.0,2359
3113,2138113,14516,604,248,14530.68,27.45,-1.00,-1.0,2353
3116,2138116,15340,596,-556,15361.64,27.54,-1.00,-1.0,2359
3119,2138119,15616,452,-112,15622.94,27.54,-1.00,-1.0,2354
3122,2138122,15712,700,520,15736.18,27.45,-1.00,-1.0,2359
3125,2138125,16128,484,-720,16151.32,27.54,-1.00,-1.0,2354
3128,2138128,15860,628,-148,15873.12,27.54,-1.00,-1.0,2360
3131,2138131,15840,320,-232,15844.93,27.54,-1.00,-1.0,2354
3134,2138134,15044,1144,-952,15117.44,27.45,-1.00,-1.0,2359
3137,2138137,14512,-88,1008,14547.23,27.45,-1.00,-1.0,2353
3140,2138140,17564,672,-1620,17651.35,27.54,-1.00,-1.0,2359
3143,2138143,19412,56,-280,19414.10,27.45,-1.00,-1.0,2354
3146,2138146,20224,968,-568,20255.12,27.54,-1.00,-1.0,2346
3149,2138149,18988,660,456,19004.94,27.54,-1.00,-1.0,2341
3152,2138152,16900,828,-604,16931.05,27.54,-1.00,-1.0,2359
3155,2138155,17380,232,-140,17382.11,27.54,-1.00,-1.0,2353
3158,2138158,17612,484,-608,17629.14,27.54,-1.00,-1.0,2359
3161,2138161,17620,624,-208,17632.27,27.45,-1.00,-1.0,2353
3164,2138164,17572,660,-192,17585.44,27.45,-1.00,-1.0,2359
3167,2138167,17372,632,-256,17385.38,27.45,-1.00,-1.0,2355
3179,2138179,17536,372,-308,17542.65,27.45,-1.00,-1.0,2435
3182,2138182,17636,404,-304,17643.25,27.54,-1.00,-1.0,2366
3185,2138185,18352,392,-508,18363.21,27.45,-1.00,-1.0,2360
3187,2138187,18332,664,152,18344.65,27.40,-1.00,-1.0,2353
3190,2138190,16792,724,-212,16808.94,27.49,-1.00,-1.0,2365
3192,2138192,17324,628,-920,17359.77,27.54,-1.00,-1.0,2361
3195,2138195,16844,88,360,16848.08,27.45,-1.00,-1.0,2359
3197,2138197,17492,552,-356,17504.33,27.59,-1.00,-1.0,2341
3200,2138200,17864,504,-340,17874.34,27.49,-1.00,-1.0,2359
3203,2138203,17904,504,-196,17912.16,27.54,-1.00,-1.0,2357
3205,2138205,17772,396,-176,17777.28,27.54,-1.00,-1.0,2359
3208,2138208,17680,388,-236,17685.83,27.40,-1.00,-1.0,2354
3210,2138210,17420,572,-292,17431.83,27.49,-1.00,-1.0,2361
3213,2138213,17188,496,-384,17199.44,27.45,-1.00,-1.0,2358
3215,2138215,17140,412,-332,17148.17,27.54,-1.00,-1.0,2361
3218,2138218,16544,384,-296,16551.10,27.45,-1.00,-1.0,2353
3221,2138221,16980,528,-344,16991.69,27.49,-1.00,-1.0,2359
3223,2138223,16540,448,-4,16546.07,27.45,-1.00,-1.0,2361
3226,2138226,16416,520,-332,16427.59,27.54,-1.00,-1.0,2359
3228,2138228,16100,456,-8,16106.46,27.59,-1.00,-1.0,2354
3231,2138231,16496,704,-376,16515.30,27.59,-1.00,-1.0,2370
3233,2138233,15816,692,-464,15837.93,27.54,-1.00,-1.0,2364
3236,2138236,15116,572,-472,15134.18,27.59,-1.00,-1.0,2361
3239,2138239,15524,408,-460,15536.17,27.49,-1.00,-1.0,2356
3242,2138242,16444,784,-740,16479.30,27.54,-1.00,-1.0,2365
3245,2138245,15660,424,-716,15682.09,27.54,-1.00,-1.0,2359
3248,2138248,15284,256,-464,15293.18,27.54,-1.00,-1.0,2365
3251,2138251,17344,568,-656,17365.69,27.54,-1.00,-1.0,2359
3254,2138254,17032,380,-176,17037.15,27.54,-1.00,-1.0,2362
3257,2138257,16180,1012,-600,16222.72,27.45,-1.00,-1.0,2358
3260,2138260,15224,544,-140,15234.36,27.64,-1.00,-1.0,2368
3263,2138263,16300,596,-628,16322.98,27.45,-1.00,-1.0,2362
3266,2138266,16768,292,-304,16773.30,27.54,-1.00,-1.0,2368
3269,2138269,17088,392,-524,17100.53,27.54,-1.00,-1.0,2364
3272,2138272,15236,248,456,15244.84,27.54,-1.00,-1.0,2368
3275,2138275,17380,1564,336,17453.46,27.54,-1.00,-1.0,2364
3278,2138278,20384,-116,-256,20385.94,27.45,-1.00,-1.0,2367
3281,2138281,20180,1132,-168,20212.42,27.54,-1.00,-1.0,2362
3284,2138284,18372,-24,-180,18372.90,27.45,-1.00,-1.0,2369
3287,2138287,18536,508,-1028,18571.43,27.54,-1.00,-1.0,2363
3290,2138290,17900,252,-96,17902.03,27.54,-1.00,-1.0,2367
3293,2138293,17092,380,-844,17117.04,27.54,-1.00,-1.0,2362
3296,2138296,17408,424,-256,17415.04,27.54,-1.00,-1.0,2367
3299,2138299,16820,268,-468,16828.64,27.45,-1.00,-1.0,2361
3302,2138302,15964,536,-672,15987.12,27.54,-1.00,-1.0,2367
3305,2138305,17008,368,-16,17011.99,27.49,-1.00,-1.0,2386
3308,2138308,16820,1316,-652,16884.00,27.40,-1.00,-1.0,2368
3311,2138311,16652,660,-328,16668.30,27.49,-1.00,-1.0,2361
3314,2138314,16384,216,220,16386.90,27.59,-1.00,-1.0,2367
3317,2138317,16248,700,-200,16264.30,27.49,-1.00,-1.0,2367
3320,2138320,17736,276,344,17741.48,27.59,-1.00,-1.0,2362
3323,2138323,18444,784,200,18461.74,27.49,-1.00,-1.0,2362
3326,2138326,19232,412,-1328,19282.20,27.40,-1.00,-1.0,2362
3329,2138329,18920,1388,-848,18989.79,27.49,-1.00,-1.0,2361
3332,2138332,18024,-92,-40,18024.28,27.59,-1.00,-1.0,2347
3335,2138335,17812,648,-456,17829.62,27.59,-1.00,-1.0,2347
3338,2138338,17908,-68,-308,17910.78,27.49,-1.00,-1.0,2362
3341,2138341,17980,760,-552,18004.52,27.49,-1.00,-1.0,2362
3344,2138344,16864,168,4,16864.84,27.49,-1.00,-1.0,2359
3347,2138347,17896,584,-84,17905.72,27.59,-1.00,-1.0,2361
3350,2138350,18204,512,-840,18230.56,27.49,-1.00,-1.0,2360
3353,2138353,17540,532,-52,17548.14,27.59,-1.00,-1.0,2359
3356,2138356,17612,540,-504,17627.48,27.49,-1.00,-1.0,2359
3359,2138359,17604,272,-256,17607.96,27.49,-1.00,-1.0,2359
3362,2138362,17664,640,-340,17678.86,27.49,-1.00,-1.0,2359
3365,2138365,17792,516,-448,17805.12,27.49,-1.00,-1.0,2360
3368,2138368,17356,452,-476,17368.41,27.59,-1.00,-1.0,2360
3371,2138371,17408,492,-136,17415.48,27.49,-1.00,-1.0,2360
3374,2138374,17236,488,-308,17245.66,27.59,-1.00,-1.0,2360
3387,2138387,17052,556,-256,17062.98,27.49,-1.00,-1.0,2461
3389,2138389,17080,340,-368,17087.35,27.59,-1.00,-1.0,2364
3392,2138392,17256,496,-300,17265.73,27.54,-1.00,-1.0,2361
3395,2138395,16976,408,-248,16982.71,27.54,-1.00,-1.0,2361
3397,2138397,17100,380,-536,17112.62,27.49,-1.00,-1.0,2367
3400,2138400,16972,556,-544,16989.82,27.45,-1.00,-1.0,2363
3402,2138402,16940,644,-432,16957.74,27.54,-1.00,-1.0,2360
3405,2138405,16940,516,-104,16948.18,27.45,-1.00,-1.0,2367
3407,2138407,17140,744,-684,17169.77,27.59,-1.00,-1.0,2366
3410,2138410,16804,284,-148,16807.05,27.45,-1.00,-1.0,2359
3413,2138413,17184,448,-412,17194.78,27.54,-1.00,-1.0,2360
3415,2138415,17104,660,-452,17122.70,27.49,-1.00,-1.0,2375
3418,2138418,16944,524,-412,16957.11,27.49,-1.00,-1.0,2359
3420,2138420,17112,508,-448,17125.40,27.54,-1.00,-1.0,2360
3423,2138423,16984,408,-296,16991.48,27.54,-1.00,-1.0,2366
3425,2138425,17100,444,-368,17109.72,27.49,-1.00,-1.0,2367
3428,2138428,16952,504,-492,16966.62,27.54,-1.00,-1.0,2347
3431,2138431,17104,604,-716,17129.63,27.59,-1.00,-1.0,2414
3433,2138433,16820,-60,240,16821.82,27.54,-1.00,-1.0,2362
3436,2138436,17004,500,-116,17011.75,27.45,-1.00,-1.0,2370
3438,2138438,17104,516,-1012,17141.68,27.49,-1.00,-1.0,2367
3441,2138441,17044,544,0,17052.68,27.54,-1.00,-1.0,2350
3443,2138443,17288,152,876,17310.85,27.49,-1.00,-1.0,2362
3446,2138446,16912,636,-568,16933.48,27.40,-1.00,-1.0,2359
3450,2138450,16948,612,-900,16982.91,27.49,-1.00,-1.0,2359
3453,2138453,17176,-100,-100,17176.58,27.49,-1.00,-1.0,2359
3456,2138456,17148,472,-476,17161.10,27.49,-1.00,-1.0,2359
3459,2138459,16884,492,-352,16894.83,27.49,-1.00,-1.0,2360
3462,2138462,16968,252,-172,16970.74,27.49,-1.00,-1.0,2359
3465,2138465,17144,544,-488,17159.57,27.40,-1.00,-1.0,2359
3468,2138468,17152,420,-136,17157.68,27.40,-1.00,-1.0,2359
3471,2138471,17004,468,-560,17019.65,27.59,-1.00,-1.0,2359
3474,2138474,17004,560,-408,17018.11,27.49,-1.00,-1.0,2360
3477,2138477,17000,392,-192,17005.60,27.59,-1.00,-1.0,2360
3480,2138480,17080,624,-396,17095.98,27.49,-1.00,-1.0,2359
3483,2138483,16928,492,-280,16937.46,27.49,-1.00,-1.0,2359
3486,2138486,17008,480,-380,17019.02,27.49,-1.00,-1.0,2361
3489,2138489,17000,480,-424,17012.06,27.49,-1.00,-1.0,2361
3492,2138492,17052,424,-324,17060.35,27.49,-1.00,-1.0,2364
3495,2138495,17012,392,-492,17023.63,27.49,-1.00,-1.0,2367
3498,2138498,17032,472,-384,17042.87,27.59,-1.00,-1.0,2365
3501,2138501,17000,492,-356,17010.84,27.59,-1.00,-1.0,2365
3504,2138504,17012,472,-644,17030.73,27.59,-1.00,-1.0,2366
3507,2138507,17136,476,-352,17146.22,27.68,-1.00,-1.0,2367
3510,2138510,17132,496,-356,17142.88,27.54,-1.00,-1.0,2369
3513,2138513,17072,500,-432,17084.78,27.45,-1.00,-1.0,2406
3516,2138516,17060,512,-380,17071.91,27.54,-1.00,-1.0,2374
3519,2138519,17088,524,-296,17098.59,27.54,-1.00,-1.0,2368
3522,2138522,17028,480,-204,17035.99,27.54,-1.00,-1.0,2370
3525,2138525,17076,464,-200,17083.47,27.54,-1.00,-1.0,2369
3528,2138528,17080,436,-196,17086.69,27.54,-1.00,-1.0,2368
3531,2138531,16944,436,-488,16956.63,27.54,-1.00,-1.0,2368
3534,2138534,16952,552,-384,16965.33,27.54,-1.00,-1.0,2362
3537,2138537,16964,564,-352,16977.02,27.45,-1.00,-1.0,2361
3540,2138540,17080,384,-280,17086.61,27.54,-1.00,-1.0,2362
3543,2138543,16204,252,-336,16209.44,27.45,-1.00,-1.0,2361
3546,2138546,18716,788,-848,18751.77,27.54,-1.00,-1.0,2361
3549,2138549,17028,684,-944,17067.86,27.45,-1.00,-1.0,2362
3552,2138552,16124,308,244,16128.79,27.45,-1.00,-1.0,2360
3555,2138555,17500,728,72,17515.28,27.54,-1.00,-1.0,2360
3558,2138558,17272,488,-132,17279.40,27.54,-1.00,-1.0,2363
3561,2138561,17284,-220,792,17303.54,27.45,-1.00,-1.0,2361
3564,2138564,16924,984,-1364,17007.37,27.45,-1.00,-1.0,2361
3567,2138567,16928,656,-608,16951.61,27.45,-1.00,-1.0,2360
3570,2138570,16996,576,-448,17011.66,27.54,-1.00,-1.0,2362
3573,2138573,16964,580,-496,16981.16,27.45,-1.00,-1.0,2359
3576,2138576,17048,288,32,17050.46,27.54,-1.00,-1.0,2360
3579,2138579,16928,552,-228,16938.53,27.54,-1.00,-1.0,2360
3582,2138582,16848,488,16,16855.07,27.45,-1.00,-1.0,2359
3585,2138585,17008,388,-184,17013.42,27.54,-1.00,-1.0,2360
3597,2138597,16920,472,-568,16936.11,27.49,-1.00,-1.0,2465
3599,2138599,16980,496,-476,16993.91,27.49,-1.00,-1.0,2358
3602,2138602,17080,324,-200,17084.24,27.54,-1.00,-1.0,2360
3605,2138605,16892,556,-384,16905.51,27.45,-1.00,-1.0,2359
3607,2138607,16980,460,-348,16989.79,27.59,-1.00,-1.0,2359
3610,2138610,16888,428,-192,16894.51,27.49,-1.00,-1.0,2353
3612,2138612,16900,552,-344,16912.51,27.54,-1.00,-1.0,2361
3615,2138615,17020,388,-336,17027.74,27.54,-1.00,-1.0,2357
3617,2138617,16860,496,-336,16870.64,27.49,-1.00,-1.0,2361
3620,2138620,16904,512,-472,16918.34,27.49,-1.00,-1.0,2354
3622,2138622,16860,332,-192,16864.36,27.35,-1.00,-1.0,2358
3625,2138625,16644,492,-372,16655.43,27.45,-1.00,-1.0,2369
3628,2138628,16044,356,-308,16050.90,27.54,-1.00,-1.0,2359
3630,2138630,16348,596,-436,16364.67,27.49,-1.00,-1.0,2353
3633,2138633,16464,636,-124,16476.75,27.45,-1.00,-1.0,2366
3635,2138635,16216,628,-304,16231.00,27.54,-1.00,-1.0,2364
3638,2138638,16196,544,-500,16212.85,27.59,-1.00,-1.0,2359
3640,2138640,15820,480,-288,15829.90,27.49,-1.00,-1.0,2353
3643,2138643,15364,492,-204,15373.23,27.45,-1.00,-1.0,2359
3646,2138646,15236,424,-200,15243.21,27.54,-1.00,-1.0,2362
3648,2138648,15960,204,-724,15977.72,27.49,-1.00,-1.0,2359
3651,2138651,15112,416,312,15120.94,27.54,-1.00,-1.0,2353
3654,2138654,15080,320,-976,15114.94,27.54,-1.00,-1.0,2360
3657,2138657,12848,740,-656,12886.00,27.45,-1.00,-1.0,2355
3660,2138660,13644,436,-784,13673.46,27.54,-1.00,-1.0,2368
3663,2138663,13568,72,-340,13572.45,27.45,-1.00,-1.0,2354
3666,2138666,14944,48,-1100,14984.51,27.54,-1.00,-1.0,2366
3669,2138669,17596,976,-1592,17694.81,27.54,-1.00,-1.0,2361
3672,2138672,18804,-2364,644,18962.96,27.54,-1.00,-1.0,2367
3675,2138675,19208,956,-1552,19294.30,27.45,-1.00,-1.0,2360
3678,2138678,18744,-472,1456,18806.39,27.54,-1.00,-1.0,2367
3681,2138681,17468,872,-1000,17518.32,27.54,-1.00,-1.0,2362
3684,2138684,12808,24,-884,12838.49,27.54,-1.00,-1.0,2368
3687,2138687,12544,192,-776,12569.45,27.54,-1.00,-1.0,2362
3690,2138690,11520,548,-436,11541.26,27.64,-1.00,-1.0,2367
3693,2138693,10340,240,-612,10360.88,27.45,-1.00,-1.0,2362
3696,2138696,6292,700,664,6365.54,27.54,-1.00,-1.0,2362
3699,2138699,-9744,1264,4180,10677.81,27.54,-1.00,-1.0,2362
3702,2138702,-7620,1980,-1800,8076.19,27.54,-1.00,-1.0,2367
3705,2138705,-3788,800,-312,3884.11,27.54,-1.00,-1.0,2362
3708,2138708,1804,2488,-2432,3919.08,27.49,-1.00,-1.0,2354
3711,2138711,7288,-672,-2508,7736.70,27.59,-1.00,-1.0,2351
3714,2138714,10536,652,-996,10603.04,27.49,-1.00,-1.0,2370
3717,2138717,13544,-388,-72,13549.75,27.59,-1.00,-1.0,2365
3720,2138720,16140,-128,-672,16154.49,27.49,-1.00,-1.0,2367
3723,2138723,18140,1496,-364,18205.22,27.49,-1.00,-1.0,2363
3726,2138726,20296,-1052,-1084,20352.13,27.49,-1.00,-1.0,2366
3729,2138729,22992,-572,-464,23003.79,27.49,-1.00,-1.0,2362
3732,2138732,26140,2208,-268,26234.46,27.49,-1.00,-1.0,2367
3735,2138735,24096,1300,1172,24159.49,27.49,-1.00,-1.0,2360
3738,2138738,20432,76,1480,20485.67,27.59,-1.00,-1.0,2367
3741,2138741,21132,1824,-704,21222.25,27.59,-1.00,-1.0,2361
3744,2138744,18916,1176,-444,18957.72,27.49,-1.00,-1.0,2367
3747,2138747,19676,1736,-1700,19825.46,27.49,-1.00,-1.0,2360
3750,2138750,19124,1092,148,19155.72,27.49,-1.00,-1.0,2366
3753,2138753,19876,-148,712,19889.30,27.59,-1.00,-1.0,2356
3756,2138756,21060,832,-892,21095.29,27.59,-1.00,-1.0,2367
3759,2138759,23808,-256,312,23811.42,27.49,-1.00,-1.0,2361
3762,2138762,26552,564,-832,26571.02,27.59,-1.00,-1.0,2362
3765,2138765,27640,708,236,27650.07,27.49,-1.00,-1.0,2356
3768,2138768,28912,1132,-808,28945.43,27.49,-1.00,-1.0,2364
3771,2138771,29860,516,-48,29864.50,27.59,-1.00,-1.0,2348
3774,2138774,29840,524,-240,29845.57,27.59,-1.00,-1.0,2347
3777,2138777,28280,1316,652,28318.11,27.49,-1.00,-1.0,2341
3780,2138780,28752,-340,-740,28763.53,27.54,-1.00,-1.0,2363
3783,2138783,26156,1292,120,26188.17,27.64,-1.00,-1.0,2357
3786,2138786,23016,244,200,23018.16,27.54,-1.00,-1.0,2362
3789,2138789,20716,552,-564,20731.03,27.64,-1.00,-1.0,2356
3792,2138792,18968,564,4,18976.38,27.54,-1.00,-1.0,2360
3804,2138804,17872,580,-348,17884.79,27.49,-1.00,-1.0,2445
3807,2138807,17600,516,-428,17612.76,27.40,-1.00,-1.0,2369
3809,2138809,17224,516,-336,17235.00,27.59,-1.00,-1.0,2357
3812,2138812,17244,488,-340,17254.25,27.45,-1.00,-1.0,2361
3814,2138814,17120,528,-360,17131.92,27.45,-1.00,-1.0,2356
3817,2138817,17088,500,-224,17096.78,27.59,-1.00,-1.0,2359
3820,2138820,17028,552,-292,17039.45,27.49,-1.00,-1.0,2354
3822,2138822,17044,472,-328,17053.69,27.54,-1.00,-1.0,2366
3825,2138825,17096,432,-368,17105.42,27.64,-1.00,-1.0,2359
3827,2138827,17000,468,-156,17007.16,27.49,-1.00,-1.0,2354
3830,2138830,17060,572,-456,17075.68,27.59,-1.00,-1.0,2367
3832,2138832,17060,504,-360,17071.24,27.45,-1.00,-1.0,2362
3835,2138835,17044,508,-204,17052.79,27.64,-1.00,-1.0,2348
3837,2138837,17100,572,-328,17112.71,27.49,-1.00,-1.0,2354
3840,2138840,17124,536,-404,17137.15,27.49,-1.00,-1.0,2358
3843,2138843,17052,404,-292,17059.29,27.54,-1.00,-1.0,2358
3845,2138845,17140,488,-340,17150.32,27.54,-1.00,-1.0,2359
3848,2138848,16976,532,-428,16989.73,27.49,-1.00,-1.0,2353
3850,2138850,16944,592,-420,16959.54,27.54,-1.00,-1.0,2361
3853,2138853,17040,640,-308,17054.80,27.54,-1.00,-1.0,2358
3855,2138855,16920,532,-380,16932.63,27.54,-1.00,-1.0,2362
3858,2138858,16972,528,-428,16985.60,27.59,-1.00,-1.0,2354
3861,2138861,17292,460,-116,17298.51,27.40,-1.00,-1.0,2346
3864,2138864,16956,620,-560,16976.57,27.49,-1.00,-1.0,2341
3867,2138867,16880,480,-48,16886.89,27.59,-1.00,-1.0,2360
3870,2138870,17048,652,-400,17065.15,27.49,-1.00,-1.0,2354
3873,2138873,17096,560,-560,17114.33,27.59,-1.00,-1.0,2360
3876,2138876,17112,360,-32,17115.82,27.68,-1.00,-1.0,2354
3879,2138879,16956,536,-612,16975.51,27.49,-1.00,-1.0,2361
3882,2138882,17096,424,-272,17103.42,27.49,-1.00,-1.0,2356
3885,2138885,16924,460,-460,16936.50,27.49,-1.00,-1.0,2359
3888,2138888,17076,620,-552,17096.17,27.49,-1.00,-1.0,2354
3891,2138891,17056,336,-188,17060.35,27.59,-1.00,-1.0,2360
3894,2138894,16984,592,-408,16999.21,27.49,-1.00,-1.0,2353
3897,2138897,17080,488,-384,17091.29,27.59,-1.00,-1.0,2360
3900,2138900,16980,464,-228,16987.87,27.59,-1.00,-1.0,2354
3903,2138903,17016,540,-472,17031.11,27.59,-1.00,-1.0,2359
3906,2138906,17064,420,-184,17070.16,27.59,-1.00,-1.0,2355
3909,2138909,17148,516,-388,17160.15,27.49,-1.00,-1.0,2359
3912,2138912,17032,564,-368,17045.31,27.59,-1.00,-1.0,2355
3915,2138915,17052,508,-228,17061.09,27.54,-1.00,-1.0,2359
3918,2138918,16976,588,-284,16988.55,27.64,-1.00,-1.0,2355
3921,2138921,16984,628,-368,16999.59,27.64,-1.00,-1.0,2359
3924,2138924,17088,564,-324,17100.38,27.54,-1.00,-1.0,2354
3927,2138927,17076,572,-472,17092.10,27.54,-1.00,-1.0,2408
3930,2138930,17052,428,-324,17060.45,27.54,-1.00,-1.0,2359
3933,2138933,16984,548,-500,17000.19,27.54,-1.00,-1.0,2354
3936,2138936,17052,520,-444,17065.70,27.54,-1.00,-1.0,2359
3939,2138939,17044,412,-252,17050.84,27.54,-1.00,-1.0,2355
3942,2138942,17092,520,-316,17102.83,27.54,-1.00,-1.0,2360
3945,2138945,17072,476,-508,17086.19,27.54,-1.00,-1.0,2355
3948,2138948,17012,476,-296,17021.23,27.45,-1.00,-1.0,2359
3951,2138951,18272,448,-760,18293.29,27.54,-1.00,-1.0,2354
3954,2138954,16288,768,-44,16306.16,27.45,-1.00,-1.0,2360
3957,2138957,17100,804,-524,17126.91,27.45,-1.00,-1.0,2353
3960,2138960,17340,256,32,17341.92,27.54,-1.00,-1.0,2359
3963,2138963,16940,676,-728,16969.11,27.45,-1.00,-1.0,2354
3966,2138966,17112,520,-140,17120.47,27.54,-1.00,-1.0,2360
3969,2138969,17132,548,-440,17146.41,27.54,-1.00,-1.0,2354
3972,2138972,16932,504,-392,16944.04,27.45,-1.00,-1.0,2367
3975,2138975,17040,568,-328,17052.62,27.54,-1.00,-1.0,2368
3978,2138978,17104,492,-192,17112.15,27.49,-1.00,-1.0,2367
3981,2138981,17100,596,-400,17115.06,27.49,-1.00,-1.0,2367
3984,2138984,17064,592,-164,17075.05,27.49,-1.00,-1.0,2367
3987,2138987,16996,492,-364,17007.02,27.49,-1.00,-1.0,2367
3990,2138990,17124,524,-256,17133.93,27.59,-1.00,-1.0,2366
3993,2138993,17084,540,-256,17094.45,27.49,-1.00,-1.0,2365
3996,2138996,17136,496,-308,17145.94,27.49,-1.00,-1.0,2366
3999,2138999,17068,560,-344,17080.65,27.59,-1.00,-1.0,2366
4002,2139002,17036,400,-248,17042.50,27.49,-1.00,-1.0,2375
4014,2139014,17024,520,-376,17036.09,27.64,-1.00,-1.0,2453
4017,2139017,17088,616,-324,17102.17,27.54,-1.00,-1.0,2358
4020,2139020,17088,440,-356,17097.37,27.49,-1.00,-1.0,2356
4022,2139022,17056,664,-592,17079.18,27.49,-1.00,-1.0,2360
4025,2139025,16928,516,-312,16938.74,27.54,-1.00,-1.0,2355
4027,2139027,17012,508,-228,17021.11,27.54,-1.00,-1.0,2352
4030,2139030,16992,572,-472,17008.18,27.49,-1.00,-1.0,2351
4032,2139032,17068,496,-284,17077.57,27.59,-1.00,-1.0,2365
4035,2139035,17072,468,-228,17079.94,27.54,-1.00,-1.0,2359
4037,2139037,17016,532,-428,17029.69,27.64,-1.00,-1.0,2350
4040,2139040,17036,360,-428,17045.18,27.59,-1.00,-1.0,2358
4043,2139043,17092,564,-488,17108.26,27.59,-1.00,-1.0,2358
4045,2139045,17024,464,-236,17031.96,27.54,-1.00,-1.0,2361
4048,2139048,17052,504,-240,17061.13,27.54,-1.00,-1.0,2355
4050,2139050,17024,508,-364,17035.47,27.54,-1.00,-1.0,2354
4053,2139053,17056,532,-220,17065.71,27.59,-1.00,-1.0,2366
4055,2139055,17032,584,-492,17049.11,27.45,-1.00,-1.0,2362
4058,2139058,16992,528,-308,17002.99,27.54,-1.00,-1.0,2358
4060,2139060,17068,488,-240,17076.66,27.49,-1.00,-1.0,2349
4063,2139063,16964,484,-236,16972.54,27.49,-1.00,-1.0,2365
4066,2139066,16876,656,-316,16891.70,27.64,-1.00,-1.0,2356
4068,2139068,16956,404,-156,16961.53,27.45,-1.00,-1.0,2352
4071,2139071,16764,508,-288,16774.17,27.54,-1.00,-1.0,2358
4074,2139074,16900,440,-204,16906.96,27.45,-1.00,-1.0,2360
4077,2139077,16328,316,-84,16331.27,27.45,-1.00,-1.0,2354
4080,2139080,14428,1020,556,14474.69,27.54,-1.00,-1.0,2358
4083,2139083,13648,928,796,13702.65,27.54,-1.00,-1.0,2352
4086,2139086,12020,524,1268,12098.05,27.54,-1.00,-1.0,2358
4089,2139089,9804,760,284,9837.51,27.54,-1.00,-1.0,2349
4092,2139092,8108,908,444,8170.76,27.45,-1.00,-1.0,2358
4095,2139095,5860,896,-376,5940.02,27.45,-1.00,-1.0,2350
4098,2139098,3844,468,-664,3928.90,27.45,-1.00,-1.0,2357
4101,2139101,2924,412,-1228,3198.05,27.54,-1.00,-1.0,2349
4104,2139104,2852,236,-1212,3107.82,27.54,-1.00,-1.0,2358
4107,2139107,3104,756,-1324,3458.23,27.54,-1.00,-1.0,2350
4110,2139110,1516,864,-964,1993.50,27.54,-1.00,-1.0,2358
4113,2139113,2476,620,-1752,3095.88,27.54,-1.00,-1.0,2350
4116,2139116,7176,812,-804,7266.41,27.54,-1.00,-1.0,2358
4119,2139119,13544,1132,668,13607.63,27.64,-1.00,-1.0,2350
4122,2139122,18900,584,-1132,18942.88,27.54,-1.00,-1.0,2358
4125,2139125,27148,36,16,27148.03,27.59,-1.00,-1.0,2409
4128,2139128,32767,-620,-1192,32794.54,27.54,-1.00,-1.0,2360
4131,2139131,32767,6056,32767,nan,27.54,-1.00,-1.0,2350
4134,2139134,-8000,1420,-32768,33760.30,27.54,-1.00,-1.0,2353
4137,2139137,28572,-10964,22124,37762.94,27.54,-1.00,-1.0,2356
4140,2139140,14336,10216,-20896,27322.71,27.49,-1.00,-1.0,2359
4143,2139143,14284,-4912,11216,18813.80,27.49,-1.00,-1.0,2355
4146,2139146,16808,4796,-8472,19423.83,27.59,-1.00,-1.0,2346
4149,2139149,18144,-3032,8040,20075.84,27.49,-1.00,-1.0,2342
4152,2139152,14976,3260,-7908,17246.58,27.59,-1.00,-1.0,2358
4155,2139155,17724,-1508,2340,17941.29,27.49,-1.00,-1.0,2355
4158,2139158,18200,1624,-724,18286.65,27.68,-1.00,-1.0,2358
4161,2139161,17272,-328,1216,17317.86,27.49,-1.00,-1.0,2355
4164,2139164,16572,1140,-2980,16876.35,27.59,-1.00,-1.0,2358
4167,2139167,17872,-200,1224,17914.98,27.59,-1.00,-1.0,2356
4170,2139170,17672,932,-540,17704.80,27.59,-1.00,-1.0,2358
4173,2139173,17448,148,-96,17448.89,27.59,-1.00,-1.0,2355
4176,2139176,17112,1160,-1252,17196.91,27.49,-1.00,-1.0,2360
4179,2139179,17408,-144,1124,17444.84,27.49,-1.00,-1.0,2354
4182,2139182,17088,1188,-1100,17164.53,27.64,-1.00,-1.0,2361
4185,2139185,17092,124,88,17092.68,27.54,-1.00,-1.0,2361
4188,2139188,16996,904,-656,17032.66,27.54,-1.00,-1.0,2360
4191,2139191,17132,132,268,17134.61,27.64,-1.00,-1.0,2361
4194,2139194,16912,924,-972,16965.09,27.54,-1.00,-1.0,2363
4197,2139197,17120,232,76,17121.74,27.45,-1.00,-1.0,2361
4200,2139200,16992,620,-316,17006.24,27.54,-1.00,-1.0,2363
4203,2139203,17064,348,-68,17067.68,27.64,-1.00,-1.0,2360
4206,2139206,17000,744,-668,17029.38,27.54,-1.00,-1.0,2359
4209,2139209,17080,492,-44,17087.14,27.45,-1.00,-1.0,2361
4221,2139221,16900,436,64,16905.74,27.54,-1.00,-1.0,2452
4224,2139224,16988,524,-580,17005.97,27.54,-1.00,-1.0,2364
4227,2139227,17092,424,-184,17098.25,27.54,-1.00,-1.0,2371
4229,2139229,17168,500,-212,17176.59,27.59,-1.00,-1.0,2367
4232,2139232,16952,416,-68,16957.24,27.59,-1.00,-1.0,2349
4234,2139234,17184,636,-376,17199.88,27.54,-1.00,-1.0,2360
4237,2139237,16880,504,-288,16889.98,27.49,-1.00,-1.0,2406
4240,2139240,17052,320,8,17055.00,27.54,-1.00,-1.0,2372
4242,2139242,16788,440,-236,16795.42,27.59,-1.00,-1.0,2366
4245,2139245,17496,452,-148,17502.46,27.49,-1.00,-1.0,2359
4247,2139247,16740,936,-920,16791.37,27.45,-1.00,-1.0,2360
4250,2139250,16920,140,644,16932.83,27.54,-1.00,-1.0,2366
4253,2139253,16712,744,-380,16732.87,27.49,-1.00,-1.0,2362
4255,2139255,20512,-3572,1028,20846.06,27.54,-1.00,-1.0,2359
4258,2139258,11520,2832,-4896,12833.61,27.54,-1.00,-1.0,2368
4260,2139260,18012,-2016,3540,18466.94,27.59,-1.00,-1.0,2369
4263,2139263,17796,2816,-3880,18430.46,27.59,-1.00,-1.0,2360
4265,2139265,16120,-104,864,16143.47,27.54,-1.00,-1.0,2360
4268,2139268,17344,468,-1172,17389.85,27.54,-1.00,-1.0,2359
4271,2139271,16732,1792,-2456,17005.97,27.49,-1.00,-1.0,2360
4273,2139273,17048,-744,1768,17155.57,27.64,-1.00,-1.0,2359
4276,2139276,17212,1292,-1800,17354.03,27.54,-1.00,-1.0,2367
4278,2139278,17040,-140,908,17064.75,27.49,-1.00,-1.0,2367
4281,2139281,16916,1048,-1296,16997.91,27.59,-1.00,-1.0,2367
4284,2139284,17028,140,712,17043.46,27.49,-1.00,-1.0,2369
4287,2139287,17044,904,-868,17090.01,27.49,-1.00,-1.0,2367
4290,2139290,16980,244,292,16984.26,27.49,-1.00,-1.0,2367
4293,2139293,16972,808,-620,17002.53,27.40,-1.00,-1.0,2366
4296,2139296,17068,260,240,17071.67,27.59,-1.00,-1.0,2366
4299,2139299,16940,800,-620,16970.21,27.40,-1.00,-1.0,2366
4302,2139302,17072,384,152,17076.99,27.49,-1.00,-1.0,2366
4305,2139305,17056,824,-608,17086.71,27.49,-1.00,-1.0,2367
4308,2139308,17112,376,124,17116.58,27.49,-1.00,-1.0,2366
4311,2139311,17104,860,-692,17139.58,27.59,-1.00,-1.0,2366
4314,2139314,17028,380,116,17032.63,27.54,-1.00,-1.0,2362
4317,2139317,16988,696,-532,17010.57,27.64,-1.00,-1.0,2367
4320,2139320,17012,516,-36,17019.86,27.54,-1.00,-1.0,2367
4323,2139323,17028,792,-556,17055.47,27.54,-1.00,-1.0,2362
4326,2139326,17076,516,-64,17083.91,27.54,-1.00,-1.0,2362
4329,2139329,16992,796,-344,17014.11,27.54,-1.00,-1.0,2362
4332,2139332,17076,508,20,17083.57,27.54,-1.00,-1.0,2354
4335,2139335,17036,684,-300,17052.37,27.54,-1.00,-1.0,2347
4338,2139338,16948,576,-88,16958.01,27.54,-1.00,-1.0,2362
4341,2139341,17032,632,-236,17045.36,27.64,-1.00,-1.0,2362
4344,2139344,17112,748,-280,17130.63,27.54,-1.00,-1.0,2361
4347,2139347,17040,564,-188,17050.37,27.54,-1.00,-1.0,2363
4350,2139350,17036,560,-204,17046.42,27.54,-1.00,-1.0,2360
4353,2139353,17092,668,-172,17105.91,27.45,-1.00,-1.0,2359
4356,2139356,17016,540,-208,17025.84,27.45,-1.00,-1.0,2359
4359,2139359,16972,556,-280,16983.41,27.54,-1.00,-1.0,2360
4362,2139362,16964,480,-224,16972.27,27.45,-1.00,-1.0,2359
4365,2139365,17048,468,-292,17056.92,27.54,-1.00,-1.0,2360
4368,2139368,17076,436,-268,17083.67,27.45,-1.00,-1.0,2359
4371,2139371,17072,532,-448,17086.16,27.64,-1.00,-1.0,2359
4374,2139374,16956,556,-96,16965.38,27.54,-1.00,-1.0,2359
4377,2139377,17204,500,-284,17213.61,27.54,-1.00,-1.0,2360
4380,2139380,17040,460,-192,17047.29,27.54,-1.00,-1.0,2360
4383,2139383,17052,516,-260,17061.79,27.59,-1.00,-1.0,2359
4386,2139386,17036,376,-176,17041.06,27.49,-1.00,-1.0,2359
4389,2139389,16984,428,-412,16994.39,27.59,-1.00,-1.0,2359
4392,2139392,17052,432,-192,17058.55,27.49,-1.00,-1.0,2359
4395,2139395,17060,436,-420,17070.74,27.49,-1.00,-1.0,2359
4398,2139398,17136,352,-132,17140.12,27.49,-1.00,-1.0,2359
4401,2139401,17060,572,-484,17076.45,27.59,-1.00,-1.0,2360
4404,2139404,17148,272,-136,17150.70,27.49,-1.00,-1.0,2359
4407,2139407,17040,428,-372,17049.43,27.49,-1.00,-1.0,2359
4410,2139410,17200,288,-184,17203.39,27.59,-1.00,-1.0,2360
4413,2139413,17048,412,-444,17058.76,27.59,-1.00,-1.0,2359
4416,2139416,17088,272,-324,17093.24,27.59,-1.00,-1.0,2360
4429,2139429,17144,404,-272,17150.92,27.59,-1.00,-1.0,2452
4431,2139431,17032,492,-204,17040.33,27.59,-1.00,-1.0,2364
4434,2139434,17068,476,-164,17075.42,27.59,-1.00,-1.0,2361
4437,2139437,17024,456,-376,17034.26,27.45,-1.00,-1.0,2366
4439,2139439,17052,436,-172,17058.44,27.54,-1.00,-1.0,2359
4442,2139442,17008,424,-348,17016.84,27.49,-1.00,-1.0,2359
4444,2139444,17000,532,-368,17012.30,27.64,-1.00,-1.0,2362
4447,2139447,17044,468,-212,17051.74,27.54,-1.00,-1.0,2347
4449,2139449,17008,456,-156,17014.83,27.49,-1.00,-1.0,2362
4452,2139452,17008,540,-316,17019.50,27.59,-1.00,-1.0,2359
4455,2139455,17032,540,-332,17043.79,27.54,-1.00,-1.0,2360
4457,2139457,17020,536,-268,17030.55,27.54,-1.00,-1.0,2375
4460,2139460,17032,464,-96,17038.59,27.49,-1.00,-1.0,2359
4462,2139462,16956,568,-288,16967.96,27.59,-1.00,-1.0,2359
4465,2139465,17024,576,-280,17036.04,27.64,-1.00,-1.0,2366
4467,2139467,17004,632,-232,17017.32,27.64,-1.00,-1.0,2367
4470,2139470,17048,512,-284,17058.05,27.54,-1.00,-1.0,2347
4472,2139472,17112,560,-160,17121.91,27.49,-1.00,-1.0,2359
4475,2139475,17148,560,-208,17158.40,27.54,-1.00,-1.0,2367
4478,2139478,17036,544,-180,17045.63,27.54,-1.00,-1.0,2361
4480,2139480,17072,552,-244,17082.66,27.59,-1.00,-1.0,2359
4483,2139483,17000,524,-268,17010.19,27.54,-1.00,-1.0,2367
4486,2139486,17088,576,-424,17102.96,27.54,-1.00,-1.0,2361
4489,2139489,17112,604,-340,17126.03,27.54,-1.00,-1.0,2362
4492,2139492,17020,556,-244,17030.83,27.54,-1.00,-1.0,2364
4495,2139495,17056,468,-300,17065.06,27.54,-1.00,-1.0,2367
4498,2139498,17044,548,-248,17054.61,27.54,-1.00,-1.0,2365
4501,2139501,16916,512,-164,16924.54,27.54,-1.00,-1.0,2364
4504,2139504,17028,488,-124,17035.44,27.64,-1.00,-1.0,2364
4507,2139507,17008,456,-280,17016.42,27.45,-1.00,-1.0,2365
4510,2139510,17124,560,-292,17135.64,27.54,-1.00,-1.0,2369
4513,2139513,16996,636,-264,17009.95,27.54,-1.00,-1.0,2366
4516,2139516,17064,508,-204,17072.78,27.59,-1.00,-1.0,2368
4519,2139519,17016,608,-348,17030.41,27.59,-1.00,-1.0,2367
4522,2139522,17116,400,-308,17123.44,27.59,-1.00,-1.0,2370
4525,2139525,17128,392,-288,17134.91,27.59,-1.00,-1.0,2368
4528,2139528,17188,480,-308,17197.46,27.49,-1.00,-1.0,2367
4531,2139531,17008,540,-296,17019.14,27.49,-1.00,-1.0,2366
4534,2139534,17012,472,-460,17024.76,27.59,-1.00,-1.0,2363
4537,2139537,17048,436,-168,17054.40,27.59,-1.00,-1.0,2363
4540,2139540,17072,500,-304,17082.03,27.49,-1.00,-1.0,2361
4543,2139543,16960,532,-140,16968.92,27.49,-1.00,-1.0,2362
4546,2139546,16988,564,-292,16999.87,27.49,-1.00,-1.0,2360
4549,2139549,17120,452,-64,17126.09,27.59,-1.00,-1.0,2360
4552,2139552,16996,440,-432,17007.18,27.49,-1.00,-1.0,2360
4555,2139555,17044,528,-268,17054.28,27.59,-1.00,-1.0,2360
4558,2139558,17084,572,-288,17096.00,27.49,-1.00,-1.0,2359
4561,2139561,17060,420,-440,17070.84,27.59,-1.00,-1.0,2362
4564,2139564,16984,588,-256,16996.10,27.59,-1.00,-1.0,2360
4567,2139567,17056,496,-244,17064.96,27.59,-1.00,-1.0,2360
4570,2139570,16992,540,-196,17001.71,27.49,-1.00,-1.0,2362
4573,2139573,17036,504,-260,17045.44,27.59,-1.00,-1.0,2359
4576,2139576,17064,528,-248,17073.97,27.59,-1.00,-1.0,2359
4579,2139579,17044,484,-120,17051.29,27.59,-1.00,-1.0,2359
4582,2139582,17044,500,-332,17054.56,27.59,-1.00,-1.0,2359
4585,2139585,17120,480,-196,17127.85,27.64,-1.00,-1.0,2359
4588,2139588,17100,464,-352,17109.92,27.64,-1.00,-1.0,2359
4591,2139591,17128,476,-208,17135.88,27.54,-1.00,-1.0,2359
4594,2139594,17036,552,-280,17047.24,27.54,-1.00,-1.0,2411
4597,2139597,17008,524,-272,17018.24,27.54,-1.00,-1.0,2361
4600,2139600,17112,504,-384,17123.73,27.54,-1.00,-1.0,2359
4603,2139603,17052,448,-360,17061.68,27.54,-1.00,-1.0,2359
4606,2139606,17052,504,-280,17061.74,27.54,-1.00,-1.0,2359
4609,2139609,17176,420,-244,17182.87,27.54,-1.00,-1.0,2360
4612,2139612,17084,488,-272,17093.13,27.54,-1.00,-1.0,2360
4615,2139615,17072,508,-252,17081.42,27.54,-1.00,-1.0,2363
4618,2139618,17104,580,-348,17117.37,27.54,-1.00,-1.0,2360
4621,2139621,17092,536,-208,17101.67,27.54,-1.00,-1.0,2359
4624,2139624,17092,488,-184,17099.96,27.54,-1.00,-1.0,2359
4627,2139627,16932,432,-220,16938.94,27.54,-1.00,-1.0,2360
4639,2139639,17016,540,-212,17025.89,27.64,-1.00,-1.0,2460
4642,2139642,17144,512,-68,17151.78,27.49,-1.00,-1.0,2370
4644,2139644,17028,420,-244,17034.93,27.54,-1.00,-1.0,2360
4647,2139647,17124,452,-100,17130.26,27.54,-1.00,-1.0,2360
4649,2139649,17160,456,-104,17166.37,27.49,-1.00,-1.0,2359
4652,2139652,16964,480,-244,16972.54,27.59,-1.00,-1.0,2346
4654,2139654,17088,560,-200,17098.34,27.54,-1.00,-1.0,2362
4657,2139657,17132,476,-284,17140.96,27.64,-1.00,-1.0,2359
4660,2139660,16960,532,-352,16971.99,27.49,-1.00,-1.0,2358
4662,2139662,17056,468,-136,17062.96,27.64,-1.00,-1.0,2374
4665,2139665,17084,460,-252,17092.05,27.54,-1.00,-1.0,2360
4667,2139667,16996,532,-152,17005.00,27.59,-1.00,-1.0,2359
4670,2139670,17100,452,-416,17111.03,27.49,-1.00,-1.0,2366
4672,2139672,17044,556,-308,17055.85,27.64,-1.00,-1.0,2366
4675,2139675,16980,416,-276,16987.34,27.54,-1.00,-1.0,2359
4677,2139677,17056,440,-272,17063.84,27.59,-1.00,-1.0,2345
4680,2139680,17016,492,-308,17025.90,27.59,-1.00,-1.0,2359
4683,2139683,17072,452,-344,17081.45,27.54,-1.00,-1.0,2359
4685,2139685,17056,520,-320,17066.93,27.54,-1.00,-1.0,2360
4688,2139688,17096,564,-248,17107.10,27.64,-1.00,-1.0,2359
4690,2139690,17064,460,-272,17072.37,27.49,-1.00,-1.0,2359
4693,2139693,17140,560,-364,17153.01,27.45,-1.00,-1.0,2358
4696,2139696,17104,576,-292,17116.19,27.49,-1.00,-1.0,2366
4699,2139699,16928,372,-228,16933.62,27.59,-1.00,-1.0,2367
4702,2139702,17112,488,-384,17123.26,27.59,-1.00,-1.0,2367
4705,2139705,17120,536,-348,17131.92,27.59,-1.00,-1.0,2362
4708,2139708,17080,436,-244,17087.31,27.59,-1.00,-1.0,2361
4711,2139711,17068,512,-188,17076.71,27.59,-1.00,-1.0,2355
4714,2139714,17084,440,-300,17092.30,27.64,-1.00,-1.0,2370
4717,2139717,17020,540,-204,17029.79,27.54,-1.00,-1.0,2370
4720,2139720,17056,492,-448,17068.97,27.64,-1.00,-1.0,2369
4723,2139723,17004,496,-244,17012.98,27.54,-1.00,-1.0,2371
4726,2139726,17064,516,-168,17072.63,27.64,-1.00,-1.0,2367
4729,2139729,16932,564,-180,16942.35,27.64,-1.00,-1.0,2367
4732,2139732,17020,628,-304,17034.29,27.54,-1.00,-1.0,2367
4735,2139735,17072,452,-244,17079.72,27.64,-1.00,-1.0,2366
4738,2139738,17040,524,-240,17049.74,27.54,-1.00,-1.0,2368
4741,2139741,17132,428,-188,17138.38,27.54,-1.00,-1.0,2368
4744,2139744,17140,556,-316,17151.93,27.54,-1.00,-1.0,2368
4747,2139747,17012,456,-108,17018.45,27.54,-1.00,-1.0,2368
4750,2139750,17060,560,-364,17073.07,27.54,-1.00,-1.0,2367
4753,2139753,17020,512,-48,17027.77,27.54,-1.00,-1.0,2362
4756,2139756,17124,604,-352,17138.26,27.54,-1.00,-1.0,2367
4759,2139759,17028,460,-144,17034.82,27.54,-1.00,-1.0,2362
4762,2139762,17228,660,-284,17242.98,27.45,-1.00,-1.0,2362
4765,2139765,16980,464,-136,16986.88,27.54,-1.00,-1.0,2362
4768,2139768,17088,488,-352,17098.59,27.54,-1.00,-1.0,2365
4771,2139771,17084,448,-224,17091.34,27.64,-1.00,-1.0,2353
4774,2139774,17076,512,-356,17087.38,27.54,-1.00,-1.0,2347
4777,2139777,17056,488,-272,17065.15,27.54,-1.00,-1.0,2364
4780,2139780,16932,556,-336,16944.46,27.54,-1.00,-1.0,2362
4783,2139783,17036,484,-328,17046.03,27.45,-1.00,-1.0,2362
4786,2139786,16888,512,-288,16898.21,27.49,-1.00,-1.0,2362
4789,2139789,17008,520,-212,17017.27,27.59,-1.00,-1.0,2360
4792,2139792,17104,576,-384,17118.00,27.49,-1.00,-1.0,2359
4795,2139795,17104,456,-404,17114.85,27.49,-1.00,-1.0,2359
4798,2139798,16992,388,-332,16999.67,27.59,-1.00,-1.0,2360
4801,2139801,17032,444,-288,17040.22,27.49,-1.00,-1.0,2360
4804,2139804,17048,448,-300,17056.52,27.49,-1.00,-1.0,2346
4807,2139807,17060,508,-272,17069.73,27.49,-1.00,-1.0,2362
4810,2139810,17084,420,-224,17090.63,27.59,-1.00,-1.0,2361
4813,2139813,17060,420,-284,17067.53,27.59,-1.00,-1.0,2362
4816,2139816,17016,404,-224,17022.27,27.59,-1.00,-1.0,2360
4819,2139819,17104,540,-184,17113.51,27.59,-1.00,-1.0,2360
4822,2139822,17004,436,-296,17012.16,27.68,-1.00,-1.0,2361
4825,2139825,17080,416,-300,17087.70,27.59,-1.00,-1.0,2362
4828,2139828,17048,432,-124,17053.92,27.49,-1.00,-1.0,2362
4831,2139831,17064,468,-196,17071.54,27.59,-1.00,-1.0,2359
4834,2139834,17044,404,-376,17052.93,27.59,-1.00,-1.0,2362
4846,2139846,17064,524,-308,17074.82,27.68,-1.00,-1.0,2447
4849,2139849,17020,500,-216,17028.71,27.54,-1.00,-1.0,2359
4851,2139851,17072,504,-244,17081.18,27.49,-1.00,-1.0,2370
4854,2139854,17064,448,-216,17071.25,27.59,-1.00,-1.0,2360
4856,2139856,17048,508,-312,17058.42,27.64,-1.00,-1.0,2359
4859,2139859,17132,480,-336,17142.02,27.54,-1.00,-1.0,2359
4862,2139862,17080,464,-200,17087.47,27.49,-1.00,-1.0,2363
4864,2139864,17164,572,-116,17173.92,27.64,-1.00,-1.0,2359
4867,2139867,17132,460,-368,17142.12,27.54,-1.00,-1.0,2367
4869,2139869,17068,556,-324,17080.13,27.54,-1.00,-1.0,2410
4872,2139872,17068,492,-112,17075.46,27.59,-1.00,-1.0,2369
4875,2139875,17024,516,-264,17033.86,27.49,-1.00,-1.0,2362
4877,2139877,17052,516,-268,17061.91,27.45,-1.00,-1.0,2359
4880,2139880,17028,512,-136,17036.24,27.54,-1.00,-1.0,2367
4882,2139882,17096,516,-240,17105.47,27.59,-1.00,-1.0,2370
4885,2139885,17088,564,-172,17098.17,27.64,-1.00,-1.0,2362
4887,2139887,17028,552,-260,17038.93,27.54,-1.00,-1.0,2360
4890,2139890,17052,476,-112,17059.01,27.49,-1.00,-1.0,2359
4893,2139893,17084,500,-360,17095.11,27.59,-1.00,-1.0,2364
4895,2139895,17092,508,-168,17100.37,27.45,-1.00,-1.0,2360
4898,2139898,17064,492,-236,17072.72,27.54,-1.00,-1.0,2360
4900,2139900,17008,480,-392,17019.29,27.59,-1.00,-1.0,2363
4903,2139903,17032,428,-308,17040.16,27.45,-1.00,-1.0,2359
4906,2139906,17052,488,-388,17063.39,27.64,-1.00,-1.0,2359
4909,2139909,17080,520,-208,17089.18,27.54,-1.00,-1.0,2360
4912,2139912,17128,544,-236,17138.26,27.54,-1.00,-1.0,2360
4915,2139915,17132,628,-284,17145.86,27.54,-1.00,-1.0,2360
4918,2139918,17016,484,-300,17025.53,27.54,-1.00,-1.0,2363
4921,2139921,17028,572,-248,17039.41,27.68,-1.00,-1.0,2360
4924,2139924,16984,420,-172,16990.06,27.59,-1.00,-1.0,2359
4927,2139927,16984,464,-320,16993.35,27.49,-1.00,-1.0,2360
4930,2139930,17100,408,-244,17106.61,27.49,-1.00,-1.0,2359
4933,2139933,17028,524,-336,17039.37,27.59,-1.00,-1.0,2360
4936,2139936,17004,456,-68,17010.25,27.59,-1.00,-1.0,2359
4939,2139939,17072,512,-256,17081.59,27.68,-1.00,-1.0,2360
4942,2139942,16976,548,-292,16987.35,27.59,-1.00,-1.0,2359
4945,2139945,16992,592,-324,17005.40,27.59,-1.00,-1.0,2360
4948,2139948,16952,544,-144,16961.34,27.49,-1.00,-1.0,2359
4951,2139951,17076,548,-320,17087.79,27.59,-1.00,-1.0,2360
4954,2139954,17072,540,-280,17082.83,27.68,-1.00,-1.0,2359
4957,2139957,17028,532,-216,17037.68,27.59,-1.00,-1.0,2359
4960,2139960,17036,528,-332,17047.41,27.59,-1.00,-1.0,2360
4963,2139963,17108,584,-352,17121.58,27.59,-1.00,-1.0,2360
4966,2139966,17072,536,-384,17084.73,27.49,-1.00,-1.0,2359
4969,2139969,16968,488,-308,16977.81,27.59,-1.00,-1.0,2360
4972,2139972,17000,576,-356,17013.48,27.59,-1.00,-1.0,2354
4975,2139975,17076,480,-284,17085.11,27.49,-1.00,-1.0,2367
4978,2139978,16996,456,-272,17004.29,27.59,-1.00,-1.0,2367
4981,2139981,17076,560,-404,17089.96,27.59,-1.00,-1.0,2367
4984,2139984,16992,512,-192,17000.80,27.64,-1.00,-1.0,2366
4987,2139987,17020,520,-320,17030.95,27.54,-1.00,-1.0,2368
4990,2139990,17140,508,-148,17148.17,27.45,-1.00,-1.0,2367
4993,2139993,17056,496,-204,17064.43,27.54,-1.00,-1.0,2366
4996,2139996,17000,516,-340,17011.23,27.54,-1.00,-1.0,2367
4999,2139999,17012,544,-288,17023.13,27.54,-1.00,-1.0,2367
5002,2140002,17032,508,-288,17042.01,27.54,-1.00,-1.0,2367
5005,2140005,17040,400,-320,17047.70,27.54,-1.00,-1.0,2375
5008,2140008,17008,496,-236,17016.87,27.45,-1.00,-1.0,2375
5011,2140011,17108,496,-252,17117.04,27.54,-1.00,-1.0,2375
5014,2140014,17064,532,-368,17076.26,27.54,-1.00,-1.0,2376
5017,2140017,17036,388,-392,17044.93,27.64,-1.00,-1.0,2374
5020,2140020,17044,504,-336,17054.76,27.64,-1.00,-1.0,2374
5023,2140023,16980,528,-260,16990.20,27.54,-1.00,-1.0,2368
5026,2140026,17116,420,-204,17122.37,27.54,-1.00,-1.0,2367
5029,2140029,17036,520,-348,17047.49,27.54,-1.00,-1.0,2368
5032,2140032,16964,520,-360,16975.79,27.54,-1.00,-1.0,2367
5035,2140035,17096,484,-280,17105.14,27.54,-1.00,-1.0,2367
5038,2140038,16980,416,-256,16987.02,27.45,-1.00,-1.0,2367
5041,2140041,17016,560,-208,17026.48,27.54,-1.00,-1.0,2362
5044,2140044,17020,428,-312,17028.24,27.54,-1.00,-1.0,2367
5056,2140056,16976,460,-332,16985.48,27.54,-1.00,-1.0,2454
5059,2140059,17108,440,-232,17115.23,27.64,-1.00,-1.0,2363
5062,2140062,17132,496,-320,17142.17,27.64,-1.00,-1.0,2361
5064,2140064,17060,560,-304,17071.89,27.49,-1.00,-1.0,2358
5067,2140067,17052,564,-260,17063.30,27.49,-1.00,-1.0,2355
5069,2140069,17064,416,-228,17070.59,27.54,-1.00,-1.0,2363
5072,2140072,17080,424,-376,17089.40,27.54,-1.00,-1.0,2361
5074,2140074,17032,520,-344,17043.41,27.59,-1.00,-1.0,2362
5077,2140077,17044,540,-244,17054.30,27.54,-1.00,-1.0,2359
5080,2140080,16952,548,-368,16964.85,27.54,-1.00,-1.0,2355
5082,2140082,17088,444,-276,17096.00,27.59,-1.00,-1.0,2366
5085,2140085,17028,436,-244,17035.33,27.59,-1.00,-1.0,2355
5087,2140087,17048,436,-204,17054.79,27.54,-1.00,-1.0,2361
5090,2140090,17088,428,-196,17094.48,27.64,-1.00,-1.0,2366
5092,2140092,17072,452,-340,17081.37,27.64,-1.00,-1.0,2367
5095,2140095,17032,500,-168,17040.17,27.49,-1.00,-1.0,2358
5097,2140097,17040,540,-328,17051.71,27.54,-1.00,-1.0,2342
5100,2140100,17060,480,-140,17067.33,27.64,-1.00,-1.0,2359
5103,2140103,17000,504,-192,17008.55,27.59,-1.00,-1.0,2357
5105,2140105,17096,504,-308,17106.20,27.59,-1.00,-1.0,2358
5108,2140108,17076,432,-308,17084.24,27.54,-1.00,-1.0,2356
5110,2140110,17096,544,-408,17109.52,27.64,-1.00,-1.0,2364
5113,2140113,17076,532,-116,17084.68,27.59,-1.00,-1.0,2358
5116,2140116,17024,532,-88,17032.54,27.59,-1.00,-1.0,2356
5119,2140119,17020,568,-284,17031.84,27.59,-1.00,-1.0,2358
5122,2140122,17140,552,-288,17151.30,27.59,-1.00,-1.0,2355
5125,2140125,17092,356,-212,17097.02,27.54,-1.00,-1.0,2359
5128,2140128,17064,504,-324,17074.52,27.54,-1.00,-1.0,2355
5131,2140131,17000,468,-464,17012.77,27.64,-1.00,-1.0,2358
5134,2140134,17000,676,-244,17015.19,27.54,-1.00,-1.0,2355
5137,2140137,17060,444,-404,17070.56,27.45,-1.00,-1.0,2358
5140,2140140,17072,564,-260,17083.29,27.64,-1.00,-1.0,2355
5143,2140143,17032,480,-352,17042.40,27.54,-1.00,-1.0,2359
5146,2140146,17016,572,-296,17028.18,27.54,-1.00,-1.0,2355
5149,2140149,17012,476,-168,17019.49,27.64,-1.00,-1.0,2345
5152,2140152,17088,596,-276,17100.62,27.54,-1.00,-1.0,2343
5155,2140155,17064,552,-260,17074.91,27.54,-1.00,-1.0,2359
5158,2140158,17064,480,-320,17073.75,27.54,-1.00,-1.0,2356
5161,2140161,17012,516,-168,17020.65,27.45,-1.00,-1.0,2358
5164,2140164,17112,492,-316,17121.99,27.64,-1.00,-1.0,2355
5167,2140167,16992,500,-264,17001.40,27.64,-1.00,-1.0,2358
5170,2140170,17128,436,-244,17135.29,27.54,-1.00,-1.0,2356
5173,2140173,17100,460,-284,17108.54,27.64,-1.00,-1.0,2358
5176,2140176,17016,352,-304,17022.36,27.45,-1.00,-1.0,2355
5179,2140179,17148,480,-436,17160.26,27.64,-1.00,-1.0,2360
5182,2140182,17148,624,-72,17159.50,27.54,-1.00,-1.0,2362
5185,2140185,17012,492,-236,17020.75,27.64,-1.00,-1.0,2361
5188,2140188,17008,472,-356,17018.27,27.54,-1.00,-1.0,2360
5191,2140191,17088,532,-408,17101.15,27.64,-1.00,-1.0,2363
5194,2140194,17020,456,-236,17027.74,27.64,-1.00,-1.0,2362
5197,2140197,17172,468,-308,17181.14,27.54,-1.00,-1.0,2362
5200,2140200,17080,404,-368,17088.74,27.64,-1.00,-1.0,2360
5203,2140203,17028,428,-308,17036.16,27.45,-1.00,-1.0,2361
5206,2140206,16988,580,-408,17002.79,27.64,-1.00,-1.0,2361
5209,2140209,17112,440,-236,17119.28,27.64,-1.00,-1.0,2363
5212,2140212,16948,596,-224,16959.96,27.49,-1.00,-1.0,2362
5215,2140215,17124,460,-56,17130.27,27.49,-1.00,-1.0,2359
5218,2140218,17056,520,-340,17067.31,27.59,-1.00,-1.0,2363
5221,2140221,16980,428,-324,16988.48,27.49,-1.00,-1.0,2363
5224,2140224,17012,528,-260,17022.18,27.59,-1.00,-1.0,2362
5227,2140227,17168,484,-196,17175.94,27.68,-1.00,-1.0,2362
5230,2140230,17016,480,-216,17024.14,27.68,-1.00,-1.0,2362
5233,2140233,17080,588,-296,17092.68,27.59,-1.00,-1.0,2363
5236,2140236,17028,492,-364,17038.99,27.49,-1.00,-1.0,2360
5239,2140239,16912,460,-256,16920.19,27.49,-1.00,-1.0,2365
5242,2140242,17068,560,-320,17080.18,27.59,-1.00,-1.0,2362
5245,2140245,17040,456,-136,17046.64,27.59,-1.00,-1.0,2364
5248,2140248,17140,456,-212,17147.38,27.49,-1.00,-1.0,2362
5251,2140251,17004,516,-324,17014.91,27.54,-1.00,-1.0,2421
5263,2140263,17052,616,-256,17065.04,27.59,-1.00,-1.0,2462
5266,2140266,16924,540,-292,16935.13,27.54,-1.00,-1.0,2349
5269,2140269,17008,592,-288,17020.74,27.49,-1.00,-1.0,2367
5271,2140271,16988,584,-472,17004.59,27.64,-1.00,-1.0,2367
5274,2140274,17044,676,-344,17060.87,27.64,-1.00,-1.0,2360
5276,2140276,17028,524,-148,17036.70,27.49,-1.00,-1.0,2359
5279,2140279,17064,600,-364,17078.42,27.59,-1.00,-1.0,2359
5282,2140282,17004,620,-368,17019.28,27.64,-1.00,-1.0,2364
5284,2140284,17040,592,-292,17052.78,27.54,-1.00,-1.0,2359
5287,2140287,17036,624,-288,17049.86,27.49,-1.00,-1.0,2366
5289,2140289,17064,400,-168,17069.51,27.64,-1.00,-1.0,2361
5292,2140292,16968,516,-276,16978.09,27.64,-1.00,-1.0,2359
5294,2140294,17084,628,-368,17099.50,27.59,-1.00,-1.0,2359
5297,2140297,17136,496,-200,17144.34,27.59,-1.00,-1.0,2360
5300,2140300,17040,532,-324,17051.38,27.64,-1.00,-1.0,2360
5302,2140302,17016,460,-140,17022.79,27.64,-1.00,-1.0,2361
5305,2140305,17020,628,-352,17035.22,27.49,-1.00,-1.0,2359
5307,2140307,17092,488,-196,17100.09,27.59,-1.00,-1.0,2360
5310,2140310,17096,436,-160,17102.31,27.64,-1.00,-1.0,2367
5312,2140312,17080,508,-316,17090.47,27.59,-1.00,-1.0,2367
5315,2140315,17000,452,-140,17006.58,27.68,-1.00,-1.0,2359
5318,2140318,17044,508,-216,17052.94,27.54,-1.00,-1.0,2359
5320,2140320,17160,452,-232,17167.52,27.59,-1.00,-1.0,2366
5323,2140323,17056,456,-304,17064.80,27.59,-1.00,-1.0,2367
5326,2140326,17160,432,-296,17167.99,27.59,-1.00,-1.0,2362
5329,2140329,17040,484,-220,17048.29,27.59,-1.00,-1.0,2361
5332,2140332,16984,420,-244,16990.95,27.59,-1.00,-1.0,2362
5335,2140335,17088,496,-152,17095.87,27.49,-1.00,-1.0,2361
5338,2140338,17016,404,-84,17021.00,27.49,-1.00,-1.0,2346
5341,2140341,17156,380,-332,17163.42,27.59,-1.00,-1.0,2346
5344,2140344,17132,540,-288,17142.93,27.59,-1.00,-1.0,2361
5347,2140347,17084,376,-76,17088.31,27.59,-1.00,-1.0,2361
5350,2140350,17004,476,-204,17011.88,27.49,-1.00,-1.0,2358
5353,2140353,17048,432,-244,17055.22,27.49,-1.00,-1.0,2361
5356,2140356,17108,448,-272,17116.03,27.59,-1.00,-1.0,2359
5359,2140359,17144,488,-324,17154.00,27.59,-1.00,-1.0,2359
5362,2140362,17000,436,-264,17007.64,27.59,-1.00,-1.0,2358
5365,2140365,17060,476,-184,17067.63,27.49,-1.00,-1.0,2359
5368,2140368,17048,492,-264,17057.14,27.49,-1.00,-1.0,2358
5371,2140371,17024,472,-168,17031.37,27.49,-1.00,-1.0,2359
5374,2140374,17104,476,-228,17112.14,27.59,-1.00,-1.0,2359
5377,2140377,17088,580,-232,17099.41,27.49,-1.00,-1.0,2359
5380,2140380,17040,616,-156,17051.84,27.59,-1.00,-1.0,2359
5383,2140383,17024,468,-112,17030.80,27.59,-1.00,-1.0,2359
5386,2140386,17040,480,-248,17048.56,27.59,-1.00,-1.0,2359
5389,2140389,17048,548,-212,17058.12,27.54,-1.00,-1.0,2359
5392,2140392,17064,540,-312,17075.39,27.54,-1.00,-1.0,2360
5395,2140395,17016,536,-352,17028.08,27.54,-1.00,-1.0,2359
5398,2140398,17016,428,-332,17024.62,27.54,-1.00,-1.0,2360
5401,2140401,17112,448,-236,17119.49,27.45,-1.00,-1.0,2358
5404,2140404,17036,456,-208,17043.37,27.64,-1.00,-1.0,2359
5407,2140407,17080,528,-136,17088.70,27.64,-1.00,-1.0,2358
5410,2140410,17080,480,-216,17088.11,27.64,-1.00,-1.0,2359
5413,2140413,17048,464,-248,17056.12,27.54,-1.00,-1.0,2360
5416,2140416,17116,476,-204,17123.83,27.54,-1.00,-1.0,2359
5419,2140419,17128,540,-300,17139.14,27.54,-1.00,-1.0,2359
5422,2140422,17064,356,-28,17067.74,27.54,-1.00,-1.0,2359
5425,2140425,17084,500,-348,17094.86,27.54,-1.00,-1.0,2347
5428,2140428,17004,380,-256,17010.17,27.54,-1.00,-1.0,2346
5431,2140431,17084,392,-264,17090.54,27.54,-1.00,-1.0,2360
5434,2140434,17080,432,-164,17086.25,27.54,-1.00,-1.0,2359
5437,2140437,16964,488,-248,16972.83,27.64,-1.00,-1.0,2359
5440,2140440,16948,400,-256,16954.65,27.64,-1.00,-1.0,2359
5443,2140443,17064,544,-360,17076.46,27.64,-1.00,-1.0,2358
5446,2140446,17020,416,-236,17026.72,27.54,-1.00,-1.0,2358
5450,2140450,17012,460,-132,17018.73,27.54,-1.00,-1.0,2360
5453,2140453,17052,448,-308,17060.66,27.54,-1.00,-1.0,2359
5456,2140456,17012,412,-188,17018.03,27.49,-1.00,-1.0,2359
5459,2140459,17000,484,-404,17011.69,27.59,-1.00,-1.0,2359
5462,2140462,17080,348,-236,17085.18,27.49,-1.00,-1.0,2359
5474,2140474,17080,512,-156,17088.38,27.54,-1.00,-1.0,2448
5476,2140476,17072,472,-296,17081.09,27.64,-1.00,-1.0,2370
5479,2140479,16996,436,-376,17005.75,27.64,-1.00,-1.0,2359
5482,2140482,17080,496,-56,17087.29,27.49,-1.00,-1.0,2360
5484,2140484,17192,372,-264,17198.05,27.59,-1.00,-1.0,2374
5487,2140487,17076,412,-200,17082.14,27.54,-1.00,-1.0,2359
5489,2140489,17052,480,-304,17061.46,27.64,-1.00,-1.0,2359
5492,2140492,17132,492,-344,17142.52,27.59,-1.00,-1.0,2367
5494,2140494,17024,496,-296,17033.80,27.54,-1.00,-1.0,2367
5497,2140497,16992,456,-208,16999.39,27.54,-1.00,-1.0,2348
5499,2140499,17020,396,-224,17026.08,27.54,-1.00,-1.0,2359
5502,2140502,17124,284,-312,17129.20,27.59,-1.00,-1.0,2366
5505,2140505,17056,312,-388,17063.27,27.64,-1.00,-1.0,2361
5507,2140507,16976,372,-336,16983.40,27.54,-1.00,-1.0,2359
5510,2140510,17032,396,-208,17037.87,27.59,-1.00,-1.0,2367
5512,2140512,17112,432,-368,17121.41,27.59,-1.00,-1.0,2363
5515,2140515,17004,404,-172,17009.67,27.54,-1.00,-1.0,2361
5517,2140517,16968,396,-264,16974.67,27.54,-1.00,-1.0,2359
5520,2140520,17064,496,-332,17074.44,27.54,-1.00,-1.0,2360
5523,2140523,16988,472,-124,16995.01,27.49,-1.00,-1.0,2364
5525,2140525,17088,476,-392,17099.12,27.54,-1.00,-1.0,2359
5528,2140528,17112,452,-184,17118.96,27.49,-1.00,-1.0,2359
5531,2140531,17068,580,-264,17079.89,27.64,-1.00,-1.0,2362
5534,2140534,17052,536,-336,17063.73,27.64,-1.00,-1.0,2362
5537,2140537,17104,432,-212,17110.77,27.54,-1.00,-1.0,2361
5540,2140540,16912,588,-252,16924.10,27.54,-1.00,-1.0,2362
5543,2140543,17032,676,-256,17047.33,27.64,-1.00,-1.0,2359
5546,2140546,17032,664,-184,17045.93,27.64,-1.00,-1.0,2360
5549,2140549,17068,504,-280,17077.73,27.54,-1.00,-1.0,2361
5552,2140552,17136,688,-260,17151.78,27.64,-1.00,-1.0,2362
5555,2140555,16932,632,-244,16945.55,27.64,-1.00,-1.0,2361
5558,2140558,17008,568,-200,17018.66,27.54,-1.00,-1.0,2360
5561,2140561,17004,564,-300,17016.00,27.54,-1.00,-1.0,2362
5564,2140564,17056,660,-92,17069.01,27.54,-1.00,-1.0,2361
5567,2140567,17028,752,-340,17047.99,27.54,-1.00,-1.0,2360
5570,2140570,16992,652,-432,17009.99,27.64,-1.00,-1.0,2361
5573,2140573,16972,648,-292,16986.88,27.54,-1.00,-1.0,2361
5576,2140576,17072,656,-276,17086.83,27.49,-1.00,-1.0,2403
5579,2140579,17068,624,-256,17081.32,27.64,-1.00,-1.0,2359
5582,2140582,17080,592,-244,17092.00,27.64,-1.00,-1.0,2360
5585,2140585,17080,480,-184,17087.73,27.64,-1.00,-1.0,2359
5588,2140588,17080,540,-236,17090.16,27.54,-1.00,-1.0,2360
5591,2140591,17140,536,-228,17149.89,27.49,-1.00,-1.0,2359
5594,2140594,16992,580,-228,17003.42,27.59,-1.00,-1.0,2359
5597,2140597,16956,536,-248,16966.28,27.59,-1.00,-1.0,2359
5600,2140600,17080,488,-296,17089.53,27.59,-1.00,-1.0,2359
5603,2140603,17088,552,-248,17098.71,27.49,-1.00,-1.0,2359
5606,2140606,17048,540,-360,17060.35,27.59,-1.00,-1.0,2359
5609,2140609,17060,468,-236,17068.05,27.59,-1.00,-1.0,2359
5612,2140612,17112,556,-112,17121.40,27.59,-1.00,-1.0,2360
5615,2140615,17092,468,-280,17100.70,27.59,-1.00,-1.0,2359
5618,2140618,17048,392,-272,17054.68,27.59,-1.00,-1.0,2361
5621,2140621,16924,572,-148,16934.31,27.59,-1.00,-1.0,2359
5624,2140624,17096,404,-284,17103.13,27.68,-1.00,-1.0,2359
5627,2140627,17024,488,-184,17031.99,27.49,-1.00,-1.0,2360
5630,2140630,17068,460,-140,17074.77,27.49,-1.00,-1.0,2359
5633,2140633,17200,488,-272,17209.07,27.59,-1.00,-1.0,2359
5636,2140636,17036,360,-272,17041.97,27.68,-1.00,-1.0,2359
5639,2140639,17076,456,-268,17084.19,27.59,-1.00,-1.0,2359
5642,2140642,17056,424,-248,17063.07,27.49,-1.00,-1.0,2359
5645,2140645,17132,424,-304,17139.94,27.59,-1.00,-1.0,2359
5648,2140648,17068,408,-276,17075.11,27.59,-1.00,-1.0,2359
5651,2140651,17148,404,-252,17154.61,27.59,-1.00,-1.0,2359
5654,2140654,16908,552,-300,16919.67,27.59,-1.00,-1.0,2360
5657,2140657,17024,500,-400,17036.04,27.64,-1.00,-1.0,2360
5660,2140660,17148,420,-424,17158.38,27.54,-1.00,-1.0,2359
5663,2140663,17072,304,-152,17075.38,27.54,-1.00,-1.0,2368
5666,2140666,17072,408,-428,17082.24,27.54,-1.00,-1.0,2367
5669,2140669,17076,348,-196,17080.67,27.54,-1.00,-1.0,2367
5681,2140681,17016,384,-212,17021.65,27.49,-1.00,-1.0,2458
5684,2140684,17076,460,-324,17085.27,27.59,-1.00,-1.0,2362
5686,2140686,16988,480,-296,16997.36,27.64,-1.00,-1.0,2346
5689,2140689,16940,484,-96,16947.19,27.54,-1.00,-1.0,2367
5691,2140691,17092,544,-108,17101.00,27.59,-1.00,-1.0,2368
5694,2140694,17012,404,-312,17019.66,27.59,-1.00,-1.0,2360
5696,2140696,17032,404,-116,17037.19,27.54,-1.00,-1.0,2359
5699,2140699,17100,596,-156,17111.09,27.64,-1.00,-1.0,2359
5702,2140702,17112,564,-264,17123.33,27.68,-1.00,-1.0,2363
5704,2140704,17080,392,-292,17086.99,27.59,-1.00,-1.0,2359
5707,2140707,17184,444,-272,17191.89,27.64,-1.00,-1.0,2366
5709,2140709,17080,536,-88,17088.63,27.59,-1.00,-1.0,2365
5712,2140712,17108,444,-192,17114.84,27.49,-1.00,-1.0,2345
5714,2140714,16980,476,-312,16989.54,27.68,-1.00,-1.0,2361
5717,2140717,16972,436,-404,16982.41,27.73,-1.00,-1.0,2359
5720,2140720,17032,548,-308,17043.60,27.59,-1.00,-1.0,2359
5722,2140722,17036,468,-184,17043.42,27.68,-1.00,-1.0,2366
5725,2140725,17016,392,-264,17022.56,27.54,-1.00,-1.0,2362
5727,2140727,17012,540,-344,17024.04,27.64,-1.00,-1.0,2359
5730,2140730,17072,548,-232,17082.37,27.64,-1.00,-1.0,2366
5732,2140732,16996,460,-236,17003.86,27.59,-1.00,-1.0,2367
5735,2140735,17092,568,-352,17105.06,27.64,-1.00,-1.0,2359
5738,2140738,16996,500,-64,17003.47,27.64,-1.00,-1.0,2366
5741,2140741,17076,576,-248,17087.51,27.54,-1.00,-1.0,2368
5744,2140744,17092,488,-248,17100.76,27.59,-1.00,-1.0,2367
5747,2140747,17008,572,-432,17023.10,27.49,-1.00,-1.0,2365
5750,2140750,16988,372,-344,16995.55,27.49,-1.00,-1.0,2367
5753,2140753,17040,580,-288,17052.30,27.68,-1.00,-1.0,2362
5756,2140756,17024,376,-256,17030.08,27.59,-1.00,-1.0,2368
5759,2140759,17064,484,-212,17072.18,27.59,-1.00,-1.0,2367
5762,2140762,17016,528,-296,17026.76,27.59,-1.00,-1.0,2362
5765,2140765,17012,496,-220,17020.65,27.59,-1.00,-1.0,2362
5768,2140768,17088,516,-188,17096.82,27.59,-1.00,-1.0,2362
5771,2140771,17048,504,-436,17061.02,27.59,-1.00,-1.0,2354
5774,2140774,17076,436,-248,17083.37,27.59,-1.00,-1.0,2348
5777,2140777,16968,492,-352,16978.78,27.49,-1.00,-1.0,2347
5780,2140780,17060,488,-292,17069.48,27.59,-1.00,-1.0,2362
5783,2140783,16984,472,-252,16992.43,27.59,-1.00,-1.0,2362
5786,2140786,17044,436,-152,17050.25,27.68,-1.00,-1.0,2360
5789,2140789,17028,544,-460,17042.90,27.59,-1.00,-1.0,2361
5792,2140792,17048,388,-236,17054.05,27.54,-1.00,-1.0,2360
5795,2140795,16988,472,-464,17000.89,27.64,-1.00,-1.0,2359
5798,2140798,17056,488,-308,17065.76,27.54,-1.00,-1.0,2360
5801,2140801,17060,480,-348,17070.30,27.54,-1.00,-1.0,2360
5804,2140804,17068,440,-212,17074.99,27.64,-1.00,-1.0,2347
5807,2140807,17100,512,-332,17110.88,27.73,-1.00,-1.0,2363
5810,2140810,17016,464,-76,17022.49,27.64,-1.00,-1.0,2362
5813,2140813,17088,556,-320,17100.04,27.54,-1.00,-1.0,2362
5816,2140816,17044,408,-196,17050.01,27.64,-1.00,-1.0,2361
5819,2140819,17068,552,-316,17079.85,27.54,-1.00,-1.0,2362
5822,2140822,17092,328,-224,17096.62,27.54,-1.00,-1.0,2362
5825,2140825,17116,604,-404,17131.42,27.54,-1.00,-1.0,2363
5828,2140828,17176,488,-212,17184.24,27.54,-1.00,-1.0,2360
5831,2140831,17140,496,-316,17150.09,27.54,-1.00,-1.0,2360
5834,2140834,17028,472,-336,17037.85,27.54,-1.00,-1.0,2360
5837,2140837,16964,432,-280,16971.81,27.64,-1.00,-1.0,2362
5840,2140840,17136,468,-228,17143.91,27.64,-1.00,-1.0,2360
5843,2140843,17104,392,-176,17109.40,27.64,-1.00,-1.0,2360
5846,2140846,17088,476,-228,17096.15,27.54,-1.00,-1.0,2362
5849,2140849,17004,508,-392,17016.10,27.64,-1.00,-1.0,2359
5852,2140852,17048,368,-108,17052.31,27.64,-1.00,-1.0,2359
5855,2140855,16948,512,-240,16957.43,27.64,-1.00,-1.0,2360
5858,2140858,16988,528,-292,16998.71,27.64,-1.00,-1.0,2348
5861,2140861,17068,476,-212,17075.95,27.64,-1.00,-1.0,2346
5864,2140864,17084,452,-256,17091.90,27.54,-1.00,-1.0,2347
5867,2140867,17124,416,-212,17130.36,27.59,-1.00,-1.0,2360
5870,2140870,17036,540,-372,17048.62,27.68,-1.00,-1.0,2359
5873,2140873,17008,484,-72,17015.04,27.49,-1.00,-1.0,2360
5876,2140876,17020,512,-228,17029.23,27.49,-1.00,-1.0,2359
5879,2140879,17000,492,-276,17009.36,27.59,-1.00,-1.0,2359
5891,2140891,17016,636,-164,17028.67,27.54,-1.00,-1.0,2443
5894,2140894,17116,560,-164,17125.94,27.64,-1.00,-1.0,2366
5896,2140896,16968,536,-416,16981.56,27.68,-1.00,-1.0,2362
5899,2140899,17008,476,-376,17018.81,27.59,-1.00,-1.0,2359
5902,2140902,17060,512,-428,17073.05,27.64,-1.00,-1.0,2359
5904,2140904,17124,492,-264,17133.10,27.64,-1.00,-1.0,2373
5907,2140907,17156,616,-304,17169.75,27.64,-1.00,-1.0,2359
5909,2140909,17096,540,-424,17109.78,27.59,-1.00,-1.0,2358
5912,2140912,17056,528,-312,17067.02,27.64,-1.00,-1.0,2368
5914,2140914,17028,552,-328,17040.10,27.54,-1.00,-1.0,2367
5917,2140917,17064,504,-212,17072.76,27.49,-1.00,-1.0,2348
5919,2140919,17048,492,-348,17058.65,27.59,-1.00,-1.0,2359
5922,2140922,17072,508,-212,17080.87,27.54,-1.00,-1.0,2367
5925,2140925,17108,448,-312,17116.71,27.64,-1.00,-1.0,2361
5927,2140927,17016,600,-408,17031.46,27.49,-1.00,-1.0,2359
5930,2140930,17088,452,-204,17095.19,27.64,-1.00,-1.0,2367
5932,2140932,17084,552,-220,17094.33,27.64,-1.00,-1.0,2363
5935,2140935,17068,564,-212,17078.63,27.59,-1.00,-1.0,2361
5937,2140937,16964,552,-232,16974.56,27.59,-1.00,-1.0,2359
5940,2140940,17052,484,-312,17061.72,27.64,-1.00,-1.0,2359
5943,2140943,17028,640,-312,17042.88,27.54,-1.00,-1.0,2364
5945,2140945,17064,628,-240,17077.24,27.59,-1.00,-1.0,2362
5948,2140948,17060,448,-104,17066.20,27.54,-1.00,-1.0,2360
5951,2140951,17132,508,-256,17141.44,27.45,-1.00,-1.0,2359
5954,2140954,16996,612,-268,17009.13,27.54,-1.00,-1.0,2359
5957,2140957,16960,576,-228,16971.31,27.54,-1.00,-1.0,2359
5960,2140960,17036,600,-368,17050.54,27.54,-1.00,-1.0,2360
5963,2140963,16968,552,-376,16981.14,27.64,-1.00,-1.0,2360
5966,2140966,17028,532,-296,17038.88,27.54,-1.00,-1.0,2359
5969,2140969,17024,604,-256,17036.63,27.64,-1.00,-1.0,2359
5972,2140972,17040,532,-340,17051.69,27.54,-1.00,-1.0,2360
5975,2140975,17168,568,-300,17180.01,27.64,-1.00,-1.0,2361
5978,2140978,17100,628,-356,17115.23,27.64,-1.00,-1.0,2362
5981,2140981,17080,408,-356,17088.58,27.64,-1.00,-1.0,2368
5984,2140984,16968,460,-220,16975.66,27.54,-1.00,-1.0,2367
5987,2140987,17016,600,-344,17030.05,27.59,-1.00,-1.0,2367
5990,2140990,17032,372,-204,17037.28,27.49,-1.00,-1.0,2367
5993,2140993,17084,532,-360,17096.07,27.59,-1.00,-1.0,2367
5996,2140996,17000,440,-284,17008.06,27.59,-1.00,-1.0,2365
5999,2140999,17080,584,-300,17092.61,27.68,-1.00,-1.0,2367
6002,2141002,17052,436,-352,17061.21,27.68,-1.00,-1.0,2365
6005,2141005,17136,496,-368,17147.13,27.59,-1.00,-1.0,2375
6008,2141008,17032,452,-196,17039.12,27.59,-1.00,-1.0,2375
6011,2141011,17064,456,-240,17071.78,27.59,-1.00,-1.0,2373
6014,2141014,17108,440,-60,17113.76,27.59,-1.00,-1.0,2373
6017,2141017,17116,320,-332,17122.21,27.68,-1.00,-1.0,2373
6020,2141020,17052,428,-196,17058.50,27.59,-1.00,-1.0,2373
6023,2141023,17024,476,-200,17031.83,27.59,-1.00,-1.0,2366
6026,2141026,17088,500,-60,17095.42,27.68,-1.00,-1.0,2367
6029,2141029,17052,524,-180,17061.00,27.59,-1.00,-1.0,2366
6032,2141032,17052,364,-192,17056.96,27.59,-1.00,-1.0,2367
6035,2141035,17120,516,-248,17129.57,27.59,-1.00,-1.0,2366
6038,2141038,17076,584,-216,17087.35,27.59,-1.00,-1.0,2367
6041,2141041,17060,516,-216,17069.17,27.59,-1.00,-1.0,2361
6044,2141044,17052,500,-356,17063.04,27.68,-1.00,-1.0,2366
6047,2141047,17008,516,-260,17017.81,27.59,-1.00,-1.0,2366
6050,2141050,17036,432,-344,17044.95,27.68,-1.00,-1.0,2361
6053,2141053,17024,484,-424,17036.16,27.59,-1.00,-1.0,2361
6056,2141056,16972,452,-312,16980.88,27.59,-1.00,-1.0,2361
6059,2141059,17000,556,-248,17010.90,27.64,-1.00,-1.0,2361
6062,2141062,17096,552,-224,17106.38,27.59,-1.00,-1.0,2346
6065,2141065,17012,452,-160,17018.76,27.64,-1.00,-1.0,2408
6068,2141068,17044,496,-216,17052.58,27.64,-1.00,-1.0,2363
6071,2141071,17104,496,-128,17111.67,27.54,-1.00,-1.0,2361
6074,2141074,17052,412,-384,17061.30,27.64,-1.00,-1.0,2362
6077,2141077,17012,576,-368,17025.73,27.54,-1.00,-1.0,2360
6080,2141080,17076,412,-340,17084.35,27.54,-1.00,-1.0,2359
6083,2141083,17048,568,-464,17063.77,27.64,-1.00,-1.0,2360
6086,2141086,17084,488,-136,17091.51,27.64,-1.00,-1.0,2359
6098,2141098,17088,528,-52,17096.23,27.64,-1.00,-1.0,2464
6101,2141101,17040,452,-140,17046.57,27.64,-1.00,-1.0,2349
6103,2141103,16988,528,-320,16999.21,27.54,-1.00,-1.0,2355
6106,2141106,17108,452,-264,17116.01,27.59,-1.00,-1.0,2359
6109,2141109,17116,512,-196,17124.78,27.59,-1.00,-1.0,2353
6111,2141111,16976,596,-172,16987.33,27.64,-1.00,-1.0,2367
6114,2141114,17076,456,-144,17082.70,27.64,-1.00,-1.0,2359
6116,2141116,17060,440,-220,17067.09,27.68,-1.00,-1.0,2356
6119,2141119,16968,412,-248,16974.81,27.59,-1.00,-1.0,2365
6121,2141121,17136,452,-92,17142.21,27.64,-1.00,-1.0,2361
6124,2141124,17072,504,-304,17082.14,27.54,-1.00,-1.0,2349
6126,2141126,17096,612,-164,17107.74,27.54,-1.00,-1.0,2354
6129,2141129,17228,556,-272,17239.12,27.49,-1.00,-1.0,2359
6132,2141132,17004,516,-156,17012.54,27.64,-1.00,-1.0,2360
6134,2141134,17052,404,-180,17057.73,27.54,-1.00,-1.0,2359
6137,2141137,17096,580,-328,17108.98,27.59,-1.00,-1.0,2360
6139,2141139,17100,576,-280,17111.99,27.59,-1.00,-1.0,2357
6142,2141142,17044,512,-296,17054.26,27.64,-1.00,-1.0,2361
6144,2141144,17004,516,-228,17013.36,27.54,-1.00,-1.0,2357
6147,2141147,17036,504,-292,17045.96,27.59,-1.00,-1.0,2360
