timestamp_ms,global_ms,accel_x,accel_y,accel_z,accel_mag,temp_c,voltage,soc,loop_us
3,2135003,17084,644,-264,17098.17,29.75,-1.00,-1.0,2484
9,2135009,17068,488,-340,17078.36,29.71,-1.00,-1.0,2462
12,2135012,17060,348,-368,17067.52,29.71,-1.00,-1.0,2373
14,2135014,17112,468,-296,17120.96,29.75,-1.00,-1.0,2362
17,2135017,17080,404,-372,17088.83,29.85,-1.00,-1.0,2434
20,2135020,17084,432,-296,17092.02,29.71,-1.00,-1.0,2365
23,2135023,17044,472,-156,17051.25,29.75,-1.00,-1.0,2445
25,2135025,16980,420,-208,16986.47,29.89,-1.00,-1.0,2358
28,2135028,17060,500,-232,17068.90,29.85,-1.00,-1.0,2439
31,2135031,17100,488,-220,17108.38,29.80,-1.00,-1.0,2361
36,2135036,17064,504,-348,17074.99,29.80,-1.00,-1.0,2442
39,2135039,17056,488,-236,17064.61,29.80,-1.00,-1.0,2368
41,2135041,17096,420,-192,17102.24,29.85,-1.00,-1.0,2356
44,2135044,17016,300,-148,17019.29,29.85,-1.00,-1.0,2440
47,2135047,17112,492,-176,17119.98,29.75,-1.00,-1.0,2366
49,2135049,17160,372,-236,17165.65,29.85,-1.00,-1.0,2433
52,2135052,17032,368,-412,17040.96,29.75,-1.00,-1.0,2365
55,2135055,17108,448,-212,17115.18,29.75,-1.00,-1.0,2434
58,2135058,17100,420,-180,17106.10,29.80,-1.00,-1.0,2368
63,2135063,17024,504,-200,17032.63,29.80,-1.00,-1.0,2449
65,2135065,17024,464,-164,17031.11,29.80,-1.00,-1.0,2368
68,2135068,17004,460,-452,17016.22,29.80,-1.00,-1.0,2454
71,2135071,17044,416,-376,17053.22,29.71,-1.00,-1.0,2368
73,2135073,17032,436,-148,17038.22,29.80,-1.00,-1.0,2369
76,2135076,17124,284,-436,17131.90,29.75,-1.00,-1.0,2433
79,2135079,17072,276,-296,17076.80,29.71,-1.00,-1.0,2355
82,2135082,17128,332,-372,17135.26,29.80,-1.00,-1.0,2446
84,2135084,17104,296,-320,17109.55,29.80,-1.00,-1.0,2368
89,2135089,17028,436,-152,17034.26,29.80,-1.00,-1.0,2443
92,2135092,17096,428,-248,17103.15,29.75,-1.00,-1.0,2363
95,2135095,17020,580,-248,17031.69,29.80,-1.00,-1.0,2441
97,2135097,16956,588,-228,16967.72,29.75,-1.00,-1.0,2359
100,2135100,17052,536,-228,17061.95,29.80,-1.00,-1.0,2360
103,2135103,17200,448,-212,17207.14,29.71,-1.00,-1.0,2447
105,2135105,17124,480,-424,17135.97,29.71,-1.00,-1.0,2360
108,2135108,17016,532,-260,17026.30,29.80,-1.00,-1.0,2440
111,2135111,17044,472,-352,17054.17,29.75,-1.00,-1.0,2360
116,2135116,17068,512,-264,17077.72,29.75,-1.00,-1.0,2443
119,2135119,16876,404,-444,16886.67,29.75,-1.00,-1.0,2369
121,2135121,17024,544,-352,17036.33,29.75,-1.00,-1.0,2433
124,2135124,16924,632,-324,16938.89,29.75,-1.00,-1.0,2367
127,2135127,17008,592,-288,17020.74,29.75,-1.00,-1.0,2361
129,2135129,16932,532,-264,16942.41,29.89,-1.00,-1.0,2434
132,2135132,17136,520,-256,17145.80,29.85,-1.00,-1.0,2366
135,2135135,17132,588,-132,17142.60,29.75,-1.00,-1.0,2432
138,2135138,16992,580,-204,17003.12,29.85,-1.00,-1.0,2368
143,2135143,17012,500,-208,17020.62,29.75,-1.00,-1.0,2446
145,2135145,17020,456,-296,17028.68,29.80,-1.00,-1.0,2371
148,2135148,17032,476,-424,17043.93,29.85,-1.00,-1.0,2447
151,2135151,17092,444,-368,17101.73,29.71,-1.00,-1.0,2370
154,2135154,17120,532,-416,17133.31,29.75,-1.00,-1.0,2452
156,2135156,17212,408,-472,17223.30,29.80,-1.00,-1.0,2363
159,2135159,17028,400,-264,17034.74,29.80,-1.00,-1.0,2362
162,2135162,16976,488,-276,16985.26,29.85,-1.00,-1.0,2431
165,2135165,17040,360,-284,17046.17,29.75,-1.00,-1.0,2369
170,2135170,17112,444,-220,17119.17,29.85,-1.00,-1.0,2442
172,2135172,17152,384,-164,17157.08,29.80,-1.00,-1.0,2363
175,2135175,17268,468,-288,17276.74,29.85,-1.00,-1.0,2455
178,2135178,17076,468,-316,17085.33,29.80,-1.00,-1.0,2363
181,2135181,17096,388,-272,17102.56,29.75,-1.00,-1.0,2438
183,2135183,17040,500,-200,17048.51,29.71,-1.00,-1.0,2360
186,2135186,17032,468,-116,17038.82,29.71,-1.00,-1.0,2440
189,2135189,17144,432,-208,17150.70,29.80,-1.00,-1.0,2366
192,2135192,16956,408,-372,16964.99,29.75,-1.00,-1.0,2356
197,2135197,17088,436,-240,17095.25,29.75,-1.00,-1.0,2442
199,2135199,17120,468,-188,17127.43,29.75,-1.00,-1.0,2364
202,2135202,17080,448,-224,17087.34,29.75,-1.00,-1.0,2452
205,2135205,17056,428,-292,17063.87,29.80,-1.00,-1.0,2370
208,2135208,17052,456,-292,17060.60,29.75,-1.00,-1.0,2451
210,2135210,17172,452,-264,17179.98,29.80,-1.00,-1.0,2363
213,2135213,17028,428,-200,17034.55,29.75,-1.00,-1.0,2454
216,2135216,17088,444,-136,17094.31,29.80,-1.00,-1.0,2367
221,2135221,17044,496,-252,17053.08,29.75,-1.00,-1.0,2443
223,2135223,17032,448,-272,17040.06,29.66,-1.00,-1.0,2364
226,2135226,17096,456,-444,17107.84,29.75,-1.00,-1.0,2362
229,2135229,17032,540,-368,17044.53,29.80,-1.00,-1.0,2443
231,2135231,16972,476,-324,16981.77,29.85,-1.00,-1.0,2375
234,2135234,17064,568,-244,17075.19,29.71,-1.00,-1.0,2440
237,2135237,17048,520,-288,17058.36,29.75,-1.00,-1.0,2372
240,2135240,17172,484,-248,17180.61,29.80,-1.00,-1.0,2441
243,2135243,17052,472,-340,17061.92,29.80,-1.00,-1.0,2366
248,2135248,17104,564,-180,17114.24,29.75,-1.00,-1.0,2442
250,2135250,17112,484,-284,17121.20,29.80,-1.00,-1.0,2350
253,2135253,17056,448,-416,17066.95,29.75,-1.00,-1.0,2439
256,2135256,17132,536,-348,17143.92,29.80,-1.00,-1.0,2366
258,2135258,17020,428,-456,17031.49,29.75,-1.00,-1.0,2359
261,2135261,17048,468,-280,17056.72,29.75,-1.00,-1.0,2438
264,2135264,17072,480,-304,17081.45,29.71,-1.00,-1.0,2373
267,2135267,17140,476,-352,17150.22,29.75,-1.00,-1.0,2442
270,2135270,17124,560,-340,17136.53,29.80,-1.00,-1.0,2365
275,2135275,17100,452,-272,17108.13,29.80,-1.00,-1.0,2443
277,2135277,17112,372,-272,17118.21,29.80,-1.00,-1.0,2365
280,2135280,17020,448,-272,17028.07,29.80,-1.00,-1.0,2427
283,2135283,17116,412,-344,17124.41,29.80,-1.00,-1.0,2363
285,2135285,17120,440,-88,17125.88,29.71,-1.00,-1.0,2361
288,2135288,17080,528,-308,17090.94,29.75,-1.00,-1.0,2436
291,2135291,17012,492,-132,17019.62,29.80,-1.00,-1.0,2367
294,2135294,17020,660,-364,17036.68,29.75,-1.00,-1.0,2461
297,2135297,17028,516,-420,17040.99,29.89,-1.00,-1.0,2373
302,2135302,17068,408,-316,17075.80,29.80,-1.00,-1.0,2452
304,2135304,17028,336,-252,17033.18,29.75,-1.00,-1.0,2365
307,2135307,17084,400,-368,17092.64,29.75,-1.00,-1.0,2439
310,2135310,17112,488,-244,17120.70,29.80,-1.00,-1.0,2365
313,2135313,16972,484,-256,16980.83,29.71,-1.00,-1.0,2444
315,2135315,17032,544,-412,17045.67,29.80,-1.00,-1.0,2362
318,2135318,17092,496,-388,17103.60,29.75,-1.00,-1.0,2361
321,2135321,17044,564,-256,17055.25,29.89,-1.00,-1.0,2446
324,2135324,17032,584,-100,17042.30,29.75,-1.00,-1.0,2362
329,2135329,17116,500,-272,17125.46,29.85,-1.00,-1.0,2449
331,2135331,17116,460,-204,17123.39,29.75,-1.00,-1.0,2365
334,2135334,17028,480,-380,17039.00,29.75,-1.00,-1.0,2437
337,2135337,17100,428,-452,17111.33,29.80,-1.00,-1.0,2349
340,2135340,17176,464,-444,17188.00,29.80,-1.00,-1.0,2434
342,2135342,17124,324,-448,17132.92,29.71,-1.00,-1.0,2365
345,2135345,17000,372,-368,17008.05,29.75,-1.00,-1.0,2438
348,2135348,17100,412,-340,17108.34,29.80,-1.00,-1.0,2362
351,2135351,17128,516,-224,17137.23,29.80,-1.00,-1.0,2368
356,2135356,17116,488,-376,17127.08,29.75,-1.00,-1.0,2446
358,2135358,17024,540,-188,17033.60,29.75,-1.00,-1.0,2364
361,2135361,16992,492,-308,17001.91,29.75,-1.00,-1.0,2438
364,2135364,16952,500,-292,16961.89,29.85,-1.00,-1.0,2361
367,2135367,17032,384,-248,17038.13,29.75,-1.00,-1.0,2444
369,2135369,17164,340,-128,17167.84,29.75,-1.00,-1.0,2362
372,2135372,16968,332,-284,16973.62,29.75,-1.00,-1.0,2437
375,2135375,16988,368,-272,16994.16,29.85,-1.00,-1.0,2362
380,2135380,17092,436,-184,17098.55,29.80,-1.00,-1.0,2447
383,2135383,17032,404,-236,17038.43,29.80,-1.00,-1.0,2373
385,2135385,16988,484,-216,16996.27,29.85,-1.00,-1.0,2362
388,2135388,17004,420,-256,17011.11,29.85,-1.00,-1.0,2418
391,2135391,17100,476,-152,17107.30,29.89,-1.00,-1.0,2369
393,2135393,17092,468,-264,17100.44,29.75,-1.00,-1.0,2430
396,2135396,17084,348,-140,17088.12,29.89,-1.00,-1.0,2369
399,2135399,17024,388,-240,17030.11,29.75,-1.00,-1.0,2438
402,2135402,17060,484,-236,17068.50,29.80,-1.00,-1.0,2364
407,2135407,17084,508,-316,17094.47,29.80,-1.00,-1.0,2449
410,2135410,9996,212,1824,10163.26,29.71,-1.00,-1.0,2364
412,2135412,23496,-3788,-1176,23828.43,29.80,-1.00,-1.0,2451
415,2135415,14716,-7284,-3012,16693.99,29.80,-1.00,-1.0,2362
418,2135418,32767,17628,-16724,40793.56,29.89,-1.00,-1.0,2364
420,2135420,2216,-6412,20448,21544.03,29.75,-1.00,-1.0,2433
423,2135423,32767,-672,-4080,33026.87,29.80,-1.00,-1.0,2382
426,2135426,19768,9740,-7092,23150.33,29.75,-1.00,-1.0,2436
429,2135429,-4636,-1788,12912,13835.07,29.85,-1.00,-1.0,2366
434,2135434,6304,5876,-15124,17406.99,29.66,-1.00,-1.0,2444
436,2135436,4680,-16712,16224,23757.35,29.85,-1.00,-1.0,2367
439,2135439,27696,116,5308,28200.30,29.75,-1.00,-1.0,2424
442,2135442,-1088,5520,-11024,12376.70,29.85,-1.00,-1.0,2362
445,2135445,18436,-7500,16684,25970.98,29.75,-1.00,-1.0,2437
447,2135447,23820,10652,-21840,34027.09,29.75,-1.00,-1.0,2370
450,2135450,13816,-5232,13308,19883.62,29.75,-1.00,-1.0,2438
453,2135453,18244,4196,-6532,19827.18,29.80,-1.00,-1.0,2423
458,2135458,20116,-5732,16352,26549.90,29.75,-1.00,-1.0,2460
461,2135461,16308,7648,-16712,24570.99,29.80,-1.00,-1.0,2379
464,2135464,17928,-8844,15860,25518.02,29.75,-1.00,-1.0,2448
466,2135466,19192,7240,-13384,24492.49,29.75,-1.00,-1.0,2379
469,2135469,12976,3228,-8052,15608.69,29.85,-1.00,-1.0,2441
472,2135472,21444,-3948,10292,24111.35,29.75,-1.00,-1.0,2376
474,2135474,16284,7004,-14228,22730.17,29.75,-1.00,-1.0,2364
477,2135477,18344,-2736,8452,20381.96,29.80,-1.00,-1.0,2434
480,2135480,20508,3820,-6124,21741.06,29.80,-1.00,-1.0,2368
485,2135485,19052,-3672,7716,20880.59,29.75,-1.00,-1.0,2442
488,2135488,16596,3992,-9676,19621.12,29.75,-1.00,-1.0,2377
490,2135490,16852,-3348,7296,18666.30,29.75,-1.00,-1.0,2438
493,2135493,17040,1476,-2344,17263.68,29.75,-1.00,-1.0,2375
496,2135496,17632,452,-728,17652.81,29.75,-1.00,-1.0,2436
499,2135499,17748,-1568,2904,18052.24,29.75,-1.00,-1.0,2370
501,2135501,15672,2176,-2944,16093.90,29.85,-1.00,-1.0,2423
504,2135504,17716,172,1804,17808.44,29.85,-1.00,-1.0,2384
509,2135509,17356,228,-996,17386.05,29.80,-1.00,-1.0,2439
512,2135512,17644,816,592,17672.78,29.80,-1.00,-1.0,2377
514,2135514,16816,720,-640,16843.57,29.85,-1.00,-1.0,2361
517,2135517,17608,244,1520,17675.17,29.85,-1.00,-1.0,2431
520,2135520,17104,1088,-1992,17253.95,29.75,-1.00,-1.0,2376
523,2135523,17044,-276,720,17061.43,29.75,-1.00,-1.0,2445
525,2135525,16740,748,-456,16762.91,29.75,-1.00,-1.0,2369
528,2135528,17024,824,-1576,17116.64,29.75,-1.00,-1.0,2448
531,2135531,17432,-288,1152,17472.40,29.89,-1.00,-1.0,2367
536,2135536,17428,1008,-880,17479.29,29.80,-1.00,-1.0,2439
539,2135539,16792,800,-496,16818.36,29.89,-1.00,-1.0,2369
541,2135541,16828,1024,-444,16864.97,29.71,-1.00,-1.0,2436
544,2135544,17776,-420,1444,17839.50,29.80,-1.00,-1.0,2368
547,2135547,16740,188,-1616,16818.87,29.71,-1.00,-1.0,2420
550,2135550,16860,-232,588,16871.85,29.75,-1.00,-1.0,2368
552,2135552,16996,552,84,17005.17,29.80,-1.00,-1.0,2361
555,2135555,17004,576,-1088,17048.51,29.75,-1.00,-1.0,2450
558,2135558,17112,-140,1204,17154.88,29.75,-1.00,-1.0,2368
563,2135563,17144,144,680,17158.08,29.85,-1.00,-1.0,2460
566,2135566,16924,772,-696,16955.89,29.75,-1.00,-1.0,2378
569,2135569,17032,424,-620,17048.55,29.80,-1.00,-1.0,2453
571,2135571,17124,404,356,17132.46,29.75,-1.00,-1.0,2376
574,2135574,16872,1260,-2316,17076.76,29.80,-1.00,-1.0,2446
577,2135577,17020,-508,2152,17163.03,29.75,-1.00,-1.0,2370
580,2135580,17188,1172,-2452,17401.53,29.89,-1.00,-1.0,2449
582,2135582,17052,-460,844,17079.07,29.75,-1.00,-1.0,2374
585,2135585,17192,40,680,17205.49,29.85,-1.00,-1.0,2362
590,2135590,17296,-484,2000,17417.97,29.85,-1.00,-1.0,2446
593,2135593,16924,1280,-1732,17060.48,29.80,-1.00,-1.0,2367
596,2135596,17080,-352,424,17088.89,29.80,-1.00,-1.0,2438
598,2135598,17168,-496,1088,17209.59,29.80,-1.00,-1.0,2366
601,2135601,16820,1668,-2004,17020.89,29.75,-1.00,-1.0,2438
604,2135604,17288,-652,1632,17377.10,29.80,-1.00,-1.0,2364
606,2135606,17224,836,-1188,17285.15,29.89,-1.00,-1.0,2438
609,2135609,16876,844,-512,16904.85,29.89,-1.00,-1.0,2365
614,2135614,16968,848,-1240,17034.37,29.71,-1.00,-1.0,2436
617,2135617,16980,232,716,16996.67,29.80,-1.00,-1.0,2370
619,2135619,17000,704,-976,17042.54,29.80,-1.00,-1.0,2363
622,2135622,17060,408,-256,17066.80,29.85,-1.00,-1.0,2438
625,2135625,16992,416,-292,16999.60,29.80,-1.00,-1.0,2367
628,2135628,16968,460,-504,16981.71,29.89,-1.00,-1.0,2431
630,2135630,17124,8,60,17124.11,29.71,-1.00,-1.0,2373
633,2135633,16900,736,-796,16934.74,29.80,-1.00,-1.0,2438
636,2135636,16996,412,228,17002.52,29.80,-1.00,-1.0,2380
641,2135641,16960,380,-276,16966.50,29.71,-1.00,-1.0,2444
644,2135644,16852,804,-192,16872.26,29.80,-1.00,-1.0,2370
646,2135646,17068,608,-512,17086.50,29.80,-1.00,-1.0,2441
649,2135649,17044,120,224,17045.89,29.80,-1.00,-1.0,2373
652,2135652,17148,404,-412,17157.71,29.75,-1.00,-1.0,2363
654,2135654,17068,368,-40,17072.01,29.75,-1.00,-1.0,2437
657,2135657,17000,348,-584,17013.59,29.85,-1.00,-1.0,2366
660,2135660,17056,496,-196,17064.34,29.85,-1.00,-1.0,2437
663,2135663,17060,672,-436,17078.80,29.80,-1.00,-1.0,2367
668,2135668,16940,252,-76,16942.04,29.85,-1.00,-1.0,2443
671,2135671,17164,588,-556,17183.07,29.80,-1.00,-1.0,2368
673,2135673,17028,524,-240,17037.75,29.80,-1.00,-1.0,2437
676,2135676,17032,460,-396,17042.81,29.71,-1.00,-1.0,2369
679,2135679,17056,492,-272,17065.26,29.75,-1.00,-1.0,2360
681,2135681,17120,332,-76,17123.39,29.75,-1.00,-1.0,2438
684,2135684,17048,576,-372,17061.78,29.75,-1.00,-1.0,2366
687,2135687,17028,288,-220,17031.86,29.85,-1.00,-1.0,2437
690,2135690,16988,576,-452,17003.77,29.85,-1.00,-1.0,2365
695,2135695,17196,484,-20,17202.82,29.80,-1.00,-1.0,2452
698,2135698,17128,520,-524,17143.90,29.80,-1.00,-1.0,2371
701,2135701,17104,136,92,17104.79,29.85,-1.00,-1.0,2452
703,2135703,17004,608,-576,17024.61,29.80,-1.00,-1.0,2375
706,2135706,17096,340,-128,17099.86,29.75,-1.00,-1.0,2448
709,2135709,17124,308,124,17127.22,29.71,-1.00,-1.0,2368
711,2135711,17088,604,-296,17101.23,29.89,-1.00,-1.0,2356
714,2135714,17168,356,-188,17172.72,29.75,-1.00,-1.0,2436
717,2135717,17148,472,-228,17156.01,29.85,-1.00,-1.0,2365
722,2135722,17028,352,-352,17035.28,29.75,-1.00,-1.0,2449
725,2135725,17128,404,-484,17139.60,29.80,-1.00,-1.0,2369
728,2135728,17040,428,-224,17046.85,29.85,-1.00,-1.0,2449
730,2135730,17004,536,-308,17015.23,29.80,-1.00,-1.0,2375
733,2135733,17100,544,-400,17113.33,29.85,-1.00,-1.0,2439
736,2135736,16992,536,-444,17006.25,29.89,-1.00,-1.0,2367
739,2135739,17060,412,-328,17068.13,29.75,-1.00,-1.0,2453
741,2135741,17148,456,-208,17155.32,29.80,-1.00,-1.0,2375
744,2135744,17052,496,-392,17063.71,29.66,-1.00,-1.0,2362
749,2135749,17140,540,-524,17156.51,29.85,-1.00,-1.0,2449
752,2135752,17008,380,-296,17014.82,29.75,-1.00,-1.0,2355
755,2135755,17000,508,-196,17008.72,29.75,-1.00,-1.0,2448
757,2135757,17044,724,-596,17069.78,29.80,-1.00,-1.0,2374
760,2135760,17032,344,-228,17037.00,29.75,-1.00,-1.0,2438
763,2135763,17056,400,-292,17063.19,29.75,-1.00,-1.0,2365
766,2135766,17036,572,-204,17046.82,29.85,-1.00,-1.0,2453
768,2135768,17072,528,-176,17081.07,29.80,-1.00,-1.0,2375
771,2135771,16940,380,-348,16947.83,29.80,-1.00,-1.0,2362
776,2135776,17100,432,-252,17107.31,29.75,-1.00,-1.0,2443
779,2135779,16960,404,-344,16968.30,29.75,-1.00,-1.0,2370
782,2135782,16992,400,-404,17001.51,29.71,-1.00,-1.0,2435
784,2135784,16968,400,-300,16975.37,29.85,-1.00,-1.0,2368
787,2135787,17024,572,-392,17038.12,29.71,-1.00,-1.0,2439
790,2135790,17140,388,20,17144.40,29.85,-1.00,-1.0,2366
793,2135793,17052,444,-176,17058.69,29.75,-1.00,-1.0,2437
795,2135795,16980,540,-444,16994.38,29.75,-1.00,-1.0,2373
800,2135800,17080,444,-180,17086.72,29.75,-1.00,-1.0,2450
803,2135803,17128,488,-168,17135.77,29.75,-1.00,-1.0,2374
806,2135806,17136,520,-168,17144.71,29.75,-1.00,-1.0,2362
808,2135808,17032,688,-408,17050.77,29.80,-1.00,-1.0,2438
811,2135811,17104,496,-280,17113.48,29.75,-1.00,-1.0,2368
814,2135814,17060,492,-316,17070.02,29.80,-1.00,-1.0,2441
817,2135817,17044,604,-336,17058.01,29.85,-1.00,-1.0,2370
819,2135819,17008,540,-216,17017.94,29.85,-1.00,-1.0,2426
822,2135822,17036,360,-340,17043.20,29.89,-1.00,-1.0,2367
827,2135827,17036,436,-348,17045.13,29.80,-1.00,-1.0,2445
830,2135830,16992,472,-344,17002.04,29.71,-1.00,-1.0,2367
833,2135833,17016,412,-228,17022.51,29.80,-1.00,-1.0,2445
835,2135835,17124,512,-216,17133.01,29.71,-1.00,-1.0,2367
838,2135838,17004,652,-236,17018.13,29.89,-1.00,-1.0,2361
841,2135841,17088,552,-232,17098.49,29.75,-1.00,-1.0,2444
843,2135843,17100,420,-356,17108.86,29.80,-1.00,-1.0,2366
846,2135846,17060,452,-348,17069.54,29.75,-1.00,-1.0,2445
849,2135849,17056,484,-156,17063.58,29.85,-1.00,-1.0,2371
854,2135854,17136,384,-228,17141.82,29.85,-1.00,-1.0,2437
857,2135857,17036,528,-240,17045.87,29.85,-1.00,-1.0,2376
860,2135860,17064,392,-188,17069.54,29.89,-1.00,-1.0,2449
862,2135862,17084,336,-236,17088.93,29.75,-1.00,-1.0,2376
865,2135865,17112,476,-272,17120.78,29.80,-1.00,-1.0,2446
868,2135868,17096,376,-120,17100.55,29.85,-1.00,-1.0,2369
870,2135870,17060,456,-228,17067.62,29.89,-1.00,-1.0,2350
873,2135873,17076,416,-340,17084.45,29.80,-1.00,-1.0,2445
876,2135876,17060,476,-212,17067.96,29.75,-1.00,-1.0,2377
881,2135881,17024,520,-348,17035.49,29.85,-1.00,-1.0,2451
884,2135884,17064,440,-492,17076.76,29.85,-1.00,-1.0,2376
887,2135887,17108,480,-204,17115.95,29.85,-1.00,-1.0,2426
890,2135890,17140,492,-500,17154.35,29.75,-1.00,-1.0,2367
892,2135892,17116,552,-180,17125.85,29.89,-1.00,-1.0,2451
895,2135895,16996,424,-172,17002.16,29.75,-1.00,-1.0,2366
898,2135898,17020,516,-328,17030.98,29.75,-1.00,-1.0,2445
901,2135901,17204,444,-200,17210.89,29.75,-1.00,-1.0,2367
903,2135903,17100,516,-236,17109.41,29.80,-1.00,-1.0,2369
908,2135908,17076,480,-360,17086.54,29.85,-1.00,-1.0,2443
911,2135911,16976,320,-228,16980.55,29.85,-1.00,-1.0,2368
914,2135914,17004,424,-364,17013.18,29.75,-1.00,-1.0,2444
916,2135916,17092,428,-68,17097.49,29.85,-1.00,-1.0,2370
919,2135919,17052,320,-280,17057.30,29.85,-1.00,-1.0,2445
922,2135922,17060,468,-228,17067.94,29.75,-1.00,-1.0,2366
925,2135925,17076,500,-344,17086.78,29.75,-1.00,-1.0,2444
927,2135927,17016,436,-256,17023.51,29.75,-1.00,-1.0,2354
930,2135930,17036,576,-348,17049.29,29.80,-1.00,-1.0,2370
935,2135935,17120,436,-228,17127.07,29.80,-1.00,-1.0,2450
938,2135938,17004,540,-420,17017.76,29.85,-1.00,-1.0,2377
941,2135941,17088,440,-216,17095.03,29.80,-1.00,-1.0,2441
944,2135944,17076,516,-244,17085.54,29.85,-1.00,-1.0,2368
946,2135946,17076,368,-312,17082.81,29.80,-1.00,-1.0,2448
949,2135949,17120,328,-244,17124.88,29.66,-1.00,-1.0,2374
952,2135952,17084,428,-308,17092.13,29.89,-1.00,-1.0,2448
955,2135955,17072,456,-160,17078.84,29.75,-1.00,-1.0,2368
959,2135959,17132,424,-388,17141.64,29.75,-1.00,-1.0,2442
962,2135962,17112,428,-368,17121.31,29.80,-1.00,-1.0,2369
965,2135965,17108,484,-436,17120.40,29.75,-1.00,-1.0,2363
968,2135968,17112,524,-528,17128.16,29.80,-1.00,-1.0,2437
970,2135970,17156,520,-320,17166.86,29.75,-1.00,-1.0,2371
973,2135973,17148,464,-388,17158.66,29.80,-1.00,-1.0,2436
976,2135976,17152,468,-416,17163.43,29.75,-1.00,-1.0,2373
979,2135979,17072,460,-440,17083.86,29.89,-1.00,-1.0,2437
981,2135981,17028,400,-272,17034.87,29.75,-1.00,-1.0,2367
986,2135986,17048,408,-196,17054.01,29.71,-1.00,-1.0,2444
989,2135989,17092,320,-100,17095.29,29.80,-1.00,-1.0,2376
992,2135992,17024,616,-184,17036.13,29.75,-1.00,-1.0,2437
995,2135995,17088,488,-300,17097.60,29.80,-1.00,-1.0,2372
997,2135997,17064,488,-288,17073.41,29.80,-1.00,-1.0,2362
1000,2136000,17104,508,-244,17113.28,29.75,-1.00,-1.0,2436
1003,2136003,17052,516,-220,17061.22,29.75,-1.00,-1.0,2366
1006,2136006,16996,428,-316,17004.32,29.71,-1.00,-1.0,2436
1008,2136008,17068,376,-276,17074.37,29.66,-1.00,-1.0,2367
1013,2136013,17140,364,-248,17145.66,29.75,-1.00,-1.0,2445
1016,2136016,17056,508,-356,17067.28,29.71,-1.00,-1.0,2372
1019,2136019,17016,456,-328,17025.27,29.85,-1.00,-1.0,2436
1022,2136022,17112,360,-216,17117.15,29.75,-1.00,-1.0,2365
1024,2136024,16984,508,-396,16996.21,29.85,-1.00,-1.0,2437
1027,2136027,17196,632,-300,17210.22,29.80,-1.00,-1.0,2369
1030,2136030,17036,448,-132,17042.40,29.85,-1.00,-1.0,2437
1033,2136033,17000,452,-180,17006.96,29.89,-1.00,-1.0,2364
1035,2136035,17192,440,-304,17200.32,29.75,-1.00,-1.0,2348
1040,2136040,17028,360,-76,17031.97,29.75,-1.00,-1.0,2447
1043,2136043,17116,520,-212,17125.21,29.80,-1.00,-1.0,2369
1046,2136046,17132,368,-208,17137.21,29.85,-1.00,-1.0,2436
1049,2136049,17136,348,-208,17140.79,29.85,-1.00,-1.0,2368
1051,2136051,17000,456,-416,17011.20,29.85,-1.00,-1.0,2437
1054,2136054,16900,540,-308,16911.43,29.89,-1.00,-1.0,2370
1057,2136057,17000,552,-396,17013.57,29.85,-1.00,-1.0,2439
1060,2136060,17072,504,-240,17081.12,29.75,-1.00,-1.0,2364
1064,2136064,17080,608,-392,17095.31,29.71,-1.00,-1.0,2462
1067,2136067,17156,476,-236,17164.22,29.80,-1.00,-1.0,2372
1070,2136070,17076,416,-296,17083.63,29.89,-1.00,-1.0,2439
1073,2136073,17112,444,-292,17120.25,29.80,-1.00,-1.0,2373
1075,2136075,17032,484,-392,17043.38,29.85,-1.00,-1.0,2373
1078,2136078,17148,488,-220,17156.35,29.80,-1.00,-1.0,2435
1081,2136081,17084,476,-396,17095.22,29.80,-1.00,-1.0,2374
1084,2136084,17072,604,-304,17085.39,29.75,-1.00,-1.0,2446
1087,2136087,17028,552,-412,17041.93,29.80,-1.00,-1.0,2365
1091,2136091,17124,492,-176,17131.97,29.85,-1.00,-1.0,2453
1094,2136094,17048,528,-232,17057.75,29.80,-1.00,-1.0,2376
1097,2136097,17088,376,-300,17094.77,29.75,-1.00,-1.0,2426
1100,2136100,17072,484,-364,17082.74,29.80,-1.00,-1.0,2365
1102,2136102,17060,480,-372,17070.80,29.85,-1.00,-1.0,2452
1105,2136105,17072,456,-236,17079.72,29.71,-1.00,-1.0,2374
1108,2136108,17052,484,-244,17060.61,29.75,-1.00,-1.0,2364
1111,2136111,17152,444,-392,17162.22,29.85,-1.00,-1.0,2448
1114,2136114,17096,440,-384,17105.97,29.85,-1.00,-1.0,2371
1119,2136119,17088,472,-224,17095.98,29.85,-1.00,-1.0,2442
1121,2136121,17112,440,-256,17119.57,29.80,-1.00,-1.0,2370
1124,2136124,17008,388,-260,17014.41,29.89,-1.00,-1.0,2437
1127,2136127,17012,464,-256,17020.25,29.80,-1.00,-1.0,2374
1130,2136130,17108,496,-248,17116.98,29.75,-1.00,-1.0,2437
1132,2136132,17092,432,-192,17098.54,29.89,-1.00,-1.0,2365
1135,2136135,17112,368,-324,17119.02,29.80,-1.00,-1.0,2437
1138,2136138,17020,408,-236,17026.53,29.71,-1.00,-1.0,2367
1143,2136143,17184,400,-320,17191.63,29.71,-1.00,-1.0,2442
1145,2136145,17040,360,-360,17047.60,29.75,-1.00,-1.0,2355
1148,2136148,17036,468,-272,17044.60,29.80,-1.00,-1.0,2360
1151,2136151,17080,416,-224,17086.53,29.71,-1.00,-1.0,2444
1153,2136153,17008,420,-232,17014.77,29.89,-1.00,-1.0,2367
1156,2136156,17060,432,-288,17067.90,29.71,-1.00,-1.0,2437
1159,2136159,17068,504,-332,17078.67,29.71,-1.00,-1.0,2367
1162,2136162,16988,604,-168,16999.56,29.80,-1.00,-1.0,2444
1165,2136165,17164,476,-320,17173.58,29.85,-1.00,-1.0,2370
1170,2136170,16992,444,-252,16999.67,29.75,-1.00,-1.0,2449
1172,2136172,17008,440,-200,17014.87,29.85,-1.00,-1.0,2382
1175,2136175,17148,464,-240,17155.96,29.80,-1.00,-1.0,2430
1178,2136178,17060,472,-232,17068.11,29.85,-1.00,-1.0,2375
1181,2136181,17096,520,-444,17109.67,29.89,-1.00,-1.0,2444
1183,2136183,17108,428,-124,17113.80,29.85,-1.00,-1.0,2371
1186,2136186,17004,384,-448,17014.23,29.89,-1.00,-1.0,2362
1189,2136189,17076,356,-260,17081.69,29.80,-1.00,-1.0,2430
1192,2136192,17068,484,-280,17077.16,29.80,-1.00,-1.0,2367
1197,2136197,17124,428,-260,17131.32,29.80,-1.00,-1.0,2444
1199,2136199,16984,400,-300,16991.36,29.85,-1.00,-1.0,2378
1202,2136202,17124,496,-576,17140.86,29.80,-1.00,-1.0,2443
1205,2136205,16984,400,-356,16992.44,29.75,-1.00,-1.0,2370
1208,2136208,17048,500,-196,17056.46,29.71,-1.00,-1.0,2450
1210,2136210,17044,452,-444,17055.77,29.80,-1.00,-1.0,2375
1213,2136213,17048,484,-284,17057.23,29.71,-1.00,-1.0,2442
1216,2136216,17024,488,-276,17033.23,29.85,-1.00,-1.0,2370
1221,2136221,17060,480,-192,17067.83,29.75,-1.00,-1.0,2449
1224,2136224,17056,492,-156,17063.81,29.94,-1.00,-1.0,2369
1226,2136226,17096,508,-272,17105.71,29.80,-1.00,-1.0,2376
1229,2136229,17136,508,-160,17144.28,29.80,-1.00,-1.0,2440
1232,2136232,16964,468,-276,16972.70,29.89,-1.00,-1.0,2376
1234,2136234,17084,372,-244,17089.79,29.80,-1.00,-1.0,2443
1237,2136237,17164,468,-316,17173.29,29.80,-1.00,-1.0,2383
1240,2136240,17060,448,-228,17067.40,29.80,-1.00,-1.0,2441
1243,2136243,16984,492,-176,16992.04,29.85,-1.00,-1.0,2367
1248,2136248,17144,452,-180,17150.90,29.80,-1.00,-1.0,2444
1250,2136250,17184,480,-308,17193.46,29.71,-1.00,-1.0,2376
1253,2136253,16912,488,-240,16920.74,29.75,-1.00,-1.0,2437
1256,2136256,16984,508,-256,16993.52,29.80,-1.00,-1.0,2368
1259,2136259,17004,280,-416,17011.39,29.89,-1.00,-1.0,2429
1261,2136261,17044,432,-144,17050.08,29.80,-1.00,-1.0,2374
1264,2136264,17036,484,-220,17044.29,29.80,-1.00,-1.0,2360
1267,2136267,17112,356,-288,17118.12,29.75,-1.00,-1.0,2446
1270,2136270,16952,392,-332,16959.78,29.85,-1.00,-1.0,2427
1275,2136275,17132,496,-308,17141.95,29.85,-1.00,-1.0,2441
1277,2136277,17040,432,-248,17047.28,29.71,-1.00,-1.0,2372
1280,2136280,17160,512,-240,17169.31,29.75,-1.00,-1.0,2419
1283,2136283,17060,400,-360,17068.49,29.80,-1.00,-1.0,2369
1286,2136286,17060,536,-296,17070.98,29.85,-1.00,-1.0,2436
1288,2136288,17076,392,-468,17086.91,29.80,-1.00,-1.0,2375
1291,2136291,17032,436,-404,17042.37,29.75,-1.00,-1.0,2433
1294,2136294,17052,380,-176,17057.14,29.80,-1.00,-1.0,2367
1299,2136299,17020,508,-300,17030.22,29.80,-1.00,-1.0,2440
1302,2136302,17064,372,-288,17070.48,29.80,-1.00,-1.0,2377
1304,2136304,17096,452,-348,17105.51,29.85,-1.00,-1.0,2360
1307,2136307,17008,408,-352,17016.53,29.85,-1.00,-1.0,2420
1310,2136310,17040,540,-228,17050.08,29.80,-1.00,-1.0,2370
1312,2136312,17064,596,-312,17077.26,29.75,-1.00,-1.0,2436
1315,2136315,17088,464,-368,17098.26,29.80,-1.00,-1.0,2368
1318,2136318,17096,580,-232,17107.41,29.80,-1.00,-1.0,2436
1321,2136321,17084,380,-292,17090.72,29.80,-1.00,-1.0,2363
1326,2136326,17024,492,-236,17032.74,29.75,-1.00,-1.0,2443
1328,2136328,17048,472,-264,17056.58,29.75,-1.00,-1.0,2369
1331,2136331,17068,344,-296,17074.03,29.80,-1.00,-1.0,2433
1334,2136334,17064,472,-256,17072.45,29.75,-1.00,-1.0,2367
1337,2136337,17032,420,-364,17041.07,29.75,-1.00,-1.0,2439
1339,2136339,17008,476,-132,17015.17,29.85,-1.00,-1.0,2370
1342,2136342,17068,440,-348,17077.22,29.85,-1.00,-1.0,2360
1345,2136345,17060,416,-216,17066.44,29.80,-1.00,-1.0,2438
1348,2136348,17148,512,-304,17158.34,29.80,-1.00,-1.0,2374
1353,2136353,17092,320,-236,17096.62,29.80,-1.00,-1.0,2445
1356,2136356,17184,484,-344,17194.26,29.85,-1.00,-1.0,2435
1358,2136358,17096,472,-264,17104.55,29.80,-1.00,-1.0,2436
1361,2136361,17188,516,-388,17200.12,29.75,-1.00,-1.0,2374
1364,2136364,17068,468,-220,17075.83,29.80,-1.00,-1.0,2429
1367,2136367,17040,412,-384,17049.30,29.75,-1.00,-1.0,2373
1369,2136369,17132,420,-376,17141.27,29.80,-1.00,-1.0,2430
1372,2136372,16968,380,-332,16975.50,29.75,-1.00,-1.0,2374
1377,2136377,17116,476,-284,17124.97,29.75,-1.00,-1.0,2444
1380,2136380,17000,432,-268,17007.60,29.80,-1.00,-1.0,2378
1382,2136382,17080,508,-356,17091.26,29.85,-1.00,-1.0,2349
1385,2136385,17060,548,-488,17075.77,29.85,-1.00,-1.0,2438
1388,2136388,17000,516,-332,17011.07,29.75,-1.00,-1.0,2371
1391,2136391,17028,480,-308,17037.55,29.85,-1.00,-1.0,2436
1393,2136393,17076,356,-236,17081.34,29.75,-1.00,-1.0,2375
1396,2136396,17076,432,-256,17083.38,29.80,-1.00,-1.0,2433
1399,2136399,17084,376,-352,17091.76,29.75,-1.00,-1.0,2368
1404,2136404,17052,420,-156,17057.88,29.71,-1.00,-1.0,2441
1407,2136407,16968,424,-140,16973.88,29.80,-1.00,-1.0,2370
1409,2136409,17104,564,-216,17114.66,29.80,-1.00,-1.0,2460
1412,2136412,16984,328,-212,16988.49,29.85,-1.00,-1.0,2368
1415,2136415,16992,480,-112,16999.15,29.80,-1.00,-1.0,2438
1418,2136418,17088,408,-280,17095.16,29.85,-1.00,-1.0,2366
1420,2136420,17088,372,-84,17092.26,29.89,-1.00,-1.0,2361
1423,2136423,17032,408,-344,17040.36,29.80,-1.00,-1.0,2438
1426,2136426,17056,364,-352,17063.52,29.85,-1.00,-1.0,2368
1431,2136431,17072,432,-236,17079.10,29.80,-1.00,-1.0,2445
1434,2136434,17040,460,-220,17047.63,29.80,-1.00,-1.0,2367
1436,2136436,17016,452,-412,17026.99,29.75,-1.00,-1.0,2455
1439,2136439,17128,616,-184,17140.06,29.85,-1.00,-1.0,2374
1442,2136442,17136,368,-332,17143.17,29.75,-1.00,-1.0,2440
1445,2136445,17088,464,-324,17097.37,29.75,-1.00,-1.0,2364
1447,2136447,17024,416,-240,17030.77,29.75,-1.00,-1.0,2451
1450,2136450,17104,424,-236,17110.88,29.75,-1.00,-1.0,2366
1453,2136453,17052,568,-264,17063.50,29.71,-1.00,-1.0,2365
1458,2136458,17080,468,-356,17090.12,29.75,-1.00,-1.0,2442
1461,2136461,17084,428,-400,17094.04,29.85,-1.00,-1.0,2372
1463,2136463,17156,508,-396,17168.09,29.85,-1.00,-1.0,2451
1466,2136466,17100,416,-276,17107.29,29.85,-1.00,-1.0,2381
1469,2136469,16964,432,-352,16973.15,29.71,-1.00,-1.0,2440
1472,2136472,17168,328,-256,17173.04,29.75,-1.00,-1.0,2370
1474,2136474,17064,420,-368,17073.13,29.80,-1.00,-1.0,2447
1477,2136477,17040,444,-256,17047.71,29.85,-1.00,-1.0,2371
1482,2136482,17048,408,-232,17054.46,29.85,-1.00,-1.0,2429
1485,2136485,17096,544,-288,17107.08,29.75,-1.00,-1.0,2369
1487,2136487,17088,424,-316,17096.18,29.71,-1.00,-1.0,2452
1490,2136490,17104,488,-324,17114.03,29.85,-1.00,-1.0,2372
1493,2136493,17036,500,-436,17048.91,29.80,-1.00,-1.0,2361
1495,2136495,17188,456,-348,17197.57,29.80,-1.00,-1.0,2438
1498,2136498,17100,492,-268,17109.18,29.80,-1.00,-1.0,2353
1501,2136501,16992,476,-192,16999.75,29.85,-1.00,-1.0,2436
1504,2136504,17104,416,-148,17109.70,29.80,-1.00,-1.0,2365
1509,2136509,17112,524,-140,17120.59,29.80,-1.00,-1.0,2446
1511,2136511,17088,436,-184,17094.55,29.85,-1.00,-1.0,2368
1514,2136514,17076,380,-184,17081.22,29.75,-1.00,-1.0,2442
1517,2136517,17104,448,-288,17112.29,29.85,-1.00,-1.0,2365
1520,2136520,17088,500,-248,17097.11,29.75,-1.00,-1.0,2440
1522,2136522,17036,472,-220,17043.96,29.85,-1.00,-1.0,2365
1525,2136525,17200,464,-232,17207.82,29.85,-1.00,-1.0,2440
1528,2136528,16932,352,-260,16937.65,29.75,-1.00,-1.0,2366
1531,2136531,17080,500,-288,17089.74,29.66,-1.00,-1.0,2361
1536,2136536,17072,452,-184,17078.97,29.80,-1.00,-1.0,2438
1539,2136539,17124,504,-308,17134.18,29.80,-1.00,-1.0,2369
1541,2136541,17036,428,-348,17044.93,29.85,-1.00,-1.0,2441
1544,2136544,17128,448,-472,17140.36,29.71,-1.00,-1.0,2365
1547,2136547,17088,392,-188,17093.53,29.80,-1.00,-1.0,2424
1550,2136550,17036,356,-432,17045.20,29.80,-1.00,-1.0,2368
1552,2136552,17064,432,-272,17071.63,29.80,-1.00,-1.0,2438
1555,2136555,17032,456,-200,17039.28,29.71,-1.00,-1.0,2368
1560,2136560,17008,428,-328,17016.54,29.80,-1.00,-1.0,2455
1563,2136563,17040,340,-304,17046.10,29.85,-1.00,-1.0,2376
1566,2136566,17044,444,-276,17052.02,29.80,-1.00,-1.0,2451
1568,2136568,16996,480,-184,17003.77,29.80,-1.00,-1.0,2366
1571,2136571,17036,452,-300,17044.63,29.80,-1.00,-1.0,2366
1574,2136574,17080,544,-328,17091.81,29.89,-1.00,-1.0,2431
1576,2136576,16808,424,-204,16814.58,29.80,-1.00,-1.0,2372
1579,2136579,18124,-6516,-1568,19323.46,29.75,-1.00,-1.0,2438
1582,2136582,3232,332,-580,3300.37,29.75,-1.00,-1.0,2365
1587,2136587,6636,-9412,4404,12329.54,29.85,-1.00,-1.0,2439
1590,2136590,20816,-6264,6804,22778.02,29.75,-1.00,-1.0,2369
1593,2136593,17888,10652,-20172,28988.88,29.85,-1.00,-1.0,2441
1595,2136595,15028,-2376,3840,15691.77,29.75,-1.00,-1.0,2365
1598,2136598,25868,-408,6012,26560.57,29.85,-1.00,-1.0,2438
1601,2136601,12928,2596,-13840,19115.91,29.85,-1.00,-1.0,2367
1604,2136604,18552,-11412,15572,26774.94,29.75,-1.00,-1.0,2440
1606,2136606,13284,4532,-11128,17911.90,29.75,-1.00,-1.0,2365
1611,2136611,17680,-4792,15796,24188.00,29.75,-1.00,-1.0,2439
1614,2136614,11348,9348,-18136,23346.88,29.80,-1.00,-1.0,2370
1617,2136617,24412,-8280,18724,31860.51,29.75,-1.00,-1.0,2438
1619,2136619,16012,6392,-17856,24820.93,29.85,-1.00,-1.0,2359
1622,2136622,16400,2108,-4120,17040.48,29.75,-1.00,-1.0,2438
1625,2136625,19284,-2780,6276,20469.23,29.75,-1.00,-1.0,2368
1628,2136628,16040,4804,-10624,19830.01,29.85,-1.00,-1.0,2431
1630,2136630,18868,-6044,14680,24658.34,29.85,-1.00,-1.0,2372
1633,2136633,13240,2396,-9160,16277.10,29.80,-1.00,-1.0,2377
1638,2136638,13224,-6728,13352,19960.36,29.80,-1.00,-1.0,2439
1641,2136641,15760,5568,-13308,21365.46,29.80,-1.00,-1.0,2376
1644,2136644,22172,-2604,8896,24031.59,29.89,-1.00,-1.0,2444
1646,2136646,12888,516,768,12921.17,29.80,-1.00,-1.0,2368
1649,2136649,19352,1920,-1584,19511.42,29.80,-1.00,-1.0,2452
1652,2136652,19736,-796,2492,19908.62,29.80,-1.00,-1.0,2377
1655,2136655,14208,2580,-5120,15321.16,29.85,-1.00,-1.0,2469
1657,2136657,16160,-668,4880,16893.97,29.85,-1.00,-1.0,2367
1662,2136662,17048,-968,2592,17271.07,29.85,-1.00,-1.0,2439
1665,2136665,17964,-2128,2844,18311.80,29.85,-1.00,-1.0,2370
1668,2136668,18404,1840,-3132,18759.06,29.75,-1.00,-1.0,2438
1671,2136671,16312,224,1024,16345.64,29.75,-1.00,-1.0,2367
1673,2136673,15216,392,-2172,15375.24,29.75,-1.00,-1.0,2436
1676,2136676,18344,164,888,18366.21,29.85,-1.00,-1.0,2368
1679,2136679,16036,972,156,16066.19,29.75,-1.00,-1.0,2435
1682,2136682,16492,-144,740,16509.22,29.80,-1.00,-1.0,2366
1684,2136684,17808,276,48,17810.20,29.85,-1.00,-1.0,2360
1689,2136689,17928,480,-132,17934.91,29.80,-1.00,-1.0,2450
1692,2136692,17748,280,116,17750.59,29.89,-1.00,-1.0,2380
1695,2136695,15924,260,-124,15926.61,29.80,-1.00,-1.0,2450
1697,2136697,18032,1020,-856,18081.10,29.80,-1.00,-1.0,2367
1700,2136700,16888,220,260,16891.43,29.75,-1.00,-1.0,2446
1703,2136703,15716,1056,-1592,15831.69,29.80,-1.00,-1.0,2376
1706,2136706,17688,600,-628,17709.31,29.80,-1.00,-1.0,2445
1708,2136708,16416,-4,756,16433.40,29.71,-1.00,-1.0,2367
1713,2136713,17952,-272,432,17959.26,29.85,-1.00,-1.0,2443
1716,2136716,16424,648,-1196,16480.23,29.80,-1.00,-1.0,2363
1719,2136719,16824,464,-292,16832.93,29.75,-1.00,-1.0,2450
1722,2136722,17548,-52,48,17548.14,29.71,-1.00,-1.0,2360
1724,2136724,16828,688,-436,16847.70,29.85,-1.00,-1.0,2368
1727,2136727,17268,504,416,17280.36,29.85,-1.00,-1.0,2439
1730,2136730,17540,584,-604,17560.11,29.89,-1.00,-1.0,2371
1732,2136732,16708,440,-472,16720.46,29.75,-1.00,-1.0,2445
1735,2136735,17344,484,-296,17353.28,29.80,-1.00,-1.0,2360
1740,2136740,16984,292,-324,16989.60,29.85,-1.00,-1.0,2449
1743,2136743,17332,256,204,17335.09,29.75,-1.00,-1.0,2371
1746,2136746,17080,748,-1204,17138.71,29.75,-1.00,-1.0,2453
1748,2136748,16916,-244,128,16918.24,29.85,-1.00,-1.0,2368
1751,2136751,17120,320,-176,17123.89,29.85,-1.00,-1.0,2447
1754,2136754,17188,588,-528,17206.16,29.75,-1.00,-1.0,2364
1756,2136756,17160,96,264,17162.30,29.85,-1.00,-1.0,2365
1759,2136759,16908,936,-1028,16965.06,29.85,-1.00,-1.0,2432
1762,2136762,17148,276,48,17150.29,29.71,-1.00,-1.0,2353
1767,2136767,16992,948,-988,17047.08,29.61,-1.00,-1.0,2446
1770,2136770,17216,52,700,17230.30,29.75,-1.00,-1.0,2366
1773,2136773,17168,508,-456,17181.57,29.89,-1.00,-1.0,2450
1775,2136775,16972,828,-216,16993.56,29.85,-1.00,-1.0,2371
1778,2136778,16832,932,-500,16865.20,29.71,-1.00,-1.0,2445
1781,2136781,17212,520,-4,17219.85,29.85,-1.00,-1.0,2347
1784,2136784,16956,400,-152,16961.40,29.75,-1.00,-1.0,2447
1786,2136786,16932,740,-732,16963.96,29.85,-1.00,-1.0,2368
1791,2136791,17064,740,-640,17092.02,29.85,-1.00,-1.0,2442
1794,2136794,17172,680,-480,17192.16,29.71,-1.00,-1.0,2362
1797,2136797,17052,84,52,17052.29,29.85,-1.00,-1.0,2361
1799,2136799,16956,604,-576,16976.53,29.75,-1.00,-1.0,2449
1802,2136802,16908,428,-176,16914.33,29.75,-1.00,-1.0,2366
1805,2136805,17168,368,-248,17173.73,29.75,-1.00,-1.0,2444
1807,2136807,17128,492,88,17135.29,29.80,-1.00,-1.0,2360
1810,2136810,16996,892,-612,17030.39,29.75,-1.00,-1.0,2454
1813,2136813,16948,376,-200,16953.35,29.85,-1.00,-1.0,2363
1818,2136818,16892,392,-368,16900.55,29.80,-1.00,-1.0,2440
1821,2136821,17144,328,-196,17148.26,29.80,-1.00,-1.0,2365
1824,2136824,17248,216,-444,17255.07,29.85,-1.00,-1.0,2447
1826,2136826,16872,380,-408,16881.21,29.80,-1.00,-1.0,2363
1829,2136829,17188,572,-264,17199.54,29.66,-1.00,-1.0,2361
1832,2136832,17020,432,-360,17029.29,29.85,-1.00,-1.0,2440
1834,2136834,17172,188,68,17173.16,29.71,-1.00,-1.0,2360
1837,2136837,17096,736,-496,17119.02,29.80,-1.00,-1.0,2449
1840,2136840,17120,400,-284,17127.03,29.85,-1.00,-1.0,2362
1845,2136845,17136,288,-284,17140.77,29.85,-1.00,-1.0,2440
1848,2136848,17220,124,0,17220.45,29.71,-1.00,-1.0,2349
1851,2136851,17072,592,-616,17093.37,29.75,-1.00,-1.0,2439
1853,2136853,17064,548,-316,17075.72,29.89,-1.00,-1.0,2363
1856,2136856,17076,540,-360,17088.33,29.85,-1.00,-1.0,2438
1859,2136859,17088,596,-288,17100.82,29.80,-1.00,-1.0,2362
1861,2136861,17156,292,152,17159.16,29.80,-1.00,-1.0,2360
1864,2136864,17108,584,-468,17124.36,29.80,-1.00,-1.0,2441
1867,2136867,17008,372,-112,17012.44,29.80,-1.00,-1.0,2368
1872,2136872,17092,632,-308,17106.45,29.85,-1.00,-1.0,2441
1875,2136875,17048,468,60,17054.53,29.75,-1.00,-1.0,2362
1878,2136878,17136,560,-492,17152.21,29.75,-1.00,-1.0,2443
1880,2136880,17060,356,-344,17067.18,29.80,-1.00,-1.0,2361
1883,2136883,17112,312,-208,17116.11,29.75,-1.00,-1.0,2440
1886,2136886,17052,564,-384,17065.64,29.75,-1.00,-1.0,2359
1889,2136889,16976,436,-608,16992.48,29.85,-1.00,-1.0,2443
1891,2136891,17024,236,-260,17027.62,29.80,-1.00,-1.0,2361
1896,2136896,16996,508,-432,17009.08,29.85,-1.00,-1.0,2440
1899,2136899,17052,476,-340,17062.03,29.66,-1.00,-1.0,2362
1901,2136901,17032,564,-628,17052.90,29.85,-1.00,-1.0,2348
1904,2136904,17092,532,-352,17103.90,29.75,-1.00,-1.0,2435
1907,2136907,17216,472,32,17222.50,29.85,-1.00,-1.0,2367
1910,2136910,17068,576,-76,17077.88,29.85,-1.00,-1.0,2445
1912,2136912,17012,468,-84,17018.64,29.75,-1.00,-1.0,2359
1915,2136915,17060,548,-552,17077.72,29.89,-1.00,-1.0,2438
1918,2136918,17140,308,-92,17143.01,29.80,-1.00,-1.0,2369
1923,2136923,16900,476,-380,16910.97,29.75,-1.00,-1.0,2440
1926,2136926,17152,452,-308,17160.72,29.75,-1.00,-1.0,2363
1929,2136929,17132,404,-424,17142.01,29.85,-1.00,-1.0,2439
1931,2136931,17104,428,-292,17111.85,29.80,-1.00,-1.0,2368
1934,2136934,17072,496,-244,17080.95,29.75,-1.00,-1.0,2362
1937,2136937,17140,504,-336,17150.70,29.75,-1.00,-1.0,2443
1939,2136939,17152,476,-276,17160.82,29.75,-1.00,-1.0,2360
1942,2136942,17108,436,-168,17114.38,29.85,-1.00,-1.0,2439
1945,2136945,16996,392,-280,17002.83,29.80,-1.00,-1.0,2363
1950,2136950,17084,412,-304,17091.67,29.80,-1.00,-1.0,2448
1953,2136953,17180,448,-240,17187.52,29.80,-1.00,-1.0,2370
1956,2136956,17080,384,-180,17085.26,29.75,-1.00,-1.0,2430
1959,2136959,17028,276,-132,17030.75,29.89,-1.00,-1.0,2361
1961,2136961,17084,540,-408,17097.40,29.80,-1.00,-1.0,2449
1964,2136964,17044,476,-176,17051.55,29.80,-1.00,-1.0,2360
1967,2136967,17064,428,-492,17076.46,29.80,-1.00,-1.0,2445
1969,2136969,17156,476,-140,17163.17,29.71,-1.00,-1.0,2360
1972,2136972,17036,680,-300,17052.21,29.85,-1.00,-1.0,2361
1977,2136977,17004,496,-228,17012.76,29.85,-1.00,-1.0,2448
1980,2136980,17116,440,-332,17124.87,29.85,-1.00,-1.0,2370
1983,2136983,17100,556,-348,17112.58,29.85,-1.00,-1.0,2442
1986,2136986,17032,436,-220,17039.00,29.75,-1.00,-1.0,2372
1988,2136988,17088,408,-280,17095.16,29.75,-1.00,-1.0,2440
1991,2136991,17140,324,-284,17145.41,29.94,-1.00,-1.0,2374
1994,2136994,17040,436,-256,17047.50,29.75,-1.00,-1.0,2440
1997,2136997,17140,376,-276,17146.35,29.75,-1.00,-1.0,2370
2002,2137002,17156,472,-216,17163.85,29.89,-1.00,-1.0,2440
2004,2137004,16980,480,-236,16988.42,29.80,-1.00,-1.0,2363
2007,2137007,17096,496,-308,17105.97,29.80,-1.00,-1.0,2440
2010,2137010,17004,416,-180,17010.04,29.80,-1.00,-1.0,2373
2012,2137012,17000,408,-284,17007.27,29.80,-1.00,-1.0,2361
2015,2137015,17084,392,-212,17089.81,29.75,-1.00,-1.0,2447
2018,2137018,17108,440,-296,17116.22,29.89,-1.00,-1.0,2368
2021,2137021,17068,356,-172,17072.58,29.85,-1.00,-1.0,2449
2023,2137023,17156,456,-192,17163.13,29.80,-1.00,-1.0,2360
2028,2137028,17060,404,-116,17065.18,29.80,-1.00,-1.0,2441
2031,2137031,17036,440,-416,17046.76,29.75,-1.00,-1.0,2366
2034,2137034,17068,528,-268,17078.27,29.80,-1.00,-1.0,2440
2037,2137037,17060,452,-260,17067.97,29.75,-1.00,-1.0,2368
2039,2137039,17020,376,-232,17025.73,29.71,-1.00,-1.0,2432
2042,2137042,16992,440,-340,17001.10,29.75,-1.00,-1.0,2368
2045,2137045,17048,432,-512,17061.16,29.80,-1.00,-1.0,2440
2048,2137048,17020,344,-488,17030.47,29.85,-1.00,-1.0,2363
2050,2137050,16992,520,-388,17004.38,29.71,-1.00,-1.0,2360
2055,2137055,17108,568,-232,17119.00,29.80,-1.00,-1.0,2441
2058,2137058,17008,532,-236,17017.96,29.71,-1.00,-1.0,2363
2061,2137061,17124,536,-316,17135.30,29.71,-1.00,-1.0,2440
2064,2137064,17020,480,-264,17028.81,29.89,-1.00,-1.0,2364
2066,2137066,17044,640,-120,17056.43,29.80,-1.00,-1.0,2432
2069,2137069,17164,612,-340,17178.27,29.85,-1.00,-1.0,2369
2072,2137072,17016,568,-152,17026.16,29.80,-1.00,-1.0,2431
2075,2137075,17076,352,-416,17084.69,29.75,-1.00,-1.0,2366
2080,2137080,17076,468,-248,17084.21,29.75,-1.00,-1.0,2440
2082,2137082,17116,552,-380,17129.12,29.80,-1.00,-1.0,2366
2085,2137085,17076,504,-200,17084.61,29.75,-1.00,-1.0,2454
2088,2137088,17068,488,-192,17076.05,29.85,-1.00,-1.0,2370
2090,2137090,16968,324,-204,16972.32,29.85,-1.00,-1.0,2369
2093,2137093,17040,488,-256,17048.91,29.80,-1.00,-1.0,2439
2096,2137096,16992,452,-252,16999.88,29.85,-1.00,-1.0,2369
2099,2137099,17124,436,-160,17130.30,29.71,-1.00,-1.0,2444
2102,2137102,17060,540,-220,17069.96,29.66,-1.00,-1.0,2366
2106,2137106,17020,456,-340,17029.50,29.71,-1.00,-1.0,2449
2109,2137109,17000,484,-236,17008.53,29.94,-1.00,-1.0,2379
2112,2137112,17188,312,-304,17193.52,29.80,-1.00,-1.0,2442
2115,2137115,17132,400,-292,17139.16,29.75,-1.00,-1.0,2370
2117,2137117,17052,412,-204,17058.20,29.80,-1.00,-1.0,2446
2120,2137120,17104,500,-340,17114.68,29.85,-1.00,-1.0,2375
2123,2137123,17052,356,-232,17057.29,29.89,-1.00,-1.0,2437
2126,2137126,17152,404,-436,17162.30,29.75,-1.00,-1.0,2367
2129,2137129,17192,488,-288,17201.34,29.85,-1.00,-1.0,2368
2134,2137134,17064,464,-268,17072.41,29.85,-1.00,-1.0,2443
2136,2137136,17104,600,-372,17118.56,29.75,-1.00,-1.0,2365
2139,2137139,17048,556,-352,17060.70,29.80,-1.00,-1.0,2454
2142,2137142,17136,452,-400,17146.63,29.85,-1.00,-1.0,2367
2145,2137145,17124,384,-248,17130.10,29.80,-1.00,-1.0,2453
2147,2137147,17012,368,-412,17020.97,29.75,-1.00,-1.0,2365
2150,2137150,16984,408,-304,16991.62,29.80,-1.00,-1.0,2451
2153,2137153,17132,520,-216,17141.25,29.85,-1.00,-1.0,2370
2158,2137158,17144,536,-336,17155.67,29.75,-1.00,-1.0,2447
2160,2137160,17080,516,-248,17089.59,29.80,-1.00,-1.0,2363
2163,2137163,17100,480,-100,17107.03,29.75,-1.00,-1.0,2440
2166,2137166,17012,472,-400,17023.25,29.80,-1.00,-1.0,2359
2168,2137168,17036,392,-380,17044.75,29.75,-1.00,-1.0,2361
2171,2137171,17112,468,-248,17120.20,29.85,-1.00,-1.0,2437
2174,2137174,17036,512,-264,17045.74,29.75,-1.00,-1.0,2366
2177,2137177,17056,556,-240,17066.75,29.85,-1.00,-1.0,2445
2180,2137180,17072,472,-168,17079.35,29.71,-1.00,-1.0,2362
2185,2137185,17064,468,-224,17071.89,29.80,-1.00,-1.0,2441
2187,2137187,17140,484,-200,17148.00,29.75,-1.00,-1.0,2364
2190,2137190,17044,440,-320,17052.68,29.80,-1.00,-1.0,2455
2193,2137193,17132,480,-164,17139.51,29.75,-1.00,-1.0,2371
2196,2137196,17016,492,-200,17024.29,29.71,-1.00,-1.0,2445
2198,2137198,17044,376,-328,17051.30,29.85,-1.00,-1.0,2363
2201,2137201,17076,480,-316,17085.67,29.71,-1.00,-1.0,2444
2204,2137204,17084,556,-352,17096.67,29.75,-1.00,-1.0,2368
2207,2137207,17004,488,-300,17013.65,29.75,-1.00,-1.0,2361
2212,2137212,17096,468,-276,17104.63,29.89,-1.00,-1.0,2446
2214,2137214,17016,352,-276,17021.88,29.71,-1.00,-1.0,2369
2217,2137217,17096,380,-192,17101.30,29.89,-1.00,-1.0,2451
2220,2137220,17032,412,-212,17038.30,29.80,-1.00,-1.0,2367
2223,2137223,17048,544,-196,17057.80,29.80,-1.00,-1.0,2447
2225,2137225,16972,492,-180,16980.08,29.80,-1.00,-1.0,2365
2228,2137228,17112,512,-260,17121.63,29.80,-1.00,-1.0,2452
2231,2137231,17032,472,-148,17039.18,29.89,-1.00,-1.0,2368
2236,2137236,16896,344,-112,16899.87,29.75,-1.00,-1.0,2447
2238,2137238,17132,404,-336,17140.06,29.85,-1.00,-1.0,2363
2241,2137241,17044,332,-292,17049.73,29.75,-1.00,-1.0,2441
2244,2137244,17156,436,-280,17163.82,29.75,-1.00,-1.0,2360
2246,2137246,17104,420,-344,17112.61,29.85,-1.00,-1.0,2361
2249,2137249,17080,436,-360,17089.36,29.80,-1.00,-1.0,2436
2252,2137252,17052,380,-236,17057.87,29.85,-1.00,-1.0,2366
2255,2137255,17056,540,-244,17066.29,29.80,-1.00,-1.0,2440
2258,2137258,16936,468,-328,16945.64,29.85,-1.00,-1.0,2360
2263,2137263,17120,472,-296,17129.06,29.85,-1.00,-1.0,2443
2265,2137265,17056,452,-340,17065.38,29.75,-1.00,-1.0,2371
2268,2137268,17052,364,-280,17058.18,29.80,-1.00,-1.0,2463
2271,2137271,17128,508,-416,17140.58,29.80,-1.00,-1.0,2365
2274,2137274,17084,424,-404,17094.04,29.80,-1.00,-1.0,2447
2276,2137276,16992,396,-392,17001.13,29.80,-1.00,-1.0,2360
2279,2137279,16992,372,-376,17000.23,29.71,-1.00,-1.0,2439
2282,2137282,17096,512,-272,17105.83,29.80,-1.00,-1.0,2360
2285,2137285,17080,472,-496,17093.72,29.80,-1.00,-1.0,2368
2290,2137290,17092,456,-412,17103.04,29.85,-1.00,-1.0,2440
2292,2137292,17132,572,-196,17142.67,29.85,-1.00,-1.0,2366
2295,2137295,17060,416,-420,17070.24,29.85,-1.00,-1.0,2442
2298,2137298,17136,508,-332,17146.74,29.94,-1.00,-1.0,2361
2301,2137301,17068,560,-216,17078.55,29.75,-1.00,-1.0,2432
2303,2137303,17076,424,-244,17083.01,29.75,-1.00,-1.0,2374
2306,2137306,17144,392,-288,17150.90,29.75,-1.00,-1.0,2433
2309,2137309,17056,468,-276,17064.65,29.75,-1.00,-1.0,2368
2314,2137314,17080,436,-316,17088.49,29.85,-1.00,-1.0,2442
2316,2137316,17148,428,-400,17158.00,29.75,-1.00,-1.0,2374
2319,2137319,17044,408,-344,17052.35,29.75,-1.00,-1.0,2350
2322,2137322,17156,316,-324,17161.97,29.80,-1.00,-1.0,2438
2324,2137324,17036,388,-324,17043.50,29.75,-1.00,-1.0,2362
2327,2137327,17196,500,-460,17209.42,29.80,-1.00,-1.0,2439
2330,2137330,17032,476,-200,17039.82,29.85,-1.00,-1.0,2361
2333,2137333,17156,456,-392,17166.54,29.75,-1.00,-1.0,2438
2336,2137336,17048,524,-176,17056.96,29.80,-1.00,-1.0,2373
2341,2137341,17064,404,-252,17070.64,29.75,-1.00,-1.0,2446
2343,2137343,17132,524,-352,17143.62,29.75,-1.00,-1.0,2371
2346,2137346,17052,376,-392,17060.65,29.80,-1.00,-1.0,2459
2349,2137349,17100,488,-212,17108.28,29.80,-1.00,-1.0,2368
2352,2137352,17016,380,-224,17021.72,29.80,-1.00,-1.0,2441
2354,2137354,16964,580,-216,16975.29,29.71,-1.00,-1.0,2365
2357,2137357,17152,460,-316,17161.08,29.80,-1.00,-1.0,2356
2360,2137360,17072,484,-224,17080.33,29.75,-1.00,-1.0,2438
2363,2137363,17084,452,-200,17091.15,29.85,-1.00,-1.0,2367
2368,2137368,17124,468,-260,17132.37,29.85,-1.00,-1.0,2451
2370,2137370,17028,492,-268,17037.21,29.80,-1.00,-1.0,2364
2373,2137373,17020,484,-316,17029.81,29.75,-1.00,-1.0,2442
2376,2137376,17016,464,-152,17023.00,29.80,-1.00,-1.0,2360
2379,2137379,17020,440,-260,17027.67,29.66,-1.00,-1.0,2441
2381,2137381,17088,436,-140,17094.13,29.80,-1.00,-1.0,2361
2384,2137384,17116,440,-340,17125.03,29.80,-1.00,-1.0,2440
2387,2137387,17028,392,-340,17035.90,29.80,-1.00,-1.0,2360
2392,2137392,17036,448,-120,17042.31,29.80,-1.00,-1.0,2443
2395,2137395,17136,428,-432,17146.79,29.75,-1.00,-1.0,2374
2397,2137397,17104,500,-316,17114.22,29.80,-1.00,-1.0,2362
2400,2137400,17092,404,-340,17100.15,29.89,-1.00,-1.0,2441
2403,2137403,17068,496,-260,17077.19,29.80,-1.00,-1.0,2366
2405,2137405,17104,416,-232,17110.63,29.80,-1.00,-1.0,2431
2408,2137408,17136,404,-168,17141.59,29.80,-1.00,-1.0,2367
2411,2137411,16996,388,-308,17003.22,29.80,-1.00,-1.0,2437
2414,2137414,17072,380,-124,17076.68,29.80,-1.00,-1.0,2361
2419,2137419,17024,416,-412,17034.06,29.85,-1.00,-1.0,2446
2422,2137422,16936,412,-380,16945.27,29.75,-1.00,-1.0,2364
2424,2137424,17088,456,-300,17096.71,29.85,-1.00,-1.0,2452
2427,2137427,17176,536,-216,17185.72,29.75,-1.00,-1.0,2362
2430,2137430,17100,424,-236,17106.88,29.85,-1.00,-1.0,2442
2432,2137432,17040,504,-308,17050.23,29.75,-1.00,-1.0,2361
2435,2137435,16948,468,-188,16955.50,29.80,-1.00,-1.0,2375
2438,2137438,17112,344,-300,17118.09,29.80,-1.00,-1.0,2425
2441,2137441,17076,392,-288,17082.93,29.80,-1.00,-1.0,2365
2446,2137446,17072,400,-272,17078.85,29.80,-1.00,-1.0,2444
2449,2137449,17104,524,-316,17114.94,29.75,-1.00,-1.0,2365
2451,2137451,17132,468,-404,17143.15,29.80,-1.00,-1.0,2449
2454,2137454,17084,488,-460,17097.16,29.85,-1.00,-1.0,2368
2457,2137457,16980,396,-244,16986.37,29.89,-1.00,-1.0,2439
2460,2137460,17064,460,-272,17072.37,29.85,-1.00,-1.0,2361
2462,2137462,17116,464,-360,17126.07,29.80,-1.00,-1.0,2451
2465,2137465,17132,420,-288,17139.57,29.85,-1.00,-1.0,2362
2470,2137470,17020,484,-224,17028.35,29.75,-1.00,-1.0,2439
2473,2137473,17036,540,-236,17046.19,29.85,-1.00,-1.0,2368
2475,2137475,16988,504,-300,16998.12,29.75,-1.00,-1.0,2357
2478,2137478,17060,528,-276,17070.40,29.75,-1.00,-1.0,2440
2481,2137481,17148,436,-220,17154.95,29.75,-1.00,-1.0,2372
2484,2137484,17080,532,-428,17093.64,29.75,-1.00,-1.0,2430
2486,2137486,17052,456,-352,17061.73,29.75,-1.00,-1.0,2366
2489,2137489,17144,544,-232,17154.20,29.66,-1.00,-1.0,2437
2492,2137492,15552,428,104,15558.24,29.80,-1.00,-1.0,2367
2497,2137497,32767,7732,-1612,33705.47,29.89,-1.00,-1.0,2434
2500,2137500,-14916,11296,9600,21029.66,29.71,-1.00,-1.0,2367
2502,2137502,-4764,-8740,12552,16019.86,29.85,-1.00,-1.0,2442
2505,2137505,32767,-5036,-12408,35397.68,29.80,-1.00,-1.0,2370
2508,2137508,2944,10488,-12920,16899.46,29.80,-1.00,-1.0,2437
2511,2137511,27656,7012,-13284,31472.01,29.80,-1.00,-1.0,2368
2513,2137513,32767,-564,29720,44241.07,29.80,-1.00,-1.0,2439
2516,2137516,-1504,19112,-24396,31027.33,29.80,-1.00,-1.0,2377
2523,2137523,14372,21820,-32768,41909.53,29.80,-1.00,-1.0,2441
2526,2137526,12532,-1020,-304,12577.12,29.80,-1.00,-1.0,2374
2528,2137528,8180,-7044,8700,13864.35,29.75,-1.00,-1.0,2427
2531,2137531,18520,8308,-19784,28344.66,29.80,-1.00,-1.0,2377
2534,2137534,19908,-11812,31608,39178.02,29.85,-1.00,-1.0,2362
2536,2137536,14812,14156,-32336,38280.60,29.85,-1.00,-1.0,2431
2539,2137539,13800,-8924,17644,24112.00,29.75,-1.00,-1.0,2368
2542,2137542,13172,2212,-11140,17392.36,29.85,-1.00,-1.0,2436
2545,2137545,18988,2976,604,19229.29,29.75,-1.00,-1.0,2361
2550,2137550,18652,5212,-13084,23372.06,29.71,-1.00,-1.0,2441
2552,2137552,15380,-2940,4996,16436.18,29.75,-1.00,-1.0,2351
2555,2137555,14784,-60,600,14796.29,29.80,-1.00,-1.0,2439
2558,2137558,19432,5996,-8280,21957.07,29.85,-1.00,-1.0,2365
2560,2137560,16120,-7880,23268,29382.79,29.85,-1.00,-1.0,2418
2563,2137563,17592,9140,-16376,25713.64,29.85,-1.00,-1.0,2367
2566,2137566,17760,-4200,14640,23396.31,29.75,-1.00,-1.0,2438
2569,2137569,16584,5120,-9308,19694.73,29.75,-1.00,-1.0,2360
2574,2137574,16548,-1520,7500,18231.75,29.80,-1.00,-1.0,2448
2577,2137577,17768,4700,-8864,20404.96,29.80,-1.00,-1.0,2365
2579,2137579,18448,-5036,7760,20637.53,29.89,-1.00,-1.0,2454
2582,2137582,17336,1204,-4460,17940.96,29.80,-1.00,-1.0,2361
2585,2137585,15728,932,624,15767.94,29.80,-1.00,-1.0,2444
2587,2137587,17320,-880,464,17348.55,29.80,-1.00,-1.0,2363
2590,2137590,16764,-232,-2632,16970.94,29.80,-1.00,-1.0,2444
2593,2137593,17024,424,2680,17238.87,29.89,-1.00,-1.0,2361
2596,2137596,17256,2724,-1300,17517.98,29.80,-1.00,-1.0,2365
2600,2137600,16424,1264,-928,16498.69,29.89,-1.00,-1.0,2434
2603,2137603,16404,1352,-2840,16702.84,29.75,-1.00,-1.0,2357
2606,2137606,17732,-1136,2324,17919.69,29.89,-1.00,-1.0,2438
2609,2137609,17380,1032,-2052,17531.12,29.75,-1.00,-1.0,2365
2611,2137611,17696,-1264,2524,17919.73,29.89,-1.00,-1.0,2418
2614,2137614,16604,1688,-2788,16920.85,29.66,-1.00,-1.0,2367
2617,2137617,17032,800,-908,17074.94,29.89,-1.00,-1.0,2436
2620,2137620,16632,1032,-2232,16812.80,29.85,-1.00,-1.0,2360
2625,2137625,17796,-1260,3036,18097.03,29.85,-1.00,-1.0,2446
2627,2137627,17416,4,-248,17417.77,29.80,-1.00,-1.0,2369
2630,2137630,17284,152,-928,17309.56,29.85,-1.00,-1.0,2453
2633,2137633,16668,144,-660,16681.68,29.80,-1.00,-1.0,2373
2636,2137636,16824,252,-828,16846.25,29.94,-1.00,-1.0,2442
2638,2137638,17576,-1220,2104,17743.48,29.75,-1.00,-1.0,2372
2641,2137641,17276,1240,-724,17335.57,29.75,-1.00,-1.0,2445
2644,2137644,17252,528,1172,17299.82,29.80,-1.00,-1.0,2374
2646,2137646,17228,20,300,17230.62,29.75,-1.00,-1.0,2364
2651,2137651,16700,444,40,16705.95,29.85,-1.00,-1.0,2441
2654,2137654,17524,844,-268,17546.36,29.89,-1.00,-1.0,2364
2657,2137657,17492,12,76,17492.17,29.80,-1.00,-1.0,2446
2659,2137659,17220,-264,1548,17291.46,29.80,-1.00,-1.0,2361
2662,2137662,17404,1160,-3004,17699.40,29.75,-1.00,-1.0,2444
2665,2137665,17052,-1008,1544,17151.41,29.80,-1.00,-1.0,2362
2668,2137668,16656,1004,-1328,16738.99,29.80,-1.00,-1.0,2447
2670,2137670,17304,532,-932,17337.24,29.80,-1.00,-1.0,2361
2675,2137675,16712,1608,-1724,16877.46,29.80,-1.00,-1.0,2441
2678,2137678,16980,36,332,16983.28,29.75,-1.00,-1.0,2367
2681,2137681,17052,556,-620,17072.32,29.71,-1.00,-1.0,2438
2684,2137684,17048,920,-672,17086.03,29.75,-1.00,-1.0,2362
2686,2137686,17340,-596,1532,17417.74,29.71,-1.00,-1.0,2360
2689,2137689,17260,940,-1224,17328.86,29.71,-1.00,-1.0,2438
2692,2137692,17216,884,-100,17238.97,29.71,-1.00,-1.0,2366
2694,2137694,16976,652,12,16988.52,29.71,-1.00,-1.0,2430
2697,2137697,17144,780,-688,17175.52,29.80,-1.00,-1.0,2366
2702,2137702,16932,716,-904,16971.22,29.85,-1.00,-1.0,2450
2705,2137705,17244,448,20,17249.83,29.75,-1.00,-1.0,2377
2708,2137708,17052,540,-360,17064.35,29.80,-1.00,-1.0,2448
2710,2137710,17052,612,-576,17072.70,29.75,-1.00,-1.0,2377
2713,2137713,17224,-48,8,17224.07,29.71,-1.00,-1.0,2440
2716,2137716,16964,504,-396,16976.11,29.85,-1.00,-1.0,2370
2718,2137718,17232,440,-236,17239.23,29.80,-1.00,-1.0,2364
2721,2137721,17220,192,148,17221.71,29.80,-1.00,-1.0,2436
2724,2137724,16888,724,-372,16907.61,29.80,-1.00,-1.0,2371
2729,2137729,17028,524,-280,17038.36,29.89,-1.00,-1.0,2433
2731,2137731,17084,408,68,17089.01,29.80,-1.00,-1.0,2376
2734,2137734,17128,512,-484,17142.48,29.89,-1.00,-1.0,2433
2737,2137737,17132,224,-344,17136.92,29.80,-1.00,-1.0,2368
2740,2137740,16956,240,-988,16986.46,29.80,-1.00,-1.0,2431
2742,2137742,17004,168,-796,17023.45,29.80,-1.00,-1.0,2374
2745,2137745,17052,496,-368,17063.18,29.80,-1.00,-1.0,2431
2748,2137748,17228,292,-104,17230.79,29.89,-1.00,-1.0,2369
2753,2137753,17108,788,-508,17133.67,29.80,-1.00,-1.0,2436
2755,2137755,16972,612,-504,16990.51,29.89,-1.00,-1.0,2376
2758,2137758,16980,356,-332,16986.98,29.71,-1.00,-1.0,2355
2761,2137761,17140,420,-172,17146.01,29.89,-1.00,-1.0,2447
2763,2137763,17072,372,12,17076.06,29.71,-1.00,-1.0,2365
2766,2137766,16932,620,-416,16948.45,29.75,-1.00,-1.0,2424
2769,2137769,17148,440,-324,17156.70,29.71,-1.00,-1.0,2369
2772,2137772,17020,456,-256,17028.03,29.80,-1.00,-1.0,2433
2774,2137774,17164,620,-172,17176.05,29.89,-1.00,-1.0,2375
2779,2137779,17200,540,44,17208.53,29.80,-1.00,-1.0,2442
2782,2137782,17100,436,-448,17111.42,29.75,-1.00,-1.0,2376
2785,2137785,16864,636,-256,16877.93,29.89,-1.00,-1.0,2439
2788,2137788,17008,740,-364,17027.98,29.85,-1.00,-1.0,2368
2790,2137790,17200,388,364,17208.23,29.80,-1.00,-1.0,2363
2793,2137793,17044,764,-332,17064.34,29.80,-1.00,-1.0,2440
2796,2137796,17028,620,-280,17041.58,29.80,-1.00,-1.0,2370
2798,2137798,17156,236,-20,17157.63,29.71,-1.00,-1.0,2445
2801,2137801,17116,456,-496,17129.26,29.75,-1.00,-1.0,2362
2806,2137806,17044,412,-488,17055.96,29.75,-1.00,-1.0,2440
2809,2137809,17148,300,-136,17151.16,29.85,-1.00,-1.0,2356
2812,2137812,17188,288,-304,17193.10,29.85,-1.00,-1.0,2434
2814,2137814,16984,460,-680,17003.83,29.80,-1.00,-1.0,2370
2817,2137817,16908,596,-644,16930.75,29.85,-1.00,-1.0,2432
2820,2137820,16948,600,-628,16970.24,29.80,-1.00,-1.0,2366
2823,2137823,17124,380,92,17128.46,29.71,-1.00,-1.0,2431
2825,2137825,17072,588,-52,17082.20,29.80,-1.00,-1.0,2375
2828,2137828,17092,628,-280,17105.82,29.75,-1.00,-1.0,2357
2833,2137833,17036,464,-404,17047.11,29.85,-1.00,-1.0,2440
2836,2137836,17072,280,-92,17074.54,29.75,-1.00,-1.0,2369
2839,2137839,17068,572,-576,17087.29,29.75,-1.00,-1.0,2440
2841,2137841,17144,272,-280,17148.44,29.75,-1.00,-1.0,2367
2844,2137844,17148,172,-192,17149.94,29.75,-1.00,-1.0,2419
2847,2137847,16996,376,-372,17004.23,29.85,-1.00,-1.0,2368
2850,2137850,16964,468,-636,16982.37,29.80,-1.00,-1.0,2432
2852,2137852,16988,492,-500,17002.48,29.80,-1.00,-1.0,2376
2857,2137857,17224,540,116,17232.85,29.80,-1.00,-1.0,2441
2860,2137860,17064,524,100,17072.34,29.80,-1.00,-1.0,2376
2863,2137863,17004,500,-276,17013.59,29.71,-1.00,-1.0,2356
2865,2137865,17104,372,-196,17109.17,29.85,-1.00,-1.0,2440
2868,2137868,17180,544,-116,17189.00,29.85,-1.00,-1.0,2365
2871,2137871,17032,548,-116,17041.21,29.75,-1.00,-1.0,2437
2874,2137874,17144,132,-12,17144.51,29.80,-1.00,-1.0,2370
2876,2137876,16808,540,-364,16820.61,29.75,-1.00,-1.0,2439
2879,2137879,16956,580,-372,16969.99,29.80,-1.00,-1.0,2371
2884,2137884,17024,752,-280,17042.90,29.89,-1.00,-1.0,2439
2887,2137887,17036,604,-220,17048.12,29.80,-1.00,-1.0,2363
2890,2137890,17092,840,-124,17113.08,29.80,-1.00,-1.0,2447
2892,2137892,17104,592,-52,17114.32,29.80,-1.00,-1.0,2362
2895,2137895,17176,480,-88,17182.93,29.89,-1.00,-1.0,2438
2898,2137898,17040,580,-536,17058.29,29.80,-1.00,-1.0,2361
2901,2137901,17116,436,-428,17126.90,29.80,-1.00,-1.0,2361
2903,2137903,17084,396,-464,17094.89,29.75,-1.00,-1.0,2434
2906,2137906,17124,184,-168,17125.81,29.85,-1.00,-1.0,2375
2911,2137911,17060,336,-580,17073.16,29.80,-1.00,-1.0,2434
2914,2137914,16916,340,-332,16922.67,29.80,-1.00,-1.0,2369
2917,2137917,17024,468,-340,17033.82,29.85,-1.00,-1.0,2441
2920,2137920,17116,632,-368,17131.62,29.80,-1.00,-1.0,2368
2922,2137922,17012,588,-368,17026.14,29.80,-1.00,-1.0,2439
2925,2137925,17108,564,-468,17123.69,29.80,-1.00,-1.0,2367
2928,2137928,17044,424,-344,17052.74,29.71,-1.00,-1.0,2441
2930,2137930,17104,416,-456,17115.13,29.80,-1.00,-1.0,2368
2935,2137935,17004,352,-264,17009.69,29.80,-1.00,-1.0,2437
2938,2137938,17136,336,-252,17141.15,29.80,-1.00,-1.0,2368
2941,2137941,17036,340,-60,17039.50,29.80,-1.00,-1.0,2356
2943,2137943,17056,344,-328,17062.62,29.75,-1.00,-1.0,2449
2946,2137946,17088,308,-168,17091.60,29.80,-1.00,-1.0,2369
2949,2137949,17032,356,-44,17035.78,29.75,-1.00,-1.0,2446
2952,2137952,17180,488,-72,17187.08,29.80,-1.00,-1.0,2361
2954,2137954,17080,392,-284,17086.86,29.71,-1.00,-1.0,2437
2957,2137957,17016,388,-400,17025.12,29.85,-1.00,-1.0,2364
2962,2137962,16996,268,-528,17006.31,29.80,-1.00,-1.0,2440
2965,2137965,17112,280,-420,17119.44,29.80,-1.00,-1.0,2369
2968,2137968,17084,248,-436,17091.36,29.89,-1.00,-1.0,2441
2970,2137970,17036,416,-208,17042.35,29.80,-1.00,-1.0,2368
2973,2137973,17112,512,-244,17121.40,29.71,-1.00,-1.0,2357
2976,2137976,17052,580,-208,17063.13,29.80,-1.00,-1.0,2440
2978,2137978,17028,696,-316,17045.15,29.80,-1.00,-1.0,2361
2981,2137981,17096,676,-108,17109.70,29.80,-1.00,-1.0,2437
2984,2137984,17036,760,-36,17052.98,29.80,-1.00,-1.0,2362
2990,2137990,17044,532,-132,17052.81,29.85,-1.00,-1.0,2444
2992,2137992,17020,440,-336,17029.00,29.75,-1.00,-1.0,2370
2995,2137995,16984,416,-336,16992.42,29.85,-1.00,-1.0,2450
2998,2137998,17032,404,-384,17041.12,29.85,-1.00,-1.0,2375
3001,2138001,17044,488,-120,17051.41,29.75,-1.00,-1.0,2442
3003,2138003,17124,448,-400,17134.53,29.85,-1.00,-1.0,2372
3006,2138006,17068,520,-472,17082.44,29.75,-1.00,-1.0,2446
3009,2138009,17012,500,-188,17020.38,29.85,-1.00,-1.0,2374
3011,2138011,17100,576,-280,17111.99,29.80,-1.00,-1.0,2357
3016,2138016,17132,520,-72,17140.04,29.80,-1.00,-1.0,2442
3019,2138019,17084,596,-204,17095.61,29.85,-1.00,-1.0,2373
3022,2138022,17020,484,-156,17027.60,29.80,-1.00,-1.0,2441
3025,2138025,17048,464,-156,17055.03,29.85,-1.00,-1.0,2370
3027,2138027,16888,364,-340,16895.34,29.89,-1.00,-1.0,2440
3030,2138030,17180,440,-332,17188.84,29.75,-1.00,-1.0,2377
3033,2138033,17080,356,-328,17086.86,29.71,-1.00,-1.0,2440
3036,2138036,17052,352,-324,17058.71,29.85,-1.00,-1.0,2368
3041,2138041,17080,384,-440,17089.98,29.85,-1.00,-1.0,2441
3043,2138043,17072,580,-260,17083.83,29.85,-1.00,-1.0,2364
3046,2138046,17168,548,-124,17177.19,29.85,-1.00,-1.0,2439
3049,2138049,17096,524,-132,17104.54,29.85,-1.00,-1.0,2365
3051,2138051,17112,552,-264,17122.94,29.85,-1.00,-1.0,2357
3054,2138054,16972,580,-252,16983.78,29.80,-1.00,-1.0,2453
3057,2138057,16976,416,-404,16985.90,29.85,-1.00,-1.0,2377
3060,2138060,17040,388,-544,17053.10,29.85,-1.00,-1.0,2437
3063,2138063,17024,336,-304,17030.03,29.85,-1.00,-1.0,2367
3067,2138067,17064,308,-280,17069.08,29.80,-1.00,-1.0,2435
3070,2138070,17100,408,-344,17108.33,29.89,-1.00,-1.0,2369
3073,2138073,17112,584,-304,17124.66,29.75,-1.00,-1.0,2438
3076,2138076,17008,512,-236,17017.34,29.80,-1.00,-1.0,2360
3078,2138078,16988,616,-352,17002.81,29.80,-1.00,-1.0,2437
3081,2138081,16992,612,-416,17008.11,29.89,-1.00,-1.0,2364
3084,2138084,17072,552,-272,17083.09,29.80,-1.00,-1.0,2436
3087,2138087,17036,524,-308,17046.84,29.80,-1.00,-1.0,2363
3090,2138090,17020,384,-412,17029.32,29.75,-1.00,-1.0,2361
3094,2138094,17068,416,-312,17075.92,29.80,-1.00,-1.0,2435
3097,2138097,17064,456,-308,17072.87,29.75,-1.00,-1.0,2370
3100,2138100,17020,400,-164,17025.49,29.85,-1.00,-1.0,2440
3103,2138103,17036,380,-184,17041.23,29.80,-1.00,-1.0,2365
3105,2138105,17104,428,-204,17110.57,29.80,-1.00,-1.0,2432
3108,2138108,17056,472,-484,17069.39,29.89,-1.00,-1.0,2367
3111,2138111,17016,436,-384,17025.92,29.85,-1.00,-1.0,2436
3114,2138114,17060,592,-180,17071.22,29.89,-1.00,-1.0,2361
3119,2138119,17040,536,-444,17054.21,29.80,-1.00,-1.0,2441
3121,2138121,17096,440,-288,17104.09,29.85,-1.00,-1.0,2364
3124,2138124,17132,392,-392,17140.97,29.89,-1.00,-1.0,2454
3127,2138127,17044,400,-404,17053.48,29.80,-1.00,-1.0,2373
3129,2138129,17004,360,-232,17009.39,29.71,-1.00,-1.0,2363
3132,2138132,17096,452,-260,17103.95,29.85,-1.00,-1.0,2444
3135,2138135,17096,496,-260,17105.17,29.80,-1.00,-1.0,2370
3138,2138138,17012,564,-220,17022.77,29.85,-1.00,-1.0,2442
3141,2138141,17092,548,-184,17101.77,29.80,-1.00,-1.0,2375
3145,2138145,16988,564,-296,16999.94,29.89,-1.00,-1.0,2438
3148,2138148,17052,516,-292,17062.30,29.89,-1.00,-1.0,2372
3151,2138151,17148,440,-372,17157.68,29.85,-1.00,-1.0,2441
3154,2138154,17052,348,-288,17057.98,29.80,-1.00,-1.0,2369
3156,2138156,17028,272,-344,17033.65,29.80,-1.00,-1.0,2440
3159,2138159,17152,388,-260,17158.36,29.80,-1.00,-1.0,2378
3162,2138162,17108,232,-256,17111.49,29.75,-1.00,-1.0,2440
3165,2138165,17160,436,-196,17166.66,29.80,-1.00,-1.0,2361
3168,2138168,17052,480,-84,17058.96,29.80,-1.00,-1.0,2361
3172,2138172,17060,480,-328,17069.90,29.85,-1.00,-1.0,2437
3175,2138175,16992,596,-164,17003.24,29.80,-1.00,-1.0,2359
3178,2138178,17036,460,-236,17043.84,29.85,-1.00,-1.0,2440
3181,2138181,17072,596,-324,17085.47,29.89,-1.00,-1.0,2366
3183,2138183,17016,392,-180,17021.47,29.80,-1.00,-1.0,2427
3186,2138186,17124,464,-172,17131.15,29.80,-1.00,-1.0,2377
3189,2138189,17124,392,-216,17129.85,29.85,-1.00,-1.0,2440
3192,2138192,17004,392,-464,17014.85,29.85,-1.00,-1.0,2361
3197,2138197,17140,448,-280,17148.14,29.75,-1.00,-1.0,2445
3199,2138199,17000,552,-216,17010.33,29.80,-1.00,-1.0,2369
3202,2138202,17140,536,-188,17149.41,29.85,-1.00,-1.0,2363
3205,2138205,17028,652,-416,17045.55,29.85,-1.00,-1.0,2438
3207,2138207,17044,552,-300,17055.57,29.89,-1.00,-1.0,2374
3210,2138210,17008,564,-204,17018.57,29.75,-1.00,-1.0,2432
3213,2138213,17080,504,-340,17090.82,29.75,-1.00,-1.0,2369
3216,2138216,17072,444,-148,17078.41,29.89,-1.00,-1.0,2438
3219,2138219,17188,580,-124,17198.23,29.75,-1.00,-1.0,2367
3224,2138224,17036,476,-252,17044.51,29.85,-1.00,-1.0,2436
3226,2138226,17012,412,-420,17022.17,29.80,-1.00,-1.0,2377
3229,2138229,17160,480,-256,17168.62,29.85,-1.00,-1.0,2441
3232,2138232,17120,472,-280,17128.79,29.75,-1.00,-1.0,2357
3235,2138235,17012,484,-300,17021.53,29.75,-1.00,-1.0,2442
3237,2138237,17080,336,-368,17087.27,29.80,-1.00,-1.0,2372
3240,2138240,17100,384,-356,17108.02,29.75,-1.00,-1.0,2358
3243,2138243,16996,472,-376,17006.71,29.80,-1.00,-1.0,2439
3246,2138246,17124,332,-300,17129.85,29.80,-1.00,-1.0,2367
3251,2138251,17008,500,-292,17017.85,29.75,-1.00,-1.0,2435
3253,2138253,17148,436,-204,17154.76,29.85,-1.00,-1.0,2376
3256,2138256,17156,624,-256,17169.25,29.85,-1.00,-1.0,2433
3259,2138259,17068,464,-256,17076.22,29.85,-1.00,-1.0,2368
3262,2138262,17076,512,-124,17084.12,29.66,-1.00,-1.0,2442
3264,2138264,17064,476,-272,17072.80,29.80,-1.00,-1.0,2418
3267,2138267,17024,524,-116,17032.46,29.75,-1.00,-1.0,2439
3270,2138270,17104,452,-216,17111.33,29.85,-1.00,-1.0,2385
3275,2138275,17132,396,-332,17139.79,29.75,-1.00,-1.0,2428
3278,2138278,16912,396,-228,16918.17,29.89,-1.00,-1.0,2381
3280,2138280,17060,428,-176,17066.28,29.85,-1.00,-1.0,2372
3283,2138283,17176,416,-264,17183.06,29.85,-1.00,-1.0,2439
3286,2138286,17096,500,-192,17104.39,29.85,-1.00,-1.0,2380
3289,2138289,17132,420,-148,17137.79,29.75,-1.00,-1.0,2440
3291,2138291,17076,552,-232,17086.49,29.94,-1.00,-1.0,2380
3294,2138294,17116,404,-236,17122.39,29.85,-1.00,-1.0,2434
3297,2138297,17112,380,-192,17117.29,29.85,-1.00,-1.0,2379
3302,2138302,17040,416,-332,17048.31,29.85,-1.00,-1.0,2438
3304,2138304,17028,408,-380,17037.12,29.80,-1.00,-1.0,2374
3307,2138307,17020,376,-360,17027.96,29.80,-1.00,-1.0,2461
3310,2138310,17048,440,-360,17057.48,29.80,-1.00,-1.0,2368
3313,2138313,17060,448,-320,17068.88,29.89,-1.00,-1.0,2437
3316,2138316,17028,472,-288,17036.97,29.89,-1.00,-1.0,2364
3318,2138318,17104,540,-228,17114.04,29.89,-1.00,-1.0,2360
3321,2138321,17120,488,-284,17129.31,29.75,-1.00,-1.0,2437
3324,2138324,17044,428,-256,17051.29,29.85,-1.00,-1.0,2361
3329,2138329,17132,448,-336,17141.15,29.80,-1.00,-1.0,2445
3331,2138331,17076,432,-464,17087.76,29.80,-1.00,-1.0,2367
3334,2138334,17044,512,-364,17055.57,29.80,-1.00,-1.0,2444
3337,2138337,17044,420,-320,17052.18,29.89,-1.00,-1.0,2365
3340,2138340,17152,492,-376,17163.17,29.75,-1.00,-1.0,2443
3342,2138342,17084,464,-336,17093.60,29.80,-1.00,-1.0,2363
3345,2138345,17028,476,-316,17037.58,29.80,-1.00,-1.0,2436
3348,2138348,17084,464,-384,17094.61,29.80,-1.00,-1.0,2365
3355,2138355,17128,536,-244,17138.12,29.75,-1.00,-1.0,2450
3357,2138357,17016,396,-136,17021.15,29.85,-1.00,-1.0,2370
3360,2138360,17044,492,-96,17051.37,29.80,-1.00,-1.0,2373
3363,2138363,17152,404,-224,17158.22,29.80,-1.00,-1.0,2442
3366,2138366,17048,460,-212,17055.52,29.80,-1.00,-1.0,2371
3368,2138368,17080,484,-408,17091.73,29.80,-1.00,-1.0,2439
3371,2138371,17032,600,-228,17044.09,29.80,-1.00,-1.0,2378
3374,2138374,17112,440,-268,17119.75,29.80,-1.00,-1.0,2440
3377,2138377,17124,420,-232,17130.72,29.89,-1.00,-1.0,2370
3381,2138381,17012,420,-248,17018.99,29.85,-1.00,-1.0,2439
3384,2138384,17080,444,-252,17087.63,29.80,-1.00,-1.0,2366
3387,2138387,17168,388,-220,17173.79,29.85,-1.00,-1.0,2441
3390,2138390,17100,440,-324,17108.73,29.80,-1.00,-1.0,2365
3392,2138392,17012,472,-152,17019.22,29.75,-1.00,-1.0,2437
3395,2138395,16992,540,-292,17003.09,29.71,-1.00,-1.0,2364
3398,2138398,17088,532,-300,17098.91,29.85,-1.00,-1.0,2360
3401,2138401,17080,524,-452,17094.01,29.94,-1.00,-1.0,2437
3403,2138403,16992,628,-200,17004.78,29.89,-1.00,-1.0,2351
3408,2138408,16960,516,-232,16969.43,29.89,-1.00,-1.0,2438
3411,2138411,17168,480,-236,17176.33,29.80,-1.00,-1.0,2367
3414,2138414,17184,428,-196,17190.45,29.85,-1.00,-1.0,2437
3416,2138416,17052,456,-220,17059.51,29.89,-1.00,-1.0,2367
3419,2138419,17072,480,-412,17083.71,29.80,-1.00,-1.0,2438
3422,2138422,17080,452,-324,17089.05,29.80,-1.00,-1.0,2351
3425,2138425,17120,400,-208,17125.94,29.89,-1.00,-1.0,2446
3427,2138427,17036,404,-300,17043.43,29.89,-1.00,-1.0,2375
3433,2138433,16988,508,-272,16997.77,29.85,-1.00,-1.0,2440
3435,2138435,17064,492,-224,17072.56,29.75,-1.00,-1.0,2366
3438,2138438,17000,496,-224,17008.71,29.80,-1.00,-1.0,2366
3441,2138441,17060,476,-296,17069.21,29.89,-1.00,-1.0,2450
3443,2138443,17092,436,-300,17100.19,29.80,-1.00,-1.0,2367
3446,2138446,17116,384,-240,17121.99,29.89,-1.00,-1.0,2450
3449,2138449,17176,404,-256,17182.66,29.89,-1.00,-1.0,2370
3452,2138452,16960,512,-268,16969.84,29.80,-1.00,-1.0,2446
3454,2138454,17028,448,-308,17036.68,29.89,-1.00,-1.0,2368
3459,2138459,17096,448,-348,17105.41,29.75,-1.00,-1.0,2440
3462,2138462,16904,384,-256,16910.30,29.85,-1.00,-1.0,2366
3465,2138465,7744,-1080,2040,8080.69,29.89,-1.00,-1.0,2446
3467,2138467,32767,4192,-3264,33194.92,29.85,-1.00,-1.0,2364
3470,2138470,11208,13148,-4088,17753.90,29.89,-1.00,-1.0,2440
3473,2138473,-716,-5668,9244,10866.94,29.85,-1.00,-1.0,2363
3476,2138476,32767,-7812,10348,35238.96,29.89,-1.00,-1.0,2360
3478,2138478,-1184,7796,-12940,15153.32,29.80,-1.00,-1.0,2454
3481,2138481,12720,-4016,5900,14585.50,29.80,-1.00,-1.0,2365
3486,2138486,2300,11688,-19852,23151.70,29.85,-1.00,-1.0,2438
3489,2138489,31140,-5060,4080,31811.16,29.85,-1.00,-1.0,2366
3491,2138491,11220,364,-108,11226.42,29.80,-1.00,-1.0,2439
3494,2138494,11232,2088,-5992,12900.45,29.75,-1.00,-1.0,2365
3497,2138497,20360,-5548,14416,25556.43,29.71,-1.00,-1.0,2436
3500,2138500,12920,13712,-25944,32063.01,29.85,-1.00,-1.0,2363
3502,2138502,18972,-8076,21920,30093.94,29.71,-1.00,-1.0,2437
3505,2138505,15508,7180,-14732,22562.85,29.75,-1.00,-1.0,2364
3510,2138510,17680,-8964,17804,26644.29,29.89,-1.00,-1.0,2449
3513,2138513,16184,8272,-17948,25543.66,29.89,-1.00,-1.0,2353
3516,2138516,19236,-5176,13332,23969.92,29.85,-1.00,-1.0,2449
3518,2138518,16692,1292,-3628,17130.51,29.75,-1.00,-1.0,2374
3521,2138521,16564,2576,-5748,17721.21,29.85,-1.00,-1.0,2444
3524,2138524,17236,-4644,9972,20447.18,29.85,-1.00,-1.0,2368
3527,2138527,16776,7852,-14728,23664.36,29.85,-1.00,-1.0,2447
3529,2138529,17208,-3680,10024,20251.87,29.75,-1.00,-1.0,2373
3534,2138534,17472,4700,-6788,19324.54,29.80,-1.00,-1.0,2440
3537,2138537,16568,-2648,8088,18625.96,29.80,-1.00,-1.0,2366
3540,2138540,17652,3628,-8464,19909.67,29.75,-1.00,-1.0,2447
3542,2138542,17976,-1348,3464,18356.28,29.80,-1.00,-1.0,2365
3545,2138545,16260,1100,-1252,16345.19,29.85,-1.00,-1.0,2443
3548,2138548,15992,1024,-1152,16066.11,29.80,-1.00,-1.0,2363
3551,2138551,18344,-2408,4176,18966.81,29.85,-1.00,-1.0,2366
3553,2138553,16364,1636,-2860,16692.41,29.85,-1.00,-1.0,2440
3556,2138556,16436,-160,2100,16570.39,29.71,-1.00,-1.0,2381
3561,2138561,15816,528,-424,15830.49,29.85,-1.00,-1.0,2441
3564,2138564,18008,556,272,18018.63,29.85,-1.00,-1.0,2374
3566,2138566,17308,748,-184,17325.13,29.85,-1.00,-1.0,2442
3569,2138569,16404,440,-216,16411.32,29.85,-1.00,-1.0,2371
3572,2138572,16976,-12,164,16976.80,29.85,-1.00,-1.0,2436
3575,2138575,17132,464,-44,17138.34,29.85,-1.00,-1.0,2372
3577,2138577,16748,276,-104,16750.60,29.85,-1.00,-1.0,2440
3580,2138580,16932,24,900,16955.92,29.85,-1.00,-1.0,2379
3585,2138585,16604,-160,1264,16652.81,29.89,-1.00,-1.0,2441
3588,2138588,17852,148,1076,17885.01,29.85,-1.00,-1.0,2369
3590,2138590,16132,1904,-2628,16455.18,29.80,-1.00,-1.0,2360
3593,2138593,16924,-352,1564,16999.76,29.80,-1.00,-1.0,2440
3596,2138596,17128,460,-588,17144.26,29.80,-1.00,-1.0,2364
3598,2138598,16964,-8,48,16964.07,29.71,-1.00,-1.0,2423
3601,2138601,17376,-324,176,17379.91,29.80,-1.00,-1.0,2363
3604,2138604,16996,828,-1636,17094.62,29.80,-1.00,-1.0,2439
3607,2138607,17108,-452,1288,17162.37,29.80,-1.00,-1.0,2364
3612,2138612,16848,1204,-1312,16941.84,29.85,-1.00,-1.0,2441
3614,2138614,16988,216,816,17008.96,29.85,-1.00,-1.0,2378
3617,2138617,17012,920,-1360,17091.05,29.80,-1.00,-1.0,2445
3620,2138620,17260,280,840,17282.70,29.75,-1.00,-1.0,2369
3623,2138623,17060,492,-88,17067.32,29.71,-1.00,-1.0,2446
3625,2138625,17088,760,-1088,17139.46,29.94,-1.00,-1.0,2374
3628,2138628,17232,-96,512,17239.87,29.89,-1.00,-1.0,2363
3631,2138631,16848,788,-804,16885.57,29.89,-1.00,-1.0,2434
3633,2138633,17208,140,-456,17214.61,29.89,-1.00,-1.0,2366
3638,2138638,17100,1000,-1148,17167.64,29.85,-1.00,-1.0,2448
3641,2138641,17196,32,720,17211.10,29.85,-1.00,-1.0,2373
3644,2138644,16896,888,-1220,16963.25,29.80,-1.00,-1.0,2443
3647,2138647,16972,836,-892,17015.97,29.85,-1.00,-1.0,2371
3649,2138649,17024,-100,408,17029.18,29.80,-1.00,-1.0,2447
3652,2138652,17088,972,-1240,17160.48,29.75,-1.00,-1.0,2371
3655,2138655,17188,12,536,17196.36,29.80,-1.00,-1.0,2427
3658,2138658,17144,244,-264,17147.77,29.85,-1.00,-1.0,2364
3663,2138663,16944,332,-56,16947.35,29.66,-1.00,-1.0,2439
3665,2138665,16964,1016,-928,17019.72,29.85,-1.00,-1.0,2366
3668,2138668,17376,184,816,17396.12,29.85,-1.00,-1.0,2370
3671,2138671,17104,468,-156,17111.11,29.89,-1.00,-1.0,2453
3673,2138673,17076,744,-816,17111.67,29.85,-1.00,-1.0,2366
3676,2138676,17316,36,116,17316.43,29.99,-1.00,-1.0,2450
3679,2138679,17032,892,-976,17083.25,29.85,-1.00,-1.0,2371
3682,2138682,17108,340,180,17112.32,29.80,-1.00,-1.0,2447
3684,2138684,17172,372,-288,17178.44,29.85,-1.00,-1.0,2367
3689,2138689,17248,272,200,17251.30,29.85,-1.00,-1.0,2439
3692,2138692,17120,344,-360,17127.24,29.80,-1.00,-1.0,2366
3695,2138695,16956,480,248,16964.61,29.85,-1.00,-1.0,2449
3697,2138697,17080,736,-444,17101.62,29.85,-1.00,-1.0,2364
3700,2138700,17060,492,-60,17067.20,29.85,-1.00,-1.0,2439
3703,2138703,17152,416,-96,17157.31,29.80,-1.00,-1.0,2363
3706,2138706,16988,524,-344,16999.56,29.75,-1.00,-1.0,2360
3708,2138708,17092,296,4,17094.56,29.89,-1.00,-1.0,2451
3711,2138711,16976,408,-500,16988.26,29.89,-1.00,-1.0,2365
3716,2138716,17032,608,-588,17052.99,29.80,-1.00,-1.0,2448
3719,2138719,17036,388,-296,17042.99,29.89,-1.00,-1.0,2370
3722,2138722,17024,168,-44,17024.89,29.80,-1.00,-1.0,2449
3724,2138724,17000,760,-624,17028.42,29.80,-1.00,-1.0,2373
3727,2138727,17060,484,-224,17068.33,29.89,-1.00,-1.0,2444
3730,2138730,16988,516,-632,17007.58,29.80,-1.00,-1.0,2351
3733,2138733,17200,412,-388,17209.31,29.80,-1.00,-1.0,2451
3735,2138735,17260,244,-136,17262.26,29.71,-1.00,-1.0,2374
3738,2138738,17024,540,-684,17046.29,29.85,-1.00,-1.0,2361
3743,2138743,17016,640,-464,17034.35,29.80,-1.00,-1.0,2447
3746,2138746,17104,456,-44,17110.13,29.80,-1.00,-1.0,2370
3749,2138749,17124,480,-68,17130.86,29.85,-1.00,-1.0,2448
3751,2138751,17072,780,-524,17097.84,29.89,-1.00,-1.0,2372
3754,2138754,17036,336,-60,17039.42,29.85,-1.00,-1.0,2437
3757,2138757,17032,588,-532,17050.45,29.80,-1.00,-1.0,2364
3760,2138760,17120,328,-40,17123.19,29.75,-1.00,-1.0,2446
3762,2138762,17172,404,-100,17177.04,29.89,-1.00,-1.0,2374
3767,2138767,17128,292,-192,17131.56,29.85,-1.00,-1.0,2438
3770,2138770,17104,276,-392,17110.72,29.89,-1.00,-1.0,2353
3772,2138772,17052,500,-524,17067.38,29.85,-1.00,-1.0,2360
3775,2138775,17108,344,-200,17112.63,29.80,-1.00,-1.0,2478
3778,2138778,17124,320,-308,17129.76,29.80,-1.00,-1.0,2382
3781,2138781,17016,404,4,17020.79,29.80,-1.00,-1.0,2440
3784,2138784,17112,560,-228,17122.68,29.80,-1.00,-1.0,2370
3786,2138786,17152,492,-128,17159.53,29.75,-1.00,-1.0,2440
3789,2138789,17052,568,-312,17064.31,29.85,-1.00,-1.0,2365
3794,2138794,17116,508,-68,17123.67,29.80,-1.00,-1.0,2437
3797,2138797,17176,420,-184,17182.12,29.80,-1.00,-1.0,2374
3800,2138800,17012,416,-248,17018.89,29.89,-1.00,-1.0,2441
3802,2138802,17104,548,-560,17121.94,29.80,-1.00,-1.0,2365
3805,2138805,17048,352,-308,17054.41,29.80,-1.00,-1.0,2443
3808,2138808,17044,680,-376,17061.70,29.89,-1.00,-1.0,2371
3810,2138810,16964,516,-388,16976.28,29.80,-1.00,-1.0,2369
3813,2138813,17000,396,-412,17009.60,29.89,-1.00,-1.0,2452
3816,2138816,17068,472,-588,17084.65,29.89,-1.00,-1.0,2365
3821,2138821,17020,636,-536,17040.31,29.80,-1.00,-1.0,2439
3824,2138824,17140,364,-228,17145.38,29.75,-1.00,-1.0,2366
3827,2138827,17096,508,-328,17106.69,29.80,-1.00,-1.0,2447
3829,2138829,17088,456,-420,17099.24,29.75,-1.00,-1.0,2364
3832,2138832,17060,388,-212,17065.73,29.71,-1.00,-1.0,2437
3835,2138835,17096,468,-512,17110.07,29.85,-1.00,-1.0,2364
3838,2138838,17008,400,-188,17013.74,29.80,-1.00,-1.0,2444
3840,2138840,16988,564,-308,17000.15,29.75,-1.00,-1.0,2364
3846,2138846,17028,448,-236,17035.53,29.85,-1.00,-1.0,2441
3848,2138848,17000,540,-272,17010.75,29.89,-1.00,-1.0,2368
3851,2138851,17088,444,-60,17093.87,29.80,-1.00,-1.0,2360
3854,2138854,17072,480,-280,17081.04,29.85,-1.00,-1.0,2448
3856,2138856,17120,452,-96,17126.23,29.85,-1.00,-1.0,2371
3859,2138859,17060,668,-204,17074.29,29.85,-1.00,-1.0,2437
3862,2138862,17084,608,-256,17096.73,29.85,-1.00,-1.0,2364
3865,2138865,17100,464,-260,17108.27,29.75,-1.00,-1.0,2444
3867,2138867,16964,456,-288,16972.57,29.85,-1.00,-1.0,2375
3872,2138872,17068,512,-116,17076.07,29.85,-1.00,-1.0,2440
3875,2138875,17016,328,-232,17020.74,29.80,-1.00,-1.0,2367
3878,2138878,17060,436,-284,17067.93,29.89,-1.00,-1.0,2447
3880,2138880,17032,440,-240,17039.37,29.89,-1.00,-1.0,2363
3883,2138883,17080,328,-64,17083.27,29.85,-1.00,-1.0,2375
3886,2138886,17108,504,-284,17117.78,29.85,-1.00,-1.0,2436
3889,2138889,17088,428,-208,17094.62,29.85,-1.00,-1.0,2368
3891,2138891,17096,436,-132,17102.07,29.80,-1.00,-1.0,2458
3894,2138894,17008,540,-356,17020.29,29.75,-1.00,-1.0,2375
3899,2138899,17052,320,-280,17057.30,29.94,-1.00,-1.0,2449
3902,2138902,17012,352,-372,17019.71,29.94,-1.00,-1.0,2373
3905,2138905,17104,424,-256,17111.17,29.85,-1.00,-1.0,2444
3908,2138908,17008,356,-260,17013.71,29.85,-1.00,-1.0,2367
3910,2138910,17056,496,-364,17067.09,29.85,-1.00,-1.0,2446
3913,2138913,17064,380,-316,17071.16,29.94,-1.00,-1.0,2372
3916,2138916,17032,336,-384,17039.64,29.85,-1.00,-1.0,2439
3919,2138919,17116,460,-188,17123.21,29.75,-1.00,-1.0,2364
3921,2138921,17124,580,-236,17135.45,29.85,-1.00,-1.0,2368
3926,2138926,17036,392,-292,17043.01,29.85,-1.00,-1.0,2439
3929,2138929,16956,508,-384,16967.95,29.85,-1.00,-1.0,2367
3932,2138932,17060,440,-368,17069.64,29.75,-1.00,-1.0,2446
3935,2138935,17064,436,-396,17074.16,29.85,-1.00,-1.0,2364
3937,2138937,17104,440,-388,17114.06,29.75,-1.00,-1.0,2454
3940,2138940,17040,400,-360,17048.50,29.85,-1.00,-1.0,2364
3943,2138943,17080,552,-288,17091.34,29.85,-1.00,-1.0,2442
3946,2138946,17084,528,-256,17094.07,29.85,-1.00,-1.0,2364
3950,2138950,17104,492,-228,17112.59,29.80,-1.00,-1.0,2437
3953,2138953,17176,596,-288,17188.75,29.89,-1.00,-1.0,2366
3956,2138956,17064,492,-256,17073.01,29.80,-1.00,-1.0,2440
3959,2138959,16948,468,-256,16956.39,29.80,-1.00,-1.0,2365
3961,2138961,16972,720,-460,16993.49,29.85,-1.00,-1.0,2361
3964,2138964,17128,440,-272,17135.81,29.75,-1.00,-1.0,2435
3967,2138967,16924,580,-328,16937.11,29.80,-1.00,-1.0,2364
3970,2138970,17108,520,-396,17120.48,29.85,-1.00,-1.0,2436
3972,2138972,17104,400,-196,17109.80,29.89,-1.00,-1.0,2363
3977,2138977,17064,392,-288,17070.93,29.89,-1.00,-1.0,2424
3980,2138980,17052,380,-192,17057.31,29.89,-1.00,-1.0,2368
3983,2138983,17060,384,-228,17065.84,29.80,-1.00,-1.0,2436
3985,2138985,17164,340,-204,17168.58,29.89,-1.00,-1.0,2366
3988,2138988,17068,484,-328,17078.01,29.80,-1.00,-1.0,2437
3991,2138991,16976,476,-224,16984.15,29.80,-1.00,-1.0,2368
3994,2138994,17044,456,-152,17050.78,29.89,-1.00,-1.0,2436
3996,2138996,17056,480,-180,17063.70,29.89,-1.00,-1.0,2363
3999,2138999,17084,328,-152,17087.82,29.89,-1.00,-1.0,2360
4004,2139004,17148,356,-268,17153.79,29.85,-1.00,-1.0,2440
4007,2139007,17000,368,-244,17005.73,29.85,-1.00,-1.0,2369
4010,2139010,17100,476,-352,17110.24,29.75,-1.00,-1.0,2445
4012,2139012,17120,376,-140,17124.70,29.85,-1.00,-1.0,2364
4015,2139015,16968,492,-528,16983.34,29.85,-1.00,-1.0,2437
4018,2139018,16992,504,-272,17001.65,29.85,-1.00,-1.0,2366
4021,2139021,17148,536,-352,17159.99,29.85,-1.00,-1.0,2442
4023,2139023,17076,452,-264,17084.02,29.85,-1.00,-1.0,2365
4028,2139028,17004,452,-348,17013.57,29.85,-1.00,-1.0,2438
4031,2139031,17132,452,-464,17144.24,29.80,-1.00,-1.0,2369
4034,2139034,17128,372,-372,17136.08,29.94,-1.00,-1.0,2438
4037,2139037,17132,484,-368,17142.79,29.89,-1.00,-1.0,2364
4039,2139039,17048,476,-392,17059.15,29.85,-1.00,-1.0,2347
4042,2139042,16964,528,-316,16975.16,29.85,-1.00,-1.0,2435
4045,2139045,17104,456,-460,17116.26,29.89,-1.00,-1.0,2365
4048,2139048,17024,528,-476,17038.84,29.80,-1.00,-1.0,2435
4050,2139050,17156,428,-288,17163.75,29.85,-1.00,-1.0,2365
4057,2139057,17056,532,-312,17067.15,29.89,-1.00,-1.0,2444
4060,2139060,17000,428,-156,17006.10,29.80,-1.00,-1.0,2355
4063,2139063,17172,512,-228,17181.14,29.80,-1.00,-1.0,2451
4065,2139065,17088,448,-228,17095.39,29.80,-1.00,-1.0,2372
4068,2139068,17112,496,-156,17119.90,29.85,-1.00,-1.0,2443
4071,2139071,17088,516,-284,17098.15,29.80,-1.00,-1.0,2352
4074,2139074,17088,472,-328,17097.66,29.80,-1.00,-1.0,2448
4076,2139076,17076,452,-296,17084.54,29.80,-1.00,-1.0,2375
4079,2139079,17128,464,-440,17139.93,29.75,-1.00,-1.0,2362
4084,2139084,17028,432,-400,17038.18,29.80,-1.00,-1.0,2425
4087,2139087,17044,476,-212,17051.96,29.80,-1.00,-1.0,2367
4089,2139089,17012,420,-276,17019.42,29.89,-1.00,-1.0,2449
4092,2139092,17116,484,-80,17123.03,29.80,-1.00,-1.0,2371
4095,2139095,17140,352,-284,17145.97,29.89,-1.00,-1.0,2424
4098,2139098,17112,356,-264,17117.74,29.80,-1.00,-1.0,2365
4100,2139100,17176,376,-260,17182.08,29.80,-1.00,-1.0,2450
4103,2139103,17200,460,-88,17206.38,29.80,-1.00,-1.0,2371
4108,2139108,17088,452,-412,17098.94,29.75,-1.00,-1.0,2475
4111,2139111,17032,540,-316,17043.49,29.94,-1.00,-1.0,2372
4114,2139114,17060,400,-320,17067.69,29.75,-1.00,-1.0,2432
4116,2139116,17136,480,-84,17142.93,29.85,-1.00,-1.0,2370
4119,2139119,16988,428,-180,16994.34,29.85,-1.00,-1.0,2358
4122,2139122,17020,432,-152,17026.16,29.80,-1.00,-1.0,2444
4124,2139124,17044,348,-328,17050.71,29.85,-1.00,-1.0,2364
4127,2139127,17104,336,-324,17110.37,29.80,-1.00,-1.0,2437
4130,2139130,17016,472,-240,17024.24,29.85,-1.00,-1.0,2365
4135,2139135,17052,468,-308,17061.20,29.85,-1.00,-1.0,2444
4138,2139138,17048,536,-284,17058.79,29.89,-1.00,-1.0,2381
4140,2139140,17000,440,-444,17011.49,29.85,-1.00,-1.0,2437
4143,2139143,17072,444,-356,17081.48,29.94,-1.00,-1.0,2372
4146,2139146,17100,520,-192,17108.98,29.85,-1.00,-1.0,2436
4149,2139149,17140,440,-340,17149.02,29.80,-1.00,-1.0,2371
4151,2139151,17112,436,-256,17119.47,29.85,-1.00,-1.0,2360
4154,2139154,17084,460,-336,17093.49,29.80,-1.00,-1.0,2435
4157,2139157,17068,516,-316,17078.72,29.85,-1.00,-1.0,2364
4162,2139162,17076,496,-240,17084.89,29.85,-1.00,-1.0,2448
4164,2139164,17020,504,-368,17031.44,29.85,-1.00,-1.0,2375
4167,2139167,17076,568,-288,17087.87,29.85,-1.00,-1.0,2443
4170,2139170,17040,440,-364,17049.57,29.94,-1.00,-1.0,2355
4173,2139173,17000,536,-312,17011.31,29.85,-1.00,-1.0,2448
4175,2139175,17160,528,-456,17174.18,29.94,-1.00,-1.0,2374
4178,2139178,17052,508,-380,17063.80,29.85,-1.00,-1.0,2445
4181,2139181,17084,496,-332,17094.42,29.85,-1.00,-1.0,2373
4187,2139187,17008,424,-164,17014.07,29.80,-1.00,-1.0,2444
4190,2139190,17008,408,-216,17014.26,29.80,-1.00,-1.0,2368
4193,2139193,17052,412,-364,17060.86,29.89,-1.00,-1.0,2359
4195,2139195,17036,416,-148,17041.72,29.85,-1.00,-1.0,2449
4198,2139198,17112,528,-236,17121.77,29.80,-1.00,-1.0,2367
4201,2139201,17072,396,-232,17078.17,29.85,-1.00,-1.0,2442
4203,2139203,17060,416,-264,17067.11,29.71,-1.00,-1.0,2369
4206,2139206,17004,464,-280,17012.63,29.85,-1.00,-1.0,2444
4209,2139209,17148,324,-304,17153.75,29.80,-1.00,-1.0,2366
4214,2139214,17152,388,-288,17158.80,29.94,-1.00,-1.0,2456
4217,2139217,16996,468,-204,17003.67,29.85,-1.00,-1.0,2376
4220,2139220,17152,480,-296,17161.27,29.80,-1.00,-1.0,2447
4222,2139222,17068,460,-96,17074.47,29.85,-1.00,-1.0,2375
4225,2139225,17044,516,-340,17055.20,29.80,-1.00,-1.0,2443
4228,2139228,17060,408,-280,17067.18,29.85,-1.00,-1.0,2369
4230,2139230,16992,440,-276,16999.94,29.80,-1.00,-1.0,2347
4233,2139233,17128,492,-352,17138.68,29.80,-1.00,-1.0,2436
4236,2139236,16988,552,-412,17001.96,29.85,-1.00,-1.0,2369
4241,2139241,17012,380,-268,17018.35,29.85,-1.00,-1.0,2449
4244,2139244,17060,508,-344,17071.03,29.85,-1.00,-1.0,2375
4246,2139246,17088,504,-340,17098.81,29.89,-1.00,-1.0,2445
4249,2139249,17076,440,-324,17084.74,29.85,-1.00,-1.0,2382
4252,2139252,17168,520,-348,17179.40,29.80,-1.00,-1.0,2442
4255,2139255,17052,444,-244,17059.53,29.85,-1.00,-1.0,2368
4257,2139257,17024,452,-264,17032.04,29.80,-1.00,-1.0,2445
4260,2139260,17032,500,-240,17041.03,29.75,-1.00,-1.0,2380
4265,2139265,17124,444,-272,17131.91,29.85,-1.00,-1.0,2441
4268,2139268,17032,420,-216,17038.55,29.75,-1.00,-1.0,2374
4270,2139270,17080,496,-320,17090.20,29.80,-1.00,-1.0,2368
4273,2139273,17036,504,-276,17045.69,29.71,-1.00,-1.0,2442
4276,2139276,17108,432,-292,17115.95,29.75,-1.00,-1.0,2368
4279,2139279,17092,424,-240,17098.94,29.80,-1.00,-1.0,2446
4281,2139281,17076,488,-340,17086.36,29.89,-1.00,-1.0,2373
4284,2139284,17008,512,-300,17018.35,29.80,-1.00,-1.0,2444
4287,2139287,17104,532,-312,17115.12,29.85,-1.00,-1.0,2368
4292,2139292,17092,404,-276,17099.00,29.75,-1.00,-1.0,2441
4295,2139295,17024,440,-348,17033.24,29.75,-1.00,-1.0,2366
4298,2139298,17100,448,-308,17108.64,29.94,-1.00,-1.0,2439
4300,2139300,17108,528,-328,17119.29,29.89,-1.00,-1.0,2351
4303,2139303,17012,316,-232,17016.52,29.85,-1.00,-1.0,2436
4306,2139306,17092,384,-232,17097.89,29.80,-1.00,-1.0,2364
4308,2139308,16964,444,-104,16970.13,29.75,-1.00,-1.0,2360
4311,2139311,17060,424,-212,17066.58,29.85,-1.00,-1.0,2438
4314,2139314,17060,456,-236,17067.72,29.85,-1.00,-1.0,2372
4319,2139319,17096,428,-336,17104.66,29.80,-1.00,-1.0,2441
4321,2139321,17072,472,-264,17080.56,29.80,-1.00,-1.0,2369
4324,2139324,17152,480,-304,17161.41,29.85,-1.00,-1.0,2437
4327,2139327,17060,404,-340,17068.17,29.89,-1.00,-1.0,2365
4330,2139330,16984,456,-404,16994.92,29.71,-1.00,-1.0,2429
4332,2139332,16964,432,-408,16974.40,29.80,-1.00,-1.0,2372
4335,2139335,17008,520,-284,17018.32,29.71,-1.00,-1.0,2437
4338,2139338,17136,576,-192,17146.75,29.80,-1.00,-1.0,2365
4343,2139343,17080,448,-336,17089.18,29.89,-1.00,-1.0,2448
4346,2139346,17144,440,-300,17152.27,29.85,-1.00,-1.0,2366
4348,2139348,17096,588,-324,17109.18,29.89,-1.00,-1.0,2367
4351,2139351,17040,468,-228,17047.95,29.89,-1.00,-1.0,2439
4354,2139354,17044,460,-232,17051.79,29.80,-1.00,-1.0,2373
4356,2139356,17068,436,-356,17077.28,29.80,-1.00,-1.0,2439
4359,2139359,17088,420,-272,17095.32,29.89,-1.00,-1.0,2378
4362,2139362,17032,424,-500,17044.61,29.89,-1.00,-1.0,2438
4365,2139365,17052,516,-244,17061.55,29.80,-1.00,-1.0,2376
4370,2139370,16980,588,-332,16993.42,29.89,-1.00,-1.0,2441
4372,2139372,17036,536,-240,17046.12,29.85,-1.00,-1.0,2368
4375,2139375,17056,440,-364,17065.56,29.80,-1.00,-1.0,2437
4378,2139378,17088,520,-320,17098.90,29.85,-1.00,-1.0,2372
4381,2139381,17100,432,-192,17106.53,29.80,-1.00,-1.0,2436
4383,2139383,17164,556,-312,17175.84,29.75,-1.00,-1.0,2364
4386,2139386,17020,440,-400,17030.38,29.89,-1.00,-1.0,2367
4389,2139389,17044,476,-248,17052.45,29.80,-1.00,-1.0,2449
4391,2139391,17124,384,-188,17129.34,29.80,-1.00,-1.0,2367
4396,2139396,17140,476,-352,17150.22,29.89,-1.00,-1.0,2454
4399,2139399,17100,452,-168,17106.80,29.89,-1.00,-1.0,2374
4402,2139402,16988,388,-148,16993.07,29.85,-1.00,-1.0,2448
4404,2139404,17132,456,-184,17139.05,29.80,-1.00,-1.0,2373
4407,2139407,17056,432,-208,17062.74,29.85,-1.00,-1.0,2444
4410,2139410,17068,480,-152,17075.42,29.80,-1.00,-1.0,2367
4413,2139413,17052,332,-176,17056.14,29.85,-1.00,-1.0,2449
4415,2139415,17132,336,-264,17137.33,29.89,-1.00,-1.0,2375
4420,2139420,17112,428,-180,17118.30,29.85,-1.00,-1.0,2448
4423,2139423,17060,436,-348,17069.12,29.94,-1.00,-1.0,2368
4425,2139425,17012,552,-204,17022.18,29.75,-1.00,-1.0,2360
4428,2139428,17128,436,-296,17136.11,29.89,-1.00,-1.0,2436
4431,2139431,16976,384,-336,16983.67,29.85,-1.00,-1.0,2365
4434,2139434,17156,540,-184,17165.48,29.89,-1.00,-1.0,2442
4436,2139436,17176,500,-300,17185.89,29.85,-1.00,-1.0,2367
4439,2139439,17124,488,-144,17131.56,29.89,-1.00,-1.0,2437
4442,2139442,17040,492,-212,17048.42,29.85,-1.00,-1.0,2365
4447,2139447,17068,504,-272,17077.61,29.75,-1.00,-1.0,2444
4450,2139450,17080,420,-332,17088.39,29.85,-1.00,-1.0,2374
4452,2139452,17040,532,-368,17052.27,29.75,-1.00,-1.0,2443
4455,2139455,17020,544,-260,17030.68,29.85,-1.00,-1.0,2381
4458,2139458,16992,476,-368,17002.65,29.85,-1.00,-1.0,2361
4460,2139460,17104,484,-268,17112.95,29.89,-1.00,-1.0,2435
4463,2139463,17156,436,-252,17163.39,29.75,-1.00,-1.0,2366
4466,2139466,17048,552,-264,17058.98,29.80,-1.00,-1.0,2435
4469,2139469,17064,436,-288,17072.00,29.85,-1.00,-1.0,2365
4474,2139474,17088,484,-276,17097.08,29.85,-1.00,-1.0,2447
4476,2139476,16060,464,-76,16066.88,29.80,-1.00,-1.0,2371
4479,2139479,27116,-7556,-2768,28284.84,29.75,-1.00,-1.0,2446
4482,2139482,24188,804,-3392,24437.91,29.85,-1.00,-1.0,2373
4485,2139485,21444,13916,-4504,25957.39,29.85,-1.00,-1.0,2448
4487,2139487,8444,-9928,10200,16550.12,29.80,-1.00,-1.0,2376
4490,2139490,14460,-5920,64,15625.05,29.94,-1.00,-1.0,2443
4493,2139493,4740,5452,-20944,22154.98,29.85,-1.00,-1.0,2368
4498,2139498,26776,-7140,22216,35517.38,29.80,-1.00,-1.0,2444
4500,2139500,1480,9804,-23936,25908.32,29.80,-1.00,-1.0,2369
4503,2139503,25488,-12224,27164,39203.92,29.80,-1.00,-1.0,2439
4506,2139506,7880,-4084,1100,8943.35,29.80,-1.00,-1.0,2366
4509,2139509,18136,7444,-13096,23576.11,29.85,-1.00,-1.0,2365
4511,2139511,20876,-4768,18088,28030.64,29.85,-1.00,-1.0,2446
4514,2139514,13064,10684,-22412,28055.55,29.85,-1.00,-1.0,2375
4517,2139517,22128,-7320,21564,31752.75,29.85,-1.00,-1.0,2423
4520,2139520,11508,7112,-8900,16193.35,29.85,-1.00,-1.0,2365
4525,2139525,18092,-10984,20692,29599.45,29.80,-1.00,-1.0,2442
4527,2139527,14680,10324,-21940,28345.21,29.89,-1.00,-1.0,2368
4530,2139530,20788,-9060,22904,32230.70,29.85,-1.00,-1.0,2435
4533,2139533,16668,-1616,2668,16957.36,29.80,-1.00,-1.0,2365
4536,2139536,16172,4604,-9960,19543.08,29.85,-1.00,-1.0,2436
4538,2139538,17204,-5936,12036,21819.23,29.89,-1.00,-1.0,2365
4541,2139541,15048,8484,-16300,23751.01,29.94,-1.00,-1.0,2435
4544,2139544,18080,-3044,10648,21202.18,29.80,-1.00,-1.0,2364
4549,2139549,17948,5488,-8924,20781.88,29.80,-1.00,-1.0,2442
4551,2139551,17132,-4108,9564,20046.23,29.80,-1.00,-1.0,2371
4554,2139554,15480,4864,-10192,19161.57,29.80,-1.00,-1.0,2436
4557,2139557,17772,-612,2860,18011.06,29.80,-1.00,-1.0,2366
4560,2139560,16916,2372,-2136,17214.53,29.80,-1.00,-1.0,2436
4562,2139562,16280,356,384,16288.42,29.89,-1.00,-1.0,2373
4565,2139565,17576,-2108,2432,17868.24,29.80,-1.00,-1.0,2436
4568,2139568,16832,2264,-4340,17529.33,29.80,-1.00,-1.0,2367
4573,2139573,18324,700,-1924,18438.03,29.85,-1.00,-1.0,2451
4576,2139576,15888,-100,664,15902.18,29.75,-1.00,-1.0,2375
4578,2139578,16628,1108,476,16671.67,29.80,-1.00,-1.0,2360
4581,2139581,17668,1044,-132,17699.31,29.71,-1.00,-1.0,2435
4584,2139584,16356,-160,980,16386.11,29.89,-1.00,-1.0,2365
4586,2139586,16244,852,-2784,16502.85,29.80,-1.00,-1.0,2437
4589,2139589,17544,-72,1028,17574.24,29.80,-1.00,-1.0,2353
4592,2139592,17028,616,-532,17047.44,29.80,-1.00,-1.0,2435
4595,2139595,16936,-68,1168,16976.37,29.80,-1.00,-1.0,2373
4599,2139599,16264,1020,-1444,16359.81,29.80,-1.00,-1.0,2445
4602,2139602,16700,724,-140,16716.27,29.89,-1.00,-1.0,2355
4605,2139605,16232,1820,-2620,16542.51,29.80,-1.00,-1.0,2436
4608,2139608,16944,-260,1148,16984.84,29.80,-1.00,-1.0,2363
4610,2139610,17888,-16,16,17888.01,29.80,-1.00,-1.0,2438
4613,2139613,17228,-392,-8,17232.46,29.89,-1.00,-1.0,2381
4616,2139616,17200,-464,224,17207.71,29.89,-1.00,-1.0,2437
4619,2139619,16900,936,-2108,17056.66,29.89,-1.00,-1.0,2373
4621,2139621,17192,-308,1072,17228.14,29.80,-1.00,-1.0,2360
4626,2139626,17004,1268,-320,17054.21,29.75,-1.00,-1.0,2442
4629,2139629,17008,464,632,17026.06,29.85,-1.00,-1.0,2367
4631,2139631,16844,520,-1192,16894.13,29.85,-1.00,-1.0,2421
4634,2139634,17056,624,-516,17075.21,29.80,-1.00,-1.0,2365
4637,2139637,17048,572,-208,17058.86,29.85,-1.00,-1.0,2435
4640,2139640,17256,660,-820,17288.07,29.80,-1.00,-1.0,2364
4642,2139642,17292,-212,980,17321.04,29.85,-1.00,-1.0,2435
4645,2139645,16816,924,-1596,16916.82,29.71,-1.00,-1.0,2364
4650,2139650,17104,-104,812,17123.58,29.80,-1.00,-1.0,2451
4653,2139653,16976,1180,-1348,17070.27,29.89,-1.00,-1.0,2370
4656,2139656,17216,-28,1132,17253.20,29.89,-1.00,-1.0,2446
4658,2139658,17048,824,-700,17082.25,29.89,-1.00,-1.0,2373
4661,2139661,17032,724,-500,17054.71,29.85,-1.00,-1.0,2360
4664,2139664,17052,-288,600,17064.98,29.94,-1.00,-1.0,2435
4666,2139666,16848,1152,-1440,16948.62,29.80,-1.00,-1.0,2367
4669,2139669,17232,32,672,17245.13,29.85,-1.00,-1.0,2438
4672,2139672,17160,372,-384,17168.33,29.89,-1.00,-1.0,2366
4677,2139677,17016,836,56,17036.62,29.89,-1.00,-1.0,2457
4680,2139680,16920,1084,-932,16980.29,29.89,-1.00,-1.0,2374
4683,2139683,17244,280,468,17252.62,29.80,-1.00,-1.0,2450
4685,2139685,17036,620,-580,17057.14,29.89,-1.00,-1.0,2374
4688,2139688,16932,356,-432,16941.25,29.89,-1.00,-1.0,2444
4691,2139691,17260,188,180,17261.96,29.80,-1.00,-1.0,2368
4694,2139694,16984,852,-844,17026.29,29.94,-1.00,-1.0,2450
4696,2139696,16988,-80,260,16990.18,29.80,-1.00,-1.0,2374
4699,2139699,17028,528,-660,17048.96,29.89,-1.00,-1.0,2359
4704,2139704,17044,332,-92,17047.48,29.80,-1.00,-1.0,2442
4707,2139707,17244,400,-196,17249.75,29.80,-1.00,-1.0,2366
4710,2139710,16888,772,-140,16906.21,29.80,-1.00,-1.0,2443
4712,2139712,16956,828,-636,16988.11,29.89,-1.00,-1.0,2363
4715,2139715,17208,148,-60,17208.74,29.80,-1.00,-1.0,2437
4718,2139718,16948,404,-340,16956.22,29.85,-1.00,-1.0,2365
4721,2139721,17052,368,-296,17058.54,29.89,-1.00,-1.0,2438
4723,2139723,16988,184,-260,16990.99,29.85,-1.00,-1.0,2364
4728,2139728,17004,456,16,17010.12,29.85,-1.00,-1.0,2429
4731,2139731,17212,532,-424,17225.44,29.80,-1.00,-1.0,2369
4734,2139734,17252,332,56,17255.29,29.75,-1.00,-1.0,2361
4736,2139736,16992,392,-280,16998.83,29.89,-1.00,-1.0,2436
4739,2139739,16940,620,-744,16967.66,29.85,-1.00,-1.0,2365
4742,2139742,17000,256,-300,17004.57,29.89,-1.00,-1.0,2436
4745,2139745,17072,284,-552,17083.28,29.75,-1.00,-1.0,2364
4747,2139747,17184,380,-56,17188.29,29.85,-1.00,-1.0,2437
4750,2139750,17112,428,-328,17120.49,29.85,-1.00,-1.0,2364
4755,2139755,17024,468,-456,17036.54,29.85,-1.00,-1.0,2448
4758,2139758,17120,596,-308,17133.14,29.85,-1.00,-1.0,2367
4761,2139761,17220,572,-24,17229.51,29.85,-1.00,-1.0,2447
4763,2139763,17200,392,-60,17204.57,29.75,-1.00,-1.0,2372
4766,2139766,16912,480,-480,16925.62,29.85,-1.00,-1.0,2437
4769,2139769,17040,528,-460,17054.38,29.85,-1.00,-1.0,2367
4771,2139771,16972,616,-464,16989.51,29.85,-1.00,-1.0,2359
4774,2139774,17176,392,212,17181.78,29.89,-1.00,-1.0,2438
4777,2139777,17104,584,-244,17115.71,29.89,-1.00,-1.0,2365
4782,2139782,17108,288,-336,17113.72,29.85,-1.00,-1.0,2441
4785,2139785,17000,372,-560,17013.29,29.85,-1.00,-1.0,2369
4788,2139788,16924,392,-436,16934.15,29.80,-1.00,-1.0,2436
4790,2139790,16956,524,-532,16972.44,29.85,-1.00,-1.0,2367
4793,2139793,17208,324,-80,17211.24,29.80,-1.00,-1.0,2438
4796,2139796,17188,424,-324,17196.28,29.85,-1.00,-1.0,2366
4799,2139799,17004,440,-448,17015.59,29.99,-1.00,-1.0,2431
4801,2139801,16856,680,-436,16875.34,29.85,-1.00,-1.0,2372
4804,2139804,17012,404,-520,17024.74,29.89,-1.00,-1.0,2360
4809,2139809,17232,476,-44,17238.63,29.80,-1.00,-1.0,2441
4812,2139812,17104,452,-112,17110.34,29.80,-1.00,-1.0,2375
4815,2139815,17052,484,-252,17060.73,29.75,-1.00,-1.0,2437
4817,2139817,17028,384,-408,17037.21,29.80,-1.00,-1.0,2364
4820,2139820,17060,248,-100,17062.10,29.89,-1.00,-1.0,2436
4823,2139823,17116,536,-324,17127.46,29.89,-1.00,-1.0,2370
4826,2139826,17124,612,-356,17138.63,29.85,-1.00,-1.0,2437
4828,2139828,17072,380,-284,17078.59,29.75,-1.00,-1.0,2366
4833,2139833,17072,488,-284,17081.33,29.85,-1.00,-1.0,2456
4836,2139836,16992,504,-416,17004.56,29.94,-1.00,-1.0,2373
4839,2139839,17008,452,-104,17014.32,29.85,-1.00,-1.0,2450
4841,2139841,17168,396,60,17172.67,29.85,-1.00,-1.0,2376
4844,2139844,17060,504,-268,17069.55,29.80,-1.00,-1.0,2362
4847,2139847,17028,536,-436,17042.01,29.89,-1.00,-1.0,2435
4849,2139849,17072,552,-460,17087.12,29.89,-1.00,-1.0,2366
4852,2139852,17020,452,-228,17027.53,29.85,-1.00,-1.0,2446
4855,2139855,17060,500,-324,17070.40,29.75,-1.00,-1.0,2367
4860,2139860,16984,420,-224,16990.67,29.85,-1.00,-1.0,2444
4863,2139863,16916,608,-320,16929.95,29.80,-1.00,-1.0,2367
4866,2139866,17044,528,-168,17053.00,29.85,-1.00,-1.0,2447
4868,2139868,17028,540,-296,17039.13,29.80,-1.00,-1.0,2365
4871,2139871,17184,540,-88,17192.71,29.85,-1.00,-1.0,2440
4874,2139874,17116,712,-280,17133.09,29.80,-1.00,-1.0,2364
4877,2139877,17068,588,-392,17082.62,29.75,-1.00,-1.0,2440
4879,2139879,16956,416,-352,16964.75,29.80,-1.00,-1.0,2364
4882,2139882,17036,492,-568,17052.56,29.85,-1.00,-1.0,2370
4887,2139887,17080,420,-312,17088.01,29.85,-1.00,-1.0,2442
4890,2139890,17172,384,-172,17177.15,29.80,-1.00,-1.0,2367
4893,2139893,17036,272,-136,17038.71,29.85,-1.00,-1.0,2444
4895,2139895,16996,388,-248,17002.24,29.85,-1.00,-1.0,2365
4898,2139898,17092,360,-284,17098.15,29.85,-1.00,-1.0,2437
4901,2139901,17152,420,-280,17159.43,29.80,-1.00,-1.0,2364
4904,2139904,17200,556,-108,17209.32,29.85,-1.00,-1.0,2440
4906,2139906,17152,548,-96,17161.02,29.85,-1.00,-1.0,2365
4911,2139911,17020,320,-236,17024.64,29.80,-1.00,-1.0,2430
4914,2139914,17112,464,-440,17123.94,29.80,-1.00,-1.0,2369
4917,2139917,17056,388,-112,17060.78,29.89,-1.00,-1.0,2437
4920,2139920,17080,408,-188,17085.91,29.80,-1.00,-1.0,2363
4922,2139922,17124,356,-148,17128.34,29.80,-1.00,-1.0,2361
4925,2139925,17088,452,-248,17095.78,29.80,-1.00,-1.0,2436
4928,2139928,17032,324,-272,17037.25,29.89,-1.00,-1.0,2364
4930,2139930,17016,232,-260,17019.57,29.75,-1.00,-1.0,2436
4933,2139933,17156,492,-324,17166.11,29.80,-1.00,-1.0,2371
4938,2139938,17020,504,-412,17032.44,29.80,-1.00,-1.0,2450
4941,2139941,17084,448,-360,17093.66,29.80,-1.00,-1.0,2382
4944,2139944,16976,384,-388,16984.78,29.80,-1.00,-1.0,2437
4947,2139947,17032,332,-396,17039.84,29.80,-1.00,-1.0,2370
4949,2139949,17068,468,-500,17081.73,29.80,-1.00,-1.0,2448
4952,2139952,17028,540,-348,17040.11,29.80,-1.00,-1.0,2381
4955,2139955,17088,480,-388,17099.14,29.89,-1.00,-1.0,2360
4957,2139957,17052,512,-264,17061.73,29.85,-1.00,-1.0,2436
4960,2139960,16992,596,-308,17005.24,29.80,-1.00,-1.0,2367
4965,2139965,16992,564,-344,17004.84,29.80,-1.00,-1.0,2449
4968,2139968,17036,540,-228,17046.08,29.89,-1.00,-1.0,2373
4971,2139971,17048,760,-176,17065.84,29.80,-1.00,-1.0,2439
4974,2139974,17060,572,-208,17070.85,29.80,-1.00,-1.0,2368
4976,2139976,17096,548,-284,17107.14,29.85,-1.00,-1.0,2439
4979,2139979,17072,532,-264,17082.33,29.80,-1.00,-1.0,2379
4982,2139982,17096,504,-296,17105.99,29.80,-1.00,-1.0,2437
4985,2139985,17184,480,-168,17191.52,29.89,-1.00,-1.0,2368
4990,2139990,17016,516,-192,17024.90,29.80,-1.00,-1.0,2441
4992,2139992,17008,380,-340,17015.64,29.80,-1.00,-1.0,2367
4995,2139995,17072,400,-244,17078.43,29.89,-1.00,-1.0,2346
4998,2139998,17008,488,-340,17018.40,29.89,-1.00,-1.0,2449
5000,2140000,17084,432,-220,17090.88,29.89,-1.00,-1.0,2375
5003,2140003,17116,552,-172,17125.76,29.85,-1.00,-1.0,2445
5006,2140006,17024,500,-312,17034.20,29.89,-1.00,-1.0,2372
5009,2140009,17056,300,-232,17060.21,29.94,-1.00,-1.0,2451
5011,2140011,17068,248,-332,17073.03,29.85,-1.00,-1.0,2365
5017,2140017,17112,360,-400,17120.46,29.75,-1.00,-1.0,2437
5020,2140020,17120,344,-368,17127.41,29.75,-1.00,-1.0,2374
5023,2140023,17032,344,-324,17038.55,29.80,-1.00,-1.0,2438
5025,2140025,17000,508,-460,17013.81,29.85,-1.00,-1.0,2365
5028,2140028,17128,468,-148,17135.03,29.89,-1.00,-1.0,2436
5031,2140031,17072,576,-216,17083.08,29.94,-1.00,-1.0,2364
5033,2140033,17120,656,-288,17134.98,29.80,-1.00,-1.0,2361
5036,2140036,17064,468,-188,17071.45,29.89,-1.00,-1.0,2437
5039,2140039,17096,436,-488,17108.52,29.80,-1.00,-1.0,2373
5044,2140044,17080,460,-300,17088.83,29.75,-1.00,-1.0,2448
5046,2140046,17036,336,-380,17043.55,29.80,-1.00,-1.0,2370
5049,2140049,17116,332,-396,17123.80,29.75,-1.00,-1.0,2433
5052,2140052,17164,372,-432,17173.46,29.80,-1.00,-1.0,2372
5055,2140055,17048,496,-136,17055.76,29.85,-1.00,-1.0,2449
5057,2140057,17016,604,-340,17030.11,29.89,-1.00,-1.0,2365
5060,2140060,17040,652,-188,17053.51,29.85,-1.00,-1.0,2451
5063,2140063,16964,504,-344,16974.97,29.80,-1.00,-1.0,2371
5068,2140068,17124,416,-376,17133.18,29.89,-1.00,-1.0,2443
5070,2140070,17120,364,-328,17127.01,29.80,-1.00,-1.0,2354
5073,2140073,17028,464,-228,17035.85,29.80,-1.00,-1.0,2367
5076,2140076,17060,484,-216,17068.23,29.89,-1.00,-1.0,2445
5079,2140079,17040,504,-332,17050.68,29.80,-1.00,-1.0,2365
5081,2140081,16992,456,-176,16999.03,29.85,-1.00,-1.0,2449
5084,2140084,17036,464,-272,17044.49,29.80,-1.00,-1.0,2364
5087,2140087,17028,524,-236,17037.70,29.89,-1.00,-1.0,2444
5090,2140090,17072,520,-280,17082.21,29.89,-1.00,-1.0,2365
5095,2140095,17120,508,-396,17132.11,29.89,-1.00,-1.0,2442
5097,2140097,17092,424,-400,17101.94,29.80,-1.00,-1.0,2367
5100,2140100,17100,520,-316,17110.82,29.89,-1.00,-1.0,2437
5103,2140103,17088,440,-272,17095.83,29.89,-1.00,-1.0,2365
5106,2140106,17104,492,-352,17114.70,29.80,-1.00,-1.0,2436
5108,2140108,17104,348,-224,17109.01,29.80,-1.00,-1.0,2351
5111,2140111,17060,476,-336,17069.95,29.89,-1.00,-1.0,2367
5114,2140114,17076,452,-280,17084.28,29.85,-1.00,-1.0,2450
5117,2140117,17064,572,-288,17076.01,29.94,-1.00,-1.0,2369
5122,2140122,17072,448,-252,17079.74,29.85,-1.00,-1.0,2441
5124,2140124,17048,636,-184,17060.85,29.80,-1.00,-1.0,2368
5127,2140127,17104,516,-160,17112.53,29.66,-1.00,-1.0,2453
5130,2140130,17096,440,-224,17103.13,29.80,-1.00,-1.0,2368
5133,2140133,17056,468,-308,17065.20,29.94,-1.00,-1.0,2436
5135,2140135,17068,388,-316,17075.33,29.80,-1.00,-1.0,2366
5138,2140138,17012,388,-360,17020.23,29.75,-1.00,-1.0,2437
5141,2140141,17112,404,-224,17118.23,29.80,-1.00,-1.0,2372
5146,2140146,17040,384,-152,17045.00,29.89,-1.00,-1.0,2442
5149,2140149,17076,360,-176,17080.70,29.94,-1.00,-1.0,2366
5151,2140151,17148,448,-228,17155.37,29.89,-1.00,-1.0,2359
5154,2140154,17060,488,-400,17071.66,29.80,-1.00,-1.0,2437
5157,2140157,17036,528,-256,17046.10,29.89,-1.00,-1.0,2365
5159,2140159,17052,444,-308,17060.56,29.89,-1.00,-1.0,2436
5162,2140162,17124,484,-276,17133.06,29.89,-1.00,-1.0,2363
5165,2140165,17044,424,-332,17052.51,29.71,-1.00,-1.0,2437
5168,2140168,17028,388,-356,17036.14,29.99,-1.00,-1.0,2364
5173,2140173,17172,544,-168,17181.44,29.75,-1.00,-1.0,2444
5175,2140175,17132,464,-176,17139.19,29.94,-1.00,-1.0,2376
5178,2140178,16912,456,-172,16919.02,29.89,-1.00,-1.0,2442
5181,2140181,17004,456,-232,17011.70,29.85,-1.00,-1.0,2373
5184,2140184,16992,548,-340,17004.23,29.89,-1.00,-1.0,2450
5186,2140186,16988,528,-396,17000.82,29.75,-1.00,-1.0,2373
5189,2140189,17064,568,-132,17073.96,29.89,-1.00,-1.0,2360
5192,2140192,17136,504,-332,17146.62,29.89,-1.00,-1.0,2436
5195,2140195,17144,448,-260,17151.82,29.89,-1.00,-1.0,2423
5200,2140200,17072,420,-268,17079.27,29.80,-1.00,-1.0,2450
5202,2140202,17032,432,-324,17040.56,29.80,-1.00,-1.0,2368
5205,2140205,17112,464,-156,17119.00,29.85,-1.00,-1.0,2434
5208,2140208,17028,460,-324,17037.29,29.80,-1.00,-1.0,2367
5211,2140211,17100,480,-388,17111.13,29.85,-1.00,-1.0,2440
5213,2140213,17092,436,-428,17102.92,29.80,-1.00,-1.0,2367
5216,2140216,17012,532,-364,17024.21,29.85,-1.00,-1.0,2434
5219,2140219,17140,552,-336,17152.18,29.80,-1.00,-1.0,2354
5224,2140224,17068,420,-220,17074.58,29.80,-1.00,-1.0,2445
5226,2140226,17048,472,-336,17057.84,29.80,-1.00,-1.0,2369
5229,2140229,17092,472,-308,17101.29,29.85,-1.00,-1.0,2360
5232,2140232,17008,384,-176,17013.24,29.85,-1.00,-1.0,2442
5234,2140234,17108,416,-456,17119.13,29.85,-1.00,-1.0,2367
5237,2140237,17060,396,-344,17068.06,29.94,-1.00,-1.0,2440
5240,2140240,17104,368,-268,17110.06,29.75,-1.00,-1.0,2366
5243,2140243,17080,444,-256,17087.69,29.85,-1.00,-1.0,2440
5246,2140246,17060,372,-372,17068.11,29.80,-1.00,-1.0,2367
5251,2140251,17084,472,-244,17092.26,29.85,-1.00,-1.0,2438
5253,2140253,17052,416,-224,17058.54,29.75,-1.00,-1.0,2368
5256,2140256,17080,464,-340,17089.68,29.85,-1.00,-1.0,2433
5259,2140259,17032,484,-300,17041.52,29.80,-1.00,-1.0,2366
5262,2140262,17068,500,-280,17077.62,29.85,-1.00,-1.0,2432
5264,2140264,17088,452,-164,17094.76,29.94,-1.00,-1.0,2366
5267,2140267,17088,528,-236,17097.79,29.85,-1.00,-1.0,2356
5270,2140270,17108,540,-220,17117.93,29.89,-1.00,-1.0,2445
5273,2140273,17004,432,-416,17014.57,29.85,-1.00,-1.0,2367
5278,2140278,17032,540,-244,17042.30,29.89,-1.00,-1.0,2437
5280,2140280,17080,552,-464,17095.21,29.71,-1.00,-1.0,2355
5283,2140283,17080,548,-184,17089.78,29.85,-1.00,-1.0,2434
5286,2140286,17052,600,-364,17066.44,29.71,-1.00,-1.0,2369
5289,2140289,17076,528,-204,17085.38,29.80,-1.00,-1.0,2433
5291,2140291,17096,600,-208,17107.79,29.89,-1.00,-1.0,2373
5294,2140294,17120,404,-296,17127.32,29.85,-1.00,-1.0,2434
5297,2140297,17104,472,-168,17111.34,29.89,-1.00,-1.0,2353
5302,2140302,17052,492,-376,17063.24,29.89,-1.00,-1.0,2446
5305,2140305,16944,436,-392,16954.14,29.89,-1.00,-1.0,2368
5307,2140307,17112,400,-368,17120.63,29.80,-1.00,-1.0,2361
5310,2140310,17072,548,-476,17087.42,29.85,-1.00,-1.0,2437
5313,2140313,17088,428,-312,17096.21,29.89,-1.00,-1.0,2371
5315,2140315,16992,500,-156,17000.07,29.85,-1.00,-1.0,2435
5318,2140318,17136,456,-212,17143.38,29.80,-1.00,-1.0,2380
5321,2140321,17056,492,-332,17066.32,29.75,-1.00,-1.0,2434
5324,2140324,17068,364,-280,17074.18,29.71,-1.00,-1.0,2362
5329,2140329,17028,296,-412,17035.55,29.89,-1.00,-1.0,2444
5331,2140331,17104,440,-328,17112.80,29.85,-1.00,-1.0,2368
5334,2140334,17064,308,-168,17067.61,29.89,-1.00,-1.0,2435
5337,2140337,17064,420,-340,17072.55,29.94,-1.00,-1.0,2366
5339,2140339,16916,376,-208,16921.46,29.89,-1.00,-1.0,2361
5342,2140342,17052,512,-220,17061.10,29.89,-1.00,-1.0,2439
5345,2140345,17112,480,-504,17126.15,29.89,-1.00,-1.0,2367
5348,2140348,16920,512,-44,16927.80,29.85,-1.00,-1.0,2435
5351,2140351,17124,468,-356,17134.09,29.80,-1.00,-1.0,2373
5356,2140356,17044,468,-216,17051.79,29.80,-1.00,-1.0,2442
5358,2140358,17116,504,-248,17125.21,29.89,-1.00,-1.0,2369
5361,2140361,17028,404,-336,17036.11,29.80,-1.00,-1.0,2439
5364,2140364,17048,480,-288,17057.19,29.89,-1.00,-1.0,2365
5367,2140367,17088,444,-412,17098.73,29.89,-1.00,-1.0,2444
5369,2140369,17096,460,-420,17107.34,29.89,-1.00,-1.0,2367
5372,2140372,17020,532,-252,17030.18,29.89,-1.00,-1.0,2433
5375,2140375,17100,528,-392,17112.64,29.85,-1.00,-1.0,2366
5378,2140378,17024,524,-252,17033.93,29.85,-1.00,-1.0,2368
5383,2140383,17028,544,-268,17038.79,29.89,-1.00,-1.0,2446
5385,2140385,16960,392,-316,16967.47,29.89,-1.00,-1.0,2372
5388,2140388,17064,552,-292,17075.42,29.85,-1.00,-1.0,2450
5391,2140391,17036,516,-376,17047.96,29.99,-1.00,-1.0,2366
5394,2140394,17004,524,-264,17014.12,29.94,-1.00,-1.0,2441
5396,2140396,17048,488,-316,17057.91,29.80,-1.00,-1.0,2367
5399,2140399,17104,480,-324,17113.80,29.85,-1.00,-1.0,2441
5402,2140402,17036,512,-160,17044.44,29.80,-1.00,-1.0,2367
5407,2140407,17096,492,-272,17105.24,29.80,-1.00,-1.0,2440
5410,2140410,17096,424,-212,17102.57,29.85,-1.00,-1.0,2370
5412,2140412,17108,432,-316,17116.37,29.80,-1.00,-1.0,2433
5415,2140415,17116,540,-160,17125.26,29.89,-1.00,-1.0,2365
5418,2140418,17196,436,-188,17202.55,29.89,-1.00,-1.0,2366
5421,2140421,17096,376,-232,17101.71,29.80,-1.00,-1.0,2435
5423,2140423,17012,428,-356,17021.11,29.89,-1.00,-1.0,2367
5426,2140426,17064,468,-384,17074.73,29.80,-1.00,-1.0,2433
5429,2140429,17104,404,-172,17109.63,29.75,-1.00,-1.0,2368
5434,2140434,11480,440,1176,11548.46,29.89,-1.00,-1.0,2439
5436,2140436,21328,3976,-664,21705.60,29.89,-1.00,-1.0,2370
5439,2140439,27716,13736,-3660,31148.84,29.89,-1.00,-1.0,2433
5442,2140442,23600,18864,5816,30767.46,29.80,-1.00,-1.0,2367
5445,2140445,5328,-9472,15800,19176.71,29.89,-1.00,-1.0,2432
5447,2140447,3112,-12620,-11228,17176.06,29.80,-1.00,-1.0,2369
5450,2140450,14632,11256,-10488,21231.84,29.80,-1.00,-1.0,2434
5453,2140453,-1652,-6428,20764,21798.90,29.80,-1.00,-1.0,2367
5458,2140458,204,3116,-20636,20870.93,29.89,-1.00,-1.0,2446
5460,2140460,18048,-16588,25744,35547.79,29.80,-1.00,-1.0,2369
5463,2140463,31176,15700,-27100,44190.98,29.85,-1.00,-1.0,2436
5466,2140466,1932,5256,-5668,7967.71,29.89,-1.00,-1.0,2369
5469,2140469,26524,-3292,12040,29314.19,29.85,-1.00,-1.0,2442
5471,2140471,19724,8524,-20252,29526.91,29.80,-1.00,-1.0,2366
5474,2140474,20564,-8848,26124,34403.90,29.85,-1.00,-1.0,2361
5477,2140477,17316,9408,-16748,25862.13,29.89,-1.00,-1.0,2432
5480,2140480,13164,-4728,4828,14797.11,29.80,-1.00,-1.0,2353
5485,2140485,14740,8936,-21544,27591.01,29.80,-1.00,-1.0,2443
5488,2140488,19332,-11656,23728,32750.67,29.80,-1.00,-1.0,2367
5490,2140490,18564,9396,-20364,29113.56,29.80,-1.00,-1.0,2432
5493,2140493,15084,820,-3468,15499.24,29.80,-1.00,-1.0,2369
5496,2140496,19132,-1336,5244,19882.60,29.71,-1.00,-1.0,2433
5499,2140499,15572,7072,-11028,20349.87,29.80,-1.00,-1.0,2370
5501,2140501,15588,-5004,16028,22911.19,29.89,-1.00,-1.0,2435
5504,2140504,18480,6440,-11820,22862.55,29.89,-1.00,-1.0,2369
5509,2140509,19080,-2440,5648,20047.44,29.89,-1.00,-1.0,2455
5512,2140512,15800,5012,-9656,19183.29,29.85,-1.00,-1.0,2376
5515,2140515,16860,-2676,8624,19125.74,29.80,-1.00,-1.0,2447
5517,2140517,17296,4420,-8468,19758.42,29.85,-1.00,-1.0,2374
5520,2140520,18108,-3052,5504,19170.51,29.80,-1.00,-1.0,2441
5523,2140523,17080,860,-2132,17234.02,29.75,-1.00,-1.0,2370
5526,2140526,15104,1036,-1312,15196.23,29.89,-1.00,-1.0,2445
5528,2140528,17948,36,-1356,17999.19,29.89,-1.00,-1.0,2374
5533,2140533,16896,-1048,4588,17539.18,29.80,-1.00,-1.0,2448
5536,2140536,17732,1760,-724,17833.83,29.85,-1.00,-1.0,2369
5539,2140539,17116,-488,2076,17248.34,29.80,-1.00,-1.0,2441
5542,2140542,16244,1524,-2236,16467.84,29.85,-1.00,-1.0,2366
5544,2140544,17128,1692,-4104,17693.90,29.89,-1.00,-1.0,2365
5547,2140547,17140,-1380,3036,17461.42,29.80,-1.00,-1.0,2434
5550,2140550,16804,1476,-2892,17114.81,29.89,-1.00,-1.0,2373
5552,2140552,18056,-832,2620,18264.06,29.89,-1.00,-1.0,2419
5555,2140555,16068,1292,-1124,16159.00,29.80,-1.00,-1.0,2381
5560,2140560,16872,48,64,16872.19,29.85,-1.00,-1.0,2442
5563,2140563,16452,1844,-3292,16879.16,29.85,-1.00,-1.0,2369
5566,2140566,17828,-956,3044,18111.25,29.85,-1.00,-1.0,2443
5568,2140568,17288,468,-1020,17324.39,29.85,-1.00,-1.0,2366
5571,2140571,16932,-96,-580,16942.20,29.85,-1.00,-1.0,2437
5574,2140574,17120,-136,336,17123.84,29.85,-1.00,-1.0,2366
5577,2140577,16680,1196,-1660,16805.01,29.85,-1.00,-1.0,2440
5579,2140579,17276,-436,2148,17414.48,29.80,-1.00,-1.0,2366
5584,2140584,16772,1028,-376,16807.68,29.89,-1.00,-1.0,2426
5587,2140587,17452,-176,872,17474.66,29.89,-1.00,-1.0,2376
5590,2140590,16708,1324,-2252,16910.99,29.85,-1.00,-1.0,2434
5593,2140593,16912,12,948,16938.55,29.80,-1.00,-1.0,2370
5595,2140595,17220,628,-716,17246.32,29.75,-1.00,-1.0,2360
5598,2140598,17132,540,-804,17159.35,29.85,-1.00,-1.0,2434
5601,2140601,17004,-12,760,17020.98,29.85,-1.00,-1.0,2367
5603,2140603,17192,936,-2256,17364.63,29.85,-1.00,-1.0,2433
5606,2140606,17040,-644,1436,17112.52,29.85,-1.00,-1.0,2366
5611,2140611,16796,1052,-1076,16863.28,29.80,-1.00,-1.0,2450
5614,2140614,17228,-260,1584,17302.62,29.80,-1.00,-1.0,2372
5617,2140617,16840,1672,-2140,17057.57,29.85,-1.00,-1.0,2442
5619,2140619,17036,-492,848,17064.19,29.89,-1.00,-1.0,2376
5622,2140622,17088,912,-1108,17148.15,29.94,-1.00,-1.0,2441
5625,2140625,16940,968,-852,16989.01,29.89,-1.00,-1.0,2374
5628,2140628,17316,-500,1088,17357.35,29.85,-1.00,-1.0,2442
5630,2140630,17084,1260,-1404,17187.84,29.80,-1.00,-1.0,2374
5633,2140633,16892,1088,-256,16928.94,29.89,-1.00,-1.0,2373
5638,2140638,16940,844,-792,16979.49,29.85,-1.00,-1.0,2441
5641,2140641,16984,20,452,16990.03,29.80,-1.00,-1.0,2378
5643,2140643,17000,688,-1236,17058.75,29.75,-1.00,-1.0,2435
5646,2140646,17228,212,48,17229.37,29.94,-1.00,-1.0,2373
5649,2140649,17076,476,-376,17086.77,29.85,-1.00,-1.0,2434
5652,2140652,17140,344,-408,17148.31,29.80,-1.00,-1.0,2374
5654,2140654,17188,40,8,17188.05,29.89,-1.00,-1.0,2420
5657,2140657,17028,760,-536,17053.38,29.85,-1.00,-1.0,2373
5662,2140662,17112,380,112,17116.59,29.85,-1.00,-1.0,2440
5665,2140665,16912,604,-412,16927.80,29.85,-1.00,-1.0,2370
5667,2140667,17056,924,-524,17089.04,29.85,-1.00,-1.0,2432
5670,2140670,17068,372,-436,17077.62,29.85,-1.00,-1.0,2366
5673,2140673,17076,144,92,17076.86,29.71,-1.00,-1.0,2360
5676,2140676,17084,532,-560,17101.45,29.89,-1.00,-1.0,2434
5678,2140678,17060,-20,-252,17061.87,29.94,-1.00,-1.0,2367
5681,2140681,17084,244,-624,17097.13,29.85,-1.00,-1.0,2433
5684,2140684,17184,564,-124,17193.70,29.94,-1.00,-1.0,2368
5689,2140689,17172,572,-244,17183.26,29.85,-1.00,-1.0,2452
5692,2140692,16996,232,168,16998.41,29.85,-1.00,-1.0,2377
5695,2140695,16972,788,-652,17002.79,29.85,-1.00,-1.0,2442
5697,2140697,17048,428,-296,17055.94,29.89,-1.00,-1.0,2375
5700,2140700,17136,188,-364,17140.90,29.85,-1.00,-1.0,2441
5703,2140703,17092,300,-460,17100.82,29.85,-1.00,-1.0,2374
5705,2140705,17112,292,12,17114.50,29.85,-1.00,-1.0,2348
5708,2140708,17024,636,-620,17047.15,29.89,-1.00,-1.0,2432
5711,2140711,17008,444,-204,17015.02,29.94,-1.00,-1.0,2367
5716,2140716,17160,668,-36,17173.04,29.85,-1.00,-1.0,2447
5719,2140719,17132,332,336,17138.51,29.94,-1.00,-1.0,2373
5722,2140722,16960,568,-544,16978.23,29.85,-1.00,-1.0,2444
5724,2140724,16964,480,-372,16974.87,29.94,-1.00,-1.0,2377
5727,2140727,16996,656,-500,17016.00,29.85,-1.00,-1.0,2434
5730,2140730,17104,608,-84,17115.01,29.85,-1.00,-1.0,2355
5733,2140733,17132,416,188,17138.08,29.75,-1.00,-1.0,2445
5735,2140735,17136,516,-400,17148.43,29.85,-1.00,-1.0,2376
5740,2140740,17040,184,-420,17046.17,29.89,-1.00,-1.0,2439
5743,2140743,17096,276,-656,17110.81,29.89,-1.00,-1.0,2368
5746,2140746,17080,412,-628,17096.51,29.85,-1.00,-1.0,2364
5748,2140748,17188,368,-252,17193.79,29.94,-1.00,-1.0,2443
5751,2140751,17084,344,-152,17088.14,29.94,-1.00,-1.0,2382
5754,2140754,17072,500,-428,17084.68,29.85,-1.00,-1.0,2435
5757,2140757,16924,584,-624,16945.57,29.75,-1.00,-1.0,2371
5759,2140759,16948,548,-616,16968.04,29.80,-1.00,-1.0,2442
5762,2140762,17252,460,100,17258.42,29.89,-1.00,-1.0,2354
5767,2140767,17264,696,-132,17278.53,29.89,-1.00,-1.0,2437
5770,2140770,17048,516,-188,17056.84,29.85,-1.00,-1.0,2356
5773,2140773,17012,444,-496,17025.02,29.80,-1.00,-1.0,2432
5775,2140775,17108,364,-340,17115.25,29.85,-1.00,-1.0,2376
5778,2140778,17024,280,-268,17028.41,29.89,-1.00,-1.0,2347
5781,2140781,17016,608,-648,17039.19,29.89,-1.00,-1.0,2428
5783,2140783,17060,424,-120,17065.69,29.89,-1.00,-1.0,2373
5786,2140786,17200,424,-280,17207.50,29.85,-1.00,-1.0,2436
5789,2140789,16952,408,-308,16959.71,29.80,-1.00,-1.0,2367
5794,2140794,17184,564,-276,17195.47,29.99,-1.00,-1.0,2438
5797,2140797,17160,440,-44,17165.70,29.89,-1.00,-1.0,2356
5800,2140800,17100,516,-108,17108.12,29.71,-1.00,-1.0,2441
5803,2140803,17016,452,-484,17028.88,29.85,-1.00,-1.0,2423
5805,2140805,16952,540,-332,16963.85,29.80,-1.00,-1.0,2432
5808,2140808,16904,516,-132,16912.39,29.80,-1.00,-1.0,2375
5811,2140811,17032,548,-244,17042.56,29.80,-1.00,-1.0,2428
5814,2140814,17164,236,-72,17165.77,29.89,-1.00,-1.0,2377
5816,2140816,17108,432,-216,17114.82,29.80,-1.00,-1.0,2363
5821,2140821,16928,580,-220,16939.36,29.80,-1.00,-1.0,2439
5824,2140824,17060,532,-184,17069.29,29.89,-1.00,-1.0,2368
5827,2140827,17112,668,-124,17125.48,29.85,-1.00,-1.0,2439
5829,2140829,17052,592,-36,17062.31,29.89,-1.00,-1.0,2367
5832,2140832,17140,584,-288,17152.37,29.80,-1.00,-1.0,2432
5835,2140835,17068,432,-184,17074.46,29.89,-1.00,-1.0,2355
5838,2140838,17060,332,-596,17073.64,29.94,-1.00,-1.0,2438
5840,2140840,17000,468,-512,17014.15,29.80,-1.00,-1.0,2355
5846,2140846,17140,268,-164,17142.88,29.89,-1.00,-1.0,2448
5849,2140849,17176,160,-184,17177.73,29.94,-1.00,-1.0,2371
5851,2140851,17092,480,-384,17103.05,29.89,-1.00,-1.0,2441
5854,2140854,17024,484,-340,17034.27,29.85,-1.00,-1.0,2375
5857,2140857,16988,408,-240,16994.59,29.89,-1.00,-1.0,2360
5859,2140859,17020,516,-204,17029.04,29.80,-1.00,-1.0,2433
5862,2140862,17044,476,-156,17051.36,29.89,-1.00,-1.0,2376
5865,2140865,17092,552,-332,17104.13,29.89,-1.00,-1.0,2431
5868,2140868,17060,380,-260,17066.21,29.80,-1.00,-1.0,2373
5872,2140872,17080,364,-420,17089.04,29.85,-1.00,-1.0,2439
5875,2140875,17044,312,-188,17047.89,29.99,-1.00,-1.0,2370
5878,2140878,16988,432,-152,16994.17,29.85,-1.00,-1.0,2433
5881,2140881,17116,468,-56,17122.49,29.85,-1.00,-1.0,2366
5883,2140883,17068,248,-332,17073.03,29.75,-1.00,-1.0,2434
5886,2140886,17096,452,-296,17104.54,29.80,-1.00,-1.0,2368
5889,2140889,17056,408,-248,17062.68,29.85,-1.00,-1.0,2430
5892,2140892,17048,572,-168,17058.42,29.89,-1.00,-1.0,2367
5894,2140894,17044,396,-228,17050.12,29.89,-1.00,-1.0,2369
5899,2140899,17128,300,-524,17138.64,29.75,-1.00,-1.0,2461
5902,2140902,17104,380,-376,17112.35,29.80,-1.00,-1.0,2370
5905,2140905,17096,416,-468,17107.46,29.75,-1.00,-1.0,2437
5908,2140908,17044,432,-376,17053.62,29.85,-1.00,-1.0,2364
5910,2140910,17036,480,-152,17043.44,29.85,-1.00,-1.0,2437
5913,2140913,17176,568,-244,17187.12,29.89,-1.00,-1.0,2365
5916,2140916,17032,552,-208,17042.21,29.85,-1.00,-1.0,2435
5919,2140919,17036,668,-296,17051.66,29.85,-1.00,-1.0,2363
5924,2140924,17096,692,12,17110.00,29.94,-1.00,-1.0,2445
5926,2140926,17032,540,-184,17041.55,29.89,-1.00,-1.0,2377
5929,2140929,17052,456,-288,17060.53,29.94,-1.00,-1.0,2360
5932,2140932,17084,516,-396,17096.38,29.85,-1.00,-1.0,2442
5934,2140934,17092,396,-304,17099.29,29.85,-1.00,-1.0,2364
5937,2140937,17080,400,-300,17087.32,29.85,-1.00,-1.0,2424
5940,2140940,17068,440,-348,17077.22,29.94,-1.00,-1.0,2368
5943,2140943,17076,404,-72,17080.93,29.85,-1.00,-1.0,2435
5945,2140945,17056,488,-280,17065.28,29.94,-1.00,-1.0,2366
5950,2140950,17188,512,-232,17197.19,29.85,-1.00,-1.0,2451
5953,2140953,17036,504,-180,17044.40,29.80,-1.00,-1.0,2374
5956,2140956,17000,448,-260,17007.89,29.75,-1.00,-1.0,2437
5959,2140959,17004,492,-336,17014.43,29.89,-1.00,-1.0,2370
5961,2140961,17012,684,-84,17025.95,29.85,-1.00,-1.0,2424
5964,2140964,17068,428,-228,17074.89,29.89,-1.00,-1.0,2379
5967,2140967,17220,332,-320,17226.17,29.85,-1.00,-1.0,2361
5969,2140969,17144,304,-276,17148.92,29.80,-1.00,-1.0,2437
5972,2140972,17064,348,-204,17068.77,29.94,-1.00,-1.0,2364
5977,2140977,17092,464,-204,17099.51,29.85,-1.00,-1.0,2444
5980,2140980,17036,500,-292,17045.84,29.89,-1.00,-1.0,2369
5983,2140983,17092,440,-140,17098.24,29.85,-1.00,-1.0,2437
5986,2140986,17140,520,-148,17148.53,29.75,-1.00,-1.0,2365
5988,2140988,17132,608,-224,17144.25,29.85,-1.00,-1.0,2439
5991,2140991,16992,580,-148,17002.54,29.89,-1.00,-1.0,2367
5994,2140994,17092,372,-360,17099.84,29.75,-1.00,-1.0,2438
5997,2140997,17076,448,-452,17087.86,29.94,-1.00,-1.0,2369
6002,2141002,17088,236,-340,17093.01,29.89,-1.00,-1.0,2447
6004,2141004,17124,392,-176,17129.39,29.89,-1.00,-1.0,2353
6007,2141007,17092,352,-376,17099.76,29.80,-1.00,-1.0,2367
6010,2141010,17080,448,-132,17086.38,29.94,-1.00,-1.0,2445
6013,2141013,16952,560,-164,16962.04,29.89,-1.00,-1.0,2365
6015,2141015,16988,544,-356,17000.44,29.85,-1.00,-1.0,2450
6018,2141018,17104,616,-228,17116.61,29.80,-1.00,-1.0,2364
6021,2141021,17104,428,-404,17114.12,29.75,-1.00,-1.0,2447
6024,2141024,17008,516,-380,17020.07,29.89,-1.00,-1.0,2365
6028,2141028,17156,488,-252,17164.79,29.80,-1.00,-1.0,2441
6031,2141031,17044,548,-308,17055.59,29.89,-1.00,-1.0,2366
6034,2141034,17124,380,-284,17130.57,29.89,-1.00,-1.0,2436
6037,2141037,17080,432,-188,17086.50,29.80,-1.00,-1.0,2365
6039,2141039,17040,468,-316,17049.35,29.80,-1.00,-1.0,2423
6042,2141042,17028,444,-196,17034.92,29.89,-1.00,-1.0,2363
6045,2141045,17160,420,-212,17166.45,29.89,-1.00,-1.0,2367
6048,2141048,16988,452,-116,16994.41,29.85,-1.00,-1.0,2437
6050,2141050,16996,484,-204,17004.11,29.89,-1.00,-1.0,2364
6055,2141055,17088,432,-140,17094.03,29.85,-1.00,-1.0,2441
6058,2141058,17100,504,-296,17109.99,29.80,-1.00,-1.0,2366
6061,2141061,17164,380,-304,17170.90,29.85,-1.00,-1.0,2442
6063,2141063,17032,364,-196,17037.02,29.89,-1.00,-1.0,2365
6066,2141066,17096,352,-196,17100.75,29.85,-1.00,-1.0,2442
6069,2141069,17044,380,-384,17052.56,29.80,-1.00,-1.0,2364
6072,2141072,17044,452,-336,17053.30,29.94,-1.00,-1.0,2446
6075,2141075,17132,472,-344,17141.95,29.85,-1.00,-1.0,2365
6079,2141079,17060,500,-164,17068.11,29.85,-1.00,-1.0,2448
6082,2141082,17152,564,-228,17162.79,29.85,-1.00,-1.0,2382
6085,2141085,17020,512,-272,17029.87,29.89,-1.00,-1.0,2360
6087,2141087,17164,428,-192,17170.41,29.89,-1.00,-1.0,2437
6090,2141090,17192,364,-256,17197.76,29.89,-1.00,-1.0,2365
6093,2141093,17112,372,-264,17118.08,29.89,-1.00,-1.0,2422
6096,2141096,17040,320,-312,17045.86,29.89,-1.00,-1.0,2366
6099,2141099,17072,436,-352,17081.19,29.89,-1.00,-1.0,2444
6102,2141102,16956,364,-192,16960.99,29.85,-1.00,-1.0,2365
