timestamp_ms,global_ms,accel_x,accel_y,accel_z,accel_mag,temp_c,voltage,soc,loop_us
2,2135002,15308,1956,-3120,15744.69,28.91,-1.00,-1.0,2491
9,2135009,19264,1916,-2644,19538.77,28.86,-1.00,-1.0,2463
11,2135011,17348,-1116,3164,17669.45,28.86,-1.00,-1.0,2367
14,2135014,14152,480,-3480,14581.49,28.86,-1.00,-1.0,2443
17,2135017,17748,3208,-4128,18501.98,28.77,-1.00,-1.0,2358
20,2135020,15832,728,1016,15881.26,28.81,-1.00,-1.0,2361
22,2135022,16716,1156,344,16759.46,28.81,-1.00,-1.0,2448
25,2135025,18528,-620,808,18555.97,28.81,-1.00,-1.0,2366
28,2135028,16324,-1236,172,16371.63,28.91,-1.00,-1.0,2444
30,2135030,16224,292,-1072,16262.00,28.81,-1.00,-1.0,2360
35,2135035,15480,1352,-556,15548.87,28.91,-1.00,-1.0,2445
38,2135038,17364,1580,-1544,17503.97,28.81,-1.00,-1.0,2363
41,2135041,17160,-1100,3672,17582.92,28.91,-1.00,-1.0,2446
44,2135044,15720,2036,-3304,16191.98,28.91,-1.00,-1.0,2360
46,2135046,17088,1424,-616,17158.29,28.81,-1.00,-1.0,2456
49,2135049,17732,92,-888,17754.46,28.91,-1.00,-1.0,2360
52,2135052,16828,-260,-1056,16863.11,28.81,-1.00,-1.0,2368
54,2135054,18240,-2212,2248,18510.65,28.86,-1.00,-1.0,2441
57,2135057,17948,612,-2272,18101.58,29.00,-1.00,-1.0,2373
62,2135062,17820,292,-88,17822.61,28.86,-1.00,-1.0,2445
65,2135065,15944,1588,-2184,16171.05,28.77,-1.00,-1.0,2349
68,2135068,16900,860,668,16935.05,28.86,-1.00,-1.0,2445
70,2135070,17628,1008,-312,17659.55,28.86,-1.00,-1.0,2363
73,2135073,17452,-192,1192,17493.71,28.77,-1.00,-1.0,2426
76,2135076,17332,96,472,17338.69,28.77,-1.00,-1.0,2361
78,2135078,16544,1144,-2764,16812.27,28.86,-1.00,-1.0,2361
81,2135081,17088,-1168,540,17136.38,28.86,-1.00,-1.0,2435
84,2135084,17332,-180,508,17340.38,28.86,-1.00,-1.0,2366
89,2135089,17496,-956,1016,17551.53,28.77,-1.00,-1.0,2446
92,2135092,17096,336,-968,17126.68,28.81,-1.00,-1.0,2372
94,2135094,17100,340,112,17103.75,28.77,-1.00,-1.0,2446
97,2135097,16788,820,-464,16814.42,28.91,-1.00,-1.0,2369
100,2135100,16844,1448,-1864,17008.57,28.86,-1.00,-1.0,2426
103,2135103,17420,-416,1504,17489.75,28.81,-1.00,-1.0,2359
105,2135105,16460,1588,-1596,16613.26,28.86,-1.00,-1.0,2451
108,2135108,17088,552,328,17100.06,28.91,-1.00,-1.0,2361
111,2135111,17388,-664,1368,17454.37,28.77,-1.00,-1.0,2365
116,2135116,17108,564,-492,17124.36,28.81,-1.00,-1.0,2443
118,2135118,16840,1316,-784,16909.53,28.81,-1.00,-1.0,2364
121,2135121,16936,1076,424,16975.44,28.91,-1.00,-1.0,2438
124,2135124,17452,716,1372,17520.48,28.91,-1.00,-1.0,2372
127,2135127,16688,1424,-1168,16789.32,28.91,-1.00,-1.0,2433
129,2135129,16652,516,-772,16677.87,28.86,-1.00,-1.0,2365
132,2135132,17120,612,-752,17147.43,28.91,-1.00,-1.0,2432
135,2135135,17236,800,-604,17265.12,28.81,-1.00,-1.0,2365
140,2135140,17192,664,-528,17212.92,28.91,-1.00,-1.0,2468
142,2135142,17080,208,140,17081.84,28.81,-1.00,-1.0,2353
145,2135145,16916,-96,200,16917.46,28.86,-1.00,-1.0,2369
148,2135148,17144,372,-168,17148.86,28.86,-1.00,-1.0,2428
151,2135151,17028,864,-160,17050.66,28.95,-1.00,-1.0,2359
153,2135153,16856,920,196,16882.23,28.77,-1.00,-1.0,2452
156,2135156,16960,616,-188,16972.22,28.77,-1.00,-1.0,2360
159,2135159,16924,392,-140,16929.12,28.86,-1.00,-1.0,2445
161,2135161,17044,468,-236,17052.06,28.81,-1.00,-1.0,2361
166,2135166,17088,-56,-292,17090.59,28.91,-1.00,-1.0,2443
169,2135169,16936,464,-1204,16985.08,28.86,-1.00,-1.0,2363
172,2135172,16956,188,-332,16960.29,28.81,-1.00,-1.0,2438
175,2135175,17140,264,-404,17146.79,28.81,-1.00,-1.0,2365
177,2135177,17080,660,0,17092.75,28.91,-1.00,-1.0,2356
180,2135180,17156,716,-500,17178.21,28.86,-1.00,-1.0,2439
183,2135183,17200,320,-684,17216.57,28.81,-1.00,-1.0,2367
185,2135185,17132,8,-472,17138.50,28.81,-1.00,-1.0,2419
188,2135188,17036,300,-364,17042.53,28.81,-1.00,-1.0,2365
193,2135193,17032,264,-556,17043.12,28.86,-1.00,-1.0,2451
196,2135196,16836,848,-828,16877.67,28.91,-1.00,-1.0,2363
199,2135199,16912,860,-352,16937.51,28.91,-1.00,-1.0,2445
201,2135201,17208,756,476,17231.17,28.91,-1.00,-1.0,2368
204,2135204,17316,640,-8,17327.82,28.91,-1.00,-1.0,2351
207,2135207,17188,368,400,17196.59,28.91,-1.00,-1.0,2435
209,2135209,17156,644,-628,17179.56,28.81,-1.00,-1.0,2363
212,2135212,16980,400,-396,16989.33,28.77,-1.00,-1.0,2440
215,2135215,17096,516,-616,17114.88,28.77,-1.00,-1.0,2361
220,2135220,17088,456,-8,17094.09,28.95,-1.00,-1.0,2454
223,2135223,17156,120,-20,17156.43,28.91,-1.00,-1.0,2372
226,2135226,17040,340,-236,17045.03,28.91,-1.00,-1.0,2432
228,2135228,16768,660,-844,16802.20,28.91,-1.00,-1.0,2371
231,2135231,16944,480,-464,16957.15,28.81,-1.00,-1.0,2354
234,2135234,17000,548,-280,17011.13,28.77,-1.00,-1.0,2443
236,2135236,17048,588,-40,17058.18,28.81,-1.00,-1.0,2346
239,2135239,17168,460,16,17174.17,28.91,-1.00,-1.0,2449
242,2135242,17160,472,-340,17169.86,28.86,-1.00,-1.0,2363
247,2135247,17044,520,-512,17059.62,28.86,-1.00,-1.0,2442
250,2135250,17004,520,-304,17014.67,28.77,-1.00,-1.0,2375
253,2135253,16988,508,-164,16996.38,28.77,-1.00,-1.0,2430
255,2135255,17088,556,-204,17098.26,28.86,-1.00,-1.0,2365
258,2135258,17160,396,36,17164.61,28.95,-1.00,-1.0,2435
261,2135261,17088,464,-204,17095.52,28.86,-1.00,-1.0,2365
263,2135263,17004,744,-420,17025.45,28.86,-1.00,-1.0,2358
266,2135266,16912,812,-540,16940.09,28.91,-1.00,-1.0,2448
269,2135269,16900,580,-624,16921.46,28.77,-1.00,-1.0,2363
274,2135274,17232,144,24,17232.62,28.86,-1.00,-1.0,2442
277,2135277,17164,408,-248,17170.64,28.95,-1.00,-1.0,2361
280,2135280,17192,372,-100,17196.31,28.86,-1.00,-1.0,2444
282,2135282,17080,476,-456,17092.71,28.86,-1.00,-1.0,2359
285,2135285,16936,344,-556,16948.62,28.86,-1.00,-1.0,2436
288,2135288,17068,428,-636,17085.21,28.91,-1.00,-1.0,2366
291,2135291,17100,660,-528,17120.88,28.86,-1.00,-1.0,2430
293,2135293,17044,492,-124,17051.55,28.86,-1.00,-1.0,2422
296,2135296,17152,484,-52,17158.91,28.81,-1.00,-1.0,2367
301,2135301,17036,432,-368,17045.45,28.81,-1.00,-1.0,2434
304,2135304,16940,344,-220,16944.92,28.77,-1.00,-1.0,2374
307,2135307,16956,588,-152,16966.87,28.81,-1.00,-1.0,2434
309,2135309,17208,688,148,17222.38,28.86,-1.00,-1.0,2372
312,2135312,16976,820,-56,16995.88,28.81,-1.00,-1.0,2434
315,2135315,16868,848,-472,16895.90,28.95,-1.00,-1.0,2371
318,2135318,16948,720,-420,16968.49,28.91,-1.00,-1.0,2435
320,2135320,17048,648,-500,17067.64,28.95,-1.00,-1.0,2372
323,2135323,17176,540,-332,17187.69,28.81,-1.00,-1.0,2368
328,2135328,17160,336,-128,17163.77,28.91,-1.00,-1.0,2433
331,2135331,17032,280,-444,17040.09,28.77,-1.00,-1.0,2373
334,2135334,16964,104,-400,16969.03,28.91,-1.00,-1.0,2434
336,2135336,16992,284,-132,16994.89,28.91,-1.00,-1.0,2372
339,2135339,17108,404,-72,17112.92,28.91,-1.00,-1.0,2432
342,2135342,17160,444,-32,17165.77,28.86,-1.00,-1.0,2375
345,2135345,17128,564,-148,17137.92,28.91,-1.00,-1.0,2437
347,2135347,17060,488,-176,17067.88,28.86,-1.00,-1.0,2373
352,2135352,17080,228,-272,17083.69,28.86,-1.00,-1.0,2431
355,2135355,17084,184,-332,17088.22,28.86,-1.00,-1.0,2374
358,2135358,17104,244,-456,17111.82,28.91,-1.00,-1.0,2367
361,2135361,17100,168,-128,17101.30,28.81,-1.00,-1.0,2429
363,2135363,17276,296,-96,17278.80,28.77,-1.00,-1.0,2359
366,2135366,17096,268,-108,17098.44,28.86,-1.00,-1.0,2426
369,2135369,17096,268,-404,17102.87,28.77,-1.00,-1.0,2372
371,2135371,17068,380,-228,17073.75,28.91,-1.00,-1.0,2429
374,2135374,16904,356,-240,16909.45,28.86,-1.00,-1.0,2361
379,2135379,17080,556,-332,17092.27,28.77,-1.00,-1.0,2440
382,2135382,16988,540,-424,17001.87,28.81,-1.00,-1.0,2389
385,2135385,16880,384,-488,16891.42,28.86,-1.00,-1.0,2430
388,2135388,17056,408,-812,17080.19,28.81,-1.00,-1.0,2382
390,2135390,16896,352,-624,16911.18,28.86,-1.00,-1.0,2360
393,2135393,17132,388,-632,17148.04,28.95,-1.00,-1.0,2426
396,2135396,17020,416,-512,17032.78,28.86,-1.00,-1.0,2373
398,2135398,17096,508,-288,17105.97,28.81,-1.00,-1.0,2428
401,2135401,17160,596,48,17170.41,28.86,-1.00,-1.0,2373
406,2135406,17084,692,-128,17098.49,28.86,-1.00,-1.0,2439
409,2135409,17056,936,-256,17083.58,28.86,-1.00,-1.0,2382
412,2135412,16980,868,-252,17004.04,28.86,-1.00,-1.0,2427
415,2135415,16864,972,-252,16893.87,28.77,-1.00,-1.0,2379
417,2135417,16968,972,-448,17001.72,28.91,-1.00,-1.0,2360
420,2135420,17000,616,-68,17011.29,28.86,-1.00,-1.0,2426
423,2135423,17064,528,-284,17074.53,28.77,-1.00,-1.0,2372
425,2135425,17000,468,-96,17006.71,28.81,-1.00,-1.0,2426
428,2135428,17148,468,-240,17156.06,28.81,-1.00,-1.0,2371
433,2135433,17108,348,0,17111.54,28.91,-1.00,-1.0,2434
436,2135436,17112,504,-472,17125.93,28.91,-1.00,-1.0,2374
439,2135439,17060,228,-168,17062.35,28.81,-1.00,-1.0,2429
441,2135441,17064,320,-196,17068.12,28.81,-1.00,-1.0,2372
444,2135444,17112,672,-112,17125.56,28.86,-1.00,-1.0,2468
447,2135447,16964,580,-316,16976.85,28.86,-1.00,-1.0,2375
450,2135450,17008,552,-200,17018.13,28.81,-1.00,-1.0,2363
453,2135453,17084,428,-112,17089.73,28.86,-1.00,-1.0,2437
455,2135455,17252,288,-120,17254.82,28.81,-1.00,-1.0,2365
460,2135460,17120,392,-228,17126.01,28.91,-1.00,-1.0,2443
463,2135463,17112,376,-292,17118.62,28.81,-1.00,-1.0,2367
466,2135466,16880,348,-584,16893.68,28.86,-1.00,-1.0,2439
468,2135468,16928,316,-420,16936.16,28.81,-1.00,-1.0,2364
471,2135471,17028,392,-428,17037.89,28.77,-1.00,-1.0,2439
474,2135474,17040,524,-408,17052.94,28.81,-1.00,-1.0,2364
477,2135477,17124,528,-120,17132.56,28.86,-1.00,-1.0,2359
480,2135480,17076,532,-224,17085.75,28.95,-1.00,-1.0,2437
482,2135482,17028,480,-372,17038.83,28.86,-1.00,-1.0,2364
488,2135488,17100,292,-516,17110.28,28.81,-1.00,-1.0,2441
490,2135490,17156,248,-416,17162.83,28.81,-1.00,-1.0,2369
493,2135493,17020,336,-312,17026.18,28.81,-1.00,-1.0,2437
496,2135496,16992,472,-344,17002.04,28.86,-1.00,-1.0,2367
499,2135499,16996,588,-224,17007.64,29.00,-1.00,-1.0,2429
501,2135501,17016,768,-84,17033.53,28.91,-1.00,-1.0,2372
504,2135504,17044,684,-236,17059.35,28.81,-1.00,-1.0,2436
507,2135507,17144,548,-28,17152.78,28.86,-1.00,-1.0,2369
510,2135510,16980,552,-236,16990.61,28.95,-1.00,-1.0,2361
514,2135514,17140,368,-276,17146.17,28.81,-1.00,-1.0,2442
517,2135517,17020,588,-220,17031.57,28.81,-1.00,-1.0,2368
520,2135520,17088,580,-232,17099.41,28.86,-1.00,-1.0,2436
523,2135523,16992,556,-376,17005.25,28.81,-1.00,-1.0,2365
525,2135525,17012,536,-368,17024.42,28.77,-1.00,-1.0,2437
528,2135528,17052,528,-96,17060.44,28.91,-1.00,-1.0,2365
531,2135531,17108,592,-268,17120.34,28.81,-1.00,-1.0,2422
534,2135534,16992,540,-220,17002.00,28.91,-1.00,-1.0,2365
539,2135539,17068,592,-204,17079.48,28.86,-1.00,-1.0,2443
541,2135541,17148,484,-156,17155.54,28.86,-1.00,-1.0,2371
544,2135544,17028,356,-296,17034.29,28.86,-1.00,-1.0,2361
547,2135547,17104,372,-228,17109.56,28.81,-1.00,-1.0,2445
549,2135549,17180,244,-212,17183.04,28.91,-1.00,-1.0,2374
552,2135552,17220,260,-264,17223.99,28.91,-1.00,-1.0,2444
555,2135555,17140,324,-392,17147.54,28.86,-1.00,-1.0,2352
558,2135558,17052,444,-552,17066.71,28.91,-1.00,-1.0,2445
561,2135561,17004,560,-516,17021.04,28.81,-1.00,-1.0,2378
566,2135566,17028,476,-332,17037.89,28.86,-1.00,-1.0,2441
568,2135568,17032,428,-148,17038.02,28.86,-1.00,-1.0,2369
571,2135571,16992,428,-244,16999.14,28.91,-1.00,-1.0,2436
574,2135574,17080,416,-308,17087.84,28.86,-1.00,-1.0,2371
576,2135576,17056,296,-304,17061.28,28.91,-1.00,-1.0,2362
579,2135579,17124,244,-312,17128.58,28.81,-1.00,-1.0,2450
582,2135582,17152,252,-504,17161.25,28.86,-1.00,-1.0,2373
585,2135585,17060,396,-324,17067.67,28.86,-1.00,-1.0,2440
588,2135588,17040,296,-436,17048.15,28.81,-1.00,-1.0,2367
593,2135593,17072,524,-364,17083.92,28.91,-1.00,-1.0,2443
595,2135595,16988,584,-368,17002.02,28.86,-1.00,-1.0,2369
598,2135598,17000,596,-236,17012.08,28.81,-1.00,-1.0,2451
601,2135601,16988,596,-176,16999.36,28.86,-1.00,-1.0,2360
604,2135604,17116,496,-316,17126.10,28.91,-1.00,-1.0,2438
606,2135606,17008,400,-324,17015.79,28.95,-1.00,-1.0,2368
609,2135609,17104,332,-340,17110.60,28.81,-1.00,-1.0,2364
612,2135612,17020,420,-340,17028.58,28.86,-1.00,-1.0,2436
615,2135615,17176,548,-196,17185.86,28.81,-1.00,-1.0,2366
620,2135620,17080,588,-396,17094.71,28.81,-1.00,-1.0,2443
622,2135622,17000,636,-356,17015.62,28.81,-1.00,-1.0,2372
625,2135625,16996,684,-412,17014.75,28.81,-1.00,-1.0,2445
628,2135628,17004,636,-336,17019.21,28.91,-1.00,-1.0,2373
631,2135631,17072,496,-320,17082.20,28.91,-1.00,-1.0,2444
633,2135633,17004,508,-220,17013.01,28.91,-1.00,-1.0,2371
636,2135636,17064,416,-160,17069.82,28.95,-1.00,-1.0,2363
639,2135639,17072,468,-104,17078.73,28.86,-1.00,-1.0,2431
642,2135642,17064,628,-188,17076.59,28.86,-1.00,-1.0,2365
646,2135646,17000,484,-220,17008.31,28.95,-1.00,-1.0,2441
649,2135649,17004,440,-76,17009.86,28.86,-1.00,-1.0,2366
652,2135652,17168,516,-200,17176.92,28.86,-1.00,-1.0,2437
655,2135655,17016,512,-228,17025.23,28.86,-1.00,-1.0,2365
657,2135657,17032,436,-212,17038.90,28.86,-1.00,-1.0,2436
660,2135660,16980,512,-292,16990.23,28.86,-1.00,-1.0,2364
663,2135663,17068,404,-264,17074.82,28.95,-1.00,-1.0,2436
666,2135666,17060,364,-192,17064.96,28.86,-1.00,-1.0,2367
669,2135669,17056,292,-328,17061.65,28.86,-1.00,-1.0,2363
673,2135673,17096,480,-388,17107.14,28.86,-1.00,-1.0,2441
676,2135676,17080,320,-296,17085.56,28.86,-1.00,-1.0,2368
679,2135679,17048,412,-168,17053.80,28.81,-1.00,-1.0,2436
682,2135682,17084,420,-260,17091.14,28.86,-1.00,-1.0,2364
684,2135684,17152,448,-264,17159.88,28.91,-1.00,-1.0,2437
687,2135687,17096,468,-196,17103.53,28.86,-1.00,-1.0,2365
690,2135690,17076,572,-316,17088.50,28.77,-1.00,-1.0,2435
693,2135693,17028,460,-344,17037.69,28.86,-1.00,-1.0,2363
698,2135698,17028,440,-436,17039.26,28.86,-1.00,-1.0,2443
700,2135700,17096,468,-428,17107.76,28.86,-1.00,-1.0,2370
703,2135703,17080,528,-280,17090.45,28.91,-1.00,-1.0,2361
706,2135706,17068,444,-372,17077.83,28.81,-1.00,-1.0,2442
708,2135708,17024,396,-224,17030.08,28.81,-1.00,-1.0,2364
711,2135711,17044,380,-428,17053.61,28.91,-1.00,-1.0,2436
714,2135714,17128,600,-344,17141.96,28.86,-1.00,-1.0,2352
717,2135717,16936,464,-368,16946.35,28.81,-1.00,-1.0,2440
720,2135720,17040,468,-296,17049.00,28.81,-1.00,-1.0,2370
725,2135725,17092,560,-264,17103.21,28.86,-1.00,-1.0,2442
727,2135727,17036,516,-176,17044.72,28.86,-1.00,-1.0,2370
730,2135730,17120,432,-308,17128.22,28.91,-1.00,-1.0,2425
733,2135733,17116,496,-224,17124.65,28.77,-1.00,-1.0,2363
735,2135735,17072,480,-164,17079.53,28.81,-1.00,-1.0,2360
738,2135738,17064,440,-256,17071.59,28.81,-1.00,-1.0,2436
741,2135741,17088,488,-216,17096.33,28.81,-1.00,-1.0,2365
744,2135744,17020,476,-304,17029.37,28.86,-1.00,-1.0,2443
747,2135747,17124,460,-196,17131.30,28.81,-1.00,-1.0,2366
752,2135752,17108,408,-376,17116.99,28.91,-1.00,-1.0,2449
754,2135754,17072,516,-304,17082.50,28.81,-1.00,-1.0,2367
757,2135757,17040,372,-148,17044.70,28.81,-1.00,-1.0,2437
760,2135760,17100,548,-308,17111.55,28.81,-1.00,-1.0,2364
763,2135763,16996,436,-240,17003.29,28.81,-1.00,-1.0,2443
765,2135765,17000,476,-352,17010.30,28.91,-1.00,-1.0,2365
768,2135768,17052,508,-148,17060.21,28.91,-1.00,-1.0,2361
771,2135771,17084,420,-280,17091.46,28.86,-1.00,-1.0,2438
774,2135774,17152,292,-236,17156.11,28.86,-1.00,-1.0,2374
779,2135779,17132,360,-392,17140.27,28.77,-1.00,-1.0,2448
781,2135781,17052,436,-368,17061.54,28.91,-1.00,-1.0,2368
784,2135784,17048,424,-268,17055.38,28.86,-1.00,-1.0,2438
787,2135787,17112,456,-324,17121.14,28.91,-1.00,-1.0,2364
790,2135790,17052,472,-212,17059.85,28.86,-1.00,-1.0,2439
792,2135792,17068,508,-328,17078.71,28.91,-1.00,-1.0,2364
795,2135795,17032,544,-376,17044.83,28.77,-1.00,-1.0,2360
798,2135798,16996,432,-316,17004.43,28.91,-1.00,-1.0,2439
801,2135801,17084,372,-404,17092.82,28.86,-1.00,-1.0,2372
806,2135806,17104,344,-356,17111.16,28.86,-1.00,-1.0,2451
808,2135808,17120,372,-340,17127.42,28.77,-1.00,-1.0,2369
811,2135811,16996,552,-280,17007.27,28.86,-1.00,-1.0,2452
814,2135814,16980,588,-364,16994.08,28.77,-1.00,-1.0,2364
817,2135817,17088,620,-372,17103.29,28.86,-1.00,-1.0,2444
819,2135819,17024,596,-236,17036.06,28.86,-1.00,-1.0,2364
822,2135822,17140,668,-296,17155.57,28.86,-1.00,-1.0,2441
825,2135825,17136,628,-256,17149.41,28.86,-1.00,-1.0,2364
828,2135828,17188,576,-84,17197.85,28.86,-1.00,-1.0,2348
833,2135833,17004,556,-232,17014.67,28.86,-1.00,-1.0,2451
835,2135835,17040,516,-360,17051.61,28.86,-1.00,-1.0,2367
838,2135838,17072,492,-228,17080.61,28.86,-1.00,-1.0,2445
841,2135841,17176,428,-172,17182.19,28.86,-1.00,-1.0,2364
844,2135844,17104,552,-232,17114.48,28.77,-1.00,-1.0,2444
846,2135846,16992,472,-280,17000.86,28.86,-1.00,-1.0,2352
849,2135849,17128,488,-272,17137.11,28.86,-1.00,-1.0,2437
852,2135852,17004,440,-244,17011.44,28.95,-1.00,-1.0,2364
857,2135857,17080,492,-236,17088.71,28.86,-1.00,-1.0,2450
859,2135859,17060,452,-444,17071.76,28.86,-1.00,-1.0,2366
862,2135862,17096,436,-176,17102.46,28.77,-1.00,-1.0,2367
865,2135865,17096,496,-216,17104.56,28.81,-1.00,-1.0,2438
868,2135868,17064,316,-332,17070.15,28.86,-1.00,-1.0,2364
870,2135870,16960,332,-316,16966.19,28.91,-1.00,-1.0,2448
873,2135873,17024,284,-376,17030.52,28.95,-1.00,-1.0,2365
876,2135876,16996,476,-372,17006.73,28.95,-1.00,-1.0,2435
879,2135879,16972,480,-316,16981.73,28.91,-1.00,-1.0,2365
884,2135884,16980,452,-456,16992.13,28.95,-1.00,-1.0,2435
886,2135886,17064,440,-196,17070.80,28.91,-1.00,-1.0,2375
889,2135889,17128,384,-396,17136.88,28.86,-1.00,-1.0,2436
892,2135892,17132,320,-352,17138.60,28.91,-1.00,-1.0,2366
894,2135894,17016,404,-356,17024.52,28.86,-1.00,-1.0,2359
897,2135897,17024,448,-324,17032.97,28.86,-1.00,-1.0,2437
900,2135900,17072,464,-232,17079.88,28.86,-1.00,-1.0,2352
903,2135903,32767,-13392,-6160,35930.04,28.86,-1.00,-1.0,2435
906,2135906,-16852,5256,-11852,21262.30,28.77,-1.00,-1.0,2364
911,2135911,32767,-2060,-2492,32926.13,28.81,-1.00,-1.0,2455
914,2135914,11752,-13520,28816,33930.25,28.81,-1.00,-1.0,2375
917,2135917,1692,6428,-32768,33435.37,28.91,-1.00,-1.0,2447
919,2135919,32767,-16224,32767,nan,28.81,-1.00,-1.0,2369
922,2135922,212,-8032,12664,14997.83,28.91,-1.00,-1.0,2445
925,2135925,3924,-3980,-19924,20693.09,28.91,-1.00,-1.0,2371
928,2135928,32767,-5400,12904,35627.93,28.91,-1.00,-1.0,2442
930,2135930,16396,12108,-31448,37475.45,28.91,-1.00,-1.0,2367
935,2135935,31116,15364,-22628,41428.06,28.91,-1.00,-1.0,2441
938,2135938,2332,15584,-31052,34821.34,28.86,-1.00,-1.0,2365
941,2135941,26484,-9344,30460,41430.96,28.81,-1.00,-1.0,2438
943,2135943,13928,10296,-32768,37063.98,28.86,-1.00,-1.0,2364
946,2135946,18028,-7240,12864,23300.40,28.81,-1.00,-1.0,2367
949,2135949,17156,-132,-6776,18446.14,28.91,-1.00,-1.0,2442
952,2135952,18312,-1284,968,18382.46,28.91,-1.00,-1.0,2362
954,2135954,20428,-4172,13676,24934.75,28.91,-1.00,-1.0,2450
957,2135957,13196,9416,-27248,31705.66,28.81,-1.00,-1.0,2364
962,2135962,12240,-2656,8032,14879.01,28.81,-1.00,-1.0,2441
965,2135965,16332,6104,-10140,20169.60,28.86,-1.00,-1.0,2365
967,2135967,22248,-3288,8304,23973.75,28.86,-1.00,-1.0,2436
970,2135970,11864,7452,-10916,17760.79,28.86,-1.00,-1.0,2364
973,2135973,17836,428,4024,18289.30,28.81,-1.00,-1.0,2435
976,2135976,18132,1120,-2828,18385.36,28.86,-1.00,-1.0,2362
978,2135978,16492,380,-2320,16658.72,28.86,-1.00,-1.0,2436
981,2135981,20228,-4624,7396,22028.49,28.77,-1.00,-1.0,2363
986,2135986,14436,3128,-3668,15219.62,28.95,-1.00,-1.0,2433
989,2135989,18572,-3776,4028,19375.30,28.86,-1.00,-1.0,2368
992,2135992,19520,1340,-1928,19660.70,28.86,-1.00,-1.0,2444
994,2135994,16472,-404,1600,16554.46,28.86,-1.00,-1.0,2372
997,2135997,19008,-1116,852,19059.79,28.95,-1.00,-1.0,2360
1000,2136000,18624,3580,-3996,19381.38,28.81,-1.00,-1.0,2431
1002,2136002,15136,460,1908,15262.72,28.86,-1.00,-1.0,2366
1005,2136005,15868,1032,180,15902.54,28.81,-1.00,-1.0,2436
1008,2136008,17704,848,-4432,18270.01,28.81,-1.00,-1.0,2364
1013,2136013,18976,1372,-544,19033.31,28.81,-1.00,-1.0,2441
1016,2136016,17904,1712,784,18002.74,28.91,-1.00,-1.0,2369
1018,2136018,14400,936,1008,14465.55,28.81,-1.00,-1.0,2436
1021,2136021,16740,2684,-4200,17466.29,28.91,-1.00,-1.0,2364
1024,2136024,17368,-2052,5728,18402.94,28.81,-1.00,-1.0,2433
1027,2136027,15104,2888,-4088,15911.73,28.91,-1.00,-1.0,2363
1029,2136029,17792,616,336,17805.83,28.81,-1.00,-1.0,2437
1032,2136032,18404,-836,344,18426.19,28.81,-1.00,-1.0,2364
1035,2136035,16388,788,-3504,16776.93,28.86,-1.00,-1.0,2366
1040,2136040,17340,-288,-916,17366.57,28.81,-1.00,-1.0,2440
1043,2136043,16520,236,-448,16527.76,28.81,-1.00,-1.0,2366
1046,2136046,17668,-152,788,17686.22,28.91,-1.00,-1.0,2436
1048,2136048,16480,2644,-3016,16961.05,28.81,-1.00,-1.0,2350
1051,2136051,16556,560,1172,16606.88,28.91,-1.00,-1.0,2436
1054,2136054,17396,1104,-1468,17492.70,28.86,-1.00,-1.0,2429
1057,2136057,17448,-340,1088,17485.20,28.81,-1.00,-1.0,2431
1059,2136059,16788,748,16,16804.66,28.86,-1.00,-1.0,2360
1064,2136064,17452,-1560,1848,17618.77,28.81,-1.00,-1.0,2436
1067,2136067,17008,-72,520,17016.10,28.91,-1.00,-1.0,2371
1070,2136070,16620,1532,-1980,16807.49,28.91,-1.00,-1.0,2438
1072,2136072,17560,-1296,2088,17731.13,28.95,-1.00,-1.0,2351
1075,2136075,17036,1524,-2608,17301.72,28.91,-1.00,-1.0,2431
1078,2136078,17228,304,908,17254.59,28.86,-1.00,-1.0,2369
1080,2136080,16840,1296,-1192,16931.81,28.81,-1.00,-1.0,2359
1083,2136083,16876,352,-548,16888.56,28.81,-1.00,-1.0,2432
1086,2136086,17532,-1112,2124,17695.17,28.86,-1.00,-1.0,2369
1091,2136091,17076,1364,-1168,17170.16,28.81,-1.00,-1.0,2439
1094,2136094,17664,-688,1212,17718.89,28.95,-1.00,-1.0,2376
1096,2136096,16724,708,-1084,16774.04,28.81,-1.00,-1.0,2437
1099,2136099,17160,568,-504,17176.79,28.86,-1.00,-1.0,2381
1102,2136102,16924,1256,-1244,17016.08,28.81,-1.00,-1.0,2430
1105,2136105,16960,700,720,16989.70,28.86,-1.00,-1.0,2377
1107,2136107,17160,700,216,17175.63,28.91,-1.00,-1.0,2436
1110,2136110,17172,876,-1160,17233.41,28.81,-1.00,-1.0,2368
1115,2136115,17408,152,-388,17412.99,28.81,-1.00,-1.0,2448
1118,2136118,17116,484,-460,17129.02,28.77,-1.00,-1.0,2374
1121,2136121,16688,324,-272,16693.36,28.91,-1.00,-1.0,2446
1123,2136123,16952,496,-380,16963.51,28.77,-1.00,-1.0,2370
1126,2136126,16948,232,140,16950.17,28.91,-1.00,-1.0,2360
1129,2136129,16992,-140,172,16993.45,28.91,-1.00,-1.0,2428
1131,2136131,17152,228,364,17157.38,28.86,-1.00,-1.0,2372
1134,2136134,17328,1092,-344,17365.78,28.81,-1.00,-1.0,2419
1137,2136137,17024,344,596,17037.90,28.91,-1.00,-1.0,2366
1142,2136142,17124,284,-72,17126.51,28.81,-1.00,-1.0,2428
1145,2136145,17088,84,580,17098.05,28.86,-1.00,-1.0,2375
1148,2136148,17280,328,-184,17284.09,28.81,-1.00,-1.0,2446
1150,2136150,17084,52,-316,17087.00,28.86,-1.00,-1.0,2367
1153,2136153,16892,504,-1044,16931.73,28.81,-1.00,-1.0,2426
1156,2136156,17028,652,-764,17057.60,28.86,-1.00,-1.0,2373
1159,2136159,16964,304,-140,16967.30,28.81,-1.00,-1.0,2445
1161,2136161,16988,852,-868,17031.48,28.86,-1.00,-1.0,2369
1164,2136164,17100,308,-300,17105.40,28.91,-1.00,-1.0,2360
1169,2136169,17060,336,-604,17074.00,28.91,-1.00,-1.0,2441
1172,2136172,17200,20,12,17200.02,28.81,-1.00,-1.0,2362
1175,2136175,16988,260,-708,17004.73,28.81,-1.00,-1.0,2441
1177,2136177,16892,636,-796,16922.70,28.86,-1.00,-1.0,2374
1180,2136180,16932,1236,-900,17000.89,28.81,-1.00,-1.0,2436
1183,2136183,17136,896,-88,17159.63,28.91,-1.00,-1.0,2374
1186,2136186,17200,628,100,17211.75,28.81,-1.00,-1.0,2446
1188,2136188,17036,536,-200,17045.60,28.95,-1.00,-1.0,2366
1193,2136193,16984,648,-716,17011.43,28.86,-1.00,-1.0,2436
1196,2136196,17060,344,-312,17066.32,28.86,-1.00,-1.0,2368
1199,2136199,17064,308,-292,17069.28,28.81,-1.00,-1.0,2366
1201,2136201,17168,620,-544,17187.80,28.81,-1.00,-1.0,2440
1204,2136204,17184,-76,-28,17184.19,28.81,-1.00,-1.0,2373
1207,2136207,17096,100,24,17096.31,28.81,-1.00,-1.0,2432
1210,2136210,16956,424,-392,16965.83,28.91,-1.00,-1.0,2365
1212,2136212,16852,752,-692,16882.96,28.81,-1.00,-1.0,2442
1215,2136215,16952,520,-200,16961.15,28.77,-1.00,-1.0,2367
1220,2136220,17052,736,120,17068.30,28.77,-1.00,-1.0,2434
1223,2136223,17100,588,144,17110.71,28.86,-1.00,-1.0,2368
1226,2136226,17136,552,-80,17145.07,28.86,-1.00,-1.0,2440
1228,2136228,17156,564,-80,17165.46,28.77,-1.00,-1.0,2352
1231,2136231,17140,664,-228,17154.37,28.86,-1.00,-1.0,2359
1234,2136234,17152,408,-296,17159.40,28.91,-1.00,-1.0,2436
1236,2136236,17144,432,-308,17152.21,28.77,-1.00,-1.0,2366
1239,2136239,17144,384,-228,17149.82,28.91,-1.00,-1.0,2445
1242,2136242,17204,428,-40,17209.37,28.95,-1.00,-1.0,2369
1247,2136247,16888,764,-700,16919.76,28.86,-1.00,-1.0,2434
1250,2136250,16968,704,-572,16992.23,28.77,-1.00,-1.0,2355
1253,2136253,16864,776,-612,16892.93,28.95,-1.00,-1.0,2440
1255,2136255,17032,376,-432,17041.63,28.95,-1.00,-1.0,2369
1258,2136258,17100,244,-168,17102.57,28.86,-1.00,-1.0,2416
1261,2136261,17168,396,-208,17173.83,28.77,-1.00,-1.0,2368
1264,2136264,17112,484,-248,17120.64,28.86,-1.00,-1.0,2427
1266,2136266,16996,480,-472,17009.33,28.86,-1.00,-1.0,2374
1269,2136269,16988,388,-760,17009.42,28.81,-1.00,-1.0,2359
1274,2136274,17048,412,-372,17057.04,28.95,-1.00,-1.0,2449
1277,2136277,17100,528,-260,17110.12,28.81,-1.00,-1.0,2374
1280,2136280,17160,496,96,17167.44,28.91,-1.00,-1.0,2457
1282,2136282,17076,352,-96,17079.90,28.86,-1.00,-1.0,2366
1285,2136285,17048,524,-180,17057.00,28.81,-1.00,-1.0,2437
1288,2136288,17012,568,-224,17022.95,28.86,-1.00,-1.0,2363
1291,2136291,17104,548,-132,17113.29,28.91,-1.00,-1.0,2444
1293,2136293,17136,572,256,17147.46,28.86,-1.00,-1.0,2363
1298,2136298,16988,708,-448,17008.65,28.86,-1.00,-1.0,2434
1301,2136301,17116,484,-524,17130.86,28.86,-1.00,-1.0,2365
1304,2136304,17072,700,-712,17101.17,28.91,-1.00,-1.0,2446
1306,2136306,17128,344,-228,17132.97,28.86,-1.00,-1.0,2363
1309,2136309,17172,324,-108,17175.40,28.91,-1.00,-1.0,2359
1312,2136312,17224,260,-88,17226.19,28.81,-1.00,-1.0,2444
1314,2136314,16996,228,-340,17000.93,28.91,-1.00,-1.0,2362
1317,2136317,17192,328,-448,17200.96,28.86,-1.00,-1.0,2438
1320,2136320,17140,396,60,17144.68,28.86,-1.00,-1.0,2371
1326,2136326,17224,576,80,17233.81,28.81,-1.00,-1.0,2434
1328,2136328,17036,600,-128,17047.04,28.86,-1.00,-1.0,2365
1331,2136331,17036,516,-468,17050.24,28.72,-1.00,-1.0,2439
1334,2136334,17084,304,-324,17089.78,28.91,-1.00,-1.0,2363
1336,2136336,17016,204,-420,17022.40,28.81,-1.00,-1.0,2433
1339,2136339,17072,288,-420,17079.59,28.95,-1.00,-1.0,2362
1342,2136342,17108,372,-600,17122.56,29.00,-1.00,-1.0,2366
1345,2136345,17156,252,-212,17159.16,28.86,-1.00,-1.0,2436
1347,2136347,17032,396,-296,17039.17,28.95,-1.00,-1.0,2369
1352,2136352,17096,272,-384,17102.47,28.86,-1.00,-1.0,2435
1355,2136355,17016,388,-404,17025.22,28.91,-1.00,-1.0,2364
1358,2136358,16968,640,-240,16981.76,28.86,-1.00,-1.0,2444
1360,2136360,16904,628,-240,16917.36,28.91,-1.00,-1.0,2362
1363,2136363,16988,660,-540,17009.39,28.86,-1.00,-1.0,2439
1366,2136366,17000,524,-416,17013.16,28.81,-1.00,-1.0,2363
1369,2136369,16972,480,-588,16988.96,28.95,-1.00,-1.0,2444
1371,2136371,17016,484,-672,17036.14,28.91,-1.00,-1.0,2363
1376,2136376,17120,504,-588,17137.51,29.00,-1.00,-1.0,2434
1379,2136379,17148,656,-508,17168.06,28.86,-1.00,-1.0,2367
1382,2136382,17136,596,-252,17148.21,28.91,-1.00,-1.0,2359
1384,2136384,17216,564,68,17225.37,28.77,-1.00,-1.0,2440
1387,2136387,17200,692,-228,17215.42,28.91,-1.00,-1.0,2364
1390,2136390,17116,604,28,17126.68,28.91,-1.00,-1.0,2433
1393,2136393,16992,828,-220,17013.58,28.91,-1.00,-1.0,2362
1395,2136395,16980,800,-204,17000.06,28.91,-1.00,-1.0,2436
1398,2136398,16884,720,-312,16902.22,28.91,-1.00,-1.0,2364
1403,2136403,16928,536,-152,16937.17,28.91,-1.00,-1.0,2442
1406,2136406,17000,604,-404,17015.52,28.86,-1.00,-1.0,2372
1409,2136409,17096,264,32,17098.07,28.91,-1.00,-1.0,2441
1412,2136412,17128,316,-340,17134.29,28.86,-1.00,-1.0,2367
1414,2136414,17128,292,-148,17131.13,28.81,-1.00,-1.0,2359
1417,2136417,17120,324,-228,17124.58,28.81,-1.00,-1.0,2433
1420,2136420,17180,344,-168,17184.27,28.91,-1.00,-1.0,2364
1422,2136422,17128,236,-48,17129.69,28.86,-1.00,-1.0,2436
1425,2136425,17036,568,-360,17049.27,28.91,-1.00,-1.0,2365
1430,2136430,17060,624,-280,17073.71,28.81,-1.00,-1.0,2436
1433,2136433,16968,592,-304,16981.04,28.95,-1.00,-1.0,2379
1436,2136436,17100,412,-168,17105.79,28.91,-1.00,-1.0,2443
1439,2136439,17208,388,-212,17213.68,28.91,-1.00,-1.0,2370
1441,2136441,17180,304,32,17182.72,28.81,-1.00,-1.0,2435
1444,2136444,17072,436,-124,17078.02,28.86,-1.00,-1.0,2378
1447,2136447,17160,352,-148,17164.25,28.91,-1.00,-1.0,2436
1450,2136450,17024,500,-256,17033.27,28.91,-1.00,-1.0,2372
1452,2136452,16988,468,-572,17004.07,28.95,-1.00,-1.0,2359
1457,2136457,17056,684,-416,17074.78,28.91,-1.00,-1.0,2423
1460,2136460,17060,564,-368,17073.29,28.86,-1.00,-1.0,2381
1463,2136463,17036,504,-324,17046.53,28.91,-1.00,-1.0,2441
1466,2136466,17060,424,-472,17071.79,28.91,-1.00,-1.0,2359
1468,2136468,17080,292,-456,17088.58,28.91,-1.00,-1.0,2436
1471,2136471,17164,288,-396,17170.98,28.77,-1.00,-1.0,2378
1474,2136474,17104,348,-296,17110.10,28.81,-1.00,-1.0,2437
1477,2136477,17020,320,-276,17025.25,29.00,-1.00,-1.0,2368
1481,2136481,16916,600,-232,16928.23,28.81,-1.00,-1.0,2443
1484,2136484,16992,632,-200,17004.93,28.81,-1.00,-1.0,2381
1487,2136487,17032,560,0,17041.20,28.91,-1.00,-1.0,2440
1490,2136490,17052,568,-96,17061.73,28.91,-1.00,-1.0,2369
1492,2136492,17064,460,-104,17070.52,28.95,-1.00,-1.0,2358
1495,2136495,17140,328,-160,17143.88,28.86,-1.00,-1.0,2420
1498,2136498,17060,444,-364,17069.66,28.91,-1.00,-1.0,2365
1501,2136501,17064,584,-336,17077.30,28.91,-1.00,-1.0,2445
1504,2136504,17088,572,-308,17100.35,28.95,-1.00,-1.0,2361
1508,2136508,16972,528,-320,16983.23,28.91,-1.00,-1.0,2436
1511,2136511,17092,476,-368,17102.59,28.86,-1.00,-1.0,2365
1514,2136514,17044,688,-264,17059.92,28.91,-1.00,-1.0,2446
1516,2136516,17144,544,-316,17155.54,28.86,-1.00,-1.0,2349
1519,2136519,17076,564,-380,17089.54,28.72,-1.00,-1.0,2434
1522,2136522,17112,468,-364,17122.27,28.86,-1.00,-1.0,2363
1525,2136525,17108,400,-124,17113.12,28.72,-1.00,-1.0,2360
1528,2136528,17128,264,-108,17130.38,28.86,-1.00,-1.0,2469
1531,2136531,17132,204,-192,17134.29,28.91,-1.00,-1.0,2418
1536,2136536,17208,320,-288,17213.38,28.91,-1.00,-1.0,2444
1538,2136538,17076,448,-296,17084.44,28.81,-1.00,-1.0,2370
1541,2136541,17064,588,-312,17076.98,28.86,-1.00,-1.0,2447
1544,2136544,17000,616,-352,17014.80,28.91,-1.00,-1.0,2367
1547,2136547,16924,480,-436,16936.42,28.86,-1.00,-1.0,2447
1549,2136549,16976,596,-212,16987.78,28.91,-1.00,-1.0,2374
1552,2136552,17012,556,-176,17021.99,28.86,-1.00,-1.0,2443
1555,2136555,17000,484,-340,17010.29,28.81,-1.00,-1.0,2371
1560,2136560,17072,232,-348,17077.12,28.81,-1.00,-1.0,2443
1562,2136562,17016,192,-388,17021.51,28.91,-1.00,-1.0,2365
1565,2136565,17108,296,-292,17113.05,28.81,-1.00,-1.0,2374
1568,2136568,17048,492,-428,17060.47,28.86,-1.00,-1.0,2440
1571,2136571,17032,480,-452,17044.76,28.91,-1.00,-1.0,2372
1573,2136573,17060,468,-400,17071.11,28.86,-1.00,-1.0,2442
1576,2136576,16984,640,-364,16999.95,28.86,-1.00,-1.0,2378
1579,2136579,17108,560,-328,17120.30,28.77,-1.00,-1.0,2434
1582,2136582,17004,564,-244,17015.10,28.86,-1.00,-1.0,2368
1587,2136587,17132,508,-180,17140.47,29.00,-1.00,-1.0,2437
1589,2136589,17100,400,-260,17106.65,28.91,-1.00,-1.0,2368
1592,2136592,17036,396,-324,17043.68,28.95,-1.00,-1.0,2453
1595,2136595,17028,448,-280,17036.19,28.91,-1.00,-1.0,2371
1598,2136598,17092,484,-252,17100.71,28.77,-1.00,-1.0,2450
1600,2136600,17100,476,-124,17107.07,28.81,-1.00,-1.0,2364
1603,2136603,17052,676,-256,17067.31,28.95,-1.00,-1.0,2359
1606,2136606,17112,548,-244,17122.51,28.95,-1.00,-1.0,2436
1609,2136609,17120,624,-376,17135.49,28.86,-1.00,-1.0,2364
1614,2136614,17128,508,-324,17138.59,28.86,-1.00,-1.0,2439
1616,2136616,16984,428,-308,16992.18,28.86,-1.00,-1.0,2369
1619,2136619,17064,408,-236,17070.51,28.86,-1.00,-1.0,2448
1622,2136622,16976,368,-300,16982.64,28.77,-1.00,-1.0,2371
1625,2136625,17156,440,-184,17162.63,28.86,-1.00,-1.0,2446
1627,2136627,17096,392,-128,17100.97,28.95,-1.00,-1.0,2365
1630,2136630,17008,524,-160,17016.82,28.86,-1.00,-1.0,2431
1633,2136633,17036,408,-52,17040.96,28.86,-1.00,-1.0,2369
1638,2136638,17044,404,-132,17049.30,28.81,-1.00,-1.0,2442
1640,2136640,17064,500,-188,17072.36,28.81,-1.00,-1.0,2366
1643,2136643,17064,460,-264,17072.24,28.86,-1.00,-1.0,2367
1646,2136646,17068,432,-408,17078.34,28.86,-1.00,-1.0,2447
1649,2136649,17060,496,-228,17068.73,28.86,-1.00,-1.0,2364
1651,2136651,17036,552,-256,17046.86,28.86,-1.00,-1.0,2445
1654,2136654,17108,416,-216,17114.42,28.86,-1.00,-1.0,2371
1657,2136657,17128,492,-404,17139.83,28.86,-1.00,-1.0,2438
1660,2136660,17112,508,-268,17121.64,28.91,-1.00,-1.0,2364
1665,2136665,17048,452,-272,17056.16,28.91,-1.00,-1.0,2437
1667,2136667,17028,356,-244,17033.47,28.86,-1.00,-1.0,2376
1670,2136670,17020,480,-284,17029.13,28.81,-1.00,-1.0,2438
1673,2136673,17120,552,-292,17131.38,28.86,-1.00,-1.0,2364
1676,2136676,17132,488,-296,17141.50,28.81,-1.00,-1.0,2440
1678,2136678,17068,488,-284,17077.34,28.77,-1.00,-1.0,2370
1681,2136681,16984,536,-360,16996.27,28.81,-1.00,-1.0,2359
1684,2136684,17020,444,-392,17030.30,28.86,-1.00,-1.0,2441
1687,2136687,16980,452,-296,16988.59,28.81,-1.00,-1.0,2364
1692,2136692,17092,480,-456,17104.82,28.77,-1.00,-1.0,2451
1694,2136694,17076,388,-364,17084.29,28.86,-1.00,-1.0,2369
1697,2136697,17096,464,-260,17104.27,28.91,-1.00,-1.0,2447
1700,2136700,17040,428,-456,17051.47,28.95,-1.00,-1.0,2371
1703,2136703,16948,540,-316,16959.54,28.91,-1.00,-1.0,2445
1705,2136705,17020,540,-300,17031.21,28.86,-1.00,-1.0,2368
1708,2136708,17168,528,-152,17176.79,28.91,-1.00,-1.0,2445
1711,2136711,17012,540,-72,17020.72,28.95,-1.00,-1.0,2372
1716,2136716,17032,344,-108,17035.82,28.91,-1.00,-1.0,2440
1718,2136718,17008,428,-268,17015.49,28.81,-1.00,-1.0,2373
1721,2136721,17040,444,-288,17048.22,28.91,-1.00,-1.0,2359
1724,2136724,17032,356,-372,17039.78,28.86,-1.00,-1.0,2444
1726,2136726,16980,488,-296,16989.59,28.91,-1.00,-1.0,2365
1729,2136729,17008,472,-396,17019.16,28.86,-1.00,-1.0,2436
1732,2136732,17164,504,-328,17174.53,28.91,-1.00,-1.0,2365
1735,2136735,17072,524,-164,17080.83,28.77,-1.00,-1.0,2441
1738,2136738,17064,504,-132,17071.95,28.95,-1.00,-1.0,2373
1743,2136743,17132,436,-220,17138.96,28.91,-1.00,-1.0,2440
1746,2136746,17112,544,-236,17122.27,28.81,-1.00,-1.0,2369
1748,2136748,17040,368,-264,17046.02,28.86,-1.00,-1.0,2437
1751,2136751,16980,444,-328,16988.97,28.91,-1.00,-1.0,2368
1754,2136754,17028,396,-236,17034.24,28.86,-1.00,-1.0,2360
1756,2136756,17120,416,-340,17128.43,28.86,-1.00,-1.0,2434
1759,2136759,17108,380,-316,17115.14,28.86,-1.00,-1.0,2365
1762,2136762,17028,424,-208,17034.55,28.86,-1.00,-1.0,2433
1765,2136765,17036,484,-316,17045.80,28.86,-1.00,-1.0,2373
1770,2136770,17060,452,-144,17066.59,28.86,-1.00,-1.0,2445
1772,2136772,17096,536,-228,17105.92,28.86,-1.00,-1.0,2368
1775,2136775,17168,504,-456,17181.45,28.95,-1.00,-1.0,2437
1778,2136778,16972,516,-384,16984.18,28.86,-1.00,-1.0,2364
1781,2136781,17144,488,-280,17153.23,28.86,-1.00,-1.0,2440
1783,2136783,17080,460,-240,17087.88,28.86,-1.00,-1.0,2365
1786,2136786,17176,348,-320,17182.51,28.77,-1.00,-1.0,2435
1789,2136789,17148,412,-176,17153.85,28.91,-1.00,-1.0,2368
1792,2136792,17104,508,-368,17115.50,28.95,-1.00,-1.0,2366
1797,2136797,17064,544,-404,17077.45,28.95,-1.00,-1.0,2446
1799,2136799,17076,648,-344,17091.75,28.86,-1.00,-1.0,2368
1802,2136802,17068,608,-460,17085.02,28.86,-1.00,-1.0,2438
1805,2136805,16936,568,-252,16947.40,28.86,-1.00,-1.0,2364
1808,2136808,17052,520,-228,17061.45,28.86,-1.00,-1.0,2442
1810,2136810,17092,528,-336,17103.46,28.95,-1.00,-1.0,2365
1813,2136813,17032,548,-256,17042.74,28.86,-1.00,-1.0,2434
1816,2136816,17016,516,-236,17025.46,28.86,-1.00,-1.0,2364
1821,2136821,17028,544,-272,17038.86,28.91,-1.00,-1.0,2442
1824,2136824,17036,480,-276,17045.00,28.91,-1.00,-1.0,2379
1826,2136826,17000,440,-448,17011.59,28.86,-1.00,-1.0,2425
1829,2136829,17128,564,-192,17138.36,28.91,-1.00,-1.0,2379
1832,2136832,17124,376,-252,17129.98,28.95,-1.00,-1.0,2358
1834,2136834,17080,332,-284,17085.59,28.95,-1.00,-1.0,2435
1837,2136837,17000,396,-216,17005.98,28.86,-1.00,-1.0,2365
1840,2136840,17116,408,-340,17124.24,28.86,-1.00,-1.0,2433
1843,2136843,17204,412,-404,17213.67,28.91,-1.00,-1.0,2363
1848,2136848,17028,388,-124,17032.87,28.81,-1.00,-1.0,2444
1851,2136851,17024,440,-456,17035.79,28.91,-1.00,-1.0,2368
1853,2136853,17104,444,-376,17113.89,28.91,-1.00,-1.0,2451
1856,2136856,17120,408,-280,17127.15,28.91,-1.00,-1.0,2364
1859,2136859,17076,428,-260,17083.34,28.91,-1.00,-1.0,2442
1861,2136861,17124,480,-244,17132.46,28.91,-1.00,-1.0,2365
1864,2136864,17216,568,-288,17227.78,28.91,-1.00,-1.0,2449
1867,2136867,16964,552,-388,16977.41,28.91,-1.00,-1.0,2364
1870,2136870,17088,516,-336,17099.09,28.77,-1.00,-1.0,2359
1875,2136875,16980,368,-444,16989.79,28.91,-1.00,-1.0,2444
1878,2136878,17148,392,-296,17155.03,28.91,-1.00,-1.0,2368
1880,2136880,17088,584,-220,17099.39,28.86,-1.00,-1.0,2448
1883,2136883,17060,520,-424,17073.19,28.91,-1.00,-1.0,2372
1886,2136886,16968,532,-320,16979.35,28.86,-1.00,-1.0,2442
1889,2136889,17128,564,-228,17138.80,28.81,-1.00,-1.0,2365
1891,2136891,17192,616,-420,17208.16,28.86,-1.00,-1.0,2447
1894,2136894,17048,620,-188,17060.31,28.81,-1.00,-1.0,2365
1899,2136899,17092,472,-112,17098.88,28.86,-1.00,-1.0,2448
1902,2136902,17000,520,-96,17008.22,28.91,-1.00,-1.0,2368
1904,2136904,17052,452,-228,17059.51,28.77,-1.00,-1.0,2447
1907,2136907,17096,508,-184,17104.54,28.81,-1.00,-1.0,2371
1910,2136910,16996,516,-228,17005.36,28.86,-1.00,-1.0,2361
1912,2136912,16980,452,-284,16988.39,28.91,-1.00,-1.0,2435
1915,2136915,17036,416,-288,17043.51,28.86,-1.00,-1.0,2367
1918,2136918,17024,424,-340,17032.67,28.91,-1.00,-1.0,2433
1921,2136921,17060,488,-288,17069.41,28.81,-1.00,-1.0,2363
1926,2136926,32767,-32768,-11764,nan,28.81,-1.00,-1.0,2437
1928,2136928,14188,30632,-32768,nan,29.00,-1.00,-1.0,2361
1931,2136931,-23292,10536,-1516,25609.04,28.91,-1.00,-1.0,2425
1934,2136934,32767,-10928,1752,34585.65,28.86,-1.00,-1.0,2368
1937,2136937,18572,-1308,26716,32563.39,28.86,-1.00,-1.0,2431
1939,2136939,9324,-4236,-32768,34331.07,28.95,-1.00,-1.0,2374
1942,2136942,32767,-20812,27328,nan,28.81,-1.00,-1.0,2423
1945,2136945,17316,3632,-15164,23301.98,28.91,-1.00,-1.0,2365
1950,2136950,32767,-4460,19708,38496.41,29.00,-1.00,-1.0,2435
1953,2136953,-5956,16908,-32768,37350.99,28.86,-1.00,-1.0,2371
1955,2136955,10540,-31512,32767,nan,28.91,-1.00,-1.0,2424
1958,2136958,22416,14060,-13072,29513.35,28.95,-1.00,-1.0,2373
1961,2136961,-432,7216,-3516,8038.63,28.91,-1.00,-1.0,2360
1963,2136963,21816,-3000,13472,25815.36,28.91,-1.00,-1.0,2418
1966,2136966,9308,14216,-32768,36911.72,28.91,-1.00,-1.0,2371
1969,2136969,18928,-14232,30060,38267.77,28.86,-1.00,-1.0,2428
1972,2136972,20416,9236,-24212,32989.96,28.91,-1.00,-1.0,2369
1977,2136977,20900,-4936,20212,29490.66,28.91,-1.00,-1.0,2435
1980,2136980,8192,11372,-25908,29456.00,28.95,-1.00,-1.0,2369
1982,2136982,19504,-9044,16428,27056.96,28.91,-1.00,-1.0,2434
1985,2136985,14548,5260,-6928,16950.19,28.91,-1.00,-1.0,2368
1988,2136988,12896,820,5312,13971.28,28.91,-1.00,-1.0,2432
1991,2136991,21436,1848,-3920,21869.70,28.86,-1.00,-1.0,2366
1993,2136993,18628,5604,-5552,20229.48,29.00,-1.00,-1.0,2432
1996,2136996,16652,-5572,7636,19147.97,28.81,-1.00,-1.0,2368
2001,2137001,9360,148,-1180,9435.25,28.81,-1.00,-1.0,2437
2004,2137004,21164,-4768,5964,22499.29,28.86,-1.00,-1.0,2373
2007,2137007,17776,2540,-2644,18150.17,28.95,-1.00,-1.0,2442
2009,2137009,15188,3148,-4432,16131.58,28.86,-1.00,-1.0,2375
2012,2137012,17576,-2440,6612,18936.42,28.81,-1.00,-1.0,2438
2015,2137015,20028,3512,-5152,20976.13,28.86,-1.00,-1.0,2371
2018,2137018,18932,-3576,6472,20324.74,28.91,-1.00,-1.0,2441
2020,2137020,16504,-1796,1064,16635.50,28.86,-1.00,-1.0,2377
2023,2137023,20100,5264,-9240,22739.77,28.77,-1.00,-1.0,2358
2028,2137028,19212,3628,-4712,20111.35,28.86,-1.00,-1.0,2436
2031,2137031,18936,-604,392,18949.69,28.86,-1.00,-1.0,2370
2034,2137034,15920,-1792,2148,16163.90,28.86,-1.00,-1.0,2434
2036,2137036,17540,2876,-7016,19108.83,28.86,-1.00,-1.0,2368
2039,2137039,19228,-2480,7092,20643.71,28.86,-1.00,-1.0,2432
2042,2137042,14292,4776,-6488,16406.27,28.86,-1.00,-1.0,2366
2045,2137045,16412,-952,3340,16775.45,28.86,-1.00,-1.0,2431
2047,2137047,18824,-2276,7736,20478.50,28.91,-1.00,-1.0,2368
2052,2137052,18636,176,1540,18700.35,28.81,-1.00,-1.0,2435
2055,2137055,17512,-36,-1480,17574.46,28.91,-1.00,-1.0,2358
2058,2137058,15984,-1508,660,16068.54,28.91,-1.00,-1.0,2440
2060,2137060,17664,-1752,768,17767.28,28.91,-1.00,-1.0,2374
2063,2137063,17228,1736,-5132,18059.77,28.91,-1.00,-1.0,2432
2066,2137066,16196,-1256,2972,16514.26,28.91,-1.00,-1.0,2368
2069,2137069,16900,1720,-2688,17198.66,28.91,-1.00,-1.0,2439
2071,2137071,17044,1756,-544,17142.85,28.91,-1.00,-1.0,2378
2076,2137076,17044,996,-1372,17128.12,28.91,-1.00,-1.0,2447
2079,2137079,17444,-180,1512,17510.33,28.81,-1.00,-1.0,2377
2082,2137082,17140,736,464,17162.07,28.91,-1.00,-1.0,2360
2084,2137084,16352,1120,-2604,16595.88,28.77,-1.00,-1.0,2433
2087,2137087,17468,-1432,632,17537.99,28.91,-1.00,-1.0,2357
2090,2137090,16952,816,-884,16994.63,28.86,-1.00,-1.0,2431
2093,2137093,16304,1340,-1236,16405.60,28.81,-1.00,-1.0,2370
2095,2137095,17488,-1092,2176,17656.66,28.91,-1.00,-1.0,2420
2098,2137098,16812,1588,-2224,17032.65,28.91,-1.00,-1.0,2371
2103,2137103,16880,-116,872,16902.91,28.86,-1.00,-1.0,2434
2106,2137106,16552,1500,-2716,16840.29,28.81,-1.00,-1.0,2371
2108,2137108,17880,-1160,2372,18073.91,28.86,-1.00,-1.0,2435
2111,2137111,16348,1720,-1628,16518.65,29.00,-1.00,-1.0,2369
2114,2137114,17076,1268,-864,17144.80,28.86,-1.00,-1.0,2431
2117,2137117,18064,-1312,2304,18257.54,28.91,-1.00,-1.0,2370
2119,2137119,16624,1188,-2276,16821.08,28.86,-1.00,-1.0,2433
2122,2137122,17140,320,-184,17143.97,28.95,-1.00,-1.0,2371
2127,2137127,17000,1084,-552,17043.47,28.95,-1.00,-1.0,2434
2130,2137130,17656,-148,1904,17758.98,28.77,-1.00,-1.0,2369
2132,2137132,16828,976,-1096,16891.87,28.86,-1.00,-1.0,2358
2135,2137135,16716,144,-748,16733.35,28.81,-1.00,-1.0,2434
2138,2137138,17344,-36,-400,17348.65,28.95,-1.00,-1.0,2367
2141,2137141,17136,1032,-1228,17210.91,28.86,-1.00,-1.0,2432
2143,2137143,16780,440,248,16787.60,28.95,-1.00,-1.0,2367
2146,2137146,16932,796,-576,16960.48,28.86,-1.00,-1.0,2432
2149,2137149,17288,-136,392,17292.98,28.86,-1.00,-1.0,2368
2154,2137154,16776,1004,-456,16812.20,28.81,-1.00,-1.0,2446
2157,2137157,17424,760,-84,17440.77,28.81,-1.00,-1.0,2376
2160,2137160,16940,552,216,16950.37,28.95,-1.00,-1.0,2437
2163,2137163,16812,328,-524,16823.36,28.91,-1.00,-1.0,2368
2165,2137165,17440,-96,496,17447.32,28.95,-1.00,-1.0,2444
2168,2137168,17060,504,-288,17069.87,28.81,-1.00,-1.0,2375
2171,2137171,17432,184,528,17440.96,28.86,-1.00,-1.0,2359
2173,2137173,17004,620,-1124,17052.38,28.77,-1.00,-1.0,2436
2176,2137176,16820,904,-1596,16919.72,28.77,-1.00,-1.0,2368
2181,2137181,16820,700,-900,16858.60,28.77,-1.00,-1.0,2441
2184,2137184,17024,740,-200,17041.25,28.86,-1.00,-1.0,2375
2187,2137187,17196,480,-604,17213.30,28.86,-1.00,-1.0,2442
2189,2137189,17224,192,-448,17230.89,28.95,-1.00,-1.0,2376
2192,2137192,17084,172,-232,17086.44,28.86,-1.00,-1.0,2432
2195,2137195,17036,432,-580,17051.34,28.86,-1.00,-1.0,2370
2198,2137198,17040,-28,120,17040.45,28.95,-1.00,-1.0,2441
2200,2137200,16828,1112,-1124,16902.12,28.77,-1.00,-1.0,2379
2205,2137205,17020,740,532,17044.38,28.91,-1.00,-1.0,2437
2208,2137208,17268,788,72,17286.12,28.81,-1.00,-1.0,2369
2211,2137211,17332,396,204,17337.72,28.86,-1.00,-1.0,2361
2213,2137213,16924,412,8,16929.02,28.95,-1.00,-1.0,2437
2216,2137216,17268,788,-560,17295.04,28.77,-1.00,-1.0,2383
2219,2137219,17256,-4,312,17258.82,28.86,-1.00,-1.0,2431
2222,2137222,16984,576,-648,17006.12,28.86,-1.00,-1.0,2372
2224,2137224,17200,232,-64,17201.68,28.86,-1.00,-1.0,2436
2227,2137227,17316,-296,-296,17321.06,28.91,-1.00,-1.0,2368
2232,2137232,16872,396,-404,16881.48,28.81,-1.00,-1.0,2434
2235,2137235,16732,908,-916,16781.64,28.95,-1.00,-1.0,2373
2238,2137238,16896,508,16,16903.64,28.81,-1.00,-1.0,2442
2240,2137240,17084,868,-24,17106.05,28.95,-1.00,-1.0,2370
2243,2137243,16988,832,60,17008.47,28.91,-1.00,-1.0,2360
2246,2137246,17160,560,112,17169.50,28.91,-1.00,-1.0,2433
2248,2137248,17248,420,136,17253.65,28.91,-1.00,-1.0,2366
2251,2137251,17256,312,176,17259.72,28.86,-1.00,-1.0,2447
2254,2137254,17188,532,-628,17207.70,28.95,-1.00,-1.0,2369
2259,2137259,17120,452,-616,17137.04,28.91,-1.00,-1.0,2434
2262,2137262,16976,476,-288,16985.11,28.81,-1.00,-1.0,2358
2265,2137265,17280,324,172,17283.89,28.91,-1.00,-1.0,2441
2267,2137267,17072,684,-564,17095.00,28.86,-1.00,-1.0,2370
2270,2137270,16800,812,-656,16832.40,28.81,-1.00,-1.0,2432
2273,2137273,16880,848,-752,16918.01,28.81,-1.00,-1.0,2368
2275,2137275,16940,664,-612,16964.05,28.81,-1.00,-1.0,2358
2278,2137278,17132,332,-132,17135.72,28.86,-1.00,-1.0,2443
2281,2137281,17392,124,340,17395.77,28.86,-1.00,-1.0,2377
2286,2137286,17064,340,-308,17070.17,28.95,-1.00,-1.0,2438
2289,2137289,17088,304,-620,17101.95,28.91,-1.00,-1.0,2370
2292,2137292,16924,436,-1012,16959.84,28.95,-1.00,-1.0,2436
2294,2137294,17016,312,-760,17035.82,28.81,-1.00,-1.0,2368
2297,2137297,17060,404,-404,17069.56,28.86,-1.00,-1.0,2434
2300,2137300,17216,468,-100,17222.65,28.81,-1.00,-1.0,2367
2303,2137303,17164,484,52,17170.90,28.86,-1.00,-1.0,2439
2305,2137305,17024,564,-364,17037.23,28.81,-1.00,-1.0,2368
2310,2137310,16964,520,-220,16973.39,28.95,-1.00,-1.0,2437
2313,2137313,17104,444,-116,17110.15,28.91,-1.00,-1.0,2370
2316,2137316,17060,612,392,17075.47,28.95,-1.00,-1.0,2358
2318,2137318,17072,776,-88,17089.85,28.86,-1.00,-1.0,2449
2321,2137321,17052,472,-268,17060.64,28.86,-1.00,-1.0,2368
2324,2137324,16956,512,-908,16988.01,28.86,-1.00,-1.0,2437
2326,2137326,16860,440,-712,16880.76,28.86,-1.00,-1.0,2367
2329,2137329,17132,380,-176,17137.12,28.81,-1.00,-1.0,2420
2332,2137332,17280,200,76,17281.32,28.86,-1.00,-1.0,2378
2337,2137337,17008,320,-524,17019.08,28.81,-1.00,-1.0,2435
2340,2137340,16988,392,-560,17001.75,28.91,-1.00,-1.0,2373
2343,2137343,16968,232,-200,16970.76,28.91,-1.00,-1.0,2434
2345,2137345,17056,392,92,17060.75,28.91,-1.00,-1.0,2375
2348,2137348,17144,400,180,17149.61,28.86,-1.00,-1.0,2359
2351,2137351,17068,564,8,17077.32,28.86,-1.00,-1.0,2439
2353,2137353,17032,520,-180,17040.89,28.95,-1.00,-1.0,2366
2356,2137356,17012,300,-284,17017.02,28.95,-1.00,-1.0,2432
2359,2137359,16932,224,-540,16942.09,28.81,-1.00,-1.0,2376
2364,2137364,17104,192,-392,17109.57,28.81,-1.00,-1.0,2445
2367,2137367,17256,492,-96,17263.28,28.91,-1.00,-1.0,2377
2370,2137370,17244,536,-120,17252.75,28.81,-1.00,-1.0,2424
2373,2137373,17152,228,-120,17153.94,28.95,-1.00,-1.0,2368
2375,2137375,17080,468,-528,17094.57,28.91,-1.00,-1.0,2445
2378,2137378,17020,412,-276,17027.22,28.86,-1.00,-1.0,2367
2381,2137381,17064,624,-472,17081.93,28.81,-1.00,-1.0,2361
2383,2137383,17024,636,-340,17039.27,28.86,-1.00,-1.0,2432
2386,2137386,17064,628,-408,17080.43,28.81,-1.00,-1.0,2370
2391,2137391,16980,512,-472,16994.27,28.91,-1.00,-1.0,2446
2394,2137394,16972,568,-748,16997.97,28.91,-1.00,-1.0,2386
2397,2137397,17032,560,-580,17051.07,28.86,-1.00,-1.0,2436
2400,2137400,17152,516,-444,17165.50,29.00,-1.00,-1.0,2376
2402,2137402,17156,596,-284,17168.70,28.91,-1.00,-1.0,2419
2405,2137405,17184,612,32,17194.92,28.81,-1.00,-1.0,2382
2408,2137408,17140,700,4,17154.29,28.91,-1.00,-1.0,2434
2411,2137411,17160,524,-152,17168.67,28.81,-1.00,-1.0,2376
2416,2137416,16920,720,-168,16936.14,28.91,-1.00,-1.0,2435
2418,2137418,16960,680,-284,16976.00,28.86,-1.00,-1.0,2369
2421,2137421,16920,740,-436,16941.79,28.91,-1.00,-1.0,2366
2424,2137424,16880,636,-400,16896.71,28.95,-1.00,-1.0,2447
2426,2137426,16976,588,-232,16987.76,28.91,-1.00,-1.0,2378
2429,2137429,17080,356,-228,17085.23,28.86,-1.00,-1.0,2440
2432,2137432,17168,268,12,17170.10,28.91,-1.00,-1.0,2375
2435,2137435,17140,264,-240,17143.71,28.86,-1.00,-1.0,2442
2437,2137437,17280,188,-60,17281.13,28.86,-1.00,-1.0,2368
2442,2137442,17056,296,-332,17061.80,28.86,-1.00,-1.0,2435
2445,2137445,17056,172,-156,17057.58,28.86,-1.00,-1.0,2372
2448,2137448,17148,440,-404,17158.40,28.86,-1.00,-1.0,2434
2451,2137451,17040,524,-224,17049.53,28.86,-1.00,-1.0,2368
2453,2137453,17028,564,-584,17047.34,28.86,-1.00,-1.0,2359
2456,2137456,17032,480,-208,17040.03,28.91,-1.00,-1.0,2430
2459,2137459,17052,476,-244,17060.39,28.77,-1.00,-1.0,2367
2462,2137462,17208,340,44,17211.41,28.91,-1.00,-1.0,2431
2464,2137464,17208,220,-96,17209.67,28.81,-1.00,-1.0,2367
2469,2137469,16964,296,-360,16970.40,28.86,-1.00,-1.0,2437
2472,2137472,17096,488,-516,17110.75,28.86,-1.00,-1.0,2370
2475,2137475,17100,492,-476,17113.70,28.81,-1.00,-1.0,2433
2478,2137478,17020,596,-528,17038.62,28.95,-1.00,-1.0,2366
2480,2137480,17060,472,-192,17067.61,28.81,-1.00,-1.0,2433
2483,2137483,17040,492,-296,17049.67,28.86,-1.00,-1.0,2369
2486,2137486,17032,604,-280,17045.01,28.95,-1.00,-1.0,2431
2489,2137489,16972,480,-444,16984.59,28.86,-1.00,-1.0,2367
2491,2137491,17112,424,-204,17118.47,28.91,-1.00,-1.0,2359
2496,2137496,17024,212,-340,17028.71,28.81,-1.00,-1.0,2436
2499,2137499,17056,448,-508,17069.44,28.86,-1.00,-1.0,2370
2502,2137502,16908,620,-176,16920.28,28.91,-1.00,-1.0,2432
2505,2137505,17008,696,-180,17023.19,28.86,-1.00,-1.0,2366
2507,2137507,16972,760,-156,16989.72,28.91,-1.00,-1.0,2432
2510,2137510,17096,596,-144,17106.99,28.86,-1.00,-1.0,2369
2513,2137513,17084,440,0,17089.67,28.81,-1.00,-1.0,2430
2516,2137516,17096,460,-168,17103.01,28.95,-1.00,-1.0,2367
2522,2137522,16980,552,-316,16991.91,28.81,-1.00,-1.0,2436
2525,2137525,17100,516,-352,17111.40,28.95,-1.00,-1.0,2370
2528,2137528,17076,572,-420,17090.74,28.81,-1.00,-1.0,2420
2531,2137531,17040,504,-424,17052.72,28.95,-1.00,-1.0,2366
2533,2137533,16996,560,-432,17010.71,28.86,-1.00,-1.0,2358
2536,2137536,17032,620,-268,17045.39,28.91,-1.00,-1.0,2432
2539,2137539,17080,556,-184,17090.04,28.91,-1.00,-1.0,2367
2541,2137541,16960,464,-248,16968.16,28.81,-1.00,-1.0,2431
2544,2137544,17032,572,-324,17044.68,28.95,-1.00,-1.0,2367
2549,2137549,17244,228,-60,17245.61,28.81,-1.00,-1.0,2436
2552,2137552,17216,280,-164,17219.06,28.81,-1.00,-1.0,2370
2555,2137555,17188,144,40,17188.65,28.77,-1.00,-1.0,2434
2557,2137557,17144,304,-276,17148.92,28.91,-1.00,-1.0,2368
2560,2137560,17144,360,-400,17152.44,28.95,-1.00,-1.0,2431
2563,2137563,17100,484,-184,17107.84,28.91,-1.00,-1.0,2367
2565,2137565,17004,616,-220,17016.58,28.86,-1.00,-1.0,2363
2568,2137568,17052,656,-320,17067.61,28.86,-1.00,-1.0,2446
2571,2137571,16992,712,-404,17011.71,28.86,-1.00,-1.0,2371
2576,2137576,17008,524,-360,17019.88,28.81,-1.00,-1.0,2442
2578,2137578,16980,344,-260,16985.47,28.91,-1.00,-1.0,2370
2581,2137581,17020,320,-280,17025.31,28.86,-1.00,-1.0,2436
2584,2137584,17028,244,-284,17032.12,28.91,-1.00,-1.0,2368
2587,2137587,17000,144,-288,17003.05,28.86,-1.00,-1.0,2438
2589,2137589,17044,404,-256,17050.71,28.91,-1.00,-1.0,2367
2592,2137592,17064,428,-440,17075.04,28.91,-1.00,-1.0,2431
2595,2137595,17128,644,-532,17148.36,28.91,-1.00,-1.0,2369
2600,2137600,17100,560,-172,17110.03,28.95,-1.00,-1.0,2449
2603,2137603,17080,568,-492,17096.52,28.95,-1.00,-1.0,2375
2605,2137605,17088,660,-312,17103.59,28.81,-1.00,-1.0,2366
2608,2137608,17040,504,-324,17050.53,28.81,-1.00,-1.0,2434
2611,2137611,16992,284,-312,16997.24,28.91,-1.00,-1.0,2368
2614,2137614,17092,276,-388,17098.63,28.91,-1.00,-1.0,2428
2616,2137616,17028,356,-196,17032.85,28.81,-1.00,-1.0,2375
2619,2137619,17048,368,-184,17052.96,28.81,-1.00,-1.0,2432
2622,2137622,17132,456,-72,17138.22,28.86,-1.00,-1.0,2356
2627,2137627,17020,576,-348,17033.30,28.81,-1.00,-1.0,2442
2630,2137630,16984,700,-296,17001.00,28.77,-1.00,-1.0,2369
2632,2137632,17040,600,-540,17059.11,28.91,-1.00,-1.0,2446
2635,2137635,17040,492,-168,17047.93,28.86,-1.00,-1.0,2376
2638,2137638,16940,600,-228,16952.16,28.91,-1.00,-1.0,2434
2641,2137641,17028,464,-320,17037.33,28.86,-1.00,-1.0,2367
2643,2137643,17024,356,-244,17029.47,28.77,-1.00,-1.0,2366
2646,2137646,17044,472,-352,17054.17,28.91,-1.00,-1.0,2435
2649,2137649,17104,392,-128,17108.97,28.81,-1.00,-1.0,2373
2654,2137654,17060,468,-228,17067.94,28.95,-1.00,-1.0,2435
2656,2137656,17068,472,124,17074.97,28.86,-1.00,-1.0,2370
2659,2137659,17052,408,-224,17058.35,28.86,-1.00,-1.0,2433
2662,2137662,17096,564,-280,17107.59,28.86,-1.00,-1.0,2376
2665,2137665,17004,500,-376,17015.50,28.95,-1.00,-1.0,2431
2667,2137667,17172,504,-236,17181.02,28.77,-1.00,-1.0,2369
2670,2137670,17056,532,-412,17069.27,28.77,-1.00,-1.0,2432
2673,2137673,17048,404,-412,17057.76,28.86,-1.00,-1.0,2369
2678,2137678,17140,448,-388,17150.24,28.81,-1.00,-1.0,2436
2680,2137680,17140,432,-252,17147.29,28.91,-1.00,-1.0,2377
2683,2137683,17000,460,-232,17007.80,28.95,-1.00,-1.0,2358
2686,2137686,17144,412,-340,17152.32,28.86,-1.00,-1.0,2442
2688,2137688,17016,344,-192,17020.56,28.86,-1.00,-1.0,2367
2691,2137691,17028,556,-88,17037.30,28.86,-1.00,-1.0,2432
2694,2137694,17076,480,-180,17083.69,28.95,-1.00,-1.0,2355
2697,2137697,17076,424,-408,17086.13,28.86,-1.00,-1.0,2439
2699,2137699,16996,380,-480,17007.02,28.86,-1.00,-1.0,2370
2704,2137704,17096,516,-476,17110.41,28.81,-1.00,-1.0,2444
2707,2137707,16988,456,-384,16998.46,28.81,-1.00,-1.0,2384
2710,2137710,16996,424,-420,17006.47,28.95,-1.00,-1.0,2435
2713,2137713,16992,408,-372,17000.97,28.91,-1.00,-1.0,2375
2715,2137715,17044,460,-436,17055.78,28.95,-1.00,-1.0,2440
2718,2137718,17044,416,-412,17054.05,29.00,-1.00,-1.0,2383
2721,2137721,16964,520,-416,16977.07,28.95,-1.00,-1.0,2359
2723,2137723,16992,564,-332,17004.60,28.86,-1.00,-1.0,2433
2726,2137726,16980,596,-284,16992.83,28.86,-1.00,-1.0,2368
2731,2137731,17048,544,-220,17058.10,28.95,-1.00,-1.0,2435
2734,2137734,17148,652,-176,17161.29,28.86,-1.00,-1.0,2368
2736,2137736,16992,468,-216,16999.82,28.86,-1.00,-1.0,2435
2739,2137739,17088,452,-84,17094.18,28.86,-1.00,-1.0,2368
2742,2137742,17020,472,-272,17028.72,28.95,-1.00,-1.0,2430
2745,2137745,17100,364,-360,17107.66,28.86,-1.00,-1.0,2366
2747,2137747,17028,372,-248,17033.87,28.86,-1.00,-1.0,2432
2750,2137750,17076,424,-384,17085.58,28.95,-1.00,-1.0,2371
2753,2137753,17192,408,-232,17198.41,28.91,-1.00,-1.0,2367
2758,2137758,17036,488,-276,17045.22,28.81,-1.00,-1.0,2435
2760,2137760,17132,472,-132,17139.01,29.00,-1.00,-1.0,2370
2763,2137763,17012,368,-340,17019.38,28.81,-1.00,-1.0,2448
2766,2137766,17048,424,-296,17055.84,28.91,-1.00,-1.0,2370
2769,2137769,17092,460,-192,17099.27,28.81,-1.00,-1.0,2435
2771,2137771,17056,416,-108,17061.41,28.91,-1.00,-1.0,2370
2774,2137774,17132,328,-148,17135.78,28.91,-1.00,-1.0,2438
2777,2137777,17176,404,-292,17183.23,29.00,-1.00,-1.0,2374
2782,2137782,17140,388,-356,17148.09,28.91,-1.00,-1.0,2443
2784,2137784,17128,472,-276,17136.72,28.81,-1.00,-1.0,2371
2787,2137787,17040,372,-400,17048.75,28.91,-1.00,-1.0,2436
2790,2137790,17056,568,-356,17069.17,28.86,-1.00,-1.0,2367
2793,2137793,17028,588,-304,17040.86,28.91,-1.00,-1.0,2359
2795,2137795,17060,608,-368,17074.80,28.86,-1.00,-1.0,2447
2798,2137798,17040,540,-416,17053.63,28.91,-1.00,-1.0,2368
2801,2137801,17096,500,-356,17107.02,28.86,-1.00,-1.0,2434
2804,2137804,17072,376,-264,17078.18,28.86,-1.00,-1.0,2368
2809,2137809,17104,420,-296,17111.72,28.91,-1.00,-1.0,2438
2811,2137811,17092,344,-468,17101.87,28.91,-1.00,-1.0,2370
2814,2137814,17080,412,-372,17089.02,28.91,-1.00,-1.0,2437
2817,2137817,17116,528,-256,17126.05,28.86,-1.00,-1.0,2367
2820,2137820,17012,508,-308,17022.37,28.91,-1.00,-1.0,2434
2822,2137822,17148,636,-316,17162.70,28.81,-1.00,-1.0,2367
2825,2137825,16928,660,-412,16945.87,28.91,-1.00,-1.0,2433
2828,2137828,17116,600,-332,17129.73,28.86,-1.00,-1.0,2367
2831,2137831,17032,564,-244,17043.08,28.86,-1.00,-1.0,2363
2836,2137836,17144,500,-256,17153.20,28.86,-1.00,-1.0,2443
2839,2137839,17032,536,-168,17041.26,28.81,-1.00,-1.0,2371
2841,2137841,17020,548,-296,17031.39,28.86,-1.00,-1.0,2451
2844,2137844,16992,504,-332,17002.71,28.91,-1.00,-1.0,2367
2847,2137847,17044,500,-396,17055.93,28.86,-1.00,-1.0,2439
2849,2137849,17044,540,-416,17057.62,28.91,-1.00,-1.0,2371
2852,2137852,17080,496,-252,17089.06,28.81,-1.00,-1.0,2457
2855,2137855,17032,420,-264,17039.22,28.91,-1.00,-1.0,2370
2860,2137860,17060,440,-264,17067.71,28.81,-1.00,-1.0,2447
2863,2137863,17188,404,-376,17196.86,28.86,-1.00,-1.0,2371
2866,2137866,32767,-2664,-4736,33214.50,28.91,-1.00,-1.0,2442
2868,2137868,2116,28720,21848,36147.63,28.95,-1.00,-1.0,2372
2871,2137871,31644,17040,-32768,nan,28.81,-1.00,-1.0,2426
2874,2137874,32767,5196,2524,33272.29,28.86,-1.00,-1.0,2368
2876,2137876,13976,-25700,24280,38017.59,28.91,-1.00,-1.0,2361
2879,2137879,31712,-236,-11556,33752.75,28.81,-1.00,-1.0,2432
2882,2137882,28876,4536,-136,29230.42,28.86,-1.00,-1.0,2368
2887,2137887,32767,17984,-32768,nan,28.86,-1.00,-1.0,2417
2890,2137890,-14912,-20740,12884,28609.66,28.95,-1.00,-1.0,2366
2892,2137892,26036,4344,-27268,37951.12,28.81,-1.00,-1.0,2435
2895,2137895,32767,-5068,7052,33898.25,28.81,-1.00,-1.0,2369
2898,2137898,-4224,-12008,22984,26273.53,28.91,-1.00,-1.0,2430
2901,2137901,8784,16864,-27740,33631.25,28.91,-1.00,-1.0,2367
2903,2137903,16564,-9272,31284,36592.69,28.81,-1.00,-1.0,2432
2906,2137906,9512,9928,-22636,26484.56,28.91,-1.00,-1.0,2368
2911,2137911,15564,-10936,14744,24066.98,28.81,-1.00,-1.0,2442
2914,2137914,19896,9856,-12828,25642.72,28.86,-1.00,-1.0,2358
2917,2137917,21244,-17452,26544,38216.02,28.81,-1.00,-1.0,2443
2919,2137919,15656,9400,-16276,24461.78,28.91,-1.00,-1.0,2379
2922,2137922,9004,4408,-820,10058.57,28.91,-1.00,-1.0,2438
2925,2137925,16540,-3608,6348,18080.00,28.86,-1.00,-1.0,2354
2928,2137928,20588,3968,-3072,21190.75,28.91,-1.00,-1.0,2445
2930,2137930,11696,-1212,7472,13931.84,28.91,-1.00,-1.0,2377
2935,2137935,14360,2880,360,14650.38,28.91,-1.00,-1.0,2439
2938,2137938,14176,584,-3652,14650.50,28.86,-1.00,-1.0,2370
2940,2137940,18552,68,668,18564.15,28.91,-1.00,-1.0,2359
2943,2137943,14676,1160,-4020,15260.77,28.86,-1.00,-1.0,2434
2946,2137946,19828,-3752,8788,22010.36,28.91,-1.00,-1.0,2368
2949,2137949,16772,3724,-7720,18835.25,28.86,-1.00,-1.0,2437
2951,2137951,16292,3644,-6436,17892.18,28.91,-1.00,-1.0,2368
2954,2137954,18072,-2704,7668,19816.84,28.86,-1.00,-1.0,2431
2957,2137957,14884,3952,-6836,16848.82,28.95,-1.00,-1.0,2369
2962,2137962,13884,1456,-4668,14719.91,28.77,-1.00,-1.0,2443
2964,2137964,18816,6392,-10556,22501.75,28.86,-1.00,-1.0,2369
2967,2137967,18016,-2948,9804,20721.62,28.91,-1.00,-1.0,2443
2970,2137970,13596,3884,-8876,16694.91,28.86,-1.00,-1.0,2369
2973,2137973,18408,-3548,5712,19597.70,28.86,-1.00,-1.0,2437
2975,2137975,16732,-1708,2468,16999.06,28.86,-1.00,-1.0,2367
2978,2137978,14744,1264,-2728,15047.43,28.81,-1.00,-1.0,2432
2981,2137981,18184,-740,4028,18639.48,28.95,-1.00,-1.0,2369
2986,2137986,15568,-1112,3872,16080.78,28.77,-1.00,-1.0,2435
2989,2137989,18988,1376,-1052,19066.84,28.95,-1.00,-1.0,2369
2991,2137991,14524,3984,-6588,16438.39,28.86,-1.00,-1.0,2421
2994,2137994,17056,-1916,4468,17735.31,28.86,-1.00,-1.0,2368
2997,2137997,18928,1492,-4228,19451.77,28.86,-1.00,-1.0,2429
3000,2138000,18268,-3156,3812,18926.48,28.86,-1.00,-1.0,2368
3002,2138002,17204,-1816,380,17303.75,28.95,-1.00,-1.0,2359
3005,2138005,18140,860,-2148,18286.96,28.91,-1.00,-1.0,2445
3008,2138008,17376,-688,1956,17499.28,28.91,-1.00,-1.0,2369
3013,2138013,17272,1924,-672,17391.82,28.95,-1.00,-1.0,2432
3016,2138016,16520,1372,-776,16595.03,28.95,-1.00,-1.0,2373
3019,2138019,16872,-32,1328,16924.21,28.95,-1.00,-1.0,2430
3021,2138021,18068,-640,1580,18148.24,28.86,-1.00,-1.0,2370
3024,2138024,16684,1280,-1620,16811.27,28.95,-1.00,-1.0,2431
3027,2138027,16876,-380,-1104,16916.34,28.86,-1.00,-1.0,2369
3030,2138030,16920,-248,1112,16958.31,28.95,-1.00,-1.0,2432
3032,2138032,16792,1884,-2444,17073.19,28.86,-1.00,-1.0,2375
3037,2138037,17360,-756,1828,17472.34,28.91,-1.00,-1.0,2442
3040,2138040,17272,1440,-2100,17458.68,28.91,-1.00,-1.0,2378
3043,2138043,16984,-100,1416,17043.22,28.81,-1.00,-1.0,2436
3046,2138046,17100,1568,-2544,17359.16,28.91,-1.00,-1.0,2368
3048,2138048,16808,-276,508,16817.94,28.95,-1.00,-1.0,2442
3051,2138051,17276,344,-8,17279.43,28.81,-1.00,-1.0,2375
3054,2138054,17208,1640,-1740,17373.33,28.77,-1.00,-1.0,2360
3056,2138056,17124,-480,1652,17210.20,28.86,-1.00,-1.0,2431
3059,2138059,17556,284,-612,17568.96,28.86,-1.00,-1.0,2376
3064,2138064,16740,676,-356,16757.43,28.91,-1.00,-1.0,2432
3067,2138067,17280,1468,-1264,17388.25,28.91,-1.00,-1.0,2378
3070,2138070,17608,12,2104,17733.26,28.86,-1.00,-1.0,2442
3072,2138072,16984,808,-40,17003.26,28.91,-1.00,-1.0,2369
3075,2138075,16848,716,-1512,16930.86,28.86,-1.00,-1.0,2445
3078,2138078,17308,-264,-284,17312.34,28.91,-1.00,-1.0,2365
3081,2138081,17068,1080,-1052,17134.46,28.91,-1.00,-1.0,2432
3083,2138083,17008,660,-16,17020.81,28.91,-1.00,-1.0,2370
3088,2138088,16528,676,-428,16547.36,28.86,-1.00,-1.0,2418
3091,2138091,17136,-232,608,17148.35,28.86,-1.00,-1.0,2373
3093,2138093,17148,312,-224,17152.30,28.91,-1.00,-1.0,2358
3096,2138096,16880,932,-292,16908.23,28.81,-1.00,-1.0,2434
3099,2138099,17268,784,212,17287.09,28.81,-1.00,-1.0,2369
3102,2138102,16996,820,-332,17019.01,28.81,-1.00,-1.0,2437
3104,2138104,16952,172,-4,16952.87,28.91,-1.00,-1.0,2367
3107,2138107,17204,-64,364,17207.97,28.81,-1.00,-1.0,2434
3110,2138110,17080,360,-236,17085.42,28.86,-1.00,-1.0,2357
3115,2138115,16896,552,-996,16934.33,28.77,-1.00,-1.0,2432
3118,2138118,16784,592,-912,16819.18,28.91,-1.00,-1.0,2378
3121,2138121,16960,380,-584,16974.31,28.86,-1.00,-1.0,2439
3123,2138123,17044,644,-584,17066.16,28.91,-1.00,-1.0,2369
3126,2138126,17144,596,-256,17156.27,28.86,-1.00,-1.0,2445
3129,2138129,17136,292,-824,17158.29,28.81,-1.00,-1.0,2375
3131,2138131,17248,-60,-348,17251.62,28.86,-1.00,-1.0,2369
3134,2138134,17248,88,-344,17251.65,28.81,-1.00,-1.0,2418
3137,2138137,17212,124,-492,17219.48,28.86,-1.00,-1.0,2368
3142,2138142,16848,916,-812,16892.41,28.91,-1.00,-1.0,2432
3145,2138145,17028,1052,-380,17064.70,28.86,-1.00,-1.0,2370
3147,2138147,17240,660,652,17264.95,28.91,-1.00,-1.0,2434
3150,2138150,17132,768,76,17149.37,28.91,-1.00,-1.0,2368
3153,2138153,17056,232,284,17059.94,28.81,-1.00,-1.0,2416
3156,2138156,17152,588,-412,17167.02,28.77,-1.00,-1.0,2369
3158,2138158,17096,128,-24,17096.50,28.91,-1.00,-1.0,2431
3161,2138161,17164,-32,-144,17164.63,28.81,-1.00,-1.0,2368
3164,2138164,17108,640,-684,17133.62,28.81,-1.00,-1.0,2359
3169,2138169,17216,-176,-256,17218.80,28.86,-1.00,-1.0,2454
3172,2138172,17016,108,-148,17016.99,28.95,-1.00,-1.0,2380
3175,2138175,16732,680,-916,16770.85,28.86,-1.00,-1.0,2443
3177,2138177,16792,728,-788,16826.23,28.86,-1.00,-1.0,2376
3180,2138180,16904,596,112,16914.88,28.81,-1.00,-1.0,2439
3183,2138183,17032,936,-236,17059.33,29.00,-1.00,-1.0,2422
3186,2138186,17148,536,232,17157.94,28.86,-1.00,-1.0,2435
3189,2138189,17244,416,-132,17249.52,28.95,-1.00,-1.0,2374
3193,2138193,17144,616,-356,17158.76,28.86,-1.00,-1.0,2434
3196,2138196,17136,660,-632,17160.35,28.81,-1.00,-1.0,2372
3199,2138199,17076,440,-304,17084.37,28.86,-1.00,-1.0,2428
3202,2138202,16988,484,-572,17004.52,28.91,-1.00,-1.0,2369
3204,2138204,17196,188,-128,17197.50,28.95,-1.00,-1.0,2359
3207,2138207,17200,484,-316,17209.71,28.86,-1.00,-1.0,2445
3210,2138210,16976,772,-412,16998.54,28.86,-1.00,-1.0,2377
3213,2138213,16840,872,-636,16874.55,28.86,-1.00,-1.0,2428
3215,2138215,16704,824,-660,16737.33,28.86,-1.00,-1.0,2369
3220,2138220,17144,252,-68,17145.99,28.86,-1.00,-1.0,2435
3223,2138223,17176,124,208,17177.71,28.91,-1.00,-1.0,2373
3226,2138226,17164,556,-112,17173.37,28.86,-1.00,-1.0,2426
3228,2138228,17084,404,-384,17093.09,28.91,-1.00,-1.0,2356
3231,2138231,17068,480,-760,17091.65,28.91,-1.00,-1.0,2429
3234,2138234,16968,416,-924,16998.23,28.91,-1.00,-1.0,2372
3237,2138237,16980,540,-588,16998.76,28.81,-1.00,-1.0,2431
3239,2138239,17264,460,-108,17270.46,28.81,-1.00,-1.0,2377
3242,2138242,17224,392,216,17229.81,28.95,-1.00,-1.0,2358
3247,2138247,17160,504,-192,17168.47,28.86,-1.00,-1.0,2434
3250,2138250,16948,544,-184,16957.73,28.91,-1.00,-1.0,2372
3253,2138253,17076,616,-324,17090.18,28.86,-1.00,-1.0,2434
3255,2138255,17216,492,336,17226.31,28.91,-1.00,-1.0,2371
3258,2138258,17088,792,216,17107.71,28.86,-1.00,-1.0,2428
3261,2138261,17008,692,-160,17022.82,28.91,-1.00,-1.0,2371
3264,2138264,16860,540,-788,16887.04,28.77,-1.00,-1.0,2428
3266,2138266,16808,664,-784,16839.37,28.91,-1.00,-1.0,2377
3271,2138271,17348,276,-124,17350.64,28.91,-1.00,-1.0,2444
3274,2138274,17212,240,-116,17214.06,28.91,-1.00,-1.0,2387
3277,2138277,17192,180,-240,17194.62,28.95,-1.00,-1.0,2359
3279,2138279,16904,200,-560,16914.46,28.95,-1.00,-1.0,2428
3282,2138282,16944,300,-372,16950.74,28.81,-1.00,-1.0,2370
3285,2138285,17004,356,-252,17009.59,28.86,-1.00,-1.0,2427
3288,2138288,17040,540,132,17049.06,29.00,-1.00,-1.0,2369
3290,2138290,17164,596,100,17174.63,28.95,-1.00,-1.0,2430
3293,2138293,17072,548,80,17080.98,28.91,-1.00,-1.0,2375
3298,2138298,17056,164,-440,17062.46,29.00,-1.00,-1.0,2435
3301,2138301,16940,116,-368,16944.39,28.86,-1.00,-1.0,2372
3304,2138304,17036,212,-516,17045.13,28.81,-1.00,-1.0,2436
3306,2138306,17160,196,52,17161.20,28.86,-1.00,-1.0,2357
3309,2138309,17212,368,68,17216.07,28.91,-1.00,-1.0,2430
3312,2138312,17200,372,-76,17204.19,28.95,-1.00,-1.0,2368
3315,2138315,17120,228,-256,17123.43,28.95,-1.00,-1.0,2358
3317,2138317,16964,396,-528,16976.83,28.86,-1.00,-1.0,2432
3320,2138320,16992,584,-292,17004.54,28.81,-1.00,-1.0,2378
3325,2138325,17072,548,-320,17083.79,28.91,-1.00,-1.0,2442
3328,2138328,16924,564,-628,16945.04,28.91,-1.00,-1.0,2372
3331,2138331,16908,472,-552,16923.59,28.91,-1.00,-1.0,2437
3334,2138334,17016,372,-584,17030.08,28.86,-1.00,-1.0,2369
3336,2138336,17076,404,-756,17097.50,28.91,-1.00,-1.0,2445
3339,2138339,17096,412,-456,17107.04,28.81,-1.00,-1.0,2369
3342,2138342,17064,576,-524,17081.76,28.91,-1.00,-1.0,2437
3344,2138344,17172,580,-96,17182.06,28.95,-1.00,-1.0,2373
3347,2138347,17132,576,-132,17142.19,28.95,-1.00,-1.0,2367
3354,2138354,17064,416,-20,17069.08,28.86,-1.00,-1.0,2446
3357,2138357,16924,668,-88,16937.41,28.95,-1.00,-1.0,2371
3360,2138360,16892,700,-224,16907.98,28.91,-1.00,-1.0,2436
3362,2138362,16808,744,-648,16836.93,28.86,-1.00,-1.0,2371
3365,2138365,16816,588,-236,16827.93,28.81,-1.00,-1.0,2429
3368,2138368,17000,588,-384,17014.50,28.95,-1.00,-1.0,2370
3371,2138371,17032,432,-176,17038.39,28.91,-1.00,-1.0,2436
3373,2138373,17180,376,-296,17186.66,28.86,-1.00,-1.0,2371
3378,2138378,17120,256,0,17121.91,28.81,-1.00,-1.0,2435
3381,2138381,17184,268,-336,17189.37,28.91,-1.00,-1.0,2373
3384,2138384,17088,344,-180,17092.41,28.86,-1.00,-1.0,2365
3386,2138386,17064,432,-400,17074.15,28.86,-1.00,-1.0,2436
3389,2138389,16940,440,-324,16948.81,28.86,-1.00,-1.0,2387
3392,2138392,17104,708,-384,17122.95,28.95,-1.00,-1.0,2429
3395,2138395,17036,672,-360,17053.05,28.86,-1.00,-1.0,2374
3397,2138397,17088,636,-148,17100.47,28.86,-1.00,-1.0,2436
3400,2138400,17052,572,-172,17062.46,28.86,-1.00,-1.0,2376
3405,2138405,17044,380,0,17048.24,28.91,-1.00,-1.0,2432
3408,2138408,16980,384,-68,16984.48,28.91,-1.00,-1.0,2379
3411,2138411,17124,436,-380,17133.76,28.86,-1.00,-1.0,2429
3413,2138413,16996,432,-616,17012.64,28.81,-1.00,-1.0,2372
3416,2138416,17052,352,-616,17066.75,28.91,-1.00,-1.0,2427
3419,2138419,17068,564,-536,17085.72,28.91,-1.00,-1.0,2369
3421,2138421,17060,460,-112,17066.57,28.95,-1.00,-1.0,2360
3424,2138424,17132,624,-140,17143.93,28.86,-1.00,-1.0,2442
3427,2138427,16992,492,-128,16999.60,28.95,-1.00,-1.0,2379
3432,2138432,17028,368,-320,17034.98,28.81,-1.00,-1.0,2436
3434,2138434,17104,156,-244,17106.45,29.00,-1.00,-1.0,2372
3437,2138437,17144,432,-352,17153.05,28.95,-1.00,-1.0,2429
3440,2138440,17012,476,-500,17026.00,28.91,-1.00,-1.0,2370
3443,2138443,16932,576,-296,16944.38,28.91,-1.00,-1.0,2436
3445,2138445,17048,676,-252,17063.26,28.91,-1.00,-1.0,2369
3448,2138448,17032,736,-80,17048.08,28.91,-1.00,-1.0,2432
3451,2138451,17024,692,-104,17038.38,28.91,-1.00,-1.0,2369
3456,2138456,17156,404,-108,17161.10,28.95,-1.00,-1.0,2442
3459,2138459,17080,368,-280,17086.26,28.86,-1.00,-1.0,2379
3461,2138461,16964,504,-356,16975.22,28.86,-1.00,-1.0,2360
3464,2138464,16976,536,-412,16989.46,28.91,-1.00,-1.0,2429
3467,2138467,17016,564,-488,17032.34,28.86,-1.00,-1.0,2372
3470,2138470,17016,516,-328,17026.98,28.91,-1.00,-1.0,2431
3472,2138472,17160,588,-436,17175.61,28.86,-1.00,-1.0,2377
3475,2138475,17124,476,-288,17133.04,28.91,-1.00,-1.0,2429
3478,2138478,17104,560,-216,17114.53,28.86,-1.00,-1.0,2370
3483,2138483,17192,376,-236,17197.73,28.86,-1.00,-1.0,2440
3486,2138486,17072,420,-324,17080.24,28.86,-1.00,-1.0,2371
3488,2138488,17116,292,-80,17118.68,28.95,-1.00,-1.0,2443
3491,2138491,17156,268,-96,17158.36,28.95,-1.00,-1.0,2370
3494,2138494,17136,216,-132,17137.87,28.95,-1.00,-1.0,2361
3496,2138496,17092,172,-208,17094.13,28.86,-1.00,-1.0,2431
3499,2138499,17152,228,-40,17153.56,28.86,-1.00,-1.0,2384
3502,2138502,17184,360,-348,17191.29,28.91,-1.00,-1.0,2430
3505,2138505,17068,512,-412,17080.65,28.86,-1.00,-1.0,2372
3510,2138510,16928,652,-500,16947.93,28.95,-1.00,-1.0,2435
3512,2138512,16956,484,-300,16965.56,28.95,-1.00,-1.0,2372
3515,2138515,16928,480,-416,16939.91,28.95,-1.00,-1.0,2428
3518,2138518,17028,404,-272,17034.96,28.95,-1.00,-1.0,2369
3521,2138521,17028,344,-276,17033.71,28.95,-1.00,-1.0,2430
3523,2138523,17140,248,-412,17146.74,28.91,-1.00,-1.0,2370
3526,2138526,17060,188,-240,17062.72,28.95,-1.00,-1.0,2428
3529,2138529,17092,452,-464,17104.27,28.91,-1.00,-1.0,2369
3531,2138531,17092,488,-272,17101.13,28.86,-1.00,-1.0,2361
3536,2138536,16988,576,-456,17003.88,28.86,-1.00,-1.0,2435
3539,2138539,17080,508,-484,17094.41,28.91,-1.00,-1.0,2372
3542,2138542,17244,588,-304,17256.70,28.95,-1.00,-1.0,2433
3544,2138544,17212,496,-376,17223.25,28.81,-1.00,-1.0,2371
3547,2138547,17104,340,-256,17109.29,28.86,-1.00,-1.0,2429
3550,2138550,17080,504,-436,17093.00,29.00,-1.00,-1.0,2371
3553,2138553,17116,432,-284,17123.81,28.86,-1.00,-1.0,2428
3555,2138555,17052,416,-228,17058.60,28.91,-1.00,-1.0,2376
3560,2138560,17040,432,-184,17046.47,28.95,-1.00,-1.0,2435
3563,2138563,17016,508,-140,17024.16,28.91,-1.00,-1.0,2374
3566,2138566,16992,716,-108,17007.42,28.86,-1.00,-1.0,2427
3568,2138568,16936,720,-360,16955.12,28.91,-1.00,-1.0,2356
3571,2138571,16984,636,-492,17003.02,28.86,-1.00,-1.0,2358
3574,2138574,17028,632,-324,17042.80,28.86,-1.00,-1.0,2436
3576,2138576,17024,448,-288,17032.33,28.86,-1.00,-1.0,2371
3579,2138579,17048,428,-376,17057.52,28.95,-1.00,-1.0,2428
3582,2138582,17100,404,-300,17107.40,28.86,-1.00,-1.0,2357
3587,2138587,17040,468,-232,17048.00,28.95,-1.00,-1.0,2441
3589,2138589,17056,364,-352,17063.52,28.86,-1.00,-1.0,2373
3592,2138592,17052,544,-84,17060.88,28.95,-1.00,-1.0,2428
3595,2138595,16980,524,-84,16988.29,28.95,-1.00,-1.0,2370
3598,2138598,17140,540,-116,17148.90,28.86,-1.00,-1.0,2429
3600,2138600,17108,476,-52,17114.70,28.91,-1.00,-1.0,2358
3603,2138603,17056,496,-288,17065.64,28.86,-1.00,-1.0,2428
3606,2138606,17124,440,-348,17133.19,28.81,-1.00,-1.0,2373
3609,2138609,17080,464,-372,17090.35,28.91,-1.00,-1.0,2362
3614,2138614,17116,476,-368,17126.57,28.91,-1.00,-1.0,2435
3616,2138616,17080,488,-264,17089.01,28.86,-1.00,-1.0,2374
3619,2138619,17004,428,-328,17012.55,28.81,-1.00,-1.0,2443
3622,2138622,16960,356,-172,16964.61,28.91,-1.00,-1.0,2366
3625,2138625,17056,468,-272,17064.59,29.00,-1.00,-1.0,2433
3627,2138627,17040,408,-220,17046.30,28.86,-1.00,-1.0,2373
3630,2138630,17016,468,-272,17024.61,28.81,-1.00,-1.0,2434
3633,2138633,17052,512,-124,17060.13,28.91,-1.00,-1.0,2377
3638,2138638,17028,440,-420,17038.86,28.86,-1.00,-1.0,2434
3640,2138640,17036,384,-356,17044.04,28.86,-1.00,-1.0,2373
3643,2138643,16992,460,-300,17000.87,28.95,-1.00,-1.0,2428
3646,2138646,17104,516,-304,17114.48,28.86,-1.00,-1.0,2371
3648,2138648,17096,372,-288,17102.47,28.91,-1.00,-1.0,2359
3651,2138651,17016,368,-380,17024.22,28.91,-1.00,-1.0,2429
3654,2138654,17036,352,-416,17044.71,28.95,-1.00,-1.0,2371
3657,2138657,17092,468,-296,17100.97,28.81,-1.00,-1.0,2434
3660,2138660,17036,604,-268,17048.81,28.86,-1.00,-1.0,2369
3665,2138665,17056,584,-196,17067.12,28.95,-1.00,-1.0,2437
3667,2138667,16980,608,-188,16991.92,28.86,-1.00,-1.0,2382
3670,2138670,17152,660,-212,17166.00,28.86,-1.00,-1.0,2427
3673,2138673,17116,636,-140,17128.38,28.86,-1.00,-1.0,2373
3676,2138676,17036,476,40,17042.70,28.86,-1.00,-1.0,2438
3678,2138678,17104,540,-148,17113.16,28.95,-1.00,-1.0,2381
3681,2138681,17148,484,-156,17155.54,28.95,-1.00,-1.0,2349
3684,2138684,17040,436,-384,17049.90,28.81,-1.00,-1.0,2431
3687,2138687,17024,392,-356,17032.23,28.91,-1.00,-1.0,2370
3692,2138692,17096,444,-348,17105.30,28.86,-1.00,-1.0,2435
3694,2138694,16968,344,-232,16973.07,28.86,-1.00,-1.0,2376
3697,2138697,17020,444,-304,17028.50,28.86,-1.00,-1.0,2428
3700,2138700,17088,380,-404,17097.00,28.95,-1.00,-1.0,2357
3703,2138703,17132,456,-256,17139.98,28.86,-1.00,-1.0,2436
3705,2138705,17044,408,-232,17050.46,28.86,-1.00,-1.0,2379
3708,2138708,17216,424,-140,17221.79,28.86,-1.00,-1.0,2428
3711,2138711,17176,416,-160,17181.78,28.86,-1.00,-1.0,2357
3716,2138716,16988,372,-172,16992.94,28.95,-1.00,-1.0,2441
3719,2138719,17064,264,-356,17069.75,28.81,-1.00,-1.0,2373
3721,2138721,17084,340,-280,17089.68,28.95,-1.00,-1.0,2366
3724,2138724,17124,272,-352,17129.78,28.95,-1.00,-1.0,2429
3727,2138727,17068,416,-252,17074.93,28.86,-1.00,-1.0,2376
3729,2138729,17072,504,-296,17082.00,28.86,-1.00,-1.0,2437
3732,2138732,17172,504,-300,17182.01,28.86,-1.00,-1.0,2387
3735,2138735,17144,596,-368,17158.30,28.95,-1.00,-1.0,2429
3738,2138738,16972,480,-308,16981.58,28.91,-1.00,-1.0,2377
3743,2138743,17052,392,-280,17058.80,28.91,-1.00,-1.0,2442
3745,2138745,17052,496,-276,17061.45,28.81,-1.00,-1.0,2373
3748,2138748,17120,416,-412,17130.01,28.91,-1.00,-1.0,2430
3751,2138751,17132,444,-440,17143.40,28.91,-1.00,-1.0,2371
3754,2138754,17044,376,-296,17050.72,28.91,-1.00,-1.0,2437
3756,2138756,17092,376,-388,17100.54,28.91,-1.00,-1.0,2371
3759,2138759,17144,508,-380,17155.73,28.91,-1.00,-1.0,2360
3762,2138762,17052,616,-456,17069.21,28.95,-1.00,-1.0,2437
3765,2138765,17004,616,-364,17019.05,28.86,-1.00,-1.0,2380
3770,2138770,17000,644,-80,17012.38,28.86,-1.00,-1.0,2439
3772,2138772,17116,480,-104,17123.04,28.95,-1.00,-1.0,2378
3775,2138775,17080,532,-252,17090.14,28.95,-1.00,-1.0,2423
3778,2138778,17124,520,-308,17134.66,28.95,-1.00,-1.0,2378
3781,2138781,17052,492,-176,17060.00,28.95,-1.00,-1.0,2439
3783,2138783,17072,492,-260,17081.07,28.86,-1.00,-1.0,2374
3786,2138786,16904,548,-264,16914.94,28.95,-1.00,-1.0,2439
3789,2138789,17088,488,-376,17099.10,28.86,-1.00,-1.0,2378
3794,2138794,17044,488,-168,17051.81,28.91,-1.00,-1.0,2440
3796,2138796,17024,376,-276,17030.39,28.86,-1.00,-1.0,2381
3799,2138799,17076,244,-276,17079.97,28.81,-1.00,-1.0,2348
3802,2138802,17096,420,-220,17102.57,28.91,-1.00,-1.0,2424
3804,2138804,17108,364,-180,17112.82,28.91,-1.00,-1.0,2377
3807,2138807,17052,476,-324,17061.72,28.91,-1.00,-1.0,2428
3810,2138810,16980,432,-248,16987.30,29.00,-1.00,-1.0,2374
3813,2138813,17028,492,-480,17041.87,28.91,-1.00,-1.0,2422
3816,2138816,17036,536,-412,17049.41,28.95,-1.00,-1.0,2371
3821,2138821,17040,504,-436,17053.03,28.86,-1.00,-1.0,2442
3824,2138824,17148,432,-280,17155.73,28.86,-1.00,-1.0,2373
3826,2138826,17016,480,-436,17028.35,29.00,-1.00,-1.0,2440
3829,2138829,17092,356,-236,17097.34,28.86,-1.00,-1.0,2370
3832,2138832,16912,464,-376,16922.54,29.00,-1.00,-1.0,2435
3835,2138835,17068,524,-484,17082.90,28.95,-1.00,-1.0,2374
3837,2138837,17112,340,-304,17118.08,28.95,-1.00,-1.0,2373
3840,2138840,17160,440,-316,17168.55,29.00,-1.00,-1.0,2429
3843,2138843,17024,428,-240,17031.07,28.91,-1.00,-1.0,2369
3848,2138848,17012,488,-256,17020.92,28.81,-1.00,-1.0,2443
3851,2138851,17024,440,-332,17032.92,28.86,-1.00,-1.0,2374
3853,2138853,17072,492,-160,17079.84,28.81,-1.00,-1.0,2436
3856,2138856,17072,424,-72,17077.42,28.86,-1.00,-1.0,2378
3859,2138859,27240,4548,280,27618.48,28.81,-1.00,-1.0,2431
3862,2138862,20308,-21244,6236,30043.47,28.77,-1.00,-1.0,2371
3864,2138864,32767,26364,-32768,nan,28.91,-1.00,-1.0,2431
3867,2138867,11220,13160,3228,17592.44,29.05,-1.00,-1.0,2368
3872,2138872,32268,-624,2308,32356.45,28.95,-1.00,-1.0,2435
3875,2138875,13692,21668,-13336,28893.29,28.81,-1.00,-1.0,2377
3878,2138878,32767,-15368,32767,nan,28.95,-1.00,-1.0,2420
3880,2138880,32767,15484,-27488,45486.49,28.91,-1.00,-1.0,2376
3883,2138883,-5204,-14808,22260,27237.22,28.95,-1.00,-1.0,2359
3886,2138886,32767,-4388,-2528,33156.02,28.86,-1.00,-1.0,2436
3888,2138888,24360,5420,-21576,32989.54,28.86,-1.00,-1.0,2370
3891,2138891,-6476,-25144,32767,41807.12,28.86,-1.00,-1.0,2428
3894,2138894,20248,22088,-32768,44402.74,28.86,-1.00,-1.0,2421
3899,2138899,10652,1204,-1352,10804.75,28.86,-1.00,-1.0,2440
3902,2138902,21744,-752,-8360,23307.87,28.91,-1.00,-1.0,2383
3905,2138905,15368,-14344,28520,35430.44,28.91,-1.00,-1.0,2438
3907,2138907,20528,11200,-22528,32470.75,28.81,-1.00,-1.0,2371
3910,2138910,21072,-12792,25024,35126.41,28.91,-1.00,-1.0,2439
3913,2138913,17024,5748,-18240,25603.78,28.91,-1.00,-1.0,2377
3916,2138916,12484,8976,-16700,22700.41,28.91,-1.00,-1.0,2435
3918,2138918,15720,-7976,15548,23504.79,29.00,-1.00,-1.0,2370
3923,2138923,13780,-1408,11328,17893.98,28.91,-1.00,-1.0,2438
3926,2138926,17012,4396,-6584,18763.85,28.86,-1.00,-1.0,2372
3929,2138929,18084,4644,-3080,18923.11,28.91,-1.00,-1.0,2430
3931,2138931,15812,-3640,9004,18556.43,28.86,-1.00,-1.0,2368
3934,2138934,16532,4140,-9288,19409.11,28.81,-1.00,-1.0,2429
3937,2138937,17744,-4224,7792,19834.49,28.86,-1.00,-1.0,2369
3940,2138940,18116,3000,-2612,18547.56,28.91,-1.00,-1.0,2435
3942,2138942,14564,1780,-5324,15608.44,28.86,-1.00,-1.0,2368
3947,2138947,16640,1560,-1308,16764.07,28.95,-1.00,-1.0,2437
3950,2138950,16300,552,1760,16404.03,28.95,-1.00,-1.0,2379
3953,2138953,19492,-112,1200,19529.22,28.95,-1.00,-1.0,2428
3956,2138956,14640,912,-3900,15177.99,28.95,-1.00,-1.0,2373
3958,2138958,16904,1172,-1368,16999.71,28.86,-1.00,-1.0,2358
3961,2138961,18020,684,-184,18033.92,28.86,-1.00,-1.0,2429
3964,2138964,16200,1140,484,16247.27,28.86,-1.00,-1.0,2370
3966,2138966,17952,-184,-600,17962.97,28.86,-1.00,-1.0,2428
3969,2138969,18276,84,660,18288.11,28.86,-1.00,-1.0,2368
3974,2138974,18312,468,1220,18358.56,28.95,-1.00,-1.0,2434
3977,2138977,14728,1888,-800,14870.05,28.95,-1.00,-1.0,2372
3979,2138979,16804,1624,-1864,16984.88,28.81,-1.00,-1.0,2428
3982,2138982,18732,-156,3420,19042.28,28.95,-1.00,-1.0,2369
3985,2138985,15668,3464,-3492,16421.92,28.86,-1.00,-1.0,2416
3988,2138988,17696,620,160,17707.58,28.86,-1.00,-1.0,2371
3990,2138990,18088,-500,-628,18105.80,28.86,-1.00,-1.0,2429
3993,2138993,16800,-1544,308,16873.61,28.95,-1.00,-1.0,2372
3998,2138998,17728,1196,-2788,17985.70,28.86,-1.00,-1.0,2436
4001,2139001,16720,0,-152,16720.69,28.95,-1.00,-1.0,2368
4003,2139003,17540,472,216,17547.68,28.81,-1.00,-1.0,2359
4006,2139006,16476,2392,-2024,16771.31,28.81,-1.00,-1.0,2429
4009,2139009,16712,760,500,16736.74,28.86,-1.00,-1.0,2369
4011,2139011,17400,928,-864,17446.14,28.91,-1.00,-1.0,2428
4014,2139014,17316,-116,1140,17353.87,28.95,-1.00,-1.0,2369
4017,2139017,16940,1144,-384,16982.93,28.86,-1.00,-1.0,2443
4020,2139020,17092,672,-2136,17238.05,28.91,-1.00,-1.0,2370
4025,2139025,17228,1376,-1912,17388.30,28.81,-1.00,-1.0,2433
4028,2139028,17220,-4,128,17220.48,28.91,-1.00,-1.0,2371
4031,2139031,17404,-1112,2008,17554.71,28.91,-1.00,-1.0,2430
4033,2139033,17332,1444,-2416,17559.05,28.81,-1.00,-1.0,2369
4036,2139036,17220,-384,1960,17335.44,28.91,-1.00,-1.0,2428
4039,2139039,16860,2032,-2640,17185.99,28.91,-1.00,-1.0,2372
4041,2139041,16912,504,-720,16934.82,28.91,-1.00,-1.0,2429
4044,2139044,17368,16,432,17373.38,28.91,-1.00,-1.0,2370
4047,2139047,16704,1992,-2608,17023.32,28.95,-1.00,-1.0,2366
4052,2139052,17532,-152,320,17535.58,29.00,-1.00,-1.0,2433
4055,2139055,17052,536,-820,17080.12,28.91,-1.00,-1.0,2372
4058,2139058,16836,388,-576,16850.32,28.86,-1.00,-1.0,2429
4060,2139060,16924,1404,-1116,17018.77,28.91,-1.00,-1.0,2356
4063,2139063,17408,268,1348,17462.17,28.91,-1.00,-1.0,2429
4066,2139066,16744,820,-384,16768.46,28.91,-1.00,-1.0,2370
4068,2139068,17108,796,-1172,17166.56,28.91,-1.00,-1.0,2428
4071,2139071,17156,-16,-228,17157.52,28.81,-1.00,-1.0,2369
4076,2139076,17232,516,-332,17242.92,28.81,-1.00,-1.0,2443
4079,2139079,17000,652,-412,17017.49,28.86,-1.00,-1.0,2376
4082,2139082,16964,384,-172,16969.22,28.91,-1.00,-1.0,2438
4084,2139084,17380,-236,668,17394.43,28.86,-1.00,-1.0,2380
4087,2139087,17284,-88,144,17284.82,28.86,-1.00,-1.0,2345
4090,2139090,16904,896,-212,16929.06,28.91,-1.00,-1.0,2427
4092,2139092,17088,936,-272,17115.78,29.00,-1.00,-1.0,2378
4095,2139095,17012,492,184,17020.11,28.91,-1.00,-1.0,2430
4098,2139098,17056,264,76,17058.21,28.91,-1.00,-1.0,2372
4103,2139103,17020,312,172,17023.73,28.91,-1.00,-1.0,2450
4106,2139106,17300,320,-20,17302.97,29.05,-1.00,-1.0,2381
4109,2139109,17072,580,-1212,17124.79,28.91,-1.00,-1.0,2440
4111,2139111,16880,544,-940,16914.90,28.86,-1.00,-1.0,2372
4114,2139114,16864,512,-616,16883.01,28.91,-1.00,-1.0,2438
4117,2139117,17076,688,-348,17093.40,28.86,-1.00,-1.0,2377
4119,2139119,17152,788,-412,17175.03,28.91,-1.00,-1.0,2362
4122,2139122,16940,532,-720,16963.64,28.81,-1.00,-1.0,2428
4125,2139125,17076,244,-444,17083.51,28.91,-1.00,-1.0,2370
4130,2139130,17180,116,-108,17180.73,28.91,-1.00,-1.0,2442
4133,2139133,16928,324,-688,16945.07,28.95,-1.00,-1.0,2374
4136,2139136,16676,1124,-924,16739.36,28.81,-1.00,-1.0,2439
4138,2139138,16896,1076,-728,16945.87,29.00,-1.00,-1.0,2379
4141,2139141,17144,832,324,17167.23,28.91,-1.00,-1.0,2436
4144,2139144,17244,540,-36,17252.49,28.86,-1.00,-1.0,2376
4147,2139147,17088,288,156,17091.14,28.91,-1.00,-1.0,2440
4149,2139149,16980,536,-336,16991.78,28.81,-1.00,-1.0,2379
4154,2139154,17240,228,-28,17241.53,28.91,-1.00,-1.0,2433
4157,2139157,17004,684,-756,17034.54,28.95,-1.00,-1.0,2371
4160,2139160,17052,140,168,17053.40,28.91,-1.00,-1.0,2363
4162,2139162,17276,-124,-144,17277.04,28.91,-1.00,-1.0,2433
4165,2139165,17060,180,44,17061.01,28.91,-1.00,-1.0,2385
4168,2139168,16688,564,-708,16712.53,28.91,-1.00,-1.0,2431
4171,2139171,16904,716,-584,16929.23,28.81,-1.00,-1.0,2374
4173,2139173,16948,576,172,16958.66,28.81,-1.00,-1.0,2437
4176,2139176,17084,796,104,17102.85,28.86,-1.00,-1.0,2370
4183,2139183,17240,560,-268,17251.17,28.91,-1.00,-1.0,2436
4185,2139185,17140,252,132,17142.36,28.91,-1.00,-1.0,2383
4188,2139188,17156,488,-540,17171.43,29.00,-1.00,-1.0,2436
4191,2139191,17112,404,-328,17119.91,28.91,-1.00,-1.0,2377
4193,2139193,17020,364,-280,17026.20,29.00,-1.00,-1.0,2347
4196,2139196,17060,508,-480,17074.31,28.95,-1.00,-1.0,2428
4199,2139199,17244,220,132,17245.91,28.81,-1.00,-1.0,2370
4202,2139202,16928,736,-592,16954.33,28.86,-1.00,-1.0,2435
4204,2139204,16956,812,-524,16983.52,28.91,-1.00,-1.0,2377
4209,2139209,16860,688,-596,16884.55,28.86,-1.00,-1.0,2435
4212,2139212,17000,460,-384,17010.56,28.95,-1.00,-1.0,2372
4215,2139215,17240,176,-108,17241.24,28.86,-1.00,-1.0,2430
4218,2139218,17232,292,-96,17234.74,28.95,-1.00,-1.0,2369
4220,2139220,17176,440,-292,17184.12,28.95,-1.00,-1.0,2430
4223,2139223,17104,352,-564,17116.92,28.86,-1.00,-1.0,2372
4226,2139226,16980,344,-900,17007.31,28.86,-1.00,-1.0,2428
4229,2139229,16960,344,-860,16985.27,28.81,-1.00,-1.0,2370
4231,2139231,17080,484,-508,17094.41,28.86,-1.00,-1.0,2358
4236,2139236,17212,356,24,17215.70,28.86,-1.00,-1.0,2434
4239,2139239,17068,416,-196,17074.19,28.95,-1.00,-1.0,2359
4242,2139242,17004,540,-236,17014.21,28.95,-1.00,-1.0,2436
4244,2139244,16936,528,-120,16944.65,28.86,-1.00,-1.0,2377
4247,2139247,16968,544,-192,16977.80,28.86,-1.00,-1.0,2429
4250,2139250,17172,524,364,17183.85,28.81,-1.00,-1.0,2358
4253,2139253,17132,708,-160,17147.37,28.95,-1.00,-1.0,2436
4255,2139255,17072,624,-352,17087.03,28.91,-1.00,-1.0,2377
4260,2139260,17000,664,-768,17030.29,28.91,-1.00,-1.0,2435
4263,2139263,17052,488,-300,17061.62,29.00,-1.00,-1.0,2372
4266,2139266,17184,512,-92,17191.87,28.91,-1.00,-1.0,2434
4268,2139268,17100,324,-92,17103.32,28.91,-1.00,-1.0,2370
4271,2139271,17160,344,-184,17164.43,28.86,-1.00,-1.0,2373
4274,2139274,17076,312,-340,17082.23,28.86,-1.00,-1.0,2431
4277,2139277,16996,356,4,16999.73,28.91,-1.00,-1.0,2373
4279,2139279,17028,556,-4,17037.08,28.95,-1.00,-1.0,2437
4282,2139282,17052,480,204,17059.97,28.91,-1.00,-1.0,2377
4287,2139287,17064,568,-64,17073.57,29.00,-1.00,-1.0,2435
4290,2139290,17052,476,-188,17059.68,28.95,-1.00,-1.0,2379
4293,2139293,16976,320,-340,16982.42,28.91,-1.00,-1.0,2429
4295,2139295,16944,168,-340,16948.24,28.81,-1.00,-1.0,2369
4298,2139298,17008,364,-540,17020.46,28.91,-1.00,-1.0,2428
4301,2139301,17168,296,-48,17170.62,28.95,-1.00,-1.0,2370
4303,2139303,17224,392,-12,17228.46,28.81,-1.00,-1.0,2363
4306,2139306,17116,412,-204,17122.17,28.95,-1.00,-1.0,2443
4309,2139309,17020,304,-324,17025.80,28.91,-1.00,-1.0,2373
4314,2139314,17148,432,-332,17156.65,28.91,-1.00,-1.0,2433
4317,2139317,17000,600,-464,17016.91,28.86,-1.00,-1.0,2372
4319,2139319,17076,508,-316,17086.48,28.91,-1.00,-1.0,2430
4322,2139322,17044,508,-512,17059.25,28.86,-1.00,-1.0,2371
4325,2139325,16960,452,-664,16979.01,28.91,-1.00,-1.0,2428
4328,2139328,17008,420,-568,17022.66,28.95,-1.00,-1.0,2371
4330,2139330,16948,408,-700,16967.36,28.91,-1.00,-1.0,2430
4333,2139333,17044,428,-692,17063.41,28.86,-1.00,-1.0,2377
4336,2139336,17108,452,-432,17119.42,28.95,-1.00,-1.0,2359
4341,2139341,17208,600,-60,17218.56,28.86,-1.00,-1.0,2436
4343,2139343,17260,600,-56,17270.52,28.95,-1.00,-1.0,2383
4346,2139346,17060,580,-124,17070.31,28.91,-1.00,-1.0,2430
4349,2139349,17080,532,-176,17089.19,28.95,-1.00,-1.0,2357
4352,2139352,16976,684,-344,16993.26,28.95,-1.00,-1.0,2439
4354,2139354,16972,716,-380,16991.35,28.95,-1.00,-1.0,2379
4357,2139357,16848,812,-436,16873.19,28.81,-1.00,-1.0,2438
4360,2139360,17000,564,-184,17010.35,28.86,-1.00,-1.0,2377
4365,2139365,17076,412,-188,17082.00,28.95,-1.00,-1.0,2437
4367,2139367,17240,364,-192,17244.91,28.91,-1.00,-1.0,2373
4370,2139370,17156,292,-168,17159.31,28.86,-1.00,-1.0,2430
4373,2139373,17176,280,-316,17181.19,28.91,-1.00,-1.0,2369
4376,2139376,17128,376,-164,17132.91,28.86,-1.00,-1.0,2358
4378,2139378,17148,288,-100,17150.71,28.95,-1.00,-1.0,2441
4381,2139381,17084,476,-280,17092.92,28.86,-1.00,-1.0,2370
4384,2139384,17056,568,-400,17070.14,29.05,-1.00,-1.0,2436
4387,2139387,16988,696,-360,17006.06,28.95,-1.00,-1.0,2371
4391,2139391,17036,572,-176,17046.51,28.86,-1.00,-1.0,2438
4394,2139394,16984,564,-248,16995.17,28.95,-1.00,-1.0,2372
4397,2139397,17104,436,0,17109.56,28.95,-1.00,-1.0,2439
4400,2139400,17132,384,-256,17138.21,28.86,-1.00,-1.0,2369
4402,2139402,17116,440,-356,17125.36,28.86,-1.00,-1.0,2447
4405,2139405,17020,452,-320,17029.01,28.86,-1.00,-1.0,2370
4408,2139408,17008,504,-488,17022.46,28.86,-1.00,-1.0,2436
4410,2139410,16904,404,-456,16914.97,28.95,-1.00,-1.0,2369
4413,2139413,16964,540,-404,16977.40,28.91,-1.00,-1.0,2358
4418,2139418,17064,436,-116,17069.96,28.95,-1.00,-1.0,2435
4421,2139421,17044,556,-324,17056.14,28.91,-1.00,-1.0,2360
4424,2139424,17024,344,-228,17029.00,28.86,-1.00,-1.0,2426
4426,2139426,17036,224,-316,17040.40,28.91,-1.00,-1.0,2356
4429,2139429,17108,248,-204,17111.01,28.91,-1.00,-1.0,2429
4432,2139432,17084,292,-444,17092.26,28.91,-1.00,-1.0,2357
4435,2139435,16976,328,-364,16983.07,29.00,-1.00,-1.0,2435
4437,2139437,17000,628,-324,17014.68,28.86,-1.00,-1.0,2369
4442,2139442,17036,620,-160,17048.03,28.81,-1.00,-1.0,2435
4445,2139445,16968,608,-180,16979.84,28.81,-1.00,-1.0,2376
4448,2139448,17088,404,-8,17092.78,29.00,-1.00,-1.0,2427
4451,2139451,17112,356,-212,17117.02,28.95,-1.00,-1.0,2366
4453,2139453,17072,396,-196,17077.72,28.91,-1.00,-1.0,2359
4456,2139456,16944,404,-236,16950.46,28.95,-1.00,-1.0,2430
4459,2139459,17064,524,-376,17076.18,28.91,-1.00,-1.0,2371
4462,2139462,16968,480,-260,16976.78,28.95,-1.00,-1.0,2428
4464,2139464,17088,664,-516,17108.68,28.95,-1.00,-1.0,2369
4469,2139469,16948,676,-196,16962.61,28.86,-1.00,-1.0,2435
4472,2139472,17060,520,-232,17069.50,28.81,-1.00,-1.0,2373
4475,2139475,16964,596,-140,16975.04,29.05,-1.00,-1.0,2415
4478,2139478,17004,480,-220,17012.20,29.00,-1.00,-1.0,2369
4480,2139480,17144,412,-228,17150.46,28.77,-1.00,-1.0,2430
4483,2139483,17088,384,-216,17093.68,28.91,-1.00,-1.0,2378
4486,2139486,17172,220,-172,17174.27,28.95,-1.00,-1.0,2359
4489,2139489,17208,196,-80,17209.30,28.86,-1.00,-1.0,2428
4492,2139492,17012,308,-176,17015.70,28.86,-1.00,-1.0,2373
4496,2139496,17028,564,-176,17038.25,28.95,-1.00,-1.0,2433
4499,2139499,16980,640,-396,16996.67,28.86,-1.00,-1.0,2372
4502,2139502,16896,760,-188,16914.13,28.95,-1.00,-1.0,2429
4505,2139505,17004,584,-384,17018.36,28.86,-1.00,-1.0,2371
4507,2139507,16944,548,-280,16955.17,28.95,-1.00,-1.0,2427
4510,2139510,17000,548,-196,17009.96,28.86,-1.00,-1.0,2370
4513,2139513,16964,368,-352,16971.64,28.95,-1.00,-1.0,2428
4516,2139516,17064,232,-300,17068.21,28.86,-1.00,-1.0,2371
4521,2139521,17072,288,-332,17077.66,28.91,-1.00,-1.0,2440
4523,2139523,17124,480,-264,17132.76,28.91,-1.00,-1.0,2377
4526,2139526,17124,416,-340,17132.43,28.86,-1.00,-1.0,2361
4529,2139529,17144,544,-384,17156.93,28.95,-1.00,-1.0,2429
4531,2139531,17100,612,-228,17112.47,28.95,-1.00,-1.0,2377
4534,2139534,17156,548,-316,17167.66,28.95,-1.00,-1.0,2430
4537,2139537,17108,556,-332,17120.25,28.95,-1.00,-1.0,2369
4540,2139540,17064,488,-196,17072.10,28.86,-1.00,-1.0,2426
4543,2139543,17028,476,-328,17037.81,28.91,-1.00,-1.0,2373
4548,2139548,17104,268,-312,17108.95,28.91,-1.00,-1.0,2433
4550,2139550,17072,324,-276,17077.30,28.81,-1.00,-1.0,2371
4553,2139553,17136,368,-244,17141.69,28.91,-1.00,-1.0,2429
4556,2139556,17064,448,-216,17071.25,28.86,-1.00,-1.0,2378
4559,2139559,17024,536,-232,17034.02,28.91,-1.00,-1.0,2427
4561,2139561,17108,580,-240,17119.51,28.95,-1.00,-1.0,2356
4564,2139564,17008,600,-304,17021.29,28.91,-1.00,-1.0,2354
4567,2139567,17048,568,-260,17059.44,28.95,-1.00,-1.0,2439
4570,2139570,16908,452,-432,16919.56,28.95,-1.00,-1.0,2380
4575,2139575,17052,436,-160,17058.32,28.91,-1.00,-1.0,2433
4577,2139577,17000,392,-136,17005.06,28.91,-1.00,-1.0,2373
4580,2139580,17128,412,-144,17133.56,28.86,-1.00,-1.0,2444
4583,2139583,17000,360,-88,17004.04,28.91,-1.00,-1.0,2368
4586,2139586,17148,444,-132,17154.26,28.91,-1.00,-1.0,2429
4588,2139588,17164,352,-40,17167.66,28.81,-1.00,-1.0,2370
4591,2139591,17032,456,64,17038.22,29.00,-1.00,-1.0,2428
4594,2139594,17080,484,-192,17087.94,28.91,-1.00,-1.0,2378
4599,2139599,16984,604,-320,16997.75,28.91,-1.00,-1.0,2434
4601,2139601,17032,560,-356,17044.92,28.91,-1.00,-1.0,2372
4604,2139604,17084,504,-336,17094.73,28.95,-1.00,-1.0,2361
4607,2139607,17088,416,-232,17094.64,28.86,-1.00,-1.0,2440
4609,2139609,17060,568,-356,17073.16,29.05,-1.00,-1.0,2375
4612,2139612,17112,388,-324,17119.46,28.95,-1.00,-1.0,2439
4615,2139615,17048,380,-384,17056.56,28.86,-1.00,-1.0,2377
4618,2139618,17088,568,-268,17099.54,28.91,-1.00,-1.0,2429
4621,2139621,17100,528,-184,17109.14,28.95,-1.00,-1.0,2372
4625,2139625,17068,476,-168,17075.46,28.86,-1.00,-1.0,2433
4628,2139628,17152,488,-296,17161.49,28.91,-1.00,-1.0,2371
4631,2139631,16996,520,-252,17005.82,28.91,-1.00,-1.0,2429
4634,2139634,17052,524,-268,17062.15,28.86,-1.00,-1.0,2370
4636,2139636,17044,512,-392,17056.19,28.91,-1.00,-1.0,2363
4639,2139639,17084,372,-412,17093.02,28.91,-1.00,-1.0,2428
4642,2139642,17088,540,-516,17104.31,28.81,-1.00,-1.0,2371
4645,2139645,17156,412,-316,17163.86,28.91,-1.00,-1.0,2427
4648,2139648,17068,444,-180,17074.72,28.91,-1.00,-1.0,2370
4653,2139653,17096,392,-240,17102.18,28.91,-1.00,-1.0,2438
4655,2139655,17048,424,-292,17055.77,28.95,-1.00,-1.0,2381
4658,2139658,17020,416,-300,17027.73,28.91,-1.00,-1.0,2430
4661,2139661,17024,556,-200,17034.25,28.95,-1.00,-1.0,2369
4664,2139664,16988,404,-228,16994.33,28.91,-1.00,-1.0,2437
4666,2139666,17004,572,-160,17014.37,28.86,-1.00,-1.0,2378
4669,2139669,17076,552,-388,17089.32,28.91,-1.00,-1.0,2429
4672,2139672,17140,520,-184,17148.87,28.95,-1.00,-1.0,2373
4675,2139675,17128,380,-256,17134.13,28.91,-1.00,-1.0,2358
4680,2139680,17044,460,-356,17053.92,28.91,-1.00,-1.0,2437
4682,2139682,17028,444,-236,17035.42,28.86,-1.00,-1.0,2380
4685,2139685,17104,464,-284,17112.65,28.91,-1.00,-1.0,2430
4688,2139688,17064,524,-252,17073.90,28.86,-1.00,-1.0,2369
4691,2139691,17100,576,-208,17110.96,28.91,-1.00,-1.0,2435
4693,2139693,17028,548,-240,17038.51,28.86,-1.00,-1.0,2377
4696,2139696,17084,556,-340,17096.43,28.91,-1.00,-1.0,2429
4699,2139699,17160,496,-224,17168.63,28.95,-1.00,-1.0,2357
4704,2139704,16948,540,-136,16957.15,28.86,-1.00,-1.0,2441
4707,2139707,17112,468,-124,17118.85,28.77,-1.00,-1.0,2373
4709,2139709,17116,496,-284,17125.54,28.86,-1.00,-1.0,2445
4712,2139712,17124,456,-200,17131.24,28.86,-1.00,-1.0,2369
4715,2139715,17132,448,-96,17138.12,28.91,-1.00,-1.0,2362
4717,2139717,17116,424,-280,17123.54,28.86,-1.00,-1.0,2440
4720,2139720,17028,468,-304,17037.14,28.81,-1.00,-1.0,2357
4723,2139723,17108,488,-332,17118.18,28.86,-1.00,-1.0,2431
4726,2139726,17036,452,-336,17045.31,28.95,-1.00,-1.0,2374
4731,2139731,17060,496,-272,17069.38,28.81,-1.00,-1.0,2437
4734,2139734,17000,576,-380,17014.00,28.91,-1.00,-1.0,2369
4736,2139736,17088,476,-352,17098.25,28.91,-1.00,-1.0,2432
4739,2139739,17092,476,-340,17102.01,28.91,-1.00,-1.0,2374
4742,2139742,16996,388,-360,17004.24,28.91,-1.00,-1.0,2432
4745,2139745,17076,492,-284,17085.45,28.91,-1.00,-1.0,2373
4747,2139747,17100,572,-488,17116.52,28.91,-1.00,-1.0,2419
4750,2139750,17068,472,-504,17081.96,28.91,-1.00,-1.0,2382
4753,2139753,16912,504,-456,16925.65,28.95,-1.00,-1.0,2361
4758,2139758,17032,564,-468,17047.76,28.95,-1.00,-1.0,2437
4760,2139760,17056,636,-280,17070.15,28.81,-1.00,-1.0,2372
4763,2139763,17124,608,-364,17138.66,28.77,-1.00,-1.0,2419
4766,2139766,17120,564,-336,17132.58,28.81,-1.00,-1.0,2368
4769,2139769,17056,488,-204,17064.20,28.86,-1.00,-1.0,2432
4771,2139771,17080,556,-148,17089.69,28.91,-1.00,-1.0,2370
4774,2139774,16956,516,-456,16969.98,28.95,-1.00,-1.0,2432
4777,2139777,17112,504,-204,17120.64,28.91,-1.00,-1.0,2367
4782,2139782,17076,544,-240,17086.35,28.91,-1.00,-1.0,2443
4785,2139785,16988,420,-232,16994.78,28.86,-1.00,-1.0,2370
4787,2139787,17088,428,-244,17095.10,28.91,-1.00,-1.0,2448
4790,2139790,17056,404,-148,17061.43,28.91,-1.00,-1.0,2367
4793,2139793,17064,476,-340,17074.02,28.81,-1.00,-1.0,2361
4795,2139795,17100,368,-172,17104.82,28.95,-1.00,-1.0,2435
4798,2139798,17032,412,-224,17038.46,29.00,-1.00,-1.0,2384
4801,2139801,17088,476,-140,17095.20,28.91,-1.00,-1.0,2431
4804,2139804,17064,384,-232,17069.90,28.91,-1.00,-1.0,2374
4809,2139809,17044,504,-288,17053.88,28.91,-1.00,-1.0,2440
4811,2139811,17028,400,-308,17035.48,28.91,-1.00,-1.0,2378
4814,2139814,17080,420,-424,17090.42,28.95,-1.00,-1.0,2440
4817,2139817,17068,404,-228,17074.30,28.91,-1.00,-1.0,2372
4820,2139820,17060,508,-340,17070.95,28.86,-1.00,-1.0,2439
4822,2139822,17060,564,-336,17072.63,29.00,-1.00,-1.0,2376
4825,2139825,17048,504,-364,17059.33,28.86,-1.00,-1.0,2438
4828,2139828,17196,532,-400,17208.88,28.91,-1.00,-1.0,2355
4831,2139831,17104,424,-348,17112.79,28.91,-1.00,-1.0,2346
4836,2139836,17096,496,-212,17104.51,28.86,-1.00,-1.0,2441
4838,2139838,17052,424,-280,17059.57,28.91,-1.00,-1.0,2378
4841,2139841,16020,452,-104,16026.71,28.86,-1.00,-1.0,2440
4844,2139844,32767,-27660,-12320,44615.40,28.91,-1.00,-1.0,2373
4847,2139847,-20180,4668,-17988,27433.39,28.91,-1.00,-1.0,2436
4849,2139849,-31152,21052,6040,38080.38,28.86,-1.00,-1.0,2367
4852,2139852,32767,-16104,15444,39642.55,28.86,-1.00,-1.0,2433
4855,2139855,12940,-7392,30340,33802.38,28.95,-1.00,-1.0,2367
4860,2139860,32767,-12432,12436,37187.16,28.95,-1.00,-1.0,2439
4863,2139863,-284,-8544,-384,8557.34,28.95,-1.00,-1.0,2373
4865,2139865,-5364,-14452,-7772,17263.74,28.86,-1.00,-1.0,2431
4868,2139868,32767,1292,-12556,35114.08,28.95,-1.00,-1.0,2369
4871,2139871,-17260,16584,-32060,40009.75,28.86,-1.00,-1.0,2431
4874,2139874,31420,-21576,32767,nan,28.91,-1.00,-1.0,2367
4876,2139876,32767,23120,-32768,nan,29.00,-1.00,-1.0,2422
4879,2139879,5848,-3232,20828,21873.51,28.86,-1.00,-1.0,2364
4884,2139884,12768,3616,-23992,27417.39,28.95,-1.00,-1.0,2443
4887,2139887,19708,-10588,20764,30523.02,28.95,-1.00,-1.0,2360
4890,2139890,18024,4444,-17044,25201.42,28.86,-1.00,-1.0,2438
4892,2139892,19036,-9688,16596,27049.10,28.95,-1.00,-1.0,2377
4895,2139895,22676,4112,-3664,23335.26,28.86,-1.00,-1.0,2437
4898,2139898,8372,7428,-22032,24711.83,28.86,-1.00,-1.0,2371
4900,2139900,23644,-5388,8296,25629.92,28.95,-1.00,-1.0,2362
4903,2139903,19856,7228,-10964,23805.76,28.86,-1.00,-1.0,2430
4906,2139906,15876,1672,2148,16107.67,28.95,-1.00,-1.0,2368
4911,2139911,10036,6256,-7912,14228.79,28.86,-1.00,-1.0,2437
4914,2139914,17416,268,2580,17608.10,28.95,-1.00,-1.0,2378
4916,2139916,17808,1888,-4724,18520.41,28.86,-1.00,-1.0,2418
4919,2139919,17212,-2292,748,17380.04,28.86,-1.00,-1.0,2382
4922,2139922,17712,-2020,3584,18183.52,28.86,-1.00,-1.0,2431
4925,2139925,16360,2288,-256,16521.20,28.86,-1.00,-1.0,2373
4927,2139927,20140,2424,-2408,20427.77,28.86,-1.00,-1.0,2434
4930,2139930,15664,-392,3280,16008.53,28.86,-1.00,-1.0,2382
4935,2139935,18816,-1164,3192,19120.29,28.86,-1.00,-1.0,2434
4938,2139938,16892,-1448,1916,17061.87,29.00,-1.00,-1.0,2378
4941,2139941,19152,4488,-5516,20429.57,28.95,-1.00,-1.0,2431
4943,2139943,15608,372,3216,15940.22,29.00,-1.00,-1.0,2368
4946,2139946,15900,700,-2020,16043.08,28.86,-1.00,-1.0,2430
4949,2139949,18492,288,-832,18512.95,28.81,-1.00,-1.0,2376
4951,2139951,15856,-1124,708,15911.55,28.95,-1.00,-1.0,2364
4954,2139954,16860,-412,-1404,16923.37,28.95,-1.00,-1.0,2444
4957,2139957,18756,-1032,3680,19141.45,28.81,-1.00,-1.0,2368
4962,2139962,18076,1092,-316,18111.71,28.91,-1.00,-1.0,2434
4965,2139965,16500,-1636,7176,18067.14,28.91,-1.00,-1.0,2370
4967,2139967,15412,3536,-6616,17140.73,28.91,-1.00,-1.0,2432
4970,2139970,19228,-1120,3056,19501.53,28.95,-1.00,-1.0,2368
4973,2139973,17020,1152,-4324,17598.42,28.91,-1.00,-1.0,2430
4976,2139976,17996,-1652,-4,18071.67,28.91,-1.00,-1.0,2369
4978,2139978,18608,-2320,2128,18872.43,28.91,-1.00,-1.0,2432
4981,2139981,16856,1740,-3732,17351.66,28.86,-1.00,-1.0,2370
4986,2139986,17784,1992,-3040,18151.59,28.95,-1.00,-1.0,2450
4989,2139989,15056,2280,-2520,15434.76,28.95,-1.00,-1.0,2377
4992,2139992,17080,256,668,17094.97,28.91,-1.00,-1.0,2445
4994,2139994,18000,1420,-1904,18156.04,28.86,-1.00,-1.0,2378
4997,2139997,17416,-1156,4008,17908.59,28.86,-1.00,-1.0,2438
5000,2140000,17696,1136,-688,17745.77,28.86,-1.00,-1.0,2371
5003,2140003,16748,892,-2424,16946.00,28.91,-1.00,-1.0,2443
5005,2140005,16700,-1436,788,16780.14,28.86,-1.00,-1.0,2378
5008,2140008,17000,1528,-1888,17172.63,28.86,-1.00,-1.0,2360
5014,2140014,17228,-304,620,17241.83,28.86,-1.00,-1.0,2453
5016,2140016,17340,1076,-1176,17413.11,28.86,-1.00,-1.0,2371
5019,2140019,16988,260,788,17008.25,28.95,-1.00,-1.0,2447
5022,2140022,16724,1108,-1292,16810.39,28.95,-1.00,-1.0,2363
5025,2140025,16808,276,-364,16814.21,28.95,-1.00,-1.0,2432
5027,2140027,17424,268,204,17427.26,28.86,-1.00,-1.0,2370
5030,2140030,16956,1676,-1872,17141.16,28.77,-1.00,-1.0,2439
5033,2140033,16944,468,356,16954.20,28.86,-1.00,-1.0,2375
5038,2140038,16748,424,-612,16764.54,28.91,-1.00,-1.0,2439
5040,2140040,16892,756,-992,16937.98,28.91,-1.00,-1.0,2377
5043,2140043,17284,1448,-956,17370.88,28.91,-1.00,-1.0,2440
5046,2140046,17148,492,1480,17218.78,28.86,-1.00,-1.0,2422
5049,2140049,17384,792,428,17407.29,28.91,-1.00,-1.0,2370
5051,2140051,16988,824,-1208,17050.82,28.91,-1.00,-1.0,2429
5054,2140054,17020,-220,-728,17036.98,28.91,-1.00,-1.0,2377
5057,2140057,16976,524,-660,16996.90,28.91,-1.00,-1.0,2427
5060,2140060,17276,700,-356,17293.84,28.81,-1.00,-1.0,2381
5065,2140065,16792,904,-288,16818.78,28.91,-1.00,-1.0,2439
5067,2140067,17332,8,172,17332.86,28.81,-1.00,-1.0,2376
5070,2140070,17032,-392,456,17042.61,28.91,-1.00,-1.0,2440
5073,2140073,16844,1136,-292,16884.79,28.91,-1.00,-1.0,2376
5076,2140076,17296,936,92,17321.55,29.00,-1.00,-1.0,2444
5078,2140078,17012,244,336,17017.07,28.91,-1.00,-1.0,2371
5081,2140081,16968,188,-324,16972.13,29.00,-1.00,-1.0,2438
5084,2140084,17328,-132,444,17334.19,28.91,-1.00,-1.0,2375
5086,2140086,17024,332,-188,17028.28,28.91,-1.00,-1.0,2361
5091,2140091,17036,300,64,17038.76,28.91,-1.00,-1.0,2447
5094,2140094,16856,880,-1420,16938.58,28.91,-1.00,-1.0,2387
5097,2140097,16956,120,-192,16957.51,28.86,-1.00,-1.0,2432
5100,2140100,17124,392,-368,17132.44,28.91,-1.00,-1.0,2375
5102,2140102,17224,840,-320,17247.44,28.86,-1.00,-1.0,2434
5105,2140105,17136,468,-636,17154.18,28.91,-1.00,-1.0,2384
5108,2140108,17236,144,-388,17240.97,28.95,-1.00,-1.0,2431
5111,2140111,17260,80,-220,17261.59,28.81,-1.00,-1.0,2371
5116,2140116,17116,-112,-188,17117.40,29.00,-1.00,-1.0,2436
5118,2140118,16904,864,-888,16949.34,29.00,-1.00,-1.0,2374
5121,2140121,16936,1404,-1064,17027.37,28.91,-1.00,-1.0,2444
5124,2140124,17168,736,396,17188.33,28.91,-1.00,-1.0,2370
5126,2140126,17172,972,-220,17200.89,28.91,-1.00,-1.0,2368
5129,2140129,17192,464,296,17200.81,28.86,-1.00,-1.0,2430
5132,2140132,16920,596,-856,16952.12,28.91,-1.00,-1.0,2371
5135,2140135,17104,480,-604,17121.39,28.86,-1.00,-1.0,2438
5137,2140137,17204,188,-28,17205.05,28.91,-1.00,-1.0,2378
5142,2140142,17072,296,-360,17078.36,28.91,-1.00,-1.0,2444
5145,2140145,17144,28,-388,17148.41,28.91,-1.00,-1.0,2371
5148,2140148,16960,-24,260,16962.01,28.91,-1.00,-1.0,2432
5151,2140151,17064,500,-548,17080.12,28.91,-1.00,-1.0,2368
5153,2140153,16848,792,-1004,16896.46,28.91,-1.00,-1.0,2444
5156,2140156,16816,532,44,16824.47,28.91,-1.00,-1.0,2369
5159,2140159,17048,812,-124,17067.78,28.86,-1.00,-1.0,2363
5161,2140161,17108,664,132,17121.39,28.77,-1.00,-1.0,2431
5164,2140164,17184,468,16,17190.38,28.86,-1.00,-1.0,2368
5169,2140169,17324,324,308,17329.77,28.86,-1.00,-1.0,2443
5172,2140172,17020,588,-444,17035.94,28.81,-1.00,-1.0,2377
5175,2140175,16972,404,-184,16977.80,28.95,-1.00,-1.0,2436
5178,2140178,17072,540,-660,17093.29,28.91,-1.00,-1.0,2370
5180,2140180,17132,220,-264,17135.45,28.95,-1.00,-1.0,2439
5183,2140183,17236,436,-220,17242.92,28.91,-1.00,-1.0,2376
5186,2140186,17036,788,-348,17057.77,28.86,-1.00,-1.0,2420
5189,2140189,16872,856,-540,16902.33,29.00,-1.00,-1.0,2368
5193,2140193,16668,716,-700,16698.05,29.00,-1.00,-1.0,2434
5196,2140196,17012,384,-416,17021.42,29.00,-1.00,-1.0,2370
5199,2140199,17324,100,104,17324.60,28.91,-1.00,-1.0,2365
5202,2140202,17248,288,-36,17250.44,28.95,-1.00,-1.0,2431
5204,2140204,17160,364,-236,17165.48,29.00,-1.00,-1.0,2369
5207,2140207,17048,404,-764,17069.89,28.91,-1.00,-1.0,2429
5210,2140210,16912,332,-1152,16954.44,28.91,-1.00,-1.0,2374
5213,2140213,16904,404,-840,16929.68,28.91,-1.00,-1.0,2431
5215,2140215,17048,492,-572,17064.69,28.91,-1.00,-1.0,2369
5220,2140220,17156,412,236,17162.57,28.91,-1.00,-1.0,2434
5223,2140223,16916,552,-132,16925.52,28.91,-1.00,-1.0,2378
5226,2140226,17084,564,-200,17094.48,28.86,-1.00,-1.0,2431
5228,2140228,17088,564,-72,17097.46,28.91,-1.00,-1.0,2368
5231,2140231,17128,592,4,17138.23,28.86,-1.00,-1.0,2367
5234,2140234,17168,540,436,17182.02,28.86,-1.00,-1.0,2440
5236,2140236,17104,848,-84,17125.21,28.86,-1.00,-1.0,2375
5239,2140239,16984,560,-404,16998.03,28.95,-1.00,-1.0,2439
5242,2140242,16940,500,-828,16967.59,28.81,-1.00,-1.0,2370
5247,2140247,17152,264,-156,17154.74,28.95,-1.00,-1.0,2452
5250,2140250,17276,268,-136,17278.61,28.86,-1.00,-1.0,2379
5253,2140253,17272,80,128,17272.66,28.86,-1.00,-1.0,2442
5255,2140255,17004,316,-424,17012.22,28.86,-1.00,-1.0,2374
5258,2140258,16924,164,-396,16929.43,28.95,-1.00,-1.0,2425
5261,2140261,17072,408,-228,17078.40,28.95,-1.00,-1.0,2376
5264,2140264,16996,564,80,17005.54,28.95,-1.00,-1.0,2440
5266,2140266,17160,548,348,17172.27,28.86,-1.00,-1.0,2370
5269,2140269,17120,664,8,17132.87,28.95,-1.00,-1.0,2361
5274,2140274,17052,360,-356,17059.51,28.91,-1.00,-1.0,2439
5277,2140277,16976,132,-416,16981.61,28.91,-1.00,-1.0,2371
5280,2140280,17020,368,-568,17033.45,28.86,-1.00,-1.0,2436
5282,2140282,17068,288,-464,17076.73,28.91,-1.00,-1.0,2369
5285,2140285,17196,308,60,17198.86,28.77,-1.00,-1.0,2428
5288,2140288,17204,400,-132,17209.16,28.91,-1.00,-1.0,2370
5291,2140291,17008,188,-156,17009.75,28.81,-1.00,-1.0,2435
5293,2140293,17060,312,-548,17071.65,28.91,-1.00,-1.0,2372
5298,2140298,16992,436,-336,17000.91,29.00,-1.00,-1.0,2446
5301,2140301,17092,652,-472,17110.94,29.05,-1.00,-1.0,2387
5304,2140304,17068,564,-388,17081.72,28.81,-1.00,-1.0,2360
5306,2140306,16952,668,-720,16980.43,28.86,-1.00,-1.0,2428
5309,2140309,16988,556,-516,17004.93,28.91,-1.00,-1.0,2369
5312,2140312,16972,468,-840,16999.22,28.81,-1.00,-1.0,2428
5315,2140315,17036,536,-724,17059.80,28.91,-1.00,-1.0,2369
5317,2140317,17148,400,-560,17161.80,28.91,-1.00,-1.0,2430
5320,2140320,17120,680,-508,17141.03,28.91,-1.00,-1.0,2380
5327,2140327,17084,664,-88,17097.12,28.91,-1.00,-1.0,2434
5330,2140330,17188,540,-44,17196.54,28.95,-1.00,-1.0,2426
5333,2140333,16972,824,-116,16992.39,28.91,-1.00,-1.0,2432
5336,2140336,16784,748,-284,16803.06,28.86,-1.00,-1.0,2377
5338,2140338,16844,860,-652,16878.54,28.91,-1.00,-1.0,2360
5341,2140341,16844,680,-420,16862.95,28.86,-1.00,-1.0,2424
5344,2140344,16892,632,-352,16907.48,28.91,-1.00,-1.0,2375
5347,2140347,17100,512,-148,17108.30,28.95,-1.00,-1.0,2422
5349,2140349,17052,340,-92,17055.64,28.91,-1.00,-1.0,2377
5354,2140354,17188,288,-16,17190.42,28.91,-1.00,-1.0,2441
5357,2140357,17172,240,-168,17174.50,28.91,-1.00,-1.0,2378
5360,2140360,17108,292,-176,17111.40,28.91,-1.00,-1.0,2440
5363,2140363,17164,304,-180,17167.63,28.91,-1.00,-1.0,2377
5365,2140365,17152,404,-76,17156.93,28.91,-1.00,-1.0,2434
5368,2140368,16912,564,-252,16923.28,28.91,-1.00,-1.0,2377
5371,2140371,16920,660,-260,16934.86,28.91,-1.00,-1.0,2419
5374,2140374,17024,576,-460,17039.95,28.95,-1.00,-1.0,2367
5376,2140376,17024,408,-112,17029.26,28.81,-1.00,-1.0,2361
5381,2140381,17160,100,-4,17160.29,28.91,-1.00,-1.0,2449
5384,2140384,17196,332,-80,17199.39,28.86,-1.00,-1.0,2381
5387,2140387,17100,424,-212,17106.57,28.91,-1.00,-1.0,2443
5389,2140389,16968,344,-504,16978.97,29.00,-1.00,-1.0,2371
5392,2140392,17016,356,-548,17028.54,28.91,-1.00,-1.0,2439
5395,2140395,17044,608,-664,17067.76,28.86,-1.00,-1.0,2377
5398,2140398,17036,592,-444,17052.06,28.91,-1.00,-1.0,2439
5400,2140400,17052,628,-264,17065.60,28.81,-1.00,-1.0,2371
5405,2140405,17028,536,-404,17041.22,28.91,-1.00,-1.0,2433
5408,2140408,17068,408,-480,17079.62,28.95,-1.00,-1.0,2371
5411,2140411,17220,260,-412,17226.89,28.95,-1.00,-1.0,2446
5413,2140413,17156,148,-352,17160.25,28.95,-1.00,-1.0,2368
5416,2140416,17056,320,-508,17066.56,29.00,-1.00,-1.0,2365
5419,2140419,17064,504,-256,17073.36,28.91,-1.00,-1.0,2434
5422,2140422,16900,724,-352,16919.16,28.91,-1.00,-1.0,2369
5424,2140424,17060,736,-220,17077.29,28.91,-1.00,-1.0,2439
5427,2140427,16992,720,-116,17007.64,29.00,-1.00,-1.0,2367
5432,2140432,17108,376,0,17112.13,29.00,-1.00,-1.0,2440
5435,2140435,17016,436,-152,17022.26,28.91,-1.00,-1.0,2371
5437,2140437,17116,412,-256,17122.87,28.95,-1.00,-1.0,2442
5440,2140440,17000,452,-336,17009.33,28.91,-1.00,-1.0,2376
5443,2140443,17012,684,-352,17029.38,28.91,-1.00,-1.0,2418
5446,2140446,17036,592,-304,17048.99,28.91,-1.00,-1.0,2369
5448,2140448,17068,580,-560,17087.03,28.86,-1.00,-1.0,2366
5451,2140451,16948,588,-272,16960.38,28.86,-1.00,-1.0,2431
5454,2140454,17092,572,-408,17106.44,28.91,-1.00,-1.0,2372
5458,2140458,17000,480,-192,17007.86,28.86,-1.00,-1.0,2434
5461,2140461,17056,496,-508,17070.77,28.86,-1.00,-1.0,2374
5464,2140464,17036,408,-212,17042.20,28.95,-1.00,-1.0,2432
5467,2140467,17128,292,-296,17133.05,28.95,-1.00,-1.0,2370
5469,2140469,17220,208,-144,17221.86,28.86,-1.00,-1.0,2431
5472,2140472,17180,232,-168,17182.39,28.95,-1.00,-1.0,2371
5475,2140475,17164,368,-116,17168.34,28.86,-1.00,-1.0,2432
5478,2140478,17068,464,-252,17076.17,28.95,-1.00,-1.0,2373
5483,2140483,17044,608,-368,17058.81,28.86,-1.00,-1.0,2439
5485,2140485,16992,652,-372,17008.57,28.91,-1.00,-1.0,2376
5488,2140488,16976,696,-452,16996.27,28.86,-1.00,-1.0,2363
5491,2140491,16988,484,-264,16996.94,28.95,-1.00,-1.0,2426
5493,2140493,17040,412,-236,17046.61,28.86,-1.00,-1.0,2376
5496,2140496,17056,328,-208,17060.42,28.95,-1.00,-1.0,2430
5499,2140499,17008,268,-340,17013.51,28.86,-1.00,-1.0,2368
5502,2140502,17000,160,-312,17003.62,28.86,-1.00,-1.0,2440
5504,2140504,17104,108,-188,17105.38,28.95,-1.00,-1.0,2380
5509,2140509,16976,368,-392,16984.51,28.91,-1.00,-1.0,2455
5512,2140512,17012,508,-308,17022.37,28.81,-1.00,-1.0,2370
5515,2140515,17136,528,-372,17148.17,28.81,-1.00,-1.0,2435
5518,2140518,17140,524,-352,17151.62,28.95,-1.00,-1.0,2367
5520,2140520,17028,612,-292,17041.50,28.81,-1.00,-1.0,2433
5523,2140523,16964,556,-256,16975.04,28.91,-1.00,-1.0,2366
5526,2140526,17152,544,-332,17163.84,28.91,-1.00,-1.0,2361
5529,2140529,17140,524,-360,17151.79,28.86,-1.00,-1.0,2433
5531,2140531,17080,432,-336,17088.77,28.91,-1.00,-1.0,2367
5536,2140536,17052,364,-144,17056.49,28.81,-1.00,-1.0,2438
5539,2140539,17036,492,-276,17045.34,28.91,-1.00,-1.0,2372
5542,2140542,17148,592,-168,17159.04,28.91,-1.00,-1.0,2439
5544,2140544,17020,764,-320,17040.14,28.91,-1.00,-1.0,2367
5547,2140547,17104,696,-404,17122.92,28.81,-1.00,-1.0,2432
5550,2140550,17008,672,-436,17026.85,28.91,-1.00,-1.0,2367
5553,2140553,17100,584,-432,17115.42,28.91,-1.00,-1.0,2440
5555,2140555,17076,404,-160,17081.53,28.81,-1.00,-1.0,2367
5560,2140560,17104,384,-184,17109.30,28.91,-1.00,-1.0,2432
5563,2140563,17020,400,-228,17026.23,28.95,-1.00,-1.0,2376
5566,2140566,16988,332,-168,16992.07,28.91,-1.00,-1.0,2359
5568,2140568,17108,436,-136,17114.10,28.91,-1.00,-1.0,2419
5571,2140571,17084,396,-100,17088.88,28.91,-1.00,-1.0,2368
5574,2140574,17112,452,48,17118.04,28.91,-1.00,-1.0,2431
5577,2140577,17068,408,-100,17073.17,28.86,-1.00,-1.0,2366
5579,2140579,17156,448,-264,17163.88,29.00,-1.00,-1.0,2433
5582,2140582,17012,452,-436,17023.59,28.91,-1.00,-1.0,2372
5587,2140587,17056,380,-384,17064.55,28.95,-1.00,-1.0,2442
5590,2140590,17108,396,-200,17113.75,28.86,-1.00,-1.0,2369
5593,2140593,17100,404,-228,17106.29,28.86,-1.00,-1.0,2439
5596,2140596,17132,360,-272,17137.94,28.95,-1.00,-1.0,2367
5598,2140598,17068,420,-340,17076.55,29.05,-1.00,-1.0,2447
5601,2140601,17060,472,-240,17068.21,28.86,-1.00,-1.0,2366
5604,2140604,17076,472,-484,17089.38,28.95,-1.00,-1.0,2362
5606,2140606,16952,528,-320,16963.24,28.81,-1.00,-1.0,2440
5609,2140609,16980,552,-324,16992.06,28.95,-1.00,-1.0,2383
5614,2140614,16944,604,-280,16957.07,28.86,-1.00,-1.0,2437
5617,2140617,17032,596,-372,17046.48,28.86,-1.00,-1.0,2375
5620,2140620,17020,468,-348,17029.99,28.86,-1.00,-1.0,2433
5622,2140622,17032,500,-404,17044.13,28.95,-1.00,-1.0,2368
5625,2140625,17020,512,-444,17033.49,28.95,-1.00,-1.0,2431
5628,2140628,17072,476,-424,17083.90,28.86,-1.00,-1.0,2372
5631,2140631,17112,436,-512,17125.21,28.95,-1.00,-1.0,2432
5633,2140633,17084,468,-296,17092.97,28.86,-1.00,-1.0,2367
5636,2140636,17132,504,-256,17141.32,28.95,-1.00,-1.0,2366
5641,2140641,17024,424,-248,17031.09,28.95,-1.00,-1.0,2445
5643,2140643,17028,504,-332,17038.69,28.91,-1.00,-1.0,2382
5646,2140646,16940,500,-244,16949.13,28.91,-1.00,-1.0,2442
5649,2140649,17000,520,-144,17008.56,28.91,-1.00,-1.0,2375
5652,2140652,17024,472,-140,17031.12,28.91,-1.00,-1.0,2446
5654,2140654,17088,472,-232,17096.09,29.00,-1.00,-1.0,2376
5657,2140657,16896,324,-84,16899.31,28.91,-1.00,-1.0,2440
5660,2140660,17104,424,-244,17110.99,28.91,-1.00,-1.0,2374
5665,2140665,17132,432,-352,17141.06,28.91,-1.00,-1.0,2438
5667,2140667,17048,408,-236,17054.51,29.00,-1.00,-1.0,2378
5670,2140670,17104,432,-204,17110.67,28.86,-1.00,-1.0,2432
5673,2140673,17116,452,-292,17124.46,29.00,-1.00,-1.0,2367
5675,2140675,16960,564,-436,16974.97,28.86,-1.00,-1.0,2358
5678,2140678,17040,480,-236,17048.39,28.95,-1.00,-1.0,2431
5681,2140681,16996,512,-336,17007.03,28.91,-1.00,-1.0,2368
5684,2140684,17164,444,-220,17171.15,28.86,-1.00,-1.0,2435
5687,2140687,16988,376,-84,16992.37,28.86,-1.00,-1.0,2365
5692,2140692,17084,316,-284,17089.28,28.95,-1.00,-1.0,2438
5694,2140694,17008,364,-208,17013.17,28.91,-1.00,-1.0,2378
5697,2140697,17148,344,-308,17154.21,28.95,-1.00,-1.0,2432
5700,2140700,17088,240,-272,17091.85,28.91,-1.00,-1.0,2354
5703,2140703,17120,364,-428,17129.22,28.95,-1.00,-1.0,2440
5705,2140705,17148,488,-184,17155.93,28.91,-1.00,-1.0,2378
5708,2140708,17132,436,-332,17140.76,28.95,-1.00,-1.0,2431
5711,2140711,17064,508,-176,17072.47,28.91,-1.00,-1.0,2369
5714,2140714,17028,608,-460,17045.06,28.95,-1.00,-1.0,2359
5719,2140719,17020,404,-316,17027.73,28.86,-1.00,-1.0,2438
5721,2140721,17040,468,-436,17052.00,28.95,-1.00,-1.0,2373
5724,2140724,17080,552,-200,17090.09,28.95,-1.00,-1.0,2432
5727,2140727,17140,404,-476,17151.37,28.95,-1.00,-1.0,2369
5730,2140730,17092,460,-456,17104.27,28.95,-1.00,-1.0,2432
5732,2140732,17092,444,-416,17102.83,28.95,-1.00,-1.0,2374
5735,2140735,17100,508,-376,17111.68,28.95,-1.00,-1.0,2432
5738,2140738,17072,612,-212,17084.28,28.95,-1.00,-1.0,2367
5743,2140743,16912,716,-236,16928.79,28.91,-1.00,-1.0,2445
5746,2140746,17068,644,-380,17084.37,29.00,-1.00,-1.0,2370
5748,2140748,17056,620,-216,17068.63,28.91,-1.00,-1.0,2444
5751,2140751,17004,568,-196,17014.61,28.91,-1.00,-1.0,2367
5754,2140754,17088,576,-356,17101.41,28.95,-1.00,-1.0,2360
5756,2140756,17016,568,-272,17027.65,28.95,-1.00,-1.0,2419
5759,2140759,17024,516,-268,17033.93,28.91,-1.00,-1.0,2384
5762,2140762,17040,568,-164,17050.25,28.86,-1.00,-1.0,2433
5765,2140765,17096,584,-288,17108.40,28.91,-1.00,-1.0,2361
5770,2140770,16936,484,-296,16945.50,28.91,-1.00,-1.0,2445
5772,2140772,17076,568,-352,17089.07,28.86,-1.00,-1.0,2370
5775,2140775,17084,392,-264,17090.54,29.00,-1.00,-1.0,2435
5778,2140778,17024,356,-228,17029.25,28.95,-1.00,-1.0,2368
5781,2140781,17192,412,-392,17201.40,28.91,-1.00,-1.0,2438
5783,2140783,17064,328,-148,17067.79,28.95,-1.00,-1.0,2367
5786,2140786,17140,456,-300,17148.69,28.91,-1.00,-1.0,2435
5789,2140789,17056,376,-184,17061.14,28.95,-1.00,-1.0,2367
5792,2140792,17036,332,-244,17040.98,28.91,-1.00,-1.0,2365
5797,2140797,17016,388,-264,17022.47,28.91,-1.00,-1.0,2445
5799,2140799,17012,412,-380,17021.23,28.95,-1.00,-1.0,2370
5802,2140802,17120,460,-260,17128.15,29.00,-1.00,-1.0,2432
5805,2140805,16308,432,-256,16315.73,28.91,-1.00,-1.0,2367
5808,2140808,22416,-20808,6116,31190.63,28.91,-1.00,-1.0,2434
5810,2140810,32767,29204,-32768,nan,28.86,-1.00,-1.0,2361
5813,2140813,8212,14312,6296,17660.97,28.91,-1.00,-1.0,2428
5816,2140816,32767,-9924,2776,34349.21,28.86,-1.00,-1.0,2364
5821,2140821,-2628,4688,-31632,32085.31,28.86,-1.00,-1.0,2440
5824,2140824,32767,-18308,32767,nan,28.95,-1.00,-1.0,2374
5826,2140826,32767,19196,-32768,nan,28.95,-1.00,-1.0,2420
5829,2140829,388,-9392,-13264,16257.12,28.95,-1.00,-1.0,2373
5832,2140832,32767,-7740,5564,34125.39,28.95,-1.00,-1.0,2437
5835,2140835,20520,8296,-31612,38590.32,28.95,-1.00,-1.0,2368
5837,2140837,25748,-22904,32767,nan,28.95,-1.00,-1.0,2359
5840,2140840,32684,22644,-32768,nan,28.91,-1.00,-1.0,2418
5843,2140843,8724,-1276,14044,16582.23,28.95,-1.00,-1.0,2367
5848,2140848,19032,1564,-12932,23062.95,28.95,-1.00,-1.0,2438
5851,2140851,16204,-16688,32767,40183.77,28.91,-1.00,-1.0,2371
5854,2140854,19348,12736,-29392,37422.46,28.95,-1.00,-1.0,2434
5856,2140856,19500,-14584,27136,36459.64,28.91,-1.00,-1.0,2369
5859,2140859,18548,5164,-19188,27182.25,28.95,-1.00,-1.0,2438
5862,2140862,12308,9176,-17372,23183.45,28.91,-1.00,-1.0,2371
5865,2140865,15440,-9468,17564,25229.56,28.95,-1.00,-1.0,2433
5867,2140867,20552,8712,-20256,30142.81,29.00,-1.00,-1.0,2356
5872,2140872,16584,5456,-8204,19289.96,28.95,-1.00,-1.0,2447
5875,2140875,14924,7976,-11392,20399.02,28.86,-1.00,-1.0,2378
5878,2140878,15652,-4300,10864,19532.07,29.00,-1.00,-1.0,2436
5881,2140881,16216,5436,-10120,19872.67,28.86,-1.00,-1.0,2374
5883,2140883,17968,-4432,8216,20248.32,28.86,-1.00,-1.0,2439
5886,2140886,17336,-964,480,17369.42,28.95,-1.00,-1.0,2383
5889,2140889,14516,1168,-3636,15009.96,28.91,-1.00,-1.0,2432
5892,2140892,18280,-3084,3044,18786.57,28.86,-1.00,-1.0,2373
5897,2140897,16348,-116,2796,16585.78,28.86,-1.00,-1.0,2438
5899,2140899,19528,356,-892,19551.60,28.95,-1.00,-1.0,2371
5902,2140902,14212,756,-2992,14543.20,29.00,-1.00,-1.0,2362
5905,2140905,17204,1620,-2008,17396.38,28.91,-1.00,-1.0,2441
5907,2140907,18304,232,1692,18383.50,28.86,-1.00,-1.0,2376
5910,2140910,16044,216,-664,16059.19,28.91,-1.00,-1.0,2439
5913,2140913,17820,456,-2252,17967.52,28.86,-1.00,-1.0,2355
5916,2140916,18172,-624,1928,18284.64,28.91,-1.00,-1.0,2445
5918,2140918,16672,1528,-1716,16829.59,28.86,-1.00,-1.0,2377
5923,2140923,16648,2468,-2676,17041.36,28.77,-1.00,-1.0,2446
5926,2140926,16612,2336,-3772,17194.29,28.86,-1.00,-1.0,2377
5929,2140929,18752,-992,4432,19294.15,28.91,-1.00,-1.0,2434
5932,2140932,15652,4288,-5700,17200.64,28.86,-1.00,-1.0,2368
5934,2140934,16392,-1128,2688,16649.19,28.86,-1.00,-1.0,2443
5937,2140937,18296,-668,-220,18309.51,28.95,-1.00,-1.0,2375
5940,2140940,16864,-1276,-356,16915.95,28.91,-1.00,-1.0,2434
5943,2140943,17132,-1636,1224,17253.41,28.95,-1.00,-1.0,2368
5948,2140948,16640,-928,1728,16755.20,28.86,-1.00,-1.0,2436
5950,2140950,16580,1372,-1736,16727.00,28.95,-1.00,-1.0,2370
5953,2140953,16704,2164,-1508,16910.96,28.86,-1.00,-1.0,2431
5956,2140956,16744,536,1556,16824.68,28.95,-1.00,-1.0,2367
5958,2140958,17216,1080,-1172,17289.61,28.95,-1.00,-1.0,2362
5961,2140961,17424,-240,1492,17489.41,28.91,-1.00,-1.0,2447
5964,2140964,16720,1392,-604,16788.71,28.86,-1.00,-1.0,2376
5967,2140967,17076,588,-1808,17181.51,28.91,-1.00,-1.0,2446
5969,2140969,17208,-972,1792,17328.34,28.95,-1.00,-1.0,2367
5974,2140974,17148,-400,600,17163.16,28.86,-1.00,-1.0,2440
5977,2140977,17440,-1048,1768,17560.69,28.95,-1.00,-1.0,2369
5980,2140980,17204,1352,-2592,17450.62,29.00,-1.00,-1.0,2438
5982,2140982,17152,-704,2264,17315.09,28.86,-1.00,-1.0,2353
5985,2140985,16716,2016,-2592,17035.47,28.95,-1.00,-1.0,2433
5988,2140988,17056,352,-156,17060.35,28.95,-1.00,-1.0,2367
5991,2140991,17280,-12,476,17286.56,28.86,-1.00,-1.0,2434
5993,2140993,16584,2024,-2536,16898.43,28.95,-1.00,-1.0,2365
5998,2140998,17680,-124,252,17682.23,28.86,-1.00,-1.0,2438
6001,2141001,17048,556,-888,17080.16,28.86,-1.00,-1.0,2370
6004,2141004,17028,476,-384,17038.98,28.95,-1.00,-1.0,2360
6007,2141007,17256,1400,-1208,17354.79,28.91,-1.00,-1.0,2433
6009,2141009,17324,428,1164,17368.33,28.95,-1.00,-1.0,2355
6012,2141012,17280,616,116,17291.37,28.95,-1.00,-1.0,2432
6015,2141015,17088,900,-1492,17176.61,28.86,-1.00,-1.0,2368
6017,2141017,16876,96,-328,16879.46,28.86,-1.00,-1.0,2420
6020,2141020,16788,688,-836,16822.88,28.95,-1.00,-1.0,2367
6025,2141025,16728,680,-636,16753.89,29.00,-1.00,-1.0,2447
6028,2141028,16896,256,64,16898.06,28.81,-1.00,-1.0,2377
6031,2141031,17284,60,472,17290.55,28.91,-1.00,-1.0,2423
6034,2141034,17072,104,28,17072.34,28.91,-1.00,-1.0,2367
6036,2141036,16808,860,-84,16830.20,28.81,-1.00,-1.0,2447
6039,2141039,17052,1072,-280,17087.96,28.91,-1.00,-1.0,2367
6042,2141042,17072,548,344,17084.26,29.00,-1.00,-1.0,2361
6044,2141044,17004,408,-244,17010.64,28.86,-1.00,-1.0,2422
6047,2141047,17268,260,208,17271.21,28.91,-1.00,-1.0,2383
6052,2141052,17280,8,-272,17282.14,28.95,-1.00,-1.0,2440
6055,2141055,17024,184,-616,17036.13,28.86,-1.00,-1.0,2377
6057,2141057,16988,360,-976,17019.82,28.95,-1.00,-1.0,2432
6060,2141060,17112,376,-152,17116.80,28.86,-1.00,-1.0,2374
6063,2141063,17132,564,-216,17142.64,28.86,-1.00,-1.0,2434
6066,2141066,17172,644,-116,17184.46,28.95,-1.00,-1.0,2369
6068,2141068,17028,404,-544,17041.48,28.86,-1.00,-1.0,2436
6071,2141071,17156,176,-192,17157.98,28.95,-1.00,-1.0,2383
6074,2141074,17184,336,-408,17192.13,28.95,-1.00,-1.0,2374
6079,2141079,17108,96,-76,17108.44,28.95,-1.00,-1.0,2439
6082,2141082,16928,728,-848,16964.85,28.95,-1.00,-1.0,2369
6084,2141084,16976,868,-440,17003.87,28.86,-1.00,-1.0,2433
6087,2141087,17172,784,200,17191.05,28.86,-1.00,-1.0,2369
6090,2141090,17132,632,12,17143.66,28.95,-1.00,-1.0,2432
6093,2141093,17240,292,164,17243.25,28.86,-1.00,-1.0,2363
6095,2141095,16960,760,-384,16981.36,28.95,-1.00,-1.0,2420
6098,2141098,16940,380,-204,16945.49,28.95,-1.00,-1.0,2374
