timestamp_ms,global_ms,accel_x,accel_y,accel_z,accel_mag,temp_c,voltage,soc,loop_us
3,3,15960,-5668,-976,16964.68,26.22,-1.00,-1.0,2495
9,9,17428,-6544,2060,18729.73,26.37,-1.00,-1.0,2461
12,12,17904,888,664,17938.30,26.27,-1.00,-1.0,2370
15,15,19120,8564,11636,23964.83,26.27,-1.00,-1.0,2361
17,17,19272,2756,4532,19988.61,26.22,-1.00,-1.0,2421
20,20,18496,-5356,5912,20143.00,26.27,-1.00,-1.0,2362
23,23,15600,8324,1468,17742.72,26.18,-1.00,-1.0,2420
26,26,16788,2480,8824,19127.21,26.37,-1.00,-1.0,2375
28,28,16060,-8540,-2132,18313.95,26.37,-1.00,-1.0,2361
31,31,20856,2300,4052,21370.11,26.27,-1.00,-1.0,2421
34,34,19440,4804,800,20040.76,26.27,-1.00,-1.0,2366
38,38,22064,3840,9400,24288.39,26.27,-1.00,-1.0,2433
41,41,15412,7476,7908,18866.82,26.27,-1.00,-1.0,2377
44,44,14644,2092,4592,15489.02,26.27,-1.00,-1.0,2407
47,47,12416,-2332,1296,12699.41,26.32,-1.00,-1.0,2365
49,49,17428,3636,2024,17917.93,26.27,-1.00,-1.0,2369
52,52,21496,776,7076,22643.98,26.27,-1.00,-1.0,2424
55,55,17684,8336,1508,19608.34,26.32,-1.00,-1.0,2365
57,57,15536,-12580,16,19990.60,26.18,-1.00,-1.0,2432
60,60,13736,-1556,-3876,14356.96,26.22,-1.00,-1.0,2365
63,63,20476,-2140,164,20588.18,26.22,-1.00,-1.0,2365
68,68,14952,1260,-3076,15317.04,26.18,-1.00,-1.0,2441
70,70,17288,2200,8884,19561.20,26.27,-1.00,-1.0,2368
73,73,13404,-2856,-628,13719.27,26.32,-1.00,-1.0,2419
76,76,17780,-4092,2648,18435.96,26.27,-1.00,-1.0,2369
79,79,18104,4840,2372,18889.33,26.37,-1.00,-1.0,2421
81,81,16024,-1104,5780,17070.32,26.27,-1.00,-1.0,2367
84,84,14464,-3544,-1512,14968.41,26.27,-1.00,-1.0,2364
87,87,15224,1244,-20,15274.75,26.37,-1.00,-1.0,2424
90,90,19728,-1912,4964,20432.60,26.27,-1.00,-1.0,2371
95,95,16764,5728,4960,18396.83,26.22,-1.00,-1.0,2442
97,97,15020,1228,5324,15982.91,26.32,-1.00,-1.0,2364
100,100,16484,2676,3520,17066.74,26.32,-1.00,-1.0,2361
103,103,19520,3524,8304,21503.61,26.27,-1.00,-1.0,2425
105,105,18148,2584,2092,18450.03,26.32,-1.00,-1.0,2364
108,108,18916,-2384,11320,22172.98,26.32,-1.00,-1.0,2421
111,111,17612,10940,6060,21600.69,26.22,-1.00,-1.0,2365
114,114,18064,9452,15288,25482.77,26.27,-1.00,-1.0,2408
117,117,13452,3304,6180,15167.90,26.27,-1.00,-1.0,2367
122,122,19944,6616,2452,21155.30,26.27,-1.00,-1.0,2419
124,124,19708,6560,12372,24176.54,26.32,-1.00,-1.0,2364
127,127,13060,-7268,-4844,15711.52,26.18,-1.00,-1.0,2360
130,130,16212,-5188,-1636,17100.31,26.27,-1.00,-1.0,2423
132,132,19040,-5508,2296,19953.23,26.22,-1.00,-1.0,2364
135,135,14908,6500,4564,16891.67,26.27,-1.00,-1.0,2423
138,138,15500,-1220,4188,16102.10,26.41,-1.00,-1.0,2352
141,141,12424,-5376,-1924,13673.29,26.13,-1.00,-1.0,2421
144,144,17544,-5868,6780,19702.63,26.37,-1.00,-1.0,2365
147,147,15032,6920,580,16558.50,26.32,-1.00,-1.0,2362
152,152,17304,-3428,8976,19792.63,26.27,-1.00,-1.0,2439
154,154,15344,3944,3668,16261.85,26.18,-1.00,-1.0,2352
157,157,15912,112,4108,16434.11,26.27,-1.00,-1.0,2419
160,160,14496,-2072,5928,15797.73,26.32,-1.00,-1.0,2365
163,163,16444,-5824,-308,17447.61,26.22,-1.00,-1.0,2415
165,165,18944,2948,4692,19737.80,26.13,-1.00,-1.0,2374
168,168,13368,5096,7060,15953.57,26.22,-1.00,-1.0,2362
171,171,14776,-9832,-444,17753.75,26.22,-1.00,-1.0,2420
174,174,11656,-3128,-7876,14411.04,26.22,-1.00,-1.0,2365
179,179,18940,4772,3752,19889.02,26.22,-1.00,-1.0,2439
182,182,12804,-1304,-2380,13088.44,26.18,-1.00,-1.0,2365
184,184,18460,-4792,-1100,19103.53,26.27,-1.00,-1.0,2423
187,187,21124,5008,4800,22233.84,26.27,-1.00,-1.0,2364
190,190,20680,5884,9328,23437.05,26.27,-1.00,-1.0,2423
192,192,17024,8404,6212,19975.80,26.22,-1.00,-1.0,2367
195,195,17448,-4600,4116,18507.68,26.27,-1.00,-1.0,2361
198,198,16620,5288,4012,17896.46,26.27,-1.00,-1.0,2421
201,201,16984,2932,4752,17878.32,26.32,-1.00,-1.0,2367
206,206,21208,-692,2364,21350.56,26.32,-1.00,-1.0,2440
209,209,16248,4776,3636,17321.32,26.27,-1.00,-1.0,2364
211,211,15324,-2172,3284,15821.73,26.32,-1.00,-1.0,2422
214,214,19932,-2328,3544,20378.03,26.18,-1.00,-1.0,2366
217,217,18288,6876,7092,20785.25,26.27,-1.00,-1.0,2360
219,219,18884,1088,7668,20410.47,26.22,-1.00,-1.0,2428
222,222,15672,-2352,-492,15855.14,26.27,-1.00,-1.0,2363
225,225,14388,-3136,-3164,15061.87,26.18,-1.00,-1.0,2417
228,228,19808,-5260,3020,20715.81,26.27,-1.00,-1.0,2365
233,233,16772,-7048,-700,18206.16,26.18,-1.00,-1.0,2432
235,235,12636,-2520,-4300,13583.41,26.22,-1.00,-1.0,2368
238,238,19944,-1192,4816,20551.83,26.27,-1.00,-1.0,2362
241,241,16288,2652,-2404,16676.67,26.27,-1.00,-1.0,2423
243,243,17284,-2536,3460,17808.41,26.27,-1.00,-1.0,2366
246,246,17832,-1088,6024,18853.45,26.27,-1.00,-1.0,2419
249,249,14808,2604,1736,15135.10,26.37,-1.00,-1.0,2366
252,252,14996,-5812,468,16089.70,26.37,-1.00,-1.0,2420
255,255,16180,1196,2888,16479.18,26.27,-1.00,-1.0,2364
260,260,15040,1200,1348,15147.89,26.18,-1.00,-1.0,2440
262,262,14328,-2424,4012,15075.26,26.37,-1.00,-1.0,2366
265,265,19196,-400,1856,19289.66,26.27,-1.00,-1.0,2363
268,268,18248,5344,8124,20677.21,26.32,-1.00,-1.0,2424
270,270,18160,2512,5984,19284.81,26.27,-1.00,-1.0,2365
273,273,15456,-5116,-2624,16490.81,26.27,-1.00,-1.0,2421
276,276,18224,-616,3612,18588.71,26.27,-1.00,-1.0,2366
279,279,18328,6352,9048,21403.97,26.32,-1.00,-1.0,2421
282,282,19744,3948,9260,22162.13,26.22,-1.00,-1.0,2364
285,285,15576,136,228,15578.26,26.32,-1.00,-1.0,2362
290,290,18104,1968,9044,20332.78,26.18,-1.00,-1.0,2434
293,293,14260,1956,3508,14814.84,26.27,-1.00,-1.0,2373
295,295,16480,-6852,-584,17857.25,26.18,-1.00,-1.0,2420
298,298,16672,7560,3992,18736.20,26.32,-1.00,-1.0,2373
301,301,17692,-1468,8388,19634.67,26.27,-1.00,-1.0,2426
303,303,12316,-2320,-4636,13362.59,26.27,-1.00,-1.0,2364
306,306,18112,6364,5888,20080.18,26.27,-1.00,-1.0,2377
309,309,20272,2856,8336,22104.29,26.32,-1.00,-1.0,2429
312,312,17168,4256,7256,19118.14,26.32,-1.00,-1.0,2365
317,317,19028,-804,3764,19413.37,26.22,-1.00,-1.0,2433
320,320,18260,4464,3516,19123.73,26.27,-1.00,-1.0,2364
322,322,19248,1096,5624,20082.73,26.27,-1.00,-1.0,2418
325,325,11824,-708,-4440,12649.97,26.27,-1.00,-1.0,2379
328,328,19496,-9560,3796,22043.08,26.18,-1.00,-1.0,2362
330,330,14336,3624,-6352,16093.54,26.27,-1.00,-1.0,2420
333,333,18292,1328,7532,19826.54,26.18,-1.00,-1.0,2353
336,336,18472,3276,4464,19284.04,26.27,-1.00,-1.0,2435
339,339,16888,3136,5892,18159.15,26.32,-1.00,-1.0,2374
344,344,19700,2900,5792,20737.58,26.41,-1.00,-1.0,2434
347,347,18240,5988,8208,20878.82,26.27,-1.00,-1.0,2364
349,349,16576,-2228,-1404,16783.89,26.22,-1.00,-1.0,2357
352,352,15156,360,1460,15230.42,26.22,-1.00,-1.0,2420
355,355,21492,-2228,4908,22157.58,26.22,-1.00,-1.0,2365
357,357,16804,6736,4420,18635.57,26.32,-1.00,-1.0,2417
360,360,15544,-1224,3940,16082.22,26.27,-1.00,-1.0,2367
363,363,14416,-4544,-932,15143.90,26.27,-1.00,-1.0,2415
366,366,18804,3332,9364,21269.16,26.27,-1.00,-1.0,2379
371,371,14068,-296,-2552,14300.66,26.22,-1.00,-1.0,2432
374,374,12820,-7888,1972,15180.97,26.22,-1.00,-1.0,2365
376,376,15960,3200,6916,17685.95,26.27,-1.00,-1.0,2358
379,379,20520,-1748,1432,20644.04,26.27,-1.00,-1.0,2436
382,382,18924,-608,2796,19139.10,26.22,-1.00,-1.0,2372
385,385,17756,5152,9776,20913.84,26.18,-1.00,-1.0,2417
387,387,17900,1820,4416,18526.29,26.22,-1.00,-1.0,2365
390,390,14884,1928,3984,15528.13,26.22,-1.00,-1.0,2422
393,393,19928,-636,7372,21257.38,26.27,-1.00,-1.0,2372
396,396,17008,7156,7528,19928.65,26.18,-1.00,-1.0,2370
401,401,16224,-2168,1120,16406.49,26.37,-1.00,-1.0,2433
404,404,17868,-988,-192,17896.32,26.32,-1.00,-1.0,2365
407,407,16144,-860,4632,16817.37,26.37,-1.00,-1.0,2416
409,409,17548,1168,-1156,17624.78,26.22,-1.00,-1.0,2367
412,412,17064,-2980,5340,18126.67,26.32,-1.00,-1.0,2420
415,415,15760,1188,188,15805.83,26.18,-1.00,-1.0,2368
417,417,21128,2164,13972,25422.28,26.22,-1.00,-1.0,2361
420,420,16480,4204,-3456,17355.34,26.22,-1.00,-1.0,2420
423,423,19356,-696,5676,20183.06,26.22,-1.00,-1.0,2369
428,428,18700,540,3328,19001.50,26.18,-1.00,-1.0,2448
431,431,18784,1196,6992,20078.77,26.27,-1.00,-1.0,2366
434,434,14464,6876,5900,17067.42,26.27,-1.00,-1.0,2417
436,436,20088,-3892,5324,21142.86,26.32,-1.00,-1.0,2365
439,439,20796,-1432,5632,21592.68,26.18,-1.00,-1.0,2369
442,442,16544,4112,1836,17145.94,26.32,-1.00,-1.0,2430
444,444,17580,864,4568,18184.32,26.27,-1.00,-1.0,2366
447,447,16712,1568,6224,17902.17,26.32,-1.00,-1.0,2422
450,450,14852,504,3620,15295.11,26.32,-1.00,-1.0,2364
455,455,16896,-1752,5624,17893.40,26.32,-1.00,-1.0,2433
458,458,14984,-2524,-472,15202.42,26.22,-1.00,-1.0,2365
460,460,17880,292,3912,18305.28,26.32,-1.00,-1.0,2344
463,463,17040,4584,3068,17910.54,26.27,-1.00,-1.0,2419
466,466,17816,928,7116,19206.99,26.32,-1.00,-1.0,2365
468,468,13856,3704,8296,16569.01,26.22,-1.00,-1.0,2419
471,471,17084,3476,8896,19572.54,26.22,-1.00,-1.0,2365
474,474,16356,1944,6808,17822.65,26.37,-1.00,-1.0,2420
477,477,12872,-5408,-4844,14778.33,26.32,-1.00,-1.0,2365
480,480,20084,-2184,4640,20728.40,26.18,-1.00,-1.0,2362
485,485,16424,4364,-2440,17168.16,26.27,-1.00,-1.0,2432
488,488,21228,5296,16860,27621.28,26.22,-1.00,-1.0,2367
490,490,13816,4324,544,14487.06,26.22,-1.00,-1.0,2405
493,493,18212,-3692,5776,19459.45,26.32,-1.00,-1.0,2372
496,496,16196,4424,-3748,17202.61,26.32,-1.00,-1.0,2423
498,498,19744,-364,11664,22934.84,26.27,-1.00,-1.0,2367
501,501,13416,2360,-1896,13753.31,26.18,-1.00,-1.0,2421
504,504,19040,-7688,304,20535.81,26.27,-1.00,-1.0,2352
507,507,12460,1008,-4128,13164.65,26.27,-1.00,-1.0,2349
512,512,14632,6928,-4776,16879.06,26.27,-1.00,-1.0,2434
515,515,14708,-1456,12580,19408.80,26.22,-1.00,-1.0,2366
518,518,14620,9056,6304,18316.55,26.22,-1.00,-1.0,2427
520,520,17696,1320,19568,26415.86,26.27,-1.00,-1.0,2368
523,523,13644,4184,-1280,14328.40,26.22,-1.00,-1.0,2436
526,526,17148,3184,9192,19715.09,26.27,-1.00,-1.0,2372
528,528,17608,10432,11152,23307.41,26.22,-1.00,-1.0,2370
531,531,16752,-144,16428,23463.36,26.27,-1.00,-1.0,2422
534,534,14848,6532,1240,16268.61,26.27,-1.00,-1.0,2364
539,539,16692,9536,9976,21658.23,26.27,-1.00,-1.0,2420
542,542,20624,-3956,-3672,21318.60,26.32,-1.00,-1.0,2350
545,545,13456,1228,-740,13532.17,26.18,-1.00,-1.0,2423
547,547,16972,976,10164,19806.77,26.22,-1.00,-1.0,2371
550,550,17988,-12408,-5880,22629.65,26.27,-1.00,-1.0,2362
553,553,18292,-3684,-8412,20467.80,26.37,-1.00,-1.0,2420
555,555,17340,-4560,4088,18389.70,26.22,-1.00,-1.0,2372
558,558,19064,7444,4352,20923.41,26.22,-1.00,-1.0,2428
561,561,17240,3452,11848,21201.63,26.27,-1.00,-1.0,2365
566,566,16812,-1280,4200,17375.89,26.37,-1.00,-1.0,2434
569,569,13456,-968,-1540,13578.39,26.37,-1.00,-1.0,2367
572,572,16916,-736,868,16954.24,26.37,-1.00,-1.0,2416
574,574,19172,-656,6288,20187.49,26.27,-1.00,-1.0,2373
577,577,18208,684,10728,21144.48,26.18,-1.00,-1.0,2365
580,580,12344,1424,-1664,12536.79,26.22,-1.00,-1.0,2427
582,582,20828,-2292,5968,21787.06,26.27,-1.00,-1.0,2368
585,585,13588,-2024,-8120,15958.22,26.27,-1.00,-1.0,2429
588,588,17540,-4848,3372,18507.43,26.32,-1.00,-1.0,2370
593,593,21136,2792,18556,28263.95,26.32,-1.00,-1.0,2434
596,596,18292,14952,14308,27620.25,26.27,-1.00,-1.0,2363
598,598,16644,-1448,6248,17836.96,26.22,-1.00,-1.0,2355
601,601,15920,-1624,-3708,16426.60,26.32,-1.00,-1.0,2423
604,604,19184,10128,19308,29041.37,26.22,-1.00,-1.0,2364
607,607,17028,4788,988,17715.92,26.32,-1.00,-1.0,2423
609,609,16740,-9980,-2096,19601.56,26.37,-1.00,-1.0,2367
612,612,16716,3004,1200,17026.12,26.27,-1.00,-1.0,2429
615,615,19256,3496,16900,25857.79,26.27,-1.00,-1.0,2374
620,620,17616,-9016,6856,20943.17,26.32,-1.00,-1.0,2434
623,623,17100,8624,1492,19209.62,26.32,-1.00,-1.0,2363
626,626,20196,-4224,-1744,20706.57,26.32,-1.00,-1.0,2357
628,628,14060,1376,-1032,14164.82,26.27,-1.00,-1.0,2430
631,631,17332,-9580,-1820,19886.86,26.22,-1.00,-1.0,2364
634,634,17180,-7676,-4572,19364.31,26.32,-1.00,-1.0,2424
636,636,19856,4952,7508,21798.01,26.32,-1.00,-1.0,2365
639,639,13436,-2308,-3560,14089.95,26.27,-1.00,-1.0,2428
642,642,20764,-7044,396,21929.85,26.37,-1.00,-1.0,2372
647,647,17120,4388,7148,19064.18,26.27,-1.00,-1.0,2433
650,650,13844,-14048,-17972,26683.24,26.22,-1.00,-1.0,2365
653,653,13496,5032,-8084,16517.09,26.27,-1.00,-1.0,2355
655,655,23920,-5912,7780,25838.86,26.18,-1.00,-1.0,2420
658,658,11720,1736,-1108,11899.57,26.32,-1.00,-1.0,2366
661,661,17344,2088,18956,25777.97,26.32,-1.00,-1.0,2423
663,663,14756,6828,-808,16279.25,26.32,-1.00,-1.0,2366
666,666,19120,-2096,16068,25062.88,26.32,-1.00,-1.0,2421
669,669,12788,792,-6668,14443.77,26.27,-1.00,-1.0,2373
672,672,22600,7136,19136,30460.94,26.27,-1.00,-1.0,2364
677,677,15584,-4424,2340,16367.91,26.27,-1.00,-1.0,2433
680,680,15576,2104,-400,15722.55,26.27,-1.00,-1.0,2364
683,683,18040,-11376,-6460,22284.22,26.22,-1.00,-1.0,2426
685,685,14112,8400,9168,18808.53,26.27,-1.00,-1.0,2367
688,688,17408,-4124,1996,18000.83,26.27,-1.00,-1.0,2436
691,691,16268,-9936,-9220,21174.99,26.27,-1.00,-1.0,2372
694,694,19012,-3048,-7692,20734.35,26.27,-1.00,-1.0,2421
696,696,16380,-7420,-1488,18043.70,26.22,-1.00,-1.0,2367
699,699,19700,6060,2156,20723.46,26.32,-1.00,-1.0,2364
704,704,15424,-3120,-12808,20289.88,26.32,-1.00,-1.0,2432
707,707,18452,-12472,-6528,23208.66,26.32,-1.00,-1.0,2417
710,710,12308,-812,-9236,15409.41,26.27,-1.00,-1.0,2430
713,713,20776,4692,15316,26234.27,26.37,-1.00,-1.0,2366
715,715,12736,-2108,-3864,13475.16,26.27,-1.00,-1.0,2419
718,718,21380,3260,11556,24520.87,26.32,-1.00,-1.0,2366
721,721,18064,5700,4184,19398.55,26.27,-1.00,-1.0,2428
723,723,16096,-844,10360,19160.46,26.32,-1.00,-1.0,2366
726,726,17616,6436,5992,19688.82,26.22,-1.00,-1.0,2362
731,731,15800,5312,3460,17024.36,26.22,-1.00,-1.0,2436
734,734,16556,-9124,-2508,19069.31,26.27,-1.00,-1.0,2369
737,737,17836,12688,14016,25991.47,26.22,-1.00,-1.0,2434
740,740,19088,2256,9016,21230.39,26.18,-1.00,-1.0,2364
742,742,13640,-5108,-1472,14639.26,26.27,-1.00,-1.0,2422
745,745,20108,-3700,2108,20553.96,26.27,-1.00,-1.0,2365
748,748,18204,6316,8228,20951.79,26.27,-1.00,-1.0,2364
751,751,17024,3028,12512,21343.28,26.27,-1.00,-1.0,2420
753,753,16760,-2200,-2576,17098.93,26.37,-1.00,-1.0,2364
758,758,20228,10088,24524,33352.16,26.22,-1.00,-1.0,2434
761,761,12944,3896,-2368,13723.46,26.18,-1.00,-1.0,2379
764,764,21992,-1132,13696,25932.80,26.32,-1.00,-1.0,2428
767,767,17904,11236,7244,22344.49,26.27,-1.00,-1.0,2364
769,769,15584,-9284,-492,18146.51,26.22,-1.00,-1.0,2436
772,772,17748,13816,7416,23682.70,26.27,-1.00,-1.0,2365
775,775,22848,-6428,5456,24354.02,26.22,-1.00,-1.0,2363
778,778,11116,1640,-3392,11737.15,26.27,-1.00,-1.0,2420
780,780,20152,-4948,-44,20750.61,26.27,-1.00,-1.0,2351
785,785,18060,3792,6848,19683.44,26.22,-1.00,-1.0,2429
788,788,16856,-7220,-11864,21840.50,26.32,-1.00,-1.0,2377
791,791,19824,5048,13156,24321.88,26.22,-1.00,-1.0,2422
794,794,21640,6892,32072,39298.89,26.27,-1.00,-1.0,2416
796,796,12352,1196,-14756,19280.61,26.32,-1.00,-1.0,2369
799,799,23792,-2720,20076,31249.05,26.32,-1.00,-1.0,2432
802,802,9328,-2748,-15516,18311.45,26.32,-1.00,-1.0,2378
805,805,15724,-6344,3044,17226.62,26.22,-1.00,-1.0,2430
808,808,17880,18872,22516,34392.11,26.18,-1.00,-1.0,2366
812,812,12952,-2972,-3224,13674.11,26.27,-1.00,-1.0,2425
815,815,21484,856,9320,23434.11,26.32,-1.00,-1.0,2366
818,818,11644,-4160,-9092,15347.73,26.27,-1.00,-1.0,2424
821,821,12728,2592,-9376,16019.67,26.22,-1.00,-1.0,2377
823,823,23500,-5516,7776,25360.25,26.27,-1.00,-1.0,2361
826,826,12404,6420,11044,17805.77,26.27,-1.00,-1.0,2420
829,829,15004,4396,20280,25607.09,26.27,-1.00,-1.0,2367
832,832,17104,8400,7196,20368.83,26.32,-1.00,-1.0,2426
835,835,14964,-4112,11576,19360.62,26.32,-1.00,-1.0,2367
839,839,19492,-7508,-1612,20950.10,26.27,-1.00,-1.0,2427
842,842,16576,12444,13080,24509.25,26.27,-1.00,-1.0,2363
845,845,16992,10332,14968,24890.14,26.27,-1.00,-1.0,2365
848,848,17620,-13416,-14584,26516.91,26.32,-1.00,-1.0,2425
850,850,17688,8168,13376,23632.58,26.27,-1.00,-1.0,2364
853,853,17616,-7016,-8456,20761.78,26.37,-1.00,-1.0,2416
856,856,10716,-2708,-17780,20935.48,26.27,-1.00,-1.0,2366
859,859,21224,3640,24692,32762.82,26.27,-1.00,-1.0,2428
862,862,12280,-2860,-14980,19580.05,26.32,-1.00,-1.0,2371
867,867,16652,8064,6748,19693.98,26.22,-1.00,-1.0,2425
869,869,16500,-14176,-10068,23970.27,26.37,-1.00,-1.0,2365
872,872,17644,14788,19720,30312.94,26.27,-1.00,-1.0,2423
875,875,20336,6576,14656,25915.15,26.27,-1.00,-1.0,2365
877,877,13632,-2944,-7540,15854.03,26.32,-1.00,-1.0,2358
880,880,21664,140,11300,24434.37,26.22,-1.00,-1.0,2417
883,883,22232,1020,10636,24666.31,26.27,-1.00,-1.0,2365
886,886,14248,-540,-4804,15045.78,26.27,-1.00,-1.0,2419
889,889,24408,9704,19632,32792.28,26.27,-1.00,-1.0,2374
893,893,11968,-10292,-1884,15896.78,26.27,-1.00,-1.0,2429
896,896,14156,608,-4500,14866.47,26.18,-1.00,-1.0,2379
899,899,24592,-2908,4440,25158.23,26.27,-1.00,-1.0,2358
901,901,12952,508,-5904,14243.23,26.22,-1.00,-1.0,2424
904,904,22376,-860,7400,23583.57,26.18,-1.00,-1.0,2351
907,907,11216,280,-7348,13411.57,26.27,-1.00,-1.0,2418
910,910,14220,3460,-1540,14715.69,26.37,-1.00,-1.0,2367
913,913,21776,-6500,-1836,22799.45,26.37,-1.00,-1.0,2420
916,916,13188,5956,6872,16019.42,26.27,-1.00,-1.0,2368
920,920,14400,3212,-9516,17556.51,26.27,-1.00,-1.0,2433
923,923,16100,-7168,12536,21627.33,26.27,-1.00,-1.0,2371
926,926,11100,6448,540,12848.28,26.18,-1.00,-1.0,2358
928,928,22940,-4764,2948,23614.19,26.22,-1.00,-1.0,2425
931,931,12276,6284,-3800,14304.85,26.18,-1.00,-1.0,2367
934,934,23480,-9432,4044,25624.73,26.27,-1.00,-1.0,2421
937,937,21212,-4660,-2176,21826.58,26.27,-1.00,-1.0,2365
940,940,23216,-11492,-5044,26391.11,26.22,-1.00,-1.0,2419
943,943,10432,2560,-7860,13310.14,26.22,-1.00,-1.0,2366
946,946,20464,-2320,12080,23876.43,26.22,-1.00,-1.0,2362
951,951,14000,528,-11536,18148.22,26.37,-1.00,-1.0,2429
953,953,17420,-2944,19156,26059.08,26.27,-1.00,-1.0,2364
956,956,14140,9272,2424,17081.73,26.27,-1.00,-1.0,2429
959,959,16528,-12192,7544,21879.94,26.32,-1.00,-1.0,2373
962,962,11996,6400,1908,13729.69,26.27,-1.00,-1.0,2418
964,964,24128,-2812,5680,24946.54,26.32,-1.00,-1.0,2367
967,967,11988,-1468,-9312,15250.59,26.22,-1.00,-1.0,2418
970,970,20624,4380,17264,27250.31,26.22,-1.00,-1.0,2365
973,973,14224,732,-7004,15871.80,26.32,-1.00,-1.0,2364
978,978,21512,-1524,5388,22228.79,26.32,-1.00,-1.0,2428
980,980,14228,10552,5448,18532.71,26.27,-1.00,-1.0,2368
983,983,17208,-12084,2860,21220.70,26.27,-1.00,-1.0,2437
986,986,13668,6396,252,15092.60,26.37,-1.00,-1.0,2369
989,989,21500,-732,6668,22522.17,26.37,-1.00,-1.0,2418
991,991,15972,4916,4684,17355.45,26.22,-1.00,-1.0,2367
994,994,22072,252,3108,22291.17,26.27,-1.00,-1.0,2369
997,997,13264,-1656,-3200,13744.67,26.18,-1.00,-1.0,2428
1000,1000,17852,1624,8624,19892.33,26.32,-1.00,-1.0,2366
1005,1005,11300,3708,1068,11940.68,26.32,-1.00,-1.0,2425
1007,1007,15572,-10048,-4008,18960.84,26.22,-1.00,-1.0,2372
1010,1010,18000,3856,1148,18444.15,26.22,-1.00,-1.0,2429
1013,1013,14680,-13100,-5688,20480.86,26.27,-1.00,-1.0,2372
1016,1016,13516,4696,2000,14447.65,26.32,-1.00,-1.0,2424
1018,1018,22948,-3320,-792,23200.44,26.18,-1.00,-1.0,2367
1021,1021,11640,-3516,-7168,14114.96,26.27,-1.00,-1.0,2367
1024,1024,20004,6728,20800,29632.18,26.18,-1.00,-1.0,2422
1027,1027,13152,984,-3328,13602.17,26.27,-1.00,-1.0,2372
1032,1032,18544,-4676,-2208,19251.50,26.32,-1.00,-1.0,2427
1034,1034,18328,9304,704,20566.37,26.32,-1.00,-1.0,2372
1037,1037,19172,-11572,-4680,22877.48,26.22,-1.00,-1.0,2422
1040,1040,16160,3176,-436,16474.91,26.18,-1.00,-1.0,2371
1043,1043,13472,-8588,-656,15989.96,26.32,-1.00,-1.0,2421
1045,1045,14164,8636,1096,16625.30,26.27,-1.00,-1.0,2366
1048,1048,24480,-10640,-1412,26729.64,26.22,-1.00,-1.0,2424
1051,1051,13212,7808,3904,15835.50,26.27,-1.00,-1.0,2369
1054,1054,21052,1200,10272,23455.08,26.27,-1.00,-1.0,2366
1059,1059,14332,4504,3428,15409.20,26.27,-1.00,-1.0,2427
1061,1061,18412,-8860,7016,21603.83,26.32,-1.00,-1.0,2371
1064,1064,15904,3024,-11212,19692.40,26.27,-1.00,-1.0,2423
1067,1067,18444,-11016,2532,21632.02,26.27,-1.00,-1.0,2352
1070,1070,13080,-136,-10144,16553.12,26.32,-1.00,-1.0,2425
1072,1072,23732,-10460,700,25944.35,26.18,-1.00,-1.0,2366
1075,1075,13304,9064,2620,16310.02,26.22,-1.00,-1.0,2419
1078,1078,21832,-4332,7164,23382.16,26.27,-1.00,-1.0,2377
1083,1083,15420,6108,11100,19957.31,26.18,-1.00,-1.0,2432
1085,1085,18984,-9736,10276,23680.75,26.32,-1.00,-1.0,2351
1088,1088,13788,-2268,-16664,21747.22,26.27,-1.00,-1.0,2361
1091,1091,19796,-6756,14268,25319.97,26.27,-1.00,-1.0,2427
1093,1093,11740,9952,2124,15536.45,26.18,-1.00,-1.0,2365
1096,1096,17520,-4684,7856,19763.78,26.27,-1.00,-1.0,2404
1099,1099,13264,9500,13688,21296.60,26.22,-1.00,-1.0,2365
1102,1102,22888,-9560,-7028,25780.75,26.22,-1.00,-1.0,2409
1105,1105,12388,5064,-868,13411.19,26.22,-1.00,-1.0,2370
1110,1110,22176,-8424,1724,23784.68,26.22,-1.00,-1.0,2429
1112,1112,14712,3732,-9036,17664.09,26.22,-1.00,-1.0,2364
1115,1115,18784,-4076,14368,23997.75,26.32,-1.00,-1.0,2421
1118,1118,12344,10148,4876,16707.23,26.27,-1.00,-1.0,2367
1120,1120,17376,2648,14316,22669.04,26.32,-1.00,-1.0,2362
1123,1123,16616,9860,7720,20806.48,26.32,-1.00,-1.0,2431
1126,1126,22084,-8184,-6636,24468.70,26.22,-1.00,-1.0,2356
1129,1129,12740,668,-1072,12802.46,26.27,-1.00,-1.0,2419
1132,1132,17392,-1160,5640,18320.39,26.32,-1.00,-1.0,2371
1137,1137,14784,5892,-1848,16021.78,26.27,-1.00,-1.0,2434
1139,1139,19384,-5044,12524,23622.70,26.32,-1.00,-1.0,2366
1142,1142,11676,-4536,-16856,21000.69,26.41,-1.00,-1.0,2436
1145,1145,19344,2368,20220,28082.84,26.27,-1.00,-1.0,2374
1148,1148,17788,6172,-984,18854.04,26.22,-1.00,-1.0,2419
1150,1150,14216,-544,1460,14301.13,26.27,-1.00,-1.0,2367
1153,1153,14480,3592,16252,22061.29,26.27,-1.00,-1.0,2362
1156,1156,18968,-2804,-2528,19340.07,26.27,-1.00,-1.0,2422
1159,1159,15420,3172,4492,16371.20,26.27,-1.00,-1.0,2353
1164,1164,18916,-8856,-4116,21288.15,26.32,-1.00,-1.0,2435
1166,1166,12672,12752,20020,26907.13,26.22,-1.00,-1.0,2365
1169,1169,19840,7356,25264,32954.61,26.22,-1.00,-1.0,2424
1172,1172,16268,9524,4432,19364.84,26.27,-1.00,-1.0,2366
1175,1175,18152,-6164,7400,20548.72,26.27,-1.00,-1.0,2413
1177,1177,14264,7412,10316,19100.24,26.27,-1.00,-1.0,2375
1180,1180,20352,-6976,-1816,21590.88,26.27,-1.00,-1.0,2418
1183,1183,14692,7492,1568,16566.34,26.37,-1.00,-1.0,2368
1186,1186,15736,-6472,936,17040.67,26.27,-1.00,-1.0,2363
1191,1191,18796,9692,15676,26324.16,26.27,-1.00,-1.0,2433
1193,1193,19624,208,-3716,19973.81,26.32,-1.00,-1.0,2367
1196,1196,9224,-3720,-13212,16537.16,26.22,-1.00,-1.0,2423
1199,1199,18540,-3616,18636,26535.03,26.22,-1.00,-1.0,2367
1202,1202,16432,972,-8704,18620.29,26.32,-1.00,-1.0,2420
1204,1204,16564,-9984,-5484,20102.75,26.27,-1.00,-1.0,2369
1207,1207,13380,7052,6720,16550.33,26.22,-1.00,-1.0,2417
1210,1210,19704,-10624,764,22398.68,26.27,-1.00,-1.0,2355
1215,1215,17184,9012,19100,27227.12,26.27,-1.00,-1.0,2430
1218,1218,16876,-4156,-8996,19570.38,26.22,-1.00,-1.0,2366
1220,1220,12844,44,-11060,16949.75,26.27,-1.00,-1.0,2363
1223,1223,20244,-4268,15876,26078.40,26.22,-1.00,-1.0,2424
1226,1226,13616,-2844,-13716,19534.90,26.37,-1.00,-1.0,2373
1228,1228,18596,-10576,-4216,21804.53,26.37,-1.00,-1.0,2424
1231,1231,13188,13752,9724,21391.52,26.27,-1.00,-1.0,2373
1234,1234,19264,-14996,1696,24471.58,26.32,-1.00,-1.0,2415
1237,1237,13520,14252,9336,21750.19,26.32,-1.00,-1.0,2366
1242,1242,15124,-7204,-13080,21253.69,26.27,-1.00,-1.0,2426
1245,1245,18464,2708,7888,20260.14,26.18,-1.00,-1.0,2369
1247,1247,23372,-8208,10748,27002.61,26.27,-1.00,-1.0,2433
1250,1250,10348,-3288,-16948,20127.76,26.27,-1.00,-1.0,2366
1253,1253,21804,5232,28444,36219.46,26.27,-1.00,-1.0,2359
1255,1255,12572,3640,-10336,16677.46,26.22,-1.00,-1.0,2420
1258,1258,14124,-9976,-2264,17439.43,26.18,-1.00,-1.0,2373
1261,1261,14768,12832,20100,28049.31,26.27,-1.00,-1.0,2415
1264,1264,20508,-11800,-12220,26629.80,26.32,-1.00,-1.0,2368
1269,1269,18100,6516,3968,19642.13,26.22,-1.00,-1.0,2427
1272,1272,20244,-4444,580,20734.15,26.37,-1.00,-1.0,2375
1274,1274,13840,11944,16056,24331.05,26.22,-1.00,-1.0,2426
1277,1277,20056,1388,23112,30632.24,26.27,-1.00,-1.0,2375
1280,1280,14344,7708,-3136,16583.07,26.32,-1.00,-1.0,2419
1283,1283,20724,-6556,12812,25231.18,26.27,-1.00,-1.0,2369
1285,1285,13108,4296,5512,14854.54,26.37,-1.00,-1.0,2421
1288,1288,19796,-3752,400,20152.40,26.27,-1.00,-1.0,2368
1291,1291,18016,7160,9536,21605.03,26.27,-1.00,-1.0,2362
1296,1296,18300,-12976,-7356,23608.84,26.32,-1.00,-1.0,2426
1299,1299,12772,5668,2092,14128.93,26.27,-1.00,-1.0,2366
1301,1301,22700,-10092,-1804,24907.69,26.32,-1.00,-1.0,2423
1304,1304,15244,-1160,-12564,19788.36,26.22,-1.00,-1.0,2382
1307,1307,17296,-5016,9560,20388.86,26.22,-1.00,-1.0,2405
1310,1310,16248,6412,-480,17474.03,26.27,-1.00,-1.0,2368
1312,1312,18596,-4152,5712,19891.64,26.27,-1.00,-1.0,2422
1315,1315,13392,6348,6940,16364.79,26.18,-1.00,-1.0,2367
1320,1320,19408,-5144,1916,20169.34,26.32,-1.00,-1.0,2432
1322,1322,14624,-1416,-8632,17040.48,26.27,-1.00,-1.0,2365
1325,1325,17360,-6852,6528,19772.06,26.32,-1.00,-1.0,2376
1328,1328,15680,5736,-1064,16730.10,26.41,-1.00,-1.0,2422
1331,1331,19480,-7880,10740,23598.99,26.27,-1.00,-1.0,2367
1333,1333,12864,13120,1864,18468.66,26.22,-1.00,-1.0,2426
1336,1336,18460,-440,10244,21116.46,26.32,-1.00,-1.0,2374
1339,1339,15120,-1020,-492,15162.35,26.41,-1.00,-1.0,2430
1342,1342,22168,484,7148,23296.96,26.32,-1.00,-1.0,2375
1347,1347,10340,4088,2048,11305.82,26.32,-1.00,-1.0,2432
1349,1349,19312,-3780,15256,24899.54,26.18,-1.00,-1.0,2367
1352,1352,16828,16740,15496,28346.70,26.32,-1.00,-1.0,2375
1355,1355,17328,-8908,-2076,19593.92,26.32,-1.00,-1.0,2423
1358,1358,11600,6196,1756,13267.78,26.27,-1.00,-1.0,2368
1360,1360,21020,-15060,6748,26724.14,26.32,-1.00,-1.0,2425
1363,1363,14896,2900,-2632,15402.22,26.22,-1.00,-1.0,2381
1366,1366,19120,5940,16496,25941.78,26.22,-1.00,-1.0,2423
1369,1369,14512,1416,-4056,15134.54,26.32,-1.00,-1.0,2382
1374,1374,19936,-1172,17152,26325.06,26.32,-1.00,-1.0,2427
1377,1377,12756,432,-12344,17756.03,26.27,-1.00,-1.0,2364
1380,1380,20900,-5304,14816,26162.12,26.27,-1.00,-1.0,2416
1382,1382,11504,17168,8976,22531.11,26.18,-1.00,-1.0,2368
1385,1385,21716,-15848,9004,28351.64,26.27,-1.00,-1.0,2415
1388,1388,12020,20056,7376,24517.93,26.22,-1.00,-1.0,2369
1390,1390,20596,8976,21848,31338.46,26.27,-1.00,-1.0,2359
1393,1393,15920,-6608,-15908,23455.84,26.27,-1.00,-1.0,2418
1396,1396,18372,3084,6232,19643.81,26.22,-1.00,-1.0,2367
1401,1401,12784,516,-18700,22658.04,26.22,-1.00,-1.0,2425
1404,1404,19140,-18364,7772,27640.19,26.27,-1.00,-1.0,2364
1407,1407,11020,13748,736,17634.90,26.18,-1.00,-1.0,2417
1409,1409,22184,-8472,13192,27164.93,26.37,-1.00,-1.0,2368
1412,1412,12028,7612,-2108,14389.54,26.27,-1.00,-1.0,2415
1415,1415,25536,6288,21872,34205.42,26.27,-1.00,-1.0,2367
1417,1417,16068,6920,-8772,19570.77,26.37,-1.00,-1.0,2417
1420,1420,14600,-644,-11376,18519.94,26.37,-1.00,-1.0,2370
1423,1423,18076,-6076,5248,19778.80,26.18,-1.00,-1.0,2353
1428,1428,25348,-14156,2036,29104.27,26.32,-1.00,-1.0,2433
1431,1431,9544,16932,8216,21101.73,26.22,-1.00,-1.0,2372
1434,1434,20392,-15620,8584,27083.26,26.32,-1.00,-1.0,2419
1436,1436,18576,7768,3868,20502.95,26.46,-1.00,-1.0,2368
1439,1439,20416,2832,4440,21084.28,26.32,-1.00,-1.0,2420
1442,1442,17436,7200,7284,20221.54,26.27,-1.00,-1.0,2368
1444,1444,16888,592,10448,19867.45,26.27,-1.00,-1.0,2416
1447,1447,21500,-15624,4564,26966.45,26.37,-1.00,-1.0,2369
1450,1450,11504,12440,1724,17031.38,26.27,-1.00,-1.0,2362
1455,1455,10020,13988,4928,17898.32,26.27,-1.00,-1.0,2436
1458,1458,26612,-2116,17464,31900.90,26.22,-1.00,-1.0,2375
1461,1461,8948,12476,-5548,16324.75,26.27,-1.00,-1.0,2432
1463,1463,23920,-1824,29412,37954.70,26.32,-1.00,-1.0,2369
1466,1466,21352,9676,19232,30321.65,26.22,-1.00,-1.0,2418
1469,1469,15824,604,-2792,16079.77,26.32,-1.00,-1.0,2368
1471,1471,16588,-5520,6144,18530.54,26.32,-1.00,-1.0,2404
1474,1474,14064,2184,-6996,15859.07,26.22,-1.00,-1.0,2368
1479,1479,15468,6840,-1812,17009.64,26.27,-1.00,-1.0,2434
1482,1482,23136,-488,12476,26289.98,26.37,-1.00,-1.0,2372
1484,1484,13296,5016,-10708,17793.40,26.27,-1.00,-1.0,2357
1487,1487,22256,-28,16388,27638.68,26.22,-1.00,-1.0,2422
1490,1490,19852,-10684,6272,23400.59,26.27,-1.00,-1.0,2370
1493,1493,12856,8244,1748,15371.92,26.27,-1.00,-1.0,2428
1495,1495,15652,-20424,-7992,26944.33,26.27,-1.00,-1.0,2371
1498,1498,8840,4728,-5604,11484.96,26.32,-1.00,-1.0,2418
1501,1501,20204,-20332,3096,28830.14,26.32,-1.00,-1.0,2354
1506,1506,18120,2668,6064,19293.13,26.27,-1.00,-1.0,2436
1509,1509,19720,4720,6064,21164.33,26.37,-1.00,-1.0,2372
1512,1512,12804,5360,2208,14055.15,26.27,-1.00,-1.0,2427
1514,1514,20696,-4912,7656,22606.78,26.27,-1.00,-1.0,2368
1517,1517,8976,24232,6856,26735.05,26.37,-1.00,-1.0,2349
1520,1520,21704,-23084,4420,31991.73,26.27,-1.00,-1.0,2426
1522,1522,6344,12932,-4324,15039.28,26.27,-1.00,-1.0,2372
1525,1525,23148,-23600,6292,33650.84,26.27,-1.00,-1.0,2418
1528,1528,7484,19444,1932,20923.96,26.32,-1.00,-1.0,2368
1533,1533,19504,-11272,10448,24831.93,26.27,-1.00,-1.0,2427
1536,1536,9524,5512,-11364,15818.63,26.32,-1.00,-1.0,2365
1538,1538,19912,-17672,8700,28008.52,26.32,-1.00,-1.0,2420
1541,1541,7992,2436,-16240,18263.18,26.32,-1.00,-1.0,2366
1544,1544,27204,-15296,6660,31912.08,26.32,-1.00,-1.0,2406
1547,1547,10576,19208,3052,22138.51,26.37,-1.00,-1.0,2370
1549,1549,22928,-5868,16848,29051.36,26.27,-1.00,-1.0,2363
1552,1552,10016,14428,6212,18629.99,26.27,-1.00,-1.0,2414
1555,1555,27360,-4748,13372,30820.83,26.37,-1.00,-1.0,2366
1560,1560,8600,16668,-4728,19342.60,26.37,-1.00,-1.0,2426
1563,1563,21752,-17060,15668,31775.45,26.32,-1.00,-1.0,2364
1565,1565,9164,15132,-68,17690.70,26.27,-1.00,-1.0,2420
1568,1568,23340,-20684,3044,31334.48,26.32,-1.00,-1.0,2368
1571,1571,15632,6256,-7932,18612.19,26.22,-1.00,-1.0,2418
1574,1574,21444,2872,10864,24209.92,26.32,-1.00,-1.0,2373
1576,1576,16164,5704,3604,17515.69,26.32,-1.00,-1.0,2425
1579,1579,18800,6364,17892,26721.98,26.27,-1.00,-1.0,2373
1582,1582,16416,-188,-7612,18095.94,26.27,-1.00,-1.0,2363
1587,1587,21572,-20912,4664,30404.21,26.27,-1.00,-1.0,2425
1590,1590,12532,12992,732,18065.96,26.32,-1.00,-1.0,2366
1593,1593,25504,-2184,18052,31322.49,26.22,-1.00,-1.0,2420
1595,1595,14928,18000,4856,23883.59,26.37,-1.00,-1.0,2375
1598,1598,24672,-4620,14060,28770.39,26.22,-1.00,-1.0,2417
1601,1601,15236,-9160,-2312,17927.26,26.37,-1.00,-1.0,2371
1604,1604,13804,5124,2224,14891.34,26.32,-1.00,-1.0,2424
1606,1606,22240,-8164,580,23698.21,26.27,-1.00,-1.0,2371
1611,1611,20976,-17816,8748,28877.85,26.27,-1.00,-1.0,2428
1614,1614,13676,8584,-3388,16498.38,26.27,-1.00,-1.0,2365
1617,1617,21612,2996,18988,28924.02,26.27,-1.00,-1.0,2361
1619,1619,17860,10620,4664,21295.94,26.27,-1.00,-1.0,2431
1622,1622,9516,4932,-5376,11990.84,26.27,-1.00,-1.0,2368
1625,1625,16936,-16064,4592,23790.05,26.27,-1.00,-1.0,2417
1627,1627,12224,5572,-8380,15833.44,26.27,-1.00,-1.0,2367
1630,1630,21512,-11184,8000,25531.31,26.32,-1.00,-1.0,2426
1633,1633,10024,6572,-6968,13864.52,26.32,-1.00,-1.0,2374
1638,1638,9308,17644,1996,20048.28,26.27,-1.00,-1.0,2426
1641,1641,18768,6580,13372,23965.49,26.18,-1.00,-1.0,2365
1644,1644,20220,1232,76,20257.64,26.27,-1.00,-1.0,2427
1646,1646,20528,5104,8276,22714.35,26.27,-1.00,-1.0,2367
1649,1649,17284,-20180,-3408,26787.75,26.27,-1.00,-1.0,2362
1652,1652,6864,3656,-8284,11362.46,26.22,-1.00,-1.0,2425
1654,1654,18732,-20524,5708,28367.30,26.37,-1.00,-1.0,2368
1657,1657,12076,9284,-4864,15990.03,26.18,-1.00,-1.0,2420
1660,1660,22084,-10640,7624,25671.74,26.22,-1.00,-1.0,2375
1665,1665,25416,-4444,12776,28791.46,26.32,-1.00,-1.0,2436
1668,1668,20008,-10520,-2684,22763.88,26.18,-1.00,-1.0,2365
1671,1671,14116,4884,-2180,15095.27,26.22,-1.00,-1.0,2427
1673,1673,20304,-7580,860,21689.82,26.27,-1.00,-1.0,2368
1676,1676,9988,5296,-844,11336.67,26.27,-1.00,-1.0,2416
1679,1679,22840,-20768,9956,32436.05,26.27,-1.00,-1.0,2369
1681,1681,10636,19524,2932,22425.60,26.32,-1.00,-1.0,2363
1684,1684,23112,-15912,11384,30281.21,26.27,-1.00,-1.0,2416
1687,1687,8972,12584,-8496,17636.21,26.37,-1.00,-1.0,2362
1692,1692,15224,12724,1792,19921.89,26.22,-1.00,-1.0,2437
1695,1695,23512,5996,17876,30138.31,26.22,-1.00,-1.0,2363
1698,1698,20032,-15968,5544,26210.57,26.22,-1.00,-1.0,2429
1700,1700,9832,6868,-9316,15186.36,26.27,-1.00,-1.0,2367
1703,1703,21988,-16832,3536,27915.80,26.18,-1.00,-1.0,2419
1706,1706,10988,12704,-1824,16895.41,26.27,-1.00,-1.0,2367
1709,1709,25824,-17732,4880,31703.58,26.27,-1.00,-1.0,2426
1711,1711,10924,21296,4596,24371.63,26.27,-1.00,-1.0,2367
1714,1714,21328,-16324,3796,27125.01,26.18,-1.00,-1.0,2363
1719,1719,18612,9940,10256,23460.51,26.27,-1.00,-1.0,2434
1722,1722,18192,-2608,-1104,18411.12,26.22,-1.00,-1.0,2371
1725,1725,8668,7608,-10792,15795.04,26.27,-1.00,-1.0,2428
1727,1727,21652,-20336,6336,30372.80,26.22,-1.00,-1.0,2367
1730,1730,8812,3996,-16184,18855.80,26.32,-1.00,-1.0,2418
1733,1733,20636,-12072,13776,27592.68,26.32,-1.00,-1.0,2368
1736,1736,10804,11600,-1864,15961.23,26.22,-1.00,-1.0,2426
1738,1738,21072,-7708,10960,24971.26,26.32,-1.00,-1.0,2368
1743,1743,15200,7696,436,17042.84,26.32,-1.00,-1.0,2442
1746,1746,18052,-10220,1872,20828.53,26.32,-1.00,-1.0,2365
1749,1749,6040,9684,-10332,15395.18,26.22,-1.00,-1.0,2427
1751,1751,25336,-15720,13788,32850.27,26.22,-1.00,-1.0,2367
1754,1754,9716,13332,-10292,19443.97,26.22,-1.00,-1.0,2362
1757,1757,21128,-6964,9016,24003.71,26.27,-1.00,-1.0,2424
1759,1759,12860,12548,5320,18738.58,26.22,-1.00,-1.0,2368
1763,1763,26112,-2788,9520,27932.78,26.22,-1.00,-1.0,2417
1765,1765,12892,13204,1192,18492.44,26.32,-1.00,-1.0,2367
1770,1770,22336,-4544,6148,23608.11,26.32,-1.00,-1.0,2429
1773,1773,12976,9772,1996,16366.20,26.22,-1.00,-1.0,2364
1776,1776,20188,-21096,2948,29347.70,26.32,-1.00,-1.0,2429
1778,1778,10732,11892,-2148,16161.97,26.22,-1.00,-1.0,2367
1781,1781,20528,-17000,3812,26924.53,26.27,-1.00,-1.0,2419
1784,1784,14720,2416,-6328,16203.67,26.27,-1.00,-1.0,2366
1786,1786,23692,-700,10808,26050.21,26.41,-1.00,-1.0,2362
1790,1790,13076,7216,-4816,15692.24,26.37,-1.00,-1.0,2419
1792,1792,22988,-2400,12492,26272.77,26.22,-1.00,-1.0,2366
1799,1799,19196,-22808,-2456,29911.92,26.27,-1.00,-1.0,2435
1802,1802,7356,7944,-6452,12603.42,26.27,-1.00,-1.0,2370
1805,1805,27396,1232,17152,32345.78,26.18,-1.00,-1.0,2425
1808,1808,14796,10496,-5648,18999.67,26.18,-1.00,-1.0,2366
1810,1810,22672,-2812,13328,26449.24,26.37,-1.00,-1.0,2420
1813,1813,13152,6440,-4220,15239.98,26.22,-1.00,-1.0,2366
1816,1816,11420,8428,-672,14209.12,26.27,-1.00,-1.0,2426
1818,1818,20484,-12148,6636,24722.55,26.32,-1.00,-1.0,2367
1821,1821,11984,2032,-11692,16865.59,26.27,-1.00,-1.0,2363
1826,1826,8764,10112,-7400,15291.18,26.22,-1.00,-1.0,2426
1829,1829,27136,2288,16428,31803.72,26.32,-1.00,-1.0,2364
1831,1831,14312,10064,-5448,18324.79,26.32,-1.00,-1.0,2421
1834,1834,21948,1720,15144,26721.04,26.27,-1.00,-1.0,2383
1837,1837,13300,5324,-3072,14651.69,26.22,-1.00,-1.0,2423
1840,1840,11744,6000,-8800,15854.39,26.18,-1.00,-1.0,2375
1842,1842,20060,-16780,-2068,26234.49,26.32,-1.00,-1.0,2426
1845,1845,9860,3792,-5824,12063.08,26.18,-1.00,-1.0,2368
1850,1850,10896,18164,-1232,21217.25,26.27,-1.00,-1.0,2427
1853,1853,20360,916,11420,23362.04,26.32,-1.00,-1.0,2364
1855,1855,13432,7836,4244,16119.34,26.37,-1.00,-1.0,2351
1858,1858,24072,5380,20452,32042.00,26.37,-1.00,-1.0,2425
1861,1861,20920,-7876,13440,26082.78,26.32,-1.00,-1.0,2366
1863,1863,11148,2684,-14256,18295.23,26.32,-1.00,-1.0,2412
1866,1866,23252,-9188,16072,29721.78,26.18,-1.00,-1.0,2374
1869,1869,8116,4188,-10380,13825.82,26.22,-1.00,-1.0,2420
1872,1872,23984,-14180,2828,28005.40,26.27,-1.00,-1.0,2364
1877,1877,19628,5344,14552,25011.54,26.27,-1.00,-1.0,2427
1879,1879,15228,4876,2844,16240.56,26.32,-1.00,-1.0,2362
1882,1882,21372,1624,9772,23556.14,26.27,-1.00,-1.0,2422
1885,1885,20400,-6956,13456,25408.85,26.32,-1.00,-1.0,2366
1887,1887,12300,6616,-7964,16077.52,26.18,-1.00,-1.0,2362
1890,1890,20868,-15388,8252,27209.55,26.27,-1.00,-1.0,2419
1893,1893,9192,10896,-4140,14844.37,26.32,-1.00,-1.0,2367
1895,1895,26420,-9868,13312,31186.59,26.27,-1.00,-1.0,2419
1898,1898,11536,11512,-9760,18996.39,26.32,-1.00,-1.0,2369
1903,1903,14896,296,4272,15499.30,26.32,-1.00,-1.0,2441
1906,1906,9744,9176,-6628,14935.69,26.27,-1.00,-1.0,2367
1909,1909,23312,-14944,8000,28823.12,26.32,-1.00,-1.0,2420
1911,1911,8184,7568,-12856,17015.56,26.32,-1.00,-1.0,2428
1914,1914,20512,-17788,11020,29301.80,26.37,-1.00,-1.0,2423
1917,1917,11092,4120,-16460,20271.62,26.22,-1.00,-1.0,2369
1919,1919,23792,-10056,7152,26801.74,26.27,-1.00,-1.0,2349
1922,1922,11184,11240,-928,15883.34,26.37,-1.00,-1.0,2417
1925,1925,25220,-5492,12056,28487.85,26.27,-1.00,-1.0,2368
1930,1930,14252,6096,8432,17645.94,26.32,-1.00,-1.0,2430
1933,1933,21500,-10436,10304,26025.61,26.27,-1.00,-1.0,2365
1935,1935,11256,8788,-4832,15075.63,26.22,-1.00,-1.0,2438
1938,1938,20116,-12920,10956,26298.55,26.27,-1.00,-1.0,2367
1941,1941,10032,6092,-10288,15607.58,26.32,-1.00,-1.0,2426
1943,1943,22740,-5104,11856,26148.10,26.27,-1.00,-1.0,2367
1946,1946,13348,13432,3088,19186.54,26.37,-1.00,-1.0,2418
1949,1949,21676,-9044,9236,25237.80,26.27,-1.00,-1.0,2368
1954,1954,8136,5392,-5268,11091.44,26.27,-1.00,-1.0,2427
1956,1956,17148,-20848,80,26994.43,26.32,-1.00,-1.0,2373
1959,1959,10240,2648,-7664,13061.64,26.27,-1.00,-1.0,2361
1962,1962,23644,-6040,10076,26401.63,26.18,-1.00,-1.0,2427
1964,1964,11880,10436,-1588,15892.33,26.18,-1.00,-1.0,2368
1967,1967,24496,-13120,8000,28916.92,26.27,-1.00,-1.0,2418
1970,1970,11336,18860,5940,22792.28,26.22,-1.00,-1.0,2368
1973,1973,16812,6272,9540,20322.23,26.37,-1.00,-1.0,2427
1976,1976,18200,-308,2832,18421.59,26.27,-1.00,-1.0,2368
1980,1980,19300,-14480,10368,26261.30,26.27,-1.00,-1.0,2425
1983,1983,10320,1904,-16460,19520.74,26.27,-1.00,-1.0,2352
1986,1986,23264,-13752,11684,29442.27,26.27,-1.00,-1.0,2420
1989,1989,11544,12988,2532,17560.27,26.22,-1.00,-1.0,2375
1991,1991,22624,-8016,15284,28455.27,26.37,-1.00,-1.0,2362
1994,1994,13208,15372,620,20276.44,26.18,-1.00,-1.0,2417
1997,1997,17952,4236,7600,19949.39,26.27,-1.00,-1.0,2367
2000,2000,13680,17680,4208,22747.13,26.22,-1.00,-1.0,2426
2003,2003,16556,612,772,16585.29,26.27,-1.00,-1.0,2365
2008,2008,8604,1940,-14360,16852.36,26.27,-1.00,-1.0,2427
2010,2010,20688,-13540,11644,27329.61,26.27,-1.00,-1.0,2373
2013,2013,11360,5384,-11868,17288.33,26.27,-1.00,-1.0,2433
2016,2016,23104,-9052,14516,28748.00,26.22,-1.00,-1.0,2374
2019,2019,9968,9628,3000,14179.54,26.27,-1.00,-1.0,2425
2021,2021,24228,-7364,8344,26661.71,26.32,-1.00,-1.0,2370
2024,2024,13764,15880,2888,21212.32,26.27,-1.00,-1.0,2361
2027,2027,23348,-8560,13664,28374.42,26.13,-1.00,-1.0,2414
2030,2030,13328,13444,-5644,19754.28,26.32,-1.00,-1.0,2372
2035,2035,20292,-10056,14084,26669.22,26.27,-1.00,-1.0,2426
2037,2037,10560,6480,-7844,14663.98,26.27,-1.00,-1.0,2373
2040,2040,20928,-15576,8236,27357.35,26.18,-1.00,-1.0,2423
2043,2043,8460,11012,-2716,14149.64,26.27,-1.00,-1.0,2369
2046,2046,25124,-9980,10036,28836.38,26.27,-1.00,-1.0,2422
2048,2048,11872,12388,-4756,17805.24,26.32,-1.00,-1.0,2368
2051,2051,25652,-8416,12984,29957.28,26.18,-1.00,-1.0,2426
2054,2054,13796,17156,-232,22016.17,26.22,-1.00,-1.0,2375
2057,2057,22732,-8720,12796,27504.91,26.32,-1.00,-1.0,2365
2062,2062,19292,11252,16168,27571.60,26.32,-1.00,-1.0,2428
2064,2064,19468,-15716,11096,27370.00,26.27,-1.00,-1.0,2374
2067,2067,10876,2068,-10340,15148.58,26.22,-1.00,-1.0,2422
2070,2070,20500,-9236,10140,24665.22,26.18,-1.00,-1.0,2369
2073,2073,10512,11468,-2752,15798.44,26.27,-1.00,-1.0,2423
2075,2075,23672,-13656,7572,28358.16,26.27,-1.00,-1.0,2373
2078,2078,11908,12576,-2592,17512.13,26.27,-1.00,-1.0,2432
2081,2081,21344,-13720,5160,25892.67,26.27,-1.00,-1.0,2375
2086,2086,22688,-84,12324,25819.24,26.32,-1.00,-1.0,2434
2088,2088,19676,-5632,9980,22769.82,26.32,-1.00,-1.0,2368
2091,2091,12992,5080,-2584,14187.16,26.41,-1.00,-1.0,2423
2094,2094,20084,-5560,6752,21905.94,26.18,-1.00,-1.0,2368
2096,2096,10948,11468,-1108,15893.44,26.22,-1.00,-1.0,2357
2099,2099,18544,-22212,-2692,29060.28,26.32,-1.00,-1.0,2417
2102,2102,9216,6960,-8488,14332.56,26.27,-1.00,-1.0,2369
2105,2105,18548,-26640,-5720,32961.13,26.27,-1.00,-1.0,2407
2108,2108,11220,14548,4728,18970.68,26.18,-1.00,-1.0,2368
2113,2113,12052,8812,-10100,18025.32,26.27,-1.00,-1.0,2433
2115,2115,16896,4184,4012,17862.72,26.22,-1.00,-1.0,2365
2118,2118,16380,-196,2644,16593.18,26.22,-1.00,-1.0,2425
2121,2121,16892,5976,10960,21004.14,26.27,-1.00,-1.0,2369
2124,2124,19524,1964,3588,19947.87,26.22,-1.00,-1.0,2415
2126,2126,8336,8276,-6864,13604.98,26.32,-1.00,-1.0,2374
2129,2129,19536,-21928,3876,29622.89,26.22,-1.00,-1.0,2362
2132,2132,10580,10440,-6384,16176.70,26.27,-1.00,-1.0,2418
2135,2135,22832,-15492,8020,28733.65,26.27,-1.00,-1.0,2370
2140,2140,23800,-16204,10592,30678.98,26.27,-1.00,-1.0,2433
2142,2142,18668,8268,3552,20723.68,26.27,-1.00,-1.0,2366
2145,2145,21544,3920,13388,25666.10,26.27,-1.00,-1.0,2422
2148,2148,14616,488,-4984,15450.11,26.32,-1.00,-1.0,2367
2151,2151,20028,1376,12280,23533.22,26.27,-1.00,-1.0,2421
2153,2153,22396,-12088,7232,26457.56,26.32,-1.00,-1.0,2371
2156,2156,8192,8312,-2628,11962.63,26.41,-1.00,-1.0,2417
2159,2159,17368,-15948,4460,23997.45,26.37,-1.00,-1.0,2356
2162,2162,10528,3564,-6052,12655.73,26.27,-1.00,-1.0,2348
2167,2167,8912,8432,-9464,15494.83,26.32,-1.00,-1.0,2432
2169,2169,25324,3664,16344,30362.09,26.32,-1.00,-1.0,2368
2172,2172,16000,15456,1020,22269.45,26.32,-1.00,-1.0,2437
2175,2175,22588,-724,19236,29677.70,26.18,-1.00,-1.0,2377
2178,2178,11444,9432,-1536,14909.29,26.32,-1.00,-1.0,2432
2180,2180,15648,12540,14000,24456.32,26.37,-1.00,-1.0,2371
2183,2183,18552,-1984,280,18659.89,26.27,-1.00,-1.0,2417
2186,2186,15812,4816,8368,18526.65,26.32,-1.00,-1.0,2369
2189,2189,19820,-2440,6956,21146.44,26.22,-1.00,-1.0,2365
2194,2194,18896,-11896,15620,27249.92,26.22,-1.00,-1.0,2425
2196,2196,13336,7524,-2884,15581.30,26.32,-1.00,-1.0,2374
2199,2199,23608,-6444,9948,26416.39,26.22,-1.00,-1.0,2430
2202,2202,14672,13288,-3512,20104.05,26.27,-1.00,-1.0,2374
2205,2205,24960,-7316,13448,29280.95,26.22,-1.00,-1.0,2425
2207,2207,15748,2300,8440,18014.53,26.27,-1.00,-1.0,2369
2210,2210,20472,5576,13576,25189.33,26.32,-1.00,-1.0,2425
2213,2213,15764,7792,1752,17671.69,26.27,-1.00,-1.0,2357
2218,2218,20772,-4628,9256,23207.07,26.32,-1.00,-1.0,2427
2221,2221,15472,9004,-680,17914.16,26.32,-1.00,-1.0,2366
2223,2223,20064,-14532,9192,26424.16,26.22,-1.00,-1.0,2362
2226,2226,11608,7020,-7952,15724.51,26.27,-1.00,-1.0,2423
2229,2229,21344,-8840,10720,25468.22,26.22,-1.00,-1.0,2375
2231,2231,13752,4480,-3660,14919.23,26.18,-1.00,-1.0,2423
2234,2234,21292,-7324,7924,23870.06,26.22,-1.00,-1.0,2373
2237,2237,14712,12996,1740,19707.02,26.27,-1.00,-1.0,2416
2240,2240,20264,-7972,7096,22902.74,26.27,-1.00,-1.0,2367
2245,2245,17184,2860,12988,21729.19,26.27,-1.00,-1.0,2426
2248,2248,18620,968,-1344,18693.52,26.22,-1.00,-1.0,2370
2250,2250,13904,8372,-1480,16297.30,26.37,-1.00,-1.0,2431
2253,2253,14268,-11352,4684,18825.08,26.32,-1.00,-1.0,2372
2256,2256,12240,-204,-3888,12844.29,26.27,-1.00,-1.0,2358
2258,2258,25144,-5288,13340,28950.63,26.27,-1.00,-1.0,2421
2261,2261,11844,9920,-12440,19835.33,26.22,-1.00,-1.0,2381
2264,2264,22348,-17740,13720,31660.37,26.22,-1.00,-1.0,2416
2267,2267,9544,8968,-9724,16311.63,26.27,-1.00,-1.0,2367
2272,2272,14488,11108,3060,18510.90,26.27,-1.00,-1.0,2425
2275,2275,23556,-8244,9844,26828.21,26.18,-1.00,-1.0,2368
2277,2277,17452,-6032,-4696,19052.81,26.27,-1.00,-1.0,2422
2280,2280,15824,3016,2312,16273.92,26.32,-1.00,-1.0,2382
2283,2283,17724,-3624,2884,18319.14,26.37,-1.00,-1.0,2409
2286,2286,17880,3276,6244,19220.15,26.22,-1.00,-1.0,2367
2288,2288,20544,-16540,3656,26626.94,26.37,-1.00,-1.0,2365
2291,2291,9672,2244,-10108,14168.80,26.32,-1.00,-1.0,2418
2294,2294,17856,-16228,2688,24277.77,26.22,-1.00,-1.0,2368
2299,2299,22000,-2944,21208,30699.29,26.32,-1.00,-1.0,2425
2302,2302,11532,10220,-5568,16384.08,26.27,-1.00,-1.0,2365
2304,2304,19448,5044,14248,24630.71,26.27,-1.00,-1.0,2418
2307,2307,17472,8500,2572,19599.39,26.27,-1.00,-1.0,2383
2310,2310,19812,5316,14976,25397.95,26.37,-1.00,-1.0,2420
2313,2313,17972,8840,8036,21580.45,26.27,-1.00,-1.0,2377
2315,2315,11980,9436,-1084,15288.35,26.27,-1.00,-1.0,2427
2318,2318,16356,-9796,2212,19193.05,26.32,-1.00,-1.0,2369
2321,2321,13936,3032,-2420,14465.87,26.22,-1.00,-1.0,2363
2326,2326,11676,5360,-21732,25245.56,26.32,-1.00,-1.0,2430
2329,2329,20276,-8572,18676,28868.47,26.27,-1.00,-1.0,2365
2331,2331,9992,6264,-5592,13051.75,26.22,-1.00,-1.0,2420
2334,2334,21840,-724,12404,25127.06,26.27,-1.00,-1.0,2376
2337,2337,15288,2476,-10848,18908.53,26.18,-1.00,-1.0,2418
2340,2340,23112,-2324,9436,25071.97,26.18,-1.00,-1.0,2372
2342,2342,19908,-7916,8496,23047.20,26.18,-1.00,-1.0,2430
2345,2345,15824,7456,-1768,17581.72,26.27,-1.00,-1.0,2374
2350,2350,8668,10348,-7080,15242.76,26.22,-1.00,-1.0,2426
2353,2353,23064,-16636,7364,29375.72,26.27,-1.00,-1.0,2365
2355,2355,13004,11280,-1884,17317.39,26.32,-1.00,-1.0,2351
2358,2358,22424,-4340,16068,27925.83,26.22,-1.00,-1.0,2423
2361,2361,15880,14036,276,21195.75,26.27,-1.00,-1.0,2366
2363,2363,23116,-3732,12220,26412.23,26.22,-1.00,-1.0,2411
2366,2366,16816,-4920,1780,17611.15,26.27,-1.00,-1.0,2369
2369,2369,18896,7048,8976,22074.91,26.27,-1.00,-1.0,2413
2372,2372,19868,3532,160,20180.14,26.27,-1.00,-1.0,2377
2377,2377,17940,-12048,5748,22361.52,26.27,-1.00,-1.0,2415
2380,2380,13604,8648,148,16120.75,26.27,-1.00,-1.0,2366
2382,2382,22320,-7944,12944,26996.97,26.27,-1.00,-1.0,2433
2385,2385,12440,11408,-3000,17143.40,26.22,-1.00,-1.0,2367
2388,2388,22556,-7624,13336,27290.06,26.37,-1.00,-1.0,2358
2390,2390,15524,2012,1940,15773.60,26.32,-1.00,-1.0,2426
2393,2393,18296,-5400,1944,19175.05,26.27,-1.00,-1.0,2373
2396,2396,15788,5412,4152,17198.54,26.22,-1.00,-1.0,2414
2399,2399,24580,944,10084,26584.86,26.32,-1.00,-1.0,2376
2404,2404,9844,1268,-964,9972.03,26.32,-1.00,-1.0,2428
2407,2407,19952,-8844,1656,21887.00,26.27,-1.00,-1.0,2365
2409,2409,10992,12836,-4788,17564.51,26.32,-1.00,-1.0,2431
2412,2412,22444,-20812,10248,32278.38,26.37,-1.00,-1.0,2365
2415,2415,9376,19760,2768,22046.06,26.27,-1.00,-1.0,2422
2417,2417,22556,-12648,14492,29643.94,26.22,-1.00,-1.0,2368
2420,2420,14796,3452,-500,15201.58,26.22,-1.00,-1.0,2351
2423,2423,23700,2660,11388,26428.25,26.41,-1.00,-1.0,2418
2426,2426,16000,5396,-10532,19900.75,26.32,-1.00,-1.0,2368
2431,2431,24944,-19160,4660,31796.61,26.22,-1.00,-1.0,2440
2434,2434,7832,8596,-14740,18774.96,26.27,-1.00,-1.0,2371
2437,2437,20528,-23408,-1776,31184.73,26.18,-1.00,-1.0,2420
2439,2439,12220,20972,2876,24442.27,26.27,-1.00,-1.0,2367
2442,2442,26696,-7260,18648,33363.63,26.37,-1.00,-1.0,2418
2445,2445,13648,26000,12136,31773.42,26.32,-1.00,-1.0,2368
2447,2447,20608,-8532,12080,25365.55,26.27,-1.00,-1.0,2418
2450,2450,18880,-3980,-4396,19789.38,26.32,-1.00,-1.0,2367
2453,2453,19248,11100,7744,23530.09,26.32,-1.00,-1.0,2361
2458,2458,7192,8092,-14316,17948.63,26.22,-1.00,-1.0,2442
2461,2461,23384,-19220,9144,31620.13,26.37,-1.00,-1.0,2373
2464,2464,7044,8252,-7548,13216.87,26.27,-1.00,-1.0,2419
2466,2466,24728,-1640,17140,30132.10,26.27,-1.00,-1.0,2369
2469,2469,12716,16584,2108,21004.03,26.27,-1.00,-1.0,2417
2472,2472,22300,-6792,12328,26370.45,26.27,-1.00,-1.0,2367
2474,2474,13436,11556,1120,17757.30,26.27,-1.00,-1.0,2416
2477,2477,13616,2316,-792,13834.25,26.27,-1.00,-1.0,2369
2482,2482,12788,14904,2384,19782.46,26.32,-1.00,-1.0,2436
2485,2485,21352,-17304,9332,29024.52,26.41,-1.00,-1.0,2372
2487,2487,7948,10664,-5528,14403.14,26.13,-1.00,-1.0,2357
2490,2490,23248,2632,15412,28016.54,26.27,-1.00,-1.0,2423
2493,2493,15292,19712,9016,26527.28,26.41,-1.00,-1.0,2372
2496,2496,25060,-5196,9532,27310.46,26.22,-1.00,-1.0,2422
2498,2498,9316,10280,-3496,14306.93,26.32,-1.00,-1.0,2368
2501,2501,14356,4060,-2940,15205.98,26.27,-1.00,-1.0,2418
2504,2504,23416,-10132,-308,25515.90,26.27,-1.00,-1.0,2354
2509,2509,23916,-14044,15680,31860.19,26.37,-1.00,-1.0,2431
2512,2512,7136,23000,3572,24345.05,26.22,-1.00,-1.0,2372
2515,2515,24244,-19900,12760,33861.47,26.32,-1.00,-1.0,2431
2517,2517,7920,14644,-4852,17341.14,26.32,-1.00,-1.0,2370
2520,2520,20000,-484,4280,20458.56,26.27,-1.00,-1.0,2362
2523,2523,16588,-7692,-13268,22591.34,26.37,-1.00,-1.0,2419
2525,2525,17004,-1076,964,17065.26,26.32,-1.00,-1.0,2376
2528,2528,20532,4268,4428,21433.29,26.22,-1.00,-1.0,2419
2531,2531,8716,15284,2892,17830.68,26.27,-1.00,-1.0,2366
2536,2536,7352,16236,-7428,19308.93,26.27,-1.00,-1.0,2425
2539,2539,25552,-11932,14712,31807.55,26.22,-1.00,-1.0,2366
2542,2542,11096,13468,-5244,18221.08,26.27,-1.00,-1.0,2425
2544,2544,25824,-8744,8980,28705.00,26.32,-1.00,-1.0,2377
2547,2547,18840,-1772,-1920,19020.30,26.27,-1.00,-1.0,2411
2550,2550,14496,4848,9260,17871.34,26.32,-1.00,-1.0,2363
2552,2552,19884,-480,11532,22991.10,26.27,-1.00,-1.0,2370
2555,2555,18468,2972,-5556,19513.30,26.32,-1.00,-1.0,2419
2558,2558,20308,980,13552,24434.24,26.32,-1.00,-1.0,2369
2563,2563,25236,-2084,7636,26448.20,26.22,-1.00,-1.0,2427
2566,2566,18024,1492,-9220,20300.22,26.37,-1.00,-1.0,2364
2569,2569,22736,736,7700,24015.77,26.27,-1.00,-1.0,2422
2571,2571,17716,6864,-2648,19182.88,26.27,-1.00,-1.0,2373
2574,2574,6308,12540,476,14045.25,26.18,-1.00,-1.0,2418
2577,2577,20500,-20092,11192,30809.08,26.22,-1.00,-1.0,2375
2580,2580,6248,19832,2908,20995.29,26.18,-1.00,-1.0,2427
2582,2582,22080,-20260,12420,32438.41,26.32,-1.00,-1.0,2372
2585,2585,4284,16292,-1716,16933.00,26.32,-1.00,-1.0,2363
2591,2591,11236,3392,-22992,25814.44,26.22,-1.00,-1.0,2432
2593,2593,25592,-3804,16360,30611.61,26.37,-1.00,-1.0,2365
2596,2596,15364,-2980,-24604,29159.73,26.22,-1.00,-1.0,2424
2599,2599,11036,13344,-3312,17630.23,26.27,-1.00,-1.0,2366
2602,2602,17864,-17088,12804,27839.98,26.32,-1.00,-1.0,2413
2604,2604,4848,8412,-1344,9801.59,26.27,-1.00,-1.0,2374
2607,2607,30348,-10584,15752,35793.12,26.27,-1.00,-1.0,2417
2610,2610,7212,15156,-14908,22449.18,26.22,-1.00,-1.0,2418
2615,2615,20840,5248,12036,24631.53,26.27,-1.00,-1.0,2442
2618,2618,16528,4852,4136,17715.05,26.32,-1.00,-1.0,2366
2620,2620,20428,-17912,10876,29264.83,26.18,-1.00,-1.0,2369
2623,2623,6144,18556,696,19559.10,26.27,-1.00,-1.0,2415
2626,2626,23692,-25452,6252,35329.91,26.37,-1.00,-1.0,2375
2628,2628,4144,14392,-5720,16031.87,26.27,-1.00,-1.0,2425
2631,2631,24588,1180,15804,29252.84,26.32,-1.00,-1.0,2366
2634,2634,17212,1804,-10884,20444.29,26.27,-1.00,-1.0,2420
2636,2636,21940,-88,6276,22820.16,26.32,-1.00,-1.0,2369
2641,2641,6976,11208,-1752,13317.41,26.27,-1.00,-1.0,2433
2644,2644,28880,-9672,13332,33246.72,26.37,-1.00,-1.0,2358
2647,2647,9540,13024,-9808,18890.03,26.32,-1.00,-1.0,2416
2650,2650,26376,-8676,15308,31706.49,26.27,-1.00,-1.0,2373
2652,2652,9184,1136,-24848,26515.27,26.22,-1.00,-1.0,2363
2655,2655,15816,7252,-2620,17595.50,26.32,-1.00,-1.0,2418
2658,2658,22252,-5192,18424,29352.21,26.37,-1.00,-1.0,2371
2660,2660,9612,7928,-6088,13867.50,26.27,-1.00,-1.0,2405
2663,2663,20236,-11176,21656,31676.19,26.27,-1.00,-1.0,2375
2668,2668,25920,-16064,15840,34362.83,26.37,-1.00,-1.0,2440
2671,2671,21684,6180,7408,23733.24,26.27,-1.00,-1.0,2363
2674,2674,15868,4408,2116,16604.26,26.27,-1.00,-1.0,2420
2676,2676,21508,-436,17096,27478.31,26.32,-1.00,-1.0,2368
2679,2679,15372,5492,-9372,18822.72,26.27,-1.00,-1.0,2419
2682,2682,22604,-23884,4664,33213.54,26.32,-1.00,-1.0,2368
2685,2685,4064,17328,-1496,17860.96,26.22,-1.00,-1.0,2418
2687,2687,26080,-23276,3300,35111.66,26.27,-1.00,-1.0,2370
2690,2690,-64,17900,-9760,20388.03,26.37,-1.00,-1.0,2365
2695,2695,24256,6196,6236,25799.84,26.27,-1.00,-1.0,2442
2698,2698,6324,14560,4804,16585.08,26.18,-1.00,-1.0,2372
2701,2701,13884,-30984,-12244,36092.79,26.27,-1.00,-1.0,2421
2703,2703,4776,18716,11876,22674.62,26.27,-1.00,-1.0,2368
2706,2706,24576,-28020,-3984,37482.96,26.37,-1.00,-1.0,2419
2709,2709,15180,-604,-25016,29267.69,26.32,-1.00,-1.0,2369
2712,2712,23764,-2340,11992,26720.99,26.27,-1.00,-1.0,2425
2714,2714,21628,16876,9684,29092.09,26.22,-1.00,-1.0,2369
2719,2719,18880,-19184,2088,26997.04,26.32,-1.00,-1.0,2440
2722,2722,4024,28988,20848,35932.38,26.32,-1.00,-1.0,2377
2725,2725,24116,-4844,19700,31514.06,26.32,-1.00,-1.0,2358
2727,2727,16588,6628,-12756,21950.12,26.27,-1.00,-1.0,2417
2730,2730,23896,-3184,8520,25568.48,26.32,-1.00,-1.0,2368
2733,2733,20380,-14324,9608,26698.97,26.32,-1.00,-1.0,2418
2736,2736,7860,19268,9184,22746.02,26.32,-1.00,-1.0,2372
2738,2738,22844,-22940,4740,32719.41,26.37,-1.00,-1.0,2418
2741,2741,980,20312,5624,21098.98,26.37,-1.00,-1.0,2368
2746,2746,15604,6836,-9752,19629.50,26.22,-1.00,-1.0,2431
2749,2749,23556,-6228,4696,24813.82,26.41,-1.00,-1.0,2371
2752,2752,21236,-16572,4680,27340.47,26.22,-1.00,-1.0,2417
2755,2755,2928,25908,17696,31511.05,26.22,-1.00,-1.0,2372
2757,2757,19992,-27056,2728,33751.29,26.22,-1.00,-1.0,2361
2760,2760,16004,10964,-13272,23504.96,26.27,-1.00,-1.0,2417
2763,2763,26120,-4180,15844,30834.38,26.22,-1.00,-1.0,2372
2766,2766,18508,9252,-4424,21159.33,26.27,-1.00,-1.0,2418
2768,2768,23444,-4772,-1408,23966.13,26.37,-1.00,-1.0,2368
2773,2773,3052,13324,5312,14664.96,26.27,-1.00,-1.0,2431
2776,2776,23592,-22996,-1976,33004.59,26.32,-1.00,-1.0,2367
2779,2779,15624,5972,-13412,21439.59,26.27,-1.00,-1.0,2417
2782,2782,23868,-8156,1432,25263.66,26.22,-1.00,-1.0,2374
2784,2784,18416,15752,9968,26203.73,26.32,-1.00,-1.0,2427
2787,2787,24320,-3804,528,24621.37,26.32,-1.00,-1.0,2377
2790,2790,24572,-24224,-4592,34809.08,26.32,-1.00,-1.0,2363
2793,2793,320,15152,-2876,15425.85,26.32,-1.00,-1.0,2417
2795,2795,25548,-17528,19524,36621.27,26.18,-1.00,-1.0,2367
2800,2800,24644,-7428,3012,25914.75,26.18,-1.00,-1.0,2433
2803,2803,21124,-20768,-8956,30947.43,26.27,-1.00,-1.0,2365
2806,2806,6844,16248,5736,18540.21,26.32,-1.00,-1.0,2422
2808,2808,24704,-16620,6584,30493.62,26.27,-1.00,-1.0,2368
2811,2811,2860,6456,-15000,16578.89,26.37,-1.00,-1.0,2417
2814,2814,25756,-408,10120,27675.85,26.27,-1.00,-1.0,2369
2817,2817,16632,12756,10208,23313.99,26.37,-1.00,-1.0,2420
2820,2820,21980,-1336,1984,22109.76,26.22,-1.00,-1.0,2366
2824,2824,2364,8928,-14948,17571.01,26.32,-1.00,-1.0,2432
2827,2827,26232,-10072,-2516,28211.58,26.27,-1.00,-1.0,2364
2830,2830,15504,14904,10032,23730.66,26.32,-1.00,-1.0,2358
2832,2832,22336,-3936,2444,22811.45,26.32,-1.00,-1.0,2433
2835,2835,15680,-2920,-1876,16059.52,26.22,-1.00,-1.0,2366
2838,2838,4900,7140,-12384,15111.36,26.22,-1.00,-1.0,2424
2841,2841,27192,-17776,19112,37691.64,26.32,-1.00,-1.0,2369
2844,2844,7704,13140,-20064,25190.78,26.37,-1.00,-1.0,2430
2847,2847,25584,-12476,18116,33739.90,26.32,-1.00,-1.0,2376
2852,2852,16564,13480,9304,23294.65,26.32,-1.00,-1.0,2431
2854,2854,19160,-17444,-6992,26838.16,26.27,-1.00,-1.0,2365
2857,2857,7292,10736,4088,13606.86,26.32,-1.00,-1.0,2416
2860,2860,29204,-10060,24176,39224.43,26.27,-1.00,-1.0,2366
2862,2862,8696,21692,-6772,24331.53,26.37,-1.00,-1.0,2357
2865,2865,25160,-15020,14452,32672.41,26.22,-1.00,-1.0,2416
2868,2868,20476,-10680,-6428,23971.82,26.27,-1.00,-1.0,2366
2871,2871,10816,20456,12128,26125.12,26.27,-1.00,-1.0,2419
2874,2874,22756,-22880,976,32284.40,26.18,-1.00,-1.0,2431
2879,2879,28356,-15920,15664,36095.29,26.37,-1.00,-1.0,2430
2881,2881,11200,16968,4884,20909.48,26.27,-1.00,-1.0,2375
2884,2884,29028,-4152,5588,29851.12,26.37,-1.00,-1.0,2417
2887,2887,22284,-19552,3792,29887.06,26.18,-1.00,-1.0,2415
2890,2890,2264,11120,-9376,14720.38,26.32,-1.00,-1.0,2422
2892,2892,27796,-16708,20856,38558.37,26.32,-1.00,-1.0,2369
2895,2895,1580,8116,-27236,28463.41,26.32,-1.00,-1.0,2418
2898,2898,29452,-13016,6720,32893.69,26.37,-1.00,-1.0,2368
2901,2901,10516,9160,-3772,14447.14,26.27,-1.00,-1.0,2364
2906,2906,25644,-17984,18932,36598.63,26.27,-1.00,-1.0,2431
2908,2908,-832,5624,-26280,26887.92,26.32,-1.00,-1.0,2363
2911,2911,24828,-20552,19104,37467.01,26.32,-1.00,-1.0,2415
2914,2914,13892,17312,4228,22595.77,26.41,-1.00,-1.0,2367
2916,2916,24444,3356,17020,29974.19,26.32,-1.00,-1.0,2418
2919,2919,14076,-8380,-14172,21661.11,26.27,-1.00,-1.0,2356
2922,2922,5468,9900,-19744,22753.78,26.32,-1.00,-1.0,2421
2925,2925,28020,-17520,23748,40694.45,26.27,-1.00,-1.0,2370
2930,2930,26688,2484,13084,29826.34,26.18,-1.00,-1.0,2434
2932,2932,13144,-3364,-11212,17600.86,26.37,-1.00,-1.0,2365
2935,2935,18656,8384,24124,31627.60,26.27,-1.00,-1.0,2414
2938,2938,25372,-10964,23308,36155.37,26.22,-1.00,-1.0,2368
2940,2940,6280,7812,-14648,17749.07,26.27,-1.00,-1.0,2363
2943,2943,25052,-17408,11528,32611.90,26.37,-1.00,-1.0,2431
2946,2946,14440,-1860,-6792,16065.63,26.27,-1.00,-1.0,2375
2949,2949,17920,8984,12768,23766.79,26.22,-1.00,-1.0,2419
2952,2952,21868,-11720,-7576,25941.54,26.22,-1.00,-1.0,2366
2957,2957,26656,-18060,19256,37516.66,26.27,-1.00,-1.0,2438
2959,2959,7260,19072,-7628,21786.12,26.27,-1.00,-1.0,2364
2962,2962,27632,-18520,9224,34519.56,26.27,-1.00,-1.0,2432
2965,2965,15852,-6872,-15032,22901.34,26.18,-1.00,-1.0,2375
2968,2968,16432,16380,22372,32230.75,26.27,-1.00,-1.0,2418
2970,2970,21824,-9160,-6368,24510.08,26.22,-1.00,-1.0,2355
2973,2973,8264,6104,1260,10350.85,26.27,-1.00,-1.0,2421
2976,2976,24044,-10852,11272,28686.89,26.32,-1.00,-1.0,2369
2979,2979,10848,17840,8312,22472.96,26.22,-1.00,-1.0,2364
2984,2984,23768,-17876,-6000,30339.23,26.32,-1.00,-1.0,2432
2986,2986,4248,16496,3932,17482.11,26.27,-1.00,-1.0,2368
2989,2989,25332,-19664,13748,34891.12,26.27,-1.00,-1.0,2430
2992,2992,4824,9968,-16948,20245.16,26.22,-1.00,-1.0,2421
2995,2995,26948,-16932,5492,32296.28,26.37,-1.00,-1.0,2432
2997,2997,12308,17496,7372,22626.16,26.32,-1.00,-1.0,2365
3000,3000,25368,-3668,7244,26635.79,26.27,-1.00,-1.0,2418
3003,3003,14192,4912,-932,15046.90,26.32,-1.00,-1.0,2370
3008,3008,26312,-12520,12832,31839.16,26.32,-1.00,-1.0,2431
3010,3010,11636,11752,-3928,16998.09,26.22,-1.00,-1.0,2374
3013,3013,27848,-1056,10168,29665.04,26.37,-1.00,-1.0,2361
3016,3016,20336,-20548,112,28909.96,26.27,-1.00,-1.0,2421
3018,3018,5864,9736,100,11366.01,26.32,-1.00,-1.0,2370
3021,3021,24460,-11740,13972,30517.80,26.27,-1.00,-1.0,2417
3024,3024,7616,15068,-7004,18278.51,26.32,-1.00,-1.0,2369
3027,3027,23152,-11204,8072,26957.41,26.37,-1.00,-1.0,2422
3030,3030,14076,14692,10088,22710.27,26.27,-1.00,-1.0,2374
3035,3035,21356,-21796,1208,30538.56,26.27,-1.00,-1.0,2432
3037,3037,5380,17980,1124,18801.28,26.27,-1.00,-1.0,2364
3040,3040,25616,-20120,10424,34200.20,26.27,-1.00,-1.0,2415
3043,3043,13272,16620,6248,22167.72,26.41,-1.00,-1.0,2366
3045,3045,27520,-7936,-5088,29089.83,26.27,-1.00,-1.0,2362
3048,3048,13644,6744,3576,15634.20,26.27,-1.00,-1.0,2419
3051,3051,5604,13224,-3068,14686.44,26.27,-1.00,-1.0,2373
3054,3054,15048,-6488,-6332,17567.89,26.41,-1.00,-1.0,2427
3057,3057,2776,5728,-22872,23741.20,26.27,-1.00,-1.0,2373
3062,3062,12432,12128,4564,17957.54,26.27,-1.00,-1.0,2438
3064,3064,24708,-5856,284,25394.07,26.37,-1.00,-1.0,2365
3067,3067,17268,-484,-2728,17488.86,26.27,-1.00,-1.0,2417
3070,3070,19092,14780,16096,29017.82,26.32,-1.00,-1.0,2367
3073,3073,23548,-13092,25976,37425.41,26.27,-1.00,-1.0,2420
3075,3075,9948,-3220,-32768,34395.83,26.32,-1.00,-1.0,2371
3078,3078,25380,-14056,10884,30986.72,26.27,-1.00,-1.0,2362
3081,3081,13272,20900,2376,24871.70,26.32,-1.00,-1.0,2421
3084,3084,22808,-15796,4276,28071.38,26.22,-1.00,-1.0,2374
3089,3089,5844,4912,-26520,27596.93,26.22,-1.00,-1.0,2439
3091,3091,24616,-12816,22104,35479.35,26.27,-1.00,-1.0,2366
3094,3094,10896,13400,-14828,22762.96,26.27,-1.00,-1.0,2417
3097,3097,25584,-13552,12160,31401.65,26.27,-1.00,-1.0,2370
3100,3100,18136,-9624,-12600,24089.33,26.27,-1.00,-1.0,2414
3102,3102,11028,19416,18848,29220.62,26.32,-1.00,-1.0,2374
3105,3105,22320,-18436,-1008,28966.96,26.32,-1.00,-1.0,2455
3108,3108,6876,10828,-5312,13883.17,26.27,-1.00,-1.0,2366
3113,3113,10944,16404,4680,20267.33,26.37,-1.00,-1.0,2434
3116,3116,12744,13692,11832,22133.16,26.27,-1.00,-1.0,2364
3118,3118,23220,-17052,-1408,28843.05,26.37,-1.00,-1.0,2418
3121,3121,7564,13908,1976,15954.66,26.51,-1.00,-1.0,2372
3124,3124,24728,-15264,15908,33128.96,26.27,-1.00,-1.0,2362
3126,3126,6508,15288,44,16615.62,26.27,-1.00,-1.0,2421
3129,3129,26140,-13908,5572,30129.38,26.27,-1.00,-1.0,2372
3132,3132,12516,15204,2672,19873.38,26.27,-1.00,-1.0,2455
3135,3135,23860,4632,15384,28764.95,26.27,-1.00,-1.0,2370
3140,3140,8892,12720,-11432,19275.81,26.27,-1.00,-1.0,2442
3143,3143,25144,-13964,7476,29717.08,26.32,-1.00,-1.0,2364
3145,3145,8816,10376,-3432,14041.43,26.32,-1.00,-1.0,2423
3148,3148,23720,-4972,6892,25196.41,26.27,-1.00,-1.0,2364
3151,3151,15316,-2752,-11116,19123.78,26.32,-1.00,-1.0,2424
3153,3153,9632,13656,-6276,17850.77,26.37,-1.00,-1.0,2367
3156,3156,23412,-13760,15640,31337.98,26.32,-1.00,-1.0,2361
3159,3159,7252,12500,-4280,15071.83,26.27,-1.00,-1.0,2423
3162,3162,26292,-17884,11036,33658.58,26.27,-1.00,-1.0,2352
3167,3167,16112,648,5672,17093.51,26.27,-1.00,-1.0,2438
3169,3169,24320,-16376,13332,32208.35,26.22,-1.00,-1.0,2365
3172,3172,8052,16520,-3340,18678.88,26.32,-1.00,-1.0,2422
3175,3175,26312,-17464,15320,35100.07,26.37,-1.00,-1.0,2365
3178,3178,5868,23740,84,24454.61,26.22,-1.00,-1.0,2423
3180,3180,15708,912,15048,21771.89,26.27,-1.00,-1.0,2369
3183,3183,22380,-9204,-5864,24899.09,26.32,-1.00,-1.0,2420
3186,3186,14560,9884,-6644,18810.36,26.27,-1.00,-1.0,2367
3189,3189,27684,-9944,11796,31692.79,26.18,-1.00,-1.0,2363
3194,3194,26060,-10744,15140,31996.51,26.27,-1.00,-1.0,2441
3197,3197,21080,-2380,2892,21410.15,26.27,-1.00,-1.0,2363
3199,3199,13820,9004,2724,16717.79,26.27,-1.00,-1.0,2433
3202,3202,24720,-13048,4716,28347.30,26.32,-1.00,-1.0,2364
3205,3205,7876,7344,-9712,14501.33,26.32,-1.00,-1.0,2419
3207,3207,27144,-10356,4056,29334.19,26.32,-1.00,-1.0,2365
3210,3210,9340,11656,-4684,15653.68,26.22,-1.00,-1.0,2421
3213,3213,21288,-7788,9252,24483.29,26.27,-1.00,-1.0,2364
3218,3218,9108,12444,-10500,18656.33,26.32,-1.00,-1.0,2432
3220,3220,24548,-14444,10244,30268.35,26.32,-1.00,-1.0,2373
3223,3223,6008,8788,-9640,14361.57,26.32,-1.00,-1.0,2361
3226,3226,25128,-9492,2904,27017.54,26.32,-1.00,-1.0,2423
3228,3228,26356,-11052,10264,30366.68,26.22,-1.00,-1.0,2365
3231,3231,6440,7828,-15768,18745.16,26.32,-1.00,-1.0,2421
3234,3234,23672,-14796,22160,35641.98,26.22,-1.00,-1.0,2365
3237,3237,8896,9624,-16016,20694.74,26.32,-1.00,-1.0,2420
3240,3240,26736,-19528,7312,33906.07,26.32,-1.00,-1.0,2365
3245,3245,18804,3648,11840,22518.52,26.22,-1.00,-1.0,2432
3247,3247,26092,-14948,19488,35833.19,26.22,-1.00,-1.0,2368
3250,3250,7232,13668,-11512,19278.02,26.32,-1.00,-1.0,2418
3253,3253,25960,-18776,11088,33902.86,26.27,-1.00,-1.0,2368
3256,3256,5408,18600,-4504,19886.99,26.22,-1.00,-1.0,2422
3258,3258,19152,804,9820,21537.83,26.37,-1.00,-1.0,2371
3261,3261,21164,-24,-2640,21328.04,26.22,-1.00,-1.0,2362
3264,3264,14388,5364,-2892,15625.32,26.18,-1.00,-1.0,2420
3267,3267,22796,-13400,6216,27163.51,26.27,-1.00,-1.0,2365
3272,3272,26868,-14452,13084,33195.49,26.32,-1.00,-1.0,2434
3275,3275,7720,15400,-4280,17750.40,26.32,-1.00,-1.0,2371
3277,3277,14148,4880,1228,15016.27,26.41,-1.00,-1.0,2424
3280,3280,22572,-10300,6536,25657.45,26.37,-1.00,-1.0,2372
3283,3283,12456,10484,-7072,17750.47,26.27,-1.00,-1.0,2424
3286,3286,25488,-21316,10568,34866.79,26.18,-1.00,-1.0,2365
3288,3288,4360,11980,-9408,15844.26,26.27,-1.00,-1.0,2422
3291,3291,26596,-4928,20420,33891.13,26.37,-1.00,-1.0,2365
3294,3294,13632,9004,-13732,21341.77,26.18,-1.00,-1.0,2363
3299,3299,20424,-11140,7568,24464.54,26.32,-1.00,-1.0,2433
3302,3302,11840,17436,2516,21225.69,26.32,-1.00,-1.0,2365
3304,3304,23328,-5988,17624,29843.88,26.32,-1.00,-1.0,2424
3307,3307,11608,5084,-13624,18606.62,26.32,-1.00,-1.0,2380
3310,3310,18680,-2516,9112,20935.64,26.32,-1.00,-1.0,2424
3313,3313,22508,-14100,10556,28580.57,26.27,-1.00,-1.0,2365
3315,3315,9916,21072,9464,25138.09,26.32,-1.00,-1.0,2423
3318,3318,25488,-21036,444,33050.70,26.27,-1.00,-1.0,2365
3323,3323,18568,-6324,3240,19881.18,26.37,-1.00,-1.0,2433
3326,3326,15768,5856,11284,20254.66,26.32,-1.00,-1.0,2364
3328,3328,9408,23736,9764,27335.76,26.37,-1.00,-1.0,2357
3331,3331,28024,-19312,3688,34233.02,26.27,-1.00,-1.0,2419
3334,3334,3280,10732,-11524,16085.30,26.27,-1.00,-1.0,2364
3336,3336,15400,-7876,-5644,18194.67,26.27,-1.00,-1.0,2415
3339,3339,20552,5172,22112,30628.01,26.32,-1.00,-1.0,2368
3342,3342,18364,-1092,-15576,24104.79,26.41,-1.00,-1.0,2434
3345,3345,22364,-2476,20728,30592.96,26.32,-1.00,-1.0,2372
3350,3350,21216,-380,24472,32390.46,26.27,-1.00,-1.0,2434
3353,3353,13980,-580,-19580,24065.60,26.27,-1.00,-1.0,2364
3355,3355,13668,3004,-9120,16703.67,26.27,-1.00,-1.0,2417
3358,3358,22972,-21908,-3024,31887.58,26.32,-1.00,-1.0,2352
3361,3361,8396,19180,1720,21007.70,26.18,-1.00,-1.0,2422
3364,3364,24784,-15868,11448,31576.84,26.32,-1.00,-1.0,2367
3366,3366,16020,448,-7908,17871.14,26.27,-1.00,-1.0,2362
3369,3369,15872,-1268,-1148,15963.90,26.32,-1.00,-1.0,2414
3372,3372,19788,400,15712,25270.38,26.32,-1.00,-1.0,2378
3377,3377,24428,-16496,6256,30132.75,26.27,-1.00,-1.0,2469
3380,3380,8652,7256,-10360,15324.37,26.32,-1.00,-1.0,2354
3383,3383,19224,-288,24896,31455.62,26.37,-1.00,-1.0,2423
3385,3385,21876,-3464,10344,24444.98,26.22,-1.00,-1.0,2370
3388,3388,12960,15208,7024,21179.74,26.22,-1.00,-1.0,2433
3391,3391,21500,-21740,2292,30661.55,26.37,-1.00,-1.0,2374
3394,3394,7444,20752,14640,26464.85,26.22,-1.00,-1.0,2418
3396,3396,20116,3272,16748,26379.06,26.37,-1.00,-1.0,2354
3399,3399,16564,2164,-376,16708.99,26.27,-1.00,-1.0,2369
3404,3404,26368,-16936,-6184,31942.78,26.32,-1.00,-1.0,2434
3407,3407,8256,13520,-1864,15950.75,26.27,-1.00,-1.0,2371
3410,3410,23168,-9004,13668,28366.22,26.32,-1.00,-1.0,2411
3412,3412,18660,3472,14032,23603.97,26.27,-1.00,-1.0,2366
3415,3415,16564,-860,-12456,20742.65,26.37,-1.00,-1.0,2416
3418,3418,20976,-14296,824,25397.78,26.27,-1.00,-1.0,2370
3420,3420,7936,3028,-19528,21295.34,26.37,-1.00,-1.0,2418
3423,3423,22836,-6268,15604,28359.40,26.27,-1.00,-1.0,2368
3429,3429,19436,-7020,-5356,21347.72,26.27,-1.00,-1.0,2446
3431,3431,22592,-23588,-13184,35222.30,26.27,-1.00,-1.0,2372
3434,3434,10336,16672,5472,20364.95,26.41,-1.00,-1.0,2358
3437,3437,24260,-8960,11876,28458.19,26.32,-1.00,-1.0,2425
3439,3439,16428,1652,-1248,16557.95,26.18,-1.00,-1.0,2366
3442,3442,17644,-2748,-8624,19830.17,26.22,-1.00,-1.0,2417
3445,3445,17748,-4948,10332,21124.03,26.27,-1.00,-1.0,2368
3448,3448,13964,13808,11864,22943.60,26.37,-1.00,-1.0,2415
3450,3450,24256,-6456,24128,34816.57,26.27,-1.00,-1.0,2374
3455,3455,18044,-3072,-14744,23503.38,26.37,-1.00,-1.0,2441
3458,3458,14852,-23040,-11244,29628.55,26.37,-1.00,-1.0,2400
3461,3461,9888,14424,15832,23589.76,26.32,-1.00,-1.0,2432
3463,3463,24412,-19764,-10120,32999.63,26.32,-1.00,-1.0,2366
3466,3466,14744,4768,-11536,19318.35,26.22,-1.00,-1.0,2418
3469,3469,17972,-9784,-7472,21784.17,26.27,-1.00,-1.0,2367
3471,3471,16432,3408,15440,22803.92,26.32,-1.00,-1.0,2362
3474,3474,9328,16712,6372,20171.88,26.32,-1.00,-1.0,2419
3477,3477,25760,-6124,16060,30967.80,26.22,-1.00,-1.0,2366
3482,3482,18332,-5536,-11528,22351.83,26.37,-1.00,-1.0,2435
3485,3485,16472,-7428,6244,19117.78,26.27,-1.00,-1.0,2372
3488,3488,10672,12672,7544,18203.93,26.27,-1.00,-1.0,2425
3490,3490,25016,-84,32767,41224.79,26.37,-1.00,-1.0,2366
3493,3493,11808,8848,-16048,21800.33,26.27,-1.00,-1.0,2426
3496,3496,21784,-7544,3736,23354.06,26.32,-1.00,-1.0,2372
3499,3499,15892,6936,6216,18420.16,26.22,-1.00,-1.0,2418
3501,3501,9184,15280,6996,19151.20,26.41,-1.00,-1.0,2366
3504,3504,28252,-23000,-5032,36776.30,26.22,-1.00,-1.0,2362
3509,3509,20636,-7532,-1020,21991.27,26.22,-1.00,-1.0,2428
3512,3512,19656,14580,28604,37644.70,26.27,-1.00,-1.0,2371
3515,3515,18924,6392,-2536,20134.71,26.27,-1.00,-1.0,2425
3517,3517,21128,-5620,15536,26820.59,26.27,-1.00,-1.0,2373
3520,3520,9404,3984,-17208,20010.57,26.37,-1.00,-1.0,2432
3523,3523,23564,-3796,24648,34310.29,26.27,-1.00,-1.0,2376
3526,3526,14092,14004,1072,19895.87,26.37,-1.00,-1.0,2417
3528,3528,12952,13376,10824,21536.73,26.22,-1.00,-1.0,2369
3533,3533,13308,2640,-11556,17821.72,26.32,-1.00,-1.0,2430
3536,3536,21196,-784,10776,23790.91,26.22,-1.00,-1.0,2366
3539,3539,18348,12960,12672,25791.28,26.41,-1.00,-1.0,2419
3541,3541,7328,12856,1940,14924.47,26.37,-1.00,-1.0,2374
3544,3544,22484,-19880,6712,30753.79,26.22,-1.00,-1.0,2361
3547,3547,6292,14604,-3212,16222.92,26.32,-1.00,-1.0,2419
3549,3549,24124,-5068,27884,37217.86,26.32,-1.00,-1.0,2375
3552,3552,16928,6868,12520,22146.71,26.27,-1.00,-1.0,2419
3555,3555,16828,7512,7564,19920.49,26.37,-1.00,-1.0,2369
3560,3560,7648,10864,-8072,15545.92,26.27,-1.00,-1.0,2428
3563,3563,23712,-1932,21120,31812.67,26.32,-1.00,-1.0,2366
3566,3566,13140,10976,-5544,17996.34,26.41,-1.00,-1.0,2419
3568,3568,21204,-8540,12276,25946.90,26.32,-1.00,-1.0,2374
3571,3571,22448,-13732,-5628,26910.13,26.41,-1.00,-1.0,2418
3574,3574,10512,14872,8584,20133.64,26.32,-1.00,-1.0,2375
3576,3576,21712,-14520,6744,26976.34,26.32,-1.00,-1.0,2362
3579,3579,10288,12176,-3416,16302.36,26.32,-1.00,-1.0,2433
3582,3582,20272,-3488,2328,20701.20,26.27,-1.00,-1.0,2370
3587,3587,7208,12488,-5124,15302.31,26.27,-1.00,-1.0,2429
3590,3590,24300,-16380,14024,32487.95,26.22,-1.00,-1.0,2366
3593,3593,10396,10372,-9380,17425.26,26.37,-1.00,-1.0,2418
3595,3595,22112,748,24284,32851.37,26.32,-1.00,-1.0,2376
3598,3598,15556,-5548,3496,16881.69,26.27,-1.00,-1.0,2417
3601,3601,12580,6972,8032,16473.56,26.22,-1.00,-1.0,2371
3604,3604,20412,-11712,4588,23976.46,26.32,-1.00,-1.0,2425
3606,3606,10712,11812,-1504,16016.63,26.32,-1.00,-1.0,2372
3609,3609,27608,-12380,11080,32221.62,26.32,-1.00,-1.0,2365
3614,3614,13436,11844,6264,18974.83,26.27,-1.00,-1.0,2430
3617,3617,23096,-18792,-4824,30163.48,26.37,-1.00,-1.0,2365
3620,3620,7656,10036,-180,12624.11,26.37,-1.00,-1.0,2428
3622,3622,24620,-11820,16288,31798.68,26.37,-1.00,-1.0,2369
3625,3625,14172,14680,7336,21683.29,26.27,-1.00,-1.0,2417
3628,3628,18064,-9288,-2136,20423.95,26.32,-1.00,-1.0,2367
3631,3631,12060,1032,8092,14559.84,26.32,-1.00,-1.0,2421
3633,3633,15392,6544,7788,18449.68,26.32,-1.00,-1.0,2375
3638,3638,12800,2812,2880,13417.96,26.37,-1.00,-1.0,2434
3641,3641,15856,-4196,-5932,17441.55,26.32,-1.00,-1.0,2367
3643,3643,15792,-11124,2212,19442.83,26.27,-1.00,-1.0,2357
3646,3646,10672,9272,-13736,19711.40,26.37,-1.00,-1.0,2420
3649,3649,24092,-5080,22880,33611.39,26.32,-1.00,-1.0,2369
3652,3652,13920,9860,-9576,19562.36,26.22,-1.00,-1.0,2423
3654,3654,20292,-6136,12428,24573.79,26.32,-1.00,-1.0,2375
3657,3657,13012,9548,9436,18695.31,26.27,-1.00,-1.0,2412
3660,3660,18068,-6332,-4680,19709.12,26.27,-1.00,-1.0,2375
3665,3665,14232,6552,-6976,17150.60,26.18,-1.00,-1.0,2435
3668,3668,17872,-3932,10028,20866.96,26.32,-1.00,-1.0,2373
3671,3671,16784,7900,13160,22744.19,26.41,-1.00,-1.0,2425
3673,3673,18916,-2380,-6612,20179.15,26.22,-1.00,-1.0,2370
3676,3676,23540,-15492,-3128,28353.45,26.32,-1.00,-1.0,2431
3679,3679,6964,5076,-4168,9572.63,26.32,-1.00,-1.0,2377
3681,3681,22256,-1980,17104,28138.88,26.27,-1.00,-1.0,2369
3684,3684,14164,3732,-12988,19576.38,26.27,-1.00,-1.0,2416
3687,3687,21024,-3764,13768,25411.30,26.27,-1.00,-1.0,2371
3692,3692,12664,11540,4588,17736.92,26.27,-1.00,-1.0,2438
3695,3695,22872,-11384,12552,28465.36,26.32,-1.00,-1.0,2363
3698,3698,13988,6080,-6564,16604.72,26.22,-1.00,-1.0,2426
3700,3700,19280,-200,11968,22693.42,26.37,-1.00,-1.0,2367
3703,3703,17080,8448,6552,20150.03,26.32,-1.00,-1.0,2418
3706,3706,11152,10484,4476,15947.29,26.18,-1.00,-1.0,2367
3709,3709,21516,-13728,7396,26572.49,26.32,-1.00,-1.0,2427
3711,3711,9496,13440,516,16464.32,26.27,-1.00,-1.0,2368
3714,3714,26064,-9672,14184,31210.02,26.18,-1.00,-1.0,2362
3719,3719,20512,-112,4428,20984.80,26.27,-1.00,-1.0,2437
3722,3722,21100,-14684,4132,26036.58,26.22,-1.00,-1.0,2363
3725,3725,9212,9448,1096,13241.11,26.27,-1.00,-1.0,2424
3727,3727,23044,-9908,10080,27033.33,26.18,-1.00,-1.0,2368
3730,3730,9972,12776,-2320,16372.21,26.32,-1.00,-1.0,2418
3733,3733,19852,-4004,5676,21032.14,26.27,-1.00,-1.0,2368
3736,3736,16664,8528,9772,21116.53,26.22,-1.00,-1.0,2418
3738,3738,17920,5104,5392,19397.19,26.27,-1.00,-1.0,2368
3743,3743,11056,8132,-4656,14492.86,26.27,-1.00,-1.0,2435
3746,3746,20644,-1344,1776,20763.80,26.37,-1.00,-1.0,2379
3749,3749,16140,2328,5352,17162.84,26.37,-1.00,-1.0,2359
3751,3751,18408,4616,5444,19743.33,26.27,-1.00,-1.0,2419
3754,3754,21700,-15476,9240,28209.47,26.27,-1.00,-1.0,2369
3757,3757,10652,10888,-1948,15356.05,26.37,-1.00,-1.0,2414
3760,3760,22912,-5032,14324,27485.59,26.27,-1.00,-1.0,2376
3763,3763,12428,6728,-10028,17328.64,26.32,-1.00,-1.0,2417
3765,3765,24156,-8532,13972,29180.89,26.32,-1.00,-1.0,2368
3770,3770,13316,2112,988,13518.60,26.27,-1.00,-1.0,2429
3773,3773,24340,-10068,12176,29018.19,26.27,-1.00,-1.0,2371
3776,3776,10052,9424,-6916,15417.05,26.27,-1.00,-1.0,2422
3779,3779,22444,-10860,14780,28984.84,26.27,-1.00,-1.0,2377
3781,3781,13416,11368,-5796,18515.24,26.32,-1.00,-1.0,2361
3784,3784,15848,384,2148,15997.51,26.32,-1.00,-1.0,2405
3787,3787,15908,-11768,-3364,20071.54,26.27,-1.00,-1.0,2371
3790,3790,12056,4336,-492,12821.47,26.27,-1.00,-1.0,2418
3792,3792,21692,-12660,40,25116.13,26.22,-1.00,-1.0,2367
3797,3797,22220,-6696,8264,24634.50,26.22,-1.00,-1.0,2428
3800,3800,13648,5424,-6464,16045.90,26.32,-1.00,-1.0,2366
3803,3803,12060,2836,-3468,12865.21,26.32,-1.00,-1.0,2421
3806,3806,21588,-12704,7112,26038.70,26.27,-1.00,-1.0,2373
3808,3808,9328,14284,3208,17359.02,26.27,-1.00,-1.0,2424
3811,3811,23236,-7084,15336,28727.82,26.37,-1.00,-1.0,2376
3814,3814,12988,12200,-3900,18241.11,26.32,-1.00,-1.0,2363
3817,3817,21808,-5008,8260,23851.55,26.27,-1.00,-1.0,2420
3820,3820,14060,4188,2472,14877.29,26.18,-1.00,-1.0,2367
3824,3824,23112,-14392,4732,27634.87,26.27,-1.00,-1.0,2428
3827,3827,8004,12376,-1752,14842.47,26.32,-1.00,-1.0,2364
3830,3830,19748,-2568,13304,23949.42,26.32,-1.00,-1.0,2404
3833,3833,16656,5780,2932,17872.53,26.27,-1.00,-1.0,2372
3835,3835,20216,-3124,-844,20473.36,26.27,-1.00,-1.0,2425
3838,3838,19564,-12680,1184,23343.83,26.27,-1.00,-1.0,2375
3841,3841,8100,9960,6024,14180.98,26.32,-1.00,-1.0,2421
3844,3844,21056,-13888,1400,25262.46,26.27,-1.00,-1.0,2373
3847,3847,9364,7860,-3760,12790.69,26.37,-1.00,-1.0,2364
3851,3851,16940,6404,9412,20409.81,26.37,-1.00,-1.0,2439
3854,3854,9088,10844,696,14165.75,26.37,-1.00,-1.0,2363
3857,3857,20572,-14532,6520,26017.24,26.27,-1.00,-1.0,2425
3859,3859,9632,10564,2024,14438.49,26.27,-1.00,-1.0,2368
3862,3862,22304,-7032,8436,24861.29,26.37,-1.00,-1.0,2420
3865,3865,17456,3328,5396,18571.60,26.22,-1.00,-1.0,2357
3868,3868,19504,1912,1864,19685.94,26.27,-1.00,-1.0,2418
3871,3871,18036,-460,6468,19166.22,26.32,-1.00,-1.0,2374
3874,3874,15852,1700,72,15943.06,26.32,-1.00,-1.0,2367
3878,3878,10128,6968,-8568,14984.66,26.27,-1.00,-1.0,2439
3881,3881,21164,-1888,5800,22025.43,26.27,-1.00,-1.0,2363
3884,3884,17440,5460,5336,19037.81,26.32,-1.00,-1.0,2425
3886,3886,16964,-1068,-156,16998.30,26.27,-1.00,-1.0,2367
3889,3889,15572,-4424,2260,16345.23,26.27,-1.00,-1.0,2420
3892,3892,12176,11028,1408,16488.00,26.32,-1.00,-1.0,2357
3895,3895,21644,-10288,6692,24881.49,26.37,-1.00,-1.0,2417
3898,3898,11648,4572,-10188,16136.12,26.32,-1.00,-1.0,2372
3901,3901,20216,-10600,8732,24439.61,26.22,-1.00,-1.0,2364
3906,3906,18028,2512,2376,18356.59,26.32,-1.00,-1.0,2428
3908,3908,17248,-472,6424,18411.52,26.27,-1.00,-1.0,2365
3911,3911,10164,7628,-3304,13130.49,26.27,-1.00,-1.0,2417
3914,3914,20796,-12396,8744,25740.86,26.27,-1.00,-1.0,2370
3916,3916,14080,8284,-5660,17288.92,26.37,-1.00,-1.0,2417
3919,3919,21432,-5300,10772,24565.35,26.27,-1.00,-1.0,2368
3922,3922,14324,3208,1108,14720.59,26.37,-1.00,-1.0,2416
3925,3925,18624,-1024,5564,19464.33,26.32,-1.00,-1.0,2368
3930,3930,12600,7668,-4268,15354.94,26.22,-1.00,-1.0,2433
3932,3932,22072,-11492,4560,25298.87,26.27,-1.00,-1.0,2363
3935,3935,15076,4624,772,15788.07,26.32,-1.00,-1.0,2360
3938,3938,21400,-3288,4512,22116.26,26.37,-1.00,-1.0,2429
3940,3940,16000,12344,10172,22623.97,26.32,-1.00,-1.0,2370
3943,3943,18652,-2000,2228,18890.77,26.22,-1.00,-1.0,2426
3946,3946,20804,-12816,1944,24511.94,26.22,-1.00,-1.0,2374
3949,3949,11836,8140,-6584,15801.88,26.37,-1.00,-1.0,2420
3952,3952,25000,-13620,4632,28843.71,26.27,-1.00,-1.0,2365
3957,3957,21116,-4252,3260,21785.14,26.37,-1.00,-1.0,2428
3959,3959,15076,6968,3812,17040.25,26.41,-1.00,-1.0,2366
3962,3962,16964,-2996,1464,17288.63,26.32,-1.00,-1.0,2435
3965,3965,21820,-14956,-1084,26475.83,26.32,-1.00,-1.0,2374
3967,3967,9292,9296,-2192,13325.23,26.27,-1.00,-1.0,2365
3970,3970,22028,-10912,10852,26871.37,26.27,-1.00,-1.0,2427
3973,3973,15020,11820,5492,19886.55,26.32,-1.00,-1.0,2374
3976,3976,20456,-3976,3568,21142.07,26.22,-1.00,-1.0,2422
3979,3979,14132,7108,11196,19380.08,26.27,-1.00,-1.0,2367
3984,3984,22212,-13320,1028,25920.11,26.37,-1.00,-1.0,2429
3986,3986,10496,9068,-2892,14168.92,26.37,-1.00,-1.0,2373
3989,3989,23156,-11384,10872,27999.93,26.27,-1.00,-1.0,2426
3992,3992,15840,10424,10424,21638.51,26.41,-1.00,-1.0,2377
3995,3995,21724,-3940,-44,22078.45,26.37,-1.00,-1.0,2426
3997,3997,16096,9516,16708,25075.74,26.32,-1.00,-1.0,2371
4000,4000,18860,3748,5448,19985.69,26.41,-1.00,-1.0,2417
4003,4003,20308,-5704,5232,21733.02,26.22,-1.00,-1.0,2367
4006,4006,12348,1632,-6716,14150.66,26.22,-1.00,-1.0,2361
4011,4011,13912,6872,8000,17457.61,26.37,-1.00,-1.0,2429
4013,4013,19052,1328,5544,19886.63,26.37,-1.00,-1.0,2374
4016,4016,16532,3528,9396,19340.08,26.37,-1.00,-1.0,2420
4019,4019,11248,8608,1644,14258.96,26.37,-1.00,-1.0,2374
4022,4022,19680,-7336,7136,22182.02,26.27,-1.00,-1.0,2424
4024,4024,12196,1888,-11252,16700.73,26.41,-1.00,-1.0,2368
4027,4027,20100,-9456,6476,23137.95,26.27,-1.00,-1.0,2418
4030,4030,15920,3988,7260,17945.98,26.32,-1.00,-1.0,2374
4033,4033,17264,44,4004,17722.29,26.22,-1.00,-1.0,2369
4038,4038,11260,8040,-4800,14644.77,26.32,-1.00,-1.0,2428
4040,4040,20264,-11160,11020,25624.51,26.27,-1.00,-1.0,2373
4043,4043,14180,5516,-11160,18869.13,26.27,-1.00,-1.0,2420
4046,4046,20448,-4796,1904,21089.04,26.27,-1.00,-1.0,2354
4049,4049,13568,-608,-2264,13769.02,26.37,-1.00,-1.0,2425
4051,4051,20392,-668,5364,21096.27,26.22,-1.00,-1.0,2369
4054,4054,17172,2924,-852,17439.99,26.27,-1.00,-1.0,2426
4057,4057,10980,5856,-7300,14427.17,26.32,-1.00,-1.0,2375
4062,4062,13444,7700,1804,15597.61,26.37,-1.00,-1.0,2428
4064,4064,19824,-684,4916,20435.90,26.32,-1.00,-1.0,2365
4067,4067,20928,-7384,4300,22605.19,26.27,-1.00,-1.0,2358
4070,4070,11496,8464,-1848,14394.88,26.27,-1.00,-1.0,2429
4072,4072,21756,-11836,9996,26708.32,26.32,-1.00,-1.0,2424
4075,4075,13004,10732,-5960,17882.99,26.32,-1.00,-1.0,2421
4078,4078,21612,-9220,11420,26124.77,26.32,-1.00,-1.0,2368
4081,4081,12812,7464,416,14833.47,26.27,-1.00,-1.0,2427
4084,4084,21240,-1804,9020,23146.33,26.27,-1.00,-1.0,2375
4089,4089,12576,5968,-6068,15185.30,26.27,-1.00,-1.0,2430
4091,4091,22256,-12012,4560,25698.47,26.32,-1.00,-1.0,2364
4094,4094,13780,5696,780,14931.22,26.37,-1.00,-1.0,2365
4097,4097,21576,-2200,6888,22755.40,26.32,-1.00,-1.0,2429
4099,4099,14528,7836,2392,16678.95,26.27,-1.00,-1.0,2365
4102,4102,17708,-1592,5772,18692.88,26.27,-1.00,-1.0,2424
4105,4105,21368,-12000,6300,25303.78,26.27,-1.00,-1.0,2374
4108,4108,13952,-220,740,13973.34,26.32,-1.00,-1.0,2423
4111,4111,23788,-14696,4872,28382.70,26.37,-1.00,-1.0,2369
4116,4116,20704,-148,10784,23344.64,26.27,-1.00,-1.0,2431
4118,4118,15192,7312,3100,17142.70,26.32,-1.00,-1.0,2365
4121,4121,17228,-1100,5356,18074.87,26.27,-1.00,-1.0,2424
4124,4124,17792,3152,8220,19850.91,26.32,-1.00,-1.0,2370
4126,4126,9564,8160,-4712,13426.04,26.27,-1.00,-1.0,2357
4129,4129,22752,-15428,7208,28418.87,26.37,-1.00,-1.0,2419
4132,4132,12052,12580,-4652,18031.87,26.32,-1.00,-1.0,2366
4135,4135,24760,-8528,14112,29747.82,26.41,-1.00,-1.0,2414
4138,4138,11712,10292,-5304,16469.02,26.41,-1.00,-1.0,2370
4143,4143,21596,-16424,2220,27222.48,26.37,-1.00,-1.0,2437
4145,4145,10916,9640,-3280,14928.06,26.27,-1.00,-1.0,2366
4148,4148,20900,-14532,6300,26223.63,26.18,-1.00,-1.0,2420
4151,4151,11164,4780,-10284,15913.64,26.32,-1.00,-1.0,2368
4154,4154,20668,3328,10608,23468.52,26.27,-1.00,-1.0,2413
4156,4156,17064,5896,7216,19442.57,26.22,-1.00,-1.0,2376
4159,4159,17200,2800,8220,19267.81,26.37,-1.00,-1.0,2362
4162,4162,14796,3436,6480,16514.18,26.32,-1.00,-1.0,2420
4165,4165,14212,-28,1956,14346.00,26.32,-1.00,-1.0,2367
4170,4170,11696,8480,-6380,15792.76,26.32,-1.00,-1.0,2436
4172,4172,18940,2468,8048,20726.43,26.37,-1.00,-1.0,2352
4175,4175,16872,7108,10404,21057.81,26.27,-1.00,-1.0,2421
4178,4178,17612,120,5796,18541.59,26.37,-1.00,-1.0,2366
4181,4181,19344,-13268,552,23463.48,26.37,-1.00,-1.0,2415
4183,4183,10728,4952,-6420,13447.26,26.32,-1.00,-1.0,2376
4186,4186,20832,-13000,3456,24797.50,26.37,-1.00,-1.0,2361
4189,4189,13908,6876,-4848,16254.69,26.27,-1.00,-1.0,2406
4192,4192,23024,-9568,7404,26009.04,26.32,-1.00,-1.0,2370
4197,4197,18500,2128,7428,20048.78,26.41,-1.00,-1.0,2435
4200,4200,19396,-14848,4448,24828.46,26.32,-1.00,-1.0,2365
4202,4202,12032,4596,-7308,14808.75,26.22,-1.00,-1.0,2423
4205,4205,20780,-10708,6928,24381.69,26.37,-1.00,-1.0,2369
4208,4208,12896,8048,-2260,15368.30,26.32,-1.00,-1.0,2421
4210,4210,22580,-6832,8500,25075.54,26.27,-1.00,-1.0,2368
4213,4213,13740,9584,1148,16791.62,26.27,-1.00,-1.0,2417
4216,4216,22284,-208,9576,24255.30,26.27,-1.00,-1.0,2357
4219,4219,16384,7780,5944,19086.51,26.27,-1.00,-1.0,2350
4224,4224,19804,-13020,1976,23782.84,26.22,-1.00,-1.0,2431
4227,4227,15068,7908,-1648,17096.70,26.32,-1.00,-1.0,2366
4229,4229,22980,-4208,8028,24702.96,26.22,-1.00,-1.0,2425
4232,4232,13896,8828,2292,16621.84,26.27,-1.00,-1.0,2371
4235,4235,20676,-4936,6648,22272.34,26.22,-1.00,-1.0,2415
4237,4237,18944,-6272,3656,20287.42,26.27,-1.00,-1.0,2368
4240,4240,11624,6000,-2444,13307.54,26.27,-1.00,-1.0,2417
4243,4243,19660,-18940,-516,27303.95,26.46,-1.00,-1.0,2368
4248,4248,23532,-3372,12372,26799.10,26.37,-1.00,-1.0,2430
4251,4251,16924,-1436,7088,18404.45,26.32,-1.00,-1.0,2371
4253,4253,13816,6072,4992,15895.63,26.27,-1.00,-1.0,2361
4256,4256,16640,-8300,-264,18597.02,26.27,-1.00,-1.0,2421
4259,4259,12568,8680,-9944,18225.81,26.37,-1.00,-1.0,2368
4261,4261,24636,-10880,15500,31073.41,26.27,-1.00,-1.0,2416
4264,4264,12868,13284,-4968,19150.22,26.32,-1.00,-1.0,2376
4267,4267,22728,-8024,12028,26937.32,26.22,-1.00,-1.0,2418
4270,4270,12704,6240,-6044,15390.23,26.37,-1.00,-1.0,2367
4276,4276,15900,3512,10172,19199.32,26.32,-1.00,-1.0,2428
4278,4278,14508,3300,3104,15198.91,26.27,-1.00,-1.0,2363
4281,4281,17288,-2768,6108,18543.04,26.27,-1.00,-1.0,2418
4284,4284,10892,3808,-10124,15350.31,26.27,-1.00,-1.0,2369
4286,4286,22832,-9552,9920,26663.60,26.32,-1.00,-1.0,2363
4289,4289,14340,10100,-7428,19047.86,26.32,-1.00,-1.0,2418
4292,4292,17612,-1332,8064,19416.10,26.37,-1.00,-1.0,2367
4294,4294,15612,8224,10992,20789.25,26.22,-1.00,-1.0,2418
4297,4297,17356,3140,7952,19347.47,26.37,-1.00,-1.0,2355
4302,4302,11700,6760,-644,13527.84,26.27,-1.00,-1.0,2431
4305,4305,22888,-4696,14224,27353.89,26.27,-1.00,-1.0,2372
4307,4307,15956,9228,-368,18435.98,26.27,-1.00,-1.0,2427
4310,4310,22008,-4628,8036,23881.96,26.37,-1.00,-1.0,2373
4313,4313,16376,8272,2504,18516.73,26.27,-1.00,-1.0,2424
4316,4316,15372,2420,5284,16433.97,26.32,-1.00,-1.0,2372
4318,4318,14640,28,4676,15368.65,26.37,-1.00,-1.0,2369
4321,4321,13764,984,-456,13806.66,26.37,-1.00,-1.0,2431
4324,4324,17100,-8308,3428,19317.97,26.32,-1.00,-1.0,2368
4329,4329,23568,-11436,8272,27471.05,26.41,-1.00,-1.0,2429
4332,4332,13996,7888,-10060,18955.53,26.32,-1.00,-1.0,2366
4334,4334,18968,-1964,8572,20907.45,26.32,-1.00,-1.0,2414
4337,4337,15588,12172,12468,23379.36,26.37,-1.00,-1.0,2369
4340,4340,18380,3508,9764,21106.07,26.18,-1.00,-1.0,2419
4343,4343,18176,-12248,-1424,21963.79,26.27,-1.00,-1.0,2367
4345,4345,14392,3728,-3332,15235.81,26.27,-1.00,-1.0,2424
4348,4348,21920,-14652,-772,26377.33,26.27,-1.00,-1.0,2373
4351,4351,12232,7656,-8168,16581.69,26.27,-1.00,-1.0,2370
4356,4356,15240,11516,3792,19474.47,26.27,-1.00,-1.0,2428
4359,4359,21972,-6124,8164,24226.49,26.32,-1.00,-1.0,2368
4361,4361,15540,1184,5320,16468.03,26.22,-1.00,-1.0,2414
4364,4364,15744,4708,8720,18603.15,26.32,-1.00,-1.0,2369
4367,4367,17252,148,4396,17803.88,26.27,-1.00,-1.0,2416
4370,4370,10860,7216,-6280,14472.34,26.27,-1.00,-1.0,2368
4372,4372,21128,-13768,6200,25969.02,26.27,-1.00,-1.0,2422
4375,4375,14988,4256,-6900,17040.06,26.27,-1.00,-1.0,2380
4378,4378,21324,-7912,4024,23097.73,26.37,-1.00,-1.0,2375
4383,4383,18960,840,9756,21339.32,26.27,-1.00,-1.0,2428
4386,4386,14980,11460,12848,22821.11,26.22,-1.00,-1.0,2365
4389,4389,12968,6744,1716,14717.17,26.18,-1.00,-1.0,2416
4391,4391,17612,-7332,2844,19288.06,26.22,-1.00,-1.0,2367
4394,4394,14040,5556,-88,15099.62,26.22,-1.00,-1.0,2418
4397,4397,16720,-14348,-3044,22241.62,26.22,-1.00,-1.0,2367
4399,4399,13484,7388,-9644,18149.59,26.32,-1.00,-1.0,2419
4402,4402,23544,-7864,9600,26614.33,26.32,-1.00,-1.0,2375
4407,4407,19432,1392,6620,20575.83,26.27,-1.00,-1.0,2446
4410,4410,14980,8908,9476,19838.03,26.37,-1.00,-1.0,2371
4412,4412,11400,4336,-4604,13036.78,26.22,-1.00,-1.0,2364
4415,4415,19644,-15864,912,25266.28,26.22,-1.00,-1.0,2414
4418,4418,12832,5944,-7832,16165.75,26.27,-1.00,-1.0,2369
4421,4421,22032,-3536,12296,25477.52,26.27,-1.00,-1.0,2413
4423,4423,12952,5688,-3348,14536.74,26.27,-1.00,-1.0,2368
4426,4426,21976,-3772,14004,26330.30,26.32,-1.00,-1.0,2418
4429,4429,14612,9684,-2544,17713.34,26.32,-1.00,-1.0,2366
4434,4434,15340,2544,10716,18884.39,26.32,-1.00,-1.0,2443
4437,4437,16524,4424,7032,18494.96,26.37,-1.00,-1.0,2375
4440,4440,14844,-1780,2464,15152.03,26.32,-1.00,-1.0,2423
4442,4442,14924,6772,-5464,17275.45,26.37,-1.00,-1.0,2367
4445,4445,20988,-15496,-720,26098.67,26.27,-1.00,-1.0,2365
4448,4448,11896,5696,-5372,14241.41,26.32,-1.00,-1.0,2430
4450,4450,21640,-484,13828,25685.36,26.27,-1.00,-1.0,2369
4453,4453,15612,10216,2652,18845.01,26.27,-1.00,-1.0,2418
4456,4456,21876,-3856,10352,24506.98,26.41,-1.00,-1.0,2366
4461,4461,14744,6720,8084,18107.87,26.41,-1.00,-1.0,2437
4464,4464,17028,-1276,7104,18494.53,26.37,-1.00,-1.0,2372
4467,4467,15232,4432,6912,17304.11,26.32,-1.00,-1.0,2427
4469,4469,20176,-11992,2568,23610.88,26.37,-1.00,-1.0,2367
4472,4472,13812,6632,-5036,16128.11,26.22,-1.00,-1.0,2417
4475,4475,22556,-15832,824,27569.99,26.37,-1.00,-1.0,2367
4477,4477,16204,8260,4996,18861.53,26.32,-1.00,-1.0,2367
4480,4480,20212,1716,11708,23421.08,26.27,-1.00,-1.0,2417
4483,4483,15952,11704,9280,21853.34,26.18,-1.00,-1.0,2367
4488,4488,16976,-2544,4408,17722.50,26.27,-1.00,-1.0,2429
4491,4491,14324,5688,5312,16301.77,26.27,-1.00,-1.0,2365
4493,4493,20568,-12160,632,23902.04,26.27,-1.00,-1.0,2414
4496,4496,15520,5276,-4436,16981.89,26.22,-1.00,-1.0,2374
4499,4499,21988,-12820,-84,25452.54,26.27,-1.00,-1.0,2419
4502,4502,12404,4064,-9740,16286.28,26.32,-1.00,-1.0,2368
4504,4504,19988,-3292,3968,20642.25,26.27,-1.00,-1.0,2362
4507,4507,15724,10488,9016,20941.12,26.32,-1.00,-1.0,2415
4510,4510,21468,-3432,7652,23047.92,26.27,-1.00,-1.0,2366
4515,4515,16672,3272,7640,18628.77,26.37,-1.00,-1.0,2428
4518,4518,16880,1932,4404,17551.70,26.18,-1.00,-1.0,2367
4520,4520,11176,4588,-6984,13954.53,26.27,-1.00,-1.0,2417
4523,4523,20944,-13812,3300,25304.40,26.32,-1.00,-1.0,2383
4526,4526,13768,5140,-5044,15537.68,26.37,-1.00,-1.0,2418
4529,4529,21108,-11256,-88,23921.81,26.32,-1.00,-1.0,2367
4531,4531,15380,7336,2920,17288.37,26.32,-1.00,-1.0,2433
4534,4534,21212,-1960,10424,23716.04,26.32,-1.00,-1.0,2365
4537,4537,17792,10376,4548,21092.68,26.41,-1.00,-1.0,2360
4542,4542,16020,-788,4096,16554.11,26.27,-1.00,-1.0,2428
4545,4545,16380,4516,7788,18690.95,26.32,-1.00,-1.0,2353
4548,4548,16024,-132,5100,16816.54,26.27,-1.00,-1.0,2424
4550,4550,13404,6908,-2592,15300.53,26.32,-1.00,-1.0,2370
4553,4553,19504,-12860,-1052,23385.73,26.32,-1.00,-1.0,2425
4556,4556,11816,5704,-2172,13299.29,26.27,-1.00,-1.0,2375
4559,4559,19160,-13260,1532,23351.24,26.22,-1.00,-1.0,2416
4561,4561,15488,9352,-112,18092.83,26.32,-1.00,-1.0,2369
4566,4566,15156,2820,4404,16032.84,26.32,-1.00,-1.0,2430
4569,4569,15968,2624,7364,17778.95,26.37,-1.00,-1.0,2368
4571,4571,18432,3604,9852,21208.24,26.32,-1.00,-1.0,2354
4574,4574,13988,6484,372,15422.22,26.22,-1.00,-1.0,2421
4577,4577,16652,-11784,268,20401.56,26.27,-1.00,-1.0,2368
4580,4580,13740,6072,1720,15120.03,26.27,-1.00,-1.0,2415
4582,4582,21640,-10012,4800,24322.21,26.27,-1.00,-1.0,2374
4585,4585,13376,2496,-11172,17605.71,26.37,-1.00,-1.0,2430
4588,4588,20932,-9052,8236,24247.04,26.32,-1.00,-1.0,2368
4593,4593,18776,624,10484,21513.76,26.32,-1.00,-1.0,2428
4596,4596,15716,5888,4364,17340.87,26.37,-1.00,-1.0,2365
4598,4598,20112,-1200,8492,21864.28,26.32,-1.00,-1.0,2344
4601,4601,16284,988,8488,18389.97,26.32,-1.00,-1.0,2423
4604,4604,16880,4644,7272,18957.40,26.27,-1.00,-1.0,2354
4607,4607,16932,1548,9592,19521.66,26.27,-1.00,-1.0,2415
4609,4609,12808,3016,-8264,15538.17,26.27,-1.00,-1.0,2374
4612,4612,18184,-10132,1840,20897.39,26.27,-1.00,-1.0,2427
4615,4615,15180,1944,-3280,15651.52,26.37,-1.00,-1.0,2375
4620,4620,14444,4304,-6008,16224.97,26.22,-1.00,-1.0,2430
4623,4623,22188,-7584,6416,24310.28,26.22,-1.00,-1.0,2367
4626,4626,13832,1880,-8960,16587.35,26.32,-1.00,-1.0,2423
4628,4628,20552,-8516,3984,22600.43,26.22,-1.00,-1.0,2372
4631,4631,14920,7636,8332,18717.29,26.32,-1.00,-1.0,2362
4634,4634,18516,-832,9816,20973.52,26.37,-1.00,-1.0,2420
4636,4636,17236,6420,6180,19403.31,26.32,-1.00,-1.0,2369
4639,4639,14528,6868,5516,16989.95,26.32,-1.00,-1.0,2424
4642,4642,15180,-2468,5848,16453.65,26.27,-1.00,-1.0,2375
4647,4647,20004,-12004,-676,23339.09,26.27,-1.00,-1.0,2430
4650,4650,13412,2772,-8984,16379.19,26.32,-1.00,-1.0,2365
4653,4653,18784,-12656,-1564,22703.72,26.37,-1.00,-1.0,2427
4655,4655,14452,1128,-5164,15388.29,26.32,-1.00,-1.0,2368
4658,4658,20480,-8052,1476,22055.47,26.27,-1.00,-1.0,2361
4661,4661,14864,3224,-5908,16316.77,26.27,-1.00,-1.0,2430
4663,4663,19684,-13060,-1132,23649.63,26.32,-1.00,-1.0,2366
4666,4666,12672,860,-8796,15449.56,26.32,-1.00,-1.0,2420
4669,4669,22196,-10772,1456,24714.74,26.32,-1.00,-1.0,2375
4674,4674,15748,6552,6216,18153.98,26.37,-1.00,-1.0,2440
4677,4677,17920,-2156,4700,18651.13,26.27,-1.00,-1.0,2363
4680,4680,14248,7424,4840,16779.36,26.27,-1.00,-1.0,2424
4682,4682,15460,-6012,6056,17658.73,26.22,-1.00,-1.0,2367
4685,4685,15444,6408,-5800,17698.01,26.27,-1.00,-1.0,2419
4688,4688,19168,-9268,1496,21343.53,26.41,-1.00,-1.0,2366
4690,4690,13716,3224,-5240,15032.65,26.37,-1.00,-1.0,2361
4693,4693,18776,-15820,-1056,24574.90,26.32,-1.00,-1.0,2418
4696,4696,13448,5732,-2020,14757.54,26.32,-1.00,-1.0,2355
4701,4701,17440,3948,10320,20645.65,26.32,-1.00,-1.0,2428
4704,4704,18524,3928,10108,21464.84,26.32,-1.00,-1.0,2353
4707,4707,15620,8412,8440,19646.37,26.32,-1.00,-1.0,2423
4709,4709,13816,3004,-2868,14426.76,26.27,-1.00,-1.0,2371
4712,4712,18376,-10432,5048,21725.25,26.32,-1.00,-1.0,2432
4715,4715,13728,6252,-64,15084.75,26.37,-1.00,-1.0,2375
4718,4718,18300,-4464,7328,20211.80,26.18,-1.00,-1.0,2417
4720,4720,16072,4068,2380,16748.80,26.22,-1.00,-1.0,2367
4723,4723,16040,-4116,5036,17308.51,26.41,-1.00,-1.0,2362
4728,4728,17532,80,7748,19167.91,26.27,-1.00,-1.0,2430
4731,4731,16716,612,1004,16757.30,26.32,-1.00,-1.0,2365
4734,4734,19684,-168,5796,20520.28,26.32,-1.00,-1.0,2426
4736,4736,17068,5260,1892,17960.06,26.41,-1.00,-1.0,2372
4739,4739,15496,1400,4884,16307.65,26.32,-1.00,-1.0,2433
4742,4742,15952,484,7344,17568.01,26.27,-1.00,-1.0,2370
4745,4745,16632,5592,9668,20034.07,26.37,-1.00,-1.0,2418
4747,4747,17912,4572,6464,19583.83,26.27,-1.00,-1.0,2366
4750,4750,17108,1120,6468,18324.11,26.27,-1.00,-1.0,2361
4755,4755,15312,8980,7276,19184.31,26.32,-1.00,-1.0,2417
4758,4758,19420,-6708,2168,20659.96,26.32,-1.00,-1.0,2371
4761,4761,15596,-2600,-6188,16979.00,26.22,-1.00,-1.0,2413
4764,4764,17736,-4904,1704,18480.22,26.27,-1.00,-1.0,2367
4766,4766,17584,1124,-2572,17806.62,26.32,-1.00,-1.0,2419
4769,4769,17368,-1068,7272,18859.22,26.37,-1.00,-1.0,2366
4772,4772,14280,-72,-1492,14357.91,26.27,-1.00,-1.0,2425
4774,4774,18060,-2728,5280,19012.73,26.27,-1.00,-1.0,2368
4777,4777,17176,2060,-1200,17340.66,26.27,-1.00,-1.0,2362
4782,4782,16460,4196,6920,18341.88,26.27,-1.00,-1.0,2427
4785,4785,15180,5264,1872,16175.49,26.32,-1.00,-1.0,2371
4788,4788,16360,-5676,2168,17451.84,26.27,-1.00,-1.0,2419
4791,4791,15652,1576,1820,15836.08,26.41,-1.00,-1.0,2374
4793,4793,18304,-2528,4200,18949.07,26.32,-1.00,-1.0,2427
4796,4796,14504,2140,-5380,15616.98,26.32,-1.00,-1.0,2367
4799,4799,18348,-8884,2016,20485.09,26.32,-1.00,-1.0,2424
4802,4802,15476,-124,-3372,15839.58,26.27,-1.00,-1.0,2370
4806,4806,15892,2248,808,16070.53,26.37,-1.00,-1.0,2429
4809,4809,17268,2180,7376,18903.48,26.27,-1.00,-1.0,2363
4812,4812,16896,2292,5592,17944.32,26.32,-1.00,-1.0,2365
4815,4815,17968,3992,6148,19405.75,26.27,-1.00,-1.0,2422
4817,4817,17308,-7956,3096,19298.96,26.27,-1.00,-1.0,2365
4820,4820,14704,2832,1572,15056.53,26.37,-1.00,-1.0,2414
4823,4823,18336,-1472,4596,18960.46,26.27,-1.00,-1.0,2367
4826,4826,15116,6344,1064,16427.78,26.32,-1.00,-1.0,2427
4829,4829,16420,-8556,3512,18845.57,26.32,-1.00,-1.0,2367
4834,4834,19552,-2848,3360,20041.99,26.27,-1.00,-1.0,2428
4836,4836,14100,324,68,14103.89,26.37,-1.00,-1.0,2363
4839,4839,18636,-4208,6300,20117.10,26.32,-1.00,-1.0,2366
4842,4842,16968,5620,3700,18253.42,26.32,-1.00,-1.0,2420
4844,4844,19124,-3500,1164,19476.46,26.37,-1.00,-1.0,2351
4847,4847,17268,2464,8516,19410.75,26.32,-1.00,-1.0,2415
4850,4850,17880,6088,9532,21156.96,26.37,-1.00,-1.0,2369
4853,4853,16076,7344,12276,21519.12,26.37,-1.00,-1.0,2425
4856,4856,18192,5496,12912,22975.52,26.37,-1.00,-1.0,2373
4861,4861,13568,5536,-708,14671.03,26.22,-1.00,-1.0,2428
4863,4863,19064,-6692,6144,21117.95,26.32,-1.00,-1.0,2366
4866,4866,14372,-44,-6208,15655.53,26.32,-1.00,-1.0,2368
4869,4869,18460,-5888,4196,19825.40,26.37,-1.00,-1.0,2429
4871,4871,16260,1620,-5924,17381.19,26.22,-1.00,-1.0,2370
4874,4874,17040,-224,3232,17345.25,26.22,-1.00,-1.0,2414
4877,4877,16112,-2976,1528,16455.63,26.22,-1.00,-1.0,2366
4880,4880,17448,64,2720,17658.86,26.27,-1.00,-1.0,2427
4883,4883,18160,3520,5096,19187.11,26.37,-1.00,-1.0,2380
4888,4888,15744,-1848,8488,17981.51,26.27,-1.00,-1.0,2431
4890,4890,16480,6376,6816,18939.42,26.32,-1.00,-1.0,2364
4893,4893,17672,-4284,4728,18788.46,26.27,-1.00,-1.0,2420
4896,4896,14772,3172,408,15114.23,26.22,-1.00,-1.0,2366
4898,4898,18508,-4384,6688,20161.72,26.27,-1.00,-1.0,2360
4901,4901,15472,-1000,-7540,17240.49,26.37,-1.00,-1.0,2425
4904,4904,18828,-6484,-620,19922.86,26.32,-1.00,-1.0,2367
4907,4907,15920,-5240,-7044,18180.26,26.32,-1.00,-1.0,2416
4910,4910,17328,-1976,2604,17633.63,26.27,-1.00,-1.0,2366
4914,4914,16240,480,3852,16697.48,26.37,-1.00,-1.0,2430
4917,4917,17412,1688,11400,20880.30,26.37,-1.00,-1.0,2378
4920,4920,16496,8448,7652,20050.93,26.32,-1.00,-1.0,2424
4923,4923,17168,1076,9588,19693.34,26.27,-1.00,-1.0,2371
4925,4925,16584,3692,9248,19343.87,26.32,-1.00,-1.0,2362
4928,4928,17940,412,364,17948.42,26.32,-1.00,-1.0,2417
4931,4931,17244,5880,6148,19228.31,26.32,-1.00,-1.0,2367
4934,4934,15984,-888,3900,16476.86,26.32,-1.00,-1.0,2419
4937,4937,15724,4100,8280,18237.67,26.32,-1.00,-1.0,2365
4941,4941,16460,228,-5096,17232.32,26.37,-1.00,-1.0,2435
4944,4944,16904,-4444,1972,17589.29,26.37,-1.00,-1.0,2380
4947,4947,17144,-1052,-952,17202.61,26.32,-1.00,-1.0,2421
4950,4950,17860,-5684,40,18742.71,26.37,-1.00,-1.0,2368
4952,4952,16768,1648,-2596,17047.61,26.22,-1.00,-1.0,2364
4955,4955,18580,-1304,8656,20538.82,26.32,-1.00,-1.0,2419
4958,4958,14312,5588,3484,15754.28,26.32,-1.00,-1.0,2368
4961,4961,20220,-1236,8300,21892.15,26.32,-1.00,-1.0,2419
4964,4964,15964,7956,6952,19143.60,26.22,-1.00,-1.0,2365
4969,4969,17540,3196,5712,18721.46,26.32,-1.00,-1.0,2432
4971,4971,18688,8736,13240,24512.38,26.37,-1.00,-1.0,2363
4974,4974,16652,-14812,1172,22317.21,26.27,-1.00,-1.0,2426
4977,4977,13604,1736,-3528,14160.84,26.27,-1.00,-1.0,2374
4980,4980,18412,-4572,2788,19174.93,26.37,-1.00,-1.0,2419
4982,4982,16820,5524,2768,17918.95,26.32,-1.00,-1.0,2368
4985,4985,17372,-10508,-460,20308.03,26.37,-1.00,-1.0,2372
4988,4988,15800,-4116,-11860,20180.21,26.37,-1.00,-1.0,2427
4991,4991,18344,-7568,-812,19860.42,26.32,-1.00,-1.0,2365
4996,4996,18768,-3976,3916,19580.13,26.32,-1.00,-1.0,2435
4998,4998,15572,1768,-2444,15861.47,26.27,-1.00,-1.0,2368
5001,5001,21432,-9372,-312,23393.64,26.32,-1.00,-1.0,2429
5004,5004,15928,6376,6780,18447.84,26.27,-1.00,-1.0,2373
5007,5007,16324,2036,5524,17353.18,26.27,-1.00,-1.0,2418
5009,5009,16492,3144,11332,20255.49,26.27,-1.00,-1.0,2368
5012,5012,16124,5128,2252,17069.02,26.27,-1.00,-1.0,2418
5015,5015,17308,-1572,3380,17704.87,26.37,-1.00,-1.0,2367
5018,5018,15216,4040,4812,16462.19,26.27,-1.00,-1.0,2362
5023,5023,14960,2292,-2888,15407.64,26.32,-1.00,-1.0,2427
5025,5025,17220,-7844,684,18934.75,26.32,-1.00,-1.0,2376
5028,5028,15032,1148,-2556,15290.91,26.32,-1.00,-1.0,2429
5031,5031,18352,-3564,1308,18740.57,26.22,-1.00,-1.0,2374
5034,5034,16428,-2732,-6736,17964.32,26.32,-1.00,-1.0,2421
5036,5036,17420,-12224,-6868,22361.84,26.27,-1.00,-1.0,2369
5039,5039,16400,3724,5824,17797.39,26.32,-1.00,-1.0,2417
5042,5042,18428,1080,8012,20123.36,26.27,-1.00,-1.0,2374
5045,5045,15924,1224,-704,15986.48,26.37,-1.00,-1.0,2370
5050,5050,18192,5960,14680,24124.11,26.37,-1.00,-1.0,2429
5052,5052,16540,10488,11556,22740.07,26.22,-1.00,-1.0,2373
5055,5055,16264,1152,11060,19701.99,26.27,-1.00,-1.0,2420
5058,5058,16332,3340,2832,16908.88,26.22,-1.00,-1.0,2374
5061,5061,18672,-368,5344,19425.17,26.37,-1.00,-1.0,2456
5063,5063,17240,9652,9672,21998.32,26.27,-1.00,-1.0,2365
5066,5066,17400,1472,6600,18667.80,26.27,-1.00,-1.0,2418
5069,5069,18104,-3768,-1696,18569.57,26.37,-1.00,-1.0,2369
5074,5074,16104,-6396,-4180,17824.70,26.32,-1.00,-1.0,2438
5077,5077,16416,-6040,-5160,18237.11,26.22,-1.00,-1.0,2369
5079,5079,18056,-6300,-3856,19508.40,26.32,-1.00,-1.0,2368
5082,5082,16556,712,5300,17398.22,26.27,-1.00,-1.0,2421
5085,5085,15428,3388,6952,17257.81,26.32,-1.00,-1.0,2373
5087,5087,17612,-4276,1444,18181.09,26.27,-1.00,-1.0,2426
5090,5090,17136,108,-96,17136.61,26.32,-1.00,-1.0,2365
5093,5093,18268,1784,11384,21598.56,26.22,-1.00,-1.0,2425
5096,5096,14516,7364,5568,17203.06,26.22,-1.00,-1.0,2374
5101,5101,16076,5480,3176,17278.75,26.32,-1.00,-1.0,2438
5103,5103,18872,4456,12468,23053.40,26.27,-1.00,-1.0,2364
5106,5106,16316,3468,6016,17732.21,26.32,-1.00,-1.0,2361
5109,5109,15184,1848,-968,15326.64,26.22,-1.00,-1.0,2426
5111,5111,18540,-6384,-2256,19737.70,26.32,-1.00,-1.0,2367
5114,5114,16304,4216,2200,16983.38,26.37,-1.00,-1.0,2421
5117,5117,17836,-12588,-2744,22002.50,26.37,-1.00,-1.0,2356
5120,5120,15892,-2068,-7036,17502.50,26.27,-1.00,-1.0,2409
5123,5123,17804,-8040,-2956,19757.58,26.27,-1.00,-1.0,2369
5128,5128,17592,-7568,-3896,19543.08,26.27,-1.00,-1.0,2441
5131,5131,16472,1580,3876,16995.49,26.27,-1.00,-1.0,2366
5134,5134,17236,-3244,720,17553.39,26.27,-1.00,-1.0,2419
5137,5137,17148,-3080,-7120,18821.12,26.27,-1.00,-1.0,2375
5139,5139,16564,-10120,-5596,20201.38,26.27,-1.00,-1.0,2362
5142,5142,15644,1616,-1460,15794.87,26.22,-1.00,-1.0,2417
5145,5145,20004,-10432,232,22561.93,26.27,-1.00,-1.0,2367
5147,5147,14816,832,-10516,18187.70,26.27,-1.00,-1.0,2405
5150,5150,20152,-9276,1520,22236.40,26.37,-1.00,-1.0,2374
5155,5155,16188,7284,11872,21355.38,26.27,-1.00,-1.0,2433
5158,5158,17512,5108,11632,21634.81,26.22,-1.00,-1.0,2364
5160,5160,16020,6028,8544,19130.53,26.27,-1.00,-1.0,2440
5163,5163,17076,2740,11976,21036.21,26.32,-1.00,-1.0,2366
5166,5166,17140,6680,8220,20148.71,26.32,-1.00,-1.0,2402
5168,5168,17644,3876,6800,19302.18,26.32,-1.00,-1.0,2366
5171,5171,17492,3808,8000,19607.93,26.32,-1.00,-1.0,2362
5174,5174,15788,6004,11940,20685.08,26.32,-1.00,-1.0,2420
5177,5177,17824,788,1692,17921.46,26.27,-1.00,-1.0,2367
5182,5182,15540,-2700,-5016,16551.19,26.37,-1.00,-1.0,2437
5184,5184,18772,-11252,-3844,22220.98,26.32,-1.00,-1.0,2364
5187,5187,15796,208,-6216,16976.32,26.37,-1.00,-1.0,2425
5190,5190,19080,-3440,2028,19493.40,26.32,-1.00,-1.0,2366
5193,5193,15776,-3996,-3064,16560.14,26.32,-1.00,-1.0,2421
5195,5195,17348,-3412,-1564,17749.39,26.22,-1.00,-1.0,2368
5198,5198,17212,-3412,-2312,17698.59,26.32,-1.00,-1.0,2419
5201,5201,17296,-6524,-6896,19729.90,26.41,-1.00,-1.0,2367
5204,5204,16588,696,1656,16684.98,26.32,-1.00,-1.0,2363
5209,5209,19212,1980,14784,24322.58,26.27,-1.00,-1.0,2418
5212,5212,15792,11340,9488,21633.42,26.27,-1.00,-1.0,2365
5214,5214,17596,-2204,6728,18966.89,26.27,-1.00,-1.0,2426
5217,5217,14128,344,-448,14139.29,26.41,-1.00,-1.0,2366
5220,5220,18404,2728,11616,21933.55,26.37,-1.00,-1.0,2422
5222,5222,17540,5596,7440,19857.50,26.32,-1.00,-1.0,2368
5225,5225,16436,2348,9112,18938.95,26.32,-1.00,-1.0,2418
5228,5228,16580,2996,6396,18021.69,26.32,-1.00,-1.0,2367
5231,5231,17400,-3880,680,17840.31,26.32,-1.00,-1.0,2362
5236,5236,17320,5968,11160,21450.99,26.32,-1.00,-1.0,2431
5239,5239,17276,-1532,5416,18169.76,26.37,-1.00,-1.0,2367
5241,5241,16748,4952,9440,19852.74,26.32,-1.00,-1.0,2431
5244,5244,17652,5828,10300,21252.03,26.37,-1.00,-1.0,2364
5247,5247,17204,-1176,2012,17361.13,26.37,-1.00,-1.0,2424
5249,5249,17176,1348,4692,17856.29,26.37,-1.00,-1.0,2367
5252,5252,16808,5008,6152,18585.91,26.27,-1.00,-1.0,2420
5255,5255,18276,5660,12020,22594.87,26.32,-1.00,-1.0,2367
5260,5260,17348,412,5728,18273.83,26.41,-1.00,-1.0,2429
5263,5263,15824,-1752,-2968,16194.98,26.32,-1.00,-1.0,2374
5265,5265,18712,-912,3156,18998.19,26.22,-1.00,-1.0,2360
5268,5268,14804,-5188,-6212,16871.95,26.37,-1.00,-1.0,2421
5271,5271,16156,-1312,-2352,16378.94,26.32,-1.00,-1.0,2366
5273,5273,16892,-3280,124,17207.95,26.32,-1.00,-1.0,2417
5276,5276,17736,-3368,-4916,18710.32,26.37,-1.00,-1.0,2381
5279,5279,17924,-6460,-3664,19401.71,26.27,-1.00,-1.0,2419
5282,5282,17564,4020,5748,18912.80,26.27,-1.00,-1.0,2366
5287,5287,15128,1208,-1088,15215.10,26.41,-1.00,-1.0,2416
5290,5290,18944,-2764,4360,19634.78,26.32,-1.00,-1.0,2365
5292,5292,15480,-876,-3512,15897.54,26.32,-1.00,-1.0,2424
5295,5295,17320,-9496,-4560,20271.90,26.37,-1.00,-1.0,2382
5298,5298,16888,2932,3596,17513.78,26.32,-1.00,-1.0,2363
5300,5300,17512,-2332,1980,17777.20,26.27,-1.00,-1.0,2417
5303,5303,17040,-676,-912,17077.77,26.32,-1.00,-1.0,2370
5306,5306,15712,-6436,-3936,17429.32,26.27,-1.00,-1.0,2425
5309,5309,17480,-2688,-2096,17809.24,26.18,-1.00,-1.0,2366
5314,5314,16104,-2048,-1236,16280.69,26.27,-1.00,-1.0,2430
5317,5317,18508,3276,13240,22990.78,26.32,-1.00,-1.0,2364
5319,5319,16852,4100,3736,17741.41,26.37,-1.00,-1.0,2415
5322,5322,16876,720,6032,17936.08,26.32,-1.00,-1.0,2380
5325,5325,16064,-1576,-1108,16179.11,26.32,-1.00,-1.0,2416
5328,5328,18648,1128,8796,20649.21,26.41,-1.00,-1.0,2366
5330,5330,15984,1568,2856,16312.68,26.22,-1.00,-1.0,2346
5333,5333,18092,3128,7128,19695.51,26.32,-1.00,-1.0,2434
5336,5336,16252,-1336,556,16316.30,26.37,-1.00,-1.0,2371
5341,5341,16880,512,6420,18066.90,26.22,-1.00,-1.0,2433
5344,5344,16352,2752,2016,16704.06,26.32,-1.00,-1.0,2365
5346,5346,19616,1536,7096,20916.50,26.32,-1.00,-1.0,2424
5349,5349,16396,6288,7048,18922.00,26.27,-1.00,-1.0,2365
5352,5352,15500,-496,-968,15538.12,26.37,-1.00,-1.0,2422
5354,5354,19488,-2084,5300,20303.08,26.37,-1.00,-1.0,2367
5357,5357,17800,6960,6576,20212.01,26.22,-1.00,-1.0,2370
5360,5360,18944,1056,10212,21547.05,26.22,-1.00,-1.0,2428
5363,5363,16964,2204,2720,17321.47,26.32,-1.00,-1.0,2382
5368,5368,14148,4952,6488,16333.47,26.22,-1.00,-1.0,2432
5371,5371,18696,-4184,704,19171.38,26.32,-1.00,-1.0,2365
5373,5373,17676,4488,2136,18361.53,26.32,-1.00,-1.0,2426
5376,5376,17012,-1160,9160,19356.12,26.27,-1.00,-1.0,2365
5379,5379,14912,5364,8020,17761.21,26.32,-1.00,-1.0,2418
5381,5381,18244,2472,9788,20850.88,26.27,-1.00,-1.0,2366
5384,5384,16832,4604,5656,18344.03,26.22,-1.00,-1.0,2376
5387,5387,16592,812,8764,18781.95,26.27,-1.00,-1.0,2425
5390,5390,16124,6304,8032,19084.99,26.37,-1.00,-1.0,2374
5395,5395,18068,2204,5136,18912.66,26.32,-1.00,-1.0,2436
5398,5398,17532,1688,6412,18743.91,26.32,-1.00,-1.0,2371
5401,5401,16036,3020,1536,16390.03,26.32,-1.00,-1.0,2419
5403,5403,18860,-1604,7508,20362.77,26.37,-1.00,-1.0,2367
5406,5406,17752,8488,7628,21103.70,26.27,-1.00,-1.0,2419
5409,5409,17016,-3412,5692,18264.31,26.27,-1.00,-1.0,2366
5411,5411,15604,1932,-3016,16009.80,26.32,-1.00,-1.0,2362
5414,5414,18436,-1704,9260,20701.14,26.37,-1.00,-1.0,2419
5417,5417,14836,7072,3644,16834.45,26.37,-1.00,-1.0,2360
5422,5422,17556,4360,3568,18437.82,26.32,-1.00,-1.0,2429
5425,5425,18532,304,8140,20243.20,26.32,-1.00,-1.0,2365
5428,5428,16976,-520,6292,18111.99,26.32,-1.00,-1.0,2417
5430,5430,15960,4916,5576,17606.26,26.27,-1.00,-1.0,2367
5433,5433,18420,-912,5572,19265.91,26.37,-1.00,-1.0,2417
5436,5436,15524,564,-916,15561.23,26.27,-1.00,-1.0,2366
5438,5438,19064,-1572,6988,20365.15,26.32,-1.00,-1.0,2362
5441,5441,17104,7156,7988,20188.20,26.32,-1.00,-1.0,2418
5444,5444,19116,1008,9092,21192.03,26.37,-1.00,-1.0,2367
5449,5449,16180,3640,6244,17720.88,26.27,-1.00,-1.0,2445
5452,5452,17652,2392,8912,19918.30,26.32,-1.00,-1.0,2367
5455,5455,16116,1244,-2440,16347.07,26.27,-1.00,-1.0,2418
5457,5457,18384,-3816,28,18775.89,26.32,-1.00,-1.0,2366
5460,5460,17372,568,2796,17604.73,26.32,-1.00,-1.0,2419
5463,5463,16812,2080,6100,18004.99,26.22,-1.00,-1.0,2366
5465,5465,18484,-36,6196,19494.87,26.41,-1.00,-1.0,2364
5468,5468,17364,6676,6556,19724.57,26.32,-1.00,-1.0,2406
5471,5471,19496,-852,9036,21505.10,26.32,-1.00,-1.0,2367
5476,5476,17372,-4676,4580,18564.15,26.27,-1.00,-1.0,2438
5479,5479,14460,3524,1800,14991.67,26.37,-1.00,-1.0,2370
5482,5482,20512,1872,2312,20726.60,26.37,-1.00,-1.0,2430
5484,5484,17228,2152,3868,17787.54,26.32,-1.00,-1.0,2369
5487,5487,16180,148,7436,17807.54,26.27,-1.00,-1.0,2419
5490,5490,13868,1040,3484,14336.71,26.41,-1.00,-1.0,2367
5492,5492,18828,3920,5236,19931.78,26.37,-1.00,-1.0,2363
5495,5495,17992,5964,9024,20993.19,26.22,-1.00,-1.0,2419
5498,5498,17852,2372,7584,19540.66,26.32,-1.00,-1.0,2366
5503,5503,17132,1848,5648,18133.41,26.41,-1.00,-1.0,2434
5506,5506,17448,-676,2148,17592.71,26.37,-1.00,-1.0,2372
5509,5509,16840,3320,4220,17675.30,26.18,-1.00,-1.0,2427
5511,5511,15972,52,2708,16200.02,26.27,-1.00,-1.0,2369
5514,5514,15112,-4036,1024,15675.15,26.46,-1.00,-1.0,2425
5517,5517,14336,-3032,-116,14653.58,26.27,-1.00,-1.0,2373
5519,5519,18740,-196,6492,19833.61,26.27,-1.00,-1.0,2370
5522,5522,14764,5752,3328,16190.64,26.27,-1.00,-1.0,2418
5525,5525,18672,-7756,3932,20597.57,26.27,-1.00,-1.0,2369
5530,5530,19252,-3864,3760,19992.69,26.32,-1.00,-1.0,2430
5533,5533,14580,1224,-3004,14936.49,26.27,-1.00,-1.0,2364
5536,5536,17912,-2156,5276,18796.92,26.41,-1.00,-1.0,2427
5538,5538,16160,-1684,1060,16282.05,26.37,-1.00,-1.0,2369
5541,5541,17040,-2048,1912,17268.80,26.22,-1.00,-1.0,2433
5544,5544,17916,1380,2472,18138.31,26.27,-1.00,-1.0,2362
5547,5547,16128,-2536,1680,16412.38,26.37,-1.00,-1.0,2418
5549,5549,15900,536,3468,16282.64,26.22,-1.00,-1.0,2428
5552,5552,17932,1680,7420,19479.10,26.27,-1.00,-1.0,2363
5557,5557,15928,256,2184,16079.07,26.27,-1.00,-1.0,2429
5560,5560,18420,-656,4580,18992.19,26.37,-1.00,-1.0,2372
5563,5563,16560,-1624,900,16663.76,26.37,-1.00,-1.0,2410
5565,5565,17436,308,1924,17544.54,26.32,-1.00,-1.0,2368
5568,5568,17044,-1660,-756,17141.33,26.46,-1.00,-1.0,2415
5571,5571,16120,-188,2540,16319.97,26.22,-1.00,-1.0,2372
5573,5573,19332,-6260,708,20332.61,26.32,-1.00,-1.0,2422
5576,5576,18540,4252,-2348,19165.70,26.37,-1.00,-1.0,2370
5579,5579,18920,-2356,3684,19418.78,26.37,-1.00,-1.0,2361
5584,5584,19252,-5504,5556,20779.86,26.27,-1.00,-1.0,2431
5587,5587,16764,3856,1776,17293.20,26.27,-1.00,-1.0,2365
5589,5589,17300,-704,1656,17393.33,26.27,-1.00,-1.0,2414
5592,5592,15580,-256,1356,15640.99,26.32,-1.00,-1.0,2366
5595,5595,13780,-1712,-564,13897.39,26.37,-1.00,-1.0,2419
5598,5598,16768,-7940,-272,18554.88,26.32,-1.00,-1.0,2366
5600,5600,17760,6212,5124,19500.30,26.37,-1.00,-1.0,2455
5603,5603,19352,-680,10296,21931.03,26.32,-1.00,-1.0,2369
5606,5606,16488,8460,4748,19130.32,26.32,-1.00,-1.0,2365
5611,5611,11620,3264,-1152,12124.57,26.32,-1.00,-1.0,2434
5614,5614,17524,-5392,5268,19076.58,26.27,-1.00,-1.0,2364
5617,5617,15836,2176,-2152,16129.01,26.37,-1.00,-1.0,2423
5619,5619,18680,-124,5776,19553.00,26.37,-1.00,-1.0,2366
5622,5622,17116,252,84,17118.06,26.37,-1.00,-1.0,2420
5625,5625,16396,-4360,2604,17164.48,26.32,-1.00,-1.0,2367
5628,5628,17164,2520,2940,17595.37,26.37,-1.00,-1.0,2423
5630,5630,17556,-1664,1408,17690.80,26.32,-1.00,-1.0,2374
5635,5635,18424,-7840,-3516,20329.08,26.22,-1.00,-1.0,2436
5638,5638,17008,2456,308,17187.17,26.27,-1.00,-1.0,2366
5641,5641,16996,-212,5416,17839.34,26.32,-1.00,-1.0,2364
5643,5643,15420,5592,3056,16684.90,26.32,-1.00,-1.0,2429
5646,5646,18124,-3152,3724,18769.19,26.22,-1.00,-1.0,2363
5649,5649,18296,2168,7640,19945.26,26.32,-1.00,-1.0,2426
5651,5651,15400,-2504,5320,16484.31,26.18,-1.00,-1.0,2365
5654,5654,15864,-1176,-2596,16117.96,26.37,-1.00,-1.0,2423
5657,5657,15512,-7584,-5980,18272.92,26.37,-1.00,-1.0,2372
5662,5662,18488,1400,1404,18594.01,26.32,-1.00,-1.0,2446
5665,5665,16932,-5076,-444,17682.07,26.32,-1.00,-1.0,2363
5668,5668,15780,-3000,-4760,16753.09,26.32,-1.00,-1.0,2358
5670,5670,18008,-2116,7940,19794.17,26.27,-1.00,-1.0,2428
5673,5673,15080,4132,-2796,15883.87,26.32,-1.00,-1.0,2369
5676,5676,20056,-4388,6472,21526.37,26.32,-1.00,-1.0,2427
5678,5678,15264,5504,668,16239.76,26.22,-1.00,-1.0,2365
5681,5681,19572,-6012,5576,21220.25,26.27,-1.00,-1.0,2421
5684,5684,15304,4792,-2140,16178.85,26.27,-1.00,-1.0,2367
5689,5689,15968,756,1984,16108.53,26.27,-1.00,-1.0,2443
5692,5692,17872,1684,4888,18604.75,26.41,-1.00,-1.0,2371
5695,5695,17736,-156,5848,18675.90,26.37,-1.00,-1.0,2425
5697,5697,17132,5224,4208,18398.45,26.22,-1.00,-1.0,2367
5700,5700,16212,3460,7168,18060.47,26.37,-1.00,-1.0,2376
5703,5703,16040,1688,1568,16204.62,26.37,-1.00,-1.0,2421
5706,5706,16588,-4488,5972,18192.54,26.41,-1.00,-1.0,2366
5708,5708,14712,2180,-2100,15020.17,26.22,-1.00,-1.0,2420
5711,5711,19752,-1916,9184,21866.83,26.27,-1.00,-1.0,2366
5716,5716,18904,-4836,8012,21093.61,26.27,-1.00,-1.0,2442
5719,5719,12516,3344,-2076,13120.30,26.27,-1.00,-1.0,2370
5722,5722,19012,-1300,10456,21736.47,26.27,-1.00,-1.0,2420
5725,5725,18320,6924,7856,21101.68,26.41,-1.00,-1.0,2364
5727,5727,15980,504,5208,16814.80,26.37,-1.00,-1.0,2364
5730,5730,16964,772,5824,17952.50,26.37,-1.00,-1.0,2425
5733,5733,14316,8128,4420,17045.49,26.27,-1.00,-1.0,2365
5735,5735,19204,-10780,8296,23533.50,26.32,-1.00,-1.0,2421
5738,5738,10440,9300,-4320,14633.73,26.32,-1.00,-1.0,2364
5743,5743,15984,-816,1708,16095.69,26.37,-1.00,-1.0,2435
5746,5746,17016,-3224,6980,18672.41,26.37,-1.00,-1.0,2377
5749,5749,15052,1604,-5464,16093.19,26.37,-1.00,-1.0,2407
5752,5752,17416,-768,7956,19162.59,26.32,-1.00,-1.0,2365
5754,5754,16724,-1328,-1112,16813.46,26.37,-1.00,-1.0,2364
5757,5757,16756,-4180,156,17270.21,26.37,-1.00,-1.0,2423
5760,5760,15632,-1660,-2400,15902.04,26.27,-1.00,-1.0,2368
5763,5763,18236,832,2848,18475.79,26.32,-1.00,-1.0,2422
5765,5765,19248,-8412,-1340,21048.58,26.32,-1.00,-1.0,2365
5770,5770,14132,7660,-436,16080.40,26.37,-1.00,-1.0,2434
5773,5773,18204,-5884,1900,19225.43,26.32,-1.00,-1.0,2364
5776,5776,17128,-2588,3736,17720.72,26.32,-1.00,-1.0,2424
5778,5778,16124,5292,-720,16985.49,26.41,-1.00,-1.0,2354
5781,5781,16952,-1148,2420,17162.30,26.22,-1.00,-1.0,2420
5784,5784,16156,2056,-792,16305.54,26.37,-1.00,-1.0,2370
5786,5786,18336,-3816,7608,20215.15,26.32,-1.00,-1.0,2349
5790,5790,15696,5280,3196,16865.86,26.27,-1.00,-1.0,2419
5792,5792,17716,-152,7592,19274.81,26.18,-1.00,-1.0,2366
5797,5797,17488,-8952,-804,19662.52,26.27,-1.00,-1.0,2434
5800,5800,16396,3512,2080,16896.43,26.32,-1.00,-1.0,2367
5803,5803,18324,-2272,1616,18534.90,26.32,-1.00,-1.0,2424
5805,5805,18488,-3420,892,18822.81,26.22,-1.00,-1.0,2352
5808,5808,17516,-2248,6220,18723.04,26.22,-1.00,-1.0,2422
5811,5811,14268,-760,-3608,14736.73,26.37,-1.00,-1.0,2369
5814,5814,18592,-852,2652,18799.51,26.27,-1.00,-1.0,2427
5817,5817,17236,-2144,4252,17881.72,26.27,-1.00,-1.0,2364
5820,5820,15352,6352,5440,17482.14,26.37,-1.00,-1.0,2361
5824,5824,17508,-1508,1540,17640.17,26.27,-1.00,-1.0,2432
5827,5827,16676,-11160,-5488,20802.71,26.32,-1.00,-1.0,2365
5830,5830,18044,7400,5420,20241.60,26.32,-1.00,-1.0,2419
5833,5833,18084,1868,1344,18229.83,26.37,-1.00,-1.0,2366
5835,5835,19424,-3852,7732,21258.26,26.41,-1.00,-1.0,2424
5838,5838,17856,-4488,2756,18616.51,26.37,-1.00,-1.0,2374
5841,5841,13316,4360,-1584,14100.87,26.32,-1.00,-1.0,2423
5844,5844,20152,-6700,-1116,21265.90,26.37,-1.00,-1.0,2367
5847,5847,14436,-404,4020,14990.72,26.27,-1.00,-1.0,2363
5851,5851,16616,1156,888,16679.82,26.27,-1.00,-1.0,2434
5854,5854,16772,4324,5708,18236.73,26.32,-1.00,-1.0,2363
5857,5857,18232,-9468,4080,20945.05,26.32,-1.00,-1.0,2405
5860,5860,14192,6816,-1540,15819.05,26.27,-1.00,-1.0,2368
5862,5862,19140,-4220,304,19602.05,26.32,-1.00,-1.0,2429
5865,5865,14264,3288,-724,14655.95,26.32,-1.00,-1.0,2372
5868,5868,18092,-4736,436,18706.69,26.32,-1.00,-1.0,2427
5871,5871,16096,-2564,-5772,17290.79,26.27,-1.00,-1.0,2366
5876,5876,17836,-4564,2024,18521.60,26.27,-1.00,-1.0,2432
5878,5878,15636,488,3172,15961.96,26.37,-1.00,-1.0,2362
5881,5881,15452,-2348,3552,16027.92,26.37,-1.00,-1.0,2360
5884,5884,17296,4940,1992,18097.60,26.27,-1.00,-1.0,2420
5886,5886,17356,-2952,6488,18762.71,26.37,-1.00,-1.0,2363
5889,5889,14832,4852,-2968,15885.19,26.37,-1.00,-1.0,2418
5892,5892,16692,-3488,8632,19112.83,26.27,-1.00,-1.0,2365
5895,5895,17284,-332,-1324,17337.82,26.27,-1.00,-1.0,2428
5898,5898,17708,-1412,44,17764.26,26.32,-1.00,-1.0,2371
5903,5903,17036,-884,2792,17285.89,26.27,-1.00,-1.0,2432
5905,5905,15748,928,776,15794.39,26.37,-1.00,-1.0,2366
5908,5908,20608,-3120,536,20849.73,26.41,-1.00,-1.0,2368
5911,5911,12584,-84,-1828,12716.36,26.32,-1.00,-1.0,2428
5913,5913,19900,-4692,108,20445.94,26.22,-1.00,-1.0,2365
5916,5916,15876,-4596,4516,17133.73,26.32,-1.00,-1.0,2418
5919,5919,17344,3976,-176,17794.77,26.27,-1.00,-1.0,2364
5922,5922,16664,-4764,-1480,17394.68,26.37,-1.00,-1.0,2419
5925,5925,17760,-3032,3844,18422.46,26.27,-1.00,-1.0,2366
5930,5930,14428,2080,716,14594.73,26.32,-1.00,-1.0,2437
5932,5932,16156,-3216,764,16490.69,26.32,-1.00,-1.0,2365
5935,5935,16784,-3804,-7216,18661.29,26.32,-1.00,-1.0,2345
5938,5938,19984,3388,2948,20482.42,26.32,-1.00,-1.0,2431
5940,5940,15932,-5172,104,16750.79,26.32,-1.00,-1.0,2364
5943,5943,16640,1884,-4112,17243.77,26.32,-1.00,-1.0,2427
5946,5946,15744,-4744,6000,17503.69,26.37,-1.00,-1.0,2364
5949,5949,17240,-1732,-4528,17908.66,26.27,-1.00,-1.0,2421
5952,5952,15312,2004,4304,16031.15,26.37,-1.00,-1.0,2364
5957,5957,16732,5892,1540,17805.82,26.27,-1.00,-1.0,2438
5959,5959,16500,-4220,8720,19133.66,26.32,-1.00,-1.0,2367
5962,5962,16656,2780,3796,17307.81,26.32,-1.00,-1.0,2435
5965,5965,16800,-1840,11912,20676.59,26.22,-1.00,-1.0,2371
5967,5967,18804,5312,-140,19540.40,26.27,-1.00,-1.0,2365
5970,5970,13004,-3624,-4204,14138.99,26.27,-1.00,-1.0,2430
5973,5973,18504,-2052,4552,19165.84,26.32,-1.00,-1.0,2370
5976,5976,14008,-2120,-2612,14406.28,26.32,-1.00,-1.0,2423
5979,5979,18564,-7388,-1332,20024.46,26.27,-1.00,-1.0,2368
5986,5986,17864,-4508,5288,19167.88,26.32,-1.00,-1.0,2432
5988,5988,16616,5884,-1020,17656.54,26.37,-1.00,-1.0,2364
5991,5991,17336,-68,1652,17414.67,26.32,-1.00,-1.0,2416
5994,5994,17816,-5616,1928,18779.42,26.27,-1.00,-1.0,2369
5996,5996,18664,3448,1048,19008.73,26.37,-1.00,-1.0,2421
5999,5999,16016,-1092,6516,17325.21,26.27,-1.00,-1.0,2381
6002,6002,16012,5556,-368,16952.54,26.32,-1.00,-1.0,2362
6004,6004,15248,-9216,2552,17998.58,26.37,-1.00,-1.0,2418
6007,6007,18852,5732,-2640,19880.22,26.27,-1.00,-1.0,2368
6012,6012,17416,3684,156,17802.06,26.32,-1.00,-1.0,2434
6015,6015,14980,-3612,632,15422.27,26.37,-1.00,-1.0,2366
6017,6017,18060,-5668,1052,18957.76,26.37,-1.00,-1.0,2419
6020,6020,16164,492,1496,16240.54,26.27,-1.00,-1.0,2374
6023,6023,19136,-3180,7044,20637.75,26.27,-1.00,-1.0,2411
6025,6025,15176,9072,3440,18012.38,26.32,-1.00,-1.0,2366
6028,6028,15476,-200,8512,17663.54,26.18,-1.00,-1.0,2370
6031,6031,17136,10612,11156,23037.22,26.27,-1.00,-1.0,2421
6034,6034,16308,-4396,1104,16926.15,26.27,-1.00,-1.0,2368
6038,6038,12944,-948,476,12987.39,26.32,-1.00,-1.0,2433
6041,6041,23512,-632,10164,25622.66,26.32,-1.00,-1.0,2362
6044,6044,14900,-3276,3652,15686.91,26.32,-1.00,-1.0,2416
6047,6047,17504,-2984,3492,18096.64,26.37,-1.00,-1.0,2367
6049,6049,12796,3128,-1120,13220.30,26.37,-1.00,-1.0,2423
6052,6052,19336,3268,6308,20599.79,26.27,-1.00,-1.0,2381
6055,6055,18016,4352,8392,20345.56,26.32,-1.00,-1.0,2362
6057,6057,13000,1488,432,13092.01,26.32,-1.00,-1.0,2420
6060,6060,18836,-3356,2748,19328.97,26.27,-1.00,-1.0,2369
6065,6065,16108,2020,2032,16360.84,26.37,-1.00,-1.0,2433
6068,6068,13936,2860,7144,15919.44,26.41,-1.00,-1.0,2372
6071,6071,20628,-1488,9120,22603.16,26.27,-1.00,-1.0,2411
6073,6073,17056,8740,1068,19194.67,26.41,-1.00,-1.0,2368
6076,6076,17948,-4876,3120,18858.43,26.32,-1.00,-1.0,2415
6079,6079,15180,900,-6848,16677.46,26.32,-1.00,-1.0,2367
6081,6081,16840,-10120,2844,19851.66,26.27,-1.00,-1.0,2418
6084,6084,16564,1668,-4868,17344.91,26.27,-1.00,-1.0,2374
6087,6087,16860,2680,5904,18063.75,26.27,-1.00,-1.0,2369
6092,6092,12540,3544,4292,13719.80,26.37,-1.00,-1.0,2441
6094,6094,21496,-3680,12460,25117.17,26.32,-1.00,-1.0,2367
6097,6097,15672,12548,-4008,20472.62,26.32,-1.00,-1.0,2419
6100,6100,18944,-6240,10148,22378.44,26.22,-1.00,-1.0,2366
6103,6103,12908,7356,-3936,15369.43,26.32,-1.00,-1.0,2423
6105,6105,19280,-7252,6564,21619.34,26.27,-1.00,-1.0,2369
6108,6108,17796,-504,-3092,18069.65,26.32,-1.00,-1.0,2435
6111,6111,14976,2140,3504,15528.62,26.27,-1.00,-1.0,2374
6114,6114,20564,-4700,5676,21844.57,26.32,-1.00,-1.0,2420
6119,6119,16372,-1756,3588,16852.29,26.32,-1.00,-1.0,2436
6122,6122,15044,1324,-2144,15253.58,26.27,-1.00,-1.0,2369
6124,6124,14088,-8976,2780,16934.25,26.32,-1.00,-1.0,2429
6127,6127,19004,4720,1720,19656.78,26.37,-1.00,-1.0,2372
6130,6130,16144,5580,7912,18824.58,26.32,-1.00,-1.0,2424
6132,6132,19964,-4380,4052,20836.61,26.27,-1.00,-1.0,2353
6135,6135,15828,2612,-5888,17088.50,26.27,-1.00,-1.0,2421
6138,6138,19384,-3312,6280,20643.33,26.22,-1.00,-1.0,2367
6143,6143,18416,-7948,4700,20601.21,26.22,-1.00,-1.0,2432
6146,6146,15756,6792,2696,17368.11,26.32,-1.00,-1.0,2374
6148,6148,16968,-2096,6020,18125.86,26.32,-1.00,-1.0,2361
6151,6151,18752,7700,5736,21067.25,26.37,-1.00,-1.0,2418
6154,6154,14196,2080,6412,15715.17,26.32,-1.00,-1.0,2373
6156,6156,18924,-6616,2924,20259.29,26.32,-1.00,-1.0,2422
6159,6159,14144,5424,-6656,16546.14,26.32,-1.00,-1.0,2374
6162,6162,21268,-11740,4884,24779.20,26.32,-1.00,-1.0,2419
6165,6165,15928,10996,-1312,19399.34,26.32,-1.00,-1.0,2353
6170,6170,16948,6008,848,18001.38,26.32,-1.00,-1.0,2441
6172,6172,15040,-348,5256,15935.75,26.37,-1.00,-1.0,2350
6175,6175,17344,-5192,-496,18111.25,26.27,-1.00,-1.0,2421
6178,6178,14208,4128,-716,14812.84,26.37,-1.00,-1.0,2365
6180,6180,19960,-14404,228,24615.62,26.27,-1.00,-1.0,2356
6183,6183,15384,8348,960,17529.35,26.27,-1.00,-1.0,2420
6186,6186,18700,-2144,10616,21609.86,26.27,-1.00,-1.0,2365
6189,6189,17992,5092,-244,18700.27,26.27,-1.00,-1.0,2415
6192,6192,14024,2140,8172,16371.74,26.37,-1.00,-1.0,2366
6197,6197,14684,5280,1888,15718.23,26.27,-1.00,-1.0,2432
6199,6199,19496,-11660,1292,22753.44,26.27,-1.00,-1.0,2372
6202,6202,17380,5856,1024,18368.61,26.27,-1.00,-1.0,2419
6205,6205,15604,-2764,3620,16255.12,26.22,-1.00,-1.0,2370
6207,6207,19100,2608,4988,19912.10,26.27,-1.00,-1.0,2357
6210,6210,14932,1600,3820,15495.71,26.27,-1.00,-1.0,2418
6213,6213,18768,5184,10832,22281.02,26.37,-1.00,-1.0,2366
6216,6216,12952,6080,-932,14338.39,26.37,-1.00,-1.0,2418
6219,6219,20024,-12548,5868,24348.44,26.27,-1.00,-1.0,2355
6224,6224,17372,-3176,5728,18565.65,26.37,-1.00,-1.0,2432
6226,6226,17168,1868,2292,17420.76,26.37,-1.00,-1.0,2373
6229,6229,13948,748,3328,14359.03,26.27,-1.00,-1.0,2417
6232,6232,20216,4816,8244,22357.19,26.32,-1.00,-1.0,2369
6234,6234,16308,4548,-32,16930.33,26.27,-1.00,-1.0,2359
6237,6237,17028,-5276,5332,18606.97,26.27,-1.00,-1.0,2417
6240,6240,15040,2516,-1912,15368.40,26.27,-1.00,-1.0,2368
6243,6243,14888,-1048,-1576,15007.82,26.41,-1.00,-1.0,2415
6246,6246,19804,4748,8736,22159.87,26.27,-1.00,-1.0,2367
