timestamp_ms,global_ms,accel_x,accel_y,accel_z,accel_mag,temp_c,voltage,soc,loop_us
3,3,17052,-108,2924,17301.22,26.22,-1.00,-1.0,2501
9,9,16964,-212,2904,17212.07,26.13,-1.00,-1.0,2452
12,12,17056,-52,2788,17282.44,26.13,-1.00,-1.0,2370
15,15,17036,36,2888,17279.10,26.08,-1.00,-1.0,2361
17,17,16952,-36,3132,17238.94,26.08,-1.00,-1.0,2426
20,20,16872,60,2924,17123.60,26.13,-1.00,-1.0,2365
23,23,16864,184,3012,17131.86,26.04,-1.00,-1.0,2418
25,25,16904,84,3000,17168.35,26.08,-1.00,-1.0,2367
28,28,16964,20,2988,17225.15,26.13,-1.00,-1.0,2362
31,31,16860,60,2940,17114.52,26.08,-1.00,-1.0,2430
33,33,16912,-136,2712,17128.61,26.13,-1.00,-1.0,2368
38,38,17080,-88,2912,17326.68,26.13,-1.00,-1.0,2432
41,41,16960,-28,2760,17183.13,26.22,-1.00,-1.0,2365
43,43,17056,-20,2648,17260.34,26.13,-1.00,-1.0,2358
46,46,17016,-88,2820,17248.32,26.18,-1.00,-1.0,2422
49,49,16980,24,2792,17208.03,26.13,-1.00,-1.0,2353
52,52,16804,44,2824,17039.70,26.13,-1.00,-1.0,2417
54,54,16912,44,2896,17158.22,26.08,-1.00,-1.0,2372
57,57,16880,36,2848,17118.61,26.13,-1.00,-1.0,2361
60,60,16860,28,2980,17121.36,26.13,-1.00,-1.0,2420
63,63,16960,88,2948,17214.53,26.13,-1.00,-1.0,2367
68,68,16808,156,2828,17044.96,26.18,-1.00,-1.0,2440
70,70,17000,-88,2960,17255.99,26.18,-1.00,-1.0,2364
73,73,16936,-44,3084,17214.56,26.08,-1.00,-1.0,2346
76,76,16964,-124,2972,17222.82,26.22,-1.00,-1.0,2428
78,78,17052,-96,2912,17299.12,26.08,-1.00,-1.0,2364
81,81,16804,68,2940,17059.38,26.08,-1.00,-1.0,2418
84,84,16948,-224,3064,17224.20,26.13,-1.00,-1.0,2366
87,87,16968,-52,3096,17248.21,26.13,-1.00,-1.0,2361
90,90,16836,108,3076,17115.03,26.13,-1.00,-1.0,2419
93,93,16948,36,3116,17232.11,26.22,-1.00,-1.0,2365
98,98,16844,48,2888,17089.86,26.13,-1.00,-1.0,2437
100,100,17088,112,2964,17343.52,26.18,-1.00,-1.0,2367
103,103,17052,-144,3108,17333.53,26.13,-1.00,-1.0,2361
106,106,16852,100,2904,17100.68,26.13,-1.00,-1.0,2422
108,108,16960,-60,3012,17225.48,26.08,-1.00,-1.0,2370
111,111,16816,144,2848,17056.07,26.13,-1.00,-1.0,2432
114,114,16824,-8,3140,17114.52,26.08,-1.00,-1.0,2369
117,117,16816,80,3072,17094.49,26.18,-1.00,-1.0,2422
120,120,16840,-24,3132,17128.79,26.13,-1.00,-1.0,2365
123,123,16800,116,3120,17087.65,26.18,-1.00,-1.0,2362
128,128,16988,44,3180,17283.13,26.04,-1.00,-1.0,2439
130,130,16892,308,2764,17119.41,26.18,-1.00,-1.0,2366
133,133,16976,-108,3108,17258.50,26.13,-1.00,-1.0,2433
136,136,16848,188,2860,17090.06,26.18,-1.00,-1.0,2368
139,139,16936,-28,2792,17164.62,26.18,-1.00,-1.0,2420
141,141,16972,72,2784,17198.97,26.18,-1.00,-1.0,2366
144,144,16912,212,2720,17130.65,26.13,-1.00,-1.0,2370
147,147,16852,-48,2668,17061.96,26.08,-1.00,-1.0,2429
150,150,16880,-20,3020,17148.04,26.08,-1.00,-1.0,2365
155,155,16880,188,2908,17129.69,26.22,-1.00,-1.0,2432
157,157,16956,72,3080,17233.62,26.22,-1.00,-1.0,2373
160,160,16904,60,3056,17178.12,26.08,-1.00,-1.0,2361
163,163,16804,112,2972,17065.16,26.13,-1.00,-1.0,2453
166,166,16948,84,3160,17240.28,26.08,-1.00,-1.0,2367
168,168,16924,200,3036,17195.32,26.18,-1.00,-1.0,2421
171,171,16872,12,2960,17129.69,26.08,-1.00,-1.0,2362
174,174,16868,132,3064,17144.53,26.13,-1.00,-1.0,2428
177,177,16852,76,3112,17137.10,26.18,-1.00,-1.0,2370
180,180,16852,-56,3104,17135.57,26.18,-1.00,-1.0,2369
185,185,16964,-16,2908,17211.45,26.08,-1.00,-1.0,2426
187,187,16940,12,2932,17191.87,26.13,-1.00,-1.0,2370
190,190,16924,124,2832,17159.76,26.18,-1.00,-1.0,2424
193,193,17008,-52,2936,17259.63,26.13,-1.00,-1.0,2371
196,196,16836,196,2956,17094.66,26.13,-1.00,-1.0,2422
198,198,16904,104,2776,17130.74,26.18,-1.00,-1.0,2365
201,201,17028,72,2884,17270.65,26.13,-1.00,-1.0,2365
204,204,16896,144,2704,17111.61,26.22,-1.00,-1.0,2426
207,207,16900,-52,3088,17179.88,26.13,-1.00,-1.0,2375
212,212,16960,136,2864,17200.66,26.18,-1.00,-1.0,2435
214,214,17004,0,2956,17259.03,26.18,-1.00,-1.0,2367
217,217,17004,52,2912,17251.62,26.18,-1.00,-1.0,2361
220,220,16892,-32,2948,17147.34,26.13,-1.00,-1.0,2431
222,222,16900,-20,3080,17178.38,26.08,-1.00,-1.0,2363
225,225,16824,32,2948,17080.36,26.18,-1.00,-1.0,2420
228,228,17020,112,3056,17292.54,26.27,-1.00,-1.0,2363
231,231,16868,104,2952,17124.68,26.08,-1.00,-1.0,2424
234,234,16852,192,2948,17108.99,26.22,-1.00,-1.0,2371
237,237,16900,100,2944,17154.80,26.22,-1.00,-1.0,2370
242,242,16944,-128,3088,17223.57,26.18,-1.00,-1.0,2436
244,244,16860,-28,2908,17108.97,26.22,-1.00,-1.0,2360
247,247,16860,32,2696,17074.22,26.04,-1.00,-1.0,2423
250,250,17048,-12,2740,17266.79,26.18,-1.00,-1.0,2365
252,252,17020,-28,2952,17274.13,26.13,-1.00,-1.0,2364
255,255,16996,-108,2980,17255.61,26.04,-1.00,-1.0,2430
258,258,17036,-64,3080,17312.30,26.27,-1.00,-1.0,2368
261,261,16896,140,2828,17131.61,26.18,-1.00,-1.0,2421
264,264,16944,-124,2880,17187.46,26.08,-1.00,-1.0,2353
269,269,16936,172,2968,17194.96,26.18,-1.00,-1.0,2429
271,271,16884,-64,2864,17125.30,26.22,-1.00,-1.0,2363
274,274,16888,60,3052,17161.67,26.18,-1.00,-1.0,2365
277,277,16900,-184,3004,17165.89,26.08,-1.00,-1.0,2433
279,279,16784,-124,2888,17031.11,26.13,-1.00,-1.0,2366
282,282,16964,-136,2928,17215.37,26.18,-1.00,-1.0,2426
285,285,16868,-72,2948,17123.82,26.08,-1.00,-1.0,2366
288,288,16888,-8,2948,17143.38,26.18,-1.00,-1.0,2421
291,291,17048,-312,3052,17321.85,26.18,-1.00,-1.0,2411
294,294,16792,-12,2852,17032.48,26.18,-1.00,-1.0,2355
299,299,16860,-68,3072,17137.72,26.18,-1.00,-1.0,2442
302,302,16916,-112,3060,17190.90,26.22,-1.00,-1.0,2368
304,304,16884,-232,3164,17179.47,26.08,-1.00,-1.0,2422
307,307,16924,-144,3024,17192.65,26.22,-1.00,-1.0,2367
310,310,16952,-68,2804,17182.47,26.13,-1.00,-1.0,2422
312,312,16880,-168,2920,17131.52,26.13,-1.00,-1.0,2370
315,315,16924,-52,2940,17177.54,26.13,-1.00,-1.0,2363
318,318,16964,-144,3028,17232.72,26.13,-1.00,-1.0,2420
321,321,16932,44,2984,17192.99,26.13,-1.00,-1.0,2370
326,326,16888,-116,3136,17177.09,26.08,-1.00,-1.0,2419
329,329,16976,-104,2948,17230.38,26.27,-1.00,-1.0,2365
331,331,16848,-84,3276,17163.75,26.18,-1.00,-1.0,2423
334,334,16888,100,3108,17171.90,26.13,-1.00,-1.0,2366
337,337,16916,64,3252,17225.87,26.18,-1.00,-1.0,2360
339,339,16928,52,2980,17188.38,26.08,-1.00,-1.0,2430
342,342,17008,-4,3216,17309.38,26.27,-1.00,-1.0,2365
345,345,16928,-12,3012,17193.88,26.13,-1.00,-1.0,2415
348,348,16896,-4,3148,17186.76,26.22,-1.00,-1.0,2354
351,351,16948,24,2924,17198.40,26.13,-1.00,-1.0,2349
356,356,16976,0,3064,17250.29,26.18,-1.00,-1.0,2419
359,359,16948,-36,2976,17207.34,26.18,-1.00,-1.0,2367
361,361,17000,124,3020,17266.61,26.08,-1.00,-1.0,2424
364,364,16976,120,2856,17214.98,26.13,-1.00,-1.0,2368
367,367,17092,44,2896,17335.66,26.08,-1.00,-1.0,2421
369,369,16864,72,3008,17130.32,26.13,-1.00,-1.0,2371
372,372,17032,-24,3132,17317.59,26.27,-1.00,-1.0,2362
375,375,16900,136,2864,17141.50,26.08,-1.00,-1.0,2417
378,378,16948,-40,3036,17217.83,26.13,-1.00,-1.0,2368
383,383,16900,-20,2956,17156.58,26.22,-1.00,-1.0,2433
386,386,16912,108,2924,17163.25,26.13,-1.00,-1.0,2374
388,388,16952,-124,2960,17208.93,26.22,-1.00,-1.0,2360
391,391,16992,16,2936,17243.79,26.08,-1.00,-1.0,2418
394,394,16912,12,2832,17147.48,26.13,-1.00,-1.0,2367
396,396,17032,224,2780,17258.84,26.22,-1.00,-1.0,2417
399,399,16912,32,3032,17181.67,26.18,-1.00,-1.0,2374
402,402,16888,144,2972,17148.12,26.08,-1.00,-1.0,2418
405,405,16972,92,2864,17212.20,26.18,-1.00,-1.0,2368
408,408,16920,68,3000,17184.03,26.18,-1.00,-1.0,2362
413,413,16832,16,2812,17065.28,26.13,-1.00,-1.0,2432
416,416,16828,172,2992,17092.78,26.04,-1.00,-1.0,2372
418,418,16956,112,2908,17203.92,26.13,-1.00,-1.0,2424
421,421,16888,188,3032,17159.05,26.08,-1.00,-1.0,2373
424,424,16948,4,2932,17199.75,26.13,-1.00,-1.0,2358
426,426,16936,32,3052,17208.83,26.13,-1.00,-1.0,2420
429,429,16972,52,3208,17272.60,26.08,-1.00,-1.0,2381
432,432,16816,88,2916,17067.18,26.18,-1.00,-1.0,2414
435,435,16884,120,2924,17135.74,26.18,-1.00,-1.0,2368
440,440,16880,-68,2984,17141.86,26.18,-1.00,-1.0,2432
443,443,16940,28,2996,17202.92,26.22,-1.00,-1.0,2365
445,445,16984,64,2856,17222.57,26.18,-1.00,-1.0,2357
448,448,16860,100,2740,17081.49,26.08,-1.00,-1.0,2416
451,451,16964,-104,3028,17232.44,26.08,-1.00,-1.0,2367
453,453,17004,-112,2848,17241.22,26.18,-1.00,-1.0,2413
456,456,16884,-44,2864,17125.24,26.13,-1.00,-1.0,2381
459,459,17004,76,3072,17279.44,26.22,-1.00,-1.0,2434
462,462,16836,4,2940,17090.77,26.18,-1.00,-1.0,2375
465,465,16876,-136,2816,17109.87,26.08,-1.00,-1.0,2370
470,470,16956,-196,3016,17223.26,26.13,-1.00,-1.0,2441
472,472,16908,72,2892,17153.70,26.13,-1.00,-1.0,2365
475,475,16956,-56,2976,17215.27,26.04,-1.00,-1.0,2418
478,478,16920,-80,3012,17186.19,26.18,-1.00,-1.0,2367
481,481,16920,-96,2808,17151.69,26.22,-1.00,-1.0,2358
483,483,16944,-92,2864,17184.59,26.13,-1.00,-1.0,2426
486,486,16824,-40,2792,17054.14,26.13,-1.00,-1.0,2373
489,489,16820,16,2812,17053.45,26.08,-1.00,-1.0,2431
492,492,16856,-312,2904,17107.17,26.13,-1.00,-1.0,2374
497,497,16904,-88,2948,17159.36,26.13,-1.00,-1.0,2442
499,499,16968,-104,2852,17206.33,26.13,-1.00,-1.0,2365
502,502,17056,-112,2976,17314.05,26.13,-1.00,-1.0,2368
505,505,16936,-68,2872,17177.93,26.18,-1.00,-1.0,2418
508,508,16864,-24,2792,17093.58,26.22,-1.00,-1.0,2367
510,510,16808,96,3020,17077.43,26.13,-1.00,-1.0,2433
513,513,16896,52,3108,17179.56,26.08,-1.00,-1.0,2382
516,516,16836,-128,2884,17081.71,26.18,-1.00,-1.0,2428
519,519,16892,20,2944,17146.64,26.18,-1.00,-1.0,2375
522,522,16792,-108,2980,17054.71,26.18,-1.00,-1.0,2370
527,527,16956,-200,3000,17220.51,26.22,-1.00,-1.0,2431
530,530,16948,4,2956,17203.86,26.13,-1.00,-1.0,2365
532,532,16912,-68,2924,17163.04,26.13,-1.00,-1.0,2413
535,535,16964,4,2756,17186.41,26.18,-1.00,-1.0,2367
538,538,17044,-56,2800,17272.55,26.22,-1.00,-1.0,2370
541,541,16968,-108,2800,17197.81,26.22,-1.00,-1.0,2420
543,543,16952,-116,2800,17182.08,26.08,-1.00,-1.0,2368
546,546,16976,-116,2848,17213.63,26.18,-1.00,-1.0,2418
549,549,16848,-168,2724,17067.62,26.18,-1.00,-1.0,2356
554,554,16856,-128,2924,17108.21,26.13,-1.00,-1.0,2432
557,557,17084,-164,2972,17341.36,26.13,-1.00,-1.0,2364
559,559,16852,-16,2968,17111.38,26.13,-1.00,-1.0,2361
562,562,16912,-132,2848,17150.63,26.13,-1.00,-1.0,2450
565,565,16932,-80,2884,17176.04,26.18,-1.00,-1.0,2371
568,568,16952,36,2748,17173.33,26.13,-1.00,-1.0,2417
570,570,16952,-84,2656,17159.01,26.18,-1.00,-1.0,2373
573,573,16844,0,2784,17072.52,26.04,-1.00,-1.0,2421
576,576,16940,-104,2668,17149.13,26.18,-1.00,-1.0,2365
579,579,16956,-140,2732,17175.25,26.18,-1.00,-1.0,2362
584,584,16944,-40,2708,17159.08,26.08,-1.00,-1.0,2443
587,587,16916,12,2472,17095.67,26.13,-1.00,-1.0,2372
590,590,17040,-8,2768,17263.36,26.08,-1.00,-1.0,2423
592,592,16920,-124,2888,17165.15,26.04,-1.00,-1.0,2366
595,595,16796,16,2816,17030.44,26.13,-1.00,-1.0,2423
598,598,16920,4,2776,17146.21,26.18,-1.00,-1.0,2365
600,600,16968,36,2860,17207.38,26.04,-1.00,-1.0,2364
603,603,16876,-88,2904,17124.26,26.22,-1.00,-1.0,2420
606,606,17048,-12,2824,17280.32,26.22,-1.00,-1.0,2365
611,611,16840,-32,2812,17073.20,26.18,-1.00,-1.0,2441
614,614,16888,72,2652,17095.11,26.08,-1.00,-1.0,2375
616,616,16824,24,2708,17040.56,26.08,-1.00,-1.0,2364
619,619,16964,20,2812,17195.49,26.13,-1.00,-1.0,2425
622,622,16960,44,2888,17204.19,26.18,-1.00,-1.0,2368
625,625,16960,-172,2808,17191.74,26.18,-1.00,-1.0,2420
627,627,16880,80,2724,17098.57,26.08,-1.00,-1.0,2367
630,630,16948,-136,2796,17177.62,26.18,-1.00,-1.0,2420
633,633,16996,-124,2724,17213.35,26.08,-1.00,-1.0,2413
636,636,16848,-104,2760,17072.89,26.13,-1.00,-1.0,2367
641,641,16980,-64,2768,17204.25,26.32,-1.00,-1.0,2432
644,644,16984,-76,3016,17249.88,26.18,-1.00,-1.0,2354
647,647,16932,-64,2968,17190.28,26.13,-1.00,-1.0,2421
649,649,16984,28,2884,17227.14,26.18,-1.00,-1.0,2371
652,652,16912,-72,2780,17139.12,26.18,-1.00,-1.0,2362
655,655,16972,-76,2868,17212.79,26.13,-1.00,-1.0,2422
657,657,16952,-48,2920,17201.71,26.18,-1.00,-1.0,2374
660,660,17012,32,2908,17258.79,26.18,-1.00,-1.0,2421
663,663,16896,-28,2940,17149.90,26.08,-1.00,-1.0,2368
668,668,16944,-4,2828,17178.38,26.13,-1.00,-1.0,2433
671,671,16948,56,2976,17207.39,26.18,-1.00,-1.0,2365
673,673,16872,-24,2764,17096.92,26.13,-1.00,-1.0,2357
676,676,16828,4,2888,17074.02,26.18,-1.00,-1.0,2418
679,679,16884,-88,3048,17157.14,26.22,-1.00,-1.0,2367
682,682,17000,-68,2896,17245.04,26.13,-1.00,-1.0,2417
684,684,16976,32,2792,17204.09,26.22,-1.00,-1.0,2369
687,687,16932,104,2904,17179.54,26.18,-1.00,-1.0,2361
690,690,16988,-12,2892,17232.41,26.18,-1.00,-1.0,2416
693,693,16912,-84,2980,17172.75,26.18,-1.00,-1.0,2369
698,698,16808,36,3148,17100.29,26.18,-1.00,-1.0,2432
701,701,16840,28,2976,17100.96,26.08,-1.00,-1.0,2365
704,704,16976,16,3052,17248.18,26.18,-1.00,-1.0,2415
706,706,16940,-180,3044,17212.26,26.22,-1.00,-1.0,2368
709,709,16840,96,2912,17090.19,26.18,-1.00,-1.0,2369
712,712,16848,-48,2816,17081.78,26.08,-1.00,-1.0,2419
714,714,16956,-80,2884,17199.70,26.18,-1.00,-1.0,2373
717,717,16848,-28,2952,17104.68,26.13,-1.00,-1.0,2430
720,720,16800,136,2956,17058.62,26.13,-1.00,-1.0,2369
725,725,16940,16,2892,17185.10,26.13,-1.00,-1.0,2439
728,728,16944,24,2896,17189.72,26.18,-1.00,-1.0,2373
730,730,16900,52,2868,17141.71,26.13,-1.00,-1.0,2358
733,733,16880,164,2904,17128.76,26.13,-1.00,-1.0,2426
736,736,16912,-56,2812,17144.28,26.08,-1.00,-1.0,2376
739,739,16944,60,2764,17168.06,26.22,-1.00,-1.0,2413
741,741,17012,-12,2988,17272.42,26.13,-1.00,-1.0,2373
744,744,16880,120,2932,17133.17,26.13,-1.00,-1.0,2366
747,747,16912,36,2936,17165.00,26.13,-1.00,-1.0,2428
750,750,16968,40,2924,17218.14,26.22,-1.00,-1.0,2377
755,755,16856,180,2836,17093.86,26.22,-1.00,-1.0,2433
758,758,16904,-28,2812,17136.32,26.18,-1.00,-1.0,2364
761,761,16852,84,2704,17067.76,26.08,-1.00,-1.0,2423
763,763,16992,-60,2608,17191.08,26.18,-1.00,-1.0,2368
766,766,16856,36,2600,17055.38,26.13,-1.00,-1.0,2361
769,769,16940,40,2868,17181.11,26.18,-1.00,-1.0,2422
771,771,16984,12,2908,17231.16,26.18,-1.00,-1.0,2368
774,774,16832,124,2568,17027.22,26.18,-1.00,-1.0,2427
777,777,16956,-76,2768,17180.62,26.13,-1.00,-1.0,2375
780,780,16916,4,2588,17112.83,26.22,-1.00,-1.0,2370
785,785,17020,-48,2860,17258.69,26.22,-1.00,-1.0,2433
788,788,16844,20,2644,17050.26,26.13,-1.00,-1.0,2369
791,791,16956,-44,2772,17181.15,26.18,-1.00,-1.0,2421
793,793,16980,-72,2724,17197.26,26.18,-1.00,-1.0,2368
796,796,16904,80,2808,17135.82,26.18,-1.00,-1.0,2419
799,799,17028,0,2920,17276.55,26.18,-1.00,-1.0,2370
801,801,16948,160,2872,17190.37,26.22,-1.00,-1.0,2362
804,804,16884,48,2788,17112.71,26.18,-1.00,-1.0,2420
807,807,16924,56,2724,17141.91,26.08,-1.00,-1.0,2376
812,812,16968,-16,2820,17200.75,26.18,-1.00,-1.0,2442
815,815,16912,80,2756,17135.28,26.13,-1.00,-1.0,2364
818,818,16940,148,2604,17139.61,26.08,-1.00,-1.0,2359
820,820,16992,-40,2800,17221.20,26.18,-1.00,-1.0,2420
823,823,16948,20,2708,17162.99,26.13,-1.00,-1.0,2374
826,826,17008,-4,2796,17236.29,26.18,-1.00,-1.0,2420
828,828,16932,-28,2712,17147.84,26.13,-1.00,-1.0,2368
831,831,16976,-4,2880,17218.56,26.13,-1.00,-1.0,2417
834,834,16760,-52,2808,16993.68,26.08,-1.00,-1.0,2370
837,837,16832,44,2836,17069.30,26.18,-1.00,-1.0,2364
842,842,16944,-76,2848,17181.85,26.18,-1.00,-1.0,2443
845,845,16944,80,2860,17183.86,26.22,-1.00,-1.0,2371
848,848,16912,-76,2984,17173.40,26.18,-1.00,-1.0,2424
850,850,16872,108,2976,17132.79,26.13,-1.00,-1.0,2367
853,853,17008,-260,2944,17262.87,26.18,-1.00,-1.0,2377
856,856,16852,144,2800,17083.64,26.18,-1.00,-1.0,2410
859,859,17020,-80,3128,17305.24,26.04,-1.00,-1.0,2368
861,861,16920,28,2880,17163.38,26.13,-1.00,-1.0,2419
864,864,16956,12,2888,17200.19,26.22,-1.00,-1.0,2368
869,869,16836,244,2872,17080.95,26.13,-1.00,-1.0,2434
872,872,17012,-120,2888,17255.81,26.08,-1.00,-1.0,2379
875,875,16940,-36,2820,17173.16,26.08,-1.00,-1.0,2358
877,877,16944,36,2956,17199.95,26.13,-1.00,-1.0,2419
880,880,17044,-80,3044,17313.88,26.18,-1.00,-1.0,2368
883,883,16884,96,2848,17122.79,26.13,-1.00,-1.0,2447
886,886,17064,-244,2944,17317.82,26.04,-1.00,-1.0,2369
889,889,16840,156,2768,17066.69,26.04,-1.00,-1.0,2421
891,891,16992,-160,3036,17261.84,26.22,-1.00,-1.0,2365
894,894,16924,120,2984,17185.47,26.13,-1.00,-1.0,2362
899,899,16940,-88,3052,17212.96,26.13,-1.00,-1.0,2436
902,902,16860,164,2988,17123.51,26.18,-1.00,-1.0,2371
905,905,16948,-32,3032,17217.11,26.13,-1.00,-1.0,2419
908,908,16828,-24,2880,17072.69,26.27,-1.00,-1.0,2366
910,910,16716,-20,3028,16988.05,26.18,-1.00,-1.0,2433
913,913,16956,116,2980,17216.27,26.18,-1.00,-1.0,2367
916,916,16836,196,2840,17074.98,26.18,-1.00,-1.0,2366
919,919,16912,20,2808,17143.54,26.08,-1.00,-1.0,2419
921,921,16872,136,2812,17105.27,26.18,-1.00,-1.0,2366
926,926,16908,-28,2888,17152.89,26.08,-1.00,-1.0,2435
929,929,16972,116,2940,17225.15,26.13,-1.00,-1.0,2364
932,932,16956,-76,2964,17213.28,26.08,-1.00,-1.0,2357
934,934,16848,-8,2852,17087.69,26.18,-1.00,-1.0,2424
937,937,16948,24,2896,17193.66,26.18,-1.00,-1.0,2364
940,940,17036,304,2872,17279.06,26.18,-1.00,-1.0,2424
943,943,17008,-32,2860,17246.82,26.18,-1.00,-1.0,2365
946,946,17012,12,3016,17277.28,26.18,-1.00,-1.0,2424
949,949,16900,-80,2972,17159.52,26.18,-1.00,-1.0,2365
952,952,16820,180,2868,17063.71,26.18,-1.00,-1.0,2362
956,956,17036,-84,3132,17321.71,26.18,-1.00,-1.0,2436
959,959,16784,172,2952,17042.49,26.13,-1.00,-1.0,2363
962,962,16916,-4,3000,17179.96,26.18,-1.00,-1.0,2422
964,964,16808,160,3068,17086.46,26.13,-1.00,-1.0,2368
967,967,16944,100,3076,17221.23,26.08,-1.00,-1.0,2363
970,970,16984,56,3048,17255.43,26.18,-1.00,-1.0,2428
973,973,17032,276,2984,17293.62,26.18,-1.00,-1.0,2366
976,976,16956,124,3036,17226.10,26.22,-1.00,-1.0,2461
979,979,16884,244,2924,17137.06,26.08,-1.00,-1.0,2370
984,984,16924,88,2852,17162.85,26.08,-1.00,-1.0,2432
986,986,16924,24,3140,17212.84,26.18,-1.00,-1.0,2363
989,989,16888,28,3056,17162.30,26.18,-1.00,-1.0,2371
992,992,16976,84,2940,17228.91,26.18,-1.00,-1.0,2421
994,994,16880,-4,3076,17157.98,26.18,-1.00,-1.0,2365
997,997,16892,196,3192,17192.06,26.18,-1.00,-1.0,2416
1000,1000,16984,-220,3000,17248.32,26.08,-1.00,-1.0,2366
1003,1003,16816,92,2916,17067.20,26.22,-1.00,-1.0,2430
1006,1006,16888,-100,3136,17176.99,26.13,-1.00,-1.0,2372
1009,1009,16844,164,3020,17113.38,26.13,-1.00,-1.0,2367
1014,1014,16876,56,2948,17131.64,26.13,-1.00,-1.0,2460
1016,1016,17012,12,2908,17258.76,26.22,-1.00,-1.0,2381
1019,1019,16980,-32,2996,17242.31,26.13,-1.00,-1.0,2426
1022,1022,16872,160,3024,17141.60,26.13,-1.00,-1.0,2373
1025,1025,16988,-20,2984,17248.10,26.13,-1.00,-1.0,2425
1027,1027,16844,148,2784,17073.16,26.08,-1.00,-1.0,2371
1030,1030,16956,-68,2828,17190.35,26.13,-1.00,-1.0,2362
1033,1033,16872,224,2652,17080.62,26.08,-1.00,-1.0,2424
1036,1036,17036,-132,3100,17316.26,26.04,-1.00,-1.0,2369
1041,1041,16964,-140,2960,17220.87,26.13,-1.00,-1.0,2434
1043,1043,16948,-232,2996,17212.34,26.18,-1.00,-1.0,2363
1046,1046,16872,80,2812,17104.92,26.13,-1.00,-1.0,2418
1049,1049,16888,-280,3000,17154.68,26.08,-1.00,-1.0,2369
1051,1051,16852,88,2896,17099.25,26.18,-1.00,-1.0,2414
1054,1054,16996,-168,3140,17284.44,26.18,-1.00,-1.0,2369
1057,1057,17000,36,3000,17262.71,26.18,-1.00,-1.0,2362
1060,1060,17000,-248,3112,17284.27,26.18,-1.00,-1.0,2421
1063,1063,16804,164,2936,17059.35,26.18,-1.00,-1.0,2366
1068,1068,16860,-80,3220,17164.92,26.22,-1.00,-1.0,2435
1070,1070,16876,116,3048,17149.44,26.13,-1.00,-1.0,2363
1073,1073,16996,-112,3248,17303.93,26.22,-1.00,-1.0,2416
1076,1076,16828,88,2976,17089.35,26.18,-1.00,-1.0,2366
1078,1078,16852,-140,3012,17119.63,26.13,-1.00,-1.0,2364
1081,1081,16876,-56,2880,17120.07,26.13,-1.00,-1.0,2427
1084,1084,16960,-20,3008,17224.69,26.22,-1.00,-1.0,2375
1087,1087,16944,8,3016,17210.33,26.18,-1.00,-1.0,2420
1090,1090,17116,-128,3204,17413.77,26.27,-1.00,-1.0,2364
1095,1095,16868,-20,3000,17132.71,26.18,-1.00,-1.0,2437
1097,1097,16920,-164,3016,17187.48,26.13,-1.00,-1.0,2364
1100,1100,16876,164,3036,17147.70,26.13,-1.00,-1.0,2423
1103,1103,16924,-292,3272,17239.87,26.13,-1.00,-1.0,2373
1105,1105,16956,20,2984,17216.58,26.18,-1.00,-1.0,2372
1108,1108,16992,-84,3108,17274.11,26.18,-1.00,-1.0,2429
1111,1111,16872,180,2976,17133.40,26.22,-1.00,-1.0,2376
1114,1114,16980,-176,3156,17271.70,26.13,-1.00,-1.0,2428
1117,1117,16932,220,2944,17187.44,26.22,-1.00,-1.0,2365
1122,1122,16868,68,3112,17152.80,25.99,-1.00,-1.0,2437
1124,1124,16856,16,2784,17084.37,26.18,-1.00,-1.0,2366
1127,1127,16948,28,2940,17201.14,26.18,-1.00,-1.0,2359
1130,1130,16864,116,2956,17121.50,26.13,-1.00,-1.0,2420
1132,1132,17052,-92,3060,17324.63,26.18,-1.00,-1.0,2371
1135,1135,16832,188,2804,17064.99,26.18,-1.00,-1.0,2426
1138,1138,16996,-60,3056,17268.66,26.18,-1.00,-1.0,2373
1141,1141,16912,-12,2980,17172.54,26.22,-1.00,-1.0,2423
1144,1144,16896,28,2912,17145.12,26.13,-1.00,-1.0,2365
1149,1149,16932,-4,3076,17209.14,26.18,-1.00,-1.0,2462
1151,1151,16852,212,2944,17108.54,26.18,-1.00,-1.0,2372
1154,1154,16880,76,3072,17157.43,26.18,-1.00,-1.0,2361
1157,1157,16844,92,3016,17112.13,26.22,-1.00,-1.0,2418
1159,1159,16896,152,2860,17137.02,26.08,-1.00,-1.0,2373
1162,1162,16836,-92,3088,17117.10,26.13,-1.00,-1.0,2416
1165,1165,16904,352,2940,17161.37,26.08,-1.00,-1.0,2374
1168,1168,16916,-56,3044,17187.79,26.18,-1.00,-1.0,2405
1171,1171,16932,236,2792,17162.27,26.13,-1.00,-1.0,2372
1174,1174,17032,-36,3140,17319.06,26.13,-1.00,-1.0,2369
1179,1179,16860,188,3212,17164.26,26.18,-1.00,-1.0,2434
1181,1181,16904,48,2964,17161.96,26.13,-1.00,-1.0,2362
1184,1184,16888,128,2976,17148.69,26.13,-1.00,-1.0,2417
1187,1187,16952,48,3076,17228.88,26.04,-1.00,-1.0,2371
1189,1189,16904,-24,2912,17153.00,26.13,-1.00,-1.0,2422
1192,1192,16860,-92,3080,17139.27,26.18,-1.00,-1.0,2381
1195,1195,16988,108,2924,17238.14,26.18,-1.00,-1.0,2370
1198,1198,16948,-44,2980,17208.05,26.18,-1.00,-1.0,2428
1201,1201,16904,-4,3068,17180.16,26.18,-1.00,-1.0,2367
1206,1206,16976,44,3076,17252.49,26.18,-1.00,-1.0,2440
1208,1208,16828,-52,3096,17110.51,26.13,-1.00,-1.0,2364
1211,1211,16844,116,2932,17097.67,26.22,-1.00,-1.0,2417
1214,1214,16984,120,3000,17247.34,26.13,-1.00,-1.0,2366
1217,1217,16952,136,3024,17220.14,26.22,-1.00,-1.0,2425
1219,1219,16992,40,2920,17241.12,26.18,-1.00,-1.0,2370
1222,1222,16876,-156,2928,17128.83,26.13,-1.00,-1.0,2362
1225,1225,16908,112,3016,17175.25,26.13,-1.00,-1.0,2424
1228,1228,16992,52,3088,17270.39,26.18,-1.00,-1.0,2371
1233,1233,17732,-864,1636,17828.26,26.18,-1.00,-1.0,2440
1235,1235,17680,3016,7304,19365.62,26.22,-1.00,-1.0,2366
1238,1238,18804,7892,11160,23246.93,26.18,-1.00,-1.0,2420
1241,1241,17652,4024,6532,19247.15,26.13,-1.00,-1.0,2368
1243,1243,16016,-7276,-5900,18554.31,26.08,-1.00,-1.0,2357
1246,1246,17488,2668,5920,18654.62,26.08,-1.00,-1.0,2419
1249,1249,17756,-1436,4732,18431.75,26.22,-1.00,-1.0,2353
1252,1252,16996,916,1020,17051.20,26.13,-1.00,-1.0,2416
1255,1255,17524,-688,3996,17986.99,26.13,-1.00,-1.0,2367
1260,1260,16952,-380,3136,17243.82,26.18,-1.00,-1.0,2422
1262,1262,16888,292,4504,17480.73,26.27,-1.00,-1.0,2364
1265,1265,16600,332,3508,16969.86,26.18,-1.00,-1.0,2419
1268,1268,17544,308,5424,18365.91,26.04,-1.00,-1.0,2369
1270,1270,16444,2260,5420,17461.07,26.18,-1.00,-1.0,2358
1273,1273,16684,-620,2976,16958.68,26.18,-1.00,-1.0,2421
1276,1276,17408,-384,2644,17611.83,26.13,-1.00,-1.0,2352
1279,1279,17156,1532,3452,17566.78,26.13,-1.00,-1.0,2421
1282,1282,16764,616,3340,17104.58,26.13,-1.00,-1.0,2365
1287,1287,17208,-800,2116,17356.06,26.22,-1.00,-1.0,2439
1289,1289,17476,-692,2416,17655.78,26.18,-1.00,-1.0,2351
1292,1292,17428,844,3432,17782.75,26.18,-1.00,-1.0,2420
1295,1295,16464,-1432,2464,16708.84,26.27,-1.00,-1.0,2365
1297,1297,16540,-520,2572,16746.86,26.18,-1.00,-1.0,2357
1300,1300,16728,-260,3920,17183.13,26.18,-1.00,-1.0,2420
1303,1303,17164,676,4848,17848.33,26.18,-1.00,-1.0,2365
1306,1306,16632,64,3308,16957.90,26.18,-1.00,-1.0,2415
1309,1309,16996,48,3732,17400.98,26.13,-1.00,-1.0,2367
1314,1314,16636,324,2632,16846.04,26.13,-1.00,-1.0,2440
1317,1317,16732,-720,2120,16881.13,26.13,-1.00,-1.0,2365
1319,1319,16536,636,3568,16928.51,26.22,-1.00,-1.0,2422
1322,1322,17656,-176,3296,17961.88,26.27,-1.00,-1.0,2371
1325,1325,16796,172,2628,17001.22,26.18,-1.00,-1.0,2408
1328,1328,17020,-1256,2364,17229.23,26.13,-1.00,-1.0,2428
1330,1330,16924,916,3476,17301.54,26.18,-1.00,-1.0,2363
1333,1333,16876,96,3568,17249.32,26.22,-1.00,-1.0,2417
1336,1336,16196,872,4096,16728.66,26.18,-1.00,-1.0,2365
1341,1341,17260,548,2836,17500.02,26.18,-1.00,-1.0,2434
1344,1344,16860,-512,2824,17102.54,26.13,-1.00,-1.0,2367
1346,1346,16716,868,3164,17034.93,26.13,-1.00,-1.0,2426
1349,1349,17020,-132,4576,17624.91,26.13,-1.00,-1.0,2364
1352,1352,16872,1060,4320,17448.51,26.22,-1.00,-1.0,2360
1354,1354,17324,-760,4312,17868.74,26.18,-1.00,-1.0,2427
1357,1357,17416,-4,156,17416.70,26.13,-1.00,-1.0,2364
1360,1360,15900,-892,1264,15975.09,26.13,-1.00,-1.0,2415
1363,1363,16244,-504,3192,16562.32,26.27,-1.00,-1.0,2365
1368,1368,17464,76,2376,17625.05,26.22,-1.00,-1.0,2440
1370,1370,16568,68,2200,16713.56,26.08,-1.00,-1.0,2353
1373,1373,17152,-1124,2140,17321.49,26.22,-1.00,-1.0,2361
1376,1376,17448,-1024,716,17492.68,26.13,-1.00,-1.0,2425
1378,1378,16192,-1060,1624,16307.72,26.08,-1.00,-1.0,2365
1381,1381,17032,532,2804,17269.47,26.18,-1.00,-1.0,2421
1384,1384,17704,84,3600,18066.51,26.04,-1.00,-1.0,2365
1387,1387,16924,820,3444,17290.32,26.13,-1.00,-1.0,2421
1390,1390,16960,1268,3180,17302.08,26.22,-1.00,-1.0,2365
1395,1395,17100,432,4280,17632.78,26.22,-1.00,-1.0,2440
1397,1397,16816,-68,1424,16876.32,26.18,-1.00,-1.0,2354
1400,1400,15636,-336,2580,15850.99,26.13,-1.00,-1.0,2361
1403,1403,17760,276,2672,17962.00,26.13,-1.00,-1.0,2423
1405,1405,17704,-408,2880,17941.36,26.08,-1.00,-1.0,2365
1408,1408,17164,1120,1860,17300.78,26.18,-1.00,-1.0,2420
1411,1411,16500,-280,3364,16841.76,26.22,-1.00,-1.0,2364
1414,1414,16416,-628,1520,16498.18,26.22,-1.00,-1.0,2420
1417,1417,17020,-624,2548,17220.98,26.04,-1.00,-1.0,2365
1422,1422,17248,-344,2880,17490.18,26.13,-1.00,-1.0,2433
1425,1425,17124,-360,2088,17254.59,26.08,-1.00,-1.0,2367
1427,1427,16668,-2468,512,16857.50,26.18,-1.00,-1.0,2357
1430,1430,17560,424,2968,17814.11,26.22,-1.00,-1.0,2418
1433,1433,17432,-1092,2536,17649.32,26.08,-1.00,-1.0,2365
1435,1435,16408,388,1852,16516.75,26.22,-1.00,-1.0,2417
1438,1438,16852,-1152,3624,17275.72,26.18,-1.00,-1.0,2380
1441,1441,16416,-660,524,16437.62,26.18,-1.00,-1.0,2427
1444,1444,17404,-504,2828,17639.47,26.22,-1.00,-1.0,2365
1449,1449,16984,992,4852,17691.30,26.13,-1.00,-1.0,2434
1452,1452,17932,1056,4136,18433.07,26.18,-1.00,-1.0,2365
1454,1454,16624,572,1316,16685.81,26.13,-1.00,-1.0,2344
1457,1457,16400,1624,4404,17058.51,26.22,-1.00,-1.0,2419
1460,1460,18012,-2620,2416,18361.20,26.13,-1.00,-1.0,2364
1462,1462,17228,1204,1972,17382.24,26.13,-1.00,-1.0,2418
1465,1465,17448,-316,3628,17824.00,26.08,-1.00,-1.0,2378
1468,1468,16744,36,1304,16794.74,26.27,-1.00,-1.0,2436
1471,1471,17892,420,3708,18277.02,26.18,-1.00,-1.0,2373
1476,1476,17008,696,3716,17423.12,26.13,-1.00,-1.0,2434
1479,1479,17544,480,2628,17746.23,26.13,-1.00,-1.0,2364
1481,1481,16752,-252,2388,16923.22,26.22,-1.00,-1.0,2353
1484,1484,16096,-2024,-216,16224.19,26.18,-1.00,-1.0,2419
1487,1487,17104,-1580,908,17200.80,26.13,-1.00,-1.0,2364
1489,1489,17384,684,3332,17713.65,26.22,-1.00,-1.0,2413
1492,1492,17744,676,2452,17925.37,26.27,-1.00,-1.0,2371
1495,1495,16216,236,3688,16631.77,26.18,-1.00,-1.0,2431
1498,1498,16312,2520,4728,17169.33,26.08,-1.00,-1.0,2369
1503,1503,17092,196,2240,17239.27,26.18,-1.00,-1.0,2434
1506,1506,16948,-2728,-920,17190.79,26.22,-1.00,-1.0,2364
1508,1508,17004,864,3752,17434.45,26.18,-1.00,-1.0,2356
1511,1511,18352,3008,9304,20794.43,26.18,-1.00,-1.0,2418
1514,1514,16720,-572,4856,17420.29,26.13,-1.00,-1.0,2361
1516,1516,15508,248,1600,15592.29,26.18,-1.00,-1.0,2415
1519,1519,16864,-544,3880,17313.14,26.08,-1.00,-1.0,2350
1522,1522,18036,896,4988,18734.47,26.13,-1.00,-1.0,2419
1525,1525,17328,448,1688,17415.79,26.18,-1.00,-1.0,2370
1528,1528,15624,548,3020,15922.63,26.18,-1.00,-1.0,2370
1533,1533,16660,-2172,3000,17066.73,26.18,-1.00,-1.0,2434
1536,1536,16364,4700,5072,17765.01,26.18,-1.00,-1.0,2364
1538,1538,16840,712,6768,18163.11,26.18,-1.00,-1.0,2403
1541,1541,14836,-88,352,14840.44,26.13,-1.00,-1.0,2364
1544,1544,17028,-2964,2556,17472.01,26.13,-1.00,-1.0,2420
1547,1547,17416,2516,3288,17901.35,26.13,-1.00,-1.0,2368
1549,1549,16760,-808,2028,16901.58,26.13,-1.00,-1.0,2427
1552,1552,16804,-520,3992,17279.49,26.13,-1.00,-1.0,2368
1555,1555,17612,-1936,-1252,17762.27,26.13,-1.00,-1.0,2365
1560,1560,16220,-32,36,16220.07,26.18,-1.00,-1.0,2439
1563,1563,17244,828,4048,17732.10,26.08,-1.00,-1.0,2371
1566,1566,16332,-1264,2128,16518.48,26.18,-1.00,-1.0,2416
1568,1568,16412,148,2172,16555.76,26.18,-1.00,-1.0,2365
1571,1571,16624,-416,2468,16811.35,26.18,-1.00,-1.0,2421
1574,1574,16448,408,1928,16565.64,26.13,-1.00,-1.0,2365
1576,1576,16792,-1080,3436,17173.93,26.18,-1.00,-1.0,2421
1579,1579,17104,644,3740,17519.96,26.13,-1.00,-1.0,2365
1582,1582,17612,1248,5088,18374.65,26.27,-1.00,-1.0,2362
1587,1587,15904,1284,2440,16141.24,26.08,-1.00,-1.0,2432
1590,1590,17784,-988,4644,18406.89,26.22,-1.00,-1.0,2370
1592,1592,15912,2304,2552,16279.22,26.08,-1.00,-1.0,2421
1595,1595,16976,-1512,4184,17549.26,26.32,-1.00,-1.0,2373
1598,1598,16952,452,2120,17090.03,25.94,-1.00,-1.0,2414
1601,1601,16588,-592,4888,17303.32,26.13,-1.00,-1.0,2368
1603,1603,16384,-1692,928,16497.26,26.13,-1.00,-1.0,2422
1606,1606,17184,-2292,-1528,17403.39,26.18,-1.00,-1.0,2366
1609,1609,17368,-128,3704,17759.04,26.18,-1.00,-1.0,2362
1614,1614,18080,-228,4536,18641.72,26.08,-1.00,-1.0,2433
1617,1617,16644,-892,1624,16746.81,26.04,-1.00,-1.0,2364
1619,1619,15632,-2840,-688,15902.78,26.18,-1.00,-1.0,2423
1622,1622,16392,1600,4076,16966.78,26.13,-1.00,-1.0,2371
1625,1625,17756,-2308,1984,18014.96,26.13,-1.00,-1.0,2422
1628,1628,16832,1440,2728,17112.33,26.13,-1.00,-1.0,2364
1630,1630,16992,1556,5944,18068.77,26.13,-1.00,-1.0,2422
1633,1633,16268,-864,428,16296.55,26.18,-1.00,-1.0,2365
1636,1636,16432,-584,3808,16877.57,26.18,-1.00,-1.0,2362
1641,1641,17124,472,3856,17559.12,26.18,-1.00,-1.0,2432
1644,1644,15480,-1408,344,15547.71,26.18,-1.00,-1.0,2410
1647,1647,16420,32,3808,16855.81,26.22,-1.00,-1.0,2432
1649,1649,17724,1364,4828,18420.38,26.13,-1.00,-1.0,2368
1652,1652,17420,1560,4556,18073.38,26.22,-1.00,-1.0,2420
1655,1655,17792,2312,6836,19199.78,26.18,-1.00,-1.0,2366
1658,1658,16900,420,1772,16997.83,26.13,-1.00,-1.0,2420
1660,1660,15744,-4720,-740,16452.95,26.18,-1.00,-1.0,2375
1663,1663,17076,-1096,2176,17248.94,26.22,-1.00,-1.0,2366
1668,1668,16276,1224,3836,16766.67,26.08,-1.00,-1.0,2426
1671,1671,16280,-468,2804,16526.34,26.27,-1.00,-1.0,2366
1674,1674,16740,108,1140,16779.12,26.18,-1.00,-1.0,2422
1676,1676,18224,-3324,-1600,18593.63,26.18,-1.00,-1.0,2376
1679,1679,16668,1932,3568,17154.75,26.18,-1.00,-1.0,2412
1682,1682,17404,-764,936,17445.89,26.22,-1.00,-1.0,2364
1685,1685,17508,-2792,3228,18020.69,26.13,-1.00,-1.0,2418
1687,1687,17272,784,1268,17336.22,26.13,-1.00,-1.0,2368
1690,1690,18100,-80,3708,18476.08,26.22,-1.00,-1.0,2363
1695,1695,17308,-3036,964,17598.68,26.13,-1.00,-1.0,2414
1698,1698,15948,-1732,-108,16042.14,26.18,-1.00,-1.0,2365
1701,1701,17396,-388,-316,17403.20,26.08,-1.00,-1.0,2425
1703,1703,18652,992,6900,19912.09,26.18,-1.00,-1.0,2374
1706,1706,17124,4592,5488,18558.99,26.18,-1.00,-1.0,2413
1709,1709,16740,404,6748,18053.43,26.22,-1.00,-1.0,2369
1712,1712,16460,940,3580,16871.03,26.18,-1.00,-1.0,2419
1714,1714,16872,852,4828,17569.86,26.18,-1.00,-1.0,2367
1717,1717,17488,296,3148,17771.54,26.18,-1.00,-1.0,2363
1722,1722,17552,-1036,2840,17810.44,26.22,-1.00,-1.0,2425
1725,1725,17412,340,1012,17444.70,26.18,-1.00,-1.0,2367
1728,1728,17248,608,5460,18101.79,26.04,-1.00,-1.0,2422
1730,1730,16932,-1200,1336,17026.96,26.27,-1.00,-1.0,2374
1733,1733,16376,272,3412,16729.89,26.13,-1.00,-1.0,2419
1736,1736,17540,-1500,2464,17775.63,26.08,-1.00,-1.0,2369
1739,1739,15932,1116,4208,16516.09,26.18,-1.00,-1.0,2426
1741,1741,16992,140,3784,17408.80,26.08,-1.00,-1.0,2368
1744,1744,17592,-1004,1036,17651.06,26.18,-1.00,-1.0,2365
1749,1749,16708,-1360,1156,16803.07,26.08,-1.00,-1.0,2428
1752,1752,16784,-1344,2136,16972.67,26.22,-1.00,-1.0,2366
1755,1755,16744,1068,2736,16999.64,26.13,-1.00,-1.0,2431
1757,1757,17004,320,3048,17277.98,26.22,-1.00,-1.0,2369
1760,1760,16572,896,3672,16997.58,26.13,-1.00,-1.0,2417
1763,1763,15572,-1176,2452,15807.67,26.08,-1.00,-1.0,2366
1766,1766,17020,-2140,796,17172.47,26.13,-1.00,-1.0,2419
1768,1768,16668,2660,5192,17659.41,26.18,-1.00,-1.0,2376
1771,1771,17164,-1988,1128,17315.53,26.08,-1.00,-1.0,2370
1776,1776,16944,-1456,1136,17044.34,26.08,-1.00,-1.0,2427
1779,1779,16440,748,2056,16584.94,26.13,-1.00,-1.0,2364
1782,1782,16052,-1252,3624,16503.56,26.08,-1.00,-1.0,2430
1784,1784,18392,2548,5412,19340.31,26.13,-1.00,-1.0,2366
1787,1787,16192,1544,4308,16826.28,26.27,-1.00,-1.0,2420
1790,1790,16228,212,2424,16409.41,26.13,-1.00,-1.0,2368
1793,1793,16848,-852,1088,16904.58,26.22,-1.00,-1.0,2420
1795,1795,17364,-1024,1452,17454.67,26.13,-1.00,-1.0,2373
1800,1800,16580,-2404,1148,16792.66,26.13,-1.00,-1.0,2422
1803,1803,15840,-680,600,15865.94,26.13,-1.00,-1.0,2370
1805,1805,17668,520,4616,18268.45,26.18,-1.00,-1.0,2358
1808,1808,16480,3536,3872,17294.11,26.08,-1.00,-1.0,2424
1811,1811,15300,-992,3828,15802.77,26.13,-1.00,-1.0,2367
1814,1814,16056,-1072,1060,16126.62,26.18,-1.00,-1.0,2415
1816,1816,16268,2088,5136,17186.80,26.04,-1.00,-1.0,2371
1819,1819,17680,-1640,3212,18044.08,26.13,-1.00,-1.0,2417
1822,1822,16956,264,-512,16965.78,26.13,-1.00,-1.0,2370
1827,1827,16416,8,1432,16478.34,26.13,-1.00,-1.0,2435
1830,1830,16596,-2256,916,16773.66,26.04,-1.00,-1.0,2369
1833,1833,16440,2748,6544,17906.68,26.22,-1.00,-1.0,2356
1835,1835,16436,1984,3348,16890.46,26.08,-1.00,-1.0,2424
1838,1838,18168,1064,6344,19273.16,26.13,-1.00,-1.0,2371
1841,1841,16296,1652,2684,16597.97,26.32,-1.00,-1.0,2421
1844,1844,17296,-1752,1992,17498.26,26.13,-1.00,-1.0,2370
1846,1846,17096,-1320,2452,17321.31,26.18,-1.00,-1.0,2419
1849,1849,17416,104,1864,17515.78,26.18,-1.00,-1.0,2367
1854,1854,16216,-1376,472,16281.12,26.13,-1.00,-1.0,2437
1857,1857,16964,-276,2268,17117.16,26.04,-1.00,-1.0,2363
1860,1860,16408,-1844,1664,16594.93,26.13,-1.00,-1.0,2359
1862,1862,16548,1344,3256,16918.75,26.27,-1.00,-1.0,2426
1865,1865,16876,-552,4808,17556.22,26.13,-1.00,-1.0,2371
1868,1868,16564,600,2728,16797.86,26.22,-1.00,-1.0,2419
1871,1871,16008,-536,1688,16105.67,26.18,-1.00,-1.0,2367
1873,1873,16568,-2664,1268,16828.65,26.08,-1.00,-1.0,2419
1876,1876,16840,2156,3604,17355.77,26.08,-1.00,-1.0,2367
1881,1881,16260,2648,4204,17002.15,26.08,-1.00,-1.0,2429
1884,1884,15380,-3052,3024,15968.83,26.22,-1.00,-1.0,2371
1887,1887,17836,-4408,-264,18374.52,26.08,-1.00,-1.0,2356
1889,1889,17192,8228,10540,21779.73,26.08,-1.00,-1.0,2423
1892,1892,16372,-488,3172,16683.59,26.22,-1.00,-1.0,2368
1895,1895,15920,588,3688,16352.17,26.18,-1.00,-1.0,2417
1898,1898,15504,28,5560,16470.83,26.13,-1.00,-1.0,2369
1901,1901,16612,124,2248,16763.87,26.13,-1.00,-1.0,2418
1903,1903,14812,392,3780,15291.74,26.27,-1.00,-1.0,2368
1908,1908,16524,6588,8676,19791.85,26.18,-1.00,-1.0,2431
1911,1911,16744,-616,3556,17128.52,26.13,-1.00,-1.0,2378
1914,1914,16072,-316,2804,16317.83,26.18,-1.00,-1.0,2358
1916,1916,16828,72,1312,16879.22,26.27,-1.00,-1.0,2424
1919,1919,18500,-420,2408,18660.78,26.18,-1.00,-1.0,2366
1922,1922,15964,272,1008,15998.10,26.08,-1.00,-1.0,2416
1925,1925,17916,1000,8008,19649.71,26.22,-1.00,-1.0,2371
1928,1928,16280,656,-1516,16363.59,26.13,-1.00,-1.0,2420
1930,1930,17572,-3728,2776,18176.34,26.13,-1.00,-1.0,2366
1935,1935,16572,-2724,-1160,16834.40,26.18,-1.00,-1.0,2427
1938,1938,17412,-1032,512,17450.07,26.18,-1.00,-1.0,2356
1941,1941,16904,1692,5852,17968.14,26.18,-1.00,-1.0,2358
1943,1943,16424,-156,3796,16857.69,26.22,-1.00,-1.0,2425
1946,1946,17280,756,4576,17891.61,26.18,-1.00,-1.0,2364
1949,1949,16932,-116,2552,17123.63,26.18,-1.00,-1.0,2416
1952,1952,17472,-1460,1188,17573.10,26.08,-1.00,-1.0,2372
1955,1955,17208,-152,3292,17520.72,26.18,-1.00,-1.0,2425
1958,1958,18008,4192,6844,19715.51,26.04,-1.00,-1.0,2367
1962,1962,15676,944,712,15720.53,26.13,-1.00,-1.0,2427
1965,1965,18216,-296,5344,18986.01,26.08,-1.00,-1.0,2365
1968,1968,16860,2804,5304,17895.65,26.18,-1.00,-1.0,2355
1971,1971,17252,-20,2596,17446.23,26.22,-1.00,-1.0,2423
1973,1973,16384,-300,1808,16486.19,26.18,-1.00,-1.0,2366
1976,1976,17248,-1672,976,17356.31,26.22,-1.00,-1.0,2415
1979,1979,18524,-464,3192,18802.73,26.18,-1.00,-1.0,2368
1982,1982,17528,4720,5432,18947.71,26.18,-1.00,-1.0,2429
1985,1985,16632,4740,10400,20180.46,26.08,-1.00,-1.0,2373
1990,1990,17236,-976,3568,17628.47,26.13,-1.00,-1.0,2428
1992,1992,17000,380,2576,17198.26,26.22,-1.00,-1.0,2363
1995,1995,16344,-1980,864,16486.15,26.13,-1.00,-1.0,2363
1998,1998,17780,-372,1968,17892.45,26.18,-1.00,-1.0,2424
2000,2000,16688,-1440,1120,16787.42,26.22,-1.00,-1.0,2364
2003,2003,16676,-616,2784,16918.01,26.22,-1.00,-1.0,2416
2006,2006,17316,1556,2744,17600.98,26.08,-1.00,-1.0,2366
2009,2009,15964,1404,5848,17059.30,26.08,-1.00,-1.0,2428
2012,2012,16460,-708,936,16501.79,26.18,-1.00,-1.0,2373
2016,2016,16220,980,3992,16732.75,26.08,-1.00,-1.0,2435
2019,2019,15800,-948,2672,16052.36,26.27,-1.00,-1.0,2372
2022,2022,17244,-1320,1772,17384.99,26.08,-1.00,-1.0,2362
2024,2024,18936,2524,6212,20088.10,26.13,-1.00,-1.0,2423
2027,2027,16408,-4852,208,17111.62,26.18,-1.00,-1.0,2373
2030,2030,15380,2624,1108,15641.53,26.13,-1.00,-1.0,2417
2033,2033,18012,-2208,5636,19001.89,26.18,-1.00,-1.0,2370
2036,2036,16468,1764,2012,16683.97,26.18,-1.00,-1.0,2425
2039,2039,17720,-1176,2476,17930.75,26.18,-1.00,-1.0,2367
2043,2043,19452,-1636,-524,19527.71,26.22,-1.00,-1.0,2435
2046,2046,17048,-9452,-3532,19810.34,26.18,-1.00,-1.0,2369
2049,2049,15420,640,-3512,15827.83,26.27,-1.00,-1.0,2360
2051,2051,18752,-2620,5008,19585.25,26.22,-1.00,-1.0,2424
2054,2054,16320,2712,2916,16798.82,26.13,-1.00,-1.0,2372
2057,2057,15896,84,6056,17010.73,26.22,-1.00,-1.0,2419
2060,2060,15656,-1820,-180,15762.46,26.18,-1.00,-1.0,2368
2063,2063,17764,-1744,748,17865.07,26.13,-1.00,-1.0,2422
2066,2066,16664,-876,3184,16988.06,26.18,-1.00,-1.0,2367
2071,2071,17016,-2616,5440,18054.95,26.27,-1.00,-1.0,2432
2073,2073,17200,820,-536,17227.88,26.18,-1.00,-1.0,2363
2076,2076,17228,1584,6980,18655.65,26.18,-1.00,-1.0,2406
2079,2079,16860,-452,2312,17023.79,26.22,-1.00,-1.0,2434
2082,2082,17144,-1356,-1316,17247.82,26.18,-1.00,-1.0,2365
2084,2084,17316,-1884,3900,17849.46,26.18,-1.00,-1.0,2421
2087,2087,17352,-1088,-4264,17901.32,26.08,-1.00,-1.0,2364
2090,2090,17048,-1376,4968,17810.35,26.18,-1.00,-1.0,2423
2093,2093,16208,2168,3720,16770.15,26.22,-1.00,-1.0,2364
2098,2098,16224,384,984,16258.35,26.22,-1.00,-1.0,2432
2100,2100,16064,-1796,524,16172.58,26.18,-1.00,-1.0,2368
2103,2103,18008,548,7992,19709.40,26.22,-1.00,-1.0,2435
2106,2106,17948,16,-3648,18314.99,26.18,-1.00,-1.0,2369
2108,2108,17844,-2552,2856,18250.42,26.13,-1.00,-1.0,2369
2111,2111,16384,-472,-848,16412.72,26.13,-1.00,-1.0,2418
2114,2114,17564,-556,5548,18427.79,26.13,-1.00,-1.0,2373
2117,2117,16476,2368,2980,16909.95,26.18,-1.00,-1.0,2425
2120,2120,16340,-1184,2904,16638.23,26.18,-1.00,-1.0,2365
2125,2125,16388,-964,16,16416.34,26.13,-1.00,-1.0,2432
2127,2127,17024,-5704,-2400,18113.87,26.13,-1.00,-1.0,2372
2130,2130,17272,1776,-480,17369.70,26.22,-1.00,-1.0,2430
2133,2133,17900,-1652,5012,18661.71,26.04,-1.00,-1.0,2375
2135,2135,16680,2116,4528,17412.71,26.13,-1.00,-1.0,2364
2138,2138,16216,1604,5180,17098.65,26.08,-1.00,-1.0,2419
2141,2141,16776,-852,1480,16862.70,26.13,-1.00,-1.0,2369
2144,2144,14944,-412,1248,15001.68,26.18,-1.00,-1.0,2429
2147,2147,17164,-5360,-548,17989.80,26.18,-1.00,-1.0,2364
2152,2152,17072,-4992,-576,17796.21,26.08,-1.00,-1.0,2430
2154,2154,15616,1880,3336,16078.64,26.13,-1.00,-1.0,2372
2157,2157,18020,-568,2976,18272.92,26.18,-1.00,-1.0,2422
2160,2160,17324,3308,6864,18925.60,26.13,-1.00,-1.0,2374
2162,2162,14884,1736,3408,15367.55,26.18,-1.00,-1.0,2360
2165,2165,18060,988,6284,19147.54,26.27,-1.00,-1.0,2418
2168,2168,16760,2144,2800,17127.01,26.22,-1.00,-1.0,2366
2171,2171,18204,-3028,1868,18548.42,26.13,-1.00,-1.0,2404
2174,2174,17016,2492,2704,17408.79,26.18,-1.00,-1.0,2372
2179,2179,17236,5276,9192,20233.85,26.18,-1.00,-1.0,2429
2181,2181,16028,3092,7168,17828.00,26.18,-1.00,-1.0,2368
2184,2184,17076,2228,6984,18583.06,26.18,-1.00,-1.0,2420
2187,2187,15704,452,2632,15929.45,26.13,-1.00,-1.0,2373
2189,2189,17792,-4224,-60,18286.63,26.08,-1.00,-1.0,2358
2192,2192,16756,-1296,968,16833.90,26.08,-1.00,-1.0,2417
2195,2195,17112,-3108,204,17393.15,26.18,-1.00,-1.0,2367
2198,2198,17836,3944,5688,19131.95,26.13,-1.00,-1.0,2421
2201,2201,16128,6528,12044,21160.93,26.22,-1.00,-1.0,2368
2206,2206,15784,-1612,4040,16372.38,26.22,-1.00,-1.0,2437
2208,2208,17540,-3768,-1072,17972.16,26.08,-1.00,-1.0,2368
2211,2211,16316,1012,3788,16780.49,26.18,-1.00,-1.0,2409
2214,2214,16636,-2232,940,16811.36,26.18,-1.00,-1.0,2365
2216,2216,17932,796,4176,18429.03,26.08,-1.00,-1.0,2357
2219,2219,14692,2284,7740,16762.43,26.13,-1.00,-1.0,2418
2222,2222,17664,5996,7520,20112.67,26.18,-1.00,-1.0,2367
2225,2225,16788,5100,10620,20509.30,26.18,-1.00,-1.0,2425
2228,2228,16424,-3784,-64,16854.39,26.13,-1.00,-1.0,2372
2233,2233,17620,-1580,920,17714.60,26.18,-1.00,-1.0,2437
2235,2235,18472,2500,4204,19108.60,26.13,-1.00,-1.0,2363
2238,2238,16444,-4516,-1120,17089.58,26.04,-1.00,-1.0,2420
2241,2241,18028,3212,4496,18855.76,26.13,-1.00,-1.0,2366
2244,2244,17048,868,5700,17996.60,26.13,-1.00,-1.0,2421
2246,2246,16784,-200,2052,16910.16,26.18,-1.00,-1.0,2367
2249,2249,15260,-444,2868,15533.52,26.18,-1.00,-1.0,2369
2252,2252,16760,-5488,-3744,18028.68,26.18,-1.00,-1.0,2409
2255,2255,18220,-220,1020,18249.86,26.18,-1.00,-1.0,2368
2260,2260,18136,1212,1916,18277.16,26.08,-1.00,-1.0,2439
2262,2262,16700,2000,6624,18076.71,26.13,-1.00,-1.0,2363
2265,2265,16600,1252,1012,16677.88,26.18,-1.00,-1.0,2420
2268,2268,16492,600,5956,17544.80,26.13,-1.00,-1.0,2367
2271,2271,17088,-4128,-1888,17680.63,26.13,-1.00,-1.0,2419
2273,2273,17856,696,956,17895.11,26.22,-1.00,-1.0,2367
2276,2276,17124,-3328,-252,17446.22,26.18,-1.00,-1.0,2366
2279,2279,18236,-280,1364,18289.08,26.18,-1.00,-1.0,2422
2282,2282,15624,2720,5956,16940.54,26.18,-1.00,-1.0,2365
2287,2287,17772,3396,6708,19297.00,26.18,-1.00,-1.0,2438
2289,2289,17168,2056,5352,18100.04,26.22,-1.00,-1.0,2364
2292,2292,17192,328,1428,17254.32,26.13,-1.00,-1.0,2422
2295,2295,16852,-5540,-3764,18134.20,26.22,-1.00,-1.0,2355
2298,2298,18600,392,1472,18662.27,26.13,-1.00,-1.0,2416
2300,2300,16472,5100,8784,19351.88,26.08,-1.00,-1.0,2372
2303,2303,17916,1840,7528,19520.23,26.13,-1.00,-1.0,2362
2306,2306,17100,4788,6728,18989.50,26.13,-1.00,-1.0,2421
2309,2309,17552,-616,3608,17929.58,26.22,-1.00,-1.0,2369
2314,2314,16164,-1688,36,16251.94,26.18,-1.00,-1.0,2436
2316,2316,19812,2004,4988,20528.31,26.08,-1.00,-1.0,2365
2319,2319,16448,8764,11908,22116.62,26.18,-1.00,-1.0,2424
2322,2322,15908,684,3132,16227.81,26.13,-1.00,-1.0,2367
2325,2325,16180,-1676,2444,16449.15,26.13,-1.00,-1.0,2421
2327,2327,17412,-7352,-4516,19432.55,26.08,-1.00,-1.0,2355
2330,2330,17152,1676,1936,17342.09,26.13,-1.00,-1.0,2362
2333,2333,16948,-908,2392,17140.04,26.22,-1.00,-1.0,2419
2336,2336,18488,1412,5996,19487.22,26.04,-1.00,-1.0,2367
2341,2341,17300,3752,7016,19041.84,26.18,-1.00,-1.0,2433
2344,2344,16668,3064,4776,17607.40,26.08,-1.00,-1.0,2364
2346,2346,16804,-2304,1636,17039.93,26.18,-1.00,-1.0,2426
2349,2349,16768,-2108,2860,17140.28,26.08,-1.00,-1.0,2369
2352,2352,17404,644,2912,17657.68,26.18,-1.00,-1.0,2423
2354,2354,19488,3996,8128,21489.87,26.04,-1.00,-1.0,2366
2357,2357,14704,-1872,1368,14885.68,26.18,-1.00,-1.0,2362
2360,2360,16740,660,6028,17804.49,26.08,-1.00,-1.0,2418
2363,2363,16648,504,4776,17326.86,26.13,-1.00,-1.0,2366
2368,2368,16304,-1696,-1040,16424.93,26.22,-1.00,-1.0,2417
2371,2371,15428,-3644,-828,15874.11,26.18,-1.00,-1.0,2364
2373,2373,17424,800,5924,18420.90,26.18,-1.00,-1.0,2432
2376,2376,17084,-252,2148,17220.35,26.27,-1.00,-1.0,2365
2379,2379,17428,-112,3376,17752.33,26.18,-1.00,-1.0,2417
2381,2381,16952,1312,4624,17620.24,26.13,-1.00,-1.0,2367
2384,2384,15668,2700,5340,16771.76,26.18,-1.00,-1.0,2364
2387,2387,17088,-1256,992,17162.79,26.18,-1.00,-1.0,2418
2390,2390,16944,-1328,3844,17425.24,26.08,-1.00,-1.0,2366
2395,2395,17132,-392,3576,17505.62,26.22,-1.00,-1.0,2433
2398,2398,17060,2264,7332,18706.35,26.13,-1.00,-1.0,2370
2400,2400,17776,1052,-8,17807.10,26.22,-1.00,-1.0,2429
2403,2403,15576,-4092,-1292,16156.28,26.22,-1.00,-1.0,2371
2406,2406,15256,-248,-4112,15802.39,26.13,-1.00,-1.0,2424
2408,2408,19428,-1032,6528,20521.38,26.18,-1.00,-1.0,2366
2411,2411,17896,-780,-2264,18055.50,26.18,-1.00,-1.0,2421
2414,2414,15928,-8,2736,16161.28,26.18,-1.00,-1.0,2367
2417,2417,16168,-2736,2656,16611.57,26.18,-1.00,-1.0,2363
2422,2422,17616,-5288,2308,18536.81,26.18,-1.00,-1.0,2430
2425,2425,14220,1596,-3408,14709.52,26.22,-1.00,-1.0,2374
2427,2427,17880,-2868,7528,19610.98,26.18,-1.00,-1.0,2429
2430,2430,17092,-1048,-1160,17163.34,26.13,-1.00,-1.0,2372
2433,2433,14880,2760,3816,15607.49,26.22,-1.00,-1.0,2419
2436,2436,16728,-4520,2544,17513.66,26.08,-1.00,-1.0,2368
2438,2438,17076,-1864,-4100,17659.96,26.18,-1.00,-1.0,2420
2441,2441,17076,80,6152,18150.57,26.22,-1.00,-1.0,2366
2444,2444,17784,-280,1624,17860.19,26.13,-1.00,-1.0,2362
2449,2449,17196,2080,3572,17685.81,26.13,-1.00,-1.0,2437
2451,2451,15652,-1184,3208,16021.18,26.08,-1.00,-1.0,2365
2454,2454,16808,-2344,836,16991.24,26.18,-1.00,-1.0,2421
2457,2457,16796,3492,4444,17721.42,26.18,-1.00,-1.0,2366
2460,2460,16580,-3936,44,17040.85,26.08,-1.00,-1.0,2414
2462,2462,17208,3448,5368,18352.64,26.18,-1.00,-1.0,2375
2465,2465,17768,-1340,2640,18012.97,26.18,-1.00,-1.0,2418
2468,2468,17148,1128,3696,17578.02,26.04,-1.00,-1.0,2375
2471,2471,19160,4116,8692,21438.23,26.13,-1.00,-1.0,2370
2476,2476,18148,540,-776,18172.61,26.22,-1.00,-1.0,2436
2478,2478,18548,352,2552,18726.05,26.22,-1.00,-1.0,2364
2481,2481,15808,1496,2008,16005.09,26.13,-1.00,-1.0,2423
2484,2484,16368,-3664,3356,17105.53,26.08,-1.00,-1.0,2366
2487,2487,18188,-108,2880,18414.92,26.18,-1.00,-1.0,2416
2489,2489,17876,-1440,-1080,17966.40,26.18,-1.00,-1.0,2369
2492,2492,17244,-500,2300,17403.89,26.27,-1.00,-1.0,2419
2495,2495,17744,-2156,2304,18022.38,26.13,-1.00,-1.0,2381
2498,2498,17104,1072,3500,17491.31,26.22,-1.00,-1.0,2370
2503,2503,16976,-232,4776,17636.57,26.13,-1.00,-1.0,2429
2506,2506,17488,-3928,1700,18004.15,26.18,-1.00,-1.0,2363
2508,2508,17268,-652,-1836,17377.57,26.22,-1.00,-1.0,2419
2511,2511,18788,-2180,24,18914.07,26.18,-1.00,-1.0,2367
2514,2514,16696,-2356,512,16869.18,26.18,-1.00,-1.0,2419
2517,2517,14680,1108,2520,14935.88,26.18,-1.00,-1.0,2370
2519,2519,17216,-10212,-3644,20345.87,26.18,-1.00,-1.0,2422
2522,2522,15428,-3940,-7900,17775.17,26.18,-1.00,-1.0,2374
2527,2527,15764,2872,4220,16569.87,26.18,-1.00,-1.0,2445
2530,2530,16364,-680,3976,16853.83,26.22,-1.00,-1.0,2373
2532,2532,18000,-1896,-1548,18165.66,26.18,-1.00,-1.0,2363
2535,2535,16984,3116,3036,17532.34,26.18,-1.00,-1.0,2415
2538,2538,18964,-5468,5300,20435.81,26.22,-1.00,-1.0,2369
2541,2541,14856,2004,-3268,15342.64,26.18,-1.00,-1.0,2414
2543,2543,18384,-2148,6424,19592.17,26.13,-1.00,-1.0,2367
2546,2546,17572,-616,-380,17586.90,26.18,-1.00,-1.0,2417
2549,2549,17284,560,2572,17483.29,26.18,-1.00,-1.0,2370
2554,2554,16612,3076,3436,17240.26,26.18,-1.00,-1.0,2445
2557,2557,18524,184,8380,20332.16,26.22,-1.00,-1.0,2367
2559,2559,15896,4296,4004,16946.10,26.18,-1.00,-1.0,2365
2562,2562,16372,2752,9884,19321.21,26.18,-1.00,-1.0,2431
2565,2565,17328,2512,4420,18058.41,26.18,-1.00,-1.0,2372
2568,2568,17572,-1912,1580,17746.19,26.18,-1.00,-1.0,2428
2570,2570,17384,-1040,2420,17582.42,26.22,-1.00,-1.0,2367
2573,2573,18232,1248,2756,18481.31,26.08,-1.00,-1.0,2420
2576,2576,16184,264,2272,16344.83,26.18,-1.00,-1.0,2367
2581,2581,17912,-52,4672,18511.35,26.18,-1.00,-1.0,2443
2584,2584,15336,860,2128,15506.80,26.08,-1.00,-1.0,2373
2586,2586,16200,-2772,904,16460.29,26.18,-1.00,-1.0,2365
2589,2589,15644,-4,300,15646.88,26.18,-1.00,-1.0,2422
2592,2592,18420,516,2944,18660.92,26.18,-1.00,-1.0,2369
2595,2595,17840,880,-520,17869.26,26.08,-1.00,-1.0,2424
2597,2597,16156,4,2976,16427.81,26.27,-1.00,-1.0,2367
2600,2600,15320,-1464,1532,15465.86,26.13,-1.00,-1.0,2407
2603,2603,16068,-1352,700,16139.97,26.22,-1.00,-1.0,2367
2608,2608,15592,-1132,-2488,15829.78,26.08,-1.00,-1.0,2435
2611,2611,17584,-2040,2668,17901.87,26.18,-1.00,-1.0,2372
2613,2613,17108,3416,5164,18193.95,26.13,-1.00,-1.0,2360
2616,2616,16884,3956,8712,19406.66,26.13,-1.00,-1.0,2421
2619,2619,16948,-64,2632,17151.28,26.18,-1.00,-1.0,2370
2622,2622,16536,-2204,1372,16738.56,26.22,-1.00,-1.0,2427
2624,2624,17784,-5020,-3948,18895.97,26.27,-1.00,-1.0,2370
2627,2627,17336,1632,1812,17506.68,26.27,-1.00,-1.0,2417
2630,2630,18576,4716,10268,21742.59,26.13,-1.00,-1.0,2367
2635,2635,15196,-5756,-2516,16443.24,26.22,-1.00,-1.0,2430
2638,2638,14920,-2440,-2004,15250.44,26.22,-1.00,-1.0,2369
2641,2641,18300,-1404,3840,18751.18,26.13,-1.00,-1.0,2431
2643,2643,17812,680,3324,18132.26,26.08,-1.00,-1.0,2372
2646,2646,17720,1316,5952,18739.17,26.04,-1.00,-1.0,2364
2649,2649,15644,4312,8180,18172.52,26.22,-1.00,-1.0,2423
2651,2651,17612,832,5796,18559.86,26.13,-1.00,-1.0,2372
2654,2654,16088,2324,4400,16839.97,26.27,-1.00,-1.0,2420
2657,2657,16804,2216,5432,17798.64,26.27,-1.00,-1.0,2368
2663,2663,16048,2156,4976,16939.52,26.18,-1.00,-1.0,2437
2665,2665,18784,-6844,-2676,20170.27,26.22,-1.00,-1.0,2364
2668,2668,16168,2568,-1188,16413.72,26.08,-1.00,-1.0,2421
2671,2671,20500,-156,6588,21533.14,26.13,-1.00,-1.0,2371
2673,2673,15396,-2756,-1596,15721.95,26.08,-1.00,-1.0,2357
2676,2676,15124,-2156,172,15277.87,26.27,-1.00,-1.0,2418
2679,2679,16448,-1824,-568,16558.57,26.32,-1.00,-1.0,2366
2682,2682,16568,-644,1308,16632.02,26.18,-1.00,-1.0,2414
2684,2684,17504,-3932,2744,18148.83,26.13,-1.00,-1.0,2373
2689,2689,16268,2068,6980,17822.59,26.22,-1.00,-1.0,2428
2692,2692,16176,3844,6620,17895.91,26.22,-1.00,-1.0,2368
2695,2695,17272,-1356,2052,17446.24,26.13,-1.00,-1.0,2428
2697,2697,16912,-2052,-1236,17080.81,26.22,-1.00,-1.0,2371
2700,2700,17132,-1840,76,17230.69,26.13,-1.00,-1.0,2365
2703,2703,17628,124,4636,18227.84,26.18,-1.00,-1.0,2420
2705,2705,17260,2120,3512,17740.80,26.13,-1.00,-1.0,2374
2708,2708,16516,-140,2564,16714.42,26.32,-1.00,-1.0,2429
2711,2711,14520,-5712,-3672,16029.38,26.13,-1.00,-1.0,2371
2716,2716,17740,3556,6856,19348.32,26.18,-1.00,-1.0,2434
2719,2719,17644,2160,7192,19175.54,26.27,-1.00,-1.0,2363
2722,2722,15776,3216,8308,18117.61,26.18,-1.00,-1.0,2423
2724,2724,16956,620,5100,17717.23,26.13,-1.00,-1.0,2373
2727,2727,16828,2716,5804,18006.79,26.27,-1.00,-1.0,2362
2730,2730,16244,-332,-844,16269.30,26.18,-1.00,-1.0,2427
2732,2732,17376,-912,2492,17577.46,26.27,-1.00,-1.0,2354
2735,2735,16372,-100,3008,16646.33,26.32,-1.00,-1.0,2429
2738,2738,18204,-5900,-3236,19407.92,26.13,-1.00,-1.0,2373
2743,2743,16388,-4904,-2880,17346.76,26.13,-1.00,-1.0,2431
2746,2746,16092,184,2004,16217.35,26.18,-1.00,-1.0,2363
2749,2749,17820,-168,6528,18978.81,26.27,-1.00,-1.0,2418
2751,2751,18268,3116,3580,18874.47,26.27,-1.00,-1.0,2369
2754,2754,17260,-1296,1628,17384.98,26.18,-1.00,-1.0,2419
2757,2757,17124,-1692,2720,17421.04,26.13,-1.00,-1.0,2354
2759,2759,16632,676,3868,17089.23,26.18,-1.00,-1.0,2363
2762,2762,15404,5032,7692,17937.98,26.18,-1.00,-1.0,2428
2765,2765,16316,524,6012,17396.28,26.13,-1.00,-1.0,2376
2770,2770,17664,-2620,-2588,18043.81,26.22,-1.00,-1.0,2432
2773,2773,16780,-36,1268,16827.88,26.18,-1.00,-1.0,2365
2776,2776,16296,-2564,944,16523.46,26.22,-1.00,-1.0,2426
2778,2778,19364,5512,11856,23364.75,26.27,-1.00,-1.0,2368
2781,2781,17500,3872,4100,18386.20,26.18,-1.00,-1.0,2418
2784,2784,16592,-2492,1496,16844.66,26.18,-1.00,-1.0,2368
2786,2786,16192,-2776,3484,16793.61,26.27,-1.00,-1.0,2362
2789,2789,16708,-272,2384,16879.42,26.18,-1.00,-1.0,2420
2792,2792,17964,1156,3800,18397.87,26.08,-1.00,-1.0,2375
2797,2797,16380,692,5716,17362.49,26.18,-1.00,-1.0,2431
2800,2800,16300,1084,3280,16662.04,26.22,-1.00,-1.0,2363
2803,2803,16244,6728,12188,21393.48,26.13,-1.00,-1.0,2422
2805,2805,16884,1404,1704,17027.75,26.22,-1.00,-1.0,2366
2808,2808,17436,-540,2472,17618.64,26.13,-1.00,-1.0,2421
2811,2811,16608,-2592,-716,16824.29,26.18,-1.00,-1.0,2369
2813,2813,17248,-2712,496,17466.95,26.22,-1.00,-1.0,2349
2816,2816,17688,-680,3320,18009.72,26.13,-1.00,-1.0,2420
2819,2819,18472,980,1128,18532.34,26.18,-1.00,-1.0,2369
2824,2824,16184,-3416,-1008,16571.27,26.18,-1.00,-1.0,2439
2827,2827,16664,-728,2504,16866.80,26.13,-1.00,-1.0,2363
2830,2830,17036,1348,6160,18165.57,26.18,-1.00,-1.0,2425
2832,2832,16436,3636,9500,19329.06,26.22,-1.00,-1.0,2366
2835,2835,15696,3264,7884,17865.49,26.22,-1.00,-1.0,2421
2838,2838,16732,-1664,3468,17168.45,26.18,-1.00,-1.0,2354
2840,2840,16612,-2404,140,16785.63,26.22,-1.00,-1.0,2362
2843,2843,15936,2120,4160,16605.91,26.22,-1.00,-1.0,2419
2846,2846,16940,-472,2576,17141.24,26.13,-1.00,-1.0,2367
2851,2851,18388,892,6048,19377.63,26.08,-1.00,-1.0,2437
2854,2854,18188,-2320,-4536,18888.12,26.18,-1.00,-1.0,2363
2857,2857,16852,1272,5240,17693.66,26.18,-1.00,-1.0,2426
2859,2859,14696,-1136,-1164,14785.73,26.22,-1.00,-1.0,2354
2862,2862,17464,-2232,4024,18060.06,26.18,-1.00,-1.0,2419
2865,2865,15928,-5344,-6792,18121.56,26.27,-1.00,-1.0,2367
2868,2868,18008,-1888,-300,18109.19,26.22,-1.00,-1.0,2419
2870,2870,16072,-1468,3364,16485.77,26.22,-1.00,-1.0,2367
2873,2873,17228,1980,7468,18881.09,26.22,-1.00,-1.0,2362
2878,2878,16916,2424,5064,17823.33,26.22,-1.00,-1.0,2433
2881,2881,16296,-220,1288,16348.30,26.27,-1.00,-1.0,2364
2884,2884,16304,540,5544,17229.28,26.13,-1.00,-1.0,2424
2886,2886,17292,-2140,52,17423.99,26.13,-1.00,-1.0,2372
2889,2889,17092,1344,5448,17989.54,26.22,-1.00,-1.0,2419
2892,2892,19036,-5956,-3764,20298.05,26.18,-1.00,-1.0,2375
2895,2895,16808,836,-988,16857.76,26.13,-1.00,-1.0,2429
2897,2897,15656,-3892,340,16136.10,26.13,-1.00,-1.0,2366
2900,2900,15204,-1520,92,15280.07,26.13,-1.00,-1.0,2362
2905,2905,18560,2912,4840,19400.49,26.18,-1.00,-1.0,2434
2908,2908,16944,-1480,516,17016.34,26.13,-1.00,-1.0,2365
2911,2911,16568,-1152,5728,17568.03,26.13,-1.00,-1.0,2423
2913,2913,15684,2576,4936,16642.95,26.22,-1.00,-1.0,2373
2916,2916,16236,7444,13692,22505.37,26.13,-1.00,-1.0,2417
2919,2919,15332,1492,4212,15969.88,26.18,-1.00,-1.0,2370
2922,2922,16660,168,5644,17590.87,26.22,-1.00,-1.0,2424
2924,2924,16976,-4820,-3148,17925.59,26.18,-1.00,-1.0,2368
2927,2927,19044,-660,-908,19077.05,26.18,-1.00,-1.0,2362
2932,2932,16392,156,-1944,16507.61,26.22,-1.00,-1.0,2431
2935,2935,17596,-3660,1616,18045.12,26.22,-1.00,-1.0,2356
2938,2938,14320,-2444,-1580,14612.73,26.22,-1.00,-1.0,2421
2941,2941,16768,1084,5396,17648.16,26.18,-1.00,-1.0,2370
2943,2943,16892,-328,6392,18063.91,26.13,-1.00,-1.0,2427
2946,2946,18708,-2504,456,18880.34,26.18,-1.00,-1.0,2367
2949,2949,16912,-1384,-1816,17065.43,26.18,-1.00,-1.0,2426
2952,2952,14852,84,868,14877.58,26.18,-1.00,-1.0,2367
2955,2955,17800,-664,7496,19325.40,26.18,-1.00,-1.0,2362
2959,2959,17296,1208,3320,17653.14,26.08,-1.00,-1.0,2429
2962,2962,17892,-3160,-1804,18258.25,26.13,-1.00,-1.0,2362
2965,2965,15452,-3644,-652,15889.25,26.18,-1.00,-1.0,2420
2968,2968,18316,2516,7936,20119.30,26.13,-1.00,-1.0,2370
2970,2970,17048,6196,9816,20624.71,26.22,-1.00,-1.0,2427
2973,2973,16580,-1348,3436,16985.87,26.13,-1.00,-1.0,2374
2976,2976,16948,-932,2332,17133.05,26.22,-1.00,-1.0,2422
2979,2979,15724,5652,8808,18888.36,26.22,-1.00,-1.0,2369
2984,2984,17324,-2996,2460,17752.43,26.18,-1.00,-1.0,2429
2986,2986,17436,348,2400,17603.84,26.18,-1.00,-1.0,2363
2989,2989,16636,260,3132,16930.25,26.18,-1.00,-1.0,2361
2992,2992,15244,756,4448,15897.67,26.13,-1.00,-1.0,2421
2994,2994,16800,-52,1064,16833.74,26.08,-1.00,-1.0,2366
2997,2997,16972,884,6836,18318.33,26.18,-1.00,-1.0,2415
3000,3000,16016,60,140,16016.72,26.18,-1.00,-1.0,2366
3003,3003,17788,-3508,1120,18165.17,26.13,-1.00,-1.0,2430
3006,3006,15520,3984,5612,16977.55,26.13,-1.00,-1.0,2373
3009,3009,16372,120,4336,16936.87,26.13,-1.00,-1.0,2365
3014,3014,17320,-1112,3956,17800.81,26.13,-1.00,-1.0,2430
3016,3016,16620,-2532,-284,16814.16,26.18,-1.00,-1.0,2364
3019,3019,15652,1008,1636,15769.52,26.27,-1.00,-1.0,2422
3022,3022,17772,-1028,4920,18469.09,26.08,-1.00,-1.0,2365
3024,3024,16044,600,6452,17303.13,26.08,-1.00,-1.0,2415
3027,3027,18412,-1796,2836,18715.51,26.13,-1.00,-1.0,2374
3030,3030,17072,-772,-4252,17610.47,26.18,-1.00,-1.0,2420
3033,3033,18784,232,5060,19454.98,26.22,-1.00,-1.0,2369
3038,3038,16376,2132,2844,16757.30,26.13,-1.00,-1.0,2431
3040,3040,18072,-3680,-424,18447.75,26.13,-1.00,-1.0,2363
3043,3043,16780,-148,1608,16857.52,26.13,-1.00,-1.0,2365
3046,3046,16440,40,3500,16808.49,26.18,-1.00,-1.0,2432
3048,3048,16740,188,3776,17161.62,26.13,-1.00,-1.0,2364
3051,3051,16200,656,4384,16795.53,26.22,-1.00,-1.0,2425
3054,3054,16116,264,2824,16363.68,26.18,-1.00,-1.0,2372
3057,3057,17268,1032,4980,18001.37,26.18,-1.00,-1.0,2419
3060,3060,15552,2832,6764,17194.09,26.18,-1.00,-1.0,2366
3063,3063,15092,-968,2888,15396.30,26.08,-1.00,-1.0,2363
3068,3068,17480,2220,3704,18005.51,26.18,-1.00,-1.0,2438
3070,3070,15808,1032,1132,15882.04,26.22,-1.00,-1.0,2365
3073,3073,15996,-2288,3636,16562.83,26.22,-1.00,-1.0,2428
3076,3076,17352,3288,7692,19263.17,26.18,-1.00,-1.0,2373
3079,3079,16648,2308,4324,17354.53,26.13,-1.00,-1.0,2414
3081,3081,16404,-2100,-940,16564.56,26.18,-1.00,-1.0,2367
3084,3084,17800,-936,-132,17825.08,26.13,-1.00,-1.0,2418
3087,3087,17012,1852,5972,18124.65,26.18,-1.00,-1.0,2366
3091,3091,17124,1484,3792,17601.50,26.32,-1.00,-1.0,2430
3094,3094,16132,2496,3580,16711.91,26.18,-1.00,-1.0,2362
3097,3097,17404,-1592,5664,18371.57,26.18,-1.00,-1.0,2358
3100,3100,16164,2068,3632,16695.60,26.22,-1.00,-1.0,2422
3102,3102,17204,2288,3424,17690.01,26.13,-1.00,-1.0,2365
3105,3105,16196,936,3660,16630.76,26.13,-1.00,-1.0,2418
3108,3108,16480,208,3892,16934.62,26.18,-1.00,-1.0,2366
3111,3111,16184,-540,2164,16336.96,26.13,-1.00,-1.0,2429
3114,3114,15836,976,4248,16424.89,26.27,-1.00,-1.0,2367
3118,3118,17520,1012,1996,17662.35,26.13,-1.00,-1.0,2430
3121,3121,16804,-1728,320,16895.64,26.18,-1.00,-1.0,2365
3124,3124,16176,-268,2988,16451.84,26.18,-1.00,-1.0,2358
3126,3126,16304,-1940,2584,16621.10,26.13,-1.00,-1.0,2422
3129,3129,17148,2316,1956,17413.89,26.22,-1.00,-1.0,2365
3132,3132,16660,-1336,1332,16766.48,26.13,-1.00,-1.0,2416
3135,3135,16276,-844,3636,16698.53,26.22,-1.00,-1.0,2366
3138,3138,17916,-808,2424,18097.29,26.22,-1.00,-1.0,2428
3141,3141,17428,324,3052,17696.18,26.13,-1.00,-1.0,2365
3146,3146,16480,-256,712,16497.36,26.18,-1.00,-1.0,2430
3148,3148,17448,-4524,-1384,18078.02,26.08,-1.00,-1.0,2373
3151,3151,17604,468,1644,17686.79,26.22,-1.00,-1.0,2357
3154,3154,16644,20,3436,16994.98,26.13,-1.00,-1.0,2422
3156,3156,17648,1580,3772,18115.64,26.18,-1.00,-1.0,2373
3159,3159,16464,-824,1864,16589.66,26.13,-1.00,-1.0,2417
3162,3162,17232,-1872,2324,17488.49,26.08,-1.00,-1.0,2374
3165,3165,16944,244,916,16970.50,26.18,-1.00,-1.0,2418
3168,3168,17052,-876,3992,17534.94,26.22,-1.00,-1.0,2373
3173,3173,15256,-188,3656,15689.08,26.22,-1.00,-1.0,2432
3175,3175,17768,2516,3232,18233.98,26.32,-1.00,-1.0,2374
3178,3178,18616,1964,6544,19830.20,26.22,-1.00,-1.0,2360
3181,3181,16644,3784,5564,17952.70,26.13,-1.00,-1.0,2426
3183,3183,16484,1488,4524,17158.18,26.13,-1.00,-1.0,2369
3186,3186,17044,-1540,3152,17401.28,26.13,-1.00,-1.0,2419
3189,3189,18612,532,4316,19113.28,26.18,-1.00,-1.0,2370
3192,3192,17220,3164,4288,18025.71,26.18,-1.00,-1.0,2429
3195,3195,16228,200,4212,16766.90,26.18,-1.00,-1.0,2373
3200,3200,16544,-980,2296,16731.29,26.13,-1.00,-1.0,2430
3202,3202,17252,-2284,1360,17455.59,26.13,-1.00,-1.0,2372
3205,3205,16232,808,1112,16290.10,26.08,-1.00,-1.0,2358
3208,3208,16320,188,6552,17587.11,26.27,-1.00,-1.0,2426
3210,3210,17048,576,6612,18294.39,26.13,-1.00,-1.0,2367
3213,3213,17008,5744,9012,20086.86,26.08,-1.00,-1.0,2419
3216,3216,17256,2300,4928,18092.67,26.22,-1.00,-1.0,2367
3219,3219,16116,2744,3192,16656.65,26.13,-1.00,-1.0,2424
3222,3222,16772,-332,7124,18225.30,26.18,-1.00,-1.0,2374
3225,3225,15940,1768,2768,16274.87,26.18,-1.00,-1.0,2370
3230,3230,16240,-900,2172,16409.30,26.18,-1.00,-1.0,2437
3232,3232,16532,924,2088,16688.94,26.13,-1.00,-1.0,2353
3235,3235,17112,-1020,4704,17776.07,26.18,-1.00,-1.0,2420
3238,3238,16592,928,3684,17021.38,26.22,-1.00,-1.0,2369
3241,3241,16232,-544,232,16242.77,26.22,-1.00,-1.0,2423
3243,3243,17032,-2376,644,17208.98,26.22,-1.00,-1.0,2371
3246,3246,16712,-2112,516,16852.83,26.22,-1.00,-1.0,2433
3249,3249,16580,516,6512,17820.46,26.13,-1.00,-1.0,2370
3252,3252,17260,-740,1276,17322.91,26.13,-1.00,-1.0,2369
3257,3257,17212,1116,1224,17291.52,26.18,-1.00,-1.0,2438
3259,3259,17256,356,2108,17387.93,26.18,-1.00,-1.0,2364
3262,3262,16896,-6900,-2856,18472.72,26.18,-1.00,-1.0,2421
3265,3265,17056,2756,2540,17462.94,26.13,-1.00,-1.0,2368
3268,3268,17580,-932,3080,17872.09,26.18,-1.00,-1.0,2417
3270,3270,16504,-840,428,16530.90,26.13,-1.00,-1.0,2372
3273,3273,16792,-2364,1148,16996.40,26.13,-1.00,-1.0,2428
3276,3276,17304,-1784,2380,17557.78,26.13,-1.00,-1.0,2366
3281,3281,16336,1444,4760,17076.52,26.22,-1.00,-1.0,2442
3283,3283,17272,852,5204,18059.06,26.18,-1.00,-1.0,2364
3286,3286,17612,188,7096,18988.71,26.22,-1.00,-1.0,2368
3289,3289,17160,1204,1200,17243.99,26.22,-1.00,-1.0,2425
3291,3291,19028,1548,6564,20187.80,26.27,-1.00,-1.0,2361
3294,3294,16628,6096,7908,19395.57,26.22,-1.00,-1.0,2419
3297,3297,15852,3148,6368,17370.87,26.18,-1.00,-1.0,2367
3300,3300,16880,-940,4284,17440.49,26.18,-1.00,-1.0,2419
3303,3303,17400,-1684,972,17508.30,26.18,-1.00,-1.0,2366
3306,3306,16316,4124,4456,17409.05,26.08,-1.00,-1.0,2349
3311,3311,17728,944,1016,17782.16,26.08,-1.00,-1.0,2430
3313,3313,16252,-3480,-44,16620.46,26.13,-1.00,-1.0,2370
3316,3316,18144,-2096,240,18266.24,26.08,-1.00,-1.0,2430
3319,3319,16444,1848,720,16563.17,26.22,-1.00,-1.0,2378
3322,3322,16980,-2280,3624,17511.49,26.13,-1.00,-1.0,2419
3324,3324,16520,-664,3376,16874.50,26.22,-1.00,-1.0,2367
3327,3327,16488,3188,6944,18172.41,26.22,-1.00,-1.0,2418
3330,3330,18428,1384,4648,19055.46,26.27,-1.00,-1.0,2369
3333,3333,15476,484,-712,15499.93,26.18,-1.00,-1.0,2364
3338,3338,17032,488,4076,17519.73,26.27,-1.00,-1.0,2430
3340,3340,16468,-348,4032,16957.98,26.18,-1.00,-1.0,2374
3343,3343,18996,3480,5612,20111.02,26.18,-1.00,-1.0,2426
3346,3346,16540,2560,3620,17123.95,26.22,-1.00,-1.0,2375
3349,3349,17008,-2236,2344,17313.75,26.18,-1.00,-1.0,2426
3351,3351,16320,584,2440,16511.72,26.22,-1.00,-1.0,2369
3354,3354,17296,-1948,1380,17459.97,26.22,-1.00,-1.0,2426
3357,3357,17300,4780,5524,18779.06,26.18,-1.00,-1.0,2367
3360,3360,16640,-2868,-848,16906.63,26.08,-1.00,-1.0,2362
3365,3365,15860,-676,-1416,15937.43,26.08,-1.00,-1.0,2430
3368,3368,17168,720,5892,18165.20,26.22,-1.00,-1.0,2364
3370,3370,15900,736,1708,16008.40,26.18,-1.00,-1.0,2430
3373,3373,16800,1128,6508,18051.77,26.13,-1.00,-1.0,2365
3376,3376,18120,-1500,1484,18242.44,26.22,-1.00,-1.0,2424
3378,3378,16520,-280,-1828,16623.19,26.18,-1.00,-1.0,2366
3381,3381,16272,1144,7420,17920.47,26.13,-1.00,-1.0,2418
3384,3384,17124,2756,2928,17589.77,26.22,-1.00,-1.0,2366
3389,3389,17436,1968,4052,18008.49,26.18,-1.00,-1.0,2432
3392,3392,16152,-2576,-664,16369.60,26.18,-1.00,-1.0,2370
3394,3394,16512,-2848,-28,16755.84,26.22,-1.00,-1.0,2362
3397,3397,15996,-2184,-2380,16318.89,26.13,-1.00,-1.0,2423
3400,3400,18412,524,8332,20216.29,26.18,-1.00,-1.0,2366
3402,3402,17712,1996,1548,17891.21,26.18,-1.00,-1.0,2401
3405,3405,16156,976,6872,17583.89,26.18,-1.00,-1.0,2375
3408,3408,17488,-1352,852,17560.86,26.22,-1.00,-1.0,2418
3411,3411,15608,-432,-1712,15707.55,26.22,-1.00,-1.0,2371
3416,3416,16312,2944,3052,16854.17,26.13,-1.00,-1.0,2417
3419,3419,17480,-4480,2236,18182.97,26.27,-1.00,-1.0,2367
3421,3421,16812,-4008,-5892,18259.88,26.13,-1.00,-1.0,2357
3424,3424,16344,-1108,1184,16424.25,26.13,-1.00,-1.0,2422
3427,3427,17732,-1792,5008,18512.57,26.13,-1.00,-1.0,2366
3429,3429,16396,3744,1844,16918.83,26.18,-1.00,-1.0,2418
3432,3432,17828,552,7268,19260.48,26.18,-1.00,-1.0,2381
3435,3435,16624,476,-2560,16826.69,26.08,-1.00,-1.0,2419
3438,3438,16620,-2600,2572,17017.62,26.18,-1.00,-1.0,2366
3443,3443,16664,480,1836,16771.71,26.27,-1.00,-1.0,2455
3446,3446,17248,2756,9956,20105.00,26.18,-1.00,-1.0,2372
3448,3448,15224,1096,-1916,15383.19,26.27,-1.00,-1.0,2363
3451,3451,15840,-2584,5180,16864.61,26.13,-1.00,-1.0,2418
3454,3454,16700,-340,-1420,16763.71,26.18,-1.00,-1.0,2373
3457,3457,16992,1604,5100,17813.22,26.08,-1.00,-1.0,2424
3459,3459,18092,-6068,-3900,19476.94,26.27,-1.00,-1.0,2368
3462,3462,16836,3812,2784,17485.22,26.27,-1.00,-1.0,2434
3465,3465,16872,-4628,408,17499.98,26.18,-1.00,-1.0,2375
3470,3470,17256,-744,1296,17320.59,26.27,-1.00,-1.0,2434
3473,3473,18268,1660,4956,19000.98,26.13,-1.00,-1.0,2364
3475,3475,16576,2136,4820,17394.21,26.22,-1.00,-1.0,2413
3478,3478,17292,-2624,2860,17722.25,26.22,-1.00,-1.0,2355
3481,3481,16364,-936,-3352,16729.99,26.13,-1.00,-1.0,2362
3483,3483,14852,-1820,3040,15268.79,26.18,-1.00,-1.0,2417
3486,3486,16492,2424,7624,18329.95,26.13,-1.00,-1.0,2366
3489,3489,16604,-724,992,16649.36,26.22,-1.00,-1.0,2425
3492,3492,17520,-836,4936,18221.23,26.18,-1.00,-1.0,2373
3497,3497,16740,1764,5240,17629.43,26.18,-1.00,-1.0,2433
3500,3500,17144,96,3136,17428.72,26.18,-1.00,-1.0,2364
3502,3502,16244,40,4224,16784.26,26.18,-1.00,-1.0,2416
3505,3505,16912,-1036,3916,17390.35,26.13,-1.00,-1.0,2366
3508,3508,17704,4580,6164,19297.74,26.18,-1.00,-1.0,2370
3511,3511,16832,-3168,84,17127.74,26.18,-1.00,-1.0,2420
3513,3513,17316,688,5400,18151.51,26.18,-1.00,-1.0,2367
3516,3516,17324,10236,13084,24001.83,26.22,-1.00,-1.0,2427
3519,3519,17860,-236,6000,18842.38,26.13,-1.00,-1.0,2382
3525,3525,16236,-3660,-2480,16827.17,26.22,-1.00,-1.0,2442
3527,3527,17584,-1472,1444,17704.49,26.13,-1.00,-1.0,2376
3530,3530,17020,2812,4768,17897.53,26.13,-1.00,-1.0,2416
3533,3533,17940,3280,10392,20990.37,26.13,-1.00,-1.0,2369
3535,3535,18184,736,508,18205.98,26.22,-1.00,-1.0,2363
3538,3538,15892,-2388,-608,16081.91,26.18,-1.00,-1.0,2419
3541,3541,14360,-3804,-3932,15366.87,26.13,-1.00,-1.0,2368
3544,3544,15572,2784,9992,18710.37,26.22,-1.00,-1.0,2425
3546,3546,17848,696,7068,19209.17,26.18,-1.00,-1.0,2371
3551,3551,17352,-3056,1568,17688.69,26.22,-1.00,-1.0,2443
3554,3554,17112,-624,628,17134.88,26.13,-1.00,-1.0,2371
3557,3557,16296,-5384,-3700,17556.68,26.13,-1.00,-1.0,2431
3559,3559,16984,-3020,-1588,17323.35,26.18,-1.00,-1.0,2365
3562,3562,16784,-4260,-956,17342.55,26.22,-1.00,-1.0,2359
3565,3565,18724,3228,9060,21049.74,26.13,-1.00,-1.0,2426
3567,3567,17608,-680,-1292,17668.43,26.18,-1.00,-1.0,2365
3570,3570,16568,-740,5276,17403.52,26.18,-1.00,-1.0,2417
3573,3573,18432,3096,10344,21361.70,26.27,-1.00,-1.0,2366
3578,3578,17292,76,7188,18726.62,26.22,-1.00,-1.0,2448
3581,3581,18752,2280,5608,19704.96,26.13,-1.00,-1.0,2374
3584,3584,17544,392,2852,17778.62,26.13,-1.00,-1.0,2430
3586,3586,16336,584,-1196,16390.13,26.18,-1.00,-1.0,2420
3589,3589,16556,2296,7932,18501.06,26.13,-1.00,-1.0,2363
3592,3592,18692,-1208,1904,18827.52,26.13,-1.00,-1.0,2428
3594,3594,16660,2552,1448,16916.41,26.18,-1.00,-1.0,2354
3597,3597,17616,-10828,-6748,21750.97,26.18,-1.00,-1.0,2418
3600,3600,15936,692,-8,15951.02,26.08,-1.00,-1.0,2368
3605,3605,18940,1040,4660,19532.56,26.18,-1.00,-1.0,2441
3608,3608,14912,2052,6300,16317.73,26.22,-1.00,-1.0,2373
3611,3611,16836,-3612,-36,17219.14,26.22,-1.00,-1.0,2424
3613,3613,15364,2376,3908,16030.29,26.18,-1.00,-1.0,2368
3616,3616,18520,-1648,3692,18956.19,26.04,-1.00,-1.0,2418
3619,3619,17168,276,796,17188.66,26.18,-1.00,-1.0,2367
3621,3621,15360,-744,2280,15546.11,26.22,-1.00,-1.0,2363
3624,3624,16400,1884,5336,17348.84,26.18,-1.00,-1.0,2419
3627,3627,17608,-3024,-2596,18053.41,26.18,-1.00,-1.0,2367
3632,3632,15520,-1628,-6124,16763.78,26.08,-1.00,-1.0,2438
3635,3635,16976,-3908,1804,17513.18,26.13,-1.00,-1.0,2372
3638,3638,17936,744,2956,18193.17,26.18,-1.00,-1.0,2422
3640,3640,16908,2372,5700,17999.91,26.04,-1.00,-1.0,2371
3643,3643,16520,-1676,944,16631.61,26.18,-1.00,-1.0,2426
3646,3646,17072,-1988,-360,17191.13,26.22,-1.00,-1.0,2375
3648,3648,16208,-5200,-3300,17338.66,26.27,-1.00,-1.0,2370
3651,3651,16132,3400,7512,18117.16,26.22,-1.00,-1.0,2420
3654,3654,17228,2324,4084,17857.32,26.18,-1.00,-1.0,2367
3659,3659,16652,-2740,-2328,17035.74,26.18,-1.00,-1.0,2431
3662,3662,17224,-2980,-1108,17514.97,26.18,-1.00,-1.0,2369
3665,3665,16160,-792,-1628,16261.10,26.18,-1.00,-1.0,2423
3667,3667,17336,1484,7280,18861.01,26.18,-1.00,-1.0,2373
3670,3670,16400,-2040,1468,16591.46,26.18,-1.00,-1.0,2431
3673,3673,17820,1304,4412,18404.31,26.22,-1.00,-1.0,2371
3676,3676,17872,-3312,-844,18195.88,26.08,-1.00,-1.0,2417
3678,3678,17284,912,3324,17624.34,26.22,-1.00,-1.0,2368
3681,3681,17908,4940,9888,21044.54,26.13,-1.00,-1.0,2362
3686,3686,16832,-1220,-940,16902.31,26.18,-1.00,-1.0,2432
3689,3689,17992,-2800,1264,18252.39,26.18,-1.00,-1.0,2366
3692,3692,15940,-2804,-6884,17587.94,26.18,-1.00,-1.0,2421
3694,3694,17960,-468,6544,19120.79,26.27,-1.00,-1.0,2373
3697,3697,17732,1428,5432,18600.26,26.18,-1.00,-1.0,2432
3700,3700,15980,5116,10504,19795.65,26.18,-1.00,-1.0,2370
3703,3703,17264,-964,2992,17547.85,26.08,-1.00,-1.0,2418
3705,3705,15984,-1340,-1932,16156.00,26.18,-1.00,-1.0,2369
3708,3708,15516,-2444,4628,16374.91,26.18,-1.00,-1.0,2364
3713,3713,18636,7864,11588,23311.47,26.22,-1.00,-1.0,2419
3716,3716,16600,2924,7740,18547.71,26.18,-1.00,-1.0,2351
3719,3719,16320,-752,1408,16397.88,26.13,-1.00,-1.0,2422
3721,3721,16808,-3412,1004,17180.18,26.08,-1.00,-1.0,2372
3724,3724,18168,3672,3740,18908.92,26.18,-1.00,-1.0,2432
3727,3727,16608,-2860,4804,17523.80,26.08,-1.00,-1.0,2370
3730,3730,16712,-692,-720,16741.81,26.18,-1.00,-1.0,2418
3732,3732,16236,-656,2232,16401.82,26.18,-1.00,-1.0,2374
3737,3737,16160,1136,840,16221.64,26.18,-1.00,-1.0,2447
3740,3740,16628,-148,2448,16807.88,26.18,-1.00,-1.0,2372
3742,3742,17204,-928,1964,17340.59,26.22,-1.00,-1.0,2363
3745,3745,17472,4132,9568,20344.31,26.22,-1.00,-1.0,2416
3748,3748,17252,1816,2108,17474.93,26.18,-1.00,-1.0,2375
3751,3751,15908,0,1152,15949.66,26.22,-1.00,-1.0,2422
3753,3753,16812,-2144,4336,17494.03,26.18,-1.00,-1.0,2377
3756,3756,16352,1748,2164,16586.93,26.13,-1.00,-1.0,2425
3759,3759,17144,580,5692,18073.52,26.18,-1.00,-1.0,2377
3762,3762,17452,-4480,-1832,18110.74,26.27,-1.00,-1.0,2371
3767,3767,16992,-3248,440,17305.23,26.18,-1.00,-1.0,2446
3770,3770,15272,-700,-1716,15384.04,26.27,-1.00,-1.0,2375
3773,3773,16980,-2020,6540,18307.71,26.18,-1.00,-1.0,2420
3775,3775,17072,972,3028,17365.68,26.18,-1.00,-1.0,2368
3778,3778,15556,4,-956,15585.35,26.18,-1.00,-1.0,2418
3781,3781,17836,-2660,32,18033.29,26.22,-1.00,-1.0,2368
3783,3783,17428,1460,5096,18216.37,26.27,-1.00,-1.0,2418
3786,3786,17572,6412,10332,21369.12,26.22,-1.00,-1.0,2375
3789,3789,17404,1628,4888,18150.54,26.13,-1.00,-1.0,2370
3794,3794,17588,-1520,3464,17990.20,26.18,-1.00,-1.0,2432
3797,3797,17520,1748,3540,17959.33,26.08,-1.00,-1.0,2364
3800,3800,15608,1316,3012,15950.35,26.18,-1.00,-1.0,2421
3802,3802,19476,-48,7316,20804.82,26.13,-1.00,-1.0,2368
3805,3805,15016,996,-2496,15254.58,26.18,-1.00,-1.0,2418
3808,3808,17540,-3424,3148,18146.22,26.13,-1.00,-1.0,2371
3811,3811,17332,-3176,-1016,17649.86,26.22,-1.00,-1.0,2419
3813,3813,16784,-728,3384,17137.21,26.22,-1.00,-1.0,2373
3818,3818,17008,4116,7324,18969.83,26.13,-1.00,-1.0,2440
3821,3821,18484,-848,4528,19049.41,26.27,-1.00,-1.0,2364
3824,3824,15776,-4796,-508,16496.72,26.22,-1.00,-1.0,2361
3826,3826,16292,-5720,-4572,17861.99,26.13,-1.00,-1.0,2419
3829,3829,16936,1388,4020,17461.82,26.18,-1.00,-1.0,2374
3832,3832,18164,3976,7552,20069.19,26.13,-1.00,-1.0,2416
3834,3834,17220,1440,6040,18305.29,26.08,-1.00,-1.0,2370
3837,3837,16716,-2836,-912,16979.38,26.08,-1.00,-1.0,2417
3840,3840,17612,-1464,4212,18167.74,26.08,-1.00,-1.0,2369
3845,3845,16768,376,7608,18417.08,26.22,-1.00,-1.0,2440
3848,3848,17496,-2924,-1200,17779.20,26.18,-1.00,-1.0,2372
3851,3851,16664,1288,5380,17558.25,26.22,-1.00,-1.0,2356
3853,3853,16672,-224,412,16678.59,26.18,-1.00,-1.0,2420
3856,3856,17492,-584,1616,17576.19,26.22,-1.00,-1.0,2381
3859,3859,17660,-288,4416,18206.03,26.13,-1.00,-1.0,2405
3862,3862,15640,1396,860,15725.71,26.13,-1.00,-1.0,2367
3864,3864,16152,-2688,2724,16599.18,26.27,-1.00,-1.0,2417
3867,3867,16636,-3996,-2264,17258.34,26.18,-1.00,-1.0,2368
3872,3872,17636,-952,1576,17731.85,26.18,-1.00,-1.0,2434
3875,3875,17780,2196,5940,18874.17,26.13,-1.00,-1.0,2378
3878,3878,16836,-1868,2248,17087.83,26.18,-1.00,-1.0,2358
3880,3880,16556,5376,7776,19064.86,26.08,-1.00,-1.0,2417
3883,3883,16724,164,2504,16911.21,26.27,-1.00,-1.0,2354
3886,3886,16964,-3816,2208,17527.53,26.27,-1.00,-1.0,2418
3889,3889,15712,-880,-460,15743.35,26.22,-1.00,-1.0,2372
3892,3892,17680,1392,6976,19057.40,26.13,-1.00,-1.0,2418
3894,3894,17060,2196,3636,17580.86,26.27,-1.00,-1.0,2368
3899,3899,18092,-2984,-1336,18385.04,26.18,-1.00,-1.0,2431
3902,3902,15856,488,-888,15888.34,26.18,-1.00,-1.0,2372
3905,3905,16448,-200,7024,17886.12,26.18,-1.00,-1.0,2418
3908,3908,17096,4704,5484,18560.04,26.22,-1.00,-1.0,2374
3910,3910,18456,-1184,5224,19217.60,26.18,-1.00,-1.0,2362
3913,3913,17964,-68,640,17975.53,26.18,-1.00,-1.0,2417
3916,3916,15044,-3344,-1040,15446.23,26.18,-1.00,-1.0,2371
3919,3919,17032,-3008,1556,17365.43,26.22,-1.00,-1.0,2417
3921,3921,17088,6156,8652,20118.48,26.13,-1.00,-1.0,2369
3926,3926,16376,2000,4352,17062.04,26.22,-1.00,-1.0,2433
3929,3929,16132,-2116,2180,16415.58,26.18,-1.00,-1.0,2364
3932,3932,18180,292,2832,18401.57,26.18,-1.00,-1.0,2415
3935,3935,15132,-1160,1704,15271.76,26.27,-1.00,-1.0,2376
3937,3937,16936,-2184,3896,17515.04,26.22,-1.00,-1.0,2362
3940,3940,17828,1960,4488,18488.41,26.18,-1.00,-1.0,2421
3943,3943,17532,2844,10100,20432.07,26.18,-1.00,-1.0,2368
3946,3946,16304,1380,320,16365.43,26.27,-1.00,-1.0,2418
3949,3949,16580,-2032,1888,16810.41,26.13,-1.00,-1.0,2367
3953,3953,15832,4688,4432,17095.97,26.18,-1.00,-1.0,2442
3956,3956,16768,-384,4612,17394.94,26.22,-1.00,-1.0,2365
3959,3959,14956,-2748,-2776,15457.67,26.18,-1.00,-1.0,2422
3961,3961,18460,-5152,620,19175.48,26.13,-1.00,-1.0,2368
3964,3964,17700,-2952,-1992,18054.71,26.18,-1.00,-1.0,2369
3967,3967,17636,3932,2744,18276.18,26.27,-1.00,-1.0,2426
3970,3970,17736,792,3144,18029.91,26.27,-1.00,-1.0,2368
3973,3973,17036,-3100,296,17318.28,26.18,-1.00,-1.0,2424
3976,3976,15068,-3052,184,15375.08,26.18,-1.00,-1.0,2369
3980,3980,16436,-2336,-768,16618.93,26.18,-1.00,-1.0,2433
3983,3983,16780,-2708,4648,17621.17,26.13,-1.00,-1.0,2365
3986,3986,15584,336,-820,15609.17,26.08,-1.00,-1.0,2417
3988,3988,17316,1120,6636,18577.80,26.13,-1.00,-1.0,2368
3991,3991,18320,1432,3584,18722.13,26.27,-1.00,-1.0,2361
3994,3994,15740,-1092,-1568,15855.56,26.18,-1.00,-1.0,2425
3997,3997,16996,-8,2940,17248.41,26.18,-1.00,-1.0,2372
4000,4000,16120,-140,-656,16133.95,26.18,-1.00,-1.0,2428
4003,4003,18520,-2512,5600,19510.52,26.27,-1.00,-1.0,2371
4008,4008,17084,148,5212,17861.97,26.18,-1.00,-1.0,2432
4010,4010,17036,-1128,280,17075.60,26.22,-1.00,-1.0,2365
4013,4013,15408,896,3920,15924.06,26.18,-1.00,-1.0,2417
4016,4016,16772,1276,6760,18128.04,26.22,-1.00,-1.0,2367
4018,4018,16756,5208,4028,18003.10,26.08,-1.00,-1.0,2360
4021,4021,17244,-4336,2548,17962.43,26.27,-1.00,-1.0,2416
4024,4024,17580,-2360,-1464,17798.01,26.22,-1.00,-1.0,2366
4027,4027,16208,2196,3604,16748.45,26.22,-1.00,-1.0,2418
4030,4030,16728,-1920,3044,17110.77,26.22,-1.00,-1.0,2374
4035,4035,17108,864,9896,19782.85,26.18,-1.00,-1.0,2433
4037,4037,16384,1228,976,16458.92,26.27,-1.00,-1.0,2363
4040,4040,17100,-2212,872,17264.51,26.18,-1.00,-1.0,2416
4043,4043,17156,-2524,-2448,17512.61,26.13,-1.00,-1.0,2367
4045,4045,15720,-1864,-3352,16181.12,26.13,-1.00,-1.0,2418
4048,4048,18392,-1844,6504,19595.10,26.27,-1.00,-1.0,2415
4051,4051,16576,2904,3076,17107.27,26.22,-1.00,-1.0,2371
4054,4054,14660,-5772,-4048,16267.08,26.22,-1.00,-1.0,2422
4057,4057,17620,-1040,4540,18225.19,26.13,-1.00,-1.0,2370
4062,4062,17204,2332,7012,18723.89,26.32,-1.00,-1.0,2439
4064,4064,16648,-108,2076,16777.29,26.27,-1.00,-1.0,2365
4067,4067,15508,-764,5040,16324.32,26.18,-1.00,-1.0,2415
4070,4070,17816,1232,3524,18202.92,26.18,-1.00,-1.0,2368
4072,4072,17588,-16,5948,18566.55,26.08,-1.00,-1.0,2405
4075,4075,16712,-2312,-1108,16907.51,26.22,-1.00,-1.0,2367
4078,4078,16976,-1264,1980,17137.76,26.18,-1.00,-1.0,2369
4081,4081,16192,920,3880,16675.78,26.08,-1.00,-1.0,2420
4084,4084,16248,-132,2628,16459.69,26.13,-1.00,-1.0,2366
4089,4089,19060,2912,7960,20859.65,26.13,-1.00,-1.0,2436
4091,4091,15744,-2436,2772,16170.70,26.18,-1.00,-1.0,2364
4094,4094,16724,-100,1680,16808.47,26.22,-1.00,-1.0,2422
4097,4097,17628,2408,5872,18735.67,26.08,-1.00,-1.0,2367
4100,4100,16960,-1868,2896,17306.58,26.18,-1.00,-1.0,2417
4102,4102,17156,1232,1180,17240.61,26.27,-1.00,-1.0,2368
4105,4105,17712,-2204,2972,18094.35,26.27,-1.00,-1.0,2417
4108,4108,18952,1404,5060,19666.04,26.27,-1.00,-1.0,2367
4111,4111,16912,4272,4872,18110.83,26.18,-1.00,-1.0,2361
4116,4116,16972,1456,4332,17576.54,26.22,-1.00,-1.0,2436
4118,4118,18940,-1116,8276,20699.30,26.13,-1.00,-1.0,2368
4121,4121,16812,3112,-584,17107.57,26.13,-1.00,-1.0,2431
4124,4124,16724,-1888,2796,17060.90,26.18,-1.00,-1.0,2375
4127,4127,18152,380,6172,19176.37,26.13,-1.00,-1.0,2418
4129,4129,14444,-384,3784,14936.37,26.27,-1.00,-1.0,2368
4132,4132,15928,64,5608,16886.53,26.27,-1.00,-1.0,2417
4135,4135,16648,-336,-412,16656.49,26.18,-1.00,-1.0,2367
4138,4138,16324,428,6024,17405.31,26.18,-1.00,-1.0,2362
4143,4143,16928,-1580,2748,17222.23,26.18,-1.00,-1.0,2435
4145,4145,18744,-352,1840,18837.38,26.32,-1.00,-1.0,2374
4148,4148,15708,4328,5040,17055.04,26.22,-1.00,-1.0,2426
4151,4151,16796,-3736,3708,17601.49,26.27,-1.00,-1.0,2361
4154,4154,17516,712,2428,17697.81,26.13,-1.00,-1.0,2418
4156,4156,16560,2200,8420,18707.48,26.18,-1.00,-1.0,2367
4159,4159,17392,-2172,-1584,17598.53,26.22,-1.00,-1.0,2418
4162,4162,14872,556,2112,15031.50,26.18,-1.00,-1.0,2375
4165,4165,16588,-544,7112,18056.53,26.18,-1.00,-1.0,2368
4170,4170,16888,-2364,4748,17701.31,26.22,-1.00,-1.0,2432
4172,4172,17128,5952,5440,18931.15,26.18,-1.00,-1.0,2364
4175,4175,15620,-1740,3156,16030.36,26.18,-1.00,-1.0,2414
4178,4178,16856,504,2880,17107.69,26.18,-1.00,-1.0,2370
4180,4180,16880,-1728,3404,17306.29,26.08,-1.00,-1.0,2416
4183,4183,19188,-2260,2740,19513.96,26.18,-1.00,-1.0,2384
4186,4186,17640,8748,4708,20245.06,26.27,-1.00,-1.0,2418
4189,4189,16796,-1836,5228,17686.39,26.13,-1.00,-1.0,2375
4192,4192,17108,-876,2632,17331.43,26.22,-1.00,-1.0,2369
4197,4197,17344,-3412,-3596,18038.49,26.04,-1.00,-1.0,2434
4199,4199,14732,-868,-2108,14907.34,26.27,-1.00,-1.0,2363
4202,4202,17436,-2808,3168,17942.55,26.13,-1.00,-1.0,2415
4205,4205,17132,2688,4412,17894.04,26.18,-1.00,-1.0,2369
4207,4207,18396,-1672,9280,20671.88,26.18,-1.00,-1.0,2417
4210,4210,17508,7028,2300,19005.60,26.18,-1.00,-1.0,2383
4213,4213,17148,-1388,1864,17304.77,26.18,-1.00,-1.0,2421
4216,4216,17532,-3652,1844,18003.01,26.13,-1.00,-1.0,2375
4221,4221,16836,-1112,3676,17268.48,26.13,-1.00,-1.0,2439
4223,4223,15560,1140,-716,15618.13,26.18,-1.00,-1.0,2365
4226,4226,16448,-4692,4320,17641.26,26.22,-1.00,-1.0,2362
4229,4229,17596,2144,7228,19143.14,26.13,-1.00,-1.0,2422
4231,4231,16100,-1592,-5128,16971.77,26.22,-1.00,-1.0,2367
4234,4234,18184,1468,6628,19409.88,26.13,-1.00,-1.0,2417
4237,4237,13980,4172,4588,15293.65,26.22,-1.00,-1.0,2414
4240,4240,15036,-976,7484,16823.92,26.27,-1.00,-1.0,2415
4243,4243,16332,-1592,-900,16434.07,26.18,-1.00,-1.0,2373
4248,4248,18688,-1252,-880,18750.55,26.18,-1.00,-1.0,2440
4250,4250,16076,1504,-2224,16298.65,26.32,-1.00,-1.0,2365
4253,4253,17768,-1824,6844,19127.71,26.18,-1.00,-1.0,2368
4256,4256,15516,2392,832,15721.33,26.18,-1.00,-1.0,2425
4258,4258,15060,1128,9120,17642.29,26.22,-1.00,-1.0,2363
4261,4261,18568,2992,2792,19013.62,26.27,-1.00,-1.0,2417
4264,4264,16264,1596,7316,17904.99,26.18,-1.00,-1.0,2422
4267,4267,18776,-2628,748,18973.77,26.13,-1.00,-1.0,2424
4270,4270,16108,1832,-2348,16381.00,26.18,-1.00,-1.0,2357
4275,4275,17656,4296,3976,18601.04,26.27,-1.00,-1.0,2436
4277,4277,16428,6516,13352,22149.79,26.22,-1.00,-1.0,2366
4280,4280,16196,3336,3512,16904.84,26.08,-1.00,-1.0,2369
4283,4283,15172,-680,6104,16367.98,26.18,-1.00,-1.0,2420
4286,4286,18348,-6860,-4456,20088.92,26.18,-1.00,-1.0,2370
4288,4288,16088,2596,1400,16356.13,26.18,-1.00,-1.0,2419
4291,4291,18908,-5980,-132,19831.55,26.22,-1.00,-1.0,2367
4294,4294,17220,4304,4832,18395.68,26.22,-1.00,-1.0,2418
4297,4297,14968,1184,8656,17331.16,26.13,-1.00,-1.0,2355
4302,4302,15528,5264,6580,17667.06,26.27,-1.00,-1.0,2437
4304,4304,17456,-12536,-9536,23511.67,26.08,-1.00,-1.0,2367
4307,4307,15476,2400,-3092,15963.30,26.18,-1.00,-1.0,2417
4310,4310,20204,-8192,92,21801.81,26.22,-1.00,-1.0,2367
4313,4313,16996,7068,7900,20030.74,26.08,-1.00,-1.0,2357
4315,4315,16340,-3964,3644,17204.29,26.18,-1.00,-1.0,2420
4318,4318,17428,5012,7700,19701.40,26.13,-1.00,-1.0,2368
4321,4321,14896,-1308,72,14953.49,26.13,-1.00,-1.0,2414
4324,4324,19212,-6676,-488,20344.73,26.22,-1.00,-1.0,2371
4329,4329,17216,-6916,-348,18556.48,26.13,-1.00,-1.0,2420
4332,4332,17860,2096,5188,18715.99,26.18,-1.00,-1.0,2365
4334,4334,17136,-956,6072,18205.10,26.18,-1.00,-1.0,2421
4337,4337,18492,3416,7140,20114.74,26.27,-1.00,-1.0,2368
4340,4340,16316,-2664,-7260,18055.92,26.18,-1.00,-1.0,2359
4342,4342,18180,-6892,-796,19458.82,26.22,-1.00,-1.0,2425
4345,4345,16712,-3404,-6012,18083.76,26.27,-1.00,-1.0,2365
4348,4348,15784,-524,4440,16404.96,26.08,-1.00,-1.0,2414
4351,4351,18856,3844,10112,21738.85,26.13,-1.00,-1.0,2355
4356,4356,16984,-2176,-1544,17192.30,26.13,-1.00,-1.0,2418
4359,4359,14532,-1556,-424,14621.21,26.18,-1.00,-1.0,2365
4361,4361,18900,-3712,5716,20091.33,26.13,-1.00,-1.0,2434
4364,4364,17756,4824,3660,18760.12,26.18,-1.00,-1.0,2367
4367,4367,14008,2800,9176,16978.31,26.18,-1.00,-1.0,2403
4369,4369,16404,-392,7904,18213.13,26.18,-1.00,-1.0,2368
4372,4372,16816,4756,11132,20720.01,26.27,-1.00,-1.0,2363
4375,4375,18684,-1772,172,18768.63,26.08,-1.00,-1.0,2418
4378,4378,15564,-1860,-3876,16146.86,26.18,-1.00,-1.0,2367
4383,4383,18468,-688,3204,18756.49,26.18,-1.00,-1.0,2433
4386,4386,16120,6348,11892,21013.60,26.27,-1.00,-1.0,2363
4389,4389,17840,-2588,888,18048.60,26.27,-1.00,-1.0,2415
4392,4392,16420,588,-228,16432.11,26.13,-1.00,-1.0,2369
4394,4394,15108,2168,8072,17265.84,26.13,-1.00,-1.0,2421
4397,4397,18332,2288,1816,18563.27,26.22,-1.00,-1.0,2374
4400,4400,16436,2928,9820,19368.73,26.27,-1.00,-1.0,2361
4402,4402,18448,-4292,-716,18954.22,26.18,-1.00,-1.0,2417
4405,4405,15984,4248,5220,17343.07,26.13,-1.00,-1.0,2375
4410,4410,16144,-5500,-2352,17216.58,26.18,-1.00,-1.0,2432
4413,4413,17352,-2460,412,17530.35,26.13,-1.00,-1.0,2372
4415,4415,18988,6684,10276,22601.24,26.18,-1.00,-1.0,2426
4418,4418,16448,-3636,1064,16878.66,26.22,-1.00,-1.0,2372
4421,4421,16708,3632,9912,19763.51,26.22,-1.00,-1.0,2418
4423,4423,14300,1804,3212,14766.90,26.18,-1.00,-1.0,2368
4426,4426,17872,-1444,6652,19124.40,26.22,-1.00,-1.0,2421
4429,4429,17484,-4288,-4252,18497.48,26.13,-1.00,-1.0,2367
4432,4432,14448,248,2548,14673.05,26.13,-1.00,-1.0,2362
4437,4437,17788,-652,6944,19106.47,26.18,-1.00,-1.0,2431
4440,4440,20576,-324,5752,21367.32,26.08,-1.00,-1.0,2366
4442,4442,15948,-272,-9932,18789.82,26.18,-1.00,-1.0,2415
4445,4445,15912,-3776,-1620,16433.94,26.22,-1.00,-1.0,2384
4448,4448,16036,-3036,1320,16374.16,26.27,-1.00,-1.0,2417
4451,4451,15096,4652,10864,19171.77,26.22,-1.00,-1.0,2369
4453,4453,17208,-268,3576,17577.68,26.22,-1.00,-1.0,2428
4456,4456,16232,4692,12388,20951.26,26.22,-1.00,-1.0,2368
4459,4459,18280,-3008,2484,18691.62,26.22,-1.00,-1.0,2362
4464,4464,17300,-7728,-7680,20444.91,26.22,-1.00,-1.0,2432
4467,4467,16496,-2060,-1984,16742.10,26.27,-1.00,-1.0,2365
4469,4469,16288,1648,7640,18066.11,26.18,-1.00,-1.0,2411
4472,4472,18100,6036,6388,20120.88,26.18,-1.00,-1.0,2381
4475,4475,15728,-604,1196,15784.97,26.18,-1.00,-1.0,2416
4478,4478,18436,-3892,2820,19052.20,26.13,-1.00,-1.0,2366
4480,4480,18408,6264,8084,21058.09,26.22,-1.00,-1.0,2422
4483,4483,15188,-4088,-2328,15899.90,26.13,-1.00,-1.0,2373
4488,4488,18104,-3268,4936,19047.28,26.13,-1.00,-1.0,2433
4491,4491,17296,2924,5760,18462.91,26.18,-1.00,-1.0,2364
4493,4493,16836,-1688,-1508,16987.47,26.22,-1.00,-1.0,2354
4496,4496,16944,1860,4552,17643.11,26.22,-1.00,-1.0,2417
4499,4499,14536,-3268,-3004,15198.66,26.18,-1.00,-1.0,2366
4501,4501,15096,892,8868,17530.72,26.08,-1.00,-1.0,2411
4504,4504,16996,2680,356,17209.68,26.18,-1.00,-1.0,2369
4507,4507,16788,-52,8184,18676.66,26.18,-1.00,-1.0,2413
4510,4510,17756,-1800,1644,17922.56,26.08,-1.00,-1.0,2377
4515,4515,16948,-3076,900,17248.38,26.22,-1.00,-1.0,2431
4518,4518,16616,-344,3148,16915.07,26.13,-1.00,-1.0,2365
4520,4520,15024,1456,6488,16429.69,26.13,-1.00,-1.0,2357
4523,4523,18100,7008,7792,20915.00,26.18,-1.00,-1.0,2424
4526,4526,16876,2852,9208,19435.03,26.22,-1.00,-1.0,2366
4529,4529,16964,-4324,-2180,17641.62,26.22,-1.00,-1.0,2414
4531,4531,16528,792,2332,16710.48,26.13,-1.00,-1.0,2368
4534,4534,18096,-7408,-4212,20002.12,26.18,-1.00,-1.0,2416
4537,4537,17668,6576,12336,22529.51,26.08,-1.00,-1.0,2374
4542,4542,16992,1724,2600,17276.00,26.08,-1.00,-1.0,2432
4545,4545,16956,-5996,-4884,18636.29,26.32,-1.00,-1.0,2364
4548,4548,16224,-2780,-1008,16491.29,26.22,-1.00,-1.0,2414
4550,4550,17096,4484,5600,18540.21,26.22,-1.00,-1.0,2367
4553,4553,18728,-3616,3532,19398.16,26.18,-1.00,-1.0,2370
4556,4556,18380,2280,9024,20602.31,26.08,-1.00,-1.0,2418
4558,4558,15904,-748,-6532,17209.41,26.13,-1.00,-1.0,2354
4561,4561,16352,-6392,-1160,17595.20,26.13,-1.00,-1.0,2418
4564,4564,17844,1440,8644,19879.65,26.13,-1.00,-1.0,2368
4569,4569,16228,2356,1696,16485.60,26.18,-1.00,-1.0,2445
4572,4572,15860,1028,8108,17841.97,26.18,-1.00,-1.0,2369
4575,4575,17972,-5632,-3332,19126.28,26.18,-1.00,-1.0,2412
4577,4577,17484,-3360,-9972,20406.39,26.22,-1.00,-1.0,2355
4580,4580,17276,-9672,-6644,20884.22,26.13,-1.00,-1.0,2420
4583,4583,15320,-2652,-2396,15731.38,26.13,-1.00,-1.0,2368
4585,4585,16096,3716,8480,18568.80,26.18,-1.00,-1.0,2362
4588,4588,17896,-3132,-384,18172.06,26.22,-1.00,-1.0,2417
4591,4591,16384,1404,1200,16487.77,26.22,-1.00,-1.0,2369
4596,4596,15104,-1592,-1220,15236.59,26.22,-1.00,-1.0,2432
4599,4599,16520,-2604,1780,16818.43,26.22,-1.00,-1.0,2366
4601,4601,18884,5308,9628,21851.29,26.22,-1.00,-1.0,2416
4604,4604,16900,-740,7424,18473.59,26.18,-1.00,-1.0,2382
4607,4607,16660,824,3264,16996.71,26.22,-1.00,-1.0,2418
4610,4610,16028,-4088,-3536,16914.84,26.27,-1.00,-1.0,2367
4612,4612,16416,264,5944,17460.98,26.22,-1.00,-1.0,2363
4615,4615,18908,4484,9268,21529.39,26.18,-1.00,-1.0,2419
4618,4618,14952,636,-2860,15236.35,26.22,-1.00,-1.0,2368
4623,4623,16836,-2088,4960,17675.19,26.13,-1.00,-1.0,2419
4626,4626,16120,-3376,-2964,16734.31,26.13,-1.00,-1.0,2367
4628,4628,17748,544,1680,17835.63,26.22,-1.00,-1.0,2416
4631,4631,17140,-2560,876,17352.25,26.18,-1.00,-1.0,2375
4634,4634,17836,2488,9604,20409.55,26.22,-1.00,-1.0,2421
4637,4637,16092,4016,4788,17262.84,26.27,-1.00,-1.0,2367
4639,4639,18348,-5940,-3328,19570.60,26.27,-1.00,-1.0,2362
4642,4642,16708,4360,9016,19479.61,26.18,-1.00,-1.0,2419
4645,4645,15904,6712,10400,20153.12,26.18,-1.00,-1.0,2368
4650,4650,16520,3672,608,16934.10,26.13,-1.00,-1.0,2431
4653,4653,18088,1928,10592,21049.55,26.22,-1.00,-1.0,2353
4656,4656,13448,696,-4620,14236.49,26.13,-1.00,-1.0,2425
4658,4658,19036,-3140,8076,20915.32,26.27,-1.00,-1.0,2370
4661,4661,19008,3400,8720,21187.32,26.22,-1.00,-1.0,2431
4664,4664,15200,7584,10552,19997.54,26.18,-1.00,-1.0,2375
4667,4667,15852,448,4380,16452.08,26.27,-1.00,-1.0,2417
4669,4669,15948,-3624,-1704,16443.11,26.18,-1.00,-1.0,2367
4672,4672,15764,-480,6536,17072.01,26.18,-1.00,-1.0,2362
4677,4677,17052,5472,13676,22533.23,26.18,-1.00,-1.0,2433
4680,4680,17536,2168,6412,18796.95,26.13,-1.00,-1.0,2366
4683,4683,15720,1168,2228,15920.01,26.22,-1.00,-1.0,2423
4685,4685,18464,-3180,2192,18863.63,26.18,-1.00,-1.0,2372
4688,4688,18404,3420,3904,19121.84,26.22,-1.00,-1.0,2432
4691,4691,16692,-8860,-6412,19955.86,26.22,-1.00,-1.0,2370
4694,4694,16756,3384,6332,18229.35,26.13,-1.00,-1.0,2418
4696,4696,17236,3444,6080,18598.58,26.18,-1.00,-1.0,2370
4699,4699,18168,-5560,120,19000.11,26.08,-1.00,-1.0,2362
4704,4704,17484,-2148,3312,17924.10,26.18,-1.00,-1.0,2419
4707,4707,15416,-3024,-3032,15999.71,26.13,-1.00,-1.0,2351
4710,4710,17112,-388,7756,18791.66,26.18,-1.00,-1.0,2422
4712,4712,18716,2932,6712,20098.16,26.22,-1.00,-1.0,2371
4715,4715,16352,-1688,-7312,17991.74,26.13,-1.00,-1.0,2432
4718,4718,17496,-7212,-2028,19032.49,26.13,-1.00,-1.0,2364
4721,4721,15164,-3248,-8612,17738.74,26.22,-1.00,-1.0,2418
4723,4723,18204,632,8432,20071.96,26.22,-1.00,-1.0,2369
4728,4728,14824,6280,10608,19280.02,26.18,-1.00,-1.0,2433
4731,4731,18400,8740,12936,24130.64,26.18,-1.00,-1.0,2365
4733,4733,16632,4124,5628,18036.22,26.13,-1.00,-1.0,2356
4736,4736,18708,-5288,1076,19470.75,26.22,-1.00,-1.0,2417
4739,4739,15616,-2308,-2272,15948.30,26.08,-1.00,-1.0,2367
4742,4742,16076,-1652,1132,16200.26,26.13,-1.00,-1.0,2420
4744,4744,18000,3024,7252,19640.16,26.18,-1.00,-1.0,2371
4747,4747,15372,408,1644,15465.04,26.18,-1.00,-1.0,2425
4750,4750,17968,-7564,-1744,19573.06,26.22,-1.00,-1.0,2378
4755,4755,16388,-3624,1860,16886.67,26.22,-1.00,-1.0,2433
4758,4758,16736,3568,9672,19656.35,26.22,-1.00,-1.0,2364
4761,4761,16528,4100,11020,20283.62,26.22,-1.00,-1.0,2423
4763,4763,19420,-1624,6412,20515.54,26.18,-1.00,-1.0,2368
4766,4766,14684,-1240,-11572,18736.83,26.13,-1.00,-1.0,2362
4769,4769,17168,-6160,-436,18244.89,26.13,-1.00,-1.0,2427
4771,4771,16304,-40,508,16311.96,26.13,-1.00,-1.0,2367
4774,4774,16940,3036,8064,19005.50,26.18,-1.00,-1.0,2426
4777,4777,17756,-1120,3272,18089.66,26.18,-1.00,-1.0,2376
4782,4782,17332,-5848,-2896,18519.83,26.18,-1.00,-1.0,2436
4785,4785,16488,224,-744,16506.30,26.22,-1.00,-1.0,2364
4788,4788,18916,-9548,-1848,21269.57,26.13,-1.00,-1.0,2416
4790,4790,16816,7384,9880,20854.63,26.22,-1.00,-1.0,2368
4793,4793,17376,6384,7684,20043.07,26.22,-1.00,-1.0,2363
4796,4796,17956,932,6640,19167.06,26.18,-1.00,-1.0,2424
4798,4798,14812,-1168,-4232,15448.93,26.22,-1.00,-1.0,2369
4801,4801,18192,-5044,268,18880.22,26.27,-1.00,-1.0,2404
4804,4804,17556,4752,6540,19327.86,26.18,-1.00,-1.0,2377
4809,4809,17852,5372,10436,21364.98,26.27,-1.00,-1.0,2432
4812,4812,15424,5716,12476,20645.17,26.18,-1.00,-1.0,2365
4815,4815,17940,-1272,4440,18524.99,26.22,-1.00,-1.0,2416
4817,4817,16376,-44,-1048,16409.56,26.27,-1.00,-1.0,2374
4820,4820,16264,2576,7172,17960.82,26.27,-1.00,-1.0,2427
4823,4823,16328,872,-20,16351.28,26.18,-1.00,-1.0,2378
4825,4825,17568,2140,9504,20088.31,26.18,-1.00,-1.0,2365
4828,4828,16776,-3524,-1704,17226.62,26.13,-1.00,-1.0,2418
4831,4831,16336,-1388,-3356,16734.82,26.18,-1.00,-1.0,2355
4836,4836,15652,2144,-660,15811.94,26.18,-1.00,-1.0,2432
4839,4839,18048,-3396,3640,18721.98,26.18,-1.00,-1.0,2369
4842,4842,17344,3744,7640,19318.42,26.22,-1.00,-1.0,2425
4844,4844,16020,-776,-1872,16147.66,26.18,-1.00,-1.0,2372
4847,4847,16536,-7536,-4300,18674.06,26.18,-1.00,-1.0,2434
4850,4850,15164,300,-5444,16114.40,26.18,-1.00,-1.0,2370
4852,4852,19048,-4632,4480,20108.51,26.22,-1.00,-1.0,2362
4855,4855,18880,2824,7576,20538.38,26.13,-1.00,-1.0,2418
4858,4858,15444,2084,-2588,15797.40,26.13,-1.00,-1.0,2367
4863,4863,16356,-2944,-2316,16779.44,26.22,-1.00,-1.0,2434
4866,4866,16456,-568,4864,17169.19,26.27,-1.00,-1.0,2378
4869,4869,17732,4084,7804,19799.12,26.13,-1.00,-1.0,2401
4872,4872,16696,2968,10172,19774.61,26.08,-1.00,-1.0,2369
4874,4874,16832,-720,3604,17228.56,26.37,-1.00,-1.0,2422
4877,4877,15984,-2468,-1120,16212.15,26.22,-1.00,-1.0,2368
4880,4880,17960,-3908,2176,18508.62,26.18,-1.00,-1.0,2421
4882,4882,17480,4824,4296,18635.37,26.13,-1.00,-1.0,2368
4885,4885,15788,9808,14184,23380.41,26.22,-1.00,-1.0,2362
4890,4890,18288,-392,4076,18740.82,26.22,-1.00,-1.0,2435
4893,4893,17848,-2168,-584,17988.67,26.27,-1.00,-1.0,2377
4896,4896,17784,5268,5780,19427.58,26.22,-1.00,-1.0,2402
4899,4899,17480,-5836,-404,18432.92,26.18,-1.00,-1.0,2368
4901,4901,17732,1084,5328,18546.87,26.18,-1.00,-1.0,2426
4904,4904,16076,3360,4328,16984.08,26.27,-1.00,-1.0,2367
4907,4907,17648,3864,5696,18942.72,26.18,-1.00,-1.0,2426
4909,4909,17672,-1000,-372,17704.18,26.18,-1.00,-1.0,2368
4912,4912,17220,2424,7776,19049.16,26.18,-1.00,-1.0,2363
4917,4917,17060,-2332,3560,17582.82,26.22,-1.00,-1.0,2421
4920,4920,16600,516,3644,17003.09,26.18,-1.00,-1.0,2377
4923,4923,17416,1412,1032,17503.59,26.13,-1.00,-1.0,2418
4926,4926,17440,136,4584,18032.89,26.18,-1.00,-1.0,2367
4928,4928,16704,-4040,-5692,18103.70,26.22,-1.00,-1.0,2425
4931,4931,15028,460,5180,15902.35,26.18,-1.00,-1.0,2367
4934,4934,17052,-64,-820,17071.82,26.27,-1.00,-1.0,2419
4936,4936,16600,2884,6800,18169.13,26.18,-1.00,-1.0,2368
4939,4939,18360,-4284,1612,18921.97,26.27,-1.00,-1.0,2363
4944,4944,17516,-3168,724,17814.90,26.27,-1.00,-1.0,2432
4947,4947,18384,2416,3972,18962.73,26.22,-1.00,-1.0,2367
4950,4950,14720,8468,12900,21325.93,26.22,-1.00,-1.0,2416
4953,4953,16596,248,96,16598.13,26.22,-1.00,-1.0,2373
4955,4955,17388,1384,6468,18603.58,26.13,-1.00,-1.0,2425
4958,4958,17620,-2972,-376,17872.84,26.18,-1.00,-1.0,2368
4961,4961,17900,-184,-412,17905.69,26.22,-1.00,-1.0,2424
4964,4964,16876,-1968,664,17003.33,26.13,-1.00,-1.0,2369
4967,4967,18108,496,4108,18574.75,26.22,-1.00,-1.0,2362
4971,4971,19684,2096,9164,21813.57,26.18,-1.00,-1.0,2433
4974,4974,17052,6472,4692,18832.75,26.27,-1.00,-1.0,2363
4977,4977,16748,-1556,3716,17225.72,26.18,-1.00,-1.0,2415
4980,4980,15876,-608,68,15887.78,26.22,-1.00,-1.0,2371
4982,4982,16532,-4268,-1100,17109.44,26.18,-1.00,-1.0,2425
4985,4985,16316,-388,236,16322.32,26.22,-1.00,-1.0,2375
4988,4988,16512,-1152,-1360,16607.92,26.22,-1.00,-1.0,2427
4991,4991,17808,1108,7884,19506.67,26.22,-1.00,-1.0,2369
4994,4994,17720,1272,5876,18712.13,26.22,-1.00,-1.0,2364
4998,4998,16704,1508,-504,16779.50,26.18,-1.00,-1.0,2419
5001,5001,15000,3272,9780,18203.14,26.18,-1.00,-1.0,2363
5004,5004,15824,92,7680,17589.48,26.18,-1.00,-1.0,2402
5007,5007,18008,524,1264,18059.91,26.13,-1.00,-1.0,2370
5009,5009,17316,-1680,3152,17680.54,26.18,-1.00,-1.0,2426
5012,5012,17452,1068,1628,17560.28,26.22,-1.00,-1.0,2375
5015,5015,16148,-1584,-360,16229.50,26.22,-1.00,-1.0,2421
5018,5018,17216,396,2380,17384.24,26.13,-1.00,-1.0,2370
5021,5021,15956,-1232,5696,16986.94,26.22,-1.00,-1.0,2367
5025,5025,16836,3340,7172,18602.26,26.18,-1.00,-1.0,2439
5028,5028,15740,1008,7240,17354.57,26.22,-1.00,-1.0,2372
5031,5031,17312,-1124,3060,17616.25,26.18,-1.00,-1.0,2422
5033,5033,17912,-3616,1452,18330.94,26.13,-1.00,-1.0,2369
5036,5036,16720,2696,-340,16939.38,26.32,-1.00,-1.0,2418
5039,5039,18588,-3400,3728,19260.63,26.22,-1.00,-1.0,2430
5042,5042,18128,-552,-1144,18172.45,26.18,-1.00,-1.0,2413
5045,5045,14292,-204,2724,14550.71,26.18,-1.00,-1.0,2371
5049,5049,18148,4700,6736,19920.18,26.27,-1.00,-1.0,2441
5052,5052,16992,2036,4996,17827.88,26.27,-1.00,-1.0,2379
5055,5055,16740,12,-2008,16860.01,26.18,-1.00,-1.0,2359
5057,5057,16872,-4976,1844,17686.87,26.22,-1.00,-1.0,2417
5060,5060,17696,2560,2980,18126.84,26.18,-1.00,-1.0,2369
5063,5063,16760,-984,-1192,16831.12,26.18,-1.00,-1.0,2416
5066,5066,17768,-288,8592,19738.47,26.18,-1.00,-1.0,2370
5069,5069,16128,4468,4456,17318.53,26.27,-1.00,-1.0,2420
5072,5072,17112,-3248,1736,17503.82,26.18,-1.00,-1.0,2365
5077,5077,16756,-1568,112,16829.58,26.18,-1.00,-1.0,2441
5079,5079,16640,-908,540,16673.50,26.22,-1.00,-1.0,2365
5082,5082,17348,-792,2176,17501.87,26.27,-1.00,-1.0,2357
5085,5085,17904,-1952,504,18017.15,26.18,-1.00,-1.0,2428
5087,5087,16540,752,2452,16737.66,26.27,-1.00,-1.0,2365
5090,5090,15512,-316,1844,15624.42,26.18,-1.00,-1.0,2431
5093,5093,17776,-1108,2832,18034.25,26.13,-1.00,-1.0,2375
5096,5096,18092,1356,3748,18525.84,26.13,-1.00,-1.0,2419
5099,5099,16228,-1716,3060,16602.90,26.22,-1.00,-1.0,2366
5104,5104,17352,-2580,-1136,17579.50,26.18,-1.00,-1.0,2433
5106,5106,17104,-2612,-2488,17480.26,26.18,-1.00,-1.0,2368
5109,5109,16624,2512,3140,17103.42,26.27,-1.00,-1.0,2364
5112,5112,18064,-4996,-628,18752.67,26.22,-1.00,-1.0,2418
5114,5114,16652,-932,3176,16977.77,26.18,-1.00,-1.0,2376
5117,5117,16884,-308,2224,17032.63,26.13,-1.00,-1.0,2427
5120,5120,17088,2376,2008,17368.86,26.18,-1.00,-1.0,2375
5123,5123,15712,-5032,2360,16666.06,26.13,-1.00,-1.0,2422
5126,5126,16028,-3396,-1116,16421.79,26.22,-1.00,-1.0,2366
5131,5131,16008,-196,1760,16105.65,26.22,-1.00,-1.0,2433
5133,5133,17164,-320,3684,17557.82,26.18,-1.00,-1.0,2372
5136,5136,17704,-808,2752,17934.83,26.18,-1.00,-1.0,2411
5139,5139,17100,2828,1052,17364.17,26.27,-1.00,-1.0,2369
5141,5141,16200,-1872,5240,17128.98,26.22,-1.00,-1.0,2369
5144,5144,17396,3832,7452,19309.00,26.13,-1.00,-1.0,2418
5147,5147,17128,1128,4532,17753.30,26.08,-1.00,-1.0,2375
5150,5150,17592,-2292,2556,17923.86,26.18,-1.00,-1.0,2423
5153,5153,16536,3248,4180,17362.64,26.22,-1.00,-1.0,2366
5158,5158,17940,2716,2476,18312.59,26.13,-1.00,-1.0,2431
5160,5160,17132,-2872,464,17377.26,26.22,-1.00,-1.0,2373
5163,5163,16664,-2156,-3164,17098.19,26.22,-1.00,-1.0,2417
5166,5166,17420,-1332,288,17473.22,26.27,-1.00,-1.0,2374
5168,5168,17976,-2652,2756,18378.39,26.13,-1.00,-1.0,2360
5171,5171,14928,-160,-2936,15214.82,26.22,-1.00,-1.0,2416
5174,5174,17108,-4080,3148,17867.29,26.27,-1.00,-1.0,2367
5177,5177,16988,180,2736,17207.85,26.08,-1.00,-1.0,2425
5180,5180,17416,1072,5676,18348.93,26.08,-1.00,-1.0,2373
5185,5185,15896,588,88,15907.12,26.18,-1.00,-1.0,2431
5187,5187,17016,-2228,832,17181.40,26.13,-1.00,-1.0,2374
5190,5190,17640,452,4488,18207.58,26.22,-1.00,-1.0,2417
5193,5193,16040,-1476,768,16126.07,26.18,-1.00,-1.0,2370
5195,5195,16792,2212,3168,17230.80,26.22,-1.00,-1.0,2357
5198,5198,16460,956,5640,17425.70,26.18,-1.00,-1.0,2416
5201,5201,15988,4,4408,16584.53,26.18,-1.00,-1.0,2368
5204,5204,16624,328,988,16656.56,26.08,-1.00,-1.0,2422
5207,5207,16352,-2856,1612,16677.62,26.18,-1.00,-1.0,2361
5212,5212,17652,704,4840,18317.05,26.18,-1.00,-1.0,2467
5215,5215,16636,1492,4732,17360.14,26.18,-1.00,-1.0,2368
5217,5217,14756,-2544,2396,15164.18,26.13,-1.00,-1.0,2361
5220,5220,15972,-240,4048,16478.73,26.13,-1.00,-1.0,2418
5223,5223,17892,-720,3292,18206.57,26.13,-1.00,-1.0,2376
5225,5225,15980,4816,6428,17885.01,26.22,-1.00,-1.0,2425
5228,5228,17236,280,5180,17999.74,26.22,-1.00,-1.0,2371
5231,5231,15800,1820,4392,16499.76,26.13,-1.00,-1.0,2424
5234,5234,17868,2216,6412,19112.56,26.18,-1.00,-1.0,2374
5239,5239,16836,-2520,-1616,17100.08,26.18,-1.00,-1.0,2444
5242,5242,17300,-4584,-5844,18826.99,26.22,-1.00,-1.0,2370
5245,5245,17920,-180,4720,18532.06,26.22,-1.00,-1.0,2415
5248,5248,17684,2292,2516,18008.54,26.13,-1.00,-1.0,2372
5250,5250,14652,1316,-200,14712.34,26.18,-1.00,-1.0,2362
5253,5253,17528,-5012,2272,18371.53,26.18,-1.00,-1.0,2418
5256,5256,16680,-280,1160,16722.63,26.22,-1.00,-1.0,2374
5258,5258,17784,-2428,-1772,18036.24,26.18,-1.00,-1.0,2420
5261,5261,17392,-356,-328,17398.73,26.22,-1.00,-1.0,2374
5266,5266,17672,800,2296,17838.47,26.22,-1.00,-1.0,2421
5269,5269,16608,-2680,2108,16954.40,26.22,-1.00,-1.0,2364
5271,5271,16944,1744,3556,17400.74,26.22,-1.00,-1.0,2422
5274,5274,17408,760,6088,18457.51,26.18,-1.00,-1.0,2368
5277,5277,17108,2268,2124,17387.89,26.22,-1.00,-1.0,2359
5279,5279,16528,-884,2452,16732.26,26.13,-1.00,-1.0,2426
5282,5282,16556,-180,1896,16665.18,26.13,-1.00,-1.0,2365
5285,5285,18488,-316,6744,19682.16,26.18,-1.00,-1.0,2416
5288,5288,15672,3368,1656,16115.13,26.22,-1.00,-1.0,2367
5293,5293,15608,-1784,5528,16653.86,26.22,-1.00,-1.0,2440
5295,5295,16056,-2712,1288,16334.29,26.22,-1.00,-1.0,2364
5298,5298,18088,3528,7544,19913.17,26.13,-1.00,-1.0,2419
5301,5301,17748,900,2688,17972.95,26.08,-1.00,-1.0,2365
5304,5304,17204,-392,1484,17272.33,26.22,-1.00,-1.0,2358
5306,5306,16592,-1036,-532,16632.82,26.13,-1.00,-1.0,2424
5309,5309,17924,-1456,2052,18099.73,26.13,-1.00,-1.0,2365
5312,5312,15920,20,2940,16189.21,26.18,-1.00,-1.0,2415
5315,5315,14728,-1868,1340,14906.34,26.18,-1.00,-1.0,2371
5320,5320,17480,2056,6596,18795.87,26.18,-1.00,-1.0,2435
5323,5323,17444,-896,1520,17533.01,26.22,-1.00,-1.0,2366
5325,5325,17308,-3308,3004,17875.51,26.18,-1.00,-1.0,2434
5328,5328,17420,3868,1880,17943.03,26.32,-1.00,-1.0,2367
5331,5331,18792,1716,8260,20598.82,26.27,-1.00,-1.0,2358
5333,5333,16628,-1648,2004,16829.21,26.18,-1.00,-1.0,2425
5336,5336,14708,384,3104,15036.87,26.22,-1.00,-1.0,2366
5339,5339,16152,-3636,764,16573.81,26.13,-1.00,-1.0,2414
5342,5342,17464,-4708,-4604,18664.23,26.27,-1.00,-1.0,2368
5347,5347,17044,-596,1344,17107.29,26.18,-1.00,-1.0,2435
5350,5350,17592,424,6308,18693.56,26.13,-1.00,-1.0,2365
5352,5352,17768,1324,4308,18330.68,26.27,-1.00,-1.0,2427
5355,5355,13732,2124,2452,14109.98,26.22,-1.00,-1.0,2364
5358,5358,16080,-4820,656,16799.68,26.13,-1.00,-1.0,2427
5360,5360,16200,-604,-504,16219.09,26.22,-1.00,-1.0,2367
5363,5363,18000,-1444,1408,18112.64,26.18,-1.00,-1.0,2370
5366,5366,17196,2028,1308,17364.51,26.22,-1.00,-1.0,2419
5369,5369,15528,-1916,424,15651.50,26.22,-1.00,-1.0,2367
5374,5374,17048,2952,5000,18009.68,26.18,-1.00,-1.0,2433
5377,5377,18240,648,5748,19135.23,26.18,-1.00,-1.0,2365
5379,5379,16000,-1172,1436,16107.01,26.18,-1.00,-1.0,2428
5382,5382,16616,-2436,484,16800.59,26.13,-1.00,-1.0,2364
5385,5385,16296,1592,2560,16572.50,26.27,-1.00,-1.0,2423
5387,5387,17236,-2628,4020,17892.64,26.13,-1.00,-1.0,2367
5390,5390,17328,-436,3364,17656.90,26.27,-1.00,-1.0,2369
5393,5393,17372,1040,3812,17815.71,26.22,-1.00,-1.0,2417
5396,5396,18440,-1808,-648,18539.75,26.22,-1.00,-1.0,2367
5401,5401,16468,-1712,3148,16853.36,26.22,-1.00,-1.0,2434
5404,5404,17276,-1912,2976,17634.41,26.08,-1.00,-1.0,2375
5406,5406,16928,3032,5412,18028.87,26.13,-1.00,-1.0,2426
5409,5409,16060,1180,2640,16318.26,26.18,-1.00,-1.0,2373
5412,5412,15048,-772,2200,15227.55,26.18,-1.00,-1.0,2424
5414,5414,16372,-3280,704,16712.16,26.22,-1.00,-1.0,2367
5417,5417,17736,1628,4004,18255.08,26.27,-1.00,-1.0,2376
5420,5420,18036,-356,3836,18442.86,26.27,-1.00,-1.0,2419
5423,5423,17196,1988,2704,17520.45,26.22,-1.00,-1.0,2366
5428,5428,17436,-504,2832,17671.68,26.13,-1.00,-1.0,2433
5431,5431,15948,2032,5020,16842.45,26.18,-1.00,-1.0,2366
5433,5433,15576,124,3468,15957.89,26.22,-1.00,-1.0,2422
5436,5436,17576,1168,3936,18049.16,26.08,-1.00,-1.0,2373
5439,5439,17568,-604,2388,17739.84,26.18,-1.00,-1.0,2423
5442,5442,17828,2340,5264,18735.61,26.18,-1.00,-1.0,2367
5444,5444,16436,-3920,1892,17002.59,26.22,-1.00,-1.0,2365
5447,5447,16824,1572,2060,17022.39,26.27,-1.00,-1.0,2427
5450,5450,18384,812,7344,19813.26,26.18,-1.00,-1.0,2367
5455,5455,15356,-172,3908,15846.41,26.18,-1.00,-1.0,2440
5457,5457,16464,-2804,-744,16717.63,26.18,-1.00,-1.0,2365
5460,5460,17376,-1076,1608,17483.39,26.27,-1.00,-1.0,2419
5463,5463,16808,-5372,-2016,17760.39,26.13,-1.00,-1.0,2367
5466,5466,17932,-232,780,17950.46,26.18,-1.00,-1.0,2415
5468,5468,18248,-1804,3084,18594.49,26.22,-1.00,-1.0,2371
5471,5471,17028,2632,4960,17929.91,26.18,-1.00,-1.0,2369
5474,5474,13880,1116,3960,14476.93,26.13,-1.00,-1.0,2431
5477,5477,15656,-1604,4768,16444.36,26.27,-1.00,-1.0,2373
5482,5482,18984,-660,5092,19666.12,26.22,-1.00,-1.0,2441
5484,5484,16848,2264,-276,17001.68,26.18,-1.00,-1.0,2364
5487,5487,15188,-1740,-464,15294.39,26.27,-1.00,-1.0,2419
5490,5490,18796,-3140,1924,19153.36,26.18,-1.00,-1.0,2365
5493,5493,17392,1484,3836,17871.73,26.27,-1.00,-1.0,2422
5495,5495,18672,-1704,3200,19020.71,26.13,-1.00,-1.0,2354
5498,5498,15684,1852,3600,16198.08,26.13,-1.00,-1.0,2419
5501,5501,15184,2544,6060,16545.37,26.13,-1.00,-1.0,2382
5504,5504,15580,1924,6740,17084.08,26.13,-1.00,-1.0,2376
5509,5509,18752,-340,2252,18889.80,26.18,-1.00,-1.0,2433
5512,5512,17272,560,1008,17310.45,26.18,-1.00,-1.0,2364
5514,5514,19940,-1096,3164,20219.19,26.18,-1.00,-1.0,2415
5517,5517,15828,1056,9504,18492.34,26.22,-1.00,-1.0,2368
5520,5520,15920,1604,3120,16301.95,26.27,-1.00,-1.0,2419
5523,5523,17440,-2676,5384,18447.28,26.13,-1.00,-1.0,2370
5525,5525,15760,8460,6664,19088.17,26.22,-1.00,-1.0,2426
5528,5528,16756,-720,5052,17515.84,26.22,-1.00,-1.0,2374
5531,5531,13996,-2672,-1276,14305.79,26.22,-1.00,-1.0,2370
5536,5536,19104,2116,5152,19899.33,26.13,-1.00,-1.0,2433
5539,5539,19792,1196,4492,20330.56,26.18,-1.00,-1.0,2366
5541,5541,18056,3628,2412,18574.16,26.27,-1.00,-1.0,2400
5544,5544,14808,48,-168,14809.03,26.18,-1.00,-1.0,2368
5547,5547,16816,-4060,1416,17357.03,26.08,-1.00,-1.0,2417
5550,5550,14100,504,-1184,14158.60,26.13,-1.00,-1.0,2373
5552,5552,15272,-8232,-4420,17903.53,26.18,-1.00,-1.0,2425
5555,5555,19528,2232,268,19656.97,26.22,-1.00,-1.0,2361
5558,5558,19764,-1752,992,19866.29,26.18,-1.00,-1.0,2365
5563,5563,18204,-1416,4552,18817.85,26.22,-1.00,-1.0,2441
5566,5566,18324,9620,7432,21989.72,26.27,-1.00,-1.0,2371
5569,5569,18104,2244,9468,20553.18,26.27,-1.00,-1.0,2414
5571,5571,14800,-7160,-5900,17467.56,26.18,-1.00,-1.0,2367
5574,5574,14664,-4000,-1264,15252.23,26.18,-1.00,-1.0,2418
5577,5577,16768,-4348,-2600,17516.59,26.27,-1.00,-1.0,2366
5579,5579,18008,-5904,-5428,19713.15,26.18,-1.00,-1.0,2419
5582,5582,19348,612,4980,19988.00,26.27,-1.00,-1.0,2366
5587,5587,15260,-3688,-1124,15739.51,26.08,-1.00,-1.0,2447
5590,5590,15196,2116,5244,16214.05,26.22,-1.00,-1.0,2371
5592,5592,13832,-656,5852,15033.31,26.18,-1.00,-1.0,2363
5595,5595,20040,7076,7552,22554.47,26.08,-1.00,-1.0,2417
5598,5598,18148,4640,8488,20565.16,26.22,-1.00,-1.0,2369
5601,5601,18840,-1872,2780,19135.79,26.27,-1.00,-1.0,2427
5603,5603,15240,2852,2408,15690.44,26.13,-1.00,-1.0,2367
5606,5606,14044,-1728,4500,14848.23,26.13,-1.00,-1.0,2419
5609,5609,20508,3020,9704,22888.12,26.18,-1.00,-1.0,2367
5614,5614,14996,-2064,2148,15289.02,26.18,-1.00,-1.0,2440
5617,5617,15212,-4492,908,15887.34,26.18,-1.00,-1.0,2372
5619,5619,18512,-5656,-4824,19948.82,26.18,-1.00,-1.0,2345
5622,5622,16444,4020,8120,18774.98,26.18,-1.00,-1.0,2417
5625,5625,19044,-3660,64,19392.62,26.18,-1.00,-1.0,2354
5628,5628,17176,2072,2032,17419.45,26.18,-1.00,-1.0,2425
5630,5630,15328,5880,11200,19873.65,26.32,-1.00,-1.0,2369
5633,5633,16468,812,4176,17008.62,26.22,-1.00,-1.0,2417
5636,5636,14004,-1672,964,14136.37,26.22,-1.00,-1.0,2416
5641,5641,21300,240,8872,23075.09,26.22,-1.00,-1.0,2437
5644,5644,15316,-2420,108,15506.38,26.04,-1.00,-1.0,2368
5647,5647,16784,-224,-212,16786.83,26.27,-1.00,-1.0,2359
5649,5649,18676,-3392,4468,19500.30,26.18,-1.00,-1.0,2429
5652,5652,16248,3972,3112,17013.49,26.22,-1.00,-1.0,2366
5655,5655,15512,-4348,-2168,16255.08,26.18,-1.00,-1.0,2423
5657,5657,14328,1328,5556,15424.79,26.18,-1.00,-1.0,2368
5660,5660,15792,-284,4048,16305.04,26.22,-1.00,-1.0,2419
5663,5663,15296,1704,7072,16937.66,26.22,-1.00,-1.0,2370
5668,5668,16980,2572,5880,18152.41,26.18,-1.00,-1.0,2432
5671,5671,17076,4516,5428,18478.29,26.22,-1.00,-1.0,2365
5673,5673,14876,-304,5020,15703.13,26.22,-1.00,-1.0,2402
5676,5676,14016,-368,4912,14856.36,26.22,-1.00,-1.0,2368
5679,5679,18176,-2516,-2164,18476.47,26.13,-1.00,-1.0,2370
5682,5682,19448,3060,10504,22314.17,26.18,-1.00,-1.0,2418
5684,5684,15084,1712,-4812,15925.24,26.13,-1.00,-1.0,2367
5687,5687,16152,-7580,-960,17867.99,26.18,-1.00,-1.0,2421
5690,5690,14440,-5188,-3544,15747.66,26.27,-1.00,-1.0,2371
5695,5695,15236,-3808,-7644,17466.18,26.27,-1.00,-1.0,2431
5698,5698,14564,-3564,404,14999.18,26.32,-1.00,-1.0,2365
5700,5700,14968,-280,5572,15973.94,26.13,-1.00,-1.0,2400
5703,5703,15192,-1588,3328,15633.11,26.13,-1.00,-1.0,2369
5706,5706,17584,1576,-1596,17726.48,26.13,-1.00,-1.0,2369
5709,5709,18316,3064,7580,20057.93,26.27,-1.00,-1.0,2418
5711,5711,19256,-2452,2012,19515.48,26.18,-1.00,-1.0,2371
5714,5714,17800,5908,7540,20213.76,26.18,-1.00,-1.0,2433
5717,5717,15580,9900,17024,25111.01,26.18,-1.00,-1.0,2374
5722,5722,18608,184,10444,21339.37,26.27,-1.00,-1.0,2433
5725,5725,15176,8796,3528,17892.10,26.22,-1.00,-1.0,2364
5728,5728,15744,-8024,708,17685.00,26.18,-1.00,-1.0,2423
5730,5730,14236,-3876,-464,14761.52,26.22,-1.00,-1.0,2370
5733,5733,16748,-812,4068,17254.09,26.13,-1.00,-1.0,2419
5736,5736,19824,5264,6328,21464.96,26.32,-1.00,-1.0,2370
5738,5738,16760,5792,10304,20508.96,26.22,-1.00,-1.0,2362
5741,5741,13992,5780,13936,20576.60,26.18,-1.00,-1.0,2426
5744,5744,16936,3468,7764,18950.85,26.08,-1.00,-1.0,2373
5749,5749,18556,-6352,-5848,20466.37,26.27,-1.00,-1.0,2435
5752,5752,17672,3496,9356,20299.17,26.27,-1.00,-1.0,2364
5755,5755,18460,-1044,-896,18511.20,26.18,-1.00,-1.0,2421
5757,5757,16148,4348,9852,19409.40,26.22,-1.00,-1.0,2368
5760,5760,16512,2276,10728,19822.12,26.18,-1.00,-1.0,2405
5763,5763,19968,3140,14768,25033.47,26.22,-1.00,-1.0,2367
5765,5765,12888,6340,-820,14386.40,26.18,-1.00,-1.0,2362
5768,5768,19048,-4548,5024,20217.60,26.22,-1.00,-1.0,2425
5771,5771,14872,-1632,-1992,15093.31,26.18,-1.00,-1.0,2376
5776,5776,19748,1388,316,19799.24,26.18,-1.00,-1.0,2434
5779,5779,17580,-1040,536,17618.89,26.18,-1.00,-1.0,2367
5782,5782,13972,-2824,3996,14804.05,26.18,-1.00,-1.0,2420
5784,5784,13996,6148,7856,17187.28,26.18,-1.00,-1.0,2368
5787,5787,16928,-3744,1860,17436.58,26.27,-1.00,-1.0,2417
5790,5790,17104,-4872,-1352,17835.67,26.13,-1.00,-1.0,2369
5793,5793,18700,-5320,-4180,19886.30,26.08,-1.00,-1.0,2419
5795,5795,18436,3096,3368,18995.12,26.22,-1.00,-1.0,2375
5798,5798,21416,448,4056,21801.30,26.22,-1.00,-1.0,2369
5803,5803,14840,-4440,-3284,15834.26,26.18,-1.00,-1.0,2434
5806,5806,16616,2928,-3640,17260.19,26.18,-1.00,-1.0,2365
5809,5809,16448,-1740,6532,17782.89,26.18,-1.00,-1.0,2423
5811,5811,13928,-432,4416,14617.69,26.27,-1.00,-1.0,2368
5814,5814,13332,-2816,-356,13630.80,26.27,-1.00,-1.0,2405
5817,5817,20196,9184,12812,25619.75,26.13,-1.00,-1.0,2367
5820,5820,18036,5792,9984,21413.19,26.18,-1.00,-1.0,2422
5822,5822,17644,2396,6264,18875.62,26.18,-1.00,-1.0,2368
5825,5825,17772,628,6368,18888.88,26.08,-1.00,-1.0,2413
5830,5830,15252,4,4,15252.00,26.27,-1.00,-1.0,2436
5833,5833,13844,1268,8852,16480.96,26.22,-1.00,-1.0,2366
5836,5836,17472,6380,4000,19025.64,26.18,-1.00,-1.0,2416
5839,5839,18728,4808,12056,22786.00,26.22,-1.00,-1.0,2373
5841,5841,17392,-6360,-7044,19812.85,26.27,-1.00,-1.0,2429
5844,5844,15980,-5228,-3684,17212.33,26.22,-1.00,-1.0,2375
5847,5847,16760,4748,2508,17599.18,26.22,-1.00,-1.0,2426
5849,5849,21380,1400,11576,24352.99,26.22,-1.00,-1.0,2368
5852,5852,14964,7052,8096,18417.31,26.18,-1.00,-1.0,2362
5857,5857,16112,-4288,3440,17024.02,26.18,-1.00,-1.0,2441
5860,5860,17032,-2260,-2800,17407.95,26.22,-1.00,-1.0,2372
5863,5863,15676,3940,9340,18668.05,26.13,-1.00,-1.0,2422
5865,5865,17668,-808,3844,18099.38,26.22,-1.00,-1.0,2368
5868,5868,17740,872,3524,18107.64,26.22,-1.00,-1.0,2417
5871,5871,15528,-2264,-1532,15766.79,26.18,-1.00,-1.0,2368
5874,5874,16212,160,2472,16400.16,26.22,-1.00,-1.0,2425
5876,5876,16676,-3076,2292,17111.52,26.27,-1.00,-1.0,2368
5881,5881,16996,-5508,-2692,18067.90,26.18,-1.00,-1.0,2433
5884,5884,18900,-4832,3448,19810.27,26.27,-1.00,-1.0,2365
5886,5886,14924,6996,3048,16761.87,26.22,-1.00,-1.0,2357
5889,5889,20512,-1808,6940,21729.58,26.22,-1.00,-1.0,2420
5892,5892,14144,-3784,-968,14673.39,26.18,-1.00,-1.0,2366
5895,5895,16244,-2488,2280,16590.84,26.22,-1.00,-1.0,2415
5897,5897,16712,-196,1036,16745.23,26.13,-1.00,-1.0,2367
5901,5901,17896,-892,4240,18413.04,26.32,-1.00,-1.0,2418
5903,5903,16912,-1260,-768,16976.25,26.22,-1.00,-1.0,2367
5908,5908,18348,1476,6220,19429.77,26.22,-1.00,-1.0,2432
5911,5911,15696,772,-604,15726.58,26.18,-1.00,-1.0,2365
5913,5913,16916,-2220,2992,17321.42,26.22,-1.00,-1.0,2355
5916,5916,17112,1144,2720,17364.55,26.13,-1.00,-1.0,2419
5919,5919,15928,-1348,2632,16200.18,26.22,-1.00,-1.0,2367
5922,5922,16664,-4260,-5052,17926.49,26.22,-1.00,-1.0,2413
5924,5924,16164,4168,9304,19110.51,26.22,-1.00,-1.0,2368
5928,5928,15752,-424,1884,15869.93,26.22,-1.00,-1.0,2418
5930,5930,16632,-1976,2904,16998.86,26.13,-1.00,-1.0,2367
5935,5935,16852,624,-1164,16903.67,26.13,-1.00,-1.0,2431
5938,5938,17060,-260,5296,17865.02,26.27,-1.00,-1.0,2365
5941,5941,17880,-720,-684,17907.56,26.13,-1.00,-1.0,2414
5944,5944,16652,-1076,3912,17139.15,26.18,-1.00,-1.0,2375
5946,5946,16492,-688,800,16525.72,26.18,-1.00,-1.0,2361
5949,5949,17300,-3096,-1736,17660.38,26.22,-1.00,-1.0,2417
5952,5952,18920,-1364,3228,19241.80,26.18,-1.00,-1.0,2369
5955,5955,16408,1556,-2048,16608.37,26.18,-1.00,-1.0,2419
5958,5958,16276,848,10456,19363.76,26.18,-1.00,-1.0,2368
5962,5962,18076,-1136,7672,19669.57,26.13,-1.00,-1.0,2433
5965,5965,16948,4216,1888,17566.27,26.18,-1.00,-1.0,2364
5968,5968,19180,-1148,3716,19570.36,26.22,-1.00,-1.0,2402
5971,5971,16260,-3592,1816,16750.76,26.27,-1.00,-1.0,2371
5973,5973,16672,-420,580,16687.37,26.22,-1.00,-1.0,2361
5976,5976,16100,-128,5764,17101.17,26.22,-1.00,-1.0,2420
5979,5979,17488,3984,4124,18404.07,26.18,-1.00,-1.0,2368
5982,5982,16392,4656,12000,20841.69,26.18,-1.00,-1.0,2428
5985,5985,17172,-348,4304,17706.58,26.18,-1.00,-1.0,2370
5990,5990,17084,-1836,-1388,17238.34,26.27,-1.00,-1.0,2431
5992,5992,17104,-616,348,17118.63,26.13,-1.00,-1.0,2364
5995,5995,17084,-1380,3088,17415.60,26.22,-1.00,-1.0,2417
5998,5998,18184,2668,4788,18992.13,26.32,-1.00,-1.0,2367
6000,6000,16728,-3728,-1300,17187.61,26.22,-1.00,-1.0,2357
6003,6003,16152,-2036,628,16291.92,26.27,-1.00,-1.0,2417
6006,6006,14980,2512,1096,15228.65,26.22,-1.00,-1.0,2367
6009,6009,19336,-1284,8092,21000.24,26.22,-1.00,-1.0,2423
6012,6012,16884,3368,1620,17292.70,26.27,-1.00,-1.0,2376
6017,6017,16240,-2464,-3272,16748.58,26.27,-1.00,-1.0,2431
6019,6019,17780,-1448,4536,18406.53,26.27,-1.00,-1.0,2367
6022,6022,17744,1152,1940,17886.87,26.27,-1.00,-1.0,2414
6025,6025,16964,388,5032,17698.84,26.22,-1.00,-1.0,2368
6027,6027,17104,-632,3008,17377.98,26.18,-1.00,-1.0,2417
6030,6030,16320,3412,4572,17288.36,26.22,-1.00,-1.0,2371
6033,6033,17572,-1292,2228,17759.74,26.18,-1.00,-1.0,2362
6036,6036,17052,1024,2124,17214.26,26.32,-1.00,-1.0,2425
6039,6039,15768,184,4164,16309.58,26.22,-1.00,-1.0,2372
6044,6044,17168,1440,4556,17820.52,26.22,-1.00,-1.0,2439
6046,6046,16424,1260,2580,16673.09,26.18,-1.00,-1.0,2365
6049,6049,16680,-1524,2188,16891.78,26.18,-1.00,-1.0,2425
6052,6052,17504,-476,968,17537.21,26.27,-1.00,-1.0,2367
6055,6055,17580,140,-236,17582.14,26.18,-1.00,-1.0,2413
6057,6057,16432,-1620,2720,16734.20,26.22,-1.00,-1.0,2367
6060,6060,17764,-2128,-804,17909.06,26.27,-1.00,-1.0,2369
6063,6063,16372,500,4348,16946.90,26.13,-1.00,-1.0,2420
6066,6066,17224,-1136,5140,18010.45,26.22,-1.00,-1.0,2367
6071,6071,17296,-500,2460,17477.22,26.22,-1.00,-1.0,2438
6073,6073,17068,-1764,-5176,17922.59,26.18,-1.00,-1.0,2364
6076,6076,17476,-4496,1324,18093.58,26.18,-1.00,-1.0,2430
6079,6079,16392,-1636,-3028,16749.42,26.18,-1.00,-1.0,2374
6082,6082,18972,-4776,4520,20079.28,26.22,-1.00,-1.0,2418
6084,6084,16600,2844,-3700,17243.50,26.18,-1.00,-1.0,2367
6087,6087,18160,-884,4448,18717.69,26.18,-1.00,-1.0,2419
6090,6090,16772,-3380,2784,17334.22,26.18,-1.00,-1.0,2368
6093,6093,16000,988,1424,16093.60,26.18,-1.00,-1.0,2362
6099,6099,18080,-4160,3744,18926.42,26.18,-1.00,-1.0,2431
6102,6102,15644,-356,-3304,15993.06,26.13,-1.00,-1.0,2368
6105,6105,16928,-476,6868,18274.39,26.08,-1.00,-1.0,2416
6108,6108,18780,-1204,-1224,18858.32,26.22,-1.00,-1.0,2376
6110,6110,15496,476,3340,15859.01,26.27,-1.00,-1.0,2425
6113,6113,17720,-1640,572,17804.92,26.22,-1.00,-1.0,2375
6116,6116,17572,-152,224,17574.09,26.13,-1.00,-1.0,2426
6118,6118,15652,-1608,-328,15737.80,26.22,-1.00,-1.0,2368
6121,6121,18864,-4296,1000,19372.82,26.22,-1.00,-1.0,2369
6126,6126,17508,-196,2480,17683.86,26.18,-1.00,-1.0,2436
6129,6129,18200,-4684,2520,18961.28,26.22,-1.00,-1.0,2370
6131,6131,17692,568,-248,17702.85,26.18,-1.00,-1.0,2424
6134,6134,16260,4140,8448,18785.52,26.22,-1.00,-1.0,2373
6137,6137,17836,-2972,-1728,18164.30,26.22,-1.00,-1.0,2423
6139,6139,17624,-836,7728,19262.04,26.22,-1.00,-1.0,2367
6142,6142,15884,1140,3908,16397.36,26.22,-1.00,-1.0,2420
6145,6145,18868,1916,9448,21188.14,26.18,-1.00,-1.0,2368
6148,6148,16752,1408,3012,17078.76,26.13,-1.00,-1.0,2362
6152,6152,19728,-6188,-1756,20750.15,26.22,-1.00,-1.0,2432
6155,6155,17112,1008,-1144,17179.79,26.18,-1.00,-1.0,2364
6158,6158,16192,3860,9532,19181.75,26.27,-1.00,-1.0,2402
6161,6161,15860,3840,8016,18180.80,26.18,-1.00,-1.0,2372
6163,6163,17036,2296,6280,18301.24,26.18,-1.00,-1.0,2427
6166,6166,17572,1876,5648,18552.48,26.22,-1.00,-1.0,2375
6169,6169,18116,1056,3496,18480.44,26.27,-1.00,-1.0,2421
6171,6171,17124,-2004,1188,17281.75,26.13,-1.00,-1.0,2369
6174,6174,17184,3116,3248,17763.69,26.27,-1.00,-1.0,2364
6179,6179,18380,1524,4184,18911.71,26.22,-1.00,-1.0,2431
6182,6182,15440,860,4808,16194.14,26.22,-1.00,-1.0,2366
6185,6185,17036,640,5996,18071.71,26.13,-1.00,-1.0,2409
6187,6187,15748,3580,5696,17124.85,26.18,-1.00,-1.0,2368
6190,6190,18304,-1400,2812,18571.58,26.18,-1.00,-1.0,2414
6193,6193,16000,-3112,-1208,16344.53,26.18,-1.00,-1.0,2373
6195,6195,17044,-4616,-1964,17766.90,26.18,-1.00,-1.0,2421
6198,6198,18020,-740,-1608,18106.73,26.18,-1.00,-1.0,2375
6203,6203,17204,2068,1500,17392.65,26.22,-1.00,-1.0,2432
6206,6206,15656,184,4812,16379.85,26.13,-1.00,-1.0,2366
6208,6208,17284,2348,6748,18702.55,26.22,-1.00,-1.0,2351
6211,6211,14676,4008,9700,18042.70,26.13,-1.00,-1.0,2417
6214,6214,17736,-116,5412,18543.70,26.13,-1.00,-1.0,2367
6216,6216,16412,952,2272,16595.84,26.13,-1.00,-1.0,2411
6219,6219,16984,-4184,-1472,17553.60,26.27,-1.00,-1.0,2353
6222,6222,17664,1008,704,17706.74,26.18,-1.00,-1.0,2419
6225,6225,16392,-2620,4448,17185.66,26.27,-1.00,-1.0,2372
6230,6230,14704,5412,7292,17282.09,26.22,-1.00,-1.0,2438
6232,6232,17192,-296,-404,17199.29,26.22,-1.00,-1.0,2368
6235,6235,16928,-56,7008,18321.36,26.13,-1.00,-1.0,2360
6238,6238,17948,768,1172,18002.61,26.18,-1.00,-1.0,2407
6240,6240,15992,-5792,-64,17008.69,26.22,-1.00,-1.0,2368
6243,6243,16120,-7164,-8552,19603.93,26.22,-1.00,-1.0,2418
6246,6246,19064,-596,224,19074.63,26.18,-1.00,-1.0,2368
6249,6249,16816,1848,8732,19037.88,26.18,-1.00,-1.0,2422
6252,6252,20016,-4016,2564,20575.29,26.18,-1.00,-1.0,2373
6257,6257,18044,-3104,4276,18801.73,26.22,-1.00,-1.0,2439
6259,6259,16052,536,7516,17732.58,26.13,-1.00,-1.0,2367
6262,6262,17008,-1408,2284,17218.34,26.37,-1.00,-1.0,2361
6265,6265,18816,-1028,1616,18913.22,26.18,-1.00,-1.0,2421
6267,6267,18352,3152,8904,20640.06,26.13,-1.00,-1.0,2368
6270,6270,18444,7500,8580,21680.58,26.18,-1.00,-1.0,2417
6273,6273,14696,3928,8288,17323.18,26.13,-1.00,-1.0,2368
6276,6276,15200,-2188,5936,16464.00,26.18,-1.00,-1.0,2421
6279,6279,17224,1556,7448,18829.76,26.08,-1.00,-1.0,2369
6284,6284,15724,5252,3008,16848.61,26.27,-1.00,-1.0,2435
6286,6286,18576,-8404,-444,20393.43,26.22,-1.00,-1.0,2365
6289,6289,18688,2124,-2168,18932.85,26.37,-1.00,-1.0,2368
6292,6292,17556,-4632,-304,18159.32,26.18,-1.00,-1.0,2422
6294,6294,15364,2464,-5152,16391.06,26.18,-1.00,-1.0,2354
6297,6297,17764,-1628,6548,19002.27,26.18,-1.00,-1.0,2421
6300,6300,16900,2592,4176,17600.21,26.13,-1.00,-1.0,2367
6303,6303,17044,-1668,1904,17230.94,26.22,-1.00,-1.0,2419
6306,6306,13896,1940,4328,14683.12,26.18,-1.00,-1.0,2369
6311,6311,18260,-3192,5864,19442.30,26.22,-1.00,-1.0,2433
6313,6313,15484,2144,372,15636.16,26.32,-1.00,-1.0,2374
6316,6316,14148,116,7652,16085.16,26.22,-1.00,-1.0,2425
6319,6319,17316,-168,7912,19038.69,26.18,-1.00,-1.0,2375
6321,6321,16580,5896,12960,21854.54,26.13,-1.00,-1.0,2360
6324,6324,16376,3496,6288,17886.71,26.32,-1.00,-1.0,2417
6327,6327,16312,744,4732,17000.79,26.13,-1.00,-1.0,2370
6330,6330,14440,-1680,4124,15111.04,26.22,-1.00,-1.0,2402
6333,6333,16360,2624,6156,17675.73,26.13,-1.00,-1.0,2366
6338,6338,17344,-4008,1340,17851.44,26.22,-1.00,-1.0,2432
6340,6340,15888,1316,5688,16926.72,26.13,-1.00,-1.0,2376
6343,6343,17588,-1468,3536,17999.89,26.13,-1.00,-1.0,2416
6346,6346,16756,2940,1952,17123.59,26.18,-1.00,-1.0,2376
6348,6348,16512,-1468,2220,16725.12,26.32,-1.00,-1.0,2360
6351,6351,19748,3584,7476,21417.73,26.18,-1.00,-1.0,2416
6354,6354,16136,4376,6276,17858.00,26.13,-1.00,-1.0,2356
6357,6357,17252,4100,6232,18795.73,26.18,-1.00,-1.0,2415
6360,6360,17244,-1884,-1448,17406.94,26.27,-1.00,-1.0,2366
