timestamp_ms,global_ms,accel_x,accel_y,accel_z,accel_mag,temp_c,voltage,soc,loop_us
2,2,20328,-7392,7164,22785.79,26.74,-1.00,-1.0,2489
9,9,21472,-1332,7748,22865.97,26.79,-1.00,-1.0,2457
12,12,15584,12232,9976,22181.15,26.69,-1.00,-1.0,2369
14,14,19436,-11336,-1624,22558.82,26.79,-1.00,-1.0,2360
17,17,15524,13404,15848,25919.51,26.84,-1.00,-1.0,2431
20,20,16840,5276,12112,21403.79,26.79,-1.00,-1.0,2374
23,23,14904,-4988,-9248,18235.54,26.88,-1.00,-1.0,2415
25,25,15732,-1076,8664,17992.18,26.84,-1.00,-1.0,2354
28,28,16020,-2172,-2196,16315.04,26.88,-1.00,-1.0,2422
31,31,17832,4080,-1924,18393.71,26.74,-1.00,-1.0,2367
33,33,18108,-9856,2724,20795.69,26.88,-1.00,-1.0,2362
38,38,21456,-3320,13440,25534.60,26.79,-1.00,-1.0,2432
41,41,19536,40,6060,20454.35,26.79,-1.00,-1.0,2365
43,43,17244,-636,-2976,17510.47,26.69,-1.00,-1.0,2416
46,46,18524,2864,7944,20358.00,26.74,-1.00,-1.0,2366
49,49,11900,13292,7392,19311.37,26.79,-1.00,-1.0,2370
52,52,21528,-12116,956,24721.78,26.79,-1.00,-1.0,2420
54,54,11764,12496,9724,19725.56,26.84,-1.00,-1.0,2366
57,57,23128,-9716,2356,25196.34,26.79,-1.00,-1.0,2420
60,60,17376,4836,-4572,18606.87,26.74,-1.00,-1.0,2367
65,65,16540,-11740,4936,20874.94,26.84,-1.00,-1.0,2435
67,67,15824,9772,3496,18923.87,26.84,-1.00,-1.0,2365
70,70,25316,3984,25436,36107.65,26.74,-1.00,-1.0,2359
73,73,11120,4288,-12904,17565.72,26.84,-1.00,-1.0,2427
75,75,22520,4840,26132,34834.71,26.74,-1.00,-1.0,2367
78,78,14772,1244,-10512,18173.10,26.74,-1.00,-1.0,2432
81,81,15660,-6168,-13132,21347.82,26.79,-1.00,-1.0,2374
84,84,16796,1504,12176,20799.58,26.84,-1.00,-1.0,2420
86,86,17024,2296,-6244,18277.74,26.79,-1.00,-1.0,2367
89,89,17868,-8836,8420,21638.78,26.88,-1.00,-1.0,2362
94,94,25192,992,12616,28191.92,26.88,-1.00,-1.0,2441
97,97,7928,2556,-5880,10196.11,26.84,-1.00,-1.0,2369
100,100,13448,-5732,-13376,19814.69,26.84,-1.00,-1.0,2419
102,102,21068,6788,16972,27892.41,26.74,-1.00,-1.0,2369
105,105,15984,-4632,-10532,19694.33,26.84,-1.00,-1.0,2419
108,108,18500,1852,14224,23409.44,26.88,-1.00,-1.0,2367
111,111,12952,14252,14264,23965.30,26.74,-1.00,-1.0,2363
113,113,22444,-11720,-3124,25511.78,26.69,-1.00,-1.0,2406
116,116,12700,11036,8276,18750.35,26.88,-1.00,-1.0,2367
121,121,17268,-2120,-5644,18290.24,26.88,-1.00,-1.0,2434
124,124,14020,552,3808,14538.43,26.93,-1.00,-1.0,2370
127,127,16916,692,2168,17068.40,26.79,-1.00,-1.0,2418
130,130,15992,4484,448,16614.78,26.84,-1.00,-1.0,2373
132,132,18076,-14140,-2768,23115.87,26.79,-1.00,-1.0,2363
135,135,15576,10812,3856,19348.90,26.88,-1.00,-1.0,2420
138,138,21268,2612,21092,30066.97,26.84,-1.00,-1.0,2370
141,141,13376,6080,-5020,15526.89,26.84,-1.00,-1.0,2420
143,143,22728,6688,23928,33672.55,26.84,-1.00,-1.0,2354
148,148,15200,-6800,-8156,18541.85,26.79,-1.00,-1.0,2432
151,151,15640,-4264,2260,16367.62,26.84,-1.00,-1.0,2356
154,154,15952,2808,-6280,17372.09,26.88,-1.00,-1.0,2418
157,157,23136,-11004,7736,26762.07,26.74,-1.00,-1.0,2375
159,159,10196,3256,-12,10703.28,26.79,-1.00,-1.0,2363
162,162,22952,-1876,8984,24718.94,26.88,-1.00,-1.0,2420
165,165,18032,4568,5360,19358.44,26.79,-1.00,-1.0,2375
168,168,13768,-1744,-4676,14644.60,26.84,-1.00,-1.0,2420
171,171,18008,868,12196,21766.58,26.93,-1.00,-1.0,2366
175,175,20984,-12928,-4904,25129.88,26.84,-1.00,-1.0,2433
178,178,13056,17252,2652,21797.33,26.74,-1.00,-1.0,2416
181,181,21324,-20916,-892,29882.90,26.79,-1.00,-1.0,2420
184,184,8748,24,-5860,10529.37,26.88,-1.00,-1.0,2371
186,186,21308,3512,12612,25008.55,26.79,-1.00,-1.0,2350
189,189,15276,13288,9116,22204.25,26.79,-1.00,-1.0,2420
192,192,17020,-2656,15512,23180.96,26.79,-1.00,-1.0,2356
195,195,15512,-388,1300,15571.21,26.88,-1.00,-1.0,2427
198,198,16360,1352,1420,16477.07,26.93,-1.00,-1.0,2366
203,203,16760,12820,-3892,21456.88,26.84,-1.00,-1.0,2428
205,205,24816,10320,20568,33843.45,26.84,-1.00,-1.0,2364
208,208,14824,3032,10844,18615.49,26.84,-1.00,-1.0,2364
211,211,16360,-7596,-5972,19000.36,26.88,-1.00,-1.0,2423
213,213,12600,12224,12760,21702.62,26.74,-1.00,-1.0,2366
216,216,18320,-4508,-3028,19107.94,26.84,-1.00,-1.0,2417
219,219,21516,-12372,-5312,25381.53,26.93,-1.00,-1.0,2365
222,222,13196,8980,5848,16999.23,26.79,-1.00,-1.0,2430
225,225,24676,-10972,7936,28147.29,26.88,-1.00,-1.0,2371
230,230,18956,-3732,9468,21515.13,26.79,-1.00,-1.0,2427
232,232,12604,13080,11484,21490.22,26.84,-1.00,-1.0,2365
235,235,15268,-11004,-100,18820.46,26.88,-1.00,-1.0,2363
238,238,19156,-15244,-14176,28289.41,26.79,-1.00,-1.0,2436
240,240,17908,7140,8296,20988.08,26.79,-1.00,-1.0,2369
243,243,20820,-12632,-10204,26403.81,26.88,-1.00,-1.0,2431
246,246,17176,12708,9444,23360.17,26.79,-1.00,-1.0,2373
249,249,16960,-4800,13616,22272.79,26.84,-1.00,-1.0,2425
252,252,13876,5652,-1916,15104.95,26.79,-1.00,-1.0,2373
256,256,11772,-8736,-13720,20078.25,26.84,-1.00,-1.0,2435
259,259,19016,3784,10088,21856.23,26.88,-1.00,-1.0,2371
262,262,24456,1224,22496,33251.53,26.84,-1.00,-1.0,2363
264,264,15300,3548,-7824,17546.89,26.74,-1.00,-1.0,2423
267,267,21792,1156,25252,33375.01,26.79,-1.00,-1.0,2380
270,270,14744,13584,-2848,20248.99,26.74,-1.00,-1.0,2419
273,273,18764,-11892,-1860,22292.76,26.74,-1.00,-1.0,2366
276,276,8596,-2740,84,9022.52,26.84,-1.00,-1.0,2421
279,279,20044,-2100,804,20169.74,26.74,-1.00,-1.0,2367
282,282,12436,-5868,-11536,17949.01,26.84,-1.00,-1.0,2363
287,287,23808,-3500,17948,30020.02,26.88,-1.00,-1.0,2427
289,289,12920,9140,-6840,17240.99,26.88,-1.00,-1.0,2364
292,292,23564,-3376,22760,32934.44,26.79,-1.00,-1.0,2421
295,295,8680,15468,8260,19566.02,26.84,-1.00,-1.0,2369
297,297,19580,-17172,-2976,26212.79,26.79,-1.00,-1.0,2421
300,300,4728,6984,-80,8434.25,26.84,-1.00,-1.0,2364
303,303,24404,-10844,7352,27698.37,26.84,-1.00,-1.0,2421
306,306,24852,-3900,2664,25296.81,26.84,-1.00,-1.0,2364
309,309,12292,5652,-3520,13979.58,26.84,-1.00,-1.0,2362
314,314,11824,16620,9812,22634.19,26.93,-1.00,-1.0,2436
316,316,22140,-13744,5780,26692.42,26.88,-1.00,-1.0,2365
319,319,9184,15928,8180,20123.60,26.88,-1.00,-1.0,2427
322,322,20920,-9604,2616,23167.36,26.88,-1.00,-1.0,2376
325,325,21376,-15252,-4628,26664.12,26.88,-1.00,-1.0,2423
327,327,15424,7860,4612,17915.08,26.79,-1.00,-1.0,2366
330,330,26036,1076,8228,27326.38,26.84,-1.00,-1.0,2419
333,333,7100,9844,-2244,12343.01,26.84,-1.00,-1.0,2365
336,336,24648,-11184,12204,29690.80,26.79,-1.00,-1.0,2362
341,341,18672,3588,7936,20603.34,26.84,-1.00,-1.0,2433
343,343,21972,-5996,-996,22797.21,26.88,-1.00,-1.0,2363
346,346,18116,18016,6064,26259.05,26.74,-1.00,-1.0,2434
349,349,22860,-18492,-2176,29483.36,26.79,-1.00,-1.0,2376
352,352,9576,16320,-1648,18993.63,26.84,-1.00,-1.0,2419
354,354,23676,-6632,20172,31803.24,26.79,-1.00,-1.0,2366
357,357,9236,13600,-536,16448.43,26.84,-1.00,-1.0,2370
360,360,13856,-24408,-15812,32214.26,26.79,-1.00,-1.0,2430
363,363,9440,1108,3592,10160.89,26.88,-1.00,-1.0,2365
368,368,16848,-11724,18028,27318.79,26.79,-1.00,-1.0,2428
370,370,11440,23672,8920,27763.35,26.84,-1.00,-1.0,2365
373,373,18944,-18600,-2236,26642.73,26.84,-1.00,-1.0,2436
376,376,9536,9536,6508,14974.13,26.84,-1.00,-1.0,2368
379,379,18508,4224,9988,21451.07,26.93,-1.00,-1.0,2420
381,381,18336,-8320,-7108,21353.10,26.79,-1.00,-1.0,2365
384,384,20308,1408,1864,20441.91,26.93,-1.00,-1.0,2370
387,387,23160,8548,10732,26918.95,26.84,-1.00,-1.0,2422
390,390,20916,7392,-832,22199.39,26.88,-1.00,-1.0,2371
395,395,3684,8772,-3280,10063.71,26.88,-1.00,-1.0,2427
397,397,23888,-4812,5892,25070.05,26.74,-1.00,-1.0,2370
400,400,21536,14128,11832,28344.24,26.88,-1.00,-1.0,2428
403,403,21384,3824,-5040,22300.22,26.84,-1.00,-1.0,2373
405,405,18244,-32768,-10628,38981.27,26.88,-1.00,-1.0,2365
408,408,4760,9324,-5608,11876.21,26.88,-1.00,-1.0,2417
411,411,32072,-7048,16524,36760.44,26.93,-1.00,-1.0,2369
414,414,8716,9756,-21172,24887.78,26.84,-1.00,-1.0,2423
417,417,25236,-10944,19688,33826.68,26.74,-1.00,-1.0,2373
422,422,15368,9880,4440,18801.69,26.79,-1.00,-1.0,2429
424,424,26692,-13756,11892,32297.21,26.79,-1.00,-1.0,2372
427,427,4364,2896,-27356,27852.87,26.88,-1.00,-1.0,2422
430,430,24228,-14388,17772,33314.48,26.84,-1.00,-1.0,2372
432,432,23520,3528,16200,28776.33,26.79,-1.00,-1.0,2358
435,435,15624,11516,4832,20001.90,26.74,-1.00,-1.0,2418
438,438,17296,-22572,-9552,29998.12,26.84,-1.00,-1.0,2368
441,441,5024,15324,5872,17162.34,26.84,-1.00,-1.0,2449
444,444,25700,-25608,3348,36434.45,26.84,-1.00,-1.0,2375
449,449,21924,3976,5336,22911.64,26.79,-1.00,-1.0,2430
451,451,19388,-30356,-8544,37018.66,26.84,-1.00,-1.0,2364
454,454,1516,14636,624,14727.53,26.93,-1.00,-1.0,2428
457,457,24396,-23968,3588,34387.55,26.93,-1.00,-1.0,2373
459,459,21200,9256,1348,23171.76,26.79,-1.00,-1.0,2373
462,462,23960,10516,3608,26413.74,26.79,-1.00,-1.0,2429
465,465,23608,1936,14444,27743.74,26.84,-1.00,-1.0,2372
468,468,13608,10704,11960,21042.69,26.74,-1.00,-1.0,2411
471,471,13028,-19580,-8576,25033.04,26.84,-1.00,-1.0,2372
476,476,29200,-1716,20368,35643.23,26.79,-1.00,-1.0,2435
478,478,20504,-13188,5204,24928.28,26.84,-1.00,-1.0,2364
481,481,5132,12140,1144,13229.73,26.84,-1.00,-1.0,2420
484,484,18384,-24308,-3264,30651.33,26.84,-1.00,-1.0,2369
486,486,14924,9192,-6392,18656.80,26.79,-1.00,-1.0,2366
489,489,27812,-1076,11192,29998.77,26.79,-1.00,-1.0,2434
492,492,20000,12756,6136,24502.37,26.84,-1.00,-1.0,2354
495,495,19408,5460,3856,20526.83,26.79,-1.00,-1.0,2422
498,498,20352,-9528,4448,22907.89,26.84,-1.00,-1.0,2353
503,503,23584,-10628,14568,29688.15,26.84,-1.00,-1.0,2435
505,505,25548,6424,9684,28066.85,26.84,-1.00,-1.0,2364
508,508,13180,9640,2200,16476.71,26.69,-1.00,-1.0,2369
511,511,16668,-16136,3140,23410.52,26.79,-1.00,-1.0,2427
513,513,10216,4384,-14856,18554.97,26.84,-1.00,-1.0,2369
516,516,24084,-6188,8444,26260.84,26.88,-1.00,-1.0,2420
519,519,21264,2060,-172,21364.24,26.74,-1.00,-1.0,2366
522,522,23028,13672,5732,27387.37,26.74,-1.00,-1.0,2419
525,525,23280,-292,4612,23734.24,26.88,-1.00,-1.0,2354
530,530,23096,-12000,15384,30233.96,26.88,-1.00,-1.0,2433
532,532,22440,6756,11520,26113.36,26.84,-1.00,-1.0,2353
535,535,15220,17280,8464,24533.37,26.79,-1.00,-1.0,2369
538,538,23456,-15688,5660,28780.77,26.79,-1.00,-1.0,2424
541,541,4476,12492,196,13271.14,26.79,-1.00,-1.0,2365
543,543,22548,-7880,11176,26370.62,26.79,-1.00,-1.0,2419
546,546,19728,7212,-704,21016.72,26.84,-1.00,-1.0,2366
549,549,24624,4384,-708,25021.23,26.74,-1.00,-1.0,2418
552,552,24004,4,8576,25489.99,26.84,-1.00,-1.0,2368
555,555,17188,16424,10972,26183.20,26.74,-1.00,-1.0,2364
560,560,9236,76,-19564,21634.68,26.88,-1.00,-1.0,2431
563,563,23444,-10832,7208,26812.47,26.88,-1.00,-1.0,2365
565,565,19760,-8368,-3816,21795.48,26.79,-1.00,-1.0,2425
568,568,10256,5888,3676,12384.15,26.79,-1.00,-1.0,2370
571,571,17628,-17072,1664,24596.11,26.79,-1.00,-1.0,2424
573,573,15500,16724,-2640,22954.56,26.84,-1.00,-1.0,2366
576,576,23756,-12188,5100,27182.80,26.79,-1.00,-1.0,2421
579,579,15700,4460,5532,17233.24,26.84,-1.00,-1.0,2356
582,582,19816,8404,1720,21593.04,26.74,-1.00,-1.0,2349
587,587,8148,-2652,-14820,17118.86,26.84,-1.00,-1.0,2415
590,590,18712,-3648,12016,22535.11,26.79,-1.00,-1.0,2364
592,592,20628,2672,10128,23135.05,26.79,-1.00,-1.0,2427
595,595,14180,14960,8244,22199.95,26.79,-1.00,-1.0,2370
598,598,18580,-17700,1676,25716.05,26.79,-1.00,-1.0,2423
600,600,13772,1176,-11268,17833.08,26.84,-1.00,-1.0,2367
603,603,21420,3912,10324,24097.82,26.79,-1.00,-1.0,2364
606,606,22984,8920,10728,26887.18,26.79,-1.00,-1.0,2418
609,609,18580,588,-3532,18921.87,26.88,-1.00,-1.0,2367
614,614,4868,8732,-9012,13459.62,26.74,-1.00,-1.0,2429
617,617,21144,-10688,10636,25969.72,26.84,-1.00,-1.0,2370
619,619,23368,3824,12268,26668.15,26.84,-1.00,-1.0,2429
622,622,17660,9104,1460,19922.10,26.84,-1.00,-1.0,2373
625,625,20404,-9196,7908,23736.60,26.74,-1.00,-1.0,2420
627,627,8740,17244,4872,19936.89,26.79,-1.00,-1.0,2367
630,630,23556,-10352,17836,31307.70,26.84,-1.00,-1.0,2377
633,633,16508,4900,-10672,20258.72,26.79,-1.00,-1.0,2419
636,636,24096,4452,8492,25933.60,26.88,-1.00,-1.0,2366
641,641,6972,13372,5424,16026.20,26.88,-1.00,-1.0,2426
644,644,20804,-20496,7012,30034.32,26.84,-1.00,-1.0,2365
646,646,16592,8036,-4660,19015.45,26.74,-1.00,-1.0,2422
649,649,22952,4796,8260,24860.08,26.74,-1.00,-1.0,2384
652,652,23208,4592,11380,26252.66,26.84,-1.00,-1.0,2362
654,654,19516,8448,4396,21715.61,26.88,-1.00,-1.0,2419
657,657,19148,-18420,8888,28016.76,26.84,-1.00,-1.0,2370
660,660,3704,4592,-16136,17180.70,26.84,-1.00,-1.0,2419
663,663,21136,-9444,13612,26855.28,26.79,-1.00,-1.0,2367
668,668,16364,10980,5772,20534.29,26.79,-1.00,-1.0,2427
671,671,21276,-6664,5048,22859.56,26.84,-1.00,-1.0,2364
673,673,8804,8604,-976,12348.76,26.79,-1.00,-1.0,2414
676,676,19012,-4020,6120,20373.29,26.84,-1.00,-1.0,2372
679,679,19456,1244,1244,19535.38,26.69,-1.00,-1.0,2362
681,681,18208,-668,-2448,18383.96,26.79,-1.00,-1.0,2415
684,684,18952,-9120,5064,21633.23,26.88,-1.00,-1.0,2368
687,687,9424,7204,508,11872.97,26.93,-1.00,-1.0,2429
690,690,16564,-14368,-976,21948.99,26.74,-1.00,-1.0,2374
695,695,19176,6800,6232,21279.02,26.84,-1.00,-1.0,2435
697,697,22348,-880,14352,26574.19,26.79,-1.00,-1.0,2365
700,700,6888,12292,2936,14392.98,26.84,-1.00,-1.0,2368
703,703,18668,-12808,8464,24169.78,26.74,-1.00,-1.0,2425
706,706,8940,-88,-10156,13530.55,26.84,-1.00,-1.0,2364
708,708,18992,8344,3908,21109.02,26.74,-1.00,-1.0,2420
711,711,21344,-4592,14216,26052.78,26.84,-1.00,-1.0,2373
714,714,15996,13276,1064,20814.81,26.79,-1.00,-1.0,2434
717,717,19116,-7796,8092,22173.85,26.74,-1.00,-1.0,2372
720,720,11856,12020,5196,17664.75,26.93,-1.00,-1.0,2364
725,725,19096,-2600,-6596,20369.69,26.84,-1.00,-1.0,2427
728,728,18164,-2212,-900,18320.31,26.79,-1.00,-1.0,2364
730,730,23116,6604,14084,27862.54,26.79,-1.00,-1.0,2416
733,733,8804,10364,6572,15103.45,26.88,-1.00,-1.0,2376
736,736,15956,-18156,-3380,24406.12,26.79,-1.00,-1.0,2418
739,739,7084,-3044,-7492,10750.77,26.84,-1.00,-1.0,2369
741,741,23816,-2552,11700,26657.17,26.88,-1.00,-1.0,2425
744,744,19636,7816,15024,25930.35,26.79,-1.00,-1.0,2379
747,747,16652,5332,-1364,17537.95,26.79,-1.00,-1.0,2373
752,752,9232,-608,-4204,10162.34,26.74,-1.00,-1.0,2426
755,755,18700,88,7696,20221.92,26.84,-1.00,-1.0,2364
757,757,13808,-5748,-12696,19618.58,26.84,-1.00,-1.0,2417
760,760,18676,10208,5700,22033.75,26.79,-1.00,-1.0,2370
763,763,20968,-1196,11244,23822.57,26.74,-1.00,-1.0,2418
766,766,14608,12924,5160,20175.46,26.88,-1.00,-1.0,2375
768,768,17724,-2136,9036,20008.80,26.74,-1.00,-1.0,2362
771,771,14276,-2448,-8204,16646.40,26.79,-1.00,-1.0,2418
774,774,19664,-8116,4568,21757.96,26.88,-1.00,-1.0,2370
779,779,12484,14348,4864,19630.94,26.88,-1.00,-1.0,2436
782,782,17860,-14220,128,22829.90,26.74,-1.00,-1.0,2370
785,785,5200,5512,432,7590.04,26.84,-1.00,-1.0,2418
787,787,21560,-3884,3160,22133.79,26.74,-1.00,-1.0,2369
790,790,22364,3588,5380,23280.18,26.84,-1.00,-1.0,2419
793,793,22312,10000,3444,24691.83,26.88,-1.00,-1.0,2367
795,795,17736,-22868,3540,29155.49,26.84,-1.00,-1.0,2364
798,798,2448,-900,-9448,9801.40,26.84,-1.00,-1.0,2419
801,801,16696,-9240,2180,19206.42,26.74,-1.00,-1.0,2367
806,806,20544,12392,9556,25825.08,26.79,-1.00,-1.0,2442
809,809,22120,-3604,5092,22982.86,26.79,-1.00,-1.0,2366
812,812,11948,10652,2852,16258.96,26.84,-1.00,-1.0,2418
814,814,17804,-11844,6136,22246.65,26.84,-1.00,-1.0,2369
817,817,12260,-1972,-8712,15168.89,26.79,-1.00,-1.0,2370
820,820,24020,-8300,2880,25576.25,26.88,-1.00,-1.0,2433
822,822,19504,7680,1288,21001.13,26.88,-1.00,-1.0,2367
825,825,8624,12228,744,14981.69,26.74,-1.00,-1.0,2406
828,828,18192,-13356,8268,24035.21,26.74,-1.00,-1.0,2366
833,833,23804,-3168,-1484,24059.70,26.74,-1.00,-1.0,2436
836,836,23200,2512,1524,23385.31,26.88,-1.00,-1.0,2372
839,839,20932,17288,17228,32153.19,26.88,-1.00,-1.0,2431
841,841,22812,-856,4212,23213.38,26.79,-1.00,-1.0,2371
844,844,9736,-3588,-10804,14979.65,26.79,-1.00,-1.0,2362
847,847,16572,-10492,184,19614.97,26.65,-1.00,-1.0,2431
849,849,14416,2304,4028,15144.45,26.88,-1.00,-1.0,2371
852,852,23912,-3200,-212,24126.10,26.79,-1.00,-1.0,2419
855,855,23876,-5592,8348,25904.11,26.84,-1.00,-1.0,2367
860,860,19400,-10748,-632,22187.36,26.93,-1.00,-1.0,2436
863,863,16008,488,4668,16681.86,26.69,-1.00,-1.0,2367
865,865,24688,7196,5336,26263.14,26.74,-1.00,-1.0,2360
868,868,21064,-8924,15164,27445.89,26.84,-1.00,-1.0,2422
871,871,5904,1120,-14384,15588.81,26.93,-1.00,-1.0,2370
874,874,15116,-11364,11176,21966.72,26.93,-1.00,-1.0,2425
876,876,10820,-396,-9780,14590.33,26.79,-1.00,-1.0,2371
879,879,18148,-18560,-6612,26786.97,26.88,-1.00,-1.0,2420
882,882,15236,9020,10036,20352.33,26.79,-1.00,-1.0,2367
887,887,13900,-15184,6544,21600.64,26.79,-1.00,-1.0,2427
890,890,13572,3180,128,13940.16,26.84,-1.00,-1.0,2364
892,892,20452,-14920,-10804,27524.85,26.79,-1.00,-1.0,2358
895,895,22880,-4120,-1628,23304.92,26.79,-1.00,-1.0,2422
898,898,8476,4380,-5240,10885.06,26.79,-1.00,-1.0,2366
900,900,20008,-8168,18396,28380.44,26.84,-1.00,-1.0,2415
903,903,8704,-676,-18308,20282.98,26.79,-1.00,-1.0,2363
906,906,17604,-11840,12108,24427.24,26.88,-1.00,-1.0,2422
909,909,11384,10464,7744,17293.36,26.79,-1.00,-1.0,2363
914,914,17280,-11144,16408,26306.08,26.88,-1.00,-1.0,2427
917,917,9596,3236,-716,10152.22,26.79,-1.00,-1.0,2365
919,919,15588,-19520,-13064,28190.14,26.88,-1.00,-1.0,2355
922,922,23940,1244,-4192,24336.06,26.84,-1.00,-1.0,2420
925,925,15328,13460,12956,24165.62,26.79,-1.00,-1.0,2365
927,927,22320,6568,23776,33265.89,26.88,-1.00,-1.0,2414
930,930,10036,764,-11200,15058.05,26.79,-1.00,-1.0,2366
933,933,10780,-13468,5140,18000.42,26.74,-1.00,-1.0,2421
936,936,9352,5320,7248,12972.89,26.84,-1.00,-1.0,2366
939,939,18404,-20996,-9916,29628.81,26.74,-1.00,-1.0,2364
944,944,13248,2508,-10048,16815.53,26.79,-1.00,-1.0,2432
947,947,16496,-17564,-1136,24122.66,26.79,-1.00,-1.0,2366
950,950,11192,3212,3420,12135.66,26.79,-1.00,-1.0,2423
952,952,27260,8804,17744,33696.70,26.84,-1.00,-1.0,2373
955,955,21376,-5520,-16256,27416.44,26.79,-1.00,-1.0,2420
958,958,6208,3768,-19084,20419.01,26.74,-1.00,-1.0,2370
961,961,16092,-22120,14164,30803.66,26.84,-1.00,-1.0,2431
963,963,6460,10628,8620,15132.43,26.84,-1.00,-1.0,2371
966,966,20428,-7492,-1712,21825.77,26.93,-1.00,-1.0,2365
971,971,12284,-6460,-9472,16803.19,26.84,-1.00,-1.0,2429
974,974,21104,-24468,-13692,35093.20,26.79,-1.00,-1.0,2365
977,977,7720,5872,-6892,11898.67,26.79,-1.00,-1.0,2431
979,979,25728,10496,26584,38455.23,26.84,-1.00,-1.0,2354
982,982,23128,-956,-15500,27858.00,26.88,-1.00,-1.0,2417
985,985,9628,-8388,-14072,19002.05,26.84,-1.00,-1.0,2372
988,988,14612,-25888,-9712,31273.34,26.79,-1.00,-1.0,2425
990,990,5268,13340,10760,17930.00,26.84,-1.00,-1.0,2377
993,993,22212,-10632,5140,25156.15,26.93,-1.00,-1.0,2371
998,998,13308,-7020,-21404,26163.23,26.84,-1.00,-1.0,2431
1001,1001,19408,-18828,-12156,29646.79,26.84,-1.00,-1.0,2363
1004,1004,12552,-2252,-15020,19703.42,26.84,-1.00,-1.0,2427
1006,1006,24916,17528,32767,44740.52,26.79,-1.00,-1.0,2369
1009,1009,25900,4064,-9840,28002.71,26.84,-1.00,-1.0,2420
1012,1012,12728,2224,1224,12978.69,26.79,-1.00,-1.0,2368
1015,1015,12776,-22800,-19704,32730.93,26.79,-1.00,-1.0,2421
1017,1017,10204,2860,10484,14906.89,26.74,-1.00,-1.0,2373
1022,1022,19488,11660,31384,38738.78,26.84,-1.00,-1.0,2440
1025,1025,7696,14380,16452,23166.38,26.74,-1.00,-1.0,2364
1028,1028,24944,3152,15256,29408.91,26.84,-1.00,-1.0,2424
1030,1030,18492,-7556,-23080,30524.31,26.93,-1.00,-1.0,2368
1033,1033,17752,16864,24952,34958.98,26.88,-1.00,-1.0,2371
1036,1036,15216,-19924,-4096,25402.16,26.79,-1.00,-1.0,2421
1039,1039,8060,14324,17452,23973.17,26.84,-1.00,-1.0,2367
1041,1041,22632,-8656,5048,24751.08,26.88,-1.00,-1.0,2420
1044,1044,12484,-5496,-19980,24192.08,26.88,-1.00,-1.0,2369
1049,1049,17672,-8688,11612,22860.87,26.79,-1.00,-1.0,2436
1052,1052,10080,-7092,-18020,21831.70,26.74,-1.00,-1.0,2370
1055,1055,21448,12700,30992,39771.98,26.79,-1.00,-1.0,2430
1058,1058,24376,6644,-5040,25763.03,26.74,-1.00,-1.0,2373
1060,1060,15304,-7584,-12500,21165.53,26.84,-1.00,-1.0,2420
1063,1063,18060,-22308,-18344,34063.36,26.74,-1.00,-1.0,2367
1066,1066,8052,-380,-3592,8825.05,26.84,-1.00,-1.0,2428
1068,1068,23480,13440,32767,42492.59,26.84,-1.00,-1.0,2367
1071,1071,16544,-1716,-21672,27318.93,26.84,-1.00,-1.0,2364
1076,1076,21584,-21728,-12344,33020.44,26.88,-1.00,-1.0,2434
1079,1079,6852,10712,9720,16005.48,26.88,-1.00,-1.0,2369
1082,1082,17100,-1592,1008,17203.50,26.69,-1.00,-1.0,2429
1085,1085,20300,9068,21700,31067.81,26.74,-1.00,-1.0,2369
1087,1087,16580,3136,3160,17167.31,26.84,-1.00,-1.0,2422
1090,1090,23172,9124,26848,36619.72,26.84,-1.00,-1.0,2367
1093,1093,17316,-244,-19416,26017.00,26.84,-1.00,-1.0,2426
1095,1095,17480,-3552,9464,20192.43,26.84,-1.00,-1.0,2367
1100,1100,8072,8668,9572,15228.74,26.84,-1.00,-1.0,2426
1103,1103,22644,6032,23440,33144.67,26.88,-1.00,-1.0,2366
1106,1106,19412,12972,18604,29853.10,26.84,-1.00,-1.0,2358
1108,1108,16460,-4056,-7200,18418.00,26.74,-1.00,-1.0,2421
1111,1111,18216,-17740,-13836,28947.63,26.84,-1.00,-1.0,2367
1114,1114,14476,-7212,-22576,27771.27,26.74,-1.00,-1.0,2415
1117,1117,18220,-6336,2652,19471.68,26.88,-1.00,-1.0,2373
1120,1120,18240,11844,14152,25947.20,26.79,-1.00,-1.0,2418
1122,1122,17464,-5524,-3452,18639.26,26.74,-1.00,-1.0,2367
1127,1127,13924,-9864,-21940,27794.60,26.84,-1.00,-1.0,2428
1130,1130,14764,1048,-4368,15432.22,26.93,-1.00,-1.0,2365
1133,1133,20180,-16152,-8012,27061.26,26.84,-1.00,-1.0,2423
1135,1135,8096,8732,12804,17485.29,26.84,-1.00,-1.0,2373
1138,1138,22664,13232,25300,36453.16,26.84,-1.00,-1.0,2419
1141,1141,17620,14952,18724,29742.48,26.88,-1.00,-1.0,2354
1143,1143,18204,-6656,-6356,20398.20,26.79,-1.00,-1.0,2362
1147,1147,18152,-14380,-15704,27980.26,26.69,-1.00,-1.0,2420
1149,1149,9528,12192,16628,22713.83,26.79,-1.00,-1.0,2367
1154,1154,19616,16444,21532,33448.76,26.84,-1.00,-1.0,2426
1157,1157,15988,-6488,-7852,18956.90,26.93,-1.00,-1.0,2365
1160,1160,21776,1656,6412,22760.72,26.84,-1.00,-1.0,2421
1163,1163,14420,-10600,-25044,30781.46,26.88,-1.00,-1.0,2371
1165,1165,18788,-3108,8436,20828.22,26.74,-1.00,-1.0,2429
1168,1168,18976,15728,19404,31368.36,26.88,-1.00,-1.0,2375
1171,1171,10192,5248,15160,19006.42,26.84,-1.00,-1.0,2428
1174,1174,21492,6288,11668,25250.49,26.88,-1.00,-1.0,2366
1177,1177,16660,-10400,-19072,27376.21,26.79,-1.00,-1.0,2362
1181,1181,14920,-14528,-22804,30881.90,26.88,-1.00,-1.0,2426
1184,1184,10928,3520,17796,21178.04,26.74,-1.00,-1.0,2365
1187,1187,17968,-5992,5228,19649.05,26.84,-1.00,-1.0,2419
1190,1190,16280,13808,17128,27369.10,26.74,-1.00,-1.0,2375
1192,1192,16776,1060,5736,17761.18,26.84,-1.00,-1.0,2425
1195,1195,17640,-17284,-23676,34211.98,26.84,-1.00,-1.0,2373
1198,1198,17192,-4656,-18360,25579.93,26.84,-1.00,-1.0,2421
1201,1201,18940,-9796,-5364,21987.67,26.79,-1.00,-1.0,2368
1205,1205,8900,-5548,-6132,12148.73,26.79,-1.00,-1.0,2428
1208,1208,18264,6460,16960,25747.76,26.84,-1.00,-1.0,2362
1211,1211,16212,-4096,-2888,16968.99,26.88,-1.00,-1.0,2420
1214,1214,15976,14388,24900,32897.68,26.93,-1.00,-1.0,2370
1216,1216,21440,-1440,-5816,22261.47,26.79,-1.00,-1.0,2362
1219,1219,12912,-16896,-20816,29757.36,26.88,-1.00,-1.0,2419
1222,1222,21096,-2792,-1072,21306.94,26.88,-1.00,-1.0,2367
1225,1225,17084,-3560,-7880,19147.61,26.74,-1.00,-1.0,2430
1228,1228,14592,11804,24156,30590.41,26.74,-1.00,-1.0,2370
1233,1233,13496,10416,11400,20508.41,26.84,-1.00,-1.0,2428
1235,1235,17000,-2988,8520,19248.86,26.79,-1.00,-1.0,2364
1238,1238,18556,-948,-8468,20418.88,26.88,-1.00,-1.0,2421
1241,1241,17120,-6064,1248,18205.05,26.79,-1.00,-1.0,2369
1243,1243,20544,-7684,-14704,26406.58,26.79,-1.00,-1.0,2415
1246,1246,14668,-3580,552,15108.65,26.74,-1.00,-1.0,2374
1249,1249,15264,13284,24576,31834.48,26.79,-1.00,-1.0,2420
1252,1252,16924,-3772,6172,18404.98,26.84,-1.00,-1.0,2370
1255,1255,17468,8244,13352,23481.28,26.74,-1.00,-1.0,2362
1260,1260,12700,4156,7604,15374.76,26.74,-1.00,-1.0,2427
1262,1262,19684,-12388,3052,23457.13,26.79,-1.00,-1.0,2363
1265,1265,15348,-828,-16968,22894.54,26.79,-1.00,-1.0,2418
1268,1268,20812,-900,-4612,21335.88,26.79,-1.00,-1.0,2370
1270,1270,17488,-14416,-7824,23976.37,26.79,-1.00,-1.0,2419
1273,1273,11456,-1504,-11460,16273.71,26.84,-1.00,-1.0,2370
1276,1276,18844,-7480,10676,22913.40,26.79,-1.00,-1.0,2421
1279,1279,13180,-11680,-11572,21072.40,26.88,-1.00,-1.0,2366
1284,1284,14584,-17768,-17336,28791.18,26.84,-1.00,-1.0,2431
1286,1286,14608,1660,11604,18729.71,26.93,-1.00,-1.0,2365
1289,1289,19576,11576,7604,23980.08,26.84,-1.00,-1.0,2420
1292,1292,21512,-8836,6416,24124.80,26.88,-1.00,-1.0,2369
1294,1294,16332,15240,10216,24563.36,26.93,-1.00,-1.0,2364
1297,1297,21256,5836,12564,25371.85,26.84,-1.00,-1.0,2432
1300,1300,19604,-3608,7356,21247.24,26.84,-1.00,-1.0,2370
1303,1303,18252,9188,13036,24238.24,26.88,-1.00,-1.0,2421
1306,1306,14572,36,-5108,15441.38,26.79,-1.00,-1.0,2365
1310,1310,16240,14476,2776,21931.67,26.79,-1.00,-1.0,2426
1313,1313,21808,-4060,3728,22493.79,26.88,-1.00,-1.0,2365
1316,1316,16764,-8972,-11368,22153.10,26.69,-1.00,-1.0,2421
1319,1319,13144,4596,-6580,15400.79,26.79,-1.00,-1.0,2371
1321,1321,17260,-21096,-16144,31679.29,26.79,-1.00,-1.0,2428
1324,1324,12236,-14772,-20044,27743.35,26.84,-1.00,-1.0,2375
1327,1327,15196,-1196,-15208,21532.12,26.79,-1.00,-1.0,2361
1330,1330,20616,-18924,-10116,29756.86,26.74,-1.00,-1.0,2420
1333,1333,12032,-836,-7400,14150.19,26.79,-1.00,-1.0,2365
1337,1337,20052,-18512,-8524,28590.83,26.74,-1.00,-1.0,2427
1340,1340,12428,3196,3904,13413.08,26.79,-1.00,-1.0,2364
1343,1343,17760,13832,16064,27654.91,26.69,-1.00,-1.0,2420
1346,1346,23700,-18352,-3292,30154.99,26.79,-1.00,-1.0,2375
1348,1348,11780,12884,8012,19208.28,26.69,-1.00,-1.0,2426
1351,1351,19524,11072,23252,32317.66,26.74,-1.00,-1.0,2365
1354,1354,20864,2892,16012,26458.54,26.79,-1.00,-1.0,2425
1357,1357,12952,19560,21032,31507.03,26.84,-1.00,-1.0,2364
1362,1362,21644,-13192,4716,25782.40,26.84,-1.00,-1.0,2428
1364,1364,12704,17860,16600,27494.20,26.79,-1.00,-1.0,2371
1367,1367,19188,3064,15584,24908.40,26.93,-1.00,-1.0,2361
1370,1370,22100,-3992,11012,25012.20,26.74,-1.00,-1.0,2421
1372,1372,15408,26116,32767,44644.46,26.79,-1.00,-1.0,2372
1375,1375,19196,2220,9036,21332.23,26.84,-1.00,-1.0,2419
1378,1378,16724,-4744,1500,17448.43,26.88,-1.00,-1.0,2352
1381,1381,14568,18740,21348,31924.15,26.79,-1.00,-1.0,2428
1384,1384,18292,-1880,3448,18708.83,26.74,-1.00,-1.0,2362
1389,1389,14988,25992,24672,38844.97,26.84,-1.00,-1.0,2427
1391,1391,20404,-11844,1048,23615.71,26.69,-1.00,-1.0,2370
1394,1394,15380,-2056,-5236,16376.42,26.74,-1.00,-1.0,2422
1397,1397,15068,-7164,-23880,29131.12,26.79,-1.00,-1.0,2373
1400,1400,18612,-4296,3504,19420.10,26.88,-1.00,-1.0,2426
1402,1402,15384,-8196,-4180,17925.24,26.79,-1.00,-1.0,2367
1405,1405,13204,-656,-20520,24409.96,26.79,-1.00,-1.0,2362
1408,1408,23820,-19856,-6244,31632.90,26.79,-1.00,-1.0,2428
1411,1411,8504,4024,296,9412.66,26.79,-1.00,-1.0,2372
1416,1416,20500,-10296,-380,22943.45,26.84,-1.00,-1.0,2427
1418,1418,15800,-5928,-4932,17581.40,26.93,-1.00,-1.0,2371
1421,1421,13064,1604,-20956,24746.61,26.84,-1.00,-1.0,2421
1424,1424,24472,-21864,-5156,33218.93,26.84,-1.00,-1.0,2369
1427,1427,14656,-4952,-8848,17821.55,26.84,-1.00,-1.0,2422
1429,1429,14512,-384,-24672,28626.09,26.88,-1.00,-1.0,2370
1432,1432,30708,-16840,8752,36099.37,26.84,-1.00,-1.0,2434
1435,1435,10032,9556,-7288,15654.81,26.88,-1.00,-1.0,2363
1438,1438,17620,7800,17592,26091.82,26.79,-1.00,-1.0,2357
1443,1443,15568,-4908,-7432,17935.60,26.88,-1.00,-1.0,2428
1445,1445,16600,3692,-18596,25199.25,26.84,-1.00,-1.0,2365
1448,1448,29956,-22252,-1748,37357.32,26.74,-1.00,-1.0,2421
1451,1451,5920,-8140,-32768,34278.97,26.74,-1.00,-1.0,2367
1454,1454,17588,9708,-8604,21854.33,26.84,-1.00,-1.0,2423
1456,1456,28152,-10584,7792,31068.82,26.79,-1.00,-1.0,2368
1459,1459,14928,1104,-12284,19363.90,26.93,-1.00,-1.0,2434
1462,1462,13204,1068,-13648,19019.84,26.79,-1.00,-1.0,2374
1467,1467,9076,-7608,-24064,26820.36,26.79,-1.00,-1.0,2429
1469,1469,16132,24208,16768,33577.29,26.79,-1.00,-1.0,2362
1472,1472,23324,-8308,12672,27813.87,26.98,-1.00,-1.0,2421
1475,1475,12168,-1412,3760,12813.73,26.84,-1.00,-1.0,2368
1477,1477,8132,28780,13788,32932.15,26.88,-1.00,-1.0,2357
1480,1480,22972,-1744,20052,30542.38,26.88,-1.00,-1.0,2420
1483,1483,16808,4460,11800,21015.24,26.84,-1.00,-1.0,2365
1486,1486,13472,20920,14076,28588.02,26.74,-1.00,-1.0,2406
1489,1489,24416,-1524,17156,29879.62,26.93,-1.00,-1.0,2370
1494,1494,9320,15856,4300,18888.23,26.84,-1.00,-1.0,2463
1497,1497,16036,-4564,-4704,17323.71,26.84,-1.00,-1.0,2365
1499,1499,21200,-15024,-4604,26388.58,26.74,-1.00,-1.0,2401
1502,1502,8064,-5640,-15732,18556.23,26.84,-1.00,-1.0,2383
1505,1505,10724,-3496,-2224,11496.62,26.74,-1.00,-1.0,2421
1508,1508,28324,-10468,4588,30543.05,26.84,-1.00,-1.0,2367
1510,1510,14432,0,-9064,17042.26,26.84,-1.00,-1.0,2350
1513,1513,14180,-4540,-12740,19595.70,26.93,-1.00,-1.0,2418
1516,1516,22188,-19560,-6200,30221.53,26.93,-1.00,-1.0,2367
1521,1521,13260,9484,-776,16321.03,26.84,-1.00,-1.0,2423
1524,1524,23604,10392,15796,30243.28,26.84,-1.00,-1.0,2364
1526,1526,17996,640,14736,23268.33,26.93,-1.00,-1.0,2421
1529,1529,8884,21064,16100,27961.18,26.79,-1.00,-1.0,2370
1532,1532,18900,3720,18268,26547.47,26.74,-1.00,-1.0,2423
1534,1534,22720,-26048,-3404,34731.60,26.88,-1.00,-1.0,2366
1537,1537,10260,2888,-18748,21566.08,26.79,-1.00,-1.0,2419
1540,1540,20496,-3192,-8696,22492.12,26.84,-1.00,-1.0,2370
1545,1545,13076,8424,-1272,15606.52,26.88,-1.00,-1.0,2434
1547,1547,11096,14760,3864,18865.56,26.74,-1.00,-1.0,2371
1550,1550,19332,-6064,12324,23714.54,26.88,-1.00,-1.0,2361
1553,1553,15256,-4056,5820,16824.66,26.79,-1.00,-1.0,2423
1555,1555,6204,2336,-24968,25833.07,26.79,-1.00,-1.0,2368
1558,1558,19888,-7124,-8100,22625.07,26.79,-1.00,-1.0,2420
1561,1561,26420,-25512,-5628,37155.79,26.79,-1.00,-1.0,2368
1564,1564,9188,2316,-23996,25799.05,26.88,-1.00,-1.0,2420
1567,1567,24532,2672,7504,25792.80,26.79,-1.00,-1.0,2365
1572,1572,7876,10028,7528,14807.53,26.74,-1.00,-1.0,2435
1575,1575,13936,10804,-5788,18559.08,26.84,-1.00,-1.0,2366
1577,1577,21336,-15460,-5032,26824.57,26.74,-1.00,-1.0,2427
1580,1580,22820,-14064,-7148,27742.43,26.84,-1.00,-1.0,2365
1583,1583,8104,16408,4000,18732.25,26.84,-1.00,-1.0,2359
1585,1585,11908,23320,22732,34675.16,26.88,-1.00,-1.0,2426
1588,1588,27464,-7772,24104,37358.77,26.74,-1.00,-1.0,2364
1591,1591,5056,9648,-2660,11212.61,26.84,-1.00,-1.0,2414
1594,1594,10204,13180,11344,20162.35,26.69,-1.00,-1.0,2365
1599,1599,24128,-10028,-1780,26189.49,26.79,-1.00,-1.0,2433
1602,1602,8732,10740,-2196,14014.92,26.84,-1.00,-1.0,2365
1604,1604,3272,6408,-5560,9092.97,26.88,-1.00,-1.0,2426
1607,1607,21496,-25888,18396,38349.44,26.74,-1.00,-1.0,2364
1610,1610,4252,-7740,-20120,21972.74,26.93,-1.00,-1.0,2428
1612,1612,19196,27972,6776,34595.28,26.74,-1.00,-1.0,2366
1615,1615,25904,5176,14652,30207.44,26.79,-1.00,-1.0,2369
1618,1618,23460,-8096,7784,26009.76,26.84,-1.00,-1.0,2419
1621,1621,9732,14696,6716,18862.37,26.84,-1.00,-1.0,2366
1626,1626,32767,-19384,8880,39093.10,26.79,-1.00,-1.0,2435
1629,1629,23436,8044,5988,25491.34,26.88,-1.00,-1.0,2371
1631,1631,1384,9416,-12272,15529.92,26.79,-1.00,-1.0,2426
1634,1634,-1484,-320,-1764,2327.31,26.79,-1.00,-1.0,2372
1637,1637,16856,-32768,3100,36979.41,26.88,-1.00,-1.0,2425
1639,1639,27212,15960,8244,32606.41,26.93,-1.00,-1.0,2367
1642,1642,27172,28356,8512,40185.00,26.79,-1.00,-1.0,2422
1645,1645,17924,-3980,3692,18728.08,26.84,-1.00,-1.0,2366
1648,1648,14420,-11552,19796,27078.90,26.84,-1.00,-1.0,2363
1653,1653,22160,19864,828,29771.29,26.84,-1.00,-1.0,2435
1656,1656,32767,-7860,17956,38182.11,26.79,-1.00,-1.0,2369
1658,1658,13332,-26108,4004,29587.19,26.93,-1.00,-1.0,2421
1661,1661,8232,3652,4320,9988.26,26.79,-1.00,-1.0,2376
1664,1664,9648,12096,-10140,18499.10,26.79,-1.00,-1.0,2421
1667,1667,25324,-8956,23828,35906.66,26.88,-1.00,-1.0,2367
1669,1669,15272,-11864,5972,20239.89,26.88,-1.00,-1.0,2422
1672,1672,15220,6440,8172,18436.47,26.88,-1.00,-1.0,2367
1677,1677,22860,-11624,3120,25834.69,26.84,-1.00,-1.0,2434
1680,1680,15312,-5772,3088,16652.60,26.84,-1.00,-1.0,2364
1682,1682,14840,800,-5948,16007.63,26.84,-1.00,-1.0,2357
1685,1685,14572,24104,10788,30161.68,26.79,-1.00,-1.0,2418
1688,1688,18468,-13456,5156,23424.67,26.74,-1.00,-1.0,2365
1690,1690,25372,-12824,704,28437.46,26.84,-1.00,-1.0,2415
1693,1693,15776,7244,-8960,19535.59,26.84,-1.00,-1.0,2369
1696,1696,14628,14792,5696,21569.10,26.79,-1.00,-1.0,2434
1699,1699,13944,-19672,4256,24485.43,26.69,-1.00,-1.0,2374
1704,1704,17508,8064,-1704,19351.02,26.88,-1.00,-1.0,2433
1707,1707,12180,1804,-4980,13281.84,26.84,-1.00,-1.0,2365
1709,1709,20148,10404,16692,28156.85,26.84,-1.00,-1.0,2412
1712,1712,22844,-6388,6240,24527.38,26.84,-1.00,-1.0,2370
1715,1715,16680,8392,8360,20458.19,26.74,-1.00,-1.0,2362
1717,1717,14420,-712,-8420,16713.46,26.79,-1.00,-1.0,2417
1720,1720,16180,10640,9896,21747.02,26.84,-1.00,-1.0,2366
1723,1723,19964,-4020,21948,29940.55,26.84,-1.00,-1.0,2427
1726,1726,16104,-5476,-4768,17665.20,26.88,-1.00,-1.0,2380
1731,1731,12800,-1148,708,12870.87,26.84,-1.00,-1.0,2446
1734,1734,16400,-15856,2468,22944.80,26.74,-1.00,-1.0,2367
1736,1736,20484,-2744,5324,21341.71,26.84,-1.00,-1.0,2421
1739,1739,17384,6144,6632,19594.28,26.79,-1.00,-1.0,2374
1742,1742,13996,-2680,-15244,20867.44,26.84,-1.00,-1.0,2420
1745,1745,20876,-2688,14736,25694.02,26.88,-1.00,-1.0,2368
1747,1747,17940,1888,26496,32053.80,26.93,-1.00,-1.0,2365
1750,1750,18552,4828,6440,20222.76,26.84,-1.00,-1.0,2428
1753,1753,11884,16976,3716,21052.86,26.84,-1.00,-1.0,2375
1758,1758,18816,-9136,6204,21817.38,26.84,-1.00,-1.0,2434
1761,1761,18740,-2624,-1352,18971.05,26.74,-1.00,-1.0,2370
1763,1763,19308,4412,3184,20059.97,26.84,-1.00,-1.0,2421
1766,1766,17268,17576,13152,27929.82,26.84,-1.00,-1.0,2370
1769,1769,14992,5952,16368,22980.38,26.84,-1.00,-1.0,2421
1771,1771,20812,-428,22692,30793.66,26.79,-1.00,-1.0,2366
1774,1774,16960,-2512,-464,17151.30,26.79,-1.00,-1.0,2420
1777,1777,9748,8720,-13840,19042.26,26.84,-1.00,-1.0,2369
1780,1780,14080,-14452,2220,20298.65,26.93,-1.00,-1.0,2365
1785,1785,21916,3936,16216,27545.63,26.84,-1.00,-1.0,2449
1788,1788,11208,340,-19896,22838.25,26.79,-1.00,-1.0,2366
1791,1791,14520,3768,6376,16299.74,26.84,-1.00,-1.0,2415
1793,1793,17776,-8132,21376,28966.34,26.88,-1.00,-1.0,2353
1796,1796,24088,6996,17620,30653.55,26.79,-1.00,-1.0,2420
1799,1799,17556,480,-12528,21573.00,26.84,-1.00,-1.0,2367
1801,1801,10564,7804,-4920,14025.22,26.79,-1.00,-1.0,2419
1804,1804,17376,-11076,4624,21118.35,26.88,-1.00,-1.0,2366
1809,1809,18612,-2112,3384,19034.67,26.74,-1.00,-1.0,2442
1812,1812,12176,5860,-14664,19940.60,26.84,-1.00,-1.0,2372
1814,1814,13764,6016,-3900,15519.34,26.74,-1.00,-1.0,2363
1817,1817,18204,-15720,6216,24842.36,26.79,-1.00,-1.0,2418
1820,1820,20616,-4296,6596,22067.68,26.74,-1.00,-1.0,2369
1823,1823,20484,9036,-2668,22546.88,26.74,-1.00,-1.0,2421
1825,1825,8164,7612,-7760,13594.52,26.84,-1.00,-1.0,2368
1828,1828,12092,-10832,11996,20185.46,26.79,-1.00,-1.0,2405
1831,1831,17612,-3352,13856,22658.49,26.79,-1.00,-1.0,2368
1836,1836,16100,13260,-3184,21099.18,26.79,-1.00,-1.0,2440
1839,1839,16016,-3848,-308,16474.65,26.74,-1.00,-1.0,2372
1842,1842,16872,-8320,11344,21967.55,26.74,-1.00,-1.0,2425
1844,1844,22924,608,14328,27040.17,26.84,-1.00,-1.0,2368
1847,1847,16532,8148,-7404,19862.43,26.79,-1.00,-1.0,2364
1850,1850,17060,2768,-1740,17370.46,26.88,-1.00,-1.0,2422
1852,1852,15612,-3792,9644,18738.21,26.84,-1.00,-1.0,2376
1855,1855,17768,-11264,3104,21265.33,26.84,-1.00,-1.0,2419
1858,1858,16584,3160,-3712,17285.65,26.79,-1.00,-1.0,2367
1863,1863,15888,-2704,3600,16513.63,26.88,-1.00,-1.0,2433
1866,1866,18432,-592,12496,22276.43,26.88,-1.00,-1.0,2369
1869,1869,18312,264,460,18319.68,26.88,-1.00,-1.0,2427
1871,1871,17004,3428,-7964,19086.97,26.74,-1.00,-1.0,2371
1874,1874,18500,-2228,-9484,20908.38,26.88,-1.00,-1.0,2435
1877,1877,18188,-6048,7552,20601.32,26.74,-1.00,-1.0,2369
1879,1879,21344,3692,10832,24218.37,26.88,-1.00,-1.0,2369
1882,1882,14148,2196,688,14333.93,26.74,-1.00,-1.0,2422
1885,1885,18744,-2608,-2468,19084.82,26.74,-1.00,-1.0,2367
1890,1890,15864,2896,14208,21492.34,26.74,-1.00,-1.0,2432
1893,1893,17752,-5656,732,18645.63,26.79,-1.00,-1.0,2365
1896,1896,14480,10816,5624,18928.43,26.79,-1.00,-1.0,2417
1898,1898,15972,3648,10252,19326.57,26.88,-1.00,-1.0,2377
1901,1901,15816,-3280,6196,17300.13,26.79,-1.00,-1.0,2412
1904,1904,22528,-928,10460,24855.25,26.84,-1.00,-1.0,2363
1907,1907,11856,10912,-7548,17793.50,26.84,-1.00,-1.0,2418
1909,1909,15380,-4108,-3864,16381.41,26.84,-1.00,-1.0,2368
1912,1912,19132,-4328,6376,20625.67,26.84,-1.00,-1.0,2363
1917,1917,15208,-1032,1340,15301.76,26.84,-1.00,-1.0,2421
1920,1920,14140,3972,-1352,14749.38,26.88,-1.00,-1.0,2364
1923,1923,19032,-4032,6112,20391.92,26.79,-1.00,-1.0,2417
1925,1925,17784,-3048,5452,18849.01,26.79,-1.00,-1.0,2375
1928,1928,16072,-4944,-4096,17306.92,26.79,-1.00,-1.0,2413
1931,1931,14224,11436,1748,18334.66,26.79,-1.00,-1.0,2362
1934,1934,21852,-7312,6792,24023.04,26.84,-1.00,-1.0,2420
1936,1936,16080,1256,3024,16410.01,26.84,-1.00,-1.0,2368
1941,1941,16552,1296,1560,16675.79,26.79,-1.00,-1.0,2434
1944,1944,16264,5428,4396,17700.44,26.84,-1.00,-1.0,2363
1947,1947,20172,-6912,2872,21515.89,26.93,-1.00,-1.0,2355
1949,1949,14800,628,1856,14929.14,26.88,-1.00,-1.0,2419
1952,1952,15696,-288,800,15719.01,26.74,-1.00,-1.0,2365
1955,1955,16956,2192,664,17109.99,26.74,-1.00,-1.0,2421
1957,1957,19004,-4404,4568,20035.31,26.84,-1.00,-1.0,2367
1960,1960,16888,412,1920,17001.79,26.79,-1.00,-1.0,2427
1963,1963,15292,5272,5968,17241.12,26.88,-1.00,-1.0,2371
1968,1968,16968,-3980,2468,17602.40,26.88,-1.00,-1.0,2448
1971,1971,16760,-420,3688,17166.11,26.88,-1.00,-1.0,2372
1973,1973,16592,1432,4508,17253.03,26.88,-1.00,-1.0,2365
1976,1976,16372,1360,1000,16458.80,26.74,-1.00,-1.0,2426
1979,1979,16564,-1620,-3180,16944.11,26.79,-1.00,-1.0,2374
1982,1982,17788,-1608,3984,18299.48,26.98,-1.00,-1.0,2427
1984,1984,18192,2288,3948,18755.55,26.88,-1.00,-1.0,2378
1987,1987,16244,-2520,624,16450.15,26.74,-1.00,-1.0,2424
1990,1990,14796,-1704,-2036,15032.32,26.79,-1.00,-1.0,2376
1995,1995,17700,628,4104,18180.41,26.79,-1.00,-1.0,2437
1998,1998,16560,-3020,8,16833.12,26.74,-1.00,-1.0,2364
2001,2001,15036,704,1260,15105.12,26.79,-1.00,-1.0,2355
2003,2003,16268,3764,5764,17664.63,26.88,-1.00,-1.0,2421
2006,2006,19368,-3840,2680,19926.05,26.79,-1.00,-1.0,2366
2009,2009,16964,-1744,-1784,17146.47,26.79,-1.00,-1.0,2419
2011,2011,17544,-2864,-1564,17844.90,26.84,-1.00,-1.0,2366
2014,2014,17408,1180,-204,17449.14,26.93,-1.00,-1.0,2421
2017,2017,19692,-5708,-516,20509.08,26.74,-1.00,-1.0,2374
2022,2022,15880,364,-6912,17322.89,26.79,-1.00,-1.0,2437
2025,2025,14140,52,1052,14179.17,26.79,-1.00,-1.0,2364
2028,2028,18044,788,13244,22396.66,26.88,-1.00,-1.0,2360
2030,2030,17664,3540,4168,18491.10,26.84,-1.00,-1.0,2427
2033,2033,16700,6884,3508,18400.69,26.88,-1.00,-1.0,2364
2036,2036,16016,-676,7192,17569.69,26.88,-1.00,-1.0,2422
2038,2038,17600,4268,10748,21059.33,26.93,-1.00,-1.0,2366
2041,2041,16068,1700,1580,16234.75,26.84,-1.00,-1.0,2422
2044,2044,16940,-3096,732,17236.14,26.84,-1.00,-1.0,2369
2049,2049,16628,2364,3716,17201.38,26.93,-1.00,-1.0,2444
2052,2052,17016,2424,9436,19607.60,26.79,-1.00,-1.0,2364
2055,2055,18108,3944,11112,21608.59,26.84,-1.00,-1.0,2358
2057,2057,14240,1832,-1620,14448.47,26.84,-1.00,-1.0,2425
2060,2060,16404,5212,10532,20178.68,26.84,-1.00,-1.0,2373
2063,2063,20628,4348,10704,23643.08,26.84,-1.00,-1.0,2423
2065,2065,16660,764,-1624,16756.39,26.88,-1.00,-1.0,2367
2068,2068,16160,-6768,-5064,18237.20,26.84,-1.00,-1.0,2418
2071,2071,16608,-5972,-3276,17950.56,26.84,-1.00,-1.0,2369
2076,2076,16120,-1136,-648,16172.96,26.74,-1.00,-1.0,2442
2079,2079,15768,-3936,1424,16314.09,26.84,-1.00,-1.0,2370
2082,2082,15796,-3440,-1072,16201.74,26.84,-1.00,-1.0,2422
2084,2084,15444,-1672,1268,15585.91,26.88,-1.00,-1.0,2367
2087,2087,16336,-4492,-2304,17098.29,26.84,-1.00,-1.0,2375
2090,2090,15644,-528,1084,15690.40,26.74,-1.00,-1.0,2410
2093,2093,17824,308,7960,19523.10,26.74,-1.00,-1.0,2366
2095,2095,17788,3816,3972,18621.27,26.88,-1.00,-1.0,2419
2098,2098,18316,-324,2648,18509.26,26.88,-1.00,-1.0,2366
2103,2103,17136,-1516,-2904,17446.32,26.84,-1.00,-1.0,2440
2106,2106,17416,380,3520,17772.22,26.93,-1.00,-1.0,2377
2109,2109,17488,-2012,-1448,17662.81,26.84,-1.00,-1.0,2419
2112,2112,16272,-3912,-280,16737.98,26.84,-1.00,-1.0,2366
2114,2114,15856,160,5312,16722.91,26.93,-1.00,-1.0,2432
2117,2117,16036,288,1872,16147.46,26.79,-1.00,-1.0,2367
2120,2120,15540,4736,9440,18789.22,26.84,-1.00,-1.0,2363
2123,2123,18368,4284,11900,22301.26,26.84,-1.00,-1.0,2419
2125,2125,18720,-3680,-6296,20090.31,26.79,-1.00,-1.0,2367
2130,2130,17268,-7664,-5428,19656.65,26.69,-1.00,-1.0,2436
2133,2133,20300,-1628,-652,20375.61,26.79,-1.00,-1.0,2371
2136,2136,16448,-2556,-4356,17205.95,26.79,-1.00,-1.0,2418
2139,2139,15648,2560,10940,19263.88,26.84,-1.00,-1.0,2374
2141,2141,15500,2712,5108,16543.78,26.74,-1.00,-1.0,2426
2144,2144,16972,6468,13428,22587.50,26.84,-1.00,-1.0,2368
2147,2147,19500,2404,6684,20753.44,26.79,-1.00,-1.0,2363
2150,2150,16564,-3204,-5704,17809.19,26.84,-1.00,-1.0,2418
2152,2152,16400,268,6380,17599.32,26.74,-1.00,-1.0,2368
2157,2157,17576,7912,13640,23612.82,26.84,-1.00,-1.0,2436
2160,2160,16848,-280,6292,17986.74,26.93,-1.00,-1.0,2364
2163,2163,16184,2668,4876,17111.85,26.93,-1.00,-1.0,2424
2165,2165,16696,-7396,-4084,18711.93,26.79,-1.00,-1.0,2367
2168,2168,16248,1276,2392,16472.62,26.79,-1.00,-1.0,2407
2171,2171,15096,-5744,-6072,17255.49,26.84,-1.00,-1.0,2425
2174,2174,17208,-872,7772,18901.84,26.79,-1.00,-1.0,2422
2177,2177,16528,1860,1236,16678.19,26.84,-1.00,-1.0,2371
2180,2180,16956,-14260,-12704,25539.09,26.74,-1.00,-1.0,2363
2184,2184,14664,1304,2632,14955.29,26.84,-1.00,-1.0,2433
2187,2187,14024,-8132,-4764,16896.68,26.84,-1.00,-1.0,2365
2190,2190,15940,8228,17548,25094.14,26.84,-1.00,-1.0,2421
2192,2192,18516,108,1260,18559.14,26.88,-1.00,-1.0,2371
2195,2195,14540,-9164,-9020,19410.07,26.84,-1.00,-1.0,2418
2198,2198,14296,-4016,-12672,19521.36,26.79,-1.00,-1.0,2369
2201,2201,15776,-92,13656,20865.69,26.88,-1.00,-1.0,2420
2204,2204,18028,5356,6416,19871.10,26.84,-1.00,-1.0,2366
2209,2209,19324,-11056,-13212,25888.40,26.84,-1.00,-1.0,2432
2211,2211,14256,5308,8508,17429.70,26.84,-1.00,-1.0,2364
2214,2214,13072,-10336,-768,16682.32,26.84,-1.00,-1.0,2361
2217,2217,17244,7180,13624,23119.72,26.88,-1.00,-1.0,2416
2219,2219,17296,-10464,-14296,24759.29,26.93,-1.00,-1.0,2366
2222,2222,20844,-3928,-5328,21869.82,26.74,-1.00,-1.0,2413
2225,2225,11900,-1200,-88,11960.67,26.84,-1.00,-1.0,2367
2228,2228,22508,11120,22560,33752.30,26.79,-1.00,-1.0,2427
2231,2231,16220,-4088,-13236,21330.54,26.79,-1.00,-1.0,2376
2238,2238,13108,-4452,-4480,14550.27,26.84,-1.00,-1.0,2432
2241,2241,24044,7952,19260,31816.60,26.74,-1.00,-1.0,2364
2243,2243,16576,-3568,-16184,23439.63,26.84,-1.00,-1.0,2417
2246,2246,16768,3880,19448,25970.08,26.84,-1.00,-1.0,2364
2249,2249,11152,1052,9080,14419.44,26.84,-1.00,-1.0,2420
2252,2252,18964,5088,2928,19851.81,26.88,-1.00,-1.0,2371
2254,2254,14056,-17000,-12396,25302.80,26.84,-1.00,-1.0,2362
2257,2257,15348,-5136,-18124,24298.54,26.84,-1.00,-1.0,2419
2260,2260,19404,8888,26084,33702.92,26.88,-1.00,-1.0,2370
2265,2265,17672,3496,1488,18075.83,26.79,-1.00,-1.0,2435
2267,2267,14232,-13060,-5684,20135.08,26.74,-1.00,-1.0,2366
2270,2270,15584,8428,9076,19906.43,26.98,-1.00,-1.0,2423
2273,2273,20696,3136,15272,25911.25,26.84,-1.00,-1.0,2368
2276,2276,16496,-1288,-8772,18727.65,26.79,-1.00,-1.0,2418
2278,2278,16764,516,11708,20454.22,26.84,-1.00,-1.0,2367
2281,2281,16688,-1632,8992,19026.53,26.84,-1.00,-1.0,2418
2284,2284,15580,4880,-1144,16366.42,26.84,-1.00,-1.0,2368
2286,2286,16616,-5412,11856,21117.43,26.84,-1.00,-1.0,2362
2291,2291,20192,3168,13036,24242.33,26.84,-1.00,-1.0,2432
2294,2294,21676,4008,16216,27365.52,26.93,-1.00,-1.0,2367
2297,2297,15712,1184,-7252,17345.32,26.84,-1.00,-1.0,2416
2299,2299,16636,-1768,13240,21334.95,26.79,-1.00,-1.0,2378
2302,2302,14964,1276,-2308,15194.62,26.74,-1.00,-1.0,2426
2305,2305,20472,-2896,1532,20732.50,26.79,-1.00,-1.0,2378
2308,2308,12800,2888,3872,13681.12,26.93,-1.00,-1.0,2429
2310,2310,21492,-2884,3812,22017.15,26.88,-1.00,-1.0,2371
2315,2315,13188,748,-2480,13439.99,26.84,-1.00,-1.0,2434
2318,2318,16064,-9548,-2524,18857.01,26.84,-1.00,-1.0,2366
2320,2320,14868,8876,9708,19851.60,26.69,-1.00,-1.0,2358
2323,2323,18404,-10180,-4356,21478.23,26.88,-1.00,-1.0,2419
2326,2326,18744,-6564,-8560,21626.31,26.84,-1.00,-1.0,2366
2329,2329,14528,7124,9036,18532.77,26.79,-1.00,-1.0,2415
2331,2331,19672,-10492,-5556,22976.92,26.93,-1.00,-1.0,2375
2334,2334,11816,1080,-988,11906.32,26.84,-1.00,-1.0,2418
2337,2337,19364,-1980,10860,22289.56,26.74,-1.00,-1.0,2357
2342,2342,18660,1440,-352,18718.79,26.74,-1.00,-1.0,2439
2344,2344,16016,-6796,-2280,17546.97,26.79,-1.00,-1.0,2366
2347,2347,15784,9608,8000,20135.75,26.88,-1.00,-1.0,2417
2350,2350,17348,-13232,-2168,21925.76,26.88,-1.00,-1.0,2367
2353,2353,13392,5388,-10952,18119.67,26.88,-1.00,-1.0,2357
2355,2355,19784,-4124,12036,23521.89,26.74,-1.00,-1.0,2418
2358,2358,12972,2060,-5476,14230.35,26.79,-1.00,-1.0,2367
2361,2361,17648,1872,1212,17788.35,26.79,-1.00,-1.0,2421
2363,2363,19108,5728,11184,22869.36,26.84,-1.00,-1.0,2357
2368,2368,19072,-19840,-7896,28630.64,26.79,-1.00,-1.0,2439
2371,2371,9704,6652,-3948,12409.81,26.93,-1.00,-1.0,2379
2374,2374,22444,3836,14856,27187.29,26.84,-1.00,-1.0,2402
2377,2377,17760,8280,-984,19620.00,26.79,-1.00,-1.0,2369
2379,2379,20004,2120,11896,23370.26,26.84,-1.00,-1.0,2421
2382,2382,16172,-4052,-7580,18314.17,26.88,-1.00,-1.0,2368
2385,2385,13252,7232,-320,15100.32,26.84,-1.00,-1.0,2363
2387,2387,19516,-7904,8524,22715.77,26.84,-1.00,-1.0,2427
2390,2390,14112,3604,-7792,16518.25,26.84,-1.00,-1.0,2368
2395,2395,19192,548,2628,19378.84,26.84,-1.00,-1.0,2421
2397,2397,18244,-12,-552,18252.35,26.79,-1.00,-1.0,2366
2400,2400,18768,7904,15960,25873.40,26.88,-1.00,-1.0,2417
2403,2403,16076,4816,2740,17004.09,26.79,-1.00,-1.0,2368
2406,2406,17724,-18208,-4196,25754.18,26.79,-1.00,-1.0,2416
2408,2408,12200,6824,6908,15592.54,26.74,-1.00,-1.0,2373
2411,2411,19660,-6692,352,20770.71,26.88,-1.00,-1.0,2361
2414,2414,15088,2156,-2752,15487.72,26.74,-1.00,-1.0,2425
2417,2417,20112,-4656,8940,22496.54,26.74,-1.00,-1.0,2375
2422,2422,18548,-200,-5724,19412.17,26.88,-1.00,-1.0,2438
2424,2424,13968,-6900,4540,16227.34,26.79,-1.00,-1.0,2368
2427,2427,14196,3808,2808,14963.69,26.88,-1.00,-1.0,2417
2430,2430,16060,-4900,5292,17605.08,26.88,-1.00,-1.0,2367
2433,2433,11036,7320,-4348,13938.46,26.79,-1.00,-1.0,2421
2435,2435,20788,-13052,480,24550.48,26.74,-1.00,-1.0,2371
2438,2438,10524,7360,3508,13312.79,26.84,-1.00,-1.0,2433
2441,2441,18892,892,10984,21871.25,26.84,-1.00,-1.0,2378
2444,2444,19096,11712,10872,24900.37,26.93,-1.00,-1.0,2373
2449,2449,14572,-19136,-1752,24116.37,26.84,-1.00,-1.0,2439
2451,2451,15608,3132,-96,15919.43,26.79,-1.00,-1.0,2369
2454,2454,14468,-11144,-2972,18502.55,26.69,-1.00,-1.0,2415
2457,2457,16332,6752,-576,17682.07,26.88,-1.00,-1.0,2368
2460,2460,25932,-8564,9932,29059.51,26.79,-1.00,-1.0,2421
2462,2462,7120,2052,-9972,12423.60,26.84,-1.00,-1.0,2372
2465,2465,26324,616,15896,30757.36,26.93,-1.00,-1.0,2426
2468,2468,12244,712,-14420,18930.37,26.79,-1.00,-1.0,2376
2471,2471,27012,2028,19160,33179.31,26.79,-1.00,-1.0,2369
2476,2476,16652,8672,5288,19505.27,26.84,-1.00,-1.0,2440
2478,2478,13520,-21412,-13400,28650.03,26.84,-1.00,-1.0,2366
2481,2481,14696,10516,7608,19607.15,26.74,-1.00,-1.0,2417
2484,2484,14540,-26580,-15936,34232.50,26.79,-1.00,-1.0,2372
2487,2487,13228,-2328,-16664,21403.00,26.84,-1.00,-1.0,2416
2489,2489,25424,3564,16792,30676.59,26.69,-1.00,-1.0,2374
2492,2492,12844,-1328,-13188,18456.85,26.79,-1.00,-1.0,2419
2495,2495,25792,4640,21128,33662.28,26.79,-1.00,-1.0,2356
2500,2500,12236,8108,2924,14966.93,26.93,-1.00,-1.0,2434
2502,2502,16008,-23848,-12996,31525.85,26.84,-1.00,-1.0,2365
2505,2505,15080,7916,3772,17444.12,26.84,-1.00,-1.0,2417
2508,2508,16076,-23228,-17020,32979.66,26.74,-1.00,-1.0,2370
2510,2510,13020,-1112,-12916,18373.35,26.84,-1.00,-1.0,2345
2513,2513,25324,6972,22304,34458.41,26.93,-1.00,-1.0,2418
2516,2516,13924,-3312,-14092,20085.61,26.84,-1.00,-1.0,2367
2519,2519,23844,10584,21164,33592.74,26.74,-1.00,-1.0,2414
2522,2522,12460,-3760,-13472,18731.90,26.79,-1.00,-1.0,2368
2527,2527,21580,8960,25384,34501.09,26.88,-1.00,-1.0,2438
2529,2529,13900,7172,9568,18335.60,26.74,-1.00,-1.0,2353
2532,2532,16416,-16132,-11208,25599.72,26.88,-1.00,-1.0,2419
2535,2535,20132,12340,12008,26490.85,26.84,-1.00,-1.0,2368
2538,2538,19420,6272,14748,25178.92,26.74,-1.00,-1.0,2420
2540,2540,10608,-13000,-11560,20375.55,26.93,-1.00,-1.0,2376
2543,2543,19772,2764,12356,23478.55,26.74,-1.00,-1.0,2417
2546,2546,14624,-1888,-7352,16476.58,26.84,-1.00,-1.0,2372
2549,2549,24208,7056,14528,29101.15,26.84,-1.00,-1.0,2364
2554,2554,13368,140,1272,13429.11,26.79,-1.00,-1.0,2440
2556,2556,14064,-8172,-924,16292.07,26.79,-1.00,-1.0,2366
2559,2559,18176,4772,5016,19449.92,26.79,-1.00,-1.0,2418
2562,2562,12804,-10508,-6288,17717.21,26.93,-1.00,-1.0,2366
2565,2565,18584,5896,5436,20240.50,26.79,-1.00,-1.0,2422
2567,2567,23592,-6700,6700,25423.66,26.84,-1.00,-1.0,2370
2570,2570,11908,1484,-6940,13862.41,26.74,-1.00,-1.0,2418
2573,2573,23240,-5940,1264,24020.38,26.84,-1.00,-1.0,2368
2578,2578,16756,-1708,9688,19430.34,26.84,-1.00,-1.0,2440
2581,2581,16184,2304,-1324,16400.71,26.79,-1.00,-1.0,2371
2584,2584,15856,1360,-2492,16108.15,26.74,-1.00,-1.0,2360
2586,2586,17016,1328,11420,20535.93,26.84,-1.00,-1.0,2418
2589,2589,14492,-6772,-8524,18125.58,26.74,-1.00,-1.0,2381
2592,2592,17168,7468,14932,23947.36,26.84,-1.00,-1.0,2416
2595,2595,17348,11472,12004,24013.66,26.79,-1.00,-1.0,2368
2597,2597,16036,-14608,-9440,23657.15,26.84,-1.00,-1.0,2429
2600,2600,17956,6592,12664,22940.12,26.79,-1.00,-1.0,2368
2605,2605,12248,1156,-10816,16380.96,26.84,-1.00,-1.0,2462
2608,2608,14908,-4928,792,15721.35,26.84,-1.00,-1.0,2369
2610,2610,22356,9260,14424,28170.73,26.84,-1.00,-1.0,2404
2613,2613,15780,5136,5796,17577.84,26.84,-1.00,-1.0,2374
2616,2616,9680,-14632,-10604,20499.82,26.84,-1.00,-1.0,2362
2618,2618,18456,6160,11472,22587.08,26.88,-1.00,-1.0,2419
2621,2621,16024,-1356,5064,16859.76,26.84,-1.00,-1.0,2370
2624,2624,19116,4536,3448,19947.07,26.88,-1.00,-1.0,2419
2627,2627,15136,276,6652,16535.53,26.74,-1.00,-1.0,2366
2632,2632,18212,-16580,-6364,25437.65,26.84,-1.00,-1.0,2434
2635,2635,15864,1376,-3100,16222.51,26.84,-1.00,-1.0,2364
2637,2637,23088,4276,17344,29191.68,26.84,-1.00,-1.0,2418
2640,2640,15808,2304,-11216,19519.22,26.84,-1.00,-1.0,2374
2643,2643,22448,3064,14332,26808.71,26.84,-1.00,-1.0,2410
2646,2646,16924,3832,14460,22587.55,26.69,-1.00,-1.0,2370
2648,2648,13160,860,1068,13231.24,26.93,-1.00,-1.0,2370
2651,2651,21924,5012,10124,24663.28,26.84,-1.00,-1.0,2420
2654,2654,13404,364,116,13409.44,26.69,-1.00,-1.0,2367
2659,2659,19012,8416,11668,23841.72,26.88,-1.00,-1.0,2433
2662,2662,19440,-5556,3240,20476.34,26.74,-1.00,-1.0,2364
2664,2664,15436,3444,100,15815.85,26.88,-1.00,-1.0,2419
2667,2667,15800,-7604,-5920,18506.95,26.84,-1.00,-1.0,2382
2670,2670,17588,5760,9960,21017.06,26.84,-1.00,-1.0,2420
2673,2673,21344,444,10964,23999.43,26.74,-1.00,-1.0,2367
2675,2675,13816,-2300,-10108,17272.62,26.79,-1.00,-1.0,2366
2678,2678,22652,-1676,8892,24392.41,26.84,-1.00,-1.0,2428
2681,2681,11000,-5976,-14128,18876.25,26.84,-1.00,-1.0,2366
2686,2686,20964,-3312,5604,21951.39,26.88,-1.00,-1.0,2433
2689,2689,14972,1024,1372,15069.56,26.88,-1.00,-1.0,2364
2691,2691,14480,3996,5376,15954.30,26.79,-1.00,-1.0,2414
2694,2694,18240,-5976,-1812,19279.36,26.88,-1.00,-1.0,2370
2697,2697,18472,8436,16408,26107.54,26.84,-1.00,-1.0,2420
2700,2700,15340,7048,5636,17797.60,26.84,-1.00,-1.0,2372
2702,2702,13736,-10220,-5464,17971.68,26.88,-1.00,-1.0,2429
2705,2705,18412,924,7452,19884.36,26.84,-1.00,-1.0,2374
2708,2708,16084,-2220,480,16243.58,26.74,-1.00,-1.0,2369
2713,2713,20656,-13024,1884,24491.72,26.84,-1.00,-1.0,2434
2716,2716,12404,716,-5896,13752.62,26.79,-1.00,-1.0,2365
2719,2719,17732,-1676,4060,18267.91,26.84,-1.00,-1.0,2448
2721,2721,15956,-2860,-2692,16432.30,26.74,-1.00,-1.0,2370
2724,2724,18300,-3592,2016,18757.84,26.84,-1.00,-1.0,2436
2727,2727,17896,-1528,-3172,18239.06,26.84,-1.00,-1.0,2373
2730,2730,14316,3032,1160,14679.46,26.84,-1.00,-1.0,2422
2732,2732,16212,-1128,6152,17376.66,26.79,-1.00,-1.0,2366
2737,2737,16184,3160,7292,18029.99,26.79,-1.00,-1.0,2427
2740,2740,18408,6144,6000,20312.64,26.84,-1.00,-1.0,2352
2742,2742,20124,-12168,-2896,23694.35,26.79,-1.00,-1.0,2343
2745,2745,14336,4844,1120,15173.65,26.69,-1.00,-1.0,2424
2748,2748,17644,-5968,-2732,18825.29,26.74,-1.00,-1.0,2369
2751,2751,15928,8164,5476,18717.34,26.88,-1.00,-1.0,2422
2753,2753,20624,-9956,2672,23056.69,26.74,-1.00,-1.0,2371
2756,2756,12144,-2040,-11240,16672.61,26.79,-1.00,-1.0,2422
2759,2759,20492,-7628,-424,21869.80,26.79,-1.00,-1.0,2373
2764,2764,16512,1624,3376,16931.65,26.79,-1.00,-1.0,2434
2767,2767,17724,-744,208,17740.83,26.84,-1.00,-1.0,2371
2770,2770,15944,3700,5020,17120.21,26.84,-1.00,-1.0,2419
2772,2772,18072,6612,15220,24534.96,26.84,-1.00,-1.0,2368
2775,2775,17332,2188,3004,17725.96,26.84,-1.00,-1.0,2372
2778,2778,17960,9088,14720,24936.55,26.79,-1.00,-1.0,2428
2780,2780,16128,5260,5296,17771.54,26.84,-1.00,-1.0,2367
2783,2783,15636,-6100,4428,17358.04,26.84,-1.00,-1.0,2420
2786,2786,18016,10400,9796,22993.43,26.88,-1.00,-1.0,2353
2791,2791,13872,-4628,-4032,15169.30,26.74,-1.00,-1.0,2428
2794,2794,18260,-5368,1136,19066.55,26.79,-1.00,-1.0,2373
2796,2796,16860,-292,-3248,17172.49,26.69,-1.00,-1.0,2432
2799,2799,16000,136,1896,16112.52,26.88,-1.00,-1.0,2373
2802,2802,13772,-13032,-10568,21706.77,26.79,-1.00,-1.0,2359
2804,2804,17920,-328,-740,17938.27,26.84,-1.00,-1.0,2420
2807,2807,17208,1272,2632,17454.53,26.79,-1.00,-1.0,2363
2810,2810,16860,-48,7940,18636.13,26.84,-1.00,-1.0,2418
2813,2813,17208,-2224,-4100,17828.95,26.84,-1.00,-1.0,2365
2818,2818,14664,3860,8240,17257.75,26.88,-1.00,-1.0,2441
2821,2821,14928,-1848,5520,16022.82,26.84,-1.00,-1.0,2374
2824,2824,18944,6104,6944,21079.68,26.88,-1.00,-1.0,2428
2826,2826,17908,8980,9636,22230.37,26.79,-1.00,-1.0,2368
2829,2829,16128,-2836,7108,17851.58,26.79,-1.00,-1.0,2421
2832,2832,16140,6028,3564,17593.71,26.84,-1.00,-1.0,2365
2834,2834,17316,-1220,-948,17384.79,26.79,-1.00,-1.0,2363
2837,2837,19480,2228,8496,21368.58,26.84,-1.00,-1.0,2421
2840,2840,17056,2500,604,17248.82,26.84,-1.00,-1.0,2365
2845,2845,18364,-7072,292,19680.83,26.84,-1.00,-1.0,2437
2848,2848,16096,-940,-5392,17001.13,26.79,-1.00,-1.0,2373
2851,2851,22164,-880,2960,22378.09,26.88,-1.00,-1.0,2429
2853,2853,16716,-196,-1752,16808.71,26.69,-1.00,-1.0,2371
2856,2856,16312,-6544,1304,17624.01,26.79,-1.00,-1.0,2428
2859,2859,18988,2448,-2380,19292.52,26.84,-1.00,-1.0,2365
2861,2861,17388,-2976,5588,18504.72,26.88,-1.00,-1.0,2364
2864,2864,15580,3872,7648,17782.60,26.88,-1.00,-1.0,2421
2867,2867,19204,-2740,-304,19400.87,26.84,-1.00,-1.0,2367
2872,2872,17972,5208,13648,23159.96,26.84,-1.00,-1.0,2434
2875,2875,13372,-920,-1952,13545.00,26.79,-1.00,-1.0,2371
2878,2878,21776,-2560,6836,22966.90,26.84,-1.00,-1.0,2429
2880,2880,17964,232,120,17965.90,26.79,-1.00,-1.0,2368
2883,2883,13040,6152,7792,16389.14,26.84,-1.00,-1.0,2436
2886,2886,15936,-9412,-3704,18874.89,26.88,-1.00,-1.0,2373
2889,2889,14796,5232,10628,18953.89,26.79,-1.00,-1.0,2422
2891,2891,21708,-2716,6896,22938.37,26.88,-1.00,-1.0,2364
2894,2894,11960,-3928,-18284,22198.54,26.88,-1.00,-1.0,2362
2899,2899,19112,9940,7640,22856.98,26.84,-1.00,-1.0,2426
2902,2902,17236,-4772,-880,17906.04,26.84,-1.00,-1.0,2353
2905,2905,19212,3272,1768,19568.67,26.74,-1.00,-1.0,2427
2907,2907,18384,5496,9808,21549.35,26.88,-1.00,-1.0,2368
2910,2910,14916,1248,5536,15959.07,26.84,-1.00,-1.0,2437
2913,2913,16452,960,3668,16883.25,26.88,-1.00,-1.0,2373
2916,2916,18312,4496,13224,23030.79,26.79,-1.00,-1.0,2422
2918,2918,18092,12580,15884,27163.92,26.88,-1.00,-1.0,2367
2921,2921,14500,-4816,-3960,15783.71,26.88,-1.00,-1.0,2365
2926,2926,22456,-8984,4876,24673.05,26.88,-1.00,-1.0,2427
2929,2929,13692,3328,-5676,15190.90,26.84,-1.00,-1.0,2352
2932,2932,21228,-1172,5484,21956.22,26.93,-1.00,-1.0,2425
2934,2934,16384,-4052,-4884,17570.08,26.84,-1.00,-1.0,2380
2937,2937,16888,-6652,4056,18598.52,26.74,-1.00,-1.0,2428
2940,2940,16120,-900,-7832,17944.49,26.74,-1.00,-1.0,2373
2943,2943,18180,2096,8064,19998.34,26.93,-1.00,-1.0,2428
2945,2945,17508,1276,8796,19634.86,26.74,-1.00,-1.0,2369
2950,2950,14976,32,3348,15345.71,26.88,-1.00,-1.0,2428
2953,2953,18496,7032,11284,22778.93,26.84,-1.00,-1.0,2366
2955,2955,16156,1964,8144,18198.86,26.79,-1.00,-1.0,2355
2958,2958,14868,-580,-1296,14935.64,26.69,-1.00,-1.0,2424
2961,2961,16648,-4440,844,17250.56,26.88,-1.00,-1.0,2353
2964,2964,18396,5280,6424,20188.09,26.88,-1.00,-1.0,2417
2966,2966,18472,-5140,3284,19453.00,26.84,-1.00,-1.0,2373
2969,2969,13008,-5684,-10572,17699.80,26.74,-1.00,-1.0,2431
2972,2972,18704,-3516,3956,19438.41,26.74,-1.00,-1.0,2370
2977,2977,13576,8,-2056,13730.80,26.84,-1.00,-1.0,2429
2980,2980,17488,-3504,-2236,17975.20,26.88,-1.00,-1.0,2353
2982,2982,13464,-10876,-6260,18405.28,26.84,-1.00,-1.0,2358
2985,2985,16892,3732,5580,18177.02,26.84,-1.00,-1.0,2425
2988,2988,18932,1416,808,19002.07,26.79,-1.00,-1.0,2366
2991,2991,15648,3144,4820,16672.64,26.88,-1.00,-1.0,2422
2993,2993,14512,-13748,-6192,20927.17,26.88,-1.00,-1.0,2368
2996,2996,17232,2484,2332,17565.60,26.79,-1.00,-1.0,2430
2999,2999,20980,5768,12084,24888.82,26.93,-1.00,-1.0,2374
3004,3004,14360,2552,4364,15223.89,26.79,-1.00,-1.0,2435
3007,3007,18928,5224,9364,21754.17,26.84,-1.00,-1.0,2367
3010,3010,16216,6396,10668,20437.07,26.74,-1.00,-1.0,2425
3012,3012,18292,-2476,7312,19854.30,26.84,-1.00,-1.0,2371
3015,3015,15672,3652,-2244,16247.59,26.79,-1.00,-1.0,2366
3018,3018,18752,464,12668,22634.73,26.79,-1.00,-1.0,2420
3020,3020,12348,4256,1616,13160.47,26.79,-1.00,-1.0,2374
3023,3023,18912,-1312,8392,20731.88,26.79,-1.00,-1.0,2415
3026,3026,10808,1812,-2500,11240.38,26.79,-1.00,-1.0,2373
3031,3031,13548,-1984,3472,14125.84,26.88,-1.00,-1.0,2434
3034,3034,18212,-6184,-1576,19297.73,26.84,-1.00,-1.0,2371
3037,3037,17680,6244,11164,21822.12,26.84,-1.00,-1.0,2430
3039,3039,14808,11460,13324,22981.24,26.84,-1.00,-1.0,2371
3042,3042,15356,-6440,4100,17149.06,26.79,-1.00,-1.0,2438
3045,3045,18352,4560,7596,20378.63,26.84,-1.00,-1.0,2373
3047,3047,14484,88,2140,14641.50,26.88,-1.00,-1.0,2369
3050,3050,19572,6628,8984,22532.33,26.84,-1.00,-1.0,2421
3053,3053,12648,-6384,-1152,14214.59,26.88,-1.00,-1.0,2368
3058,3058,19860,1416,3932,20294.96,26.79,-1.00,-1.0,2435
3061,3061,14892,-2340,-3820,15551.20,26.84,-1.00,-1.0,2363
3064,3064,18704,-1696,7948,20393.30,26.88,-1.00,-1.0,2428
3066,3066,15252,-1776,-8236,17424.39,26.84,-1.00,-1.0,2367
3069,3069,15492,-3932,-1504,16053.81,26.84,-1.00,-1.0,2423
3072,3072,17960,312,5384,18752.24,26.84,-1.00,-1.0,2365
3075,3075,12476,-4692,-7236,15166.58,26.84,-1.00,-1.0,2363
3077,3077,20988,-2884,5752,21952.20,26.84,-1.00,-1.0,2421
3080,3080,14864,500,312,14875.68,26.84,-1.00,-1.0,2365
3085,3085,17052,-6056,-2312,18242.56,26.79,-1.00,-1.0,2434
3088,3088,18688,6932,4212,20372.41,26.98,-1.00,-1.0,2372
3091,3091,17088,3000,11404,20761.77,26.88,-1.00,-1.0,2429
3094,3094,14916,-388,-1684,15015.77,26.93,-1.00,-1.0,2369
3096,3096,19092,4540,14876,24625.42,26.79,-1.00,-1.0,2425
3099,3099,16252,5236,6844,18395.21,26.84,-1.00,-1.0,2367
3102,3102,16224,-7884,-4112,18500.92,26.79,-1.00,-1.0,2428
3104,3104,16320,2096,5720,17419.93,26.84,-1.00,-1.0,2366
3107,3107,17064,-1088,1252,17144.43,26.74,-1.00,-1.0,2362
3112,3112,18456,-852,3528,18809.48,26.74,-1.00,-1.0,2431
3115,3115,20060,2956,8148,21852.49,26.79,-1.00,-1.0,2377
3118,3118,16620,2248,5844,17760.36,26.79,-1.00,-1.0,2409
3121,3121,18984,-4556,-3172,19779.05,26.84,-1.00,-1.0,2367
3123,3123,13868,3964,6960,16014.88,26.88,-1.00,-1.0,2427
3126,3126,19084,2816,15664,24849.34,26.84,-1.00,-1.0,2368
3129,3129,16468,2504,-484,16664.31,26.88,-1.00,-1.0,2424
3131,3131,18412,4176,11220,21961.99,26.84,-1.00,-1.0,2364
3134,3134,11876,-6364,-10500,17081.86,26.84,-1.00,-1.0,2362
3139,3139,19708,9376,15696,26882.69,26.84,-1.00,-1.0,2429
3142,3142,18312,4708,8636,20786.42,26.84,-1.00,-1.0,2370
3145,3145,14596,-3516,-2388,15202.24,26.84,-1.00,-1.0,2424
3148,3148,19352,-752,-440,19371.60,26.88,-1.00,-1.0,2373
3150,3150,12004,-7892,-3176,14712.81,26.84,-1.00,-1.0,2432
3153,3153,14124,1360,528,14199.15,26.79,-1.00,-1.0,2374
3156,3156,20864,628,2928,21077.81,26.88,-1.00,-1.0,2431
3158,3158,13744,-348,2524,13978.17,26.84,-1.00,-1.0,2365
3163,3163,18096,756,-2036,18225.86,26.84,-1.00,-1.0,2427
3166,3166,16256,-4752,-6728,18223.75,26.84,-1.00,-1.0,2365
3169,3169,13992,-352,8476,16362.84,26.79,-1.00,-1.0,2358
3172,3172,14248,-4956,-6004,16236.24,26.79,-1.00,-1.0,2423
3174,3174,18788,-5780,-4136,20087.40,26.84,-1.00,-1.0,2366
3177,3177,19016,8060,11396,23588.99,26.79,-1.00,-1.0,2419
3180,3180,14460,-12760,-14112,23896.81,26.84,-1.00,-1.0,2368
3183,3183,18304,5168,11864,22416.49,26.93,-1.00,-1.0,2422
3186,3186,16108,-5668,-5776,18026.54,26.79,-1.00,-1.0,2367
3190,3190,20032,2932,11316,23193.31,26.88,-1.00,-1.0,2428
3193,3193,19836,7156,10996,23782.08,26.74,-1.00,-1.0,2363
3196,3196,13152,-3716,-3660,14148.48,26.88,-1.00,-1.0,2422
3199,3199,18592,-2320,5828,19621.68,26.84,-1.00,-1.0,2369
3201,3201,15164,1324,2260,15388.55,26.79,-1.00,-1.0,2363
3204,3204,14460,-828,668,14499.08,26.88,-1.00,-1.0,2421
3207,3207,18672,-1280,1824,18804.49,26.84,-1.00,-1.0,2365
3210,3210,15076,-2964,-388,15369.50,26.84,-1.00,-1.0,2429
3213,3213,17356,2332,3708,17900.23,26.84,-1.00,-1.0,2365
3217,3217,17096,2432,10576,20249.44,26.84,-1.00,-1.0,2435
3220,3220,13740,10072,10452,19986.92,26.79,-1.00,-1.0,2364
3223,3223,19908,-3028,1224,20174.13,26.84,-1.00,-1.0,2431
3225,3225,14588,4560,10636,18620.63,26.79,-1.00,-1.0,2367
3228,3228,17756,-2888,-2108,18112.42,26.93,-1.00,-1.0,2422
3231,3231,19912,-640,-3580,20241.39,26.79,-1.00,-1.0,2364
3234,3234,15892,6836,9368,19673.48,26.84,-1.00,-1.0,2358
3237,3237,17824,-7764,-5252,20138.47,26.84,-1.00,-1.0,2428
3240,3240,15148,4812,11304,19503.79,26.74,-1.00,-1.0,2368
3245,3245,17032,-7352,-9288,20746.27,26.84,-1.00,-1.0,2425
3247,3247,17536,3924,13024,22193.10,26.79,-1.00,-1.0,2365
3250,3250,17300,6644,13988,23218.46,26.79,-1.00,-1.0,2424
3253,3253,16136,-5632,-9160,19390.60,26.79,-1.00,-1.0,2368
3255,3255,18132,1524,12096,21849.60,26.88,-1.00,-1.0,2420
3258,3258,17052,-3820,-5084,18199.18,26.88,-1.00,-1.0,2369
3261,3261,14324,-4380,-7444,16726.46,26.79,-1.00,-1.0,2421
3264,3264,17804,5644,12952,22728.65,26.84,-1.00,-1.0,2370
3267,3267,14832,-9608,-5316,18454.31,26.74,-1.00,-1.0,2364
3272,3272,19788,7564,13900,25337.50,26.74,-1.00,-1.0,2427
3274,3274,14356,-10396,-11268,21003.32,26.88,-1.00,-1.0,2363
3277,3277,14400,-5760,-6688,16889.85,26.84,-1.00,-1.0,2422
3280,3280,20492,5788,12140,24511.28,26.88,-1.00,-1.0,2367
3282,3282,13708,-7436,-11404,19319.80,26.88,-1.00,-1.0,2421
3285,3285,20244,2284,13964,24698.78,26.79,-1.00,-1.0,2365
3288,3288,19892,5920,13320,24660.91,26.79,-1.00,-1.0,2422
3291,3291,13848,-1264,-1652,14003.35,26.79,-1.00,-1.0,2366
3296,3296,18388,3520,5448,19498.45,26.93,-1.00,-1.0,2427
3298,3298,13388,-12676,-7312,19833.93,26.84,-1.00,-1.0,2362
3301,3301,13952,-636,-4924,14809.07,26.84,-1.00,-1.0,2422
3304,3304,21188,3232,7524,22715.36,26.79,-1.00,-1.0,2367
3306,3306,13744,-4696,-4376,15169.03,26.93,-1.00,-1.0,2364
3309,3309,13216,-1360,-680,13303.18,26.88,-1.00,-1.0,2437
3312,3312,20796,4608,12888,24895.94,26.84,-1.00,-1.0,2373
3315,3315,14124,-1028,-3488,14584.59,26.79,-1.00,-1.0,2420
3318,3318,20300,3344,11020,23339.08,26.79,-1.00,-1.0,2365
3323,3323,14648,-6772,1976,16258.18,26.88,-1.00,-1.0,2432
3325,3325,17484,2408,1392,17703.85,26.84,-1.00,-1.0,2364
3328,3328,21760,3448,8396,23577.09,26.79,-1.00,-1.0,2430
3331,3331,14572,-3688,-6008,16187.67,26.84,-1.00,-1.0,2374
3334,3334,20436,4656,7500,22261.14,26.84,-1.00,-1.0,2420
3336,3336,13380,-7964,-4684,16260.06,26.84,-1.00,-1.0,2366
3339,3339,14428,1588,-3420,14912.59,26.84,-1.00,-1.0,2372
3342,3342,22048,3596,11116,24952.17,26.93,-1.00,-1.0,2427
3345,3345,14788,1404,-824,14877.34,26.84,-1.00,-1.0,2367
3350,3350,17468,1440,1388,17582.13,26.88,-1.00,-1.0,2435
3352,3352,13964,-5488,-96,15004.02,26.84,-1.00,-1.0,2367
3355,3355,18628,1408,3440,18995.22,26.88,-1.00,-1.0,2437
3358,3358,19792,7348,5888,21917.69,26.84,-1.00,-1.0,2363
3361,3361,14404,-8160,-4168,17071.41,26.79,-1.00,-1.0,2420
3363,3363,18496,1944,3904,19003.22,26.84,-1.00,-1.0,2367
3366,3366,23772,-532,12328,26783.78,26.79,-1.00,-1.0,2370
3369,3369,11580,720,-7664,13905.10,26.84,-1.00,-1.0,2429
3372,3372,22260,9468,21320,32244.27,26.84,-1.00,-1.0,2365
3377,3377,14364,-8904,-7392,18445.79,26.84,-1.00,-1.0,2428
3379,3379,21500,17412,19652,33935.66,26.88,-1.00,-1.0,2373
3382,3382,13276,-8092,-11320,19232.13,26.79,-1.00,-1.0,2432
3385,3385,14532,-12528,-11144,22188.25,26.79,-1.00,-1.0,2376
3388,3388,20836,13376,19700,31640.90,26.88,-1.00,-1.0,2425
3390,3390,14940,-9608,-14256,22776.10,26.84,-1.00,-1.0,2367
3393,3393,19724,7596,17040,27149.53,26.88,-1.00,-1.0,2428
3396,3396,20816,11804,25568,35019.46,26.84,-1.00,-1.0,2374
3401,3401,13940,-12460,-16736,25093.21,26.93,-1.00,-1.0,2427
3403,3403,18232,13104,20024,30084.57,26.79,-1.00,-1.0,2374
3406,3406,18832,7480,23388,30945.00,26.74,-1.00,-1.0,2361
3409,3409,17100,-8160,-11592,22211.94,26.84,-1.00,-1.0,2425
3411,3411,18712,13100,18684,29510.01,26.84,-1.00,-1.0,2370
3414,3414,17308,-8128,-9996,21576.64,26.84,-1.00,-1.0,2418
3417,3417,15452,-9760,-10724,21190.24,26.84,-1.00,-1.0,2368
3420,3420,16376,12916,22036,30341.09,26.79,-1.00,-1.0,2427
3423,3423,16484,-4880,-10688,20242.78,26.88,-1.00,-1.0,2373
3428,3428,16776,-2296,-6324,18074.81,26.79,-1.00,-1.0,2460
3431,3431,17268,9652,19080,27484.38,26.88,-1.00,-1.0,2363
3434,3434,15672,4072,13012,20772.70,26.88,-1.00,-1.0,2423
3436,3436,16232,-11804,-10116,22475.45,26.79,-1.00,-1.0,2356
3439,3439,14632,2932,6100,16121.48,26.88,-1.00,-1.0,2423
3442,3442,17328,5376,10204,20815.44,26.84,-1.00,-1.0,2367
3445,3445,19816,-4984,-3352,20706.28,26.79,-1.00,-1.0,2362
3447,3447,16528,3312,9580,19388.67,26.88,-1.00,-1.0,2421
3450,3450,21872,5204,5264,23090.60,26.79,-1.00,-1.0,2367
3455,3455,20372,-1492,-3064,20655.09,26.88,-1.00,-1.0,2438
3457,3457,14416,-5268,-2644,15574.45,26.84,-1.00,-1.0,2364
3460,3460,19504,-6336,-2228,20628.01,26.84,-1.00,-1.0,2419
3463,3463,19900,3848,7736,21694.76,26.84,-1.00,-1.0,2371
3466,3466,17052,1312,2644,17305.57,26.84,-1.00,-1.0,2416
3468,3468,20992,4112,10176,23688.05,26.84,-1.00,-1.0,2373
3471,3471,15256,2464,1640,15540.48,26.84,-1.00,-1.0,2420
3474,3474,14372,-9424,-916,17210.61,26.84,-1.00,-1.0,2374
3477,3477,15448,4664,4536,16762.13,26.84,-1.00,-1.0,2365
3482,3482,16028,-6460,-12724,21459.93,26.79,-1.00,-1.0,2438
3484,3484,18140,5032,8844,20798.96,26.79,-1.00,-1.0,2366
3487,3487,15224,-11632,-9624,21440.50,26.79,-1.00,-1.0,2421
3490,3490,15492,3648,-3672,16333.82,26.93,-1.00,-1.0,2370
3493,3493,21624,5368,20328,30160.24,26.88,-1.00,-1.0,2416
3495,3495,14404,1932,-6672,15991.35,26.74,-1.00,-1.0,2374
3498,3498,19368,680,17260,25951.67,26.84,-1.00,-1.0,2419
3501,3501,14580,2440,5348,15720.40,26.84,-1.00,-1.0,2372
3504,3504,15656,-7444,-5012,18045.60,26.93,-1.00,-1.0,2366
3509,3509,15912,5872,776,16978.64,26.84,-1.00,-1.0,2438
3511,3511,19176,-10840,1728,22095.49,26.88,-1.00,-1.0,2364
3514,3514,14124,7680,4000,16567.13,26.98,-1.00,-1.0,2420
3517,3517,22476,-10796,-1600,24985.68,26.79,-1.00,-1.0,2368
3520,3520,17452,1072,-4492,18052.69,26.79,-1.00,-1.0,2416
3522,3522,12828,-1648,-532,12944.36,26.84,-1.00,-1.0,2369
3525,3525,19336,4956,11100,22839.72,26.84,-1.00,-1.0,2420
3528,3528,19424,3044,7684,21109.28,26.93,-1.00,-1.0,2353
3533,3533,15676,1856,-4784,16494.49,26.84,-1.00,-1.0,2438
3535,3535,20160,7008,19716,29056.12,26.79,-1.00,-1.0,2365
3538,3538,16644,1036,-264,16678.30,26.84,-1.00,-1.0,2374
3541,3541,14476,-6408,-9564,18495.60,26.84,-1.00,-1.0,2408
3544,3544,16712,5980,9796,20273.46,26.84,-1.00,-1.0,2368
3546,3546,15416,-10616,-12444,22476.78,26.84,-1.00,-1.0,2424
3549,3549,13860,1380,7252,15703.36,26.79,-1.00,-1.0,2366
3552,3552,17224,-9252,-11224,22544.26,26.79,-1.00,-1.0,2415
3555,3555,13376,-392,-376,13387.02,26.79,-1.00,-1.0,2368
3560,3560,14540,84,10832,18131.49,26.88,-1.00,-1.0,2420
3563,3563,15836,4236,2404,16568.10,26.84,-1.00,-1.0,2366
3565,3565,12844,-928,5696,14080.98,26.84,-1.00,-1.0,2420
3568,3568,19968,4280,8376,22072.54,26.93,-1.00,-1.0,2372
3571,3571,19292,-5352,-2148,20135.52,26.74,-1.00,-1.0,2359
3573,3573,13528,-10804,-15880,23492.71,26.79,-1.00,-1.0,2426
3576,3576,19336,-684,5468,20105.91,26.74,-1.00,-1.0,2365
3579,3579,17096,-8368,-11392,22182.75,26.88,-1.00,-1.0,2417
3582,3582,17748,-1356,2152,17929.34,26.88,-1.00,-1.0,2354
3587,3587,17504,5672,5028,19074.65,26.79,-1.00,-1.0,2432
3590,3590,15436,-8968,-2920,18089.27,26.84,-1.00,-1.0,2364
3592,3592,14516,-1188,-2516,14780.25,26.79,-1.00,-1.0,2428
3595,3595,15672,-8100,-8960,19786.44,26.84,-1.00,-1.0,2367
3598,3598,18440,-5836,-4548,19868.99,26.74,-1.00,-1.0,2425
3600,3600,18324,2840,9248,20721.01,26.84,-1.00,-1.0,2367
3603,3603,20980,2412,4996,21701.11,26.84,-1.00,-1.0,2369
3606,3606,17164,-3036,-3600,17798.32,26.84,-1.00,-1.0,2420
3609,3609,18804,-1128,10192,21418.21,26.74,-1.00,-1.0,2366
3614,3614,18920,-2440,11160,22101.26,26.88,-1.00,-1.0,2430
3617,3617,17012,-3200,-3484,17657.47,26.79,-1.00,-1.0,2371
3619,3619,17584,-6432,-1392,18775.12,26.69,-1.00,-1.0,2427
3622,3622,19476,688,-1824,19573.32,26.79,-1.00,-1.0,2418
3625,3625,18872,-3164,-2776,19335.71,26.74,-1.00,-1.0,2419
3628,3628,16120,-8196,2744,18290.94,26.84,-1.00,-1.0,2368
3630,3630,12196,8916,11804,19172.16,26.84,-1.00,-1.0,2418
3633,3633,17908,-5636,1408,18826.67,26.88,-1.00,-1.0,2367
3636,3636,12412,9256,8280,17558.18,26.84,-1.00,-1.0,2362
3641,3641,17452,-3652,7204,19230.37,26.84,-1.00,-1.0,2434
3643,3643,18320,10020,8104,22398.61,26.74,-1.00,-1.0,2367
3646,3646,20888,-1232,9628,23033.12,26.84,-1.00,-1.0,2416
3649,3649,16332,12676,6388,21638.43,26.98,-1.00,-1.0,2371
3652,3652,17760,-1168,10548,20689.18,26.84,-1.00,-1.0,2417
3654,3654,14468,-8164,-12828,20988.84,26.88,-1.00,-1.0,2375
3657,3657,14916,-1264,8852,17390.88,26.84,-1.00,-1.0,2416
3660,3660,18908,-5000,-8172,21196.56,26.84,-1.00,-1.0,2368
3665,3665,16912,1640,9696,19563.17,26.79,-1.00,-1.0,2427
3667,3667,13572,-492,-20,13580.93,26.84,-1.00,-1.0,2366
3670,3670,18424,3064,8104,20359.44,26.93,-1.00,-1.0,2361
3673,3673,16368,512,2356,16544.62,26.79,-1.00,-1.0,2422
3675,3675,14968,5432,284,15925.71,26.84,-1.00,-1.0,2368
3678,3678,21460,1136,9536,23510.79,26.88,-1.00,-1.0,2420
3681,3681,17676,-1652,-1368,17805.66,26.93,-1.00,-1.0,2367
3684,3684,18628,4360,13704,23533.20,26.88,-1.00,-1.0,2426
3687,3687,18276,4428,-2572,18979.85,26.93,-1.00,-1.0,2367
3692,3692,11860,-3536,-3004,12735.26,26.93,-1.00,-1.0,2431
3695,3695,20408,1888,9396,22546.30,26.84,-1.00,-1.0,2352
3698,3698,20072,2796,9152,22236.50,26.84,-1.00,-1.0,2422
3700,3700,16384,2296,-2120,16679.37,26.88,-1.00,-1.0,2373
3703,3703,18684,28,12316,22378.04,26.84,-1.00,-1.0,2362
3706,3706,13060,3036,4304,14082.09,26.74,-1.00,-1.0,2421
3708,3708,18604,-3392,2408,19063.39,26.93,-1.00,-1.0,2374
3711,3711,10708,-3192,-9404,14604.29,26.74,-1.00,-1.0,2418
3714,3714,19132,-2760,12732,23146.38,26.88,-1.00,-1.0,2374
3719,3719,19020,964,2732,19239.38,26.84,-1.00,-1.0,2432
3722,3722,15884,1212,3780,16372.50,26.79,-1.00,-1.0,2425
3725,3725,14052,2384,-780,14274.12,26.84,-1.00,-1.0,2421
3727,3727,18824,-1808,7804,20457.62,26.84,-1.00,-1.0,2380
3730,3730,14528,4296,-1108,15190.33,26.74,-1.00,-1.0,2362
3733,3733,18632,-6048,1900,19680.95,26.84,-1.00,-1.0,2418
3735,3735,16336,2376,5600,17431.88,26.84,-1.00,-1.0,2376
3738,3738,19668,-2204,668,19802.38,26.79,-1.00,-1.0,2449
3741,3741,16320,-480,2188,16473.01,26.84,-1.00,-1.0,2413
3746,3746,16244,-1356,12100,20300.65,26.74,-1.00,-1.0,2435
3749,3749,14560,-1236,-5952,15778.07,26.88,-1.00,-1.0,2377
3752,3752,20292,-912,5788,21121.03,26.84,-1.00,-1.0,2418
3754,3754,15836,2572,2204,16194.19,26.88,-1.00,-1.0,2373
3757,3757,20896,668,6024,21757.24,26.79,-1.00,-1.0,2415
3760,3760,16716,2960,4348,17524.02,26.79,-1.00,-1.0,2372
3762,3762,12708,-1864,-6652,14464.33,26.79,-1.00,-1.0,2366
3765,3765,17236,-312,8860,19382.38,26.84,-1.00,-1.0,2414
3768,3768,16328,-356,-3316,16665.12,26.84,-1.00,-1.0,2373
3773,3773,16224,-716,872,16263.19,26.93,-1.00,-1.0,2427
3776,3776,18820,6316,9364,21949.23,26.88,-1.00,-1.0,2368
3779,3779,19212,-5936,10364,22621.88,26.88,-1.00,-1.0,2412
3781,3781,12276,5960,-6248,15008.64,26.88,-1.00,-1.0,2373
3784,3784,17764,-5992,10756,21613.78,26.84,-1.00,-1.0,2417
3787,3787,16228,460,1936,16349.55,26.74,-1.00,-1.0,2374
3789,3789,19212,3660,9060,21554.12,26.79,-1.00,-1.0,2363
3792,3792,16480,-488,-2220,16636.01,26.79,-1.00,-1.0,2416
3795,3795,16552,5804,11636,21048.79,26.93,-1.00,-1.0,2372
3800,3800,16724,1268,-12,16772.00,26.74,-1.00,-1.0,2440
3803,3803,17044,-10612,-4140,20500.05,26.88,-1.00,-1.0,2371
3806,3806,16640,-380,-864,16666.75,26.74,-1.00,-1.0,2411
3808,3808,16444,2596,6200,17764.69,26.88,-1.00,-1.0,2373
3811,3811,20384,-5264,976,21075.33,26.88,-1.00,-1.0,2416
3814,3814,15488,6320,5708,17674.89,26.79,-1.00,-1.0,2371
3816,3816,13104,-3552,4228,14219.97,26.79,-1.00,-1.0,2362
3819,3819,17836,476,2792,18059.48,26.79,-1.00,-1.0,2415
3822,3822,13840,-8248,-9352,18628.88,26.88,-1.00,-1.0,2370
3827,3827,14588,5024,6508,16745.28,26.79,-1.00,-1.0,2448
3830,3830,19872,-1184,4132,20331.54,26.84,-1.00,-1.0,2368
3833,3833,13324,-1832,-3536,13906.42,26.79,-1.00,-1.0,2414
3835,3835,14596,-1748,-876,14726.37,26.79,-1.00,-1.0,2375
3838,3838,19572,3112,9156,21830.71,26.88,-1.00,-1.0,2418
3841,3841,17300,-4052,-4736,18388.54,26.84,-1.00,-1.0,2355
3844,3844,17552,-4140,-384,18037.73,26.93,-1.00,-1.0,2427
3846,3846,13944,5416,7860,16898.16,26.84,-1.00,-1.0,2366
3849,3849,19384,3340,9064,21657.59,26.88,-1.00,-1.0,2361
3854,3854,16680,-5328,-468,17516.54,26.88,-1.00,-1.0,2435
3857,3857,15644,2060,5660,16763.47,26.88,-1.00,-1.0,2365
3859,3859,15548,6084,4832,17381.13,26.79,-1.00,-1.0,2419
3862,3862,20252,200,5024,20866.82,26.79,-1.00,-1.0,2373
3865,3865,14156,-2532,-2348,14571.08,26.84,-1.00,-1.0,2421
3868,3868,16168,-7788,-3848,18353.86,26.84,-1.00,-1.0,2372
3870,3870,16532,6680,7128,19202.55,26.79,-1.00,-1.0,2427
3873,3873,20548,-4660,840,21086.52,26.79,-1.00,-1.0,2354
3876,3876,13692,3776,1988,14341.59,26.69,-1.00,-1.0,2362
3881,3881,18244,60,6896,19503.90,26.93,-1.00,-1.0,2433
3884,3884,14752,-6244,-9544,18646.63,26.79,-1.00,-1.0,2364
3886,3886,20244,-4148,1156,20696.90,26.79,-1.00,-1.0,2411
3889,3889,12948,8044,4664,15940.81,26.79,-1.00,-1.0,2382
3892,3892,19856,-5436,5700,21361.20,26.79,-1.00,-1.0,2404
3895,3895,20776,1912,7168,22060.78,26.84,-1.00,-1.0,2367
3897,3897,14024,-868,-4832,14858.47,26.84,-1.00,-1.0,2415
3900,3900,16960,2064,9860,19726.16,26.93,-1.00,-1.0,2366
3905,3905,21540,3300,7876,23170.95,26.84,-1.00,-1.0,2433
3908,3908,15264,416,-1308,15325.59,26.88,-1.00,-1.0,2366
3910,3910,14080,-7812,-8296,18113.46,26.84,-1.00,-1.0,2358
3913,3913,17204,1140,8764,19341.28,26.93,-1.00,-1.0,2417
3916,3916,16080,-856,-5384,16979.00,26.79,-1.00,-1.0,2367
3919,3919,17392,-5980,7116,19720.03,26.93,-1.00,-1.0,2416
3921,3921,15012,1096,1608,15137.60,26.79,-1.00,-1.0,2374
3924,3924,18328,6876,13940,24031.62,26.79,-1.00,-1.0,2420
3927,3927,16660,-3388,-4248,17523.69,26.74,-1.00,-1.0,2368
3932,3932,16788,-7140,4524,18795.83,26.84,-1.00,-1.0,2433
3935,3935,15172,3880,-1156,15702.88,26.79,-1.00,-1.0,2368
3937,3937,19732,6616,10628,23368.30,26.84,-1.00,-1.0,2357
3940,3940,19324,-4216,-2268,19908.18,26.84,-1.00,-1.0,2419
3943,3943,14024,9444,9480,19383.81,26.84,-1.00,-1.0,2366
3946,3946,20212,-5496,84,20946.07,26.84,-1.00,-1.0,2416
3948,3948,17540,5060,992,18282.21,26.79,-1.00,-1.0,2375
3951,3951,16036,-7992,1104,17951.16,26.88,-1.00,-1.0,2431
3954,3954,15240,8716,8212,19382.03,26.79,-1.00,-1.0,2368
3959,3959,21552,1456,3096,21821.87,26.93,-1.00,-1.0,2435
3962,3962,12620,-1828,-2604,13014.87,26.84,-1.00,-1.0,2364
3965,3965,19140,4700,16364,25616.60,26.74,-1.00,-1.0,2414
3967,3967,16104,7000,6068,18578.47,26.84,-1.00,-1.0,2370
3970,3970,19788,-8572,-4480,22025.32,26.84,-1.00,-1.0,2362
3973,3973,14456,1556,5268,15464.44,26.84,-1.00,-1.0,2427
3975,3975,12628,3148,3168,13394.50,26.84,-1.00,-1.0,2367
3978,3978,22472,5828,14120,27172.24,26.88,-1.00,-1.0,2427
3981,3981,13184,-5592,-13680,19804.82,26.79,-1.00,-1.0,2368
3986,3986,15864,-1224,8920,18240.92,26.79,-1.00,-1.0,2435
3989,3989,19948,6248,4628,21409.78,26.84,-1.00,-1.0,2365
3992,3992,15800,-8836,-5564,18938.66,26.84,-1.00,-1.0,2422
3994,3994,13212,-6076,-13196,19636.93,26.84,-1.00,-1.0,2367
3997,3997,16428,5284,16568,23922.76,26.74,-1.00,-1.0,2404
4000,4000,16288,-6708,-10320,20415.65,26.84,-1.00,-1.0,2367
4002,4002,22092,4028,3800,22775.45,26.84,-1.00,-1.0,2362
4005,4005,14364,-3352,-2116,14900.93,26.93,-1.00,-1.0,2425
4008,4008,18752,10656,17800,27964.76,26.93,-1.00,-1.0,2375
4013,4013,17140,256,-5608,18035.93,26.88,-1.00,-1.0,2438
4016,4016,15888,-5880,4952,17650.08,26.98,-1.00,-1.0,2364
4019,4019,17540,8988,9724,21977.08,26.88,-1.00,-1.0,2418
4021,4021,17596,9680,11552,23168.30,26.93,-1.00,-1.0,2367
4024,4024,19536,-7860,-6008,21898.20,26.79,-1.00,-1.0,2421
4027,4027,14872,3672,8860,17696.31,26.93,-1.00,-1.0,2367
4030,4030,19920,5252,6032,21465.67,26.93,-1.00,-1.0,2421
4032,4032,18516,8140,8280,21855.44,26.84,-1.00,-1.0,2373
4035,4035,17784,-9476,-6620,21210.60,26.84,-1.00,-1.0,2369
4040,4040,13420,52,8552,15913.38,26.93,-1.00,-1.0,2443
4043,4043,19668,2728,6252,20817.29,26.79,-1.00,-1.0,2362
4046,4046,13200,-7812,-10920,18828.54,26.69,-1.00,-1.0,2423
4048,4048,18588,2748,15284,24221.19,26.88,-1.00,-1.0,2366
4051,4051,13536,10144,9256,19282.05,26.88,-1.00,-1.0,2421
4054,4054,20588,-7236,108,21822.86,26.84,-1.00,-1.0,2366
4057,4057,14636,-4168,-3228,15556.50,26.74,-1.00,-1.0,2419
4059,4059,13696,-2212,-5420,14894.62,26.84,-1.00,-1.0,2355
4062,4062,17376,6660,15616,24292.81,26.74,-1.00,-1.0,2351
4067,4067,21124,40,1132,21154.35,26.79,-1.00,-1.0,2432
4070,4070,15440,-2640,-2048,15797.39,26.84,-1.00,-1.0,2351
4073,4073,20772,9572,16564,28239.43,26.93,-1.00,-1.0,2424
4075,4075,16460,2284,11264,20075.51,26.93,-1.00,-1.0,2369
4078,4078,15144,-4356,-8588,17946.29,26.84,-1.00,-1.0,2434
4081,4081,16284,-7116,5736,18673.72,26.84,-1.00,-1.0,2377
4084,4084,14828,7652,1120,16723.55,26.84,-1.00,-1.0,2426
4086,4086,17668,-12028,-5012,21953.39,26.79,-1.00,-1.0,2367
4091,4091,14524,-800,-8392,16793.22,26.88,-1.00,-1.0,2419
4094,4094,15644,-7860,5956,18492.93,26.93,-1.00,-1.0,2365
4096,4096,14076,4556,-2024,14932.77,26.88,-1.00,-1.0,2355
4099,4099,21164,4600,9984,23848.59,26.88,-1.00,-1.0,2416
4102,4102,18576,-2640,-3456,19078.29,26.84,-1.00,-1.0,2369
4105,4105,14764,8728,10908,20325.80,26.84,-1.00,-1.0,2416
4107,4107,21744,-1436,4092,22172.24,26.88,-1.00,-1.0,2366
4110,4110,13488,-3524,-6352,15319.68,26.88,-1.00,-1.0,2418
4113,4113,19932,6872,18584,28104.70,26.88,-1.00,-1.0,2367
4119,4119,19968,-6120,-484,20890.42,26.74,-1.00,-1.0,2437
4121,4121,23376,4816,8596,25367.74,26.84,-1.00,-1.0,2366
4124,4124,13312,-2920,-7532,15571.34,26.74,-1.00,-1.0,2432
4127,4127,19540,6680,21660,29926.40,26.93,-1.00,-1.0,2368
4129,4129,13240,8216,9704,18356.69,26.84,-1.00,-1.0,2369
4132,4132,21764,-5364,336,22417.79,26.79,-1.00,-1.0,2427
4135,4135,13544,-4856,-4936,15211.34,26.84,-1.00,-1.0,2373
4138,4138,19280,9672,15836,26759.02,26.84,-1.00,-1.0,2432
4140,4140,19760,-9184,-12200,24972.85,26.79,-1.00,-1.0,2366
4145,4145,12580,-4084,3676,13727.65,26.98,-1.00,-1.0,2436
4148,4148,14480,-8936,-4524,17606.51,26.88,-1.00,-1.0,2371
4151,4151,19104,8900,14172,25397.21,26.88,-1.00,-1.0,2421
4154,4154,19080,-8192,-10128,23102.63,26.84,-1.00,-1.0,2368
4156,4156,15376,2476,7988,17503.14,26.79,-1.00,-1.0,2427
4159,4159,13116,-3332,4076,14133.13,26.93,-1.00,-1.0,2365
4162,4162,17652,4228,6096,19147.59,26.84,-1.00,-1.0,2361
4165,4165,17688,-8736,-7724,21185.92,26.74,-1.00,-1.0,2418
4167,4167,15200,4712,9608,18589.15,26.74,-1.00,-1.0,2364
4172,4172,20220,3880,10200,22977.01,26.69,-1.00,-1.0,2430
4175,4175,18472,6892,12980,23604.97,26.79,-1.00,-1.0,2353
4178,4178,17704,-5956,-6444,19759.32,26.79,-1.00,-1.0,2419
4181,4181,14984,1868,6060,16270.63,26.84,-1.00,-1.0,2371
4183,4183,18584,3548,4228,19386.32,26.79,-1.00,-1.0,2429
4186,4186,20756,3928,10272,23489.46,26.84,-1.00,-1.0,2367
4189,4189,15604,-5320,-6332,17660.17,26.79,-1.00,-1.0,2425
4192,4192,15040,2732,8932,17704.41,26.84,-1.00,-1.0,2368
4195,4195,18828,-1500,260,18889.45,26.84,-1.00,-1.0,2362
4199,4199,14336,-3868,-7232,16516.18,26.74,-1.00,-1.0,2434
4202,4202,14884,-9176,-9332,19819.65,26.79,-1.00,-1.0,2363
4205,4205,16296,488,8716,18486.93,26.84,-1.00,-1.0,2416
4208,4208,18612,3632,1564,19027.46,26.88,-1.00,-1.0,2372
4210,4210,17576,-7048,-1060,18966.12,26.79,-1.00,-1.0,2427
4213,4213,12960,-1640,-5644,14230.46,26.79,-1.00,-1.0,2373
4216,4216,18072,1020,12820,22180.85,26.88,-1.00,-1.0,2422
4219,4219,19676,1052,940,19726.51,26.93,-1.00,-1.0,2370
4224,4224,14292,-6996,-5844,16951.62,26.84,-1.00,-1.0,2433
4226,4226,18620,4296,14004,23691.18,26.79,-1.00,-1.0,2415
4229,4229,18688,8236,16480,26242.40,26.84,-1.00,-1.0,2360
4232,4232,18372,-424,-2384,18530.88,26.84,-1.00,-1.0,2429
4234,4234,13456,-7068,-3460,15588.21,26.84,-1.00,-1.0,2371
4237,4237,16600,-8928,-5952,19766.02,26.84,-1.00,-1.0,2417
4240,4240,16940,9432,11020,22301.72,26.79,-1.00,-1.0,2366
4243,4243,21152,-7332,-2100,22485.00,26.88,-1.00,-1.0,2424
4246,4246,13068,1256,-376,13133.60,26.79,-1.00,-1.0,2372
4251,4251,20004,5956,16376,26529.37,26.84,-1.00,-1.0,2425
4253,4253,15084,6164,10240,19245.25,26.84,-1.00,-1.0,2351
4256,4256,18700,-6524,-3068,20041.59,26.84,-1.00,-1.0,2417
4259,4259,13672,272,1088,13717.92,26.93,-1.00,-1.0,2368
4261,4261,14612,2232,2288,14957.52,26.84,-1.00,-1.0,2363
4264,4264,20736,808,14124,25102.23,26.88,-1.00,-1.0,2419
4267,4267,14468,2880,-7644,16614.70,26.84,-1.00,-1.0,2365
4270,4270,17052,-3536,11212,20711.90,26.93,-1.00,-1.0,2419
4273,4273,16832,3996,2628,17498.30,26.79,-1.00,-1.0,2367
4278,4278,16668,-1640,-8396,18735.12,26.93,-1.00,-1.0,2436
4281,4281,16912,5596,13032,22071.79,26.88,-1.00,-1.0,2373
4284,4284,20172,-148,2240,20296.53,26.79,-1.00,-1.0,2430
4286,4286,13752,-1400,-644,13838.07,26.79,-1.00,-1.0,2371
4289,4289,15104,-10844,-7736,20138.74,26.84,-1.00,-1.0,2349
4292,4292,15412,7164,4972,17708.00,26.84,-1.00,-1.0,2426
4294,4294,20196,-6744,1140,21322.75,26.88,-1.00,-1.0,2372
4297,4297,20340,-960,4736,20906.14,26.93,-1.00,-1.0,2427
4300,4300,14400,1192,-1268,14504.78,26.79,-1.00,-1.0,2375
4305,4305,16688,600,7676,18378.53,26.88,-1.00,-1.0,2429
4307,4307,14336,-4152,-8616,17233.56,26.88,-1.00,-1.0,2364
4310,4310,20648,-4096,36,21050.38,26.88,-1.00,-1.0,2419
4313,4313,15024,2504,2876,15500.39,26.84,-1.00,-1.0,2370
4315,4315,18572,1484,5636,19464.99,26.93,-1.00,-1.0,2418
4318,4318,17852,-2892,5140,18800.99,26.84,-1.00,-1.0,2367
4321,4321,16484,1500,2064,16680.30,26.79,-1.00,-1.0,2370
4324,4324,19388,-1868,3212,19740.84,26.79,-1.00,-1.0,2420
4327,4327,17936,4008,2464,18542.80,26.93,-1.00,-1.0,2366
4332,4332,14564,976,1620,14686.29,26.93,-1.00,-1.0,2429
4334,4334,15596,2776,7788,17652.04,26.88,-1.00,-1.0,2363
4337,4337,19108,436,6004,20033.82,26.84,-1.00,-1.0,2434
4340,4340,16636,1788,2776,16960.53,26.88,-1.00,-1.0,2377
4343,4343,17928,-644,6592,19112.36,26.88,-1.00,-1.0,2418
4345,4345,14872,5096,-616,15732.93,26.88,-1.00,-1.0,2354
4348,4348,17812,40,2688,18013.72,26.88,-1.00,-1.0,2372
4351,4351,17072,-5416,356,17914.04,26.88,-1.00,-1.0,2426
4354,4354,13408,1204,204,13463.50,26.88,-1.00,-1.0,2366
4359,4359,18540,1108,3352,18873.13,26.84,-1.00,-1.0,2426
4361,4361,14852,5056,3812,16145.48,26.84,-1.00,-1.0,2369
4364,4364,18124,-10008,948,20725.30,26.74,-1.00,-1.0,2433
4367,4367,14644,-912,-6452,16028.31,26.84,-1.00,-1.0,2381
4370,4370,20176,-7056,2120,21479.12,26.93,-1.00,-1.0,2430
4372,4372,17288,5560,412,18164.75,26.88,-1.00,-1.0,2370
4375,4375,15216,4060,9988,18648.60,26.84,-1.00,-1.0,2362
4378,4378,17540,-5952,-1724,18602.42,26.79,-1.00,-1.0,2427
4381,4381,16296,5132,5756,18028.55,26.98,-1.00,-1.0,2366
4386,4386,13992,4100,-1512,14658.52,26.88,-1.00,-1.0,2427
4388,4388,19520,-9564,2968,21938.77,26.84,-1.00,-1.0,2373
4391,4391,14228,3092,1140,14604.66,26.88,-1.00,-1.0,2420
4394,4394,16128,7108,5664,18512.62,26.84,-1.00,-1.0,2377
4397,4397,18500,-604,7004,19790.68,26.84,-1.00,-1.0,2424
4399,4399,12752,2620,532,13029.23,26.84,-1.00,-1.0,2371
4402,4402,19360,-2104,4164,19914.20,26.84,-1.00,-1.0,2365
4405,4405,17020,3068,5256,18075.36,26.74,-1.00,-1.0,2427
4408,4408,17992,128,2608,18180.49,26.88,-1.00,-1.0,2373
4413,4413,14460,6016,2960,15938.80,26.98,-1.00,-1.0,2425
4415,4415,17856,-4296,6372,19439.52,26.84,-1.00,-1.0,2374
4418,4418,14868,5588,2480,16075.87,26.79,-1.00,-1.0,2420
4421,4421,16880,-1148,2520,17105.63,26.84,-1.00,-1.0,2372
4424,4424,18880,-4728,676,19474.74,26.79,-1.00,-1.0,2421
4426,4426,17092,6536,4852,18931.39,26.74,-1.00,-1.0,2372
4429,4429,16076,924,6664,17427.00,26.79,-1.00,-1.0,2364
4432,4432,14808,-1628,-816,14919.55,26.84,-1.00,-1.0,2425
4435,4435,16540,-1900,5820,17636.72,26.93,-1.00,-1.0,2369
4440,4440,17896,4016,176,18341.92,26.93,-1.00,-1.0,2433
4442,4442,17976,-4024,2500,18589.76,26.79,-1.00,-1.0,2368
4445,4445,16644,4844,7064,18718.63,26.88,-1.00,-1.0,2421
4448,4448,18092,-836,8068,19827.05,26.88,-1.00,-1.0,2356
4451,4451,15492,248,-3756,15942.74,26.88,-1.00,-1.0,2421
4453,4453,16180,-1268,2732,16457.95,26.84,-1.00,-1.0,2370
4456,4456,17844,2644,6960,19334.96,26.88,-1.00,-1.0,2433
4459,4459,16552,6192,7188,19078.18,26.84,-1.00,-1.0,2375
4462,4462,17716,-8240,-3956,19935.00,26.74,-1.00,-1.0,2369
4467,4467,16892,-2440,5728,18002.87,26.84,-1.00,-1.0,2433
4469,4469,15860,2004,1908,16099.57,26.88,-1.00,-1.0,2365
4472,4472,16376,-2920,1000,16664.33,26.84,-1.00,-1.0,2421
4475,4475,17604,-4612,-1776,18284.57,26.79,-1.00,-1.0,2371
4478,4478,19392,6208,12696,23995.36,26.88,-1.00,-1.0,2415
4480,4480,17024,3388,92,17358.10,26.84,-1.00,-1.0,2373
4483,4483,15984,8004,14816,23217.80,26.79,-1.00,-1.0,2426
4486,4486,17216,-4056,7556,19233.69,26.79,-1.00,-1.0,2370
4489,4489,17548,528,2904,17794.50,26.88,-1.00,-1.0,2365
4494,4494,17288,-9480,-2048,19822.71,26.88,-1.00,-1.0,2429
4496,4496,14708,4140,8012,17252.74,26.84,-1.00,-1.0,2366
4499,4499,18500,-7840,-2900,20300.88,26.79,-1.00,-1.0,2433
4502,4502,18448,-1940,-3112,18808.96,26.84,-1.00,-1.0,2377
4505,4505,15352,1724,1892,15563.92,26.79,-1.00,-1.0,2417
4507,4507,20092,-368,7156,21331.48,26.84,-1.00,-1.0,2369
4510,4510,15992,5592,8204,18823.39,26.93,-1.00,-1.0,2417
4513,4513,18172,-8804,-5644,20966.32,26.79,-1.00,-1.0,2368
4518,4518,17304,2156,6608,18647.85,26.79,-1.00,-1.0,2427
4520,4520,19412,2664,4276,20055.09,26.84,-1.00,-1.0,2368
4523,4523,14952,6452,2328,16450.23,26.88,-1.00,-1.0,2361
4526,4526,16968,-14648,-4760,22915.81,26.84,-1.00,-1.0,2425
4528,4528,14192,10360,9068,19772.99,26.88,-1.00,-1.0,2372
4531,4531,20380,-12884,-5160,24657.00,26.84,-1.00,-1.0,2417
4534,4534,16660,2464,-3116,17127.06,26.69,-1.00,-1.0,2367
4537,4537,17568,5496,8528,20287.12,26.74,-1.00,-1.0,2416
4540,4540,19216,-312,3960,19622.27,26.84,-1.00,-1.0,2419
4545,4545,19240,-7300,-2948,20788.42,26.74,-1.00,-1.0,2431
4548,4548,15752,14600,9380,23436.51,26.84,-1.00,-1.0,2367
4550,4550,20596,-7800,3700,22332.16,26.74,-1.00,-1.0,2413
4553,4553,14068,8260,8224,18269.38,26.88,-1.00,-1.0,2375
4556,4556,15404,-3004,4508,16328.79,26.84,-1.00,-1.0,2363
4558,4558,17528,2940,584,17782.45,26.84,-1.00,-1.0,2417
4561,4561,19844,3640,8128,21750.82,26.84,-1.00,-1.0,2367
4564,4564,17004,-13916,1772,22043.84,26.84,-1.00,-1.0,2418
4567,4567,10212,1100,-672,10293.03,26.93,-1.00,-1.0,2367
4572,4572,14808,4624,1916,15631.04,26.88,-1.00,-1.0,2440
4575,4575,13332,4496,908,14098.96,26.79,-1.00,-1.0,2372
4578,4578,21032,-8824,4780,23303.57,26.79,-1.00,-1.0,2414
4580,4580,12572,4000,-4916,14079.14,26.93,-1.00,-1.0,2367
4583,4583,20260,-8632,2516,22165.50,26.88,-1.00,-1.0,2368
4586,4586,14076,11368,5676,18962.65,26.79,-1.00,-1.0,2424
4588,4588,20484,-5376,3016,21391.40,26.84,-1.00,-1.0,2368
4591,4591,12404,888,928,12470.32,26.88,-1.00,-1.0,2418
4594,4594,14060,9104,5476,17622.51,26.84,-1.00,-1.0,2367
4599,4599,13148,4096,-908,13801.14,26.93,-1.00,-1.0,2432
4602,4602,19768,-8344,1960,21546.18,26.88,-1.00,-1.0,2366
4604,4604,12348,4692,1564,13301.66,26.93,-1.00,-1.0,2428
4607,4607,20940,-2916,3160,21376.91,26.88,-1.00,-1.0,2366
4610,4610,23084,-6588,6776,24943.68,26.84,-1.00,-1.0,2362
4612,4612,11284,5740,-6052,14032.21,26.84,-1.00,-1.0,2425
4615,4615,19192,-12464,7748,24160.21,26.79,-1.00,-1.0,2373
4618,4618,12136,6172,-1568,13705.28,26.79,-1.00,-1.0,2416
4621,4621,19724,-6028,9896,22875.83,26.88,-1.00,-1.0,2368
4626,4626,11560,8328,1460,14322.04,26.84,-1.00,-1.0,2432
4629,4629,20832,-10320,8896,24892.04,26.74,-1.00,-1.0,2372
4631,4631,12984,8536,-3136,15851.88,26.84,-1.00,-1.0,2423
4634,4634,22548,-4980,11280,25699.24,26.84,-1.00,-1.0,2374
4637,4637,13952,-3604,-2036,14553.09,26.74,-1.00,-1.0,2424
4639,4639,15352,-5276,-5412,17111.69,26.88,-1.00,-1.0,2368
4642,4642,16824,-5880,116,17822.31,26.84,-1.00,-1.0,2369
4645,4645,16472,2544,-816,16687.26,26.88,-1.00,-1.0,2416
4648,4648,20928,-6480,4196,22306.46,26.88,-1.00,-1.0,2367
4653,4653,19932,-6632,9664,23122.74,26.88,-1.00,-1.0,2433
4656,4656,16116,5524,8016,18828.07,26.84,-1.00,-1.0,2366
4658,4658,20660,1032,5924,21517.30,26.74,-1.00,-1.0,2416
4661,4661,16832,660,1648,16925.36,26.93,-1.00,-1.0,2376
4664,4664,11168,8348,-1316,14005.18,26.93,-1.00,-1.0,2406
4666,4666,22864,-6616,13420,27324.54,26.79,-1.00,-1.0,2368
4669,4669,13640,11792,-176,18031.41,26.84,-1.00,-1.0,2422
4672,4672,22728,-208,16672,28187.96,26.79,-1.00,-1.0,2368
4675,4675,14984,8736,-480,17351.32,26.79,-1.00,-1.0,2362
4680,4680,17316,-7448,2488,19013.33,26.79,-1.00,-1.0,2419
4683,4683,13964,10380,-3108,17674.77,26.84,-1.00,-1.0,2366
4685,4685,21248,-9704,7380,24497.13,26.88,-1.00,-1.0,2421
4688,4688,13320,1444,-9448,16394.28,26.74,-1.00,-1.0,2374
4691,4691,19536,-2824,3328,20017.64,26.84,-1.00,-1.0,2408
4693,4693,16340,4764,1696,17104.61,26.93,-1.00,-1.0,2367
4696,4696,17280,16,2368,17441.50,26.84,-1.00,-1.0,2421
4699,4699,20260,-8264,3856,22217.79,26.84,-1.00,-1.0,2376
4702,4702,12304,9464,-3044,15818.40,26.93,-1.00,-1.0,2370
4707,4707,18656,516,8612,20554.30,26.84,-1.00,-1.0,2439
4709,4709,13972,-352,-3268,14353.42,26.74,-1.00,-1.0,2366
4712,4712,16696,-4144,8028,18983.62,26.84,-1.00,-1.0,2417
4715,4715,14060,2836,5548,15378.78,26.88,-1.00,-1.0,2368
4718,4718,20856,2272,8528,22646.45,26.93,-1.00,-1.0,2421
4720,4720,15344,6228,-776,16577.95,26.88,-1.00,-1.0,2371
4723,4723,21920,-3396,17200,28068.83,26.88,-1.00,-1.0,2417
4726,4726,12484,7928,-3284,15148.86,26.84,-1.00,-1.0,2384
4731,4731,17292,-9100,2624,19715.70,26.88,-1.00,-1.0,2427
4734,4734,9092,5880,-9256,14244.73,26.84,-1.00,-1.0,2365
4736,4736,25352,-2996,18176,31337.95,26.84,-1.00,-1.0,2363
4739,4739,15984,9608,-7528,20111.51,26.79,-1.00,-1.0,2420
4742,4742,17672,-1940,264,17780.13,26.84,-1.00,-1.0,2370
4744,4744,13084,-1212,1540,13229.95,26.88,-1.00,-1.0,2426
4747,4747,14688,2588,2620,15142.64,26.74,-1.00,-1.0,2381
4750,4750,16288,-12608,448,20602.46,26.79,-1.00,-1.0,2424
4753,4753,13700,7740,6048,16857.52,26.84,-1.00,-1.0,2381
4758,4758,13752,7060,-8888,17831.37,26.84,-1.00,-1.0,2438
4761,4761,15176,-1364,-3480,15629.52,26.84,-1.00,-1.0,2371
4763,4763,16892,-8992,2452,19292.69,26.88,-1.00,-1.0,2366
4766,4766,13020,3172,-2500,13632.02,26.79,-1.00,-1.0,2426
4769,4769,24000,-9192,8008,26918.78,26.84,-1.00,-1.0,2377
4772,4772,11544,8780,-6596,15932.97,26.88,-1.00,-1.0,2419
4774,4774,21880,-8460,12096,26393.54,27.02,-1.00,-1.0,2367
4777,4777,13872,4332,-6080,15753.25,26.88,-1.00,-1.0,2419
4780,4780,22512,3560,13972,26733.51,26.88,-1.00,-1.0,2370
4785,4785,10240,4384,-4716,12096.19,26.93,-1.00,-1.0,2447
4788,4788,24332,-10148,10404,28342.04,26.84,-1.00,-1.0,2373
4791,4791,13760,6664,-7160,16882.30,26.88,-1.00,-1.0,2413
4793,4793,24668,-340,11340,27151.82,26.84,-1.00,-1.0,2355
4796,4796,16012,8048,-3032,18175.46,26.88,-1.00,-1.0,2370
4799,4799,10500,756,-4148,11314.92,26.88,-1.00,-1.0,2428
4801,4801,19328,-11480,7608,23732.75,26.84,-1.00,-1.0,2368
4804,4804,12908,5736,-6124,15395.50,26.84,-1.00,-1.0,2417
4807,4807,21752,-6820,12440,25969.51,26.88,-1.00,-1.0,2369
4812,4812,21352,-2216,7416,22711.57,26.79,-1.00,-1.0,2443
4815,4815,13300,1908,-4540,14182.46,26.88,-1.00,-1.0,2372
4818,4818,14016,1696,-4744,14893.97,26.88,-1.00,-1.0,2428
4820,4820,21500,-8488,8800,24733.30,26.93,-1.00,-1.0,2369
4823,4823,10124,4008,-12640,16683.20,26.84,-1.00,-1.0,2418
4826,4826,23596,-8368,6984,25991.75,26.93,-1.00,-1.0,2367
4828,4828,13528,9376,-1496,16527.38,26.79,-1.00,-1.0,2366
4831,4831,21688,-6876,3380,23001.59,26.84,-1.00,-1.0,2405
4834,4834,13840,4516,1544,14639.80,26.84,-1.00,-1.0,2367
4839,4839,20172,-1948,8000,21787.71,26.74,-1.00,-1.0,2437
4842,4842,11908,3360,-3036,12739.99,26.88,-1.00,-1.0,2372
4845,4845,20260,-9680,4092,22823.55,26.79,-1.00,-1.0,2424
4847,4847,13892,7120,260,15612.48,26.79,-1.00,-1.0,2368
4850,4850,19168,-5652,164,19984.60,26.88,-1.00,-1.0,2433
4853,4853,14268,5588,2468,15520.71,26.88,-1.00,-1.0,2375
4856,4856,15384,5668,7072,17855.16,26.79,-1.00,-1.0,2419
4858,4858,18840,-12068,-564,22380.80,26.84,-1.00,-1.0,2367
4861,4861,9992,5220,-3840,11909.41,26.84,-1.00,-1.0,2362
4866,4866,15052,9236,1688,17740.23,26.84,-1.00,-1.0,2432
4869,4869,22280,-9820,3052,24538.65,26.88,-1.00,-1.0,2353
4872,4872,15800,-6692,-5508,18021.12,26.93,-1.00,-1.0,2424
4874,4874,12336,4628,5288,14197.12,26.84,-1.00,-1.0,2424
4877,4877,19384,-17020,-7128,26762.44,26.88,-1.00,-1.0,2421
4880,4880,13788,11672,8744,20069.93,26.84,-1.00,-1.0,2369
4883,4883,21640,-6952,1148,22758.25,26.88,-1.00,-1.0,2425
4885,4885,13212,4396,-9924,17098.76,26.93,-1.00,-1.0,2357
4890,4890,16428,-2540,1156,16663.35,26.93,-1.00,-1.0,2441
4893,4893,17624,7964,9652,21614.62,26.88,-1.00,-1.0,2370
4896,4896,20200,-11416,8496,24709.25,26.84,-1.00,-1.0,2358
4898,4898,11428,-988,-17588,20997.93,26.93,-1.00,-1.0,2416
4901,4901,19944,-11612,10372,25301.78,26.84,-1.00,-1.0,2381
4904,4904,12640,3536,-11680,17569.73,26.93,-1.00,-1.0,2402
4907,4907,20384,-4536,-2508,21032.66,26.88,-1.00,-1.0,2367
4909,4909,14128,-728,7492,16008.14,26.93,-1.00,-1.0,2423
4912,4912,19172,4528,7408,21046.30,26.98,-1.00,-1.0,2367
4917,4917,9756,5356,-5332,12340.85,26.84,-1.00,-1.0,2431
4920,4920,24732,-8104,15012,30045.08,26.88,-1.00,-1.0,2372
4923,4923,15792,12548,11208,23075.07,26.98,-1.00,-1.0,2411
4925,4925,20064,-10384,-5752,23312.59,26.88,-1.00,-1.0,2367
4928,4928,13204,6036,5136,15399.92,26.88,-1.00,-1.0,2367
4931,4931,13344,7748,5284,16309.95,26.88,-1.00,-1.0,2418
4933,4933,22188,-15920,-1680,27360.12,26.79,-1.00,-1.0,2366
4936,4936,9436,7848,-3144,12669.41,26.74,-1.00,-1.0,2423
4939,4939,20516,-10336,6960,24003.77,26.79,-1.00,-1.0,2368
4944,4944,20656,-1976,7036,21910.73,26.93,-1.00,-1.0,2431
4947,4947,16260,10276,8544,21047.18,26.88,-1.00,-1.0,2366
4950,4950,12536,7168,2368,14633.49,26.88,-1.00,-1.0,2409
4952,4952,18332,-19532,-12232,29447.97,26.88,-1.00,-1.0,2368
4955,4955,10904,11444,6112,16947.53,26.79,-1.00,-1.0,2414
4958,4958,23896,-3288,15716,28789.28,26.84,-1.00,-1.0,2369
4960,4960,18124,7276,-2328,19668.23,26.84,-1.00,-1.0,2364
4963,4963,21084,-704,9612,23182.35,26.84,-1.00,-1.0,2424
4966,4966,17588,12340,10240,23800.65,26.84,-1.00,-1.0,2370
4971,4971,17116,-18980,-4792,26003.10,26.74,-1.00,-1.0,2433
4974,4974,10700,8356,2528,13809.54,26.88,-1.00,-1.0,2364
4977,4977,20808,-17904,-3824,27715.50,26.88,-1.00,-1.0,2423
4979,4979,14436,10000,-4876,18225.63,26.79,-1.00,-1.0,2369
4982,4982,22960,-1784,14596,27265.13,26.98,-1.00,-1.0,2417
4985,4985,16680,4532,-2316,17439.19,26.84,-1.00,-1.0,2368
4988,4988,19944,3608,11500,23303.02,26.79,-1.00,-1.0,2421
4990,4990,17596,-7748,7916,20792.16,26.93,-1.00,-1.0,2374
4993,4993,10780,8412,-3172,14036.80,26.93,-1.00,-1.0,2373
4998,4998,13776,2900,-4224,14697.97,26.84,-1.00,-1.0,2431
5001,5001,24688,-1932,10076,26734.92,26.88,-1.00,-1.0,2363
5004,5004,15592,6680,-7000,18350.28,26.88,-1.00,-1.0,2415
5007,5007,23472,4280,14068,27697.69,26.88,-1.00,-1.0,2368
5009,5009,18004,-10028,9660,22760.06,26.88,-1.00,-1.0,2407
5012,5012,11872,7496,-3944,14583.88,26.93,-1.00,-1.0,2375
5015,5015,19088,-8984,7216,22296.52,26.84,-1.00,-1.0,2421
5018,5018,12348,5408,-2984,13806.66,26.93,-1.00,-1.0,2368
5022,5022,18136,3996,7744,20120.94,26.79,-1.00,-1.0,2432
5025,5025,15476,3044,4668,16448.79,26.88,-1.00,-1.0,2365
5028,5028,16816,-3532,4152,17677.44,26.84,-1.00,-1.0,2358
5031,5031,11688,5240,-8380,15306.58,26.84,-1.00,-1.0,2415
5033,5033,22732,-13040,5616,26801.58,26.79,-1.00,-1.0,2367
5036,5036,14488,7060,-8788,18356.87,26.79,-1.00,-1.0,2414
5039,5039,23232,-9720,7464,26266.24,26.88,-1.00,-1.0,2369
5041,5041,15180,3276,7512,17250.93,26.79,-1.00,-1.0,2418
5044,5044,17304,5780,11564,21600.07,26.88,-1.00,-1.0,2376
5049,5049,11152,4864,-6328,13713.83,26.79,-1.00,-1.0,2441
5052,5052,20056,-15200,2376,25277.04,26.84,-1.00,-1.0,2363
5055,5055,13788,7436,-2776,15909.41,26.84,-1.00,-1.0,2422
5057,5057,20084,-1652,7788,21604.38,26.74,-1.00,-1.0,2367
5060,5060,15292,6452,1484,16663.61,26.88,-1.00,-1.0,2368
5063,5063,21632,1008,11924,24721.27,26.84,-1.00,-1.0,2422
5065,5065,15980,-14668,1896,21773.96,26.93,-1.00,-1.0,2368
5068,5068,10236,5392,-2368,11809.18,26.84,-1.00,-1.0,2418
5071,5071,15104,-16660,-3816,22808.95,26.88,-1.00,-1.0,2370
5076,5076,26480,148,16676,31293.79,26.79,-1.00,-1.0,2440
5079,5079,16900,6212,-3560,18354.09,26.88,-1.00,-1.0,2371
5082,5082,21928,1232,11960,25007.93,26.79,-1.00,-1.0,2423
5084,5084,16140,-1136,5640,17134.75,26.84,-1.00,-1.0,2367
5087,5087,12804,3888,-28,13381.32,26.88,-1.00,-1.0,2421
5090,5090,18900,-3352,11528,22390.64,26.93,-1.00,-1.0,2368
5093,5093,13752,5412,-4480,15442.72,26.88,-1.00,-1.0,2363
5095,5095,20272,-20724,-4436,29327.74,26.84,-1.00,-1.0,2418
5098,5098,13312,8056,-5192,16403.21,26.84,-1.00,-1.0,2368
5103,5103,16676,2592,7324,18396.97,26.84,-1.00,-1.0,2438
5106,5106,19484,9876,16984,27669.80,26.88,-1.00,-1.0,2380
5109,5109,15048,10132,7212,19522.11,26.79,-1.00,-1.0,2417
5112,5112,15336,8052,14692,22713.05,26.79,-1.00,-1.0,2369
5114,5114,23240,-19296,5344,30675.59,26.88,-1.00,-1.0,2419
5117,5117,14024,4888,-10628,18262.52,26.84,-1.00,-1.0,2370
5120,5120,21764,-10092,2860,24159.88,26.93,-1.00,-1.0,2420
5122,5122,13616,352,-3292,14012.73,26.84,-1.00,-1.0,2368
5125,5125,19036,1680,12016,22573.79,26.84,-1.00,-1.0,2362
5131,5131,18496,7544,11212,22906.83,26.79,-1.00,-1.0,2447
5134,5134,20828,-332,4808,21378.32,26.93,-1.00,-1.0,2370
5137,5137,15508,10580,8244,20503.61,26.88,-1.00,-1.0,2416
5139,5139,19248,-20756,3448,28516.41,26.93,-1.00,-1.0,2366
5142,5142,8880,3824,-7512,12243.67,26.84,-1.00,-1.0,2419
5145,5145,22260,-11628,7964,26346.60,26.84,-1.00,-1.0,2367
5147,5147,17276,2056,5996,18402.16,26.93,-1.00,-1.0,2422
5150,5150,19084,7264,16180,26052.97,26.88,-1.00,-1.0,2380
5155,5155,9228,7764,-2112,12243.21,26.74,-1.00,-1.0,2434
5158,5158,21972,-12148,10564,27238.59,26.88,-1.00,-1.0,2366
5160,5160,14420,7068,1312,16112.55,26.84,-1.00,-1.0,2358
5163,5163,20848,-15208,-9268,27419.30,26.84,-1.00,-1.0,2419
5166,5166,14312,9940,3696,17812.84,26.84,-1.00,-1.0,2370
5168,5168,15704,12676,12780,23887.76,26.74,-1.00,-1.0,2422
5171,5171,16900,-14676,-748,22395.41,26.79,-1.00,-1.0,2374
5174,5174,10488,7992,8716,15806.29,26.84,-1.00,-1.0,2422
5177,5177,18600,-8448,1908,20517.53,26.88,-1.00,-1.0,2367
5181,5181,23784,-15568,7172,29316.87,26.88,-1.00,-1.0,2433
5184,5184,14928,4416,4092,16096.29,26.84,-1.00,-1.0,2364
5187,5187,17872,6288,6112,19907.38,26.84,-1.00,-1.0,2415
5190,5190,18992,348,6964,20231.52,26.84,-1.00,-1.0,2370
5192,5192,9016,7416,-7792,14035.69,26.84,-1.00,-1.0,2362
5195,5195,20188,-13824,5684,25119.04,26.88,-1.00,-1.0,2417
5198,5198,10952,136,-10992,15517.37,26.84,-1.00,-1.0,2367
5201,5201,19360,-14636,4292,24646.37,26.93,-1.00,-1.0,2430
5204,5204,12988,9156,-3300,16229.93,26.88,-1.00,-1.0,2367
5208,5208,17064,-2244,1936,17319.46,26.88,-1.00,-1.0,2420
5211,5211,15092,11760,8684,21011.38,26.74,-1.00,-1.0,2362
5214,5214,16964,-5328,4220,18274.94,26.84,-1.00,-1.0,2450
5217,5217,11396,7176,3584,13935.88,26.88,-1.00,-1.0,2375
5219,5219,21244,-12076,2940,24612.62,26.84,-1.00,-1.0,2372
5222,5222,12316,7772,-3488,14975.11,26.93,-1.00,-1.0,2422
5225,5225,21172,-16320,2008,26807.24,26.84,-1.00,-1.0,2367
5228,5228,12724,9212,-1040,15743.02,26.84,-1.00,-1.0,2429
5231,5231,24612,-5472,7604,26334.66,26.84,-1.00,-1.0,2369
5236,5236,15884,5128,7368,18245.14,26.79,-1.00,-1.0,2427
5238,5238,21200,-14864,-216,25892.57,26.88,-1.00,-1.0,2365
5241,5241,13112,4208,-10580,17365.72,26.79,-1.00,-1.0,2426
5244,5244,20840,-19128,-896,28301.75,26.74,-1.00,-1.0,2366
5246,5246,9468,7100,-8548,14598.68,26.88,-1.00,-1.0,2416
5249,5249,22852,-1688,12680,26188.65,26.84,-1.00,-1.0,2374
5252,5252,16176,10948,4832,20121.38,26.84,-1.00,-1.0,2425
5255,5255,24888,4660,16052,29979.91,26.84,-1.00,-1.0,2371
5258,5258,15708,13804,8532,22585.10,26.84,-1.00,-1.0,2363
5263,5263,17932,-4352,9264,20647.47,26.74,-1.00,-1.0,2428
5265,5265,11392,7740,-8580,16226.57,26.88,-1.00,-1.0,2362
5268,5268,23304,-12208,5388,26854.09,26.93,-1.00,-1.0,2422
5271,5271,14640,7912,-1216,16685.56,26.79,-1.00,-1.0,2368
5273,5273,24420,-3176,8728,26126.64,26.88,-1.00,-1.0,2421
5276,5276,15112,960,4276,15734.62,26.79,-1.00,-1.0,2365
5279,5279,14820,4356,5160,16285.97,26.88,-1.00,-1.0,2424
5282,5282,18668,-3672,6852,20221.96,26.84,-1.00,-1.0,2366
5285,5285,15772,5584,1244,16777.50,26.93,-1.00,-1.0,2364
5290,5290,9024,10116,-3196,13927.69,26.74,-1.00,-1.0,2429
5292,5292,23896,2264,16644,29209.03,26.84,-1.00,-1.0,2363
5295,5295,17584,4932,-3048,18515.18,26.84,-1.00,-1.0,2422
5298,5298,19456,7924,12544,24467.89,26.88,-1.00,-1.0,2367
5300,5300,18208,4060,7192,19993.49,26.84,-1.00,-1.0,2409
5303,5303,8540,8496,-6244,13568.39,26.88,-1.00,-1.0,2366
5306,5306,20760,-19692,-436,28617.17,26.88,-1.00,-1.0,2421
5309,5309,12708,8484,-5628,16283.30,26.88,-1.00,-1.0,2365
5314,5314,12832,5760,-1144,14111.93,26.84,-1.00,-1.0,2430
5316,5316,14556,396,-884,14588.19,26.93,-1.00,-1.0,2366
5319,5319,20456,-2772,7644,22012.78,26.88,-1.00,-1.0,2360
5322,5322,15456,8184,-2436,17657.86,26.88,-1.00,-1.0,2429
5324,5324,20192,-8992,5312,22733.02,26.79,-1.00,-1.0,2377
5327,5327,9696,9188,-2952,13680.13,26.88,-1.00,-1.0,2426
5330,5330,22436,-9792,4348,24862.87,26.84,-1.00,-1.0,2373
5333,5333,13308,8972,-8512,18167.38,26.84,-1.00,-1.0,2420
5336,5336,23756,-13176,8552,28479.66,26.79,-1.00,-1.0,2365
5340,5340,15964,636,-856,15999.58,26.84,-1.00,-1.0,2428
5343,5343,21108,-18768,-4220,28558.60,26.88,-1.00,-1.0,2363
5346,5346,11120,13364,2416,17552.43,26.84,-1.00,-1.0,2424
5349,5349,21608,-13896,424,25694.05,26.79,-1.00,-1.0,2372
5351,5351,12548,5772,-2480,14032.77,26.84,-1.00,-1.0,2358
5354,5354,20376,-924,14488,25018.74,26.84,-1.00,-1.0,2419
5357,5357,16028,8600,-2920,18422.36,26.84,-1.00,-1.0,2365
5360,5360,19912,-3260,7204,21424.59,26.84,-1.00,-1.0,2424
5363,5363,14240,2724,4764,15260.85,26.84,-1.00,-1.0,2365
5367,5367,17192,-7048,-5744,19448.21,26.93,-1.00,-1.0,2427
5370,5370,9628,2488,-14392,17493.38,26.88,-1.00,-1.0,2364
5373,5373,23816,-1092,21956,32410.80,26.74,-1.00,-1.0,2452
5376,5376,13392,2236,-13356,19045.42,26.84,-1.00,-1.0,2364
5379,5379,23768,-3208,17176,29499.56,26.84,-1.00,-1.0,2423
5381,5381,15500,7692,10012,19991.42,26.93,-1.00,-1.0,2365
5384,5384,15948,-3656,-4664,17013.46,26.88,-1.00,-1.0,2372
5387,5387,13676,-6100,9256,17604.45,26.84,-1.00,-1.0,2424
5390,5390,14164,3108,3652,14953.78,26.84,-1.00,-1.0,2365
5395,5395,12496,5892,-9848,16966.11,26.84,-1.00,-1.0,2429
5397,5397,23392,-9960,14252,29146.30,26.84,-1.00,-1.0,2371
5400,5400,15992,9096,15216,23874.84,26.93,-1.00,-1.0,2424
5403,5403,21432,-1980,-1156,21554.29,26.79,-1.00,-1.0,2364
5406,5406,16644,11056,10060,22371.00,26.84,-1.00,-1.0,2428
5408,5408,19752,-1244,-2556,19955.51,26.88,-1.00,-1.0,2369
5411,5411,18856,-22312,-2368,29308.39,26.88,-1.00,-1.0,2435
5414,5414,9288,15220,1820,17922.83,26.79,-1.00,-1.0,2360
5417,5417,22644,-15732,-4840,27994.14,26.88,-1.00,-1.0,2369
5422,5422,23272,-7516,10620,26661.97,26.84,-1.00,-1.0,2428
5424,5424,16568,10864,-64,19812.35,26.93,-1.00,-1.0,2369
5427,5427,18012,4656,8228,20342.33,26.84,-1.00,-1.0,2422
5430,5430,14936,-15260,-18356,28158.38,26.98,-1.00,-1.0,2366
5433,5433,13096,14100,11628,22483.90,26.84,-1.00,-1.0,2423
5435,5435,23140,-22544,-8192,33328.67,26.88,-1.00,-1.0,2371
5438,5438,10760,6688,-14640,19360.70,26.84,-1.00,-1.0,2435
5441,5441,19692,-4536,16436,26047.88,26.88,-1.00,-1.0,2376
5446,5446,15792,6292,6644,18251.55,26.84,-1.00,-1.0,2431
5449,5449,18356,-396,8036,20041.88,26.93,-1.00,-1.0,2365
5451,5451,9812,8276,-3904,13416.73,26.84,-1.00,-1.0,2357
5454,5454,22852,-4992,16596,28680.33,26.88,-1.00,-1.0,2425
5457,5457,11376,8140,-14916,20448.96,26.84,-1.00,-1.0,2364
5459,5459,23216,-8636,20132,31919.60,26.84,-1.00,-1.0,2417
5462,5462,14920,9000,16140,23750.92,26.93,-1.00,-1.0,2372
5465,5465,20272,2940,3968,20864.87,26.93,-1.00,-1.0,2424
5468,5468,13968,3340,5436,15356.13,26.88,-1.00,-1.0,2372
5473,5473,23420,-3096,13664,27290.78,26.79,-1.00,-1.0,2437
5475,5475,12084,5756,-13276,18852.23,26.84,-1.00,-1.0,2364
5478,5478,21536,-8312,18860,29809.20,26.79,-1.00,-1.0,2424
5481,5481,12792,10768,8872,18928.75,26.84,-1.00,-1.0,2366
5483,5483,21788,-9524,-6396,24623.82,26.74,-1.00,-1.0,2357
5486,5486,14116,9788,13920,22109.56,26.88,-1.00,-1.0,2420
5489,5489,11624,16636,15932,25801.21,26.93,-1.00,-1.0,2365
5492,5492,22224,-5416,5592,23548.03,26.84,-1.00,-1.0,2403
5495,5495,10984,8340,1048,13831.20,26.93,-1.00,-1.0,2368
5500,5500,13844,7500,2640,15964.83,26.88,-1.00,-1.0,2431
5502,5502,22104,-20236,-9892,31558.42,26.84,-1.00,-1.0,2366
5505,5505,10572,11392,5516,16491.55,26.88,-1.00,-1.0,2422
5508,5508,17140,10920,12832,24035.10,26.84,-1.00,-1.0,2365
5511,5511,21008,-9488,-3036,23250.28,26.88,-1.00,-1.0,2416
5513,5513,14440,14276,16700,26290.83,26.84,-1.00,-1.0,2374
5516,5516,16476,-16236,1992,23217.11,26.84,-1.00,-1.0,2420
5519,5519,12448,-1780,-12528,17750.26,26.84,-1.00,-1.0,2366
5522,5522,18960,-23304,-6668,30773.69,26.84,-1.00,-1.0,2362
5527,5527,20996,9988,17080,28849.93,26.84,-1.00,-1.0,2440
5529,5529,21204,-5368,-7632,23166.19,26.79,-1.00,-1.0,2364
5532,5532,18076,18932,28812,38926.77,26.84,-1.00,-1.0,2425
5535,5535,15716,-10352,15800,24572.27,26.79,-1.00,-1.0,2364
5538,5538,9276,8296,-6100,13859.21,26.98,-1.00,-1.0,2417
5540,5540,20144,-10308,13600,26400.67,26.84,-1.00,-1.0,2373
5543,5543,15144,6792,-1072,16631.93,26.79,-1.00,-1.0,2422
5546,5546,19316,5092,13388,24047.35,26.84,-1.00,-1.0,2366
5551,5551,15632,6704,-8308,18929.50,26.88,-1.00,-1.0,2429
5553,5553,19504,-3876,20748,28738.63,26.84,-1.00,-1.0,2372
5556,5556,9420,8696,10000,16259.05,26.98,-1.00,-1.0,2360
5559,5559,24800,-2120,5528,25496.93,26.88,-1.00,-1.0,2420
5561,5561,12352,3368,-7604,14890.81,26.93,-1.00,-1.0,2368
5564,5564,20352,1384,13460,24439.54,26.88,-1.00,-1.0,2421
5567,5567,21636,-856,24620,32787.09,26.88,-1.00,-1.0,2367
5570,5570,13468,12948,-6716,19853.02,26.88,-1.00,-1.0,2420
5573,5573,14724,-9600,7856,19252.87,26.88,-1.00,-1.0,2367
5578,5578,27280,-7196,3548,28435.35,26.88,-1.00,-1.0,2429
5580,5580,15928,5804,-5976,17974.99,26.84,-1.00,-1.0,2374
5583,5583,21632,2976,10316,24149.95,26.88,-1.00,-1.0,2422
5586,5586,20204,196,18568,27441.04,26.93,-1.00,-1.0,2373
5588,5588,13400,24,-15544,20522.59,26.84,-1.00,-1.0,2344
5591,5591,18028,-4468,21932,28739.95,26.88,-1.00,-1.0,2419
5594,5594,7736,9384,-1196,12220.29,26.79,-1.00,-1.0,2365
5597,5597,23392,-11552,5496,26661.59,26.84,-1.00,-1.0,2416
5600,5600,12576,1384,-8184,15068.15,26.88,-1.00,-1.0,2365
5605,5605,17148,196,18772,25425.98,26.79,-1.00,-1.0,2429
5608,5608,13884,1148,-7808,15970.23,26.93,-1.00,-1.0,2367
5610,5610,16520,-3928,15428,22942.60,26.84,-1.00,-1.0,2433
5613,5613,9432,7556,2184,12281.11,26.84,-1.00,-1.0,2364
5616,5616,25696,-5664,7636,27398.43,26.84,-1.00,-1.0,2424
5618,5618,14500,5640,-9320,18136.21,26.84,-1.00,-1.0,2366
5621,5621,14432,-300,-1952,14566.50,26.84,-1.00,-1.0,2369
5624,5624,17904,-2824,16764,24689.27,26.84,-1.00,-1.0,2419
5627,5627,17740,6740,-5128,19657.86,26.93,-1.00,-1.0,2365
5632,5632,8256,-1020,-10608,13480.79,26.88,-1.00,-1.0,2430
5635,5635,24580,-3824,18720,31132.58,26.79,-1.00,-1.0,2373
5637,5637,16028,4456,-15380,22656.06,26.88,-1.00,-1.0,2431
5640,5640,19908,1204,12908,23756.99,26.79,-1.00,-1.0,2370
5643,5643,15604,-9516,5596,19114.24,26.79,-1.00,-1.0,2422
5646,5646,13304,4292,-4472,14677.07,26.84,-1.00,-1.0,2366
5648,5648,17968,-15444,3164,23903.49,26.84,-1.00,-1.0,2422
5651,5651,13160,9188,-11440,19709.86,26.84,-1.00,-1.0,2365
5654,5654,22288,-2764,16688,27980.06,26.93,-1.00,-1.0,2361
5659,5659,16412,1516,1488,16548.90,26.93,-1.00,-1.0,2429
5662,5662,14304,-8088,1848,16535.88,26.88,-1.00,-1.0,2371
5664,5664,12824,13152,7412,19808.28,26.88,-1.00,-1.0,2428
5667,5667,20428,-22208,-6688,30906.76,26.88,-1.00,-1.0,2380
5670,5670,13172,7252,-14500,20888.83,26.88,-1.00,-1.0,2409
5673,5673,24208,2288,28676,37597.54,26.84,-1.00,-1.0,2365
5675,5675,16768,15116,-4128,22949.94,26.84,-1.00,-1.0,2426
5678,5678,14396,1728,3688,14961.02,26.84,-1.00,-1.0,2365
5683,5683,14144,10616,-14948,23155.88,26.84,-1.00,-1.0,2433
5686,5686,23572,-1420,21592,31997.97,26.84,-1.00,-1.0,2364
5688,5688,17172,9144,-5892,20327.47,26.93,-1.00,-1.0,2360
5691,5691,15796,-11152,6260,20324.08,26.79,-1.00,-1.0,2423
5694,5694,15900,-7484,-3032,17832.93,26.84,-1.00,-1.0,2365
5696,5696,14324,15376,11612,24009.10,26.74,-1.00,-1.0,2416
5699,5699,25932,-10032,3724,28053.12,26.84,-1.00,-1.0,2369
5702,5702,10624,13368,6312,18204.78,26.84,-1.00,-1.0,2464
5705,5705,25468,-8564,5772,27482.30,26.88,-1.00,-1.0,2373
5710,5710,20104,-7776,-624,21564.47,26.88,-1.00,-1.0,2429
5713,5713,21588,-13436,-2960,25599.40,26.84,-1.00,-1.0,2364
5715,5715,10072,10388,5352,15427.24,26.79,-1.00,-1.0,2422
5718,5718,24668,-6236,8620,26864.52,26.84,-1.00,-1.0,2365
5721,5721,14264,6140,-1108,15568.85,26.84,-1.00,-1.0,2409
5724,5724,20208,-9276,-2368,22361.01,26.88,-1.00,-1.0,2371
5726,5726,15304,6672,14204,21919.89,26.84,-1.00,-1.0,2362
5729,5729,18800,8480,4852,21187.08,26.84,-1.00,-1.0,2431
5732,5732,14920,-9132,-652,17505.00,26.79,-1.00,-1.0,2380
5737,5737,22280,5920,25712,34533.34,26.88,-1.00,-1.0,2429
5740,5740,13288,2948,11780,18000.83,26.79,-1.00,-1.0,2364
5743,5743,19372,1316,1620,19484.11,26.79,-1.00,-1.0,2420
5745,5745,16640,-9940,-5656,20191.17,26.74,-1.00,-1.0,2366
5748,5748,15904,12064,12140,23363.58,26.79,-1.00,-1.0,2420
5751,5751,20464,-4988,22372,30727.22,26.74,-1.00,-1.0,2366
5753,5753,12816,10048,-5932,17332.07,26.93,-1.00,-1.0,2419
5756,5756,19652,-18872,1868,27310.12,26.84,-1.00,-1.0,2382
5759,5759,11360,12108,6304,17759.33,26.84,-1.00,-1.0,2417
5764,5764,24044,408,-488,24052.41,26.88,-1.00,-1.0,2433
5767,5767,12368,10432,-132,16180.59,26.88,-1.00,-1.0,2364
5769,5769,19444,-23380,-3028,30559.16,26.88,-1.00,-1.0,2415
5772,5772,8480,10644,104,13609.41,26.84,-1.00,-1.0,2367
5775,5775,17580,8716,15924,25270.51,26.84,-1.00,-1.0,2406
5778,5778,22196,5840,8108,24341.48,26.93,-1.00,-1.0,2376
5780,5780,12584,-1212,-3992,13257.53,26.84,-1.00,-1.0,2421
5783,5783,16968,2044,13544,21806.67,26.74,-1.00,-1.0,2370
5788,5788,20972,5352,20304,29676.95,26.84,-1.00,-1.0,2434
5791,5791,16708,8460,4320,19219.55,26.84,-1.00,-1.0,2369
5793,5793,15336,-1000,828,15390.86,26.84,-1.00,-1.0,2358
5796,5796,15068,-6072,6488,17493.08,26.88,-1.00,-1.0,2406
5799,5799,10196,6496,-6068,13526.90,26.84,-1.00,-1.0,2370
5801,5801,25792,2488,20360,32953.71,26.93,-1.00,-1.0,2427
5804,5804,19204,10964,-3872,22449.84,26.84,-1.00,-1.0,2366
5807,5807,18784,-2296,9476,21163.76,26.84,-1.00,-1.0,2417
5810,5810,15904,5688,5700,17826.40,26.84,-1.00,-1.0,2366
5815,5815,26256,-11832,3092,28964.36,26.84,-1.00,-1.0,2442
5818,5818,15720,13608,6080,21662.47,26.93,-1.00,-1.0,2371
5820,5820,15936,-9012,1468,18366.47,26.93,-1.00,-1.0,2365
5823,5823,11492,4932,9752,15858.50,26.84,-1.00,-1.0,2419
5826,5826,11324,6452,860,13061.43,26.93,-1.00,-1.0,2354
5829,5829,28004,-1300,16028,32292.58,26.93,-1.00,-1.0,2425
5831,5831,15780,7248,-12128,21180.89,26.93,-1.00,-1.0,2366
5834,5834,23032,-4368,15748,28240.96,26.79,-1.00,-1.0,2420
5837,5837,15684,12304,7432,21274.65,26.84,-1.00,-1.0,2367
5842,5842,23008,-2784,1216,23207.70,26.84,-1.00,-1.0,2440
5845,5845,17448,-1904,-3400,17877.86,26.84,-1.00,-1.0,2368
5848,5848,14284,-6916,-11884,19826.58,26.84,-1.00,-1.0,2421
5850,5850,15376,1356,12552,19895.04,26.84,-1.00,-1.0,2368
5853,5853,16896,3800,3404,17649.42,26.88,-1.00,-1.0,2348
5856,5856,25360,308,21132,33011.91,26.88,-1.00,-1.0,2425
5858,5858,16556,-224,-16408,23310.38,26.93,-1.00,-1.0,2371
5861,5861,20108,-168,14504,24793.67,26.93,-1.00,-1.0,2419
5864,5864,17420,12188,12128,24476.36,26.88,-1.00,-1.0,2368
5869,5869,19136,-16444,-3620,25489.13,26.88,-1.00,-1.0,2442
5872,5872,10108,1272,-12320,15986.62,26.93,-1.00,-1.0,2370
5875,5875,19496,-7824,-3104,21235.44,26.84,-1.00,-1.0,2426
5878,5878,13044,2028,9192,16085.76,26.93,-1.00,-1.0,2370
5880,5880,16460,4052,8192,18827.09,26.84,-1.00,-1.0,2421
5883,5883,15136,-9796,-7272,19440.73,26.84,-1.00,-1.0,2367
5886,5886,16352,7888,-7616,19687.86,26.74,-1.00,-1.0,2428
5888,5888,20476,-3108,14576,25325.60,26.79,-1.00,-1.0,2367
5891,5891,14484,15896,12088,24669.59,26.93,-1.00,-1.0,2363
5896,5896,21376,-2192,4996,22061.24,26.88,-1.00,-1.0,2433
5899,5899,15176,9708,4456,18558.35,26.88,-1.00,-1.0,2351
5902,5902,18996,-16896,-6468,26232.76,26.88,-1.00,-1.0,2422
5904,5904,9408,2440,-1556,9843.03,26.84,-1.00,-1.0,2366
5907,5907,19016,5940,16744,26024.09,26.74,-1.00,-1.0,2428
5910,5910,20400,1640,17956,27226.23,26.84,-1.00,-1.0,2374
5913,5913,17632,3884,-7360,19497.24,26.84,-1.00,-1.0,2420
5915,5915,18432,-14404,-6144,24186.00,26.93,-1.00,-1.0,2367
5920,5920,11532,3880,6924,13999.40,26.74,-1.00,-1.0,2432
5923,5923,22064,-1800,10820,24640.06,26.88,-1.00,-1.0,2367
5925,5925,16436,18628,19540,31606.27,26.84,-1.00,-1.0,2355
5928,5928,20284,-4344,-540,20750.97,26.84,-1.00,-1.0,2418
5931,5931,12204,-10004,-12788,20311.34,26.79,-1.00,-1.0,2369
5934,5934,14280,-4548,-15376,21471.47,26.84,-1.00,-1.0,2416
5936,5936,20816,4884,23768,31969.94,26.79,-1.00,-1.0,2374
5939,5939,17244,11444,4692,21221.11,26.79,-1.00,-1.0,2421
5942,5942,20968,-8140,-2748,22659.84,26.93,-1.00,-1.0,2368
5947,5947,9072,-1912,-7184,11728.89,26.84,-1.00,-1.0,2435
5950,5950,24160,1948,23992,34104.49,26.84,-1.00,-1.0,2365
5953,5953,13436,19564,17900,29726.86,26.93,-1.00,-1.0,2420
5955,5955,18424,-3712,4632,19356.61,26.79,-1.00,-1.0,2372
5958,5958,12028,-12840,-12752,21729.06,26.93,-1.00,-1.0,2362
5961,5961,16220,5580,-11312,20547.17,26.93,-1.00,-1.0,2427
5963,5963,23464,-8880,5904,25773.45,26.84,-1.00,-1.0,2369
5966,5966,15184,19908,16748,30122.71,26.79,-1.00,-1.0,2431
5969,5969,20888,-9140,-548,22806.76,26.88,-1.00,-1.0,2370
5975,5975,14584,2032,10564,18122.37,26.88,-1.00,-1.0,2432
5978,5978,19928,-6508,11044,23694.92,26.88,-1.00,-1.0,2370
5980,5980,17232,17480,15244,28894.15,26.79,-1.00,-1.0,2429
5983,5983,21104,-8264,-3132,22879.73,26.93,-1.00,-1.0,2365
5986,5986,13256,4212,-928,13940.00,26.88,-1.00,-1.0,2425
5988,5988,13848,-6304,-3388,15588.01,26.84,-1.00,-1.0,2367
5991,5991,17292,2116,18792,25624.79,26.79,-1.00,-1.0,2421
5994,5994,16504,7004,56,17928.78,26.93,-1.00,-1.0,2367
5997,5997,20040,7660,16520,27077.44,26.79,-1.00,-1.0,2363
6001,6001,15380,-1380,-4180,15997.54,26.79,-1.00,-1.0,2435
6004,6004,19288,-8796,812,21214.52,26.84,-1.00,-1.0,2365
6007,6007,17584,14640,15536,27656.72,26.79,-1.00,-1.0,2422
6009,6009,12508,108,4132,13173.27,26.84,-1.00,-1.0,2367
6012,6012,15820,2400,13544,20963.60,26.88,-1.00,-1.0,2419
6015,6015,14824,-10204,-12072,21670.39,26.93,-1.00,-1.0,2369
6018,6018,22232,2124,2024,22424.76,26.84,-1.00,-1.0,2420
6020,6020,18124,-980,-4200,18630.08,26.84,-1.00,-1.0,2374
6023,6023,16512,4948,12484,21283.31,26.84,-1.00,-1.0,2370
6028,6028,15244,14820,15832,26507.81,26.79,-1.00,-1.0,2435
6031,6031,21748,-3124,5252,22590.23,26.93,-1.00,-1.0,2365
6034,6034,15756,3684,-408,16186.10,26.88,-1.00,-1.0,2418
6036,6036,13292,-1552,-8972,16111.57,26.84,-1.00,-1.0,2367
6039,6039,15996,-7808,10072,20451.95,26.79,-1.00,-1.0,2420
6042,6042,13580,7112,3284,15677.42,26.84,-1.00,-1.0,2367
6045,6045,22684,6324,18132,29720.80,26.84,-1.00,-1.0,2421
6047,6047,18844,6100,188,19807.62,26.93,-1.00,-1.0,2372
6052,6052,19972,-11452,-1028,23045.30,26.84,-1.00,-1.0,2444
6055,6055,14600,10796,3812,18553.84,26.88,-1.00,-1.0,2362
6058,6058,15408,-4652,-2812,16338.75,26.84,-1.00,-1.0,2359
6060,6060,15464,-6796,2352,17054.41,26.93,-1.00,-1.0,2426
6063,6063,14596,-1472,-5560,15688.33,26.84,-1.00,-1.0,2371
6066,6066,15456,-12520,-7388,21218.41,26.84,-1.00,-1.0,2427
6069,6069,17228,8252,-6264,20103.16,26.79,-1.00,-1.0,2368
6071,6071,19160,-5180,10532,22469.11,26.98,-1.00,-1.0,2420
6074,6074,13992,9056,8948,18917.03,26.84,-1.00,-1.0,2366
6079,6079,23752,2612,13108,27254.35,26.93,-1.00,-1.0,2441
6082,6082,18232,4000,-5176,19370.00,26.93,-1.00,-1.0,2371
6085,6085,17724,1936,10312,20596.74,26.84,-1.00,-1.0,2422
6087,6087,13664,-9080,-1892,16514.57,26.79,-1.00,-1.0,2368
6090,6090,15748,6240,10448,19902.21,26.84,-1.00,-1.0,2369
6093,6093,21504,92,8752,23216.98,26.84,-1.00,-1.0,2419
6096,6096,16088,6492,5084,18078.08,26.84,-1.00,-1.0,2367
6098,6098,14748,-3884,-2828,15510.85,26.79,-1.00,-1.0,2419
6101,6101,14144,-8244,-760,16388.83,26.79,-1.00,-1.0,2367
6106,6106,21756,1684,14900,26422.89,26.88,-1.00,-1.0,2441
6109,6109,17156,9968,5244,20522.89,26.93,-1.00,-1.0,2377
6112,6112,16400,-3884,-56,16853.74,26.93,-1.00,-1.0,2407
6115,6115,19648,-4216,2396,20237.57,26.84,-1.00,-1.0,2366
6117,6117,15328,-284,-4236,15905.09,26.93,-1.00,-1.0,2428
6120,6120,20764,3360,14884,25767.55,26.88,-1.00,-1.0,2367
6123,6123,15108,-1420,2680,15409.43,26.84,-1.00,-1.0,2364
6126,6126,15852,6024,11676,20588.92,26.84,-1.00,-1.0,2420
6128,6128,20128,300,5544,20879.71,26.79,-1.00,-1.0,2367
6133,6133,15052,-2600,-3484,15667.19,26.79,-1.00,-1.0,2433
6136,6136,16440,-2232,4276,17133.00,26.84,-1.00,-1.0,2364
6139,6139,16160,4652,9464,19296.48,26.84,-1.00,-1.0,2417
6142,6142,19604,3780,14340,24581.31,26.84,-1.00,-1.0,2374
6144,6144,18012,8716,5868,20852.68,26.88,-1.00,-1.0,2430
6147,6147,16324,-2508,-384,16520.00,26.84,-1.00,-1.0,2367
6150,6150,13932,256,7596,15870.27,26.79,-1.00,-1.0,2363
6153,6153,14860,4540,616,15550.26,26.84,-1.00,-1.0,2420
6155,6155,22100,1140,12808,25568.62,26.84,-1.00,-1.0,2366
6160,6160,14448,-276,5680,15526.86,26.88,-1.00,-1.0,2432
6163,6163,16412,-8912,-2560,18850.23,26.88,-1.00,-1.0,2365
6166,6166,16068,2436,1348,16307.42,26.88,-1.00,-1.0,2418
6169,6169,21060,3912,11796,24453.49,26.84,-1.00,-1.0,2372
6171,6171,13580,652,-1876,13724.46,26.88,-1.00,-1.0,2426
6174,6174,15272,-4476,1184,15958.40,26.84,-1.00,-1.0,2376
6177,6177,15592,-9032,-2692,18219.07,26.93,-1.00,-1.0,2423
6180,6180,17320,6764,-380,18597.81,26.84,-1.00,-1.0,2367
6183,6183,17984,872,5700,18885.83,26.93,-1.00,-1.0,2362
6187,6187,19220,-4812,5232,20492.38,26.88,-1.00,-1.0,2443
6190,6190,17432,4364,3552,18317.64,26.84,-1.00,-1.0,2364
6193,6193,19528,3344,4960,20423.68,26.93,-1.00,-1.0,2425
6195,6195,16572,-4328,6272,18240.09,26.93,-1.00,-1.0,2366
6198,6198,14444,-3700,-2676,15148.60,26.93,-1.00,-1.0,2420
6201,6201,16280,772,3920,16763.08,26.88,-1.00,-1.0,2367
6204,6204,18644,3748,12068,22522.94,26.93,-1.00,-1.0,2420
6207,6207,18524,5740,8260,21078.75,26.84,-1.00,-1.0,2366
6210,6210,14888,3436,3556,15687.70,26.84,-1.00,-1.0,2362
6214,6214,17228,1048,-3676,17646.96,26.88,-1.00,-1.0,2434
6217,6217,21360,-2800,3140,21770.38,26.84,-1.00,-1.0,2367
6220,6220,17340,10128,7868,21567.51,26.79,-1.00,-1.0,2441
6223,6223,18584,1560,8868,20650.43,26.88,-1.00,-1.0,2374
6225,6225,18108,-620,10904,21146.66,26.88,-1.00,-1.0,2430
6228,6228,15820,4140,-3160,16655.26,26.88,-1.00,-1.0,2373
6231,6231,21248,-6032,1780,22159.22,26.98,-1.00,-1.0,2429
6234,6234,15912,11060,10828,22198.22,26.98,-1.00,-1.0,2368
6239,6239,14740,-3804,4712,15935.53,26.88,-1.00,-1.0,2427
