timestamp_ms,global_ms,accel_x,accel_y,accel_z,accel_mag,temp_c,voltage,soc,loop_us
2,2,16872,1540,2028,17063.08,28.34,-1.00,-1.0,2490
9,9,16944,1516,2052,17135.00,28.39,-1.00,-1.0,2457
12,12,16928,1416,2044,17109.65,28.39,-1.00,-1.0,2378
14,14,17016,1496,2104,17210.73,28.39,-1.00,-1.0,2363
17,17,16928,1464,2060,17115.61,28.34,-1.00,-1.0,2411
20,20,16568,1748,2356,16825.72,28.39,-1.00,-1.0,2368
23,23,14192,1532,2116,14430.43,28.39,-1.00,-1.0,2414
25,25,19672,5396,1884,20485.46,28.34,-1.00,-1.0,2367
28,28,16480,-2664,7920,18477.38,28.29,-1.00,-1.0,2369
31,31,8164,7524,-12640,16823.53,28.20,-1.00,-1.0,2426
33,33,20152,8688,11372,24716.53,28.39,-1.00,-1.0,2367
38,38,18508,2304,4788,19255.63,28.39,-1.00,-1.0,2432
41,41,19504,9916,-5496,22559.68,28.44,-1.00,-1.0,2364
44,44,16452,6144,-4164,18048.71,28.34,-1.00,-1.0,2417
46,46,15448,3216,14040,21121.20,28.34,-1.00,-1.0,2373
49,49,19452,-6236,3080,20658.04,28.25,-1.00,-1.0,2363
52,52,19028,-1524,-3412,19391.47,28.39,-1.00,-1.0,2428
54,54,23084,1468,692,23140.98,28.34,-1.00,-1.0,2374
57,57,12832,168,7748,14990.66,28.44,-1.00,-1.0,2420
60,60,13624,4184,6520,15672.58,28.25,-1.00,-1.0,2353
62,62,14872,3300,124,15234.23,28.34,-1.00,-1.0,2361
67,67,19308,5604,2024,20206.44,28.34,-1.00,-1.0,2443
70,70,13524,3580,844,14015.25,28.39,-1.00,-1.0,2362
73,73,15272,3408,1692,15738.85,28.34,-1.00,-1.0,2425
75,75,17840,352,3848,18253.67,28.39,-1.00,-1.0,2366
78,78,17776,-908,2768,18013.12,28.39,-1.00,-1.0,2420
81,81,17244,2456,-1464,17479.44,28.34,-1.00,-1.0,2366
84,84,19516,-1332,8944,21509.15,28.29,-1.00,-1.0,2362
87,87,14456,2020,-5576,15625.24,28.29,-1.00,-1.0,2421
89,89,18608,2108,5912,19638.05,28.39,-1.00,-1.0,2366
94,94,17000,896,1484,17088.16,28.44,-1.00,-1.0,2441
97,97,16904,1612,4196,17491.43,28.34,-1.00,-1.0,2378
100,100,16184,3244,-908,16530.88,28.34,-1.00,-1.0,2355
103,103,18420,716,7092,19751.09,28.39,-1.00,-1.0,2452
105,105,17512,828,3692,17916.10,28.48,-1.00,-1.0,2368
108,108,16048,2476,-844,16259.80,28.34,-1.00,-1.0,2417
111,111,17124,1204,1644,17244.82,28.39,-1.00,-1.0,2365
114,114,16912,1084,2584,17142.57,28.29,-1.00,-1.0,2420
116,116,17664,2360,3388,18140.15,28.39,-1.00,-1.0,2365
119,119,16964,1168,1400,17061.70,28.29,-1.00,-1.0,2362
124,124,16672,1716,1320,16811.98,28.29,-1.00,-1.0,2415
127,127,17312,2072,3876,17861.18,28.34,-1.00,-1.0,2368
130,130,16864,1316,2720,17132.56,28.34,-1.00,-1.0,2411
133,133,16212,1684,268,16301.43,28.39,-1.00,-1.0,2367
135,135,16320,1912,1700,16519.33,28.34,-1.00,-1.0,2422
138,138,16768,1952,2168,17019.88,28.39,-1.00,-1.0,2364
141,141,17540,1212,3652,17957.11,28.29,-1.00,-1.0,2362
144,144,17144,1348,2304,17350.57,28.44,-1.00,-1.0,2422
147,147,16584,1348,652,16651.46,28.29,-1.00,-1.0,2365
151,151,17348,1480,2920,17654.18,28.39,-1.00,-1.0,2426
154,154,17364,1640,1976,17552.85,28.29,-1.00,-1.0,2370
157,157,17236,1056,2352,17427.76,28.39,-1.00,-1.0,2422
160,160,16712,684,1512,16794.19,28.34,-1.00,-1.0,2371
162,162,17264,1272,3004,17569.51,28.39,-1.00,-1.0,2361
165,165,16708,1644,2460,16967.96,28.29,-1.00,-1.0,2421
168,168,16376,1848,1660,16563.34,28.34,-1.00,-1.0,2368
171,171,17096,1308,3052,17415.47,28.34,-1.00,-1.0,2428
174,174,16508,1956,816,16643.49,28.34,-1.00,-1.0,2364
178,178,16904,1500,2588,17166.62,28.29,-1.00,-1.0,2427
181,181,16756,1616,1460,16896.94,28.29,-1.00,-1.0,2364
184,184,17312,1728,2264,17544.71,28.39,-1.00,-1.0,2357
187,187,17192,1536,2744,17477.23,28.39,-1.00,-1.0,2422
189,189,16928,1440,1320,17040.34,28.29,-1.00,-1.0,2366
192,192,17200,1044,2184,17369.51,28.29,-1.00,-1.0,2417
195,195,17012,960,2452,17214.59,28.39,-1.00,-1.0,2365
198,198,16544,1476,1572,16683.94,28.39,-1.00,-1.0,2427
201,201,16804,1292,2928,17106.05,28.44,-1.00,-1.0,2371
204,204,16816,1564,1696,16973.52,28.44,-1.00,-1.0,2363
209,209,16968,1144,2340,17166.75,28.39,-1.00,-1.0,2414
211,211,16924,1340,1824,17074.67,28.39,-1.00,-1.0,2363
214,214,16888,1716,1664,17056.32,28.34,-1.00,-1.0,2424
217,217,16816,1796,2136,17046.00,28.48,-1.00,-1.0,2368
219,219,17012,1880,2096,17243.43,28.29,-1.00,-1.0,2420
222,222,17148,1772,2080,17364.34,28.39,-1.00,-1.0,2372
225,225,16988,1368,1712,17128.76,28.39,-1.00,-1.0,2362
228,228,16772,1236,1656,16898.82,28.29,-1.00,-1.0,2431
231,231,16984,1308,2612,17233.39,28.39,-1.00,-1.0,2375
235,235,16952,1724,2376,17204.30,28.39,-1.00,-1.0,2434
238,238,16752,1348,2020,16927.11,28.39,-1.00,-1.0,2367
241,241,16880,1212,1844,17023.62,28.39,-1.00,-1.0,2427
244,244,17028,1224,1956,17183.62,28.34,-1.00,-1.0,2367
246,246,17016,1448,1944,17187.79,28.29,-1.00,-1.0,2368
249,249,17080,1428,2532,17325.61,28.29,-1.00,-1.0,2423
252,252,16992,1552,2192,17202.96,28.39,-1.00,-1.0,2366
255,255,16952,1508,1856,17119.85,28.39,-1.00,-1.0,2415
258,258,16912,1504,2032,17099.91,28.39,-1.00,-1.0,2365
262,262,16976,1688,2012,17177.95,28.39,-1.00,-1.0,2434
265,265,16900,1644,2356,17142.45,28.29,-1.00,-1.0,2370
268,268,16776,1552,2244,16996.42,28.39,-1.00,-1.0,2358
270,270,17008,1300,2424,17228.98,28.39,-1.00,-1.0,2409
273,273,16920,1332,2228,17117.96,28.39,-1.00,-1.0,2374
276,276,16844,1388,1780,16994.57,28.39,-1.00,-1.0,2419
279,279,17036,1492,2548,17289.99,28.34,-1.00,-1.0,2365
282,282,16956,1464,2240,17165.86,28.34,-1.00,-1.0,2420
285,285,16944,1588,1808,17114.02,28.34,-1.00,-1.0,2365
288,288,17024,1436,2180,17222.98,28.44,-1.00,-1.0,2362
293,293,16748,1452,1980,16927.03,28.39,-1.00,-1.0,2433
295,295,16812,1448,2080,17001.96,28.39,-1.00,-1.0,2362
298,298,16888,1600,2108,17094.10,28.29,-1.00,-1.0,2430
301,301,17004,1696,1924,17196.34,28.34,-1.00,-1.0,2374
304,304,16992,1424,2100,17180.39,28.29,-1.00,-1.0,2421
306,306,17128,1340,2140,17313.10,28.44,-1.00,-1.0,2364
309,309,16976,1412,2004,17152.09,28.39,-1.00,-1.0,2357
312,312,17192,1316,2160,17377.06,28.44,-1.00,-1.0,2421
315,315,17080,1452,2392,17307.70,28.34,-1.00,-1.0,2364
320,320,16972,1664,1992,17169.33,28.44,-1.00,-1.0,2428
322,322,16868,1492,2160,17071.06,28.39,-1.00,-1.0,2362
325,325,16984,1476,2160,17184.31,28.39,-1.00,-1.0,2436
328,328,16836,1596,2112,17042.85,28.29,-1.00,-1.0,2376
330,330,16828,1704,2144,17049.40,28.39,-1.00,-1.0,2367
333,333,16800,1444,1996,16979.67,28.34,-1.00,-1.0,2429
336,336,16828,1464,2104,17022.09,28.39,-1.00,-1.0,2372
339,339,16968,1544,2504,17221.12,28.29,-1.00,-1.0,2427
342,342,17200,1500,2192,17403.88,28.25,-1.00,-1.0,2362
347,347,17056,1160,2096,17223.41,28.39,-1.00,-1.0,2468
349,349,17136,1316,2040,17307.11,28.29,-1.00,-1.0,2363
352,352,17156,1332,1932,17315.75,28.39,-1.00,-1.0,2366
355,355,17008,1452,2084,17196.61,28.44,-1.00,-1.0,2422
358,358,16900,1476,2000,17081.82,28.29,-1.00,-1.0,2365
360,360,16776,1492,2128,16976.12,28.29,-1.00,-1.0,2420
363,363,16852,1504,2156,17055.80,28.34,-1.00,-1.0,2365
366,366,16868,1668,2104,17080.35,28.39,-1.00,-1.0,2426
369,369,16892,1732,2152,17116.38,28.39,-1.00,-1.0,2364
372,372,16948,1676,2128,17163.10,28.39,-1.00,-1.0,2361
377,377,17020,1376,1940,17185.38,28.39,-1.00,-1.0,2434
379,379,16968,1288,2124,17148.86,28.34,-1.00,-1.0,2370
382,382,17000,1348,2220,17197.25,28.34,-1.00,-1.0,2418
385,385,17000,1396,2188,17196.98,28.34,-1.00,-1.0,2366
388,388,17084,1296,2120,17263.75,28.34,-1.00,-1.0,2427
390,390,16972,1300,1964,17134.65,28.39,-1.00,-1.0,2366
393,393,17000,1304,1864,17151.53,28.34,-1.00,-1.0,2366
396,396,16964,1468,2096,17155.92,28.44,-1.00,-1.0,2429
399,399,16908,1660,2176,17128.08,28.39,-1.00,-1.0,2373
404,404,16804,1640,2136,17018.42,28.39,-1.00,-1.0,2439
406,406,16900,1700,2312,17141.92,28.34,-1.00,-1.0,2364
409,409,16840,1552,2296,17066.51,28.29,-1.00,-1.0,2419
412,412,16844,1492,2320,17068.36,28.44,-1.00,-1.0,2369
414,414,17008,1468,2244,17218.09,28.48,-1.00,-1.0,2357
417,417,16916,1496,2332,17141.39,28.29,-1.00,-1.0,2419
420,420,16976,1368,2152,17166.45,28.34,-1.00,-1.0,2366
423,423,17000,1348,2264,17202.99,28.34,-1.00,-1.0,2424
426,426,17096,1448,2120,17287.69,28.44,-1.00,-1.0,2375
431,431,16892,1332,1852,17045.35,28.39,-1.00,-1.0,2440
433,433,16904,1452,2048,17089.41,28.39,-1.00,-1.0,2364
436,436,16976,1580,1956,17161.20,28.29,-1.00,-1.0,2419
439,439,16792,1536,2064,16987.96,28.29,-1.00,-1.0,2370
441,441,16800,1476,2224,17010.72,28.39,-1.00,-1.0,2357
444,444,16956,1648,2276,17187.26,28.39,-1.00,-1.0,2418
447,447,16908,1588,2124,17114.72,28.39,-1.00,-1.0,2369
450,450,16940,1468,2060,17127.82,28.25,-1.00,-1.0,2418
453,453,17044,1408,1968,17214.92,28.34,-1.00,-1.0,2372
458,458,17112,1420,2116,17300.71,28.39,-1.00,-1.0,2439
460,460,16940,1256,2244,17134.08,28.44,-1.00,-1.0,2366
463,463,16932,1288,2136,17114.73,28.29,-1.00,-1.0,2360
466,466,16820,1412,2124,17012.28,28.29,-1.00,-1.0,2420
468,468,16820,1364,2132,17009.36,28.34,-1.00,-1.0,2372
471,471,16976,1452,1996,17154.50,28.39,-1.00,-1.0,2428
474,474,16788,1524,2044,16980.50,28.34,-1.00,-1.0,2368
477,477,16844,1480,2244,17057.15,28.39,-1.00,-1.0,2417
480,480,16948,1408,2212,17149.64,28.34,-1.00,-1.0,2352
483,483,17036,1372,2248,17238.36,28.39,-1.00,-1.0,2365
488,488,17188,1452,2204,17389.46,28.34,-1.00,-1.0,2441
490,490,17036,1388,2132,17224.90,28.34,-1.00,-1.0,2364
493,493,17008,1332,1844,17159.45,28.34,-1.00,-1.0,2419
496,496,16956,1380,1900,17117.84,28.39,-1.00,-1.0,2354
499,499,16824,1452,2124,17019.60,28.39,-1.00,-1.0,2419
501,501,16916,1396,2232,17119.63,28.29,-1.00,-1.0,2372
504,504,16852,1500,2212,17062.62,28.44,-1.00,-1.0,2361
507,507,16944,1528,2008,17130.85,28.29,-1.00,-1.0,2419
510,510,16916,1588,2112,17121.14,28.29,-1.00,-1.0,2353
515,515,16952,1460,2228,17160.01,28.34,-1.00,-1.0,2440
517,517,16972,1540,2232,17187.27,28.34,-1.00,-1.0,2365
520,520,16968,1460,2228,17175.81,28.44,-1.00,-1.0,2418
523,523,17000,1408,2260,17207.27,28.34,-1.00,-1.0,2366
526,526,16888,1356,2416,17113.75,28.44,-1.00,-1.0,2360
528,528,17140,1372,2272,17344.28,28.34,-1.00,-1.0,2418
531,531,16876,1420,2028,17056.63,28.44,-1.00,-1.0,2367
534,534,16956,1384,2052,17135.70,28.34,-1.00,-1.0,2414
537,537,16868,1392,2160,17062.61,28.48,-1.00,-1.0,2368
542,542,16936,1448,2292,17151.62,28.29,-1.00,-1.0,2437
545,545,16812,1452,2108,17005.74,28.44,-1.00,-1.0,2363
547,547,16928,1400,2092,17114.14,28.39,-1.00,-1.0,2363
550,550,17028,1428,2012,17205.82,28.39,-1.00,-1.0,2421
553,553,16956,1340,1952,17120.51,28.39,-1.00,-1.0,2369
555,555,17048,1388,2052,17227.06,28.29,-1.00,-1.0,2428
558,558,17024,1372,1912,17185.89,28.34,-1.00,-1.0,2364
561,561,16868,1312,1984,17034.88,28.44,-1.00,-1.0,2417
564,564,17028,1404,2344,17245.82,28.34,-1.00,-1.0,2356
567,567,16956,1272,2072,17129.42,28.34,-1.00,-1.0,2349
572,572,16952,1420,2164,17148.46,28.39,-1.00,-1.0,2435
575,575,16892,1532,2092,17089.86,28.29,-1.00,-1.0,2364
577,577,16816,1460,2216,17024.10,28.39,-1.00,-1.0,2435
580,580,16832,1492,2236,17045.29,28.44,-1.00,-1.0,2365
583,583,16892,1532,2056,17085.49,28.39,-1.00,-1.0,2421
585,585,16972,1508,2124,17170.74,28.34,-1.00,-1.0,2366
588,588,16884,1408,1964,17056.06,28.29,-1.00,-1.0,2363
591,591,16992,1464,2040,17176.52,28.34,-1.00,-1.0,2418
594,594,17016,1476,1996,17196.13,28.25,-1.00,-1.0,2366
599,599,16952,1560,1924,17132.01,28.25,-1.00,-1.0,2435
602,602,16928,1432,1980,17103.46,28.39,-1.00,-1.0,2370
604,604,16952,1336,1964,17117.61,28.34,-1.00,-1.0,2427
607,607,17012,1356,2064,17190.32,28.39,-1.00,-1.0,2364
610,610,16996,1476,2060,17183.89,28.44,-1.00,-1.0,2358
612,612,16996,1560,2020,17186.56,28.34,-1.00,-1.0,2421
615,615,16732,1536,2108,16934.07,28.29,-1.00,-1.0,2371
618,618,16872,1480,2248,17085.32,28.39,-1.00,-1.0,2417
621,621,16880,1516,2120,17080.02,28.29,-1.00,-1.0,2367
626,626,16924,1420,2148,17118.76,28.44,-1.00,-1.0,2435
629,629,17012,1376,2016,17186.21,28.53,-1.00,-1.0,2367
631,631,17040,1436,2160,17236.28,28.25,-1.00,-1.0,2356
634,634,16904,1416,2108,17093.68,28.39,-1.00,-1.0,2420
637,637,16880,1492,2252,17094.79,28.34,-1.00,-1.0,2367
639,639,16940,1448,2084,17129.02,28.34,-1.00,-1.0,2404
642,642,16940,1452,2220,17146.44,28.39,-1.00,-1.0,2374
645,645,16984,1412,1992,17158.62,28.39,-1.00,-1.0,2420
648,648,17000,1536,1988,17184.63,28.29,-1.00,-1.0,2366
651,651,16956,1468,2028,17139.83,28.39,-1.00,-1.0,2362
656,656,16956,1504,2032,17143.42,28.34,-1.00,-1.0,2432
659,659,17020,1560,2192,17231.33,28.34,-1.00,-1.0,2367
661,661,16944,1500,2120,17141.87,28.34,-1.00,-1.0,2416
664,664,16776,1444,2140,16973.48,28.39,-1.00,-1.0,2374
667,667,16948,1352,1988,17117.67,28.25,-1.00,-1.0,2421
670,670,16844,1472,2084,17036.14,28.39,-1.00,-1.0,2367
672,672,17032,1340,2136,17217.64,28.34,-1.00,-1.0,2369
675,675,16968,1360,2216,17166.05,28.39,-1.00,-1.0,2434
678,678,17028,1360,1976,17196.13,28.39,-1.00,-1.0,2375
683,683,16932,1512,2160,17136.05,28.34,-1.00,-1.0,2444
686,686,16972,1468,2052,17158.51,28.39,-1.00,-1.0,2364
688,688,16956,1460,2196,17159.84,28.34,-1.00,-1.0,2423
691,691,17024,1512,2256,17239.27,28.29,-1.00,-1.0,2366
694,694,16948,1612,2012,17142.97,28.34,-1.00,-1.0,2360
696,696,16976,1520,1968,17157.16,28.34,-1.00,-1.0,2434
699,699,16872,1516,2164,17077.63,28.29,-1.00,-1.0,2372
702,702,16984,1440,2288,17197.81,28.25,-1.00,-1.0,2431
705,705,16844,1524,2096,17042.19,28.29,-1.00,-1.0,2374
710,710,16980,1380,2156,17171.87,28.44,-1.00,-1.0,2439
713,713,17088,1328,2164,17275.60,28.48,-1.00,-1.0,2364
715,715,17016,1520,2200,17224.83,28.34,-1.00,-1.0,2368
718,718,16988,1468,2064,17175.78,28.29,-1.00,-1.0,2421
721,721,17040,1456,2112,17232.01,28.34,-1.00,-1.0,2367
723,723,16956,1452,2052,17141.32,28.25,-1.00,-1.0,2428
726,726,16952,1516,2196,17160.74,28.25,-1.00,-1.0,2380
729,729,16880,1536,2096,17078.84,28.39,-1.00,-1.0,2426
732,732,16968,1496,2168,17171.23,28.34,-1.00,-1.0,2381
735,735,16880,1400,2156,17074.62,28.34,-1.00,-1.0,2377
740,740,16900,1440,2036,17083.00,28.44,-1.00,-1.0,2433
743,743,17004,1432,2008,17181.93,28.29,-1.00,-1.0,2372
746,746,16892,1464,2080,17082.43,28.44,-1.00,-1.0,2414
748,748,16924,1436,2116,17116.11,28.39,-1.00,-1.0,2367
751,751,16972,1432,2096,17160.79,28.29,-1.00,-1.0,2421
754,754,16912,1456,2232,17120.67,28.39,-1.00,-1.0,2367
756,756,16940,1476,2040,17126.11,28.39,-1.00,-1.0,2362
759,759,16880,1412,1980,17054.28,28.39,-1.00,-1.0,2418
762,762,16836,1412,2124,17028.10,28.29,-1.00,-1.0,2369
767,767,16976,1492,2192,17181.84,28.44,-1.00,-1.0,2448
770,770,16948,1488,2112,17143.79,28.34,-1.00,-1.0,2366
773,773,16888,1388,2260,17094.99,28.34,-1.00,-1.0,2416
775,775,16892,1428,2112,17083.31,28.39,-1.00,-1.0,2353
778,778,16992,1484,2360,17219.17,28.34,-1.00,-1.0,2369
781,781,16924,1408,2096,17111.33,28.44,-1.00,-1.0,2422
783,783,17000,1520,2172,17205.46,28.34,-1.00,-1.0,2366
786,786,16976,1444,2136,17170.68,28.39,-1.00,-1.0,2419
789,789,16868,1484,2192,17074.44,28.39,-1.00,-1.0,2366
794,794,16912,1500,2132,17111.73,28.39,-1.00,-1.0,2443
797,797,16916,1596,2024,17111.25,28.34,-1.00,-1.0,2372
799,799,16904,1588,2224,17123.47,28.39,-1.00,-1.0,2365
802,802,16908,1532,2020,17097.01,28.39,-1.00,-1.0,2419
805,805,16796,1504,2060,16988.56,28.39,-1.00,-1.0,2369
808,808,16876,1440,2160,17074.50,28.48,-1.00,-1.0,2428
810,810,17028,1440,2044,17210.59,28.34,-1.00,-1.0,2367
813,813,16956,1440,2036,17138.40,28.44,-1.00,-1.0,2407
816,816,16984,1432,2068,17169.26,28.29,-1.00,-1.0,2367
821,821,17028,1356,2232,17227.11,28.29,-1.00,-1.0,2441
824,824,17008,1424,2088,17194.75,28.29,-1.00,-1.0,2372
826,826,16988,1548,2192,17198.64,28.29,-1.00,-1.0,2347
829,829,16960,1476,2264,17173.99,28.39,-1.00,-1.0,2417
832,832,16872,1616,2136,17083.28,28.39,-1.00,-1.0,2369
835,835,16876,1556,2112,17078.67,28.29,-1.00,-1.0,2423
837,837,16880,1620,2072,17083.68,28.34,-1.00,-1.0,2367
840,840,16984,1480,1964,17161.12,28.34,-1.00,-1.0,2418
843,843,16880,1516,2244,17095.85,28.44,-1.00,-1.0,2366
846,846,16860,1512,2088,17055.95,28.44,-1.00,-1.0,2362
851,851,16908,1500,2104,17104.31,28.34,-1.00,-1.0,2433
854,854,17076,1480,2204,17281.14,28.39,-1.00,-1.0,2366
857,857,17000,1456,1992,17178.12,28.39,-1.00,-1.0,2427
859,859,17000,1444,2112,17191.44,28.34,-1.00,-1.0,2421
862,862,16944,1496,2148,17145.00,28.25,-1.00,-1.0,2422
865,865,16932,1392,2052,17112.60,28.39,-1.00,-1.0,2370
868,868,16924,1476,2100,17117.54,28.39,-1.00,-1.0,2363
870,870,16984,1492,1964,17162.16,28.39,-1.00,-1.0,2420
873,873,16928,1544,2116,17129.46,28.25,-1.00,-1.0,2370
878,878,16956,1536,2180,17164.43,28.34,-1.00,-1.0,2418
881,881,16888,1560,2072,17086.00,28.39,-1.00,-1.0,2352
884,884,16984,1396,1932,17150.44,28.34,-1.00,-1.0,2424
886,886,16964,1612,2040,17162.09,28.39,-1.00,-1.0,2369
889,889,16948,1472,2060,17136.08,28.39,-1.00,-1.0,2362
892,892,16960,1444,2168,17158.88,28.34,-1.00,-1.0,2419
894,894,16940,1476,1964,17117.23,28.44,-1.00,-1.0,2417
897,897,16984,1492,1908,17155.84,28.39,-1.00,-1.0,2429
900,900,16880,1380,2220,17081.20,28.39,-1.00,-1.0,2369
905,905,16840,1600,2064,17041.29,28.39,-1.00,-1.0,2447
908,908,16848,1372,2136,17038.19,28.39,-1.00,-1.0,2372
910,910,16944,1400,2032,17122.74,28.39,-1.00,-1.0,2366
913,913,16912,1544,1988,17098.30,28.34,-1.00,-1.0,2428
916,916,16940,1476,2080,17130.92,28.39,-1.00,-1.0,2371
919,919,17036,1552,2084,17233.02,28.39,-1.00,-1.0,2423
921,921,16868,1516,2152,17072.16,28.29,-1.00,-1.0,2367
924,924,16944,1484,2044,17131.24,28.34,-1.00,-1.0,2437
927,927,17032,1388,1948,17199.14,28.39,-1.00,-1.0,2368
930,930,17028,1504,2192,17234.26,28.39,-1.00,-1.0,2364
935,935,16964,1452,2156,17161.99,28.39,-1.00,-1.0,2433
938,938,16928,1552,2112,17129.70,28.44,-1.00,-1.0,2369
941,941,16896,1560,2072,17093.91,28.34,-1.00,-1.0,2416
943,943,16876,1484,2096,17070.29,28.34,-1.00,-1.0,2374
946,946,16788,1560,2092,16989.62,28.34,-1.00,-1.0,2418
949,949,16896,1604,2124,17104.36,28.29,-1.00,-1.0,2375
951,951,16972,1572,2104,17174.02,28.25,-1.00,-1.0,2364
954,954,16948,1520,2072,17141.71,28.34,-1.00,-1.0,2427
957,957,16964,1448,2200,17167.24,28.34,-1.00,-1.0,2372
962,962,16836,1440,2312,17054.91,28.39,-1.00,-1.0,2433
965,965,17040,1400,2180,17235.83,28.29,-1.00,-1.0,2364
968,968,17000,1444,2216,17204.53,28.29,-1.00,-1.0,2422
970,970,16980,1532,2212,17191.87,28.34,-1.00,-1.0,2368
973,973,16924,1552,2056,17118.93,28.48,-1.00,-1.0,2361
976,976,16944,1480,1864,17110.35,28.29,-1.00,-1.0,2428
978,978,16964,1512,1816,17127.79,28.34,-1.00,-1.0,2365
981,981,16912,1500,1924,17087.06,28.34,-1.00,-1.0,2426
984,984,16956,1516,1960,17136.10,28.34,-1.00,-1.0,2373
989,989,16952,1376,2152,17143.36,28.34,-1.00,-1.0,2434
992,992,16908,1452,2152,17106.13,28.39,-1.00,-1.0,2364
995,995,16944,1528,2168,17150.34,28.34,-1.00,-1.0,2354
997,997,16784,1512,1896,16958.29,28.34,-1.00,-1.0,2429
1000,1000,16840,1496,2048,17029.91,28.39,-1.00,-1.0,2365
1003,1003,16940,1648,1900,17125.70,28.48,-1.00,-1.0,2417
1005,1005,16952,1452,1856,17115.00,28.29,-1.00,-1.0,2366
1008,1008,16976,1576,1976,17163.13,28.34,-1.00,-1.0,2408
1011,1011,16964,1636,2124,17174.55,28.34,-1.00,-1.0,2373
1016,1016,16940,1340,2000,17110.21,28.44,-1.00,-1.0,2444
1019,1019,16996,1464,1972,17172.54,28.39,-1.00,-1.0,2365
1022,1022,17024,1420,2012,17201.20,28.34,-1.00,-1.0,2359
1024,1024,16892,1396,1904,17056.19,28.39,-1.00,-1.0,2425
1027,1027,17004,1428,2024,17183.47,28.34,-1.00,-1.0,2371
1030,1030,16888,1440,1928,17058.59,28.34,-1.00,-1.0,2422
1033,1033,16916,1616,2212,17136.38,28.29,-1.00,-1.0,2367
1035,1035,16912,1552,2048,17106.10,28.39,-1.00,-1.0,2418
1038,1038,16824,1576,2088,17026.17,28.39,-1.00,-1.0,2370
1043,1043,16936,1552,2160,17143.58,28.44,-1.00,-1.0,2443
1046,1046,16912,1540,1996,17098.87,28.25,-1.00,-1.0,2363
1049,1049,16928,1496,2084,17121.28,28.34,-1.00,-1.0,2359
1051,1051,16944,1552,2192,17155.54,28.29,-1.00,-1.0,2421
1054,1054,17080,1456,2160,17277.50,28.34,-1.00,-1.0,2371
1057,1057,17028,1388,2352,17245.62,28.34,-1.00,-1.0,2420
1060,1060,17016,1384,2168,17209.30,28.34,-1.00,-1.0,2365
1062,1062,17008,1308,2296,17212.05,28.39,-1.00,-1.0,2419
1065,1065,17124,1292,2264,17321.27,28.39,-1.00,-1.0,2365
1070,1070,17048,1252,2204,17235.41,28.39,-1.00,-1.0,2442
1073,1073,16904,1216,2256,17097.18,28.34,-1.00,-1.0,2371
1076,1076,16912,1316,2080,17090.17,28.48,-1.00,-1.0,2357
1078,1078,17056,1308,2220,17249.53,28.39,-1.00,-1.0,2405
1081,1081,16944,1424,2168,17141.39,28.34,-1.00,-1.0,2371
1084,1084,15424,3132,1952,15859.37,28.39,-1.00,-1.0,2424
1087,1087,21044,5840,3880,22181.30,28.34,-1.00,-1.0,2366
1090,1090,15736,-4340,2832,16567.36,28.25,-1.00,-1.0,2419
1092,1092,11952,784,-10328,15815.58,28.39,-1.00,-1.0,2365
1097,1097,18564,852,18264,26056.12,28.39,-1.00,-1.0,2433
1100,1100,12392,-1836,-4956,13471.99,28.29,-1.00,-1.0,2411
1103,1103,18384,-1108,4300,18912.67,28.34,-1.00,-1.0,2368
1106,1106,17288,-956,-4408,17866.71,28.39,-1.00,-1.0,2435
1108,1108,19236,-3420,7892,21071.40,28.34,-1.00,-1.0,2370
1111,1111,15696,-304,-308,15701.96,28.39,-1.00,-1.0,2430
1114,1114,18844,2616,2896,19243.87,28.34,-1.00,-1.0,2372
1117,1117,18360,-576,2480,18535.69,28.34,-1.00,-1.0,2420
1119,1119,15500,1996,-1516,15701.35,28.25,-1.00,-1.0,2366
1124,1124,17520,1584,1784,17681.69,28.34,-1.00,-1.0,2426
1127,1127,16704,1328,1816,16854.82,28.34,-1.00,-1.0,2365
1130,1130,17876,2840,3392,18415.28,28.34,-1.00,-1.0,2354
1132,1132,15520,3672,-1776,16047.06,28.29,-1.00,-1.0,2420
1135,1135,17544,40,4400,18087.39,28.34,-1.00,-1.0,2370
1138,1138,16460,760,1568,16551.97,28.44,-1.00,-1.0,2421
1141,1141,17340,1744,2388,17590.33,28.34,-1.00,-1.0,2368
1144,1144,17356,1292,2972,17655.96,28.29,-1.00,-1.0,2416
1147,1147,17196,452,2500,17382.66,28.34,-1.00,-1.0,2369
1151,1151,16120,2156,-308,16266.46,28.34,-1.00,-1.0,2430
1154,1154,18528,4,6360,19589.19,28.34,-1.00,-1.0,2368
1157,1157,15964,1728,-212,16058.65,28.29,-1.00,-1.0,2358
1159,1159,16728,2620,1340,16984.88,28.39,-1.00,-1.0,2424
1162,1162,16968,2128,2908,17346.41,28.29,-1.00,-1.0,2433
1165,1165,17040,1300,3184,17383.60,28.34,-1.00,-1.0,2420
1168,1168,16772,1660,2516,17040.71,28.39,-1.00,-1.0,2369
1171,1171,16776,1412,1680,16918.93,28.39,-1.00,-1.0,2418
1174,1174,16680,1268,1520,16797.04,28.39,-1.00,-1.0,2367
1179,1179,17252,1772,3032,17605.81,28.34,-1.00,-1.0,2415
1181,1181,16880,1244,1564,16997.88,28.44,-1.00,-1.0,2362
1184,1184,16876,932,1824,16999.85,28.44,-1.00,-1.0,2362
1187,1187,16560,2044,1132,16724.02,28.39,-1.00,-1.0,2420
1189,1189,17288,1796,2920,17624.61,28.34,-1.00,-1.0,2365
1192,1192,17052,1404,2600,17306.12,28.44,-1.00,-1.0,2415
1195,1195,16644,1700,668,16743.92,28.39,-1.00,-1.0,2368
1198,1198,16648,1612,1204,16769.14,28.39,-1.00,-1.0,2428
1201,1201,17184,1496,2836,17480.58,28.29,-1.00,-1.0,2370
1206,1206,17092,1328,2076,17268.75,28.29,-1.00,-1.0,2428
1208,1208,16796,1040,1508,16895.60,28.44,-1.00,-1.0,2365
1211,1211,17000,996,2564,17221.10,28.39,-1.00,-1.0,2371
1214,1214,17052,1624,1776,17220.98,28.29,-1.00,-1.0,2436
1216,1216,17304,1760,2000,17507.88,28.39,-1.00,-1.0,2368
1219,1219,17244,972,2728,17485.49,28.39,-1.00,-1.0,2414
1222,1222,16584,1144,1188,16665.81,28.34,-1.00,-1.0,2367
1225,1225,17216,1476,3132,17560.71,28.29,-1.00,-1.0,2426
1228,1228,16328,1824,1392,16488.43,28.39,-1.00,-1.0,2374
1233,1233,17060,1420,2900,17362.89,28.39,-1.00,-1.0,2429
1235,1235,16644,1504,1416,16771.70,28.39,-1.00,-1.0,2364
1238,1238,17108,1616,1844,17282.81,28.39,-1.00,-1.0,2369
1241,1241,17000,1352,2260,17202.78,28.44,-1.00,-1.0,2434
1243,1243,16944,1476,1728,17095.72,28.39,-1.00,-1.0,2367
1246,1246,17268,1564,2484,17515.71,28.34,-1.00,-1.0,2431
1249,1249,17228,1448,2708,17499.54,28.39,-1.00,-1.0,2374
1252,1252,16808,1112,1364,16899.88,28.25,-1.00,-1.0,2422
1255,1255,16956,880,2452,17154.96,28.39,-1.00,-1.0,2367
1260,1260,16400,1592,1748,16569.55,28.39,-1.00,-1.0,2430
1262,1262,16800,1500,2596,17065.44,28.39,-1.00,-1.0,2364
1265,1265,17008,1580,2284,17233.26,28.34,-1.00,-1.0,2364
1268,1268,17040,1504,2064,17230.31,28.34,-1.00,-1.0,2431
1270,1270,16952,1192,2396,17161.93,28.39,-1.00,-1.0,2365
1273,1273,17032,1200,1764,17165.10,28.44,-1.00,-1.0,2431
1276,1276,16944,1544,1576,17087.04,28.39,-1.00,-1.0,2375
1279,1279,16972,1624,1984,17164.57,28.39,-1.00,-1.0,2419
1282,1282,17196,1480,1896,17363.40,28.44,-1.00,-1.0,2365
1287,1287,16808,1300,1896,16964.48,28.34,-1.00,-1.0,2431
1289,1289,16808,1156,1796,16943.16,28.39,-1.00,-1.0,2368
1292,1292,16896,1280,2208,17087.67,28.44,-1.00,-1.0,2348
1295,1295,16940,1708,2516,17210.79,28.34,-1.00,-1.0,2429
1297,1297,16956,1756,2620,17246.85,28.25,-1.00,-1.0,2368
1300,1300,16820,1432,1988,16997.50,28.44,-1.00,-1.0,2424
1303,1303,17044,1160,1932,17192.33,28.29,-1.00,-1.0,2375
1306,1306,16996,1232,1928,17149.32,28.39,-1.00,-1.0,2419
1309,1309,17004,1712,1736,17177.91,28.29,-1.00,-1.0,2366
1314,1314,16864,1648,2160,17081.45,28.34,-1.00,-1.0,2431
1316,1316,16996,1576,1512,17135.75,28.25,-1.00,-1.0,2368
1319,1319,17120,1440,2048,17302.09,28.39,-1.00,-1.0,2359
1322,1322,16800,1328,1700,16937.93,28.29,-1.00,-1.0,2423
1324,1324,16860,1540,2036,17052.17,28.34,-1.00,-1.0,2373
1327,1327,16928,1648,2284,17160.70,28.39,-1.00,-1.0,2416
1330,1330,16984,1596,2096,17187.11,28.34,-1.00,-1.0,2373
1333,1333,16904,1468,1828,17065.81,28.29,-1.00,-1.0,2423
1336,1336,16956,1272,2096,17132.34,28.39,-1.00,-1.0,2365
1341,1341,17004,1560,2296,17229.08,28.39,-1.00,-1.0,2415
1343,1343,16948,1580,2356,17183.77,28.39,-1.00,-1.0,2363
1346,1346,16948,1492,2176,17152.13,28.39,-1.00,-1.0,2364
1349,1349,16948,1452,2052,17133.41,28.29,-1.00,-1.0,2421
1351,1351,16904,1460,2224,17112.07,28.39,-1.00,-1.0,2365
1354,1354,16760,1416,2072,16946.85,28.39,-1.00,-1.0,2415
1357,1357,16748,1428,1964,16923.12,28.29,-1.00,-1.0,2368
1360,1360,16860,1400,2224,17063.58,28.34,-1.00,-1.0,2426
1363,1363,17056,1564,2128,17259.25,28.39,-1.00,-1.0,2366
1368,1368,17032,1192,2176,17211.77,28.39,-1.00,-1.0,2427
1370,1370,17016,1216,1884,17163.11,28.39,-1.00,-1.0,2375
1373,1373,16948,1180,1944,17099.89,28.39,-1.00,-1.0,2361
1376,1376,17116,1232,2216,17302.77,28.34,-1.00,-1.0,2424
1378,1378,17036,1368,2140,17224.29,28.29,-1.00,-1.0,2371
1381,1381,16888,1576,1828,17059.60,28.48,-1.00,-1.0,2416
1384,1384,16916,1372,2176,17110.48,28.39,-1.00,-1.0,2368
1387,1387,16856,1432,2188,17057.63,28.34,-1.00,-1.0,2430
1390,1390,16872,1512,2084,17067.32,28.25,-1.00,-1.0,2373
1395,1395,16940,1536,2052,17132.82,28.39,-1.00,-1.0,2429
1397,1397,16828,1400,1836,16985.65,28.29,-1.00,-1.0,2373
1400,1400,16956,1512,2028,17143.65,28.44,-1.00,-1.0,2358
1403,1403,16984,1476,2388,17214.45,28.34,-1.00,-1.0,2426
1405,1405,17080,1392,2208,17278.29,28.29,-1.00,-1.0,2369
1408,1408,17044,1324,2172,17232.77,28.44,-1.00,-1.0,2417
1411,1411,16896,1288,2032,17066.42,28.39,-1.00,-1.0,2367
1414,1414,16996,1412,1956,17166.35,28.39,-1.00,-1.0,2427
1417,1417,16972,1480,2004,17153.87,28.25,-1.00,-1.0,2368
1422,1422,16880,1492,2064,17071.04,28.44,-1.00,-1.0,2428
1424,1424,16844,1744,2272,17085.78,28.29,-1.00,-1.0,2373
1427,1427,16784,1572,2228,17004.05,28.34,-1.00,-1.0,2361
1430,1430,16884,1688,2192,17109.17,28.44,-1.00,-1.0,2419
1432,1432,16972,1684,2220,17199.22,28.39,-1.00,-1.0,2367
1435,1435,16868,1484,2260,17083.30,28.34,-1.00,-1.0,2417
1438,1438,17008,1388,2116,17195.23,28.29,-1.00,-1.0,2369
1441,1441,17036,1328,2292,17240.71,28.39,-1.00,-1.0,2423
1444,1444,17076,1412,2392,17300.44,28.39,-1.00,-1.0,2373
1449,1449,17064,1516,2236,17276.52,28.34,-1.00,-1.0,2436
1451,1451,16960,1360,2116,17145.51,28.29,-1.00,-1.0,2367
1454,1454,16924,1440,2236,17131.70,28.34,-1.00,-1.0,2420
1457,1457,16880,1512,2252,17096.55,28.39,-1.00,-1.0,2369
1459,1459,16928,1540,2060,17122.28,28.34,-1.00,-1.0,2357
1462,1462,16824,1564,1984,17012.62,28.34,-1.00,-1.0,2415
1465,1465,16820,1660,2216,17046.37,28.34,-1.00,-1.0,2369
1468,1468,16964,1684,2296,17201.30,28.39,-1.00,-1.0,2415
1471,1471,16952,1488,2304,17172.45,28.29,-1.00,-1.0,2369
1476,1476,16936,1304,2260,17135.81,28.39,-1.00,-1.0,2436
1478,1478,17016,1452,2028,17197.83,28.34,-1.00,-1.0,2365
1481,1481,17080,1440,2168,17277.16,28.34,-1.00,-1.0,2421
1484,1484,17048,1420,2240,17253.07,28.34,-1.00,-1.0,2370
1486,1486,16968,1480,2124,17164.35,28.34,-1.00,-1.0,2344
1489,1489,16908,1440,1924,17077.93,28.39,-1.00,-1.0,2418
1492,1492,16812,1380,2240,17016.62,28.34,-1.00,-1.0,2367
1495,1495,16860,1448,2164,17059.87,28.34,-1.00,-1.0,2417
1498,1498,16848,1496,1912,17022.01,28.39,-1.00,-1.0,2367
1503,1503,16928,1504,2296,17149.08,28.29,-1.00,-1.0,2436
1505,1505,16948,1460,2244,17158.14,28.34,-1.00,-1.0,2364
1508,1508,17020,1460,2252,17230.31,28.39,-1.00,-1.0,2421
1511,1511,17004,1448,2192,17205.74,28.34,-1.00,-1.0,2367
1514,1514,17120,1320,2096,17298.27,28.29,-1.00,-1.0,2359
1516,1516,17052,1348,2080,17231.20,28.39,-1.00,-1.0,2418
1519,1519,17068,1388,2088,17251.17,28.44,-1.00,-1.0,2366
1522,1522,17000,1360,2324,17211.93,28.34,-1.00,-1.0,2413
1525,1525,16872,1320,2052,17047.51,28.34,-1.00,-1.0,2368
1530,1530,16960,1512,2032,17148.08,28.34,-1.00,-1.0,2439
1533,1533,16928,1504,2172,17132.92,28.39,-1.00,-1.0,2365
1535,1535,17008,1476,2220,17215.66,28.29,-1.00,-1.0,2423
1538,1538,16916,1548,2152,17122.46,28.39,-1.00,-1.0,2367
1541,1541,16968,1496,2164,17170.73,28.39,-1.00,-1.0,2362
1543,1543,16912,1408,2088,17098.48,28.39,-1.00,-1.0,2425
1546,1546,16936,1440,2136,17130.80,28.39,-1.00,-1.0,2366
1549,1549,17200,1380,2084,17380.66,28.44,-1.00,-1.0,2415
1552,1552,16952,1384,2140,17142.50,28.44,-1.00,-1.0,2368
1557,1557,16928,1416,2112,17117.91,28.29,-1.00,-1.0,2429
1559,1559,16792,1536,2108,16993.36,28.34,-1.00,-1.0,2373
1562,1562,16904,1488,2144,17104.27,28.39,-1.00,-1.0,2421
1565,1565,16880,1512,2144,17082.66,28.34,-1.00,-1.0,2368
1567,1567,16860,1420,2072,17046.09,28.34,-1.00,-1.0,2357
1570,1570,16976,1464,2188,17178.92,28.39,-1.00,-1.0,2417
1573,1573,16944,1524,2016,17131.43,28.39,-1.00,-1.0,2367
1576,1576,16976,1564,2108,17177.73,28.48,-1.00,-1.0,2414
1579,1579,16964,1280,1936,17122.03,28.39,-1.00,-1.0,2367
1584,1584,16872,1428,2044,17055.25,28.29,-1.00,-1.0,2428
1586,1586,17000,1440,2104,17190.12,28.44,-1.00,-1.0,2372
1589,1589,17044,1476,2220,17251.23,28.48,-1.00,-1.0,2452
1592,1592,16948,1460,2140,17144.85,28.39,-1.00,-1.0,2368
1595,1595,16912,1560,2176,17122.62,28.34,-1.00,-1.0,2359
1597,1597,16860,1588,2112,17065.81,28.29,-1.00,-1.0,2439
1600,1600,16876,1648,2168,17094.31,28.34,-1.00,-1.0,2367
1603,1603,16896,1596,2140,17105.60,28.39,-1.00,-1.0,2417
1606,1606,16992,1512,2132,17191.85,28.39,-1.00,-1.0,2365
1611,1611,16956,1456,2128,17150.93,28.39,-1.00,-1.0,2428
1614,1614,16924,1488,1984,17104.74,28.44,-1.00,-1.0,2372
1616,1616,16984,1428,2092,17171.83,28.39,-1.00,-1.0,2431
1619,1619,16964,1424,2140,17157.64,28.34,-1.00,-1.0,2371
1622,1622,16936,1388,2304,17148.27,28.39,-1.00,-1.0,2358
1624,1624,16956,1416,2076,17141.20,28.39,-1.00,-1.0,2422
1627,1627,16948,1392,2176,17143.73,28.34,-1.00,-1.0,2376
1630,1630,16956,1496,2144,17156.36,28.25,-1.00,-1.0,2417
1633,1633,16964,1520,2196,17172.95,28.29,-1.00,-1.0,2365
1638,1638,16892,1552,2144,17098.10,28.29,-1.00,-1.0,2413
1641,1641,16868,1516,2180,17075.72,28.34,-1.00,-1.0,2369
1643,1643,16844,1532,2228,17059.64,28.39,-1.00,-1.0,2426
1646,1646,16900,1568,2176,17111.51,28.25,-1.00,-1.0,2383
1649,1649,17028,1524,2120,17227.01,28.39,-1.00,-1.0,2362
1651,1651,16980,1564,2160,17188.14,28.39,-1.00,-1.0,2420
1654,1654,16900,1520,1928,17077.40,28.29,-1.00,-1.0,2353
1657,1657,16912,1444,1996,17090.49,28.34,-1.00,-1.0,2427
1660,1660,16956,1416,2140,17149.07,28.34,-1.00,-1.0,2364
1665,1665,17020,1412,1948,17189.21,28.39,-1.00,-1.0,2428
1668,1668,16972,1552,1980,17157.44,28.39,-1.00,-1.0,2364
1670,1670,16912,1456,2036,17096.23,28.39,-1.00,-1.0,2421
1673,1673,16928,1424,2080,17114.65,28.39,-1.00,-1.0,2375
1676,1676,16884,1508,2184,17091.32,28.29,-1.00,-1.0,2362
1679,1679,16948,1500,2068,17139.47,28.44,-1.00,-1.0,2421
1681,1681,16888,1496,2108,17084.68,28.39,-1.00,-1.0,2364
1684,1684,16856,1536,2192,17067.19,28.39,-1.00,-1.0,2435
1687,1687,17004,1408,2248,17209.65,28.44,-1.00,-1.0,2372
1692,1692,16972,1368,2160,17163.50,28.34,-1.00,-1.0,2426
1695,1695,17008,1460,2120,17201.69,28.29,-1.00,-1.0,2364
1697,1697,16952,1384,1960,17120.96,28.34,-1.00,-1.0,2421
1700,1700,16976,1460,2000,17155.65,28.29,-1.00,-1.0,2370
1703,1703,16976,1540,2032,17166.40,28.34,-1.00,-1.0,2361
1706,1706,16932,1464,2096,17123.94,28.34,-1.00,-1.0,2421
1708,1708,16872,1456,2024,17055.23,28.29,-1.00,-1.0,2365
1711,1711,16964,1596,2148,17173.77,28.29,-1.00,-1.0,2432
1714,1714,16868,1548,2140,17073.53,28.29,-1.00,-1.0,2379
1719,1719,17024,1612,2232,17245.20,28.44,-1.00,-1.0,2426
1722,1722,16888,1556,2084,17087.09,28.34,-1.00,-1.0,2364
1725,1725,16872,1524,2076,17067.42,28.34,-1.00,-1.0,2406
1727,1727,16880,1520,2216,17092.55,28.29,-1.00,-1.0,2368
1730,1730,16912,1520,2168,17118.01,28.34,-1.00,-1.0,2370
1733,1733,16992,1448,2136,17186.83,28.34,-1.00,-1.0,2420
1735,1735,16880,1556,2152,17087.62,28.39,-1.00,-1.0,2366
1738,1738,16972,1476,2256,17184.79,28.39,-1.00,-1.0,2420
1741,1741,16904,1480,2088,17096.65,28.39,-1.00,-1.0,2374
1746,1746,16936,1576,2160,17145.77,28.39,-1.00,-1.0,2435
1749,1749,16984,1548,2092,17182.23,28.34,-1.00,-1.0,2370
1752,1752,16964,1592,2272,17189.35,28.39,-1.00,-1.0,2421
1754,1754,16896,1528,2036,17086.69,28.44,-1.00,-1.0,2367
1757,1757,16912,1536,2008,17099.92,28.39,-1.00,-1.0,2369
1760,1760,16844,1584,1924,17027.37,28.29,-1.00,-1.0,2431
1762,1762,16972,1524,2140,17174.14,28.44,-1.00,-1.0,2364
1765,1765,17032,1672,2156,17249.14,28.39,-1.00,-1.0,2421
1768,1768,16908,1488,2224,17118.43,28.39,-1.00,-1.0,2354
1773,1773,17004,1508,2164,17207.35,28.34,-1.00,-1.0,2443
1776,1776,16964,1484,2112,17159.26,28.34,-1.00,-1.0,2364
1778,1778,17004,1488,2192,17209.15,28.44,-1.00,-1.0,2413
1781,1781,17072,1448,2008,17250.56,28.29,-1.00,-1.0,2384
1784,1784,16984,1504,2048,17173.02,28.44,-1.00,-1.0,2362
1786,1786,16904,1504,2140,17105.17,28.34,-1.00,-1.0,2418
1789,1789,16948,1492,2212,17156.74,28.39,-1.00,-1.0,2367
1792,1792,16916,1556,2112,17118.20,28.34,-1.00,-1.0,2418
1795,1795,16928,1400,2084,17113.16,28.29,-1.00,-1.0,2368
1800,1800,16984,1448,2028,17165.83,28.44,-1.00,-1.0,2431
1803,1803,16836,1332,2012,17008.04,28.39,-1.00,-1.0,2367
1806,1806,16936,1468,2080,17126.28,28.44,-1.00,-1.0,2427
1808,1808,17000,1404,1920,17165.59,28.39,-1.00,-1.0,2370
1811,1811,16904,1388,1980,17076.07,28.34,-1.00,-1.0,2364
1814,1814,16920,1428,2184,17120.03,28.34,-1.00,-1.0,2420
1816,1816,16968,1524,2000,17153.30,28.44,-1.00,-1.0,2373
1819,1819,17060,1484,1964,17236.68,28.25,-1.00,-1.0,2419
1822,1822,16924,1304,2028,17094.88,28.34,-1.00,-1.0,2367
1827,1827,16884,1316,2076,17061.98,28.39,-1.00,-1.0,2425
1830,1830,16888,1332,1940,17051.17,28.48,-1.00,-1.0,2373
1833,1833,16868,1368,2076,17050.24,28.29,-1.00,-1.0,2419
1835,1835,16980,1364,2084,17161.70,28.29,-1.00,-1.0,2369
1838,1838,16848,1316,2080,17026.84,28.29,-1.00,-1.0,2421
1841,1841,16876,1420,1904,17042.33,28.44,-1.00,-1.0,2369
1843,1843,16944,1500,2048,17133.11,28.39,-1.00,-1.0,2362
1846,1846,16988,1448,2152,17184.88,28.39,-1.00,-1.0,2418
1849,1849,16808,1536,1896,16984.20,28.39,-1.00,-1.0,2416
1854,1854,16960,1524,2252,17176.60,28.29,-1.00,-1.0,2432
1857,1857,17000,1584,2132,17206.23,28.29,-1.00,-1.0,2369
1860,1860,16984,1660,2160,17201.09,28.39,-1.00,-1.0,2421
1862,1862,16796,1588,2192,17012.71,28.34,-1.00,-1.0,2369
1865,1865,16972,1552,1960,17155.15,28.39,-1.00,-1.0,2417
1868,1868,16824,1456,2036,17009.18,28.34,-1.00,-1.0,2367
1870,1870,16852,1424,2100,17041.94,28.39,-1.00,-1.0,2362
1873,1873,16932,1536,2168,17139.20,28.29,-1.00,-1.0,2419
1876,1876,17016,1392,2052,17195.71,28.39,-1.00,-1.0,2367
1881,1881,16964,1412,2084,17149.76,28.29,-1.00,-1.0,2434
1884,1884,16964,1464,2060,17151.21,28.44,-1.00,-1.0,2364
1887,1887,17004,1472,2072,17192.90,28.34,-1.00,-1.0,2423
1889,1889,16948,1568,2236,17166.62,28.34,-1.00,-1.0,2368
1892,1892,16960,1528,2136,17162.13,28.39,-1.00,-1.0,2454
1895,1895,16812,1544,2164,17020.88,28.39,-1.00,-1.0,2368
1898,1898,16960,1532,2296,17183.14,28.44,-1.00,-1.0,2407
1900,1900,16888,1548,2204,17101.42,28.29,-1.00,-1.0,2422
1903,1903,16960,1524,2020,17147.73,28.29,-1.00,-1.0,2367
1908,1908,16904,1460,2016,17086.28,28.48,-1.00,-1.0,2432
1911,1911,16900,1492,2168,17103.69,28.34,-1.00,-1.0,2365
1914,1914,16888,1436,2200,17091.13,28.29,-1.00,-1.0,2416
1916,1916,16960,1404,2136,17151.54,28.25,-1.00,-1.0,2373
1919,1919,16908,1480,2280,17125.11,28.25,-1.00,-1.0,2428
1922,1922,16968,1488,2096,17161.60,28.34,-1.00,-1.0,2372
1924,1924,16912,1428,2136,17106.06,28.39,-1.00,-1.0,2365
1927,1927,16812,1544,2056,17007.48,28.34,-1.00,-1.0,2437
1930,1930,16956,1564,2084,17155.03,28.34,-1.00,-1.0,2366
1935,1935,17016,1520,2052,17206.55,28.29,-1.00,-1.0,2434
1938,1938,16828,1484,2124,17026.31,28.29,-1.00,-1.0,2367
1941,1941,16896,1640,2072,17101.39,28.29,-1.00,-1.0,2415
1943,1943,17036,1388,2144,17226.39,28.39,-1.00,-1.0,2374
1946,1946,16964,1500,2024,17150.04,28.39,-1.00,-1.0,2420
1949,1949,17008,1488,1984,17187.86,28.44,-1.00,-1.0,2374
1951,1951,16972,1416,2180,17169.92,28.39,-1.00,-1.0,2364
1954,1954,16976,1504,1936,17152.10,28.39,-1.00,-1.0,2431
1957,1957,16964,1504,2068,17155.64,28.34,-1.00,-1.0,2371
1962,1962,16932,1436,2008,17111.01,28.34,-1.00,-1.0,2435
1965,1965,16940,1472,2196,17145.05,28.39,-1.00,-1.0,2364
1968,1968,16956,1512,2092,17151.34,28.34,-1.00,-1.0,2424
1970,1970,16944,1528,2040,17134.63,28.29,-1.00,-1.0,2360
1973,1973,17028,1468,2116,17221.65,28.39,-1.00,-1.0,2421
1976,1976,16980,1552,2032,17171.43,28.29,-1.00,-1.0,2367
1978,1978,16980,1648,1984,17174.77,28.39,-1.00,-1.0,2362
1981,1981,16944,1540,2040,17135.70,28.39,-1.00,-1.0,2428
1984,1984,16904,1492,2060,17094.29,28.39,-1.00,-1.0,2373
1989,1989,16992,1456,2012,17172.54,28.39,-1.00,-1.0,2438
1992,1992,16996,1496,2008,17179.47,28.39,-1.00,-1.0,2366
1995,1995,16896,1464,2128,17092.29,28.39,-1.00,-1.0,2426
1997,1997,16904,1428,2172,17102.69,28.34,-1.00,-1.0,2367
2000,2000,17012,1524,2000,17196.82,28.29,-1.00,-1.0,2437
2003,2003,16884,1464,2104,17077.46,28.34,-1.00,-1.0,2372
2005,2005,16952,1428,2064,17136.79,28.39,-1.00,-1.0,2369
2008,2008,17080,1392,2212,17278.80,28.39,-1.00,-1.0,2408
2011,2011,16964,1456,2212,17169.46,28.39,-1.00,-1.0,2372
2016,2016,16964,1460,2024,17146.59,28.29,-1.00,-1.0,2439
2019,2019,16880,1440,2016,17060.84,28.39,-1.00,-1.0,2367
2022,2022,17080,1452,2124,17272.70,28.39,-1.00,-1.0,2423
2024,2024,16972,1424,2012,17150.06,28.25,-1.00,-1.0,2368
2027,2027,16832,1408,2072,17017.40,28.29,-1.00,-1.0,2436
2030,2030,16944,1472,2096,17136.49,28.44,-1.00,-1.0,2373
2032,2032,16880,1532,2224,17094.67,28.29,-1.00,-1.0,2369
2035,2035,16920,1500,2080,17113.23,28.44,-1.00,-1.0,2420
2038,2038,16960,1524,2216,17171.92,28.29,-1.00,-1.0,2369
2043,2043,16900,1468,2320,17121.55,28.20,-1.00,-1.0,2442
2046,2046,16916,1480,2124,17112.94,28.39,-1.00,-1.0,2369
2049,2049,16884,1476,2076,17075.06,28.39,-1.00,-1.0,2423
2052,2052,17028,1448,2016,17207.96,28.44,-1.00,-1.0,2364
2054,2054,16952,1460,2236,17161.05,28.29,-1.00,-1.0,2422
2057,2057,16944,1480,2132,17141.62,28.34,-1.00,-1.0,2364
2060,2060,16976,1504,2184,17181.86,28.39,-1.00,-1.0,2362
2062,2062,16976,1328,2176,17166.34,28.34,-1.00,-1.0,2421
2065,2065,16908,1428,2112,17099.13,28.34,-1.00,-1.0,2364
2070,2070,16884,1528,2056,17077.22,28.29,-1.00,-1.0,2439
2073,2073,17000,1464,2036,17183.96,28.39,-1.00,-1.0,2369
2076,2076,17024,1500,2024,17209.39,28.39,-1.00,-1.0,2422
2079,2079,16968,1476,2200,17173.57,28.39,-1.00,-1.0,2365
2081,2081,16984,1464,2104,17176.33,28.39,-1.00,-1.0,2423
2084,2084,16852,1424,2244,17060.28,28.34,-1.00,-1.0,2365
2087,2087,16916,1416,2240,17122.32,28.39,-1.00,-1.0,2363
2090,2090,16920,1524,2120,17120.26,28.44,-1.00,-1.0,2421
2092,2092,16904,1436,2180,17104.38,28.25,-1.00,-1.0,2364
2097,2097,16976,1412,2104,17164.06,28.34,-1.00,-1.0,2421
2100,2100,16836,1448,2044,17021.33,28.39,-1.00,-1.0,2378
2103,2103,16960,1440,2148,17156.02,28.29,-1.00,-1.0,2408
2106,2106,16900,1464,2164,17100.77,28.39,-1.00,-1.0,2365
2108,2108,16952,1472,2220,17160.00,28.48,-1.00,-1.0,2425
2111,2111,16976,1464,2120,17170.39,28.39,-1.00,-1.0,2366
2114,2114,16976,1408,2108,17164.23,28.39,-1.00,-1.0,2363
2117,2117,16952,1492,2156,17153.56,28.39,-1.00,-1.0,2419
2119,2119,16968,1468,2012,17149.82,28.39,-1.00,-1.0,2366
2124,2124,16956,1428,2096,17144.63,28.44,-1.00,-1.0,2433
2127,2127,16944,1524,2072,17138.11,28.34,-1.00,-1.0,2364
2130,2130,16944,1396,2248,17149.39,28.34,-1.00,-1.0,2419
2133,2133,16908,1472,2080,17098.94,28.39,-1.00,-1.0,2368
2135,2135,16984,1520,2204,17193.73,28.44,-1.00,-1.0,2431
2138,2138,16872,1564,2220,17089.14,28.29,-1.00,-1.0,2364
2141,2141,16960,1412,2036,17140.03,28.44,-1.00,-1.0,2363
2144,2144,16956,1492,2072,17147.16,28.39,-1.00,-1.0,2421
2147,2147,16936,1440,1988,17112.97,28.39,-1.00,-1.0,2365
2151,2151,16932,1364,2124,17119.13,28.39,-1.00,-1.0,2432
2154,2154,16996,1416,2004,17172.22,28.34,-1.00,-1.0,2362
2157,2157,16940,1464,2076,17129.41,28.34,-1.00,-1.0,2419
2160,2160,16880,1476,2116,17076.02,28.34,-1.00,-1.0,2368
2162,2162,16924,1504,2104,17120.47,28.44,-1.00,-1.0,2429
2165,2165,16944,1400,2208,17144.52,28.44,-1.00,-1.0,2371
2168,2168,16940,1452,2152,17137.77,28.44,-1.00,-1.0,2362
2171,2171,16976,1436,2112,17167.04,28.34,-1.00,-1.0,2427
2174,2174,16928,1400,2228,17131.29,28.29,-1.00,-1.0,2365
2179,2179,16816,1520,2132,17018.63,28.39,-1.00,-1.0,2432
2181,2181,16940,1488,2104,17134.89,28.39,-1.00,-1.0,2363
2184,2184,17128,1428,2244,17333.29,28.39,-1.00,-1.0,2416
2187,2187,16864,1380,2204,17063.31,28.34,-1.00,-1.0,2367
2189,2189,16884,1512,2268,17102.62,28.44,-1.00,-1.0,2407
2192,2192,16940,1532,2204,17151.33,28.34,-1.00,-1.0,2373
2195,2195,16960,1528,2100,17157.69,28.44,-1.00,-1.0,2361
2198,2198,16928,1460,2172,17129.11,28.34,-1.00,-1.0,2430
2201,2201,16968,1596,2192,17183.28,28.34,-1.00,-1.0,2373
2205,2205,16948,1500,2180,17153.34,28.44,-1.00,-1.0,2440
2208,2208,16800,1472,1980,16980.20,28.34,-1.00,-1.0,2368
2211,2211,16836,1460,2196,17041.27,28.34,-1.00,-1.0,2424
2214,2214,16940,1476,2080,17130.92,28.39,-1.00,-1.0,2361
2216,2216,16916,1412,2268,17125.67,28.25,-1.00,-1.0,2421
2219,2219,17040,1456,2204,17243.53,28.29,-1.00,-1.0,2362
2222,2222,16856,1524,2068,17050.63,28.29,-1.00,-1.0,2426
2225,2225,16960,1480,2032,17145.29,28.25,-1.00,-1.0,2369
2228,2228,16896,1508,2060,17087.79,28.34,-1.00,-1.0,2364
2233,2233,17052,1452,2272,17263.86,28.34,-1.00,-1.0,2432
2235,2235,17076,1508,2144,17276.01,28.39,-1.00,-1.0,2359
2238,2238,16996,1552,2144,17200.86,28.34,-1.00,-1.0,2418
2241,2241,16952,1404,2148,17145.13,28.39,-1.00,-1.0,2364
2243,2243,16932,1468,2076,17121.84,28.39,-1.00,-1.0,2420
2246,2246,16964,1476,2180,17167.07,28.39,-1.00,-1.0,2367
2249,2249,16960,1504,1992,17142.69,28.39,-1.00,-1.0,2423
2252,2252,16980,1456,2144,17176.64,28.44,-1.00,-1.0,2366
2255,2255,16908,1356,2088,17090.32,28.39,-1.00,-1.0,2362
2260,2260,17008,1440,2148,17203.47,28.34,-1.00,-1.0,2432
2262,2262,16888,1528,2044,17079.73,28.34,-1.00,-1.0,2363
2265,2265,16904,1556,2112,17106.34,28.34,-1.00,-1.0,2416
2268,2268,16824,1428,2124,17017.57,28.29,-1.00,-1.0,2365
2270,2270,16788,1588,2012,16982.54,28.39,-1.00,-1.0,2420
2273,2273,16864,1528,2176,17072.32,28.29,-1.00,-1.0,2353
2276,2276,16892,1448,2096,17083.02,28.39,-1.00,-1.0,2421
2279,2279,16888,1464,2208,17094.54,28.39,-1.00,-1.0,2365
2282,2282,16984,1468,2164,17184.12,28.39,-1.00,-1.0,2363
2287,2287,16972,1420,2220,17175.38,28.29,-1.00,-1.0,2463
2289,2289,16884,1440,2000,17062.91,28.39,-1.00,-1.0,2370
2292,2292,16988,1508,2048,17177.33,28.29,-1.00,-1.0,2416
2295,2295,17012,1480,2200,17217.39,28.39,-1.00,-1.0,2367
2298,2298,16984,1480,2024,17168.09,28.39,-1.00,-1.0,2429
2300,2300,16936,1468,2176,17138.21,28.34,-1.00,-1.0,2368
2303,2303,16940,1496,1968,17119.42,28.39,-1.00,-1.0,2432
2306,2306,16924,1452,2156,17122.45,28.34,-1.00,-1.0,2373
2309,2309,16944,1440,2088,17132.79,28.39,-1.00,-1.0,2362
2314,2314,16888,1520,2200,17098.39,28.29,-1.00,-1.0,2437
2316,2316,16936,1480,2160,17137.21,28.44,-1.00,-1.0,2362
2319,2319,16868,1372,2096,17053.01,28.29,-1.00,-1.0,2424
2322,2322,16916,1528,2092,17113.22,28.34,-1.00,-1.0,2374
2325,2325,16896,1464,2128,17092.29,28.34,-1.00,-1.0,2419
2327,2327,17012,1440,1972,17186.35,28.34,-1.00,-1.0,2366
2330,2330,16948,1436,2128,17141.33,28.44,-1.00,-1.0,2418
2333,2333,17000,1492,2156,17201.00,28.29,-1.00,-1.0,2366
2336,2336,16892,1432,2296,17107.36,28.39,-1.00,-1.0,2361
2341,2341,16932,1464,2172,17133.40,28.39,-1.00,-1.0,2436
2343,2343,16916,1440,2132,17110.53,28.39,-1.00,-1.0,2365
2346,2346,16872,1516,2128,17073.11,28.39,-1.00,-1.0,2429
2349,2349,17036,1464,2112,17228.73,28.44,-1.00,-1.0,2370
2352,2352,16940,1428,2068,17125.40,28.39,-1.00,-1.0,2418
2354,2354,16980,1428,2148,17174.79,28.34,-1.00,-1.0,2354
2357,2357,17012,1400,1980,17183.96,28.44,-1.00,-1.0,2421
2360,2360,17020,1448,2048,17203.82,28.34,-1.00,-1.0,2367
2363,2363,16888,1548,2252,17107.67,28.34,-1.00,-1.0,2362
2368,2368,17068,1484,2116,17262.57,28.29,-1.00,-1.0,2434
2370,2370,16084,2228,2524,16432.58,28.39,-1.00,-1.0,2370
2373,2373,13780,3444,3228,14566.04,28.48,-1.00,-1.0,2411
2376,2376,16048,-1496,3076,16408.48,28.39,-1.00,-1.0,2368
2379,2379,11572,-6224,568,13151.88,28.39,-1.00,-1.0,2418
2381,2381,16256,10292,-7676,20714.82,28.34,-1.00,-1.0,2367
2384,2384,19008,6256,12204,23438.84,28.29,-1.00,-1.0,2419
2387,2387,13820,2020,1256,14023.21,28.44,-1.00,-1.0,2373
2390,2390,14788,1112,2532,15044.35,28.25,-1.00,-1.0,2369
2395,2395,17984,748,-1880,18097.46,28.25,-1.00,-1.0,2433
2397,2397,19052,-572,5820,19929.33,28.34,-1.00,-1.0,2371
2400,2400,15132,2116,-192,15280.44,28.34,-1.00,-1.0,2418
2403,2403,17056,2192,2768,17417.63,28.39,-1.00,-1.0,2368
2406,2406,15588,96,1104,15627.34,28.39,-1.00,-1.0,2429
2408,2408,16260,1492,-2796,16565.97,28.39,-1.00,-1.0,2369
2411,2411,19508,780,7520,20921.78,28.29,-1.00,-1.0,2428
2414,2414,15324,1512,-1036,15433.22,28.48,-1.00,-1.0,2369
2417,2417,17488,564,4976,18190.90,28.39,-1.00,-1.0,2365
2422,2422,16272,1752,936,16392.79,28.39,-1.00,-1.0,2432
2424,2424,18416,652,5184,19142.83,28.48,-1.00,-1.0,2364
2427,2427,16324,1396,20,16383.59,28.39,-1.00,-1.0,2414
2430,2430,17824,1680,3920,18327.13,28.44,-1.00,-1.0,2367
2432,2432,16960,1388,2016,17135.71,28.34,-1.00,-1.0,2418
2435,2435,16828,1296,2088,17006.50,28.34,-1.00,-1.0,2356
2438,2438,16156,2156,-40,16299.27,28.34,-1.00,-1.0,2419
2441,2441,17624,1100,3784,18059.18,28.39,-1.00,-1.0,2373
2444,2444,16756,816,2096,16906.29,28.39,-1.00,-1.0,2369
2449,2449,17168,1544,3184,17528.89,28.39,-1.00,-1.0,2434
2451,2451,16864,1512,2580,17127.09,28.29,-1.00,-1.0,2362
2454,2454,17300,1484,3244,17663.97,28.39,-1.00,-1.0,2416
2457,2457,16720,1640,2208,16944.71,28.44,-1.00,-1.0,2368
2459,2459,16740,1296,1228,16834.94,28.29,-1.00,-1.0,2419
2462,2462,17160,1336,2392,17377.35,28.34,-1.00,-1.0,2366
2465,2465,16824,1760,2480,17096.64,28.34,-1.00,-1.0,2419
2468,2468,17124,1772,2428,17385.81,28.34,-1.00,-1.0,2369
2471,2471,17012,1168,1808,17147.63,28.34,-1.00,-1.0,2365
2476,2476,16876,1744,1924,17074.62,28.39,-1.00,-1.0,2420
2478,2478,17240,1364,3272,17600.68,28.39,-1.00,-1.0,2364
2481,2481,17036,1616,2148,17246.76,28.29,-1.00,-1.0,2418
2484,2484,16556,1668,1112,16676.93,28.34,-1.00,-1.0,2368
2487,2487,16784,1500,1888,16956.33,28.29,-1.00,-1.0,2415
2489,2489,17080,1600,2484,17333.69,28.44,-1.00,-1.0,2373
2492,2492,17188,1584,2756,17479.47,28.25,-1.00,-1.0,2418
2495,2495,16712,1288,1888,16867.55,28.34,-1.00,-1.0,2366
2498,2498,16788,1188,2200,16973.16,28.25,-1.00,-1.0,2362
2503,2503,16980,1736,1884,17172.17,28.34,-1.00,-1.0,2440
2505,2505,17356,1480,2432,17587.94,28.29,-1.00,-1.0,2366
2508,2508,16868,1172,1660,16989.96,28.44,-1.00,-1.0,2419
2511,2511,16880,1384,1812,17033.30,28.29,-1.00,-1.0,2368
2514,2514,17052,1344,2992,17364.59,28.48,-1.00,-1.0,2414
2516,2516,16576,1580,1352,16705.93,28.39,-1.00,-1.0,2370
2519,2519,16792,1404,2216,16995.68,28.29,-1.00,-1.0,2418
2522,2522,16936,1324,2428,17160.31,28.34,-1.00,-1.0,2369
2525,2525,16860,1624,1208,16981.05,28.39,-1.00,-1.0,2366
2530,2530,16792,1608,2004,16987.44,28.34,-1.00,-1.0,2444
2533,2533,16992,1508,1932,17167.84,28.39,-1.00,-1.0,2364
2535,2535,17000,1592,2668,17281.57,28.34,-1.00,-1.0,2423
2538,2538,16972,1512,2044,17161.38,28.29,-1.00,-1.0,2365
2541,2541,16924,1596,1728,17086.69,28.34,-1.00,-1.0,2423
2543,2543,17164,1428,2596,17417.84,28.39,-1.00,-1.0,2365
2546,2546,17036,1360,2172,17227.67,28.39,-1.00,-1.0,2406
2549,2549,16724,1336,1872,16881.39,28.39,-1.00,-1.0,2367
2552,2552,16960,1432,2440,17194.35,28.29,-1.00,-1.0,2363
2557,2557,16948,1388,2460,17181.76,28.29,-1.00,-1.0,2422
2560,2560,16848,1276,2196,17038.36,28.34,-1.00,-1.0,2364
2562,2562,17012,1512,1988,17194.37,28.34,-1.00,-1.0,2430
2565,2565,16940,1516,2088,17135.39,28.44,-1.00,-1.0,2365
2568,2568,16876,1412,1824,17032.91,28.34,-1.00,-1.0,2417
2570,2570,17092,1584,2340,17324.00,28.29,-1.00,-1.0,2366
2573,2573,16976,1664,2052,17180.34,28.34,-1.00,-1.0,2419
2576,2576,16692,1196,1684,16819.31,28.39,-1.00,-1.0,2366
2579,2579,16744,872,2156,16904.74,28.39,-1.00,-1.0,2361
2584,2584,17024,1756,2652,17318.58,28.39,-1.00,-1.0,2432
2587,2587,16896,1768,2244,17135.82,28.34,-1.00,-1.0,2371
2589,2589,16516,1412,1976,16693.61,28.29,-1.00,-1.0,2427
2592,2592,17140,1360,2044,17314.94,28.34,-1.00,-1.0,2365
2595,2595,17272,1392,1836,17425.00,28.34,-1.00,-1.0,2422
2597,2597,17140,1244,2484,17363.68,28.39,-1.00,-1.0,2366
2600,2600,17232,1372,2288,17437.29,28.34,-1.00,-1.0,2419
2603,2603,16740,1452,2100,16933.57,28.34,-1.00,-1.0,2368
2606,2606,17000,1460,2012,17180.79,28.34,-1.00,-1.0,2362
2611,2611,16988,1492,1500,17119.23,28.29,-1.00,-1.0,2435
2614,2614,17172,1476,2332,17392.37,28.29,-1.00,-1.0,2370
2616,2616,16956,1484,2156,17156.82,28.39,-1.00,-1.0,2420
2619,2619,16784,1620,1776,16955.27,28.29,-1.00,-1.0,2372
2622,2622,16828,1396,2228,17032.16,28.39,-1.00,-1.0,2423
2625,2625,16860,1540,1984,17046.04,28.44,-1.00,-1.0,2367
2627,2627,16928,1424,2520,17173.68,28.34,-1.00,-1.0,2419
2630,2630,16992,1536,2332,17219.92,28.34,-1.00,-1.0,2365
2633,2633,17032,1604,2000,17223.88,28.44,-1.00,-1.0,2362
2639,2639,16940,1512,1976,17121.75,28.39,-1.00,-1.0,2465
2641,2641,16904,1304,2392,17122.13,28.39,-1.00,-1.0,2371
2644,2644,16852,1408,1936,17021.18,28.39,-1.00,-1.0,2423
2647,2647,16920,1500,1904,17092.74,28.29,-1.00,-1.0,2375
2650,2650,17052,1448,2112,17243.20,28.48,-1.00,-1.0,2429
2652,2652,17012,1304,1896,17166.93,28.34,-1.00,-1.0,2367
2655,2655,17036,1784,2328,17286.63,28.29,-1.00,-1.0,2427
2658,2658,16704,1572,1992,16895.65,28.34,-1.00,-1.0,2366
2660,2660,16692,1448,2400,16925.71,28.39,-1.00,-1.0,2363
2665,2665,16800,1556,2004,16990.50,28.29,-1.00,-1.0,2440
2668,2668,16860,1888,2504,17149.17,28.39,-1.00,-1.0,2370
2671,2671,16808,1720,2144,17031.27,28.39,-1.00,-1.0,2428
2673,2673,16656,1616,2284,16889.36,28.39,-1.00,-1.0,2369
2676,2676,17012,1340,2020,17183.83,28.39,-1.00,-1.0,2428
2679,2679,17144,1636,2060,17344.65,28.34,-1.00,-1.0,2372
2682,2682,17080,1440,1948,17250.93,28.29,-1.00,-1.0,2423
2684,2684,17012,1400,2032,17190.03,28.34,-1.00,-1.0,2366
2687,2687,16868,1532,1988,17053.70,28.39,-1.00,-1.0,2370
2692,2692,16980,1476,2140,17177.85,28.25,-1.00,-1.0,2432
2695,2695,16992,1408,2160,17186.51,28.34,-1.00,-1.0,2364
2698,2698,17148,1424,2020,17325.19,28.34,-1.00,-1.0,2416
2700,2700,16920,1416,1980,17094.21,28.39,-1.00,-1.0,2376
2703,2703,16988,1472,2148,17186.41,28.34,-1.00,-1.0,2416
2706,2706,16880,1420,2248,17088.13,28.39,-1.00,-1.0,2361
2709,2709,16936,1448,2148,17132.97,28.29,-1.00,-1.0,2420
2711,2711,16908,1340,2056,17085.18,28.29,-1.00,-1.0,2366
2714,2714,16904,1508,2044,17093.78,28.39,-1.00,-1.0,2369
2719,2719,16924,1600,2264,17149.56,28.39,-1.00,-1.0,2432
2722,2722,16892,1492,2200,17099.88,28.44,-1.00,-1.0,2363
2725,2725,16864,1396,2148,17057.47,28.29,-1.00,-1.0,2447
2727,2727,16996,1432,2108,17185.99,28.39,-1.00,-1.0,2369
2730,2730,17024,1412,2120,17213.50,28.39,-1.00,-1.0,2428
2733,2733,16936,1556,2144,17141.94,28.39,-1.00,-1.0,2371
2736,2736,16984,1452,2060,17169.98,28.39,-1.00,-1.0,2420
2738,2738,16884,1436,1968,17058.86,28.44,-1.00,-1.0,2366
2743,2743,16872,1584,2004,17064.27,28.34,-1.00,-1.0,2438
2746,2746,16964,1520,2152,17167.38,28.39,-1.00,-1.0,2370
2748,2748,16804,1540,2000,16992.53,28.34,-1.00,-1.0,2362
2751,2751,16796,1528,2036,16987.81,28.34,-1.00,-1.0,2424
2754,2754,16876,1596,2092,17079.90,28.34,-1.00,-1.0,2367
2757,2757,16960,1680,2292,17196.43,28.34,-1.00,-1.0,2423
2759,2759,16924,1644,2244,17151.09,28.39,-1.00,-1.0,2368
2762,2762,17016,1528,2020,17203.47,28.34,-1.00,-1.0,2421
2765,2765,16932,1460,1964,17107.94,28.34,-1.00,-1.0,2367
2770,2770,16988,1552,2116,17189.48,28.34,-1.00,-1.0,2426
2773,2773,16976,1452,2224,17182.52,28.39,-1.00,-1.0,2364
2775,2775,17016,1464,2036,17199.79,28.39,-1.00,-1.0,2361
2778,2778,16920,1440,2128,17113.98,28.34,-1.00,-1.0,2435
2781,2781,16924,1620,2000,17118.59,28.39,-1.00,-1.0,2371
2784,2784,16908,1516,2024,17096.06,28.34,-1.00,-1.0,2415
2786,2786,16896,1564,2124,17100.65,28.48,-1.00,-1.0,2367
2789,2789,16884,1560,2164,17093.45,28.29,-1.00,-1.0,2419
2792,2792,16964,1560,2072,17161.12,28.34,-1.00,-1.0,2367
2797,2797,16984,1508,2076,17176.73,28.34,-1.00,-1.0,2442
2800,2800,16956,1568,1944,17138.95,28.48,-1.00,-1.0,2367
2802,2802,16860,1488,2104,17055.81,28.34,-1.00,-1.0,2365
2805,2805,17080,1476,2176,17281.20,28.34,-1.00,-1.0,2429
2808,2808,17044,1556,2260,17263.45,28.34,-1.00,-1.0,2375
2811,2811,17112,1392,2132,17300.39,28.34,-1.00,-1.0,2424
2813,2813,16952,1360,2136,17140.08,28.29,-1.00,-1.0,2366
2816,2816,16808,1456,2084,16999.17,28.29,-1.00,-1.0,2420
2819,2819,16900,1572,2048,17096.07,28.48,-1.00,-1.0,2366
2824,2824,16876,1436,2060,17061.80,28.44,-1.00,-1.0,2437
2827,2827,16960,1432,2048,17143.12,28.34,-1.00,-1.0,2372
2829,2829,16936,1408,2048,17117.38,28.39,-1.00,-1.0,2365
2832,2832,16924,1416,1968,17096.78,28.29,-1.00,-1.0,2424
2835,2835,16996,1376,2104,17180.93,28.34,-1.00,-1.0,2354
2838,2838,17008,1368,2016,17181.61,28.44,-1.00,-1.0,2424
2840,2840,16980,1384,2112,17166.72,28.39,-1.00,-1.0,2368
2843,2843,16916,1340,2092,17097.46,28.39,-1.00,-1.0,2421
2846,2846,16924,1464,2080,17114.07,28.48,-1.00,-1.0,2364
2851,2851,16844,1456,2044,17029.92,28.34,-1.00,-1.0,2429
2854,2854,16924,1400,2032,17102.95,28.39,-1.00,-1.0,2364
2856,2856,16920,1432,2112,17111.33,28.39,-1.00,-1.0,2356
2859,2859,16944,1500,1968,17123.73,28.44,-1.00,-1.0,2424
2862,2862,16960,1512,2248,17175.02,28.39,-1.00,-1.0,2366
2864,2864,16972,1476,1964,17148.90,28.39,-1.00,-1.0,2417
2867,2867,16880,1472,1960,17057.04,28.39,-1.00,-1.0,2365
2870,2870,16932,1396,2092,17117.77,28.34,-1.00,-1.0,2422
2873,2873,16888,1376,2100,17073.60,28.39,-1.00,-1.0,2365
2878,2878,16896,1368,2232,17097.60,28.34,-1.00,-1.0,2426
2881,2881,16944,1504,2140,17144.70,28.29,-1.00,-1.0,2364
2883,2883,16880,1456,2052,17066.49,28.29,-1.00,-1.0,2357
2886,2886,16872,1464,2052,17059.26,28.34,-1.00,-1.0,2423
2889,2889,16836,1476,2108,17031.53,28.48,-1.00,-1.0,2366
2891,2891,16900,1496,2336,17126.15,28.44,-1.00,-1.0,2416
2894,2894,16924,1508,2276,17142.81,28.34,-1.00,-1.0,2366
2897,2897,16940,1552,2160,17147.53,28.34,-1.00,-1.0,2423
2900,2900,16956,1448,2148,17152.74,28.34,-1.00,-1.0,2366
2905,2905,16960,1500,2084,17153.27,28.39,-1.00,-1.0,2424
2908,2908,16932,1348,2124,17117.86,28.48,-1.00,-1.0,2351
2910,2910,17012,1368,2020,17186.04,28.39,-1.00,-1.0,2357
2913,2913,17112,1452,2192,17312.82,28.48,-1.00,-1.0,2423
2916,2916,16940,1352,2184,17133.63,28.39,-1.00,-1.0,2367
2919,2919,16900,1368,2208,17098.44,28.39,-1.00,-1.0,2417
2921,2921,16968,1440,2096,17157.50,28.39,-1.00,-1.0,2373
2924,2924,16848,1584,2096,17051.61,28.29,-1.00,-1.0,2439
2927,2927,16888,1548,2056,17082.97,28.44,-1.00,-1.0,2365
2932,2932,16860,1404,2144,17053.67,28.34,-1.00,-1.0,2428
2935,2935,16880,1488,2116,17077.06,28.39,-1.00,-1.0,2364
2937,2937,16784,1452,2304,17003.51,28.44,-1.00,-1.0,2358
2940,2940,16892,1580,2200,17107.78,28.34,-1.00,-1.0,2424
2943,2943,16884,1620,2008,17079.99,28.34,-1.00,-1.0,2366
2946,2946,16864,1524,2104,17062.94,28.34,-1.00,-1.0,2415
2948,2948,16956,1440,1968,17130.46,28.39,-1.00,-1.0,2373
2951,2951,16916,1432,2020,17096.26,28.39,-1.00,-1.0,2428
2954,2954,17036,1496,2008,17219.04,28.39,-1.00,-1.0,2367
2959,2959,16996,1460,2052,17181.57,28.44,-1.00,-1.0,2429
2962,2962,17004,1384,2004,17177.53,28.34,-1.00,-1.0,2364
2965,2965,17008,1500,2096,17202.19,28.44,-1.00,-1.0,2356
2967,2967,16908,1492,2208,17116.71,28.39,-1.00,-1.0,2426
2970,2970,16960,1524,2128,17160.79,28.44,-1.00,-1.0,2367
2973,2973,16832,1548,2020,17023.30,28.34,-1.00,-1.0,2422
2975,2975,16904,1436,2260,17114.76,28.44,-1.00,-1.0,2367
2978,2978,16836,1468,2040,17022.56,28.34,-1.00,-1.0,2426
2981,2981,16940,1416,2164,17136.26,28.39,-1.00,-1.0,2377
2986,2986,16860,1396,2172,17056.55,28.39,-1.00,-1.0,2431
2989,2989,16920,1448,2076,17108.27,28.44,-1.00,-1.0,2363
2992,2992,16968,1332,2072,17145.86,28.29,-1.00,-1.0,2362
2994,2994,17016,1352,2216,17212.87,28.29,-1.00,-1.0,2432
2997,2997,17000,1384,2140,17189.97,28.29,-1.00,-1.0,2365
3000,3000,16936,1472,2060,17124.21,28.29,-1.00,-1.0,2426
3002,3002,17008,1364,2192,17202.83,28.44,-1.00,-1.0,2365
3005,3005,16916,1504,2088,17110.61,28.34,-1.00,-1.0,2423
3008,3008,16988,1452,2120,17181.23,28.34,-1.00,-1.0,2372
3013,3013,16988,1380,2056,17167.52,28.39,-1.00,-1.0,2438
3016,3016,16868,1516,2192,17077.25,28.39,-1.00,-1.0,2363
3019,3019,16852,1400,2104,17040.44,28.39,-1.00,-1.0,2356
3021,3021,16964,1404,2112,17152.52,28.34,-1.00,-1.0,2434
3024,3024,16952,1424,2168,17149.29,28.29,-1.00,-1.0,2373
3027,3027,16928,1364,2128,17115.67,28.34,-1.00,-1.0,2428
3030,3030,16932,1432,2180,17131.71,28.39,-1.00,-1.0,2365
3032,3032,16940,1380,2068,17121.47,28.44,-1.00,-1.0,2421
3035,3035,17024,1516,1980,17205.67,28.34,-1.00,-1.0,2367
3040,3040,16900,1444,2192,17102.63,28.34,-1.00,-1.0,2436
3043,3043,16932,1420,2076,17117.79,28.20,-1.00,-1.0,2364
3046,3046,17012,1480,2080,17202.47,28.34,-1.00,-1.0,2359
3048,3048,16960,1412,2196,17159.77,28.34,-1.00,-1.0,2425
3051,3051,16912,1440,2020,17092.97,28.29,-1.00,-1.0,2383
3054,3054,16940,1480,1976,17118.95,28.34,-1.00,-1.0,2417
3057,3057,16920,1376,1988,17091.87,28.39,-1.00,-1.0,2365
3059,3059,16836,1432,1980,17012.40,28.39,-1.00,-1.0,2419
3062,3062,16968,1412,2152,17162.11,28.34,-1.00,-1.0,2365
3067,3067,16884,1468,2024,17068.13,28.39,-1.00,-1.0,2428
3070,3070,17004,1524,2080,17198.40,28.34,-1.00,-1.0,2364
3072,3072,16836,1440,2180,17037.51,28.39,-1.00,-1.0,2355
3075,3075,16880,1436,2072,17067.21,28.39,-1.00,-1.0,2424
3078,3078,16924,1404,2136,17115.94,28.34,-1.00,-1.0,2354
3081,3081,16928,1472,2096,17120.67,28.39,-1.00,-1.0,2416
3083,3083,16876,1492,2184,17082.02,28.29,-1.00,-1.0,2364
3087,3087,16992,1440,2072,17178.32,28.29,-1.00,-1.0,2421
3089,3089,16952,1384,1992,17124.66,28.39,-1.00,-1.0,2364
3094,3094,16928,1436,1948,17100.12,28.39,-1.00,-1.0,2426
3097,3097,16912,1420,2152,17107.40,28.44,-1.00,-1.0,2366
3099,3099,16840,1476,2000,17022.46,28.48,-1.00,-1.0,2357
3102,3102,16984,1492,2188,17189.23,28.29,-1.00,-1.0,2427
3105,3105,17004,1504,2044,17192.32,28.29,-1.00,-1.0,2366
3108,3108,16844,1384,2148,17036.72,28.39,-1.00,-1.0,2416
3110,3110,16936,1440,1976,17111.58,28.39,-1.00,-1.0,2365
3114,3114,17064,1380,2048,17241.78,28.34,-1.00,-1.0,2421
3116,3116,16872,1464,2084,17063.14,28.39,-1.00,-1.0,2365
3122,3122,16944,1496,2072,17135.64,28.39,-1.00,-1.0,2431
3124,3124,17028,1412,2036,17207.32,28.34,-1.00,-1.0,2369
3127,3127,17028,1544,2104,17226.83,28.44,-1.00,-1.0,2437
3130,3130,16996,1492,2036,17182.41,28.34,-1.00,-1.0,2378
3132,3132,16924,1500,2068,17115.74,28.39,-1.00,-1.0,2368
3135,3135,16960,1476,2072,17149.73,28.39,-1.00,-1.0,2420
3138,3138,16924,1444,2008,17103.77,28.34,-1.00,-1.0,2369
3141,3141,16836,1456,2056,17023.45,28.48,-1.00,-1.0,2427
3144,3144,16932,1416,2048,17114.09,28.34,-1.00,-1.0,2365
3148,3148,16912,1476,2064,17101.30,28.39,-1.00,-1.0,2427
3151,3151,16968,1524,1936,17145.95,28.39,-1.00,-1.0,2372
3154,3154,16892,1472,1964,17069.38,28.39,-1.00,-1.0,2425
3157,3157,16988,1372,2072,17168.80,28.34,-1.00,-1.0,2373
3159,3159,16984,1448,2116,17176.45,28.29,-1.00,-1.0,2361
3162,3162,16916,1316,2132,17100.54,28.39,-1.00,-1.0,2419
3165,3165,16952,1348,2168,17143.15,28.29,-1.00,-1.0,2367
3168,3168,16912,1452,2180,17113.63,28.44,-1.00,-1.0,2416
3171,3171,16984,1488,2144,17183.34,28.34,-1.00,-1.0,2366
3175,3175,16916,1400,2132,17107.21,28.25,-1.00,-1.0,2427
3178,3178,16904,1404,2180,17101.72,28.39,-1.00,-1.0,2363
3181,3181,16896,1500,1912,17069.87,28.39,-1.00,-1.0,2423
3184,3184,16900,1472,2116,17095.45,28.39,-1.00,-1.0,2376
3186,3186,16936,1512,2140,17137.50,28.29,-1.00,-1.0,2361
3189,3189,16880,1472,2088,17072.23,28.29,-1.00,-1.0,2420
3192,3192,16972,1476,2064,17160.64,28.39,-1.00,-1.0,2368
3195,3195,16924,1376,2104,17109.70,28.29,-1.00,-1.0,2431
3198,3198,16960,1404,1988,17133.74,28.34,-1.00,-1.0,2369
3203,3203,16840,1436,2028,17022.35,28.34,-1.00,-1.0,2413
3205,3205,17020,1388,2084,17203.20,28.39,-1.00,-1.0,2364
3208,3208,16968,1436,2168,17166.11,28.39,-1.00,-1.0,2421
3211,3211,16936,1448,2164,17134.98,28.39,-1.00,-1.0,2369
3213,3213,16936,1464,2092,17127.40,28.34,-1.00,-1.0,2357
3216,3216,16960,1560,2164,17168.52,28.44,-1.00,-1.0,2418
3219,3219,16980,1536,2252,17197.42,28.39,-1.00,-1.0,2365
3222,3222,17000,1604,2028,17195.51,28.39,-1.00,-1.0,2422
3225,3225,16900,1428,2172,17098.74,28.39,-1.00,-1.0,2375
3230,3230,16896,1488,2040,17083.63,28.44,-1.00,-1.0,2428
3232,3232,16912,1556,2012,17102.19,28.34,-1.00,-1.0,2362
3235,3235,16940,1324,2292,17145.55,28.44,-1.00,-1.0,2421
3238,3238,17000,1540,2132,17202.24,28.48,-1.00,-1.0,2369
3240,3240,16964,1392,2148,17156.02,28.34,-1.00,-1.0,2362
3243,3243,16928,1512,2184,17135.14,28.34,-1.00,-1.0,2420
3246,3246,16916,1444,2184,17117.42,28.34,-1.00,-1.0,2366
3249,3249,16936,1516,2224,17148.54,28.44,-1.00,-1.0,2424
3252,3252,16868,1432,2116,17060.41,28.39,-1.00,-1.0,2371
3257,3257,16964,1572,2156,17172.56,28.29,-1.00,-1.0,2427
3259,3259,16912,1508,2168,17116.95,28.34,-1.00,-1.0,2363
3262,3262,17032,1464,2160,17230.73,28.39,-1.00,-1.0,2422
3265,3265,16872,1512,2316,17097.20,28.44,-1.00,-1.0,2371
3267,3267,16880,1560,2264,17102.45,28.39,-1.00,-1.0,2358
3270,3270,16932,1416,2140,17125.34,28.29,-1.00,-1.0,2419
3273,3273,16956,1564,2156,17163.93,28.34,-1.00,-1.0,2365
3276,3276,16916,1384,2168,17110.43,28.34,-1.00,-1.0,2415
3279,3279,16924,1464,2184,17127.02,28.34,-1.00,-1.0,2365
3283,3283,16932,1456,2284,17147.28,28.44,-1.00,-1.0,2429
3286,3286,16884,1412,2184,17083.12,28.29,-1.00,-1.0,2371
3289,3289,16956,1508,2128,17155.42,28.39,-1.00,-1.0,2424
3292,3292,16952,1312,1880,17106.32,28.39,-1.00,-1.0,2375
3294,3294,17036,2888,1960,17389.87,28.34,-1.00,-1.0,2362
3297,3297,17228,-4664,5380,18641.39,28.34,-1.00,-1.0,2418
3300,3300,14224,6876,-4884,16536.47,28.34,-1.00,-1.0,2367
3303,3303,21372,1408,12876,24990.72,28.34,-1.00,-1.0,2420
3306,3306,13736,3572,-4712,14954.59,28.44,-1.00,-1.0,2364
3310,3310,20920,-632,5628,21673.03,28.34,-1.00,-1.0,2427
3313,3313,15524,1796,-3752,16071.64,28.34,-1.00,-1.0,2369
3316,3316,18660,-2272,6964,20046.32,28.34,-1.00,-1.0,2422
3319,3319,16744,1476,2132,16943.60,28.29,-1.00,-1.0,2375
3321,3321,16396,3336,284,16734.35,28.34,-1.00,-1.0,2361
3324,3324,16700,-536,4120,17209.06,28.34,-1.00,-1.0,2407
3327,3327,15556,1920,-1144,15715.73,28.34,-1.00,-1.0,2368
3330,3330,18516,608,6688,19696.22,28.39,-1.00,-1.0,2428
3333,3333,15596,1772,-1788,15797.85,28.34,-1.00,-1.0,2364
3338,3338,16828,2768,1868,17156.13,28.34,-1.00,-1.0,2431
3340,3340,16016,2188,-616,16176.50,28.39,-1.00,-1.0,2366
3343,3343,17420,1116,4488,18023.43,28.44,-1.00,-1.0,2436
3346,3346,16360,1556,200,16435.05,28.39,-1.00,-1.0,2363
3348,3348,17240,1588,3184,17603.33,28.25,-1.00,-1.0,2369
3351,3351,16808,1316,1924,16968.87,28.44,-1.00,-1.0,2420
3354,3354,17276,1132,2776,17534.19,28.29,-1.00,-1.0,2373
3357,3357,16056,2176,-160,16203.57,28.39,-1.00,-1.0,2427
3360,3360,17724,728,4532,18308.72,28.39,-1.00,-1.0,2364
3365,3365,16608,1996,400,16732.29,28.34,-1.00,-1.0,2427
3367,3367,17084,1488,3592,17520.84,28.34,-1.00,-1.0,2373
3370,3370,16676,1640,1872,16860.69,28.25,-1.00,-1.0,2429
3373,3373,17072,1544,3236,17444.45,28.39,-1.00,-1.0,2376
3375,3375,16976,1708,2812,17291.88,28.34,-1.00,-1.0,2345
3378,3378,16680,1532,1472,16814.76,28.39,-1.00,-1.0,2417
3381,3381,17128,1412,2200,17326.34,28.29,-1.00,-1.0,2369
3384,3384,16736,1832,2000,16954.35,28.39,-1.00,-1.0,2417
3387,3387,17200,1700,2592,17477.08,28.39,-1.00,-1.0,2371
3392,3392,16868,1496,1836,17033.45,28.48,-1.00,-1.0,2428
3394,3394,16896,1624,1756,17064.46,28.34,-1.00,-1.0,2372
3397,3397,17160,1212,2660,17407.19,28.39,-1.00,-1.0,2422
3400,3400,16940,1472,1748,17093.45,28.34,-1.00,-1.0,2374
3402,3402,16764,1712,1720,16938.74,28.29,-1.00,-1.0,2357
3405,3405,16932,1508,2220,17143.37,28.29,-1.00,-1.0,2419
3408,3408,16832,1576,1920,17014.30,28.44,-1.00,-1.0,2366
3411,3411,17028,1288,2580,17270.44,28.53,-1.00,-1.0,2424
3414,3414,16744,1532,1720,16901.69,28.48,-1.00,-1.0,2372
3419,3419,16904,1432,2352,17126.81,28.29,-1.00,-1.0,2433
3421,3421,16852,1564,1604,17000.26,28.29,-1.00,-1.0,2366
3424,3424,17148,1544,2216,17359.39,28.39,-1.00,-1.0,2422
3427,3427,16920,1332,2092,17100.79,28.44,-1.00,-1.0,2354
3430,3430,17020,1372,1836,17173.63,28.39,-1.00,-1.0,2422
3432,3432,17128,1376,2780,17406.61,28.34,-1.00,-1.0,2371
3435,3435,16748,1528,1416,16877.07,28.39,-1.00,-1.0,2364
3438,3438,16952,1256,2504,17181.90,28.34,-1.00,-1.0,2428
3441,3441,16920,1420,2072,17105.44,28.34,-1.00,-1.0,2372
3446,3446,17064,1368,2564,17309.70,28.29,-1.00,-1.0,2434
3448,3448,16840,1464,2152,17039.95,28.39,-1.00,-1.0,2365
3451,3451,16916,1520,1732,17072.24,28.39,-1.00,-1.0,2421
3454,3454,16988,1488,2516,17237.65,28.39,-1.00,-1.0,2371
3457,3457,16936,1600,1764,17102.62,28.39,-1.00,-1.0,2415
3459,3459,16876,1504,1940,17053.59,28.39,-1.00,-1.0,2416
3462,3462,17008,1440,2416,17238.99,28.29,-1.00,-1.0,2378
3465,3465,16828,1416,2008,17006.43,28.29,-1.00,-1.0,2423
3468,3468,16948,1472,2220,17156.04,28.44,-1.00,-1.0,2373
3473,3473,16956,1484,2044,17143.11,28.34,-1.00,-1.0,2432
3475,3475,16944,1388,2312,17157.24,28.34,-1.00,-1.0,2366
3478,3478,16860,1440,2312,17078.60,28.34,-1.00,-1.0,2421
3481,3481,17032,1536,2092,17228.60,28.39,-1.00,-1.0,2368
3484,3484,16808,1512,2064,17001.62,28.39,-1.00,-1.0,2414
3486,3486,16864,1540,1896,17039.98,28.39,-1.00,-1.0,2374
3489,3489,17104,1532,2352,17332.79,28.34,-1.00,-1.0,2361
3492,3492,17004,1540,1940,17183.46,28.29,-1.00,-1.0,2421
3495,3495,16900,1376,2120,17087.94,28.39,-1.00,-1.0,2369
3500,3500,16948,1580,2180,17160.52,28.34,-1.00,-1.0,2444
3503,3503,16992,1648,2276,17222.78,28.39,-1.00,-1.0,2362
3506,3506,16904,1452,2256,17115.58,28.34,-1.00,-1.0,2416
3509,3509,16868,1476,1872,17035.62,28.39,-1.00,-1.0,2372
3511,3511,16984,1444,2200,17186.66,28.48,-1.00,-1.0,2426
3514,3514,16820,1524,2016,17008.80,28.39,-1.00,-1.0,2373
3517,3517,16952,1488,2504,17200.42,28.29,-1.00,-1.0,2362
3519,3519,16856,1528,2172,17063.91,28.34,-1.00,-1.0,2419
3522,3522,16948,1556,1808,17115.04,28.39,-1.00,-1.0,2373
3527,3527,17052,1508,2224,17262.41,28.39,-1.00,-1.0,2432
3530,3530,16948,1608,1852,17124.55,28.29,-1.00,-1.0,2369
3532,3532,16920,1604,2120,17127.57,28.39,-1.00,-1.0,2426
3535,3535,16916,1440,2172,17115.55,28.39,-1.00,-1.0,2373
3538,3538,16892,1464,2212,17099.00,28.29,-1.00,-1.0,2425
3541,3541,16996,1372,2208,17193.65,28.25,-1.00,-1.0,2366
3543,3543,16928,1612,1944,17115.34,28.29,-1.00,-1.0,2377
3546,3546,16904,1524,2192,17113.52,28.44,-1.00,-1.0,2406
3549,3549,16892,1512,2128,17092.52,28.44,-1.00,-1.0,2366
3554,3554,16996,1448,2196,17198.35,28.39,-1.00,-1.0,2430
3557,3557,16932,1564,2192,17144.78,28.39,-1.00,-1.0,2365
3559,3559,16900,1512,2168,17105.45,28.39,-1.00,-1.0,2425
3562,3562,16924,1520,2028,17112.71,28.34,-1.00,-1.0,2368
3565,3565,16936,1412,2164,17131.98,28.29,-1.00,-1.0,2426
3567,3567,17048,1508,2032,17234.77,28.44,-1.00,-1.0,2367
3570,3570,17004,1552,1964,17187.26,28.39,-1.00,-1.0,2369
3573,3573,16936,1464,2024,17119.23,28.34,-1.00,-1.0,2417
3576,3576,16944,1500,2232,17156.08,28.34,-1.00,-1.0,2367
3581,3581,16996,1400,2216,17196.94,28.39,-1.00,-1.0,2444
3584,3584,16940,1456,2244,17149.90,28.39,-1.00,-1.0,2365
3587,3587,16988,1508,2016,17173.54,28.39,-1.00,-1.0,2415
3589,3589,17004,1480,2092,17196.01,28.34,-1.00,-1.0,2368
3592,3592,17000,1372,2136,17188.51,28.39,-1.00,-1.0,2419
3595,3595,16972,1476,2072,17161.60,28.44,-1.00,-1.0,2366
3597,3597,16900,1484,2184,17105.03,28.39,-1.00,-1.0,2364
3600,3600,16860,1520,2216,17072.80,28.39,-1.00,-1.0,2419
3603,3603,16888,1440,2072,17075.46,28.44,-1.00,-1.0,2367
3608,3608,17000,1420,2272,17209.83,28.34,-1.00,-1.0,2432
3611,3611,16976,1396,2040,17155.03,28.29,-1.00,-1.0,2367
3613,3613,16904,1508,2048,17094.26,28.34,-1.00,-1.0,2428
3616,3616,16944,1384,2200,17142.19,28.39,-1.00,-1.0,2375
3619,3619,17016,1372,2012,17189.38,28.39,-1.00,-1.0,2422
3621,3621,16900,1164,1940,17050.76,28.29,-1.00,-1.0,2354
3624,3624,17252,1612,2508,17507.71,28.29,-1.00,-1.0,2369
3627,3627,16084,2112,2064,16352.85,28.29,-1.00,-1.0,2420
3630,3630,16764,1984,4824,17556.73,28.29,-1.00,-1.0,2367
3635,3635,17920,804,4576,18512.50,28.44,-1.00,-1.0,2430
3638,3638,18712,3668,2896,19286.78,28.29,-1.00,-1.0,2371
3640,3640,16324,1984,-1288,16494.49,28.34,-1.00,-1.0,2415
3643,3643,16852,1940,4676,17595.98,28.39,-1.00,-1.0,2376
3646,3646,16704,1724,1644,16873.01,28.44,-1.00,-1.0,2420
3649,3649,16484,2072,1440,16676.00,28.29,-1.00,-1.0,2369
3651,3651,17848,1076,2108,18004.24,28.34,-1.00,-1.0,2369
3654,3654,17432,884,3240,17752.57,28.39,-1.00,-1.0,2417
3657,3657,17012,1648,1648,17170.90,28.39,-1.00,-1.0,2367
3662,3662,16908,1064,2940,17194.65,28.39,-1.00,-1.0,2432
3665,3665,16472,1432,1112,16571.48,28.44,-1.00,-1.0,2366
3667,3667,17228,1332,2552,17466.85,28.34,-1.00,-1.0,2402
3670,3670,16692,1764,1576,16858.78,28.44,-1.00,-1.0,2375
3673,3673,17548,1480,2908,17848.79,28.34,-1.00,-1.0,2409
3676,3676,16488,1660,1548,16643.50,28.39,-1.00,-1.0,2366
3678,3678,16604,2012,1280,16774.37,28.44,-1.00,-1.0,2369
3681,3681,17360,1316,3028,17671.17,28.44,-1.00,-1.0,2433
3684,3684,16564,1464,1044,16661.31,28.34,-1.00,-1.0,2374
3689,3689,16896,1324,2148,17083.38,28.29,-1.00,-1.0,2430
3692,3692,17064,1332,2380,17280.59,28.39,-1.00,-1.0,2417
3695,3695,16680,1676,2032,16886.69,28.34,-1.00,-1.0,2431
3697,3697,17028,1412,2320,17243.23,28.34,-1.00,-1.0,2373
3700,3700,17004,1300,2216,17197.00,28.34,-1.00,-1.0,2429
3703,3703,17060,1536,2192,17268.69,28.34,-1.00,-1.0,2376
3705,3705,16928,1592,1928,17111.66,28.34,-1.00,-1.0,2364
3708,3708,16856,1408,1332,16967.07,28.29,-1.00,-1.0,2419
3711,3711,16848,1340,2328,17060.78,28.34,-1.00,-1.0,2374
3716,3716,16976,1492,2468,17219.22,28.34,-1.00,-1.0,2417
3719,3719,16740,1348,1668,16876.82,28.29,-1.00,-1.0,2366
3721,3721,17120,1560,2416,17359.87,28.44,-1.00,-1.0,2425
3724,3724,17052,1296,2460,17277.21,28.29,-1.00,-1.0,2369
3727,3727,16844,1528,1668,16995.21,28.34,-1.00,-1.0,2420
3729,3729,17100,1412,2508,17340.53,28.20,-1.00,-1.0,2368
3732,3732,16816,1624,2280,17047.39,28.34,-1.00,-1.0,2377
3735,3735,16740,1620,1844,16918.99,28.39,-1.00,-1.0,2427
3738,3738,16948,1464,2424,17182.95,28.34,-1.00,-1.0,2384
3743,3743,16884,1668,1824,17063.96,28.29,-1.00,-1.0,2431
3746,3746,16944,1432,2244,17151.83,28.44,-1.00,-1.0,2365
3748,3748,16932,1412,1804,17086.28,28.34,-1.00,-1.0,2429
3751,3751,16832,1384,1872,16992.24,28.34,-1.00,-1.0,2365
3754,3754,17008,1536,2008,17194.87,28.25,-1.00,-1.0,2423
3756,3756,16980,1212,2032,17144.05,28.39,-1.00,-1.0,2367
3759,3759,17100,1196,2208,17283.39,28.39,-1.00,-1.0,2369
3762,3762,16884,1420,1968,17057.52,28.29,-1.00,-1.0,2417
3765,3765,16924,1320,2128,17108.26,28.39,-1.00,-1.0,2369
3770,3770,16876,1524,1944,17055.82,28.34,-1.00,-1.0,2444
3773,3773,17008,1460,2208,17212.75,28.34,-1.00,-1.0,2372
3776,3776,16984,1600,2132,17191.91,28.34,-1.00,-1.0,2417
3778,3778,16824,1540,2064,17019.95,28.39,-1.00,-1.0,2354
3781,3781,16956,1424,2276,17167.23,28.44,-1.00,-1.0,2422
3784,3784,16948,1536,1968,17130.88,28.29,-1.00,-1.0,2367
3786,3786,16952,1488,2072,17142.86,28.44,-1.00,-1.0,2361
3789,3789,17088,1492,2124,17284.02,28.39,-1.00,-1.0,2418
3792,3792,16896,1492,1848,17062.12,28.39,-1.00,-1.0,2367
3797,3797,17048,1412,2104,17235.28,28.39,-1.00,-1.0,2442
3800,3800,16944,1464,2024,17127.14,28.34,-1.00,-1.0,2368
3803,3803,17020,1468,2116,17213.74,28.34,-1.00,-1.0,2417
3805,3805,16908,1584,2076,17108.46,28.34,-1.00,-1.0,2367
3808,3808,16968,1356,2052,17145.33,28.34,-1.00,-1.0,2417
3811,3811,16892,1472,2240,17103.33,28.39,-1.00,-1.0,2367
3813,3813,16868,1556,2088,17067.81,28.34,-1.00,-1.0,2363
3816,3816,16916,1612,2196,17133.94,28.34,-1.00,-1.0,2403
3819,3819,16824,1572,2120,17029.76,28.34,-1.00,-1.0,2368
3824,3824,17032,1504,2156,17233.67,28.29,-1.00,-1.0,2439
3827,3827,16864,1428,2232,17070.90,28.39,-1.00,-1.0,2370
3830,3830,16880,1444,2012,17060.71,28.39,-1.00,-1.0,2428
3832,3832,16956,1500,2304,17177.44,28.34,-1.00,-1.0,2370
3835,3835,16864,1492,2080,17057.17,28.29,-1.00,-1.0,2426
3838,3838,17080,1420,2224,17282.62,28.34,-1.00,-1.0,2374
3841,3841,16888,1472,2272,17103.61,28.34,-1.00,-1.0,2419
3843,3843,16820,1344,1952,16986.14,28.44,-1.00,-1.0,2367
3846,3846,16992,1388,2060,17172.60,28.34,-1.00,-1.0,2362
3851,3851,16916,1488,2140,17115.63,28.34,-1.00,-1.0,2435
3854,3854,16848,1576,2136,17055.83,28.29,-1.00,-1.0,2372
3857,3857,16920,1392,2084,17104.59,28.29,-1.00,-1.0,2429
3859,3859,16888,1520,2028,17077.11,28.39,-1.00,-1.0,2371
3862,3862,16908,1452,2204,17112.76,28.39,-1.00,-1.0,2432
3865,3865,17060,1448,2136,17254.07,28.25,-1.00,-1.0,2375
3868,3868,16924,1424,2196,17125.19,28.39,-1.00,-1.0,2417
3870,3870,16904,1572,2016,17096.22,28.34,-1.00,-1.0,2367
3873,3873,16904,1432,2024,17084.86,28.34,-1.00,-1.0,2362
3878,3878,16960,1540,1992,17145.88,28.34,-1.00,-1.0,2427
3881,3881,17008,1476,2088,17199.14,28.39,-1.00,-1.0,2364
3884,3884,16904,1352,2188,17098.55,28.44,-1.00,-1.0,2425
3886,3886,16868,1436,2008,17047.69,28.29,-1.00,-1.0,2374
3889,3889,16988,1476,1936,17161.55,28.29,-1.00,-1.0,2426
3892,3892,16988,1524,2044,17178.26,28.39,-1.00,-1.0,2376
3895,3895,16920,1396,2196,17118.93,28.39,-1.00,-1.0,2416
3897,3897,16864,1560,2128,17069.17,28.39,-1.00,-1.0,2368
3900,3900,16880,1492,2268,17096.91,28.39,-1.00,-1.0,2358
3905,3905,16940,1536,2128,17142.09,28.34,-1.00,-1.0,2428
3908,3908,16952,1488,2216,17160.86,28.34,-1.00,-1.0,2351
3911,3911,16980,1468,2088,17170.77,28.34,-1.00,-1.0,2424
3913,3913,16912,1364,2104,17096.87,28.39,-1.00,-1.0,2370
3916,3916,17012,1436,2176,17210.61,28.25,-1.00,-1.0,2434
3919,3919,17072,1412,2056,17253.23,28.39,-1.00,-1.0,2370
3922,3922,16888,1472,2092,17080.63,28.39,-1.00,-1.0,2417
3924,3924,16964,1528,2124,17164.60,28.39,-1.00,-1.0,2367
3927,3927,16924,1408,2088,17110.35,28.29,-1.00,-1.0,2363
3932,3932,16920,1384,2068,17102.00,28.39,-1.00,-1.0,2435
3935,3935,16912,1536,2232,17127.66,28.29,-1.00,-1.0,2372
3938,3938,16984,1452,2008,17163.82,28.39,-1.00,-1.0,2418
3940,3940,16912,1404,2000,17087.62,28.39,-1.00,-1.0,2367
3943,3943,16868,1392,2188,17066.18,28.34,-1.00,-1.0,2470
3946,3946,16984,1460,2200,17188.02,28.25,-1.00,-1.0,2372
3949,3949,16952,1436,2148,17147.78,28.34,-1.00,-1.0,2430
3951,3951,16956,1328,2136,17141.53,28.39,-1.00,-1.0,2367
3954,3954,16976,1376,2124,17163.61,28.39,-1.00,-1.0,2361
3959,3959,16928,1384,2116,17115.79,28.44,-1.00,-1.0,2439
3962,3962,16848,1428,2100,17038.32,28.29,-1.00,-1.0,2371
3965,3965,16944,1536,2044,17135.82,28.44,-1.00,-1.0,2433
3967,3967,16940,1488,2048,17128.11,28.39,-1.00,-1.0,2366
3970,3970,16764,1460,2168,16966.54,28.39,-1.00,-1.0,2417
3973,3973,16948,1564,2120,17151.54,28.48,-1.00,-1.0,2365
3976,3976,16916,1456,2072,17104.51,28.39,-1.00,-1.0,2419
3978,3978,17020,1464,2080,17209.01,28.25,-1.00,-1.0,2373
3981,3981,17024,1420,2056,17206.40,28.34,-1.00,-1.0,2370
3986,3986,17004,1340,2076,17182.59,28.29,-1.00,-1.0,2432
3989,3989,16916,1444,2096,17106.41,28.39,-1.00,-1.0,2363
3992,3992,16988,1384,2112,17174.64,28.29,-1.00,-1.0,2429
3994,3994,17000,1408,2116,17188.95,28.29,-1.00,-1.0,2365
3997,3997,16992,1448,2204,17195.42,28.39,-1.00,-1.0,2421
4000,4000,16904,1440,2048,17088.39,28.44,-1.00,-1.0,2367
4003,4003,16920,1452,2200,17124.10,28.29,-1.00,-1.0,2421
4005,4005,16872,1420,2136,17065.85,28.34,-1.00,-1.0,2372
4008,4008,17000,1508,2064,17191.11,28.25,-1.00,-1.0,2369
4014,4014,16840,1476,2072,17031.07,28.39,-1.00,-1.0,2428
4016,4016,16936,1520,2052,17127.44,28.29,-1.00,-1.0,2362
4019,4019,16884,1400,1972,17056.33,28.39,-1.00,-1.0,2421
4022,4022,16880,1444,2092,17070.32,28.39,-1.00,-1.0,2364
4024,4024,16864,1424,1972,17038.52,28.29,-1.00,-1.0,2422
4027,4027,16988,1464,2144,17185.23,28.34,-1.00,-1.0,2378
4030,4030,16860,1428,2220,17065.38,28.39,-1.00,-1.0,2422
4033,4033,16956,1416,2212,17158.20,28.34,-1.00,-1.0,2364
4035,4035,16852,1460,2132,17048.96,28.48,-1.00,-1.0,2364
4040,4040,16912,1484,2320,17134.77,28.34,-1.00,-1.0,2443
4043,4043,16856,1528,2148,17060.88,28.34,-1.00,-1.0,2365
4046,4046,16888,1460,2120,17083.05,28.39,-1.00,-1.0,2455
4049,4049,16960,1472,2020,17143.19,28.25,-1.00,-1.0,2366
4051,4051,16992,1452,2160,17190.17,28.39,-1.00,-1.0,2427
4054,4054,16932,1376,2184,17127.63,28.44,-1.00,-1.0,2370
4057,4057,16976,1420,2164,17172.18,28.34,-1.00,-1.0,2427
4060,4060,16916,1508,2116,17114.40,28.44,-1.00,-1.0,2361
4062,4062,16876,1468,2088,17067.93,28.39,-1.00,-1.0,2363
4067,4067,16932,1444,2172,17131.71,28.39,-1.00,-1.0,2435
4070,4070,16936,1492,2132,17134.75,28.34,-1.00,-1.0,2362
4073,4073,17004,1540,2152,17208.68,28.34,-1.00,-1.0,2430
4075,4075,16908,1376,2020,17083.74,28.34,-1.00,-1.0,2352
4078,4078,16868,1496,2100,17063.92,28.44,-1.00,-1.0,2423
4081,4081,16872,1496,2036,17060.12,28.39,-1.00,-1.0,2365
4084,4084,16864,1524,1996,17049.96,28.25,-1.00,-1.0,2421
4086,4086,16936,1476,2044,17122.63,28.29,-1.00,-1.0,2365
4089,4089,16888,1436,2140,17083.51,28.29,-1.00,-1.0,2362
4094,4094,16936,1460,2120,17130.50,28.29,-1.00,-1.0,2435
4097,4097,17008,1348,1988,17176.77,28.44,-1.00,-1.0,2368
4100,4100,16968,1488,2088,17160.62,28.39,-1.00,-1.0,2428
4103,4103,16952,1428,2052,17135.35,28.25,-1.00,-1.0,2364
4105,4105,16888,1492,2052,17077.51,28.44,-1.00,-1.0,2422
4108,4108,16860,1412,1984,17034.95,28.34,-1.00,-1.0,2364
4111,4111,16920,1516,2064,17112.71,28.44,-1.00,-1.0,2428
4113,4113,16876,1484,2044,17063.98,28.34,-1.00,-1.0,2365
4116,4116,16896,1556,2088,17095.49,28.34,-1.00,-1.0,2362
4121,4121,16992,1512,2084,17185.96,28.29,-1.00,-1.0,2429
4124,4124,16996,1416,2080,17181.25,28.39,-1.00,-1.0,2379
4127,4127,16908,1536,2056,17101.66,28.39,-1.00,-1.0,2423
4130,4130,17008,1388,2112,17194.74,28.48,-1.00,-1.0,2366
4132,4132,17008,1540,2060,17201.37,28.29,-1.00,-1.0,2432
4135,4135,16956,1496,2200,17163.45,28.34,-1.00,-1.0,2366
4138,4138,17028,1592,2244,17248.85,28.39,-1.00,-1.0,2429
4141,4141,16840,1540,2152,17046.65,28.34,-1.00,-1.0,2366
4144,4144,16872,1452,2096,17063.58,28.44,-1.00,-1.0,2362
4148,4148,16964,1564,1976,17150.16,28.29,-1.00,-1.0,2430
4151,4151,17032,1504,2284,17250.15,28.25,-1.00,-1.0,2367
4154,4154,16840,1500,1960,17019.91,28.44,-1.00,-1.0,2429
4156,4156,16956,1588,2088,17157.72,28.34,-1.00,-1.0,2365
4159,4159,16964,1540,1860,17135.01,28.34,-1.00,-1.0,2420
4162,4162,16828,1516,2008,17015.05,28.39,-1.00,-1.0,2365
4165,4165,16952,1576,2028,17145.46,28.34,-1.00,-1.0,2424
4168,4168,16940,1424,2040,17121.71,28.39,-1.00,-1.0,2364
4171,4171,17000,1516,2200,17208.67,28.39,-1.00,-1.0,2361
4175,4175,16872,1512,1976,17054.47,28.39,-1.00,-1.0,2432
4178,4178,16972,1472,2112,17166.13,28.34,-1.00,-1.0,2363
4181,4181,16984,1484,2116,17179.52,28.39,-1.00,-1.0,2436
4183,4183,16932,1572,2164,17141.96,28.34,-1.00,-1.0,2364
4186,4186,16988,1456,2172,17188.07,28.39,-1.00,-1.0,2424
4189,4189,16852,1468,1940,17026.70,28.34,-1.00,-1.0,2364
4192,4192,16900,1544,2004,17088.30,28.34,-1.00,-1.0,2415
4195,4195,16892,1492,2112,17088.78,28.39,-1.00,-1.0,2366
4198,4198,16932,1460,2064,17119.71,28.39,-1.00,-1.0,2363
4203,4203,16940,1452,2200,17143.86,28.39,-1.00,-1.0,2427
4205,4205,16916,1584,2184,17129.80,28.34,-1.00,-1.0,2363
4208,4208,16876,1528,2132,17078.63,28.34,-1.00,-1.0,2423
4211,4211,16920,1496,2316,17143.17,28.34,-1.00,-1.0,2365
4213,4213,16908,1392,2112,17096.16,28.25,-1.00,-1.0,2408
4216,4216,16984,1484,2024,17168.43,28.39,-1.00,-1.0,2373
4219,4219,16992,1480,2160,17192.56,28.44,-1.00,-1.0,2422
4222,4222,16984,1508,2104,17180.14,28.48,-1.00,-1.0,2370
4227,4227,16972,1496,2024,17157.60,28.29,-1.00,-1.0,2430
4229,4229,16952,1516,2184,17159.21,28.44,-1.00,-1.0,2362
4232,4232,17012,1564,2124,17215.27,28.29,-1.00,-1.0,2360
4235,4235,17080,1484,2152,17278.88,28.39,-1.00,-1.0,2426
4237,4237,16972,1540,2108,17171.61,28.39,-1.00,-1.0,2362
4240,4240,16948,1524,2004,17133.98,28.39,-1.00,-1.0,2418
4243,4243,16900,1432,2052,17084.24,28.44,-1.00,-1.0,2364
4246,4246,16976,1468,2124,17171.22,28.34,-1.00,-1.0,2424
4249,4249,16912,1464,2116,17106.62,28.44,-1.00,-1.0,2369
4254,4254,16608,624,1556,16692.40,28.44,-1.00,-1.0,2426
4256,4256,20240,4756,4436,21259.24,28.29,-1.00,-1.0,2364
4259,4259,17196,1956,3144,17590.14,28.34,-1.00,-1.0,2369
4262,4262,12992,1232,-940,13084.09,28.34,-1.00,-1.0,2437
4264,4264,18624,2292,5272,19491.04,28.34,-1.00,-1.0,2363
4267,4267,18484,2396,256,18640.40,28.39,-1.00,-1.0,2433
4270,4270,14216,3292,-2864,14870.59,28.39,-1.00,-1.0,2371
4273,4273,18040,300,9304,20300.15,28.39,-1.00,-1.0,2419
4276,4276,14332,2424,-2788,14800.50,28.34,-1.00,-1.0,2365
4281,4281,17888,-520,5556,18738.20,28.34,-1.00,-1.0,2432
4283,4283,17344,2088,3224,17764.24,28.29,-1.00,-1.0,2368
4286,4286,17976,484,2564,18164.39,28.34,-1.00,-1.0,2361
4289,4289,15620,860,-856,15667.06,28.34,-1.00,-1.0,2435
4291,4291,17344,560,3972,17801.82,28.44,-1.00,-1.0,2366
4294,4294,16368,2000,1392,16548.39,28.34,-1.00,-1.0,2432
4297,4297,16780,1564,2236,17000.42,28.29,-1.00,-1.0,2368
4300,4300,17748,1440,4492,18364.18,28.39,-1.00,-1.0,2419
4303,4303,16368,1984,-776,16506.05,28.39,-1.00,-1.0,2364
4306,4306,17436,1796,3856,17947.38,28.39,-1.00,-1.0,2361
4311,4311,16656,1120,2192,16836.91,28.44,-1.00,-1.0,2432
4313,4313,16944,1748,2448,17208.93,28.44,-1.00,-1.0,2364
4316,4316,17088,1276,2232,17280.33,28.34,-1.00,-1.0,2440
4319,4319,16764,1232,1000,16838.93,28.34,-1.00,-1.0,2371
4322,4322,16712,1712,1592,16874.72,28.34,-1.00,-1.0,2417
4324,4324,17208,1068,3632,17619.52,28.29,-1.00,-1.0,2352
4327,4327,16488,1548,1056,16594.14,28.29,-1.00,-1.0,2424
4330,4330,16800,1640,2312,17037.46,28.39,-1.00,-1.0,2367
4335,4335,16880,1808,1392,17033.52,28.39,-1.00,-1.0,2427
4337,4337,17116,1052,2696,17358.93,28.34,-1.00,-1.0,2364
4340,4340,16716,1820,1196,16857.27,28.39,-1.00,-1.0,2362
4343,4343,17104,1564,2324,17331.88,28.39,-1.00,-1.0,2424
4345,4345,16816,1260,1816,16960.64,28.39,-1.00,-1.0,2414
4348,4348,17224,1708,2484,17485.81,28.44,-1.00,-1.0,2438
4351,4351,17220,1520,3188,17578.46,28.29,-1.00,-1.0,2366
4354,4354,16772,1216,1520,16884.58,28.34,-1.00,-1.0,2424
4357,4357,16904,1288,1972,17067.31,28.48,-1.00,-1.0,2365
4363,4363,16792,1820,1768,16982.62,28.39,-1.00,-1.0,2426
4366,4366,16976,1588,2184,17189.42,28.29,-1.00,-1.0,2371
4369,4369,16764,1716,1696,16936.73,28.29,-1.00,-1.0,2359
4372,4372,16824,1932,1548,17005.17,28.34,-1.00,-1.0,2425
4374,4374,17140,1364,2984,17451.20,28.29,-1.00,-1.0,2364
4377,4377,16784,1384,1784,16935.19,28.39,-1.00,-1.0,2417
4380,4380,16856,1332,1792,17003.24,28.29,-1.00,-1.0,2370
4382,4382,16792,1360,2024,16968.13,28.39,-1.00,-1.0,2422
4385,4385,17160,1268,2156,17341.33,28.44,-1.00,-1.0,2373
4390,4390,16940,1256,2036,17108.08,28.48,-1.00,-1.0,2426
4393,4393,17128,1152,2176,17304.06,28.39,-1.00,-1.0,2370
4395,4395,17020,1120,2448,17231.58,28.39,-1.00,-1.0,2358
4398,4398,16824,1636,1912,17011.15,28.39,-1.00,-1.0,2423
4401,4401,16916,1684,2544,17188.92,28.39,-1.00,-1.0,2367
4403,4403,16852,1660,2108,17064.27,28.39,-1.00,-1.0,2417
4406,4406,16936,1564,1564,17079.82,28.39,-1.00,-1.0,2374
4409,4409,16820,1464,2272,17035.78,28.39,-1.00,-1.0,2424
4412,4412,16804,1704,1792,16984.97,28.44,-1.00,-1.0,2367
4416,4416,17132,1624,2312,17363.41,28.34,-1.00,-1.0,2427
4419,4419,17020,1636,1636,17176.54,28.20,-1.00,-1.0,2364
4422,4422,17148,1368,2064,17325.86,28.34,-1.00,-1.0,2357
4425,4425,17140,1216,2356,17343.85,28.34,-1.00,-1.0,2425
4427,4427,16856,1268,1772,16996.25,28.34,-1.00,-1.0,2364
4430,4430,17004,1296,2352,17214.75,28.34,-1.00,-1.0,2417
4433,4433,16904,1484,2504,17152.77,28.39,-1.00,-1.0,2368
4435,4435,16836,1648,2060,17041.43,28.25,-1.00,-1.0,2422
4438,4438,17028,1252,2300,17228.18,28.48,-1.00,-1.0,2380
4443,4443,16924,1328,2176,17114.92,28.39,-1.00,-1.0,2425
4446,4446,16956,1564,2356,17190.19,28.44,-1.00,-1.0,2364
4448,4448,16760,1648,1816,16938.46,28.29,-1.00,-1.0,2355
4451,4451,17024,1720,2152,17245.46,28.39,-1.00,-1.0,2439
4454,4454,17048,1548,2180,17256.39,28.34,-1.00,-1.0,2371
4457,4457,16972,1532,1804,17136.22,28.39,-1.00,-1.0,2417
4459,4459,16988,1540,1964,17170.35,28.44,-1.00,-1.0,2365
4462,4462,16852,1340,1928,17014.78,28.34,-1.00,-1.0,2420
4465,4465,16900,1472,2088,17092.00,28.39,-1.00,-1.0,2374
4470,4470,16796,1380,2052,16977.06,28.34,-1.00,-1.0,2425
4473,4473,16908,1256,2008,17073.08,28.34,-1.00,-1.0,2366
4475,4475,16912,1256,2016,17077.98,28.34,-1.00,-1.0,2356
4478,4478,16972,1464,2060,17159.13,28.39,-1.00,-1.0,2424
4481,4481,16984,1496,2212,17192.65,28.34,-1.00,-1.0,2365
4483,4483,16996,1600,2184,17210.28,28.44,-1.00,-1.0,2414
4486,4486,16984,1480,2208,17190.75,28.34,-1.00,-1.0,2369
4489,4489,16852,1372,2052,17031.82,28.34,-1.00,-1.0,2418
4492,4492,16940,1416,2060,17123.44,28.29,-1.00,-1.0,2369
4497,4497,16992,1540,2300,17215.97,28.39,-1.00,-1.0,2429
4499,4499,16928,1552,2056,17122.88,28.44,-1.00,-1.0,2365
4502,4502,16968,1348,2028,17141.85,28.39,-1.00,-1.0,2360
4505,4505,17000,1352,1892,17158.31,28.48,-1.00,-1.0,2428
4507,4507,16980,1312,1840,17129.72,28.39,-1.00,-1.0,2365
4510,4510,17076,1376,2240,17277.17,28.39,-1.00,-1.0,2423
4513,4513,16976,1316,2164,17163.90,28.25,-1.00,-1.0,2366
4516,4516,16940,1456,1880,17106.08,28.34,-1.00,-1.0,2420
4519,4519,17008,1420,2020,17186.30,28.39,-1.00,-1.0,2353
4524,4524,16824,1524,2028,17014.18,28.39,-1.00,-1.0,2419
4526,4526,16912,1532,2252,17129.92,28.34,-1.00,-1.0,2365
4529,4529,16816,1448,2168,17016.90,28.29,-1.00,-1.0,2361
4532,4532,16956,1636,2288,17187.71,28.39,-1.00,-1.0,2427
4534,4534,17032,1488,2088,17223.90,28.29,-1.00,-1.0,2367
4537,4537,16936,1500,2224,17147.14,28.39,-1.00,-1.0,2420
4540,4540,16992,1404,2052,17172.94,28.44,-1.00,-1.0,2366
4543,4543,16912,1392,2224,17114.31,28.34,-1.00,-1.0,2405
4546,4546,17004,1288,2196,17193.53,28.34,-1.00,-1.0,2367
4551,4551,17004,1484,2024,17188.22,28.39,-1.00,-1.0,2433
4554,4554,16944,1432,2208,17147.16,28.39,-1.00,-1.0,2366
4556,4556,16984,1512,2192,17191.49,28.25,-1.00,-1.0,2368
4559,4559,16948,1476,2096,17140.79,28.44,-1.00,-1.0,2424
4562,4562,16980,1604,2228,17200.50,28.34,-1.00,-1.0,2371
4564,4564,16924,1604,2148,17135.01,28.34,-1.00,-1.0,2426
4567,4567,16936,1592,2220,17154.91,28.39,-1.00,-1.0,2364
4570,4570,16816,1516,2124,17017.27,28.39,-1.00,-1.0,2416
4573,4573,16920,1524,2148,17123.75,28.34,-1.00,-1.0,2355
4578,4578,16956,1368,2232,17156.90,28.29,-1.00,-1.0,2426
4580,4580,17076,1404,2256,17281.51,28.34,-1.00,-1.0,2372
4583,4583,16968,1356,2148,17157.09,28.29,-1.00,-1.0,2361
4586,4586,17008,1416,2112,17197.03,28.39,-1.00,-1.0,2428
4588,4588,17036,1340,2084,17215.22,28.48,-1.00,-1.0,2368
4591,4591,17036,1380,2196,17232.30,28.29,-1.00,-1.0,2420
4594,4594,16896,1400,2040,17076.20,28.29,-1.00,-1.0,2366
4597,4597,16896,1464,2128,17092.29,28.39,-1.00,-1.0,2420
4600,4600,16924,1520,2088,17119.93,28.39,-1.00,-1.0,2365
4605,4605,16980,1464,2040,17164.65,28.29,-1.00,-1.0,2432
4607,4607,16844,1504,1968,17025.14,28.39,-1.00,-1.0,2368
4610,4610,17020,1416,2180,17217.37,28.39,-1.00,-1.0,2360
4613,4613,17020,1276,2268,17217.79,28.39,-1.00,-1.0,2429
4615,4615,17060,1324,2200,17252.15,28.39,-1.00,-1.0,2365
4618,4618,17104,1416,2092,17289.54,28.39,-1.00,-1.0,2419
4621,4621,16944,1324,2080,17122.46,28.29,-1.00,-1.0,2366
4624,4624,16840,1412,2148,17035.06,28.34,-1.00,-1.0,2419
4627,4627,16828,1452,2060,17015.68,28.29,-1.00,-1.0,2367
4632,4632,16944,1592,1980,17133.42,28.29,-1.00,-1.0,2425
4635,4635,16916,1512,1900,17089.39,28.34,-1.00,-1.0,2370
4637,4637,16928,1452,2084,17117.49,28.39,-1.00,-1.0,2360
4640,4640,16892,1544,2224,17107.59,28.39,-1.00,-1.0,2423
4643,4643,16748,1536,2292,16973.75,28.29,-1.00,-1.0,2367
4645,4645,16968,1476,2112,17162.52,28.39,-1.00,-1.0,2414
4648,4648,16952,1460,2136,17148.31,28.34,-1.00,-1.0,2381
4651,4651,17004,1372,2068,17184.15,28.34,-1.00,-1.0,2419
4654,4654,16964,1588,2072,17163.69,28.34,-1.00,-1.0,2365
4659,4659,17048,1496,2212,17255.88,28.39,-1.00,-1.0,2426
4662,4662,16900,1400,2184,17097.95,28.39,-1.00,-1.0,2367
4664,4664,16868,1460,2180,17070.84,28.39,-1.00,-1.0,2357
4667,4667,17036,1448,2028,17217.28,28.34,-1.00,-1.0,2424
4670,4670,16956,1488,2068,17146.33,28.29,-1.00,-1.0,2365
4672,4672,16904,1564,2096,17105.10,28.29,-1.00,-1.0,2415
4675,4675,16960,1588,2164,17171.09,28.39,-1.00,-1.0,2380
4678,4678,16960,1488,2124,17157.13,28.39,-1.00,-1.0,2436
4681,4681,16928,1592,2064,17127.51,28.34,-1.00,-1.0,2366
4686,4686,16884,1516,2200,17094.08,28.34,-1.00,-1.0,2429
4689,4689,17016,1500,2100,17210.59,28.39,-1.00,-1.0,2365
4691,4691,16916,1336,2024,17088.96,28.34,-1.00,-1.0,2357
4694,4694,17012,1336,2236,17210.25,28.25,-1.00,-1.0,2424
4697,4697,16940,1376,2116,17127.01,28.39,-1.00,-1.0,2365
4699,4699,16936,1512,2072,17129.14,28.44,-1.00,-1.0,2416
4702,4702,16808,1576,2064,17007.43,28.29,-1.00,-1.0,2369
4705,4705,16852,1424,2192,17053.52,28.29,-1.00,-1.0,2435
4708,4708,16960,1480,2116,17155.45,28.29,-1.00,-1.0,2373
4713,4713,16756,1556,2064,16954.20,28.34,-1.00,-1.0,2425
4716,4716,17012,1380,2108,17197.56,28.29,-1.00,-1.0,2365
4718,4718,17012,1476,2128,17208.00,28.34,-1.00,-1.0,2421
4721,4721,17052,1460,2048,17236.49,28.39,-1.00,-1.0,2366
4724,4724,16920,1388,2148,17112.18,28.25,-1.00,-1.0,2371
4727,4727,16996,1284,2004,17161.84,28.34,-1.00,-1.0,2418
4729,4729,17012,1408,2052,17193.06,28.34,-1.00,-1.0,2365
4732,4732,16908,1324,1968,17073.56,28.39,-1.00,-1.0,2427
4735,4735,16888,1508,2140,17089.71,28.29,-1.00,-1.0,2380
4740,4740,16832,1444,2104,17024.34,28.39,-1.00,-1.0,2426
4743,4743,16900,1552,2244,17118.83,28.44,-1.00,-1.0,2364
4746,4746,16816,1428,2176,17016.23,28.34,-1.00,-1.0,2422
4748,4748,16912,1500,2160,17115.24,28.34,-1.00,-1.0,2365
4751,4751,16924,1480,2200,17130.45,28.34,-1.00,-1.0,2371
4754,4754,16864,1528,2144,17068.28,28.39,-1.00,-1.0,2419
4756,4756,16968,1380,2132,17157.01,28.34,-1.00,-1.0,2351
4759,4759,16980,1372,2052,17158.48,28.44,-1.00,-1.0,2420
4762,4762,16964,1404,2256,17170.85,28.29,-1.00,-1.0,2367
4767,4767,16960,1508,2144,17161.36,28.39,-1.00,-1.0,2433
4770,4770,16900,1444,1976,17076.29,28.34,-1.00,-1.0,2372
4773,4773,16860,1456,2152,17059.03,28.39,-1.00,-1.0,2422
4775,4775,16924,1556,2236,17141.84,28.34,-1.00,-1.0,2365
4778,4778,16948,1456,2200,17152.10,28.29,-1.00,-1.0,2372
4781,4781,16916,1464,2124,17111.57,28.39,-1.00,-1.0,2429
4783,4783,16868,1524,2176,17075.92,28.29,-1.00,-1.0,2366
4786,4786,16848,1476,2028,17033.69,28.34,-1.00,-1.0,2420
4789,4789,17036,1552,2168,17243.38,28.34,-1.00,-1.0,2366
4794,4794,16940,1396,2124,17129.62,28.34,-1.00,-1.0,2427
4797,4797,16988,1372,2156,17179.14,28.39,-1.00,-1.0,2372
4799,4799,16884,1352,2024,17058.54,28.34,-1.00,-1.0,2426
4802,4802,16940,1400,2112,17128.46,28.39,-1.00,-1.0,2370
4805,4805,16924,1376,2180,17119.22,28.44,-1.00,-1.0,2358
4807,4807,16932,1392,2232,17135.11,28.34,-1.00,-1.0,2419
4810,4810,16908,1420,2068,17093.08,28.34,-1.00,-1.0,2364
4813,4813,16984,1480,2144,17182.65,28.34,-1.00,-1.0,2415
4816,4816,16976,1592,2148,17185.25,28.34,-1.00,-1.0,2366
4821,4821,16972,1424,2116,17162.58,28.48,-1.00,-1.0,2425
4824,4824,16896,1536,2040,17087.88,28.34,-1.00,-1.0,2366
4826,4826,17016,1412,2140,17208.07,28.34,-1.00,-1.0,2422
4829,4829,16836,1392,2148,17029.46,28.44,-1.00,-1.0,2379
4832,4832,16952,1480,2020,17135.96,28.34,-1.00,-1.0,2364
4834,4834,16932,1476,2236,17142.66,28.29,-1.00,-1.0,2421
4837,4837,17052,1488,2004,17233.71,28.34,-1.00,-1.0,2365
4840,4840,17092,1492,1964,17269.04,28.39,-1.00,-1.0,2420
4843,4843,16964,1448,1948,17136.77,28.39,-1.00,-1.0,2364
4848,4848,16896,1476,2132,17093.82,28.34,-1.00,-1.0,2431
4851,4851,16904,1568,2180,17115.96,28.44,-1.00,-1.0,2372
4854,4854,17004,1544,2116,17204.58,28.34,-1.00,-1.0,2431
4856,4856,16968,1452,2272,17180.90,28.39,-1.00,-1.0,2367
4859,4859,17048,1404,2084,17232.20,28.34,-1.00,-1.0,2348
4862,4862,16920,1472,2164,17121.22,28.34,-1.00,-1.0,2426
4864,4864,17032,1564,2076,17229.19,28.34,-1.00,-1.0,2370
4867,4867,16952,1488,2012,17135.71,28.39,-1.00,-1.0,2420
4870,4870,16936,1492,2112,17132.27,28.39,-1.00,-1.0,2364
4875,4875,16948,1572,2088,17148.34,28.29,-1.00,-1.0,2426
4878,4878,16916,1328,2156,17104.47,28.34,-1.00,-1.0,2353
4881,4881,16936,1548,2160,17143.22,28.34,-1.00,-1.0,2429
4883,4883,16992,1520,2100,17188.62,28.44,-1.00,-1.0,2367
4886,4886,16836,1352,2220,17035.47,28.34,-1.00,-1.0,2363
4889,4889,16932,1500,2020,17117.92,28.29,-1.00,-1.0,2419
4891,4891,16872,1520,2068,17066.09,28.34,-1.00,-1.0,2376
4894,4894,16964,1464,2016,17145.99,28.34,-1.00,-1.0,2421
4897,4897,16952,1548,2320,17179.90,28.39,-1.00,-1.0,2366
4902,4902,16948,1404,2100,17135.22,28.39,-1.00,-1.0,2435
4905,4905,16908,1412,2124,17099.29,28.44,-1.00,-1.0,2370
4908,4908,16976,1408,2200,17175.77,28.34,-1.00,-1.0,2425
4911,4911,16864,1500,2048,17054.00,28.29,-1.00,-1.0,2366
4913,4913,16948,1540,2088,17145.44,28.34,-1.00,-1.0,2364
4916,4916,16944,1488,2236,17155.55,28.29,-1.00,-1.0,2420
4919,4919,17012,1424,2168,17208.61,28.44,-1.00,-1.0,2368
4921,4921,17108,1548,2204,17318.71,28.44,-1.00,-1.0,2428
4924,4924,16848,1580,2064,17047.33,28.34,-1.00,-1.0,2367
4929,4929,17036,1476,2080,17225.86,28.29,-1.00,-1.0,2425
4932,4932,16940,1496,2136,17139.55,28.39,-1.00,-1.0,2351
4935,4935,16960,1460,2052,17145.96,28.29,-1.00,-1.0,2429
4937,4937,16968,1484,2136,17166.18,28.44,-1.00,-1.0,2367
4940,4940,16872,1520,2112,17071.48,28.39,-1.00,-1.0,2363
4943,4943,16932,1552,2132,17136.12,28.29,-1.00,-1.0,2419
4945,4945,16872,1504,2088,17067.11,28.39,-1.00,-1.0,2415
4948,4948,16904,1424,2272,17115.34,28.39,-1.00,-1.0,2433
4951,4951,16868,1480,2152,17069.01,28.44,-1.00,-1.0,2370
4956,4956,16820,1416,2044,17002.80,28.34,-1.00,-1.0,2425
4959,4959,16948,1488,2156,17149.26,28.39,-1.00,-1.0,2365
4962,4962,16980,1576,2036,17174.09,28.39,-1.00,-1.0,2421
4964,4964,16980,1432,2060,17164.34,28.39,-1.00,-1.0,2373
4967,4967,16932,1564,2028,17124.59,28.34,-1.00,-1.0,2361
4970,4970,16976,1344,2184,17168.60,28.34,-1.00,-1.0,2427
4972,4972,17008,1456,2256,17218.64,28.29,-1.00,-1.0,2366
4975,4975,16964,1464,2168,17164.52,28.39,-1.00,-1.0,2427
4978,4978,17020,1504,2108,17215.87,28.29,-1.00,-1.0,2375
4983,4983,16944,1532,2136,17146.68,28.34,-1.00,-1.0,2427
4986,4986,16948,1492,2088,17141.19,28.48,-1.00,-1.0,2366
4989,4989,16968,1424,2060,17151.80,28.34,-1.00,-1.0,2428
4991,4991,16976,1464,2096,17167.44,28.39,-1.00,-1.0,2355
4994,4994,16896,1480,2184,17100.73,28.34,-1.00,-1.0,2362
4997,4997,16924,1332,2036,17097.99,28.34,-1.00,-1.0,2427
4999,4999,16932,1516,2176,17138.43,28.39,-1.00,-1.0,2367
5002,5002,16944,1580,2072,17143.18,28.29,-1.00,-1.0,2421
5005,5005,16864,1508,1976,17046.21,28.39,-1.00,-1.0,2373
5010,5010,16972,1460,2028,17154.97,28.39,-1.00,-1.0,2433
5013,5013,16992,1368,2300,17201.44,28.29,-1.00,-1.0,2372
5016,5016,17084,1528,2012,17269.80,28.39,-1.00,-1.0,2431
5018,5018,17012,1428,2028,17191.86,28.25,-1.00,-1.0,2368
5021,5021,16876,1376,1984,17047.84,28.29,-1.00,-1.0,2362
5024,5024,16904,1532,2192,17114.24,28.39,-1.00,-1.0,2426
5026,5026,16944,1512,2252,17159.74,28.39,-1.00,-1.0,2373
5029,5029,16876,1444,2028,17058.64,28.29,-1.00,-1.0,2420
5032,5032,16896,1472,2200,17102.09,28.29,-1.00,-1.0,2372
5037,5037,16964,1564,2024,17155.76,28.34,-1.00,-1.0,2426
5040,5040,16848,1500,2040,17037.21,28.39,-1.00,-1.0,2365
5043,5043,16888,1404,1984,17062.01,28.44,-1.00,-1.0,2429
5045,5045,16940,1456,2164,17139.62,28.39,-1.00,-1.0,2367
5048,5048,16916,1448,2072,17103.83,28.34,-1.00,-1.0,2361
5051,5051,16956,1436,2116,17147.75,28.34,-1.00,-1.0,2419
5053,5053,16836,1524,1952,17017.16,28.39,-1.00,-1.0,2368
5056,5056,16940,1428,2132,17133.25,28.34,-1.00,-1.0,2420
5059,5059,16972,1440,2028,17153.29,28.20,-1.00,-1.0,2365
5064,5064,16932,1504,2024,17118.74,28.29,-1.00,-1.0,2434
5067,5067,16896,1448,2128,17090.93,28.39,-1.00,-1.0,2364
5070,5070,16976,1524,2076,17170.23,28.29,-1.00,-1.0,2429
5072,5072,16936,1512,2084,17130.60,28.34,-1.00,-1.0,2354
5075,5075,17004,1472,2136,17200.73,28.29,-1.00,-1.0,2368
5078,5078,16984,1556,2112,17185.40,28.39,-1.00,-1.0,2423
5081,5081,16972,1508,2084,17165.84,28.29,-1.00,-1.0,2368
5083,5083,17004,1496,2112,17199.84,28.44,-1.00,-1.0,2419
5086,5086,16964,1500,2060,17154.33,28.34,-1.00,-1.0,2366
5091,5091,16916,1472,2080,17106.85,28.29,-1.00,-1.0,2433
5094,5094,17024,1524,2088,17219.14,28.29,-1.00,-1.0,2371
5097,5097,16940,1412,2128,17131.43,28.29,-1.00,-1.0,2426
5100,5100,16828,1356,2040,17005.35,28.29,-1.00,-1.0,2367
5102,5102,16904,1576,2132,17110.65,28.39,-1.00,-1.0,2423
5105,5105,16924,1492,2060,17114.07,28.34,-1.00,-1.0,2365
5108,5108,16904,1424,2204,17106.45,28.39,-1.00,-1.0,2362
5111,5111,16948,1468,1888,17115.91,28.29,-1.00,-1.0,2420
5113,5113,16940,1568,2048,17135.24,28.39,-1.00,-1.0,2365
5118,5118,16948,1428,2128,17140.66,28.34,-1.00,-1.0,2427
5121,5121,16876,1496,2200,17084.42,28.25,-1.00,-1.0,2378
5124,5124,16956,1448,2000,17134.84,28.44,-1.00,-1.0,2424
5127,5127,16940,1468,2140,17137.62,28.29,-1.00,-1.0,2366
5129,5129,16988,1520,2196,17196.66,28.34,-1.00,-1.0,2453
5132,5132,17008,1540,2148,17212.13,28.34,-1.00,-1.0,2368
5135,5135,16996,1468,1952,17170.60,28.39,-1.00,-1.0,2369
5138,5138,16848,1452,2020,17030.67,28.29,-1.00,-1.0,2420
5141,5141,16956,1368,2088,17138.76,28.48,-1.00,-1.0,2366
5145,5145,16848,1508,2120,17047.69,28.39,-1.00,-1.0,2425
5148,5148,16980,1508,2168,17184.14,28.34,-1.00,-1.0,2366
5151,5151,16892,1596,2084,17094.73,28.34,-1.00,-1.0,2426
5154,5154,16880,1472,2060,17068.82,28.34,-1.00,-1.0,2368
5156,5156,16984,1492,2112,17179.72,28.34,-1.00,-1.0,2428
5159,5159,16896,1564,1964,17081.52,28.39,-1.00,-1.0,2366
5162,5162,16884,1480,2076,17075.41,28.34,-1.00,-1.0,2362
5165,5165,16876,1556,2028,17068.49,28.34,-1.00,-1.0,2420
5168,5168,16956,1520,2112,17154.50,28.39,-1.00,-1.0,2364
5172,5172,16964,1468,2112,17157.88,28.39,-1.00,-1.0,2425
5175,5175,16972,1576,2072,17170.49,28.44,-1.00,-1.0,2365
5178,5178,16976,1492,2148,17176.28,28.29,-1.00,-1.0,2422
5181,5181,16924,1468,2280,17139.87,28.34,-1.00,-1.0,2372
5183,5183,16932,1480,2088,17124.33,28.34,-1.00,-1.0,2426
5186,5186,16968,1392,2128,17157.48,28.34,-1.00,-1.0,2373
5189,5189,17036,1480,2200,17241.11,28.34,-1.00,-1.0,2362
5192,5192,17004,1440,2188,17204.56,28.34,-1.00,-1.0,2426
5195,5195,16884,1484,2140,17083.66,28.34,-1.00,-1.0,2367
5200,5200,16936,1452,2088,17125.89,28.39,-1.00,-1.0,2426
5202,5202,16888,1476,2108,17082.94,28.29,-1.00,-1.0,2363
5205,5205,16988,1444,2080,17175.67,28.39,-1.00,-1.0,2425
5208,5208,16000,1488,2176,16215.71,28.34,-1.00,-1.0,2366
5210,5210,18760,8108,6632,21486.29,28.39,-1.00,-1.0,2421
5213,5213,13492,348,-548,13507.61,28.34,-1.00,-1.0,2378
5216,5216,16132,-980,-84,16161.96,28.39,-1.00,-1.0,2362
5219,5219,21632,4712,5180,22737.17,28.39,-1.00,-1.0,2433
5222,5222,16440,1892,-628,16560.42,28.34,-1.00,-1.0,2369
5228,5228,19164,2948,-2112,19504.11,28.29,-1.00,-1.0,2446
5231,5231,16948,2336,844,17129.04,28.44,-1.00,-1.0,2379
5234,5234,17352,168,7016,18717.49,28.29,-1.00,-1.0,2427
5237,5237,17236,4772,64,17884.51,28.34,-1.00,-1.0,2370
5239,5239,18164,-560,6940,19452.71,28.34,-1.00,-1.0,2425
5242,5242,14996,1420,-3148,15388.51,28.34,-1.00,-1.0,2365
5245,5245,16648,540,-56,16656.85,28.44,-1.00,-1.0,2360
5247,5247,17176,1300,4748,17867.53,28.39,-1.00,-1.0,2424
5250,5250,15836,2176,-528,15993.52,28.25,-1.00,-1.0,2366
5255,5255,17408,2684,2944,17858.04,28.29,-1.00,-1.0,2432
5258,5258,17148,1032,1044,17210.72,28.44,-1.00,-1.0,2365
5260,5260,16400,1060,2936,16694.42,28.34,-1.00,-1.0,2432
5263,5263,17320,992,1216,17390.95,28.44,-1.00,-1.0,2369
5266,5266,16868,1832,4268,17495.76,28.25,-1.00,-1.0,2363
5268,5268,16308,2008,1480,16497.68,28.39,-1.00,-1.0,2428
5271,5271,17792,1056,3076,18086.79,28.34,-1.00,-1.0,2368
5274,5274,15672,1476,-656,15755.01,28.44,-1.00,-1.0,2426
5276,5276,17840,1208,3456,18211.78,28.34,-1.00,-1.0,2366
5281,5281,16160,1816,-256,16263.73,28.29,-1.00,-1.0,2428
5284,5284,17392,1876,3708,17881.56,28.39,-1.00,-1.0,2370
5287,5287,16692,1960,2028,16928.59,28.39,-1.00,-1.0,2423
5290,5290,17376,1096,2356,17569.21,28.34,-1.00,-1.0,2371
5292,5292,16520,1652,792,16621.28,28.29,-1.00,-1.0,2431
5295,5295,17200,1572,2768,17492.08,28.34,-1.00,-1.0,2366
5298,5298,17520,1116,3320,17866.68,28.39,-1.00,-1.0,2364
5300,5300,16208,1568,804,16303.51,28.39,-1.00,-1.0,2425
5303,5303,17668,1888,3484,18106.93,28.39,-1.00,-1.0,2374
5308,5308,16732,1128,1592,16845.38,28.34,-1.00,-1.0,2425
5311,5311,16948,1396,2504,17188.76,28.39,-1.00,-1.0,2418
5314,5314,16892,1776,2264,17135.33,28.29,-1.00,-1.0,2428
5316,5316,16952,1556,1852,17123.71,28.39,-1.00,-1.0,2378
5319,5319,16784,1644,2024,16985.35,28.34,-1.00,-1.0,2361
5322,5322,17140,1812,2652,17438.35,28.34,-1.00,-1.0,2419
5324,5324,16592,1836,1064,16727.15,28.39,-1.00,-1.0,2375
5327,5327,16952,1348,2748,17226.11,28.29,-1.00,-1.0,2418
5330,5330,17008,1552,2272,17229.12,28.29,-1.00,-1.0,2353
5335,5335,17016,1508,2332,17241.13,28.39,-1.00,-1.0,2459
5338,5338,16844,1336,1832,16995.92,28.39,-1.00,-1.0,2368
5340,5340,17220,1356,1880,17375.31,28.39,-1.00,-1.0,2425
5343,5343,17156,1376,2412,17379.28,28.39,-1.00,-1.0,2371
5346,5346,16992,1188,1984,17148.63,28.29,-1.00,-1.0,2424
5349,5349,17276,1024,2976,17560.33,28.34,-1.00,-1.0,2366
5351,5351,16460,1432,1644,16603.76,28.39,-1.00,-1.0,2376
5354,5354,16836,1476,2100,17030.54,28.29,-1.00,-1.0,2405
5357,5357,17096,1528,2848,17398.82,28.44,-1.00,-1.0,2366
5362,5362,16952,1332,2200,17145.98,28.29,-1.00,-1.0,2435
5365,5365,16760,1512,2152,16965.11,28.39,-1.00,-1.0,2365
5367,5367,17072,1848,1820,17267.91,28.29,-1.00,-1.0,2433
5370,5370,17052,1692,2488,17315.42,28.29,-1.00,-1.0,2367
5373,5373,16872,1620,2048,17072.88,28.29,-1.00,-1.0,2404
5376,5376,17060,1436,1976,17233.99,28.29,-1.00,-1.0,2420
5378,5378,17120,1368,2220,17317.46,28.34,-1.00,-1.0,2363
5381,5381,16844,1324,1932,17006.06,28.34,-1.00,-1.0,2421
5384,5384,16792,1168,2084,16961.09,28.39,-1.00,-1.0,2376
5389,5389,16984,1636,2216,17205.91,28.34,-1.00,-1.0,2431
5391,5391,16960,1280,2396,17176.17,28.53,-1.00,-1.0,2373
5394,5394,16836,1288,2092,17014.30,28.34,-1.00,-1.0,2416
5397,5397,16912,1372,1960,17080.39,28.39,-1.00,-1.0,2370
5400,5400,17060,1436,2604,17317.23,28.44,-1.00,-1.0,2422
5402,5402,16752,1700,1772,16931.02,28.39,-1.00,-1.0,2368
5405,5405,17068,1716,2732,17370.24,28.44,-1.00,-1.0,2349
5408,5408,17016,1636,2480,17273.42,28.39,-1.00,-1.0,2427
5411,5411,16884,1748,1548,17044.68,28.39,-1.00,-1.0,2368
5416,5416,16924,1448,1940,17096.26,28.34,-1.00,-1.0,2435
5418,5418,16960,1600,2152,17170.69,28.44,-1.00,-1.0,2373
5421,5421,16932,1588,2620,17206.94,28.44,-1.00,-1.0,2417
5424,5424,16940,1492,2368,17169.66,28.29,-1.00,-1.0,2356
5427,5427,16924,1208,2268,17117.97,28.34,-1.00,-1.0,2424
5429,5429,16848,1256,2124,17027.74,28.39,-1.00,-1.0,2368
5432,5432,16924,1416,1804,17078.68,28.34,-1.00,-1.0,2349
5435,5435,16880,1508,2364,17111.31,28.34,-1.00,-1.0,2426
5438,5438,16868,1628,2180,17086.02,28.39,-1.00,-1.0,2374
5443,5443,17028,1352,2244,17228.36,28.34,-1.00,-1.0,2436
5445,5445,16880,1352,2044,17056.97,28.39,-1.00,-1.0,2366
5448,5448,16936,1500,2272,17153.43,28.39,-1.00,-1.0,2414
5451,5451,16920,1520,2424,17160.20,28.29,-1.00,-1.0,2367
5454,5454,16948,1700,2144,17167.45,28.29,-1.00,-1.0,2418
5456,5456,16984,1328,2228,17180.91,28.44,-1.00,-1.0,2367
5459,5459,16872,1424,1888,17036.92,28.34,-1.00,-1.0,2370
5462,5462,16900,1304,2188,17090.87,28.34,-1.00,-1.0,2422
5465,5465,17100,1468,2496,17343.44,28.44,-1.00,-1.0,2374
5470,5470,16964,1488,2056,17152.80,28.25,-1.00,-1.0,2435
5472,5472,16972,1392,2024,17148.85,28.29,-1.00,-1.0,2364
5475,5475,16964,1436,2252,17172.97,28.39,-1.00,-1.0,2414
5478,5478,16848,1400,2148,17041.98,28.39,-1.00,-1.0,2366
5480,5480,16876,1520,2016,17063.82,28.39,-1.00,-1.0,2417
5483,5483,16880,1640,2300,17114.73,28.34,-1.00,-1.0,2367
5486,5486,16992,1512,1924,17167.29,28.34,-1.00,-1.0,2349
5489,5489,16940,1520,2208,17150.78,28.44,-1.00,-1.0,2427
5492,5492,16980,1476,1996,17160.51,28.34,-1.00,-1.0,2368
5497,5497,17012,1392,2168,17205.99,28.34,-1.00,-1.0,2419
5499,5499,16996,1380,2060,17175.91,28.29,-1.00,-1.0,2366
5502,5502,17048,1436,1980,17222.57,28.39,-1.00,-1.0,2416
5505,5505,16896,1488,2288,17115.02,28.29,-1.00,-1.0,2369
5508,5508,16948,1476,2328,17170.70,28.39,-1.00,-1.0,2415
5510,5510,16864,1424,2176,17063.33,28.25,-1.00,-1.0,2375
5513,5513,16888,1416,2348,17109.14,28.39,-1.00,-1.0,2361
5516,5516,16800,1464,2244,17012.31,28.29,-1.00,-1.0,2421
5519,5519,16936,1488,1996,17118.01,28.29,-1.00,-1.0,2370
5524,5524,16964,1524,2080,17158.85,28.25,-1.00,-1.0,2438
5527,5527,16960,1532,2308,17184.75,28.34,-1.00,-1.0,2366
5529,5529,17084,1436,2244,17290.48,28.34,-1.00,-1.0,2416
5532,5532,17000,1376,2204,17197.41,28.39,-1.00,-1.0,2367
5535,5535,16892,1440,2232,17099.56,28.39,-1.00,-1.0,2421
5537,5537,16984,1400,2112,17171.98,28.48,-1.00,-1.0,2371
5540,5540,17024,1408,2204,17223.72,28.39,-1.00,-1.0,2361
5543,5543,17028,1424,2180,17225.94,28.29,-1.00,-1.0,2418
5546,5546,16976,1468,2064,17163.91,28.39,-1.00,-1.0,2371
5551,5551,16920,1504,2160,17123.49,28.34,-1.00,-1.0,2438
5554,5554,16884,1592,2132,17092.38,28.34,-1.00,-1.0,2365
5556,5556,16948,1556,2260,17168.68,28.34,-1.00,-1.0,2419
5559,5559,16916,1476,2008,17098.59,28.39,-1.00,-1.0,2366
5562,5562,16852,1428,2192,17053.85,28.44,-1.00,-1.0,2422
5564,5564,16896,1376,2260,17101.92,28.39,-1.00,-1.0,2367
5567,5567,17132,1492,2260,17344.71,28.34,-1.00,-1.0,2362
5570,5570,16948,1336,2160,17137.25,28.39,-1.00,-1.0,2419
5573,5573,17004,1348,2136,17190.57,28.39,-1.00,-1.0,2368
5578,5578,16964,1320,2072,17140.97,28.29,-1.00,-1.0,2419
5581,5581,16856,1480,2080,17048.21,28.34,-1.00,-1.0,2365
5583,5583,16904,1348,2024,17078.02,28.34,-1.00,-1.0,2419
5586,5586,16924,1576,2032,17118.25,28.48,-1.00,-1.0,2366
5589,5589,16808,1604,2096,17013.96,28.34,-1.00,-1.0,2420
5591,5591,16780,1552,2072,16978.52,28.48,-1.00,-1.0,2367
5594,5594,16860,1552,2172,17070.03,28.34,-1.00,-1.0,2363
5597,5597,16904,1464,2028,17088.04,28.44,-1.00,-1.0,2416
5600,5600,16968,1464,2072,17156.62,28.39,-1.00,-1.0,2367
5605,5605,16952,1544,2196,17163.24,28.29,-1.00,-1.0,2435
5608,5608,16952,1476,2044,17138.46,28.48,-1.00,-1.0,2375
5610,5610,16928,1576,2200,17142.96,28.39,-1.00,-1.0,2424
5613,5613,16972,1532,2136,17174.35,28.29,-1.00,-1.0,2372
5616,5616,16996,1504,2160,17198.59,28.39,-1.00,-1.0,2422
5619,5619,16920,1416,2264,17129.42,28.44,-1.00,-1.0,2367
5621,5621,16864,1584,2080,17065.46,28.39,-1.00,-1.0,2376
5624,5624,16840,1588,2184,17055.12,28.34,-1.00,-1.0,2418
5627,5627,16884,1552,2112,17086.21,28.44,-1.00,-1.0,2366
5632,5632,16940,1504,2152,17142.25,28.29,-1.00,-1.0,2432
5635,5635,16856,1636,2172,17073.92,28.39,-1.00,-1.0,2368
5637,5637,16984,1544,2156,17189.78,28.39,-1.00,-1.0,2417
5640,5640,17028,1500,2052,17216.66,28.48,-1.00,-1.0,2374
5643,5643,16932,1456,2116,17125.71,28.29,-1.00,-1.0,2421
5646,5646,17024,1464,2128,17218.83,28.44,-1.00,-1.0,2367
5648,5648,16916,1460,2104,17108.75,28.39,-1.00,-1.0,2369
5651,5651,17056,1464,2144,17252.45,28.39,-1.00,-1.0,2417
5654,5654,16920,1476,2260,17133.96,28.44,-1.00,-1.0,2367
5659,5659,16896,1480,2088,17088.74,28.48,-1.00,-1.0,2438
5661,5661,16908,1472,2176,17110.88,28.44,-1.00,-1.0,2366
5664,5664,16920,1508,2088,17114.91,28.29,-1.00,-1.0,2419
5667,5667,17016,1524,2020,17203.12,28.34,-1.00,-1.0,2367
5670,5670,17044,1536,2048,17235.18,28.44,-1.00,-1.0,2413
5672,5672,16932,1524,2164,17137.62,28.44,-1.00,-1.0,2371
5675,5675,16984,1344,2148,17171.97,28.29,-1.00,-1.0,2361
5678,5678,16956,1324,2168,17145.24,28.39,-1.00,-1.0,2432
5681,5681,16956,1428,2156,17152.07,28.39,-1.00,-1.0,2375
5686,5686,16904,1408,2024,17082.87,28.39,-1.00,-1.0,2440
5688,5688,16896,1432,2104,17086.61,28.34,-1.00,-1.0,2365
5691,5691,16928,1504,1996,17111.49,28.39,-1.00,-1.0,2420
5694,5694,16944,1488,2016,17128.27,28.44,-1.00,-1.0,2356
5697,5697,16916,1432,2096,17105.41,28.44,-1.00,-1.0,2414
5699,5699,16924,1424,2144,17118.60,28.44,-1.00,-1.0,2374
5702,5702,16872,1496,2040,17060.60,28.39,-1.00,-1.0,2369
5705,5705,16924,1552,2072,17120.86,28.34,-1.00,-1.0,2432
5708,5708,16924,1532,2140,17127.42,28.39,-1.00,-1.0,2374
5713,5713,16956,1484,2092,17148.90,28.39,-1.00,-1.0,2431
5716,5716,17004,1484,2240,17214.99,28.34,-1.00,-1.0,2365
5719,5719,16892,1532,2000,17078.84,28.39,-1.00,-1.0,2414
5721,5721,16884,1468,2148,17083.28,28.44,-1.00,-1.0,2366
5724,5724,16984,1480,2036,17169.51,28.34,-1.00,-1.0,2419
5727,5727,16820,1452,2072,17009.23,28.34,-1.00,-1.0,2368
5729,5729,16932,1536,2148,17136.68,28.34,-1.00,-1.0,2425
5732,5732,16872,1552,2100,17072.88,28.44,-1.00,-1.0,2380
5735,5735,16956,1452,2048,17140.84,28.34,-1.00,-1.0,2426
5740,5740,16952,1472,2148,17150.83,28.34,-1.00,-1.0,2433
5743,5743,16892,1520,2024,17080.59,28.29,-1.00,-1.0,2367
5746,5746,16980,1440,2016,17159.79,28.34,-1.00,-1.0,2424
5748,5748,16896,1448,2144,17092.93,28.34,-1.00,-1.0,2371
5751,5751,16968,1428,1940,17138.14,28.34,-1.00,-1.0,2435
5754,5754,17068,1296,2136,17249.89,28.39,-1.00,-1.0,2363
5757,5757,16952,1468,2020,17134.93,28.44,-1.00,-1.0,2420
5759,5759,16936,1548,2212,17149.85,28.39,-1.00,-1.0,2366
5762,5762,17008,1488,2156,17208.56,28.34,-1.00,-1.0,2369
5767,5767,16964,1532,2108,17162.98,28.44,-1.00,-1.0,2448
5770,5770,16968,1560,2044,17161.72,28.48,-1.00,-1.0,2371
5773,5773,16944,1412,2172,17140.90,28.25,-1.00,-1.0,2414
5775,5775,17004,1428,2196,17204.58,28.39,-1.00,-1.0,2353
5778,5778,16988,1448,2208,17191.98,28.39,-1.00,-1.0,2423
5781,5781,16908,1460,2016,17090.24,28.34,-1.00,-1.0,2367
5783,5783,16916,1468,2080,17106.50,28.39,-1.00,-1.0,2419
5786,5786,16900,1464,2096,17092.29,28.34,-1.00,-1.0,2370
5789,5789,17036,1428,2164,17232.16,28.44,-1.00,-1.0,2364
5794,5794,16972,1528,2024,17160.42,28.34,-1.00,-1.0,2435
5797,5797,16988,1472,2144,17185.91,28.29,-1.00,-1.0,2365
5800,5800,16988,1508,2156,17190.54,28.39,-1.00,-1.0,2421
5802,5802,17048,1504,1948,17224.72,28.29,-1.00,-1.0,2355
5805,5805,16868,1536,2100,17067.47,28.39,-1.00,-1.0,2417
5808,5808,16872,1552,2076,17069.94,28.34,-1.00,-1.0,2371
5811,5811,16904,1524,2308,17128.77,28.39,-1.00,-1.0,2426
5813,5813,16988,1512,2184,17194.42,28.34,-1.00,-1.0,2371
5816,5816,17028,1488,2148,17227.33,28.39,-1.00,-1.0,2361
5821,5821,16928,1576,2236,17147.61,28.34,-1.00,-1.0,2450
5824,5824,17040,1472,2124,17234.84,28.29,-1.00,-1.0,2366
5827,5827,16956,1512,2100,17152.32,28.34,-1.00,-1.0,2420
5829,5829,16940,1440,2220,17145.43,28.39,-1.00,-1.0,2368
5832,5832,17004,1412,2136,17195.71,28.44,-1.00,-1.0,2416
5835,5835,16916,1512,2128,17116.24,28.39,-1.00,-1.0,2366
5837,5837,16908,1536,2044,17100.22,28.39,-1.00,-1.0,2419
5840,5840,16944,1400,2044,17124.17,28.29,-1.00,-1.0,2367
5843,5843,16948,1464,2140,17145.19,28.39,-1.00,-1.0,2361
5848,5848,16884,1508,1960,17064.15,28.39,-1.00,-1.0,2442
5851,5851,16956,1528,2196,17165.75,28.34,-1.00,-1.0,2371
5854,5854,16964,1444,2060,17149.52,28.44,-1.00,-1.0,2427
5856,5856,17028,1500,2096,17221.96,28.44,-1.00,-1.0,2368
5859,5859,16888,1484,2148,17088.61,28.34,-1.00,-1.0,2419
5862,5862,16988,1452,2028,17170.13,28.39,-1.00,-1.0,2366
5865,5865,16900,1480,2196,17106.22,28.44,-1.00,-1.0,2419
5867,5867,16852,1408,2084,17038.64,28.44,-1.00,-1.0,2366
5870,5870,16924,1512,2228,17136.86,28.34,-1.00,-1.0,2362
5875,5875,16976,1472,2176,17178.08,28.34,-1.00,-1.0,2432
5878,5878,16940,1476,2136,17137.81,28.39,-1.00,-1.0,2364
5880,5880,16924,1440,2216,17129.10,28.34,-1.00,-1.0,2410
5883,5883,17020,1392,2200,17217.96,28.29,-1.00,-1.0,2375
5886,5886,16824,1496,2184,17031.00,28.39,-1.00,-1.0,2419
5889,5889,16868,1460,2216,17075.47,28.34,-1.00,-1.0,2367
5891,5891,16968,1576,2176,17179.40,28.39,-1.00,-1.0,2427
5894,5894,16852,1480,2176,17056.24,28.34,-1.00,-1.0,2364
5897,5897,16956,1500,2032,17143.07,28.34,-1.00,-1.0,2362
5902,5902,16916,1580,2176,17128.41,28.34,-1.00,-1.0,2433
5905,5905,17032,1452,2024,17213.19,28.29,-1.00,-1.0,2364
5907,5907,17036,1536,2024,17224.44,28.44,-1.00,-1.0,2412
5910,5910,16956,1500,2256,17171.06,28.39,-1.00,-1.0,2369
5913,5913,16920,1468,2100,17112.90,28.29,-1.00,-1.0,2421
5916,5916,16804,1468,2104,16998.71,28.39,-1.00,-1.0,2368
5918,5918,16816,1516,2148,17020.28,28.29,-1.00,-1.0,2425
5921,5921,16940,1468,2144,17138.12,28.44,-1.00,-1.0,2369
5924,5924,16912,1580,2264,17135.86,28.39,-1.00,-1.0,2432
5929,5929,16980,1536,2080,17175.74,28.39,-1.00,-1.0,2442
5932,5932,16988,1560,2112,17189.71,28.29,-1.00,-1.0,2369
5935,5935,16916,1440,2148,17112.53,28.39,-1.00,-1.0,2423
5937,5937,16996,1532,2004,17182.17,28.44,-1.00,-1.0,2366
5940,5940,16880,1528,2244,17096.92,28.29,-1.00,-1.0,2422
5943,5943,16900,1436,2172,17099.41,28.44,-1.00,-1.0,2366
5946,5946,16908,1488,2112,17104.24,28.25,-1.00,-1.0,2424
5948,5948,16828,1476,2088,17021.16,28.29,-1.00,-1.0,2353
5951,5951,16868,1544,2192,17079.76,28.29,-1.00,-1.0,2366
5956,5956,16976,1552,1976,17160.94,28.34,-1.00,-1.0,2432
5959,5959,16980,1500,2084,17173.04,28.44,-1.00,-1.0,2365
5962,5962,16984,1532,2092,17180.79,28.44,-1.00,-1.0,2416
5964,5964,16932,1556,2120,17135.00,28.29,-1.00,-1.0,2374
5967,5967,16964,1504,2064,17155.16,28.44,-1.00,-1.0,2417
5970,5970,16944,1448,2044,17128.16,28.29,-1.00,-1.0,2370
5973,5973,16948,1500,2028,17134.69,28.29,-1.00,-1.0,2428
5975,5975,16944,1468,2084,17134.68,28.29,-1.00,-1.0,2375
5978,5978,16856,1432,2164,17054.57,28.39,-1.00,-1.0,2369
5983,5983,16984,1492,2056,17172.93,28.39,-1.00,-1.0,2437
5986,5986,16916,1452,2092,17106.60,28.25,-1.00,-1.0,2365
5989,5989,16928,1480,2072,17118.43,28.29,-1.00,-1.0,2427
5991,5991,16996,1452,2020,17177.10,28.34,-1.00,-1.0,2368
5994,5994,16944,1500,2096,17138.91,28.34,-1.00,-1.0,2418
5997,5997,16996,1452,2048,17180.41,28.34,-1.00,-1.0,2366
6000,6000,16908,1492,2004,17091.59,28.34,-1.00,-1.0,2421
6002,6002,16972,1500,2040,17159.85,28.34,-1.00,-1.0,2374
6005,6005,16968,1464,2112,17161.49,28.44,-1.00,-1.0,2370
6010,6010,16916,1396,2100,17102.92,28.39,-1.00,-1.0,2434
6013,6013,16976,1488,2188,17180.98,28.39,-1.00,-1.0,2363
6016,6016,16896,1432,2116,17088.09,28.29,-1.00,-1.0,2422
6018,6018,16872,1492,2100,17067.53,28.34,-1.00,-1.0,2366
6021,6021,16932,1512,2204,17141.66,28.44,-1.00,-1.0,2418
6024,6024,16908,1496,2116,17105.44,28.34,-1.00,-1.0,2366
6027,6027,16872,1508,2068,17065.03,28.34,-1.00,-1.0,2420
6029,6029,16956,1480,2164,17157.48,28.34,-1.00,-1.0,2368
6032,6032,16948,1408,2104,17136.04,28.34,-1.00,-1.0,2369
6037,6037,17068,1340,2160,17256.24,28.44,-1.00,-1.0,2443
6040,6040,16968,1468,1976,17145.63,28.29,-1.00,-1.0,2364
6043,6043,16964,1492,2304,17184.64,28.34,-1.00,-1.0,2423
6045,6045,16884,1420,2116,17075.22,28.39,-1.00,-1.0,2367
6048,6048,16940,1488,2096,17133.91,28.29,-1.00,-1.0,2419
6051,6051,16984,1460,1916,17153.98,28.34,-1.00,-1.0,2366
6054,6054,16916,1492,2044,17104.24,28.39,-1.00,-1.0,2418
6056,6056,16920,1460,2148,17118.17,28.34,-1.00,-1.0,2368
6059,6059,16896,1448,2168,17095.96,28.34,-1.00,-1.0,2364
6064,6064,16852,1576,2020,17045.65,28.34,-1.00,-1.0,2442
6067,6067,16976,1412,2184,17174.05,28.34,-1.00,-1.0,2370
6070,6070,16940,1476,2052,17127.55,28.44,-1.00,-1.0,2423
6073,6073,16924,1464,2228,17132.69,28.29,-1.00,-1.0,2366
6075,6075,16980,1472,2168,17181.02,28.44,-1.00,-1.0,2420
6078,6078,16896,1480,2184,17100.73,28.39,-1.00,-1.0,2367
6081,6081,16892,1480,2028,17077.55,28.39,-1.00,-1.0,2427
6083,6083,16888,1552,2124,17091.65,28.29,-1.00,-1.0,2367
6086,6086,16972,1420,1984,17146.47,28.39,-1.00,-1.0,2362
6093,6093,16964,1500,2124,17162.13,28.39,-1.00,-1.0,2433
6096,6096,16888,1480,2072,17078.88,28.39,-1.00,-1.0,2363
6099,6099,16976,1404,2068,17159.03,28.39,-1.00,-1.0,2414
6101,6101,17052,1448,2124,17244.67,28.44,-1.00,-1.0,2374
6104,6104,16936,1548,2316,17163.57,28.39,-1.00,-1.0,2419
6107,6107,16884,1540,2192,17095.20,28.44,-1.00,-1.0,2369
6110,6110,17044,1464,2032,17227.02,28.34,-1.00,-1.0,2428
6112,6112,16948,1512,2068,17140.52,28.34,-1.00,-1.0,2366
6117,6117,17036,1532,2156,17240.09,28.34,-1.00,-1.0,2443
6120,6120,16976,1512,2032,17163.91,28.34,-1.00,-1.0,2372
6122,6122,16888,1412,2196,17088.61,28.39,-1.00,-1.0,2369
6125,6125,16988,1500,2184,17193.37,28.29,-1.00,-1.0,2417
6128,6128,16944,1580,2168,17155.05,28.34,-1.00,-1.0,2369
6131,6131,16912,1560,1908,17090.63,28.39,-1.00,-1.0,2422
6133,6133,17008,1472,2020,17190.67,28.34,-1.00,-1.0,2368
6136,6136,16936,1472,2232,17145.75,28.44,-1.00,-1.0,2432
6139,6139,16912,1464,2072,17101.23,28.34,-1.00,-1.0,2375
6144,6144,16892,1440,2196,17094.90,28.39,-1.00,-1.0,2434
6146,6146,16888,1528,2124,17089.49,28.29,-1.00,-1.0,2372
6149,6149,16952,1460,2152,17150.31,28.34,-1.00,-1.0,2361
6152,6152,16884,1496,2000,17067.73,28.34,-1.00,-1.0,2424
6154,6154,16956,1436,2000,17133.83,28.39,-1.00,-1.0,2366
6157,6157,16940,1544,2100,17139.36,28.48,-1.00,-1.0,2419
6160,6160,16936,1416,2028,17115.66,28.39,-1.00,-1.0,2353
6163,6163,16924,1536,2104,17123.31,28.39,-1.00,-1.0,2425
6165,6165,16932,1376,2112,17118.60,28.34,-1.00,-1.0,2368
6170,6170,17008,1432,2084,17194.93,28.34,-1.00,-1.0,2435
6173,6173,16964,1564,2092,17163.91,28.29,-1.00,-1.0,2364
6176,6176,17020,1516,2068,17212.07,28.34,-1.00,-1.0,2361
6178,6178,16980,1504,2124,17178.29,28.39,-1.00,-1.0,2429
6181,6181,16924,1420,2220,17127.95,28.44,-1.00,-1.0,2366
6184,6184,16988,1520,2176,17194.11,28.44,-1.00,-1.0,2421
6186,6186,16888,1460,2220,17095.75,28.39,-1.00,-1.0,2366
6189,6189,16852,1452,2240,17062.12,28.44,-1.00,-1.0,2419
6192,6192,16968,1452,2200,17171.53,28.39,-1.00,-1.0,2371
6197,6197,16872,1440,2280,17086.15,28.39,-1.00,-1.0,2439
6200,6200,16968,1456,2116,17161.31,28.34,-1.00,-1.0,2365
6202,6202,16988,1492,2100,17182.21,28.29,-1.00,-1.0,2363
6205,6205,16980,1428,2044,17162.10,28.39,-1.00,-1.0,2417
6208,6208,17044,1504,2180,17248.55,28.29,-1.00,-1.0,2375
6210,6210,16932,1536,2148,17136.68,28.39,-1.00,-1.0,2425
6213,6213,16932,1372,2184,17127.31,28.34,-1.00,-1.0,2365
6216,6216,16960,1500,2084,17153.27,28.48,-1.00,-1.0,2421
6219,6219,16896,1540,2136,17099.97,28.48,-1.00,-1.0,2372
6224,6224,16880,1520,2260,17098.32,28.39,-1.00,-1.0,2433
6226,6226,16968,1524,2012,17154.70,28.34,-1.00,-1.0,2363
6229,6229,16984,1436,2196,17185.48,28.29,-1.00,-1.0,2367
6232,6232,17020,1452,2396,17249.04,28.39,-1.00,-1.0,2432
6234,6234,16952,1356,2312,17162.59,28.44,-1.00,-1.0,2366
6237,6237,16924,1424,2200,17125.70,28.29,-1.00,-1.0,2425
6240,6240,17008,1500,2144,17208.10,28.34,-1.00,-1.0,2365
6243,6243,16952,1460,2124,17146.82,28.44,-1.00,-1.0,2426
6246,6246,16976,1588,2076,17176.03,28.39,-1.00,-1.0,2372
6251,6251,16948,1564,2060,17144.22,28.34,-1.00,-1.0,2440
6253,6253,16912,1464,2268,17126.09,28.44,-1.00,-1.0,2363
6256,6256,16860,1488,2132,17059.28,28.29,-1.00,-1.0,2360
6259,6259,16840,1492,2252,17055.30,28.29,-1.00,-1.0,2425
6261,6261,16844,1496,2060,17035.31,28.34,-1.00,-1.0,2365
6264,6264,16940,1356,2140,17128.40,28.39,-1.00,-1.0,2418
6267,6267,16968,1444,2120,17160.79,28.34,-1.00,-1.0,2353
6270,6270,16932,1516,2176,17138.43,28.34,-1.00,-1.0,2416
6273,6273,16888,1484,2052,17076.81,28.44,-1.00,-1.0,2365
6278,6278,17008,1524,1976,17190.09,28.29,-1.00,-1.0,2433
6280,6280,16916,1436,2092,17105.25,28.34,-1.00,-1.0,2363
6283,6283,16936,1468,2128,17132.18,28.29,-1.00,-1.0,2366
6286,6286,16964,1452,2140,17159.99,28.34,-1.00,-1.0,2427
6288,6288,16956,1472,2096,17148.35,28.39,-1.00,-1.0,2365
6291,6291,16956,1552,2132,17159.84,28.39,-1.00,-1.0,2423
6294,6294,16852,1432,2004,17031.05,28.44,-1.00,-1.0,2366
6297,6297,16952,1472,2096,17144.40,28.34,-1.00,-1.0,2421
6300,6300,16876,1524,2176,17083.82,28.34,-1.00,-1.0,2364
6304,6304,16956,1460,2096,17147.32,28.44,-1.00,-1.0,2433
6307,6307,16948,1504,2196,17155.73,28.34,-1.00,-1.0,2366
6310,6310,16900,1520,2044,17090.88,28.34,-1.00,-1.0,2360
6313,6313,17048,1416,2120,17237.57,28.29,-1.00,-1.0,2418
6315,6315,16944,1400,2088,17129.47,28.44,-1.00,-1.0,2364
6318,6318,16976,1372,2160,17167.78,28.34,-1.00,-1.0,2416
6321,6321,17012,1484,2100,17205.24,28.34,-1.00,-1.0,2366
6324,6324,16884,1428,2192,17085.48,28.39,-1.00,-1.0,2428
6327,6327,16876,1472,2116,17071.72,28.44,-1.00,-1.0,2364
6331,6331,16988,1364,2112,17173.04,28.34,-1.00,-1.0,2432
6334,6334,16932,1392,2180,17128.42,28.44,-1.00,-1.0,2369
6337,6337,16912,1408,2020,17090.31,28.39,-1.00,-1.0,2357
6339,6339,16932,1400,2156,17126.03,28.48,-1.00,-1.0,2418
6342,6342,16864,1404,2132,17056.12,28.44,-1.00,-1.0,2363
6345,6345,16920,1372,2152,17111.40,28.44,-1.00,-1.0,2418
6348,6348,16916,1368,1972,17085.41,28.48,-1.00,-1.0,2366
6351,6351,16948,1424,2132,17140.83,28.39,-1.00,-1.0,2427
6354,6354,16872,1452,2088,17062.60,28.39,-1.00,-1.0,2364
