timestamp_ms,global_ms,accel_x,accel_y,accel_z,accel_mag,temp_c,voltage,soc,loop_us
2,2135002,17156,-476,436,17168.14,27.73,-1.00,-1.0,2481
5,2135005,17044,-488,640,17062.99,27.68,-1.00,-1.0,2364
8,2135008,17072,-416,504,17084.50,27.68,-1.00,-1.0,2371
11,2135011,17120,-492,564,17136.35,27.78,-1.00,-1.0,2363
14,2135014,17016,-448,604,17032.61,27.78,-1.00,-1.0,2371
17,2135017,17064,-412,620,17080.23,27.68,-1.00,-1.0,2366
20,2135020,17184,-464,468,17196.63,27.64,-1.00,-1.0,2370
23,2135023,17204,-460,620,17221.31,27.73,-1.00,-1.0,2363
26,2135026,17068,-368,600,17082.51,27.73,-1.00,-1.0,2369
29,2135029,17088,-564,528,17105.46,27.64,-1.00,-1.0,2363
32,2135032,17140,-500,580,17157.10,27.82,-1.00,-1.0,2369
35,2135035,17084,-444,556,17098.81,27.73,-1.00,-1.0,2363
38,2135038,17080,-480,460,17092.93,27.73,-1.00,-1.0,2369
41,2135041,17108,-464,548,17123.06,27.73,-1.00,-1.0,2364
44,2135044,17148,-484,564,17164.10,27.73,-1.00,-1.0,2364
47,2135047,17148,-444,616,17164.80,27.73,-1.00,-1.0,2363
50,2135050,17192,-536,664,17213.17,27.73,-1.00,-1.0,2369
53,2135053,17136,-448,648,17154.10,27.73,-1.00,-1.0,2363
56,2135056,17156,-340,452,17165.32,27.73,-1.00,-1.0,2364
59,2135059,17088,-520,404,17100.68,27.73,-1.00,-1.0,2359
62,2135062,17156,-440,516,17169.40,27.64,-1.00,-1.0,2364
65,2135065,17108,-360,512,17119.45,27.73,-1.00,-1.0,2358
68,2135068,17036,-432,556,17050.54,27.73,-1.00,-1.0,2349
71,2135071,17172,-412,604,17187.56,27.64,-1.00,-1.0,2343
74,2135074,17088,-396,500,17099.90,27.73,-1.00,-1.0,2364
77,2135077,17108,-420,424,17118.41,27.73,-1.00,-1.0,2358
80,2135080,17076,-464,524,17090.34,27.64,-1.00,-1.0,2364
83,2135083,17136,-404,624,17152.12,27.82,-1.00,-1.0,2359
86,2135086,17048,-468,660,17067.19,27.64,-1.00,-1.0,2361
89,2135089,17128,-468,564,17143.67,27.73,-1.00,-1.0,2356
92,2135092,17184,-508,536,17199.86,27.78,-1.00,-1.0,2362
95,2135095,17056,-384,568,17069.78,27.68,-1.00,-1.0,2355
98,2135098,17148,-480,632,17166.36,27.78,-1.00,-1.0,2361
101,2135101,16996,-560,564,17014.57,27.68,-1.00,-1.0,2355
104,2135104,17060,-472,644,17078.67,27.78,-1.00,-1.0,2361
107,2135107,17056,-428,444,17067.15,27.68,-1.00,-1.0,2356
110,2135110,17140,-508,580,17157.33,27.78,-1.00,-1.0,2361
113,2135113,17072,-444,536,17086.18,27.78,-1.00,-1.0,2356
116,2135116,17128,-452,492,17141.03,27.68,-1.00,-1.0,2361
119,2135119,17192,-480,536,17207.05,27.78,-1.00,-1.0,2355
122,2135122,17112,-444,608,17128.55,27.78,-1.00,-1.0,2361
125,2135125,17064,-516,568,17081.25,27.68,-1.00,-1.0,2355
128,2135128,17024,-372,632,17039.79,27.78,-1.00,-1.0,2361
131,2135131,17044,-484,424,17056.14,27.68,-1.00,-1.0,2355
134,2135134,17084,-532,464,17098.58,27.78,-1.00,-1.0,2361
137,2135137,17136,-348,408,17144.39,27.68,-1.00,-1.0,2355
140,2135140,16956,-408,660,16973.74,27.68,-1.00,-1.0,2361
143,2135143,17156,-368,512,17167.58,27.68,-1.00,-1.0,2356
146,2135146,17172,-412,528,17185.05,27.68,-1.00,-1.0,2362
149,2135149,17048,-576,560,17066.92,27.68,-1.00,-1.0,2356
152,2135152,17148,-428,600,17163.83,27.68,-1.00,-1.0,2349
155,2135155,17140,-504,676,17160.73,27.78,-1.00,-1.0,2342
158,2135158,17076,-396,472,17087.11,27.82,-1.00,-1.0,2362
161,2135161,17148,-424,776,17170.79,27.64,-1.00,-1.0,2355
164,2135164,17152,-536,420,17165.51,27.73,-1.00,-1.0,2362
167,2135167,17044,-560,548,17062.00,27.64,-1.00,-1.0,2356
170,2135170,17072,-452,520,17085.90,27.73,-1.00,-1.0,2363
173,2135173,17132,-456,504,17145.48,27.73,-1.00,-1.0,2355
176,2135176,17096,-484,632,17114.52,27.64,-1.00,-1.0,2362
179,2135179,17064,-472,468,17076.94,27.73,-1.00,-1.0,2359
182,2135182,17080,-476,572,17096.20,27.73,-1.00,-1.0,2361
185,2135185,17160,-496,432,17172.60,27.82,-1.00,-1.0,2356
188,2135188,17176,-404,568,17190.14,27.73,-1.00,-1.0,2361
191,2135191,17096,-448,452,17107.84,27.82,-1.00,-1.0,2356
195,2135195,17052,-496,684,17072.92,27.64,-1.00,-1.0,2361
197,2135197,17124,-404,468,17135.16,27.73,-1.00,-1.0,2356
201,2135201,17108,-476,512,17122.28,27.64,-1.00,-1.0,2361
204,2135204,17048,-500,636,17067.19,27.64,-1.00,-1.0,2355
207,2135207,17076,-424,696,17095.44,27.73,-1.00,-1.0,2362
210,2135210,17104,-488,564,17120.25,27.73,-1.00,-1.0,2356
225,2135225,17140,-460,644,17158.26,27.73,-1.00,-1.0,2472
228,2135228,17220,-492,568,17236.39,27.59,-1.00,-1.0,2366
230,2135230,17080,-424,580,17095.10,27.68,-1.00,-1.0,2367
233,2135233,17096,-432,596,17111.84,27.73,-1.00,-1.0,2355
235,2135235,17148,-440,548,17162.39,27.64,-1.00,-1.0,2360
238,2135238,17036,-504,632,17055.17,27.64,-1.00,-1.0,2362
241,2135241,17056,-436,580,17071.43,27.68,-1.00,-1.0,2363
243,2135243,17124,-512,704,17146.11,27.73,-1.00,-1.0,2355
246,2135246,17148,-456,692,17168.01,27.73,-1.00,-1.0,2361
248,2135248,17112,-432,664,17130.33,27.64,-1.00,-1.0,2357
251,2135251,17076,-452,748,17098.35,27.68,-1.00,-1.0,2363
253,2135253,17164,-472,536,17178.85,27.78,-1.00,-1.0,2357
256,2135256,17080,-432,572,17095.04,27.73,-1.00,-1.0,2361
258,2135258,17140,-444,636,17157.54,27.73,-1.00,-1.0,2354
261,2135261,17088,-452,632,17105.66,27.73,-1.00,-1.0,2368
264,2135264,17088,-432,696,17107.62,27.78,-1.00,-1.0,2355
266,2135266,17044,-468,580,17060.29,27.73,-1.00,-1.0,2360
269,2135269,17108,-428,544,17122.00,27.73,-1.00,-1.0,2354
271,2135271,17072,-584,592,17092.24,27.78,-1.00,-1.0,2361
274,2135274,17124,-504,732,17147.05,27.68,-1.00,-1.0,2349
276,2135276,17152,-452,584,17167.89,27.68,-1.00,-1.0,2368
279,2135279,17096,-512,540,17112.19,27.73,-1.00,-1.0,2356
281,2135281,17080,-524,556,17097.08,27.64,-1.00,-1.0,2347
284,2135284,17116,-408,572,17130.41,27.64,-1.00,-1.0,2355
287,2135287,17136,-444,492,17148.81,27.59,-1.00,-1.0,2364
289,2135289,17056,-484,540,17071.41,27.64,-1.00,-1.0,2355
292,2135292,17088,-444,632,17105.45,27.73,-1.00,-1.0,2361
294,2135294,17088,-428,648,17105.64,27.78,-1.00,-1.0,2356
297,2135297,17064,-388,564,17077.73,27.68,-1.00,-1.0,2367
300,2135300,17164,-564,596,17183.60,27.73,-1.00,-1.0,2357
303,2135303,17176,-432,644,17193.50,27.73,-1.00,-1.0,2363
306,2135306,17068,-464,756,17091.04,27.73,-1.00,-1.0,2357
309,2135309,17052,-436,616,17068.69,27.73,-1.00,-1.0,2360
312,2135312,17092,-488,584,17108.94,27.64,-1.00,-1.0,2355
315,2135315,17072,-452,412,17082.95,27.73,-1.00,-1.0,2360
318,2135318,17132,-480,608,17149.50,27.64,-1.00,-1.0,2354
321,2135321,17096,-448,536,17110.27,27.64,-1.00,-1.0,2360
324,2135324,17160,-528,648,17180.35,27.64,-1.00,-1.0,2354
327,2135327,17164,-488,500,17178.21,27.73,-1.00,-1.0,2361
330,2135330,17048,-512,332,17058.92,27.64,-1.00,-1.0,2355
333,2135333,17060,-512,424,17072.95,27.73,-1.00,-1.0,2361
336,2135336,17116,-404,644,17132.88,27.73,-1.00,-1.0,2354
339,2135339,17056,-492,536,17071.51,27.64,-1.00,-1.0,2402
342,2135342,17044,-484,540,17059.42,27.73,-1.00,-1.0,2353
345,2135345,17060,-456,592,17076.36,27.73,-1.00,-1.0,2359
348,2135348,17112,-456,608,17128.87,27.73,-1.00,-1.0,2353
351,2135351,17072,-424,508,17084.82,27.73,-1.00,-1.0,2360
354,2135354,17200,-376,564,17213.35,27.73,-1.00,-1.0,2356
357,2135357,17064,-372,528,17076.22,27.73,-1.00,-1.0,2360
360,2135360,17052,-584,528,17070.17,27.64,-1.00,-1.0,2353
363,2135363,17104,-408,532,17117.13,27.59,-1.00,-1.0,2360
366,2135366,17108,-472,656,17127.08,27.68,-1.00,-1.0,2354
369,2135369,17008,-472,632,17026.28,27.68,-1.00,-1.0,2359
372,2135372,17000,-444,688,17019.71,27.59,-1.00,-1.0,2354
375,2135375,17076,-432,632,17093.15,27.68,-1.00,-1.0,2359
378,2135378,17048,-428,564,17062.70,27.68,-1.00,-1.0,2353
381,2135381,17072,-548,600,17091.33,27.78,-1.00,-1.0,2359
384,2135384,17128,-464,656,17146.84,27.68,-1.00,-1.0,2353
387,2135387,17160,-400,596,17175.01,27.78,-1.00,-1.0,2359
390,2135390,17208,-388,616,17223.39,27.78,-1.00,-1.0,2353
393,2135393,17176,-404,624,17192.08,27.59,-1.00,-1.0,2360
396,2135396,17036,-452,712,17056.86,27.68,-1.00,-1.0,2354
399,2135399,17144,-484,628,17162.32,27.68,-1.00,-1.0,2366
402,2135402,17112,-456,444,17123.83,27.68,-1.00,-1.0,2361
405,2135405,17060,-472,716,17081.54,27.68,-1.00,-1.0,2366
408,2135408,17208,-508,592,17225.67,27.68,-1.00,-1.0,2361
411,2135411,17108,-408,700,17127.18,27.68,-1.00,-1.0,2367
414,2135414,17088,-424,544,17101.91,27.78,-1.00,-1.0,2360
417,2135417,17060,-524,540,17076.59,27.78,-1.00,-1.0,2366
420,2135420,17080,-556,540,17097.58,27.68,-1.00,-1.0,2361
423,2135423,17088,-448,508,17101.42,27.68,-1.00,-1.0,2367
435,2135435,17140,-416,496,17152.22,27.73,-1.00,-1.0,2458
437,2135437,17100,-460,692,17120.18,27.68,-1.00,-1.0,2371
440,2135440,17092,-468,500,17105.71,27.73,-1.00,-1.0,2368
443,2135443,17104,-424,656,17121.83,27.68,-1.00,-1.0,2361
445,2135445,17068,-396,676,17085.97,27.68,-1.00,-1.0,2359
448,2135448,16964,-512,472,16978.29,27.82,-1.00,-1.0,2366
450,2135450,17108,-464,624,17125.66,27.64,-1.00,-1.0,2368
453,2135453,17076,-424,468,17087.67,27.73,-1.00,-1.0,2360
455,2135455,17148,-408,544,17161.48,27.68,-1.00,-1.0,2359
458,2135458,17152,-376,688,17169.91,27.73,-1.00,-1.0,2359
461,2135461,17136,-480,516,17150.49,27.73,-1.00,-1.0,2364
463,2135463,16952,-444,652,16970.34,27.68,-1.00,-1.0,2359
466,2135466,17080,-464,676,17099.67,27.78,-1.00,-1.0,2359
468,2135468,17052,-336,604,17066.00,27.82,-1.00,-1.0,2360
471,2135471,17120,-476,432,17132.06,27.73,-1.00,-1.0,2363
473,2135473,17192,-556,552,17209.84,27.78,-1.00,-1.0,2360
476,2135476,17048,-548,532,17065.10,27.73,-1.00,-1.0,2359
479,2135479,17152,-420,480,17163.86,27.64,-1.00,-1.0,2358
481,2135481,17116,-472,504,17129.92,27.68,-1.00,-1.0,2366
484,2135484,17040,-488,616,17058.11,27.68,-1.00,-1.0,2359
486,2135486,17100,-452,492,17113.05,27.73,-1.00,-1.0,2359
489,2135489,17112,-496,580,17129.01,27.73,-1.00,-1.0,2361
492,2135492,17116,-464,580,17132.11,27.64,-1.00,-1.0,2367
495,2135495,17088,-420,556,17102.20,27.73,-1.00,-1.0,2362
498,2135498,17076,-520,468,17090.32,27.64,-1.00,-1.0,2362
501,2135501,17108,-488,644,17127.07,27.73,-1.00,-1.0,2365
504,2135504,17136,-528,508,17151.66,27.73,-1.00,-1.0,2353
507,2135507,17012,-416,536,17025.53,27.73,-1.00,-1.0,2347
510,2135510,17120,-500,516,17135.07,27.73,-1.00,-1.0,2364
513,2135513,17092,-528,524,17108.18,27.73,-1.00,-1.0,2362
516,2135516,17080,-396,652,17097.03,27.73,-1.00,-1.0,2361
519,2135519,17132,-508,532,17147.79,27.68,-1.00,-1.0,2363
522,2135522,17136,-496,620,17154.38,27.87,-1.00,-1.0,2360
525,2135525,17052,-420,536,17065.59,27.78,-1.00,-1.0,2359
528,2135528,17000,-516,620,17019.13,27.68,-1.00,-1.0,2360
531,2135531,17084,-384,424,17093.57,27.68,-1.00,-1.0,2359
534,2135534,17084,-484,672,17104.06,27.68,-1.00,-1.0,2359
537,2135537,17200,-476,608,17217.32,27.59,-1.00,-1.0,2347
540,2135540,17152,-424,648,17169.47,27.68,-1.00,-1.0,2362
543,2135543,17116,-476,588,17132.71,27.68,-1.00,-1.0,2361
546,2135546,17104,-484,556,17119.88,27.78,-1.00,-1.0,2362
549,2135549,17144,-536,704,17166.82,27.68,-1.00,-1.0,2360
552,2135552,17080,-500,596,17097.71,27.68,-1.00,-1.0,2360
555,2135555,17136,-372,508,17147.56,27.68,-1.00,-1.0,2360
558,2135558,17080,-456,504,17093.52,27.59,-1.00,-1.0,2362
561,2135561,17024,-424,608,17040.13,27.73,-1.00,-1.0,2362
564,2135564,17132,-444,560,17146.90,27.73,-1.00,-1.0,2359
567,2135567,17100,-456,556,17115.11,27.64,-1.00,-1.0,2363
570,2135570,17064,-452,652,17082.43,27.64,-1.00,-1.0,2360
573,2135573,17036,-448,588,17052.03,27.64,-1.00,-1.0,2360
576,2135576,17116,-472,672,17135.69,27.64,-1.00,-1.0,2362
579,2135579,17140,-508,540,17156.03,27.73,-1.00,-1.0,2361
582,2135582,17104,-432,464,17115.75,27.64,-1.00,-1.0,2359
585,2135585,17056,-424,608,17072.10,27.73,-1.00,-1.0,2359
588,2135588,17204,-352,552,17216.45,27.73,-1.00,-1.0,2359
591,2135591,17096,-364,520,17107.78,27.73,-1.00,-1.0,2349
594,2135594,17060,-420,660,17077.93,27.73,-1.00,-1.0,2347
597,2135597,17148,-524,564,17165.27,27.73,-1.00,-1.0,2360
600,2135600,17164,-408,520,17176.72,27.64,-1.00,-1.0,2359
603,2135603,17080,-460,472,17092.71,27.73,-1.00,-1.0,2359
606,2135606,17096,-492,544,17111.73,27.73,-1.00,-1.0,2359
609,2135609,17052,-408,748,17073.27,27.73,-1.00,-1.0,2358
612,2135612,17192,-396,644,17208.62,27.82,-1.00,-1.0,2363
615,2135615,17092,-424,484,17104.11,27.64,-1.00,-1.0,2360
618,2135618,17124,-448,476,17136.47,27.73,-1.00,-1.0,2359
621,2135621,17008,-476,640,17026.69,27.73,-1.00,-1.0,2359
624,2135624,17080,-404,544,17093.44,27.73,-1.00,-1.0,2359
627,2135627,17144,-444,544,17158.38,27.73,-1.00,-1.0,2360
630,2135630,17116,-484,508,17130.38,27.78,-1.00,-1.0,2405
633,2135633,17136,-484,628,17154.33,27.78,-1.00,-1.0,2378
636,2135636,17024,-432,784,17047.52,27.68,-1.00,-1.0,2356
648,2135648,17080,-468,484,17093.26,27.68,-1.00,-1.0,2451
651,2135651,17096,-344,672,17112.66,27.64,-1.00,-1.0,2370
653,2135653,17084,-428,528,17097.52,27.78,-1.00,-1.0,2357
656,2135656,17144,-448,660,17162.55,27.73,-1.00,-1.0,2367
658,2135658,17040,-440,576,17055.41,27.73,-1.00,-1.0,2364
661,2135661,17152,-536,560,17169.51,27.68,-1.00,-1.0,2359
663,2135663,17196,-408,640,17212.74,27.78,-1.00,-1.0,2355
666,2135666,17052,-488,604,17069.67,27.73,-1.00,-1.0,2367
669,2135669,17164,-488,604,17181.56,27.73,-1.00,-1.0,2356
671,2135671,17048,-428,480,17060.12,27.78,-1.00,-1.0,2358
674,2135674,17040,-384,504,17051.78,27.64,-1.00,-1.0,2391
676,2135676,17060,-444,576,17075.49,27.68,-1.00,-1.0,2361
679,2135679,17044,-472,320,17053.54,27.68,-1.00,-1.0,2359
682,2135682,17168,-404,552,17181.62,27.73,-1.00,-1.0,2363
684,2135684,17076,-476,740,17098.65,27.73,-1.00,-1.0,2359
687,2135687,17176,-508,600,17193.98,27.68,-1.00,-1.0,2359
689,2135689,17128,-632,616,17150.72,27.73,-1.00,-1.0,2361
692,2135692,17132,-484,604,17149.47,27.73,-1.00,-1.0,2361
694,2135694,17020,-452,616,17037.14,27.68,-1.00,-1.0,2362
697,2135697,17116,-420,496,17128.34,27.68,-1.00,-1.0,2359
700,2135700,17160,-364,636,17175.64,27.82,-1.00,-1.0,2360
702,2135702,17088,-428,540,17101.89,27.73,-1.00,-1.0,2367
705,2135705,17056,-464,580,17072.17,27.64,-1.00,-1.0,2367
708,2135708,17224,-532,584,17242.11,27.82,-1.00,-1.0,2367
711,2135711,17128,-464,600,17144.79,27.73,-1.00,-1.0,2366
714,2135714,17040,-472,676,17059.93,27.73,-1.00,-1.0,2367
717,2135717,17132,-408,536,17145.24,27.64,-1.00,-1.0,2367
720,2135720,16976,-476,524,16990.75,27.64,-1.00,-1.0,2367
723,2135723,17100,-640,512,17119.63,27.73,-1.00,-1.0,2367
726,2135726,17116,-464,684,17135.95,27.64,-1.00,-1.0,2366
729,2135729,17180,-424,500,17192.50,27.64,-1.00,-1.0,2367
732,2135732,17108,-516,640,17127.74,27.64,-1.00,-1.0,2367
735,2135735,17084,-464,556,17099.34,27.64,-1.00,-1.0,2374
738,2135738,17044,-456,588,17060.23,27.73,-1.00,-1.0,2375
741,2135741,17128,-396,600,17143.08,27.73,-1.00,-1.0,2374
744,2135744,17096,-520,516,17111.69,27.73,-1.00,-1.0,2374
747,2135747,17128,-488,468,17141.34,27.73,-1.00,-1.0,2375
750,2135750,17168,-520,600,17186.35,27.73,-1.00,-1.0,2374
753,2135753,17040,-484,544,17055.55,27.73,-1.00,-1.0,2374
756,2135756,17040,-444,536,17054.21,27.78,-1.00,-1.0,2367
759,2135759,17136,-544,484,17151.46,27.68,-1.00,-1.0,2367
762,2135762,17104,-484,532,17119.12,27.68,-1.00,-1.0,2367
765,2135765,17148,-480,528,17162.84,27.68,-1.00,-1.0,2367
768,2135768,17116,-436,628,17133.07,27.59,-1.00,-1.0,2367
771,2135771,17180,-568,632,17201.00,27.68,-1.00,-1.0,2366
774,2135774,17064,-320,640,17079.00,27.78,-1.00,-1.0,2367
777,2135777,17060,-512,676,17081.06,27.68,-1.00,-1.0,2366
780,2135780,17172,-380,604,17186.82,27.68,-1.00,-1.0,2362
783,2135783,17076,-444,668,17094.83,27.59,-1.00,-1.0,2362
786,2135786,17072,-432,476,17084.10,27.68,-1.00,-1.0,2362
789,2135789,17020,-384,700,17038.72,27.68,-1.00,-1.0,2362
792,2135792,17156,-512,500,17170.92,27.68,-1.00,-1.0,2348
795,2135795,17068,-400,552,17081.61,27.78,-1.00,-1.0,2346
798,2135798,17132,-392,564,17145.76,27.78,-1.00,-1.0,2362
801,2135801,17108,-408,340,17116.24,27.68,-1.00,-1.0,2362
804,2135804,17096,-456,576,17111.78,27.78,-1.00,-1.0,2359
807,2135807,17112,-432,708,17132.09,27.78,-1.00,-1.0,2361
810,2135810,17124,-488,520,17138.84,27.68,-1.00,-1.0,2359
813,2135813,17056,-472,588,17072.66,27.68,-1.00,-1.0,2359
816,2135816,17076,-496,444,17088.97,27.68,-1.00,-1.0,2360
819,2135819,17040,-420,572,17054.77,27.68,-1.00,-1.0,2359
822,2135822,16992,-364,572,17005.52,27.68,-1.00,-1.0,2360
825,2135825,17176,-512,684,17197.24,27.68,-1.00,-1.0,2359
828,2135828,17188,-536,540,17204.83,27.68,-1.00,-1.0,2359
831,2135831,17096,-416,528,17109.21,27.68,-1.00,-1.0,2359
834,2135834,17104,-436,616,17120.64,27.73,-1.00,-1.0,2359
837,2135837,17104,-440,464,17115.95,27.64,-1.00,-1.0,2359
840,2135840,17172,-516,620,17190.94,27.64,-1.00,-1.0,2359
843,2135843,17108,-376,580,17121.96,27.73,-1.00,-1.0,2360
846,2135846,17056,-512,528,17071.85,27.73,-1.00,-1.0,2359
858,2135858,17048,-456,468,17060.52,27.73,-1.00,-1.0,2456
861,2135861,17076,-488,620,17094.22,27.73,-1.00,-1.0,2372
863,2135863,17096,-492,556,17112.11,27.82,-1.00,-1.0,2361
866,2135866,17080,-436,472,17092.08,27.68,-1.00,-1.0,2359
869,2135869,17120,-468,596,17136.76,27.78,-1.00,-1.0,2364
871,2135871,17192,-408,624,17208.16,27.73,-1.00,-1.0,2359
874,2135874,17044,-392,564,17057.83,27.64,-1.00,-1.0,2367
876,2135876,17160,-520,556,17176.88,27.78,-1.00,-1.0,2360
879,2135879,17088,-404,576,17102.48,27.68,-1.00,-1.0,2359
881,2135881,17064,-408,392,17073.38,27.73,-1.00,-1.0,2360
884,2135884,17068,-368,624,17083.37,27.73,-1.00,-1.0,2363
887,2135887,17124,-400,500,17135.97,27.78,-1.00,-1.0,2360
889,2135889,17116,-484,632,17134.50,27.73,-1.00,-1.0,2362
892,2135892,17080,-508,592,17097.80,27.73,-1.00,-1.0,2360
894,2135894,17068,-440,460,17079.87,27.68,-1.00,-1.0,2360
897,2135897,17192,-516,680,17213.18,27.78,-1.00,-1.0,2366
899,2135899,17132,-396,612,17147.50,27.64,-1.00,-1.0,2367
902,2135902,17008,-468,680,17028.02,27.82,-1.00,-1.0,2360
904,2135904,17048,-396,540,17061.15,27.64,-1.00,-1.0,2359
907,2135907,17052,-396,652,17069.05,27.78,-1.00,-1.0,2375
910,2135910,17120,-484,652,17139.25,27.73,-1.00,-1.0,2360
912,2135912,17096,-428,496,17108.55,27.68,-1.00,-1.0,2359
915,2135915,17060,-356,528,17071.88,27.68,-1.00,-1.0,2359
918,2135918,17212,-424,596,17227.54,27.68,-1.00,-1.0,2359
921,2135921,17124,-412,520,17136.85,27.78,-1.00,-1.0,2359
924,2135924,17036,-432,580,17051.34,27.68,-1.00,-1.0,2363
927,2135927,17004,-408,564,17018.24,27.68,-1.00,-1.0,2362
930,2135930,17072,-512,676,17093.05,27.68,-1.00,-1.0,2361
933,2135933,17076,-504,472,17089.96,27.68,-1.00,-1.0,2361
936,2135936,17044,-456,480,17056.85,27.68,-1.00,-1.0,2361
939,2135939,17200,-432,588,17215.47,27.78,-1.00,-1.0,2360
942,2135942,17136,-428,604,17151.98,27.68,-1.00,-1.0,2363
945,2135945,17092,-428,572,17106.92,27.68,-1.00,-1.0,2360
948,2135948,16964,-540,576,16982.36,27.68,-1.00,-1.0,2360
951,2135951,17156,-408,512,17168.49,27.68,-1.00,-1.0,2359
954,2135954,17088,-540,676,17109.89,27.59,-1.00,-1.0,2361
957,2135957,17112,-508,528,17127.68,27.68,-1.00,-1.0,2362
960,2135960,17180,-400,624,17195.98,27.68,-1.00,-1.0,2363
963,2135963,17044,-388,724,17063.78,27.78,-1.00,-1.0,2360
966,2135966,17136,-384,668,17153.31,27.64,-1.00,-1.0,2362
969,2135969,17152,-452,512,17165.59,27.73,-1.00,-1.0,2364
972,2135972,17080,-408,572,17094.45,27.64,-1.00,-1.0,2361
975,2135975,17084,-456,600,17100.61,27.73,-1.00,-1.0,2365
978,2135978,17060,-436,420,17070.74,27.73,-1.00,-1.0,2363
981,2135981,17060,-464,672,17079.53,27.73,-1.00,-1.0,2364
984,2135984,17164,-484,536,17179.19,27.82,-1.00,-1.0,2362
987,2135987,17104,-444,608,17120.56,27.73,-1.00,-1.0,2360
990,2135990,17100,-504,532,17115.70,27.73,-1.00,-1.0,2360
993,2135993,17036,-512,540,17052.24,27.73,-1.00,-1.0,2369
996,2135996,16988,-400,520,17000.66,27.73,-1.00,-1.0,2369
999,2135999,17148,-440,512,17161.28,27.73,-1.00,-1.0,2370
1002,2136002,17140,-408,428,17150.20,27.73,-1.00,-1.0,2369
1005,2136005,16980,-440,556,16994.80,27.73,-1.00,-1.0,2368
1008,2136008,17168,-516,476,17182.35,27.73,-1.00,-1.0,2370
1011,2136011,17152,-496,596,17169.52,27.73,-1.00,-1.0,2368
1014,2136014,17132,-472,624,17149.86,27.64,-1.00,-1.0,2368
1017,2136017,17104,-444,652,17122.18,27.73,-1.00,-1.0,2369
1020,2136020,17028,-492,536,17043.54,27.82,-1.00,-1.0,2368
1023,2136023,17088,-412,468,17099.37,27.73,-1.00,-1.0,2367
1026,2136026,17048,-344,624,17062.88,27.82,-1.00,-1.0,2367
1029,2136029,17172,-400,624,17187.99,27.73,-1.00,-1.0,2367
1032,2136032,17052,-356,624,17067.13,27.73,-1.00,-1.0,2365
1035,2136035,17140,-448,580,17155.66,27.64,-1.00,-1.0,2367
1038,2136038,17136,-528,492,17151.19,27.82,-1.00,-1.0,2367
1041,2136041,17064,-468,604,17081.10,27.73,-1.00,-1.0,2367
1044,2136044,17124,-432,616,17140.52,27.73,-1.00,-1.0,2367
1047,2136047,17100,-356,632,17115.38,27.64,-1.00,-1.0,2366
1050,2136050,17200,-452,488,17212.86,27.64,-1.00,-1.0,2367
1053,2136053,17072,-344,628,17087.01,27.68,-1.00,-1.0,2367
1056,2136056,17120,-552,676,17142.23,27.68,-1.00,-1.0,2362
1068,2136068,17116,-472,448,17128.37,27.73,-1.00,-1.0,2453
1071,2136071,17020,-468,580,17036.31,27.73,-1.00,-1.0,2376
1074,2136074,17020,-396,684,17038.34,27.59,-1.00,-1.0,2361
1076,2136076,17040,-352,544,17052.31,27.68,-1.00,-1.0,2346
1079,2136079,17080,-412,600,17095.50,27.64,-1.00,-1.0,2362
1081,2136081,17124,-492,552,17139.96,27.73,-1.00,-1.0,2370
1084,2136084,17120,-512,624,17139.02,27.68,-1.00,-1.0,2362
1086,2136086,17112,-528,704,17134.61,27.73,-1.00,-1.0,2360
1089,2136089,17116,-376,616,17131.21,27.64,-1.00,-1.0,2359
1092,2136092,17108,-412,460,17119.14,27.78,-1.00,-1.0,2361
1094,2136094,17200,-412,516,17212.67,27.78,-1.00,-1.0,2359
1097,2136097,17156,-532,596,17174.59,27.73,-1.00,-1.0,2367
1099,2136099,17000,-392,564,17013.87,27.64,-1.00,-1.0,2362
1102,2136102,17112,-432,736,17133.27,27.68,-1.00,-1.0,2359
1104,2136104,17092,-456,500,17105.39,27.68,-1.00,-1.0,2359
1107,2136107,17220,-536,552,17237.18,27.73,-1.00,-1.0,2359
1110,2136110,17152,-372,444,17161.78,27.78,-1.00,-1.0,2360
1112,2136112,17104,-580,612,17124.77,27.68,-1.00,-1.0,2362
1115,2136115,17104,-476,488,17117.58,27.73,-1.00,-1.0,2360
1117,2136117,17112,-472,484,17125.35,27.64,-1.00,-1.0,2362
1120,2136120,17164,-556,464,17179.27,27.78,-1.00,-1.0,2362
1122,2136122,17064,-404,684,17082.48,27.73,-1.00,-1.0,2360
1125,2136125,17184,-360,564,17197.02,27.73,-1.00,-1.0,2360
1128,2136128,17064,-400,484,17075.55,27.64,-1.00,-1.0,2359
1131,2136131,17144,-420,512,17156.79,27.82,-1.00,-1.0,2360
1134,2136134,17104,-460,548,17118.96,27.64,-1.00,-1.0,2359
1137,2136137,17020,-388,584,17034.44,27.73,-1.00,-1.0,2360
1140,2136140,17080,-436,632,17097.25,27.73,-1.00,-1.0,2359
1143,2136143,17104,-520,468,17118.30,27.64,-1.00,-1.0,2359
1146,2136146,17052,-392,512,17064.19,27.73,-1.00,-1.0,2360
1149,2136149,17108,-508,620,17126.77,27.73,-1.00,-1.0,2359
1152,2136152,17264,-412,684,17282.46,27.73,-1.00,-1.0,2359
1155,2136155,17120,-392,636,17136.29,27.73,-1.00,-1.0,2347
1158,2136158,17140,-408,712,17159.63,27.73,-1.00,-1.0,2346
1161,2136161,17092,-468,572,17107.97,27.64,-1.00,-1.0,2359
1164,2136164,17112,-460,604,17128.83,27.73,-1.00,-1.0,2359
1167,2136167,17168,-396,552,17181.44,27.68,-1.00,-1.0,2359
1170,2136170,17016,-452,592,17032.29,27.78,-1.00,-1.0,2359
1173,2136173,17112,-504,444,17125.18,27.68,-1.00,-1.0,2360
1176,2136176,17108,-356,696,17125.85,27.68,-1.00,-1.0,2358
1179,2136179,17092,-420,560,17106.33,27.68,-1.00,-1.0,2360
1182,2136182,17100,-452,484,17112.82,27.59,-1.00,-1.0,2359
1185,2136185,17164,-492,548,17179.79,27.78,-1.00,-1.0,2359
1188,2136188,17064,-452,496,17077.19,27.78,-1.00,-1.0,2359
1191,2136191,17088,-380,672,17105.43,27.68,-1.00,-1.0,2359
1194,2136194,17100,-536,564,17117.69,27.68,-1.00,-1.0,2359
1198,2136198,17088,-408,544,17101.53,27.78,-1.00,-1.0,2359
1201,2136201,16984,-588,672,17007.46,27.68,-1.00,-1.0,2360
1204,2136204,17104,-448,704,17124.34,27.78,-1.00,-1.0,2359
1207,2136207,17000,-468,496,17013.67,27.68,-1.00,-1.0,2359
1210,2136210,17188,-484,520,17202.67,27.68,-1.00,-1.0,2360
1213,2136213,17076,-392,512,17088.17,27.59,-1.00,-1.0,2359
1216,2136216,17072,-456,504,17085.52,27.68,-1.00,-1.0,2360
1219,2136219,17096,-464,592,17112.54,27.78,-1.00,-1.0,2361
1222,2136222,17184,-420,648,17201.34,27.78,-1.00,-1.0,2361
1225,2136225,17140,-452,568,17155.37,27.68,-1.00,-1.0,2364
1228,2136228,17048,-412,588,17063.11,27.68,-1.00,-1.0,2368
1231,2136231,17072,-432,532,17085.75,27.68,-1.00,-1.0,2365
1234,2136234,16988,-568,592,17007.80,27.82,-1.00,-1.0,2364
1237,2136237,17168,-376,536,17180.48,27.73,-1.00,-1.0,2365
1240,2136240,17048,-428,516,17061.18,27.82,-1.00,-1.0,2367
1243,2136243,17080,-404,488,17091.75,27.73,-1.00,-1.0,2366
1246,2136246,17100,-420,592,17115.40,27.73,-1.00,-1.0,2367
1249,2136249,17112,-456,472,17124.58,27.64,-1.00,-1.0,2366
1252,2136252,17112,-520,552,17128.79,27.64,-1.00,-1.0,2367
1255,2136255,17036,-472,568,17052.00,27.73,-1.00,-1.0,2368
1258,2136258,17104,-376,616,17119.22,27.82,-1.00,-1.0,2369
1261,2136261,17140,-416,628,17156.54,27.73,-1.00,-1.0,2368
1264,2136264,17120,-428,480,17132.07,27.73,-1.00,-1.0,2367
1267,2136267,17120,-496,620,17138.40,27.73,-1.00,-1.0,2364
1279,2136279,17172,-500,664,17192.11,27.73,-1.00,-1.0,2440
1281,2136281,16972,-428,444,16983.20,27.68,-1.00,-1.0,2369
1284,2136284,17052,-428,636,17069.22,27.73,-1.00,-1.0,2366
1286,2136286,17252,-432,600,17267.84,27.78,-1.00,-1.0,2363
1289,2136289,17076,-504,560,17092.61,27.87,-1.00,-1.0,2359
1292,2136292,17128,-420,664,17146.01,27.64,-1.00,-1.0,2359
1294,2136294,17148,-488,596,17165.29,27.82,-1.00,-1.0,2367
1297,2136297,17116,-348,572,17129.09,27.68,-1.00,-1.0,2359
1299,2136299,17104,-552,640,17124.87,27.78,-1.00,-1.0,2360
1302,2136302,17176,-376,496,17187.27,27.64,-1.00,-1.0,2366
1304,2136304,17068,-400,560,17081.87,27.78,-1.00,-1.0,2366
1307,2136307,16996,-488,640,17015.04,27.68,-1.00,-1.0,2360
1309,2136309,17136,-468,400,17147.06,27.73,-1.00,-1.0,2359
1312,2136312,17112,-484,408,17123.71,27.73,-1.00,-1.0,2374
1315,2136315,17128,-424,592,17143.47,27.68,-1.00,-1.0,2360
1317,2136317,17108,-448,524,17121.88,27.68,-1.00,-1.0,2360
1320,2136320,17140,-472,472,17152.99,27.73,-1.00,-1.0,2369
1322,2136322,17056,-428,692,17075.40,27.68,-1.00,-1.0,2367
1325,2136325,17148,-476,556,17163.61,27.68,-1.00,-1.0,2347
1327,2136327,17080,-504,600,17097.96,27.68,-1.00,-1.0,2359
1330,2136330,17088,-404,592,17103.02,27.73,-1.00,-1.0,2367
1333,2136333,17044,-392,508,17056.07,27.68,-1.00,-1.0,2360
1336,2136336,17116,-396,468,17126.98,27.68,-1.00,-1.0,2359
1339,2136339,17076,-488,600,17093.51,27.68,-1.00,-1.0,2359
1342,2136342,17164,-444,532,17177.98,27.68,-1.00,-1.0,2360
1345,2136345,17096,-424,504,17108.68,27.78,-1.00,-1.0,2359
1348,2136348,17008,-428,608,17024.24,27.68,-1.00,-1.0,2360
1351,2136351,17068,-516,640,17087.79,27.78,-1.00,-1.0,2362
1354,2136354,17084,-420,460,17095.35,27.78,-1.00,-1.0,2359
1357,2136357,17056,-476,592,17072.91,27.78,-1.00,-1.0,2359
1360,2136360,17112,-544,608,17131.44,27.59,-1.00,-1.0,2360
1363,2136363,17068,-484,616,17085.97,27.78,-1.00,-1.0,2360
1366,2136366,17152,-408,492,17163.90,27.68,-1.00,-1.0,2360
1369,2136369,17040,-496,516,17055.03,27.68,-1.00,-1.0,2359
1372,2136372,17116,-508,592,17133.77,27.73,-1.00,-1.0,2360
1375,2136375,17128,-464,704,17148.74,27.64,-1.00,-1.0,2360
1378,2136378,17164,-448,668,17182.84,27.73,-1.00,-1.0,2360
1381,2136381,17136,-400,464,17146.95,27.73,-1.00,-1.0,2360
1384,2136384,17188,-524,748,17212.25,27.82,-1.00,-1.0,2359
1387,2136387,17192,-440,568,17207.01,27.64,-1.00,-1.0,2359
1390,2136390,17036,-484,508,17050.44,27.73,-1.00,-1.0,2360
1393,2136393,17152,-516,612,17170.67,27.73,-1.00,-1.0,2360
1396,2136396,17140,-472,580,17156.30,27.73,-1.00,-1.0,2368
1399,2136399,17132,-368,596,17146.31,27.73,-1.00,-1.0,2366
1402,2136402,17208,-464,532,17222.47,27.73,-1.00,-1.0,2367
1405,2136405,17092,-408,648,17109.14,27.64,-1.00,-1.0,2368
1408,2136408,17184,-408,576,17198.49,27.73,-1.00,-1.0,2367
1411,2136411,17156,-396,500,17167.85,27.82,-1.00,-1.0,2367
1414,2136414,17136,-492,540,17151.56,27.73,-1.00,-1.0,2366
1417,2136417,17044,-404,692,17062.83,27.73,-1.00,-1.0,2368
1420,2136420,17064,-432,664,17082.38,27.82,-1.00,-1.0,2367
1423,2136423,17184,-376,600,17198.58,27.73,-1.00,-1.0,2368
1426,2136426,17184,-364,416,17192.89,27.73,-1.00,-1.0,2367
1429,2136429,17048,-380,452,17058.22,27.64,-1.00,-1.0,2367
1432,2136432,17176,-492,496,17190.20,27.73,-1.00,-1.0,2362
1435,2136435,17124,-492,604,17141.71,27.73,-1.00,-1.0,2367
1438,2136438,17156,-464,652,17174.65,27.78,-1.00,-1.0,2367
1441,2136441,17168,-492,488,17181.98,27.78,-1.00,-1.0,2361
1444,2136444,17164,-536,580,17182.16,27.78,-1.00,-1.0,2354
1447,2136447,17012,-324,344,17018.56,27.68,-1.00,-1.0,2355
1450,2136450,17080,-436,668,17098.62,27.68,-1.00,-1.0,2370
1453,2136453,17176,-364,504,17187.25,27.78,-1.00,-1.0,2370
1456,2136456,17176,-468,564,17191.63,27.78,-1.00,-1.0,2367
1459,2136459,17020,-548,520,17036.76,27.78,-1.00,-1.0,2369
1462,2136462,17112,-548,664,17133.64,27.68,-1.00,-1.0,2367
1465,2136465,17068,-480,592,17085.01,27.68,-1.00,-1.0,2366
1468,2136468,16944,-480,472,16957.37,27.68,-1.00,-1.0,2366
1471,2136471,17012,-456,632,17029.84,27.68,-1.00,-1.0,2365
1474,2136474,17096,-508,644,17115.67,27.68,-1.00,-1.0,2367
1486,2136486,17064,-464,592,17080.57,27.68,-1.00,-1.0,2449
1488,2136488,17088,-512,488,17102.63,27.68,-1.00,-1.0,2369
1491,2136491,17124,-448,544,17138.50,27.78,-1.00,-1.0,2368
1494,2136494,17184,-516,512,17199.37,27.64,-1.00,-1.0,2363
1496,2136496,17072,-460,512,17085.87,27.73,-1.00,-1.0,2360
1499,2136499,17152,-364,592,17166.07,27.78,-1.00,-1.0,2366
1501,2136501,17120,-384,620,17135.53,27.68,-1.00,-1.0,2370
1504,2136504,17020,-492,616,17038.25,27.73,-1.00,-1.0,2360
1506,2136506,17044,-468,548,17059.23,27.68,-1.00,-1.0,2359
1509,2136509,17064,-444,636,17081.62,27.78,-1.00,-1.0,2359
1512,2136512,17000,-496,624,17018.68,27.73,-1.00,-1.0,2365
1514,2136514,17072,-448,648,17090.17,27.64,-1.00,-1.0,2359
1517,2136517,17172,-500,564,17188.53,27.68,-1.00,-1.0,2359
1519,2136519,17044,-420,584,17059.17,27.68,-1.00,-1.0,2362
1522,2136522,17112,-392,584,17126.45,27.73,-1.00,-1.0,2360
1524,2136524,17132,-452,384,17142.26,27.82,-1.00,-1.0,2359
1527,2136527,17080,-380,464,17090.53,27.73,-1.00,-1.0,2359
1530,2136530,17156,-372,704,17174.47,27.68,-1.00,-1.0,2359
1532,2136532,17108,-396,612,17123.52,27.73,-1.00,-1.0,2362
1535,2136535,17100,-464,580,17116.12,27.78,-1.00,-1.0,2363
1537,2136537,17116,-488,484,17129.79,27.68,-1.00,-1.0,2360
1540,2136540,17112,-440,540,17126.17,27.73,-1.00,-1.0,2347
1543,2136543,17124,-472,632,17142.16,27.73,-1.00,-1.0,2362
1546,2136546,17112,-452,572,17127.52,27.64,-1.00,-1.0,2361
1549,2136549,17028,-444,552,17042.73,27.73,-1.00,-1.0,2361
1552,2136552,17020,-516,552,17036.77,27.64,-1.00,-1.0,2362
1555,2136555,17004,-508,536,17020.03,27.73,-1.00,-1.0,2361
1558,2136558,17080,-512,468,17094.08,27.73,-1.00,-1.0,2363
1561,2136561,17136,-488,432,17148.39,27.73,-1.00,-1.0,2360
1564,2136564,17164,-440,572,17179.16,27.82,-1.00,-1.0,2359
1567,2136567,17096,-576,612,17116.64,27.73,-1.00,-1.0,2363
1570,2136570,17120,-472,580,17136.32,27.73,-1.00,-1.0,2362
1573,2136573,17116,-500,576,17132.99,27.73,-1.00,-1.0,2361
1576,2136576,17148,-484,688,17168.62,27.64,-1.00,-1.0,2360
1579,2136579,17132,-520,632,17151.54,27.73,-1.00,-1.0,2361
1582,2136582,17116,-460,652,17134.59,27.82,-1.00,-1.0,2359
1585,2136585,17004,-480,556,17019.86,27.73,-1.00,-1.0,2360
1588,2136588,17088,-468,624,17105.79,27.64,-1.00,-1.0,2359
1591,2136591,17156,-468,532,17170.62,27.73,-1.00,-1.0,2348
1594,2136594,17124,-500,632,17142.95,27.68,-1.00,-1.0,2405
1597,2136597,17156,-444,572,17171.27,27.68,-1.00,-1.0,2359
1600,2136600,17088,-524,564,17105.33,27.78,-1.00,-1.0,2359
1603,2136603,17068,-456,460,17080.29,27.78,-1.00,-1.0,2359
1606,2136606,17024,-516,656,17044.45,27.78,-1.00,-1.0,2359
1609,2136609,17024,-464,640,17042.34,27.78,-1.00,-1.0,2360
1612,2136612,17048,-408,564,17062.21,27.68,-1.00,-1.0,2359
1615,2136615,17116,-408,592,17131.09,27.68,-1.00,-1.0,2361
1618,2136618,17220,-408,704,17239.21,27.78,-1.00,-1.0,2359
1621,2136621,17108,-492,432,17120.52,27.68,-1.00,-1.0,2360
1624,2136624,17088,-436,476,17100.19,27.78,-1.00,-1.0,2359
1627,2136627,17116,-500,568,17132.72,27.78,-1.00,-1.0,2359
1630,2136630,17152,-424,676,17170.55,27.68,-1.00,-1.0,2359
1633,2136633,17124,-404,628,17140.27,27.68,-1.00,-1.0,2360
1636,2136636,17004,-404,668,17021.91,27.68,-1.00,-1.0,2359
1639,2136639,17164,-504,616,17182.44,27.64,-1.00,-1.0,2359
1642,2136642,17140,-480,584,17156.66,27.73,-1.00,-1.0,2359
1645,2136645,17044,-528,592,17062.45,27.73,-1.00,-1.0,2360
1648,2136648,17132,-484,580,17148.65,27.64,-1.00,-1.0,2361
1651,2136651,17092,-472,504,17105.94,27.82,-1.00,-1.0,2363
1654,2136654,17120,-504,556,17136.44,27.73,-1.00,-1.0,2360
1657,2136657,17152,-380,620,17167.41,27.73,-1.00,-1.0,2359
1660,2136660,17032,-412,544,17045.67,27.73,-1.00,-1.0,2360
1663,2136663,17064,-508,624,17082.96,27.73,-1.00,-1.0,2359
1666,2136666,17056,-388,592,17070.68,27.73,-1.00,-1.0,2359
1669,2136669,17076,-368,428,17085.33,27.73,-1.00,-1.0,2360
1672,2136672,17112,-488,552,17127.85,27.64,-1.00,-1.0,2359
1675,2136675,17100,-364,608,17114.68,27.73,-1.00,-1.0,2360
1678,2136678,17096,-484,632,17114.52,27.73,-1.00,-1.0,2360
1681,2136681,17160,-484,484,17173.65,27.73,-1.00,-1.0,2360
1684,2136684,17112,-552,460,17127.08,27.73,-1.00,-1.0,2359
1696,2136696,17128,-432,592,17143.67,27.73,-1.00,-1.0,2450
1699,2136699,17136,-444,660,17154.45,27.73,-1.00,-1.0,2377
1701,2136701,17080,-388,596,17094.80,27.68,-1.00,-1.0,2361
1704,2136704,17060,-452,652,17078.44,27.78,-1.00,-1.0,2361
1706,2136706,17100,-452,580,17115.80,27.73,-1.00,-1.0,2356
1709,2136709,17104,-440,532,17117.93,27.73,-1.00,-1.0,2359
1712,2136712,17016,-440,432,17027.17,27.68,-1.00,-1.0,2359
1714,2136714,17148,-404,560,17161.90,27.68,-1.00,-1.0,2362
1717,2136717,17128,-412,480,17139.68,27.73,-1.00,-1.0,2359
1719,2136719,17128,-420,552,17142.04,27.73,-1.00,-1.0,2359
1722,2136722,17116,-404,588,17130.86,27.68,-1.00,-1.0,2366
1724,2136724,17184,-388,460,17194.53,27.68,-1.00,-1.0,2363
1727,2136727,17072,-396,552,17085.51,27.73,-1.00,-1.0,2361
1729,2136729,17016,-428,752,17037.98,27.73,-1.00,-1.0,2359
1732,2136732,16976,-388,652,16992.95,27.68,-1.00,-1.0,2375
1735,2136735,17168,-492,608,17185.81,27.64,-1.00,-1.0,2359
1737,2136737,17112,-476,572,17128.17,27.73,-1.00,-1.0,2343
1740,2136740,17028,-468,512,17042.12,27.73,-1.00,-1.0,2366
1742,2136742,17044,-460,604,17060.90,27.78,-1.00,-1.0,2364
1745,2136745,17076,-396,652,17093.03,27.73,-1.00,-1.0,2362
1747,2136747,17148,-464,544,17162.90,27.64,-1.00,-1.0,2356
1750,2136750,17072,-472,644,17090.66,27.68,-1.00,-1.0,2374
1753,2136753,17116,-444,440,17127.41,27.59,-1.00,-1.0,2375
1756,2136756,17100,-456,480,17112.81,27.68,-1.00,-1.0,2368
1759,2136759,17088,-556,532,17105.32,27.68,-1.00,-1.0,2367
1762,2136762,17120,-496,580,17137.00,27.68,-1.00,-1.0,2367
1765,2136765,17068,-456,564,17083.40,27.78,-1.00,-1.0,2367
1768,2136768,17216,-560,628,17236.55,27.68,-1.00,-1.0,2367
1771,2136771,17084,-496,584,17101.17,27.73,-1.00,-1.0,2367
1774,2136774,17132,-520,520,17147.78,27.73,-1.00,-1.0,2362
1777,2136777,17088,-368,632,17103.64,27.73,-1.00,-1.0,2367
1780,2136780,17168,-360,576,17181.43,27.82,-1.00,-1.0,2363
1783,2136783,17116,-492,712,17137.87,27.82,-1.00,-1.0,2362
1786,2136786,17156,-484,384,17167.12,27.73,-1.00,-1.0,2362
1789,2136789,17220,-488,612,17237.78,27.73,-1.00,-1.0,2362
1792,2136792,17104,-484,504,17118.27,27.64,-1.00,-1.0,2349
1795,2136795,17176,-480,584,17192.63,27.73,-1.00,-1.0,2346
1798,2136798,16940,-512,544,16956.46,27.73,-1.00,-1.0,2362
1801,2136801,17120,-436,400,17130.22,27.82,-1.00,-1.0,2362
1804,2136804,17024,-436,608,17040.43,27.73,-1.00,-1.0,2359
1807,2136807,17084,-572,620,17104.81,27.73,-1.00,-1.0,2362
1810,2136810,17068,-504,756,17092.17,27.73,-1.00,-1.0,2359
1813,2136813,17172,-440,512,17185.27,27.82,-1.00,-1.0,2359
1816,2136816,17024,-428,616,17040.52,27.73,-1.00,-1.0,2356
1819,2136819,17132,-396,516,17144.34,27.64,-1.00,-1.0,2359
1822,2136822,17148,-400,512,17160.30,27.64,-1.00,-1.0,2356
1825,2136825,17048,-508,616,17066.69,27.64,-1.00,-1.0,2360
1828,2136828,17100,-420,716,17120.14,27.73,-1.00,-1.0,2356
1831,2136831,17144,-440,696,17163.76,27.73,-1.00,-1.0,2360
1834,2136834,17012,-428,716,17032.44,27.73,-1.00,-1.0,2356
1837,2136837,17116,-548,632,17136.43,27.73,-1.00,-1.0,2359
1840,2136840,17024,-396,536,17037.04,27.73,-1.00,-1.0,2356
1843,2136843,17072,-516,528,17087.96,27.78,-1.00,-1.0,2359
1846,2136846,17068,-484,624,17086.26,27.68,-1.00,-1.0,2356
1849,2136849,17112,-480,548,17127.50,27.68,-1.00,-1.0,2359
1852,2136852,17092,-420,544,17105.81,27.68,-1.00,-1.0,2356
1855,2136855,17044,-472,580,17060.40,27.68,-1.00,-1.0,2359
1858,2136858,16980,-452,448,16991.92,27.78,-1.00,-1.0,2355
1861,2136861,17040,-476,496,17053.86,27.78,-1.00,-1.0,2359
1864,2136864,17092,-328,624,17106.53,27.68,-1.00,-1.0,2356
1867,2136867,17080,-472,592,17096.77,27.68,-1.00,-1.0,2359
1870,2136870,17044,-408,536,17057.31,27.78,-1.00,-1.0,2355
1873,2136873,17088,-440,688,17107.50,27.78,-1.00,-1.0,2359
1876,2136876,17132,-500,704,17153.75,27.68,-1.00,-1.0,2356
1879,2136879,17140,-424,524,17153.25,27.78,-1.00,-1.0,2359
1882,2136882,17140,-420,712,17159.92,27.68,-1.00,-1.0,2355
1885,2136885,17064,-428,608,17080.19,27.68,-1.00,-1.0,2346
1888,2136888,17196,-456,588,17212.09,27.68,-1.00,-1.0,2343
1891,2136891,17072,-488,596,17089.37,27.59,-1.00,-1.0,2359
1903,2136903,17060,-456,564,17075.41,27.73,-1.00,-1.0,2451
1906,2136906,17172,-452,536,17186.31,27.78,-1.00,-1.0,2368
1909,2136909,17052,-440,544,17066.35,27.73,-1.00,-1.0,2364
1911,2136911,17032,-488,540,17047.54,27.68,-1.00,-1.0,2361
1914,2136914,17140,-388,536,17152.77,27.78,-1.00,-1.0,2359
1916,2136916,17124,-556,380,17137.24,27.73,-1.00,-1.0,2360
1919,2136919,16992,-480,616,17009.94,27.73,-1.00,-1.0,2361
1921,2136921,17164,-460,648,17182.39,27.78,-1.00,-1.0,2361
1924,2136924,17076,-428,652,17093.80,27.68,-1.00,-1.0,2359
1926,2136926,17100,-412,468,17111.36,27.73,-1.00,-1.0,2358
1929,2136929,17044,-452,520,17057.92,27.73,-1.00,-1.0,2372
1932,2136932,17148,-440,508,17161.16,27.68,-1.00,-1.0,2358
1934,2136934,17152,-388,544,17165.01,27.73,-1.00,-1.0,2358
1937,2136937,17096,-424,588,17111.36,27.73,-1.00,-1.0,2368
1939,2136939,17024,-472,472,17037.08,27.68,-1.00,-1.0,2367
1942,2136942,17096,-396,596,17110.97,27.68,-1.00,-1.0,2348
1944,2136944,17056,-488,604,17073.67,27.64,-1.00,-1.0,2359
1947,2136947,17124,-496,676,17144.51,27.73,-1.00,-1.0,2366
1950,2136950,17176,-444,752,17198.19,27.64,-1.00,-1.0,2360
1952,2136952,17160,-508,584,17177.45,27.68,-1.00,-1.0,2358
1955,2136955,17124,-376,588,17138.22,27.73,-1.00,-1.0,2366
1957,2136957,17092,-488,540,17107.49,27.64,-1.00,-1.0,2362
1960,2136960,17080,-432,520,17093.37,27.73,-1.00,-1.0,2366
1963,2136963,17156,-424,604,17171.87,27.73,-1.00,-1.0,2363
1966,2136966,17088,-488,572,17104.53,27.73,-1.00,-1.0,2361
1969,2136969,17124,-380,640,17140.17,27.64,-1.00,-1.0,2361
1972,2136972,17132,-448,644,17149.95,27.78,-1.00,-1.0,2363
1975,2136975,17088,-444,592,17104.02,27.68,-1.00,-1.0,2360
1978,2136978,17112,-396,540,17125.10,27.78,-1.00,-1.0,2366
1981,2136981,17152,-396,572,17166.10,27.68,-1.00,-1.0,2363
1984,2136984,17100,-460,600,17116.71,27.78,-1.00,-1.0,2363
1987,2136987,17232,-528,484,17246.88,27.68,-1.00,-1.0,2363
1990,2136990,17124,-452,632,17141.62,27.78,-1.00,-1.0,2362
1993,2136993,17036,-544,544,17053.36,27.59,-1.00,-1.0,2369
1996,2136996,17044,-472,460,17056.74,27.68,-1.00,-1.0,2368
1999,2136999,17108,-504,644,17127.53,27.68,-1.00,-1.0,2368
2002,2137002,17196,-588,528,17214.15,27.78,-1.00,-1.0,2369
2005,2137005,17080,-464,600,17096.83,27.68,-1.00,-1.0,2369
2008,2137008,17104,-484,556,17119.88,27.68,-1.00,-1.0,2366
2011,2137011,17084,-416,604,17099.73,27.78,-1.00,-1.0,2369
2014,2137014,17116,-412,536,17129.35,27.78,-1.00,-1.0,2367
2017,2137017,17092,-476,608,17109.43,27.68,-1.00,-1.0,2368
2020,2137020,17076,-420,480,17087.91,27.68,-1.00,-1.0,2369
2023,2137023,17124,-508,556,17140.55,27.68,-1.00,-1.0,2368
2026,2137026,17100,-396,564,17113.88,27.78,-1.00,-1.0,2366
2029,2137029,17132,-372,512,17143.69,27.78,-1.00,-1.0,2367
2032,2137032,17060,-528,544,17076.84,27.68,-1.00,-1.0,2367
2035,2137035,17184,-536,532,17200.59,27.78,-1.00,-1.0,2365
2038,2137038,17004,-472,536,17018.99,27.78,-1.00,-1.0,2366
2041,2137041,17176,-484,600,17193.29,27.73,-1.00,-1.0,2366
2044,2137044,17084,-420,680,17102.69,27.73,-1.00,-1.0,2366
2047,2137047,17092,-384,544,17104.97,27.73,-1.00,-1.0,2367
2050,2137050,17080,-400,552,17093.60,27.64,-1.00,-1.0,2366
2053,2137053,17176,-508,484,17190.33,27.73,-1.00,-1.0,2367
2056,2137056,16964,-588,616,16985.36,27.73,-1.00,-1.0,2367
2059,2137059,17024,-476,624,17042.08,27.73,-1.00,-1.0,2361
2062,2137062,17012,-512,596,17030.13,27.73,-1.00,-1.0,2361
2065,2137065,17088,-448,552,17102.78,27.73,-1.00,-1.0,2361
2068,2137068,17044,-472,660,17063.30,27.64,-1.00,-1.0,2361
2071,2137071,17084,-376,480,17094.88,27.73,-1.00,-1.0,2348
2074,2137074,17100,-516,584,17117.75,27.73,-1.00,-1.0,2346
2077,2137077,17116,-476,540,17131.13,27.73,-1.00,-1.0,2361
2080,2137080,17096,-476,588,17112.73,27.73,-1.00,-1.0,2362
2083,2137083,17180,-376,632,17195.73,27.73,-1.00,-1.0,2360
2086,2137086,17168,-452,432,17179.38,27.64,-1.00,-1.0,2361
2089,2137089,17092,-368,476,17102.59,27.82,-1.00,-1.0,2359
2092,2137092,17028,-496,652,17047.70,27.73,-1.00,-1.0,2359
2095,2137095,17112,-408,648,17129.12,27.82,-1.00,-1.0,2359
2098,2137098,17064,-444,516,17077.57,27.73,-1.00,-1.0,2402
2101,2137101,17072,-552,616,17092.03,27.73,-1.00,-1.0,2360
2114,2137114,17104,-468,580,17120.23,27.64,-1.00,-1.0,2454
2116,2137116,17064,-440,488,17076.65,27.64,-1.00,-1.0,2379
2119,2137119,17192,-488,620,17210.10,27.68,-1.00,-1.0,2361
2121,2137121,17164,-472,504,17177.88,27.68,-1.00,-1.0,2360
2124,2137124,17060,-456,560,17075.28,27.73,-1.00,-1.0,2373
2127,2137127,17060,-460,728,17081.72,27.64,-1.00,-1.0,2359
2129,2137129,17152,-500,632,17170.92,27.59,-1.00,-1.0,2360
2132,2137132,17184,-440,632,17201.25,27.68,-1.00,-1.0,2370
2134,2137134,17164,-496,736,17186.93,27.73,-1.00,-1.0,2367
2137,2137137,17136,-444,568,17151.16,27.73,-1.00,-1.0,2346
2139,2137139,17068,-440,452,17079.65,27.78,-1.00,-1.0,2360
2142,2137142,17148,-448,660,17166.54,27.64,-1.00,-1.0,2367
2145,2137145,17008,-472,504,17022.01,27.64,-1.00,-1.0,2360
2147,2137147,17160,-424,580,17175.03,27.78,-1.00,-1.0,2359
2150,2137150,17084,-452,524,17098.01,27.78,-1.00,-1.0,2366
2152,2137152,17032,-376,500,17043.49,27.64,-1.00,-1.0,2362
2155,2137155,17148,-408,616,17163.91,27.64,-1.00,-1.0,2361
2157,2137157,17184,-512,628,17203.09,27.68,-1.00,-1.0,2359
2160,2137160,17152,-452,516,17165.71,27.78,-1.00,-1.0,2359
2163,2137163,17044,-512,732,17067.39,27.64,-1.00,-1.0,2365
2165,2137165,17116,-460,660,17134.90,27.78,-1.00,-1.0,2359
2168,2137168,17276,-352,712,17294.25,27.78,-1.00,-1.0,2359
2170,2137170,17112,-396,588,17126.68,27.78,-1.00,-1.0,2359
2173,2137173,17064,-460,536,17078.61,27.68,-1.00,-1.0,2359
2176,2137176,17108,-408,540,17121.38,27.73,-1.00,-1.0,2359
2179,2137179,17032,-512,444,17045.48,27.82,-1.00,-1.0,2361
2182,2137182,17144,-412,460,17155.12,27.64,-1.00,-1.0,2359
2185,2137185,17148,-400,660,17165.36,27.73,-1.00,-1.0,2359
2188,2137188,17104,-420,636,17120.97,27.73,-1.00,-1.0,2359
2191,2137191,17096,-452,408,17106.84,27.82,-1.00,-1.0,2359
2194,2137194,17164,-472,548,17179.23,27.73,-1.00,-1.0,2359
2198,2137198,17104,-392,616,17119.58,27.73,-1.00,-1.0,2359
2201,2137201,17108,-412,740,17128.95,27.73,-1.00,-1.0,2359
2204,2137204,17096,-416,592,17111.30,27.73,-1.00,-1.0,2360
2207,2137207,17080,-428,532,17093.64,27.73,-1.00,-1.0,2359
2210,2137210,17164,-520,540,17180.36,27.82,-1.00,-1.0,2360
2213,2137213,17064,-488,560,17080.16,27.73,-1.00,-1.0,2359
2216,2137216,17088,-500,516,17103.10,27.73,-1.00,-1.0,2360
2219,2137219,17068,-472,580,17084.37,27.64,-1.00,-1.0,2360
2222,2137222,17112,-420,708,17131.79,27.73,-1.00,-1.0,2362
2225,2137225,17180,-464,672,17199.40,27.73,-1.00,-1.0,2364
2228,2137228,17188,-496,548,17203.88,27.73,-1.00,-1.0,2365
2231,2137231,17112,-340,580,17125.20,27.73,-1.00,-1.0,2366
2234,2137234,17088,-404,608,17103.59,27.73,-1.00,-1.0,2364
2237,2137237,17084,-496,432,17096.66,27.82,-1.00,-1.0,2364
2240,2137240,17120,-508,648,17139.79,27.73,-1.00,-1.0,2365
2243,2137243,17080,-516,456,17093.88,27.78,-1.00,-1.0,2366
2246,2137246,17056,-472,560,17071.72,27.68,-1.00,-1.0,2412
2249,2137249,17100,-448,432,17111.32,27.68,-1.00,-1.0,2370
2252,2137252,17120,-436,600,17136.06,27.68,-1.00,-1.0,2368
2255,2137255,17124,-516,552,17140.66,27.87,-1.00,-1.0,2372
2258,2137258,17152,-484,636,17170.61,27.68,-1.00,-1.0,2369
2261,2137261,17216,-448,548,17230.54,27.68,-1.00,-1.0,2369
2264,2137264,17044,-508,536,17059.99,27.59,-1.00,-1.0,2366
2267,2137267,17172,-436,400,17182.19,27.68,-1.00,-1.0,2365
2270,2137270,17164,-492,628,17182.53,27.78,-1.00,-1.0,2362
2273,2137273,17172,-476,596,17188.93,27.68,-1.00,-1.0,2362
2276,2137276,17088,-412,536,17101.37,27.68,-1.00,-1.0,2362
2279,2137279,17124,-452,516,17137.73,27.68,-1.00,-1.0,2362
2282,2137282,17072,-388,428,17081.77,27.68,-1.00,-1.0,2360
2285,2137285,17024,-468,692,17044.48,27.78,-1.00,-1.0,2362
2288,2137288,17096,-456,520,17109.98,27.68,-1.00,-1.0,2362
2291,2137291,17160,-456,544,17174.68,27.68,-1.00,-1.0,2359
2294,2137294,17076,-444,364,17085.65,27.78,-1.00,-1.0,2362
2297,2137297,17072,-428,540,17085.90,27.78,-1.00,-1.0,2361
2300,2137300,17132,-472,480,17145.22,27.68,-1.00,-1.0,2360
2303,2137303,17072,-432,480,17084.21,27.68,-1.00,-1.0,2360
2306,2137306,17144,-452,536,17158.33,27.68,-1.00,-1.0,2361
2309,2137309,17100,-496,628,17118.71,27.78,-1.00,-1.0,2359
2321,2137321,17148,-440,596,17163.99,27.59,-1.00,-1.0,2460
2324,2137324,17100,-412,520,17112.87,27.78,-1.00,-1.0,2382
2326,2137326,17040,-420,592,17055.45,27.64,-1.00,-1.0,2361
2329,2137329,17152,-456,592,17168.27,27.73,-1.00,-1.0,2366
2331,2137331,17168,-420,556,17182.13,27.68,-1.00,-1.0,2361
2334,2137334,17080,-452,644,17098.11,27.68,-1.00,-1.0,2359
2336,2137336,17096,-396,444,17106.35,27.73,-1.00,-1.0,2359
2339,2137339,17060,-476,572,17076.22,27.73,-1.00,-1.0,2360
2342,2137342,17064,-524,676,17085.42,27.68,-1.00,-1.0,2362
2344,2137344,17088,-420,516,17100.95,27.68,-1.00,-1.0,2346
2347,2137347,17084,-520,512,17099.58,27.73,-1.00,-1.0,2358
2349,2137349,17224,-440,464,17235.87,27.82,-1.00,-1.0,2359
2352,2137352,17124,-504,576,17141.10,27.78,-1.00,-1.0,2367
2354,2137354,17120,-496,644,17139.29,27.73,-1.00,-1.0,2362
2357,2137357,17196,-396,536,17208.91,27.73,-1.00,-1.0,2360
2359,2137359,17040,-468,540,17054.98,27.68,-1.00,-1.0,2360
2362,2137362,17040,-436,648,17057.89,27.68,-1.00,-1.0,2375
2365,2137365,17108,-468,580,17124.22,27.64,-1.00,-1.0,2360
2367,2137367,17096,-496,560,17112.36,27.64,-1.00,-1.0,2359
2370,2137370,17032,-488,456,17045.09,27.59,-1.00,-1.0,2369
2372,2137372,17112,-524,636,17131.83,27.73,-1.00,-1.0,2367
2375,2137375,17124,-384,756,17144.98,27.73,-1.00,-1.0,2346
2378,2137378,17112,-496,696,17133.33,27.73,-1.00,-1.0,2359
2381,2137381,17060,-456,416,17071.16,27.68,-1.00,-1.0,2360
2384,2137384,17068,-324,592,17081.34,27.68,-1.00,-1.0,2359
2387,2137387,17092,-500,544,17107.96,27.78,-1.00,-1.0,2359
2390,2137390,17160,-484,484,17173.65,27.68,-1.00,-1.0,2359
2393,2137393,17088,-512,620,17106.91,27.68,-1.00,-1.0,2359
2396,2137396,17112,-352,528,17123.76,27.68,-1.00,-1.0,2359
2399,2137399,17152,-544,616,17171.68,27.68,-1.00,-1.0,2366
2402,2137402,17164,-500,564,17180.54,27.68,-1.00,-1.0,2366
2405,2137405,17056,-400,704,17075.21,27.68,-1.00,-1.0,2367
2408,2137408,17108,-448,520,17121.76,27.78,-1.00,-1.0,2365
2411,2137411,17136,-532,504,17151.66,27.68,-1.00,-1.0,2367
2414,2137414,17144,-508,676,17164.84,27.78,-1.00,-1.0,2367
2417,2137417,17196,-424,632,17212.83,27.78,-1.00,-1.0,2367
2420,2137420,17096,-448,516,17109.65,27.68,-1.00,-1.0,2367
2423,2137423,17096,-440,680,17115.18,27.68,-1.00,-1.0,2367
2426,2137426,17020,-496,484,17034.10,27.78,-1.00,-1.0,2367
2429,2137429,17148,-508,448,17161.37,27.68,-1.00,-1.0,2366
2432,2137432,17048,-436,528,17061.75,27.78,-1.00,-1.0,2361
2435,2137435,17176,-444,604,17192.35,27.78,-1.00,-1.0,2367
2438,2137438,17108,-544,644,17128.76,27.68,-1.00,-1.0,2367
2441,2137441,17116,-388,628,17131.91,27.68,-1.00,-1.0,2362
2444,2137444,17100,-536,628,17119.92,27.73,-1.00,-1.0,2355
2447,2137447,17052,-480,556,17067.81,27.82,-1.00,-1.0,2355
2450,2137450,17168,-420,540,17181.62,27.73,-1.00,-1.0,2370
2453,2137453,17076,-560,612,17096.14,27.73,-1.00,-1.0,2409
2456,2137456,17088,-468,556,17103.45,27.64,-1.00,-1.0,2368
2459,2137459,17100,-304,588,17112.81,27.64,-1.00,-1.0,2369
2462,2137462,17056,-588,616,17077.25,27.73,-1.00,-1.0,2367
2465,2137465,17144,-472,624,17161.84,27.73,-1.00,-1.0,2366
2468,2137468,17072,-456,656,17090.68,27.73,-1.00,-1.0,2367
2471,2137471,17140,-392,700,17158.77,27.73,-1.00,-1.0,2365
2474,2137474,17044,-528,592,17062.45,27.64,-1.00,-1.0,2368
2477,2137477,17172,-472,608,17189.24,27.73,-1.00,-1.0,2368
2480,2137480,17132,-472,480,17145.22,27.73,-1.00,-1.0,2367
2483,2137483,17108,-480,572,17124.29,27.73,-1.00,-1.0,2367
2486,2137486,17052,-532,628,17071.85,27.73,-1.00,-1.0,2367
2489,2137489,17168,-540,648,17188.71,27.73,-1.00,-1.0,2368
2492,2137492,17144,-448,508,17157.38,27.73,-1.00,-1.0,2367
2495,2137495,17148,-480,504,17162.12,27.78,-1.00,-1.0,2403
2498,2137498,17124,-436,520,17137.44,27.73,-1.00,-1.0,2362
2501,2137501,17124,-372,660,17140.75,27.73,-1.00,-1.0,2362
2504,2137504,17148,-436,440,17159.18,27.73,-1.00,-1.0,2364
2507,2137507,17140,-496,528,17155.30,27.64,-1.00,-1.0,2348
2510,2137510,17124,-528,568,17141.55,27.64,-1.00,-1.0,2347
2513,2137513,17116,-464,680,17135.79,27.78,-1.00,-1.0,2362
2516,2137516,17088,-400,468,17099.09,27.68,-1.00,-1.0,2362
2528,2137528,17028,-396,536,17041.04,27.73,-1.00,-1.0,2449
2531,2137531,16996,-456,552,17011.07,27.64,-1.00,-1.0,2378
2533,2137533,17160,-448,512,17173.48,27.78,-1.00,-1.0,2368
2536,2137536,17144,-500,604,17161.92,27.78,-1.00,-1.0,2358
2538,2137538,17160,-464,564,17175.54,27.64,-1.00,-1.0,2360
2541,2137541,17104,-496,636,17123.01,27.64,-1.00,-1.0,2374
2544,2137544,17156,-424,608,17172.01,27.78,-1.00,-1.0,2358
2546,2137546,17140,-452,520,17153.84,27.73,-1.00,-1.0,2346
2549,2137549,17100,-412,672,17118.16,27.73,-1.00,-1.0,2366
2551,2137551,17152,-464,436,17163.81,27.68,-1.00,-1.0,2368
2554,2137554,17152,-580,476,17168.40,27.78,-1.00,-1.0,2359
2556,2137556,17060,-484,544,17075.53,27.73,-1.00,-1.0,2359
2559,2137559,17092,-464,636,17110.12,27.73,-1.00,-1.0,2358
2562,2137562,17052,-484,548,17067.67,27.68,-1.00,-1.0,2363
2564,2137564,17152,-500,556,17168.29,27.78,-1.00,-1.0,2359
2567,2137567,17112,-388,656,17128.96,27.73,-1.00,-1.0,2366
2569,2137569,17096,-420,584,17111.13,27.78,-1.00,-1.0,2364
2572,2137572,17104,-532,512,17119.93,27.68,-1.00,-1.0,2347
2574,2137574,16912,-484,676,16932.42,27.73,-1.00,-1.0,2359
2577,2137577,17120,-360,512,17131.44,27.73,-1.00,-1.0,2359
2580,2137580,17160,-448,576,17175.51,27.68,-1.00,-1.0,2359
2582,2137582,17108,-444,560,17122.92,27.78,-1.00,-1.0,2366
2585,2137585,17180,-516,616,17198.78,27.64,-1.00,-1.0,2360
2588,2137588,17044,-492,628,17062.66,27.64,-1.00,-1.0,2360
2591,2137591,17072,-408,564,17086.19,27.73,-1.00,-1.0,2360
2594,2137594,17088,-484,476,17101.48,27.73,-1.00,-1.0,2347
2597,2137597,17080,-492,416,17092.15,27.73,-1.00,-1.0,2346
2600,2137600,17076,-500,628,17094.86,27.73,-1.00,-1.0,2359
2603,2137603,17216,-548,600,17235.17,27.73,-1.00,-1.0,2360
2606,2137606,17048,-460,644,17066.36,27.64,-1.00,-1.0,2359
2609,2137609,17060,-424,536,17073.68,27.73,-1.00,-1.0,2360
2612,2137612,17096,-476,656,17115.20,27.64,-1.00,-1.0,2360
2615,2137615,17160,-396,580,17174.37,27.73,-1.00,-1.0,2363
2618,2137618,17000,-304,708,17017.45,27.73,-1.00,-1.0,2359
2621,2137621,17184,-444,416,17194.77,27.73,-1.00,-1.0,2360
2624,2137624,17140,-456,576,17155.74,27.73,-1.00,-1.0,2359
2627,2137627,17120,-484,608,17137.63,27.73,-1.00,-1.0,2360
2630,2137630,17088,-524,604,17106.70,27.73,-1.00,-1.0,2359
2633,2137633,17080,-424,484,17092.12,27.64,-1.00,-1.0,2359
2636,2137636,17080,-444,492,17092.85,27.64,-1.00,-1.0,2360
2639,2137639,17092,-360,644,17107.92,27.64,-1.00,-1.0,2359
2642,2137642,17080,-440,428,17091.03,27.73,-1.00,-1.0,2359
2645,2137645,17096,-472,508,17110.06,27.73,-1.00,-1.0,2359
2648,2137648,17148,-432,636,17165.23,27.73,-1.00,-1.0,2359
2651,2137651,17140,-424,560,17154.39,27.64,-1.00,-1.0,2359
2654,2137654,17136,-388,516,17148.16,27.73,-1.00,-1.0,2362
2657,2137657,17088,-456,632,17105.76,27.82,-1.00,-1.0,2359
2660,2137660,16988,-484,528,17003.09,27.73,-1.00,-1.0,2359
2663,2137663,17052,-444,548,17066.58,27.73,-1.00,-1.0,2360
2666,2137666,17068,-432,592,17083.73,27.73,-1.00,-1.0,2360
2669,2137669,17048,-508,504,17063.01,27.73,-1.00,-1.0,2359
2672,2137672,17000,-488,648,17019.34,27.73,-1.00,-1.0,2359
2675,2137675,17112,-372,532,17124.31,27.68,-1.00,-1.0,2359
2678,2137678,17036,-492,652,17055.57,27.68,-1.00,-1.0,2360
2681,2137681,17120,-524,656,17140.57,27.78,-1.00,-1.0,2359
2684,2137684,17128,-372,648,17144.29,27.68,-1.00,-1.0,2359
2687,2137687,17140,-472,588,17156.58,27.68,-1.00,-1.0,2359
2690,2137690,17096,-484,600,17113.37,27.78,-1.00,-1.0,2360
2693,2137693,17136,-448,644,17153.95,27.68,-1.00,-1.0,2360
2696,2137696,17140,-552,636,17160.68,27.78,-1.00,-1.0,2359
2699,2137699,17080,-480,636,17098.58,27.78,-1.00,-1.0,2359
2702,2137702,17080,-388,644,17096.54,27.68,-1.00,-1.0,2359
2705,2137705,17012,-384,476,17022.99,27.68,-1.00,-1.0,2359
2708,2137708,17228,-340,628,17242.79,27.68,-1.00,-1.0,2367
2711,2137711,17052,-352,516,17063.44,27.82,-1.00,-1.0,2367
2714,2137714,17152,-464,552,17167.15,27.73,-1.00,-1.0,2367
2717,2137717,17104,-484,680,17124.35,27.73,-1.00,-1.0,2367
2720,2137720,17044,-368,664,17060.90,27.73,-1.00,-1.0,2366
2723,2137723,17116,-384,588,17130.40,27.64,-1.00,-1.0,2367
2726,2137726,17148,-472,620,17165.70,27.64,-1.00,-1.0,2366
2738,2137738,17084,-496,668,17104.25,27.64,-1.00,-1.0,2443
2741,2137741,17136,-376,572,17149.67,27.68,-1.00,-1.0,2373
2743,2137743,17108,-504,564,17124.71,27.64,-1.00,-1.0,2362
2746,2137746,17028,-436,512,17041.27,27.73,-1.00,-1.0,2363
2748,2137748,17032,-452,504,17045.45,27.68,-1.00,-1.0,2356
2751,2137751,17024,-360,496,17035.03,27.68,-1.00,-1.0,2359
2754,2137754,17140,-424,600,17155.74,27.82,-1.00,-1.0,2359
2756,2137756,17080,-472,600,17097.05,27.64,-1.00,-1.0,2362
2759,2137759,17108,-376,516,17119.91,27.68,-1.00,-1.0,2359
2761,2137761,17100,-476,580,17116.45,27.73,-1.00,-1.0,2359
2764,2137764,17132,-424,512,17144.89,27.73,-1.00,-1.0,2367
2766,2137766,17120,-452,604,17136.61,27.68,-1.00,-1.0,2363
2769,2137769,17128,-456,596,17144.43,27.68,-1.00,-1.0,2361
2771,2137771,17156,-444,528,17169.87,27.82,-1.00,-1.0,2359
2774,2137774,17172,-516,524,17187.74,27.73,-1.00,-1.0,2375
2777,2137777,17112,-436,692,17131.54,27.78,-1.00,-1.0,2359
2779,2137779,17040,-420,556,17054.24,27.68,-1.00,-1.0,2343
2782,2137782,17168,-448,536,17182.21,27.64,-1.00,-1.0,2367
2784,2137784,17060,-508,560,17076.75,27.82,-1.00,-1.0,2365
2787,2137787,17056,-500,488,17070.30,27.73,-1.00,-1.0,2363
2789,2137789,17152,-296,556,17163.56,27.78,-1.00,-1.0,2355
2792,2137792,17148,-396,524,17160.57,27.68,-1.00,-1.0,2362
2795,2137795,17140,-400,624,17156.02,27.68,-1.00,-1.0,2346
2798,2137798,17116,-412,572,17130.51,27.78,-1.00,-1.0,2347
2801,2137801,17060,-488,472,17073.50,27.68,-1.00,-1.0,2362
2804,2137804,17124,-508,564,17140.81,27.87,-1.00,-1.0,2361
2807,2137807,17192,-400,616,17207.68,27.59,-1.00,-1.0,2358
2810,2137810,17084,-428,624,17100.75,27.78,-1.00,-1.0,2360
2813,2137813,17016,-328,480,17025.93,27.78,-1.00,-1.0,2357
2816,2137816,16988,-484,552,17003.86,27.78,-1.00,-1.0,2360
2819,2137819,17132,-460,572,17147.72,27.78,-1.00,-1.0,2356
2822,2137822,17108,-456,592,17124.31,27.68,-1.00,-1.0,2359
2825,2137825,17120,-472,776,17144.08,27.68,-1.00,-1.0,2356
2828,2137828,17096,-344,456,17105.54,27.68,-1.00,-1.0,2359
2831,2137831,17120,-516,616,17138.85,27.68,-1.00,-1.0,2356
2834,2137834,17180,-512,628,17199.10,27.78,-1.00,-1.0,2358
2837,2137837,17080,-488,696,17101.14,27.78,-1.00,-1.0,2356
2840,2137840,17024,-428,564,17038.72,27.68,-1.00,-1.0,2359
2843,2137843,17088,-436,772,17110.99,27.68,-1.00,-1.0,2356
2846,2137846,17096,-404,696,17114.93,27.68,-1.00,-1.0,2359
2849,2137849,17084,-388,580,17098.25,27.78,-1.00,-1.0,2356
2852,2137852,17180,-328,660,17195.80,27.64,-1.00,-1.0,2359
2855,2137855,17080,-544,596,17099.05,27.73,-1.00,-1.0,2356
2858,2137858,17096,-452,584,17111.94,27.73,-1.00,-1.0,2359
2861,2137861,17084,-428,544,17098.02,27.73,-1.00,-1.0,2355
2864,2137864,16996,-356,636,17011.62,27.64,-1.00,-1.0,2359
2867,2137867,17108,-460,568,17123.61,27.73,-1.00,-1.0,2356
2870,2137870,17088,-496,664,17108.09,27.64,-1.00,-1.0,2359
2873,2137873,17072,-356,608,17086.53,27.73,-1.00,-1.0,2356
2876,2137876,17220,-488,624,17238.21,27.64,-1.00,-1.0,2359
2879,2137879,17052,-444,656,17070.39,27.73,-1.00,-1.0,2356
2882,2137882,17036,-452,640,17054.01,27.73,-1.00,-1.0,2346
2885,2137885,17108,-408,520,17120.76,27.73,-1.00,-1.0,2342
2888,2137888,17096,-500,692,17117.30,27.73,-1.00,-1.0,2359
2891,2137891,17108,-392,564,17121.78,27.82,-1.00,-1.0,2356
2894,2137894,17116,-428,608,17132.14,27.73,-1.00,-1.0,2359
2897,2137897,17188,-412,488,17199.86,27.64,-1.00,-1.0,2356
2900,2137900,17156,-476,592,17172.81,27.73,-1.00,-1.0,2359
2903,2137903,17172,-496,608,17189.92,27.73,-1.00,-1.0,2356
2906,2137906,17072,-408,516,17084.67,27.73,-1.00,-1.0,2360
2909,2137909,17088,-540,540,17105.06,27.73,-1.00,-1.0,2357
2912,2137912,17168,-456,512,17181.69,27.82,-1.00,-1.0,2360
2915,2137915,17080,-456,572,17095.66,27.82,-1.00,-1.0,2356
2918,2137918,17064,-456,748,17086.47,27.68,-1.00,-1.0,2359
2921,2137921,17104,-448,512,17117.53,27.59,-1.00,-1.0,2356
2924,2137924,17072,-472,528,17086.68,27.78,-1.00,-1.0,2359
2927,2137927,17132,-432,468,17143.83,27.78,-1.00,-1.0,2356
2930,2137930,17156,-492,644,17175.13,27.59,-1.00,-1.0,2361
2933,2137933,17088,-424,620,17104.50,27.78,-1.00,-1.0,2358
2945,2137945,17128,-484,580,17144.65,27.73,-1.00,-1.0,2441
2948,2137948,17028,-436,652,17046.05,27.73,-1.00,-1.0,2369
2951,2137951,17076,-472,540,17091.05,27.73,-1.00,-1.0,2360
2953,2137953,17084,-500,628,17102.85,27.78,-1.00,-1.0,2361
2956,2137956,17112,-424,680,17130.75,27.68,-1.00,-1.0,2362
2958,2137958,17164,-520,476,17178.47,27.73,-1.00,-1.0,2362
2961,2137961,17152,-428,660,17170.03,27.68,-1.00,-1.0,2359
2963,2137963,17092,-400,584,17106.65,27.78,-1.00,-1.0,2358
2966,2137966,17164,-472,452,17176.44,27.82,-1.00,-1.0,2367
2969,2137969,17024,-536,540,17040.99,27.82,-1.00,-1.0,2360
2971,2137971,17016,-580,620,17037.17,27.68,-1.00,-1.0,2361
2974,2137974,17052,-364,520,17063.81,27.68,-1.00,-1.0,2366
2976,2137976,17024,-448,592,17040.18,27.73,-1.00,-1.0,2366
2979,2137979,17052,-396,668,17069.67,27.64,-1.00,-1.0,2359
2981,2137981,17060,-456,456,17072.18,27.68,-1.00,-1.0,2359
2984,2137984,17080,-484,452,17092.83,27.78,-1.00,-1.0,2366
2987,2137987,17220,-472,572,17235.96,27.73,-1.00,-1.0,2361
2989,2137989,17104,-408,528,17117.01,27.68,-1.00,-1.0,2360
2992,2137992,17088,-444,652,17106.20,27.78,-1.00,-1.0,2366
2994,2137994,17096,-404,616,17111.86,27.73,-1.00,-1.0,2370
2997,2137997,17080,-516,580,17097.63,27.82,-1.00,-1.0,2363
2999,2137999,17088,-436,616,17104.66,27.68,-1.00,-1.0,2359
3002,2138002,17136,-408,640,17152.80,27.73,-1.00,-1.0,2370
3005,2138005,17112,-444,556,17126.79,27.73,-1.00,-1.0,2368
3008,2138008,17136,-472,600,17153.00,27.73,-1.00,-1.0,2367
3011,2138011,17120,-448,468,17132.25,27.73,-1.00,-1.0,2369
3014,2138014,17096,-476,652,17115.05,27.64,-1.00,-1.0,2368
3017,2138017,17076,-456,628,17093.63,27.73,-1.00,-1.0,2368
3020,2138020,17128,-508,612,17146.46,27.73,-1.00,-1.0,2367
3023,2138023,17096,-484,580,17112.68,27.82,-1.00,-1.0,2369
3026,2138026,17116,-544,512,17132.29,27.73,-1.00,-1.0,2367
3029,2138029,17052,-360,608,17066.63,27.73,-1.00,-1.0,2366
3032,2138032,17140,-356,644,17155.79,27.73,-1.00,-1.0,2366
3035,2138035,17128,-424,532,17141.50,27.73,-1.00,-1.0,2366
3038,2138038,17072,-508,564,17088.87,27.73,-1.00,-1.0,2366
3041,2138041,17188,-416,540,17201.51,27.82,-1.00,-1.0,2366
3044,2138044,17128,-488,564,17144.23,27.64,-1.00,-1.0,2366
3047,2138047,17104,-532,672,17125.46,27.73,-1.00,-1.0,2367
3050,2138050,17168,-480,564,17183.97,27.78,-1.00,-1.0,2366
3053,2138053,17040,-448,564,17055.22,27.59,-1.00,-1.0,2362
3056,2138056,17168,-392,452,17178.42,27.78,-1.00,-1.0,2366
3059,2138059,17080,-504,512,17095.10,27.78,-1.00,-1.0,2361
3062,2138062,17044,-520,556,17060.99,27.68,-1.00,-1.0,2361
3065,2138065,17116,-456,592,17132.30,27.68,-1.00,-1.0,2362
3068,2138068,17044,-472,632,17062.24,27.68,-1.00,-1.0,2361
3071,2138071,17160,-436,556,17174.54,27.78,-1.00,-1.0,2352
3074,2138074,17176,-460,648,17194.37,27.59,-1.00,-1.0,2346
3077,2138077,17076,-472,576,17092.23,27.78,-1.00,-1.0,2361
3080,2138080,17096,-392,544,17109.14,27.78,-1.00,-1.0,2361
3083,2138083,17088,-480,688,17108.58,27.68,-1.00,-1.0,2360
3086,2138086,17064,-392,616,17079.61,27.78,-1.00,-1.0,2358
3089,2138089,17052,-380,544,17064.91,27.68,-1.00,-1.0,2360
3092,2138092,17136,-428,492,17148.40,27.68,-1.00,-1.0,2358
3095,2138095,17052,-504,600,17069.99,27.78,-1.00,-1.0,2359
3098,2138098,17072,-368,388,17080.37,27.78,-1.00,-1.0,2359
3101,2138101,17044,-428,648,17061.68,27.78,-1.00,-1.0,2358
3104,2138104,17116,-416,596,17131.43,27.78,-1.00,-1.0,2358
3107,2138107,17188,-428,620,17204.50,27.68,-1.00,-1.0,2359
3110,2138110,17104,-508,604,17122.20,27.78,-1.00,-1.0,2359
3113,2138113,17044,-508,528,17059.74,27.68,-1.00,-1.0,2359
3116,2138116,17076,-388,596,17090.80,27.68,-1.00,-1.0,2360
3119,2138119,17084,-516,388,17096.19,27.73,-1.00,-1.0,2359
3122,2138122,17096,-408,492,17107.94,27.73,-1.00,-1.0,2358
3125,2138125,17088,-336,516,17099.09,27.73,-1.00,-1.0,2358
3128,2138128,17124,-456,576,17139.75,27.73,-1.00,-1.0,2358
3131,2138131,17068,-376,476,17078.78,27.73,-1.00,-1.0,2358
3134,2138134,17072,-488,672,17092.19,27.73,-1.00,-1.0,2359
3137,2138137,17084,-428,636,17101.19,27.73,-1.00,-1.0,2359
3140,2138140,17096,-624,404,17112.15,27.73,-1.00,-1.0,2359
3143,2138143,17068,-412,660,17085.72,27.73,-1.00,-1.0,2359
3156,2138156,17068,-500,568,17084.77,27.68,-1.00,-1.0,2443
3158,2138158,17088,-504,720,17110.59,27.68,-1.00,-1.0,2375
3161,2138161,17112,-460,512,17125.84,27.73,-1.00,-1.0,2359
3163,2138163,17100,-500,728,17122.79,27.64,-1.00,-1.0,2360
3166,2138166,17100,-504,564,17116.72,27.78,-1.00,-1.0,2365
3169,2138169,17028,-500,504,17042.79,27.78,-1.00,-1.0,2362
3171,2138171,17060,-408,400,17069.57,27.73,-1.00,-1.0,2358
3174,2138174,17064,-416,536,17077.48,27.73,-1.00,-1.0,2366
3176,2138176,17176,-496,496,17190.32,27.68,-1.00,-1.0,2366
3179,2138179,17072,-420,640,17089.15,27.73,-1.00,-1.0,2360
3181,2138181,17124,-356,484,17134.54,27.73,-1.00,-1.0,2359
3184,2138184,17000,-380,568,17013.73,27.68,-1.00,-1.0,2359
3187,2138187,17076,-404,484,17087.63,27.68,-1.00,-1.0,2363
3189,2138189,17176,-444,600,17192.21,27.73,-1.00,-1.0,2359
3192,2138192,17132,-380,544,17144.85,27.82,-1.00,-1.0,2366
3194,2138194,17172,-392,624,17187.80,27.68,-1.00,-1.0,2364
3197,2138197,17136,-336,456,17145.36,27.78,-1.00,-1.0,2346
3199,2138199,17040,-392,552,17053.45,27.73,-1.00,-1.0,2360
3202,2138202,17064,-388,612,17079.38,27.73,-1.00,-1.0,2360
3205,2138205,17104,-376,652,17120.55,27.73,-1.00,-1.0,2359
3207,2138207,17056,-408,356,17064.59,27.68,-1.00,-1.0,2366
3210,2138210,17088,-428,580,17103.20,27.73,-1.00,-1.0,2362
3213,2138213,17088,-424,548,17102.04,27.78,-1.00,-1.0,2359
3216,2138216,17072,-432,676,17090.84,27.78,-1.00,-1.0,2358
3219,2138219,17088,-432,520,17101.37,27.87,-1.00,-1.0,2359
3222,2138222,17068,-496,556,17084.26,27.78,-1.00,-1.0,2359
3225,2138225,17108,-524,652,17128.44,27.78,-1.00,-1.0,2361
3228,2138228,16960,-508,604,16978.35,27.78,-1.00,-1.0,2361
3231,2138231,17024,-420,456,17035.29,27.68,-1.00,-1.0,2364
3234,2138234,17084,-416,548,17097.85,27.78,-1.00,-1.0,2365
3237,2138237,17148,-492,460,17161.22,27.78,-1.00,-1.0,2363
3240,2138240,17116,-428,472,17127.86,27.68,-1.00,-1.0,2364
3243,2138243,17044,-448,548,17058.69,27.78,-1.00,-1.0,2365
3246,2138246,17032,-488,548,17047.80,27.68,-1.00,-1.0,2365
3249,2138249,17124,-488,584,17140.90,27.68,-1.00,-1.0,2368
3252,2138252,17076,-420,552,17090.08,27.73,-1.00,-1.0,2365
3255,2138255,17116,-500,572,17132.85,27.73,-1.00,-1.0,2365
3258,2138258,17136,-460,656,17154.72,27.73,-1.00,-1.0,2372
3261,2138261,17144,-492,560,17160.20,27.73,-1.00,-1.0,2370
3264,2138264,17040,-480,568,17056.22,27.82,-1.00,-1.0,2369
3267,2138267,17136,-476,504,17150.02,27.73,-1.00,-1.0,2366
3270,2138270,17072,-468,560,17087.59,27.64,-1.00,-1.0,2363
3273,2138273,17116,-456,524,17130.09,27.73,-1.00,-1.0,2362
3276,2138276,17132,-592,580,17152.04,27.73,-1.00,-1.0,2361
3279,2138279,17024,-432,340,17032.88,27.73,-1.00,-1.0,2362
3282,2138282,17088,-532,568,17105.71,27.82,-1.00,-1.0,2402
3285,2138285,17128,-420,420,17138.29,27.73,-1.00,-1.0,2363
3288,2138288,17204,-452,356,17213.62,27.73,-1.00,-1.0,2362
3291,2138291,17084,-376,660,17100.88,27.73,-1.00,-1.0,2361
3294,2138294,17140,-400,464,17150.95,27.73,-1.00,-1.0,2359
3297,2138297,17056,-484,564,17072.19,27.73,-1.00,-1.0,2362
3300,2138300,17088,-428,692,17107.36,27.73,-1.00,-1.0,2360
3303,2138303,17084,-520,652,17104.34,27.73,-1.00,-1.0,2359
3306,2138306,17056,-532,580,17074.15,27.73,-1.00,-1.0,2362
3309,2138309,17124,-492,516,17138.84,27.82,-1.00,-1.0,2359
3312,2138312,17156,-452,528,17170.07,27.73,-1.00,-1.0,2359
3315,2138315,17060,-444,624,17077.18,27.73,-1.00,-1.0,2360
3318,2138318,17088,-464,652,17106.73,27.73,-1.00,-1.0,2359
3321,2138321,17140,-556,616,17160.08,27.68,-1.00,-1.0,2359
3324,2138324,17088,-524,604,17106.70,27.78,-1.00,-1.0,2359
3327,2138327,17172,-384,544,17184.91,27.87,-1.00,-1.0,2359
3330,2138330,17068,-420,604,17083.85,27.78,-1.00,-1.0,2359
3333,2138333,17064,-484,548,17079.66,27.68,-1.00,-1.0,2359
3336,2138336,17132,-496,588,17149.26,27.78,-1.00,-1.0,2359
3339,2138339,17120,-352,500,17130.92,27.68,-1.00,-1.0,2360
3342,2138342,17068,-480,616,17085.86,27.78,-1.00,-1.0,2359
3345,2138345,17048,-448,584,17063.88,27.78,-1.00,-1.0,2359
3348,2138348,17120,-512,640,17139.61,27.68,-1.00,-1.0,2359
3351,2138351,17112,-420,552,17126.05,27.78,-1.00,-1.0,2363
3363,2138363,17232,-456,616,17249.04,27.78,-1.00,-1.0,2459
3366,2138366,17108,-436,580,17123.38,27.73,-1.00,-1.0,2372
3368,2138368,17164,-488,560,17180.06,27.68,-1.00,-1.0,2362
3371,2138371,17088,-388,508,17099.95,27.78,-1.00,-1.0,2358
3374,2138374,17056,-444,492,17068.87,27.73,-1.00,-1.0,2359
3376,2138376,17080,-436,780,17103.36,27.68,-1.00,-1.0,2366
3379,2138379,17080,-492,556,17096.13,27.68,-1.00,-1.0,2359
3381,2138381,17088,-520,476,17102.54,27.64,-1.00,-1.0,2359
3384,2138384,17108,-448,528,17122.01,27.73,-1.00,-1.0,2366
3386,2138386,17080,-412,648,17097.25,27.73,-1.00,-1.0,2366
3389,2138389,17184,-488,488,17197.85,27.78,-1.00,-1.0,2362
3391,2138391,17088,-472,548,17103.30,27.64,-1.00,-1.0,2360
3394,2138394,17096,-504,648,17115.70,27.68,-1.00,-1.0,2374
3397,2138397,17036,-460,536,17050.64,27.78,-1.00,-1.0,2359
3399,2138399,17044,-444,616,17060.91,27.82,-1.00,-1.0,2358
3402,2138402,17156,-488,500,17170.22,27.82,-1.00,-1.0,2370
3404,2138404,17100,-532,604,17118.93,27.73,-1.00,-1.0,2367
3407,2138407,17104,-348,704,17122.02,27.78,-1.00,-1.0,2348
3409,2138409,17120,-444,780,17143.51,27.73,-1.00,-1.0,2359
3412,2138412,17064,-372,564,17077.37,27.64,-1.00,-1.0,2366
3415,2138415,17096,-436,540,17110.08,27.78,-1.00,-1.0,2360
3417,2138417,17140,-468,616,17157.45,27.68,-1.00,-1.0,2359
3420,2138420,17124,-428,552,17138.24,27.73,-1.00,-1.0,2365
3423,2138423,17064,-524,508,17079.60,27.73,-1.00,-1.0,2367
3426,2138426,17072,-392,464,17082.80,27.73,-1.00,-1.0,2367
3429,2138429,17068,-520,560,17085.10,27.73,-1.00,-1.0,2367
3432,2138432,17092,-404,512,17104.44,27.64,-1.00,-1.0,2367
3435,2138435,17148,-404,512,17160.40,27.73,-1.00,-1.0,2367
3438,2138438,17104,-452,608,17120.77,27.73,-1.00,-1.0,2367
3441,2138441,17060,-448,720,17081.06,27.73,-1.00,-1.0,2362
3444,2138444,17068,-452,592,17084.24,27.73,-1.00,-1.0,2361
3447,2138447,17140,-428,588,17155.42,27.82,-1.00,-1.0,2354
3450,2138450,17072,-444,544,17086.44,27.64,-1.00,-1.0,2370
3453,2138453,17064,-428,612,17080.33,27.68,-1.00,-1.0,2370
3456,2138456,17092,-472,652,17110.94,27.68,-1.00,-1.0,2368
3459,2138459,17024,-448,612,17040.89,27.78,-1.00,-1.0,2370
3462,2138462,17108,-508,480,17122.27,27.68,-1.00,-1.0,2367
3465,2138465,17080,-260,492,17089.06,27.68,-1.00,-1.0,2367
3468,2138468,17164,-440,472,17176.12,27.68,-1.00,-1.0,2367
3471,2138471,17120,-424,528,17133.39,27.68,-1.00,-1.0,2412
3474,2138474,17172,-420,552,17186.00,27.78,-1.00,-1.0,2367
3477,2138477,17224,-540,560,17241.56,27.78,-1.00,-1.0,2367
3480,2138480,17020,-428,660,17038.17,27.78,-1.00,-1.0,2367
3483,2138483,17080,-360,560,17092.97,27.78,-1.00,-1.0,2366
3486,2138486,17096,-420,608,17111.96,27.78,-1.00,-1.0,2366
3489,2138489,17216,-428,592,17231.49,27.78,-1.00,-1.0,2362
3492,2138492,17172,-420,484,17183.95,27.68,-1.00,-1.0,2368
3495,2138495,17092,-404,620,17108.01,27.78,-1.00,-1.0,2362
3498,2138498,17028,-488,568,17044.46,27.78,-1.00,-1.0,2362
3501,2138501,17112,-436,468,17123.95,27.68,-1.00,-1.0,2362
3504,2138504,17028,-516,536,17044.25,27.78,-1.00,-1.0,2365
3507,2138507,17016,-392,644,17032.69,27.78,-1.00,-1.0,2349
3510,2138510,17100,-468,660,17119.13,27.68,-1.00,-1.0,2347
3513,2138513,17056,-504,580,17073.30,27.68,-1.00,-1.0,2364
3516,2138516,17104,-444,520,17117.66,27.78,-1.00,-1.0,2361
3519,2138519,17124,-496,552,17140.07,27.78,-1.00,-1.0,2361
3522,2138522,17032,-592,448,17048.17,27.73,-1.00,-1.0,2363
3525,2138525,17072,-468,528,17086.57,27.73,-1.00,-1.0,2360
3528,2138528,17132,-416,776,17154.61,27.73,-1.00,-1.0,2359
3531,2138531,17056,-484,608,17073.70,27.73,-1.00,-1.0,2360
3534,2138534,17140,-464,512,17153.92,27.73,-1.00,-1.0,2359
3537,2138537,17192,-468,516,17206.11,27.73,-1.00,-1.0,2360
3540,2138540,17120,-504,460,17133.59,27.73,-1.00,-1.0,2346
3543,2138543,17084,-504,592,17101.68,27.73,-1.00,-1.0,2362
3546,2138546,17096,-400,508,17108.22,27.73,-1.00,-1.0,2361
3549,2138549,17148,-460,540,17162.67,27.64,-1.00,-1.0,2361
3552,2138552,17044,-484,560,17060.06,27.82,-1.00,-1.0,2361
3555,2138555,17112,-456,508,17125.61,27.82,-1.00,-1.0,2360
3558,2138558,17036,-520,504,17051.38,27.73,-1.00,-1.0,2360
3561,2138561,17136,-556,424,17150.26,27.82,-1.00,-1.0,2362
3573,2138573,17124,-440,676,17142.99,27.73,-1.00,-1.0,2452
3576,2138576,17076,-472,684,17096.21,27.73,-1.00,-1.0,2370
3578,2138578,17080,-516,612,17098.75,27.68,-1.00,-1.0,2361
3581,2138581,17060,-432,524,17073.51,27.82,-1.00,-1.0,2365
3583,2138583,17124,-512,680,17145.14,27.73,-1.00,-1.0,2367
3586,2138586,17104,-504,532,17119.69,27.68,-1.00,-1.0,2359
3588,2138588,17180,-456,580,17195.83,27.68,-1.00,-1.0,2359
3591,2138591,17088,-428,544,17102.01,27.73,-1.00,-1.0,2366
3594,2138594,17064,-532,616,17083.40,27.73,-1.00,-1.0,2360
3596,2138596,17072,-556,696,17095.22,27.73,-1.00,-1.0,2359
3599,2138599,17148,-388,488,17159.33,27.78,-1.00,-1.0,2366
3601,2138601,17028,-400,480,17039.46,27.73,-1.00,-1.0,2366
3604,2138604,17116,-492,700,17137.37,27.78,-1.00,-1.0,2359
3606,2138606,17064,-588,792,17092.49,27.78,-1.00,-1.0,2359
3609,2138609,17060,-452,512,17073.67,27.73,-1.00,-1.0,2358
3612,2138612,17092,-476,588,17108.73,27.73,-1.00,-1.0,2363
3614,2138614,17184,-452,612,17200.83,27.73,-1.00,-1.0,2359
3617,2138617,17064,-528,508,17079.72,27.68,-1.00,-1.0,2366
3619,2138619,17136,-500,560,17152.44,27.73,-1.00,-1.0,2362
3622,2138622,17024,-456,548,17038.92,27.82,-1.00,-1.0,2359
3624,2138624,17152,-488,512,17166.58,27.78,-1.00,-1.0,2358
3627,2138627,17064,-408,524,17076.92,27.78,-1.00,-1.0,2359
3630,2138630,17096,-432,584,17111.43,27.59,-1.00,-1.0,2359
3633,2138633,16976,-412,560,16990.23,27.68,-1.00,-1.0,2359
3636,2138636,17156,-412,708,17175.54,27.68,-1.00,-1.0,2359
3639,2138639,17140,-464,552,17155.16,27.68,-1.00,-1.0,2360
3642,2138642,17040,-472,592,17056.81,27.68,-1.00,-1.0,2359
3645,2138645,17092,-388,532,17104.68,27.59,-1.00,-1.0,2359
3648,2138648,17136,-484,520,17150.72,27.78,-1.00,-1.0,2359
3651,2138651,17132,-412,512,17144.60,27.68,-1.00,-1.0,2360
3654,2138654,17104,-400,624,17120.05,27.78,-1.00,-1.0,2363
3657,2138657,17096,-464,592,17112.54,27.78,-1.00,-1.0,2359
3660,2138660,17168,-520,644,17187.94,27.73,-1.00,-1.0,2360
3663,2138663,17064,-484,648,17083.16,27.73,-1.00,-1.0,2360
3666,2138666,17164,-488,544,17179.55,27.73,-1.00,-1.0,2359
3669,2138669,17076,-516,672,17097.01,27.73,-1.00,-1.0,2359
3672,2138672,17056,-452,692,17076.02,27.64,-1.00,-1.0,2360
3675,2138675,17224,-452,588,17239.96,27.73,-1.00,-1.0,2359
3678,2138678,17216,-476,652,17234.92,27.82,-1.00,-1.0,2359
3681,2138681,17084,-464,528,17098.46,27.73,-1.00,-1.0,2360
3684,2138684,17052,-456,584,17068.09,27.73,-1.00,-1.0,2359
3687,2138687,17084,-456,624,17101.47,27.73,-1.00,-1.0,2359
3690,2138690,17100,-396,480,17111.32,27.73,-1.00,-1.0,2359
3693,2138693,17188,-540,564,17205.73,27.73,-1.00,-1.0,2359
3696,2138696,17116,-356,636,17131.51,27.64,-1.00,-1.0,2360
3699,2138699,17116,-372,652,17132.45,27.64,-1.00,-1.0,2360
3702,2138702,17028,-508,592,17045.86,27.73,-1.00,-1.0,2359
3705,2138705,17100,-420,580,17114.99,27.73,-1.00,-1.0,2359
3708,2138708,17104,-468,588,17120.50,27.82,-1.00,-1.0,2367
3711,2138711,17112,-456,616,17129.15,27.73,-1.00,-1.0,2367
3714,2138714,17116,-436,476,17128.17,27.82,-1.00,-1.0,2367
3717,2138717,17096,-424,520,17109.16,27.73,-1.00,-1.0,2367
3720,2138720,17068,-420,644,17085.31,27.73,-1.00,-1.0,2366
3723,2138723,17044,-476,624,17062.06,27.73,-1.00,-1.0,2368
3726,2138726,17080,-420,612,17096.12,27.73,-1.00,-1.0,2367
3729,2138729,17000,-440,596,17016.13,27.82,-1.00,-1.0,2366
3732,2138732,17040,-420,588,17055.31,27.64,-1.00,-1.0,2366
3735,2138735,17096,-432,492,17108.53,27.73,-1.00,-1.0,2367
3738,2138738,17072,-472,588,17088.64,27.73,-1.00,-1.0,2374
3741,2138741,17060,-520,552,17076.85,27.82,-1.00,-1.0,2374
3744,2138744,17156,-576,512,17173.30,27.68,-1.00,-1.0,2374
3747,2138747,17036,-392,520,17048.44,27.68,-1.00,-1.0,2374
3750,2138750,17100,-512,516,17115.44,27.78,-1.00,-1.0,2372
3753,2138753,17228,-520,568,17245.20,27.78,-1.00,-1.0,2374
3756,2138756,17100,-496,540,17115.71,27.87,-1.00,-1.0,2374
3759,2138759,17012,-480,572,17028.38,27.68,-1.00,-1.0,2366
3762,2138762,17044,-480,544,17059.43,27.78,-1.00,-1.0,2367
3765,2138765,17208,-412,616,17223.95,27.68,-1.00,-1.0,2367
3768,2138768,17076,-520,604,17094.59,27.68,-1.00,-1.0,2367
3780,2138780,17116,-548,580,17134.59,27.64,-1.00,-1.0,2442
3783,2138783,17140,-508,480,17154.24,27.73,-1.00,-1.0,2367
3785,2138785,17036,-352,584,17049.64,27.68,-1.00,-1.0,2355
3788,2138788,17072,-488,676,17092.35,27.78,-1.00,-1.0,2371
3791,2138791,17072,-432,512,17085.14,27.73,-1.00,-1.0,2355
3793,2138793,17120,-416,564,17134.34,27.73,-1.00,-1.0,2344
3796,2138796,17024,-488,488,17037.98,27.68,-1.00,-1.0,2362
3798,2138798,17088,-492,584,17105.05,27.78,-1.00,-1.0,2368
3801,2138801,17104,-340,620,17118.61,27.73,-1.00,-1.0,2360
3803,2138803,17144,-504,556,17160.42,27.73,-1.00,-1.0,2354
3806,2138806,17012,-556,632,17032.81,27.73,-1.00,-1.0,2358
3809,2138809,17060,-472,456,17072.62,27.68,-1.00,-1.0,2359
3811,2138811,17168,-444,532,17181.98,27.73,-1.00,-1.0,2360
3814,2138814,17112,-416,604,17127.71,27.73,-1.00,-1.0,2355
3816,2138816,17080,-464,620,17097.55,27.78,-1.00,-1.0,2362
3819,2138819,17008,-396,560,17021.82,27.78,-1.00,-1.0,2361
3821,2138821,17084,-444,528,17097.92,27.73,-1.00,-1.0,2361
3824,2138824,17052,-456,404,17062.88,27.73,-1.00,-1.0,2357
3826,2138826,17112,-392,640,17128.45,27.78,-1.00,-1.0,2354
3829,2138829,17124,-520,548,17140.66,27.73,-1.00,-1.0,2373
3832,2138832,17136,-392,528,17148.61,27.73,-1.00,-1.0,2355
3834,2138834,17152,-568,536,17169.77,27.73,-1.00,-1.0,2344
3837,2138837,17156,-432,528,17169.56,27.73,-1.00,-1.0,2354
3840,2138840,17072,-372,520,17083.97,27.73,-1.00,-1.0,2358
3843,2138843,17108,-524,668,17129.05,27.73,-1.00,-1.0,2355
3846,2138846,17076,-408,624,17092.27,27.82,-1.00,-1.0,2358
3849,2138849,17080,-444,644,17097.90,27.73,-1.00,-1.0,2355
3852,2138852,17172,-452,516,17185.70,27.73,-1.00,-1.0,2358
3855,2138855,17168,-576,584,17187.58,27.73,-1.00,-1.0,2355
3858,2138858,17032,-492,564,17048.44,27.73,-1.00,-1.0,2358
3861,2138861,17124,-376,408,17132.99,27.73,-1.00,-1.0,2355
3864,2138864,17112,-428,688,17131.17,27.68,-1.00,-1.0,2358
3867,2138867,17048,-432,580,17063.33,27.87,-1.00,-1.0,2355
3870,2138870,17124,-344,564,17136.74,27.78,-1.00,-1.0,2357
3873,2138873,17100,-428,552,17114.26,27.68,-1.00,-1.0,2354
3876,2138876,17084,-488,744,17107.15,27.78,-1.00,-1.0,2357
3879,2138879,17108,-576,460,17123.87,27.68,-1.00,-1.0,2355
3882,2138882,17044,-404,804,17067.73,27.78,-1.00,-1.0,2344
3885,2138885,17132,-468,536,17146.77,27.68,-1.00,-1.0,2354
3888,2138888,17168,-368,452,17177.89,27.78,-1.00,-1.0,2357
3891,2138891,17064,-528,568,17081.61,27.78,-1.00,-1.0,2341
3894,2138894,17116,-604,588,17136.74,27.68,-1.00,-1.0,2357
3897,2138897,17104,-480,552,17119.63,27.68,-1.00,-1.0,2354
3900,2138900,17120,-392,588,17134.58,27.68,-1.00,-1.0,2357
3903,2138903,17032,-384,672,17049.58,27.68,-1.00,-1.0,2355
3906,2138906,17112,-368,416,17121.01,27.78,-1.00,-1.0,2358
3909,2138909,16972,-456,576,16987.89,27.78,-1.00,-1.0,2356
3912,2138912,17148,-476,516,17162.36,27.68,-1.00,-1.0,2359
3915,2138915,17116,-364,536,17128.26,27.78,-1.00,-1.0,2354
3918,2138918,17080,-416,652,17097.50,27.78,-1.00,-1.0,2359
3921,2138921,17100,-416,464,17111.35,27.78,-1.00,-1.0,2360
3924,2138924,17072,-392,564,17085.81,27.68,-1.00,-1.0,2359
3927,2138927,17148,-424,576,17162.91,27.73,-1.00,-1.0,2363
3930,2138930,17124,-480,540,17139.23,27.73,-1.00,-1.0,2361
3933,2138933,17124,-452,576,17139.65,27.82,-1.00,-1.0,2361
3936,2138936,17120,-496,616,17138.26,27.73,-1.00,-1.0,2360
3939,2138939,17040,-404,608,17055.63,27.73,-1.00,-1.0,2360
3942,2138942,17160,-436,488,17172.47,27.82,-1.00,-1.0,2360
3945,2138945,17060,-556,600,17079.60,27.64,-1.00,-1.0,2362
3948,2138948,17228,-456,560,17243.13,27.64,-1.00,-1.0,2361
3951,2138951,16972,-380,456,16982.38,27.73,-1.00,-1.0,2359
3954,2138954,17192,-480,476,17205.29,27.73,-1.00,-1.0,2361
3957,2138957,17012,-432,544,17026.18,27.82,-1.00,-1.0,2360
3960,2138960,17096,-480,556,17111.77,27.73,-1.00,-1.0,2364
3963,2138963,17136,-444,556,17150.77,27.64,-1.00,-1.0,2361
3966,2138966,17040,-420,588,17055.31,27.73,-1.00,-1.0,2361
3969,2138969,17060,-408,448,17070.76,27.82,-1.00,-1.0,2361
3972,2138972,17208,-412,432,17218.35,27.82,-1.00,-1.0,2361
3975,2138975,17212,-448,556,17226.80,27.73,-1.00,-1.0,2360
3987,2138987,17092,-460,584,17108.16,27.73,-1.00,-1.0,2441
3990,2138990,17140,-436,500,17152.83,27.78,-1.00,-1.0,2368
3993,2138993,17004,-472,592,17020.85,27.73,-1.00,-1.0,2363
3995,2138995,17096,-456,760,17118.96,27.78,-1.00,-1.0,2370
3998,2138998,17172,-392,464,17182.74,27.78,-1.00,-1.0,2361
4000,2139000,17096,-392,560,17109.66,27.73,-1.00,-1.0,2358
4003,2139003,17080,-464,604,17096.97,27.73,-1.00,-1.0,2358
4006,2139006,17172,-436,516,17185.28,27.78,-1.00,-1.0,2364
4008,2139008,17008,-488,656,17027.64,27.78,-1.00,-1.0,2358
4011,2139011,17108,-356,552,17120.61,27.73,-1.00,-1.0,2366
4013,2139013,17156,-452,636,17173.73,27.78,-1.00,-1.0,2363
4016,2139016,17064,-524,540,17080.58,27.78,-1.00,-1.0,2346
4018,2139018,17100,-428,652,17117.78,27.78,-1.00,-1.0,2359
4021,2139021,17120,-456,600,17136.58,27.82,-1.00,-1.0,2359
4024,2139024,17128,-464,628,17145.79,27.73,-1.00,-1.0,2359
4026,2139026,17184,-456,656,17202.56,27.68,-1.00,-1.0,2367
4029,2139029,17148,-468,476,17160.99,27.64,-1.00,-1.0,2360
4031,2139031,17132,-340,572,17144.92,27.73,-1.00,-1.0,2360
4034,2139034,17104,-504,604,17122.08,27.82,-1.00,-1.0,2367
4036,2139036,17016,-400,480,17027.47,27.68,-1.00,-1.0,2367
4039,2139039,17108,-480,592,17124.97,27.73,-1.00,-1.0,2359
4041,2139041,17080,-420,660,17097.91,27.73,-1.00,-1.0,2358
4044,2139044,17020,-440,656,17038.32,27.68,-1.00,-1.0,2366
4047,2139047,17100,-432,508,17113.00,27.78,-1.00,-1.0,2367
4050,2139050,17116,-412,536,17129.35,27.68,-1.00,-1.0,2366
4053,2139053,17084,-464,620,17101.54,27.68,-1.00,-1.0,2361
4056,2139056,17252,-332,600,17265.62,27.68,-1.00,-1.0,2366
4059,2139059,17116,-456,636,17133.88,27.73,-1.00,-1.0,2366
4062,2139062,17092,-524,564,17109.33,27.73,-1.00,-1.0,2361
4065,2139065,17080,-480,524,17094.78,27.82,-1.00,-1.0,2362
4068,2139068,17084,-420,412,17094.13,27.73,-1.00,-1.0,2361
4071,2139071,17088,-408,632,17104.55,27.82,-1.00,-1.0,2362
4074,2139074,17140,-456,784,17163.98,27.73,-1.00,-1.0,2347
4077,2139077,17168,-500,592,17185.48,27.73,-1.00,-1.0,2347
4080,2139080,17132,-484,604,17149.47,27.73,-1.00,-1.0,2362
4083,2139083,17112,-468,428,17123.75,27.73,-1.00,-1.0,2361
4086,2139086,17092,-408,628,17108.40,27.73,-1.00,-1.0,2358
4089,2139089,17136,-420,784,17159.07,27.82,-1.00,-1.0,2360
4092,2139092,17136,-364,512,17147.51,27.73,-1.00,-1.0,2359
4095,2139095,17152,-372,600,17166.52,27.73,-1.00,-1.0,2359
4098,2139098,17052,-464,580,17068.17,27.73,-1.00,-1.0,2359
4101,2139101,17000,-388,628,17016.02,27.73,-1.00,-1.0,2359
4104,2139104,17160,-460,596,17176.51,27.73,-1.00,-1.0,2359
4107,2139107,17064,-464,580,17080.16,27.73,-1.00,-1.0,2358
4110,2139110,17020,-520,564,17037.28,27.73,-1.00,-1.0,2359
4113,2139113,17064,-456,564,17079.41,27.73,-1.00,-1.0,2359
4116,2139116,17072,-384,580,17086.17,27.73,-1.00,-1.0,2359
4119,2139119,17032,-552,544,17049.62,27.73,-1.00,-1.0,2358
4122,2139122,17076,-396,536,17089.00,27.64,-1.00,-1.0,2359
4125,2139125,17124,-368,692,17141.93,27.73,-1.00,-1.0,2359
4128,2139128,17096,-456,728,17117.57,27.73,-1.00,-1.0,2359
4131,2139131,17132,-524,608,17150.79,27.78,-1.00,-1.0,2359
4134,2139134,17128,-420,596,17143.51,27.78,-1.00,-1.0,2359
4137,2139137,17140,-432,620,17156.65,27.78,-1.00,-1.0,2359
4140,2139140,17184,-452,632,17201.56,27.78,-1.00,-1.0,2358
4143,2139143,17084,-528,432,17097.62,27.78,-1.00,-1.0,2359
4146,2139146,17096,-372,624,17111.43,27.78,-1.00,-1.0,2358
4149,2139149,17136,-460,628,17153.67,27.68,-1.00,-1.0,2359
4152,2139152,17084,-508,560,17100.72,27.78,-1.00,-1.0,2358
4155,2139155,17196,-416,540,17209.51,27.78,-1.00,-1.0,2358
4158,2139158,17104,-488,628,17122.48,27.68,-1.00,-1.0,2359
4161,2139161,17116,-408,520,17128.76,27.78,-1.00,-1.0,2346
4164,2139164,17060,-480,556,17075.80,27.78,-1.00,-1.0,2346
4167,2139167,17168,-492,536,17183.41,27.68,-1.00,-1.0,2359
4170,2139170,17028,-456,684,17047.83,27.68,-1.00,-1.0,2359
4173,2139173,17084,-516,536,17100.19,27.78,-1.00,-1.0,2359
4176,2139176,16976,-472,444,16988.36,27.78,-1.00,-1.0,2358
4179,2139179,17148,-492,512,17162.70,27.78,-1.00,-1.0,2358
4182,2139182,16992,-456,600,17008.70,27.78,-1.00,-1.0,2362
4185,2139185,17072,-444,424,17083.04,27.68,-1.00,-1.0,2359
4198,2139198,17028,-424,520,17041.21,27.78,-1.00,-1.0,2441
4200,2139200,17148,-412,608,17163.72,27.78,-1.00,-1.0,2371
4203,2139203,17164,-568,608,17184.15,27.78,-1.00,-1.0,2359
4206,2139206,17128,-424,520,17141.14,27.73,-1.00,-1.0,2360
4208,2139208,17088,-388,672,17105.61,27.82,-1.00,-1.0,2367
4211,2139211,17072,-432,616,17088.57,27.68,-1.00,-1.0,2362
4213,2139213,17208,-444,672,17226.84,27.68,-1.00,-1.0,2359
4216,2139216,17072,-512,584,17089.66,27.73,-1.00,-1.0,2366
4218,2139218,17068,-540,556,17085.59,27.68,-1.00,-1.0,2366
4221,2139221,17084,-508,596,17101.94,27.78,-1.00,-1.0,2358
4223,2139223,17168,-504,536,17183.76,27.82,-1.00,-1.0,2358
4226,2139226,17112,-376,536,17124.52,27.64,-1.00,-1.0,2374
4229,2139229,17056,-364,512,17067.56,27.73,-1.00,-1.0,2359
4231,2139231,17080,-396,748,17100.96,27.68,-1.00,-1.0,2359
4234,2139234,17108,-456,544,17122.72,27.73,-1.00,-1.0,2370
4236,2139236,17080,-380,488,17091.20,27.68,-1.00,-1.0,2367
4239,2139239,17104,-428,628,17120.88,27.78,-1.00,-1.0,2358
4242,2139242,17192,-444,536,17206.08,27.82,-1.00,-1.0,2420
4244,2139244,17120,-384,672,17137.49,27.73,-1.00,-1.0,2363
4247,2139247,17048,-452,624,17065.40,27.73,-1.00,-1.0,2367
4249,2139249,17092,-512,672,17112.87,27.78,-1.00,-1.0,2361
4252,2139252,17068,-516,516,17083.59,27.87,-1.00,-1.0,2359
4255,2139255,17104,-468,612,17121.34,27.64,-1.00,-1.0,2367
4258,2139258,17072,-412,532,17085.26,27.82,-1.00,-1.0,2366
4261,2139261,17156,-368,608,17170.71,27.73,-1.00,-1.0,2363
4264,2139264,17024,-444,512,17037.48,27.73,-1.00,-1.0,2365
4267,2139267,17104,-460,360,17113.97,27.73,-1.00,-1.0,2363
4270,2139270,17192,-384,528,17204.39,27.82,-1.00,-1.0,2361
4273,2139273,17052,-356,532,17064.01,27.73,-1.00,-1.0,2361
4276,2139276,17060,-388,500,17071.73,27.64,-1.00,-1.0,2361
4279,2139279,17220,-392,500,17231.72,27.82,-1.00,-1.0,2360
4282,2139282,17060,-368,516,17071.77,27.82,-1.00,-1.0,2361
4285,2139285,17168,-484,740,17190.76,27.73,-1.00,-1.0,2360
4288,2139288,17168,-384,552,17181.16,27.78,-1.00,-1.0,2362
4291,2139291,17144,-488,644,17163.03,27.78,-1.00,-1.0,2361
4294,2139294,17184,-444,532,17197.96,27.59,-1.00,-1.0,2360
4297,2139297,17076,-392,488,17087.47,27.78,-1.00,-1.0,2363
4300,2139300,17144,-460,564,17159.44,27.68,-1.00,-1.0,2360
4303,2139303,17072,-496,488,17086.17,27.78,-1.00,-1.0,2360
4306,2139306,17056,-384,652,17072.78,27.68,-1.00,-1.0,2363
4309,2139309,17228,-464,660,17246.88,27.68,-1.00,-1.0,2361
4312,2139312,17196,-428,616,17212.35,27.78,-1.00,-1.0,2359
4315,2139315,17108,-344,524,17119.48,27.78,-1.00,-1.0,2359
4318,2139318,17116,-516,612,17134.71,27.68,-1.00,-1.0,2359
4321,2139321,16964,-404,472,16975.37,27.78,-1.00,-1.0,2359
4324,2139324,17028,-492,472,17041.64,27.78,-1.00,-1.0,2359
4327,2139327,17040,-444,464,17052.10,27.78,-1.00,-1.0,2359
4330,2139330,17080,-408,520,17092.78,27.78,-1.00,-1.0,2359
4333,2139333,17072,-412,548,17085.76,27.82,-1.00,-1.0,2359
4336,2139336,17104,-488,488,17117.92,27.82,-1.00,-1.0,2359
4339,2139339,17156,-440,624,17172.98,27.73,-1.00,-1.0,2360
4342,2139342,17100,-396,652,17117.01,27.73,-1.00,-1.0,2359
4345,2139345,17104,-372,712,17122.85,27.73,-1.00,-1.0,2359
4348,2139348,17092,-496,544,17107.85,27.73,-1.00,-1.0,2359
4351,2139351,17076,-448,516,17089.67,27.82,-1.00,-1.0,2360
4354,2139354,17092,-444,520,17105.67,27.64,-1.00,-1.0,2362
4357,2139357,17112,-380,676,17129.56,27.73,-1.00,-1.0,2359
4360,2139360,17100,-404,504,17112.20,27.73,-1.00,-1.0,2359
4363,2139363,17076,-436,712,17096.40,27.73,-1.00,-1.0,2360
4366,2139366,17008,-500,504,17022.81,27.82,-1.00,-1.0,2359
4369,2139369,17132,-408,528,17144.99,27.64,-1.00,-1.0,2360
4372,2139372,17136,-356,480,17146.42,27.73,-1.00,-1.0,2359
4375,2139375,17076,-448,608,17092.69,27.64,-1.00,-1.0,2359
4378,2139378,17020,-452,556,17035.08,27.73,-1.00,-1.0,2360
4381,2139381,17080,-456,584,17096.06,27.73,-1.00,-1.0,2360
4384,2139384,17004,-400,728,17024.28,27.73,-1.00,-1.0,2360
4387,2139387,16996,-420,556,17010.28,27.73,-1.00,-1.0,2359
4390,2139390,17148,-504,676,17168.72,27.73,-1.00,-1.0,2359
4393,2139393,17132,-348,616,17146.60,27.73,-1.00,-1.0,2359
4405,2139405,17108,-540,500,17123.82,27.78,-1.00,-1.0,2448
4407,2139407,17072,-476,552,17087.55,27.73,-1.00,-1.0,2370
4410,2139410,17144,-516,484,17158.59,27.68,-1.00,-1.0,2360
4413,2139413,17156,-456,524,17170.06,27.87,-1.00,-1.0,2367
4415,2139415,17136,-488,604,17153.58,27.73,-1.00,-1.0,2359
4418,2139418,17084,-596,676,17107.75,27.78,-1.00,-1.0,2359
4420,2139420,17236,-500,556,17252.21,27.78,-1.00,-1.0,2362
4423,2139423,17104,-372,456,17114.12,27.73,-1.00,-1.0,2362
4425,2139425,17104,-540,552,17121.42,27.82,-1.00,-1.0,2362
4428,2139428,16972,-480,636,16990.69,27.78,-1.00,-1.0,2359
4431,2139431,17056,-388,576,17070.13,27.78,-1.00,-1.0,2359
4433,2139433,17052,-476,548,17067.44,27.82,-1.00,-1.0,2367
4436,2139436,17024,-464,600,17040.89,27.64,-1.00,-1.0,2358
4438,2139438,17148,-412,460,17159.12,27.68,-1.00,-1.0,2359
4441,2139441,17036,-472,676,17055.94,27.73,-1.00,-1.0,2366
4443,2139443,17172,-392,488,17183.40,27.64,-1.00,-1.0,2368
4446,2139446,17188,-484,508,17202.32,27.78,-1.00,-1.0,2359
4448,2139448,17076,-452,584,17091.96,27.78,-1.00,-1.0,2359
4451,2139451,17096,-568,696,17119.59,27.82,-1.00,-1.0,2374
4454,2139454,17092,-424,552,17106.17,27.73,-1.00,-1.0,2359
4456,2139456,17124,-492,676,17144.40,27.78,-1.00,-1.0,2359
4459,2139459,17052,-496,664,17072.13,27.68,-1.00,-1.0,2368
4462,2139462,17132,-436,604,17148.19,27.73,-1.00,-1.0,2369
4465,2139465,17200,-480,540,17215.17,27.82,-1.00,-1.0,2366
4468,2139468,17088,-504,628,17106.96,27.73,-1.00,-1.0,2366
4471,2139471,17096,-476,712,17117.44,27.73,-1.00,-1.0,2366
4474,2139474,17148,-412,704,17167.39,27.73,-1.00,-1.0,2366
4477,2139477,17160,-384,564,17173.56,27.73,-1.00,-1.0,2367
4480,2139480,17100,-368,472,17110.47,27.73,-1.00,-1.0,2368
4483,2139483,17120,-492,656,17139.63,27.73,-1.00,-1.0,2366
4486,2139486,17144,-388,476,17154.99,27.73,-1.00,-1.0,2366
4489,2139489,17192,-348,488,17202.45,27.82,-1.00,-1.0,2362
4492,2139492,17100,-388,584,17114.37,27.73,-1.00,-1.0,2367
4495,2139495,17056,-488,632,17074.68,27.73,-1.00,-1.0,2367
4498,2139498,17056,-452,600,17072.54,27.73,-1.00,-1.0,2362
4501,2139501,17000,-456,596,17016.55,27.73,-1.00,-1.0,2362
4504,2139504,17072,-412,844,17097.81,27.73,-1.00,-1.0,2362
4507,2139507,17204,-512,528,17219.71,27.73,-1.00,-1.0,2363
4510,2139510,17072,-396,524,17084.63,27.73,-1.00,-1.0,2348
4513,2139513,17160,-556,500,17176.28,27.73,-1.00,-1.0,2347
4516,2139516,17104,-440,668,17122.69,27.73,-1.00,-1.0,2362
4519,2139519,17156,-372,460,17166.20,27.73,-1.00,-1.0,2362
4522,2139522,17084,-452,576,17099.68,27.73,-1.00,-1.0,2359
4525,2139525,17128,-428,656,17145.90,27.73,-1.00,-1.0,2361
4528,2139528,17140,-516,584,17157.71,27.73,-1.00,-1.0,2360
4531,2139531,17084,-460,520,17098.10,27.73,-1.00,-1.0,2360
4534,2139534,17048,-408,672,17066.12,27.78,-1.00,-1.0,2360
4537,2139537,17092,-504,584,17109.40,27.87,-1.00,-1.0,2359
4540,2139540,17052,-528,564,17069.49,27.87,-1.00,-1.0,2346
4543,2139543,17100,-440,632,17117.33,27.78,-1.00,-1.0,2346
4546,2139546,17028,-384,448,17038.22,27.68,-1.00,-1.0,2362
4549,2139549,17224,-420,488,17236.03,27.68,-1.00,-1.0,2361
4552,2139552,17128,-456,520,17141.96,27.78,-1.00,-1.0,2361
4555,2139555,17060,-452,572,17075.57,27.78,-1.00,-1.0,2361
4558,2139558,17052,-396,724,17071.96,27.78,-1.00,-1.0,2361
4561,2139561,17160,-480,616,17177.76,27.68,-1.00,-1.0,2364
4564,2139564,17072,-452,556,17087.03,27.78,-1.00,-1.0,2361
4567,2139567,17128,-484,612,17145.76,27.78,-1.00,-1.0,2360
4570,2139570,16992,-436,504,17005.06,27.78,-1.00,-1.0,2359
4573,2139573,17056,-556,492,17072.15,27.78,-1.00,-1.0,2361
4576,2139576,17044,-416,476,17055.72,27.78,-1.00,-1.0,2360
4579,2139579,17164,-532,672,17185.39,27.78,-1.00,-1.0,2359
4582,2139582,17040,-504,716,17062.48,27.78,-1.00,-1.0,2362
4585,2139585,17056,-404,532,17069.08,27.87,-1.00,-1.0,2360
4588,2139588,17064,-420,532,17077.46,27.78,-1.00,-1.0,2359
4591,2139591,17076,-456,536,17090.49,27.68,-1.00,-1.0,2359
4594,2139594,17072,-528,524,17088.20,27.78,-1.00,-1.0,2360
4597,2139597,17136,-408,488,17147.80,27.78,-1.00,-1.0,2346
4600,2139600,17128,-460,520,17142.06,27.78,-1.00,-1.0,2346
4603,2139603,17180,-436,624,17196.86,27.82,-1.00,-1.0,2360
4615,2139615,17124,-484,528,17138.97,27.68,-1.00,-1.0,2457
4618,2139618,17080,-456,548,17094.87,27.68,-1.00,-1.0,2375
4620,2139620,17036,-448,576,17051.62,27.78,-1.00,-1.0,2367
4623,2139623,17176,-416,368,17184.98,27.73,-1.00,-1.0,2359
4625,2139625,17064,-492,600,17081.63,27.82,-1.00,-1.0,2360
4628,2139628,17068,-476,524,17082.67,27.78,-1.00,-1.0,2365
4631,2139631,17036,-472,684,17056.26,27.78,-1.00,-1.0,2360
4633,2139633,17180,-412,600,17195.41,27.82,-1.00,-1.0,2359
4636,2139636,17160,-452,512,17173.59,27.82,-1.00,-1.0,2367
4638,2139638,17096,-364,552,17108.78,27.68,-1.00,-1.0,2368
4641,2139641,17084,-396,648,17100.87,27.73,-1.00,-1.0,2359
4643,2139643,17072,-360,508,17083.35,27.82,-1.00,-1.0,2360
4646,2139646,17076,-428,644,17093.50,27.78,-1.00,-1.0,2359
4649,2139649,17220,-492,596,17237.33,27.78,-1.00,-1.0,2364
4651,2139651,17152,-512,600,17170.13,27.73,-1.00,-1.0,2360
4654,2139654,17088,-404,616,17103.87,27.73,-1.00,-1.0,2359
4656,2139656,17104,-388,588,17118.50,27.73,-1.00,-1.0,2360
4659,2139659,17168,-440,616,17184.68,27.87,-1.00,-1.0,2359
4661,2139661,17080,-492,768,17104.34,27.73,-1.00,-1.0,2359
4664,2139664,17080,-400,596,17095.08,27.73,-1.00,-1.0,2362
4667,2139667,17096,-396,432,17106.04,27.78,-1.00,-1.0,2359
4669,2139669,17140,-384,684,17157.94,27.73,-1.00,-1.0,2362
4672,2139672,17020,-548,688,17042.71,27.78,-1.00,-1.0,2360
4675,2139675,17060,-432,532,17073.76,27.78,-1.00,-1.0,2359
4678,2139678,17100,-512,564,17116.96,27.87,-1.00,-1.0,2359
4681,2139681,17148,-424,608,17164.01,27.78,-1.00,-1.0,2359
4684,2139684,17048,-396,612,17063.58,27.78,-1.00,-1.0,2359
4687,2139687,17072,-376,592,17086.40,27.78,-1.00,-1.0,2359
4690,2139690,17100,-472,456,17112.59,27.78,-1.00,-1.0,2359
4693,2139693,17112,-404,512,17124.42,27.78,-1.00,-1.0,2359
4696,2139696,17176,-444,504,17189.13,27.68,-1.00,-1.0,2359
4699,2139699,17128,-448,696,17147.99,27.68,-1.00,-1.0,2359
4702,2139702,17080,-508,496,17094.75,27.78,-1.00,-1.0,2359
4705,2139705,17148,-464,612,17165.19,27.78,-1.00,-1.0,2359
4708,2139708,17052,-388,628,17067.97,27.68,-1.00,-1.0,2354
4711,2139711,17108,-412,700,17127.27,27.78,-1.00,-1.0,2367
4714,2139714,17112,-464,544,17126.93,27.78,-1.00,-1.0,2367
4717,2139717,17060,-504,564,17076.76,27.78,-1.00,-1.0,2367
4720,2139720,17104,-444,512,17117.42,27.68,-1.00,-1.0,2367
4723,2139723,17120,-460,612,17137.11,27.97,-1.00,-1.0,2367
4726,2139726,17048,-472,668,17067.61,27.78,-1.00,-1.0,2367
4729,2139729,17088,-484,544,17103.51,27.78,-1.00,-1.0,2367
4732,2139732,17100,-372,612,17114.99,27.82,-1.00,-1.0,2367
4735,2139735,17032,-472,560,17047.74,27.82,-1.00,-1.0,2366
4738,2139738,17124,-416,416,17134.10,27.73,-1.00,-1.0,2365
4741,2139741,17052,-396,556,17065.66,27.73,-1.00,-1.0,2375
4744,2139744,17168,-464,524,17182.26,27.73,-1.00,-1.0,2374
4747,2139747,17064,-468,476,17077.05,27.82,-1.00,-1.0,2374
4750,2139750,17152,-408,584,17166.79,27.82,-1.00,-1.0,2374
4753,2139753,16968,-412,616,16984.18,27.73,-1.00,-1.0,2375
4756,2139756,17016,-504,472,17030.00,27.73,-1.00,-1.0,2375
4759,2139759,17060,-404,564,17074.10,27.82,-1.00,-1.0,2367
4762,2139762,17132,-484,652,17151.23,27.73,-1.00,-1.0,2367
4765,2139765,17076,-560,652,17097.62,27.73,-1.00,-1.0,2368
4768,2139768,17112,-436,672,17130.74,27.73,-1.00,-1.0,2367
4771,2139771,17088,-484,684,17108.53,27.73,-1.00,-1.0,2368
4774,2139774,17120,-452,536,17134.35,27.73,-1.00,-1.0,2367
4777,2139777,17088,-436,612,17104.51,27.73,-1.00,-1.0,2362
4780,2139780,17128,-396,468,17138.97,27.73,-1.00,-1.0,2367
4783,2139783,17080,-436,532,17093.84,27.73,-1.00,-1.0,2362
4786,2139786,17092,-448,560,17107.04,27.82,-1.00,-1.0,2362
4789,2139789,17080,-500,564,17096.62,27.73,-1.00,-1.0,2362
4792,2139792,17108,-444,592,17124.00,27.82,-1.00,-1.0,2362
4795,2139795,17132,-396,720,17151.70,27.73,-1.00,-1.0,2348
4798,2139798,17076,-296,560,17087.74,27.82,-1.00,-1.0,2346
4801,2139801,17068,-488,516,17082.77,27.73,-1.00,-1.0,2362
4804,2139804,17080,-456,580,17095.93,27.73,-1.00,-1.0,2362
4807,2139807,17076,-500,436,17088.88,27.64,-1.00,-1.0,2360
4810,2139810,17124,-436,476,17136.16,27.73,-1.00,-1.0,2362
4822,2139822,17088,-428,560,17102.53,27.82,-1.00,-1.0,2445
4825,2139825,17076,-428,756,17098.08,27.73,-1.00,-1.0,2367
4828,2139828,17148,-396,464,17158.85,27.73,-1.00,-1.0,2364
4830,2139830,17080,-324,688,17096.92,27.78,-1.00,-1.0,2358
4833,2139833,17204,-436,684,17223.11,27.68,-1.00,-1.0,2355
4835,2139835,17112,-480,480,17125.46,27.82,-1.00,-1.0,2363
4838,2139838,16992,-468,572,17008.06,27.68,-1.00,-1.0,2364
4840,2139840,17124,-520,588,17141.98,27.78,-1.00,-1.0,2359
4843,2139843,17028,-500,612,17046.33,27.82,-1.00,-1.0,2358
4846,2139846,17104,-516,500,17119.09,27.82,-1.00,-1.0,2355
4848,2139848,17144,-424,584,17159.18,27.64,-1.00,-1.0,2365
4851,2139851,17044,-500,600,17061.88,27.68,-1.00,-1.0,2355
4853,2139853,17056,-388,584,17070.40,27.82,-1.00,-1.0,2361
4856,2139856,17164,-516,620,17182.94,27.82,-1.00,-1.0,2367
4858,2139858,17148,-460,560,17163.31,27.78,-1.00,-1.0,2366
4861,2139861,17100,-468,508,17113.94,27.78,-1.00,-1.0,2358
4863,2139863,17192,-540,572,17209.99,27.82,-1.00,-1.0,2342
4866,2139866,17156,-452,556,17170.96,27.73,-1.00,-1.0,2358
4869,2139869,17140,-476,504,17154.01,27.68,-1.00,-1.0,2357
4871,2139871,17056,-512,572,17073.27,27.78,-1.00,-1.0,2358
4874,2139874,17116,-440,628,17133.17,27.73,-1.00,-1.0,2355
4876,2139876,17144,-396,408,17153.43,27.73,-1.00,-1.0,2362
4879,2139879,17088,-484,604,17105.52,27.82,-1.00,-1.0,2358
4882,2139882,17156,-420,644,17173.22,27.82,-1.00,-1.0,2355
4885,2139885,17052,-484,500,17066.19,27.82,-1.00,-1.0,2345
4888,2139888,17072,-456,632,17089.78,27.73,-1.00,-1.0,2342
4891,2139891,17084,-416,552,17097.98,27.73,-1.00,-1.0,2358
4894,2139894,17124,-416,520,17136.94,27.82,-1.00,-1.0,2355
4897,2139897,17048,-424,580,17063.13,27.73,-1.00,-1.0,2358
4900,2139900,17076,-376,488,17087.11,27.73,-1.00,-1.0,2355
4903,2139903,17140,-376,560,17153.27,27.73,-1.00,-1.0,2359
4906,2139906,17144,-436,560,17158.68,27.82,-1.00,-1.0,2354
4909,2139909,17120,-460,492,17133.24,27.73,-1.00,-1.0,2358
4912,2139912,17140,-460,588,17156.25,27.64,-1.00,-1.0,2356
4915,2139915,17076,-380,500,17087.54,27.73,-1.00,-1.0,2360
4918,2139918,17156,-460,608,17172.93,27.73,-1.00,-1.0,2360
4921,2139921,17124,-488,668,17143.97,27.73,-1.00,-1.0,2361
4924,2139924,17028,-476,684,17048.38,27.73,-1.00,-1.0,2360
4927,2139927,17124,-472,600,17141.01,27.82,-1.00,-1.0,2360
4930,2139930,17020,-468,536,17034.87,27.82,-1.00,-1.0,2362
4933,2139933,17168,-460,600,17184.64,27.82,-1.00,-1.0,2363
4936,2139936,16964,-508,536,16980.07,27.73,-1.00,-1.0,2361
4939,2139939,17088,-472,556,17103.56,27.78,-1.00,-1.0,2362
4942,2139942,17116,-444,676,17135.10,27.78,-1.00,-1.0,2361
4945,2139945,17060,-432,508,17073.03,27.68,-1.00,-1.0,2363
4948,2139948,17192,-592,740,17218.10,27.68,-1.00,-1.0,2361
4951,2139951,17184,-468,648,17202.58,27.78,-1.00,-1.0,2360
4954,2139954,17008,-412,620,17024.28,27.78,-1.00,-1.0,2360
4957,2139957,17060,-352,712,17078.48,27.68,-1.00,-1.0,2362
4960,2139960,17092,-528,468,17106.56,27.78,-1.00,-1.0,2361
4963,2139963,17096,-384,508,17107.86,27.78,-1.00,-1.0,2363
4966,2139966,17164,-400,572,17178.19,27.78,-1.00,-1.0,2362
4969,2139969,17140,-484,548,17155.59,27.68,-1.00,-1.0,2364
4972,2139972,17088,-436,780,17111.35,27.78,-1.00,-1.0,2361
4975,2139975,17176,-488,520,17190.80,27.78,-1.00,-1.0,2366
4978,2139978,17132,-520,620,17151.10,27.78,-1.00,-1.0,2363
4981,2139981,17016,-472,580,17032.42,27.78,-1.00,-1.0,2363
4984,2139984,17160,-484,672,17179.97,27.78,-1.00,-1.0,2364
4987,2139987,17044,-552,484,17059.80,27.78,-1.00,-1.0,2361
4990,2139990,17136,-488,540,17151.45,27.78,-1.00,-1.0,2360
4993,2139993,17152,-384,564,17165.57,27.78,-1.00,-1.0,2371
4996,2139996,17156,-472,536,17170.86,27.87,-1.00,-1.0,2369
4999,2139999,17116,-496,476,17129.80,27.73,-1.00,-1.0,2368
5002,2140002,17100,-480,500,17114.04,27.73,-1.00,-1.0,2368
5005,2140005,17004,-512,744,17027.97,27.64,-1.00,-1.0,2369
5008,2140008,17072,-388,568,17085.85,27.73,-1.00,-1.0,2368
5011,2140011,17076,-372,532,17088.33,27.82,-1.00,-1.0,2370
5014,2140014,16992,-428,452,17003.40,27.82,-1.00,-1.0,2368
5017,2140017,17028,-476,448,17040.54,27.82,-1.00,-1.0,2368
5030,2140030,17196,-464,436,17207.78,27.78,-1.00,-1.0,2440
5032,2140032,17176,-456,388,17186.43,27.68,-1.00,-1.0,2369
5035,2140035,17136,-492,604,17153.70,27.82,-1.00,-1.0,2368
5037,2140037,17088,-452,580,17103.81,27.82,-1.00,-1.0,2361
5040,2140040,17072,-472,484,17085.38,27.73,-1.00,-1.0,2359
5042,2140042,17064,-484,496,17078.07,27.78,-1.00,-1.0,2359
5045,2140045,17068,-492,552,17084.01,27.73,-1.00,-1.0,2375
5048,2140048,17076,-492,500,17090.40,27.82,-1.00,-1.0,2360
5050,2140050,17092,-452,608,17108.78,27.68,-1.00,-1.0,2360
5053,2140053,17096,-356,432,17105.16,27.73,-1.00,-1.0,2367
5055,2140055,17112,-372,644,17128.15,27.73,-1.00,-1.0,2367
5058,2140058,17244,-472,476,17257.03,27.82,-1.00,-1.0,2347
5060,2140060,17124,-424,592,17139.47,27.78,-1.00,-1.0,2359
5063,2140063,17128,-372,712,17146.83,27.64,-1.00,-1.0,2368
5066,2140066,17120,-428,516,17133.12,27.73,-1.00,-1.0,2361
5068,2140068,17064,-516,696,17085.98,27.68,-1.00,-1.0,2359
5071,2140071,17068,-444,564,17083.09,27.68,-1.00,-1.0,2367
5073,2140073,17192,-448,684,17211.43,27.73,-1.00,-1.0,2361
5076,2140076,17108,-520,732,17131.55,27.82,-1.00,-1.0,2362
5078,2140078,17040,-532,636,17060.16,27.87,-1.00,-1.0,2360
5081,2140081,17064,-408,440,17074.55,27.78,-1.00,-1.0,2359
5084,2140084,17080,-488,468,17093.38,27.73,-1.00,-1.0,2366
5086,2140086,17088,-416,520,17100.97,27.78,-1.00,-1.0,2362
5089,2140089,17080,-424,528,17093.42,27.78,-1.00,-1.0,2359
5092,2140092,17088,-552,688,17110.75,27.78,-1.00,-1.0,2358
5095,2140095,17096,-432,592,17111.70,27.78,-1.00,-1.0,2359
5098,2140098,17020,-444,560,17035.00,27.78,-1.00,-1.0,2359
5101,2140101,17116,-472,532,17130.77,27.68,-1.00,-1.0,2359
5104,2140104,17072,-472,444,17084.29,27.68,-1.00,-1.0,2359
5107,2140107,17072,-428,536,17085.77,27.78,-1.00,-1.0,2359
5110,2140110,17112,-404,460,17122.95,27.78,-1.00,-1.0,2359
5113,2140113,17068,-408,620,17084.13,27.78,-1.00,-1.0,2359
5116,2140116,17100,-476,632,17118.29,27.78,-1.00,-1.0,2359
5119,2140119,17148,-428,592,17163.55,27.78,-1.00,-1.0,2359
5122,2140122,17052,-428,708,17072.06,27.78,-1.00,-1.0,2359
5125,2140125,17124,-512,476,17138.26,27.68,-1.00,-1.0,2359
5128,2140128,17132,-432,632,17149.10,27.78,-1.00,-1.0,2359
5131,2140131,17052,-412,544,17065.65,27.68,-1.00,-1.0,2359
5134,2140134,17156,-520,640,17175.81,27.87,-1.00,-1.0,2359
5137,2140137,17180,-352,696,17197.70,27.68,-1.00,-1.0,2360
5140,2140140,17172,-484,708,17193.40,27.73,-1.00,-1.0,2359
5143,2140143,17176,-372,580,17189.82,27.73,-1.00,-1.0,2359
5146,2140146,17156,-532,428,17169.58,27.73,-1.00,-1.0,2359
5149,2140149,17032,-472,660,17051.32,27.82,-1.00,-1.0,2359
5152,2140152,17104,-500,580,17121.13,27.73,-1.00,-1.0,2359
5155,2140155,17000,-480,608,17017.64,27.82,-1.00,-1.0,2359
5158,2140158,17060,-544,496,17075.88,27.73,-1.00,-1.0,2346
5161,2140161,17008,-384,492,17019.45,27.73,-1.00,-1.0,2346
5164,2140164,17108,-464,584,17124.25,27.73,-1.00,-1.0,2359
5167,2140167,17228,-432,572,17242.91,27.73,-1.00,-1.0,2359
5170,2140170,17104,-504,580,17121.25,27.82,-1.00,-1.0,2359
5173,2140173,17060,-488,648,17079.28,27.64,-1.00,-1.0,2359
5176,2140176,17108,-496,576,17124.88,27.73,-1.00,-1.0,2359
5179,2140179,17124,-420,488,17136.10,27.82,-1.00,-1.0,2359
5182,2140182,17156,-432,600,17171.92,27.73,-1.00,-1.0,2361
5185,2140185,17148,-452,544,17162.58,27.73,-1.00,-1.0,2359
5188,2140188,17044,-456,740,17066.15,27.73,-1.00,-1.0,2359
5191,2140191,17120,-492,652,17139.47,27.73,-1.00,-1.0,2359
5194,2140194,17072,-660,548,17093.54,27.73,-1.00,-1.0,2360
5197,2140197,17084,-416,440,17094.73,27.82,-1.00,-1.0,2359
5201,2140201,17068,-416,580,17082.92,27.73,-1.00,-1.0,2359
5204,2140204,17048,-324,576,17060.80,27.73,-1.00,-1.0,2360
5207,2140207,17048,-468,404,17059.21,27.68,-1.00,-1.0,2359
5210,2140210,17164,-444,508,17177.26,27.78,-1.00,-1.0,2359
5213,2140213,17148,-408,420,17157.99,27.78,-1.00,-1.0,2360
5216,2140216,17048,-440,700,17068.04,27.68,-1.00,-1.0,2359
5219,2140219,17092,-524,556,17109.07,27.78,-1.00,-1.0,2359
5222,2140222,17176,-424,428,17186.56,27.78,-1.00,-1.0,2359
5225,2140225,17068,-460,420,17079.36,27.68,-1.00,-1.0,2362
5228,2140228,17164,-508,668,17184.50,27.78,-1.00,-1.0,2361
5240,2140240,17104,-408,548,17117.64,27.78,-1.00,-1.0,2455
5242,2140242,17128,-448,652,17146.26,27.78,-1.00,-1.0,2377
5245,2140245,17016,-408,476,17027.54,27.82,-1.00,-1.0,2364
5247,2140247,17120,-420,648,17137.41,27.73,-1.00,-1.0,2360
5250,2140250,17052,-472,496,17065.74,27.78,-1.00,-1.0,2359
5253,2140253,17112,-540,504,17127.94,27.68,-1.00,-1.0,2363
5255,2140255,17064,-504,540,17079.98,27.73,-1.00,-1.0,2359
5258,2140258,17152,-392,464,17162.75,27.73,-1.00,-1.0,2359
5260,2140260,17124,-472,664,17143.37,27.87,-1.00,-1.0,2360
5263,2140263,17096,-456,428,17107.44,27.78,-1.00,-1.0,2361
5265,2140265,17132,-436,704,17152.00,27.73,-1.00,-1.0,2362
5268,2140268,17192,-472,480,17205.18,27.78,-1.00,-1.0,2360
5271,2140271,17040,-428,564,17054.70,27.78,-1.00,-1.0,2359
5273,2140273,17000,-428,472,17011.94,27.73,-1.00,-1.0,2366
5276,2140276,17124,-388,508,17135.93,27.73,-1.00,-1.0,2359
5278,2140278,17132,-432,556,17146.46,27.78,-1.00,-1.0,2359
5281,2140281,17128,-444,532,17142.01,27.78,-1.00,-1.0,2366
5283,2140283,17000,-556,584,17019.11,27.73,-1.00,-1.0,2366
5286,2140286,17004,-420,632,17020.92,27.73,-1.00,-1.0,2359
5288,2140288,17148,-468,592,17164.60,27.68,-1.00,-1.0,2359
5291,2140291,16992,-444,668,17010.92,27.73,-1.00,-1.0,2372
5294,2140294,17072,-612,444,17088.73,27.82,-1.00,-1.0,2359
5297,2140297,17168,-472,648,17186.71,27.82,-1.00,-1.0,2360
5300,2140300,17136,-368,564,17149.23,27.73,-1.00,-1.0,2362
5303,2140303,17132,-448,600,17148.36,27.82,-1.00,-1.0,2361
5306,2140306,17068,-400,640,17084.68,27.73,-1.00,-1.0,2360
5309,2140309,17084,-428,552,17098.27,27.73,-1.00,-1.0,2362
5312,2140312,17128,-464,520,17142.17,27.73,-1.00,-1.0,2360
5315,2140315,17164,-512,608,17182.39,27.82,-1.00,-1.0,2360
5318,2140318,17048,-484,620,17066.13,27.73,-1.00,-1.0,2359
5321,2140321,17092,-484,476,17105.48,27.73,-1.00,-1.0,2360
5324,2140324,17096,-540,616,17115.62,27.82,-1.00,-1.0,2360
5327,2140327,17028,-408,636,17044.76,27.82,-1.00,-1.0,2360
5330,2140330,17112,-416,452,17123.02,27.82,-1.00,-1.0,2360
5333,2140333,17208,-572,544,17226.10,27.73,-1.00,-1.0,2360
5336,2140336,16976,-448,532,16990.24,27.82,-1.00,-1.0,2360
5339,2140339,17140,-408,572,17154.39,27.82,-1.00,-1.0,2360
5342,2140342,17084,-432,416,17094.52,27.73,-1.00,-1.0,2360
5345,2140345,17100,-544,468,17115.05,27.73,-1.00,-1.0,2359
5348,2140348,17124,-532,548,17141.02,27.82,-1.00,-1.0,2360
5351,2140351,17076,-424,472,17087.78,27.73,-1.00,-1.0,2360
5354,2140354,17156,-448,644,17173.93,27.82,-1.00,-1.0,2363
5357,2140357,17152,-488,596,17169.29,27.82,-1.00,-1.0,2361
5360,2140360,17168,-452,536,17182.31,27.73,-1.00,-1.0,2360
5363,2140363,17096,-492,588,17113.18,27.73,-1.00,-1.0,2360
5366,2140366,17080,-460,560,17095.37,27.78,-1.00,-1.0,2359
5369,2140369,17072,-408,612,17087.84,27.78,-1.00,-1.0,2359
5372,2140372,17028,-372,600,17042.63,27.78,-1.00,-1.0,2360
5375,2140375,17104,-420,628,17120.68,27.78,-1.00,-1.0,2359
5378,2140378,17112,-380,644,17128.33,27.68,-1.00,-1.0,2359
5381,2140381,17156,-436,636,17173.32,27.78,-1.00,-1.0,2360
5384,2140384,17048,-448,612,17064.86,27.78,-1.00,-1.0,2360
5387,2140387,17088,-460,636,17106.02,27.78,-1.00,-1.0,2359
5390,2140390,17132,-492,564,17148.34,27.68,-1.00,-1.0,2359
5393,2140393,17172,-444,484,17184.56,27.78,-1.00,-1.0,2359
5396,2140396,17176,-544,576,17194.26,27.68,-1.00,-1.0,2360
5399,2140399,17112,-472,592,17128.74,27.78,-1.00,-1.0,2360
5402,2140402,17048,-468,476,17061.06,27.78,-1.00,-1.0,2367
5405,2140405,17004,-444,568,17019.28,27.78,-1.00,-1.0,2366
5408,2140408,17040,-432,660,17058.25,27.73,-1.00,-1.0,2367
5411,2140411,17060,-460,564,17075.52,27.73,-1.00,-1.0,2367
5414,2140414,17008,-420,476,17019.84,27.73,-1.00,-1.0,2367
5417,2140417,17000,-480,648,17019.12,27.73,-1.00,-1.0,2367
5420,2140420,17028,-524,652,17048.53,27.73,-1.00,-1.0,2367
5423,2140423,17036,-480,728,17058.30,27.73,-1.00,-1.0,2367
5426,2140426,17120,-448,568,17135.28,27.73,-1.00,-1.0,2367
5429,2140429,17064,-452,676,17083.37,27.73,-1.00,-1.0,2367
5432,2140432,17088,-564,528,17105.46,27.82,-1.00,-1.0,2366
5435,2140435,17044,-468,632,17062.13,27.73,-1.00,-1.0,2367
5447,2140447,17160,-436,496,17172.70,27.68,-1.00,-1.0,2440
5450,2140450,17140,-384,612,17155.22,27.78,-1.00,-1.0,2368
5452,2140452,17032,-452,564,17047.33,27.73,-1.00,-1.0,2347
5455,2140455,17128,-504,696,17149.54,27.73,-1.00,-1.0,2366
5457,2140457,17036,-476,612,17053.63,27.78,-1.00,-1.0,2369
5460,2140460,17164,-480,600,17181.19,27.78,-1.00,-1.0,2360
5462,2140462,17044,-544,624,17064.09,27.73,-1.00,-1.0,2359
5465,2140465,17144,-564,668,17166.28,27.82,-1.00,-1.0,2358
5468,2140468,17152,-384,652,17168.68,27.73,-1.00,-1.0,2363
5470,2140470,17068,-528,640,17088.15,27.68,-1.00,-1.0,2359
5473,2140473,17088,-416,644,17105.19,27.73,-1.00,-1.0,2366
5475,2140475,17160,-436,588,17175.61,27.78,-1.00,-1.0,2365
5478,2140478,17112,-404,536,17125.16,27.78,-1.00,-1.0,2345
5480,2140480,17052,-484,548,17067.67,27.68,-1.00,-1.0,2360
5483,2140483,17096,-464,496,17109.49,27.73,-1.00,-1.0,2359
5486,2140486,17148,-356,632,17163.33,27.82,-1.00,-1.0,2359
5488,2140488,17132,-432,608,17148.23,27.78,-1.00,-1.0,2366
5491,2140491,17100,-420,604,17115.82,27.73,-1.00,-1.0,2359
5493,2140493,17112,-372,584,17126.00,27.73,-1.00,-1.0,2359
5496,2140496,17160,-428,752,17181.80,27.78,-1.00,-1.0,2366
5498,2140498,17040,-524,700,17062.42,27.68,-1.00,-1.0,2366
5501,2140501,17112,-372,488,17123.00,27.73,-1.00,-1.0,2359
5504,2140504,17064,-412,524,17077.01,27.68,-1.00,-1.0,2363
5507,2140507,17052,-408,476,17063.52,27.78,-1.00,-1.0,2363
5510,2140510,17108,-372,520,17119.94,27.78,-1.00,-1.0,2347
5513,2140513,17112,-452,684,17131.63,27.87,-1.00,-1.0,2347
5516,2140516,17020,-536,540,17037.00,27.78,-1.00,-1.0,2363
5519,2140519,17152,-396,684,17170.20,27.87,-1.00,-1.0,2362
5522,2140522,17000,-360,500,17011.16,27.68,-1.00,-1.0,2360
5525,2140525,17000,-492,696,17021.35,27.68,-1.00,-1.0,2362
5528,2140528,17104,-456,640,17122.04,27.78,-1.00,-1.0,2360
5531,2140531,17080,-348,508,17091.10,27.68,-1.00,-1.0,2359
5534,2140534,17196,-448,552,17210.69,27.68,-1.00,-1.0,2360
5537,2140537,17180,-412,508,17192.45,27.78,-1.00,-1.0,2360
5540,2140540,17060,-440,472,17072.20,27.68,-1.00,-1.0,2347
5543,2140543,17124,-412,500,17136.25,27.73,-1.00,-1.0,2346
5546,2140546,17112,-484,588,17128.94,27.73,-1.00,-1.0,2362
5549,2140549,17060,-468,600,17076.96,27.82,-1.00,-1.0,2363
5552,2140552,17068,-400,432,17078.15,27.73,-1.00,-1.0,2361
5555,2140555,17148,-440,688,17167.44,27.73,-1.00,-1.0,2359
5558,2140558,17064,-492,556,17080.14,27.73,-1.00,-1.0,2359
5561,2140561,17044,-468,572,17060.02,27.82,-1.00,-1.0,2359
5564,2140564,17132,-452,400,17142.63,27.73,-1.00,-1.0,2361
5567,2140567,17164,-528,548,17180.86,27.73,-1.00,-1.0,2362
5570,2140570,17056,-348,444,17065.33,27.64,-1.00,-1.0,2359
5573,2140573,17124,-460,656,17142.73,27.73,-1.00,-1.0,2362
5576,2140576,17052,-524,508,17067.61,27.82,-1.00,-1.0,2360
5579,2140579,17012,-416,628,17028.67,27.73,-1.00,-1.0,2360
5582,2140582,17024,-492,604,17041.81,27.82,-1.00,-1.0,2362
5585,2140585,17088,-540,572,17106.10,27.64,-1.00,-1.0,2359
5588,2140588,17160,-476,564,17175.86,27.73,-1.00,-1.0,2360
5591,2140591,17120,-516,580,17137.59,27.73,-1.00,-1.0,2359
5594,2140594,17068,-552,592,17087.18,27.73,-1.00,-1.0,2360
5597,2140597,17092,-372,500,17103.36,27.73,-1.00,-1.0,2349
5600,2140600,17168,-480,464,17180.97,27.73,-1.00,-1.0,2346
5603,2140603,17084,-348,616,17098.64,27.82,-1.00,-1.0,2360
5606,2140606,17068,-492,692,17089.11,27.82,-1.00,-1.0,2359
5609,2140609,17156,-440,452,17167.59,27.73,-1.00,-1.0,2359
5612,2140612,17200,-528,564,17217.34,27.78,-1.00,-1.0,2359
5615,2140615,17236,-456,668,17254.97,27.78,-1.00,-1.0,2359
5618,2140618,17104,-348,656,17120.11,27.68,-1.00,-1.0,2362
5621,2140621,17164,-448,548,17178.59,27.68,-1.00,-1.0,2360
5624,2140624,17176,-328,604,17189.75,27.78,-1.00,-1.0,2359
5627,2140627,17112,-432,604,17128.11,27.68,-1.00,-1.0,2360
5630,2140630,17216,-532,576,17233.85,27.78,-1.00,-1.0,2359
5633,2140633,17180,-376,552,17192.98,27.87,-1.00,-1.0,2359
5636,2140636,17060,-400,560,17073.88,27.78,-1.00,-1.0,2359
5639,2140639,17052,-400,620,17067.96,27.68,-1.00,-1.0,2411
5642,2140642,17144,-476,552,17159.49,27.68,-1.00,-1.0,2359
5645,2140645,17052,-460,540,17066.75,27.78,-1.00,-1.0,2359
5657,2140657,17204,-436,572,17219.03,27.78,-1.00,-1.0,2442
5660,2140660,17024,-492,560,17040.31,27.73,-1.00,-1.0,2374
5662,2140662,17088,-440,684,17107.34,27.78,-1.00,-1.0,2355
5665,2140665,17088,-444,524,17101.80,27.73,-1.00,-1.0,2359
5668,2140668,16988,-452,624,17005.46,27.73,-1.00,-1.0,2360
5670,2140670,17044,-488,584,17060.98,27.78,-1.00,-1.0,2359
5673,2140673,17104,-396,536,17116.98,27.68,-1.00,-1.0,2359
5675,2140675,17200,-440,416,17210.66,27.64,-1.00,-1.0,2354
5678,2140678,17120,-444,664,17138.62,27.82,-1.00,-1.0,2361
5680,2140680,17020,-400,640,17036.72,27.73,-1.00,-1.0,2356
5683,2140683,17112,-456,460,17124.25,27.78,-1.00,-1.0,2359
5685,2140685,17064,-464,516,17078.10,27.82,-1.00,-1.0,2353
5688,2140688,17136,-504,520,17151.29,27.82,-1.00,-1.0,2367
5691,2140691,17076,-396,532,17088.88,27.78,-1.00,-1.0,2354
5693,2140693,17040,-424,604,17055.97,27.92,-1.00,-1.0,2429
5696,2140696,17060,-416,448,17070.95,27.87,-1.00,-1.0,2355
5698,2140698,17024,-496,644,17043.39,27.73,-1.00,-1.0,2360
5701,2140701,17148,-432,588,17163.52,27.82,-1.00,-1.0,2368
5704,2140704,17052,-456,544,17066.77,27.68,-1.00,-1.0,2360
5706,2140706,17180,-380,540,17192.68,27.78,-1.00,-1.0,2354
5709,2140709,17048,-408,712,17067.74,27.73,-1.00,-1.0,2355
5711,2140711,17092,-444,536,17106.17,27.82,-1.00,-1.0,2363
5714,2140714,17124,-500,608,17142.08,27.73,-1.00,-1.0,2367
5717,2140717,17092,-416,452,17103.04,27.73,-1.00,-1.0,2361
5720,2140720,17164,-428,544,17177.95,27.73,-1.00,-1.0,2367
5723,2140723,17132,-456,676,17151.39,27.73,-1.00,-1.0,2361
5726,2140726,17156,-372,556,17169.04,27.64,-1.00,-1.0,2368
5729,2140729,17048,-480,656,17067.37,27.82,-1.00,-1.0,2362
5732,2140732,17116,-436,540,17130.07,27.73,-1.00,-1.0,2365
5735,2140735,17108,-468,524,17122.42,27.73,-1.00,-1.0,2361
5738,2140738,17072,-380,608,17087.05,27.82,-1.00,-1.0,2367
5741,2140741,17120,-420,660,17137.87,27.73,-1.00,-1.0,2361
5744,2140744,17060,-416,624,17076.48,27.78,-1.00,-1.0,2374
5747,2140747,17164,-480,684,17184.33,27.87,-1.00,-1.0,2374
5750,2140750,17096,-404,732,17116.43,27.68,-1.00,-1.0,2373
5753,2140753,17160,-540,512,17176.13,27.78,-1.00,-1.0,2375
5756,2140756,17072,-544,704,17095.17,27.78,-1.00,-1.0,2374
5759,2140759,17092,-480,548,17107.52,27.68,-1.00,-1.0,2375
5762,2140762,17028,-456,652,17046.58,27.68,-1.00,-1.0,2367
5765,2140765,17100,-532,476,17114.89,27.78,-1.00,-1.0,2367
5768,2140768,17124,-444,580,17139.57,27.68,-1.00,-1.0,2368
5771,2140771,17236,-440,528,17249.70,27.78,-1.00,-1.0,2366
5774,2140774,17136,-544,660,17157.33,27.78,-1.00,-1.0,2367
5777,2140777,17044,-504,524,17059.50,27.78,-1.00,-1.0,2367
5780,2140780,17080,-360,604,17094.47,27.78,-1.00,-1.0,2362
5783,2140783,17096,-432,576,17111.15,27.78,-1.00,-1.0,2367
5786,2140786,17092,-308,528,17102.93,27.68,-1.00,-1.0,2362
5789,2140789,17104,-436,568,17118.98,27.78,-1.00,-1.0,2362
5792,2140792,17108,-396,536,17120.97,27.78,-1.00,-1.0,2362
5795,2140795,17140,-528,536,17156.51,27.87,-1.00,-1.0,2362
5798,2140798,16980,-360,496,16991.06,27.68,-1.00,-1.0,2354
5801,2140801,17052,-484,616,17069.99,27.78,-1.00,-1.0,2346
5804,2140804,17100,-488,412,17111.92,27.78,-1.00,-1.0,2362
5807,2140807,17116,-500,584,17133.26,27.78,-1.00,-1.0,2361
5810,2140810,17184,-432,580,17199.21,27.78,-1.00,-1.0,2360
5813,2140813,17156,-420,708,17175.74,27.73,-1.00,-1.0,2363
5816,2140816,17080,-468,532,17094.69,27.73,-1.00,-1.0,2360
5819,2140819,16972,-420,496,16984.44,27.73,-1.00,-1.0,2359
5822,2140822,17056,-464,540,17070.85,27.73,-1.00,-1.0,2360
5825,2140825,17124,-436,568,17138.96,27.73,-1.00,-1.0,2359
5828,2140828,17088,-432,504,17100.89,27.73,-1.00,-1.0,2359
5831,2140831,17072,-432,464,17083.77,27.73,-1.00,-1.0,2360
5834,2140834,17036,-412,580,17050.85,27.73,-1.00,-1.0,2360
5837,2140837,17112,-428,688,17131.17,27.73,-1.00,-1.0,2360
5840,2140840,17140,-560,572,17158.68,27.73,-1.00,-1.0,2360
5843,2140843,17068,-572,516,17085.38,27.64,-1.00,-1.0,2359
5846,2140846,16988,-420,572,17002.81,27.82,-1.00,-1.0,2397
5849,2140849,17196,-404,476,17207.33,27.73,-1.00,-1.0,2362
5852,2140852,17100,-532,556,17117.31,27.73,-1.00,-1.0,2359
5864,2140864,17080,-440,544,17094.32,27.73,-1.00,-1.0,2443
5867,2140867,17084,-328,552,17096.06,27.73,-1.00,-1.0,2374
5870,2140870,17148,-408,484,17159.68,27.64,-1.00,-1.0,2364
5872,2140872,17092,-376,460,17102.32,27.73,-1.00,-1.0,2360
5875,2140875,17152,-440,608,17168.41,27.78,-1.00,-1.0,2362
5877,2140877,17036,-444,564,17051.12,27.73,-1.00,-1.0,2367
5880,2140880,17000,-424,564,17014.64,27.82,-1.00,-1.0,2360
5882,2140882,17060,-468,668,17079.49,27.68,-1.00,-1.0,2360
5885,2140885,17092,-520,596,17110.29,27.82,-1.00,-1.0,2375
5888,2140888,17100,-472,536,17114.91,27.73,-1.00,-1.0,2360
5890,2140890,17104,-512,616,17122.75,27.73,-1.00,-1.0,2360
5893,2140893,17112,-468,680,17131.90,27.68,-1.00,-1.0,2368
5895,2140895,17076,-504,544,17092.10,27.64,-1.00,-1.0,2366
5898,2140898,17056,-524,748,17080.43,27.73,-1.00,-1.0,2360
5900,2140900,17188,-516,580,17205.52,27.78,-1.00,-1.0,2359
5903,2140903,17096,-448,600,17112.39,27.73,-1.00,-1.0,2367
5906,2140906,17140,-516,528,17155.89,27.73,-1.00,-1.0,2362
5908,2140908,17188,-484,484,17201.62,27.82,-1.00,-1.0,2360
5911,2140911,17120,-524,564,17137.30,27.78,-1.00,-1.0,2362
5913,2140913,17080,-484,444,17092.62,27.82,-1.00,-1.0,2370
5916,2140916,17060,-420,552,17074.09,27.82,-1.00,-1.0,2363
5918,2140918,17176,-472,628,17193.96,27.78,-1.00,-1.0,2359
5921,2140921,17184,-380,492,17195.24,27.68,-1.00,-1.0,2360
5924,2140924,17100,-440,724,17120.97,27.78,-1.00,-1.0,2359
5927,2140927,17124,-496,628,17142.69,27.78,-1.00,-1.0,2360
5930,2140930,17080,-416,556,17094.11,27.78,-1.00,-1.0,2361
5933,2140933,17124,-424,528,17137.38,27.78,-1.00,-1.0,2360
5936,2140936,17080,-464,592,17096.55,27.78,-1.00,-1.0,2362
5939,2140939,17148,-396,724,17167.85,27.78,-1.00,-1.0,2360
5942,2140942,17104,-392,536,17116.88,27.78,-1.00,-1.0,2360
5945,2140945,17148,-452,476,17160.56,27.68,-1.00,-1.0,2360
5948,2140948,17024,-408,520,17036.83,27.73,-1.00,-1.0,2361
5951,2140951,17088,-480,588,17104.85,27.73,-1.00,-1.0,2362
5954,2140954,17208,-360,704,17226.16,27.82,-1.00,-1.0,2360
5957,2140957,17012,-420,540,17025.75,27.73,-1.00,-1.0,2363
5960,2140960,17188,-408,588,17202.89,27.73,-1.00,-1.0,2364
5963,2140963,17168,-468,512,17182.01,27.73,-1.00,-1.0,2361
5966,2140966,17028,-304,460,17036.92,27.82,-1.00,-1.0,2363
5969,2140969,17064,-440,596,17080.07,27.82,-1.00,-1.0,2362
5972,2140972,17092,-468,568,17107.84,27.73,-1.00,-1.0,2364
5975,2140975,17128,-448,548,17142.62,27.82,-1.00,-1.0,2362
5978,2140978,17044,-372,496,17055.27,27.73,-1.00,-1.0,2366
5981,2140981,17248,-464,660,17266.86,27.73,-1.00,-1.0,2364
5984,2140984,17060,-392,580,17074.36,27.73,-1.00,-1.0,2364
5987,2140987,17040,-524,440,17053.73,27.73,-1.00,-1.0,2364
5990,2140990,17180,-460,520,17194.02,27.73,-1.00,-1.0,2361
5993,2140993,17176,-496,544,17191.77,27.73,-1.00,-1.0,2360
5996,2140996,17020,-456,636,17037.98,27.73,-1.00,-1.0,2370
5999,2140999,17104,-552,536,17121.30,27.73,-1.00,-1.0,2369
6002,2141002,17104,-500,672,17124.50,27.73,-1.00,-1.0,2369
6005,2141005,17032,-444,576,17047.52,27.73,-1.00,-1.0,2370
6008,2141008,17096,-544,684,17118.32,27.73,-1.00,-1.0,2368
6011,2141011,17056,-476,672,17075.87,27.68,-1.00,-1.0,2369
6014,2141014,17084,-456,628,17101.62,27.68,-1.00,-1.0,2368
6017,2141017,17160,-460,612,17177.07,27.68,-1.00,-1.0,2368
6020,2141020,17132,-456,600,17148.57,27.78,-1.00,-1.0,2369
6023,2141023,17096,-528,532,17112.42,27.68,-1.00,-1.0,2369
6026,2141026,17072,-552,560,17090.10,27.78,-1.00,-1.0,2366
6029,2141029,17064,-440,600,17080.21,27.68,-1.00,-1.0,2366
6032,2141032,17068,-508,596,17085.96,27.78,-1.00,-1.0,2367
6035,2141035,17080,-496,564,17096.51,27.68,-1.00,-1.0,2366
6038,2141038,17100,-368,576,17113.66,27.68,-1.00,-1.0,2367
6041,2141041,17144,-448,584,17159.79,27.78,-1.00,-1.0,2366
6044,2141044,17024,-484,604,17041.59,27.68,-1.00,-1.0,2367
6047,2141047,17020,-488,496,17034.22,27.68,-1.00,-1.0,2367
6050,2141050,17096,-424,576,17110.96,27.68,-1.00,-1.0,2367
6053,2141053,17120,-420,652,17137.56,27.78,-1.00,-1.0,2367
6056,2141056,17072,-500,612,17090.28,27.78,-1.00,-1.0,2367
6059,2141059,17272,-484,600,17289.19,27.68,-1.00,-1.0,2362
6062,2141062,17128,-420,600,17143.65,27.78,-1.00,-1.0,2362
6074,2141074,17136,-440,560,17150.79,27.78,-1.00,-1.0,2451
6077,2141077,17164,-344,576,17177.11,27.68,-1.00,-1.0,2384
6080,2141080,17128,-408,640,17144.81,27.73,-1.00,-1.0,2361
6082,2141082,17088,-432,596,17103.85,27.73,-1.00,-1.0,2360
6085,2141085,17100,-384,676,17117.66,27.78,-1.00,-1.0,2368
6087,2141087,17036,-408,596,17051.30,27.87,-1.00,-1.0,2367
6090,2141090,17080,-444,528,17093.93,27.73,-1.00,-1.0,2360
6092,2141092,17116,-360,792,17138.10,27.73,-1.00,-1.0,2359
6095,2141095,16976,-496,600,16993.84,27.82,-1.00,-1.0,2366
6098,2141098,17196,-400,556,17209.63,27.68,-1.00,-1.0,2362
6100,2141100,17096,-452,540,17110.50,27.82,-1.00,-1.0,2360
6103,2141103,17152,-472,728,17173.93,27.73,-1.00,-1.0,2362
6105,2141105,17156,-520,484,17170.70,27.87,-1.00,-1.0,2368
6108,2141108,17160,-352,544,17172.23,27.73,-1.00,-1.0,2360
6110,2141110,17084,-496,580,17101.04,27.73,-1.00,-1.0,2359
6113,2141113,17004,-488,628,17022.59,27.82,-1.00,-1.0,2360
6116,2141116,17020,-480,508,17034.34,27.78,-1.00,-1.0,2363
6118,2141118,17124,-476,524,17138.63,27.73,-1.00,-1.0,2359
6121,2141121,17136,-388,516,17148.16,27.73,-1.00,-1.0,2360
