timestamp_ms,global_ms,accel_x,accel_y,accel_z,accel_mag,temp_c,voltage,soc,loop_us
3,2135003,17164,-476,700,17184.86,27.07,-1.00,-1.0,2499
5,2135005,17104,-504,600,17121.94,27.02,-1.00,-1.0,2351
8,2135008,17064,-488,612,17081.94,26.93,-1.00,-1.0,2362
11,2135011,17160,-396,464,17170.84,26.93,-1.00,-1.0,2349
15,2135015,17104,-556,648,17125.30,26.93,-1.00,-1.0,2362
17,2135017,17104,-416,508,17116.60,26.93,-1.00,-1.0,2355
21,2135021,17160,-492,536,17175.42,27.02,-1.00,-1.0,2361
24,2135024,17096,-404,696,17114.93,26.93,-1.00,-1.0,2356
27,2135027,17160,-524,524,17175.99,26.93,-1.00,-1.0,2362
30,2135030,17048,-448,644,17066.04,26.93,-1.00,-1.0,2355
33,2135033,17148,-440,580,17163.45,26.93,-1.00,-1.0,2362
36,2135036,17152,-436,564,17166.81,26.93,-1.00,-1.0,2355
39,2135039,17136,-384,572,17149.84,26.93,-1.00,-1.0,2365
42,2135042,17160,-508,580,17177.31,27.07,-1.00,-1.0,2358
45,2135045,17044,-412,712,17063.84,26.98,-1.00,-1.0,2371
48,2135048,17120,-416,536,17133.44,26.88,-1.00,-1.0,2364
51,2135051,17148,-356,624,17163.04,26.98,-1.00,-1.0,2367
54,2135054,17088,-348,656,17104.13,26.98,-1.00,-1.0,2359
57,2135057,17104,-404,636,17120.59,26.88,-1.00,-1.0,2369
60,2135060,17100,-472,592,17116.75,26.88,-1.00,-1.0,2361
63,2135063,17000,-340,504,17010.87,26.98,-1.00,-1.0,2369
66,2135066,17088,-516,500,17103.10,26.98,-1.00,-1.0,2360
69,2135069,17148,-536,532,17164.62,26.88,-1.00,-1.0,2366
72,2135072,17012,-472,540,17027.11,27.07,-1.00,-1.0,2358
75,2135075,17052,-324,644,17067.23,26.88,-1.00,-1.0,2371
78,2135078,17084,-440,532,17097.94,26.79,-1.00,-1.0,2362
81,2135081,17148,-464,476,17160.88,26.88,-1.00,-1.0,2367
84,2135084,16992,-380,704,17010.82,26.88,-1.00,-1.0,2357
87,2135087,16996,-464,528,17010.53,27.07,-1.00,-1.0,2365
90,2135090,17008,-500,624,17026.79,26.88,-1.00,-1.0,2356
93,2135093,17080,-420,656,17097.75,26.88,-1.00,-1.0,2363
96,2135096,17080,-416,476,17091.70,26.98,-1.00,-1.0,2356
99,2135099,17032,-412,584,17046.99,26.98,-1.00,-1.0,2363
102,2135102,17132,-396,636,17148.38,26.98,-1.00,-1.0,2355
105,2135105,17000,-476,452,17012.67,26.93,-1.00,-1.0,2397
108,2135108,17060,-340,616,17074.50,26.98,-1.00,-1.0,2358
111,2135111,17100,-376,572,17113.70,26.93,-1.00,-1.0,2360
114,2135114,17096,-424,616,17112.35,26.84,-1.00,-1.0,2356
117,2135117,17100,-496,536,17115.59,26.93,-1.00,-1.0,2361
120,2135120,17088,-380,452,17098.20,26.93,-1.00,-1.0,2356
123,2135123,17020,-380,588,17034.39,26.93,-1.00,-1.0,2360
126,2135126,17076,-352,556,17088.68,26.93,-1.00,-1.0,2354
129,2135129,17084,-356,692,17101.71,26.84,-1.00,-1.0,2359
132,2135132,17156,-484,696,17176.93,26.84,-1.00,-1.0,2356
135,2135135,17128,-496,484,17142.01,26.93,-1.00,-1.0,2359
138,2135138,17060,-584,700,17084.34,26.93,-1.00,-1.0,2353
141,2135141,17040,-568,540,17058.01,26.93,-1.00,-1.0,2360
144,2135144,17092,-416,552,17105.97,26.93,-1.00,-1.0,2353
147,2135147,17128,-488,764,17151.97,26.84,-1.00,-1.0,2360
150,2135150,17044,-436,476,17056.22,26.93,-1.00,-1.0,2353
153,2135153,17096,-432,504,17108.88,26.93,-1.00,-1.0,2359
156,2135156,17124,-484,520,17138.73,27.02,-1.00,-1.0,2353
159,2135159,17064,-444,528,17077.94,26.93,-1.00,-1.0,2359
162,2135162,17088,-392,604,17103.16,26.84,-1.00,-1.0,2353
165,2135165,17156,-488,624,17174.28,27.02,-1.00,-1.0,2359
168,2135168,17020,-472,648,17038.87,26.93,-1.00,-1.0,2354
171,2135171,17080,-500,520,17095.23,27.02,-1.00,-1.0,2362
174,2135174,17128,-444,652,17146.15,26.93,-1.00,-1.0,2354
177,2135177,17096,-476,516,17110.41,26.88,-1.00,-1.0,2359
180,2135180,17184,-512,512,17199.25,26.88,-1.00,-1.0,2353
183,2135183,17048,-496,616,17066.33,26.98,-1.00,-1.0,2359
186,2135186,17160,-392,604,17175.10,26.98,-1.00,-1.0,2353
189,2135189,17084,-532,624,17103.67,26.98,-1.00,-1.0,2359
192,2135192,17132,-432,692,17151.41,26.98,-1.00,-1.0,2354
195,2135195,17144,-464,464,17156.55,26.98,-1.00,-1.0,2359
198,2135198,17104,-412,520,17116.86,26.88,-1.00,-1.0,2354
201,2135201,17148,-444,492,17160.80,26.98,-1.00,-1.0,2360
204,2135204,17088,-408,660,17105.61,26.88,-1.00,-1.0,2354
207,2135207,17120,-520,608,17138.68,26.98,-1.00,-1.0,2360
210,2135210,17080,-420,556,17094.21,26.98,-1.00,-1.0,2353
225,2135225,17084,-348,604,17098.21,26.88,-1.00,-1.0,2463
228,2135228,17076,-404,472,17087.30,26.98,-1.00,-1.0,2362
231,2135231,17060,-416,604,17075.76,26.93,-1.00,-1.0,2361
233,2135233,17092,-488,572,17108.53,26.93,-1.00,-1.0,2361
236,2135236,17124,-428,668,17142.37,27.07,-1.00,-1.0,2359
238,2135238,17064,-452,568,17079.43,26.88,-1.00,-1.0,2355
241,2135241,17204,-444,756,17226.33,26.98,-1.00,-1.0,2369
243,2135243,17112,-576,564,17130.98,26.93,-1.00,-1.0,2364
246,2135246,17096,-444,576,17111.46,26.88,-1.00,-1.0,2362
248,2135248,17132,-520,656,17152.44,26.98,-1.00,-1.0,2354
251,2135251,17088,-360,656,17104.38,26.93,-1.00,-1.0,2359
254,2135254,17116,-464,688,17136.11,26.93,-1.00,-1.0,2358
256,2135256,17140,-464,656,17158.82,27.02,-1.00,-1.0,2346
259,2135259,17092,-496,652,17111.62,26.88,-1.00,-1.0,2353
261,2135261,17128,-492,580,17144.88,26.88,-1.00,-1.0,2359
264,2135264,17028,-392,528,17040.69,27.02,-1.00,-1.0,2364
266,2135266,17184,-456,568,17199.43,27.02,-1.00,-1.0,2366
269,2135269,17088,-472,720,17109.67,26.88,-1.00,-1.0,2356
271,2135271,17024,-444,572,17039.39,26.98,-1.00,-1.0,2359
274,2135274,17096,-408,796,17119.38,26.93,-1.00,-1.0,2354
277,2135277,17132,-396,636,17148.38,27.02,-1.00,-1.0,2361
279,2135279,17032,-380,604,17046.94,26.93,-1.00,-1.0,2397
282,2135282,17128,-432,464,17139.73,27.02,-1.00,-1.0,2362
284,2135284,17156,-396,568,17169.97,27.07,-1.00,-1.0,2360
287,2135287,17144,-464,704,17164.72,26.98,-1.00,-1.0,2361
289,2135289,17112,-444,456,17123.83,26.93,-1.00,-1.0,2360
292,2135292,17112,-420,560,17126.31,26.84,-1.00,-1.0,2366
295,2135295,17088,-444,592,17104.02,26.98,-1.00,-1.0,2358
297,2135297,17136,-424,544,17149.88,26.98,-1.00,-1.0,2360
300,2135300,17004,-452,568,17019.49,26.88,-1.00,-1.0,2403
303,2135303,17120,-472,536,17134.89,27.02,-1.00,-1.0,2366
306,2135306,17104,-488,504,17118.38,26.93,-1.00,-1.0,2360
309,2135309,17068,-520,532,17084.21,26.88,-1.00,-1.0,2367
312,2135312,17024,-472,564,17039.88,26.88,-1.00,-1.0,2360
315,2135315,17192,-472,496,17205.63,26.88,-1.00,-1.0,2362
318,2135318,17100,-500,488,17114.27,26.98,-1.00,-1.0,2360
321,2135321,17104,-556,636,17124.85,26.98,-1.00,-1.0,2365
324,2135324,17132,-476,548,17147.37,26.98,-1.00,-1.0,2346
327,2135327,17052,-436,552,17066.50,26.88,-1.00,-1.0,2347
330,2135330,17036,-484,700,17057.24,26.98,-1.00,-1.0,2362
333,2135333,17036,-448,664,17054.82,27.07,-1.00,-1.0,2362
336,2135336,17072,-416,604,17087.75,26.88,-1.00,-1.0,2358
339,2135339,17072,-544,600,17091.20,26.98,-1.00,-1.0,2363
342,2135342,17116,-400,528,17128.81,26.98,-1.00,-1.0,2358
345,2135345,17096,-340,484,17106.23,26.98,-1.00,-1.0,2360
348,2135348,17000,-384,584,17014.36,26.98,-1.00,-1.0,2357
351,2135351,17124,-484,660,17143.55,26.88,-1.00,-1.0,2359
354,2135354,17060,-392,660,17077.26,26.98,-1.00,-1.0,2357
357,2135357,17084,-444,536,17098.17,26.98,-1.00,-1.0,2347
360,2135360,17040,-456,512,17053.79,26.98,-1.00,-1.0,2344
363,2135363,17116,-348,604,17130.19,27.07,-1.00,-1.0,2362
366,2135366,17100,-428,628,17116.88,26.98,-1.00,-1.0,2360
369,2135369,17100,-428,480,17112.09,26.98,-1.00,-1.0,2360
372,2135372,17024,-472,552,17039.49,26.98,-1.00,-1.0,2359
375,2135375,17132,-396,432,17142.02,26.93,-1.00,-1.0,2360
378,2135378,17096,-480,556,17111.77,26.84,-1.00,-1.0,2361
381,2135381,17064,-476,564,17079.95,27.02,-1.00,-1.0,2361
384,2135384,17024,-500,452,17037.34,26.93,-1.00,-1.0,2359
387,2135387,17048,-380,644,17064.39,26.93,-1.00,-1.0,2362
390,2135390,17068,-464,684,17088.00,27.02,-1.00,-1.0,2359
393,2135393,17120,-564,592,17139.51,26.93,-1.00,-1.0,2360
396,2135396,17036,-512,592,17053.97,26.93,-1.00,-1.0,2357
399,2135399,17036,-396,616,17051.73,27.02,-1.00,-1.0,2361
402,2135402,17072,-428,460,17083.56,26.93,-1.00,-1.0,2357
405,2135405,17092,-344,684,17109.14,26.93,-1.00,-1.0,2359
408,2135408,17072,-388,632,17088.10,26.93,-1.00,-1.0,2357
411,2135411,17044,-456,692,17064.14,26.93,-1.00,-1.0,2348
414,2135414,17160,-392,596,17174.82,26.93,-1.00,-1.0,2344
417,2135417,17156,-400,580,17170.46,26.93,-1.00,-1.0,2360
420,2135420,17068,-452,604,17084.66,26.93,-1.00,-1.0,2357
423,2135423,17164,-428,664,17182.17,27.02,-1.00,-1.0,2359
435,2135435,17112,-408,556,17125.89,27.02,-1.00,-1.0,2456
438,2135438,17140,-376,676,17157.45,26.93,-1.00,-1.0,2368
440,2135440,17056,-468,576,17072.14,26.88,-1.00,-1.0,2360
443,2135443,17104,-512,752,17128.18,26.98,-1.00,-1.0,2367
445,2135445,17132,-444,508,17145.28,26.84,-1.00,-1.0,2366
448,2135448,17116,-480,744,17138.88,26.93,-1.00,-1.0,2359
450,2135450,17048,-464,688,17068.19,26.98,-1.00,-1.0,2359
453,2135453,16988,-428,632,17005.14,26.93,-1.00,-1.0,2367
456,2135456,17044,-504,620,17062.72,26.93,-1.00,-1.0,2360
458,2135458,17072,-408,644,17089.01,26.88,-1.00,-1.0,2360
461,2135461,17156,-372,696,17174.14,26.98,-1.00,-1.0,2367
463,2135463,17068,-492,456,17081.18,26.93,-1.00,-1.0,2370
466,2135466,17128,-452,620,17145.18,27.02,-1.00,-1.0,2361
468,2135468,17112,-488,420,17124.11,26.98,-1.00,-1.0,2360
471,2135471,17032,-500,596,17049.76,26.98,-1.00,-1.0,2359
474,2135474,17088,-548,572,17106.35,26.98,-1.00,-1.0,2362
476,2135476,17108,-544,604,17127.30,26.93,-1.00,-1.0,2360
479,2135479,17024,-436,564,17038.92,26.88,-1.00,-1.0,2360
481,2135481,17064,-520,536,17080.33,26.98,-1.00,-1.0,2363
484,2135484,17104,-508,704,17126.02,26.93,-1.00,-1.0,2360
486,2135486,17104,-440,556,17118.69,26.98,-1.00,-1.0,2359
489,2135489,17080,-420,656,17097.75,26.98,-1.00,-1.0,2359
492,2135492,17040,-340,492,17050.49,26.98,-1.00,-1.0,2359
495,2135495,17184,-444,656,17202.25,26.88,-1.00,-1.0,2360
498,2135498,17088,-388,724,17107.73,26.98,-1.00,-1.0,2360
501,2135501,17032,-440,556,17046.75,26.98,-1.00,-1.0,2359
504,2135504,17144,-488,592,17161.16,26.98,-1.00,-1.0,2359
507,2135507,17072,-376,568,17085.58,26.98,-1.00,-1.0,2360
510,2135510,17140,-448,656,17158.40,26.93,-1.00,-1.0,2360
513,2135513,16952,-348,612,16966.61,26.84,-1.00,-1.0,2359
516,2135516,17072,-452,700,17092.32,26.93,-1.00,-1.0,2359
519,2135519,17092,-584,548,17110.75,26.93,-1.00,-1.0,2359
522,2135522,17088,-424,484,17100.11,26.93,-1.00,-1.0,2359
525,2135525,17120,-440,560,17134.81,27.02,-1.00,-1.0,2354
528,2135528,17080,-408,584,17094.85,26.93,-1.00,-1.0,2367
531,2135531,17072,-424,536,17085.67,26.93,-1.00,-1.0,2367
534,2135534,17124,-496,552,17140.07,26.93,-1.00,-1.0,2367
537,2135537,17024,-436,592,17039.87,26.93,-1.00,-1.0,2366
540,2135540,17104,-420,556,17118.19,26.84,-1.00,-1.0,2367
543,2135543,17028,-432,680,17047.05,26.93,-1.00,-1.0,2367
546,2135546,17124,-448,648,17142.11,26.84,-1.00,-1.0,2366
549,2135549,17156,-436,736,17177.31,26.93,-1.00,-1.0,2366
552,2135552,17068,-412,608,17083.79,26.93,-1.00,-1.0,2367
555,2135555,17140,-560,604,17159.78,26.93,-1.00,-1.0,2375
558,2135558,17068,-460,472,17080.72,26.93,-1.00,-1.0,2375
561,2135561,17168,-492,540,17183.54,27.02,-1.00,-1.0,2374
564,2135564,17096,-380,492,17107.30,26.93,-1.00,-1.0,2374
567,2135567,17120,-500,548,17136.06,26.98,-1.00,-1.0,2375
570,2135570,17080,-452,748,17102.35,26.98,-1.00,-1.0,2375
573,2135573,17040,-488,616,17058.11,26.98,-1.00,-1.0,2374
576,2135576,17004,-412,640,17021.03,26.88,-1.00,-1.0,2368
579,2135579,17060,-432,600,17076.01,26.98,-1.00,-1.0,2367
582,2135582,17084,-412,524,17097.00,26.88,-1.00,-1.0,2367
585,2135585,17072,-428,616,17088.47,26.98,-1.00,-1.0,2367
588,2135588,17104,-424,676,17122.60,26.98,-1.00,-1.0,2367
591,2135591,17168,-444,504,17181.13,26.88,-1.00,-1.0,2367
594,2135594,17184,-480,700,17204.95,26.98,-1.00,-1.0,2367
597,2135597,17040,-492,596,17057.52,26.98,-1.00,-1.0,2366
600,2135600,17112,-484,640,17130.80,26.98,-1.00,-1.0,2362
603,2135603,17112,-468,568,17127.82,26.98,-1.00,-1.0,2363
606,2135606,17084,-448,664,17102.77,26.98,-1.00,-1.0,2362
609,2135609,17060,-488,556,17076.03,26.98,-1.00,-1.0,2362
612,2135612,17016,-516,524,17031.88,26.98,-1.00,-1.0,2347
615,2135615,17128,-436,564,17142.83,26.98,-1.00,-1.0,2347
618,2135618,17172,-420,544,17185.75,26.79,-1.00,-1.0,2362
621,2135621,17056,-436,604,17072.26,26.98,-1.00,-1.0,2362
624,2135624,17064,-452,476,17076.62,26.88,-1.00,-1.0,2359
627,2135627,17120,-436,652,17137.96,26.98,-1.00,-1.0,2361
630,2135630,17080,-456,564,17095.39,26.88,-1.00,-1.0,2359
633,2135633,17060,-428,720,17080.55,26.98,-1.00,-1.0,2359
636,2135636,17128,-544,480,17143.36,26.88,-1.00,-1.0,2360
648,2135648,17088,-408,564,17102.17,26.88,-1.00,-1.0,2454
651,2135651,17124,-492,456,17137.13,26.98,-1.00,-1.0,2370
653,2135653,17136,-440,552,17150.53,26.88,-1.00,-1.0,2344
656,2135656,17072,-384,588,17086.44,26.93,-1.00,-1.0,2363
658,2135658,17048,-536,588,17066.56,27.02,-1.00,-1.0,2353
661,2135661,17040,-536,540,17056.98,26.98,-1.00,-1.0,2367
664,2135664,17120,-444,600,17136.26,26.98,-1.00,-1.0,2357
666,2135666,17172,-464,624,17189.60,26.93,-1.00,-1.0,2359
669,2135669,17064,-532,648,17084.58,26.98,-1.00,-1.0,2367
671,2135671,17152,-424,652,17169.62,26.88,-1.00,-1.0,2364
674,2135674,17172,-400,540,17185.14,26.84,-1.00,-1.0,2362
676,2135676,17104,-376,724,17123.45,26.93,-1.00,-1.0,2354
679,2135679,17072,-456,548,17086.88,26.98,-1.00,-1.0,2359
682,2135682,17104,-476,616,17121.71,26.98,-1.00,-1.0,2358
684,2135684,17100,-448,604,17116.53,26.93,-1.00,-1.0,2361
687,2135687,17092,-460,680,17111.71,26.93,-1.00,-1.0,2359
689,2135689,17104,-424,560,17118.42,26.98,-1.00,-1.0,2356
692,2135692,17140,-472,600,17156.99,26.98,-1.00,-1.0,2367
694,2135694,17156,-376,544,17168.74,26.98,-1.00,-1.0,2357
697,2135697,17080,-488,560,17096.14,26.93,-1.00,-1.0,2360
699,2135699,17188,-420,608,17203.88,26.88,-1.00,-1.0,2354
702,2135702,17080,-408,596,17095.27,26.93,-1.00,-1.0,2347
705,2135705,17104,-360,484,17114.63,26.93,-1.00,-1.0,2359
708,2135708,17020,-424,572,17034.89,26.98,-1.00,-1.0,2359
711,2135711,17072,-384,568,17085.76,26.88,-1.00,-1.0,2353
714,2135714,17100,-472,528,17114.66,26.88,-1.00,-1.0,2360
717,2135717,17192,-436,596,17207.85,26.98,-1.00,-1.0,2354
720,2135720,17092,-476,628,17110.16,26.98,-1.00,-1.0,2362
723,2135723,17124,-404,668,17141.79,26.98,-1.00,-1.0,2357
726,2135726,17108,-452,488,17120.93,26.98,-1.00,-1.0,2359
729,2135729,17112,-396,512,17124.24,26.98,-1.00,-1.0,2354
732,2135732,17044,-476,752,17067.22,26.88,-1.00,-1.0,2360
735,2135735,17040,-404,536,17053.21,26.98,-1.00,-1.0,2354
738,2135738,17148,-380,688,17166.00,26.98,-1.00,-1.0,2360
741,2135741,17048,-396,480,17059.35,26.98,-1.00,-1.0,2354
744,2135744,17060,-428,680,17078.91,26.88,-1.00,-1.0,2362
747,2135747,17060,-480,404,17071.53,26.98,-1.00,-1.0,2354
750,2135750,17080,-508,532,17095.83,26.98,-1.00,-1.0,2361
753,2135753,17172,-488,444,17184.67,26.98,-1.00,-1.0,2356
756,2135756,17096,-452,472,17108.49,26.98,-1.00,-1.0,2361
759,2135759,17056,-492,564,17072.41,26.98,-1.00,-1.0,2356
762,2135762,17044,-428,644,17061.53,26.98,-1.00,-1.0,2362
765,2135765,17120,-464,764,17143.32,26.98,-1.00,-1.0,2357
768,2135768,17124,-412,644,17141.06,26.98,-1.00,-1.0,2359
771,2135771,17136,-464,540,17150.78,26.98,-1.00,-1.0,2354
774,2135774,17044,-476,548,17059.45,26.98,-1.00,-1.0,2363
777,2135777,17176,-424,660,17193.90,26.98,-1.00,-1.0,2358
780,2135780,17028,-532,616,17047.44,26.98,-1.00,-1.0,2363
783,2135783,17012,-372,560,17025.28,26.98,-1.00,-1.0,2359
786,2135786,17120,-384,624,17135.67,26.98,-1.00,-1.0,2363
789,2135789,17124,-440,528,17137.79,26.88,-1.00,-1.0,2358
792,2135792,17176,-416,512,17188.66,26.98,-1.00,-1.0,2365
795,2135795,17064,-492,660,17083.85,26.98,-1.00,-1.0,2360
798,2135798,17072,-400,668,17089.75,26.93,-1.00,-1.0,2364
801,2135801,17108,-320,432,17116.45,26.93,-1.00,-1.0,2358
804,2135804,17112,-376,612,17127.07,26.84,-1.00,-1.0,2361
807,2135807,17052,-324,512,17062.76,27.02,-1.00,-1.0,2354
810,2135810,17112,-384,816,17135.75,26.93,-1.00,-1.0,2369
813,2135813,17136,-500,636,17155.09,27.02,-1.00,-1.0,2363
816,2135816,17056,-436,588,17071.70,26.93,-1.00,-1.0,2371
819,2135819,17120,-408,516,17132.63,26.84,-1.00,-1.0,2365
822,2135822,16992,-512,696,17013.95,26.93,-1.00,-1.0,2367
825,2135825,17116,-404,608,17131.56,27.02,-1.00,-1.0,2362
828,2135828,17052,-468,508,17065.98,26.93,-1.00,-1.0,2369
831,2135831,17012,-340,512,17023.10,26.93,-1.00,-1.0,2362
834,2135834,17096,-468,596,17112.79,26.93,-1.00,-1.0,2367
837,2135837,17084,-456,504,17097.52,26.93,-1.00,-1.0,2364
840,2135840,17052,-452,536,17066.41,26.88,-1.00,-1.0,2367
843,2135843,17104,-456,660,17122.80,26.98,-1.00,-1.0,2361
846,2135846,17012,-432,644,17029.67,26.98,-1.00,-1.0,2368
858,2135858,17084,-524,636,17103.86,26.93,-1.00,-1.0,2450
861,2135861,17132,-296,724,17149.85,26.93,-1.00,-1.0,2368
864,2135864,17056,-360,700,17074.15,26.98,-1.00,-1.0,2364
866,2135866,17096,-512,456,17109.74,26.98,-1.00,-1.0,2359
869,2135869,17120,-444,564,17135.04,26.84,-1.00,-1.0,2366
871,2135871,17112,-364,524,17123.89,26.93,-1.00,-1.0,2366
874,2135874,17028,-384,712,17047.21,26.98,-1.00,-1.0,2347
876,2135876,17068,-448,676,17087.26,26.98,-1.00,-1.0,2360
879,2135879,17156,-500,720,17178.38,26.93,-1.00,-1.0,2362
882,2135882,17068,-400,656,17085.29,27.02,-1.00,-1.0,2361
884,2135884,17136,-424,708,17155.86,26.88,-1.00,-1.0,2362
887,2135887,17192,-480,572,17208.21,26.88,-1.00,-1.0,2360
889,2135889,17088,-468,452,17100.38,26.93,-1.00,-1.0,2360
892,2135892,17124,-488,620,17142.17,26.98,-1.00,-1.0,2367
894,2135894,17128,-412,660,17145.66,26.98,-1.00,-1.0,2367
897,2135897,17024,-568,452,17039.47,27.02,-1.00,-1.0,2359
899,2135899,17020,-544,592,17038.98,26.93,-1.00,-1.0,2359
902,2135902,17132,-408,548,17145.62,26.98,-1.00,-1.0,2374
905,2135905,17048,-432,540,17062.02,27.07,-1.00,-1.0,2359
907,2135907,17076,-472,616,17093.62,27.12,-1.00,-1.0,2359
910,2135910,16984,-492,580,17001.02,26.98,-1.00,-1.0,2400
912,2135912,17072,-416,668,17090.13,26.93,-1.00,-1.0,2360
915,2135915,17088,-412,640,17104.94,27.02,-1.00,-1.0,2359
918,2135918,17160,-432,576,17175.10,26.93,-1.00,-1.0,2360
921,2135921,17132,-420,632,17148.80,26.93,-1.00,-1.0,2359
924,2135924,17120,-460,692,17140.15,26.93,-1.00,-1.0,2360
927,2135927,17084,-372,636,17099.88,26.84,-1.00,-1.0,2359
930,2135930,17156,-440,704,17176.07,27.02,-1.00,-1.0,2359
933,2135933,17096,-428,652,17113.78,26.93,-1.00,-1.0,2360
936,2135936,17140,-536,540,17156.88,27.02,-1.00,-1.0,2359
939,2135939,17076,-492,488,17090.05,26.93,-1.00,-1.0,2359
942,2135942,17088,-436,624,17104.95,26.93,-1.00,-1.0,2360
945,2135945,17052,-472,496,17065.74,26.93,-1.00,-1.0,2360
948,2135948,16980,-380,572,16993.88,26.93,-1.00,-1.0,2359
951,2135951,17120,-452,608,17136.76,26.93,-1.00,-1.0,2360
954,2135954,17080,-408,624,17096.26,26.93,-1.00,-1.0,2359
957,2135957,17196,-432,648,17213.63,26.93,-1.00,-1.0,2359
960,2135960,17168,-404,696,17186.85,26.93,-1.00,-1.0,2360
963,2135963,17028,-384,668,17045.42,26.93,-1.00,-1.0,2359
966,2135966,17116,-472,532,17130.77,26.93,-1.00,-1.0,2359
969,2135969,17056,-444,572,17071.36,26.84,-1.00,-1.0,2360
972,2135972,17088,-440,512,17101.33,26.93,-1.00,-1.0,2359
975,2135975,17168,-388,568,17181.78,26.93,-1.00,-1.0,2346
978,2135978,17108,-372,720,17127.18,27.02,-1.00,-1.0,2347
981,2135981,17124,-456,660,17142.78,26.98,-1.00,-1.0,2360
984,2135984,17132,-520,632,17151.54,26.98,-1.00,-1.0,2359
987,2135987,17124,-448,632,17141.51,26.88,-1.00,-1.0,2360
990,2135990,17052,-432,600,17068.02,26.98,-1.00,-1.0,2359
993,2135993,17052,-412,680,17070.53,27.07,-1.00,-1.0,2360
996,2135996,17080,-432,660,17098.21,26.88,-1.00,-1.0,2358
999,2135999,17176,-404,692,17194.68,26.98,-1.00,-1.0,2360
1002,2136002,17072,-480,416,17083.81,26.88,-1.00,-1.0,2359
1005,2136005,17160,-452,512,17173.59,26.98,-1.00,-1.0,2359
1008,2136008,17104,-404,556,17117.80,26.98,-1.00,-1.0,2359
1011,2136011,17100,-336,596,17113.68,26.88,-1.00,-1.0,2359
1015,2136015,17240,-376,620,17255.24,27.07,-1.00,-1.0,2360
1018,2136018,17152,-376,632,17167.76,26.98,-1.00,-1.0,2359
1021,2136021,17184,-468,660,17203.04,26.98,-1.00,-1.0,2359
1024,2136024,17080,-428,540,17093.89,26.98,-1.00,-1.0,2359
1027,2136027,17036,-504,496,17050.67,26.88,-1.00,-1.0,2360
1030,2136030,17132,-536,468,17146.77,26.98,-1.00,-1.0,2359
1033,2136033,17088,-508,656,17108.13,26.98,-1.00,-1.0,2359
1036,2136036,17092,-472,492,17105.59,26.88,-1.00,-1.0,2359
1039,2136039,17080,-396,592,17094.84,26.98,-1.00,-1.0,2360
1042,2136042,17140,-408,568,17154.26,26.93,-1.00,-1.0,2361
1045,2136045,17036,-448,684,17055.61,26.93,-1.00,-1.0,2364
1048,2136048,17188,-464,584,17204.18,27.02,-1.00,-1.0,2369
1051,2136051,17028,-472,588,17044.69,26.93,-1.00,-1.0,2365
1054,2136054,17152,-432,732,17173.05,27.02,-1.00,-1.0,2363
1057,2136057,17116,-448,592,17132.09,27.02,-1.00,-1.0,2364
1069,2136069,17148,-460,620,17165.37,27.02,-1.00,-1.0,2458
1071,2136071,17064,-532,668,17085.36,26.84,-1.00,-1.0,2372
1074,2136074,17072,-476,632,17090.32,26.93,-1.00,-1.0,2364
1076,2136076,17056,-464,572,17071.89,26.88,-1.00,-1.0,2359
1079,2136079,17184,-444,572,17199.25,26.98,-1.00,-1.0,2360
1082,2136082,17172,-380,612,17187.10,26.93,-1.00,-1.0,2366
1084,2136084,17052,-504,600,17069.99,26.98,-1.00,-1.0,2359
1087,2136087,17028,-340,620,17042.68,26.98,-1.00,-1.0,2360
1089,2136089,17072,-500,540,17087.86,26.93,-1.00,-1.0,2361
1092,2136092,17060,-372,572,17073.64,26.93,-1.00,-1.0,2362
1094,2136094,17032,-480,660,17051.54,26.98,-1.00,-1.0,2361
1097,2136097,17100,-424,684,17118.93,26.98,-1.00,-1.0,2359
1100,2136100,17044,-472,496,17057.75,26.93,-1.00,-1.0,2360
1102,2136102,17036,-376,576,17049.88,27.02,-1.00,-1.0,2362
1105,2136105,17076,-356,516,17087.50,26.98,-1.00,-1.0,2360
1107,2136107,17124,-416,708,17143.68,26.98,-1.00,-1.0,2360
1110,2136110,17064,-552,508,17080.48,27.02,-1.00,-1.0,2367
1112,2136112,17084,-408,468,17095.28,26.98,-1.00,-1.0,2366
1115,2136115,17100,-436,580,17115.39,26.98,-1.00,-1.0,2360
1117,2136117,17108,-536,568,17125.82,26.93,-1.00,-1.0,2359
1120,2136120,17064,-432,564,17078.78,26.93,-1.00,-1.0,2375
1123,2136123,17056,-392,668,17073.58,26.98,-1.00,-1.0,2359
1126,2136126,17012,-516,652,17032.31,26.88,-1.00,-1.0,2363
1129,2136129,17140,-420,612,17156.06,26.98,-1.00,-1.0,2360
1132,2136132,17048,-388,548,17061.22,26.98,-1.00,-1.0,2360
1135,2136135,17196,-460,624,17213.46,26.98,-1.00,-1.0,2360
1138,2136138,17132,-428,564,17146.62,26.88,-1.00,-1.0,2360
1141,2136141,17056,-388,620,17071.67,26.88,-1.00,-1.0,2360
1144,2136144,17064,-500,452,17077.31,26.98,-1.00,-1.0,2360
1147,2136147,17020,-408,608,17035.74,26.88,-1.00,-1.0,2359
1150,2136150,17052,-448,696,17072.08,26.88,-1.00,-1.0,2359
1153,2136153,17108,-492,584,17125.03,26.98,-1.00,-1.0,2360
1156,2136156,17104,-372,608,17118.85,26.88,-1.00,-1.0,2359
1159,2136159,17132,-396,508,17144.10,26.98,-1.00,-1.0,2359
1162,2136162,17100,-452,548,17114.75,26.98,-1.00,-1.0,2360
1165,2136165,17028,-404,512,17040.49,26.98,-1.00,-1.0,2359
1168,2136168,17104,-456,588,17120.18,26.98,-1.00,-1.0,2361
1171,2136171,17104,-504,656,17123.99,26.88,-1.00,-1.0,2362
1174,2136174,17120,-396,532,17132.84,26.88,-1.00,-1.0,2360
1177,2136177,17088,-400,452,17098.66,26.93,-1.00,-1.0,2359
1180,2136180,17072,-472,540,17087.06,26.93,-1.00,-1.0,2359
1183,2136183,17136,-412,692,17154.91,26.93,-1.00,-1.0,2359
1186,2136186,17044,-396,576,17058.33,26.93,-1.00,-1.0,2359
1189,2136189,17044,-420,520,17057.10,26.93,-1.00,-1.0,2359
1192,2136192,17084,-460,612,17101.15,27.02,-1.00,-1.0,2360
1195,2136195,17068,-424,736,17089.12,26.93,-1.00,-1.0,2360
1198,2136198,17096,-508,788,17121.69,27.02,-1.00,-1.0,2360
1201,2136201,17212,-444,676,17230.99,26.93,-1.00,-1.0,2360
1204,2136204,17064,-464,424,17075.57,26.93,-1.00,-1.0,2360
1207,2136207,17112,-360,544,17124.43,27.02,-1.00,-1.0,2360
1210,2136210,17104,-416,548,17117.83,26.93,-1.00,-1.0,2359
1213,2136213,17072,-392,648,17088.79,27.02,-1.00,-1.0,2359
1216,2136216,17008,-452,656,17026.65,26.93,-1.00,-1.0,2367
1219,2136219,17044,-416,752,17065.65,27.02,-1.00,-1.0,2366
1222,2136222,17108,-368,520,17119.86,27.02,-1.00,-1.0,2365
1225,2136225,17112,-396,504,17124.00,26.93,-1.00,-1.0,2366
1228,2136228,17152,-352,612,17166.52,27.02,-1.00,-1.0,2366
1231,2136231,17076,-424,544,17089.92,26.93,-1.00,-1.0,2368
1234,2136234,17000,-412,496,17012.22,26.93,-1.00,-1.0,2366
1237,2136237,17164,-404,496,17175.92,26.93,-1.00,-1.0,2368
1240,2136240,17136,-444,636,17153.54,27.02,-1.00,-1.0,2367
1243,2136243,17064,-408,680,17082.42,26.98,-1.00,-1.0,2367
1246,2136246,17072,-572,752,17098.12,26.98,-1.00,-1.0,2367
1249,2136249,17112,-516,436,17125.33,26.88,-1.00,-1.0,2408
1252,2136252,17080,-516,536,17096.20,26.88,-1.00,-1.0,2368
1255,2136255,17088,-544,556,17105.70,26.79,-1.00,-1.0,2367
1258,2136258,17120,-412,588,17135.05,26.98,-1.00,-1.0,2362
1261,2136261,17040,-500,556,17056.40,26.98,-1.00,-1.0,2362
1264,2136264,17140,-384,612,17155.22,26.98,-1.00,-1.0,2355
1267,2136267,17088,-384,620,17103.55,26.98,-1.00,-1.0,2370
1279,2136279,17064,-344,452,17073.45,26.98,-1.00,-1.0,2469
1281,2136281,17044,-508,480,17058.32,26.98,-1.00,-1.0,2362
1284,2136284,17088,-440,576,17103.37,26.93,-1.00,-1.0,2368
1287,2136287,17088,-520,684,17109.59,26.93,-1.00,-1.0,2360
1289,2136289,17116,-436,520,17129.45,26.98,-1.00,-1.0,2357
1292,2136292,17120,-404,644,17136.87,26.98,-1.00,-1.0,2366
1294,2136294,17048,-476,688,17068.52,26.93,-1.00,-1.0,2362
1297,2136297,17072,-408,672,17090.09,26.93,-1.00,-1.0,2348
1299,2136299,17100,-416,512,17112.72,26.98,-1.00,-1.0,2354
1302,2136302,17028,-460,492,17041.32,26.98,-1.00,-1.0,2359
1305,2136305,17024,-508,488,17038.57,26.93,-1.00,-1.0,2357
1307,2136307,17112,-376,568,17125.55,27.02,-1.00,-1.0,2359
1310,2136310,17076,-416,672,17094.28,26.98,-1.00,-1.0,2354
1312,2136312,17112,-476,564,17127.91,26.98,-1.00,-1.0,2362
1315,2136315,17104,-392,596,17118.87,26.98,-1.00,-1.0,2358
1317,2136317,17096,-444,572,17111.33,26.93,-1.00,-1.0,2361
1320,2136320,17072,-420,500,17084.48,26.98,-1.00,-1.0,2353
1323,2136323,17076,-420,520,17089.08,26.88,-1.00,-1.0,2359
1325,2136325,17128,-472,588,17144.59,26.93,-1.00,-1.0,2362
1328,2136328,17088,-412,648,17105.24,26.93,-1.00,-1.0,2359
1330,2136330,17152,-428,540,17165.83,26.88,-1.00,-1.0,2354
1333,2136333,17168,-536,708,17190.95,26.98,-1.00,-1.0,2347
1336,2136336,17020,-520,640,17039.96,27.02,-1.00,-1.0,2358
1339,2136339,17188,-460,488,17201.08,26.93,-1.00,-1.0,2360
1342,2136342,17156,-424,704,17175.67,26.93,-1.00,-1.0,2358
1345,2136345,17116,-428,648,17133.61,27.02,-1.00,-1.0,2359
1348,2136348,17064,-432,576,17079.18,26.93,-1.00,-1.0,2355
1351,2136351,16968,-396,744,16988.92,26.93,-1.00,-1.0,2359
1354,2136354,17084,-456,512,17097.75,26.93,-1.00,-1.0,2354
1357,2136357,17200,-396,628,17216.02,27.02,-1.00,-1.0,2346
1360,2136360,17148,-420,540,17161.64,26.93,-1.00,-1.0,2341
1363,2136363,17112,-404,712,17131.57,27.02,-1.00,-1.0,2362
1366,2136366,17136,-420,724,17156.43,27.02,-1.00,-1.0,2357
1369,2136369,17184,-364,600,17198.32,27.02,-1.00,-1.0,2361
1372,2136372,17024,-520,472,17038.48,26.93,-1.00,-1.0,2356
1375,2136375,17052,-444,568,17067.23,26.88,-1.00,-1.0,2361
1378,2136378,17072,-396,592,17086.85,27.07,-1.00,-1.0,2354
1381,2136381,17044,-548,516,17060.61,26.88,-1.00,-1.0,2360
1384,2136384,17120,-456,560,17135.22,26.98,-1.00,-1.0,2356
1387,2136387,16964,-400,688,16982.66,26.98,-1.00,-1.0,2359
1390,2136390,17168,-500,548,17184.02,26.98,-1.00,-1.0,2355
1393,2136393,17132,-352,552,17144.50,26.98,-1.00,-1.0,2360
1396,2136396,17184,-476,556,17199.58,26.88,-1.00,-1.0,2355
1399,2136399,17108,-436,436,17119.11,26.98,-1.00,-1.0,2361
1402,2136402,17168,-440,744,17189.75,26.88,-1.00,-1.0,2357
1405,2136405,17084,-336,740,17103.32,26.88,-1.00,-1.0,2359
1408,2136408,17080,-484,652,17099.29,26.98,-1.00,-1.0,2354
1411,2136411,17068,-460,540,17082.73,27.07,-1.00,-1.0,2348
1414,2136414,17152,-548,544,17169.37,26.88,-1.00,-1.0,2345
1417,2136417,17160,-492,536,17175.42,26.98,-1.00,-1.0,2360
1420,2136420,17200,-408,560,17213.95,26.98,-1.00,-1.0,2354
1423,2136423,17088,-544,608,17107.46,26.98,-1.00,-1.0,2359
1426,2136426,17072,-420,580,17087.01,26.98,-1.00,-1.0,2354
1429,2136429,17160,-460,564,17175.43,26.98,-1.00,-1.0,2359
1432,2136432,17168,-540,520,17184.36,26.88,-1.00,-1.0,2354
1435,2136435,17100,-344,640,17115.43,26.98,-1.00,-1.0,2362
1438,2136438,17100,-412,504,17112.39,27.07,-1.00,-1.0,2355
1441,2136441,17176,-512,788,17201.69,26.93,-1.00,-1.0,2359
1444,2136444,17060,-400,468,17071.11,27.02,-1.00,-1.0,2354
1447,2136447,17068,-456,532,17082.38,27.02,-1.00,-1.0,2359
1450,2136450,17104,-564,652,17125.71,27.02,-1.00,-1.0,2353
1453,2136453,17156,-420,632,17172.77,26.93,-1.00,-1.0,2359
1456,2136456,17052,-408,652,17069.34,27.02,-1.00,-1.0,2354
1459,2136459,17124,-440,604,17140.30,27.02,-1.00,-1.0,2359
1462,2136462,17232,-396,688,17250.28,26.84,-1.00,-1.0,2354
1465,2136465,17012,-428,580,17027.26,26.93,-1.00,-1.0,2359
1468,2136468,17072,-404,580,17086.63,27.02,-1.00,-1.0,2354
1471,2136471,17032,-548,596,17051.23,27.02,-1.00,-1.0,2363
1474,2136474,17100,-440,664,17118.54,26.93,-1.00,-1.0,2354
1486,2136486,17088,-448,468,17100.28,26.93,-1.00,-1.0,2442
1489,2136489,17140,-440,548,17154.40,26.98,-1.00,-1.0,2367
1491,2136491,17040,-496,508,17054.79,26.93,-1.00,-1.0,2354
1494,2136494,17192,-456,588,17208.10,26.98,-1.00,-1.0,2369
1496,2136496,17124,-472,444,17136.26,26.98,-1.00,-1.0,2364
1499,2136499,17100,-436,556,17114.59,27.02,-1.00,-1.0,2359
1501,2136501,17156,-452,588,17172.02,27.02,-1.00,-1.0,2354
1504,2136504,17064,-388,624,17079.81,26.98,-1.00,-1.0,2358
1507,2136507,17108,-440,576,17123.35,26.98,-1.00,-1.0,2357
1509,2136509,17124,-444,636,17141.56,27.02,-1.00,-1.0,2359
1512,2136512,17172,-464,600,17188.74,26.93,-1.00,-1.0,2354
1514,2136514,17188,-396,616,17203.59,26.98,-1.00,-1.0,2361
1517,2136517,17100,-556,788,17127.17,26.88,-1.00,-1.0,2360
1519,2136519,17020,-452,588,17036.15,27.02,-1.00,-1.0,2361
1522,2136522,17156,-344,492,17166.50,27.02,-1.00,-1.0,2353
1525,2136525,17044,-456,564,17059.42,26.98,-1.00,-1.0,2359
1527,2136527,17116,-436,640,17133.51,26.88,-1.00,-1.0,2360
1530,2136530,17036,-476,644,17054.81,26.98,-1.00,-1.0,2359
1532,2136532,17116,-372,684,17133.70,27.02,-1.00,-1.0,2354
1535,2136535,17092,-396,536,17104.99,26.98,-1.00,-1.0,2369
1537,2136537,17136,-396,628,17152.08,26.98,-1.00,-1.0,2365
1540,2136540,17200,-464,668,17219.22,27.07,-1.00,-1.0,2366
1543,2136543,17080,-508,572,17097.12,26.98,-1.00,-1.0,2367
1546,2136546,17072,-432,572,17087.04,26.88,-1.00,-1.0,2367
1549,2136549,17108,-472,416,17119.56,26.98,-1.00,-1.0,2367
1552,2136552,17100,-480,484,17113.58,27.07,-1.00,-1.0,2367
1555,2136555,17044,-384,592,17058.60,26.98,-1.00,-1.0,2365
1558,2136558,17136,-408,340,17144.23,27.07,-1.00,-1.0,2375
1561,2136561,17068,-496,668,17088.27,26.98,-1.00,-1.0,2374
1564,2136564,17116,-508,660,17136.25,26.98,-1.00,-1.0,2374
1567,2136567,17052,-380,556,17065.29,26.93,-1.00,-1.0,2374
1570,2136570,17036,-552,668,17058.03,27.02,-1.00,-1.0,2373
1573,2136573,17136,-496,468,17149.56,26.93,-1.00,-1.0,2373
1576,2136576,16988,-508,556,17004.69,26.93,-1.00,-1.0,2367
1579,2136579,17096,-420,512,17108.82,26.84,-1.00,-1.0,2366
1582,2136582,17216,-524,508,17231.46,27.02,-1.00,-1.0,2366
1585,2136585,17036,-492,484,17049.97,27.02,-1.00,-1.0,2366
1588,2136588,17088,-540,656,17109.11,26.93,-1.00,-1.0,2367
1591,2136591,17068,-468,512,17082.09,27.02,-1.00,-1.0,2366
1594,2136594,17072,-496,664,17092.11,26.93,-1.00,-1.0,2367
1597,2136597,17076,-368,664,17092.87,27.02,-1.00,-1.0,2367
1600,2136600,17016,-488,512,17030.69,27.02,-1.00,-1.0,2366
1603,2136603,17100,-536,640,17120.37,27.02,-1.00,-1.0,2361
1606,2136606,17184,-464,628,17201.73,26.93,-1.00,-1.0,2361
1609,2136609,17132,-424,536,17145.63,27.02,-1.00,-1.0,2361
1612,2136612,17168,-440,504,17181.03,27.02,-1.00,-1.0,2361
1615,2136615,17136,-440,596,17152.01,27.02,-1.00,-1.0,2346
1618,2136618,17080,-412,548,17093.75,26.93,-1.00,-1.0,2346
1621,2136621,17104,-412,680,17122.47,27.02,-1.00,-1.0,2361
1624,2136624,17012,-404,432,17022.28,26.93,-1.00,-1.0,2362
1627,2136627,17012,-408,680,17030.47,26.93,-1.00,-1.0,2356
1630,2136630,17088,-396,696,17106.75,27.02,-1.00,-1.0,2360
1633,2136633,17216,-396,612,17231.43,26.93,-1.00,-1.0,2357
1636,2136636,17060,-368,608,17074.80,26.93,-1.00,-1.0,2359
1639,2136639,17100,-484,496,17114.04,26.93,-1.00,-1.0,2354
1642,2136642,17104,-448,608,17120.67,26.98,-1.00,-1.0,2359
1645,2136645,17152,-484,452,17164.78,26.98,-1.00,-1.0,2354
1648,2136648,17036,-456,536,17050.53,26.88,-1.00,-1.0,2359
1651,2136651,17024,-412,500,17036.32,26.98,-1.00,-1.0,2354
1654,2136654,17056,-464,560,17071.50,26.98,-1.00,-1.0,2359
1657,2136657,17028,-540,516,17044.37,27.07,-1.00,-1.0,2354
1660,2136660,17148,-496,600,17165.66,26.98,-1.00,-1.0,2359
1663,2136663,17140,-404,524,17152.77,26.98,-1.00,-1.0,2354
1666,2136666,17080,-560,476,17095.81,26.98,-1.00,-1.0,2358
1669,2136669,17052,-516,656,17072.41,26.88,-1.00,-1.0,2353
1672,2136672,17132,-488,652,17151.35,26.98,-1.00,-1.0,2358
1675,2136675,16996,-364,440,17005.59,26.88,-1.00,-1.0,2354
1678,2136678,17100,-452,700,17120.29,26.98,-1.00,-1.0,2359
1681,2136681,17104,-476,488,17117.58,26.88,-1.00,-1.0,2354
1684,2136684,17008,-360,656,17024.45,26.88,-1.00,-1.0,2360
1696,2136696,17080,-476,668,17099.68,27.07,-1.00,-1.0,2449
1699,2136699,17028,-420,496,17040.40,26.93,-1.00,-1.0,2369
1702,2136702,17024,-540,568,17042.03,26.98,-1.00,-1.0,2361
1704,2136704,17124,-512,504,17139.06,26.98,-1.00,-1.0,2353
1707,2136707,17192,-488,564,17208.17,26.93,-1.00,-1.0,2367
1709,2136709,17132,-472,512,17146.15,26.93,-1.00,-1.0,2357
1712,2136712,17052,-492,664,17072.01,26.98,-1.00,-1.0,2362
1714,2136714,17044,-476,592,17060.92,26.98,-1.00,-1.0,2354
1717,2136717,17048,-480,564,17064.08,26.93,-1.00,-1.0,2359
1720,2136720,17096,-492,476,17109.70,26.93,-1.00,-1.0,2363
1722,2136722,17140,-476,560,17155.75,26.98,-1.00,-1.0,2361
1725,2136725,17076,-532,576,17093.99,26.98,-1.00,-1.0,2359
1727,2136727,17064,-532,600,17082.83,26.93,-1.00,-1.0,2356
1730,2136730,17076,-528,612,17095.12,26.98,-1.00,-1.0,2366
1732,2136732,17056,-496,508,17070.77,26.98,-1.00,-1.0,2357
1735,2136735,17108,-472,424,17119.76,26.93,-1.00,-1.0,2359
1737,2136737,17120,-456,596,17136.44,26.93,-1.00,-1.0,2354
1740,2136740,17180,-512,640,17199.54,26.88,-1.00,-1.0,2365
1743,2136743,17044,-492,492,17058.20,26.98,-1.00,-1.0,2360
1745,2136745,16988,-384,560,17001.56,27.02,-1.00,-1.0,2353
1748,2136748,17036,-388,568,17049.88,26.93,-1.00,-1.0,2367
1750,2136750,17120,-432,676,17138.79,26.98,-1.00,-1.0,2363
1753,2136753,17108,-464,644,17126.40,26.93,-1.00,-1.0,2360
1756,2136756,17076,-460,652,17094.63,26.93,-1.00,-1.0,2356
1759,2136759,16984,-464,632,17002.09,27.02,-1.00,-1.0,2360
1762,2136762,17104,-448,568,17119.29,26.93,-1.00,-1.0,2356
1765,2136765,17088,-452,752,17110.51,27.02,-1.00,-1.0,2360
1768,2136768,17032,-436,524,17045.63,26.93,-1.00,-1.0,2356
1771,2136771,17100,-544,544,17117.30,26.84,-1.00,-1.0,2359
1774,2136774,17144,-468,592,17160.60,27.02,-1.00,-1.0,2354
1777,2136777,17088,-404,592,17103.02,26.88,-1.00,-1.0,2359
1780,2136780,17076,-472,716,17097.52,26.88,-1.00,-1.0,2355
1783,2136783,17104,-444,628,17121.28,26.98,-1.00,-1.0,2363
1786,2136786,17036,-468,812,17061.76,26.88,-1.00,-1.0,2357
1789,2136789,17148,-396,596,17162.92,26.98,-1.00,-1.0,2361
1792,2136792,17104,-556,416,17118.09,27.07,-1.00,-1.0,2356
1795,2136795,17128,-492,640,17147.01,27.07,-1.00,-1.0,2361
1798,2136798,17040,-472,732,17062.24,26.98,-1.00,-1.0,2356
1801,2136801,17012,-508,476,17026.24,26.88,-1.00,-1.0,2363
1804,2136804,17112,-492,616,17130.15,26.98,-1.00,-1.0,2358
1807,2136807,17168,-552,556,17185.87,26.98,-1.00,-1.0,2363
1810,2136810,17020,-392,656,17037.15,27.07,-1.00,-1.0,2358
1813,2136813,17100,-400,620,17115.91,26.98,-1.00,-1.0,2368
1816,2136816,17020,-416,472,17031.62,26.98,-1.00,-1.0,2355
1819,2136819,17040,-528,676,17061.58,26.98,-1.00,-1.0,2409
1822,2136822,17004,-456,632,17021.85,26.98,-1.00,-1.0,2364
1825,2136825,17096,-500,668,17116.35,26.98,-1.00,-1.0,2367
1828,2136828,17124,-444,508,17137.29,26.98,-1.00,-1.0,2361
1831,2136831,17104,-288,608,17117.23,27.07,-1.00,-1.0,2369
1834,2136834,17112,-400,536,17125.06,26.98,-1.00,-1.0,2362
1837,2136837,17016,-504,544,17032.15,26.88,-1.00,-1.0,2367
1840,2136840,17052,-440,536,17066.10,26.98,-1.00,-1.0,2364
1843,2136843,17084,-480,628,17102.28,27.07,-1.00,-1.0,2367
1846,2136846,17148,-312,576,17160.51,26.98,-1.00,-1.0,2362
1849,2136849,17072,-444,620,17089.02,26.98,-1.00,-1.0,2368
1852,2136852,17168,-392,612,17183.38,27.07,-1.00,-1.0,2362
1855,2136855,17120,-460,708,17140.81,26.88,-1.00,-1.0,2366
1858,2136858,17112,-396,548,17125.35,26.88,-1.00,-1.0,2361
1861,2136861,17108,-420,524,17121.18,27.02,-1.00,-1.0,2367
1864,2136864,17100,-408,576,17114.56,27.02,-1.00,-1.0,2362
1867,2136867,17152,-460,564,17167.43,27.02,-1.00,-1.0,2366
1870,2136870,17060,-500,608,17078.15,27.02,-1.00,-1.0,2362
1873,2136873,17052,-508,576,17069.29,27.02,-1.00,-1.0,2366
1876,2136876,17012,-444,660,17030.59,26.84,-1.00,-1.0,2361
1879,2136879,17156,-344,588,17169.52,27.02,-1.00,-1.0,2361
1882,2136882,17024,-448,680,17043.46,27.02,-1.00,-1.0,2357
1885,2136885,16992,-484,624,17010.34,26.93,-1.00,-1.0,2362
1888,2136888,17096,-356,548,17108.48,26.93,-1.00,-1.0,2356
1891,2136891,17088,-392,572,17102.06,26.93,-1.00,-1.0,2347
1903,2136903,17124,-436,552,17138.44,26.88,-1.00,-1.0,2462
1906,2136906,17036,-412,432,17046.46,26.98,-1.00,-1.0,2362
1909,2136909,17044,-452,624,17061.41,26.88,-1.00,-1.0,2362
1911,2136911,17028,-468,516,17042.24,26.93,-1.00,-1.0,2363
1914,2136914,17096,-420,596,17111.54,26.93,-1.00,-1.0,2360
1916,2136916,17160,-440,624,17176.98,26.98,-1.00,-1.0,2353
1919,2136919,17136,-548,480,17151.48,26.98,-1.00,-1.0,2359
1922,2136922,17108,-512,632,17127.32,26.93,-1.00,-1.0,2362
1924,2136924,17080,-376,596,17094.53,27.02,-1.00,-1.0,2359
1927,2136927,17060,-480,572,17076.33,26.98,-1.00,-1.0,2354
1929,2136929,17128,-360,440,17137.43,26.98,-1.00,-1.0,2359
1932,2136932,17148,-368,544,17160.57,27.02,-1.00,-1.0,2356
1934,2136934,17020,-524,756,17044.84,27.02,-1.00,-1.0,2361
1937,2136937,17112,-396,676,17129.93,26.88,-1.00,-1.0,2354
1939,2136939,17132,-404,596,17147.12,26.98,-1.00,-1.0,2362
1942,2136942,17124,-424,656,17141.80,27.02,-1.00,-1.0,2368
1945,2136945,16972,-460,592,16988.55,26.98,-1.00,-1.0,2359
1947,2136947,17128,-472,576,17144.18,26.98,-1.00,-1.0,2353
1950,2136950,17072,-536,536,17088.82,26.84,-1.00,-1.0,2366
1952,2136952,17120,-392,544,17133.12,26.93,-1.00,-1.0,2363
1955,2136955,17112,-364,632,17127.54,26.93,-1.00,-1.0,2399
1958,2136958,17024,-496,536,17039.66,26.98,-1.00,-1.0,2364
1960,2136960,17108,-468,632,17126.06,26.98,-1.00,-1.0,2354
1963,2136963,17036,-472,584,17052.54,26.98,-1.00,-1.0,2359
1966,2136966,17008,-492,588,17025.27,26.98,-1.00,-1.0,2354
1969,2136969,17124,-468,624,17141.76,26.98,-1.00,-1.0,2360
1972,2136972,17096,-448,484,17108.72,26.98,-1.00,-1.0,2354
1975,2136975,17096,-356,564,17109.00,26.98,-1.00,-1.0,2347
1978,2136978,17168,-488,532,17183.17,26.88,-1.00,-1.0,2341
1981,2136981,17084,-460,476,17096.82,27.02,-1.00,-1.0,2359
1984,2136984,17076,-444,592,17092.03,26.93,-1.00,-1.0,2354
1987,2136987,17156,-340,464,17165.64,26.93,-1.00,-1.0,2359
1990,2136990,17124,-432,684,17143.10,27.02,-1.00,-1.0,2354
1993,2136993,17152,-496,632,17170.80,26.93,-1.00,-1.0,2359
1996,2136996,17040,-316,512,17050.62,26.93,-1.00,-1.0,2354
1999,2136999,17132,-544,548,17149.39,26.93,-1.00,-1.0,2361
2002,2137002,17172,-424,564,17186.49,26.93,-1.00,-1.0,2356
2005,2137005,17000,-424,520,17013.23,26.93,-1.00,-1.0,2359
2008,2137008,17168,-472,672,17187.63,26.93,-1.00,-1.0,2354
2011,2137011,17088,-464,584,17104.27,27.02,-1.00,-1.0,2359
2014,2137014,17116,-444,672,17134.94,26.93,-1.00,-1.0,2354
2018,2137018,16968,-444,516,16981.65,26.93,-1.00,-1.0,2360
2020,2137020,17080,-528,660,17100.90,26.93,-1.00,-1.0,2354
2024,2137024,17016,-412,620,17032.28,27.02,-1.00,-1.0,2359
2027,2137027,17244,-428,656,17261.78,26.93,-1.00,-1.0,2354
2030,2137030,17176,-420,464,17187.40,27.02,-1.00,-1.0,2359
2033,2137033,17120,-516,592,17138.00,26.93,-1.00,-1.0,2354
2036,2137036,17000,-408,504,17012.36,26.93,-1.00,-1.0,2360
2039,2137039,17088,-424,640,17105.24,26.93,-1.00,-1.0,2354
2042,2137042,17140,-428,636,17157.13,26.98,-1.00,-1.0,2362
2045,2137045,17068,-424,608,17084.09,26.98,-1.00,-1.0,2355
2048,2137048,17044,-412,784,17067.00,26.98,-1.00,-1.0,2365
2051,2137051,17020,-364,596,17034.32,26.98,-1.00,-1.0,2362
2054,2137054,17088,-436,608,17104.37,26.98,-1.00,-1.0,2364
2057,2137057,17060,-428,660,17078.12,26.98,-1.00,-1.0,2359
2060,2137060,17124,-452,612,17140.89,26.88,-1.00,-1.0,2410
2063,2137063,17020,-464,616,17037.46,26.88,-1.00,-1.0,2363
2066,2137066,17064,-492,564,17080.41,27.07,-1.00,-1.0,2369
2069,2137069,17084,-384,620,17099.56,26.98,-1.00,-1.0,2361
2072,2137072,17044,-432,616,17060.60,26.98,-1.00,-1.0,2367
2075,2137075,17012,-532,460,17026.53,26.98,-1.00,-1.0,2364
2078,2137078,16996,-556,608,17015.96,26.98,-1.00,-1.0,2369
2081,2137081,17076,-516,680,17097.32,26.98,-1.00,-1.0,2363
2084,2137084,17076,-456,596,17092.48,26.98,-1.00,-1.0,2365
2087,2137087,17176,-428,576,17190.98,26.98,-1.00,-1.0,2362
2090,2137090,17048,-444,568,17063.24,26.98,-1.00,-1.0,2362
2093,2137093,17072,-336,604,17085.99,26.98,-1.00,-1.0,2358
2096,2137096,17112,-484,652,17131.26,26.98,-1.00,-1.0,2361
2099,2137099,17064,-508,620,17082.81,26.98,-1.00,-1.0,2356
2102,2137102,17044,-504,716,17066.48,26.98,-1.00,-1.0,2361
2114,2137114,17156,-452,540,17170.45,26.98,-1.00,-1.0,2464
2117,2137117,17148,-340,580,17161.17,26.88,-1.00,-1.0,2362
2119,2137119,17092,-412,520,17104.87,26.98,-1.00,-1.0,2368
2122,2137122,17004,-444,792,17028.22,27.02,-1.00,-1.0,2364
2124,2137124,17068,-400,660,17085.44,26.98,-1.00,-1.0,2354
2127,2137127,17028,-384,612,17043.32,26.98,-1.00,-1.0,2366
2129,2137129,17088,-392,672,17105.70,26.93,-1.00,-1.0,2362
2132,2137132,17060,-496,660,17079.96,26.93,-1.00,-1.0,2359
2134,2137134,17220,-400,700,17238.86,26.98,-1.00,-1.0,2354
2137,2137137,17080,-428,644,17097.49,26.88,-1.00,-1.0,2367
2140,2137140,17048,-468,612,17065.40,26.93,-1.00,-1.0,2361
2142,2137142,17020,-472,652,17039.02,26.93,-1.00,-1.0,2354
2145,2137145,17168,-404,676,17186.05,27.07,-1.00,-1.0,2367
2147,2137147,17044,-380,608,17059.07,26.88,-1.00,-1.0,2355
2150,2137150,17096,-516,604,17114.45,26.93,-1.00,-1.0,2362
2152,2137152,17192,-336,404,17200.03,27.02,-1.00,-1.0,2354
2155,2137155,17028,-488,656,17047.62,27.07,-1.00,-1.0,2359
2158,2137158,17004,-472,720,17025.78,26.98,-1.00,-1.0,2365
2160,2137160,17140,-476,484,17153.44,26.93,-1.00,-1.0,2362
2163,2137163,17196,-520,484,17210.67,26.98,-1.00,-1.0,2359
2165,2137165,17216,-484,572,17232.30,26.88,-1.00,-1.0,2356
2168,2137168,17124,-508,512,17139.18,27.02,-1.00,-1.0,2362
2171,2137171,17060,-468,572,17076.00,26.93,-1.00,-1.0,2355
2174,2137174,17056,-456,612,17073.07,27.02,-1.00,-1.0,2360
2177,2137177,17116,-420,508,17128.69,27.07,-1.00,-1.0,2355
2180,2137180,17132,-416,632,17148.70,26.98,-1.00,-1.0,2359
2183,2137183,17208,-384,636,17224.03,26.98,-1.00,-1.0,2355
2186,2137186,17128,-484,596,17145.20,26.98,-1.00,-1.0,2360
2189,2137189,17140,-468,628,17157.88,26.98,-1.00,-1.0,2354
2192,2137192,17176,-348,600,17190.00,26.98,-1.00,-1.0,2359
2195,2137195,17088,-512,616,17106.76,26.98,-1.00,-1.0,2354
2198,2137198,17104,-424,572,17118.81,26.98,-1.00,-1.0,2359
2201,2137201,17092,-456,608,17108.89,26.98,-1.00,-1.0,2354
2204,2137204,17060,-408,652,17077.33,26.98,-1.00,-1.0,2359
2207,2137207,17072,-480,544,17087.41,26.98,-1.00,-1.0,2354
2210,2137210,17176,-512,564,17192.88,26.98,-1.00,-1.0,2359
2213,2137213,17104,-540,536,17120.91,26.88,-1.00,-1.0,2354
2216,2137216,17060,-504,624,17078.85,26.98,-1.00,-1.0,2360
2219,2137219,17288,-416,588,17303.00,26.98,-1.00,-1.0,2355
2222,2137222,17112,-388,696,17130.54,26.98,-1.00,-1.0,2367
2225,2137225,17160,-420,704,17179.57,26.98,-1.00,-1.0,2362
2228,2137228,17100,-428,624,17116.73,26.98,-1.00,-1.0,2367
2231,2137231,17064,-476,584,17080.62,26.98,-1.00,-1.0,2361
2234,2137234,17060,-464,532,17074.60,27.02,-1.00,-1.0,2393
2237,2137237,17236,-448,624,17253.11,26.98,-1.00,-1.0,2362
2240,2137240,17064,-460,544,17078.87,26.98,-1.00,-1.0,2368
2243,2137243,17148,-420,748,17169.44,26.98,-1.00,-1.0,2362
2246,2137246,17060,-480,412,17071.72,26.93,-1.00,-1.0,2367
2249,2137249,17068,-376,664,17085.05,27.02,-1.00,-1.0,2361
2252,2137252,17104,-444,560,17118.92,27.02,-1.00,-1.0,2362
2255,2137255,17088,-372,496,17099.24,26.93,-1.00,-1.0,2362
2258,2137258,17044,-456,664,17063.02,27.12,-1.00,-1.0,2367
2261,2137261,17104,-348,564,17116.83,26.93,-1.00,-1.0,2362
2264,2137264,17192,-472,536,17206.83,26.93,-1.00,-1.0,2355
2267,2137267,17148,-416,704,17167.49,26.93,-1.00,-1.0,2356
2270,2137270,17008,-464,608,17025.19,27.02,-1.00,-1.0,2369
2273,2137273,17036,-508,632,17055.29,26.93,-1.00,-1.0,2365
2276,2137276,17080,-436,628,17097.10,27.02,-1.00,-1.0,2368
2279,2137279,17172,-404,532,17184.99,26.93,-1.00,-1.0,2363
2282,2137282,17200,-400,576,17214.29,27.02,-1.00,-1.0,2366
2285,2137285,17152,-412,596,17167.30,26.93,-1.00,-1.0,2363
2288,2137288,17080,-468,588,17096.53,26.93,-1.00,-1.0,2367
2291,2137291,17056,-532,540,17072.84,27.02,-1.00,-1.0,2361
2294,2137294,17080,-472,708,17101.18,26.93,-1.00,-1.0,2367
2297,2137297,17064,-344,548,17076.26,26.93,-1.00,-1.0,2361
2300,2137300,17104,-456,588,17120.18,26.93,-1.00,-1.0,2367
2303,2137303,17112,-452,604,17128.62,27.02,-1.00,-1.0,2360
2306,2137306,17240,-404,572,17254.22,27.07,-1.00,-1.0,2367
2309,2137309,17116,-420,648,17133.41,26.98,-1.00,-1.0,2357
2321,2137321,17092,-380,708,17110.88,26.93,-1.00,-1.0,2458
2324,2137324,17136,-444,728,17157.20,27.02,-1.00,-1.0,2375
2326,2137326,17180,-424,616,17196.27,26.98,-1.00,-1.0,2365
2329,2137329,17080,-464,580,17096.14,26.88,-1.00,-1.0,2360
2331,2137331,17120,-420,620,17136.37,26.93,-1.00,-1.0,2353
2334,2137334,17140,-452,616,17157.02,27.02,-1.00,-1.0,2359
2337,2137337,17132,-440,524,17145.66,26.98,-1.00,-1.0,2359
2339,2137339,17084,-496,636,17103.03,26.98,-1.00,-1.0,2361
2342,2137342,17112,-504,672,17132.61,26.93,-1.00,-1.0,2354
2344,2137344,17060,-404,620,17076.04,26.93,-1.00,-1.0,2360
2347,2137347,17088,-456,656,17106.67,26.98,-1.00,-1.0,2361
2349,2137349,17076,-508,472,17090.07,26.98,-1.00,-1.0,2362
2352,2137352,17136,-400,528,17148.80,26.98,-1.00,-1.0,2354
2354,2137354,17132,-420,492,17144.21,26.93,-1.00,-1.0,2359
2357,2137357,17192,-408,520,17204.70,26.88,-1.00,-1.0,2369
2360,2137360,16968,-360,524,16979.91,27.07,-1.00,-1.0,2359
2362,2137362,17124,-392,652,17140.89,27.02,-1.00,-1.0,2353
2365,2137365,17052,-492,632,17070.80,27.02,-1.00,-1.0,2361
2367,2137367,17072,-364,600,17086.42,26.98,-1.00,-1.0,2363
2370,2137370,17016,-328,700,17033.55,26.98,-1.00,-1.0,2361
2372,2137372,17056,-396,644,17072.75,27.02,-1.00,-1.0,2354
2375,2137375,17156,-432,660,17174.12,26.98,-1.00,-1.0,2359
2378,2137378,17060,-440,400,17070.36,26.98,-1.00,-1.0,2401
2381,2137381,17048,-488,552,17063.91,27.07,-1.00,-1.0,2352
2384,2137384,17108,-500,608,17126.10,26.88,-1.00,-1.0,2362
2387,2137387,17056,-432,648,17073.77,26.88,-1.00,-1.0,2354
2390,2137390,17152,-336,608,17166.06,26.98,-1.00,-1.0,2363
2393,2137393,17076,-452,468,17088.39,26.98,-1.00,-1.0,2351
2396,2137396,17148,-384,620,17163.50,26.88,-1.00,-1.0,2360
2399,2137399,17072,-464,644,17090.44,26.98,-1.00,-1.0,2351
2402,2137402,17068,-524,664,17088.95,26.93,-1.00,-1.0,2360
2405,2137405,17064,-432,596,17079.87,27.02,-1.00,-1.0,2353
2408,2137408,17024,-496,688,17045.12,27.02,-1.00,-1.0,2359
2411,2137411,17020,-384,556,17033.41,27.02,-1.00,-1.0,2350
2414,2137414,17104,-388,512,17116.06,27.02,-1.00,-1.0,2347
2417,2137417,17112,-420,564,17126.44,27.02,-1.00,-1.0,2340
2420,2137420,17068,-484,500,17082.18,26.84,-1.00,-1.0,2360
2423,2137423,17088,-404,624,17104.16,26.93,-1.00,-1.0,2351
2426,2137426,17068,-432,488,17080.44,26.93,-1.00,-1.0,2359
2429,2137429,17052,-412,560,17066.17,26.93,-1.00,-1.0,2351
2432,2137432,17080,-356,664,17096.61,26.93,-1.00,-1.0,2360
2435,2137435,17132,-476,568,17148.02,26.93,-1.00,-1.0,2350
2438,2137438,17132,-460,632,17149.82,26.93,-1.00,-1.0,2359
2441,2137441,17128,-464,476,17140.89,27.02,-1.00,-1.0,2352
2444,2137444,16964,-412,548,16977.85,26.98,-1.00,-1.0,2360
2447,2137447,16956,-492,592,16973.46,26.98,-1.00,-1.0,2351
2450,2137450,17056,-468,640,17074.42,26.88,-1.00,-1.0,2359
2453,2137453,17100,-476,468,17113.02,26.88,-1.00,-1.0,2351
2456,2137456,17116,-448,612,17132.80,26.88,-1.00,-1.0,2359
2459,2137459,17096,-472,644,17114.63,26.88,-1.00,-1.0,2350
2462,2137462,17024,-464,520,17038.26,26.88,-1.00,-1.0,2359
2465,2137465,17156,-416,652,17173.42,26.98,-1.00,-1.0,2350
2468,2137468,17084,-396,560,17097.76,26.98,-1.00,-1.0,2359
2471,2137471,17028,-456,548,17042.92,26.98,-1.00,-1.0,2351
2474,2137474,17076,-432,524,17089.50,26.98,-1.00,-1.0,2361
2477,2137477,17100,-480,648,17119.00,26.98,-1.00,-1.0,2352
2480,2137480,17100,-504,376,17111.56,26.98,-1.00,-1.0,2360
2483,2137483,17104,-452,620,17121.20,26.98,-1.00,-1.0,2351
2486,2137486,17032,-504,456,17045.56,26.98,-1.00,-1.0,2359
2489,2137489,17132,-484,588,17148.92,26.98,-1.00,-1.0,2350
2492,2137492,17176,-564,516,17193.00,26.88,-1.00,-1.0,2360
2495,2137495,17064,-536,676,17085.79,26.88,-1.00,-1.0,2351
2498,2137498,17068,-460,536,17082.61,26.88,-1.00,-1.0,2360
2501,2137501,17104,-408,484,17115.71,26.98,-1.00,-1.0,2351
2504,2137504,17096,-372,636,17111.87,26.98,-1.00,-1.0,2360
2507,2137507,17088,-364,520,17099.79,26.98,-1.00,-1.0,2351
2510,2137510,17132,-440,560,17146.80,26.93,-1.00,-1.0,2359
2513,2137513,17100,-388,568,17113.83,27.02,-1.00,-1.0,2351
2516,2137516,17140,-364,544,17152.49,27.02,-1.00,-1.0,2359
2528,2137528,17140,-488,776,17164.50,26.98,-1.00,-1.0,2458
2531,2137531,17096,-468,440,17108.06,26.88,-1.00,-1.0,2362
2534,2137534,17060,-392,444,17070.28,27.02,-1.00,-1.0,2354
2536,2137536,17172,-444,552,17186.61,26.93,-1.00,-1.0,2361
2539,2137539,17116,-432,724,17136.75,26.98,-1.00,-1.0,2359
2541,2137541,17028,-504,472,17041.99,26.98,-1.00,-1.0,2349
2544,2137544,17136,-392,548,17149.24,26.93,-1.00,-1.0,2354
2546,2137546,17008,-496,464,17021.56,26.93,-1.00,-1.0,2350
2549,2137549,17024,-408,676,17042.30,26.88,-1.00,-1.0,2361
2551,2137551,17108,-492,576,17124.76,26.98,-1.00,-1.0,2348
2554,2137554,17100,-436,548,17114.33,26.93,-1.00,-1.0,2359
2557,2137557,17140,-352,484,17150.45,26.93,-1.00,-1.0,2348
2559,2137559,17072,-428,688,17091.22,27.07,-1.00,-1.0,2366
2562,2137562,17164,-492,432,17176.48,26.88,-1.00,-1.0,2359
2564,2137564,17088,-512,596,17106.05,26.93,-1.00,-1.0,2352
2567,2137567,17208,-416,528,17221.12,26.93,-1.00,-1.0,2367
2569,2137569,17144,-404,684,17162.39,26.98,-1.00,-1.0,2356
2572,2137572,17008,-408,708,17027.62,26.88,-1.00,-1.0,2359
2574,2137574,17044,-460,632,17061.92,27.02,-1.00,-1.0,2348
2577,2137577,17228,-404,520,17240.58,26.93,-1.00,-1.0,2359
2580,2137580,17032,-452,616,17049.13,26.93,-1.00,-1.0,2354
2582,2137582,17024,-452,660,17042.78,26.98,-1.00,-1.0,2359
2585,2137585,17060,-464,448,17072.19,26.98,-1.00,-1.0,2361
2588,2137588,17104,-396,612,17119.53,26.88,-1.00,-1.0,2366
2591,2137591,17124,-392,580,17138.30,26.88,-1.00,-1.0,2366
2594,2137594,17096,-436,652,17113.98,26.98,-1.00,-1.0,2367
2597,2137597,17036,-384,680,17053.89,26.98,-1.00,-1.0,2361
2600,2137600,17136,-496,572,17152.72,26.98,-1.00,-1.0,2367
2603,2137603,17008,-408,644,17025.08,26.88,-1.00,-1.0,2361
2606,2137606,17028,-480,536,17043.20,26.98,-1.00,-1.0,2362
2609,2137609,17244,-436,416,17254.53,26.88,-1.00,-1.0,2362
2612,2137612,17200,-272,520,17210.01,26.98,-1.00,-1.0,2361
2615,2137615,17172,-392,500,17183.75,26.98,-1.00,-1.0,2348
2618,2137618,17032,-400,452,17042.69,26.88,-1.00,-1.0,2347
2621,2137621,17016,-504,684,17037.20,26.98,-1.00,-1.0,2362
2624,2137624,17076,-500,652,17095.76,26.98,-1.00,-1.0,2362
2627,2137627,17120,-432,420,17130.60,26.98,-1.00,-1.0,2360
2630,2137630,17108,-404,656,17125.34,26.98,-1.00,-1.0,2362
2633,2137633,17140,-444,608,17156.53,26.98,-1.00,-1.0,2352
2636,2137636,16956,-384,556,16969.46,26.98,-1.00,-1.0,2359
2639,2137639,17124,-428,484,17136.18,26.88,-1.00,-1.0,2354
2642,2137642,17168,-444,536,17182.10,26.93,-1.00,-1.0,2359
2645,2137645,17092,-504,592,17109.67,26.93,-1.00,-1.0,2354
2648,2137648,17092,-320,552,17103.90,26.93,-1.00,-1.0,2359
2651,2137651,17096,-504,644,17115.55,27.02,-1.00,-1.0,2353
2654,2137654,17108,-472,528,17122.65,26.93,-1.00,-1.0,2359
2657,2137657,17116,-408,572,17130.41,27.02,-1.00,-1.0,2353
2660,2137660,17060,-480,632,17078.45,26.93,-1.00,-1.0,2359
2663,2137663,17044,-460,588,17060.34,26.93,-1.00,-1.0,2354
2666,2137666,17048,-360,632,17063.51,26.93,-1.00,-1.0,2360
2669,2137669,17120,-488,748,17143.28,26.84,-1.00,-1.0,2353
2672,2137672,17064,-476,636,17082.48,26.93,-1.00,-1.0,2359
2675,2137675,17080,-376,716,17099.13,27.02,-1.00,-1.0,2354
2678,2137678,17192,-380,684,17209.80,27.02,-1.00,-1.0,2359
2681,2137681,17060,-424,512,17072.95,26.93,-1.00,-1.0,2354
2684,2137684,17140,-396,616,17155.64,26.93,-1.00,-1.0,2359
2687,2137687,17132,-420,668,17150.16,26.93,-1.00,-1.0,2353
2690,2137690,17124,-468,572,17139.94,26.93,-1.00,-1.0,2360
2693,2137693,17104,-436,492,17116.63,26.93,-1.00,-1.0,2353
2696,2137696,17180,-420,616,17196.17,27.12,-1.00,-1.0,2359
2699,2137699,17124,-456,604,17140.71,27.02,-1.00,-1.0,2353
2702,2137702,17196,-568,668,17218.34,26.93,-1.00,-1.0,2345
2705,2137705,17060,-484,572,17076.45,26.93,-1.00,-1.0,2340
2708,2137708,17104,-436,516,17117.34,26.98,-1.00,-1.0,2359
2711,2137711,16980,-424,608,16996.17,26.98,-1.00,-1.0,2353
2714,2137714,17088,-512,492,17102.75,26.98,-1.00,-1.0,2359
2717,2137717,17084,-356,628,17099.24,26.98,-1.00,-1.0,2353
2720,2137720,17056,-440,548,17070.47,26.98,-1.00,-1.0,2360
2723,2137723,17164,-428,644,17181.41,26.98,-1.00,-1.0,2353
2726,2137726,17112,-440,676,17131.00,26.98,-1.00,-1.0,2359
2738,2137738,16960,-380,548,16973.11,26.98,-1.00,-1.0,2442
2741,2137741,17136,-404,648,17153.01,26.93,-1.00,-1.0,2365
2743,2137743,17112,-448,560,17127.02,26.98,-1.00,-1.0,2360
2746,2137746,17100,-520,560,17117.07,26.98,-1.00,-1.0,2361
2749,2137749,17100,-408,476,17111.49,26.93,-1.00,-1.0,2360
2751,2137751,17116,-496,616,17134.26,26.93,-1.00,-1.0,2353
2754,2137754,17104,-452,592,17120.21,26.88,-1.00,-1.0,2366
2756,2137756,17124,-372,600,17138.55,27.02,-1.00,-1.0,2359
2759,2137759,17128,-508,560,17144.68,27.02,-1.00,-1.0,2359
2761,2137761,17028,-420,548,17041.99,27.12,-1.00,-1.0,2354
2764,2137764,17072,-448,580,17087.72,26.98,-1.00,-1.0,2359
2767,2137767,17128,-464,616,17145.35,26.98,-1.00,-1.0,2354
2769,2137769,17072,-376,652,17088.58,26.93,-1.00,-1.0,2366
2772,2137772,17124,-484,420,17135.99,26.98,-1.00,-1.0,2359
2774,2137774,17160,-400,560,17173.79,26.98,-1.00,-1.0,2353
2777,2137777,17084,-408,480,17095.61,27.02,-1.00,-1.0,2365
2779,2137779,16996,-544,592,17015.01,26.93,-1.00,-1.0,2361
2782,2137782,17124,-480,468,17137.12,26.88,-1.00,-1.0,2347
2784,2137784,17136,-396,560,17149.72,26.98,-1.00,-1.0,2354
2787,2137787,17120,-544,620,17139.86,27.02,-1.00,-1.0,2359
2790,2137790,17028,-492,552,17044.05,27.02,-1.00,-1.0,2357
2792,2137792,17112,-448,740,17133.85,26.93,-1.00,-1.0,2361
2795,2137795,17144,-464,568,17159.68,27.02,-1.00,-1.0,2356
2798,2137798,17080,-376,580,17093.98,26.93,-1.00,-1.0,2364
2801,2137801,17056,-372,500,17067.38,27.02,-1.00,-1.0,2358
2804,2137804,17060,-468,664,17079.33,26.93,-1.00,-1.0,2363
2807,2137807,17068,-444,600,17084.31,27.12,-1.00,-1.0,2359
2810,2137810,17012,-412,652,17029.47,27.02,-1.00,-1.0,2361
2813,2137813,17244,-468,652,17262.67,26.93,-1.00,-1.0,2357
2816,2137816,17068,-420,432,17078.63,26.93,-1.00,-1.0,2368
2819,2137819,17100,-548,688,17122.61,26.84,-1.00,-1.0,2363
2822,2137822,17104,-396,632,17120.25,27.02,-1.00,-1.0,2368
2825,2137825,17168,-428,632,17184.96,26.84,-1.00,-1.0,2363
2828,2137828,17108,-408,628,17124.38,26.93,-1.00,-1.0,2367
2831,2137831,17132,-476,592,17148.83,26.93,-1.00,-1.0,2362
2834,2137834,17080,-468,580,17096.25,27.02,-1.00,-1.0,2367
2837,2137837,17076,-400,680,17094.21,27.02,-1.00,-1.0,2362
2840,2137840,17164,-368,556,17176.95,27.07,-1.00,-1.0,2370
2843,2137843,17108,-496,620,17126.41,26.98,-1.00,-1.0,2363
2846,2137846,17056,-508,432,17069.03,26.98,-1.00,-1.0,2367
2849,2137849,17160,-336,536,17171.66,26.88,-1.00,-1.0,2361
2852,2137852,17108,-456,692,17128.06,26.88,-1.00,-1.0,2366
2855,2137855,17036,-468,476,17049.07,26.98,-1.00,-1.0,2362
2858,2137858,16984,-448,600,17000.50,27.07,-1.00,-1.0,2366
2861,2137861,17148,-468,624,17165.73,26.98,-1.00,-1.0,2361
2864,2137864,17156,-472,536,17170.86,26.98,-1.00,-1.0,2367
2867,2137867,17144,-416,480,17155.76,26.88,-1.00,-1.0,2361
2870,2137870,17104,-460,620,17121.41,26.98,-1.00,-1.0,2366
2873,2137873,17080,-484,584,17096.83,26.88,-1.00,-1.0,2361
2876,2137876,17024,-404,496,17036.02,26.98,-1.00,-1.0,2367
2879,2137879,17088,-420,528,17101.31,26.98,-1.00,-1.0,2361
2882,2137882,17088,-448,576,17103.57,27.07,-1.00,-1.0,2361
2885,2137885,17100,-408,536,17113.26,26.88,-1.00,-1.0,2356
2888,2137888,17128,-508,580,17145.35,26.98,-1.00,-1.0,2362
2891,2137891,17216,-416,652,17233.36,26.98,-1.00,-1.0,2357
2894,2137894,17092,-444,720,17112.92,26.98,-1.00,-1.0,2346
2897,2137897,17048,-448,624,17065.30,27.07,-1.00,-1.0,2341
2900,2137900,17148,-456,664,17166.91,26.98,-1.00,-1.0,2361
2903,2137903,17024,-392,652,17040.99,27.07,-1.00,-1.0,2356
2906,2137906,17128,-396,732,17148.21,27.07,-1.00,-1.0,2361
2909,2137909,17124,-476,644,17142.71,27.07,-1.00,-1.0,2356
2912,2137912,17032,-436,604,17048.28,26.98,-1.00,-1.0,2359
2915,2137915,17072,-444,704,17092.28,26.98,-1.00,-1.0,2353
2918,2137918,17044,-404,688,17062.66,26.98,-1.00,-1.0,2359
2921,2137921,17176,-428,720,17196.41,26.98,-1.00,-1.0,2353
2924,2137924,17116,-428,592,17131.58,26.98,-1.00,-1.0,2359
2927,2137927,17112,-344,628,17126.97,26.98,-1.00,-1.0,2354
2930,2137930,17120,-408,516,17132.63,26.98,-1.00,-1.0,2359
2933,2137933,17108,-416,668,17126.09,26.98,-1.00,-1.0,2355
2946,2137946,17128,-472,588,17144.59,26.98,-1.00,-1.0,2443
2948,2137948,17112,-456,604,17128.73,26.88,-1.00,-1.0,2363
2951,2137951,17140,-464,556,17155.29,27.07,-1.00,-1.0,2363
2953,2137953,17032,-452,468,17044.42,26.98,-1.00,-1.0,2356
2956,2137956,17076,-460,656,17094.79,27.02,-1.00,-1.0,2359
2959,2137959,17160,-364,628,17175.35,26.98,-1.00,-1.0,2354
2961,2137961,17124,-484,680,17144.33,26.98,-1.00,-1.0,2367
2964,2137964,17064,-480,688,17084.61,26.93,-1.00,-1.0,2358
2966,2137966,17140,-496,608,17157.95,26.93,-1.00,-1.0,2354
2969,2137969,17024,-528,624,17043.61,26.98,-1.00,-1.0,2366
2971,2137971,17164,-476,472,17177.09,26.98,-1.00,-1.0,2361
2974,2137974,17188,-448,528,17201.94,26.93,-1.00,-1.0,2348
2976,2137976,17092,-488,584,17108.94,27.02,-1.00,-1.0,2354
2979,2137979,17108,-492,600,17125.59,26.88,-1.00,-1.0,2359
2982,2137982,17140,-456,708,17160.68,26.98,-1.00,-1.0,2358
2984,2137984,17144,-392,644,17160.57,27.02,-1.00,-1.0,2358
2987,2137987,16984,-352,508,16995.24,26.93,-1.00,-1.0,2353
2989,2137989,17068,-524,660,17088.79,27.07,-1.00,-1.0,2361
2992,2137992,17140,-496,496,17154.35,26.93,-1.00,-1.0,2358
2994,2137994,17088,-388,520,17100.31,27.02,-1.00,-1.0,2361
2997,2137997,17028,-452,632,17045.72,26.98,-1.00,-1.0,2354
2999,2137999,17104,-372,500,17115.35,27.07,-1.00,-1.0,2359
3002,2138002,17148,-532,500,17163.54,27.07,-1.00,-1.0,2355
3005,2138005,17164,-460,408,17175.01,26.98,-1.00,-1.0,2359
3008,2138008,17088,-512,556,17104.71,26.98,-1.00,-1.0,2354
3011,2138011,17076,-492,560,17092.26,26.98,-1.00,-1.0,2359
3014,2138014,17060,-408,528,17073.04,26.98,-1.00,-1.0,2353
3018,2138018,17088,-428,608,17104.17,27.07,-1.00,-1.0,2359
3020,2138020,17032,-468,620,17049.71,27.07,-1.00,-1.0,2353
3024,2138024,17160,-392,740,17180.42,27.07,-1.00,-1.0,2359
3027,2138027,17132,-464,412,17143.23,26.98,-1.00,-1.0,2354
3030,2138030,17108,-552,460,17123.08,26.98,-1.00,-1.0,2359
3033,2138033,17140,-440,520,17153.53,26.98,-1.00,-1.0,2353
3036,2138036,17124,-428,592,17139.57,26.98,-1.00,-1.0,2359
3039,2138039,17108,-432,592,17123.69,26.98,-1.00,-1.0,2354
3042,2138042,17088,-416,588,17103.17,27.02,-1.00,-1.0,2360
3045,2138045,17160,-360,580,17173.57,26.93,-1.00,-1.0,2355
3048,2138048,17160,-488,736,17182.71,26.93,-1.00,-1.0,2361
3051,2138051,17096,-540,604,17115.19,26.93,-1.00,-1.0,2359
3054,2138054,17008,-396,452,17018.61,27.02,-1.00,-1.0,2365
3057,2138057,17092,-388,616,17107.50,26.93,-1.00,-1.0,2359
3060,2138060,17152,-568,796,17179.85,27.02,-1.00,-1.0,2364
3063,2138063,17080,-412,412,17089.94,26.93,-1.00,-1.0,2359
3066,2138066,17044,-396,632,17060.31,26.93,-1.00,-1.0,2365
3069,2138069,17072,-472,504,17085.96,26.93,-1.00,-1.0,2364
3072,2138072,17088,-528,588,17106.26,26.93,-1.00,-1.0,2365
3075,2138075,17136,-480,520,17150.61,26.93,-1.00,-1.0,2364
3078,2138078,17088,-436,696,17107.72,27.02,-1.00,-1.0,2366
3081,2138081,17136,-476,532,17150.86,26.93,-1.00,-1.0,2367
3084,2138084,17124,-488,552,17139.84,26.93,-1.00,-1.0,2370
3087,2138087,17072,-400,604,17087.36,27.02,-1.00,-1.0,2362
3090,2138090,17204,-480,480,17217.39,26.93,-1.00,-1.0,2363
3093,2138093,17140,-504,592,17157.62,26.93,-1.00,-1.0,2359
3096,2138096,16964,-448,456,16976.04,26.98,-1.00,-1.0,2399
3099,2138099,17076,-456,704,17096.59,27.02,-1.00,-1.0,2357
3102,2138102,17132,-436,628,17149.05,27.02,-1.00,-1.0,2360
3105,2138105,17084,-524,576,17101.74,26.93,-1.00,-1.0,2355
3108,2138108,17072,-472,480,17085.27,27.07,-1.00,-1.0,2361
3111,2138111,16996,-448,676,17015.34,27.07,-1.00,-1.0,2357
3114,2138114,17048,-472,520,17062.46,26.98,-1.00,-1.0,2359
3117,2138117,17036,-388,572,17050.02,26.98,-1.00,-1.0,2354
3120,2138120,17136,-484,572,17152.38,26.98,-1.00,-1.0,2360
3123,2138123,17160,-264,664,17174.87,26.98,-1.00,-1.0,2401
3126,2138126,17156,-532,620,17175.44,27.07,-1.00,-1.0,2362
3129,2138129,17036,-408,552,17049.82,26.98,-1.00,-1.0,2360
3132,2138132,17060,-468,644,17078.56,26.98,-1.00,-1.0,2359
3135,2138135,17144,-368,476,17154.55,26.98,-1.00,-1.0,2359
3138,2138138,16988,-536,800,17015.27,26.98,-1.00,-1.0,2359
3141,2138141,17072,-424,600,17087.80,27.07,-1.00,-1.0,2360
3144,2138144,17104,-400,440,17114.33,26.98,-1.00,-1.0,2359
3156,2138156,17052,-504,528,17067.62,26.88,-1.00,-1.0,2467
3159,2138159,17108,-328,616,17122.23,27.07,-1.00,-1.0,2375
3161,2138161,17144,-448,724,17165.13,26.98,-1.00,-1.0,2360
3164,2138164,17108,-492,644,17127.19,27.02,-1.00,-1.0,2360
3166,2138166,17140,-364,644,17155.96,27.02,-1.00,-1.0,2363
3169,2138169,17112,-456,620,17129.30,27.07,-1.00,-1.0,2355
3171,2138171,17136,-496,696,17157.30,26.98,-1.00,-1.0,2359
3174,2138174,17008,-452,632,17025.74,26.93,-1.00,-1.0,2353
3177,2138177,17000,-380,416,17009.33,26.93,-1.00,-1.0,2359
3179,2138179,17156,-452,572,17171.48,26.98,-1.00,-1.0,2361
3182,2138182,17104,-352,564,17116.92,26.98,-1.00,-1.0,2359
3184,2138184,17080,-432,676,17098.83,27.02,-1.00,-1.0,2354
3187,2138187,17132,-440,716,17152.60,26.98,-1.00,-1.0,2366
3189,2138189,17088,-476,416,17099.69,27.07,-1.00,-1.0,2362
3192,2138192,17056,-428,712,17076.22,26.98,-1.00,-1.0,2348
3194,2138194,17064,-448,608,17080.71,27.02,-1.00,-1.0,2354
3197,2138197,17156,-416,556,17170.05,27.02,-1.00,-1.0,2359
3200,2138200,17052,-348,592,17065.82,26.98,-1.00,-1.0,2357
3202,2138202,17084,-448,608,17100.69,26.98,-1.00,-1.0,2359
3205,2138205,17088,-456,600,17104.61,26.93,-1.00,-1.0,2354
3207,2138207,17124,-444,632,17141.41,26.98,-1.00,-1.0,2362
3210,2138210,17160,-532,592,17178.45,26.88,-1.00,-1.0,2359
3213,2138213,17104,-400,608,17119.48,26.93,-1.00,-1.0,2359
3216,2138216,17112,-424,576,17126.94,26.93,-1.00,-1.0,2354
3219,2138219,17076,-368,380,17084.19,26.93,-1.00,-1.0,2367
3222,2138222,17176,-460,592,17192.35,27.02,-1.00,-1.0,2354
3225,2138225,17144,-460,608,17160.94,27.02,-1.00,-1.0,2367
3228,2138228,16992,-356,656,17008.38,26.93,-1.00,-1.0,2362
3231,2138231,17200,-464,544,17214.86,26.93,-1.00,-1.0,2365
3234,2138234,17080,-488,668,17100.02,26.93,-1.00,-1.0,2360
3237,2138237,17112,-444,536,17126.15,27.02,-1.00,-1.0,2367
3240,2138240,17140,-340,680,17156.85,27.02,-1.00,-1.0,2361
3243,2138243,17108,-476,612,17125.56,27.07,-1.00,-1.0,2367
3246,2138246,17112,-460,600,17128.69,26.98,-1.00,-1.0,2362
3249,2138249,17060,-480,540,17075.29,27.07,-1.00,-1.0,2367
3252,2138252,17056,-488,804,17081.91,26.98,-1.00,-1.0,2362
3255,2138255,17096,-396,756,17117.29,26.98,-1.00,-1.0,2367
3258,2138258,17092,-396,492,17103.66,26.98,-1.00,-1.0,2357
3261,2138261,17072,-472,760,17095.43,26.88,-1.00,-1.0,2362
3264,2138264,17148,-384,612,17163.21,27.07,-1.00,-1.0,2356
3267,2138267,17108,-432,644,17125.57,26.98,-1.00,-1.0,2354
3270,2138270,17088,-488,540,17103.49,26.98,-1.00,-1.0,2349
3273,2138273,17108,-464,588,17124.39,27.07,-1.00,-1.0,2370
3276,2138276,17072,-416,664,17089.97,26.98,-1.00,-1.0,2365
3279,2138279,17088,-308,580,17100.62,26.98,-1.00,-1.0,2366
3282,2138282,16964,-500,468,16977.82,26.98,-1.00,-1.0,2362
3285,2138285,17144,-460,620,17161.37,26.98,-1.00,-1.0,2367
3288,2138288,17060,-464,684,17080.01,26.98,-1.00,-1.0,2362
3291,2138291,17132,-436,636,17149.34,26.98,-1.00,-1.0,2366
3294,2138294,17152,-440,724,17172.91,26.98,-1.00,-1.0,2360
3297,2138297,17160,-464,488,17173.21,26.88,-1.00,-1.0,2367
3300,2138300,17088,-484,472,17101.37,26.98,-1.00,-1.0,2362
3303,2138303,17016,-428,488,17028.38,26.98,-1.00,-1.0,2367
3306,2138306,17148,-524,616,17167.06,27.02,-1.00,-1.0,2400
3309,2138309,17100,-432,668,17118.49,27.02,-1.00,-1.0,2368
3312,2138312,17052,-416,592,17067.34,27.02,-1.00,-1.0,2367
3315,2138315,17168,-276,596,17180.56,26.93,-1.00,-1.0,2362
3318,2138318,17044,-532,684,17066.01,26.93,-1.00,-1.0,2362
3321,2138321,17092,-376,536,17104.54,26.93,-1.00,-1.0,2362
3324,2138324,17120,-476,524,17134.63,27.02,-1.00,-1.0,2365
3327,2138327,17164,-444,608,17180.50,27.02,-1.00,-1.0,2353
3330,2138330,17104,-456,504,17117.50,27.02,-1.00,-1.0,2347
3333,2138333,17040,-432,560,17054.67,27.02,-1.00,-1.0,2363
3336,2138336,17048,-444,680,17067.33,27.02,-1.00,-1.0,2362
3339,2138339,17068,-512,548,17084.47,27.02,-1.00,-1.0,2361
3342,2138342,17036,-360,600,17050.36,27.02,-1.00,-1.0,2363
3345,2138345,17056,-516,520,17071.72,27.02,-1.00,-1.0,2360
3348,2138348,17096,-424,580,17111.09,26.93,-1.00,-1.0,2360
3351,2138351,17128,-400,664,17145.53,27.02,-1.00,-1.0,2359
3363,2138363,17112,-412,636,17128.77,27.02,-1.00,-1.0,2471
3366,2138366,17176,-432,668,17194.41,26.93,-1.00,-1.0,2370
3368,2138368,17132,-468,560,17147.54,26.98,-1.00,-1.0,2368
3371,2138371,17144,-496,504,17158.58,26.98,-1.00,-1.0,2354
3373,2138373,17036,-464,484,17049.19,26.93,-1.00,-1.0,2363
3376,2138376,17064,-476,600,17081.18,26.93,-1.00,-1.0,2368
3379,2138379,17116,-456,632,17133.73,26.88,-1.00,-1.0,2358
3381,2138381,17072,-472,496,17085.72,26.98,-1.00,-1.0,2354
3384,2138384,17092,-356,548,17104.49,27.02,-1.00,-1.0,2361
3386,2138386,17088,-460,508,17101.74,27.02,-1.00,-1.0,2364
3389,2138389,17112,-412,708,17131.60,27.07,-1.00,-1.0,2361
3391,2138391,17048,-508,536,17063.99,26.98,-1.00,-1.0,2354
3394,2138394,17108,-400,512,17120.33,26.98,-1.00,-1.0,2358
3397,2138397,17104,-496,744,17127.36,26.93,-1.00,-1.0,2361
3399,2138399,16988,-428,488,17000.40,26.88,-1.00,-1.0,2359
3402,2138402,17108,-452,528,17122.11,26.98,-1.00,-1.0,2353
3404,2138404,17084,-516,604,17102.46,27.02,-1.00,-1.0,2359
3407,2138407,17180,-396,596,17194.90,27.02,-1.00,-1.0,2356
3409,2138409,17064,-324,564,17076.39,26.98,-1.00,-1.0,2361
3412,2138412,17172,-444,500,17185.01,26.98,-1.00,-1.0,2354
3414,2138414,17136,-484,528,17150.96,26.93,-1.00,-1.0,2361
3417,2138417,17104,-464,520,17118.19,26.93,-1.00,-1.0,2369
3420,2138420,17088,-456,616,17105.18,26.98,-1.00,-1.0,2346
3423,2138423,17080,-472,472,17093.04,27.07,-1.00,-1.0,2354
3426,2138426,17052,-484,592,17069.14,26.98,-1.00,-1.0,2360
3429,2138429,17112,-512,572,17129.21,26.98,-1.00,-1.0,2355
3432,2138432,17084,-428,540,17097.89,26.98,-1.00,-1.0,2359
3435,2138435,17140,-456,612,17156.98,26.88,-1.00,-1.0,2354
3438,2138438,17148,-412,452,17158.90,26.98,-1.00,-1.0,2360
3441,2138441,17100,-384,516,17112.09,26.98,-1.00,-1.0,2354
3444,2138444,17096,-560,612,17116.11,26.98,-1.00,-1.0,2359
3447,2138447,17084,-508,588,17101.66,26.98,-1.00,-1.0,2354
3450,2138450,17124,-376,612,17139.06,26.98,-1.00,-1.0,2359
3453,2138453,17048,-440,456,17059.77,26.98,-1.00,-1.0,2354
3456,2138456,16984,-384,580,16998.24,26.98,-1.00,-1.0,2360
3459,2138459,17020,-324,408,17027.97,27.07,-1.00,-1.0,2354
3462,2138462,17088,-408,624,17104.26,26.88,-1.00,-1.0,2359
3465,2138465,17032,-372,604,17046.77,27.07,-1.00,-1.0,2354
3468,2138468,17132,-500,576,17148.97,27.02,-1.00,-1.0,2359
3471,2138471,17228,-376,652,17244.43,26.93,-1.00,-1.0,2354
3474,2138474,17084,-372,640,17100.03,27.02,-1.00,-1.0,2362
3477,2138477,17104,-456,460,17116.26,27.02,-1.00,-1.0,2354
3480,2138480,17156,-448,528,17169.97,27.02,-1.00,-1.0,2359
3483,2138483,17176,-476,560,17191.72,26.93,-1.00,-1.0,2354
3486,2138486,17044,-476,608,17061.48,26.93,-1.00,-1.0,2359
3489,2138489,17236,-420,564,17250.34,27.02,-1.00,-1.0,2354
3492,2138492,17108,-448,584,17123.83,26.93,-1.00,-1.0,2360
3495,2138495,17036,-516,588,17053.95,26.93,-1.00,-1.0,2355
3498,2138498,17164,-352,552,17176.48,27.02,-1.00,-1.0,2360
3501,2138501,17084,-500,388,17095.72,26.93,-1.00,-1.0,2354
3504,2138504,17080,-468,584,17096.39,26.93,-1.00,-1.0,2359
3507,2138507,17140,-464,572,17155.82,27.02,-1.00,-1.0,2354
3510,2138510,17096,-508,628,17115.07,26.88,-1.00,-1.0,2360
3513,2138513,17112,-348,628,17127.05,26.98,-1.00,-1.0,2354
3516,2138516,17008,-416,668,17026.20,26.98,-1.00,-1.0,2359
3519,2138519,17064,-480,632,17082.45,26.98,-1.00,-1.0,2354
3522,2138522,17136,-344,472,17145.95,27.07,-1.00,-1.0,2360
3525,2138525,17108,-432,464,17119.74,26.98,-1.00,-1.0,2354
3528,2138528,17152,-592,592,17172.42,26.98,-1.00,-1.0,2367
3531,2138531,17080,-524,728,17103.54,26.98,-1.00,-1.0,2367
3534,2138534,17180,-336,576,17192.94,26.98,-1.00,-1.0,2367
3537,2138537,17120,-572,472,17136.05,26.98,-1.00,-1.0,2367
3540,2138540,17100,-464,568,17115.72,26.98,-1.00,-1.0,2366
3543,2138543,17108,-368,548,17120.73,26.98,-1.00,-1.0,2367
3546,2138546,17000,-436,612,17016.60,26.98,-1.00,-1.0,2367
3549,2138549,16940,-552,568,16958.51,26.88,-1.00,-1.0,2367
3552,2138552,17164,-484,560,17179.95,26.98,-1.00,-1.0,2366
3555,2138555,17096,-388,604,17111.07,26.98,-1.00,-1.0,2366
3558,2138558,17196,-412,472,17207.41,26.98,-1.00,-1.0,2374
3561,2138561,17100,-472,636,17118.33,26.98,-1.00,-1.0,2375
3573,2138573,17152,-444,492,17164.80,27.02,-1.00,-1.0,2468
3576,2138576,17168,-444,604,17184.36,26.98,-1.00,-1.0,2356
3578,2138578,17152,-424,568,17166.64,26.93,-1.00,-1.0,2353
3581,2138581,17092,-464,552,17107.21,27.02,-1.00,-1.0,2359
3583,2138583,17200,-376,600,17214.57,26.98,-1.00,-1.0,2348
3586,2138586,17088,-472,548,17103.30,26.98,-1.00,-1.0,2367
3589,2138589,17108,-500,440,17120.96,27.12,-1.00,-1.0,2348
3591,2138591,17120,-496,728,17142.65,26.93,-1.00,-1.0,2359
3594,2138594,17080,-496,564,17096.51,26.98,-1.00,-1.0,2366
3596,2138596,17072,-344,716,17090.47,27.07,-1.00,-1.0,2351
3599,2138599,17076,-456,644,17094.22,27.12,-1.00,-1.0,2360
3601,2138601,17136,-412,624,17152.31,27.12,-1.00,-1.0,2350
3604,2138604,17096,-508,604,17114.21,26.98,-1.00,-1.0,2359
3606,2138606,17124,-452,556,17138.98,26.98,-1.00,-1.0,2348
3609,2138609,17048,-480,548,17063.56,27.02,-1.00,-1.0,2374
3612,2138612,17016,-464,736,17038.23,27.02,-1.00,-1.0,2359
3614,2138614,17048,-412,532,17061.27,26.98,-1.00,-1.0,2335
3617,2138617,17068,-472,580,17084.37,26.98,-1.00,-1.0,2367
3619,2138619,17092,-304,576,17104.40,27.02,-1.00,-1.0,2352
3622,2138622,17088,-392,704,17106.99,27.02,-1.00,-1.0,2362
3624,2138624,16992,-372,544,17004.78,26.98,-1.00,-1.0,2348
3627,2138627,17084,-424,784,17107.23,26.93,-1.00,-1.0,2361
3630,2138630,17044,-456,684,17063.81,26.93,-1.00,-1.0,2363
3633,2138633,17084,-420,680,17102.69,27.12,-1.00,-1.0,2359
3636,2138636,17112,-344,560,17124.62,27.02,-1.00,-1.0,2359
3639,2138639,17060,-440,548,17074.47,27.02,-1.00,-1.0,2358
3642,2138642,17016,-448,636,17033.77,26.98,-1.00,-1.0,2359
3645,2138645,17132,-456,476,17144.68,26.98,-1.00,-1.0,2359
3648,2138648,17152,-364,556,17164.87,26.98,-1.00,-1.0,2359
3651,2138651,17152,-452,572,17167.49,27.07,-1.00,-1.0,2359
3654,2138654,17128,-404,716,17147.72,26.98,-1.00,-1.0,2359
3657,2138657,17156,-452,720,17177.05,27.07,-1.00,-1.0,2359
3660,2138660,17048,-556,608,17067.90,27.07,-1.00,-1.0,2359
3663,2138663,17108,-360,484,17118.63,26.98,-1.00,-1.0,2359
3666,2138666,17048,-484,468,17061.29,26.98,-1.00,-1.0,2359
3669,2138669,17140,-352,600,17154.11,26.88,-1.00,-1.0,2359
3672,2138672,17092,-472,516,17106.30,26.98,-1.00,-1.0,2359
3675,2138675,17056,-396,596,17071.00,26.98,-1.00,-1.0,2359
3678,2138678,17092,-564,520,17109.21,26.98,-1.00,-1.0,2359
3681,2138681,17096,-532,500,17111.58,26.98,-1.00,-1.0,2359
3684,2138684,17104,-416,576,17118.75,26.98,-1.00,-1.0,2359
3687,2138687,17072,-396,492,17083.68,26.98,-1.00,-1.0,2359
3690,2138690,17064,-396,484,17075.46,26.98,-1.00,-1.0,2359
3693,2138693,17056,-368,448,17065.85,26.98,-1.00,-1.0,2360
3696,2138696,17096,-460,612,17113.13,26.98,-1.00,-1.0,2359
3699,2138699,17020,-348,592,17033.85,26.98,-1.00,-1.0,2358
3702,2138702,17128,-508,700,17149.82,26.98,-1.00,-1.0,2346
3705,2138705,17148,-528,664,17168.97,26.98,-1.00,-1.0,2346
3708,2138708,17132,-400,444,17142.42,26.98,-1.00,-1.0,2359
3711,2138711,17172,-384,436,17181.83,27.02,-1.00,-1.0,2358
3714,2138714,17108,-488,572,17124.51,26.93,-1.00,-1.0,2354
3717,2138717,17108,-568,624,17128.80,27.02,-1.00,-1.0,2359
3720,2138720,17000,-352,552,17012.60,26.93,-1.00,-1.0,2354
3723,2138723,17128,-440,532,17141.91,26.93,-1.00,-1.0,2358
3726,2138726,17028,-536,628,17048.00,27.02,-1.00,-1.0,2353
3729,2138729,17060,-396,564,17073.91,26.93,-1.00,-1.0,2361
3732,2138732,17128,-432,600,17143.95,26.93,-1.00,-1.0,2354
3735,2138735,17036,-464,596,17052.74,27.02,-1.00,-1.0,2359
3738,2138738,17176,-516,596,17194.08,26.93,-1.00,-1.0,2348
3741,2138741,16964,-364,644,16980.12,26.93,-1.00,-1.0,2359
3744,2138744,17008,-472,700,17028.94,26.93,-1.00,-1.0,2348
3747,2138747,17116,-440,572,17131.21,26.93,-1.00,-1.0,2362
3750,2138750,17056,-404,652,17073.24,27.02,-1.00,-1.0,2348
3753,2138753,17172,-444,660,17190.41,26.93,-1.00,-1.0,2361
3756,2138756,16992,-384,604,17007.07,26.93,-1.00,-1.0,2350
3759,2138759,17060,-380,660,17076.99,26.93,-1.00,-1.0,2360
3762,2138762,17120,-444,628,17137.27,26.93,-1.00,-1.0,2350
3765,2138765,16996,-480,628,17014.37,26.93,-1.00,-1.0,2362
3768,2138768,17048,-444,728,17069.31,27.02,-1.00,-1.0,2349
3780,2138780,17184,-432,552,17198.29,27.02,-1.00,-1.0,2441
3783,2138783,17208,-420,652,17225.47,26.98,-1.00,-1.0,2369
3786,2138786,17132,-456,580,17147.88,26.84,-1.00,-1.0,2356
3788,2138788,16972,-452,564,16987.38,26.98,-1.00,-1.0,2362
3791,2138791,17040,-436,424,17050.85,26.98,-1.00,-1.0,2347
3793,2138793,17132,-448,628,17149.36,26.93,-1.00,-1.0,2362
3796,2138796,17064,-496,696,17085.39,27.02,-1.00,-1.0,2358
3798,2138798,16992,-456,664,17011.08,27.02,-1.00,-1.0,2357
3801,2138801,17124,-528,520,17140.03,27.07,-1.00,-1.0,2373
3804,2138804,17144,-388,488,17155.33,26.88,-1.00,-1.0,2355
3806,2138806,17060,-408,612,17075.85,27.02,-1.00,-1.0,2344
3809,2138809,17136,-452,676,17155.29,27.12,-1.00,-1.0,2362
3811,2138811,17180,-524,736,17203.74,26.98,-1.00,-1.0,2361
3814,2138814,17232,-416,564,17246.25,27.02,-1.00,-1.0,2364
3816,2138816,17132,-404,616,17147.83,27.02,-1.00,-1.0,2355
3819,2138819,17076,-464,452,17088.28,27.07,-1.00,-1.0,2359
3822,2138822,17056,-480,664,17075.67,26.98,-1.00,-1.0,2360
3824,2138824,17024,-416,480,17035.85,26.93,-1.00,-1.0,2358
3827,2138827,17140,-420,484,17151.97,26.93,-1.00,-1.0,2355
3829,2138829,17140,-420,464,17151.42,27.07,-1.00,-1.0,2362
3832,2138832,17024,-420,536,17037.61,26.98,-1.00,-1.0,2362
3834,2138834,17228,-396,504,17239.92,27.02,-1.00,-1.0,2362
3837,2138837,17132,-452,472,17144.46,26.93,-1.00,-1.0,2367
3840,2138840,17108,-540,716,17131.49,27.02,-1.00,-1.0,2369
3843,2138843,17248,-376,512,17259.69,26.93,-1.00,-1.0,2368
3846,2138846,17072,-408,584,17086.86,27.02,-1.00,-1.0,2367
3849,2138849,17080,-448,488,17092.84,27.02,-1.00,-1.0,2366
3852,2138852,17104,-428,696,17123.50,26.93,-1.00,-1.0,2367
3855,2138855,17028,-412,624,17044.41,26.93,-1.00,-1.0,2367
3858,2138858,17036,-400,484,17047.57,27.12,-1.00,-1.0,2367
3861,2138861,17084,-444,480,17096.51,27.02,-1.00,-1.0,2366
3864,2138864,17176,-516,728,17199.16,26.93,-1.00,-1.0,2366
3867,2138867,17072,-400,584,17086.67,27.02,-1.00,-1.0,2367
3870,2138870,17064,-504,592,17081.70,26.93,-1.00,-1.0,2366
3873,2138873,17044,-452,608,17060.83,27.02,-1.00,-1.0,2361
3876,2138876,17052,-416,644,17069.23,26.93,-1.00,-1.0,2366
3879,2138879,17132,-372,580,17145.85,27.02,-1.00,-1.0,2361
3882,2138882,17104,-404,592,17119.01,27.02,-1.00,-1.0,2362
3885,2138885,17184,-472,632,17202.10,26.93,-1.00,-1.0,2362
3888,2138888,17068,-428,548,17082.16,27.02,-1.00,-1.0,2362
3891,2138891,17168,-448,624,17185.18,26.93,-1.00,-1.0,2348
3894,2138894,17108,-468,576,17124.09,26.93,-1.00,-1.0,2346
3897,2138897,17056,-496,612,17074.18,26.93,-1.00,-1.0,2362
3900,2138900,17164,-432,500,17176.71,26.93,-1.00,-1.0,2362
3903,2138903,17060,-396,660,17077.35,26.93,-1.00,-1.0,2361
3906,2138906,17112,-416,500,17124.36,27.02,-1.00,-1.0,2363
3909,2138909,17088,-488,564,17104.27,26.98,-1.00,-1.0,2359
3912,2138912,17096,-456,664,17114.96,26.98,-1.00,-1.0,2359
3915,2138915,17160,-416,608,17175.81,26.98,-1.00,-1.0,2359
3918,2138918,17148,-464,536,17162.65,26.88,-1.00,-1.0,2360
3921,2138921,16976,-460,640,16994.29,26.98,-1.00,-1.0,2359
3924,2138924,17056,-436,604,17072.26,26.98,-1.00,-1.0,2359
3927,2138927,17060,-484,552,17075.79,27.07,-1.00,-1.0,2359
3930,2138930,17100,-476,484,17113.47,26.98,-1.00,-1.0,2358
3933,2138933,17160,-452,620,17177.14,26.98,-1.00,-1.0,2359
3936,2138936,17084,-396,536,17096.99,26.98,-1.00,-1.0,2359
3939,2138939,17060,-436,608,17076.40,26.98,-1.00,-1.0,2359
3942,2138942,17000,-480,576,17016.53,26.98,-1.00,-1.0,2359
3945,2138945,17200,-456,456,17212.09,27.07,-1.00,-1.0,2359
3948,2138948,17096,-560,604,17115.83,26.98,-1.00,-1.0,2359
3951,2138951,17160,-412,568,17174.34,26.98,-1.00,-1.0,2359
3954,2138954,17088,-432,576,17103.16,26.98,-1.00,-1.0,2359
3957,2138957,17108,-444,720,17128.90,27.07,-1.00,-1.0,2359
3960,2138960,17088,-480,464,17101.04,26.98,-1.00,-1.0,2358
3963,2138963,17088,-452,552,17102.89,26.98,-1.00,-1.0,2359
3966,2138966,17100,-376,616,17115.22,26.98,-1.00,-1.0,2359
3969,2138969,17188,-508,624,17206.82,26.98,-1.00,-1.0,2359
3972,2138972,17168,-480,588,17184.77,26.98,-1.00,-1.0,2359
3975,2138975,17060,-332,388,17067.64,26.98,-1.00,-1.0,2359
3988,2138988,17116,-476,540,17131.13,26.98,-1.00,-1.0,2442
3990,2138990,17056,-372,640,17072.06,27.07,-1.00,-1.0,2375
3993,2138993,17056,-428,524,17069.41,26.98,-1.00,-1.0,2360
3995,2138995,17164,-508,432,17176.95,26.93,-1.00,-1.0,2360
3998,2138998,17028,-468,424,17039.71,26.88,-1.00,-1.0,2374
4001,2139001,17060,-376,612,17075.11,26.98,-1.00,-1.0,2359
4003,2139003,17104,-348,580,17117.37,26.93,-1.00,-1.0,2359
4006,2139006,17056,-420,516,17068.97,27.02,-1.00,-1.0,2370
4008,2139008,17076,-400,616,17091.79,26.98,-1.00,-1.0,2366
4011,2139011,16948,-544,604,16967.48,26.98,-1.00,-1.0,2346
4013,2139013,17096,-520,528,17112.05,26.98,-1.00,-1.0,2359
4016,2139016,17068,-512,636,17087.52,27.02,-1.00,-1.0,2367
4019,2139019,17160,-404,624,17176.09,26.98,-1.00,-1.0,2363
4021,2139021,17132,-472,452,17144.46,26.98,-1.00,-1.0,2359
4024,2139024,17068,-368,564,17081.28,26.93,-1.00,-1.0,2366
4026,2139026,17188,-488,688,17208.69,26.98,-1.00,-1.0,2362
4029,2139029,17120,-444,584,17135.71,26.98,-1.00,-1.0,2362
4031,2139031,17168,-476,576,17184.25,26.88,-1.00,-1.0,2359
4034,2139034,17084,-472,648,17102.80,27.02,-1.00,-1.0,2359
4037,2139037,17172,-508,548,17188.25,27.07,-1.00,-1.0,2365
4039,2139039,17096,-528,548,17112.93,26.98,-1.00,-1.0,2359
4042,2139042,17024,-380,708,17042.95,26.93,-1.00,-1.0,2359
4045,2139045,17084,-440,568,17099.10,26.98,-1.00,-1.0,2360
4048,2139048,17028,-428,564,17042.71,27.07,-1.00,-1.0,2362
4051,2139051,17180,-376,524,17192.10,26.98,-1.00,-1.0,2363
4054,2139054,17120,-448,512,17133.51,26.98,-1.00,-1.0,2366
4057,2139057,17160,-456,644,17178.13,26.98,-1.00,-1.0,2364
4060,2139060,17092,-444,540,17106.29,26.98,-1.00,-1.0,2364
4063,2139063,17028,-372,636,17043.93,27.07,-1.00,-1.0,2364
4066,2139066,17132,-452,740,17153.93,26.88,-1.00,-1.0,2365
4069,2139069,17112,-392,668,17129.52,26.98,-1.00,-1.0,2369
4072,2139072,17024,-404,564,17038.13,26.98,-1.00,-1.0,2366
4075,2139075,17096,-512,608,17114.47,26.98,-1.00,-1.0,2367
4078,2139078,17088,-348,360,17095.33,26.88,-1.00,-1.0,2366
4081,2139081,17196,-464,572,17211.77,26.88,-1.00,-1.0,2371
4084,2139084,17068,-460,484,17081.06,26.98,-1.00,-1.0,2368
4087,2139087,17024,-368,496,17035.20,26.98,-1.00,-1.0,2366
4090,2139090,17084,-456,528,17098.24,26.98,-1.00,-1.0,2364
4093,2139093,17252,-408,568,17266.17,26.98,-1.00,-1.0,2361
4096,2139096,17044,-460,556,17059.27,26.98,-1.00,-1.0,2361
4099,2139099,17112,-452,716,17132.94,26.98,-1.00,-1.0,2360
4102,2139102,17092,-532,788,17118.42,26.98,-1.00,-1.0,2360
4105,2139105,17112,-428,680,17130.85,27.07,-1.00,-1.0,2360
4108,2139108,17180,-448,564,17195.09,27.02,-1.00,-1.0,2363
4111,2139111,17104,-412,692,17122.95,26.93,-1.00,-1.0,2361
4114,2139114,17124,-404,704,17143.23,26.93,-1.00,-1.0,2360
4117,2139117,17052,-496,580,17069.07,27.02,-1.00,-1.0,2362
4120,2139120,17060,-516,636,17079.65,27.02,-1.00,-1.0,2360
4123,2139123,17100,-456,456,17112.16,26.93,-1.00,-1.0,2361
4126,2139126,17096,-368,608,17110.77,27.12,-1.00,-1.0,2361
4129,2139129,17184,-420,664,17201.95,27.02,-1.00,-1.0,2360
4132,2139132,17080,-456,468,17092.49,26.93,-1.00,-1.0,2359
4135,2139135,17052,-460,488,17065.18,26.93,-1.00,-1.0,2360
4138,2139138,17068,-508,508,17083.11,27.02,-1.00,-1.0,2359
4141,2139141,17204,-388,556,17217.36,27.02,-1.00,-1.0,2359
4144,2139144,17120,-428,496,17132.53,26.93,-1.00,-1.0,2359
4147,2139147,17120,-428,668,17138.37,26.93,-1.00,-1.0,2359
4150,2139150,17032,-436,604,17048.28,27.02,-1.00,-1.0,2359
4153,2139153,17100,-508,744,17123.71,26.93,-1.00,-1.0,2360
4156,2139156,17208,-448,696,17227.90,26.93,-1.00,-1.0,2360
4159,2139159,17080,-424,668,17098.32,26.93,-1.00,-1.0,2359
4162,2139162,17084,-428,672,17102.57,27.02,-1.00,-1.0,2359
4165,2139165,17132,-420,648,17149.39,27.02,-1.00,-1.0,2359
4168,2139168,17064,-364,472,17074.41,27.02,-1.00,-1.0,2359
4171,2139171,17060,-444,532,17074.07,27.02,-1.00,-1.0,2359
4174,2139174,17156,-472,620,17173.69,27.02,-1.00,-1.0,2361
4177,2139177,17080,-440,504,17093.10,26.98,-1.00,-1.0,2360
4180,2139180,17156,-428,552,17170.21,26.98,-1.00,-1.0,2359
4183,2139183,17024,-348,504,17035.01,26.88,-1.00,-1.0,2359
4186,2139186,16992,-588,488,17009.17,26.98,-1.00,-1.0,2359
4198,2139198,17144,-440,712,17164.42,27.02,-1.00,-1.0,2441
4201,2139201,17132,-336,584,17145.24,26.93,-1.00,-1.0,2377
4203,2139203,17060,-516,556,17076.86,26.98,-1.00,-1.0,2360
4206,2139206,17040,-376,524,17052.20,26.88,-1.00,-1.0,2366
4208,2139208,17072,-448,500,17085.20,26.98,-1.00,-1.0,2363
4211,2139211,17016,-376,592,17030.45,26.93,-1.00,-1.0,2361
4213,2139213,17148,-532,608,17167.02,26.98,-1.00,-1.0,2360
4216,2139216,17152,-428,496,17164.51,26.98,-1.00,-1.0,2359
4219,2139219,17044,-488,676,17064.38,26.93,-1.00,-1.0,2363
4221,2139221,17080,-456,644,17098.22,27.07,-1.00,-1.0,2362
4224,2139224,17060,-384,500,17071.64,26.98,-1.00,-1.0,2359
4226,2139226,17136,-496,548,17151.93,26.98,-1.00,-1.0,2361
4229,2139229,17032,-496,644,17051.39,27.02,-1.00,-1.0,2346
4231,2139231,17060,-456,544,17074.76,26.98,-1.00,-1.0,2362
4234,2139234,17120,-416,680,17138.55,27.07,-1.00,-1.0,2359
4236,2139236,17024,-448,624,17041.32,27.02,-1.00,-1.0,2358
4239,2139239,17076,-508,612,17094.51,27.02,-1.00,-1.0,2373
4242,2139242,17000,-444,684,17019.55,27.07,-1.00,-1.0,2359
4244,2139244,17156,-480,596,17173.06,26.98,-1.00,-1.0,2358
4247,2139247,17060,-420,564,17074.49,27.02,-1.00,-1.0,2366
4249,2139249,17096,-388,644,17112.53,27.02,-1.00,-1.0,2366
4252,2139252,17136,-316,544,17147.54,27.07,-1.00,-1.0,2348
4255,2139255,17124,-440,616,17140.72,26.93,-1.00,-1.0,2368
4258,2139258,17180,-420,704,17199.55,27.02,-1.00,-1.0,2367
4261,2139261,17076,-476,468,17089.04,26.93,-1.00,-1.0,2362
4264,2139264,17100,-436,652,17117.98,26.93,-1.00,-1.0,2370
4267,2139267,17044,-468,620,17061.69,27.02,-1.00,-1.0,2354
4270,2139270,17152,-484,612,17169.74,27.02,-1.00,-1.0,2354
4273,2139273,17152,-372,592,17166.24,27.02,-1.00,-1.0,2370
4276,2139276,17080,-444,564,17095.08,27.02,-1.00,-1.0,2369
4279,2139279,17136,-480,596,17153.08,27.02,-1.00,-1.0,2367
4282,2139282,17132,-548,572,17150.30,26.93,-1.00,-1.0,2369
4285,2139285,17036,-428,636,17053.24,27.02,-1.00,-1.0,2365
4288,2139288,17200,-388,512,17211.99,26.93,-1.00,-1.0,2366
4291,2139291,17132,-404,664,17149.62,26.93,-1.00,-1.0,2366
4294,2139294,17092,-508,596,17109.93,27.02,-1.00,-1.0,2366
4297,2139297,17036,-336,616,17050.44,26.93,-1.00,-1.0,2368
4300,2139300,17056,-372,644,17072.21,26.93,-1.00,-1.0,2367
4303,2139303,17092,-428,548,17106.14,26.93,-1.00,-1.0,2366
4306,2139306,17064,-316,540,17075.47,26.98,-1.00,-1.0,2367
4309,2139309,17112,-416,664,17129.93,26.88,-1.00,-1.0,2361
4312,2139312,17096,-440,712,17116.48,27.07,-1.00,-1.0,2367
4315,2139315,17044,-456,568,17059.56,26.98,-1.00,-1.0,2367
4318,2139318,17112,-472,572,17128.06,26.98,-1.00,-1.0,2362
4321,2139321,17052,-444,556,17066.84,26.98,-1.00,-1.0,2362
4324,2139324,17112,-432,548,17126.22,26.88,-1.00,-1.0,2362
4327,2139327,17088,-448,572,17103.44,26.98,-1.00,-1.0,2364
4330,2139330,17012,-384,620,17027.62,26.88,-1.00,-1.0,2347
4333,2139333,17104,-448,656,17122.44,26.98,-1.00,-1.0,2400
4336,2139336,17168,-576,620,17188.85,26.98,-1.00,-1.0,2362
4339,2139339,16984,-428,644,17001.59,26.98,-1.00,-1.0,2363
4342,2139342,17140,-476,540,17155.11,26.98,-1.00,-1.0,2359
4345,2139345,17036,-420,384,17045.50,26.98,-1.00,-1.0,2361
4348,2139348,17168,-356,608,17182.45,26.98,-1.00,-1.0,2360
4351,2139351,17072,-432,428,17082.83,26.98,-1.00,-1.0,2360
4354,2139354,17100,-472,720,17121.66,26.98,-1.00,-1.0,2360
4357,2139357,17112,-500,632,17130.96,26.98,-1.00,-1.0,2359
4360,2139360,17096,-384,644,17112.43,26.98,-1.00,-1.0,2347
4363,2139363,17132,-440,616,17148.72,26.98,-1.00,-1.0,2363
4366,2139366,17056,-432,600,17072.02,26.98,-1.00,-1.0,2362
4369,2139369,17124,-456,656,17142.63,26.98,-1.00,-1.0,2361
4372,2139372,17088,-356,544,17100.36,26.98,-1.00,-1.0,2361
4375,2139375,17140,-504,492,17154.46,26.93,-1.00,-1.0,2361
4378,2139378,17180,-428,512,17192.96,27.02,-1.00,-1.0,2361
4381,2139381,17048,-408,600,17063.43,27.02,-1.00,-1.0,2362
4384,2139384,17044,-408,660,17061.65,26.93,-1.00,-1.0,2360
4387,2139387,17076,-308,712,17093.61,26.93,-1.00,-1.0,2361
4390,2139390,17000,-440,552,17014.65,27.02,-1.00,-1.0,2359
4393,2139393,17112,-364,484,17122.71,26.93,-1.00,-1.0,2361
4405,2139405,17060,-448,616,17076.99,26.93,-1.00,-1.0,2459
4408,2139408,17136,-468,436,17147.93,26.93,-1.00,-1.0,2369
4410,2139410,17044,-348,508,17055.12,26.98,-1.00,-1.0,2359
4413,2139413,17208,-488,580,17224.69,27.07,-1.00,-1.0,2367
4415,2139415,17084,-452,584,17099.95,27.02,-1.00,-1.0,2365
4418,2139418,17096,-404,396,17105.36,26.93,-1.00,-1.0,2358
4420,2139420,17156,-412,540,17169.44,26.98,-1.00,-1.0,2359
4423,2139423,17120,-456,556,17135.10,26.98,-1.00,-1.0,2366
4426,2139426,17060,-420,544,17073.84,26.93,-1.00,-1.0,2361
4428,2139428,17140,-476,680,17160.09,26.93,-1.00,-1.0,2358
4431,2139431,17020,-500,656,17039.97,26.88,-1.00,-1.0,2366
4433,2139433,17124,-508,604,17142.18,27.02,-1.00,-1.0,2367
4436,2139436,17036,-436,652,17054.05,27.02,-1.00,-1.0,2360
4438,2139438,17200,-432,680,17218.86,26.98,-1.00,-1.0,2359
4441,2139441,17056,-508,628,17075.12,27.07,-1.00,-1.0,2359
4444,2139444,17188,-500,604,17205.88,27.02,-1.00,-1.0,2368
4446,2139446,17056,-432,664,17074.39,26.98,-1.00,-1.0,2403
4449,2139449,17096,-264,684,17111.71,27.02,-1.00,-1.0,2365
4451,2139451,17000,-340,616,17014.55,26.98,-1.00,-1.0,2359
4454,2139454,17172,-420,596,17187.47,27.07,-1.00,-1.0,2360
4457,2139457,17024,-396,612,17039.60,27.02,-1.00,-1.0,2363
4459,2139459,17164,-544,684,17186.24,27.02,-1.00,-1.0,2359
4462,2139462,16968,-384,728,16987.95,26.98,-1.00,-1.0,2359
4465,2139465,17104,-360,572,17117.35,26.98,-1.00,-1.0,2360
4468,2139468,17008,-380,600,17022.82,26.98,-1.00,-1.0,2360
4471,2139471,17060,-464,684,17080.01,26.88,-1.00,-1.0,2361
4474,2139474,17076,-400,524,17088.72,27.07,-1.00,-1.0,2363
4477,2139477,17036,-568,624,17056.88,26.98,-1.00,-1.0,2361
4480,2139480,16960,-472,580,16976.48,26.98,-1.00,-1.0,2360
4483,2139483,17164,-496,576,17180.82,26.98,-1.00,-1.0,2359
4486,2139486,17168,-416,544,17181.65,26.98,-1.00,-1.0,2359
4489,2139489,17016,-432,604,17032.20,26.88,-1.00,-1.0,2360
4492,2139492,17140,-424,432,17150.69,26.98,-1.00,-1.0,2360
4495,2139495,17124,-416,544,17137.69,26.88,-1.00,-1.0,2359
4498,2139498,17200,-432,692,17219.33,26.88,-1.00,-1.0,2360
4501,2139501,17008,-416,676,17026.51,26.98,-1.00,-1.0,2360
4504,2139504,17208,-360,600,17222.22,26.98,-1.00,-1.0,2359
4507,2139507,17112,-448,544,17126.51,26.98,-1.00,-1.0,2360
4510,2139510,17084,-496,544,17099.85,26.98,-1.00,-1.0,2359
4513,2139513,17040,-316,696,17057.13,26.98,-1.00,-1.0,2359
4516,2139516,17080,-492,540,17095.62,26.98,-1.00,-1.0,2359
4519,2139519,17112,-460,652,17130.59,26.98,-1.00,-1.0,2359
4522,2139522,17020,-392,552,17033.46,26.98,-1.00,-1.0,2360
4525,2139525,17120,-412,552,17133.85,26.88,-1.00,-1.0,2359
4528,2139528,17024,-324,792,17045.49,26.88,-1.00,-1.0,2354
4531,2139531,17116,-428,636,17133.16,26.93,-1.00,-1.0,2367
4534,2139534,16896,-436,704,16916.28,27.02,-1.00,-1.0,2367
4537,2139537,17112,-460,568,17127.60,27.02,-1.00,-1.0,2367
4540,2139540,17156,-432,520,17169.31,26.93,-1.00,-1.0,2366
4543,2139543,17108,-416,528,17121.20,27.02,-1.00,-1.0,2367
4546,2139546,17148,-452,616,17165.01,27.02,-1.00,-1.0,2367
4549,2139549,17220,-440,688,17239.36,27.02,-1.00,-1.0,2367
4552,2139552,17060,-508,620,17078.82,27.02,-1.00,-1.0,2367
4555,2139555,17184,-352,596,17197.94,26.93,-1.00,-1.0,2366
4558,2139558,17216,-444,508,17229.21,27.02,-1.00,-1.0,2366
4561,2139561,17040,-412,536,17053.41,27.02,-1.00,-1.0,2375
4564,2139564,17100,-504,592,17117.67,26.93,-1.00,-1.0,2374
4567,2139567,17088,-424,528,17101.41,27.02,-1.00,-1.0,2373
4570,2139570,17156,-488,564,17172.20,26.88,-1.00,-1.0,2374
4573,2139573,17088,-548,640,17108.76,26.98,-1.00,-1.0,2375
4576,2139576,17096,-508,524,17111.57,27.07,-1.00,-1.0,2375
4579,2139579,17024,-480,712,17045.64,26.98,-1.00,-1.0,2368
4582,2139582,17224,-480,524,17238.65,26.98,-1.00,-1.0,2367
4585,2139585,17124,-540,504,17139.92,26.98,-1.00,-1.0,2367
4588,2139588,16988,-492,668,17008.25,26.98,-1.00,-1.0,2368
4591,2139591,17112,-340,516,17123.15,26.98,-1.00,-1.0,2367
4594,2139594,17168,-488,548,17183.67,27.07,-1.00,-1.0,2367
4597,2139597,17104,-348,688,17121.37,26.88,-1.00,-1.0,2362
4600,2139600,17060,-424,636,17077.12,26.98,-1.00,-1.0,2367
4603,2139603,17016,-500,544,17032.04,26.98,-1.00,-1.0,2362
4615,2139615,17228,-464,640,17246.13,26.93,-1.00,-1.0,2458
4618,2139618,17120,-460,496,17133.36,27.02,-1.00,-1.0,2367
4621,2139621,17020,-440,536,17034.12,26.98,-1.00,-1.0,2361
4623,2139623,17208,-436,604,17224.12,26.88,-1.00,-1.0,2358
4626,2139626,17032,-408,612,17047.88,26.93,-1.00,-1.0,2355
4628,2139628,17184,-432,572,17198.94,26.98,-1.00,-1.0,2405
4631,2139631,17144,-480,560,17159.86,26.84,-1.00,-1.0,2361
4634,2139634,17124,-492,616,17142.14,27.07,-1.00,-1.0,2362
4636,2139636,17128,-408,648,17145.11,27.07,-1.00,-1.0,2362
4639,2139639,17020,-524,540,17036.62,27.02,-1.00,-1.0,2355
4641,2139641,17124,-480,560,17139.88,26.98,-1.00,-1.0,2407
4644,2139644,17108,-532,620,17127.49,27.02,-1.00,-1.0,2360
4646,2139646,17108,-400,456,17118.75,26.93,-1.00,-1.0,2355
4649,2139649,17076,-388,592,17090.66,26.98,-1.00,-1.0,2373
4652,2139652,17180,-480,580,17196.49,27.02,-1.00,-1.0,2355
4654,2139654,17052,-436,468,17063.99,27.12,-1.00,-1.0,2346
4657,2139657,17080,-524,540,17096.57,27.02,-1.00,-1.0,2363
4659,2139659,17080,-412,424,17090.23,26.98,-1.00,-1.0,2368
4662,2139662,17180,-368,620,17195.12,27.07,-1.00,-1.0,2359
4664,2139664,17088,-396,608,17103.40,26.93,-1.00,-1.0,2355
4667,2139667,17112,-428,564,17126.64,26.98,-1.00,-1.0,2358
4670,2139670,17024,-472,652,17043.02,26.98,-1.00,-1.0,2361
4672,2139672,17088,-500,672,17108.52,27.02,-1.00,-1.0,2358
4675,2139675,17128,-488,528,17143.08,27.02,-1.00,-1.0,2355
4678,2139678,17200,-396,604,17215.16,27.02,-1.00,-1.0,2358
4681,2139681,17068,-472,500,17081.84,26.93,-1.00,-1.0,2355
4684,2139684,17148,-464,576,17163.94,27.02,-1.00,-1.0,2358
4687,2139687,17044,-496,640,17063.22,26.93,-1.00,-1.0,2355
4690,2139690,17044,-472,540,17059.08,26.93,-1.00,-1.0,2358
4693,2139693,17112,-340,572,17124.93,27.02,-1.00,-1.0,2355
4696,2139696,16972,-512,632,16991.48,26.93,-1.00,-1.0,2359
4699,2139699,17072,-508,564,17088.87,26.93,-1.00,-1.0,2355
4702,2139702,17068,-556,564,17086.37,27.12,-1.00,-1.0,2358
4705,2139705,17140,-536,636,17160.17,27.02,-1.00,-1.0,2355
4708,2139708,17104,-444,616,17120.85,26.93,-1.00,-1.0,2345
4711,2139711,17136,-484,532,17151.09,26.93,-1.00,-1.0,2342
4714,2139714,17152,-336,544,17163.91,26.98,-1.00,-1.0,2358
4717,2139717,17044,-444,660,17062.55,26.98,-1.00,-1.0,2355
4720,2139720,17104,-432,632,17121.12,26.98,-1.00,-1.0,2358
4723,2139723,17164,-396,644,17180.64,27.07,-1.00,-1.0,2355
4726,2139726,17116,-420,520,17129.05,26.98,-1.00,-1.0,2360
4729,2139729,17072,-508,624,17090.95,26.98,-1.00,-1.0,2359
4732,2139732,17132,-452,464,17144.24,26.98,-1.00,-1.0,2360
4735,2139735,17088,-376,592,17102.38,27.07,-1.00,-1.0,2355
4738,2139738,16996,-484,640,17014.93,26.98,-1.00,-1.0,2360
4741,2139741,17100,-424,580,17115.09,26.98,-1.00,-1.0,2361
4744,2139744,17140,-372,544,17152.67,26.98,-1.00,-1.0,2359
4747,2139747,17240,-464,544,17254.82,27.07,-1.00,-1.0,2360
4750,2139750,17120,-372,660,17136.76,27.07,-1.00,-1.0,2363
4753,2139753,17120,-484,516,17134.61,26.98,-1.00,-1.0,2363
4756,2139756,17084,-540,588,17102.64,26.98,-1.00,-1.0,2361
4759,2139759,17060,-408,540,17073.42,26.98,-1.00,-1.0,2363
4762,2139762,17132,-472,500,17145.79,26.98,-1.00,-1.0,2360
4765,2139765,17160,-508,708,17182.11,27.07,-1.00,-1.0,2360
4768,2139768,17068,-380,584,17082.21,26.98,-1.00,-1.0,2361
4771,2139771,17176,-512,464,17189.89,26.98,-1.00,-1.0,2360
4774,2139774,17112,-392,516,17124.27,27.07,-1.00,-1.0,2360
4777,2139777,17004,-476,600,17021.24,27.02,-1.00,-1.0,2362
4780,2139780,17076,-360,484,17086.65,26.93,-1.00,-1.0,2362
4783,2139783,17148,-484,628,17166.32,27.02,-1.00,-1.0,2361
4786,2139786,17076,-368,748,17096.34,26.93,-1.00,-1.0,2363
4789,2139789,17104,-416,636,17120.88,26.93,-1.00,-1.0,2364
4792,2139792,17032,-464,504,17045.77,27.02,-1.00,-1.0,2407
4795,2139795,17108,-352,652,17124.04,27.02,-1.00,-1.0,2366
4798,2139798,17124,-472,388,17134.90,26.93,-1.00,-1.0,2364
4801,2139801,17140,-448,448,17151.71,27.02,-1.00,-1.0,2365
4804,2139804,17176,-356,592,17189.89,27.02,-1.00,-1.0,2364
4807,2139807,17100,-504,500,17114.73,26.93,-1.00,-1.0,2361
4810,2139810,17028,-500,580,17045.21,27.02,-1.00,-1.0,2361
4823,2139823,17048,-512,676,17069.08,27.02,-1.00,-1.0,2458
4825,2139825,17148,-408,564,17162.12,27.02,-1.00,-1.0,2371
4828,2139828,17088,-388,608,17103.21,27.02,-1.00,-1.0,2362
4830,2139830,17052,-436,632,17069.28,27.07,-1.00,-1.0,2362
4833,2139833,17052,-472,724,17073.89,27.07,-1.00,-1.0,2359
4836,2139836,17168,-496,680,17188.62,27.02,-1.00,-1.0,2360
4838,2139838,17156,-476,680,17176.07,26.98,-1.00,-1.0,2367
4841,2139841,17148,-452,568,17163.36,27.07,-1.00,-1.0,2362
4843,2139843,17176,-380,564,17189.46,26.93,-1.00,-1.0,2359
4846,2139846,17104,-420,624,17120.53,27.02,-1.00,-1.0,2361
4848,2139848,17144,-348,552,17156.41,26.98,-1.00,-1.0,2366
4851,2139851,17028,-464,524,17042.38,27.07,-1.00,-1.0,2359
4853,2139853,17028,-324,520,17039.02,26.93,-1.00,-1.0,2359
4856,2139856,17080,-492,460,17093.28,26.98,-1.00,-1.0,2374
4859,2139859,17116,-396,684,17134.24,26.98,-1.00,-1.0,2360
4861,2139861,17040,-468,540,17054.98,26.93,-1.00,-1.0,2359
4864,2139864,17140,-508,596,17157.88,27.02,-1.00,-1.0,2368
4866,2139866,17064,-512,664,17084.59,26.98,-1.00,-1.0,2367
4869,2139869,17236,-444,556,17250.68,26.98,-1.00,-1.0,2348
4871,2139871,17088,-424,576,17102.96,26.93,-1.00,-1.0,2359
4874,2139874,17044,-408,552,17057.82,27.02,-1.00,-1.0,2367
4877,2139877,17120,-476,564,17135.90,26.88,-1.00,-1.0,2361
4879,2139879,17132,-456,736,17153.86,27.07,-1.00,-1.0,2362
4882,2139882,17140,-496,556,17156.19,26.98,-1.00,-1.0,2362
4885,2139885,17092,-508,684,17113.22,26.98,-1.00,-1.0,2362
4888,2139888,17112,-404,708,17131.40,26.98,-1.00,-1.0,2362
4891,2139891,17124,-372,644,17140.14,27.07,-1.00,-1.0,2348
4894,2139894,17200,-544,636,17220.35,26.98,-1.00,-1.0,2347
4897,2139897,17080,-476,504,17094.06,26.98,-1.00,-1.0,2361
4900,2139900,17088,-432,568,17102.89,26.98,-1.00,-1.0,2362
4903,2139903,17140,-468,620,17157.59,26.98,-1.00,-1.0,2361
4906,2139906,17096,-364,472,17106.39,26.98,-1.00,-1.0,2362
4909,2139909,17100,-428,620,17116.59,27.02,-1.00,-1.0,2359
4912,2139912,17088,-432,576,17103.16,27.02,-1.00,-1.0,2359
4915,2139915,17088,-504,548,17104.21,27.02,-1.00,-1.0,2359
4918,2139918,17072,-472,668,17091.58,27.02,-1.00,-1.0,2359
4921,2139921,17112,-468,608,17129.19,26.93,-1.00,-1.0,2359
4924,2139924,17040,-352,596,17054.05,27.02,-1.00,-1.0,2359
4927,2139927,17040,-436,680,17059.13,27.02,-1.00,-1.0,2359
4930,2139930,17104,-480,408,17115.60,27.02,-1.00,-1.0,2358
4933,2139933,17128,-344,616,17142.53,26.93,-1.00,-1.0,2359
4936,2139936,17056,-464,520,17070.23,26.93,-1.00,-1.0,2359
4939,2139939,17080,-492,496,17094.28,27.12,-1.00,-1.0,2359
4942,2139942,17096,-480,592,17112.98,27.12,-1.00,-1.0,2359
4945,2139945,17128,-436,508,17141.08,27.02,-1.00,-1.0,2359
4948,2139948,17088,-436,572,17103.13,27.02,-1.00,-1.0,2359
4951,2139951,17084,-436,564,17098.87,27.02,-1.00,-1.0,2359
4954,2139954,17132,-452,604,17148.60,27.02,-1.00,-1.0,2359
4957,2139957,17052,-420,572,17066.76,27.02,-1.00,-1.0,2359
4960,2139960,17100,-400,396,17109.26,27.02,-1.00,-1.0,2359
4963,2139963,17112,-384,520,17124.21,27.02,-1.00,-1.0,2359
4966,2139966,16956,-476,516,16970.53,26.93,-1.00,-1.0,2359
4969,2139969,17048,-456,560,17063.29,27.02,-1.00,-1.0,2360
4972,2139972,17080,-444,588,17095.88,27.02,-1.00,-1.0,2359
4975,2139975,17008,-408,636,17024.78,26.98,-1.00,-1.0,2359
4978,2139978,17056,-512,736,17079.55,26.93,-1.00,-1.0,2346
4981,2139981,17184,-424,472,17195.71,26.93,-1.00,-1.0,2346
4984,2139984,17148,-468,464,17160.66,26.98,-1.00,-1.0,2360
4987,2139987,17172,-372,580,17185.82,26.98,-1.00,-1.0,2359
4990,2139990,17092,-604,632,17114.34,26.98,-1.00,-1.0,2359
4993,2139993,17080,-388,540,17092.94,27.07,-1.00,-1.0,2359
4996,2139996,17164,-448,484,17176.67,26.88,-1.00,-1.0,2359
4999,2139999,17136,-396,512,17148.22,26.98,-1.00,-1.0,2359
5002,2140002,17180,-496,592,17197.35,26.98,-1.00,-1.0,2361
5005,2140005,17052,-556,572,17070.65,27.07,-1.00,-1.0,2360
5008,2140008,17092,-380,600,17106.75,26.98,-1.00,-1.0,2359
5011,2140011,17044,-500,668,17064.41,26.98,-1.00,-1.0,2359
5014,2140014,17060,-524,576,17077.76,26.98,-1.00,-1.0,2359
5017,2140017,17152,-420,604,17167.77,26.88,-1.00,-1.0,2360
5030,2140030,17160,-504,700,17181.67,27.07,-1.00,-1.0,2448
5032,2140032,17084,-468,688,17104.25,26.98,-1.00,-1.0,2369
5035,2140035,16988,-392,676,17005.96,26.98,-1.00,-1.0,2360
5038,2140038,17096,-464,344,17105.75,26.98,-1.00,-1.0,2367
5040,2140040,17028,-380,420,17037.42,26.93,-1.00,-1.0,2360
5043,2140043,17064,-364,760,17084.79,26.98,-1.00,-1.0,2360
5045,2140045,17088,-428,652,17105.79,26.98,-1.00,-1.0,2362
5048,2140048,17064,-432,476,17076.10,27.02,-1.00,-1.0,2362
5050,2140050,17112,-408,612,17127.80,27.02,-1.00,-1.0,2358
5053,2140053,17088,-468,464,17100.70,26.98,-1.00,-1.0,2360
5056,2140056,17092,-504,572,17108.99,26.98,-1.00,-1.0,2359
5058,2140058,17216,-472,604,17233.06,26.93,-1.00,-1.0,2362
5061,2140061,17112,-456,604,17128.73,27.07,-1.00,-1.0,2359
5063,2140063,17104,-376,572,17117.69,26.98,-1.00,-1.0,2360
5066,2140066,17124,-444,540,17138.26,26.93,-1.00,-1.0,2368
5068,2140068,17188,-456,564,17203.29,26.93,-1.00,-1.0,2367
5071,2140071,17056,-516,536,17072.22,26.98,-1.00,-1.0,2362
5073,2140073,17120,-472,656,17139.06,27.07,-1.00,-1.0,2359
5076,2140076,17068,-476,520,17082.55,26.93,-1.00,-1.0,2373
5079,2140079,17156,-428,660,17174.03,27.07,-1.00,-1.0,2359
5081,2140081,17016,-336,620,17030.61,26.98,-1.00,-1.0,2359
5084,2140084,17092,-328,556,17104.19,27.02,-1.00,-1.0,2370
5087,2140087,17152,-352,640,17167.54,27.02,-1.00,-1.0,2363
5090,2140090,17080,-432,496,17092.66,27.02,-1.00,-1.0,2362
5093,2140093,17148,-372,564,17161.30,27.02,-1.00,-1.0,2362
5096,2140096,17176,-468,544,17190.98,27.02,-1.00,-1.0,2361
5099,2140099,17152,-380,604,17166.84,27.02,-1.00,-1.0,2361
5102,2140102,17128,-484,536,17143.22,26.93,-1.00,-1.0,2362
5105,2140105,17128,-444,648,17146.00,27.02,-1.00,-1.0,2360
5108,2140108,17076,-440,624,17093.06,26.98,-1.00,-1.0,2363
5111,2140111,17024,-456,524,17038.17,26.98,-1.00,-1.0,2360
5114,2140114,17052,-444,480,17064.53,26.98,-1.00,-1.0,2360
5117,2140117,17088,-452,608,17104.79,26.98,-1.00,-1.0,2363
5120,2140120,17068,-496,504,17082.64,27.07,-1.00,-1.0,2361
5123,2140123,17048,-388,620,17063.68,26.98,-1.00,-1.0,2360
5126,2140126,17060,-472,648,17078.83,26.98,-1.00,-1.0,2362
5129,2140129,17188,-424,672,17206.36,26.98,-1.00,-1.0,2361
5132,2140132,17140,-424,536,17153.62,26.98,-1.00,-1.0,2360
5135,2140135,17020,-444,528,17033.97,26.98,-1.00,-1.0,2360
5138,2140138,17100,-544,572,17118.21,26.98,-1.00,-1.0,2360
5141,2140141,17124,-408,656,17141.42,26.98,-1.00,-1.0,2359
5144,2140144,17052,-456,536,17066.52,27.07,-1.00,-1.0,2359
5147,2140147,17136,-376,560,17149.27,26.98,-1.00,-1.0,2359
5150,2140150,17112,-516,624,17131.15,26.98,-1.00,-1.0,2360
5153,2140153,17184,-568,724,17208.62,27.07,-1.00,-1.0,2360
5156,2140156,17120,-372,424,17129.29,26.98,-1.00,-1.0,2359
5159,2140159,17148,-508,556,17164.53,26.88,-1.00,-1.0,2359
5162,2140162,17012,-384,572,17025.95,26.98,-1.00,-1.0,2359
5165,2140165,17120,-456,604,17136.72,26.98,-1.00,-1.0,2359
5168,2140168,17104,-472,464,17116.80,26.98,-1.00,-1.0,2360
5171,2140171,17072,-340,576,17085.10,26.98,-1.00,-1.0,2360
5174,2140174,17120,-468,452,17132.36,27.07,-1.00,-1.0,2362
5177,2140177,17220,-472,592,17236.64,26.93,-1.00,-1.0,2360
5180,2140180,17084,-416,712,17103.89,27.02,-1.00,-1.0,2359
5183,2140183,17108,-444,584,17123.72,27.12,-1.00,-1.0,2360
5186,2140186,17076,-468,500,17089.73,27.02,-1.00,-1.0,2359
5189,2140189,17044,-364,676,17061.28,27.02,-1.00,-1.0,2359
5192,2140192,17144,-432,356,17153.14,27.02,-1.00,-1.0,2359
5195,2140195,17056,-584,660,17078.75,27.02,-1.00,-1.0,2359
5198,2140198,17144,-544,672,17165.79,26.93,-1.00,-1.0,2359
5201,2140201,17036,-384,544,17049.01,27.02,-1.00,-1.0,2359
5204,2140204,17180,-456,640,17197.96,27.02,-1.00,-1.0,2359
5207,2140207,17176,-408,588,17190.90,27.02,-1.00,-1.0,2360
5210,2140210,16988,-472,548,17003.39,27.02,-1.00,-1.0,2360
5213,2140213,17064,-472,696,17084.71,27.02,-1.00,-1.0,2359
5216,2140216,17028,-560,604,17047.91,26.93,-1.00,-1.0,2359
5219,2140219,17112,-480,592,17128.96,27.02,-1.00,-1.0,2359
5222,2140222,17108,-484,656,17127.41,27.02,-1.00,-1.0,2366
5225,2140225,17164,-428,556,17178.34,27.02,-1.00,-1.0,2366
5228,2140228,17088,-420,500,17100.47,27.02,-1.00,-1.0,2366
5240,2140240,17132,-392,572,17146.03,26.98,-1.00,-1.0,2461
5242,2140242,17140,-400,576,17154.34,27.02,-1.00,-1.0,2355
5245,2140245,17028,-412,688,17046.87,27.07,-1.00,-1.0,2367
5248,2140248,17028,-472,572,17044.14,26.98,-1.00,-1.0,2362
5250,2140250,17228,-464,504,17241.62,26.93,-1.00,-1.0,2359
5253,2140253,17132,-436,568,17146.96,26.98,-1.00,-1.0,2366
5255,2140255,17072,-456,584,17088.07,27.07,-1.00,-1.0,2370
5258,2140258,17104,-516,508,17119.32,27.02,-1.00,-1.0,2359
5260,2140260,17096,-468,644,17114.53,27.02,-1.00,-1.0,2359
5263,2140263,17016,-432,608,17032.34,26.98,-1.00,-1.0,2358
5266,2140266,17084,-456,480,17096.82,26.98,-1.00,-1.0,2367
5268,2140268,17012,-436,528,17025.78,27.02,-1.00,-1.0,2359
5271,2140271,17120,-380,676,17137.55,27.12,-1.00,-1.0,2359
5273,2140273,17080,-368,516,17091.75,26.98,-1.00,-1.0,2360
5276,2140276,17132,-492,684,17152.71,27.02,-1.00,-1.0,2361
5278,2140278,17120,-500,572,17136.85,27.02,-1.00,-1.0,2357
5281,2140281,17072,-336,632,17087.00,27.07,-1.00,-1.0,2359
5284,2140284,17080,-456,632,17097.77,27.07,-1.00,-1.0,2359
5286,2140286,17044,-460,748,17066.61,27.02,-1.00,-1.0,2361
5289,2140289,17128,-420,632,17144.80,26.93,-1.00,-1.0,2359
5291,2140291,17060,-536,564,17077.73,26.98,-1.00,-1.0,2359
5294,2140294,17120,-428,696,17139.49,26.98,-1.00,-1.0,2366
5297,2140297,17184,-440,736,17205.38,27.07,-1.00,-1.0,2367
5300,2140300,17156,-432,548,17170.19,27.07,-1.00,-1.0,2367
5303,2140303,17128,-556,572,17146.56,26.98,-1.00,-1.0,2367
5306,2140306,17084,-544,608,17103.47,26.93,-1.00,-1.0,2366
5309,2140309,17160,-472,640,17178.42,27.02,-1.00,-1.0,2367
5312,2140312,17184,-420,500,17196.40,27.02,-1.00,-1.0,2368
5315,2140315,17100,-464,540,17114.81,27.02,-1.00,-1.0,2367
5318,2140318,17052,-464,524,17066.36,27.02,-1.00,-1.0,2362
5321,2140321,17140,-352,548,17152.37,27.02,-1.00,-1.0,2362
5324,2140324,17080,-504,476,17094.06,27.02,-1.00,-1.0,2362
5327,2140327,17096,-472,660,17115.24,27.02,-1.00,-1.0,2363
5330,2140330,17096,-508,652,17115.97,26.93,-1.00,-1.0,2349
5333,2140333,17136,-368,512,17147.60,27.02,-1.00,-1.0,2346
5336,2140336,17068,-472,536,17082.94,27.02,-1.00,-1.0,2362
5339,2140339,17088,-428,496,17100.55,27.02,-1.00,-1.0,2362
5342,2140342,17100,-360,640,17115.76,27.02,-1.00,-1.0,2361
5345,2140345,17072,-424,532,17085.55,26.93,-1.00,-1.0,2362
5348,2140348,17060,-356,400,17068.40,26.93,-1.00,-1.0,2360
5351,2140351,17088,-472,640,17106.49,27.02,-1.00,-1.0,2359
5354,2140354,17120,-396,556,17133.60,27.02,-1.00,-1.0,2360
5357,2140357,17080,-468,668,17099.46,27.02,-1.00,-1.0,2359
5360,2140360,17168,-448,540,17182.33,26.93,-1.00,-1.0,2346
5363,2140363,17068,-428,580,17083.21,27.02,-1.00,-1.0,2346
5366,2140366,17124,-452,708,17144.59,27.02,-1.00,-1.0,2361
5369,2140369,16964,-372,532,16976.42,27.02,-1.00,-1.0,2362
5372,2140372,17060,-384,648,17076.62,27.02,-1.00,-1.0,2362
5375,2140375,17268,-452,412,17278.83,27.07,-1.00,-1.0,2363
5378,2140378,17112,-456,516,17125.85,26.98,-1.00,-1.0,2360
5381,2140381,17184,-456,524,17198.03,26.98,-1.00,-1.0,2359
5384,2140384,17104,-528,608,17122.95,26.88,-1.00,-1.0,2361
5387,2140387,17152,-428,696,17171.45,27.07,-1.00,-1.0,2361
5390,2140390,17072,-476,628,17090.18,26.98,-1.00,-1.0,2360
5393,2140393,17088,-516,592,17106.04,26.98,-1.00,-1.0,2362
5396,2140396,17120,-500,596,17137.67,27.07,-1.00,-1.0,2360
5399,2140399,17148,-492,536,17163.43,26.98,-1.00,-1.0,2360
5402,2140402,17104,-456,520,17117.98,26.88,-1.00,-1.0,2361
5405,2140405,17064,-480,640,17082.74,26.98,-1.00,-1.0,2359
5408,2140408,17088,-440,548,17102.45,27.07,-1.00,-1.0,2360
5411,2140411,17104,-412,532,17117.23,26.98,-1.00,-1.0,2360
5414,2140414,17112,-428,684,17131.01,26.88,-1.00,-1.0,2359
5417,2140417,17024,-420,504,17036.64,27.07,-1.00,-1.0,2347
5420,2140420,17180,-508,696,17201.60,26.98,-1.00,-1.0,2346
5423,2140423,17020,-424,576,17035.02,26.88,-1.00,-1.0,2359
5426,2140426,17080,-472,576,17096.23,27.07,-1.00,-1.0,2360
5429,2140429,17052,-392,564,17065.83,26.98,-1.00,-1.0,2359
5432,2140432,17096,-520,692,17117.90,26.98,-1.00,-1.0,2359
5435,2140435,17064,-396,624,17080.00,27.07,-1.00,-1.0,2361
5447,2140447,17132,-372,592,17146.26,26.98,-1.00,-1.0,2452
5450,2140450,17064,-396,676,17081.97,26.98,-1.00,-1.0,2376
5452,2140452,17152,-304,512,17162.33,27.07,-1.00,-1.0,2363
5455,2140455,17148,-452,408,17158.81,26.93,-1.00,-1.0,2359
5458,2140458,17048,-476,568,17064.10,26.93,-1.00,-1.0,2358
5460,2140460,17080,-456,696,17100.26,27.07,-1.00,-1.0,2367
5463,2140463,17068,-408,628,17084.42,26.98,-1.00,-1.0,2359
5465,2140465,17164,-348,556,17176.53,26.93,-1.00,-1.0,2359
5468,2140468,17176,-328,732,17194.72,26.98,-1.00,-1.0,2365
5470,2140470,17088,-432,604,17104.13,27.07,-1.00,-1.0,2367
5473,2140473,17104,-452,492,17117.04,26.93,-1.00,-1.0,2361
5475,2140475,17104,-436,736,17125.38,27.02,-1.00,-1.0,2358
5478,2140478,17084,-520,604,17102.58,27.07,-1.00,-1.0,2374
5481,2140481,17124,-420,616,17140.22,27.07,-1.00,-1.0,2360
5483,2140483,17140,-456,756,17162.72,27.07,-1.00,-1.0,2346
5486,2140486,17148,-372,512,17159.67,27.02,-1.00,-1.0,2361
5488,2140488,17064,-456,724,17085.44,26.98,-1.00,-1.0,2368
5491,2140491,17076,-396,536,17089.00,26.98,-1.00,-1.0,2361
5493,2140493,17076,-340,712,17094.22,27.02,-1.00,-1.0,2358
5496,2140496,17060,-396,740,17080.63,27.02,-1.00,-1.0,2359
5499,2140499,17028,-324,576,17040.82,26.98,-1.00,-1.0,2364
5501,2140501,17036,-448,624,17053.31,26.98,-1.00,-1.0,2359
5504,2140504,17060,-408,700,17079.23,27.02,-1.00,-1.0,2358
5507,2140507,17132,-568,596,17151.77,27.02,-1.00,-1.0,2359
5510,2140510,17264,-424,460,17275.33,26.98,-1.00,-1.0,2360
5513,2140513,17024,-372,624,17039.49,26.98,-1.00,-1.0,2359
5516,2140516,17112,-392,596,17126.86,27.07,-1.00,-1.0,2359
5519,2140519,17212,-408,648,17229.03,26.98,-1.00,-1.0,2359
5522,2140522,17036,-524,596,17054.47,26.98,-1.00,-1.0,2359
5525,2140525,17052,-488,592,17069.25,26.98,-1.00,-1.0,2359
5528,2140528,17144,-392,548,17157.23,26.98,-1.00,-1.0,2359
5531,2140531,17000,-500,708,17022.08,27.07,-1.00,-1.0,2355
5534,2140534,17144,-416,648,17161.29,26.98,-1.00,-1.0,2368
5537,2140537,16996,-408,616,17012.05,26.98,-1.00,-1.0,2367
5540,2140540,17136,-396,500,17147.87,26.98,-1.00,-1.0,2367
5543,2140543,17080,-460,508,17093.74,27.07,-1.00,-1.0,2366
5546,2140546,17076,-416,548,17089.86,26.88,-1.00,-1.0,2367
5549,2140549,17144,-448,632,17161.49,26.98,-1.00,-1.0,2367
5552,2140552,17060,-424,656,17077.87,27.07,-1.00,-1.0,2365
5555,2140555,17084,-464,524,17098.33,27.07,-1.00,-1.0,2366
5558,2140558,17084,-432,672,17102.67,26.88,-1.00,-1.0,2366
5561,2140561,17116,-448,504,17129.28,26.98,-1.00,-1.0,2375
5564,2140564,17040,-472,640,17058.54,26.98,-1.00,-1.0,2375
5567,2140567,17104,-464,600,17120.81,26.98,-1.00,-1.0,2372
5570,2140570,17124,-464,708,17144.91,27.07,-1.00,-1.0,2374
5573,2140573,16992,-452,556,17007.10,27.07,-1.00,-1.0,2374
5576,2140576,17072,-468,656,17091.01,27.07,-1.00,-1.0,2375
5579,2140579,17104,-384,572,17117.87,26.88,-1.00,-1.0,2374
5582,2140582,17040,-456,600,17056.66,26.98,-1.00,-1.0,2367
5585,2140585,17156,-500,652,17175.66,26.98,-1.00,-1.0,2367
5588,2140588,17112,-480,736,17134.54,26.98,-1.00,-1.0,2367
5591,2140591,17120,-468,584,17136.35,26.98,-1.00,-1.0,2367
5594,2140594,17176,-512,604,17194.24,26.98,-1.00,-1.0,2367
5597,2140597,17104,-460,732,17125.84,27.02,-1.00,-1.0,2366
5600,2140600,17104,-408,484,17115.71,27.02,-1.00,-1.0,2367
5603,2140603,17084,-488,700,17105.30,27.02,-1.00,-1.0,2366
5606,2140606,17064,-496,628,17082.75,26.93,-1.00,-1.0,2362
5609,2140609,17080,-416,684,17098.75,27.02,-1.00,-1.0,2361
5612,2140612,17176,-420,572,17190.65,27.02,-1.00,-1.0,2361
5615,2140615,17104,-484,484,17117.69,27.02,-1.00,-1.0,2361
5618,2140618,17132,-432,640,17149.39,27.02,-1.00,-1.0,2348
5621,2140621,17056,-424,640,17073.27,27.02,-1.00,-1.0,2345
5624,2140624,17148,-508,632,17167.16,27.02,-1.00,-1.0,2362
5627,2140627,17136,-456,584,17152.01,27.02,-1.00,-1.0,2361
5630,2140630,17160,-376,664,17176.96,26.93,-1.00,-1.0,2360
5633,2140633,17104,-436,552,17118.46,27.02,-1.00,-1.0,2361
5636,2140636,17140,-324,540,17151.56,26.93,-1.00,-1.0,2359
5639,2140639,17092,-360,548,17104.57,27.02,-1.00,-1.0,2358
5642,2140642,17152,-452,652,17170.34,26.93,-1.00,-1.0,2359
5645,2140645,17052,-488,528,17067.15,26.98,-1.00,-1.0,2359
5657,2140657,17052,-432,696,17071.66,26.93,-1.00,-1.0,2452
5660,2140660,17060,-416,624,17076.48,27.07,-1.00,-1.0,2375
5663,2140663,17020,-532,656,17040.94,26.93,-1.00,-1.0,2359
5665,2140665,17100,-352,716,17118.60,27.07,-1.00,-1.0,2358
5668,2140668,17108,-340,632,17123.04,26.98,-1.00,-1.0,2362
5670,2140670,17068,-392,572,17082.08,27.02,-1.00,-1.0,2362
5673,2140673,17060,-476,632,17078.34,27.07,-1.00,-1.0,2360
5675,2140675,17096,-436,624,17112.94,26.98,-1.00,-1.0,2355
5678,2140678,17008,-480,444,17020.56,26.98,-1.00,-1.0,2358
5681,2140681,17156,-456,620,17173.25,26.93,-1.00,-1.0,2356
5683,2140683,17132,-552,636,17152.69,26.98,-1.00,-1.0,2361
5686,2140686,17116,-456,784,17140.01,27.07,-1.00,-1.0,2355
5688,2140688,17072,-460,580,17088.04,27.12,-1.00,-1.0,2359
5691,2140691,17052,-408,596,17067.29,27.02,-1.00,-1.0,2366
5693,2140693,17072,-492,688,17092.94,27.07,-1.00,-1.0,2367
5696,2140696,17072,-348,780,17093.35,26.98,-1.00,-1.0,2359
5698,2140698,17052,-432,560,17066.66,27.12,-1.00,-1.0,2355
5701,2140701,17036,-424,520,17049.21,27.02,-1.00,-1.0,2365
5704,2140704,17028,-344,696,17045.69,26.98,-1.00,-1.0,2355
5706,2140706,17172,-368,596,17186.28,26.98,-1.00,-1.0,2358
5709,2140709,17056,-384,676,17073.71,27.02,-1.00,-1.0,2362
5711,2140711,17112,-448,464,17124.15,26.84,-1.00,-1.0,2362
5714,2140714,17100,-380,432,17109.68,26.93,-1.00,-1.0,2358
5717,2140717,17020,-492,588,17037.26,26.93,-1.00,-1.0,2355
5720,2140720,17108,-372,604,17122.70,26.93,-1.00,-1.0,2358
5723,2140723,17160,-488,504,17174.33,26.93,-1.00,-1.0,2355
5726,2140726,17072,-480,644,17090.88,27.02,-1.00,-1.0,2359
5729,2140729,17020,-480,496,17033.99,27.02,-1.00,-1.0,2354
5732,2140732,17112,-428,580,17127.18,27.02,-1.00,-1.0,2358
5735,2140735,17056,-468,520,17070.34,27.02,-1.00,-1.0,2355
5738,2140738,17192,-472,644,17210.53,26.93,-1.00,-1.0,2359
5741,2140741,17072,-440,560,17086.85,27.02,-1.00,-1.0,2360
5744,2140744,17196,-352,544,17208.20,27.12,-1.00,-1.0,2361
5747,2140747,17152,-448,548,17166.60,27.02,-1.00,-1.0,2359
5750,2140750,17064,-400,560,17077.87,27.02,-1.00,-1.0,2363
5753,2140753,17184,-372,772,17205.36,27.02,-1.00,-1.0,2361
5756,2140756,17116,-444,452,17127.72,26.93,-1.00,-1.0,2361
5759,2140759,17112,-508,584,17129.50,26.93,-1.00,-1.0,2360
5762,2140762,17140,-452,564,17155.23,26.93,-1.00,-1.0,2360
5765,2140765,17080,-420,660,17097.91,26.93,-1.00,-1.0,2360
5768,2140768,17108,-484,516,17122.62,27.02,-1.00,-1.0,2362
5771,2140771,17184,-444,564,17198.98,27.02,-1.00,-1.0,2361
5774,2140774,17108,-472,592,17124.75,26.93,-1.00,-1.0,2360
5777,2140777,17120,-396,548,17133.35,27.07,-1.00,-1.0,2363
5780,2140780,17108,-340,636,17123.19,26.98,-1.00,-1.0,2360
5783,2140783,17072,-504,672,17092.65,27.07,-1.00,-1.0,2365
5786,2140786,17060,-376,592,17074.41,26.98,-1.00,-1.0,2362
5789,2140789,17088,-440,520,17101.57,26.98,-1.00,-1.0,2360
5792,2140792,17192,-436,696,17211.61,26.98,-1.00,-1.0,2365
5795,2140795,17132,-500,580,17149.11,27.07,-1.00,-1.0,2362
5798,2140798,17124,-492,712,17145.86,26.98,-1.00,-1.0,2367
5801,2140801,17108,-420,636,17124.97,26.98,-1.00,-1.0,2364
5804,2140804,17052,-408,648,17069.19,26.98,-1.00,-1.0,2362
5807,2140807,17028,-356,536,17040.15,26.98,-1.00,-1.0,2362
5810,2140810,17120,-504,672,17140.60,26.98,-1.00,-1.0,2363
5813,2140813,17068,-420,632,17084.86,26.98,-1.00,-1.0,2362
5816,2140816,17104,-456,572,17119.64,26.98,-1.00,-1.0,2370
5819,2140819,17112,-408,600,17127.38,26.98,-1.00,-1.0,2368
5822,2140822,17080,-436,684,17099.25,27.07,-1.00,-1.0,2367
5825,2140825,17156,-344,496,17166.62,27.07,-1.00,-1.0,2369
5828,2140828,17140,-496,700,17161.46,26.98,-1.00,-1.0,2368
5831,2140831,17068,-444,588,17083.90,26.98,-1.00,-1.0,2367
5834,2140834,17052,-444,548,17066.58,27.07,-1.00,-1.0,2369
5837,2140837,17012,-560,728,17036.78,26.88,-1.00,-1.0,2368
5840,2140840,17100,-468,668,17119.44,27.12,-1.00,-1.0,2367
5843,2140843,17124,-468,504,17137.81,27.02,-1.00,-1.0,2369
5846,2140846,17104,-460,600,17120.70,26.93,-1.00,-1.0,2366
5849,2140849,17020,-480,608,17037.62,27.02,-1.00,-1.0,2366
5852,2140852,17028,-344,588,17041.62,27.12,-1.00,-1.0,2367
5865,2140865,17128,-476,508,17142.14,27.07,-1.00,-1.0,2444
5867,2140867,17076,-428,740,17097.38,26.98,-1.00,-1.0,2368
5870,2140870,16996,-408,692,17014.97,26.98,-1.00,-1.0,2359
5873,2140873,17044,-456,484,17056.97,27.12,-1.00,-1.0,2358
5875,2140875,17116,-376,604,17130.78,27.02,-1.00,-1.0,2359
5878,2140878,17112,-496,504,17126.60,26.98,-1.00,-1.0,2359
5880,2140880,17140,-496,572,17156.71,27.07,-1.00,-1.0,2362
5883,2140883,17152,-412,648,17169.18,26.98,-1.00,-1.0,2360
5885,2140885,17104,-440,632,17121.33,27.02,-1.00,-1.0,2358
5888,2140888,17188,-476,568,17203.97,27.07,-1.00,-1.0,2362
5891,2140891,17028,-312,556,17039.93,26.98,-1.00,-1.0,2359
5893,2140893,17136,-348,616,17150.60,27.02,-1.00,-1.0,2361
5896,2140896,17064,-516,556,17080.85,27.07,-1.00,-1.0,2362
5898,2140898,17084,-392,552,17097.41,26.98,-1.00,-1.0,2359
5901,2140901,17056,-384,696,17074.51,27.07,-1.00,-1.0,2367
5903,2140903,17024,-332,540,17035.80,27.12,-1.00,-1.0,2367
5906,2140906,17056,-448,464,17068.19,27.07,-1.00,-1.0,2359
5908,2140908,17172,-512,572,17189.15,26.98,-1.00,-1.0,2359
5911,2140911,17088,-544,676,17110.02,27.02,-1.00,-1.0,2373
5914,2140914,17148,-468,656,17166.92,27.02,-1.00,-1.0,2359
5916,2140916,17104,-404,380,17112.99,26.98,-1.00,-1.0,2359
5919,2140919,17152,-428,624,17168.68,26.98,-1.00,-1.0,2368
5921,2140921,17180,-484,712,17201.56,26.98,-1.00,-1.0,2359
5924,2140924,17212,-444,484,17224.53,26.98,-1.00,-1.0,2359
5927,2140927,17080,-464,752,17102.84,26.98,-1.00,-1.0,2359
5930,2140930,17144,-376,688,17161.92,26.98,-1.00,-1.0,2358
5933,2140933,17108,-372,636,17123.86,26.98,-1.00,-1.0,2359
5936,2140936,17136,-400,704,17155.12,27.07,-1.00,-1.0,2360
5939,2140939,17052,-516,552,17068.73,27.07,-1.00,-1.0,2359
5942,2140942,17112,-356,648,17127.96,27.07,-1.00,-1.0,2359
5945,2140945,17152,-536,660,17173.06,26.98,-1.00,-1.0,2359
5948,2140948,17092,-400,596,17107.06,26.98,-1.00,-1.0,2359
5951,2140951,17116,-464,556,17131.31,26.98,-1.00,-1.0,2359
5954,2140954,17132,-432,604,17148.09,26.98,-1.00,-1.0,2359
5957,2140957,17020,-464,624,17037.75,27.17,-1.00,-1.0,2359
5960,2140960,17144,-420,692,17163.10,27.07,-1.00,-1.0,2359
5963,2140963,17080,-408,628,17096.41,26.98,-1.00,-1.0,2359
5966,2140966,17112,-388,580,17126.22,26.98,-1.00,-1.0,2359
5969,2140969,17136,-444,452,17147.71,26.98,-1.00,-1.0,2359
5972,2140972,17140,-384,572,17153.84,26.88,-1.00,-1.0,2359
5975,2140975,17152,-332,632,17166.85,26.98,-1.00,-1.0,2359
5978,2140978,17140,-424,552,17154.13,27.12,-1.00,-1.0,2358
5981,2140981,17208,-488,660,17227.56,26.98,-1.00,-1.0,2345
5984,2140984,17100,-456,548,17114.85,26.93,-1.00,-1.0,2346
5987,2140987,17184,-448,476,17196.43,27.02,-1.00,-1.0,2359
5990,2140990,17168,-412,412,17177.88,26.93,-1.00,-1.0,2359
5993,2140993,17080,-384,660,17097.06,27.02,-1.00,-1.0,2358
5996,2140996,17104,-416,600,17119.58,26.93,-1.00,-1.0,2359
5999,2140999,17140,-384,548,17153.06,27.02,-1.00,-1.0,2359
6002,2141002,16984,-468,584,17000.48,26.93,-1.00,-1.0,2360
6005,2141005,17096,-504,476,17110.05,27.02,-1.00,-1.0,2361
6008,2141008,17060,-440,644,17077.82,27.02,-1.00,-1.0,2359
6011,2141011,17144,-420,584,17159.08,27.02,-1.00,-1.0,2359
6014,2141014,17104,-548,608,17123.57,26.93,-1.00,-1.0,2359
6017,2141017,17052,-428,676,17070.76,27.02,-1.00,-1.0,2358
6021,2141021,17052,-480,652,17071.21,27.02,-1.00,-1.0,2359
6024,2141024,17044,-460,556,17059.27,27.02,-1.00,-1.0,2359
6027,2141027,17060,-416,640,17077.07,26.93,-1.00,-1.0,2358
6030,2141030,17140,-416,604,17155.68,27.02,-1.00,-1.0,2359
6033,2141033,17076,-460,620,17093.44,27.12,-1.00,-1.0,2359
6036,2141036,17076,-496,504,17090.63,27.02,-1.00,-1.0,2358
6039,2141039,17088,-408,584,17102.84,26.93,-1.00,-1.0,2359
6042,2141042,17088,-384,568,17101.75,27.02,-1.00,-1.0,2358
6045,2141045,17132,-428,580,17147.16,26.98,-1.00,-1.0,2360
6048,2141048,17148,-444,484,17160.57,26.98,-1.00,-1.0,2360
6051,2141051,17108,-436,576,17123.25,27.07,-1.00,-1.0,2363
6054,2141054,17212,-404,656,17229.23,27.07,-1.00,-1.0,2364
6057,2141057,17144,-456,568,17159.47,26.98,-1.00,-1.0,2366
6060,2141060,17040,-340,684,17057.11,26.88,-1.00,-1.0,2364
6063,2141063,17112,-460,628,17129.70,27.07,-1.00,-1.0,2364
6075,2141075,17048,-364,652,17064.35,26.98,-1.00,-1.0,2442
6077,2141077,17128,-456,580,17143.88,27.02,-1.00,-1.0,2370
6080,2141080,17084,-524,608,17102.84,27.07,-1.00,-1.0,2363
6082,2141082,17120,-496,644,17139.29,26.93,-1.00,-1.0,2362
6085,2141085,17096,-472,540,17111.04,27.02,-1.00,-1.0,2358
6087,2141087,17112,-440,508,17125.19,26.98,-1.00,-1.0,2359
6090,2141090,17176,-472,660,17195.15,26.98,-1.00,-1.0,2375
6093,2141093,17076,-464,688,17096.15,26.98,-1.00,-1.0,2359
6095,2141095,17120,-380,636,17136.02,26.93,-1.00,-1.0,2360
6098,2141098,17080,-504,644,17099.57,27.07,-1.00,-1.0,2367
6100,2141100,17108,-432,552,17122.35,27.02,-1.00,-1.0,2366
6103,2141103,17088,-516,536,17104.19,26.93,-1.00,-1.0,2359
6105,2141105,17096,-396,684,17114.26,27.07,-1.00,-1.0,2359
6108,2141108,17112,-496,540,17127.70,26.98,-1.00,-1.0,2364
6111,2141111,17052,-456,676,17071.49,26.98,-1.00,-1.0,2360
6113,2141113,17068,-520,616,17087.03,27.02,-1.00,-1.0,2359
6116,2141116,17120,-388,680,17137.89,27.07,-1.00,-1.0,2366
6118,2141118,17184,-336,548,17196.02,26.98,-1.00,-1.0,2370
6121,2141121,17108,-472,472,17121.02,27.02,-1.00,-1.0,2358
