timestamp_ms,accel_x,accel_y,accel_z,voltage,soc
3,2060,-140,17736,4.12,91.3
6,1960,-288,17752,4.12,91.3
9,2068,-92,17852,4.12,91.3
16,1944,-180,17916,4.12,91.3
19,1980,-116,17676,4.12,91.3
22,2032,-188,17840,4.12,91.3
25,2068,-208,17876,4.12,91.3
28,2192,-172,17612,4.12,91.3
31,2044,-132,17820,4.12,91.3
34,1900,-248,17840,4.12,91.3
37,1964,-132,17744,4.12,91.3
40,2068,-212,17688,4.12,91.3
44,2044,-108,17796,4.12,91.3
47,2020,-76,17744,4.12,91.3
50,2008,-72,17852,4.12,91.3
53,1984,-244,17836,4.12,91.3
56,2048,-176,17804,4.12,91.3
59,1972,-120,17720,4.12,91.3
62,2044,-152,17612,4.12,91.3
65,1960,-96,17740,4.12,91.3
68,1964,-92,17796,4.12,91.3
73,1984,-124,17892,4.12,91.3
76,1904,-116,17704,4.12,91.3
79,1912,-76,17988,4.12,91.3
82,2060,-192,17780,4.12,91.3
85,2016,-152,17632,4.12,91.3
88,1992,16,17752,4.12,91.3
92,2028,-96,17832,4.12,91.3
95,2080,-56,17664,4.12,91.3
98,2116,16,17676,4.12,91.3
101,2048,-24,17816,4.12,91.3
104,2112,-88,17820,4.12,91.3
107,1892,-212,17844,4.12,91.3
110,2024,-192,17980,4.12,91.3
113,2072,-200,17928,4.12,91.3
116,2148,-212,17864,4.12,91.3
119,2196,-40,17640,4.12,91.3
122,1992,-168,17492,4.12,91.3
125,2060,-68,17708,4.12,91.3
131,2044,-64,17956,4.12,91.3
134,2100,-40,17844,4.12,91.3
137,2072,-80,17672,4.12,91.3
140,2044,-40,17808,4.12,91.3
143,1844,-52,17888,4.12,91.3
146,2020,-20,17840,4.12,91.3
149,2188,68,17620,4.12,91.3
152,2144,-28,17500,4.12,91.3
155,1972,24,17688,4.12,91.3
159,1956,-44,18036,4.12,91.3
162,1976,0,18088,4.12,91.3
165,2208,-96,17664,4.12,91.3
168,2160,-112,17576,4.12,91.3
171,1940,-96,17872,4.12,91.3
174,2024,-96,17796,4.12,91.3
177,2128,4,17728,4.12,91.3
180,2204,-148,17384,4.12,91.3
183,2080,-156,17740,4.12,91.3
189,2072,-216,18004,4.12,91.3
192,2104,-160,17980,4.12,91.3
195,2248,-172,17548,4.12,91.3
198,2080,-236,17572,4.12,91.3
201,1964,-168,17740,4.12,91.3
204,2044,-232,17952,4.12,91.3
207,2196,-172,17744,4.12,91.3
210,2180,-340,17496,4.12,91.3
213,2056,-180,17532,4.12,91.3
216,1896,-248,17912,4.12,91.3
219,1948,-216,17988,4.12,91.3
222,2024,-192,17788,4.12,91.3
226,2176,-96,17508,4.12,91.3
229,2040,-156,17584,4.12,91.3
232,1980,-136,17856,4.12,91.3
235,1912,-160,17920,4.12,91.3
238,1924,-88,17920,4.12,91.3
243,2128,-80,17616,4.12,91.3
246,2008,-96,17704,4.12,91.3
249,1980,-116,17916,4.12,91.3
252,1892,-8,17844,4.12,91.3
256,2032,-40,17684,4.12,91.3
259,1996,-100,17700,4.12,91.3
262,2052,-168,18028,4.12,91.3
265,2044,24,17844,4.12,91.3
268,2080,-20,17704,4.12,91.3
271,2116,-80,17764,4.12,91.3
274,2100,-56,17836,4.12,91.3
277,1976,-52,17828,4.12,91.3
280,2124,-56,17904,4.12,91.3
283,2064,-164,17868,4.12,91.3
286,2152,-56,17760,4.12,91.3
289,2096,-96,17704,4.12,91.3
292,2004,-108,17776,4.12,91.3
298,2132,-108,17900,4.12,91.3
301,2204,-96,17884,4.12,91.3
304,2164,-152,17704,4.12,91.3
307,2228,-196,17608,4.12,91.3
310,2060,-352,17860,4.12,91.3
313,2180,-320,18096,4.12,91.3
316,2152,-188,18056,4.12,91.3
319,2264,-204,17980,4.12,91.3
322,2160,-276,17664,4.12,91.3
326,2036,-316,17352,4.12,91.3
329,1896,-168,17384,4.12,91.3
332,1900,-276,17944,4.12,91.3
335,1960,-220,18460,4.12,91.3
338,2260,-36,17820,4.12,91.3
341,2280,-88,17376,4.12,91.3
344,1784,-96,17496,4.12,91.3
347,1504,-56,18000,4.12,91.3
350,1476,-16,18240,4.12,91.3
355,2200,44,17448,4.12,91.3
359,1956,28,17400,4.12,91.3
362,1692,28,17944,4.12,91.3
365,1624,-8,18284,4.12,91.3
368,1616,-88,18200,4.12,91.3
371,1896,68,17708,4.12,91.3
374,1984,52,17512,4.12,91.3
377,2068,28,17512,4.12,91.3
380,1988,-8,17688,4.12,91.3
383,1872,-196,17836,4.12,91.3
386,1840,-236,18116,4.12,91.3
389,2104,-116,17968,4.12,91.3
392,2208,-192,17764,4.12,91.3
396,2124,-120,17808,4.12,91.3
399,2124,-192,17620,4.12,91.3
402,2080,-132,17864,4.12,91.3
405,2072,-104,17756,4.12,91.3
410,2280,-124,17852,4.12,91.3
413,2316,-268,17696,4.12,91.3
416,2168,-200,17772,4.12,91.3
419,2120,-252,17968,4.12,91.3
422,2212,-192,18048,4.12,91.3
426,2308,-244,17772,4.12,91.3
429,2404,-208,17752,4.12,91.3
432,2168,-180,17736,4.12,91.3
435,2116,-264,17892,4.12,91.3
438,2096,-256,17956,4.12,91.3
441,2224,-212,17888,4.12,91.3
444,2236,-220,17524,4.12,91.3
447,2128,-96,17896,4.12,91.3
450,2092,-168,17884,4.12,91.3
453,1892,-176,17892,4.12,91.3
456,2020,-212,18004,4.12,91.3
459,2008,-116,17920,4.12,91.3
465,2012,-20,17724,4.12,91.3
468,1828,-144,17724,4.12,91.3
471,1980,-72,17740,4.12,91.3
474,1972,-36,17728,4.12,91.3
477,1952,-140,17860,4.12,91.3
480,1948,-56,17848,4.12,91.3
483,1804,-48,17988,4.12,91.3
486,1820,-80,17980,4.12,91.3
489,1972,-36,17868,4.12,91.3
492,1956,12,17372,4.12,91.3
495,1808,-16,17676,4.12,91.3
498,1860,8,18048,4.12,91.3
501,1884,-132,18220,4.12,91.3
504,2076,-108,17800,4.12,91.3
508,2188,-148,17540,4.12,91.3
511,1980,-80,17656,4.12,91.3
514,1848,-88,17988,4.12,91.3
517,1980,-56,18116,4.12,91.3
522,2344,-136,17568,4.12,91.3
525,2348,-140,17604,4.12,91.3
528,1936,-148,17708,4.12,91.3
531,1944,-212,18032,4.12,91.3
534,2108,-188,17972,4.12,91.3
537,2360,-160,17660,4.12,91.3
540,2252,-172,17456,4.12,91.3
543,2116,-132,17672,4.12,91.3
547,1940,52,17960,4.12,91.3
550,2008,-176,18036,4.12,91.3
553,2200,-108,17852,4.12,91.3
556,2220,-84,17688,4.12,91.3
559,2192,-144,17576,4.12,91.3
562,2052,-56,17744,4.12,91.3
565,2092,-144,17764,4.12,91.3
568,2064,12,17808,4.12,91.3
571,2116,-80,17856,4.12,91.3
576,2180,-116,17912,4.12,91.3
579,2204,-64,17832,4.12,91.3
582,2116,-108,17756,4.12,91.3
586,2084,-84,17872,4.12,91.3
589,2040,-64,17772,4.12,91.3
592,2060,-108,17764,4.12,91.3
595,2056,-8,17772,4.12,91.3
598,1992,-96,17808,4.12,91.3
601,2036,-144,17944,4.12,91.3
604,1936,-144,17788,4.12,91.3
607,1992,-152,17660,4.12,91.3
610,1956,-168,17784,4.12,91.3
613,2016,-168,17780,4.12,91.3
616,1964,-216,18068,4.12,91.3
620,1992,-264,17744,4.12,91.3
623,2008,-152,17752,4.12,91.3
626,2000,-228,17640,4.12,91.3
631,1872,-160,18020,4.12,91.3
634,1940,-60,17876,4.12,91.3
637,2116,-92,17480,4.12,91.3
640,1964,-116,17664,4.12,91.3
643,1924,-208,17888,4.12,91.3
646,1848,-144,18068,4.12,91.3
650,1888,-184,17892,4.12,91.3
653,2004,-100,17780,4.12,91.3
656,2060,-72,17612,4.12,91.3
659,1928,-108,17820,4.12,91.3
662,1944,-84,17944,4.12,91.3
665,1928,-128,18132,4.12,91.3
668,2096,-116,17764,4.12,91.3
671,2092,-12,17728,4.12,91.3
674,2072,-100,17756,4.12,91.3
677,1940,-100,17784,4.12,91.3
680,2024,-24,17824,4.12,91.3
683,2108,-184,17856,4.12,91.3
689,2140,-140,17744,4.12,91.3
692,2080,0,17948,4.12,91.3
695,2064,-72,17968,4.12,91.3
698,2152,-172,17776,4.12,91.3
701,2164,-124,17680,4.12,91.3
704,2108,-176,17712,4.12,91.3
707,2116,-76,17960,4.12,91.3
710,2056,-108,17804,4.12,91.3
713,2108,-168,17788,4.12,91.3
717,2196,-152,17740,4.12,91.3
720,2076,-180,17744,4.12,91.3
723,2092,-216,17936,4.12,91.3
726,2136,-184,17768,4.12,91.3
729,2132,-172,17784,4.12,91.3
732,2136,-72,17496,4.12,91.3
735,1952,-56,17664,4.12,91.3
738,1936,-148,17980,4.12,91.3
743,2120,-180,17828,4.12,91.3
746,2188,-84,17632,4.12,91.3
749,1996,-184,17584,4.12,91.3
752,1940,-156,17700,4.12,91.3
756,1900,-164,17880,4.12,91.3
759,2076,-116,17844,4.12,91.3
762,2132,-144,17512,4.12,91.3
765,2076,-96,17792,4.12,91.3
768,2020,-212,17688,4.12,91.3
771,2000,-124,17816,4.12,91.3
774,1988,-212,17896,4.12,91.3
777,2040,-4,17792,4.12,91.3
780,2060,-124,17820,4.12,91.3
783,1976,-172,17844,4.12,91.3
787,1980,-68,17784,4.12,91.3
790,1912,-80,17808,4.12,91.3
793,2044,-84,17980,4.12,91.3
798,1992,-116,17692,4.12,91.3
801,1876,-92,17828,4.12,91.3
804,2024,-144,17852,4.12,91.3
807,2072,-88,17844,4.12,91.3
810,2060,-120,17852,4.12,91.3
813,2028,-208,17832,4.12,91.3
817,2056,-124,17712,4.12,91.3
820,2020,-80,17816,4.12,91.3
823,1972,-176,17644,4.12,91.3
826,1972,-80,17740,4.12,91.3
829,2036,-56,17836,4.12,91.3
832,1976,-68,17792,4.12,91.3
835,2044,-8,17716,4.12,91.3
838,2060,-52,17808,4.12,91.3
841,2008,-68,17976,4.12,91.3
844,2124,-128,17808,4.12,91.3
847,2168,-160,17832,4.12,91.3
850,2132,-56,17740,4.12,91.3
856,2040,-64,17832,4.12,91.3
859,2012,-92,17720,4.12,91.3
862,2032,-24,17832,4.12,91.3
865,2064,-64,17784,4.12,91.3
868,2008,-28,17704,4.12,91.3
871,2064,-156,17632,4.12,91.3
874,2068,-88,17748,4.12,91.3
877,2084,-112,17920,4.12,91.3
880,2036,-168,17900,4.12,91.3
884,2096,-164,17740,4.12,91.3
887,2084,-148,17820,4.12,91.3
890,2096,-80,17968,4.12,91.3
893,2020,-172,17760,4.12,91.3
896,2128,32,17780,4.12,91.3
899,1964,-60,17880,4.12,91.3
902,2072,-88,17752,4.12,91.3
905,2064,-260,17760,4.12,91.3
910,1964,-196,17836,4.12,91.3
913,1992,-132,17812,4.12,91.3
916,2068,-216,17856,4.12,91.3
919,2032,-92,17840,4.12,91.3
923,1916,-140,18004,4.12,91.3
926,1992,-52,17692,4.12,91.3
929,1988,-120,17760,4.12,91.3
932,2000,-140,17748,4.12,91.3
935,1924,-140,17880,4.12,91.3
938,2036,-156,17724,4.12,91.3
941,1920,-140,17796,4.12,91.3
944,1968,-156,17756,4.12,91.3
947,1948,-24,17660,4.12,91.3
950,1980,-176,17756,4.12,91.3
953,2028,-152,17792,4.12,91.3
956,1920,-244,17876,4.12,91.3
959,2012,-292,17804,4.12,91.3
965,2060,-96,17784,4.12,91.3
968,2092,-128,17876,4.12,91.3
971,2048,-44,17864,4.12,91.3
974,2048,-112,17712,4.12,91.3
977,2048,-112,17724,4.12,91.3
980,2032,-12,17808,4.12,91.3
983,1988,-28,18076,4.12,91.3
986,1976,16,17972,4.12,91.3
989,2128,-12,17880,4.12,91.3
992,1956,144,17736,4.12,91.3
995,1896,8,17908,4.12,91.3
998,1956,48,18008,4.12,91.3
1001,2020,-36,17748,4.12,91.3
1004,2156,36,17540,4.12,91.3
1008,2112,-28,17792,4.12,91.3
1011,2088,-36,17740,4.12,91.3
1014,1928,-152,18004,4.12,91.3
1017,2028,-40,17956,4.12,91.3
1022,2076,-148,17656,4.12,91.3
1026,2012,-80,17696,4.12,91.3
1029,2092,-136,17856,4.12,91.3
1032,2020,-220,17904,4.12,91.3
1035,2028,-152,17696,4.12,91.3
1038,2104,-232,17712,4.12,91.3
1041,2096,-220,17840,4.12,91.3
1044,2196,-204,17948,4.12,91.3
1047,2012,-140,17952,4.12,91.3
1050,2040,-332,17780,4.12,91.3
1053,1992,-228,17840,4.12,91.3
1056,2104,-252,17852,4.12,91.3
1060,2000,-188,17784,4.12,91.3
1063,2056,-216,17604,4.12,91.3
1066,1916,-272,17804,4.12,91.3
1069,2024,-272,17764,4.12,91.3
1074,2056,-280,17796,4.12,91.3
1077,1944,-240,17972,4.12,91.3
1080,1952,-108,17828,4.12,91.3
1083,1936,-192,17772,4.12,91.3
1086,1968,-152,17668,4.12,91.3
1089,1988,-88,17864,4.12,91.3
1093,1840,-68,17768,4.12,91.3
1096,1876,-192,17828,4.12,91.3
1099,1916,-120,17900,4.12,91.3
1102,1904,-48,17824,4.12,91.3
1105,2128,-88,17824,4.12,91.3
1108,1952,-76,17828,4.12,91.3
1111,2020,-116,17844,4.12,91.3
1114,1904,-28,17776,4.12,91.3
1117,1996,36,17820,4.12,91.3
1120,2068,28,17624,4.12,91.3
1123,2060,-4,17748,4.12,91.3
1129,2056,4,17980,4.12,91.3
1132,1944,28,17820,4.12,91.3
1135,2192,8,17900,4.12,91.3
1138,2112,12,17852,4.12,91.3
1141,2092,-36,17804,4.12,91.3
1144,2028,-16,17808,4.12,91.3
1147,2080,-100,17884,4.12,91.3
1150,2076,-108,17820,4.12,91.3
1153,2168,-184,17744,4.12,91.3
1156,2116,-128,17796,4.12,91.3
1160,2124,-84,17852,4.12,91.3
1163,2160,-124,17856,4.12,91.3
1166,2136,-72,17736,4.12,91.3
1169,2068,-184,17700,4.12,91.3
1172,2056,-204,17860,4.12,91.3
1175,2120,-204,17760,4.12,91.3
1178,2108,-172,17724,4.12,91.3
1183,2084,-308,17780,4.12,91.3
1186,2000,-192,17688,4.12,91.3
1189,2120,-84,17732,4.12,91.3
1192,2108,-160,17704,4.12,91.3
1196,2068,-248,17708,4.12,91.3
1199,1964,-160,18008,4.12,91.3
1202,2144,-184,18072,4.12,91.3
1205,2100,-236,17944,4.12,91.3
1208,2032,-184,17648,4.12,91.3
1211,1948,-108,17692,4.12,91.3
1214,1972,-228,17660,4.12,91.3
1217,1924,-184,17868,4.12,91.3
1220,1956,-116,18024,4.12,91.3
1223,2152,-132,17876,4.12,91.3
1227,2128,-76,17600,4.12,91.3
1230,1840,-96,17784,4.12,91.3
1233,1752,-44,17832,4.12,91.3
1238,1888,-16,17892,4.12,91.3
1241,2172,44,17564,4.12,91.3
1244,2152,28,17396,4.12,91.3
1247,2000,12,17836,4.12,91.3
1250,1804,-124,18116,4.12,91.3
1253,1856,-48,17992,4.12,91.3
1256,2168,-112,17796,4.12,91.3
1259,2216,-132,17712,4.12,91.3
1263,2048,-92,17716,4.12,91.3
1266,1952,-108,17876,4.12,91.3
1269,2032,-152,17880,4.12,91.3
1272,2052,-32,17848,4.12,91.3
1275,2144,-296,17660,4.12,91.3
1278,2096,-208,17744,4.12,91.3
1281,2064,-156,17764,4.12,91.3
1284,2144,-236,17792,4.12,91.3
1287,2136,-248,17524,4.12,91.3
1293,2156,-120,17856,4.12,91.3
1296,2124,-236,17808,4.12,91.3
1299,2128,-120,17880,4.12,91.3
1302,2268,-228,17796,4.12,91.3
1305,2012,-124,17756,4.12,91.3
1308,2008,-228,17800,4.12,91.3
1311,2160,-132,17676,4.12,91.3
1314,2064,-172,18056,4.12,91.3
1317,2500,-164,17564,4.12,91.3
1320,2072,260,18312,4.12,91.3
1323,1600,-384,17972,4.12,91.3
1326,860,16,19464,4.12,91.3
1330,2104,-320,16504,4.12,91.3
1333,2268,360,19076,4.12,91.3
1336,3516,-84,15612,4.12,91.3
1339,1876,36,16684,4.12,91.3
1342,740,144,19396,4.12,91.3
1347,1100,-500,20144,4.12,91.3
1350,2412,-220,17996,4.12,91.3
1353,2856,392,15832,4.12,91.3
1356,1912,176,17604,4.12,91.3
1359,2268,-492,17004,4.12,91.3
1363,996,-332,19608,4.12,91.3
1366,1764,-16,17964,4.12,91.3
1369,2556,-88,17696,4.12,91.3
1372,2440,-304,17576,4.12,91.3
1375,2436,-320,16812,4.12,91.3
1378,1452,8,18588,4.12,91.3
1381,1576,-184,18276,4.12,91.3
1384,2500,-400,17028,4.12,91.3
1387,2560,-100,17664,4.12,91.3
1390,2436,-76,17124,4.12,91.3
1393,1760,-180,18868,4.12,91.3
1398,2112,-220,17652,4.12,91.3
1401,2288,-32,17828,4.12,91.3
1405,2608,-80,16748,4.12,91.3
1408,1972,-96,17852,4.12,91.3
1411,2056,-168,17972,4.12,91.3
1414,2072,-16,18172,4.12,91.3
1417,2040,-136,17976,4.12,91.3
1420,2380,12,17684,4.12,91.3
1423,2060,-12,17840,4.12,91.3
1426,2128,-52,17476,4.12,91.3
1429,1984,-8,17772,4.12,91.3
1432,1912,-48,18068,4.12,91.3
1435,2196,128,17876,4.12,91.3
1439,2176,-112,17828,4.12,91.3
1442,2040,-96,17596,4.12,91.3
1445,1788,84,17824,4.12,91.3
1448,1696,-12,17944,4.12,91.3
1453,1968,-92,17568,4.12,91.3
1456,2136,4,17396,4.12,91.3
1459,1952,-64,17572,4.12,91.3
1462,1812,-36,17832,4.12,91.3
1465,1800,-160,18252,4.12,91.3
1468,1960,-84,17824,4.12,91.3
1472,1984,-152,17612,4.12,91.3
1475,2072,-176,17400,4.12,91.3
1478,1860,-168,17520,4.12,91.3
1481,1820,-96,17568,4.12,91.3
1484,2048,-216,17964,4.12,91.3
1487,1900,-120,18184,4.12,91.3
1490,1556,-252,18936,4.12,91.3
1493,1764,-44,17672,4.12,91.3
1496,2360,8,17456,4.12,91.3
1499,2996,-152,16380,4.12,91.3
1502,2248,-232,17000,4.12,91.3
1508,1552,-332,18520,4.12,91.3
1511,1800,-572,19084,4.12,91.3
1514,2580,-476,18200,4.12,91.3
1517,3128,80,15976,4.12,91.3
1520,2140,28,17412,4.12,91.3
1523,1996,-252,17196,4.12,91.3
1526,1732,-328,18192,4.12,91.3
1529,1776,-308,18636,4.12,91.3
1532,2736,-72,17572,4.12,91.3
1535,2416,-140,18008,4.12,91.3
1539,2308,-108,17128,4.12,91.3
1542,1684,-88,18040,4.12,91.3
1545,1724,-160,17908,4.12,91.3
1548,2344,-136,17608,4.12,91.3
1551,2388,16,17692,4.12,91.3
1554,2504,16,17252,4.12,91.3
1557,2116,176,17932,4.12,91.3
1562,1772,-148,18384,4.12,91.3
1566,1968,164,17796,4.12,91.3
1569,2180,64,17020,4.12,91.3
1572,2056,-64,17852,4.12,91.3
1575,2204,-4,17612,4.12,91.3
1578,1628,-84,18008,4.12,91.3
1581,1744,-4,18620,4.12,91.3
1584,2416,-108,17436,4.12,91.3
1587,2208,-88,17288,4.12,91.3
1590,2056,-64,17400,4.12,91.3
1593,1608,16,17996,4.12,91.3
1596,1804,-192,18224,4.12,91.3
1599,2308,-156,17712,4.12,91.3
1603,1996,-88,17800,4.12,91.3
1606,2096,-28,17684,4.12,91.3
1609,2000,-148,17632,4.12,91.3
1612,1640,-380,18076,4.12,91.3
1617,2140,-180,17644,4.12,91.3
1620,2080,-148,17748,4.12,91.3
1623,2228,-260,17580,4.12,91.3
1626,2192,-224,17800,4.12,91.3
1629,1760,-160,18088,4.12,91.3
1633,1980,-192,17996,4.12,91.3
1636,2032,-272,18020,4.12,91.3
1639,2144,-140,17656,4.12,91.3
1642,2208,-132,17448,4.12,91.3
1645,1864,-128,17732,4.12,91.3
1648,1968,-104,17916,4.12,91.3
1651,2020,-76,17840,4.12,91.3
1654,2096,-124,17800,4.12,91.3
1657,2232,-48,17460,4.12,91.3
1660,2032,-164,17924,4.12,91.3
1663,1948,-60,17860,4.12,91.3
1666,2188,4,17616,4.12,91.3
1672,2088,-52,17828,4.12,91.3
1675,2108,36,17816,4.12,91.3
1678,1884,-60,17912,4.12,91.3
1681,2044,-92,17708,4.12,91.3
1684,2140,-8,17668,4.12,91.3
1687,2016,12,17856,4.12,91.3
1690,2112,-48,17664,4.12,91.3
1693,2076,-56,17724,4.12,91.3
1696,2016,-20,18020,4.12,91.3
1700,2144,-68,17816,4.12,91.3
1703,2072,-72,17888,4.12,91.3
1706,2116,-132,17772,4.12,91.3
1709,2052,4,17744,4.12,91.3
1712,2056,-96,17864,4.12,91.3
1715,2060,-76,17576,4.12,91.3
1718,1972,-152,17956,4.12,91.3
1721,2036,-96,18060,4.12,91.3
1726,2004,-156,17944,4.12,91.3
1730,2160,-164,17644,4.12,91.3
1733,2164,-292,17532,4.12,91.3
1736,1964,-120,17908,4.12,91.3
1739,1868,-168,17924,4.12,91.3
1742,1928,-352,17864,4.12,91.3
1745,2056,-184,17856,4.12,91.3
1748,2104,-84,17612,4.12,91.3
1751,2036,-184,17700,4.12,91.3
1754,1944,-176,17888,4.12,91.3
1757,1932,-244,17740,4.12,91.3
1760,2048,-164,17788,4.12,91.3
1763,2124,-268,17788,4.12,91.3
1767,2016,-168,17960,4.12,91.3
1770,1992,-228,17696,4.12,91.3
1773,2028,-148,17780,4.12,91.3
1776,1928,-120,17416,4.12,91.3
1781,2220,-156,17352,4.12,91.3
1784,2032,-104,18352,4.12,91.3
1787,2048,-240,18160,4.12,91.3
1790,1720,-216,18260,4.12,91.3
1793,2088,-28,17468,4.12,91.3
1796,2524,92,17384,4.12,91.3
1799,2540,-64,16584,4.12,91.3
1802,1960,-32,17780,4.12,91.3
1806,1652,-24,18596,4.12,91.3
1809,1680,-160,18392,4.12,91.3
1812,2292,-180,18344,4.12,91.3
1815,2644,140,17160,4.12,91.3
1818,2188,112,17432,4.12,91.3
1821,1884,76,17512,4.12,91.3
1824,1800,-180,17936,4.12,91.3
1827,1924,-100,18024,4.12,91.3
1832,2448,-24,17640,4.12,91.3
1835,1944,-36,17896,4.12,91.3
1838,1684,-272,18372,4.12,91.3
1841,1836,-108,18152,4.12,91.3
1844,2356,88,16788,4.12,91.3
1848,2296,-8,17492,4.12,91.3
1851,1828,-276,18332,4.12,91.3
1854,1888,-208,18232,4.12,91.3
1857,2076,-80,17888,4.12,91.3
1860,2328,-92,17404,4.12,91.3
1863,1964,-180,17844,4.12,91.3
1866,1864,-228,17664,4.12,91.3
1869,2172,-240,17820,4.12,91.3
1872,2028,-188,17652,4.12,91.3
1875,2068,-48,17852,4.12,91.3
1878,2100,-172,17976,4.12,91.3
1881,2356,-304,17968,4.12,91.3
1887,2000,-220,17752,4.12,91.3
1890,1916,-100,17816,4.12,91.3
1893,2052,-200,17748,4.12,91.3
1896,2232,-204,17940,4.12,91.3
1899,2296,-144,17476,4.12,91.3
1903,2200,-92,17928,4.12,91.3
1906,2164,-124,18032,4.12,91.3
1909,1964,-332,18020,4.12,91.3
1912,1884,-52,18052,4.12,91.3
1915,2232,-192,17732,4.12,91.3
1918,2236,-116,17792,4.12,91.3
1921,2096,-132,17612,4.12,91.3
1924,1916,-48,17836,4.12,91.3
1927,1876,-44,18076,4.12,91.3
1930,2028,-132,17920,4.12,91.3
1933,2084,-52,17744,4.12,91.3
1936,2068,4,17688,4.12,91.3
1942,1796,-152,18032,4.12,91.3
1945,1984,-184,17692,4.12,91.3
1948,2048,-36,17716,4.12,91.3
1951,1816,-80,17812,4.12,91.3
1954,1900,-116,17996,4.12,91.3
1957,2120,-92,17636,4.12,91.3
1960,2056,-80,17680,4.12,91.3
1963,2020,-100,17748,4.12,91.3
1966,1740,-148,18020,4.12,91.3
1970,1872,-160,17736,4.12,91.3
1973,1988,-96,17720,4.12,91.3
1976,1916,-180,17976,4.12,91.3
1979,2128,-172,17812,4.12,91.3
1982,1988,-80,17700,4.12,91.3
1985,1952,-248,17632,4.12,91.3
1988,1864,-132,17860,4.12,91.3
1991,1928,-72,17884,4.12,91.3
1996,2152,-172,17752,4.12,91.3
1999,1932,-104,17880,4.12,91.3
2003,1932,-144,17852,4.12,91.3
2006,1984,-192,17888,4.12,91.3
2009,2124,-20,17960,4.12,91.3
2012,2044,-124,17728,4.12,91.3
2015,2132,-48,17720,4.12,91.3
2018,1992,-132,17740,4.12,91.3
2021,1932,-124,17772,4.12,91.3
2024,1980,-44,17808,4.12,91.3
2027,2140,-164,17680,4.12,91.3
2030,2172,-156,17580,4.12,91.3
2033,2148,-96,17752,4.12,91.3
2037,1896,-52,18004,4.12,91.3
2040,1972,-192,18088,4.12,91.3
2043,2060,24,17804,4.12,91.3
2046,2288,-232,17756,4.12,91.3
2051,2200,-4,17248,4.12,91.3
2054,2012,-4,17748,4.12,91.3
2057,2164,-48,17508,4.12,91.3
2060,2292,-296,17320,4.12,91.3
2063,2088,-116,18104,4.12,91.3
2067,2128,24,17520,4.12,91.3
2070,1944,-152,18508,4.12,91.3
2073,2280,-140,17992,4.12,91.3
2076,2032,0,17368,4.12,91.3
2079,1952,-80,17940,4.12,91.3
2082,2516,24,17456,4.12,91.3
2085,2576,-76,17000,4.12,91.3
2088,1932,0,18264,4.12,91.3
2091,1820,-76,18124,4.12,91.3
2094,1560,-240,18580,4.12,91.3
2097,2164,-304,18500,4.12,91.3
2100,2748,56,16896,4.12,91.3
2106,2072,-4,17152,4.12,91.3
2109,1916,-296,18068,4.12,91.3
2112,1420,-380,18828,4.12,91.3
2115,2224,-192,17704,4.12,91.3
2118,2128,-108,17948,4.12,91.3
2121,2068,-156,17748,4.12,91.3
2124,1976,-160,17540,4.12,91.3
2127,1556,-60,18084,4.12,91.3
2130,2032,-164,17684,4.12,91.3
2134,2052,-140,17712,4.12,91.3
2137,1980,-120,17788,4.12,91.3
2140,1992,16,17752,4.12,91.3
2143,1716,-128,17944,4.12,91.3
2146,1656,-204,18016,4.12,91.3
2149,2128,-188,17552,4.12,91.3
2152,1976,-128,17384,4.12,91.3
2157,1904,-156,17620,4.12,91.3
2160,1728,-80,18288,4.12,91.3
2163,2056,-116,17772,4.12,91.3
2166,2084,-108,17880,4.12,91.3
2169,1948,-304,17592,4.12,91.3
2173,1856,-44,18128,4.12,91.3
2176,2024,-332,18248,4.12,91.3
2179,1876,-184,18784,4.12,91.3
2182,2196,-32,17372,4.12,91.3
2185,2152,0,17824,4.12,91.3
2188,2392,-244,16912,4.12,91.3
2191,2156,-168,17468,4.12,91.3
2194,1684,-212,18284,4.12,91.3
2197,1968,-352,18744,4.12,91.3
2201,2524,-428,18084,4.12,91.3
2204,2584,-224,17432,4.12,91.3
2207,2264,12,17628,4.12,91.3
2212,1764,-276,17860,4.12,91.3
2215,2004,-224,18024,4.12,91.3
2218,2452,-108,17296,4.12,91.3
2221,2568,-48,17536,4.12,91.3
2224,2200,-176,17808,4.12,91.3
2227,1916,-156,18428,4.12,91.3
2230,1776,-252,18160,4.12,91.3
2233,2264,-76,17776,4.12,91.3
2237,2468,-68,17572,4.12,91.3
2240,2260,-16,17404,4.12,91.3
2243,2064,16,17688,4.12,91.3
2246,1868,-64,18036,4.12,91.3
2249,1888,-40,18224,4.12,91.3
2252,2088,36,17940,4.12,91.3
2255,2104,-96,17992,4.12,91.3
2258,1956,-192,17764,4.12,91.3
2261,1948,0,17564,4.12,91.3
2266,2028,-68,17640,4.12,91.3
2269,1960,-12,17628,4.12,91.3
2272,1620,-92,18140,4.12,91.3
2275,1776,-124,18040,4.12,91.3
2279,1956,-220,17924,4.12,91.3
2282,2056,-48,17480,4.12,91.3
2285,1920,-56,17428,4.12,91.3
2288,1692,-112,17716,4.12,91.3
2291,1764,-212,17804,4.12,91.3
2294,1908,-248,18136,4.12,91.3
2297,2080,-144,17672,4.12,91.3
2300,2200,-80,17652,4.12,91.3
2303,1948,-216,18012,4.12,91.3
2306,1800,-344,18156,4.12,91.3
2309,1872,-116,18052,4.12,91.3
2312,2212,-208,17688,4.12,91.3
2315,2448,-228,17748,4.12,91.3
2321,1836,-112,17952,4.12,91.3
2324,1872,-324,17916,4.12,91.3
2327,2136,-416,17944,4.12,91.3
2330,2280,-204,17724,4.12,91.3
2333,2456,-252,17268,4.12,91.3
2336,2176,-176,17676,4.12,91.3
2339,2024,-280,17884,4.12,91.3
2342,2036,-120,18008,4.12,91.3
2345,2144,-108,17992,4.12,91.3
2349,2348,-64,17420,4.12,91.3
2352,2200,-64,17776,4.12,91.3
2355,2056,-96,17608,4.12,91.3
2358,1948,8,17816,4.12,91.3
2361,2008,-24,17924,4.12,91.3
2364,2344,-12,17740,4.12,91.3
2367,2152,116,17396,4.12,91.3
2370,1892,40,17600,4.12,91.3
2375,1828,320,17696,4.12,91.3
2378,1452,-120,18508,4.12,91.3
2382,1388,-84,18808,4.12,91.3
2385,2132,136,17336,4.12,91.3
2388,2832,384,16492,4.12,91.3
2391,2628,248,15684,4.12,91.3
2394,1044,220,19180,4.12,91.3
2397,1080,-112,19068,4.12,91.3
2400,1616,-276,19020,4.12,91.3
2403,2300,-112,17888,4.12,91.3
2406,2520,200,16620,4.12,91.3
2409,1988,76,17464,4.12,91.3
2413,1752,-124,17580,4.12,91.3
2416,1580,-268,18772,4.12,91.3
2419,1960,-80,17992,4.12,91.3
2422,2424,72,17688,4.12,91.3
2425,2448,-200,17692,4.12,91.3
2430,1792,-212,18128,4.12,91.3
2433,1716,-112,17792,4.12,91.3
2436,2072,-128,17772,4.12,91.3
2439,2512,-436,17568,4.12,91.3
2442,2408,-224,17448,4.12,91.3
2446,2088,-168,17876,4.12,91.3
2449,1920,-280,18232,4.12,91.3
2452,1984,-352,18364,4.12,91.3
2455,2352,-316,17696,4.12,91.3
2458,2600,-176,17244,4.12,91.3
2461,2260,-220,17444,4.12,91.3
2464,2068,-184,17624,4.12,91.3
2467,1776,-276,18144,4.12,91.3
2470,1896,-332,18256,4.12,91.3
2473,2228,-276,17816,4.12,91.3
2476,2304,-20,17876,4.12,91.3
2482,1872,152,17760,4.12,91.3
2485,1984,-208,17460,4.12,91.3
2488,1816,-160,18728,4.12,91.3
2491,2016,-304,18176,4.12,91.3
2494,1968,-124,18532,4.12,91.3
2497,2352,-116,17020,4.12,91.3
2500,2240,148,16904,4.12,91.3
2503,1980,-60,16956,4.12,91.3
2506,1432,-24,18488,4.12,91.3
2510,1784,-128,18432,4.12,91.3
2513,2100,-228,18336,4.12,91.3
2516,2552,16,17252,4.12,91.3
2519,2172,-40,16932,4.12,91.3
2522,1772,24,17760,4.12,91.3
2525,1564,-152,17940,4.12,91.3
2528,1664,-200,18312,4.12,91.3
2531,2156,-100,17508,4.12,91.3
2536,2020,-148,18036,4.12,91.3
2540,1892,-16,17968,4.12,91.3
2543,1748,-172,18052,4.12,91.3
2546,1936,-168,17636,4.12,91.3
2549,2172,-172,17636,4.12,91.3
2552,2152,-148,17888,4.12,91.3
2555,2064,-196,17612,4.12,91.3
2558,2012,-168,17740,4.12,91.3
2561,1840,-280,18004,4.12,91.3
2564,1996,-248,18112,4.12,91.3
2567,1796,-288,18024,4.12,91.3
2570,2328,-368,17144,4.12,91.3
2574,2064,-88,17500,4.12,91.3
2577,2256,-444,17548,4.12,91.3
2580,1812,-52,18964,4.12,91.3
2583,1784,-528,18744,4.12,91.3
2586,1776,-52,18716,4.12,91.3
2591,2628,0,17240,4.12,91.3
2594,2808,-188,16672,4.12,91.3
2597,2056,-152,17100,4.12,91.3
2600,1152,-60,19300,4.12,91.3
2603,2284,-344,18480,4.12,91.3
2607,2696,-284,17740,4.12,91.3
2610,2700,216,16564,4.12,91.3
2613,1588,296,17968,4.12,91.3
2616,1624,-140,18216,4.12,91.3
2619,1964,-320,18044,4.12,91.3
2622,2012,-24,17828,4.12,91.3
2625,2412,264,17368,4.12,91.3
2628,2340,-52,17736,4.12,91.3
2631,2116,-136,17840,4.12,91.3
2634,1768,32,18120,4.12,91.3
2637,1792,128,17868,4.12,91.3
2640,2072,4,17664,4.12,91.3
2646,2204,12,17416,4.12,91.3
2649,1808,200,18072,4.12,91.3
2652,1748,52,18132,4.12,91.3
2655,1804,-108,18044,4.12,91.3
2658,2064,-132,17604,4.12,91.3
2661,2032,32,17228,4.12,91.3
2664,1984,-4,17832,4.12,91.3
2667,1860,-188,18100,4.12,91.3
2670,2032,-92,17824,4.12,91.3
2673,1876,-84,17572,4.12,91.3
2676,1944,-84,17844,4.12,91.3
2679,1780,-212,17956,4.12,91.3
2683,1824,-176,17740,4.12,91.3
2686,2164,-144,17568,4.12,91.3
2689,2080,-204,17832,4.12,91.3
2692,1972,-236,17844,4.12,91.3
2695,2044,-276,17900,4.12,91.3
2700,2112,-324,17964,4.12,91.3
2703,2160,-316,17388,4.12,91.3
2706,2064,-260,17424,4.12,91.3
2709,2100,-412,17700,4.12,91.3
2712,2312,-192,17904,4.12,91.3
2715,1764,-504,18400,4.12,91.3
2718,1400,-604,19572,4.12,91.3
2721,2288,-452,17756,4.12,91.3
2725,3020,-36,16752,4.12,91.3
2728,3332,-84,15024,4.12,91.3
2731,1756,-184,18208,4.12,91.3
2734,992,-268,19712,4.12,91.3
2737,1764,-496,18920,4.12,91.3
2740,2700,-380,18008,4.12,91.3
2743,3144,76,16436,4.12,91.3
2746,2320,396,17600,4.12,91.3
2752,1824,-136,18116,4.12,91.3
2755,1932,-176,18132,4.12,91.3
2758,2500,228,17324,4.12,91.3
2761,2456,132,17668,4.12,91.3
2764,2224,100,17964,4.12,91.3
2767,1796,20,18236,4.12,91.3
2770,1660,76,17932,4.12,91.3
2773,1924,188,17748,4.12,91.3
2776,2144,68,17672,4.12,91.3
2780,2268,196,17204,4.12,91.3
2783,1928,48,17760,4.12,91.3
2786,1528,60,18284,4.12,91.3
2789,1604,-56,18572,4.12,91.3
2792,1924,72,17740,4.12,91.3
2795,2196,-44,17092,4.12,91.3
2798,2020,-36,17220,4.12,91.3
2801,1680,-8,17852,4.12,91.3
2806,1816,-228,18336,4.12,91.3
2809,2256,-152,17884,4.12,91.3
2812,2232,-116,17528,4.12,91.3
2816,1856,-244,17740,4.12,91.3
2819,1732,-276,17792,4.12,91.3
2822,1868,-248,17696,4.12,91.3
2825,2116,-308,17644,4.12,91.3
2828,2332,-224,17692,4.12,91.3
2831,2160,-280,17852,4.12,91.3
2834,1960,-260,17876,4.12,91.3
2837,1928,-284,17916,4.12,91.3
2840,1944,-232,17988,4.12,91.3
2843,2176,-292,17732,4.12,91.3
2846,2084,-364,17520,4.12,91.3
2850,2028,-360,17692,4.12,91.3
2853,2124,-232,17744,4.12,91.3
2856,1920,-228,18180,4.12,91.3
2861,1964,-212,18060,4.12,91.3
2864,2080,-188,17852,4.12,91.3
2867,2332,-52,17616,4.12,91.3
2870,2476,-56,17444,4.12,91.3
2873,2096,-108,17612,4.12,91.3
2877,1780,-132,18004,4.12,91.3
2880,2016,-136,18116,4.12,91.3
2883,2208,-156,17952,4.12,91.3
2886,2252,64,17568,4.12,91.3
2889,2188,4,17628,4.12,91.3
2892,1972,-16,17644,4.12,91.3
2895,1836,224,17356,4.12,91.3
2898,2136,156,18128,4.12,91.3
2901,2864,-496,17084,4.12,91.3
2904,1964,564,19624,4.12,91.3
2907,1656,-616,17884,4.12,91.3
2910,600,120,18984,4.12,91.3
2916,3512,300,17860,4.12,91.3
2919,4020,52,13768,4.12,91.3
2922,1804,392,18496,4.12,91.3
2925,920,248,18436,4.12,91.3
2928,736,-540,19728,4.12,91.3
2931,1796,-1088,21564,4.12,91.3
2934,3704,224,15208,4.12,91.3
2937,2332,800,16036,4.12,91.3
2940,2612,348,15368,4.12,91.3
2944,732,-584,20188,4.12,91.3
2947,1300,-772,19928,4.12,91.3
2950,2480,100,17996,4.12,91.3
2953,2556,144,17192,4.12,91.3
2956,2680,-324,15604,4.12,91.3
2959,1208,-60,18788,4.12,91.3
2962,872,-132,19308,4.12,91.3
2965,2052,-264,17944,4.12,91.3
2970,2592,-212,15892,4.12,91.3
2973,1560,-8,18288,4.12,91.3
2976,948,-276,19544,4.12,91.3
2979,1524,-456,19116,4.12,91.3
2983,2624,-248,16888,4.12,91.3
2986,2520,-96,15952,4.12,91.3
2989,1812,-192,17484,4.12,91.3
2992,1672,-240,18172,4.12,91.3
2995,1476,-352,18992,4.12,91.3
2998,2240,-224,18068,4.12,91.3
3001,2564,-216,17240,4.12,91.3
3004,1908,-180,17932,4.12,91.3
3007,1908,-96,17736,4.12,91.3
3011,1812,-112,17776,4.12,91.3
3014,2180,-144,17616,4.12,91.3
3017,2512,-68,17816,4.12,91.3
3020,2300,-124,18000,4.12,91.3
3025,2192,-212,17880,4.12,91.3
3028,1988,-148,17780,4.12,91.3
3031,1832,-120,17772,4.12,91.3
3034,2124,-112,17820,4.12,91.3
3037,2136,-120,17568,4.12,91.3
3040,2240,-64,17644,4.12,91.3
3043,2180,-84,17536,4.12,91.3
3046,1864,-140,18192,4.12,91.3
3050,1980,-112,18060,4.12,91.3
3053,2048,-148,17832,4.12,91.3
3056,2200,-72,17448,4.12,91.3
3059,2204,-172,17636,4.12,91.3
3062,2012,-56,17612,4.12,91.3
3065,2084,-92,17860,4.12,91.3
3068,2124,-128,17832,4.12,91.3
3071,2044,-128,18016,4.12,91.3
3076,1912,-136,17996,4.12,91.3
3080,2068,-36,17656,4.12,91.3
3083,2392,20,17344,4.12,91.3
3086,2220,-20,17384,4.12,91.3
3089,1792,-132,18072,4.12,91.3
3092,1812,-260,18356,4.12,91.3
3095,1964,-248,18152,4.12,91.3
3098,2208,-108,17980,4.12,91.3
3101,2260,-32,17260,4.12,91.3
3104,1876,-116,17656,4.12,91.3
3107,1784,-152,17788,4.12,91.3
3110,1896,-248,17680,4.12,91.3
3113,1980,-64,18024,4.12,91.3
3117,2384,-32,17684,4.12,91.3
3120,2100,-248,17796,4.12,91.3
3123,1812,-172,17816,4.12,91.3
3126,1752,-140,18072,4.12,91.3
3131,2160,-172,17612,4.12,91.3
3134,2080,-64,17464,4.12,91.3
3137,2172,20,17400,4.12,91.3
3140,1892,-60,17856,4.12,91.3
3143,1788,-76,18192,4.12,91.3
3146,1780,-44,18132,4.12,91.3
3149,2024,-8,18060,4.12,91.3
3152,2212,-60,17516,4.12,91.3
3155,2076,-52,17652,4.12,91.3
3158,1688,24,18028,4.12,91.3
3162,1780,-28,18140,4.12,91.3
3165,2040,-80,17748,4.12,91.3
3168,2160,32,17704,4.12,91.3
3171,2072,-72,17732,4.12,91.3
3174,1956,-188,17816,4.12,91.3
3177,2100,-32,18052,4.12,91.3
3180,2004,-84,17772,4.12,91.3
3185,2300,-88,17736,4.12,91.3
3188,2092,-44,17864,4.12,91.3
3192,2028,-120,17816,4.12,91.3
3195,2068,-108,17784,4.12,91.3
3198,2088,-96,17784,4.12,91.3
3201,2144,-128,17836,4.12,91.3
3204,2256,-64,17688,4.12,91.3
3207,2120,-220,17600,4.12,91.3
3210,2160,-144,17924,4.12,91.3
3213,2216,-152,17772,4.12,91.3
3216,2136,-132,17816,4.12,91.3
3219,2152,-140,17712,4.12,91.3
3222,2156,-56,17708,4.12,91.3
3226,2228,-200,17784,4.12,91.3
3229,2100,-180,17704,4.12,91.3
3232,2108,-132,17696,4.12,91.3
3235,2056,-160,17932,4.12,91.3
3240,2188,-132,17816,4.12,91.3
3243,2080,-76,17812,4.12,91.3
3246,2120,-220,17844,4.12,91.3
3249,2052,-76,18012,4.12,91.3
3252,2108,-136,17900,4.12,91.3
3256,2204,-104,17828,4.12,91.3
3259,2076,-100,17604,4.12,91.3
3262,1940,-60,17752,4.12,91.3
3265,1884,-108,17904,4.12,91.3
3268,1968,-40,18052,4.12,91.3
3271,2152,-160,18044,4.12,91.3
3274,2080,-152,17740,4.12,91.3
3277,2036,-120,17664,4.12,91.3
3280,1880,-244,17840,4.12,91.3
3283,1852,-44,18012,4.12,91.3
3286,1984,0,17848,4.12,91.3
3289,2072,-20,17824,4.12,91.3
3295,1972,-44,17660,4.12,91.3
3298,1832,-48,17808,4.12,91.3
3301,1764,-176,18136,4.12,91.3
3304,1920,-160,18064,4.12,91.3
3307,2164,-148,17612,4.12,91.3
3310,2164,60,17252,4.12,91.3
3313,2000,-108,17604,4.12,91.3
3316,1752,-52,17936,4.12,91.3
3320,1924,-168,18024,4.12,91.3
3323,2128,-128,17696,4.12,91.3
3326,2164,-24,17556,4.12,91.3
3329,1992,-44,17636,4.12,91.3
3332,1892,-104,17916,4.12,91.3
3335,1932,-160,17932,4.12,91.3
3338,2128,-96,17776,4.12,91.3
3341,2112,-96,17720,4.12,91.3
3346,2068,-96,17660,4.12,91.3
3350,2092,-184,17796,4.12,91.3
3353,2028,-80,17820,4.12,91.3
3356,2092,-60,17912,4.12,91.3
3359,2188,-76,17760,4.12,91.3
3362,2180,-72,17916,4.12,91.3
3365,2132,0,17836,4.12,91.3
3368,2020,-56,17824,4.12,91.3
3371,2084,-116,17772,4.12,91.3
3374,2104,-160,17684,4.12,91.3
3377,2136,-76,17752,4.12,91.3
3380,2148,-56,17700,4.12,91.3
3383,2072,-96,17828,4.12,91.3
3387,2044,-124,18028,4.12,91.3
3390,1968,-140,17960,4.12,91.3
3393,2128,-204,17840,4.12,91.3
3396,2084,-72,17700,4.12,91.3
3401,1900,-104,17672,4.12,91.3
3404,1976,-76,17792,4.12,91.3
3407,1992,-68,17884,4.12,91.3
3410,2036,4,17672,4.12,91.3
3413,2028,-72,17828,4.12,91.3
3416,1988,-104,17712,4.12,91.3
3420,1876,-240,17892,4.12,91.3
3423,1892,-112,17652,4.12,91.3
3426,1984,-88,17808,4.12,91.3
3429,2184,-28,17752,4.12,91.3
3432,2112,-52,17660,4.12,91.3
3435,1964,-212,17808,4.12,91.3
3438,1956,-152,17832,4.12,91.3
3441,1912,-160,17972,4.12,91.3
3444,2044,-264,17904,4.12,91.3
3447,2172,-72,17744,4.12,91.3
3450,2160,-184,17628,4.12,91.3
3456,1960,-236,17648,4.12,91.3
3459,1888,-264,17916,4.12,91.3
3462,2140,-184,18048,4.12,91.3
3465,2256,-272,17972,4.12,91.3
3468,2244,-40,17656,4.12,91.3
3471,2100,-168,17688,4.12,91.3
3474,1896,-272,17728,4.12,91.3
3477,1832,-224,17980,4.12,91.3
3481,2088,-160,17716,4.12,91.3
3484,2252,-220,17512,4.12,91.3
3487,2056,-96,17500,4.12,91.3
3490,2004,-308,17792,4.12,91.3
3493,1792,20,18448,4.12,91.3
3496,1816,-176,17624,4.12,91.3
3499,1672,-296,18972,4.12,91.3
3502,2092,-200,17432,4.12,91.3
3505,2092,-128,17364,4.12,91.3
3510,2432,-56,16968,4.12,91.3
3513,1676,-52,17976,4.12,91.3
3516,1528,-196,18492,4.12,91.3
3519,2028,-88,17792,4.12,91.3
3523,2224,-116,18200,4.12,91.3
3526,2700,48,16984,4.12,91.3
3529,2084,44,17836,4.12,91.3
3532,1920,-48,17856,4.12,91.3
3535,2160,-148,17888,4.12,91.3
3538,1876,-112,18416,4.12,91.3
3541,2508,-52,17592,4.12,91.3
3544,2568,84,17800,4.12,91.3
3547,2104,-108,17840,4.12,91.3
3551,2128,-92,17584,4.12,91.3
3554,1980,-132,18272,4.12,91.3
3557,2284,-196,17672,4.12,91.3
3560,2560,-184,17708,4.12,91.3
3565,2120,-36,17720,4.12,91.3
3568,2032,-140,17932,4.12,91.3
3571,2072,-140,17924,4.12,91.3
3574,2148,-52,17540,4.12,91.3
3577,2192,-140,17560,4.12,91.3
3580,2008,-152,17928,4.12,91.3
3583,2060,-160,18072,4.12,91.3
3586,2212,-112,17744,4.12,91.3
3590,2052,-128,17884,4.12,91.3
3593,2024,-224,17580,4.12,91.3
3596,1728,-168,17924,4.12,91.3
3599,1780,-172,17688,4.12,91.3
3602,1956,-128,17736,4.12,91.3
3605,2000,-208,17724,4.12,91.3
3608,1988,-228,17624,4.12,91.3
3611,1836,-164,17856,4.12,91.3
3617,1728,-276,17956,4.12,91.3
3620,1860,-104,17776,4.12,91.3
3623,1928,-172,17644,4.12,91.3
3626,2012,-272,17764,4.12,91.3
3629,1884,-48,17740,4.12,91.3
3632,1760,-244,17776,4.12,91.3
3635,1996,-56,17832,4.12,91.3
3638,2228,-196,17552,4.12,91.3
3641,2000,100,18072,4.12,91.3
3644,2152,20,17424,4.12,91.3
3647,1800,-100,18384,4.12,91.3
3650,2092,-92,18200,4.12,91.3
3654,1980,-72,18148,4.12,91.3
3657,2056,-88,17576,4.12,91.3
3660,2508,156,17548,4.12,91.3
3663,2664,-36,16632,4.12,91.3
3666,2116,-16,18352,4.12,91.3
3671,1732,-192,18004,4.12,91.3
3674,1860,-272,18940,4.12,91.3
3677,2728,-96,17496,4.12,91.3
3680,2656,156,16976,4.12,91.3
3684,2392,48,17156,4.12,91.3
3687,1956,-104,17792,4.12,91.3
3690,1596,-232,18696,4.12,91.3
3693,2224,-100,17716,4.12,91.3
3696,2356,-16,18008,4.12,91.3
3699,2268,-100,17652,4.12,91.3
3702,2212,-156,17476,4.12,91.3
3705,1712,-108,18136,4.12,91.3
3708,1936,-160,17764,4.12,91.3
3711,2036,-156,17688,4.12,91.3
3715,2184,-260,17676,4.12,91.3
3718,2012,-92,17680,4.12,91.3
3721,1696,-144,18024,4.12,91.3
3726,2068,-260,17876,4.12,91.3
3729,2008,-40,17644,4.12,91.3
3732,1948,-216,17464,4.12,91.3
3735,1836,-88,18208,4.12,91.3
3738,1892,-232,18020,4.12,91.3
3741,1824,-212,18224,4.12,91.3
3744,1968,-268,17764,4.12,91.3
3747,1864,-132,17864,4.12,91.3
3751,1992,-256,17168,4.12,91.3
3754,1892,-172,17720,4.12,91.3
3757,1804,-152,17744,4.12,91.3
3760,1896,-132,18160,4.12,91.3
3763,2000,-224,17948,4.12,91.3
3766,2056,-196,17808,4.12,91.3
3769,1960,-160,17576,4.12,91.3
3772,1856,-16,17680,4.12,91.3
3775,1940,-220,17852,4.12,91.3
3781,2068,-80,17636,4.12,91.3
3784,2084,-44,17704,4.12,91.3
3787,2104,-60,17960,4.12,91.3
3790,2020,-108,17940,4.12,91.3
3793,2180,-4,17420,4.12,91.3
3796,2180,20,17588,4.12,91.3
3799,2064,-40,17936,4.12,91.3
3802,2060,-80,18084,4.12,91.3
3805,2108,-92,17940,4.12,91.3
3808,2136,-36,17788,4.12,91.3
3811,2264,-68,17812,4.12,91.3
3814,2164,68,17480,4.12,91.3
3818,2088,0,17812,4.12,91.3
3821,2136,-116,17672,4.12,91.3
3824,2160,-68,17980,4.12,91.3
3827,2140,-100,17972,4.12,91.3
3830,2268,-56,17804,4.12,91.3
3835,2340,-96,17700,4.12,91.3
3838,2248,4,17624,4.12,91.3
3841,1984,-180,17740,4.12,91.3
3844,2084,-224,17612,4.12,91.3
3848,2028,-108,18060,4.12,91.3
3851,2216,-208,17988,4.12,91.3
3854,2216,-116,17864,4.12,91.3
3857,2228,-212,17512,4.12,91.3
3860,1948,-280,17792,4.12,91.3
3863,1812,-204,18080,4.12,91.3
3866,1860,-144,18020,4.12,91.3
3869,2004,-212,17704,4.12,91.3
3872,2168,-152,17396,4.12,91.3
3875,1984,-192,17720,4.12,91.3
3878,1792,-228,17816,4.12,91.3
3881,1712,-272,18156,4.12,91.3
3887,2068,-168,17600,4.12,91.3
3890,2048,-148,17880,4.12,91.3
3893,1752,-224,17840,4.12,91.3
3896,1776,-288,17992,4.12,91.3
3899,1916,-140,17740,4.12,91.3
3902,2040,-160,17456,4.12,91.3
3905,2028,-144,17660,4.12,91.3
3908,1804,-104,17960,4.12,91.3
3911,1936,-56,18196,4.12,91.3
3915,2212,-140,17792,4.12,91.3
3918,2008,-116,17468,4.12,91.3
3921,1772,-60,18240,4.12,91.3
3924,1900,-76,18160,4.12,91.3
3927,2236,-44,17220,4.12,91.3
3930,2296,32,17540,4.12,91.3
3933,1900,-32,17600,4.12,91.3
3936,1620,-4,18708,4.12,91.3
3941,2476,-116,16968,4.12,91.3
3944,2296,20,17444,4.12,91.3
3947,2108,32,17316,4.12,91.3
3950,1884,-48,18040,4.12,91.3
3954,2188,-220,17932,4.12,91.3
3957,2404,8,17596,4.12,91.3
3960,2160,-52,17704,4.12,91.3
3963,2064,-28,17648,4.12,91.3
3966,1924,-144,18048,4.12,91.3
3969,1972,-32,17696,4.12,91.3
3972,2216,-36,17472,4.12,91.3
3975,2284,-48,17572,4.12,91.3
3978,2148,-140,17804,4.12,91.3
3981,2080,-176,18020,4.12,91.3
3985,2052,-92,17928,4.12,91.3
3988,2080,-56,17592,4.12,91.3
3991,2152,-72,17732,4.12,91.3
3996,2264,-216,17652,4.12,91.3
3999,2036,-172,17804,4.12,91.3
4002,1988,-148,18172,4.12,91.3
4005,2072,-232,17984,4.12,91.3
4008,2116,-164,17792,4.12,91.3
4011,1952,-104,17820,4.12,91.3
4014,2044,-184,17684,4.12,91.3
4017,1900,-176,17972,4.12,91.3
4020,1992,-56,17816,4.12,91.3
4023,2068,-224,17600,4.12,91.3
4026,1876,-188,17940,4.12,91.3
4030,1820,-208,18020,4.12,91.3
4033,1944,-136,17872,4.12,91.3
4036,2040,-236,17816,4.12,91.3
4039,2064,-128,17636,4.12,91.3
4042,2040,-84,17616,4.12,91.3
4045,1748,-184,18132,4.12,91.3
4050,1812,-304,18272,4.12,91.3
4053,2236,-16,17868,4.12,91.3
4056,2348,-120,16972,4.12,91.3
4059,1956,-184,17944,4.12,91.3
4063,1808,-168,17964,4.12,91.3
4066,1900,-124,17888,4.12,91.3
4069,2364,-204,17348,4.12,91.3
4072,2188,-156,17832,4.12,91.3
4075,1912,-100,18224,4.12,91.3
4078,2056,-28,17972,4.12,91.3
4081,1904,-220,17792,4.12,91.3
4084,2084,-180,17744,4.12,91.3
4087,2224,-64,17688,4.12,91.3
4091,2172,-20,17536,4.12,91.3
4094,2200,-80,17780,4.12,91.3
4097,1928,-44,18060,4.12,91.3
4102,2252,-88,17956,4.12,91.3
4105,2208,-76,17756,4.12,91.3
4108,2128,-76,17712,4.12,91.3
4111,2076,32,17776,4.12,91.3
4114,2008,-72,17996,4.12,91.3
4117,2076,-160,17796,4.12,91.3
4120,2064,8,17824,4.12,91.3
4123,2120,-92,17684,4.12,91.3
4126,2056,-112,17772,4.12,91.3
4130,1960,-88,17720,4.12,91.3
4133,1884,-248,17808,4.12,91.3
4136,2088,-128,17724,4.12,91.3
4139,2036,-168,17900,4.12,91.3
4142,2160,-48,17736,4.12,91.3
4145,1992,0,17940,4.12,91.3
4148,1928,-132,17808,4.12,91.3
4151,1976,-116,17636,4.12,91.3
4157,1936,-152,17748,4.12,91.3
4160,2092,-204,17876,4.12,91.3
4163,2164,-56,17956,4.12,91.3
4166,2200,-36,17596,4.12,91.3
4169,1932,0,18072,4.12,91.3
4172,1784,-76,18184,4.12,91.3
4175,1944,-84,17716,4.12,91.3
4178,2144,-96,17376,4.12,91.3
4181,2264,-8,17440,4.12,91.3
4184,2180,-196,17492,4.12,91.3
4187,1872,-36,18224,4.12,91.3
4190,1972,-116,18044,4.12,91.3
4193,2032,-164,17992,4.12,91.3
4197,2100,-156,17776,4.12,91.3
4200,2076,24,17644,4.12,91.3
4203,1880,-80,17960,4.12,91.3
4206,2056,-172,17744,4.12,91.3
4211,2088,-80,17740,4.12,91.3
4214,2048,-132,17724,4.12,91.3
4217,1968,-260,17956,4.12,91.3
4220,1980,-208,17944,4.12,91.3
4223,2016,-204,17868,4.12,91.3
4227,2060,-136,17704,4.12,91.3
4230,2076,-100,17612,4.12,91.3
4233,2064,-192,17628,4.12,91.3
4236,1884,-104,18148,4.12,91.3
4239,1996,-192,17864,4.12,91.3
4242,2068,-228,18008,4.12,91.3
4245,2072,-232,17468,4.12,91.3
4248,2152,-200,17636,4.12,91.3
4251,2008,-240,17612,4.12,91.3
4255,1888,-156,17716,4.12,91.3
4258,1856,-208,18040,4.12,91.3
4261,1952,-180,18064,4.12,91.3
4266,2172,-132,17764,4.12,91.3
4269,2104,-64,17588,4.12,91.3
4272,1876,-32,17816,4.12,91.3
4275,2008,-208,17836,4.12,91.3
4278,1988,-36,17856,4.12,91.3
4281,2012,-56,17752,4.12,91.3
4284,2236,-124,17664,4.12,91.3
4287,2092,-64,17792,4.12,91.3
4291,1996,-20,17892,4.12,91.3
4294,1984,8,17908,4.12,91.3
4297,2108,44,17812,4.12,91.3
4300,2196,-120,17792,4.12,91.3
4303,2068,-80,17692,4.12,91.3
4306,2028,-44,17684,4.12,91.3
4309,2000,-24,17952,4.12,91.3
4312,1984,-132,18056,4.12,91.3
4315,2052,-16,17988,4.12,91.3
4321,2304,-116,17492,4.12,91.3
4324,2048,-156,17896,4.12,91.3
4327,2008,-96,18000,4.12,91.3
4330,2044,-20,17920,4.12,91.3
4333,2072,-132,17736,4.12,91.3
4336,2076,-4,17524,4.12,91.3
4339,2008,-52,17836,4.12,91.3
4342,2012,-156,17900,4.12,91.3
4345,1912,-80,17836,4.12,91.3
4348,2012,-128,17908,4.12,91.3
4351,2188,-176,17788,4.12,91.3
4354,2072,-160,17844,4.12,91.3
4357,2036,-148,17760,4.12,91.3
4361,1964,-164,17888,4.12,91.3
4364,1988,-108,17736,4.12,91.3
4367,2040,-268,17832,4.12,91.3
4370,2068,-124,17760,4.12,91.3
4375,1964,-136,17752,4.12,91.3
4378,2000,-136,17812,4.12,91.3
4381,1936,-116,17864,4.12,91.3
4384,1928,-152,17856,4.12,91.3
4387,2016,-64,17632,4.12,91.3
4391,1964,-120,17704,4.12,91.3
4394,1992,-228,17740,4.12,91.3
4397,1876,-212,17780,4.12,91.3
4400,1964,-128,17852,4.12,91.3
4403,2120,-132,17904,4.12,91.3
4406,2068,-96,17584,4.12,91.3
4409,1948,-156,17652,4.12,91.3
4412,1892,-88,17668,4.12,91.3
4415,1960,-176,17968,4.12,91.3
4418,2064,-84,17784,4.12,91.3
4421,2156,-64,17784,4.12,91.3
4426,2008,-160,17852,4.12,91.3
4430,1824,-32,18100,4.12,91.3
4433,1992,-104,17968,4.12,91.3
4436,2092,-52,17728,4.12,91.3
4439,2176,-76,17624,4.12,91.3
4442,2020,-76,17764,4.12,91.3
4445,1920,-108,17884,4.12,91.3
4448,2040,-124,17912,4.12,91.3
4451,2120,-156,17724,4.12,91.3
4454,2144,-84,17936,4.12,91.3
4457,2056,-16,17628,4.12,91.3
4460,1992,-28,17772,4.12,91.3
4463,2048,-128,17580,4.12,91.3
4467,2024,-68,17884,4.12,91.3
4470,2044,-80,17856,4.12,91.3
4473,2180,-72,17904,4.12,91.3
4476,2128,-108,17876,4.12,91.3
4481,2004,-152,17716,4.12,91.3
4484,2040,-60,17960,4.12,91.3
4487,2040,-200,18028,4.12,91.3
4490,2056,-176,17996,4.12,91.3
4494,2020,-88,17772,4.12,91.3
4497,2036,-200,17796,4.12,91.3
4500,1964,-24,17788,4.12,91.3
4503,1952,-116,17748,4.12,91.3
4506,1912,-232,17988,4.12,91.3
4509,1980,-164,17888,4.12,91.3
4512,2064,-48,17764,4.12,91.3
4515,1956,-80,17792,4.12,91.3
4518,1872,-212,17744,4.12,91.3
4521,1920,-140,17888,4.12,91.3
4524,1936,-52,17996,4.12,91.3
4527,2124,-100,17832,4.12,91.3
4530,2016,-240,17700,4.12,91.3
4536,1904,-104,17788,4.12,91.3
4539,1992,-140,17840,4.12,91.3
4542,2028,-160,17992,4.12,91.3
4545,2060,-92,17928,4.12,91.3
4548,2016,-136,17812,4.12,91.3
4551,2064,-44,17820,4.12,91.3
4554,2008,-200,17632,4.12,91.3
4557,1984,-224,17792,4.12,91.3
4561,2012,-172,17888,4.12,91.3
4564,1996,-220,17904,4.12,91.3
4567,2128,-172,17848,4.12,91.3
4570,2088,8,17632,4.12,91.3
4573,2160,-184,17708,4.12,91.3
4576,2052,-192,17836,4.12,91.3
4579,2096,-132,17820,4.12,91.3
4582,2092,-60,17856,4.12,91.3
4585,2152,-104,17920,4.12,91.3
4591,2056,-72,17820,4.12,91.3
4594,2112,-68,17824,4.12,91.3
4597,2072,-12,17692,4.12,91.3
4600,2072,-116,17912,4.12,91.3
4603,2028,-64,17756,4.12,91.3
4606,2092,-144,17868,4.12,91.3
4609,2116,-64,17792,4.12,91.3
4612,1992,20,17764,4.12,91.3
4615,2100,-84,17924,4.12,91.3
4618,2040,-20,17820,4.12,91.3
4621,1984,0,17808,4.12,91.3
4624,2024,-148,17792,4.12,91.3
4628,2000,-100,17784,4.12,91.3
4631,2084,-96,17892,4.12,91.3
4634,2044,-116,17896,4.12,91.3
4637,1936,-128,17864,4.12,91.3
4640,2136,-124,17860,4.12,91.3
4645,1988,-156,17780,4.12,91.3
4648,1968,-156,17744,4.12,91.3
4651,2036,-132,17788,4.12,91.3
4654,2036,-144,17932,4.12,91.3
4658,2036,-60,17928,4.12,91.3
4661,2044,-148,17924,4.12,91.3
4664,1948,-132,17804,4.12,91.3
4667,2088,-176,17608,4.12,91.3
4670,1896,-216,17788,4.12,91.3
4673,2016,-52,17664,4.12,91.3
4676,2032,-148,17852,4.12,91.3
4679,2040,-132,17780,4.12,91.3
4682,2044,-132,17876,4.12,91.3
4685,2076,-128,17748,4.12,91.3
4688,2112,-156,17740,4.12,91.3
4691,2092,-180,17852,4.12,91.3
4697,2076,-56,17816,4.12,91.3
4700,2084,-60,17776,4.12,91.3
4703,1932,-100,17752,4.12,91.3
4706,1996,-224,17804,4.12,91.3
4709,2016,-160,17816,4.12,91.3
4712,1964,-56,17924,4.12,91.3
4715,2092,-160,17996,4.12,91.3
4718,2164,-132,17832,4.12,91.3
4722,2100,-104,17696,4.12,91.3
4725,2032,-60,17752,4.12,91.3
4728,2000,-96,17496,4.12,91.3
4731,1956,-136,17712,4.12,91.3
4734,2056,12,18020,4.12,91.3
4737,2180,-84,17988,4.12,91.3
4740,2260,-164,17716,4.12,91.3
4743,2172,-84,17884,4.12,91.3
4746,1984,-8,17756,4.12,91.3
4751,1920,-136,17832,4.12,91.3
4755,2092,-36,17628,4.12,91.3
4758,2196,0,17744,4.12,91.3
4761,2240,-52,17776,4.12,91.3
4764,2064,-92,17688,4.12,91.3
4767,1868,-28,17892,4.12,91.3
4770,1848,-80,18228,4.12,91.3
4773,2036,-96,17736,4.12,91.3
4776,2092,-116,17692,4.12,91.3
4779,2104,-120,17596,4.12,91.3
4782,1956,-60,17532,4.12,91.3
4785,1876,-276,18132,4.12,91.3
4788,1900,-180,17768,4.12,91.3
4792,2036,-228,17988,4.12,91.3
4795,2144,-116,17716,4.12,91.3
4798,2132,-148,17880,4.12,91.3
4801,1932,-84,17732,4.12,91.3
4806,1968,-216,17872,4.12,91.3
4809,1992,-132,17932,4.12,91.3
4812,1984,-196,17844,4.12,91.3
4815,1980,-128,17880,4.12,91.3
4818,1952,-252,17812,4.12,91.3
4821,2016,-200,17716,4.12,91.3
4824,2016,-140,18012,4.12,91.3
4827,2092,-128,17752,4.12,91.3
4831,1968,-92,18008,4.12,91.3
4834,2080,-92,17736,4.12,91.3
4837,2132,-140,17484,4.12,91.3
4840,2056,-80,17732,4.12,91.3
4843,1960,-184,17804,4.12,91.3
4846,2092,-68,17900,4.12,91.3
4849,2276,-192,18116,4.12,91.3
4852,2256,-20,17884,4.12,91.3
4855,2196,-144,17652,4.12,91.3
4860,1788,-72,17720,4.12,91.3
4863,1784,-100,17980,4.12,91.3
4866,2088,-44,18032,4.12,91.3
4869,2360,-64,17548,4.12,91.3
4873,2372,-72,17024,4.12,91.3
4876,2076,32,17432,4.12,91.3
4879,1628,-52,18312,4.12,91.3
4882,1836,-92,18376,4.12,91.3
4885,2124,28,17792,4.12,91.3
4888,2308,60,17396,4.12,91.3
4891,2088,52,17524,4.12,91.3
4894,1740,32,17928,4.12,91.3
4897,1776,-60,18184,4.12,91.3
4900,1932,-96,17892,4.12,91.3
4903,2232,24,17756,4.12,91.3
4906,2352,64,17428,4.12,91.3
4909,2172,-148,17696,4.12,91.3
4915,1864,-292,17840,4.12,91.3
4918,1552,-88,19452,4.12,91.3
4921,2116,-160,17388,4.12,91.3
4924,1840,-120,17588,4.12,91.3
4927,2280,-124,17748,4.12,91.3
4930,2608,-12,16400,4.12,91.3
4933,1728,-144,17728,4.12,91.3
4936,1664,-144,19144,4.12,91.3
4940,1896,-368,17928,4.12,91.3
4943,1884,-280,18464,4.12,91.3
4946,2604,-108,16964,4.12,91.3
4949,1792,-104,17596,4.12,91.3
4952,1844,-108,17972,4.12,91.3
4955,2140,-228,17448,4.12,91.3
4958,1572,-236,18408,4.12,91.3
4961,2376,-176,17508,4.12,91.3
4967,1612,-200,18568,4.12,91.3
4970,2172,-128,17728,4.12,91.3
4973,2132,-52,17800,4.12,91.3
4976,1860,-32,17796,4.12,91.3
4979,2352,-132,17080,4.12,91.3
4982,1812,-136,18228,4.12,91.3
4985,2092,-112,17696,4.12,91.3
4988,2132,-156,17908,4.12,91.3
4991,1832,-180,18100,4.12,91.3
4994,2336,-128,17332,4.12,91.3
4997,2092,-128,17860,4.12,91.3
5000,1948,-136,17764,4.12,91.3
5003,2124,-64,17600,4.12,91.3
5007,1952,-40,17924,4.12,91.3
5010,2068,-40,17792,4.12,91.3
5013,2244,-220,18032,4.12,91.3
5016,1980,-116,17872,4.12,91.3
5024,2088,-124,17808,4.12,91.3
5027,2032,-240,17820,4.12,91.3
5030,2196,-160,17876,4.12,91.3
5033,2024,-148,17872,4.12,91.3
5036,2016,-164,17812,4.12,91.3
5039,2172,-244,17600,4.12,91.3
5042,2080,-132,17824,4.12,91.3
5045,2144,-184,17784,4.12,91.3
5048,2064,-112,17788,4.12,91.3
5052,2128,-188,17728,4.12,91.3
5055,2232,-40,17448,4.12,91.3
5058,2164,-52,17664,4.12,91.3
5061,1920,-268,17884,4.12,91.3
5064,1924,-268,18284,4.12,91.3
5067,1936,-144,18068,4.12,91.3
5070,2148,-208,17472,4.12,91.3
5073,2236,-112,17540,4.12,91.3
5078,1976,-112,17436,4.12,91.3
5082,1572,-124,17928,4.12,91.3
5085,1632,-108,18508,4.12,91.3
5088,1976,-128,18112,4.12,91.3
5091,2336,68,17516,4.12,91.3
5094,2280,0,17128,4.12,91.3
5097,1680,0,17852,4.12,91.3
5100,1456,-132,18008,4.12,91.3
5103,1596,-204,18408,4.12,91.3
5106,2256,-152,17864,4.12,91.3
5109,2516,60,16840,4.12,91.3
5112,2072,8,17460,4.12,91.3
5116,1724,-88,17900,4.12,91.3
5119,1496,-112,18368,4.12,91.3
5122,1856,-100,18344,4.12,91.3
5125,2432,-56,17448,4.12,91.3
5128,2240,-40,17340,4.12,91.3
5133,1660,-88,18072,4.12,91.3
5136,1504,-56,18300,4.12,91.3
5139,2128,-56,17792,4.12,91.3
5142,2272,-16,17432,4.12,91.3
5145,2124,28,17312,4.12,91.3
5149,1920,12,17760,4.12,91.3
5152,1576,32,18264,4.12,91.3
5155,1820,-192,18236,4.12,91.3
5158,2296,-56,17920,4.12,91.3
5161,2248,-28,17648,4.12,91.3
5164,2148,-92,17564,4.12,91.3
5167,1796,-196,17876,4.12,91.3
5170,1880,-144,18084,4.12,91.3
5173,2200,-84,17764,4.12,91.3
5176,2380,-16,17620,4.12,91.3
5179,2232,-12,17524,4.12,91.3
5182,2048,-116,17928,4.12,91.3
5188,1972,-192,18108,4.12,91.3
5191,2228,-120,17720,4.12,91.3
5194,2204,-40,17508,4.12,91.3
5197,2124,-80,17652,4.12,91.3
5200,2044,-28,17864,4.12,91.3
5203,1900,-144,18008,4.12,91.3
5206,1988,-48,17864,4.12,91.3
5209,2160,-124,17940,4.12,91.3
5213,2088,-96,17784,4.12,91.3
5216,2116,-192,17672,4.12,91.3
5219,1996,-148,17800,4.12,91.3
5222,1944,-176,17900,4.12,91.3
5225,2208,-100,17636,4.12,91.3
5228,2060,-124,17640,4.12,91.3
5231,2060,-80,17684,4.12,91.3
5234,1976,-244,18008,4.12,91.3
5240,2076,-180,17788,4.12,91.3
5243,2232,-120,17556,4.12,91.3
5246,2108,-120,17720,4.12,91.3
5249,2144,-120,17592,4.12,91.3
5252,1976,-112,17892,4.12,91.3
5255,1904,-116,17812,4.12,91.3
5258,2032,-76,17856,4.12,91.3
5261,2092,-236,17896,4.12,91.3
5264,2120,-168,17792,4.12,91.3
5268,2088,112,17432,4.12,91.3
5271,1896,216,17584,4.12,91.3
5274,2156,-348,17492,4.12,91.3
5277,1744,-140,19252,4.12,91.3
5280,1712,-532,18144,4.12,91.3
5283,1400,-20,18308,4.12,91.3
5286,2144,-8,17624,4.12,91.3
5289,3084,60,16548,4.12,91.3
5294,2008,-28,17120,4.12,91.3
5297,1120,32,18896,4.12,91.3
5300,1212,-324,18872,4.12,91.3
5303,1824,-520,19680,4.12,91.3
5307,2968,92,16812,4.12,91.3
5310,2308,240,16764,4.12,91.3
5313,2036,-24,17240,4.12,91.3
5316,1352,-244,18236,4.12,91.3
5319,1252,-356,18992,4.12,91.3
5322,2428,20,17488,4.12,91.3
5325,2544,-16,17652,4.12,91.3
5328,2460,-192,17412,4.12,91.3
5331,1952,-48,17748,4.12,91.3
5334,1216,-160,18364,4.12,91.3
5338,1920,-224,17464,4.12,91.3
5341,2488,-200,17392,4.12,91.3
5344,2408,-108,17160,4.12,91.3
5349,1700,-132,18508,4.12,91.3
5352,1704,-264,18388,4.12,91.3
5355,2080,-304,17916,4.12,91.3
5358,2380,-96,17076,4.12,91.3
5361,2188,-128,17232,4.12,91.3
5365,2024,-168,17680,4.12,91.3
5368,1860,-164,18168,4.12,91.3
5371,2044,-172,18388,4.12,91.3
5374,2352,-288,17732,4.12,91.3
5377,2108,-136,17768,4.12,91.3
5380,2088,-148,17652,4.12,91.3
5383,1908,-152,17560,4.12,91.3
5386,1872,-244,17700,4.12,91.3
5389,2204,-268,17732,4.12,91.3
5392,2188,-272,18004,4.12,91.3
5395,2228,-188,17968,4.12,91.3
5398,2120,-64,17936,4.12,91.3
5404,1868,-220,17760,4.12,91.3
5407,2168,-208,17784,4.12,91.3
5410,2068,-184,17668,4.12,91.3
5413,2236,-56,17472,4.12,91.3
5416,2192,-92,17560,4.12,91.3
5419,1948,-60,17932,4.12,91.3
5422,1952,-136,18132,4.12,91.3
5425,2000,-204,18156,4.12,91.3
5429,2048,-168,17584,4.12,91.3
5432,2152,-108,17668,4.12,91.3
5435,2024,-56,17188,4.12,91.3
5438,1856,72,17040,4.12,91.3
5441,2316,220,17036,4.12,91.3
5444,1832,72,18888,4.12,91.3
5447,1312,-576,19360,4.12,91.3
5450,812,-52,19404,4.12,91.3
5456,2728,496,16640,4.12,91.3
5459,3776,72,15364,4.12,91.3
5462,2200,-44,16696,4.12,91.3
5465,220,208,20120,4.12,91.3
5468,820,-276,18984,4.12,91.3
5471,2048,-644,20320,4.12,91.3
5474,4044,200,15164,4.12,91.3
5477,2784,528,15496,4.12,91.3
5480,1688,408,17372,4.12,91.3
5483,1400,-468,18472,4.12,91.3
5486,1104,-748,19840,4.12,91.3
5489,2656,32,17368,4.12,91.3
5492,3076,140,16864,4.12,91.3
5496,2540,-380,17148,4.12,91.3
5499,1912,-408,17800,4.12,91.3
5502,1048,-288,19124,4.12,91.3
5505,1728,-248,18344,4.12,91.3
5510,3040,-328,16532,4.12,91.3
5513,2180,-132,17160,4.12,91.3
5516,1460,-172,18724,4.12,91.3
5519,1384,-404,19444,4.12,91.3
5522,2180,-412,18272,4.12,91.3
5526,2868,-184,16464,4.12,91.3
5529,2268,-56,16736,4.12,91.3
5532,1952,-128,17636,4.12,91.3
5535,1716,-288,18644,4.12,91.3
5538,1992,-176,18356,4.12,91.3
5541,2540,-96,17528,4.12,91.3
5544,2232,-36,17712,4.12,91.3
5547,1932,-112,17532,4.12,91.3
5550,1760,-28,17800,4.12,91.3
5553,1696,-20,17936,4.12,91.3
5556,2044,-76,17764,4.12,91.3
5559,2276,-56,17740,4.12,91.3
5565,2064,-40,17832,4.12,91.3
5568,1668,8,17964,4.12,91.3
5571,1624,-24,17964,4.12,91.3
5574,2056,52,17768,4.12,91.3
5577,2136,48,17868,4.12,91.3
5580,2188,32,17556,4.12,91.3
5583,2056,-8,17672,4.12,91.3
5586,1740,-12,18024,4.12,91.3
5589,1820,-36,18088,4.12,91.3
5592,1892,-116,18008,4.12,91.3
5596,1884,-168,18120,4.12,91.3
5599,1936,4,17700,4.12,91.3
5602,2012,-80,17464,4.12,91.3
5605,2024,-88,17812,4.12,91.3
5608,2176,-200,17564,4.12,91.3
5611,1916,-108,17968,4.12,91.3
5614,2000,-108,17908,4.12,91.3
5619,2012,-308,18064,4.12,91.3
5623,2184,-124,17736,4.12,91.3
5626,2308,-164,17504,4.12,91.3
5629,2116,-180,17656,4.12,91.3
5632,2152,-124,17756,4.12,91.3
5635,2068,-208,18028,4.12,91.3
5638,2108,-192,17840,4.12,91.3
5641,2208,-148,17716,4.12,91.3
5644,2168,-224,17868,4.12,91.3
5647,2076,-140,17764,4.12,91.3
5650,2128,-52,17764,4.12,91.3
5653,2052,-144,17908,4.12,91.3
5656,2228,-40,17820,4.12,91.3
5660,2140,-144,17816,4.12,91.3
5663,1976,-48,17996,4.12,91.3
5666,2048,-140,18020,4.12,91.3
5669,1976,-148,18024,4.12,91.3
5674,2120,-16,17668,4.12,91.3
5677,1936,28,17660,4.12,91.3
5680,1900,-60,17732,4.12,91.3
5683,1864,-52,17904,4.12,91.3
5686,1864,16,17772,4.12,91.3
5689,1916,-20,17824,4.12,91.3
5692,1996,-76,17676,4.12,91.3
5695,1916,-76,17760,4.12,91.3
5699,1936,-180,17668,4.12,91.3
5702,1964,-92,17832,4.12,91.3
5705,1984,-128,17700,4.12,91.3
5708,1976,-116,17764,4.12,91.3
5711,1900,-120,17812,4.12,91.3
5714,2052,-96,17880,4.12,91.3
5717,2076,-172,17792,4.12,91.3
5720,2016,-192,17760,4.12,91.3
5723,2140,-124,17776,4.12,91.3
5728,1992,-168,17844,4.12,91.3
5731,2116,-264,17840,4.12,91.3
5734,2068,-256,17812,4.12,91.3
5737,2160,-264,17932,4.12,91.3
5741,2164,-248,17896,4.12,91.3
5744,2160,-76,17712,4.12,91.3
5747,2212,-248,17904,4.12,91.3
5750,2052,-168,17816,4.12,91.3
5753,2096,-152,17744,4.12,91.3
5756,2084,-148,17776,4.12,91.3
5759,2072,-160,17864,4.12,91.3
5762,2032,-60,17836,4.12,91.3
5765,2136,-180,17728,4.12,91.3
5768,2020,-104,17780,4.12,91.3
5771,2072,-120,17888,4.12,91.3
5774,2084,4,17932,4.12,91.3
5780,2072,-96,17856,4.12,91.3
5783,2000,-40,17732,4.12,91.3
5786,2016,-20,17752,4.12,91.3
5789,2068,-16,17856,4.12,91.3
5792,2020,-96,17824,4.12,91.3
5795,2016,-112,17652,4.12,91.3
5798,2036,-136,17744,4.12,91.3
5801,2064,36,17808,4.12,91.3
5804,2144,-96,17740,4.12,91.3
5808,2128,-128,17804,4.12,91.3
5811,2020,-68,17916,4.12,91.3
5814,1992,-88,17588,4.12,91.3
5817,2084,12,17800,4.12,91.3
5820,2036,-152,17840,4.12,91.3
5823,2020,-68,17804,4.12,91.3
5826,2056,-172,17776,4.12,91.3
5829,2036,-72,17844,4.12,91.3
5834,1924,-20,17724,4.12,91.3
5838,1972,-280,17780,4.12,91.3
5841,2008,-48,17744,4.12,91.3
5844,2016,-192,18008,4.12,91.3
5847,1900,-136,17832,4.12,91.3
5850,2040,-228,17868,4.12,91.3
5853,1988,-204,17684,4.12,91.3
5856,1984,-244,17748,4.12,91.3
5859,1960,-248,17792,4.12,91.3
5862,1992,-204,17784,4.12,91.3
5865,1820,-100,17820,4.12,91.3
5868,2036,-160,17792,4.12,91.3
5871,1932,-156,17860,4.12,91.3
5875,2020,-164,17908,4.12,91.3
5878,2072,-64,17800,4.12,91.3
5881,1956,-204,17648,4.12,91.3
5884,2008,-128,17828,4.12,91.3
5889,2052,-132,17848,4.12,91.3
5892,2036,-92,17852,4.12,91.3
5895,2076,-72,17824,4.12,91.3
5898,2088,-96,17924,4.12,91.3
5901,2140,-104,17836,4.12,91.3
5905,2020,-36,17852,4.12,91.3
5908,2020,-36,17832,4.12,91.3
5911,2080,-148,17816,4.12,91.3
5914,2268,-136,17780,4.12,91.3
5917,2116,-20,17716,4.12,91.3
5920,2080,-24,17664,4.12,91.3
5923,2052,-20,17800,4.12,91.3
5926,2208,8,17676,4.12,91.3
5929,2100,-128,17740,4.12,91.3
5932,2064,-72,17804,4.12,91.3
5935,2160,-20,17872,4.12,91.3
5938,2052,-144,17792,4.12,91.3
5944,2112,-140,17904,4.12,91.3
5947,2108,88,17512,4.12,91.3
5950,2100,-124,17852,4.12,91.3
5953,1972,-120,18168,4.12,91.3
5956,2024,-76,17560,4.12,91.3
5959,1888,-72,17688,4.12,91.3
5962,2020,-132,18460,4.12,91.3
5965,2156,-160,17336,4.12,91.3
5969,1968,-104,17628,4.12,91.3
5972,2060,-16,17824,4.12,91.3
5975,2012,-244,17604,4.12,91.3
5978,1764,-280,18132,4.12,91.3
5981,2036,-172,17868,4.12,91.3
5984,2072,-344,17764,4.12,91.3
5987,2172,-256,17688,4.12,91.3
5990,2124,-180,17588,4.12,91.3
5993,1728,-160,17920,4.12,91.3
5998,2140,-76,17816,4.12,91.3
6002,2032,-196,17864,4.12,91.3
6005,2156,-240,17640,4.12,91.3
6008,2140,-172,17808,4.12,91.3
6011,1936,-196,17984,4.12,91.3
6014,2168,-144,17836,4.12,91.3
6017,2116,-116,17776,4.12,91.3
6020,2060,-144,17684,4.12,91.3
6023,2092,-92,17876,4.12,91.3
6026,1908,-64,18084,4.12,91.3
6029,2168,-144,17840,4.12,91.3
6032,2216,-232,17676,4.12,91.3
6036,1996,-172,17808,4.12,91.3
6039,2084,-68,17788,4.12,91.3
6042,2040,36,17920,4.12,91.3
6045,1992,-32,17968,4.12,91.3
6050,2028,-140,17624,4.12,91.3
6053,1920,-52,17684,4.12,91.3
6056,1904,-132,17900,4.12,91.3
6059,1888,-160,18032,4.12,91.3
6062,2084,-88,17896,4.12,91.3
6065,2124,-140,17620,4.12,91.3
6069,2004,-104,17620,4.12,91.3
6072,1796,-80,17940,4.12,91.3
6075,1948,4,18060,4.12,91.3
6078,2112,-132,17956,4.12,91.3
6081,2280,-72,17424,4.12,91.3
6084,2076,-128,17480,4.12,91.3
6087,1900,-120,17912,4.12,91.3
6090,1860,-176,18088,4.12,91.3
6093,2144,-88,18012,4.12,91.3
6096,2160,-64,17716,4.12,91.3
6099,2236,-40,17564,4.12,91.3
6105,1900,-80,18028,4.12,91.3
6108,1928,-148,17924,4.12,91.3
6111,2056,-188,17820,4.12,91.3
6114,2196,16,17784,4.12,91.3
6117,2028,-8,17812,4.12,91.3
6120,1932,-104,17964,4.12,91.3
6123,1908,-60,17956,4.12,91.3
6126,2044,-112,17772,4.12,91.3
6129,2108,-124,17620,4.12,91.3
6132,2000,-120,17580,4.12,91.3
6135,1912,-80,17876,4.12,91.3
6138,1972,-60,17992,4.12,91.3
6141,2052,-64,17788,4.12,91.3
6145,2112,-144,17652,4.12,91.3
6148,1928,12,17656,4.12,91.3
6151,1904,-88,17768,4.12,91.3
6154,1916,-92,18000,4.12,91.3
6159,2028,-132,17772,4.12,91.3
6162,2096,-116,17664,4.12,91.3
6165,1920,-80,17612,4.12,91.3
6168,1896,8,17692,4.12,91.3
6171,1876,-96,18024,4.12,91.3
6174,2024,-108,18048,4.12,91.3
6177,2140,-64,17856,4.12,91.3
6180,2340,-192,17568,4.12,91.3
6183,1944,-160,17836,4.12,91.3
6187,1800,-236,17976,4.12,91.3
6190,1992,-204,18020,4.12,91.3
6193,2080,-204,17892,4.12,91.3
6196,2368,-108,17540,4.12,91.3
6199,2132,-80,17724,4.12,91.3
6202,1976,-204,17724,4.12,91.3
6205,1880,-128,17924,4.12,91.3
6208,2000,-240,17948,4.12,91.3
6214,2208,-180,17608,4.12,91.3
6217,2232,-152,17596,4.12,91.3
6220,2092,-168,17716,4.12,91.3
6223,2028,-240,17932,4.12,91.3
6226,2084,-300,17676,4.12,91.3
6229,2208,-160,17836,4.12,91.3
6232,2180,-288,17748,4.12,91.3
6235,2036,-88,17696,4.12,91.3
6238,1968,-244,17696,4.12,91.3
6241,2072,-96,17828,4.12,91.3
6244,2100,-180,17752,4.12,91.3
6247,2176,-180,17828,4.12,91.3
6251,2084,-140,17716,4.12,91.3
6254,1952,-112,17752,4.12,91.3
6257,1996,-40,17836,4.12,91.3
6260,2064,-56,17688,4.12,91.3
6263,2024,-20,17840,4.12,91.3
6268,2160,-100,17720,4.12,91.3
6272,2024,60,17728,4.12,91.3
6275,2020,40,17900,4.12,91.3
6278,2076,-68,17692,4.12,91.3
6281,2100,-24,17728,4.12,91.3
6284,1972,-128,17800,4.12,91.3
6287,1992,-104,17768,4.12,91.3
6290,1980,-32,18040,4.12,91.3
6293,1944,-88,17888,4.12,91.3
6296,2064,-44,17916,4.12,91.3
6299,1952,-88,17788,4.12,91.3
6302,1924,-104,17836,4.12,91.3
6305,2088,-116,17788,4.12,91.3
6309,2088,-104,17844,4.12,91.3
6312,2016,-132,17796,4.12,91.3
6315,1964,-248,17808,4.12,91.3
6320,1948,-184,17924,4.12,91.3
6323,1900,-204,17760,4.12,91.3
6326,2040,-192,17880,4.12,91.3
6329,2072,-128,17404,4.12,91.3
6332,2208,8,17108,4.12,91.3
6335,2236,296,17344,4.12,91.3
6339,2000,-88,17144,4.12,91.3
6342,1032,-88,19256,4.12,91.3
6345,1520,-224,19120,4.12,91.3
6348,2248,-252,16772,4.12,91.3
6351,2416,196,17416,4.12,91.3
6354,2688,292,16628,4.12,91.3
6357,1464,268,17220,4.12,91.3
6360,1460,-88,18704,4.12,91.3
6363,1648,-444,18900,4.12,91.3
6366,1868,-352,18588,4.12,91.3
6369,2656,176,17480,4.12,91.3
6375,2036,64,17224,4.12,91.3
6378,1920,-156,17864,4.12,91.3
6381,1624,-272,18252,4.12,91.3
6384,1636,-224,18584,4.12,91.3
6387,2676,92,17320,4.12,91.3
6390,2296,-124,17648,4.12,91.3
6393,2020,-176,17916,4.12,91.3
6396,1944,-240,18240,4.12,91.3
6399,1784,-356,18280,4.12,91.3
6402,2492,-308,17064,4.12,91.3
6406,2436,-152,17420,4.12,91.3
6409,2044,-172,18108,4.12,91.3
6412,2248,-256,18028,4.12,91.3
6415,2044,-268,18212,4.12,91.3
6418,2388,-204,17540,4.12,91.3
6421,2388,-108,17356,4.12,91.3
6424,1928,-320,17880,4.12,91.3
6429,2388,-220,17648,4.12,91.3
6432,2172,-124,17772,4.12,91.3
6435,2392,-104,17840,4.12,91.3
6438,2208,-172,17628,4.12,91.3
6442,1768,-140,18412,4.12,91.3
6445,2140,-120,17600,4.12,91.3
6448,2156,-80,17568,4.12,91.3
6451,1984,-120,17796,4.12,91.3
6454,2212,-56,17536,4.12,91.3
6457,1884,-204,18220,4.12,91.3
6460,2136,-140,17724,4.12,91.3
6463,1948,-132,17880,4.12,91.3
6466,1904,-112,18000,4.12,91.3
6470,2072,-268,17716,4.12,91.3
6473,1972,-228,17792,4.12,91.3
6476,2020,-148,17772,4.12,91.3
6479,2056,-164,17760,4.12,91.3
6484,1928,-312,17776,4.12,91.3
6487,2020,-88,17680,4.12,91.3
6490,1848,-364,17904,4.12,91.3
6493,2032,-132,17836,4.12,91.3
6496,2060,-116,17604,4.12,91.3
6500,1844,-192,17828,4.12,91.3
6503,2148,-180,17776,4.12,91.3
6506,2040,-244,17904,4.12,91.3
6509,2072,-160,17864,4.12,91.3
6512,2172,-112,17784,4.12,91.3
6515,2096,-136,17780,4.12,91.3
6518,2024,-80,17832,4.12,91.3
6521,2036,-24,17760,4.12,91.3
6524,1956,-32,17912,4.12,91.3
6527,2072,-12,17948,4.12,91.3
6530,2304,-104,17656,4.12,91.3
6536,1872,4,18072,4.12,91.3
6539,1904,128,17616,4.12,91.3
6542,1344,496,17752,4.12,91.3
6545,1216,-140,17532,4.12,91.3
6548,1544,-156,21700,4.12,91.3
6551,3136,452,15212,4.12,91.3
6554,1652,416,17772,4.12,91.3
6557,1612,76,17740,4.12,91.3
6560,1052,240,18960,4.12,91.3
6563,1680,-12,17028,4.12,91.3
6566,2324,84,17172,4.12,91.3
6569,1712,184,18100,4.12,91.3
6572,2008,104,17312,4.12,91.3
6576,1980,-264,17792,4.12,91.3
6579,1624,-52,18108,4.12,91.3
6582,2096,112,17384,4.12,91.3
6585,2168,-272,17664,4.12,91.3
6590,2188,-108,17820,4.12,91.3
6593,2028,-120,17672,4.12,91.3
6596,2236,-244,17840,4.12,91.3
6599,2412,-328,17684,4.12,91.3
6602,1968,-316,18096,4.12,91.3
6605,2300,-320,17540,4.12,91.3
6608,2428,-376,17864,4.12,91.3
6611,2308,-308,18092,4.12,91.3
6614,2484,-428,17372,4.12,91.3
6618,2312,-252,17720,4.12,91.3
6621,2272,-320,18004,4.12,91.3
6624,2612,-256,17772,4.12,91.3
6627,2304,-204,17732,4.12,91.3
6630,2404,-196,17480,4.12,91.3
6633,2128,-280,18064,4.12,91.3
6636,2240,-280,17896,4.12,91.3
6639,2268,-224,17752,4.12,91.3
6644,2216,-236,17716,4.12,91.3
6648,2116,-180,17688,4.12,91.3
6651,2016,-156,17872,4.12,91.3
6654,2088,-32,17764,4.12,91.3
6657,2100,-56,17812,4.12,91.3
6660,1884,-88,17840,4.12,91.3
6663,1932,-136,17952,4.12,91.3
6666,1804,-136,17828,4.12,91.3
6669,1924,-36,17744,4.12,91.3
6672,1824,-44,17824,4.12,91.3
6675,1676,-28,17716,4.12,91.3
6678,1796,8,17620,4.12,91.3
6682,1812,-116,17832,4.12,91.3
6685,1704,-60,17936,4.12,91.3
6688,1812,-184,17796,4.12,91.3
6691,1828,-80,17828,4.12,91.3
6694,1936,-88,17788,4.12,91.3
6699,1892,-36,17684,4.12,91.3
6702,1964,-148,17772,4.12,91.3
6705,1912,-84,17772,4.12,91.3
6708,2132,-108,17792,4.12,91.3
6711,1984,-20,17772,4.12,91.3
6715,2068,-96,17844,4.12,91.3
6718,2100,-96,17796,4.12,91.3
6721,2100,-12,17872,4.12,91.3
6724,2176,-72,17760,4.12,91.3
6727,2200,8,17780,4.12,91.3
6730,2184,-80,17860,4.12,91.3
6733,2116,-64,17780,4.12,91.3
6736,2184,-28,17764,4.12,91.3
6739,2204,-84,17720,4.12,91.3
6742,2192,12,17780,4.12,91.3
6745,2152,-140,17924,4.12,91.3
6748,2212,-112,17688,4.12,91.3
6754,2032,-88,17556,4.12,91.3
6757,2060,-56,17764,4.12,91.3
6760,2136,-220,17632,4.12,91.3
6763,2100,-80,17732,4.12,91.3
6766,2012,-120,17880,4.12,91.3
6769,2000,-68,17884,4.12,91.3
6772,2108,-56,17924,4.12,91.3
6775,1964,-180,17820,4.12,91.3
6779,1868,-176,17736,4.12,91.3
6782,1956,-160,17680,4.12,91.3
6785,1912,-100,17784,4.12,91.3
6788,1964,-68,17904,4.12,91.3
6791,2116,-44,17720,4.12,91.3
6794,1936,-172,17844,4.12,91.3
6797,2008,-80,17880,4.12,91.3
6800,2004,-164,17900,4.12,91.3
6803,2040,-192,17828,4.12,91.3
6808,1936,-4,17752,4.12,91.3
6812,2092,-212,17568,4.12,91.3
6815,1972,-176,17796,4.12,91.3
6818,2056,-172,17872,4.12,91.3
6821,2080,-180,17716,4.12,91.3
6824,2000,-264,17792,4.12,91.3
6827,2104,-244,17880,4.12,91.3
6830,1920,-88,17916,4.12,91.3
6833,1904,-180,17748,4.12,91.3
6836,2096,-184,17772,4.12,91.3
6839,2060,-208,17944,4.12,91.3
6842,2108,-228,17812,4.12,91.3
6846,2052,-140,17708,4.12,91.3
6849,2028,-80,17772,4.12,91.3
6852,2144,-232,17576,4.12,91.3
6855,2088,-132,17776,4.12,91.3
6860,2032,-68,17832,4.12,91.3
6863,2060,-160,17728,4.12,91.3
6866,2072,-132,17672,4.12,91.3
6869,2144,-84,17612,4.12,91.3
6872,1976,-84,17796,4.12,91.3
6876,2028,-116,18092,4.12,91.3
6879,2252,-68,17916,4.12,91.3
6882,2216,-188,17608,4.12,91.3
6885,2204,-108,17560,4.12,91.3
6888,1924,-60,18076,4.12,91.3
6891,2064,-36,18168,4.12,91.3
6894,2276,-44,17728,4.12,91.3
6897,2368,20,17272,4.12,91.3
6900,2016,28,17584,4.12,91.3
6903,1856,-152,18196,4.12,91.3
6906,2012,-48,18204,4.12,91.3
6909,2308,76,17656,4.12,91.3
6915,2088,-172,17812,4.12,91.3
6918,1768,-8,18184,4.12,91.3
6921,1868,8,18196,4.12,91.3
6924,2192,80,17620,4.12,91.3
6927,2236,-12,17492,4.12,91.3
6930,1912,-96,17816,4.12,91.3
6933,1780,-220,17916,4.12,91.3
6936,1912,-172,17904,4.12,91.3
6939,2116,-156,17796,4.12,91.3
6942,2316,-48,17720,4.12,91.3
6946,1896,-244,17712,4.12,91.3
6949,1804,-152,17876,4.12,91.3
6952,1860,-172,17892,4.12,91.3
6955,2024,-272,17816,4.12,91.3
6958,2208,-204,17624,4.12,91.3
6961,2108,-172,17628,4.12,91.3
6964,1988,-164,17852,4.12,91.3
6970,1944,-260,17932,4.12,91.3
6973,2164,-180,17748,4.12,91.3
6976,2024,-236,17724,4.12,91.3
6979,2024,-156,17692,4.12,91.3
6982,2024,-280,17628,4.12,91.3
6986,2032,-120,17772,4.12,91.3
6989,2188,-228,17736,4.12,91.3
6992,2116,-200,17704,4.12,91.3
6995,2076,-204,18012,4.12,91.3
6998,2056,-152,17756,4.12,91.3
7001,2072,-120,17708,4.12,91.3
7004,2016,-168,17604,4.12,91.3
7007,1992,-96,17740,4.12,91.3
7010,2220,-100,17904,4.12,91.3
7013,2136,8,17720,4.12,91.3
7016,2148,-28,17732,4.12,91.3
7019,1984,-44,17868,4.12,91.3
7024,2016,-88,17820,4.12,91.3
7028,2088,-164,17668,4.12,91.3
7031,2204,-100,17676,4.12,91.3
7034,2176,-140,17984,4.12,91.3
7037,2212,-8,17736,4.12,91.3
7040,1980,-108,17812,4.12,91.3
7043,1992,-100,17820,4.12,91.3
7046,1944,8,17908,4.12,91.3
7049,2244,-40,17948,4.12,91.3
7052,2172,-104,17564,4.12,91.3
7055,2096,-44,17604,4.12,91.3
7058,1908,-140,17796,4.12,91.3
7062,1932,-100,17992,4.12,91.3
7065,2000,-96,17784,4.12,91.3
7068,2112,-132,17692,4.12,91.3
7071,2048,-160,17696,4.12,91.3
7076,2016,-132,17920,4.12,91.3
7079,2072,-172,17708,4.12,91.3
7082,2152,40,17776,4.12,91.3
7085,2032,-88,17684,4.12,91.3
7088,2080,-68,17752,4.12,91.3
7091,2040,-80,17868,4.12,91.3
7095,2092,-44,17992,4.12,91.3
7098,2184,-148,17720,4.12,91.3
7101,2028,-96,17712,4.12,91.3
7104,1968,-120,17820,4.12,91.3
7107,1864,-180,17904,4.12,91.3
7110,1876,-108,17912,4.12,91.3
7113,1976,-92,17628,4.12,91.3
7116,2016,-140,17564,4.12,91.3
7119,2004,-96,17664,4.12,91.3
7122,1908,-184,17816,4.12,91.3
7125,1940,-188,17828,4.12,91.3
7131,2124,-148,17648,4.12,91.3
7134,2132,-164,17920,4.12,91.3
7137,1888,-188,17700,4.12,91.3
7140,1896,-152,17996,4.12,91.3
7143,1968,-212,17804,4.12,91.3
7146,2016,-192,17760,4.12,91.3
7149,2068,-152,17760,4.12,91.3
7152,1936,-132,17948,4.12,91.3
7155,1804,-200,17816,4.12,91.3
7159,2036,-160,18012,4.12,91.3
7162,2124,-104,17776,4.12,91.3
7165,2068,-184,17760,4.12,91.3
7168,2092,-152,17764,4.12,91.3
7171,2004,-88,17716,4.12,91.3
7174,2064,-136,17788,4.12,91.3
7177,2076,-68,17772,4.12,91.3
7180,2192,-264,17728,4.12,91.3
7186,2108,-172,17808,4.12,91.3
7189,2132,-144,17964,4.12,91.3
7192,2168,-160,17860,4.12,91.3
7195,2152,-172,17980,4.12,91.3
7198,2240,-128,17696,4.12,91.3
7201,2028,-188,17676,4.12,91.3
7204,2080,-36,17764,4.12,91.3
7207,2092,-116,17728,4.12,91.3
7210,2224,-12,17752,4.12,91.3
7213,2180,28,17624,4.12,91.3
7216,2032,-132,17892,4.12,91.3
7219,1936,-52,17996,4.12,91.3
7223,2024,84,17996,4.12,91.3
7226,2208,-68,17844,4.12,91.3
7229,2264,-52,17648,4.12,91.3
7232,2036,-68,17612,4.12,91.3
7235,1976,-24,17664,4.12,91.3
7240,2136,-160,17832,4.12,91.3
7243,2208,-136,17832,4.12,91.3
7246,2160,-220,17780,4.12,91.3
7249,2072,-92,17864,4.12,91.3
7253,1972,-204,17988,4.12,91.3
7256,1984,-112,17740,4.12,91.3
7259,2188,-68,17660,4.12,91.3
7262,2188,-68,17544,4.12,91.3
7265,2120,-100,17660,4.12,91.3
7268,1888,-156,17840,4.12,91.3
7271,1940,-172,18096,4.12,91.3
7274,2024,-132,18024,4.12,91.3
7277,2148,-32,17804,4.12,91.3
7280,2136,-84,17776,4.12,91.3
7283,2032,-164,17712,4.12,91.3
7287,1920,-92,17800,4.12,91.3
7292,2072,-244,17784,4.12,91.3
7295,2008,-144,17844,4.12,91.3
7298,2064,-144,17920,4.12,91.3
7301,2068,-176,17648,4.12,91.3
7304,1972,-164,17736,4.12,91.3
7307,1928,-200,17848,4.12,91.3
7310,1860,-100,17776,4.12,91.3
7313,2068,-108,17828,4.12,91.3
7316,1984,-116,17664,4.12,91.3
7320,2084,-116,17640,4.12,91.3
7323,2008,-100,17752,4.12,91.3
7326,1952,-128,17924,4.12,91.3
7329,2084,-152,17984,4.12,91.3
7332,2176,-52,17724,4.12,91.3
7335,2128,-80,17640,4.12,91.3
7338,2176,-124,17924,4.12,91.3
7341,2056,-64,17820,4.12,91.3
7347,2180,-144,17824,4.12,91.3
7350,2208,-96,17648,4.12,91.3
7353,2124,-84,17904,4.12,91.3
7356,2064,-56,17964,4.12,91.3
7359,2160,-100,17764,4.12,91.3
7362,1972,-160,17732,4.12,91.3
7365,2056,-20,17720,4.12,91.3
7368,2168,-44,17928,4.12,91.3
7371,2068,-88,17964,4.12,91.3
7374,2116,-56,17848,4.12,91.3
7377,2112,-128,17764,4.12,91.3
7380,2036,-232,17800,4.12,91.3
7383,1944,-192,18004,4.12,91.3
7387,2028,-192,17936,4.12,91.3
7390,2048,-116,17724,4.12,91.3
7393,2036,-216,17708,4.12,91.3
7396,2088,-144,17612,4.12,91.3
7401,1896,-204,17816,4.12,91.3
7404,1972,-200,17664,4.12,91.3
7407,2048,-212,17776,4.12,91.3
7410,1960,-148,17860,4.12,91.3
7413,1952,-184,17568,4.12,91.3
7417,1876,-124,17784,4.12,91.3
7420,1856,-204,17640,4.12,91.3
7423,1980,-228,17844,4.12,91.3
7426,2056,-172,17760,4.12,91.3
7429,1988,-196,17820,4.12,91.3
7432,2016,-160,17704,4.12,91.3
7435,2056,-196,17844,4.12,91.3
7438,2096,-216,17808,4.12,91.3
7441,2156,-100,17820,4.12,91.3
7444,2088,-140,17816,4.12,91.3
7447,2024,-136,17756,4.12,91.3
7452,2056,-72,17752,4.12,91.3
7455,2140,-100,17740,4.12,91.3
7459,2104,-88,17712,4.12,91.3
7462,2040,-208,17808,4.12,91.3
7465,2100,-108,17736,4.12,91.3
7468,2068,-116,17644,4.12,91.3
7471,2112,-168,17876,4.12,91.3
7474,2028,-40,17812,4.12,91.3
7477,2192,-112,17748,4.12,91.3
7480,2016,36,17652,4.12,91.3
7483,2020,-36,17676,4.12,91.3
7486,2140,-36,18008,4.12,91.3
7489,2096,-120,17752,4.12,91.3
7493,2140,-132,17760,4.12,91.3
7496,2028,-76,17740,4.12,91.3
7499,2080,-112,17796,4.12,91.3
7502,2064,-152,17764,4.12,91.3
7507,2052,-44,17708,4.12,91.3
7510,2016,-92,17884,4.12,91.3
7513,1992,-112,17700,4.12,91.3
7516,1928,-128,17892,4.12,91.3
7519,2020,-40,17708,4.12,91.3
7523,1984,-24,17852,4.12,91.3
7526,1928,-176,17792,4.12,91.3
7529,1884,-44,17804,4.12,91.3
7532,2032,-40,17828,4.12,91.3
7535,1976,-52,17748,4.12,91.3
7538,2044,-48,17632,4.12,91.3
7541,1960,-44,17704,4.12,91.3
7544,1980,-72,17832,4.12,91.3
7547,1996,-12,17876,4.12,91.3
7550,2092,-216,17828,4.12,91.3
7553,2052,-60,17628,4.12,91.3
7556,1976,-80,17676,4.12,91.3
7562,2100,-132,17800,4.12,91.3
7565,2112,-40,17720,4.12,91.3
7568,2000,-72,17712,4.12,91.3
7571,2068,-104,17980,4.12,91.3
7574,2128,-100,17964,4.12,91.3
7577,2004,-172,17736,4.12,91.3
7580,2164,-176,17780,4.12,91.3
7583,2028,-168,17836,4.12,91.3
7586,2036,-88,18056,4.12,91.3
7590,2148,-176,17756,4.12,91.3
7593,2168,-148,17864,4.12,91.3
7596,2024,-168,17760,4.12,91.3
7599,1964,-176,17732,4.12,91.3
7602,2096,-72,17848,4.12,91.3
7605,2136,-160,17948,4.12,91.3
7608,2128,-160,17808,4.12,91.3
7611,2036,-88,17668,4.12,91.3
7616,2028,-80,17864,4.12,91.3
7619,2116,-116,17800,4.12,91.3
7623,2028,-152,17684,4.12,91.3
7626,2048,-28,17876,4.12,91.3
7629,2088,12,17732,4.12,91.3
7632,2036,-204,17784,4.12,91.3
7635,2028,-76,17952,4.12,91.3
7638,2064,-116,17744,4.12,91.3
7641,2016,-124,17800,4.12,91.3
7644,1908,-80,17780,4.12,91.3
7647,1980,-72,17792,4.12,91.3
7650,2024,-128,17792,4.12,91.3
7654,1928,-56,17904,4.12,91.3
7657,2084,-212,17680,4.12,91.3
7660,2008,-52,17776,4.12,91.3
7663,1972,-28,17784,4.12,91.3
7666,1992,-28,17760,4.12,91.3
7671,2024,-12,17856,4.12,91.3
7674,2036,-32,17784,4.12,91.3
7677,1932,-204,17804,4.12,91.3
7680,2028,-144,17840,4.12,91.3
7683,2028,-156,17792,4.12,91.3
7687,2052,-236,17732,4.12,91.3
7690,2004,-132,17884,4.12,91.3
7693,2016,-176,18020,4.12,91.3
7696,2188,-76,17696,4.12,91.3
7699,2216,-304,17552,4.12,91.3
7702,2052,-176,17876,4.12,91.3
7705,2016,-172,18088,4.12,91.3
7708,2376,-172,17872,4.12,91.3
7711,2364,-244,17288,4.12,91.3
7714,2172,-168,17716,4.12,91.3
7717,1932,-332,18192,4.12,91.3
7723,2260,-128,17860,4.12,91.3
7726,2412,-148,17520,4.12,91.3
7729,2168,-156,17672,4.12,91.3
7732,1912,-192,18044,4.12,91.3
7735,1984,-160,18052,4.12,91.3
7738,2268,-64,17600,4.12,91.3
7741,2280,-184,17464,4.12,91.3
7744,2152,-8,17860,4.12,91.3
7747,2000,-236,17972,4.12,91.3
7750,1988,-100,18168,4.12,91.3
7754,2260,-92,17160,4.12,91.3
7757,2120,-64,17892,4.12,91.3
7760,1984,-160,17896,4.12,91.3
7763,2000,-184,17980,4.12,91.3
7766,2028,24,17484,4.12,91.3
7769,2224,-96,17664,4.12,91.3
7772,1912,-52,17996,4.12,91.3
7777,2024,-124,17764,4.12,91.3
7780,1932,-128,17892,4.12,91.3
7784,2040,-148,17836,4.12,91.3
7787,2092,-44,17872,4.12,91.3
7790,1896,-168,17812,4.12,91.3
7793,1952,-148,17888,4.12,91.3
7796,1884,-128,17852,4.12,91.3
7799,1936,-96,17908,4.12,91.3
7802,1992,-96,17684,4.12,91.3
7805,1944,-36,17808,4.12,91.3
7808,1924,-84,17760,4.12,91.3
7811,2016,-4,17796,4.12,91.3
7814,1916,68,17928,4.12,91.3
7818,1968,24,17760,4.12,91.3
7821,2016,-64,17692,4.12,91.3
7824,2048,-44,17812,4.12,91.3
7827,2072,-96,17744,4.12,91.3
7832,2092,-36,17888,4.12,91.3
7835,2144,-76,17892,4.12,91.3
7838,2052,-96,17748,4.12,91.3
7841,2064,-152,17780,4.12,91.3
7844,2112,-80,17876,4.12,91.3
7847,2116,-164,17784,4.12,91.3
7850,2124,-160,17788,4.12,91.3
7853,2048,-116,17796,4.12,91.3
7857,2216,-84,17772,4.12,91.3
7860,2216,-160,17968,4.12,91.3
7863,2156,-140,17708,4.12,91.3
7866,2104,-156,17800,4.12,91.3
7869,2176,-236,17816,4.12,91.3
7872,2164,-260,17796,4.12,91.3
7875,2256,-140,17808,4.12,91.3
7878,2088,-156,17788,4.12,91.3
7881,2144,-252,17820,4.12,91.3
7886,2060,-136,17828,4.12,91.3
7889,2060,-132,17724,4.12,91.3
7892,2108,-180,17812,4.12,91.3
7895,2112,-264,17748,4.12,91.3
7899,2144,-112,17940,4.12,91.3
7902,2144,-120,17820,4.12,91.3
7905,1932,-160,18120,4.12,91.3
7908,2024,-212,17884,4.12,91.3
7911,2092,-68,17612,4.12,91.3
7914,1940,-56,17576,4.12,91.3
7917,1892,-124,18272,4.12,91.3
7920,1852,-240,17900,4.12,91.3
7923,2084,-56,17732,4.12,91.3
7927,1980,-144,17680,4.12,91.3
7930,1916,-192,17952,4.12,91.3
7933,1908,-100,17544,4.12,91.3
7938,1864,-100,17900,4.12,91.3
7941,1948,-64,17696,4.12,91.3
7944,2036,-84,17784,4.12,91.3
7947,1952,-108,17740,4.12,91.3
7950,1992,-84,17736,4.12,91.3
7953,2076,-72,17764,4.12,91.3
7956,2076,-32,17708,4.12,91.3
7959,2084,-20,17656,4.12,91.3
7962,2076,-56,17784,4.12,91.3
7966,2108,-8,17796,4.12,91.3
7969,2152,-80,17732,4.12,91.3
7972,2072,-104,17568,4.12,91.3
7975,2056,-80,17900,4.12,91.3
7978,2216,-72,17988,4.12,91.3
7981,2220,-120,17588,4.12,91.3
7984,2172,-172,17612,4.12,91.3
7987,2124,-64,17816,4.12,91.3
7993,2160,-252,17804,4.12,91.3
7996,2240,-136,17680,4.12,91.3
7999,2052,-172,17788,4.12,91.3
8002,2024,-104,17796,4.12,91.3
8005,2016,-96,17808,4.12,91.3
8008,2072,-152,17720,4.12,91.3
8011,2164,-168,17904,4.12,91.3
8014,2068,-156,17820,4.12,91.3
8017,2116,-240,17740,4.12,91.3
8020,2024,-96,17712,4.12,91.3
8023,1996,-224,17764,4.12,91.3
8026,2044,-80,17980,4.12,91.3
8029,2068,-52,17276,4.12,91.3
8033,1864,-180,17884,4.12,91.3
8036,1864,-124,17968,4.12,91.3
8039,1996,-40,17856,4.12,91.3
8042,2096,-112,17532,4.12,91.3
8047,1876,-56,17976,4.12,91.3
8051,1956,-168,17760,4.12,91.3
8054,1928,-128,17652,4.12,91.3
8057,1964,-124,17612,4.12,91.3
8060,1868,36,17888,4.12,91.3
8063,1840,-28,17768,4.12,91.3
8066,1920,-28,17824,4.12,91.3
8069,1944,56,17920,4.12,91.3
8072,2060,0,17680,4.12,91.3
8075,1956,-92,17852,4.12,91.3
8078,1984,-52,17796,4.12,91.3
8081,1988,-88,17772,4.12,91.3
8084,2124,-28,17804,4.12,91.3
8088,2016,-80,17656,4.12,91.3
8091,2060,0,17800,4.12,91.3
8094,2004,-44,17760,4.12,91.3
8097,2104,-16,17692,4.12,91.3
8102,2120,-96,17820,4.12,91.3
8105,2180,36,17664,4.12,91.3
8108,2212,-24,17692,4.12,91.3
8111,2172,-96,17772,4.12,91.3
8114,2232,-152,17600,4.12,91.3
8118,2216,-116,17932,4.12,91.3
8121,2280,-184,17956,4.12,91.3
8124,2296,-60,17840,4.12,91.3
8127,2268,-168,17820,4.12,91.3
8130,2212,-152,17868,4.12,91.3
8133,2180,-260,17560,4.12,91.3
8136,2136,-84,17740,4.12,91.3
8139,2084,-136,17772,4.12,91.3
8142,2100,-56,17668,4.12,91.3
8145,2028,-148,17672,4.12,91.3
8148,2088,-248,17784,4.12,91.3
8151,1996,-188,17764,4.12,91.3
8157,2164,-240,17812,4.12,91.3
8160,2016,-192,17860,4.12,91.3
8163,2036,-180,17744,4.12,91.3
8166,2052,-192,17760,4.12,91.3
8169,1960,-252,17776,4.12,91.3
8172,2000,-164,17856,4.12,91.3
8175,1948,-88,17720,4.12,91.3
8178,2036,-112,17960,4.12,91.3
8182,2008,-132,17880,4.12,91.3
8185,2052,-260,17648,4.12,91.3
8188,1920,-244,17820,4.12,91.3
8191,1956,-88,17812,4.12,91.3
8194,2020,-64,17756,4.12,91.3
8197,1996,-112,17960,4.12,91.3
8200,2004,-240,17776,4.12,91.3
8203,2044,-100,17680,4.12,91.3
8208,2064,-36,17792,4.12,91.3
8212,1932,-48,17852,4.12,91.3
8215,2052,-160,17832,4.12,91.3
8218,2028,-184,17788,4.12,91.3
8221,1928,-104,17876,4.12,91.3
8224,2048,-52,17856,4.12,91.3
8227,1956,-104,17788,4.12,91.3
8230,2036,-140,17900,4.12,91.3
8233,2048,-44,17760,4.12,91.3
8236,2008,-144,17908,4.12,91.3
8239,1988,-80,17696,4.12,91.3
8242,2068,-28,17792,4.12,91.3
8245,2060,44,17712,4.12,91.3
8249,2100,-116,17804,4.12,91.3
8252,2112,-100,17844,4.12,91.3
8255,2108,-96,17760,4.12,91.3
8258,2108,24,17660,4.12,91.3
8263,2224,-108,17852,4.12,91.3
8266,2124,-88,17840,4.12,91.3
8269,2172,-56,17880,4.12,91.3
8272,2096,-8,17812,4.12,91.3
8275,2164,-76,17740,4.12,91.3
8278,2056,-132,17952,4.12,91.3
8281,2220,-76,17888,4.12,91.3
8284,2124,36,17800,4.12,91.3
8287,2036,-124,17860,4.12,91.3
8291,1968,-108,17960,4.12,91.3
8294,2060,-48,17780,4.12,91.3
8297,2088,8,17744,4.12,91.3
8300,1984,-156,17776,4.12,91.3
8303,2036,-120,17700,4.12,91.3
8306,1988,-44,17764,4.12,91.3
8309,2008,-24,17848,4.12,91.3
8312,1808,-84,17832,4.12,91.3
8317,1936,-224,17808,4.12,91.3
8320,1948,-148,17816,4.12,91.3
8323,2048,-180,17872,4.12,91.3
8326,1960,-92,17880,4.12,91.3
8330,1980,-80,17748,4.12,91.3
8333,2044,-160,17816,4.12,91.3
8336,2008,-84,17728,4.12,91.3
8339,1980,-88,17804,4.12,91.3
8342,1908,-124,17788,4.12,91.3
8345,2132,-124,17900,4.12,91.3
8348,2032,-160,17812,4.12,91.3
8351,2144,-84,17888,4.12,91.3
8354,2092,-88,17868,4.12,91.3
8357,2232,-168,17756,4.12,91.3
8361,2032,-148,17724,4.12,91.3
8364,2080,-96,17880,4.12,91.3
8367,2136,-132,17968,4.12,91.3
8372,2212,-124,17856,4.12,91.3
8375,2156,-164,17840,4.12,91.3
8378,2056,-120,17868,4.12,91.3
8381,2080,-168,17832,4.12,91.3
8384,2176,-104,17856,4.12,91.3
8387,2144,-116,17976,4.12,91.3
8390,2208,-232,17708,4.12,91.3
8393,2172,-176,17936,4.12,91.3
8397,2080,-192,17836,4.12,91.3
8400,2084,-128,17892,4.12,91.3
8403,2072,-132,17788,4.12,91.3
8406,2128,-48,17816,4.12,91.3
8409,2072,-20,17920,4.12,91.3
8412,1972,-44,17660,4.12,91.3
8415,1944,-180,17740,4.12,91.3
8418,2096,-4,17804,4.12,91.3
8421,1904,-100,17640,4.12,91.3
8427,2072,-136,17976,4.12,91.3
8430,1980,24,18108,4.12,91.3
8433,1968,12,17648,4.12,91.3
8436,1992,80,17808,4.12,91.3
8439,1964,24,17856,4.12,91.3
8442,2008,-44,17788,4.12,91.3
8445,2056,64,17696,4.12,91.3
8448,2112,-16,17900,4.12,91.3
8451,1984,-8,17828,4.12,91.3
8454,1920,-104,17784,4.12,91.3
8457,2024,-12,17792,4.12,91.3
8460,1952,-68,17740,4.12,91.3
8463,1976,-96,17796,4.12,91.3
8467,2004,-116,17696,4.12,91.3
8470,2084,-168,17896,4.12,91.3
8473,2152,-176,17732,4.12,91.3
8476,2032,-156,17896,4.12,91.3
8481,2068,-260,17892,4.12,91.3
8484,2040,-192,17712,4.12,91.3
8487,2000,-224,17908,4.12,91.3
8490,1996,-208,17888,4.12,91.3
8494,2048,-120,17808,4.12,91.3
8497,1980,-280,17616,4.12,91.3
8500,2060,-300,17844,4.12,91.3
8503,2076,-288,17732,4.12,91.3
8506,2164,-212,17692,4.12,91.3
8509,2044,-192,17704,4.12,91.3
8512,2056,-240,17760,4.12,91.3
8515,2124,-212,17840,4.12,91.3
8518,2120,-176,17908,4.12,91.3
8521,2116,-152,17764,4.12,91.3
8524,2116,-116,17760,4.12,91.3
8527,2056,-52,17696,4.12,91.3
8533,2052,-144,17944,4.12,91.3
8536,2064,-68,17876,4.12,91.3
8539,2052,-24,17732,4.12,91.3
8542,2196,16,17996,4.12,91.3
8545,2076,-112,17844,4.12,91.3
8548,2036,-80,17744,4.12,91.3
8551,2076,-116,17800,4.12,91.3
8554,2164,-56,17896,4.12,91.3
8557,2116,-8,17764,4.12,91.3
8561,2100,112,17724,4.12,91.3
8564,1952,-36,17828,4.12,91.3
8567,2044,-60,17812,4.12,91.3
8570,2100,-12,17824,4.12,91.3
8573,2040,40,18008,4.12,91.3
8576,2060,-64,17784,4.12,91.3
8579,2052,-28,17756,4.12,91.3
8582,2028,-84,17712,4.12,91.3
8588,1964,-96,17712,4.12,91.3
8591,1964,-152,17736,4.12,91.3
8594,2084,-40,17744,4.12,91.3
8597,2012,-108,17904,4.12,91.3
8600,2036,-100,17728,4.12,91.3
8603,2000,-136,17728,4.12,91.3
8606,1992,-148,17940,4.12,91.3
8609,2028,-140,17752,4.12,91.3
8612,2072,-148,17736,4.12,91.3
8615,2088,-152,17812,4.12,91.3
8618,2040,-172,17824,4.12,91.3
8622,1992,-244,17936,4.12,91.3
8625,2108,-68,17836,4.12,91.3
8628,2068,-132,17932,4.12,91.3
8631,2036,-192,17744,4.12,91.3
8634,2028,-192,17752,4.12,91.3
8637,2032,-144,17760,4.12,91.3
8642,1984,-40,17868,4.12,91.3
8645,1992,-56,17792,4.12,91.3
8648,2012,-40,17712,4.12,91.3
8651,2148,-188,17860,4.12,91.3
8655,2076,-124,17804,4.12,91.3
8658,2040,-92,17844,4.12,91.3
8661,2032,-20,17832,4.12,91.3
8664,2052,-156,17760,4.12,91.3
8667,2024,-200,17784,4.12,91.3
8670,1956,-108,17868,4.12,91.3
8673,1972,-76,17840,4.12,91.3
8676,2116,-116,17784,4.12,91.3
8679,2100,-92,17864,4.12,91.3
8682,1956,-128,17740,4.12,91.3
8686,2064,-80,17792,4.12,91.3
8689,2152,-108,17688,4.12,91.3
8692,2044,16,17872,4.12,91.3
8698,2068,-152,17780,4.12,91.3
8701,2112,-104,17896,4.12,91.3
8704,2076,-144,17620,4.12,91.3
8707,2072,-264,17108,4.12,91.3
8710,2164,-232,17636,4.12,91.3
8713,2164,-16,18684,4.12,91.3
8716,2144,-164,18648,4.12,91.3
8719,2040,-116,17624,4.12,91.3
8722,1872,-264,16760,4.12,91.3
8725,2084,-108,17808,4.12,91.3
8728,2076,-76,18696,4.12,91.3
8731,2132,-20,18156,4.12,91.3
8735,2092,-88,16792,4.12,91.3
8738,1912,-200,17048,4.12,91.3
8741,2044,-204,18156,4.12,91.3
8744,2224,-80,18764,4.12,91.3
8747,2124,-176,18224,4.12,91.3
8752,2000,-172,17048,4.12,91.3
8755,1872,-68,17704,4.12,91.3
8758,1956,-136,17928,4.12,91.3
8761,2152,-72,18036,4.12,91.3
8764,1968,-88,17452,4.12,91.3
8767,1972,-92,17740,4.12,91.3
8770,1956,-120,18104,4.12,91.3
8774,2044,40,18044,4.12,91.3
8777,1880,72,17384,4.12,91.3
8780,1888,-80,17800,4.12,91.3
8783,2112,-168,18316,4.12,91.3
8786,2052,-140,18048,4.12,91.3
8789,1884,-116,18112,4.12,91.3
8792,2024,-188,17304,4.12,91.3
8795,1904,48,17388,4.12,91.3
8798,2128,0,17280,4.12,91.3
8804,1976,-284,18532,4.12,91.3
8807,2000,-240,17976,4.12,91.3
8810,1932,-184,18332,4.12,91.3
8813,2276,-200,17516,4.12,91.3
8816,2224,-164,17396,4.12,91.3
8819,1992,4,17492,4.12,91.3
8822,1880,-200,17736,4.12,91.3
8825,2124,-264,18160,4.12,91.3
8828,2328,-176,17512,4.12,91.3
8831,2200,-88,17888,4.12,91.3
8835,2088,8,18152,4.12,91.3
8838,2208,-152,17868,4.12,91.3
8841,2092,-124,17756,4.12,91.3
8844,2028,-52,17752,4.12,91.3
8847,2036,-124,17620,4.12,91.3
8850,2128,-68,17700,4.12,91.3
8853,2140,-44,17856,4.12,91.3
8858,2036,-112,17756,4.12,91.3
8861,2080,-32,17864,4.12,91.3
8864,2172,-120,17964,4.12,91.3
8867,2184,-32,17488,4.12,91.3
8870,2052,-156,17608,4.12,91.3
8874,1964,-88,17776,4.12,91.3
8877,2000,-124,17924,4.12,91.3
8880,2016,-96,17920,4.12,91.3
8883,2140,-108,17708,4.12,91.3
8886,2080,-88,17768,4.12,91.3
8889,1920,-244,17672,4.12,91.3
8892,1996,-132,17828,4.12,91.3
8895,1928,24,17932,4.12,91.3
8898,2088,-88,17796,4.12,91.3
8902,1964,-148,17652,4.12,91.3
8905,1992,-164,17784,4.12,91.3
8908,2068,-192,17784,4.12,91.3
8913,1888,-320,17608,4.12,91.3
8916,1932,-160,17768,4.12,91.3
8919,1992,-268,17720,4.12,91.3
8922,1980,-204,17884,4.12,91.3
8925,1960,-220,17948,4.12,91.3
8929,1996,-212,17708,4.12,91.3
8932,2008,-220,17852,4.12,91.3
8935,1984,-32,17880,4.12,91.3
8938,1928,-124,17908,4.12,91.3
8941,1956,-208,17572,4.12,91.3
8944,2040,-140,17956,4.12,91.3
8947,2076,-192,17948,4.12,91.3
8950,2140,-200,17564,4.12,91.3
8953,2048,-72,17640,4.12,91.3
8956,2024,32,17640,4.12,91.3
8959,2040,24,17840,4.12,91.3
8962,1984,-200,17808,4.12,91.3
8968,2120,-140,17856,4.12,91.3
8971,2196,-52,17892,4.12,91.3
8974,2160,-84,17724,4.12,91.3
8977,1992,-80,17712,4.12,91.3
8980,2080,-40,17856,4.12,91.3
8983,2224,-88,17796,4.12,91.3
8986,2264,-92,17856,4.12,91.3
8989,2224,60,17672,4.12,91.3
8993,2092,-128,17868,4.12,91.3
8996,2164,-88,17920,4.12,91.3
8999,2116,-104,17760,4.12,91.3
9002,2024,-88,17620,4.12,91.3
9005,2080,-12,17628,4.12,91.3
9008,2064,-72,17928,4.12,91.3
9011,2164,-104,17956,4.12,91.3
9014,2048,-100,17944,4.12,91.3
9017,2204,-176,17580,4.12,91.3
9023,2036,-84,17788,4.12,91.3
9026,2032,-108,17644,4.12,91.3
9029,2100,-236,17844,4.12,91.3
9032,2048,-124,17960,4.12,91.3
9035,2080,-108,17648,4.12,91.3
9038,1984,-148,17908,4.12,91.3
9041,1992,-192,17848,4.12,91.3
9044,2020,-136,17696,4.12,91.3
9047,2012,-176,17964,4.12,91.3
9050,2052,-148,17748,4.12,91.3
9053,2180,-236,17796,4.12,91.3
9056,2048,-228,17784,4.12,91.3
9060,2016,-168,17828,4.12,91.3
9063,1956,-64,17768,4.12,91.3
9066,1908,-192,17668,4.12,91.3
9069,2072,-168,17652,4.12,91.3
9074,1920,-168,17836,4.12,91.3
9077,2048,-260,17900,4.12,91.3
9080,2108,-120,17840,4.12,91.3
9083,1932,-116,17716,4.12,91.3
9087,1952,-80,17708,4.12,91.3
9090,1984,-248,17876,4.12,91.3
9093,2032,-212,17840,4.12,91.3
9096,2116,-140,17720,4.12,91.3
9099,1992,-72,17872,4.12,91.3
9102,2028,-40,17912,4.12,91.3
9105,2116,-84,17764,4.12,91.3
9108,2084,-128,17752,4.12,91.3
9111,1984,-168,17724,4.12,91.3
9114,2008,-120,17768,4.12,91.3
9117,2156,-124,17800,4.12,91.3
9120,2032,-44,17740,4.12,91.3
9123,2156,-68,17864,4.12,91.3
9129,2032,-52,17752,4.12,91.3
9132,2036,-72,17760,4.12,91.3
9135,2084,-104,17808,4.12,91.3
9138,2152,-64,17860,4.12,91.3
9141,2068,52,17860,4.12,91.3
9144,2032,-8,17856,4.12,91.3
9147,2132,12,17644,4.12,91.3
9150,2116,-100,17844,4.12,91.3
9153,1976,24,17852,4.12,91.3
9156,2100,112,17876,4.12,91.3
9160,2072,4,17768,4.12,91.3
9163,2028,-116,17828,4.12,91.3
9166,2016,-60,17744,4.12,91.3
9169,2040,-120,17780,4.12,91.3
9172,2040,44,17828,4.12,91.3
9175,1972,-92,17824,4.12,91.3
9178,1992,-20,17960,4.12,91.3
9183,2080,-180,17828,4.12,91.3
9186,2124,-68,17844,4.12,91.3
9189,2108,-156,17828,4.12,91.3
9192,2052,-108,17720,4.12,91.3
9195,2060,-64,17728,4.12,91.3
9198,2020,-200,17812,4.12,91.3
9201,1880,-132,17748,4.12,91.3
9205,2080,-156,17820,4.12,91.3
9208,2100,-236,17760,4.12,91.3
9211,2012,-248,17712,4.12,91.3
9214,1980,-200,17728,4.12,91.3
9217,2032,-264,17932,4.12,91.3
9220,2008,-284,17732,4.12,91.3
9223,1980,-192,17752,4.12,91.3
9226,2028,-244,17692,4.12,91.3
9229,2080,-184,17796,4.12,91.3
9232,2028,-164,17944,4.12,91.3
9238,2032,-244,17784,4.12,91.3
9241,2020,-156,17804,4.12,91.3
9244,2052,-176,17752,4.12,91.3
9247,2068,-140,17896,4.12,91.3
9250,2104,-244,17796,4.12,91.3
9253,2044,-212,17704,4.12,91.3
9256,2120,-120,17644,4.12,91.3
9259,2076,-108,17804,4.12,91.3
9262,2096,-112,17796,4.12,91.3
9266,2160,-36,17752,4.12,91.3
9269,2136,-36,17832,4.12,91.3
9272,2028,-116,17808,4.12,91.3
9275,2184,-108,17820,4.12,91.3
9278,2056,-60,17784,4.12,91.3
9281,2000,-52,17832,4.12,91.3
9284,2116,20,17740,4.12,91.3
9289,2132,-28,17696,4.12,91.3
9292,2068,4,17704,4.12,91.3
9295,2052,-36,17720,4.12,91.3
9298,2044,4,17760,4.12,91.3
9301,2000,-12,17564,4.12,91.3
9305,2004,-28,17832,4.12,91.3
9308,2112,-4,17856,4.12,91.3
9311,2080,-56,17892,4.12,91.3
9314,2028,-84,17748,4.12,91.3
9317,2024,20,17844,4.12,91.3
9320,1888,-104,17808,4.12,91.3
9323,2092,-44,17596,4.12,91.3
9326,1980,-32,17652,4.12,91.3
9329,2028,-12,17708,4.12,91.3
9333,1900,-72,17780,4.12,91.3
9336,1872,-256,17916,4.12,91.3
9339,2016,-156,17832,4.12,91.3
9342,2016,-156,17772,4.12,91.3
9347,1916,-72,17868,4.12,91.3
9350,1980,-176,17728,4.12,91.3
9353,2004,-188,17768,4.12,91.3
9356,1956,-176,17760,4.12,91.3
9359,1996,-128,17792,4.12,91.3
9362,2076,-232,17932,4.12,91.3
9365,2076,-220,17728,4.12,91.3
9368,2004,-212,17796,4.12,91.3
9372,1960,-128,17820,4.12,91.3
9375,2072,-140,17888,4.12,91.3
9378,1928,-112,17852,4.12,91.3
9381,2116,-184,17800,4.12,91.3
9384,2024,-188,17748,4.12,91.3
9387,2044,-172,17744,4.12,91.3
9390,2048,-108,17824,4.12,91.3
9393,2144,-96,17852,4.12,91.3
9399,2064,-124,17696,4.12,91.3
9402,2016,-104,17700,4.12,91.3
9405,2180,-28,17788,4.12,91.3
9408,2124,-232,17796,4.12,91.3
9411,1988,4,17868,4.12,91.3
9414,2036,-24,17676,4.12,91.3
9417,2132,-88,17840,4.12,91.3
9420,2040,-68,17812,4.12,91.3
9423,2004,-72,17864,4.12,91.3
9426,2052,-120,17684,4.12,91.3
9429,2036,-152,17904,4.12,91.3
9432,2056,8,17904,4.12,91.3
9435,1980,-100,17784,4.12,91.3
9439,1984,-164,17848,4.12,91.3
9442,2032,-148,17988,4.12,91.3
9445,2032,8,17924,4.12,91.3
9448,2052,-88,17740,4.12,91.3
9453,1984,-100,17928,4.12,91.3
9456,1996,-192,17552,4.12,91.3
9459,2068,-8,17380,4.12,91.3
9462,1872,-224,17840,4.12,91.3
9466,2008,44,17760,4.12,91.3
9469,2056,-268,17716,4.12,91.3
9472,1944,-208,17984,4.12,91.3
9475,1916,-148,18076,4.12,91.3
9478,2176,-60,17972,4.12,91.3
9481,2252,-100,17404,4.12,91.3
9484,2016,28,17672,4.12,91.3
9487,2008,-112,17880,4.12,91.3
9490,2008,-144,17964,4.12,91.3
9493,2076,-160,17912,4.12,91.3
9496,2060,28,17928,4.12,91.3
9499,2072,-16,17860,4.12,91.3
9502,2156,-156,17852,4.12,91.3
9508,2052,-124,17664,4.12,91.3
9511,2080,-68,17684,4.12,91.3
9514,2060,-68,17884,4.12,91.3
9517,2088,-116,17928,4.12,91.3
9520,2168,44,17724,4.12,91.3
9523,1920,-96,17852,4.12,91.3
9526,1992,-176,17900,4.12,91.3
9529,1972,-124,17832,4.12,91.3
9533,2192,-124,17672,4.12,91.3
9536,2076,-60,17852,4.12,91.3
9539,2064,-152,17808,4.12,91.3
9542,2096,-180,17852,4.12,91.3
9545,2016,-120,17848,4.12,91.3
9548,2088,-128,17948,4.12,91.3
9551,2076,-128,17848,4.12,91.3
9554,2008,-96,17860,4.12,91.3
9557,2072,-124,17572,4.12,91.3
9562,2036,-184,17756,4.12,91.3
9566,2016,-180,17996,4.12,91.3
9569,2012,-132,17856,4.12,91.3
9572,2136,-116,17732,4.12,91.3
9575,2028,-120,17740,4.12,91.3
9578,2036,-148,17708,4.12,91.3
9581,2100,-164,17616,4.12,91.3
9584,2008,-200,17856,4.12,91.3
9587,2004,-120,17768,4.12,91.3
9590,2016,-160,17812,4.12,91.3
9593,2068,-156,18004,4.12,91.3
9596,1980,-96,17668,4.12,91.3
9600,2120,-152,17812,4.12,91.3
9603,1964,-136,17796,4.12,91.3
9606,2076,-144,17772,4.12,91.3
9609,1944,-144,17932,4.12,91.3
9614,2000,-120,17736,4.12,91.3
9617,2052,-32,17740,4.12,91.3
9620,2096,-128,17996,4.12,91.3
9623,2036,-124,17776,4.12,91.3
9626,2040,-96,17764,4.12,91.3
9629,2020,-52,17764,4.12,91.3
9632,2112,-84,17764,4.12,91.3
9635,2028,-100,17752,4.12,91.3
9638,2068,-84,17844,4.12,91.3
9641,2004,-32,17848,4.12,91.3
9645,2120,-96,17804,4.12,91.3
9648,2156,-112,17828,4.12,91.3
9651,2108,-84,17788,4.12,91.3
9654,1984,-148,17820,4.12,91.3
9657,2120,-168,17872,4.12,91.3
9660,2184,-80,17736,4.12,91.3
9663,2052,-240,17768,4.12,91.3
9668,1932,-176,17704,4.12,91.3
9672,2124,-100,17708,4.12,91.3
9675,2056,-184,17692,4.12,91.3
9678,2128,-80,17664,4.12,91.3
9681,1980,-88,17756,4.12,91.3
9684,2092,-212,17964,4.12,91.3
9687,2116,-72,17912,4.12,91.3
9690,2040,-184,17932,4.12,91.3
9693,2108,-148,17944,4.12,91.3
9696,2036,-216,17644,4.12,91.3
9699,2008,-128,17752,4.12,91.3
9702,2096,-76,17844,4.12,91.3
9705,1936,-100,17900,4.12,91.3
9709,2044,-236,17848,4.12,91.3
9712,2108,-160,17700,4.12,91.3
9715,2028,-40,17788,4.12,91.3
9718,2100,-112,17816,4.12,91.3
9723,1992,-192,17660,4.12,91.3
9726,2028,-204,17952,4.12,91.3
9729,2096,-136,17732,4.12,91.3
9732,2072,-156,17556,4.12,91.3
9735,2028,-80,17856,4.12,91.3
9739,2100,-136,17492,4.12,91.3
9742,1920,-136,18040,4.12,91.3
9745,2088,-232,17884,4.12,91.3
9748,2080,-52,17880,4.12,91.3
9751,2056,-64,17716,4.12,91.3
9754,2052,-156,17524,4.12,91.3
9757,2096,-32,17944,4.12,91.3
9760,2064,-116,17660,4.12,91.3
9763,2060,-44,17620,4.12,91.3
9766,2032,-96,17812,4.12,91.3
9769,2064,-96,17756,4.12,91.3
9772,2044,-108,17732,4.12,91.3
9778,2088,-88,17876,4.12,91.3
9781,2028,-120,17828,4.12,91.3
9784,1920,-56,17936,4.12,91.3
9787,2164,-148,17844,4.12,91.3
9790,1944,12,17760,4.12,91.3
9793,1964,-100,17808,4.12,91.3
9796,1964,-136,17696,4.12,91.3
9799,2024,-204,18004,4.12,91.3
9803,2080,-88,17704,4.12,91.3
9806,2032,-200,17884,4.12,91.3
9809,2136,-88,17732,4.12,91.3
9812,2044,-120,17744,4.12,91.3
9815,2004,-236,17868,4.12,91.3
9818,2048,-176,17848,4.12,91.3
9821,2068,-220,17868,4.12,91.3
9824,2120,-108,17808,4.12,91.3
9830,2108,-88,17932,4.12,91.3
9833,2076,-148,17760,4.12,91.3
9836,2116,-136,17784,4.12,91.3
9839,2048,-124,17720,4.12,91.3
9842,2180,-80,17784,4.12,91.3
9845,2128,-112,17868,4.12,91.3
9848,1936,-108,17884,4.12,91.3
9851,2140,-208,17784,4.12,91.3
9854,2168,-204,17664,4.12,91.3
9857,2112,-12,17680,4.12,91.3
9861,2088,-64,18028,4.12,91.3
9864,1908,-204,18252,4.12,91.3
9867,2112,-64,18080,4.12,91.3
9870,2188,-104,17772,4.12,91.3
9873,2292,-32,17360,4.12,91.3
9876,2076,-64,17472,4.12,91.3
9879,1824,-16,17900,4.12,91.3
9884,2100,-272,18012,4.12,91.3
9887,2204,-124,17776,4.12,91.3
9890,2092,-212,17788,4.12,91.3
9893,2024,-156,17736,4.12,91.3
9897,1936,-44,17888,4.12,91.3
9900,1924,-120,17852,4.12,91.3
9903,2132,-92,17804,4.12,91.3
9906,2092,-196,17696,4.12,91.3
9909,2088,-216,17864,4.12,91.3
9912,1944,-212,17776,4.12,91.3
9915,1880,-64,17968,4.12,91.3
9918,1840,-160,17880,4.12,91.3
9921,2128,-152,17668,4.12,91.3
9924,2056,-104,17560,4.12,91.3
9928,2096,-136,17836,4.12,91.3
9931,1888,-28,17960,4.12,91.3
9934,2024,-160,18048,4.12,91.3
9939,1984,-68,18000,4.12,91.3
9942,2064,-88,17684,4.12,91.3
9945,1960,-184,17576,4.12,91.3
9948,1940,-56,17896,4.12,91.3
9951,2028,-256,17764,4.12,91.3
9955,1988,-72,17896,4.12,91.3
9958,1996,-168,17780,4.12,91.3
9961,1980,-96,17820,4.12,91.3
9964,2076,-148,17852,4.12,91.3
9967,2052,-96,17884,4.12,91.3
9970,2040,-140,17852,4.12,91.3
9973,2072,-124,17668,4.12,91.3
9976,2156,-76,17784,4.12,91.3
9979,2052,-108,17844,4.12,91.3
9982,2096,-28,17948,4.12,91.3
9985,2000,-120,17916,4.12,91.3
9991,2180,-96,17784,4.12,91.3
9994,2156,-28,17852,4.12,91.3
9997,2088,0,17728,4.12,91.3
10000,1928,-72,18024,4.12,91.3
10003,1984,-96,18012,4.12,91.3
10006,2180,20,17680,4.12,91.3
10009,2296,-120,17576,4.12,91.3
10012,2188,-12,17552,4.12,91.3
10015,1972,-104,17760,4.12,91.3
10018,1856,-60,18152,4.12,91.3
10021,2120,-232,17684,4.12,91.3
10024,2208,-76,17796,4.12,91.3
10027,2160,-56,17528,4.12,91.3
10031,1980,68,17784,4.12,91.3
10034,1904,-112,17868,4.12,91.3
10037,2088,-176,17876,4.12,91.3
10040,2176,-128,17664,4.12,91.3
10045,2184,-188,17644,4.12,91.3
10048,2044,-132,17980,4.12,91.3
10051,1996,-168,17760,4.12,91.3
10054,2096,-112,17736,4.12,91.3
10057,2016,-176,17924,4.12,91.3
10060,2112,-128,17828,4.12,91.3
10063,2040,-116,17780,4.12,91.3
10066,1924,-136,17848,4.12,91.3
10070,2020,-120,18012,4.12,91.3
10073,2004,-168,17924,4.12,91.3
10076,2120,-80,17884,4.12,91.3
10079,2060,-60,17708,4.12,91.3
10082,1932,-124,17680,4.12,91.3
10085,2052,-112,17796,4.12,91.3
10088,2020,-156,17916,4.12,91.3
10091,2016,-168,17752,4.12,91.3
10096,2080,-116,17876,4.12,91.3
10100,1932,-116,17796,4.12,91.3
10103,2008,-144,17928,4.12,91.3
10106,2016,-196,17708,4.12,91.3
10109,2116,-44,17836,4.12,91.3
10112,2116,-152,17940,4.12,91.3
10115,2108,-96,17776,4.12,91.3
10118,2056,-68,17664,4.12,91.3
10121,2108,-60,17844,4.12,91.3
10124,2088,-64,17928,4.12,91.3
10127,2144,-184,17784,4.12,91.3
10130,2064,-44,17924,4.12,91.3
10134,1996,-96,17792,4.12,91.3
10137,2088,-96,17908,4.12,91.3
10140,2072,-172,17772,4.12,91.3
10143,2040,-80,17864,4.12,91.3
10148,2068,-128,17816,4.12,91.3
10151,2084,-92,17784,4.12,91.3
10154,1992,-100,17752,4.12,91.3
10157,2152,-144,17828,4.12,91.3
10160,2104,-164,17672,4.12,91.3
10164,2132,-148,17776,4.12,91.3
10167,1972,-92,17756,4.12,91.3
10170,2144,-128,17876,4.12,91.3
10173,2016,-36,17744,4.12,91.3
10176,2080,-100,17804,4.12,91.3
10179,2036,-132,17928,4.12,91.3
10182,2044,-44,17932,4.12,91.3
10185,2000,-84,17680,4.12,91.3
10188,2060,-136,17840,4.12,91.3
10191,2012,-116,17708,4.12,91.3
10194,1964,-124,17568,4.12,91.3
10197,1964,-100,17816,4.12,91.3
10203,2036,-72,17844,4.12,91.3
10206,2056,-72,17788,4.12,91.3
10209,2072,-184,17788,4.12,91.3
10212,1964,-140,17876,4.12,91.3
10215,1976,-140,17832,4.12,91.3
10218,1956,-108,17688,4.12,91.3
10221,2052,-64,17900,4.12,91.3
10224,2012,-152,17792,4.12,91.3
10228,2004,-108,17760,4.12,91.3
10231,2092,-228,17868,4.12,91.3
10234,2000,-180,17880,4.12,91.3
10237,1948,-104,17596,4.12,91.3
10240,1996,-176,17748,4.12,91.3
10243,2008,-280,17936,4.12,91.3
10246,1984,-236,17772,4.12,91.3
10249,2072,-168,17820,4.12,91.3
10254,2108,-184,17696,4.12,91.3
10257,2084,-160,17832,4.12,91.3
10261,2028,-152,17744,4.12,91.3
10264,2148,-124,17672,4.12,91.3
10267,2000,-40,17792,4.12,91.3
10270,2084,-80,17724,4.12,91.3
10273,2128,-124,17820,4.12,91.3
10276,2096,-92,17684,4.12,91.3
10279,2076,-104,17768,4.12,91.3
10282,1988,-88,17644,4.12,91.3
10285,2144,-56,17696,4.12,91.3
10288,2084,-136,17732,4.12,91.3
10291,2036,-128,17712,4.12,91.3
10295,2112,-32,17780,4.12,91.3
10298,2076,-60,17780,4.12,91.3
10301,2120,-56,17820,4.12,91.3
10306,2116,-212,17808,4.12,91.3
10309,2076,-28,17920,4.12,91.3
10312,1976,-148,17732,4.12,91.3
10315,2024,-108,17888,4.12,91.3
10318,1960,-44,17804,4.12,91.3
10322,1976,-152,17828,4.12,91.3
10325,2072,-96,17896,4.12,91.3
10328,2004,-80,17816,4.12,91.3
10331,2024,-172,17816,4.12,91.3
10334,2092,-80,17664,4.12,91.3
10337,1944,-124,17840,4.12,91.3
10340,1944,-140,17888,4.12,91.3
10343,2060,-188,17932,4.12,91.3
10346,1964,-160,17660,4.12,91.3
10349,2040,-184,17820,4.12,91.3
10352,2000,-140,17800,4.12,91.3
10358,2104,-136,17964,4.12,91.3
10361,2088,-148,17968,4.12,91.3
10364,2056,-64,17764,4.12,91.3
10367,2000,-148,17800,4.12,91.3
10370,2160,-116,17864,4.12,91.3
10373,2076,-152,17808,4.12,91.3
10376,2056,-28,17796,4.12,91.3
10379,1936,-108,17760,4.12,91.3
10382,2052,-116,17732,4.12,91.3
10386,2072,-92,17660,4.12,91.3
10389,2140,-92,17720,4.12,91.3
10392,2100,-84,17788,4.12,91.3
10395,2192,-128,17748,4.12,91.3
10398,2148,-120,17780,4.12,91.3
10401,2048,-148,17780,4.12,91.3
10404,2044,-124,17812,4.12,91.3
10411,2040,-60,17788,4.12,91.3
10414,1996,-80,17752,4.12,91.3
10417,2000,-100,17744,4.12,91.3
10420,2048,-32,17820,4.12,91.3
10424,2008,-92,17696,4.12,91.3
10427,2108,-108,17724,4.12,91.3
10430,2064,-108,17752,4.12,91.3
10433,2032,-108,17676,4.12,91.3
10436,2012,-92,17824,4.12,91.3
10439,2056,-36,17900,4.12,91.3
10442,2008,-56,17952,4.12,91.3
10445,2088,-88,17692,4.12,91.3
10448,2100,-88,17924,4.12,91.3
10451,2092,-32,17876,4.12,91.3
10454,2072,-204,17740,4.12,91.3
10457,2020,-44,17904,4.12,91.3
10460,2084,-108,17844,4.12,91.3
10466,2056,-40,17816,4.12,91.3
10469,2044,-96,17908,4.12,91.3
10472,2028,-192,17868,4.12,91.3
10475,2116,-92,17708,4.12,91.3
10478,2016,-184,17688,4.12,91.3
10481,2116,-72,17776,4.12,91.3
10484,2088,-184,17716,4.12,91.3
10487,2044,-112,17944,4.12,91.3
10490,1996,20,17808,4.12,91.3
10493,2080,-188,17664,4.12,91.3
10496,2136,-184,17804,4.12,91.3
10499,2036,-120,17736,4.12,91.3
10503,2056,-64,17700,4.12,91.3
10506,2092,-136,17920,4.12,91.3
10509,1928,-60,17848,4.12,91.3
10512,2064,-176,17792,4.12,91.3
10517,2088,-48,17920,4.12,91.3
10520,2072,-136,17764,4.12,91.3
10523,2016,-120,17740,4.12,91.3
10526,2052,-148,17568,4.12,91.3
10530,2064,-24,17756,4.12,91.3
10533,2092,-24,17856,4.12,91.3
10536,2076,-180,17820,4.12,91.3
10539,2004,-100,17836,4.12,91.3
10542,2044,-200,17796,4.12,91.3
10545,1944,16,17776,4.12,91.3
10548,2088,-152,17836,4.12,91.3
10551,2032,-24,17680,4.12,91.3
10554,2088,-172,17832,4.12,91.3
10557,2008,-32,17924,4.12,91.3
10560,2016,-60,17764,4.12,91.3
10563,2088,-124,17788,4.12,91.3
10569,2088,-76,17764,4.12,91.3
10572,2072,-132,17748,4.12,91.3
10575,2032,-132,17868,4.12,91.3
10578,2020,-192,17856,4.12,91.3
10581,2016,-144,17944,4.12,91.3
10584,2020,-40,17852,4.12,91.3
10587,2084,-200,17844,4.12,91.3
10590,2124,-64,17928,4.12,91.3
10594,2016,-88,17876,4.12,91.3
10597,1952,-112,17732,4.12,91.3
10600,1976,-72,17784,4.12,91.3
10603,2016,-160,17804,4.12,91.3
10606,1924,-108,17848,4.12,91.3
10609,2024,-108,17760,4.12,91.3
10612,2068,-144,17736,4.12,91.3
10615,1964,-256,17816,4.12,91.3
10621,2060,-120,17768,4.12,91.3
10624,2084,-176,17736,4.12,91.3
10627,2096,-116,17744,4.12,91.3
10630,2084,-116,17884,4.12,91.3
10633,2092,-236,17812,4.12,91.3
10636,1968,-188,17908,4.12,91.3
10639,2012,-164,17780,4.12,91.3
10642,2028,-40,17844,4.12,91.3
10645,2084,-228,17852,4.12,91.3
10648,2012,-64,17924,4.12,91.3
10651,2144,-84,17752,4.12,91.3
10654,2020,-108,17796,4.12,91.3
10658,2008,-96,17684,4.12,91.3
10661,2092,-96,17688,4.12,91.3
10664,2120,-52,17904,4.12,91.3
10667,2136,-124,17720,4.12,91.3
10672,2076,-88,17812,4.12,91.3
10675,2032,-160,17872,4.12,91.3
10678,2172,-140,17816,4.12,91.3
10681,2012,-108,17640,4.12,91.3
10685,2084,-144,17832,4.12,91.3
10688,2044,-156,17756,4.12,91.3
10691,2044,-128,18012,4.12,91.3
10694,2172,-48,17892,4.12,91.3
10697,2104,-156,17864,4.12,91.3
10700,2064,-168,17756,4.12,91.3
10703,2008,36,17852,4.12,91.3
10706,1988,-40,17816,4.12,91.3
10709,2100,-32,17620,4.12,91.3
10712,2108,-132,17728,4.12,91.3
10716,2100,-192,17764,4.12,91.3
10719,2080,-116,17840,4.12,91.3
10722,2128,-176,17760,4.12,91.3
10727,2064,-208,17796,4.12,91.3
10730,2000,-96,17888,4.12,91.3
10733,2136,-80,17816,4.12,91.3
10736,2020,-160,17780,4.12,91.3
10740,2156,-124,17924,4.12,91.3
10743,2060,-136,17840,4.12,91.3
10746,2048,-44,17648,4.12,91.3
10749,2016,-112,17736,4.12,91.3
10752,1992,-12,17864,4.12,91.3
10755,2092,-140,17808,4.12,91.3
10758,2048,-44,17952,4.12,91.3
10761,1932,-136,17832,4.12,91.3
10764,2132,-72,17792,4.12,91.3
10767,1956,-168,17808,4.12,91.3
10770,1984,-172,17880,4.12,91.3
10773,2088,-52,17716,4.12,91.3
10779,2060,-176,17816,4.12,91.3
10782,2064,-80,17828,4.12,91.3
10785,2092,-144,17864,4.12,91.3
10788,2016,-112,17732,4.12,91.3
10791,2008,-120,17816,4.12,91.3
10794,2052,-76,17904,4.12,91.3
10797,2000,-176,17688,4.12,91.3
10800,2000,-84,17676,4.12,91.3
10804,2080,-136,17836,4.12,91.3
10807,1976,-128,17848,4.12,91.3
10810,2024,-64,17704,4.12,91.3
10813,2048,-152,17900,4.12,91.3
10816,1992,-64,17800,4.12,91.3
10819,1980,-124,17808,4.12,91.3
10822,2028,-96,17868,4.12,91.3
10825,1968,-52,17884,4.12,91.3
10830,1964,-64,17776,4.12,91.3
10833,2004,-68,17816,4.12,91.3
10836,2112,-100,17844,4.12,91.3
10839,1992,-276,17804,4.12,91.3
10843,2052,-204,17576,4.12,91.3
10846,2008,-36,17860,4.12,91.3
10849,2056,-148,17764,4.12,91.3
10852,1996,-160,17844,4.12,91.3
10855,2040,-168,17792,4.12,91.3
10858,2120,-96,17904,4.12,91.3
10861,2024,-120,17816,4.12,91.3
10864,2036,-160,17764,4.12,91.3
10867,2000,-96,17736,4.12,91.3
10871,2048,-128,17588,4.12,91.3
10874,2128,-128,17908,4.12,91.3
10877,2116,-176,17860,4.12,91.3
10882,1964,-128,17672,4.12,91.3
10885,2164,-124,17888,4.12,91.3
10888,2040,20,17928,4.12,91.3
10891,2104,-180,17880,4.12,91.3
10894,2028,-120,17816,4.12,91.3
10897,2104,-172,17832,4.12,91.3
10900,2192,-196,17832,4.12,91.3
10903,2128,-84,17804,4.12,91.3
10906,1940,-132,17892,4.12,91.3
10909,2048,-184,17716,4.12,91.3
10912,2056,-44,17780,4.12,91.3
10915,2056,-88,17884,4.12,91.3
10919,2060,-56,17720,4.12,91.3
10922,2028,-68,17796,4.12,91.3
10925,2012,-148,17868,4.12,91.3
10928,2004,-96,17876,4.12,91.3
10933,2060,-148,17824,4.12,91.3
10936,1980,-100,17808,4.12,91.3
10939,2024,-220,17976,4.12,91.3
10942,2052,-136,17752,4.12,91.3
10946,2056,-56,17832,4.12,91.3
10949,2056,-84,17592,4.12,91.3
10952,2080,-168,17776,4.12,91.3
10955,2144,-20,17880,4.12,91.3
10958,1928,-228,17720,4.12,91.3
10961,2020,-72,17840,4.12,91.3
10964,2024,-76,17720,4.12,91.3
10967,1968,-184,17712,4.12,91.3
10970,2028,-192,17764,4.12,91.3
10973,1956,-72,17908,4.12,91.3
10976,2080,4,17876,4.12,91.3
10979,1912,-148,17760,4.12,91.3
10982,2068,-116,17852,4.12,91.3
10988,2112,-160,17820,4.12,91.3
10991,2164,-176,17844,4.12,91.3
10994,2060,-108,17872,4.12,91.3
10997,2080,-160,17808,4.12,91.3
11000,2004,-12,17816,4.12,91.3
11003,2068,-140,17888,4.12,91.3
11006,2028,-36,17756,4.12,91.3
11009,1952,-128,17808,4.12,91.3
11013,2016,-156,17580,4.12,91.3
11016,2024,-104,17884,4.12,91.3
11019,1936,-124,17788,4.12,91.3
11022,1996,-120,17856,4.12,91.3
11025,2168,-108,17920,4.12,91.3
11028,1996,-112,17876,4.12,91.3
11031,2056,-120,17816,4.12,91.3
11034,2056,-132,17672,4.12,91.3
11039,2164,-196,17624,4.12,91.3
11043,1992,-152,17772,4.12,91.3
11046,1988,-208,17704,4.12,91.3
11049,1944,-36,17812,4.12,91.3
11052,2056,-160,17920,4.12,91.3
11055,1952,-212,17756,4.12,91.3
11058,1996,-84,17884,4.12,91.3
11061,2036,-40,17720,4.12,91.3
11064,2016,-124,17656,4.12,91.3
11067,2024,-116,17748,4.12,91.3
11070,1988,-120,17776,4.12,91.3
11073,2068,-216,17684,4.12,91.3
11077,2104,-132,17880,4.12,91.3
11080,2052,-292,17840,4.12,91.3
11083,2068,-84,17628,4.12,91.3
11086,1992,-172,17928,4.12,91.3
11091,1988,-152,17848,4.12,91.3
11094,1988,-120,17820,4.12,91.3
11097,2092,-32,17768,4.12,91.3
11100,2116,-100,17740,4.12,91.3
11103,2100,-172,17740,4.12,91.3
11107,2032,-164,17784,4.12,91.3
11110,2044,-184,17876,4.12,91.3
11113,2064,-132,17732,4.12,91.3
11116,2004,-136,17796,4.12,91.3
11119,2052,-52,17888,4.12,91.3
11122,2020,-144,17816,4.12,91.3
11125,2080,-56,17896,4.12,91.3
11128,2064,-104,17756,4.12,91.3
11131,2036,-208,17940,4.12,91.3
11134,2128,-112,17828,4.12,91.3
11137,2096,-36,17484,4.12,91.3
11143,1956,-136,17868,4.12,91.3
11146,1948,-28,18024,4.12,91.3
11149,2116,-228,17804,4.12,91.3
11152,2064,-136,17596,4.12,91.3
11155,2064,-64,17580,4.12,91.3
11158,2028,-68,17676,4.12,91.3
11161,2020,-120,17932,4.12,91.3
11164,2052,-120,17728,4.12,91.3
11167,2036,-136,17888,4.12,91.3
11171,2056,-84,17704,4.12,91.3
11174,2088,-108,17700,4.12,91.3
11177,1964,-4,17528,4.12,91.3
11180,1968,-16,17792,4.12,91.3
11183,2052,-148,17880,4.12,91.3
11186,2080,-84,17704,4.12,91.3
11189,2160,-168,17680,4.12,91.3
11194,1976,-80,17972,4.12,91.3
11197,1968,-232,17868,4.12,91.3
11200,2040,-184,17804,4.12,91.3
11204,2136,-168,17800,4.12,91.3
11207,2060,-36,17704,4.12,91.3
11210,2020,-152,17836,4.12,91.3
11213,1956,-180,18036,4.12,91.3
11216,2052,-184,17772,4.12,91.3
11219,2044,-168,17772,4.12,91.3
11222,2000,-60,17840,4.12,91.3
11225,2148,-48,17872,4.12,91.3
11228,2032,-140,17844,4.12,91.3
11232,2024,-196,17828,4.12,91.3
11235,2128,-172,17960,4.12,91.3
11238,2124,-148,17836,4.12,91.3
11241,2084,-36,17816,4.12,91.3
11246,2012,-236,17752,4.12,91.3
11249,2072,-68,17772,4.12,91.3
11252,2104,-208,17744,4.12,91.3
11255,2072,-104,17736,4.12,91.3
11258,2060,-132,17796,4.12,91.3
11261,1992,-192,17896,4.12,91.3
11264,2056,-184,17884,4.12,91.3
11267,2020,-204,17720,4.12,91.3
11271,2108,-72,17868,4.12,91.3
11274,2004,-192,17904,4.12,91.3
11277,2152,-176,17724,4.12,91.3
11280,2116,-76,17704,4.12,91.3
11283,2016,-80,17916,4.12,91.3
11286,2036,-188,17716,4.12,91.3
11289,2144,-132,17820,4.12,91.3
11292,1948,-184,17692,4.12,91.3
11295,1972,-184,17972,4.12,91.3
11300,2064,-156,17816,4.12,91.3
11303,2076,-68,17792,4.12,91.3
11306,2128,-64,17624,4.12,91.3
11309,1884,-156,17824,4.12,91.3
11313,2084,-116,17740,4.12,91.3
11316,1948,12,17888,4.12,91.3
11319,2064,-88,17732,4.12,91.3
11322,2176,-48,17740,4.12,91.3
11325,2016,-64,17764,4.12,91.3
11328,2044,-132,17768,4.12,91.3
11331,1952,-136,17700,4.12,91.3
11334,1908,-92,17688,4.12,91.3
11337,2116,-152,17756,4.12,91.3
11340,2028,-76,17876,4.12,91.3
11343,2040,-60,17804,4.12,91.3
11346,2000,-140,17916,4.12,91.3
11352,1956,-40,17820,4.12,91.3
11355,2080,-44,17724,4.12,91.3
11358,2080,20,17668,4.12,91.3
11361,1964,-108,17792,4.12,91.3
11364,2020,-92,17932,4.12,91.3
11367,2024,-108,17792,4.12,91.3
11370,2040,-164,17760,4.12,91.3
11373,2076,-132,17736,4.12,91.3
11377,2072,-60,17684,4.12,91.3
11380,2028,-148,17812,4.12,91.3
11383,2048,-72,17728,4.12,91.3
11386,2076,-116,17784,4.12,91.3
11389,2144,-172,17756,4.12,91.3
11392,2056,-164,17900,4.12,91.3
11395,2020,-88,17932,4.12,91.3
11398,2048,-100,17716,4.12,91.3
11403,2016,-104,17696,4.12,91.3
11407,2072,-20,17732,4.12,91.3
11410,2100,-152,17832,4.12,91.3
11413,1976,-176,17644,4.12,91.3
11416,2044,-140,17864,4.12,91.3
11419,1992,-208,17872,4.12,91.3
11422,2040,-36,17812,4.12,91.3
11425,2080,-136,17888,4.12,91.3
11428,2052,-132,17812,4.12,91.3
11431,1964,-64,17816,4.12,91.3
11434,2024,-108,17768,4.12,91.3
11437,2104,-64,17776,4.12,91.3
11441,2032,-204,17852,4.12,91.3
11444,2092,-148,17612,4.12,91.3
11447,2080,-168,17900,4.12,91.3
11450,2144,-64,17864,4.12,91.3
11455,2012,-124,17760,4.12,91.3
11458,2080,-64,17708,4.12,91.3
11461,2100,-200,17776,4.12,91.3
11464,2128,-92,17884,4.12,91.3
11468,2064,-160,17904,4.12,91.3
11471,2020,-104,17732,4.12,91.3
11474,2020,-152,17732,4.12,91.3
11477,2144,-132,17796,4.12,91.3
11480,2088,-108,17856,4.12,91.3
11483,2016,-60,17956,4.12,91.3
11486,2032,-172,17572,4.12,91.3
11489,1976,-176,17780,4.12,91.3
11492,1976,-184,17692,4.12,91.3
11495,2056,-156,17736,4.12,91.3
11498,2032,-136,17720,4.12,91.3
11501,2148,-212,17704,4.12,91.3
11507,1980,-104,17952,4.12,91.3
11510,2112,-112,17664,4.12,91.3
11513,2032,-148,17880,4.12,91.3
11516,2020,-132,17692,4.12,91.3
11519,2000,-76,17816,4.12,91.3
11522,2004,-160,17684,4.12,91.3
11525,1984,-16,17976,4.12,91.3
11528,1948,-112,17704,4.12,91.3
11532,2000,-152,17784,4.12,91.3
11535,2092,-140,17820,4.12,91.3
11538,2044,-56,17728,4.12,91.3
11541,2040,-120,17916,4.12,91.3
11544,2148,-56,17772,4.12,91.3
11547,2072,-104,17728,4.12,91.3
11550,2080,-60,17836,4.12,91.3
11553,1960,-136,17852,4.12,91.3
11559,1964,-60,17688,4.12,91.3
11562,1996,-140,17856,4.12,91.3
11565,2016,-128,17792,4.12,91.3
11568,2008,-48,17844,4.12,91.3
11571,2116,-176,17868,4.12,91.3
11574,2016,-128,17904,4.12,91.3
11577,2044,-16,17880,4.12,91.3
11580,2076,-112,17816,4.12,91.3
11583,2044,-56,17780,4.12,91.3
11586,2016,-204,17724,4.12,91.3
11590,1964,-152,17844,4.12,91.3
11593,2064,-72,17720,4.12,91.3
11596,2088,-156,17588,4.12,91.3
11599,2036,-80,17828,4.12,91.3
11602,2016,-176,17812,4.12,91.3
11605,2116,-168,17984,4.12,91.3
11608,1940,-48,17828,4.12,91.3
11613,2080,-124,17780,4.12,91.3
11616,2088,-124,17708,4.12,91.3
11619,1932,-92,17864,4.12,91.3
11622,2076,-156,17788,4.12,91.3
11626,2052,-40,17684,4.12,91.3
11629,2076,-108,17788,4.12,91.3
11632,2120,-168,17932,4.12,91.3
11635,1976,-100,17868,4.12,91.3
11638,2044,-168,17576,4.12,91.3
11641,2044,-140,17784,4.12,91.3
11644,2084,-204,17824,4.12,91.3
11647,2000,-156,17564,4.12,91.3
11650,2000,-64,17900,4.12,91.3
11654,2000,-108,17560,4.12,91.3
11657,1940,-36,17800,4.12,91.3
11660,1956,-108,17776,4.12,91.3
11665,2020,-36,17764,4.12,91.3
11668,2100,-160,17620,4.12,91.3
11671,2112,4,17760,4.12,91.3
11674,2032,-176,17900,4.12,91.3
11677,2016,-176,17776,4.12,91.3
11680,1988,-40,17832,4.12,91.3
11683,2032,-160,17740,4.12,91.3
11686,1912,-128,17728,4.12,91.3
11690,1896,-160,17740,4.12,91.3
11693,1972,-120,17788,4.12,91.3
11696,2036,-100,17836,4.12,91.3
11699,2064,-92,17852,4.12,91.3
11702,2008,-84,17824,4.12,91.3
11705,2000,-36,17820,4.12,91.3
11708,1916,-116,17816,4.12,91.3
11711,2020,-64,17796,4.12,91.3
11716,2016,-104,17720,4.12,91.3
11719,2076,-88,17808,4.12,91.3
11722,2004,-128,17680,4.12,91.3
11725,2120,-132,17772,4.12,91.3
11729,2028,-108,17876,4.12,91.3
11732,2052,-108,17712,4.12,91.3
11735,2120,-132,17796,4.12,91.3
11738,1984,-20,17872,4.12,91.3
11741,2056,-88,17768,4.12,91.3
11744,2044,-120,17776,4.12,91.3
11747,2124,-280,17756,4.12,91.3
11750,2068,-220,17824,4.12,91.3
11753,2056,-160,17740,4.12,91.3
11756,2068,-112,17888,4.12,91.3
11759,2072,-204,17896,4.12,91.3
11762,2024,-176,17848,4.12,91.3
11768,2044,-184,17740,4.12,91.3
11771,1980,-132,17872,4.12,91.3
11774,2012,-184,17796,4.12,91.3
11777,2004,-192,17736,4.12,91.3
11780,2036,-132,17684,4.12,91.3
11783,1968,-152,17752,4.12,91.3
11786,2124,-232,17856,4.12,91.3
11789,2132,-100,17736,4.12,91.3
11793,2116,-124,17776,4.12,91.3
11796,2088,-208,17920,4.12,91.3
11799,2044,-116,17780,4.12,91.3
11802,2004,-152,17748,4.12,91.3
11805,2004,-128,17920,4.12,91.3
11808,2060,-140,17716,4.12,91.3
11811,2124,-212,17692,4.12,91.3
11814,2092,-188,17668,4.12,91.3
11819,2128,-228,17796,4.12,91.3
11823,2024,-140,17668,4.12,91.3
11826,2024,-140,17796,4.12,91.3
11829,2020,-108,17792,4.12,91.3
11832,2004,-128,17732,4.12,91.3
11835,2088,-96,17848,4.12,91.3
11838,2044,-132,17832,4.12,91.3
11841,1984,-132,17720,4.12,91.3
11844,1960,-128,17736,4.12,91.3
11847,2080,-192,17904,4.12,91.3
11850,2020,-84,17920,4.12,91.3
11853,2084,-128,17860,4.12,91.3
11857,2120,-164,17708,4.12,91.3
11860,2032,-76,17916,4.12,91.3
11863,2036,-116,17888,4.12,91.3
11866,2052,-4,17760,4.12,91.3
11871,2128,-136,17792,4.12,91.3
11874,1972,-64,17760,4.12,91.3
11877,2044,-92,17868,4.12,91.3
11880,2064,-132,17876,4.12,91.3
11883,2120,-84,17908,4.12,91.3
11887,1992,-36,17892,4.12,91.3
11890,2064,28,17628,4.12,91.3
11893,2124,-108,17836,4.12,91.3
11896,2032,-72,17768,4.12,91.3
11899,1976,-152,17916,4.12,91.3
11902,2056,-48,17604,4.12,91.3
11905,1972,-116,17936,4.12,91.3
11908,2020,-116,17744,4.12,91.3
11911,1996,-16,17816,4.12,91.3
11914,2024,-172,17872,4.12,91.3
11917,2052,-168,17664,4.12,91.3
11920,1968,-116,18072,4.12,91.3
11926,2080,-116,17668,4.12,91.3
11929,2060,-104,17876,4.12,91.3
11932,2056,-56,17672,4.12,91.3
11935,1984,-124,17812,4.12,91.3
11938,1984,-180,17860,4.12,91.3
11941,2036,-228,17892,4.12,91.3
11944,2008,-124,17892,4.12,91.3
11947,2032,-116,17788,4.12,91.3
11950,2100,-200,17728,4.12,91.3
11954,2028,-220,17840,4.12,91.3
11957,2076,-48,17860,4.12,91.3
11960,2024,-136,17796,4.12,91.3
11963,2024,-100,17856,4.12,91.3
11966,2024,-164,17784,4.12,91.3
11969,1956,-80,17820,4.12,91.3
11972,2104,-188,17800,4.12,91.3
11977,1948,-148,17684,4.12,91.3
11980,2112,-104,17676,4.12,91.3
11983,2060,-88,17888,4.12,91.3
11986,2088,-112,17700,4.12,91.3
11990,2012,-152,17908,4.12,91.3
11993,2040,-12,17976,4.12,91.3
11996,2032,-132,17824,4.12,91.3
11999,2004,-160,17816,4.12,91.3
12002,2056,-64,17760,4.12,91.3
