timestamp_ms,accel_x,accel_y,accel_z,voltage,soc
3,2028,-176,17988,4.12,91.3
6,2012,-64,17876,4.12,91.3
9,2076,-180,17904,4.12,91.3
16,1912,-68,17720,4.12,91.3
19,2092,-48,17932,4.12,91.3
22,2108,-184,17972,4.12,91.3
25,2152,-80,17820,4.12,91.3
28,2040,24,17780,4.12,91.3
31,1960,8,17656,4.12,91.3
34,2108,16,17672,4.12,91.3
37,2072,-80,17668,4.12,91.3
40,2088,-168,18032,4.12,91.3
43,2112,-112,18172,4.12,91.3
47,2108,-16,17872,4.12,91.3
50,2160,-108,17552,4.12,91.3
53,2012,24,17748,4.12,91.3
56,2020,-112,17932,4.12,91.3
59,2164,-128,17860,4.12,91.3
62,2056,-120,17732,4.12,91.3
65,2084,-72,17700,4.12,91.3
68,2100,-96,18044,4.12,91.3
71,2124,-156,17864,4.12,91.3
76,2052,-60,17668,4.12,91.3
79,2056,-60,17668,4.12,91.3
82,2056,-148,17820,4.12,91.3
85,2148,-164,17460,4.12,91.3
89,1872,-160,18328,4.12,91.3
92,2036,-308,18132,4.12,91.3
95,1968,-276,18484,4.12,91.3
98,2104,-112,17412,4.12,91.3
101,2172,-112,17164,4.12,91.3
104,1900,-208,17332,4.12,91.3
107,1892,-100,18096,4.12,91.3
110,2116,-168,18284,4.12,91.3
113,2232,-372,18252,4.12,91.3
116,2252,-228,17768,4.12,91.3
119,1992,-32,17724,4.12,91.3
122,1924,-164,17572,4.12,91.3
125,1960,-112,17384,4.12,91.3
131,2076,-108,17832,4.12,91.3
134,1964,-144,17876,4.12,91.3
137,1988,-192,18008,4.12,91.3
140,2236,-136,17644,4.12,91.3
143,1928,-96,17748,4.12,91.3
146,2020,-36,17556,4.12,91.3
149,1856,-180,17872,4.12,91.3
152,1936,-132,17804,4.12,91.3
155,2176,-12,17460,4.12,91.3
159,1996,-132,17908,4.12,91.3
162,2032,-132,17868,4.12,91.3
165,2004,-72,17880,4.12,91.3
168,2124,-68,17936,4.12,91.3
171,2092,-48,17656,4.12,91.3
174,2000,-92,17632,4.12,91.3
177,2136,-136,17672,4.12,91.3
180,2204,0,17892,4.12,91.3
186,1952,-52,17844,4.12,91.3
189,2124,-432,17748,4.12,91.3
192,1776,24,18672,4.12,91.3
195,2232,-376,17740,4.12,91.3
198,2204,-124,18080,4.12,91.3
201,2120,-160,17128,4.12,91.3
204,2032,-76,17320,4.12,91.3
207,1976,-288,17588,4.12,91.3
210,2060,-252,18612,4.12,91.3
213,2180,-180,18320,4.12,91.3
216,1976,-360,18184,4.12,91.3
219,2336,-160,17120,4.12,91.3
222,2028,-60,17616,4.12,91.3
226,2124,-148,17664,4.12,91.3
229,2212,-96,17688,4.12,91.3
232,2096,-300,18060,4.12,91.3
235,2164,-140,17716,4.12,91.3
238,2088,-28,18152,4.12,91.3
243,2248,-52,17656,4.12,91.3
246,1980,-168,17620,4.12,91.3
249,1912,-44,17472,4.12,91.3
252,1880,-148,17984,4.12,91.3
256,2012,44,17820,4.12,91.3
259,2196,-60,17500,4.12,91.3
262,2088,-32,17700,4.12,91.3
265,1904,-64,18028,4.12,91.3
268,1992,-56,17852,4.12,91.3
271,1996,-24,17764,4.12,91.3
274,1976,28,17568,4.12,91.3
277,1764,-56,17660,4.12,91.3
280,1836,-84,17768,4.12,91.3
283,2024,-20,18124,4.12,91.3
286,1908,-100,18120,4.12,91.3
289,1936,-68,17908,4.12,91.3
292,1876,-88,17756,4.12,91.3
298,1908,-28,17300,4.12,91.3
301,2004,-28,17828,4.12,91.3
304,1956,-80,17968,4.12,91.3
307,2020,-112,18172,4.12,91.3
310,2000,-248,17948,4.12,91.3
313,2084,-208,17688,4.12,91.3
316,2144,-132,17700,4.12,91.3
319,2096,-68,17824,4.12,91.3
322,2104,-120,17708,4.12,91.3
326,2104,-308,17580,4.12,91.3
329,2100,-148,17708,4.12,91.3
332,2180,-264,17656,4.12,91.3
335,2128,-20,18108,4.12,91.3
338,2136,-404,18156,4.12,91.3
341,2172,-236,18300,4.12,91.3
344,2272,-140,17704,4.12,91.3
347,2280,-80,17388,4.12,91.3
350,2268,-248,17124,4.12,91.3
355,2020,-80,17768,4.12,91.3
359,2128,-156,18436,4.12,91.3
362,2244,-228,18276,4.12,91.3
365,2136,-96,18148,4.12,91.3
368,2308,52,17596,4.12,91.3
371,2076,-36,17680,4.12,91.3
374,2100,-72,17516,4.12,91.3
377,2032,24,17548,4.12,91.3
380,1916,-108,17980,4.12,91.3
383,2056,-132,17940,4.12,91.3
386,2076,-44,17936,4.12,91.3
389,2132,-112,17432,4.12,91.3
392,2136,-64,17752,4.12,91.3
396,1912,-56,17992,4.12,91.3
399,1936,-176,17820,4.12,91.3
402,2044,-20,17692,4.12,91.3
405,2008,-76,17384,4.12,91.3
410,1880,-184,18468,4.12,91.3
413,2176,0,17632,4.12,91.3
416,2088,4,17328,4.12,91.3
419,1992,-148,17960,4.12,91.3
422,1900,-28,17856,4.12,91.3
425,1876,-68,17720,4.12,91.3
429,2080,-200,17496,4.12,91.3
432,1928,-224,18304,4.12,91.3
435,2128,-72,18504,4.12,91.3
438,2268,-132,17620,4.12,91.3
441,2220,-96,17036,4.12,91.3
444,1892,-144,17196,4.12,91.3
447,1668,-148,17956,4.12,91.3
450,2164,-92,18328,4.12,91.3
453,2452,-312,17836,4.12,91.3
456,2356,-140,17536,4.12,91.3
459,1976,-236,17524,4.12,91.3
465,1716,-124,18216,4.12,91.3
468,2108,-192,17844,4.12,91.3
471,2512,-140,17212,4.12,91.3
474,2308,-212,17620,4.12,91.3
477,2052,-176,17932,4.12,91.3
480,1788,-64,18084,4.12,91.3
483,2008,-168,18000,4.12,91.3
486,2248,-184,17548,4.12,91.3
489,2240,-92,17564,4.12,91.3
492,2152,-60,17764,4.12,91.3
495,1900,-76,17812,4.12,91.3
498,1996,-88,17880,4.12,91.3
501,2204,32,17700,4.12,91.3
504,2152,-24,17692,4.12,91.3
508,2068,-96,17864,4.12,91.3
511,2064,-100,18080,4.12,91.3
514,2000,-52,17700,4.12,91.3
517,2176,-36,17716,4.12,91.3
522,2100,-40,17892,4.12,91.3
525,2136,-56,17760,4.12,91.3
528,2052,-24,17756,4.12,91.3
531,2088,-164,17776,4.12,91.3
534,2056,-132,17584,4.12,91.3
537,2020,-88,17644,4.12,91.3
540,2028,-112,17880,4.12,91.3
543,2056,-52,17904,4.12,91.3
546,2040,-124,17740,4.12,91.3
550,2116,-140,17888,4.12,91.3
553,2024,-144,17904,4.12,91.3
556,2032,-280,17944,4.12,91.3
559,1988,-184,17860,4.12,91.3
562,2196,-68,17812,4.12,91.3
565,2136,-132,17616,4.12,91.3
568,2088,-236,17868,4.12,91.3
571,1892,-204,18188,4.12,91.3
576,1992,-132,17584,4.12,91.3
580,2000,-236,17868,4.12,91.3
583,2212,-124,17956,4.12,91.3
586,2112,-188,17748,4.12,91.3
589,2144,-52,17588,4.12,91.3
592,2080,-240,17736,4.12,91.3
595,1948,-240,17948,4.12,91.3
598,1996,-68,17996,4.12,91.3
601,2196,-80,17652,4.12,91.3
604,2100,-116,17456,4.12,91.3
607,1996,-72,17708,4.12,91.3
610,2008,-156,18020,4.12,91.3
613,2020,-76,18164,4.12,91.3
616,2144,-52,17728,4.12,91.3
620,2208,-60,17640,4.12,91.3
623,2020,16,17648,4.12,91.3
626,1868,-160,18256,4.12,91.3
629,1948,36,17896,4.12,91.3
634,2188,-120,17432,4.12,91.3
637,2056,-64,17712,4.12,91.3
640,1964,-128,18008,4.12,91.3
643,1884,-52,18148,4.12,91.3
646,1976,-44,17960,4.12,91.3
650,2152,-20,17632,4.12,91.3
653,2104,-44,17420,4.12,91.3
656,1912,-36,17708,4.12,91.3
659,1952,-132,17968,4.12,91.3
662,2028,-148,17904,4.12,91.3
665,2248,-76,17832,4.12,91.3
668,2224,-108,17692,4.12,91.3
671,2092,-160,17832,4.12,91.3
674,1936,-48,17876,4.12,91.3
677,1908,-44,17780,4.12,91.3
680,2076,-96,17784,4.12,91.3
683,2196,-108,17632,4.12,91.3
689,2064,-112,17876,4.12,91.3
692,1936,-96,17888,4.12,91.3
695,1884,-112,18084,4.12,91.3
698,1992,-36,18084,4.12,91.3
701,2168,-52,17860,4.12,91.3
704,2180,-144,17624,4.12,91.3
707,2036,-124,17816,4.12,91.3
710,2048,-136,17908,4.12,91.3
713,1904,-132,17904,4.12,91.3
716,2108,-172,17836,4.12,91.3
720,2092,-96,17736,4.12,91.3
723,2036,-76,17820,4.12,91.3
726,2096,-164,17924,4.12,91.3
729,2008,-152,17824,4.12,91.3
732,2012,-76,17616,4.12,91.3
735,2036,-200,17692,4.12,91.3
738,2128,-228,17712,4.12,91.3
743,1976,-172,17840,4.12,91.3
746,2100,-120,17836,4.12,91.3
749,2012,-108,17712,4.12,91.3
752,2004,-136,17848,4.12,91.3
755,1972,-160,17956,4.12,91.3
759,2180,-200,17716,4.12,91.3
762,2172,-244,17708,4.12,91.3
765,2220,60,17804,4.12,91.3
768,2108,-456,17792,4.12,91.3
771,1716,-136,18656,4.12,91.3
774,1952,-140,17888,4.12,91.3
777,2160,-128,18172,4.12,91.3
780,2612,-96,16548,4.12,91.3
783,2320,-108,16920,4.12,91.3
787,1784,-156,17888,4.12,91.3
790,1740,-48,18616,4.12,91.3
793,1860,-332,18452,4.12,91.3
798,2396,-52,17560,4.12,91.3
801,2028,-20,17728,4.12,91.3
804,1968,-160,17608,4.12,91.3
807,1852,-120,17712,4.12,91.3
810,2048,-56,17732,4.12,91.3
813,2232,-132,17900,4.12,91.3
817,2172,-76,18000,4.12,91.3
820,2072,-28,18020,4.12,91.3
823,2052,4,17656,4.12,91.3
826,1884,-144,17808,4.12,91.3
829,1936,-172,17752,4.12,91.3
832,2024,-132,17780,4.12,91.3
835,2164,-228,17504,4.12,91.3
838,2156,-96,17656,4.12,91.3
841,1760,-124,18212,4.12,91.3
844,1848,-112,18112,4.12,91.3
847,2144,-44,17748,4.12,91.3
850,2228,-28,17360,4.12,91.3
856,2016,-124,17656,4.12,91.3
859,1848,24,17816,4.12,91.3
862,1944,-220,17972,4.12,91.3
865,2236,-72,18020,4.12,91.3
868,1980,-208,17808,4.12,91.3
871,1812,-176,18320,4.12,91.3
874,1776,-168,17776,4.12,91.3
877,1912,4,18016,4.12,91.3
880,2312,-76,17004,4.12,91.3
883,2248,-52,17296,4.12,91.3
887,1976,-272,17868,4.12,91.3
890,1824,-144,18376,4.12,91.3
893,1776,-280,18336,4.12,91.3
896,2240,-256,17560,4.12,91.3
899,2144,-84,17488,4.12,91.3
902,2092,-96,17744,4.12,91.3
905,2136,-224,17716,4.12,91.3
910,1972,-180,17908,4.12,91.3
913,2180,-184,18032,4.12,91.3
916,2200,-148,17980,4.12,91.3
919,2116,-192,17740,4.12,91.3
922,2144,-148,17608,4.12,91.3
926,2048,-132,17840,4.12,91.3
929,2128,-168,18088,4.12,91.3
932,2236,-92,17944,4.12,91.3
935,2184,-104,17680,4.12,91.3
938,2136,-76,17512,4.12,91.3
941,1888,-164,17808,4.12,91.3
944,1880,-44,18364,4.12,91.3
947,2280,-16,17704,4.12,91.3
950,2360,-60,17344,4.12,91.3
953,2048,-80,17328,4.12,91.3
956,1892,-180,18272,4.12,91.3
959,1636,-28,18424,4.12,91.3
962,2060,28,17920,4.12,91.3
967,2252,-32,17328,4.12,91.3
971,1924,-100,17760,4.12,91.3
974,1792,-96,18124,4.12,91.3
977,1648,-96,18104,4.12,91.3
980,2060,-80,17784,4.12,91.3
983,2224,-112,18072,4.12,91.3
986,2172,-68,17528,4.12,91.3
989,1932,-24,17588,4.12,91.3
992,1800,-148,18064,4.12,91.3
995,1940,-124,17984,4.12,91.3
998,2172,-108,17360,4.12,91.3
1001,1980,-140,17520,4.12,91.3
1004,1996,-212,18088,4.12,91.3
1008,2168,52,17676,4.12,91.3
1011,1900,-172,17220,4.12,91.3
1014,1132,-412,19660,4.12,91.3
1017,1584,-240,18660,4.12,91.3
1022,2964,-120,15588,4.12,91.3
1025,2016,-44,17880,4.12,91.3
1028,1156,-96,19356,4.12,91.3
1031,1612,-232,18752,4.12,91.3
1035,2472,-264,17400,4.12,91.3
1038,2656,-140,16656,4.12,91.3
1041,2276,180,17772,4.12,91.3
1044,2016,-28,18024,4.12,91.3
1047,2064,-356,18048,4.12,91.3
1050,2356,-200,17344,4.12,91.3
1053,2188,-28,17596,4.12,91.3
1056,2128,-184,18164,4.12,91.3
1059,2236,-152,17868,4.12,91.3
1063,2108,-132,17400,4.12,91.3
1066,2136,-52,17328,4.12,91.3
1069,1984,-108,18112,4.12,91.3
1072,2040,-236,18216,4.12,91.3
1077,2412,-112,17208,4.12,91.3
1080,1920,-252,17852,4.12,91.3
1083,1644,-280,18760,4.12,91.3
1086,1980,-116,18356,4.12,91.3
1089,2460,-136,16964,4.12,91.3
1092,2260,-200,16856,4.12,91.3
1095,1748,-160,17772,4.12,91.3
1098,1532,-48,18896,4.12,91.3
1102,1900,-208,18576,4.12,91.3
1105,2376,-232,17784,4.12,91.3
1108,2356,-20,17104,4.12,91.3
1111,1924,-140,17184,4.12,91.3
1114,1584,-108,18028,4.12,91.3
1117,1780,-124,18212,4.12,91.3
1120,2288,-76,17880,4.12,91.3
1123,2292,-208,17604,4.12,91.3
1129,1892,-100,17808,4.12,91.3
1132,1480,-160,18408,4.12,91.3
1135,1832,-96,18356,4.12,91.3
1138,2388,160,17500,4.12,91.3
1141,2348,-92,17104,4.12,91.3
1144,1912,-100,17672,4.12,91.3
1147,1616,-96,18500,4.12,91.3
1150,1768,-48,18460,4.12,91.3
1153,2360,-116,17696,4.12,91.3
1156,2224,-24,17460,4.12,91.3
1159,2100,64,17696,4.12,91.3
1162,1936,-68,17924,4.12,91.3
1165,1720,-72,17916,4.12,91.3
1169,1924,-16,17288,4.12,91.3
1172,2268,208,17632,4.12,91.3
1175,2224,-316,17504,4.12,91.3
1178,1864,156,18960,4.12,91.3
1183,1568,-168,18928,4.12,91.3
1186,2400,68,16768,4.12,91.3
1189,2848,-160,16592,4.12,91.3
1192,2296,-104,16988,4.12,91.3
1196,1748,68,18400,4.12,91.3
1199,1612,-220,18844,4.12,91.3
1202,2096,-344,18316,4.12,91.3
1205,2468,-88,17528,4.12,91.3
1208,2436,52,17412,4.12,91.3
1211,2132,-88,17496,4.12,91.3
1214,1852,-172,17960,4.12,91.3
1217,2012,-64,17596,4.12,91.3
1220,2272,-116,17608,4.12,91.3
1223,2084,-184,18244,4.12,91.3
1226,2148,-32,17712,4.12,91.3
1229,2108,-120,17652,4.12,91.3
1232,2028,-112,17776,4.12,91.3
1238,2116,-136,18076,4.12,91.3
1241,2040,-168,17796,4.12,91.3
1244,2168,-224,17380,4.12,91.3
1247,1992,-356,17848,4.12,91.3
1250,2020,-140,18200,4.12,91.3
1253,2188,-308,17824,4.12,91.3
1256,2092,-116,17488,4.12,91.3
1259,1940,-236,17388,4.12,91.3
1263,1884,-156,17792,4.12,91.3
1266,1944,-236,18096,4.12,91.3
1269,2184,-224,17808,4.12,91.3
1272,2112,-284,17636,4.12,91.3
1275,1904,-136,17992,4.12,91.3
1278,1932,-184,18248,4.12,91.3
1281,2088,-148,17728,4.12,91.3
1284,2208,-252,17156,4.12,91.3
1290,1912,-188,17548,4.12,91.3
1293,1660,-304,18912,4.12,91.3
1296,2072,-28,18116,4.12,91.3
1299,2292,-172,17316,4.12,91.3
1302,1988,-308,18240,4.12,91.3
1305,1948,-132,17868,4.12,91.3
1308,1644,92,17920,4.12,91.3
1311,2184,-16,16948,4.12,91.3
1314,1980,-32,17852,4.12,91.3
1317,2020,-32,17924,4.12,91.3
1320,2132,-176,17588,4.12,91.3
1323,1864,-152,18164,4.12,91.3
1326,1892,-96,18020,4.12,91.3
1330,2072,-32,17796,4.12,91.3
1333,2152,52,17312,4.12,91.3
1336,2160,32,17820,4.12,91.3
1339,1880,100,17880,4.12,91.3
1344,2124,108,17760,4.12,91.3
1347,2264,-92,17660,4.12,91.3
1350,1992,28,18004,4.12,91.3
1353,2052,92,17860,4.12,91.3
1356,1980,8,17916,4.12,91.3
1359,2232,-8,17720,4.12,91.3
1362,2156,-40,17484,4.12,91.3
1365,2100,-8,17892,4.12,91.3
1368,2036,-24,18192,4.12,91.3
1372,2168,-44,17936,4.12,91.3
1375,2180,-8,17840,4.12,91.3
1378,2452,-24,17636,4.12,91.3
1381,2224,-132,17564,4.12,91.3
1384,2112,-132,17420,4.12,91.3
1387,2056,-248,17764,4.12,91.3
1390,2036,-188,18360,4.12,91.3
1393,2324,-212,17984,4.12,91.3
1396,2360,-212,18040,4.12,91.3
1401,2148,-140,17152,4.12,91.3
1404,1748,-112,17484,4.12,91.3
1407,1856,-200,18492,4.12,91.3
1410,2192,-172,18072,4.12,91.3
1414,2396,-172,17700,4.12,91.3
1417,2360,-444,16896,4.12,91.3
1420,1896,36,17776,4.12,91.3
1423,1640,-356,18436,4.12,91.3
1426,1664,-140,19048,4.12,91.3
1429,1972,-148,18448,4.12,91.3
1432,2396,84,17264,4.12,91.3
1435,2620,-236,16524,4.12,91.3
1438,2004,-88,17176,4.12,91.3
1442,1580,-248,17904,4.12,91.3
1445,1376,-148,18960,4.12,91.3
1448,1916,-256,18204,4.12,91.3
1453,2392,8,17212,4.12,91.3
1456,1992,8,17432,4.12,91.3
1459,1740,-20,17640,4.12,91.3
1462,1588,-76,18024,4.12,91.3
1465,1800,-204,17784,4.12,91.3
1468,2088,52,17812,4.12,91.3
1471,2264,-112,17772,4.12,91.3
1474,1976,-100,17808,4.12,91.3
1477,1800,76,17804,4.12,91.3
1481,1628,-20,18000,4.12,91.3
1484,1860,-68,17900,4.12,91.3
1487,2200,-196,17724,4.12,91.3
1490,2256,-32,17408,4.12,91.3
1493,1884,-60,17824,4.12,91.3
1496,1740,-88,18228,4.12,91.3
1499,1948,-132,18144,4.12,91.3
1502,2216,-104,17572,4.12,91.3
1508,2124,-192,17320,4.12,91.3
1511,2068,-116,17908,4.12,91.3
1514,1948,-256,18344,4.12,91.3
1517,2216,-124,17972,4.12,91.3
1520,2388,-172,17936,4.12,91.3
1523,2404,-188,17604,4.12,91.3
1526,2284,-212,17360,4.12,91.3
1529,1924,-100,17752,4.12,91.3
1532,2028,-192,18304,4.12,91.3
1535,2384,-60,18168,4.12,91.3
1538,2680,-60,17388,4.12,91.3
1541,2312,-212,17384,4.12,91.3
1544,1992,-96,17880,4.12,91.3
1548,1828,-80,18608,4.12,91.3
1551,2160,76,18216,4.12,91.3
1554,2348,-60,17212,4.12,91.3
1557,2324,44,17416,4.12,91.3
1562,1884,-132,17912,4.12,91.3
1565,1836,-48,18112,4.12,91.3
1568,2052,-108,18256,4.12,91.3
1571,2052,-96,17776,4.12,91.3
1575,2028,-88,17584,4.12,91.3
1578,1968,-96,17640,4.12,91.3
1581,1892,40,17860,4.12,91.3
1584,1856,-176,17808,4.12,91.3
1587,1928,-244,17944,4.12,91.3
1590,2052,-168,17776,4.12,91.3
1593,1856,-140,17828,4.12,91.3
1596,1796,-116,17816,4.12,91.3
1599,1824,-228,17476,4.12,91.3
1602,2196,-160,17268,4.12,91.3
1606,2140,-388,18304,4.12,91.3
1609,1448,-544,19824,4.12,91.3
1612,932,-568,20704,4.12,91.3
1617,2804,184,15524,4.12,91.3
1620,3496,24,14844,4.12,91.3
1623,2188,-100,16956,4.12,91.3
1626,340,-68,20900,4.12,91.3
1629,1188,-360,19588,4.12,91.3
1632,2644,-568,17968,4.12,91.3
1635,3404,-76,15488,4.12,91.3
1638,2368,436,16736,4.12,91.3
1642,1620,148,18004,4.12,91.3
1645,1476,-384,19348,4.12,91.3
1648,2024,-428,18320,4.12,91.3
1651,2488,-28,17080,4.12,91.3
1654,2672,40,17060,4.12,91.3
1657,1992,-148,18464,4.12,91.3
1660,1676,-92,18084,4.12,91.3
1663,1768,72,17628,4.12,91.3
1666,2008,-132,18140,4.12,91.3
1672,2864,-304,17212,4.12,91.3
1675,2332,-56,17232,4.12,91.3
1678,1620,-60,18020,4.12,91.3
1681,1452,-252,19220,4.12,91.3
1684,1932,-196,18416,4.12,91.3
1687,2664,-72,16840,4.12,91.3
1690,2636,-124,16320,4.12,91.3
1693,2040,-148,17288,4.12,91.3
1696,1508,-124,18880,4.12,91.3
1699,1768,-124,18724,4.12,91.3
1702,2412,-128,17920,4.12,91.3
1705,2512,-28,17120,4.12,91.3
1709,2204,-100,17264,4.12,91.3
1712,1788,-28,17372,4.12,91.3
1715,1564,-52,17920,4.12,91.3
1718,1912,-92,18300,4.12,91.3
1721,2300,-116,17948,4.12,91.3
1726,2060,-108,17904,4.12,91.3
1729,1800,-16,17744,4.12,91.3
1732,1816,-20,17668,4.12,91.3
1735,2036,40,17516,4.12,91.3
1739,2356,8,17700,4.12,91.3
1742,2064,-8,17748,4.12,91.3
1745,1956,12,17912,4.12,91.3
1748,1860,-204,18052,4.12,91.3
1751,1792,0,18088,4.12,91.3
1754,1920,-52,17712,4.12,91.3
1757,1972,-44,17784,4.12,91.3
1760,2056,-56,17548,4.12,91.3
1763,1996,-64,17728,4.12,91.3
1766,1836,-96,18004,4.12,91.3
1769,2156,-92,17792,4.12,91.3
1772,2096,-84,17816,4.12,91.3
1775,2020,-176,17780,4.12,91.3
1781,1868,-224,18060,4.12,91.3
1784,2140,-160,17700,4.12,91.3
1787,2348,-188,17308,4.12,91.3
1790,2232,-260,17588,4.12,91.3
1793,2020,-128,17848,4.12,91.3
1796,2088,-288,18188,4.12,91.3
1799,2100,-228,17992,4.12,91.3
1802,2332,-136,17560,4.12,91.3
1805,2240,-252,17424,4.12,91.3
1809,2072,-260,17764,4.12,91.3
1812,1964,-188,17876,4.12,91.3
1815,1988,-192,17884,4.12,91.3
1818,2200,-168,17772,4.12,91.3
1821,2188,-176,17720,4.12,91.3
1824,2140,-128,17884,4.12,91.3
1827,2060,-152,17864,4.12,91.3
1832,2052,-116,17596,4.12,91.3
1835,2148,-168,17708,4.12,91.3
1838,2060,-84,17756,4.12,91.3
1841,1960,-56,17956,4.12,91.3
1844,2096,-72,17932,4.12,91.3
1848,1956,-60,17816,4.12,91.3
1851,1944,-96,17752,4.12,91.3
1854,1824,-108,17964,4.12,91.3
1857,1924,-108,17916,4.12,91.3
1860,1996,-140,17708,4.12,91.3
1863,2144,-48,17372,4.12,91.3
1866,1844,136,17480,4.12,91.3
1869,1704,-328,18472,4.12,91.3
1872,1892,8,17648,4.12,91.3
1875,1856,32,17712,4.12,91.3
1878,1824,-44,18192,4.12,91.3
1881,2268,-124,17212,4.12,91.3
1887,1980,0,17240,4.12,91.3
1890,1752,-104,18128,4.12,91.3
1893,1656,-188,18488,4.12,91.3
1896,2280,-132,17444,4.12,91.3
1899,2104,-188,17744,4.12,91.3
1902,2044,-88,17936,4.12,91.3
1905,2052,-224,17820,4.12,91.3
1908,1964,-152,17656,4.12,91.3
1911,2232,-160,17796,4.12,91.3
1915,2144,-92,17852,4.12,91.3
1918,2208,-116,17912,4.12,91.3
1921,2332,-36,17792,4.12,91.3
1924,2136,-12,17780,4.12,91.3
1927,2080,-76,17960,4.12,91.3
1930,2252,-52,17752,4.12,91.3
1933,2072,-12,17792,4.12,91.3
1936,2292,-112,17528,4.12,91.3
1942,2008,-148,18044,4.12,91.3
1945,2044,-84,17968,4.12,91.3
1948,2088,16,17916,4.12,91.3
1951,2060,-80,17744,4.12,91.3
1954,2220,36,17776,4.12,91.3
1957,2072,-80,17784,4.12,91.3
1960,1984,-52,17704,4.12,91.3
1963,2132,-20,17844,4.12,91.3
1966,2008,-120,17940,4.12,91.3
1969,2060,-36,17900,4.12,91.3
1972,2116,-92,17700,4.12,91.3
1975,1940,-72,17796,4.12,91.3
1978,2076,-84,17828,4.12,91.3
1982,2020,-112,17696,4.12,91.3
1985,1932,-260,18000,4.12,91.3
1988,2160,-120,17732,4.12,91.3
1991,2064,-176,17884,4.12,91.3
1996,2092,-104,17676,4.12,91.3
1999,2044,-128,17760,4.12,91.3
2002,2044,-148,17652,4.12,91.3
2005,2036,-120,17924,4.12,91.3
2009,2064,-188,17864,4.12,91.3
2012,2080,-212,17820,4.12,91.3
2015,2068,-192,17948,4.12,91.3
2018,1940,-204,18124,4.12,91.3
2021,2140,-132,17540,4.12,91.3
2024,2096,-128,17528,4.12,91.3
2027,1980,-212,17724,4.12,91.3
2030,1880,-88,18208,4.12,91.3
2033,1932,-192,17856,4.12,91.3
2036,2100,-168,17812,4.12,91.3
2039,1944,-36,17888,4.12,91.3
2042,1924,-196,17728,4.12,91.3
2045,2000,-124,17792,4.12,91.3
2051,1896,-188,17960,4.12,91.3
2054,1936,-180,17868,4.12,91.3
2057,2084,-120,17760,4.12,91.3
2060,2008,-84,17532,4.12,91.3
2063,1956,-96,17788,4.12,91.3
2066,1848,-204,17784,4.12,91.3
2069,2080,-128,18108,4.12,91.3
2072,2160,-88,17744,4.12,91.3
2076,2080,-64,17816,4.12,91.3
2079,2056,-100,17812,4.12,91.3
2082,1880,-164,17964,4.12,91.3
2085,2084,-124,17984,4.12,91.3
2088,2128,-28,17896,4.12,91.3
2091,2100,-60,17804,4.12,91.3
2094,2312,-48,17628,4.12,91.3
2097,2104,-44,17776,4.12,91.3
2102,2028,-176,18216,4.12,91.3
2106,2116,-112,18004,4.12,91.3
2109,2128,-108,17768,4.12,91.3
2112,2012,-16,17684,4.12,91.3
2115,2036,-112,17712,4.12,91.3
2118,2048,-76,17708,4.12,91.3
2121,2076,-124,17692,4.12,91.3
2124,2012,-132,17800,4.12,91.3
2127,2072,-84,17732,4.12,91.3
2130,2084,-128,17872,4.12,91.3
2133,2024,-108,17768,4.12,91.3
2136,1980,-48,17712,4.12,91.3
2139,1996,-124,17744,4.12,91.3
2143,1976,-124,17732,4.12,91.3
2146,1960,-180,17708,4.12,91.3
2149,2092,-64,17748,4.12,91.3
2152,2020,-104,17716,4.12,91.3
2157,2012,-124,17704,4.12,91.3
2160,2000,-12,17752,4.12,91.3
2163,2056,-152,17796,4.12,91.3
2166,2044,-92,17636,4.12,91.3
2169,1988,-208,17632,4.12,91.3
2173,1948,-192,17756,4.12,91.3
2176,1956,-224,18020,4.12,91.3
2179,2044,-212,17856,4.12,91.3
2182,2024,-180,17620,4.12,91.3
2185,2216,-220,17808,4.12,91.3
2188,2080,-284,17772,4.12,91.3
2191,2024,-248,17892,4.12,91.3
2194,2120,-172,17796,4.12,91.3
2197,2268,-264,17612,4.12,91.3
2200,2188,-164,17588,4.12,91.3
2203,2040,-244,17820,4.12,91.3
2206,2068,-236,17984,4.12,91.3
2212,2112,-244,17816,4.12,91.3
2215,2128,-132,17656,4.12,91.3
2218,2100,-228,17716,4.12,91.3
2221,2096,-204,17864,4.12,91.3
2224,1960,-272,17884,4.12,91.3
2227,2136,-220,17820,4.12,91.3
2230,2144,-64,17712,4.12,91.3
2233,2044,-228,17572,4.12,91.3
2236,2028,-184,17484,4.12,91.3
2239,2012,-100,17740,4.12,91.3
2242,2136,-136,17876,4.12,91.3
2245,2008,-132,17900,4.12,91.3
2249,2124,-56,17852,4.12,91.3
2252,2084,-80,17640,4.12,91.3
2255,1892,0,17744,4.12,91.3
2258,1876,-88,17832,4.12,91.3
2263,2008,24,17788,4.12,91.3
2266,2076,-4,17644,4.12,91.3
2269,2072,56,17904,4.12,91.3
2272,2064,112,17624,4.12,91.3
2275,1928,24,18116,4.12,91.3
2278,2304,-28,17380,4.12,91.3
2281,1984,4,18056,4.12,91.3
2284,2000,44,17472,4.12,91.3
2287,1900,24,18104,4.12,91.3
2291,2024,-16,17708,4.12,91.3
2294,2184,-76,17544,4.12,91.3
2297,1924,16,18072,4.12,91.3
2300,1932,72,17908,4.12,91.3
2303,1912,-148,17836,4.12,91.3
2306,2024,-64,17748,4.12,91.3
2309,2024,-140,18028,4.12,91.3
2312,1988,-204,17584,4.12,91.3
2315,1976,-176,17920,4.12,91.3
2321,1956,-148,17860,4.12,91.3
2324,2076,-268,17780,4.12,91.3
2327,2040,-264,17744,4.12,91.3
2330,2068,-276,17900,4.12,91.3
2333,2016,-236,17868,4.12,91.3
2336,1976,-236,17692,4.12,91.3
2339,2024,-236,17732,4.12,91.3
2342,2088,-312,17864,4.12,91.3
2345,2192,-116,17808,4.12,91.3
2348,2112,-256,17816,4.12,91.3
2351,2208,-220,17768,4.12,91.3
2354,2052,-188,17740,4.12,91.3
2358,2180,-280,17596,4.12,91.3
2361,2092,-136,17900,4.12,91.3
2364,2084,-220,17912,4.12,91.3
2367,2128,-100,17796,4.12,91.3
2372,2040,-132,17624,4.12,91.3
2375,2156,-120,17888,4.12,91.3
2378,2040,-148,17976,4.12,91.3
2381,2028,-52,17784,4.12,91.3
2385,2188,-76,17712,4.12,91.3
2388,1984,-80,17688,4.12,91.3
2391,1988,-36,17916,4.12,91.3
2394,2016,-152,17908,4.12,91.3
2397,2120,-104,17760,4.12,91.3
2400,2016,-84,17592,4.12,91.3
2403,1980,0,17700,4.12,91.3
2406,2036,-8,17892,4.12,91.3
2409,2092,-68,17780,4.12,91.3
2412,2100,-176,17812,4.12,91.3
2415,2020,-92,17716,4.12,91.3
2418,2048,32,17808,4.12,91.3
2421,2064,24,17828,4.12,91.3
2427,2044,-40,17740,4.12,91.3
2430,2048,-60,17680,4.12,91.3
2433,1976,-24,17864,4.12,91.3
2436,2040,-112,18052,4.12,91.3
2439,2180,-144,17688,4.12,91.3
2442,2132,-84,17852,4.12,91.3
2445,2020,-192,17644,4.12,91.3
2448,2012,-92,17932,4.12,91.3
2451,2152,-192,17924,4.12,91.3
2455,2164,-60,17864,4.12,91.3
2458,2056,-180,17824,4.12,91.3
2461,2016,-64,17760,4.12,91.3
2464,2044,-100,17736,4.12,91.3
2467,2084,-236,17676,4.12,91.3
2470,2096,-88,17576,4.12,91.3
2473,2036,-100,17800,4.12,91.3
2476,2044,-140,17796,4.12,91.3
2482,2000,-88,17820,4.12,91.3
2485,2008,-160,18208,4.12,91.3
2488,2016,-180,17900,4.12,91.3
2491,2004,-156,17512,4.12,91.3
2494,1892,-160,17472,4.12,91.3
2497,1868,-128,17968,4.12,91.3
2500,2108,-16,18136,4.12,91.3
2503,2076,-160,17832,4.12,91.3
2506,2076,-232,17704,4.12,91.3
2509,1824,-164,17932,4.12,91.3
2512,1992,-64,18068,4.12,91.3
2515,2160,-120,17712,4.12,91.3
2519,2064,-100,17576,4.12,91.3
2522,2000,-152,17592,4.12,91.3
2525,1904,-72,17784,4.12,91.3
2528,2088,-116,17832,4.12,91.3
2531,2172,-96,17784,4.12,91.3
2536,2068,-168,17700,4.12,91.3
2539,1996,-172,17812,4.12,91.3
2542,2056,-116,17660,4.12,91.3
2545,2108,-76,17780,4.12,91.3
2549,2092,-208,17656,4.12,91.3
2552,2092,-152,17876,4.12,91.3
2555,2116,-108,17872,4.12,91.3
2558,2088,-160,17892,4.12,91.3
2561,2188,-148,17796,4.12,91.3
2564,2056,-160,17812,4.12,91.3
2567,2020,-244,17808,4.12,91.3
2570,2024,-152,17720,4.12,91.3
2573,2100,-116,17852,4.12,91.3
2576,2164,-116,17940,4.12,91.3
2579,2152,-128,17764,4.12,91.3
2582,1988,-120,17700,4.12,91.3
2588,1924,-176,17732,4.12,91.3
2591,2036,-176,17876,4.12,91.3
2594,2108,-124,17784,4.12,91.3
2597,1964,-144,17820,4.12,91.3
2600,2056,-176,17888,4.12,91.3
2603,2000,-8,18100,4.12,91.3
2606,1984,-212,17932,4.12,91.3
2609,2036,-140,17556,4.12,91.3
2613,2028,-168,17548,4.12,91.3
2616,1804,-124,17852,4.12,91.3
2619,1976,0,18000,4.12,91.3
2622,2088,-92,18084,4.12,91.3
2625,2160,-68,17652,4.12,91.3
2628,2040,-80,17608,4.12,91.3
2631,1908,-40,17824,4.12,91.3
2634,1928,-40,18156,4.12,91.3
2637,2184,-104,17908,4.12,91.3
2642,2044,-60,17576,4.12,91.3
2646,1876,-24,17920,4.12,91.3
2649,1988,-76,18008,4.12,91.3
2652,2188,-40,17748,4.12,91.3
2655,2188,-104,17728,4.12,91.3
2658,2000,-148,17860,4.12,91.3
2661,1984,-116,17840,4.12,91.3
2664,2052,-12,17948,4.12,91.3
2667,2232,0,17832,4.12,91.3
2670,2052,-8,17688,4.12,91.3
2673,2080,-52,17696,4.12,91.3
2676,2004,-36,17840,4.12,91.3
2679,2096,-80,17700,4.12,91.3
2683,2180,-200,17716,4.12,91.3
2686,2116,-240,17856,4.12,91.3
2689,2040,-184,17960,4.12,91.3
2692,2084,-220,18092,4.12,91.3
2697,2124,-104,17816,4.12,91.3
2700,2132,-64,17628,4.12,91.3
2703,1944,-132,17572,4.12,91.3
2706,1928,-164,17772,4.12,91.3
2709,2144,-236,17880,4.12,91.3
2712,2068,-124,17844,4.12,91.3
2715,2112,-216,17868,4.12,91.3
2718,1976,-148,17876,4.12,91.3
2721,1932,-156,17684,4.12,91.3
2725,1996,-192,17756,4.12,91.3
2728,2072,-52,17896,4.12,91.3
2731,2108,-220,17736,4.12,91.3
2734,2100,-56,17804,4.12,91.3
2737,1924,-184,17868,4.12,91.3
2740,2100,-176,17828,4.12,91.3
2743,2012,-168,17868,4.12,91.3
2746,2184,-156,17820,4.12,91.3
2752,2060,-60,17596,4.12,91.3
2755,2004,-148,17744,4.12,91.3
2758,2124,-96,17796,4.12,91.3
2761,2232,-156,17712,4.12,91.3
2764,2132,-136,17800,4.12,91.3
2767,2124,-84,17820,4.12,91.3
2770,2068,-12,17832,4.12,91.3
2773,2088,-44,17760,4.12,91.3
2776,2064,-80,17680,4.12,91.3
2779,2072,-72,17704,4.12,91.3
2782,1980,-104,17852,4.12,91.3
2785,2212,0,17848,4.12,91.3
2789,2044,-64,17772,4.12,91.3
2792,2052,20,17680,4.12,91.3
2795,2028,-52,17728,4.12,91.3
2798,2064,-124,17820,4.12,91.3
2803,2036,28,17844,4.12,91.3
2806,2036,-72,17780,4.12,91.3
2809,1996,-96,17704,4.12,91.3
2812,1964,-140,17860,4.12,91.3
2815,2004,48,17824,4.12,91.3
2819,2120,-96,17876,4.12,91.3
2822,2108,-164,17752,4.12,91.3
2825,1956,-148,17572,4.12,91.3
2828,1896,-196,17720,4.12,91.3
2831,1984,-128,17932,4.12,91.3
2834,2076,-88,17808,4.12,91.3
2837,2156,-120,17660,4.12,91.3
2840,1952,-148,17644,4.12,91.3
2843,1848,-188,17872,4.12,91.3
2846,1996,-44,17980,4.12,91.3
2849,2108,-260,17788,4.12,91.3
2852,2044,-184,17744,4.12,91.3
2858,1904,-96,17844,4.12,91.3
2861,1996,-244,17992,4.12,91.3
2864,2128,-116,17776,4.12,91.3
2867,2104,-216,17840,4.12,91.3
2870,1972,-204,17812,4.12,91.3
2873,1932,-144,17776,4.12,91.3
2876,2136,-256,17796,4.12,91.3
2879,2220,-132,17876,4.12,91.3
2882,2104,-224,17704,4.12,91.3
2886,2060,-120,17712,4.12,91.3
2889,1940,-184,17860,4.12,91.3
2892,2128,-108,17896,4.12,91.3
2895,2248,-220,17772,4.12,91.3
2898,2124,-112,17632,4.12,91.3
2901,2000,-88,17948,4.12,91.3
2904,2116,-152,17828,4.12,91.3
2907,2036,-180,17804,4.12,91.3
2912,2184,-116,17912,4.12,91.3
2916,2036,-104,17852,4.12,91.3
2919,2044,-160,17740,4.12,91.3
2922,2124,-84,17732,4.12,91.3
2925,2064,-88,17884,4.12,91.3
2928,2016,-116,17660,4.12,91.3
2931,2040,-144,17776,4.12,91.3
2934,2084,-264,17816,4.12,91.3
2937,1936,-124,17804,4.12,91.3
2940,2044,-160,17776,4.12,91.3
2943,2000,-124,17856,4.12,91.3
2946,1936,-20,17688,4.12,91.3
2950,2024,-92,17796,4.12,91.3
2953,2072,-84,17716,4.12,91.3
2956,2000,-20,17820,4.12,91.3
2959,2068,-80,17684,4.12,91.3
2962,1984,-168,17684,4.12,91.3
2967,1884,-176,17784,4.12,91.3
2970,2020,-16,17948,4.12,91.3
2973,2116,-164,17872,4.12,91.3
2976,2160,-148,17612,4.12,91.3
2979,1928,-112,17856,4.12,91.3
2983,1900,-84,18048,4.12,91.3
2986,2100,40,17892,4.12,91.3
2989,2200,-144,17684,4.12,91.3
2992,1984,8,17624,4.12,91.3
2995,1944,-60,17844,4.12,91.3
2998,1852,32,17940,4.12,91.3
3001,2036,-24,18044,4.12,91.3
3004,2136,32,17764,4.12,91.3
3007,2100,-8,17728,4.12,91.3
3010,2008,32,17716,4.12,91.3
3013,1940,32,17972,4.12,91.3
3016,2012,-64,18040,4.12,91.3
3022,2044,-76,17596,4.12,91.3
3025,1912,-124,17772,4.12,91.3
3028,1956,-128,17884,4.12,91.3
3031,1904,-76,17992,4.12,91.3
3034,2060,-92,17896,4.12,91.3
3037,2076,-28,17600,4.12,91.3
3040,1932,-112,17760,4.12,91.3
3043,1992,-120,17996,4.12,91.3
3046,2108,-120,17892,4.12,91.3
3049,2124,-108,17756,4.12,91.3
3052,2116,-184,17780,4.12,91.3
3055,2008,-204,18100,4.12,91.3
3059,2124,-128,17940,4.12,91.3
3062,2164,-60,17696,4.12,91.3
3065,2276,-168,17588,4.12,91.3
3068,2052,-80,17788,4.12,91.3
3073,2084,-172,17812,4.12,91.3
3076,2172,-132,17816,4.12,91.3
3079,2208,-260,18216,4.12,91.3
3082,2176,-176,17756,4.12,91.3
3085,2144,-216,17524,4.12,91.3
3088,2008,-156,17664,4.12,91.3
3092,2052,-88,17964,4.12,91.3
3095,2176,-192,18228,4.12,91.3
3098,2188,-196,17760,4.12,91.3
3101,2032,-160,17588,4.12,91.3
3104,1964,-128,17712,4.12,91.3
3107,1984,-156,17984,4.12,91.3
3110,2088,-56,18016,4.12,91.3
3113,2056,-104,17624,4.12,91.3
3116,1988,-80,17576,4.12,91.3
3119,1800,-112,17884,4.12,91.3
3122,1900,-112,18056,4.12,91.3
3127,2104,-68,17856,4.12,91.3
3131,1992,-132,17660,4.12,91.3
3134,1804,-116,17644,4.12,91.3
3137,1748,-72,17788,4.12,91.3
3140,1964,-40,17852,4.12,91.3
3143,2104,-72,17948,4.12,91.3
3146,1928,-184,17812,4.12,91.3
3149,1912,-116,17712,4.12,91.3
3152,1828,-84,17884,4.12,91.3
3155,1936,-92,17908,4.12,91.3
3158,2072,-100,17588,4.12,91.3
3161,2016,-20,17632,4.12,91.3
3164,2128,-168,17600,4.12,91.3
3168,2008,-228,17736,4.12,91.3
3171,2164,-160,17828,4.12,91.3
3174,2272,-252,17800,4.12,91.3
3177,2124,-184,17944,4.12,91.3
3182,2120,-272,18004,4.12,91.3
3185,2108,-292,17932,4.12,91.3
3188,2232,-216,17644,4.12,91.3
3191,2156,-136,17756,4.12,91.3
3194,2144,-220,17976,4.12,91.3
3198,2168,-264,17968,4.12,91.3
3201,2116,-84,17616,4.12,91.3
3204,2204,-280,17564,4.12,91.3
3207,1956,-84,17868,4.12,91.3
3210,2120,-256,18124,4.12,91.3
3213,2204,-120,17812,4.12,91.3
3216,2108,-116,17596,4.12,91.3
3219,1948,-128,17660,4.12,91.3
3222,1932,-80,18092,4.12,91.3
3225,1948,-80,18032,4.12,91.3
3228,2140,-132,17844,4.12,91.3
3234,1968,-36,17588,4.12,91.3
3237,1840,-20,17800,4.12,91.3
3240,1820,32,17920,4.12,91.3
3243,1992,-44,17908,4.12,91.3
3246,2116,12,17760,4.12,91.3
3249,2024,-40,17724,4.12,91.3
3252,1868,-52,17768,4.12,91.3
3255,1824,-68,17856,4.12,91.3
3258,2080,-136,17952,4.12,91.3
3261,2036,-84,17748,4.12,91.3
3265,1956,-40,17672,4.12,91.3
3268,1916,-68,17892,4.12,91.3
3271,1968,-148,17772,4.12,91.3
3274,2016,-164,17748,4.12,91.3
3277,1980,-144,17804,4.12,91.3
3280,2132,-116,17944,4.12,91.3
3283,2044,-124,17708,4.12,91.3
3288,1972,-92,17768,4.12,91.3
3291,2036,-72,17844,4.12,91.3
3295,1964,-144,17696,4.12,91.3
3298,2116,-64,17820,4.12,91.3
3301,2096,-56,17792,4.12,91.3
3304,2080,-160,17804,4.12,91.3
3307,2096,4,17892,4.12,91.3
3310,2072,-108,17704,4.12,91.3
3313,2144,-96,17760,4.12,91.3
3316,2052,-76,17864,4.12,91.3
3319,2080,-64,17808,4.12,91.3
3322,2048,-140,17620,4.12,91.3
3325,2068,-108,17772,4.12,91.3
3329,2124,-76,17988,4.12,91.3
3332,2108,-84,17800,4.12,91.3
3335,2116,-116,17796,4.12,91.3
3338,2136,-120,17740,4.12,91.3
3343,2092,72,17864,4.12,91.3
3346,2080,-32,17892,4.12,91.3
3349,2080,-68,18032,4.12,91.3
3352,2188,-60,17832,4.12,91.3
3355,2200,-100,17612,4.12,91.3
3358,2092,-132,17828,4.12,91.3
3362,2020,-56,17812,4.12,91.3
3365,2216,-60,17740,4.12,91.3
3368,2136,-168,17648,4.12,91.3
3371,2140,-100,17624,4.12,91.3
3374,2056,-124,17868,4.12,91.3
3377,1916,-112,17984,4.12,91.3
3380,2008,-124,17848,4.12,91.3
3383,2172,-76,17732,4.12,91.3
3386,2120,-128,17704,4.12,91.3
3389,1972,-88,17760,4.12,91.3
3392,1928,-204,17812,4.12,91.3
3398,1956,-220,17780,4.12,91.3
3401,1932,-144,17804,4.12,91.3
3404,1988,-220,17932,4.12,91.3
3407,1888,-124,18100,4.12,91.3
3410,2000,-108,17668,4.12,91.3
3413,2068,-184,17748,4.12,91.3
3416,1936,-148,17812,4.12,91.3
3419,2060,-252,17700,4.12,91.3
3422,2056,-200,17840,4.12,91.3
3426,2140,-224,17940,4.12,91.3
3429,2028,-212,17748,4.12,91.3
3432,2016,-164,17680,4.12,91.3
3435,2040,-248,17804,4.12,91.3
3438,2064,-208,17772,4.12,91.3
3441,2116,-272,17832,4.12,91.3
3444,1948,-200,17856,4.12,91.3
3447,2128,-120,17784,4.12,91.3
3452,2104,-192,17880,4.12,91.3
3455,2088,-68,17960,4.12,91.3
3459,2108,-128,17736,4.12,91.3
3462,1972,-164,17976,4.12,91.3
3465,2100,-28,17844,4.12,91.3
3468,2096,-96,17892,4.12,91.3
3471,2096,28,17764,4.12,91.3
3474,2124,60,17676,4.12,91.3
3477,2072,-40,17860,4.12,91.3
3480,2004,-16,17872,4.12,91.3
3483,2108,-72,17936,4.12,91.3
3486,2132,40,17600,4.12,91.3
3489,1984,-48,17664,4.12,91.3
3493,2000,-20,17804,4.12,91.3
3496,1928,0,17984,4.12,91.3
3499,2076,-16,17932,4.12,91.3
3502,2128,-92,17756,4.12,91.3
3507,1952,-60,17704,4.12,91.3
3510,1924,-40,17840,4.12,91.3
3513,2088,-100,17784,4.12,91.3
3516,2068,-172,17888,4.12,91.3
3519,2052,-36,17776,4.12,91.3
3522,1992,-156,17868,4.12,91.3
3525,2004,-60,17860,4.12,91.3
3528,2004,-212,17848,4.12,91.3
3532,2084,-24,17684,4.12,91.3
3535,2008,-196,17780,4.12,91.3
3538,2016,-100,17740,4.12,91.3
3541,1916,-140,17940,4.12,91.3
3544,2044,-200,17852,4.12,91.3
3547,2072,-252,17676,4.12,91.3
3550,2028,-272,17780,4.12,91.3
3553,1980,-244,17848,4.12,91.3
3558,1960,-184,17864,4.12,91.3
3561,2124,-232,17728,4.12,91.3
3564,2016,-180,17888,4.12,91.3
3567,2036,-176,17844,4.12,91.3
3570,2036,-248,18020,4.12,91.3
3574,2072,-128,17780,4.12,91.3
3577,2008,-80,17800,4.12,91.3
3580,2052,-124,17868,4.12,91.3
3583,2044,-128,17816,4.12,91.3
3586,1996,-68,17756,4.12,91.3
3589,2016,-88,17976,4.12,91.3
3592,2152,-120,17968,4.12,91.3
3595,2076,-24,17820,4.12,91.3
3598,2056,-48,17460,4.12,91.3
3602,2036,20,17736,4.12,91.3
3605,2064,-20,18044,4.12,91.3
3608,2116,-76,18004,4.12,91.3
3613,2148,-104,17620,4.12,91.3
3616,2004,-52,17968,4.12,91.3
3619,2020,-128,18184,4.12,91.3
3622,2136,-88,17584,4.12,91.3
3626,2056,-124,17468,4.12,91.3
3629,2028,-116,17912,4.12,91.3
3632,1936,-28,18136,4.12,91.3
3635,2068,-56,17904,4.12,91.3
3638,2172,-92,17612,4.12,91.3
3641,2016,-184,17780,4.12,91.3
3644,1900,-184,18100,4.12,91.3
3647,2044,-208,18188,4.12,91.3
3650,2048,-228,17732,4.12,91.3
3653,2104,-196,17540,4.12,91.3
3656,1976,-232,17696,4.12,91.3
3659,1864,-76,17944,4.12,91.3
3662,1940,-20,17996,4.12,91.3
3668,2132,-180,17760,4.12,91.3
3671,2036,-112,17816,4.12,91.3
3674,1856,-116,17920,4.12,91.3
3677,1940,-176,17840,4.12,91.3
3680,2136,-96,17812,4.12,91.3
3683,2088,-200,17784,4.12,91.3
3686,2000,-156,17784,4.12,91.3
3689,1876,-188,17792,4.12,91.3
3692,1944,-132,17728,4.12,91.3
3696,2056,-192,17748,4.12,91.3
3699,2084,-192,17700,4.12,91.3
3702,1988,-92,17776,4.12,91.3
3705,1932,-36,17932,4.12,91.3
3708,2052,-120,18004,4.12,91.3
3711,2136,-64,17792,4.12,91.3
3714,2156,-44,17296,4.12,91.3
3717,1884,-124,17708,4.12,91.3
3722,1952,-92,18016,4.12,91.3
3725,2120,-92,17724,4.12,91.3
3728,2204,-144,17728,4.12,91.3
3731,2000,-196,18096,4.12,91.3
3735,1948,-28,17976,4.12,91.3
3738,2020,-124,17824,4.12,91.3
3741,2112,-52,17584,4.12,91.3
3744,2108,-104,17728,4.12,91.3
3747,2092,28,17820,4.12,91.3
3750,1996,-132,17904,4.12,91.3
3753,1964,-112,17740,4.12,91.3
3756,2004,-96,17856,4.12,91.3
3759,2100,-116,17772,4.12,91.3
3763,1992,-44,17788,4.12,91.3
3766,2108,-88,17772,4.12,91.3
3769,2140,-116,17688,4.12,91.3
3774,2056,-84,17712,4.12,91.3
3777,2044,-104,17932,4.12,91.3
3780,2116,-140,17996,4.12,91.3
3783,2072,-160,17788,4.12,91.3
3786,1980,-76,17916,4.12,91.3
3789,2040,-88,17696,4.12,91.3
3792,2024,-60,17684,4.12,91.3
3795,1984,-148,17824,4.12,91.3
3798,2092,-8,17928,4.12,91.3
3802,2212,-20,17836,4.12,91.3
3805,2032,-148,17788,4.12,91.3
3808,1992,0,17716,4.12,91.3
3811,2060,-28,17864,4.12,91.3
3814,1992,-72,17864,4.12,91.3
3817,2088,-184,17768,4.12,91.3
3820,2132,-76,17712,4.12,91.3
3823,2108,-108,17664,4.12,91.3
3829,2056,-116,17924,4.12,91.3
3832,2224,-48,17840,4.12,91.3
3835,2012,-128,17736,4.12,91.3
3838,2024,-136,17700,4.12,91.3
3841,2080,-72,17740,4.12,91.3
3844,2056,-92,17712,4.12,91.3
3847,2056,-148,17656,4.12,91.3
3850,2116,-168,17872,4.12,91.3
3853,2024,-160,17776,4.12,91.3
3856,1988,-36,17920,4.12,91.3
3859,2176,-116,17724,4.12,91.3
3862,2184,-188,17668,4.12,91.3
3865,2004,-248,17404,4.12,91.3
3869,1872,-192,17900,4.12,91.3
3872,2028,-144,17992,4.12,91.3
3875,2108,-164,18112,4.12,91.3
3878,2152,-232,17880,4.12,91.3
3883,2012,-220,17712,4.12,91.3
3886,1800,-204,17920,4.12,91.3
3889,2056,-128,18000,4.12,91.3
3892,2228,-196,17660,4.12,91.3
3896,2036,-112,17632,4.12,91.3
3899,1860,-212,17828,4.12,91.3
3902,1904,-92,18180,4.12,91.3
3905,2156,-132,18076,4.12,91.3
3908,2096,-212,17504,4.12,91.3
3911,1964,-120,17728,4.12,91.3
3914,1840,-120,17664,4.12,91.3
3917,1828,-184,18160,4.12,91.3
3920,2148,-80,17720,4.12,91.3
3923,1984,-168,17888,4.12,91.3
3926,1968,-140,17772,4.12,91.3
3929,1932,-68,17740,4.12,91.3
3932,2028,-40,17884,4.12,91.3
3938,2156,-156,17852,4.12,91.3
3941,2044,-64,17660,4.12,91.3
3944,2024,-8,17664,4.12,91.3
3947,2016,16,17948,4.12,91.3
3950,2124,-52,17920,4.12,91.3
3953,2236,-60,17896,4.12,91.3
3956,2188,-160,17704,4.12,91.3
3959,2016,-80,17496,4.12,91.3
3962,2064,-144,17736,4.12,91.3
3966,2028,-72,18084,4.12,91.3
3969,2212,-16,17956,4.12,91.3
3972,2244,-48,17636,4.12,91.3
3975,2040,-132,17680,4.12,91.3
3978,1984,-16,17820,4.12,91.3
3981,2136,-72,17936,4.12,91.3
3984,2232,-120,17784,4.12,91.3
3987,2196,-64,17808,4.12,91.3
3992,2072,-116,17688,4.12,91.3
3995,2112,-160,17740,4.12,91.3
3998,2104,-164,17948,4.12,91.3
4001,2104,-152,17864,4.12,91.3
4004,2168,-164,17716,4.12,91.3
4007,2000,-72,17640,4.12,91.3
4010,2144,-196,17796,4.12,91.3
4013,2188,-40,17832,4.12,91.3
4017,2136,-160,17920,4.12,91.3
4020,2144,-212,17808,4.12,91.3
4023,2044,-200,17776,4.12,91.3
4026,2056,-120,17700,4.12,91.3
4029,2052,-136,17792,4.12,91.3
4032,2060,-204,17844,4.12,91.3
4035,2080,-80,17876,4.12,91.3
4038,2040,-88,18112,4.12,91.3
4044,2012,-188,17688,4.12,91.3
4047,2000,-244,17784,4.12,91.3
4050,2108,-132,17912,4.12,91.3
4053,2176,-156,17744,4.12,91.3
4056,2068,-56,17596,4.12,91.3
4059,1972,-156,17732,4.12,91.3
4062,1988,-96,17796,4.12,91.3
4065,1912,-244,17856,4.12,91.3
4068,1980,-208,17800,4.12,91.3
4071,1928,-112,17768,4.12,91.3
4074,1924,-124,17804,4.12,91.3
4077,1972,-184,17916,4.12,91.3
4080,2100,-48,17668,4.12,91.3
4084,1940,-280,17748,4.12,91.3
4087,1904,-120,17820,4.12,91.3
4090,1924,-136,17916,4.12,91.3
4093,2008,-28,17872,4.12,91.3
4098,1864,-96,17560,4.12,91.3
4101,2040,-136,17576,4.12,91.3
4104,2040,-76,17676,4.12,91.3
4107,1884,-84,17864,4.12,91.3
4111,1972,-196,17956,4.12,91.3
4114,2136,-96,17724,4.12,91.3
4117,1976,16,17796,4.12,91.3
4120,2032,-136,17752,4.12,91.3
4123,2068,-124,17912,4.12,91.3
4126,2100,-96,17864,4.12,91.3
4129,2108,-92,17852,4.12,91.3
4132,2120,-68,17768,4.12,91.3
4135,2080,-140,17816,4.12,91.3
4138,2104,-16,17696,4.12,91.3
4141,2228,-16,17840,4.12,91.3
4144,2160,-92,17724,4.12,91.3
4147,2136,-4,17808,4.12,91.3
4153,2136,-124,17884,4.12,91.3
4156,2236,-96,17824,4.12,91.3
4159,2140,-140,17948,4.12,91.3
4162,2196,-132,17628,4.12,91.3
4165,2140,-56,17924,4.12,91.3
4168,2100,-92,17780,4.12,91.3
4171,2072,-24,17880,4.12,91.3
4174,2156,-80,17640,4.12,91.3
4178,2072,-84,17648,4.12,91.3
4181,1976,-36,17792,4.12,91.3
4184,2016,-124,17956,4.12,91.3
4187,2044,-68,17792,4.12,91.3
4190,2184,-24,17644,4.12,91.3
4193,2008,-80,17748,4.12,91.3
4196,1976,-108,17972,4.12,91.3
4199,1892,-36,18028,4.12,91.3
4202,2024,-100,17816,4.12,91.3
4208,1972,-156,17632,4.12,91.3
4211,1868,-196,17876,4.12,91.3
4214,1848,-128,17932,4.12,91.3
4217,1960,-212,17916,4.12,91.3
4220,1968,-148,17712,4.12,91.3
4223,1972,-144,17712,4.12,91.3
4226,1980,-120,17920,4.12,91.3
4229,1956,-88,17780,4.12,91.3
4232,1920,-132,17888,4.12,91.3
4235,2092,-116,17796,4.12,91.3
4238,2144,-80,17852,4.12,91.3
4241,1964,-236,17868,4.12,91.3
4245,1908,-24,17756,4.12,91.3
4248,2084,-132,17856,4.12,91.3
4251,2080,-168,17828,4.12,91.3
4254,2116,-108,17740,4.12,91.3
4259,2068,-124,17840,4.12,91.3
4262,2108,-24,17804,4.12,91.3
4265,2088,-56,17876,4.12,91.3
4268,2124,-72,17680,4.12,91.3
4271,2100,-140,17804,4.12,91.3
4275,2108,-152,17700,4.12,91.3
4278,2116,-48,17680,4.12,91.3
4281,2128,-184,17784,4.12,91.3
4284,2100,-152,17500,4.12,91.3
4287,2048,-72,17840,4.12,91.3
4290,2152,-112,17760,4.12,91.3
4293,2116,-124,17700,4.12,91.3
4296,2104,-140,17832,4.12,91.3
4299,2252,-36,17816,4.12,91.3
4302,2128,-172,17644,4.12,91.3
4305,2100,-212,17880,4.12,91.3
4308,2052,-64,17872,4.12,91.3
4314,2108,-176,17892,4.12,91.3
4317,2112,-96,17880,4.12,91.3
4320,2096,-60,17840,4.12,91.3
4323,2088,-120,17828,4.12,91.3
4326,2108,-8,17900,4.12,91.3
4329,2064,12,17724,4.12,91.3
4332,2092,-84,17796,4.12,91.3
4335,2044,-64,17856,4.12,91.3
4338,1996,-108,17788,4.12,91.3
4342,2036,-124,17892,4.12,91.3
4345,1980,-100,17840,4.12,91.3
4348,2144,-84,17844,4.12,91.3
4351,1940,-68,17892,4.12,91.3
4354,1964,-156,17856,4.12,91.3
4357,2020,-80,17764,4.12,91.3
4360,1976,-156,17768,4.12,91.3
4363,2064,-140,17816,4.12,91.3
4368,1960,-144,17820,4.12,91.3
4371,2024,-108,17804,4.12,91.3
4374,1968,-148,17908,4.12,91.3
4377,2000,-264,17900,4.12,91.3
4381,1944,-148,17760,4.12,91.3
4384,2028,-80,17736,4.12,91.3
4387,2036,-212,17692,4.12,91.3
4390,1936,-32,17780,4.12,91.3
4393,2108,-180,17828,4.12,91.3
4396,2056,-100,17656,4.12,91.3
4399,2028,-168,17832,4.12,91.3
4402,2052,-148,17692,4.12,91.3
4405,2116,-136,17748,4.12,91.3
4409,2036,-216,17876,4.12,91.3
4412,1996,-20,17728,4.12,91.3
4415,2092,-100,17644,4.12,91.3
4418,2072,-72,17696,4.12,91.3
4423,2020,-100,17676,4.12,91.3
4426,2080,-112,17932,4.12,91.3
4429,2000,-92,17760,4.12,91.3
4432,1996,-28,17816,4.12,91.3
4435,2016,-28,17864,4.12,91.3
4438,2120,-136,17752,4.12,91.3
4441,2092,-40,17772,4.12,91.3
4444,2068,-84,17780,4.12,91.3
4447,2004,-180,17680,4.12,91.3
4450,2096,-28,17684,4.12,91.3
4454,2104,-196,17900,4.12,91.3
4457,2124,-160,17704,4.12,91.3
4460,2024,-100,17840,4.12,91.3
4463,2044,-36,17792,4.12,91.3
4466,2196,-48,17816,4.12,91.3
4469,2116,-240,17840,4.12,91.3
4474,2060,-76,17844,4.12,91.3
4478,2068,-148,17732,4.12,91.3
4481,2004,-184,17896,4.12,91.3
4484,2084,-168,17708,4.12,91.3
4487,2120,-192,17772,4.12,91.3
4490,2144,-176,17828,4.12,91.3
4493,2008,-136,17864,4.12,91.3
4496,1980,-180,17788,4.12,91.3
4499,1976,-152,17864,4.12,91.3
4502,1996,-116,17924,4.12,91.3
4505,2032,-220,17748,4.12,91.3
4508,2064,-72,17928,4.12,91.3
4511,2024,-188,17760,4.12,91.3
4515,2056,-144,17856,4.12,91.3
4518,2048,-88,17912,4.12,91.3
4521,2020,-204,17844,4.12,91.3
4524,2064,-40,17832,4.12,91.3
4529,2080,-196,17836,4.12,91.3
4532,2028,-60,17752,4.12,91.3
4535,2016,-60,17672,4.12,91.3
4538,1952,-88,17796,4.12,91.3
4541,2076,-124,17828,4.12,91.3
4545,2128,-64,17792,4.12,91.3
4548,2052,-88,17796,4.12,91.3
4551,1940,-136,17880,4.12,91.3
4554,2056,-84,17784,4.12,91.3
4557,1992,-132,17808,4.12,91.3
4560,2092,-112,17820,4.12,91.3
4563,2008,-92,17684,4.12,91.3
4566,1992,-128,17640,4.12,91.3
4569,2108,-216,17836,4.12,91.3
4572,1972,-4,17868,4.12,91.3
4575,2104,-100,17716,4.12,91.3
4578,2120,-92,17780,4.12,91.3
4584,2160,-116,17780,4.12,91.3
4587,2112,-148,17728,4.12,91.3
4590,2068,-128,17704,4.12,91.3
4593,2060,-104,17896,4.12,91.3
4596,2080,-224,17840,4.12,91.3
4599,2148,-24,17744,4.12,91.3
4602,2028,-52,17756,4.12,91.3
4605,2056,-164,17832,4.12,91.3
4608,2028,-140,17772,4.12,91.3
4612,2000,-112,17820,4.12,91.3
4615,2036,-132,17812,4.12,91.3
4618,2016,-88,17860,4.12,91.3
4621,2064,-172,17916,4.12,91.3
4624,1992,-224,17844,4.12,91.3
4627,2016,-160,17808,4.12,91.3
4630,1936,4,17888,4.12,91.3
4633,2016,-96,17904,4.12,91.3
4638,1992,-60,17936,4.12,91.3
4641,2036,-100,17712,4.12,91.3
4644,1996,-96,17936,4.12,91.3
4647,2024,-192,17592,4.12,91.3
4651,2112,-120,17880,4.12,91.3
4654,2028,-84,17816,4.12,91.3
4657,2080,-128,17720,4.12,91.3
4660,1996,-92,17900,4.12,91.3
4663,2052,-176,17872,4.12,91.3
4666,2000,-156,17652,4.12,91.3
4669,2048,-60,17868,4.12,91.3
4672,2024,-172,17704,4.12,91.3
4675,2124,-88,17804,4.12,91.3
4679,2044,-136,17844,4.12,91.3
4682,2088,-84,17856,4.12,91.3
4685,2004,-128,17872,4.12,91.3
4690,2048,-108,17736,4.12,91.3
4693,2104,-160,17792,4.12,91.3
4696,2124,-8,17832,4.12,91.3
4699,2048,-116,17692,4.12,91.3
4702,2112,-128,17888,4.12,91.3
4705,2064,-124,17820,4.12,91.3
4708,2028,-104,17868,4.12,91.3
4711,2112,-116,17952,4.12,91.3
4714,2004,-132,17752,4.12,91.3
4718,2076,-84,17700,4.12,91.3
4721,2020,-136,17840,4.12,91.3
4724,2092,-88,17780,4.12,91.3
4727,2028,-112,17748,4.12,91.3
4730,2112,-40,17780,4.12,91.3
4733,2116,-160,17764,4.12,91.3
4736,1984,-220,17820,4.12,91.3
4739,2080,-124,17804,4.12,91.3
4745,2052,-124,17580,4.12,91.3
4748,2096,-40,17704,4.12,91.3
4751,1928,-144,17716,4.12,91.3
4754,1984,-36,17760,4.12,91.3
4757,1976,0,17884,4.12,91.3
4760,2136,-140,17836,4.12,91.3
4763,1964,-64,17760,4.12,91.3
4766,2052,52,17712,4.12,91.3
4769,2092,-76,17972,4.12,91.3
4772,2036,-96,17816,4.12,91.3
4775,2000,-152,17828,4.12,91.3
4778,2016,-56,17732,4.12,91.3
4781,2016,-204,17864,4.12,91.3
4785,2044,-36,17796,4.12,91.3
4788,2000,-48,17700,4.12,91.3
4791,1964,-120,17688,4.12,91.3
4794,2100,-144,17808,4.12,91.3
4799,2000,-132,17800,4.12,91.3
4802,2084,-92,17812,4.12,91.3
4805,2128,-92,17768,4.12,91.3
4808,1980,-160,17772,4.12,91.3
4811,2060,-108,17872,4.12,91.3
4815,2116,-148,17680,4.12,91.3
4818,2024,-176,17816,4.12,91.3
4821,2044,-160,17748,4.12,91.3
4824,2000,-108,17676,4.12,91.3
4827,2000,-188,17852,4.12,91.3
4830,2124,-92,17756,4.12,91.3
4833,2168,-112,17808,4.12,91.3
4836,2100,-120,17820,4.12,91.3
4839,2080,-116,17812,4.12,91.3
4842,2004,-116,17780,4.12,91.3
4845,1996,-156,17944,4.12,91.3
4848,2028,-116,17868,4.12,91.3
4853,2080,-108,17788,4.12,91.3
4857,2092,-160,17820,4.12,91.3
4860,2052,-196,17876,4.12,91.3
4863,2100,-72,17740,4.12,91.3
4866,1924,-92,17800,4.12,91.3
4869,2080,-188,17772,4.12,91.3
4872,2072,-196,17724,4.12,91.3
4875,2056,-24,17780,4.12,91.3
4878,2132,-136,17740,4.12,91.3
4881,2052,-80,17652,4.12,91.3
4884,2140,-108,17780,4.12,91.3
4887,2040,-64,17848,4.12,91.3
4891,1992,-60,17908,4.12,91.3
4894,2076,-72,17820,4.12,91.3
4897,2008,-88,17868,4.12,91.3
4900,2116,-196,17648,4.12,91.3
4905,1920,-56,17960,4.12,91.3
4908,1988,-112,17864,4.12,91.3
4911,2128,-40,17804,4.12,91.3
4914,1960,-160,17776,4.12,91.3
4917,2100,-124,17736,4.12,91.3
4920,2004,-124,17788,4.12,91.3
4924,2148,-156,17824,4.12,91.3
4927,2084,-104,17760,4.12,91.3
4930,2020,-96,17708,4.12,91.3
4933,1936,-128,17820,4.12,91.3
4936,2080,-168,17680,4.12,91.3
4939,1948,-168,17644,4.12,91.3
4942,2100,-140,17776,4.12,91.3
4945,2000,-92,17832,4.12,91.3
4948,2052,-144,17784,4.12,91.3
4951,2008,-200,17700,4.12,91.3
4954,1972,-148,17724,4.12,91.3
4960,2140,-144,17924,4.12,91.3
4963,1968,-104,17820,4.12,91.3
4966,2092,-136,17868,4.12,91.3
4969,2092,-180,17728,4.12,91.3
4972,2088,-68,17876,4.12,91.3
4975,2044,-92,17916,4.12,91.3
4978,2036,-120,17872,4.12,91.3
4981,2132,-208,17740,4.12,91.3
4984,2132,-220,17868,4.12,91.3
4988,2096,-192,17848,4.12,91.3
4991,2036,-196,17848,4.12,91.3
4994,2004,-104,17848,4.12,91.3
4997,2156,-140,17772,4.12,91.3
5000,2128,-172,17864,4.12,91.3
5003,2092,-96,17760,4.12,91.3
5006,2076,-92,17728,4.12,91.3
5009,2068,-128,17884,4.12,91.3
5014,1976,-44,17860,4.12,91.3
5017,2176,-80,17772,4.12,91.3
5020,2020,-24,17804,4.12,91.3
5023,2072,-32,17684,4.12,91.3
5027,1948,-176,17804,4.12,91.3
5030,2100,-88,17772,4.12,91.3
5033,2000,-60,17700,4.12,91.3
5036,2088,-88,17848,4.12,91.3
5039,2092,-116,17812,4.12,91.3
5042,2036,-200,17700,4.12,91.3
5045,2056,-124,17792,4.12,91.3
5048,1948,-60,17784,4.12,91.3
5051,2084,-72,17860,4.12,91.3
5055,2048,-80,17820,4.12,91.3
5058,2060,-104,17736,4.12,91.3
5061,1984,-92,17864,4.12,91.3
5064,2072,-160,17704,4.12,91.3
5069,1996,-136,17860,4.12,91.3
5072,2004,-76,17996,4.12,91.3
5075,2024,-176,17936,4.12,91.3
5078,2080,-112,17836,4.12,91.3
5081,1932,-176,17620,4.12,91.3
5084,1908,-108,17760,4.12,91.3
5087,1908,-176,17828,4.12,91.3
5090,2044,-40,17812,4.12,91.3
5094,2160,-116,17852,4.12,91.3
5097,2080,-140,17756,4.12,91.3
5100,1888,-168,17844,4.12,91.3
5103,1960,-4,17792,4.12,91.3
5106,2196,-248,17956,4.12,91.3
5109,2068,-176,17800,4.12,91.3
5112,2084,-188,17628,4.12,91.3
5115,2048,-220,17748,4.12,91.3
5121,2012,-96,17956,4.12,91.3
5124,2128,-104,17824,4.12,91.3
5127,2168,-124,17868,4.12,91.3
5130,2016,-160,17692,4.12,91.3
5133,2000,-116,17828,4.12,91.3
5136,2116,-216,17688,4.12,91.3
5139,2164,-12,17760,4.12,91.3
5142,1996,-40,17820,4.12,91.3
5145,1980,-20,17736,4.12,91.3
5148,2060,-24,17900,4.12,91.3
5151,2096,-68,17872,4.12,91.3
5154,2100,-128,17792,4.12,91.3
5157,2036,-132,17612,4.12,91.3
5161,2084,-84,17700,4.12,91.3
5164,2044,-24,18000,4.12,91.3
5167,2136,-128,18168,4.12,91.3
5170,2012,-132,17920,4.12,91.3
5175,2064,-16,17548,4.12,91.3
5178,1956,-68,17660,4.12,91.3
5181,1912,-168,18004,4.12,91.3
5184,2172,-144,17968,4.12,91.3
5188,2072,-168,17596,4.12,91.3
5191,2004,-44,17604,4.12,91.3
5194,1824,-108,17972,4.12,91.3
5197,1948,-12,17972,4.12,91.3
5200,2256,-40,17600,4.12,91.3
5203,2116,-112,17572,4.12,91.3
5206,1908,-100,17696,4.12,91.3
5209,1728,-100,17960,4.12,91.3
5212,1836,-160,17808,4.12,91.3
5215,2192,-156,17736,4.12,91.3
5218,2092,-112,17680,4.12,91.3
5221,1984,-212,17808,4.12,91.3
5224,1916,-44,18096,4.12,91.3
5232,2084,-120,17824,4.12,91.3
5235,1996,-92,17832,4.12,91.3
5238,2008,-56,17848,4.12,91.3
5241,1880,-160,17820,4.12,91.3
5244,1988,-124,17960,4.12,91.3
5247,2008,-228,17712,4.12,91.3
5250,2108,-132,17992,4.12,91.3
5253,2136,-168,18008,4.12,91.3
5257,2056,-136,17804,4.12,91.3
5260,2004,-60,17736,4.12,91.3
5263,2028,-116,17764,4.12,91.3
5266,2004,-148,17796,4.12,91.3
5269,2092,-228,17704,4.12,91.3
5272,2068,-76,17764,4.12,91.3
5275,1972,-108,17736,4.12,91.3
5278,1956,-72,17672,4.12,91.3
5283,2092,-148,17820,4.12,91.3
5286,2176,-72,17948,4.12,91.3
5289,2084,-80,17712,4.12,91.3
5292,2112,-128,17552,4.12,91.3
5295,2188,-96,17780,4.12,91.3
5299,2160,-160,18040,4.12,91.3
5302,2136,-48,17752,4.12,91.3
5305,2144,-140,17828,4.12,91.3
5308,2048,-172,17704,4.12,91.3
5311,1980,-112,17944,4.12,91.3
5314,2088,-104,17792,4.12,91.3
5317,2124,-104,17644,4.12,91.3
5320,2108,-72,17844,4.12,91.3
5323,2116,-120,17796,4.12,91.3
5326,1992,-88,18016,4.12,91.3
5329,2028,-160,17696,4.12,91.3
5332,2116,-144,17616,4.12,91.3
5338,2004,-76,17804,4.12,91.3
5341,2104,-208,17752,4.12,91.3
5344,2032,-180,17740,4.12,91.3
5347,2104,-108,17712,4.12,91.3
5350,2020,-140,17808,4.12,91.3
5353,2028,-152,17752,4.12,91.3
5356,2112,-108,17812,4.12,91.3
5359,2160,-172,17664,4.12,91.3
5363,2064,-176,17892,4.12,91.3
5366,1960,-156,17880,4.12,91.3
5369,1956,-120,17688,4.12,91.3
5372,2044,-56,17788,4.12,91.3
5375,1992,-132,17744,4.12,91.3
5378,1996,-124,17844,4.12,91.3
5381,2028,-164,17760,4.12,91.3
5384,1876,-64,17740,4.12,91.3
5387,2044,-88,17776,4.12,91.3
5393,2008,-156,17840,4.12,91.3
5396,2068,-160,17588,4.12,91.3
5399,1988,-200,17824,4.12,91.3
5402,2052,-80,17964,4.12,91.3
5405,1944,-32,17712,4.12,91.3
5408,2088,-88,17712,4.12,91.3
5411,2092,-96,17772,4.12,91.3
5414,2028,-132,17764,4.12,91.3
5417,1944,-92,17892,4.12,91.3
5420,2016,-124,17792,4.12,91.3
5423,1924,-164,17808,4.12,91.3
5426,2064,44,17756,4.12,91.3
5430,1992,-148,17724,4.12,91.3
5433,2020,-88,17776,4.12,91.3
5436,2016,-100,17756,4.12,91.3
5439,1984,-264,17720,4.12,91.3
5442,1996,-108,17768,4.12,91.3
5447,2040,-80,17812,4.12,91.3
5450,2020,-132,17716,4.12,91.3
5453,2028,-80,17968,4.12,91.3
5456,1920,-116,17760,4.12,91.3
5460,1984,-112,17804,4.12,91.3
5463,2012,-136,17764,4.12,91.3
5466,2048,-72,17700,4.12,91.3
5469,2100,-200,17704,4.12,91.3
5472,2068,-72,17956,4.12,91.3
5475,2012,-108,17808,4.12,91.3
5478,2168,-128,17816,4.12,91.3
5481,2076,-108,17772,4.12,91.3
5484,2028,-128,17604,4.12,91.3
5487,2152,-184,17932,4.12,91.3
5490,2036,-68,17872,4.12,91.3
5493,2036,-124,17780,4.12,91.3
5499,2136,-180,17872,4.12,91.3
5502,2136,-140,17720,4.12,91.3
5505,2048,-196,17788,4.12,91.3
5508,2076,-72,17808,4.12,91.3
5511,2036,-152,17808,4.12,91.3
5514,2108,-88,17716,4.12,91.3
5517,2028,-124,17720,4.12,91.3
5520,2064,-192,17808,4.12,91.3
5523,1884,-116,17708,4.12,91.3
5527,2072,-68,17784,4.12,91.3
5530,2052,-120,17808,4.12,91.3
5533,2080,-172,17600,4.12,91.3
5536,2056,-120,17772,4.12,91.3
5539,2048,-140,17840,4.12,91.3
5542,1996,-32,17712,4.12,91.3
5545,1900,-116,17756,4.12,91.3
5548,2016,-120,17892,4.12,91.3
5553,2124,-132,17812,4.12,91.3
5557,1932,-108,17824,4.12,91.3
5560,1988,-52,17800,4.12,91.3
5563,2024,-128,17868,4.12,91.3
5566,2000,-92,17920,4.12,91.3
5569,2096,-152,17852,4.12,91.3
5572,2088,-76,17828,4.12,91.3
5575,1996,-160,17764,4.12,91.3
5578,2168,-68,17828,4.12,91.3
5581,2108,-132,17852,4.12,91.3
5584,2036,-188,17704,4.12,91.3
5587,1996,-160,17812,4.12,91.3
5591,2068,-116,17764,4.12,91.3
5594,2004,-36,17888,4.12,91.3
5597,2036,-152,17744,4.12,91.3
5600,2152,-124,17852,4.12,91.3
5603,1916,-92,17932,4.12,91.3
5608,2064,-164,17748,4.12,91.3
5611,1964,-116,17792,4.12,91.3
5614,2104,-100,17696,4.12,91.3
5617,1912,-44,17792,4.12,91.3
5620,2052,-196,17772,4.12,91.3
5624,2028,-132,17980,4.12,91.3
5627,1920,-176,17684,4.12,91.3
5630,2032,-136,17748,4.12,91.3
5633,1992,-164,17604,4.12,91.3
5636,2108,-104,17784,4.12,91.3
5639,2040,-180,17772,4.12,91.3
5642,2152,-244,17844,4.12,91.3
5645,2100,-120,17800,4.12,91.3
5648,2136,-180,17748,4.12,91.3
5651,2068,-148,17956,4.12,91.3
5654,2048,-156,17772,4.12,91.3
5660,2096,-164,17796,4.12,91.3
5663,2020,-156,17816,4.12,91.3
5666,2028,-136,17732,4.12,91.3
5669,2020,-144,17844,4.12,91.3
5672,2008,-192,17844,4.12,91.3
5675,2084,-152,17812,4.12,91.3
5678,2040,-92,17800,4.12,91.3
5681,2044,-108,17852,4.12,91.3
5684,2180,-144,17772,4.12,91.3
5687,2028,-132,17648,4.12,91.3
5690,2068,-64,17692,4.12,91.3
5693,2132,-76,17792,4.12,91.3
5696,2124,-88,17784,4.12,91.3
5700,2056,-116,17740,4.12,91.3
5703,2028,-108,17892,4.12,91.3
5706,1956,-92,17656,4.12,91.3
5709,2020,-116,17700,4.12,91.3
5714,2008,-148,17788,4.12,91.3
5717,2056,-172,17836,4.12,91.3
5720,2020,-64,17856,4.12,91.3
5723,2108,-92,17844,4.12,91.3
5726,2028,-192,17960,4.12,91.3
5729,2120,-120,17676,4.12,91.3
5732,2092,-96,17888,4.12,91.3
5735,1964,-160,17932,4.12,91.3
5739,2056,-176,17708,4.12,91.3
5742,1968,-16,17780,4.12,91.3
5745,2032,-24,17792,4.12,91.3
5748,1952,-80,17676,4.12,91.3
5751,2036,-92,17700,4.12,91.3
5754,2056,-76,17892,4.12,91.3
5757,2104,-76,18044,4.12,91.3
5760,2028,-108,17868,4.12,91.3
5763,2144,-84,17816,4.12,91.3
5768,2104,-116,17896,4.12,91.3
5772,2144,-140,17812,4.12,91.3
5775,2072,-84,17804,4.12,91.3
5778,2092,-72,17908,4.12,91.3
5781,2060,-120,17852,4.12,91.3
5784,2056,-56,17868,4.12,91.3
5787,2068,-168,17756,4.12,91.3
5790,2096,-104,17804,4.12,91.3
5793,2104,-64,17892,4.12,91.3
5796,2104,-228,17832,4.12,91.3
5799,2044,-148,17756,4.12,91.3
5802,2124,-120,17748,4.12,91.3
5806,2092,-96,17900,4.12,91.3
5809,2016,-168,17776,4.12,91.3
5812,2076,-156,17748,4.12,91.3
5815,1988,-80,17768,4.12,91.3
5820,2036,-52,17760,4.12,91.3
5823,2048,-144,17888,4.12,91.3
5826,2168,-132,17848,4.12,91.3
5829,2140,-96,17712,4.12,91.3
5832,2032,-184,17804,4.12,91.3
5835,2004,-144,17840,4.12,91.3
5839,2088,-200,17816,4.12,91.3
5842,1884,-140,17868,4.12,91.3
5845,2088,-116,17820,4.12,91.3
5848,2072,-112,17744,4.12,91.3
5851,2012,-108,17812,4.12,91.3
5854,2040,-80,17784,4.12,91.3
5857,2056,-144,17888,4.12,91.3
5860,2116,-168,17808,4.12,91.3
5863,1948,-192,17796,4.12,91.3
5866,2076,-168,17844,4.12,91.3
5869,2084,-252,17724,4.12,91.3
5875,1952,-84,17808,4.12,91.3
5878,2080,-208,17836,4.12,91.3
5881,2108,-164,17936,4.12,91.3
5884,2112,-184,17700,4.12,91.3
5887,1920,-92,17640,4.12,91.3
5890,1920,-68,17712,4.12,91.3
5893,2088,-160,17884,4.12,91.3
5896,2016,-124,18000,4.12,91.3
5900,2268,-56,17764,4.12,91.3
5903,2076,-68,17736,4.12,91.3
5906,2092,-8,17888,4.12,91.3
5909,2060,-44,17828,4.12,91.3
5912,2092,-124,17652,4.12,91.3
5915,2092,-156,17740,4.12,91.3
5918,2016,-92,17780,4.12,91.3
5921,2040,0,17620,4.12,91.3
5924,2048,-136,17620,4.12,91.3
5929,2048,-128,17948,4.12,91.3
5933,2056,-100,17912,4.12,91.3
5936,1932,-152,17912,4.12,91.3
5939,2068,-4,17836,4.12,91.3
5942,2024,-156,17928,4.12,91.3
5945,2012,-80,17684,4.12,91.3
5948,2044,-68,17756,4.12,91.3
5951,1928,-136,17760,4.12,91.3
5954,2008,-24,17688,4.12,91.3
5957,2072,-140,17840,4.12,91.3
5960,2036,-124,17768,4.12,91.3
5963,2052,-92,17764,4.12,91.3
5967,1984,-120,17732,4.12,91.3
5970,2032,-128,17832,4.12,91.3
5973,2064,-176,17720,4.12,91.3
5976,2108,-112,17692,4.12,91.3
5979,2132,-152,17780,4.12,91.3
5984,2096,-64,17780,4.12,91.3
5987,2052,-196,17912,4.12,91.3
5990,2044,-168,17884,4.12,91.3
5993,2060,-216,17784,4.12,91.3
5996,2128,-144,17780,4.12,91.3
6000,2120,-140,17856,4.12,91.3
6003,2080,-116,17784,4.12,91.3
6006,2052,-32,17856,4.12,91.3
6009,2024,-184,17568,4.12,91.3
6012,1956,-156,17796,4.12,91.3
6015,2132,-104,17936,4.12,91.3
6018,2068,-44,17972,4.12,91.3
6021,2120,-128,17752,4.12,91.3
6024,2064,-148,17784,4.12,91.3
6027,1948,-160,17828,4.12,91.3
6030,1964,-40,17888,4.12,91.3
6036,2152,-64,17824,4.12,91.3
6039,1984,-96,17796,4.12,91.3
6042,1944,-144,17712,4.12,91.3
6045,1952,-72,17800,4.12,91.3
6048,2080,-120,17716,4.12,91.3
6051,1984,0,17784,4.12,91.3
6054,1996,4,17752,4.12,91.3
6057,2004,-128,17832,4.12,91.3
6060,1976,-200,17704,4.12,91.3
6063,2060,-204,17904,4.12,91.3
6067,2032,-296,17744,4.12,91.3
6070,2100,-176,17988,4.12,91.3
6073,2172,-168,17800,4.12,91.3
6076,2048,-136,17820,4.12,91.3
6079,2136,-164,17744,4.12,91.3
6082,2060,-100,17872,4.12,91.3
6085,2060,-156,17816,4.12,91.3
6090,2224,-20,17792,4.12,91.3
6093,2176,-160,17724,4.12,91.3
6096,2064,-148,17668,4.12,91.3
6099,2176,-80,17768,4.12,91.3
6103,2144,-116,17704,4.12,91.3
6106,2132,-180,17852,4.12,91.3
6109,2092,-160,17728,4.12,91.3
6112,2072,-152,17960,4.12,91.3
6115,2032,-188,17904,4.12,91.3
6118,2164,-220,17772,4.12,91.3
6121,2172,-56,17768,4.12,91.3
6124,2056,-96,17816,4.12,91.3
6127,2036,-60,17724,4.12,91.3
6130,2104,-184,17700,4.12,91.3
6133,2100,-120,17724,4.12,91.3
6136,2012,-60,17840,4.12,91.3
6139,2008,-184,17768,4.12,91.3
6145,2012,-36,17972,4.12,91.3
6148,2124,-32,17740,4.12,91.3
6151,1964,-88,17744,4.12,91.3
6154,1948,-116,17656,4.12,91.3
6157,2012,-56,17780,4.12,91.3
6160,2052,-72,17688,4.12,91.3
6163,2032,-132,17804,4.12,91.3
6166,2036,32,17852,4.12,91.3
6169,1932,-184,17888,4.12,91.3
6172,1964,-56,17868,4.12,91.3
6175,2048,-56,17796,4.12,91.3
6178,2072,-28,17868,4.12,91.3
6182,2088,-44,17852,4.12,91.3
6185,2052,-36,17804,4.12,91.3
6188,2064,-128,17824,4.12,91.3
6191,2056,56,17768,4.12,91.3
6194,2076,-68,17768,4.12,91.3
6199,2028,0,17912,4.12,91.3
6202,2000,-8,17768,4.12,91.3
6205,2056,-64,17728,4.12,91.3
6208,2104,-64,17800,4.12,91.3
6212,2248,-164,17764,4.12,91.3
6215,2100,-44,17872,4.12,91.3
6218,2160,-164,17804,4.12,91.3
6221,2140,-60,17840,4.12,91.3
6224,2224,-124,17892,4.12,91.3
6227,2132,-132,17896,4.12,91.3
6230,2136,-144,17836,4.12,91.3
6233,2124,-160,17780,4.12,91.3
6236,2112,-136,17736,4.12,91.3
6239,2100,-192,17776,4.12,91.3
6242,1988,-228,17800,4.12,91.3
6245,2056,-260,17696,4.12,91.3
6248,2068,-224,17836,4.12,91.3
6254,2068,-136,18140,4.12,91.3
6257,2044,-188,17700,4.12,91.3
6260,1876,-284,17624,4.12,91.3
6263,1792,-272,17728,4.12,91.3
6266,1964,-152,17956,4.12,91.3
6270,2020,-156,18004,4.12,91.3
6273,2088,-196,17704,4.12,91.3
6276,2048,-184,17660,4.12,91.3
6279,1948,-224,17988,4.12,91.3
6282,1924,-212,18056,4.12,91.3
6285,1988,-164,17804,4.12,91.3
6288,2060,-132,17736,4.12,91.3
6291,2008,36,17728,4.12,91.3
6294,2016,-80,17868,4.12,91.3
6297,1952,-144,17800,4.12,91.3
6300,2028,40,17760,4.12,91.3
6306,2116,-72,18020,4.12,91.3
6309,2044,-124,17860,4.12,91.3
6312,2196,-68,17624,4.12,91.3
6315,2080,-120,17676,4.12,91.3
6318,2108,-48,17664,4.12,91.3
6321,2104,-84,17984,4.12,91.3
6324,2232,-60,18060,4.12,91.3
6327,2036,-160,17816,4.12,91.3
6330,2060,-140,17504,4.12,91.3
6334,2044,-32,17740,4.12,91.3
6337,2068,-100,18136,4.12,91.3
6340,2152,-132,17948,4.12,91.3
6343,2220,-196,17724,4.12,91.3
6346,1948,-180,17672,4.12,91.3
6349,1984,-168,18036,4.12,91.3
6352,2108,-100,17992,4.12,91.3
6355,2208,-140,17780,4.12,91.3
6360,2024,-168,17672,4.12,91.3
6363,1960,-148,17748,4.12,91.3
6366,1984,-100,17936,4.12,91.3
6369,2088,-128,17840,4.12,91.3
6373,2152,-72,17892,4.12,91.3
6376,2056,-104,17820,4.12,91.3
6379,1940,-140,17584,4.12,91.3
6382,2004,-168,17648,4.12,91.3
6385,1992,-224,17848,4.12,91.3
6388,2140,-164,17936,4.12,91.3
6391,2156,-12,17844,4.12,91.3
6394,1992,-32,17740,4.12,91.3
6397,1984,-220,17648,4.12,91.3
6401,1964,-152,17852,4.12,91.3
6404,2024,-40,17804,4.12,91.3
6407,2032,-120,17720,4.12,91.3
6410,2088,-44,17672,4.12,91.3
6415,1928,-60,17884,4.12,91.3
6418,2048,-140,17664,4.12,91.3
6421,2164,-80,17668,4.12,91.3
6424,2128,-64,17732,4.12,91.3
6427,2020,-132,17784,4.12,91.3
6430,2116,-124,17760,4.12,91.3
6433,2088,-112,17600,4.12,91.3
6437,2048,-132,17760,4.12,91.3
6440,2068,-136,17844,4.12,91.3
6443,2116,-240,17724,4.12,91.3
6446,2208,-128,17864,4.12,91.3
6449,2132,-64,17616,4.12,91.3
6452,2008,-160,17832,4.12,91.3
6455,2004,-140,17920,4.12,91.3
6458,2212,-172,17792,4.12,91.3
6461,2020,-236,17900,4.12,91.3
6467,2060,-124,17688,4.12,91.3
6470,2144,-108,17836,4.12,91.3
6473,2016,-160,17800,4.12,91.3
6476,2056,-236,17780,4.12,91.3
6479,2036,-264,17636,4.12,91.3
6482,2044,-256,17772,4.12,91.3
6485,2104,-188,17736,4.12,91.3
6488,2140,-184,17880,4.12,91.3
6491,2128,-176,17712,4.12,91.3
6494,2016,-44,17724,4.12,91.3
6497,1960,-84,17640,4.12,91.3
6501,1964,-116,17596,4.12,91.3
6504,1932,-84,17876,4.12,91.3
6507,2016,-44,17700,4.12,91.3
6510,2044,-92,17924,4.12,91.3
6513,1964,-156,17892,4.12,91.3
6516,1920,-36,17896,4.12,91.3
6521,1960,-76,17680,4.12,91.3
6524,2040,-8,17892,4.12,91.3
6527,2024,-72,17836,4.12,91.3
6530,2104,-72,17748,4.12,91.3
6533,2040,-100,17676,4.12,91.3
6537,2016,-72,17872,4.12,91.3
6540,2128,-72,17792,4.12,91.3
6543,1952,-112,17832,4.12,91.3
6546,2064,-104,17640,4.12,91.3
6549,2044,-4,17724,4.12,91.3
6552,2036,-92,17776,4.12,91.3
6555,2044,-156,17668,4.12,91.3
6558,2112,-60,17904,4.12,91.3
6561,2036,-164,17884,4.12,91.3
6564,1996,-48,17968,4.12,91.3
6567,2132,-88,17788,4.12,91.3
6570,2032,-104,17716,4.12,91.3
6575,2072,-108,17788,4.12,91.3
6579,2124,-68,17920,4.12,91.3
6582,2104,-88,17764,4.12,91.3
6585,2100,-188,17844,4.12,91.3
6588,2100,-204,17840,4.12,91.3
6591,2176,-120,17828,4.12,91.3
6594,2160,-48,17960,4.12,91.3
6597,2124,-168,17888,4.12,91.3
6600,2092,-104,17856,4.12,91.3
6603,2004,-124,17812,4.12,91.3
6606,2108,-116,17704,4.12,91.3
6609,2088,-160,17744,4.12,91.3
6613,2124,-120,17676,4.12,91.3
6616,2048,-160,17660,4.12,91.3
6619,2056,-132,17844,4.12,91.3
6622,2092,-208,17780,4.12,91.3
6627,2044,-136,17828,4.12,91.3
6630,2032,-88,17608,4.12,91.3
6633,1896,-148,17600,4.12,91.3
6636,1988,-220,17836,4.12,91.3
6639,1944,-160,17848,4.12,91.3
6642,2004,-68,17716,4.12,91.3
6646,2112,-264,17760,4.12,91.3
6649,2040,-296,17840,4.12,91.3
6652,1916,-172,18048,4.12,91.3
6655,2004,-168,18064,4.12,91.3
6658,2084,-56,17572,4.12,91.3
6661,1912,-128,17636,4.12,91.3
6664,1876,-124,17908,4.12,91.3
6667,1840,-60,17856,4.12,91.3
6670,2040,-68,17696,4.12,91.3
6673,2116,-112,17788,4.12,91.3
6676,2120,-196,17784,4.12,91.3
6682,1948,12,17984,4.12,91.3
6685,2028,-112,17764,4.12,91.3
6688,2072,-48,17612,4.12,91.3
6691,2032,-68,17724,4.12,91.3
6694,2064,-16,17796,4.12,91.3
6697,1980,-124,17960,4.12,91.3
6700,2092,-40,17796,4.12,91.3
6703,2192,-4,17932,4.12,91.3
6706,2116,-140,17764,4.12,91.3
6709,2028,-140,17740,4.12,91.3
6713,2008,-64,17840,4.12,91.3
6716,2168,-64,17928,4.12,91.3
6719,2212,-52,17744,4.12,91.3
6722,2072,-100,17784,4.12,91.3
6725,1988,-68,17660,4.12,91.3
6728,2092,-180,17740,4.12,91.3
6731,1840,-128,17620,4.12,91.3
6736,2096,-84,18132,4.12,91.3
6739,2120,32,17872,4.12,91.3
6742,2084,-124,17688,4.12,91.3
6745,1976,-200,17724,4.12,91.3
6749,1964,-200,17680,4.12,91.3
6752,1988,-156,17828,4.12,91.3
6755,2128,-204,17864,4.12,91.3
6758,2132,-140,17716,4.12,91.3
6761,1992,-212,17832,4.12,91.3
6764,1992,-192,17856,4.12,91.3
6767,2080,-160,17944,4.12,91.3
6770,2096,-132,17928,4.12,91.3
6773,2152,-156,17948,4.12,91.3
6776,2120,-128,17552,4.12,91.3
6780,1916,-104,17588,4.12,91.3
6783,2000,-76,17536,4.12,91.3
6786,2052,-164,18080,4.12,91.3
6791,2292,-236,17912,4.12,91.3
6794,2140,-84,17700,4.12,91.3
6797,1832,-88,17804,4.12,91.3
6800,1880,-64,17868,4.12,91.3
6803,2164,-64,17552,4.12,91.3
6807,2076,-180,17544,4.12,91.3
6810,2132,-52,17736,4.12,91.3
6813,1920,-112,18192,4.12,91.3
6816,2040,-200,18244,4.12,91.3
6819,1948,-216,17760,4.12,91.3
6822,2040,-148,17604,4.12,91.3
6825,1864,-156,17656,4.12,91.3
6828,1928,-68,17880,4.12,91.3
6831,2036,-32,17828,4.12,91.3
6834,2196,-100,17720,4.12,91.3
6837,2184,-100,17584,4.12,91.3
6843,1892,-136,17896,4.12,91.3
6846,2056,-140,18100,4.12,91.3
6849,2080,-44,17896,4.12,91.3
6852,2100,-32,17740,4.12,91.3
6855,1932,-104,17780,4.12,91.3
6858,2128,-148,17680,4.12,91.3
6861,2140,-36,17856,4.12,91.3
6864,2120,-132,17756,4.12,91.3
6867,2116,-68,17896,4.12,91.3
6870,2132,-20,17928,4.12,91.3
6874,2052,-140,17816,4.12,91.3
6877,2136,-152,17736,4.12,91.3
6880,2044,-20,17756,4.12,91.3
6883,1932,-32,17860,4.12,91.3
6886,2048,-116,17692,4.12,91.3
6889,2104,-104,17868,4.12,91.3
6892,2076,-140,17864,4.12,91.3
6897,2108,-84,17800,4.12,91.3
6900,2036,-32,17748,4.12,91.3
6904,1988,-60,17728,4.12,91.3
6907,1980,-60,17892,4.12,91.3
6910,1916,-52,17812,4.12,91.3
6913,2012,-96,18028,4.12,91.3
6916,2016,-20,17768,4.12,91.3
6919,2048,-112,17652,4.12,91.3
6922,1876,-132,17748,4.12,91.3
6925,1928,-136,17884,4.12,91.3
6928,2064,-120,17840,4.12,91.3
6931,2152,-28,17936,4.12,91.3
6934,2064,-108,17972,4.12,91.3
6938,2036,-148,17780,4.12,91.3
6941,1916,-208,17696,4.12,91.3
6944,2092,-192,17888,4.12,91.3
6947,2068,-172,17900,4.12,91.3
6954,2024,-92,17780,4.12,91.3
6957,2044,-144,17836,4.12,91.3
6960,2056,-212,17984,4.12,91.3
6963,2144,-184,17792,4.12,91.3
6966,2204,-208,17788,4.12,91.3
6969,1996,-112,17888,4.12,91.3
6972,1980,-76,17860,4.12,91.3
6975,2048,-108,17724,4.12,91.3
6978,2040,-308,17668,4.12,91.3
6981,2148,-80,17680,4.12,91.3
6984,2028,-88,17972,4.12,91.3
6987,2088,-228,17964,4.12,91.3
6991,2044,-52,17720,4.12,91.3
6994,2032,-92,17728,4.12,91.3
6997,2108,-24,17856,4.12,91.3
7000,2084,-88,17884,4.12,91.3
7003,2128,-8,17800,4.12,91.3
7008,2104,-60,17628,4.12,91.3
7011,1952,-76,17804,4.12,91.3
7014,2076,-92,17856,4.12,91.3
7017,2044,-136,17932,4.12,91.3
7020,2028,-40,17796,4.12,91.3
7024,2028,-172,17968,4.12,91.3
7027,2036,-168,17836,4.12,91.3
7030,2056,-136,17912,4.12,91.3
7033,2140,-80,17668,4.12,91.3
7036,2192,-144,17500,4.12,91.3
7039,2136,-128,17964,4.12,91.3
7042,2188,-280,18132,4.12,91.3
7045,2212,-128,17912,4.12,91.3
7048,2088,-132,17704,4.12,91.3
7051,2164,-244,17596,4.12,91.3
7054,2204,-156,17752,4.12,91.3
7060,2232,-136,17896,4.12,91.3
7063,2140,-156,17772,4.12,91.3
7066,2144,-160,17672,4.12,91.3
7069,2120,-96,17748,4.12,91.3
7072,2120,-200,17932,4.12,91.3
7075,2148,-136,17884,4.12,91.3
7078,2060,-124,17800,4.12,91.3
7081,2088,-116,17644,4.12,91.3
7084,2040,-280,17792,4.12,91.3
7087,2040,-124,17788,4.12,91.3
7091,2012,-148,17760,4.12,91.3
7094,2012,-116,17796,4.12,91.3
7097,1856,-64,17728,4.12,91.3
7100,1980,-108,17776,4.12,91.3
7103,1892,-16,17976,4.12,91.3
7106,1956,-164,17800,4.12,91.3
7109,1936,-36,17736,4.12,91.3
7114,1972,-100,17864,4.12,91.3
7118,1884,-132,17716,4.12,91.3
7121,1872,20,17780,4.12,91.3
7124,1928,-64,17716,4.12,91.3
7127,1896,-160,17876,4.12,91.3
7130,1980,-132,17864,4.12,91.3
7133,2048,-92,17896,4.12,91.3
7136,1924,-128,17704,4.12,91.3
7139,2068,-116,17636,4.12,91.3
7142,1980,-80,17912,4.12,91.3
7145,2024,-116,17736,4.12,91.3
7148,2144,-44,17860,4.12,91.3
7151,2068,-136,17736,4.12,91.3
7155,2128,-112,17756,4.12,91.3
7158,2044,-44,17736,4.12,91.3
7161,2208,-168,17700,4.12,91.3
7164,2172,-144,17856,4.12,91.3
7169,2064,-28,17776,4.12,91.3
7172,2104,-184,17844,4.12,91.3
7175,2108,-140,17904,4.12,91.3
7178,2176,-100,17676,4.12,91.3
7182,2112,-96,17712,4.12,91.3
7185,2132,-184,17900,4.12,91.3
7188,2112,-104,17880,4.12,91.3
7191,2116,-108,17884,4.12,91.3
7194,2108,-236,17784,4.12,91.3
7197,2088,-152,17800,4.12,91.3
7200,2096,-164,17848,4.12,91.3
7203,2116,-196,17668,4.12,91.3
7206,2080,-140,17708,4.12,91.3
7209,2080,-220,18080,4.12,91.3
7212,2040,-84,17720,4.12,91.3
7215,2052,-36,17856,4.12,91.3
7219,2040,-124,17856,4.12,91.3
7224,2016,-96,17820,4.12,91.3
7227,2064,-108,17844,4.12,91.3
7230,1984,-112,17804,4.12,91.3
7233,2076,-164,17756,4.12,91.3
7236,2028,-176,17744,4.12,91.3
7239,1972,-80,17836,4.12,91.3
7242,2024,-220,17804,4.12,91.3
7245,1944,-24,17828,4.12,91.3
7249,2040,-212,17816,4.12,91.3
7252,2024,-160,17736,4.12,91.3
7255,2096,24,17804,4.12,91.3
7258,2064,-144,17896,4.12,91.3
7261,2012,-208,17804,4.12,91.3
7264,2032,-108,17876,4.12,91.3
7267,2088,-92,17816,4.12,91.3
7270,2060,-20,17768,4.12,91.3
7276,2052,-188,17664,4.12,91.3
7279,1964,-180,17748,4.12,91.3
7282,2036,-164,17876,4.12,91.3
7285,2008,-112,17856,4.12,91.3
7288,2104,-144,17816,4.12,91.3
7291,2040,-196,17884,4.12,91.3
7294,2024,-236,17680,4.12,91.3
7297,2084,-116,17868,4.12,91.3
7300,2088,-156,17752,4.12,91.3
7303,2044,-208,17820,4.12,91.3
7306,2092,-188,17752,4.12,91.3
7309,2072,-188,17840,4.12,91.3
7312,2076,-52,17876,4.12,91.3
7316,2012,-32,17884,4.12,91.3
7319,2012,-180,17752,4.12,91.3
7322,2036,-240,17836,4.12,91.3
7325,2172,-72,17768,4.12,91.3
7330,2004,-168,17828,4.12,91.3
7333,2128,-28,17724,4.12,91.3
7336,2116,-56,17832,4.12,91.3
7339,2132,-120,17756,4.12,91.3
7343,2124,-148,17912,4.12,91.3
7346,2120,-144,17996,4.12,91.3
7349,2052,-56,17724,4.12,91.3
7352,2100,-116,17960,4.12,91.3
7355,2024,20,17804,4.12,91.3
7358,2044,-104,17692,4.12,91.3
7361,2080,-140,17952,4.12,91.3
7364,2108,52,17720,4.12,91.3
7367,2036,-52,17800,4.12,91.3
7370,2004,-56,17708,4.12,91.3
7373,2072,-60,17720,4.12,91.3
7376,2060,-68,17824,4.12,91.3
7379,2048,-116,17704,4.12,91.3
7385,2000,-112,17716,4.12,91.3
7388,2004,-100,17940,4.12,91.3
7391,2064,-120,17856,4.12,91.3
7394,1984,-96,17760,4.12,91.3
7397,2132,-104,17792,4.12,91.3
7400,2192,-120,17768,4.12,91.3
7403,1972,-56,17812,4.12,91.3
7406,2104,-176,17692,4.12,91.3
7409,2068,-112,17772,4.12,91.3
7413,2044,8,18072,4.12,91.3
7416,2100,-136,17892,4.12,91.3
7419,2108,-192,17692,4.12,91.3
7422,1988,-208,17620,4.12,91.3
7425,2016,-140,17920,4.12,91.3
7428,2032,-196,17956,4.12,91.3
7431,2084,-212,17768,4.12,91.3
7436,2008,-272,17784,4.12,91.3
7439,2084,-196,17840,4.12,91.3
7442,2124,-80,17920,4.12,91.3
7445,2052,-72,17904,4.12,91.3
7448,2000,-136,17824,4.12,91.3
7451,2072,-60,17744,4.12,91.3
7455,2088,-156,17752,4.12,91.3
7458,1952,-4,17816,4.12,91.3
7461,1976,-72,17832,4.12,91.3
7464,2080,-60,17868,4.12,91.3
7467,2108,-108,17716,4.12,91.3
7470,2116,0,17764,4.12,91.3
7473,1992,-96,17872,4.12,91.3
7476,2076,-208,17956,4.12,91.3
7479,2088,-280,17884,4.12,91.3
7482,2136,-128,17756,4.12,91.3
7485,2048,-168,17796,4.12,91.3
7491,2092,-184,17836,4.12,91.3
7494,2100,-260,17736,4.12,91.3
7497,2036,-124,17708,4.12,91.3
7500,2132,-140,17908,4.12,91.3
7503,2060,-220,17780,4.12,91.3
7506,2160,-172,17840,4.12,91.3
7509,2024,-212,17772,4.12,91.3
7512,2092,-176,17812,4.12,91.3
7515,2088,-200,17824,4.12,91.3
7518,2092,-128,17732,4.12,91.3
7522,2076,-68,17804,4.12,91.3
7525,2020,-228,17836,4.12,91.3
7528,2164,-92,17792,4.12,91.3
7531,2144,-136,17788,4.12,91.3
7534,2056,-136,17824,4.12,91.3
7537,2064,-108,17980,4.12,91.3
7540,2180,-80,17788,4.12,91.3
7545,1920,-208,17720,4.12,91.3
7548,2052,-40,17708,4.12,91.3
7551,1940,-60,17792,4.12,91.3
7555,2056,-68,17696,4.12,91.3
7558,2124,-60,17784,4.12,91.3
7561,2008,-8,17728,4.12,91.3
7564,1964,-12,17716,4.12,91.3
7567,2012,-4,17928,4.12,91.3
7570,2060,4,17808,4.12,91.3
7573,2012,24,17740,4.12,91.3
7576,1988,-48,17828,4.12,91.3
7579,1944,-112,17764,4.12,91.3
7582,1936,-84,17868,4.12,91.3
7585,2068,-160,17888,4.12,91.3
7589,2072,-48,17680,4.12,91.3
7592,2072,-76,17728,4.12,91.3
7595,2148,-32,17844,4.12,91.3
7600,2008,-92,17692,4.12,91.3
7603,2004,-64,17968,4.12,91.3
7606,2020,-148,17728,4.12,91.3
7609,2036,-196,17700,4.12,91.3
7612,2108,-176,17760,4.12,91.3
7616,2044,-228,17932,4.12,91.3
7619,2008,-216,17856,4.12,91.3
7622,2076,-128,17848,4.12,91.3
7625,2068,-232,17916,4.12,91.3
7628,2124,-132,17836,4.12,91.3
7631,2172,-204,17760,4.12,91.3
7634,2104,-216,18004,4.12,91.3
7637,2080,-192,17652,4.12,91.3
7640,2076,-204,17856,4.12,91.3
7643,1984,-156,17700,4.12,91.3
7646,2048,-184,17960,4.12,91.3
7649,2072,-260,17812,4.12,91.3
7655,2060,-184,17880,4.12,91.3
7658,2004,-136,17840,4.12,91.3
7661,2180,-76,17748,4.12,91.3
7664,2032,-132,17832,4.12,91.3
7667,2080,-112,17764,4.12,91.3
7670,2036,-104,17748,4.12,91.3
7673,2036,-32,17748,4.12,91.3
7676,2036,-144,17908,4.12,91.3
7679,2024,-20,17752,4.12,91.3
7683,2144,-32,17844,4.12,91.3
7686,1984,-164,17824,4.12,91.3
7689,1960,-8,17728,4.12,91.3
7692,2028,-16,17808,4.12,91.3
7695,2020,-124,17856,4.12,91.3
7698,2016,-140,17772,4.12,91.3
7701,2076,-64,17788,4.12,91.3
7706,1984,-156,17820,4.12,91.3
7709,2056,-124,17756,4.12,91.3
7712,1956,-104,17856,4.12,91.3
7715,2024,-124,17764,4.12,91.3
7718,2068,-148,17820,4.12,91.3
7722,2052,-164,17820,4.12,91.3
7725,2024,-188,17912,4.12,91.3
7728,2000,-140,17752,4.12,91.3
7731,2100,-20,17804,4.12,91.3
7734,2076,-156,17696,4.12,91.3
7737,2100,-20,17776,4.12,91.3
7740,2016,-96,17708,4.12,91.3
7743,2084,-156,17920,4.12,91.3
7746,2108,-120,17800,4.12,91.3
7750,2072,-116,17736,4.12,91.3
7753,2124,-52,17820,4.12,91.3
7756,2080,-176,17808,4.12,91.3
7761,2072,-64,17796,4.12,91.3
7764,2152,-148,17908,4.12,91.3
7767,2028,-132,17764,4.12,91.3
7770,2148,-88,17716,4.12,91.3
7773,2108,-200,17604,4.12,91.3
7777,2000,-124,17832,4.12,91.3
7780,2016,-60,17904,4.12,91.3
7783,2104,-120,17608,4.12,91.3
7786,2084,-144,17768,4.12,91.3
7789,2096,-92,17692,4.12,91.3
7792,2060,-8,17812,4.12,91.3
7795,2128,-96,17720,4.12,91.3
7798,1984,-132,17760,4.12,91.3
7801,2064,-60,17792,4.12,91.3
7804,2064,-104,17788,4.12,91.3
7807,1948,-120,17724,4.12,91.3
7810,2068,-100,17736,4.12,91.3
7816,1968,-68,17724,4.12,91.3
7819,1996,-144,17784,4.12,91.3
7822,2092,-156,17788,4.12,91.3
7825,2032,-76,17612,4.12,91.3
7828,1980,-124,17836,4.12,91.3
7831,1996,-236,17856,4.12,91.3
7834,2088,-52,17796,4.12,91.3
7837,2040,-116,17856,4.12,91.3
7840,2004,-148,17772,4.12,91.3
7843,2064,-108,17756,4.12,91.3
7846,2016,-156,17948,4.12,91.3
7849,2092,-204,17880,4.12,91.3
7853,2056,-160,17852,4.12,91.3
7856,2096,-120,17860,4.12,91.3
7859,2048,-96,17980,4.12,91.3
7862,2032,-188,17852,4.12,91.3
7867,2092,-60,17840,4.12,91.3
7870,2104,-208,17700,4.12,91.3
7873,2056,-116,17900,4.12,91.3
7876,1992,-44,17880,4.12,91.3
7879,2164,-60,17912,4.12,91.3
7882,2012,-92,17868,4.12,91.3
7885,2000,-124,17784,4.12,91.3
7888,2112,-104,17888,4.12,91.3
7891,2144,-168,17844,4.12,91.3
7895,2204,-120,17740,4.12,91.3
7898,2036,-140,17772,4.12,91.3
7901,2036,-152,17808,4.12,91.3
7904,2056,-120,17796,4.12,91.3
7907,2088,-192,17860,4.12,91.3
7910,1992,-64,17860,4.12,91.3
7913,2000,-64,17796,4.12,91.3
7916,1992,-140,17680,4.12,91.3
7921,1968,-220,17896,4.12,91.3
7925,2056,-24,17736,4.12,91.3
7928,2052,-124,17852,4.12,91.3
7931,2028,-28,17636,4.12,91.3
7934,2088,-120,17904,4.12,91.3
7937,1912,-48,17768,4.12,91.3
7940,2048,-104,17840,4.12,91.3
7943,2092,-120,17752,4.12,91.3
7946,1944,-68,17764,4.12,91.3
7949,2088,16,17764,4.12,91.3
7952,2008,-52,17832,4.12,91.3
7955,2052,8,17844,4.12,91.3
7958,2116,-92,17796,4.12,91.3
7962,2068,-124,17728,4.12,91.3
7965,2036,-76,17864,4.12,91.3
7968,2060,-180,17812,4.12,91.3
7971,2056,-44,17728,4.12,91.3
7976,2060,-72,17860,4.12,91.3
7979,2104,-192,17704,4.12,91.3
7982,2056,-152,17844,4.12,91.3
7985,2036,-160,17800,4.12,91.3
7988,2004,-168,17772,4.12,91.3
7992,2108,-20,17824,4.12,91.3
7995,2088,-152,17768,4.12,91.3
7998,2084,-140,17764,4.12,91.3
8001,1976,-132,17680,4.12,91.3
8004,2020,-168,17888,4.12,91.3
8007,2032,-116,17848,4.12,91.3
8010,2028,-200,17876,4.12,91.3
8013,2056,-112,17836,4.12,91.3
8016,2100,-104,17904,4.12,91.3
8019,1972,-116,17760,4.12,91.3
8022,2168,-100,17976,4.12,91.3
8025,1920,-80,17924,4.12,91.3
8031,2056,-108,17764,4.12,91.3
8034,2060,-96,17832,4.12,91.3
8037,2092,-172,17852,4.12,91.3
8040,2100,-160,17780,4.12,91.3
8043,2020,-148,17856,4.12,91.3
8046,2000,-100,17780,4.12,91.3
8049,1992,-56,17952,4.12,91.3
8052,2144,-116,17832,4.12,91.3
8056,2036,-120,17704,4.12,91.3
8059,2084,-112,17900,4.12,91.3
8062,2056,-32,17872,4.12,91.3
8065,2104,-64,17892,4.12,91.3
8068,2056,-152,17888,4.12,91.3
8071,2064,-224,17772,4.12,91.3
8074,2024,-148,17692,4.12,91.3
8077,2024,-180,17900,4.12,91.3
8083,2008,-112,17628,4.12,91.3
8086,2064,-116,17676,4.12,91.3
8089,2076,-44,17748,4.12,91.3
8092,2100,-156,17800,4.12,91.3
8095,2088,-112,17700,4.12,91.3
8098,1944,-172,17884,4.12,91.3
8101,2084,-104,17828,4.12,91.3
8104,1996,-100,17944,4.12,91.3
8107,2040,-56,17748,4.12,91.3
8110,2004,-176,17788,4.12,91.3
8113,2148,-176,17852,4.12,91.3
8116,2108,-180,17940,4.12,91.3
8119,2040,-120,17892,4.12,91.3
8123,2020,-56,17820,4.12,91.3
8126,1996,-108,17788,4.12,91.3
8129,1984,-176,17744,4.12,91.3
8132,1964,-132,17932,4.12,91.3
8137,2036,-84,17760,4.12,91.3
8140,2132,-76,17620,4.12,91.3
8143,2044,-104,17772,4.12,91.3
8146,1980,-168,17704,4.12,91.3
8150,2092,-164,17776,4.12,91.3
8153,2088,-136,17900,4.12,91.3
8156,2128,-132,17816,4.12,91.3
8159,2008,-28,17832,4.12,91.3
8162,2044,-120,17848,4.12,91.3
8165,2036,-104,17756,4.12,91.3
8168,2004,-156,17760,4.12,91.3
8171,2068,-204,17772,4.12,91.3
8174,2136,-108,17796,4.12,91.3
8177,2100,-88,17764,4.12,91.3
8180,2096,-168,17844,4.12,91.3
8183,2064,-12,17716,4.12,91.3
8186,2072,-144,17900,4.12,91.3
8192,2020,-80,17748,4.12,91.3
8195,2064,-140,17816,4.12,91.3
8198,2216,4,17840,4.12,91.3
8201,2008,-100,17748,4.12,91.3
8204,2008,-188,17848,4.12,91.3
8207,2044,-32,17968,4.12,91.3
8210,2016,-112,17692,4.12,91.3
8213,2140,-192,17832,4.12,91.3
8217,1920,-24,17876,4.12,91.3
8220,2092,-108,17912,4.12,91.3
8223,2080,-64,17880,4.12,91.3
8226,2080,-128,17780,4.12,91.3
8229,2020,-104,17756,4.12,91.3
8232,2108,-76,17868,4.12,91.3
8235,2108,-204,17716,4.12,91.3
8238,2052,-232,17928,4.12,91.3
8243,2144,-128,17828,4.12,91.3
8246,2088,-96,17792,4.12,91.3
8249,2076,-172,17848,4.12,91.3
8252,2024,-112,17972,4.12,91.3
8255,2084,-92,17820,4.12,91.3
8259,2020,-180,17772,4.12,91.3
8262,2012,-116,17764,4.12,91.3
8265,2024,-232,17976,4.12,91.3
8268,2060,-72,17852,4.12,91.3
8271,2068,-84,17808,4.12,91.3
8274,2000,-184,17724,4.12,91.3
8277,2040,-96,17840,4.12,91.3
8280,2136,-148,17720,4.12,91.3
8283,2024,-64,17872,4.12,91.3
8287,1980,-108,17804,4.12,91.3
8290,2000,-28,17836,4.12,91.3
8293,2092,-144,17712,4.12,91.3
8298,2064,-148,17736,4.12,91.3
8301,2120,-64,17816,4.12,91.3
8304,1988,-120,17712,4.12,91.3
8307,2072,-88,17648,4.12,91.3
8310,2064,-52,17780,4.12,91.3
8313,2084,-164,17816,4.12,91.3
8316,2116,-84,17804,4.12,91.3
8319,1976,-44,17760,4.12,91.3
8322,2092,-152,17596,4.12,91.3
8325,2076,-8,17740,4.12,91.3
8328,2032,-4,17748,4.12,91.3
8331,2020,-56,17928,4.12,91.3
8334,2060,-100,18012,4.12,91.3
8338,2008,-96,17988,4.12,91.3
8341,2116,-24,17836,4.12,91.3
8344,2168,-72,17672,4.12,91.3
8347,2084,-124,17704,4.12,91.3
8352,2044,-120,17832,4.12,91.3
8355,1960,-156,17920,4.12,91.3
8358,2068,-148,17804,4.12,91.3
8361,2080,-140,17920,4.12,91.3
8365,2072,-100,17696,4.12,91.3
8368,2080,-188,17892,4.12,91.3
8371,2160,-188,17828,4.12,91.3
8374,2072,-156,17776,4.12,91.3
8377,2108,-208,17920,4.12,91.3
8380,2096,-244,17676,4.12,91.3
8383,2060,-140,17876,4.12,91.3
8386,2072,-100,17904,4.12,91.3
8389,2068,-148,17768,4.12,91.3
8393,2044,-140,17888,4.12,91.3
8396,2008,0,17936,4.12,91.3
8399,2072,-140,17752,4.12,91.3
8402,2052,-120,17716,4.12,91.3
8407,2056,-8,17780,4.12,91.3
8410,2064,-88,17752,4.12,91.3
8413,2028,-236,17744,4.12,91.3
8416,2048,-148,17824,4.12,91.3
8419,2120,-32,17932,4.12,91.3
8422,2032,-100,17704,4.12,91.3
8425,2024,-108,17808,4.12,91.3
8428,2116,-120,17788,4.12,91.3
8432,1996,-128,17760,4.12,91.3
8435,1960,-132,17908,4.12,91.3
8438,1980,-160,17800,4.12,91.3
8441,2084,-140,17808,4.12,91.3
8444,1984,-116,17776,4.12,91.3
8447,2044,-88,17676,4.12,91.3
8450,1980,-88,17700,4.12,91.3
8453,2048,-252,17832,4.12,91.3
8459,2024,-68,17820,4.12,91.3
8462,1988,-84,17820,4.12,91.3
8465,2044,-12,17756,4.12,91.3
8468,2116,-192,17736,4.12,91.3
8471,2024,-96,17912,4.12,91.3
8474,2076,-88,17704,4.12,91.3
8477,2032,-116,17836,4.12,91.3
8480,2056,-148,17864,4.12,91.3
8483,2152,-100,17892,4.12,91.3
8486,2024,-40,17860,4.12,91.3
8489,2060,-144,17764,4.12,91.3
8492,2072,8,17816,4.12,91.3
8495,2084,-40,17824,4.12,91.3
8499,2080,-204,17640,4.12,91.3
8502,2064,-104,17744,4.12,91.3
8505,2196,-188,17900,4.12,91.3
8508,2016,-64,17708,4.12,91.3
8513,2164,-176,17876,4.12,91.3
8516,1992,-132,17840,4.12,91.3
8519,2060,-96,17820,4.12,91.3
8522,2160,-88,17932,4.12,91.3
8526,2028,-128,17820,4.12,91.3
8529,2072,-92,17856,4.12,91.3
8532,1996,-68,17812,4.12,91.3
8535,2068,-92,17792,4.12,91.3
8538,2136,-64,17752,4.12,91.3
8541,2108,-132,17656,4.12,91.3
8544,2040,-104,17728,4.12,91.3
8547,2056,-168,17724,4.12,91.3
8550,2008,-112,17884,4.12,91.3
8553,2000,-152,17752,4.12,91.3
8556,2024,-244,17808,4.12,91.3
8559,2064,-144,17684,4.12,91.3
8562,2044,-208,17824,4.12,91.3
8568,2092,-168,17876,4.12,91.3
8571,1996,-80,17792,4.12,91.3
8574,2064,-136,17880,4.12,91.3
8577,2008,-164,17888,4.12,91.3
8580,2036,-24,17696,4.12,91.3
8583,2004,-88,17824,4.12,91.3
8586,2064,-144,17844,4.12,91.3
8589,2092,-184,17820,4.12,91.3
8592,2116,4,17900,4.12,91.3
8596,2008,-64,17700,4.12,91.3
8599,2056,-148,17888,4.12,91.3
8602,2024,-168,17832,4.12,91.3
8605,1996,-12,17692,4.12,91.3
8608,2096,-100,17960,4.12,91.3
8611,2068,-100,17872,4.12,91.3
8614,2092,-120,17756,4.12,91.3
8617,2000,-52,17728,4.12,91.3
8622,2116,-136,17836,4.12,91.3
8625,2036,-172,17816,4.12,91.3
8629,1996,-96,17808,4.12,91.3
8632,2004,-12,17704,4.12,91.3
8635,2016,-144,17892,4.12,91.3
8638,2148,-140,17796,4.12,91.3
8641,1988,-32,17736,4.12,91.3
8644,2156,-84,17828,4.12,91.3
8647,2052,-192,17764,4.12,91.3
8650,2076,-116,17800,4.12,91.3
8653,2068,-32,17816,4.12,91.3
8656,2064,-92,17824,4.12,91.3
8660,2044,-156,17880,4.12,91.3
8663,2056,-56,17768,4.12,91.3
8666,2016,-128,17908,4.12,91.3
8669,2028,-136,17928,4.12,91.3
8672,2020,-84,17916,4.12,91.3
8678,1984,-120,17772,4.12,91.3
8681,2104,-148,17796,4.12,91.3
8684,2084,-104,17684,4.12,91.3
8687,1928,-76,17732,4.12,91.3
8690,2048,-200,17772,4.12,91.3
8693,2040,-72,17948,4.12,91.3
8696,2072,-204,17936,4.12,91.3
8699,1960,-80,17828,4.12,91.3
8702,2104,-104,17992,4.12,91.3
8705,1984,-68,17820,4.12,91.3
8708,2048,-88,17844,4.12,91.3
8711,2040,-132,17836,4.12,91.3
8715,2084,-76,17760,4.12,91.3
8718,2072,-168,17824,4.12,91.3
8721,2120,-156,17640,4.12,91.3
8724,2016,-80,17908,4.12,91.3
8729,2056,-88,17756,4.12,91.3
8732,2120,-80,17704,4.12,91.3
8735,2076,-188,17828,4.12,91.3
8738,2028,-112,17756,4.12,91.3
8741,2052,-80,17820,4.12,91.3
8744,2072,-156,17792,4.12,91.3
8747,2008,-56,17908,4.12,91.3
8750,2028,-112,17880,4.12,91.3
8753,2056,-196,17800,4.12,91.3
8757,2028,-60,17980,4.12,91.3
8760,2112,-156,17780,4.12,91.3
8763,2096,-88,17844,4.12,91.3
8766,2044,-84,17816,4.12,91.3
8769,2116,-96,17744,4.12,91.3
8772,2008,-116,17808,4.12,91.3
8775,2036,-124,17752,4.12,91.3
8778,2128,-160,17728,4.12,91.3
8784,1904,-76,17864,4.12,91.3
8787,2072,-200,17844,4.12,91.3
8790,2028,-112,17744,4.12,91.3
8793,2036,-96,17644,4.12,91.3
8796,1912,-84,17780,4.12,91.3
8799,2120,-116,17852,4.12,91.3
8802,2020,-112,17888,4.12,91.3
8805,2028,-72,17708,4.12,91.3
8808,2016,-156,17812,4.12,91.3
8811,1972,-176,17748,4.12,91.3
8814,1944,-156,17604,4.12,91.3
8817,2056,-104,17768,4.12,91.3
8820,2008,-140,17736,4.12,91.3
8824,1956,-84,17640,4.12,91.3
8827,1996,-52,17876,4.12,91.3
8830,2088,-112,17752,4.12,91.3
8833,1936,-152,17700,4.12,91.3
8838,2084,-136,17808,4.12,91.3
8841,2036,-136,17756,4.12,91.3
8844,1948,-76,17844,4.12,91.3
8847,2076,-80,17808,4.12,91.3
8851,2052,-112,17736,4.12,91.3
8854,2044,-116,17816,4.12,91.3
8857,2012,-116,17860,4.12,91.3
8860,2040,-92,18012,4.12,91.3
8863,1948,-144,17848,4.12,91.3
8866,2132,-88,17704,4.12,91.3
8869,2108,-100,17832,4.12,91.3
8872,2004,-140,17712,4.12,91.3
8875,2104,8,17844,4.12,91.3
8878,2028,-124,17852,4.12,91.3
8881,2052,-80,17852,4.12,91.3
8884,2124,-140,17844,4.12,91.3
8887,2108,-52,17800,4.12,91.3
8893,2040,-132,17928,4.12,91.3
8896,2064,-84,17856,4.12,91.3
8899,2076,-148,17988,4.12,91.3
8902,2056,-76,17792,4.12,91.3
8905,2008,-104,17784,4.12,91.3
8908,2008,-68,17708,4.12,91.3
8911,2036,-36,17816,4.12,91.3
8914,2080,-100,17800,4.12,91.3
8918,2048,52,17896,4.12,91.3
8921,2008,-112,17768,4.12,91.3
8924,2056,-140,17768,4.12,91.3
8927,2004,0,17676,4.12,91.3
8930,2032,-160,17792,4.12,91.3
8933,1980,-48,17836,4.12,91.3
8936,2000,-80,17756,4.12,91.3
8939,2088,-132,17788,4.12,91.3
8945,1960,-72,17800,4.12,91.3
8948,2036,-36,17852,4.12,91.3
8951,2108,8,17792,4.12,91.3
8954,2024,-16,17896,4.12,91.3
8957,2004,-220,17820,4.12,91.3
8960,2052,-116,17808,4.12,91.3
8963,2012,-100,17724,4.12,91.3
8966,2060,-8,17836,4.12,91.3
8969,2136,-124,17672,4.12,91.3
8972,2048,-200,17780,4.12,91.3
8976,2040,-100,17804,4.12,91.3
8979,2076,-212,17736,4.12,91.3
8982,2068,-188,17820,4.12,91.3
8985,2152,-112,17804,4.12,91.3
8988,2008,-188,17816,4.12,91.3
8991,2008,-92,17820,4.12,91.3
8994,2036,-176,17796,4.12,91.3
8999,2088,-96,17808,4.12,91.3
9002,2036,-212,17764,4.12,91.3
9005,2052,-252,17884,4.12,91.3
9009,1944,-156,17744,4.12,91.3
9012,2016,-188,17732,4.12,91.3
9015,2088,-112,17872,4.12,91.3
9018,2076,-120,17772,4.12,91.3
9021,2136,-64,17864,4.12,91.3
9024,1980,-92,17836,4.12,91.3
9027,2048,-72,17832,4.12,91.3
9030,1992,-144,17704,4.12,91.3
9033,2056,-80,17704,4.12,91.3
9036,2052,-92,17892,4.12,91.3
9040,2056,-116,17888,4.12,91.3
9043,2000,-160,17800,4.12,91.3
9046,2044,-136,17788,4.12,91.3
9049,2112,-100,17660,4.12,91.3
9054,2004,-76,17868,4.12,91.3
9057,2020,-124,17824,4.12,91.3
9060,2028,-116,17660,4.12,91.3
9063,2132,-216,17944,4.12,91.3
9066,2052,-96,17948,4.12,91.3
9070,2092,-112,17864,4.12,91.3
9073,2112,-120,17828,4.12,91.3
9076,1864,-160,17700,4.12,91.3
9079,2020,-140,17912,4.12,91.3
9082,2012,-140,17680,4.12,91.3
9085,2100,-48,17596,4.12,91.3
9088,1924,-128,17780,4.12,91.3
9091,1992,-156,17780,4.12,91.3
9094,2080,-72,17888,4.12,91.3
9097,2120,-188,17636,4.12,91.3
9100,2000,-116,17840,4.12,91.3
9103,2044,-72,17800,4.12,91.3
9109,2084,-232,17892,4.12,91.3
9112,2036,-96,17888,4.12,91.3
9115,2124,-112,17816,4.12,91.3
9118,2112,-164,17700,4.12,91.3
9121,1956,-24,17888,4.12,91.3
9124,2084,32,17648,4.12,91.3
9127,2108,-220,17936,4.12,91.3
9130,2088,-80,17696,4.12,91.3
9133,2088,-128,17792,4.12,91.3
9136,1996,-24,17780,4.12,91.3
9139,2040,-204,17788,4.12,91.3
9142,2044,-140,17868,4.12,91.3
9146,2060,-84,17672,4.12,91.3
9149,2092,-160,17876,4.12,91.3
9152,2120,-76,17792,4.12,91.3
9155,2104,-88,17724,4.12,91.3
9160,2040,-196,17816,4.12,91.3
9163,1984,-100,17960,4.12,91.3
9166,2016,-40,17884,4.12,91.3
9169,2068,-260,17944,4.12,91.3
9172,2024,-56,17764,4.12,91.3
9175,2028,-164,17620,4.12,91.3
9178,1928,-52,17756,4.12,91.3
9181,1988,-172,17848,4.12,91.3
9184,2064,-28,17728,4.12,91.3
9188,2072,-136,17728,4.12,91.3
9191,2036,-164,17796,4.12,91.3
9194,2020,-16,17844,4.12,91.3
9197,2072,-80,17748,4.12,91.3
9200,2056,-176,17936,4.12,91.3
9203,1988,-116,17716,4.12,91.3
9206,2008,-116,17872,4.12,91.3
9209,2076,-88,17772,4.12,91.3
9215,1968,-84,17908,4.12,91.3
9218,2088,-196,17680,4.12,91.3
9221,2056,-132,17828,4.12,91.3
9224,2104,-116,17784,4.12,91.3
9227,1960,-16,17812,4.12,91.3
9230,2032,-192,17760,4.12,91.3
9233,2032,-140,17716,4.12,91.3
9236,2008,-120,17796,4.12,91.3
9239,2156,-8,17832,4.12,91.3
9242,2012,100,17848,4.12,91.3
9245,2064,-144,17772,4.12,91.3
9248,2076,-156,17800,4.12,91.3
9251,2056,-140,17764,4.12,91.3
9255,2084,-112,17760,4.12,91.3
9258,2036,-224,17780,4.12,91.3
9261,2028,-56,17900,4.12,91.3
9264,2196,-68,17740,4.12,91.3
9269,1984,-68,17700,4.12,91.3
9272,2096,-60,17832,4.12,91.3
9275,1964,-20,17716,4.12,91.3
9278,2192,-88,17876,4.12,91.3
9282,2072,-116,17784,4.12,91.3
9285,2036,-196,17740,4.12,91.3
9288,2040,-192,17844,4.12,91.3
9291,1968,-108,17784,4.12,91.3
9294,1916,-104,17688,4.12,91.3
9297,2104,-124,17720,4.12,91.3
9300,2016,-132,17656,4.12,91.3
9303,2052,-144,17892,4.12,91.3
9306,2036,-68,17796,4.12,91.3
9309,2060,-116,17808,4.12,91.3
9312,2076,-60,17644,4.12,91.3
9315,2032,-116,17760,4.12,91.3
9318,2020,-104,17752,4.12,91.3
9324,2104,-64,17776,4.12,91.3
9327,2048,-72,17880,4.12,91.3
9330,2136,-124,17996,4.12,91.3
9333,1956,-208,17688,4.12,91.3
9336,2032,-200,17716,4.12,91.3
9339,1940,-92,17936,4.12,91.3
9342,2020,-224,17820,4.12,91.3
9345,2040,-208,17896,4.12,91.3
9349,2076,-132,17732,4.12,91.3
9352,2016,-140,17880,4.12,91.3
9355,1992,-68,17752,4.12,91.3
9358,1936,-140,17792,4.12,91.3
9361,1972,-160,17756,4.12,91.3
9364,2116,-80,17792,4.12,91.3
9367,1992,-100,17880,4.12,91.3
9370,1988,-132,17904,4.12,91.3
9375,2024,-192,17808,4.12,91.3
9379,2044,-116,17852,4.12,91.3
9382,2056,-80,17832,4.12,91.3
9385,2072,-92,17924,4.12,91.3
9388,2052,-184,17740,4.12,91.3
9391,2068,-88,17864,4.12,91.3
9394,1984,-100,17700,4.12,91.3
9397,2004,-108,17848,4.12,91.3
9400,2016,-48,17880,4.12,91.3
9403,2016,4,17720,4.12,91.3
9406,2120,-80,17828,4.12,91.3
9409,2080,-136,17736,4.12,91.3
9412,2128,-112,17808,4.12,91.3
9416,2088,-92,17740,4.12,91.3
9419,2096,-160,17748,4.12,91.3
9422,2104,-28,17748,4.12,91.3
9425,2092,-132,17752,4.12,91.3
9430,2016,-172,17820,4.12,91.3
9433,2068,-164,17756,4.12,91.3
9436,2028,-168,17808,4.12,91.3
9439,1972,12,17852,4.12,91.3
9442,1972,-264,17716,4.12,91.3
9446,2060,-208,17676,4.12,91.3
9449,2028,-76,17968,4.12,91.3
9452,2008,-88,17820,4.12,91.3
9455,2080,-180,17800,4.12,91.3
9458,2016,-212,17860,4.12,91.3
9461,2008,-156,17840,4.12,91.3
9464,2124,-116,17832,4.12,91.3
9467,2092,-160,17856,4.12,91.3
9470,1988,-148,18004,4.12,91.3
9473,2000,-112,17840,4.12,91.3
9476,2084,-64,17796,4.12,91.3
9479,2060,-156,17684,4.12,91.3
9485,2164,-160,17884,4.12,91.3
9488,2020,-84,17820,4.12,91.3
9491,2008,-116,17836,4.12,91.3
9494,2152,-164,17804,4.12,91.3
9497,2096,-60,17788,4.12,91.3
9500,2080,-164,17852,4.12,91.3
9503,2048,-72,17716,4.12,91.3
9506,2016,-68,17732,4.12,91.3
9510,2040,-80,17864,4.12,91.3
9513,2104,-140,17808,4.12,91.3
9516,2020,-76,17844,4.12,91.3
9519,2096,-148,17852,4.12,91.3
9522,2144,-148,17800,4.12,91.3
9525,2080,-192,17668,4.12,91.3
9528,1984,-148,17872,4.12,91.3
9531,2028,-76,17756,4.12,91.3
9534,2080,-188,17688,4.12,91.3
9541,2156,-108,17928,4.12,91.3
9545,2072,-108,17676,4.12,91.3
9548,2076,-136,17836,4.12,91.3
9551,2060,-40,17748,4.12,91.3
9554,1968,-104,17880,4.12,91.3
9557,1984,-72,17760,4.12,91.3
9560,1944,-152,17864,4.12,91.3
9563,1984,-80,17716,4.12,91.3
9566,2108,-124,17868,4.12,91.3
9569,2060,-96,17728,4.12,91.3
9572,2096,-112,17852,4.12,91.3
9575,2000,-132,17812,4.12,91.3
9579,2016,60,17736,4.12,91.3
9582,2032,-192,17780,4.12,91.3
9585,2052,-96,17872,4.12,91.3
9588,2080,-76,17768,4.12,91.3
9593,2112,-108,17756,4.12,91.3
9596,1988,-52,17648,4.12,91.3
9599,1880,-156,17832,4.12,91.3
9602,2032,-124,17768,4.12,91.3
9605,2056,-148,17892,4.12,91.3
9608,2064,-104,17684,4.12,91.3
9611,2008,-164,17844,4.12,91.3
9614,2020,-100,17744,4.12,91.3
9617,2064,-168,17872,4.12,91.3
9621,2116,-88,17700,4.12,91.3
9624,1984,-148,17720,4.12,91.3
9627,2092,-92,17832,4.12,91.3
9630,2016,-108,17772,4.12,91.3
9633,2048,-152,17808,4.12,91.3
9636,2124,-72,17736,4.12,91.3
9639,1972,-124,17868,4.12,91.3
9642,1968,-104,17936,4.12,91.3
9647,2080,-108,17748,4.12,91.3
9651,2072,-184,17872,4.12,91.3
9654,1992,-44,17676,4.12,91.3
9657,2028,-100,17808,4.12,91.3
9660,2112,-228,17928,4.12,91.3
9663,2016,-88,17780,4.12,91.3
9666,2024,-116,17816,4.12,91.3
9669,1992,-72,17796,4.12,91.3
9672,2080,-184,17780,4.12,91.3
9675,1944,-152,17792,4.12,91.3
9678,2000,-120,17840,4.12,91.3
9681,2008,-152,17772,4.12,91.3
9684,2004,-232,17820,4.12,91.3
9688,2052,-180,17820,4.12,91.3
9691,1992,-156,17752,4.12,91.3
9694,2092,-60,17692,4.12,91.3
9697,2008,-140,17820,4.12,91.3
9702,2060,-124,17828,4.12,91.3
9705,2032,-184,17900,4.12,91.3
9708,2040,-132,17912,4.12,91.3
9711,2024,-64,17700,4.12,91.3
9714,2020,-104,17828,4.12,91.3
9718,2180,-124,17868,4.12,91.3
9721,2076,-152,17740,4.12,91.3
9724,2052,-52,17852,4.12,91.3
9727,2096,-116,17748,4.12,91.3
9730,2072,-112,17800,4.12,91.3
9733,2048,-172,17656,4.12,91.3
9736,2020,-108,17832,4.12,91.3
9739,2024,-104,17756,4.12,91.3
9742,2092,-68,17864,4.12,91.3
9745,2060,-132,17696,4.12,91.3
9748,2072,-144,17936,4.12,91.3
9754,1988,-148,17860,4.12,91.3
9757,2060,-184,17868,4.12,91.3
9760,2176,-56,17832,4.12,91.3
9763,2164,-116,17904,4.12,91.3
9766,1996,-96,17784,4.12,91.3
9769,1956,-28,17724,4.12,91.3
9772,2064,-160,17808,4.12,91.3
9775,2008,-164,17716,4.12,91.3
9778,1964,-116,17752,4.12,91.3
9782,2032,-116,17756,4.12,91.3
9785,2040,-8,17920,4.12,91.3
9788,2008,-132,17752,4.12,91.3
9791,2004,-212,17872,4.12,91.3
9794,2056,-284,17692,4.12,91.3
9797,2036,-160,17772,4.12,91.3
9800,2044,-64,17676,4.12,91.3
9803,2056,-176,17852,4.12,91.3
9809,2080,-128,17664,4.12,91.3
9812,2036,-104,17776,4.12,91.3
9815,1984,-124,17788,4.12,91.3
9818,2112,-56,17736,4.12,91.3
9821,1992,-132,17848,4.12,91.3
9824,1996,-4,17872,4.12,91.3
9827,1956,-92,17744,4.12,91.3
9830,2040,-160,17552,4.12,91.3
9833,2076,-88,17812,4.12,91.3
9836,2016,-100,17780,4.12,91.3
9839,1960,-84,17912,4.12,91.3
9842,2156,-120,17752,4.12,91.3
9845,1968,-28,17752,4.12,91.3
9849,2092,-108,17796,4.12,91.3
9852,2072,-116,17804,4.12,91.3
9855,2000,-124,17864,4.12,91.3
9858,2076,-64,17860,4.12,91.3
9863,2032,-132,17832,4.12,91.3
9866,2108,-12,17788,4.12,91.3
9869,1964,-40,17724,4.12,91.3
9872,2144,-12,17668,4.12,91.3
9876,2068,-120,17848,4.12,91.3
9879,2060,-24,17852,4.12,91.3
9882,2120,-240,17864,4.12,91.3
9885,2060,-172,17832,4.12,91.3
9888,2000,28,17868,4.12,91.3
9891,1952,-132,17808,4.12,91.3
9894,2108,-144,17796,4.12,91.3
9897,2116,-108,17688,4.12,91.3
9900,2168,-116,17748,4.12,91.3
9903,2124,-56,17744,4.12,91.3
9906,2012,-68,17680,4.12,91.3
9909,2000,-108,17836,4.12,91.3
9912,1944,-8,17608,4.12,91.3
9918,2084,-20,17752,4.12,91.3
9921,2084,-28,17876,4.12,91.3
9924,2120,-52,17776,4.12,91.3
9927,2112,-140,17720,4.12,91.3
9930,2140,-72,17844,4.12,91.3
9933,2012,-168,17840,4.12,91.3
9936,2160,-200,17600,4.12,91.3
9939,1960,-108,17764,4.12,91.3
9943,2052,-148,17732,4.12,91.3
9946,1996,-76,17964,4.12,91.3
9949,1952,-140,17776,4.12,91.3
9952,2000,-4,17784,4.12,91.3
9955,2020,-124,17896,4.12,91.3
9958,2052,-96,17828,4.12,91.3
9961,2008,-108,17784,4.12,91.3
9964,2084,-156,17676,4.12,91.3
9969,2032,-60,17840,4.12,91.3
9972,1952,-112,17828,4.12,91.3
9975,2100,-108,17836,4.12,91.3
9978,2084,-204,17716,4.12,91.3
9981,2008,-216,17756,4.12,91.3
9985,2024,-108,17792,4.12,91.3
9988,2056,-136,17820,4.12,91.3
9991,1984,-156,17804,4.12,91.3
9994,2020,-76,17792,4.12,91.3
9997,2008,-116,17924,4.12,91.3
10000,2120,-160,17684,4.12,91.3
10003,2024,-192,17796,4.12,91.3
10006,1984,-32,17896,4.12,91.3
10009,2060,-96,17860,4.12,91.3
10013,2036,-124,17820,4.12,91.3
10016,2040,-96,17888,4.12,91.3
10019,2024,-56,17804,4.12,91.3
10024,1984,-184,17844,4.12,91.3
10027,2000,-140,17764,4.12,91.3
10030,2056,-168,17792,4.12,91.3
10033,2020,-132,17728,4.12,91.3
10036,2104,-48,17744,4.12,91.3
10039,2008,-60,17692,4.12,91.3
10042,2104,-32,17888,4.12,91.3
10045,2092,-108,17776,4.12,91.3
10048,2044,-80,17756,4.12,91.3
10051,2040,-116,17828,4.12,91.3
10055,2020,-148,17756,4.12,91.3
10058,2036,-188,17820,4.12,91.3
10061,2092,-164,17772,4.12,91.3
10064,2052,-192,17764,4.12,91.3
10067,2112,-80,17636,4.12,91.3
10070,2052,-228,17912,4.12,91.3
10075,2100,-148,17736,4.12,91.3
10078,2052,-32,17684,4.12,91.3
10081,2068,-168,17796,4.12,91.3
10084,2080,-168,17920,4.12,91.3
10088,2024,-184,17744,4.12,91.3
10091,2080,-172,17552,4.12,91.3
10094,2088,-120,17748,4.12,91.3
10097,1916,-260,17832,4.12,91.3
10100,2100,-192,17932,4.12,91.3
10103,2016,-112,17744,4.12,91.3
10106,2028,-144,17784,4.12,91.3
10109,1900,-168,17736,4.12,91.3
10112,1984,-24,17856,4.12,91.3
10116,2076,-160,17820,4.12,91.3
10119,2032,-108,17892,4.12,91.3
10122,1992,-132,17700,4.12,91.3
10127,1968,-144,17788,4.12,91.3
10130,2056,-156,17840,4.12,91.3
10133,2028,-76,17892,4.12,91.3
10136,2028,-120,17852,4.12,91.3
10139,2060,-44,17904,4.12,91.3
10142,2000,-80,17888,4.12,91.3
10145,2092,-52,17880,4.12,91.3
10148,2176,-148,17868,4.12,91.3
10152,2080,-88,17744,4.12,91.3
10155,1988,0,17900,4.12,91.3
10158,2060,-108,17916,4.12,91.3
10161,2136,-212,17912,4.12,91.3
10164,2040,-72,17908,4.12,91.3
10167,2056,-92,17716,4.12,91.3
10170,2068,-116,17792,4.12,91.3
10173,2084,-108,17744,4.12,91.3
10179,2084,-192,17724,4.12,91.3
10182,2000,-88,17852,4.12,91.3
10185,2092,-112,17892,4.12,91.3
10188,2068,-168,17816,4.12,91.3
10191,2120,-12,17688,4.12,91.3
10194,2036,-168,17792,4.12,91.3
10197,2028,36,17804,4.12,91.3
10200,2028,-196,17824,4.12,91.3
10203,2036,-152,17784,4.12,91.3
10206,2084,-32,17816,4.12,91.3
10209,2160,-88,17824,4.12,91.3
10212,2168,-132,17768,4.12,91.3
10215,2028,-124,17812,4.12,91.3
10219,2020,-148,17740,4.12,91.3
10222,2132,-84,17872,4.12,91.3
10225,2112,-56,17792,4.12,91.3
10228,1976,-80,17752,4.12,91.3
10233,2048,-28,17812,4.12,91.3
10236,2008,-116,17740,4.12,91.3
10239,2040,-168,17840,4.12,91.3
10242,2136,-4,17792,4.12,91.3
10246,1960,-88,17856,4.12,91.3
10249,2036,-104,17764,4.12,91.3
10252,2084,-152,17828,4.12,91.3
10255,2044,-184,18028,4.12,91.3
10258,1984,-100,17820,4.12,91.3
10261,1960,-160,17784,4.12,91.3
10264,2044,-104,17772,4.12,91.3
10267,1956,-84,17656,4.12,91.3
10270,2088,-88,17832,4.12,91.3
10274,1980,-84,17808,4.12,91.3
10277,2064,-124,17788,4.12,91.3
10280,2100,-112,17820,4.12,91.3
10285,1972,-72,17836,4.12,91.3
10288,2008,-112,17716,4.12,91.3
10291,2092,-20,17844,4.12,91.3
10294,2056,-80,17900,4.12,91.3
10297,2100,-184,17764,4.12,91.3
10300,1972,-156,17760,4.12,91.3
10303,2016,-164,17684,4.12,91.3
10306,2084,-124,17788,4.12,91.3
10310,2096,-68,17880,4.12,91.3
10313,1988,-68,17788,4.12,91.3
10316,2056,-48,17704,4.12,91.3
10319,2092,-120,17860,4.12,91.3
10322,2124,24,17932,4.12,91.3
10325,1972,-200,17824,4.12,91.3
10328,2148,-84,17688,4.12,91.3
10331,1976,-160,17744,4.12,91.3
10337,2124,-188,17928,4.12,91.3
10340,2020,-112,17816,4.12,91.3
10343,2080,-192,17800,4.12,91.3
10346,2064,-84,17724,4.12,91.3
10349,2096,-196,17656,4.12,91.3
10352,2088,-160,17760,4.12,91.3
10355,2032,-72,17856,4.12,91.3
10358,2040,-104,17784,4.12,91.3
10361,2108,-144,17776,4.12,91.3
10364,2044,-100,17824,4.12,91.3
10367,2036,-152,17856,4.12,91.3
10370,2104,-188,17856,4.12,91.3
10374,2012,-120,17712,4.12,91.3
10377,2028,-100,17800,4.12,91.3
10380,2028,-132,17788,4.12,91.3
10383,2008,-164,17804,4.12,91.3
10389,2068,-136,17656,4.12,91.3
10392,2044,-116,17828,4.12,91.3
10395,2020,-64,17916,4.12,91.3
10398,2056,-32,18008,4.12,91.3
10401,2092,-80,17816,4.12,91.3
10404,2052,-96,17692,4.12,91.3
10407,1996,-20,17820,4.12,91.3
10410,2028,-44,17936,4.12,91.3
10414,2020,-100,17920,4.12,91.3
10417,2020,-96,17880,4.12,91.3
10420,2120,-96,17860,4.12,91.3
10423,2068,-148,17784,4.12,91.3
10426,2044,-4,17836,4.12,91.3
10429,2016,-68,17752,4.12,91.3
10432,2088,-72,17880,4.12,91.3
10435,2028,-104,17656,4.12,91.3
10438,2064,-68,17804,4.12,91.3
10443,2068,-80,17932,4.12,91.3
10446,1984,-116,17820,4.12,91.3
10449,1988,-72,17788,4.12,91.3
10452,1944,-108,17852,4.12,91.3
10456,2092,-220,17792,4.12,91.3
10459,2052,-248,17884,4.12,91.3
10462,2172,-80,17820,4.12,91.3
10465,2116,-136,17884,4.12,91.3
10468,2088,-100,17788,4.12,91.3
10471,2052,-168,17936,4.12,91.3
10474,1988,-116,17808,4.12,91.3
10477,2036,-140,17756,4.12,91.3
10480,2004,-132,17864,4.12,91.3
10483,1988,-116,17872,4.12,91.3
10486,2076,-96,17712,4.12,91.3
10489,2020,-100,17804,4.12,91.3
10495,2156,-140,17888,4.12,91.3
10498,2020,-148,17776,4.12,91.3
10501,1992,-64,17716,4.12,91.3
10504,2028,-80,17712,4.12,91.3
10507,2064,-112,17820,4.12,91.3
10510,2052,-96,17920,4.12,91.3
10513,2040,-24,17880,4.12,91.3
10516,2024,-72,17784,4.12,91.3
10520,1996,-120,17820,4.12,91.3
10523,2004,-156,17808,4.12,91.3
10526,2016,-192,17864,4.12,91.3
10529,2136,-124,17780,4.12,91.3
10532,2016,-52,17744,4.12,91.3
10535,1992,-44,17948,4.12,91.3
10538,2112,-92,17796,4.12,91.3
10541,2024,-188,17600,4.12,91.3
10546,1984,-120,17764,4.12,91.3
10550,2064,-152,17768,4.12,91.3
10553,1952,-200,17804,4.12,91.3
10556,2072,-92,17904,4.12,91.3
10559,2008,-112,17752,4.12,91.3
10562,2096,-100,17724,4.12,91.3
10565,1996,8,17792,4.12,91.3
10568,2080,-104,17884,4.12,91.3
10571,2108,-180,17768,4.12,91.3
10574,2024,-80,17836,4.12,91.3
10577,2056,-104,17792,4.12,91.3
10580,2016,-120,17728,4.12,91.3
10584,2056,-184,17728,4.12,91.3
10587,1960,-192,17796,4.12,91.3
10590,2000,-128,17764,4.12,91.3
10593,2104,-156,17816,4.12,91.3
10598,2112,-68,17952,4.12,91.3
10601,2000,-72,17872,4.12,91.3
10604,2056,-144,17668,4.12,91.3
10607,2100,-128,17936,4.12,91.3
10610,2008,-224,17852,4.12,91.3
10614,2060,-164,17912,4.12,91.3
10617,1980,-88,17636,4.12,91.3
10620,2052,-152,17736,4.12,91.3
10623,2060,-168,17800,4.12,91.3
10626,2072,-64,17808,4.12,91.3
10629,2032,-56,17848,4.12,91.3
10632,2052,-72,17668,4.12,91.3
10635,2036,-72,17812,4.12,91.3
10638,2052,-116,17728,4.12,91.3
10641,2076,0,17736,4.12,91.3
10644,2064,-164,17732,4.12,91.3
10647,2040,-96,17824,4.12,91.3
10653,2116,-108,17868,4.12,91.3
10656,2024,-160,17688,4.12,91.3
10659,2112,-200,17744,4.12,91.3
10662,2008,-104,17728,4.12,91.3
10665,2112,-148,17804,4.12,91.3
10668,2016,-80,17988,4.12,91.3
10671,1992,-164,17832,4.12,91.3
10674,2136,-56,17816,4.12,91.3
10678,2056,0,17760,4.12,91.3
10681,2044,-52,17696,4.12,91.3
10684,2104,-80,17840,4.12,91.3
10687,2108,-208,17848,4.12,91.3
10690,1992,-124,17824,4.12,91.3
10693,2068,-124,17688,4.12,91.3
10696,2180,-28,17852,4.12,91.3
10699,2072,-112,17764,4.12,91.3
10705,2120,-144,17644,4.12,91.3
10708,2092,-96,17792,4.12,91.3
10711,2024,-60,17736,4.12,91.3
10714,2060,-104,17800,4.12,91.3
10717,2076,-36,17872,4.12,91.3
10720,1996,-124,17792,4.12,91.3
10723,2008,-72,17788,4.12,91.3
10726,2044,-156,17772,4.12,91.3
10729,2012,-12,17792,4.12,91.3
10732,2016,-112,17864,4.12,91.3
10736,1980,8,17860,4.12,91.3
10739,2080,-72,17864,4.12,91.3
10742,1996,-168,17804,4.12,91.3
10745,2076,-64,17844,4.12,91.3
10748,2000,-180,17852,4.12,91.3
10751,1996,-212,17720,4.12,91.3
10756,2040,-92,17904,4.12,91.3
10759,2004,-144,17960,4.12,91.3
10762,2056,-168,17732,4.12,91.3
10765,2064,-220,17824,4.12,91.3
10769,2028,-72,17816,4.12,91.3
10772,2076,-84,17772,4.12,91.3
10775,2076,-168,17792,4.12,91.3
10778,2080,-144,17856,4.12,91.3
10781,2004,-64,17880,4.12,91.3
10784,2112,-128,17712,4.12,91.3
10787,2056,-180,17856,4.12,91.3
10790,2000,-136,17840,4.12,91.3
10793,2112,-104,17908,4.12,91.3
10797,2032,-116,17808,4.12,91.3
10800,1924,-128,17924,4.12,91.3
10803,1996,-72,17748,4.12,91.3
10808,2000,-212,17800,4.12,91.3
10811,1996,36,17752,4.12,91.3
10814,2112,-136,17920,4.12,91.3
10817,2000,-168,17824,4.12,91.3
10820,1940,-176,17956,4.12,91.3
10823,2092,-160,17864,4.12,91.3
10826,2044,-188,17892,4.12,91.3
10829,2088,-128,17816,4.12,91.3
10833,2028,-144,17808,4.12,91.3
10836,2012,-240,17768,4.12,91.3
10839,1944,-148,17772,4.12,91.3
10842,2056,-124,17812,4.12,91.3
10845,1992,-140,17724,4.12,91.3
10848,2008,-80,17828,4.12,91.3
10851,1980,-64,17744,4.12,91.3
10854,2064,-172,17884,4.12,91.3
10859,2116,-156,17808,4.12,91.3
10862,2016,-172,17760,4.12,91.3
10865,2048,-96,17752,4.12,91.3
10868,2028,-112,17748,4.12,91.3
10871,2076,-116,17748,4.12,91.3
10875,2064,-56,17712,4.12,91.3
10878,1992,-80,17956,4.12,91.3
10881,2072,-192,17960,4.12,91.3
10884,2052,-52,17748,4.12,91.3
10887,2100,-72,17612,4.12,91.3
10890,2056,-116,17732,4.12,91.3
10893,2108,-64,17868,4.12,91.3
10896,2152,-128,17900,4.12,91.3
10899,2064,-68,17732,4.12,91.3
10902,2112,-156,17856,4.12,91.3
10905,1996,-120,17712,4.12,91.3
10908,2016,-80,17840,4.12,91.3
10914,1984,-236,17816,4.12,91.3
10917,2108,-152,17668,4.12,91.3
10920,2052,-212,17824,4.12,91.3
10923,2152,-132,17880,4.12,91.3
10926,2156,-104,17860,4.12,91.3
10929,2004,-100,17832,4.12,91.3
10932,2024,-128,17816,4.12,91.3
10935,2056,-68,17852,4.12,91.3
10939,2044,-104,17816,4.12,91.3
10942,2032,-64,17760,4.12,91.3
10945,2044,-160,17868,4.12,91.3
10948,2004,-108,17888,4.12,91.3
10951,2024,-160,17632,4.12,91.3
10954,2088,-132,17836,4.12,91.3
10957,1972,-208,17796,4.12,91.3
10960,2056,-48,17820,4.12,91.3
10965,1976,-116,17668,4.12,91.3
10969,2056,-44,17856,4.12,91.3
10972,2048,-56,17680,4.12,91.3
10975,1972,-24,17744,4.12,91.3
10978,2028,12,17740,4.12,91.3
10981,2040,-172,17888,4.12,91.3
10984,2020,0,17692,4.12,91.3
10987,2068,-164,17768,4.12,91.3
10990,2056,-184,17768,4.12,91.3
10993,2068,-64,17852,4.12,91.3
10996,2080,48,17768,4.12,91.3
10999,2064,-68,17764,4.12,91.3
11003,2040,-160,17648,4.12,91.3
11006,1984,-52,17844,4.12,91.3
11009,2036,-92,17788,4.12,91.3
11012,2052,-96,17624,4.12,91.3
11017,2088,-124,17708,4.12,91.3
11020,2068,-64,17760,4.12,91.3
11023,2064,-124,17824,4.12,91.3
11026,2036,-180,17824,4.12,91.3
11029,2112,-128,17724,4.12,91.3
11033,1920,-124,17880,4.12,91.3
11036,2072,-96,17996,4.12,91.3
11039,2040,-160,17828,4.12,91.3
11042,2112,-124,17900,4.12,91.3
11045,1976,-160,17820,4.12,91.3
11048,2004,-204,17844,4.12,91.3
11051,2036,-176,17764,4.12,91.3
11054,2060,-132,17688,4.12,91.3
11057,2028,-104,17900,4.12,91.3
11060,2028,-64,17680,4.12,91.3
11063,2056,-76,17736,4.12,91.3
11069,1940,-48,17764,4.12,91.3
11072,2072,-72,17744,4.12,91.3
11075,2108,-84,17712,4.12,91.3
11078,2112,-140,17724,4.12,91.3
11081,2124,-140,17920,4.12,91.3
11084,2172,-56,17696,4.12,91.3
11087,2016,-220,17784,4.12,91.3
11090,2008,-28,17728,4.12,91.3
11093,2068,-32,17804,4.12,91.3
11097,2028,-128,17816,4.12,91.3
11100,2160,-120,17896,4.12,91.3
11103,2032,-120,17796,4.12,91.3
11106,2028,-36,17796,4.12,91.3
11109,2020,-112,17816,4.12,91.3
11112,1932,-40,17760,4.12,91.3
11115,2016,4,17808,4.12,91.3
11118,2108,-64,17740,4.12,91.3
11123,2052,-56,17808,4.12,91.3
11126,2032,-152,17860,4.12,91.3
11130,2124,0,17808,4.12,91.3
11133,2020,-84,17760,4.12,91.3
11136,2180,16,17924,4.12,91.3
11139,1984,-84,17936,4.12,91.3
11142,2160,-64,17732,4.12,91.3
11145,1984,-96,17780,4.12,91.3
11148,1968,-176,17808,4.12,91.3
11151,2180,-116,17828,4.12,91.3
11154,2044,-148,17912,4.12,91.3
11157,2108,-224,17880,4.12,91.3
11161,2072,-16,17776,4.12,91.3
11164,2072,-128,17696,4.12,91.3
11167,1936,-92,17916,4.12,91.3
11170,2200,4,17844,4.12,91.3
11175,2008,-116,17792,4.12,91.3
11178,2044,-72,17832,4.12,91.3
11181,2016,-104,17668,4.12,91.3
11184,2052,-64,17960,4.12,91.3
11187,2008,-60,17784,4.12,91.3
11191,1984,-100,17828,4.12,91.3
11194,2048,-104,17748,4.12,91.3
11197,2084,16,17892,4.12,91.3
11200,2052,-112,17936,4.12,91.3
11203,2048,-76,17920,4.12,91.3
11206,2072,-160,17848,4.12,91.3
11209,2044,-20,17848,4.12,91.3
11212,2032,-124,17784,4.12,91.3
11215,2092,-84,17792,4.12,91.3
11218,1956,-164,17820,4.12,91.3
11221,2044,-144,17944,4.12,91.3
11227,2020,-36,17768,4.12,91.3
11230,2156,-76,17948,4.12,91.3
11233,2064,-188,17888,4.12,91.3
11236,1984,-176,17780,4.12,91.3
11239,2096,-184,17872,4.12,91.3
11242,2032,-176,17836,4.12,91.3
11245,2056,-148,17852,4.12,91.3
11248,2072,-228,17828,4.12,91.3
11251,2108,-248,17728,4.12,91.3
11254,2056,-176,17748,4.12,91.3
11257,2080,-152,17756,4.12,91.3
11260,2072,-188,17796,4.12,91.3
11264,2048,-340,17752,4.12,91.3
11267,2180,-212,17768,4.12,91.3
11270,2160,-212,17828,4.12,91.3
11273,2036,-128,17612,4.12,91.3
11278,2088,-396,17916,4.12,91.3
11281,2108,-92,17756,4.12,91.3
11284,2088,-308,17676,4.12,91.3
11287,2132,-280,17700,4.12,91.3
11290,2096,-156,18044,4.12,91.3
11293,2056,-180,17744,4.12,91.3
11296,2168,-124,17832,4.12,91.3
11299,2068,-144,17820,4.12,91.3
11302,2084,-68,17928,4.12,91.3
11306,1848,124,17588,4.12,91.3
11309,2000,-160,17796,4.12,91.3
11312,1864,204,17976,4.12,91.3
11315,1896,48,17636,4.12,91.3
11318,2032,-20,18052,4.12,91.3
11321,1940,240,17716,4.12,91.3
11324,1784,-108,18008,4.12,91.3
11327,2124,-80,17804,4.12,91.3
11333,2184,68,17784,4.12,91.3
11336,1876,0,17752,4.12,91.3
11339,1784,52,17972,4.12,91.3
11342,2252,-8,17748,4.12,91.3
11345,1992,68,17940,4.12,91.3
11348,2016,100,17536,4.12,91.3
11351,2052,-88,17944,4.12,91.3
11354,2048,4,17804,4.12,91.3
11357,2192,-96,17512,4.12,91.3
11360,2112,-164,17900,4.12,91.3
11363,2120,-184,17904,4.12,91.3
11366,2004,-128,17864,4.12,91.3
11370,2136,-264,17716,4.12,91.3
11373,2180,-144,17596,4.12,91.3
11376,2028,-256,17900,4.12,91.3
11379,2124,-100,17892,4.12,91.3
11384,2196,-240,17816,4.12,91.3
11387,2172,-168,17896,4.12,91.3
11390,2052,-252,17764,4.12,91.3
11393,2132,-272,17552,4.12,91.3
11397,2224,-100,17760,4.12,91.3
11400,2132,-200,17888,4.12,91.3
11403,2124,-120,17752,4.12,91.3
11406,2188,-192,17776,4.12,91.3
11409,2068,-256,17716,4.12,91.3
11412,2008,-272,17556,4.12,91.3
11415,2092,-204,17812,4.12,91.3
11418,2216,-80,17756,4.12,91.3
11421,2088,-84,17860,4.12,91.3
11424,2020,-88,17812,4.12,91.3
11427,2064,-244,17864,4.12,91.3
11430,1968,-124,17956,4.12,91.3
11436,1968,-168,17852,4.12,91.3
11439,2028,-220,17924,4.12,91.3
11442,2072,-36,17764,4.12,91.3
11445,2044,-12,17920,4.12,91.3
11448,2052,-32,17848,4.12,91.3
11451,1996,-116,17900,4.12,91.3
11454,1968,-92,17804,4.12,91.3
11457,2092,-120,17796,4.12,91.3
11460,1992,-44,17880,4.12,91.3
11464,2004,-236,17764,4.12,91.3
11467,2028,-176,17752,4.12,91.3
11470,2020,-76,17760,4.12,91.3
11473,1936,-116,17868,4.12,91.3
11476,2000,-176,17780,4.12,91.3
11479,2056,-44,17792,4.12,91.3
11482,2088,-108,17744,4.12,91.3
11485,2028,-88,17764,4.12,91.3
11491,2068,-192,17852,4.12,91.3
11494,2096,-116,17744,4.12,91.3
11497,2004,-168,17872,4.12,91.3
11500,2104,-132,17756,4.12,91.3
11503,2124,-236,17892,4.12,91.3
11506,2064,-116,17684,4.12,91.3
11509,2092,-84,17588,4.12,91.3
11512,2056,-152,17720,4.12,91.3
11515,1984,-116,17756,4.12,91.3
11518,2184,-164,17752,4.12,91.3
11521,2092,-56,17888,4.12,91.3
11524,2104,-144,17796,4.12,91.3
11528,2032,-128,17752,4.12,91.3
11531,2076,-132,17960,4.12,91.3
11534,2128,-128,17684,4.12,91.3
11537,2100,-116,17716,4.12,91.3
11542,2044,-116,17768,4.12,91.3
11546,2092,-168,17740,4.12,91.3
11549,2092,-36,17792,4.12,91.3
11552,2080,-116,17716,4.12,91.3
11555,2016,-168,17684,4.12,91.3
11558,2044,-88,17708,4.12,91.3
11561,2172,-116,17756,4.12,91.3
11564,2116,-100,17784,4.12,91.3
11567,2020,-148,17784,4.12,91.3
11570,1972,-72,17800,4.12,91.3
11573,2124,-20,17780,4.12,91.3
11576,2048,-16,17892,4.12,91.3
11580,1956,-140,17712,4.12,91.3
11583,2040,-96,17892,4.12,91.3
11586,1936,-144,17796,4.12,91.3
11589,2028,-96,17928,4.12,91.3
11594,1964,-104,17764,4.12,91.3
11597,2076,-172,17860,4.12,91.3
11600,1932,-88,17748,4.12,91.3
11603,2008,-136,17784,4.12,91.3
11606,1964,-112,17860,4.12,91.3
11610,1948,-148,17892,4.12,91.3
11613,2100,-108,17956,4.12,91.3
11616,1920,-208,17784,4.12,91.3
11619,2064,-240,17720,4.12,91.3
11622,1956,-152,17828,4.12,91.3
11625,2004,-160,17852,4.12,91.3
11628,1964,-104,17804,4.12,91.3
11631,2124,-204,17648,4.12,91.3
11634,1940,-204,17760,4.12,91.3
11637,2088,-164,17804,4.12,91.3
11640,2160,-152,17800,4.12,91.3
11646,2064,-144,17808,4.12,91.3
11649,2056,52,18004,4.12,91.3
11652,2080,-164,17716,4.12,91.3
11655,2072,-136,17748,4.12,91.3
11658,2008,-164,17712,4.12,91.3
11661,1948,-28,17700,4.12,91.3
11664,2112,-176,17780,4.12,91.3
11667,1932,-148,17716,4.12,91.3
11670,1976,-88,17928,4.12,91.3
11673,2080,-120,17672,4.12,91.3
11676,2028,-68,17860,4.12,91.3
11679,1984,-88,17928,4.12,91.3
11683,1936,-96,17840,4.12,91.3
11686,2100,0,17740,4.12,91.3
11689,2056,-32,17524,4.12,91.3
11692,2016,-72,17752,4.12,91.3
11697,1992,12,17852,4.12,91.3
11700,1972,-96,17820,4.12,91.3
11703,2096,-72,17828,4.12,91.3
11706,1944,-88,17664,4.12,91.3
11709,1920,-104,17788,4.12,91.3
11712,1952,-24,17724,4.12,91.3
11715,1960,-120,17780,4.12,91.3
11718,1976,-108,17844,4.12,91.3
11721,1996,-104,17708,4.12,91.3
11725,2020,-148,17712,4.12,91.3
11728,2056,-116,17784,4.12,91.3
11731,2064,-136,17904,4.12,91.3
11734,2020,-64,17768,4.12,91.3
11737,1964,-188,17812,4.12,91.3
11740,2088,-212,17832,4.12,91.3
11743,2036,-92,17820,4.12,91.3
11746,2036,-168,17796,4.12,91.3
11752,2000,-200,17804,4.12,91.3
11755,2072,-100,17808,4.12,91.3
11758,2020,-208,17848,4.12,91.3
11761,2092,-144,17656,4.12,91.3
11764,2044,-172,17828,4.12,91.3
11767,2068,-140,17864,4.12,91.3
11770,2048,-80,17780,4.12,91.3
11773,1940,-184,17872,4.12,91.3
11776,2012,-152,17804,4.12,91.3
11779,2092,-92,17852,4.12,91.3
11782,1928,-4,17780,4.12,91.3
11785,2060,-60,17768,4.12,91.3
11789,2016,-164,17756,4.12,91.3
11792,2088,-168,17844,4.12,91.3
11795,2072,-228,17860,4.12,91.3
11798,2112,-124,17740,4.12,91.3
11803,2144,-188,17864,4.12,91.3
11806,2068,-120,17792,4.12,91.3
11809,2076,-112,18008,4.12,91.3
11812,2076,-120,17820,4.12,91.3
11816,2004,-36,17816,4.12,91.3
11819,2116,-100,17784,4.12,91.3
11822,2044,-96,17900,4.12,91.3
11825,2104,-148,17880,4.12,91.3
11828,2020,-128,17772,4.12,91.3
11831,2040,-124,17776,4.12,91.3
11834,2128,-144,17816,4.12,91.3
11837,2036,-156,17808,4.12,91.3
11840,1948,-88,17724,4.12,91.3
11843,2048,-84,17700,4.12,91.3
11846,2084,-140,17824,4.12,91.3
11849,2056,-64,17780,4.12,91.3
11855,2056,-72,17684,4.12,91.3
11858,2020,-108,17616,4.12,91.3
11861,2036,-68,17832,4.12,91.3
11864,2156,-184,17712,4.12,91.3
11867,2012,-220,17780,4.12,91.3
11870,1988,-96,17668,4.12,91.3
11873,2016,-124,17760,4.12,91.3
11876,1956,-108,17892,4.12,91.3
11880,1992,-92,17844,4.12,91.3
11883,2020,-188,17888,4.12,91.3
11886,2020,-96,17808,4.12,91.3
11889,1996,-104,17852,4.12,91.3
11892,2020,-64,17936,4.12,91.3
11895,2032,-264,17740,4.12,91.3
11898,2056,-68,17832,4.12,91.3
11901,2092,12,17756,4.12,91.3
11906,1988,-184,17996,4.12,91.3
11910,1972,-132,17752,4.12,91.3
11913,2052,-148,17764,4.12,91.3
11916,2148,-76,17736,4.12,91.3
11919,2056,-96,17768,4.12,91.3
11922,1968,-48,17652,4.12,91.3
11925,2136,-84,17704,4.12,91.3
11928,2124,-96,17932,4.12,91.3
11931,2032,-32,17840,4.12,91.3
11934,2040,-116,17852,4.12,91.3
11937,2040,-76,17820,4.12,91.3
11940,2000,-28,17808,4.12,91.3
11944,2044,-4,17720,4.12,91.3
11947,2056,-100,17800,4.12,91.3
11950,2032,-172,17916,4.12,91.3
11953,2100,-56,17744,4.12,91.3
11956,2052,-196,17856,4.12,91.3
11961,2056,-156,17860,4.12,91.3
11964,2064,-188,17780,4.12,91.3
11967,2072,-148,17832,4.12,91.3
11970,2028,-176,17820,4.12,91.3
11973,2060,-228,17920,4.12,91.3
11977,2104,-208,17720,4.12,91.3
11980,2016,-108,17796,4.12,91.3
11983,2032,-76,17832,4.12,91.3
11986,2032,-84,17748,4.12,91.3
11989,2036,-48,17972,4.12,91.3
11992,2096,-68,17852,4.12,91.3
11995,2100,-136,17856,4.12,91.3
11998,2124,-80,17872,4.12,91.3
12001,2096,-204,17892,4.12,91.3
