timestamp_ms,accel_x,accel_y,accel_z,voltage,soc
3,2072,-12,17840,4.12,91.3
7,1988,-64,17840,4.12,91.3
10,2016,-100,17812,4.12,91.3
13,1972,-192,17876,4.12,91.3
16,2020,-124,17996,4.12,91.3
19,2028,-212,17700,4.12,91.3
22,2044,-152,17816,4.12,91.3
25,2064,-216,17752,4.12,91.3
28,2040,-68,17852,4.12,91.3
31,1988,-108,17812,4.12,91.3
34,2072,-16,17812,4.12,91.3
37,2068,-56,17704,4.12,91.3
40,2032,-96,17924,4.12,91.3
43,2056,-128,17856,4.12,91.3
45,2064,-108,17832,4.12,91.3
48,1944,-160,17572,4.12,91.3
51,2064,-116,17724,4.12,91.3
54,1976,-52,17780,4.12,91.3
57,1988,-144,17812,4.12,91.3
60,2008,-204,17812,4.12,91.3
63,2088,-124,17816,4.12,91.3
66,2164,-148,17724,4.12,91.3
69,1992,-68,17648,4.12,91.3
72,2128,-124,17696,4.12,91.3
75,2112,-116,17828,4.12,91.3
78,2040,-104,17748,4.12,91.3
81,2000,-140,17808,4.12,91.3
84,2100,-204,17788,4.12,91.3
87,2160,-92,17924,4.12,91.3
90,1940,-140,17884,4.12,91.3
93,2016,-108,17828,4.12,91.3
96,2000,-116,17872,4.12,91.3
99,2080,-68,17780,4.12,91.3
102,2120,-136,17780,4.12,91.3
105,2096,-32,17932,4.12,91.3
108,2032,-192,17884,4.12,91.3
111,2008,-72,17884,4.12,91.3
114,2104,-128,17748,4.12,91.3
117,2060,-60,17876,4.12,91.3
120,2000,-88,17960,4.12,91.3
123,2080,-128,17896,4.12,91.3
126,2044,-156,17884,4.12,91.3
129,2016,-140,17812,4.12,91.3
132,2072,-188,17828,4.12,91.3
135,2000,-80,17840,4.12,91.3
138,2024,-136,17828,4.12,91.3
141,2028,-132,17684,4.12,91.3
144,2064,-204,17924,4.12,91.3
147,2000,-100,17948,4.12,91.3
150,1984,-132,17984,4.12,91.3
153,1984,-108,17868,4.12,91.3
156,2032,-112,17948,4.12,91.3
159,2024,-108,17764,4.12,91.3
162,2020,-28,17812,4.12,91.3
165,2052,-100,17904,4.12,91.3
168,2096,4,17864,4.12,91.3
171,2116,-164,17804,4.12,91.3
174,1948,-88,17712,4.12,91.3
177,2052,-44,17848,4.12,91.3
180,2020,-120,17724,4.12,91.3
183,2008,-104,17704,4.12,91.3
186,2016,-156,17820,4.12,91.3
189,2040,-120,17772,4.12,91.3
192,2016,-132,17864,4.12,91.3
195,2020,-116,17804,4.12,91.3
198,2044,-152,17768,4.12,91.3
201,1972,-40,17916,4.12,91.3
204,2032,-92,17820,4.12,91.3
207,2060,-144,17860,4.12,91.3
210,2088,-92,17624,4.12,91.3
213,2000,-236,17816,4.12,91.3
216,1936,-92,17800,4.12,91.3
219,2088,-188,17816,4.12,91.3
222,2064,-20,17820,4.12,91.3
225,2080,-72,17912,4.12,91.3
228,2060,-132,17780,4.12,91.3
231,1996,-204,17900,4.12,91.3
234,2048,-164,17764,4.12,91.3
237,2040,-236,17724,4.12,91.3
240,2076,-108,17792,4.12,91.3
243,2068,-164,17904,4.12,91.3
246,1992,-112,17780,4.12,91.3
249,2032,-152,17916,4.12,91.3
252,2064,-168,17964,4.12,91.3
255,2152,-220,17892,4.12,91.3
258,2044,-128,17776,4.12,91.3
261,2076,-88,18004,4.12,91.3
264,2092,-192,17948,4.12,91.3
267,1988,-136,17900,4.12,91.3
270,2060,-100,17684,4.12,91.3
273,2044,-144,17872,4.12,91.3
276,2024,-116,17708,4.12,91.3
279,2052,-108,17884,4.12,91.3
282,1948,-160,17832,4.12,91.3
285,2048,-168,17764,4.12,91.3
288,1984,-184,17884,4.12,91.3
291,2036,-108,17852,4.12,91.3
294,1984,-112,17704,4.12,91.3
297,2076,-108,17848,4.12,91.3
300,1976,-76,17664,4.12,91.3
303,1996,-80,17928,4.12,91.3
306,2004,-132,17852,4.12,91.3
309,2124,-228,17872,4.12,91.3
312,2088,-132,17748,4.12,91.3
315,2056,-184,17876,4.12,91.3
318,2008,-112,17880,4.12,91.3
321,2008,-160,17852,4.12,91.3
324,2092,-88,17856,4.12,91.3
327,2064,-108,17832,4.12,91.3
330,2008,-168,17844,4.12,91.3
333,1864,-152,17736,4.12,91.3
336,1972,-188,17816,4.12,91.3
339,2044,-212,17780,4.12,91.3
342,2040,-16,17844,4.12,91.3
345,2060,-60,17716,4.12,91.3
348,2044,-76,17848,4.12,91.3
351,2096,-172,17848,4.12,91.3
354,2072,-100,17784,4.12,91.3
357,2100,-132,17784,4.12,91.3
360,2056,-132,17956,4.12,91.3
363,2012,-176,17752,4.12,91.3
366,2060,-208,17916,4.12,91.3
369,2048,-204,17788,4.12,91.3
372,2016,-172,17608,4.12,91.3
375,1920,-76,17888,4.12,91.3
378,2040,8,17976,4.12,91.3
381,2060,-116,17856,4.12,91.3
384,2048,-200,17756,4.12,91.3
387,2152,-80,17848,4.12,91.3
390,2080,-96,17928,4.12,91.3
393,2036,-60,17640,4.12,91.3
396,1956,36,17804,4.12,91.3
399,1964,-72,17924,4.12,91.3
402,2004,-108,17768,4.12,91.3
405,2124,-124,17748,4.12,91.3
408,2020,-188,17852,4.12,91.3
411,2020,-204,17720,4.12,91.3
414,2008,-132,17900,4.12,91.3
430,2012,-108,17844,4.12,91.3
434,2020,-204,17856,4.12,91.3
437,1960,-100,17784,4.12,91.3
440,1992,-116,17820,4.12,91.3
443,2060,-132,17900,4.12,91.3
446,1968,-116,17828,4.12,91.3
449,2064,-160,17828,4.12,91.3
452,2068,-128,17896,4.12,91.3
455,2008,-116,17784,4.12,91.3
458,1936,-232,17756,4.12,91.3
461,2052,-128,17920,4.12,91.3
464,2132,-148,17872,4.12,91.3
467,2056,-144,17748,4.12,91.3
470,2052,-168,17964,4.12,91.3
473,2028,-148,17820,4.12,91.3
476,2076,-96,17920,4.12,91.3
479,2008,-192,17852,4.12,91.3
482,2080,-172,17768,4.12,91.3
485,2052,-32,17864,4.12,91.3
488,2028,-52,17816,4.12,91.3
491,2084,-164,17748,4.12,91.3
494,2020,-136,17828,4.12,91.3
497,2036,-100,17900,4.12,91.3
500,2000,-80,17844,4.12,91.3
503,2040,-140,17768,4.12,91.3
506,1964,-236,17860,4.12,91.3
509,1944,-116,17808,4.12,91.3
512,2104,-108,17744,4.12,91.3
515,1988,-124,17764,4.12,91.3
518,2140,-184,17864,4.12,91.3
521,2064,-168,17912,4.12,91.3
524,1968,-104,17836,4.12,91.3
527,2012,-232,17760,4.12,91.3
530,2068,-32,17828,4.12,91.3
533,2020,-164,17888,4.12,91.3
536,1992,-104,17764,4.12,91.3
539,1960,-204,17796,4.12,91.3
542,2088,-112,17804,4.12,91.3
545,2092,-104,17864,4.12,91.3
548,1976,-76,17796,4.12,91.3
551,2100,-100,17708,4.12,91.3
554,2068,-48,17700,4.12,91.3
557,2064,-156,17828,4.12,91.3
560,2072,-92,17660,4.12,91.3
562,2132,-96,17892,4.12,91.3
565,2084,-112,17748,4.12,91.3
568,2020,-120,17828,4.12,91.3
571,1968,-104,17864,4.12,91.3
574,2036,-124,17884,4.12,91.3
577,2100,-240,17808,4.12,91.3
580,1988,-28,17920,4.12,91.3
583,2000,-148,17868,4.12,91.3
586,2080,-140,17740,4.12,91.3
589,2048,-264,17836,4.12,91.3
592,2036,-140,17780,4.12,91.3
595,2024,-76,18012,4.12,91.3
598,1956,-156,17816,4.12,91.3
601,2016,-168,17840,4.12,91.3
604,2036,-128,17824,4.12,91.3
607,2072,-124,17936,4.12,91.3
610,2056,-120,17792,4.12,91.3
613,1964,-168,17656,4.12,91.3
616,1912,-156,17756,4.12,91.3
619,2056,-180,17888,4.12,91.3
622,2160,-164,17876,4.12,91.3
625,2028,-108,17776,4.12,91.3
628,2028,-136,17856,4.12,91.3
631,2052,-232,17920,4.12,91.3
634,2060,-188,17856,4.12,91.3
637,2112,-164,17932,4.12,91.3
640,2084,-200,17720,4.12,91.3
643,1948,-176,17640,4.12,91.3
646,2088,-184,17744,4.12,91.3
649,2072,-76,17868,4.12,91.3
652,2044,-88,17696,4.12,91.3
655,2132,-88,17800,4.12,91.3
658,2040,-100,17728,4.12,91.3
661,2064,-192,17688,4.12,91.3
664,2132,-80,17832,4.12,91.3
667,2108,-128,17864,4.12,91.3
670,2088,-68,17804,4.12,91.3
673,2064,-76,17704,4.12,91.3
676,2016,-108,17792,4.12,91.3
679,2080,-140,17920,4.12,91.3
682,2160,-168,17716,4.12,91.3
685,1976,-52,17792,4.12,91.3
688,2108,-80,17896,4.12,91.3
691,2092,-84,17720,4.12,91.3
694,2044,-188,17776,4.12,91.3
697,2136,-164,17684,4.12,91.3
700,2028,-140,17820,4.12,91.3
703,1964,-136,17772,4.12,91.3
706,2044,-140,17784,4.12,91.3
709,1968,-96,17852,4.12,91.3
712,1972,-156,17900,4.12,91.3
715,2000,16,17844,4.12,91.3
718,2024,-128,17868,4.12,91.3
721,1968,-36,17856,4.12,91.3
724,2064,-196,17876,4.12,91.3
727,2016,-76,17864,4.12,91.3
730,1984,-112,17900,4.12,91.3
733,2060,-196,17776,4.12,91.3
736,2044,-228,17912,4.12,91.3
739,2052,-96,17856,4.12,91.3
742,2096,-200,17848,4.12,91.3
745,2136,-104,17780,4.12,91.3
748,2124,-148,17700,4.12,91.3
751,1980,-132,17800,4.12,91.3
754,2008,-212,17936,4.12,91.3
757,2116,-148,17840,4.12,91.3
760,2080,8,18004,4.12,91.3
763,1948,-64,17824,4.12,91.3
766,2088,-124,17880,4.12,91.3
769,2032,-200,17748,4.12,91.3
772,1972,-44,17836,4.12,91.3
775,2116,-112,17592,4.12,91.3
778,2064,-76,17808,4.12,91.3
781,2000,-76,17800,4.12,91.3
784,2020,-180,17756,4.12,91.3
787,2112,-148,17816,4.12,91.3
790,2140,-256,17936,4.12,91.3
793,2012,-136,17952,4.12,91.3
796,2152,-52,17808,4.12,91.3
799,2036,-160,17732,4.12,91.3
802,2020,-184,17960,4.12,91.3
805,2108,-120,17796,4.12,91.3
808,2028,-184,17784,4.12,91.3
811,2116,-160,17756,4.12,91.3
814,2072,-164,17820,4.12,91.3
817,2080,-132,17908,4.12,91.3
820,2084,-140,17828,4.12,91.3
823,2080,-188,17932,4.12,91.3
826,2032,-72,17860,4.12,91.3
829,2128,-212,17844,4.12,91.3
832,2032,-32,17772,4.12,91.3
835,1972,-144,17784,4.12,91.3
838,2064,-88,17852,4.12,91.3
841,2004,-104,17816,4.12,91.3
854,2000,-184,17816,4.12,91.3
857,2072,-96,17880,4.12,91.3
860,1960,-112,17816,4.12,91.3
863,1980,-36,17872,4.12,91.3
866,2008,-164,17740,4.12,91.3
869,1940,-148,17840,4.12,91.3
872,2132,-68,17796,4.12,91.3
875,2016,-124,17772,4.12,91.3
878,2024,-100,17816,4.12,91.3
881,1952,-200,17912,4.12,91.3
884,1988,-52,17980,4.12,91.3
887,1972,-104,17708,4.12,91.3
890,2164,-176,17692,4.12,91.3
893,2144,-120,17788,4.12,91.3
896,1984,-184,17772,4.12,91.3
899,1996,-192,17676,4.12,91.3
902,2024,-104,17792,4.12,91.3
905,2096,-136,17904,4.12,91.3
908,1964,-144,17772,4.12,91.3
911,2084,-64,17748,4.12,91.3
914,1932,-124,17956,4.12,91.3
917,1976,-144,17768,4.12,91.3
920,2044,-88,17876,4.12,91.3
923,2020,-184,17832,4.12,91.3
926,2184,-84,17756,4.12,91.3
929,2048,-200,17764,4.12,91.3
932,2080,-132,17920,4.12,91.3
935,1996,-164,17736,4.12,91.3
938,2080,-164,17748,4.12,91.3
941,2056,-192,17828,4.12,91.3
944,2140,-152,17844,4.12,91.3
947,2136,-68,17656,4.12,91.3
950,2136,-92,17796,4.12,91.3
953,2064,-136,17724,4.12,91.3
956,2132,-116,17852,4.12,91.3
959,2052,-188,17856,4.12,91.3
962,2036,-160,17836,4.12,91.3
965,1980,-108,17828,4.12,91.3
968,2044,-156,17632,4.12,91.3
971,2028,-188,17708,4.12,91.3
974,2072,-120,17780,4.12,91.3
977,2072,-200,17808,4.12,91.3
980,2072,-48,17716,4.12,91.3
983,2016,-220,17808,4.12,91.3
986,2056,-44,17808,4.12,91.3
989,2140,-196,17828,4.12,91.3
992,2036,-116,17744,4.12,91.3
995,2068,-116,17876,4.12,91.3
998,1928,-156,17760,4.12,91.3
1001,2008,-28,17896,4.12,91.3
1004,2004,-104,17668,4.12,91.3
1007,2004,-88,17752,4.12,91.3
1010,2064,-132,17864,4.12,91.3
1013,2036,-140,17816,4.12,91.3
1016,1908,-76,17784,4.12,91.3
1019,2052,-116,17936,4.12,91.3
1022,2008,-60,17704,4.12,91.3
1025,2120,-80,17716,4.12,91.3
1028,2016,-100,17848,4.12,91.3
1031,2072,-116,17808,4.12,91.3
1034,2108,-176,18044,4.12,91.3
1037,2000,-144,17792,4.12,91.3
1040,2116,-120,17860,4.12,91.3
1043,2016,-164,17904,4.12,91.3
1046,2040,-232,17924,4.12,91.3
1049,2032,-88,17772,4.12,91.3
1052,2040,-124,18000,4.12,91.3
1055,2068,-16,17792,4.12,91.3
1058,2056,-152,17736,4.12,91.3
1061,2064,-132,17728,4.12,91.3
1064,2000,-112,18012,4.12,91.3
1067,2120,-176,17700,4.12,91.3
1070,2056,-108,17896,4.12,91.3
1073,1952,-164,17944,4.12,91.3
1076,2016,-100,17824,4.12,91.3
1079,2060,-136,17884,4.12,91.3
1082,2004,-40,17820,4.12,91.3
1085,2132,-72,17804,4.12,91.3
1088,2032,-148,17896,4.12,91.3
1091,2108,-116,17640,4.12,91.3
1094,2000,-100,17836,4.12,91.3
1097,1984,12,17808,4.12,91.3
1100,2048,-136,17852,4.12,91.3
1103,2096,-104,17904,4.12,91.3
1106,2160,-100,17880,4.12,91.3
1109,2032,-112,17904,4.12,91.3
1112,2020,-176,17780,4.12,91.3
1115,2136,-132,17776,4.12,91.3
1118,1952,-112,17744,4.12,91.3
1121,2000,-40,17872,4.12,91.3
1124,2068,-80,17808,4.12,91.3
1127,2168,-192,17820,4.12,91.3
1130,2028,-96,17736,4.12,91.3
1133,2084,-192,17892,4.12,91.3
1136,2016,-64,17816,4.12,91.3
1139,2044,-176,17928,4.12,91.3
1142,2056,-80,17832,4.12,91.3
1145,2020,-72,17856,4.12,91.3
1148,2052,-112,17888,4.12,91.3
1151,2104,-132,17852,4.12,91.3
1154,2164,-132,17912,4.12,91.3
1157,2000,-44,17836,4.12,91.3
1160,1964,-136,17712,4.12,91.3
1163,2052,-168,17936,4.12,91.3
1166,1992,-108,17852,4.12,91.3
1169,2016,-72,17744,4.12,91.3
1172,1988,-256,17692,4.12,91.3
1175,2036,-96,17812,4.12,91.3
1178,2116,-80,17768,4.12,91.3
1181,1928,-132,17876,4.12,91.3
1184,2152,-108,17724,4.12,91.3
1187,2084,-116,17864,4.12,91.3
1190,2036,-60,17744,4.12,91.3
1193,2060,-164,17924,4.12,91.3
1196,2032,-164,17840,4.12,91.3
1199,2108,-116,17624,4.12,91.3
1202,2020,-88,17720,4.12,91.3
1205,2016,-192,17836,4.12,91.3
1208,2052,-136,17780,4.12,91.3
1211,2092,-172,17740,4.12,91.3
1214,2052,-144,17920,4.12,91.3
1217,2036,-96,17992,4.12,91.3
1220,2056,-148,17840,4.12,91.3
1223,2036,-124,17800,4.12,91.3
1226,2036,-72,17760,4.12,91.3
1229,2028,-160,17888,4.12,91.3
1232,2048,-112,17736,4.12,91.3
1235,1972,-208,17744,4.12,91.3
1238,1996,-136,17736,4.12,91.3
1241,2144,-112,17800,4.12,91.3
1244,2004,-72,17744,4.12,91.3
1247,2068,-108,17932,4.12,91.3
1250,2036,-80,17744,4.12,91.3
1253,2016,-208,17840,4.12,91.3
1256,2012,-96,17760,4.12,91.3
1268,1980,-80,17912,4.12,91.3
1272,2024,-80,17708,4.12,91.3
1275,2032,-72,17772,4.12,91.3
1278,2076,-28,17780,4.12,91.3
1281,2028,-164,17700,4.12,91.3
1284,2100,-164,17844,4.12,91.3
1287,2080,-116,17748,4.12,91.3
1290,2004,-52,17884,4.12,91.3
1293,2036,-124,17856,4.12,91.3
1296,2004,-172,17824,4.12,91.3
1299,2036,-184,17924,4.12,91.3
1302,1896,-148,17852,4.12,91.3
1305,2080,-88,17876,4.12,91.3
1308,2048,-72,17772,4.12,91.3
1311,2028,-108,17820,4.12,91.3
1314,2080,-144,17828,4.12,91.3
1317,2072,-100,17924,4.12,91.3
1320,2020,-96,17784,4.12,91.3
1323,1992,-144,17868,4.12,91.3
1326,2072,-96,17792,4.12,91.3
1329,2020,-88,17656,4.12,91.3
1332,2064,-144,17776,4.12,91.3
1335,2060,-84,17820,4.12,91.3
1338,2108,-124,17896,4.12,91.3
1341,2048,-88,17760,4.12,91.3
1344,1988,-112,17664,4.12,91.3
1347,2048,-72,17912,4.12,91.3
1350,2088,-72,17772,4.12,91.3
1353,2108,-96,17944,4.12,91.3
1356,2068,-112,17744,4.12,91.3
1359,2072,-228,17896,4.12,91.3
1362,2080,-108,17872,4.12,91.3
1365,2156,-140,17844,4.12,91.3
1368,2000,-168,17700,4.12,91.3
1371,2024,-116,17804,4.12,91.3
1374,2072,-148,17848,4.12,91.3
1377,2016,-132,17784,4.12,91.3
1380,2064,-148,17872,4.12,91.3
1383,1936,-124,17820,4.12,91.3
1386,1984,-144,17780,4.12,91.3
1389,2008,-144,17660,4.12,91.3
1392,2032,-164,17932,4.12,91.3
1395,2040,-172,17932,4.12,91.3
1398,1952,-124,17836,4.12,91.3
1401,2044,-124,17728,4.12,91.3
1404,2056,-132,17780,4.12,91.3
1407,2016,-220,17824,4.12,91.3
1410,2092,-132,17800,4.12,91.3
1413,2012,-116,17876,4.12,91.3
1416,2020,-152,17840,4.12,91.3
1419,2036,-160,17852,4.12,91.3
1422,2060,-84,17836,4.12,91.3
1425,2056,-108,17792,4.12,91.3
1428,2068,-172,17812,4.12,91.3
1431,2056,-132,17804,4.12,91.3
1434,2068,-164,17848,4.12,91.3
1437,1988,-76,17936,4.12,91.3
1440,2052,-36,17836,4.12,91.3
1443,2072,-4,17816,4.12,91.3
1446,2068,-152,17672,4.12,91.3
1449,2092,4,17928,4.12,91.3
1452,2120,-36,17880,4.12,91.3
1455,1992,-152,17852,4.12,91.3
1458,1984,-128,17912,4.12,91.3
1461,1948,-104,17780,4.12,91.3
1464,2060,-168,17920,4.12,91.3
1467,1996,-40,17836,4.12,91.3
1470,1968,-72,17712,4.12,91.3
1473,1984,-212,17888,4.12,91.3
1476,2052,-60,17860,4.12,91.3
1479,1944,-172,17680,4.12,91.3
1482,2020,-116,17816,4.12,91.3
1485,1988,-8,17796,4.12,91.3
1488,2112,-148,17812,4.12,91.3
1491,2076,-120,17792,4.12,91.3
1494,1988,-112,17944,4.12,91.3
1497,2092,-124,17848,4.12,91.3
1500,1972,-128,17956,4.12,91.3
1503,2096,-64,17808,4.12,91.3
1506,2060,-168,17840,4.12,91.3
1509,2032,-116,17908,4.12,91.3
1512,2092,-144,17852,4.12,91.3
1515,2104,-88,17952,4.12,91.3
1518,2020,-160,18004,4.12,91.3
1521,2072,-80,17740,4.12,91.3
1524,1996,-88,17840,4.12,91.3
1527,2060,-124,17840,4.12,91.3
1530,2004,-44,17860,4.12,91.3
1533,2072,-200,17848,4.12,91.3
1536,2088,-172,17740,4.12,91.3
1539,2072,-180,17940,4.12,91.3
1542,2024,-224,17780,4.12,91.3
1545,2144,-120,17900,4.12,91.3
1548,2040,-72,17836,4.12,91.3
1551,2072,-164,17892,4.12,91.3
1554,2040,-140,17840,4.12,91.3
1557,1992,-128,17880,4.12,91.3
1560,2072,-112,17716,4.12,91.3
1563,1976,-132,17780,4.12,91.3
1566,2100,-156,17760,4.12,91.3
1569,2100,-152,17792,4.12,91.3
1572,1916,-108,17844,4.12,91.3
1575,2076,-140,17804,4.12,91.3
1578,2092,-120,17744,4.12,91.3
1581,2132,-192,17860,4.12,91.3
1584,1956,-168,17792,4.12,91.3
1587,2164,-104,17908,4.12,91.3
1590,1976,-124,17844,4.12,91.3
1593,2024,-176,17692,4.12,91.3
1596,2016,28,17840,4.12,91.3
1599,1928,-116,17680,4.12,91.3
1602,1976,-132,17828,4.12,91.3
1605,1976,-116,17880,4.12,91.3
1608,2012,-128,17776,4.12,91.3
1611,2116,-108,17820,4.12,91.3
1614,2044,-172,17720,4.12,91.3
1617,2000,-124,17816,4.12,91.3
1620,2028,-116,17812,4.12,91.3
1623,1984,-176,17804,4.12,91.3
1626,2020,-160,17884,4.12,91.3
1629,2056,-128,17940,4.12,91.3
1632,2060,-96,17804,4.12,91.3
1635,2060,-232,17840,4.12,91.3
1638,1988,-192,17712,4.12,91.3
1641,1956,-176,17748,4.12,91.3
1644,2080,-152,17828,4.12,91.3
1647,2076,-132,17852,4.12,91.3
1650,2028,-164,17724,4.12,91.3
1653,2040,-96,17940,4.12,91.3
1656,2080,-240,17796,4.12,91.3
1659,2100,-88,17964,4.12,91.3
1662,2068,-156,17860,4.12,91.3
1665,2220,-196,17708,4.12,91.3
1677,2104,-112,17732,4.12,91.3
1680,2004,-172,18004,4.12,91.3
1683,2068,-128,17796,4.12,91.3
1686,1996,-92,17840,4.12,91.3
1689,1996,-64,17824,4.12,91.3
1692,1928,-108,17784,4.12,91.3
1695,2072,-140,17796,4.12,91.3
1698,2088,-116,17840,4.12,91.3
1701,2108,-172,17760,4.12,91.3
1704,2044,-136,17844,4.12,91.3
1707,2052,-124,17724,4.12,91.3
1710,2016,-124,17904,4.12,91.3
1713,2092,-136,17932,4.12,91.3
1716,2016,-116,17728,4.12,91.3
1719,2068,-200,17928,4.12,91.3
1722,2104,-168,17916,4.12,91.3
1725,2096,-96,17876,4.12,91.3
1728,2048,-128,17784,4.12,91.3
1731,2008,-120,17820,4.12,91.3
1734,1964,16,17828,4.12,91.3
1737,2032,-164,17948,4.12,91.3
1740,2004,-120,17848,4.12,91.3
1743,1984,-100,17916,4.12,91.3
1746,2136,-112,17800,4.12,91.3
1749,1956,-84,17960,4.12,91.3
1752,2040,-148,17740,4.12,91.3
1755,2056,-132,17948,4.12,91.3
1758,2056,-124,17772,4.12,91.3
1761,2044,-96,17796,4.12,91.3
1764,2080,-80,17760,4.12,91.3
1767,2012,-140,17748,4.12,91.3
1770,2024,-148,17672,4.12,91.3
1773,2060,-80,17708,4.12,91.3
1776,2028,-76,17796,4.12,91.3
1779,2012,-184,17776,4.12,91.3
1782,2072,-112,17708,4.12,91.3
1785,2028,-148,17844,4.12,91.3
1788,1912,-172,17904,4.12,91.3
1791,1952,-192,17748,4.12,91.3
1794,2032,-312,17796,4.12,91.3
1797,2008,-124,17816,4.12,91.3
1800,2032,-228,17752,4.12,91.3
1803,2044,-208,17840,4.12,91.3
1806,1972,-132,17692,4.12,91.3
1809,2020,-112,17864,4.12,91.3
1812,1936,-96,17920,4.12,91.3
1815,2044,-160,17768,4.12,91.3
1818,2052,-64,17892,4.12,91.3
1821,1988,-160,17756,4.12,91.3
1824,2008,-84,17860,4.12,91.3
1827,2052,-100,17804,4.12,91.3
1830,2024,-116,17872,4.12,91.3
1833,2028,-84,17864,4.12,91.3
1836,2020,-132,17772,4.12,91.3
1839,1996,-88,17736,4.12,91.3
1842,1996,-128,17892,4.12,91.3
1845,2072,-64,17848,4.12,91.3
1848,2084,-96,17808,4.12,91.3
1851,2000,-160,17808,4.12,91.3
1854,2084,-124,17704,4.12,91.3
1857,2148,-164,17712,4.12,91.3
1860,2120,-124,17832,4.12,91.3
1863,2108,-88,17940,4.12,91.3
1866,1980,-12,17772,4.12,91.3
1869,2068,-188,17824,4.12,91.3
1872,1996,-88,17744,4.12,91.3
1875,2092,-56,17856,4.12,91.3
1878,2064,-128,17748,4.12,91.3
1881,2060,-216,17856,4.12,91.3
1884,2036,-192,17760,4.12,91.3
1887,1916,-120,17744,4.12,91.3
1890,1956,-88,17860,4.12,91.3
1893,2004,-116,17860,4.12,91.3
1896,2132,-192,17912,4.12,91.3
1899,1924,-168,17888,4.12,91.3
1903,2112,-128,17916,4.12,91.3
1906,2096,-140,17744,4.12,91.3
1909,2088,-132,17772,4.12,91.3
1912,1976,-120,17888,4.12,91.3
1915,2036,-164,17800,4.12,91.3
1918,2100,-208,17704,4.12,91.3
1921,2104,-112,17776,4.12,91.3
1924,2024,-152,17820,4.12,91.3
1927,2072,-204,17764,4.12,91.3
1930,2056,-128,17856,4.12,91.3
1933,2044,-132,17924,4.12,91.3
1936,2104,-204,17720,4.12,91.3
1939,2068,-108,17880,4.12,91.3
1942,2060,-96,17748,4.12,91.3
1945,2128,-236,17692,4.12,91.3
1948,2104,-200,17704,4.12,91.3
1951,1980,-116,17984,4.12,91.3
1954,2072,-136,17832,4.12,91.3
1957,2040,-116,17776,4.12,91.3
1960,2060,-80,17844,4.12,91.3
1963,2068,-56,17896,4.12,91.3
1966,2000,-88,17732,4.12,91.3
1969,2052,-144,17820,4.12,91.3
1972,2092,-28,17776,4.12,91.3
1975,1984,-176,17868,4.12,91.3
1978,2000,-104,17904,4.12,91.3
1981,2104,-88,17876,4.12,91.3
1984,2076,-84,17992,4.12,91.3
1987,2096,-32,17928,4.12,91.3
1990,2068,-64,17752,4.12,91.3
1993,1992,-208,17924,4.12,91.3
1996,2064,-56,17668,4.12,91.3
1999,2032,-96,17856,4.12,91.3
2002,2132,-104,17732,4.12,91.3
2005,2008,-48,17748,4.12,91.3
2008,2056,-68,17756,4.12,91.3
2011,1968,-108,17784,4.12,91.3
2014,2080,-196,17936,4.12,91.3
2017,2016,-108,17764,4.12,91.3
2020,2008,-44,17764,4.12,91.3
2023,2024,-164,17768,4.12,91.3
2026,2064,-136,17880,4.12,91.3
2029,2008,-88,17732,4.12,91.3
2032,2064,-224,17732,4.12,91.3
2035,2052,-20,17688,4.12,91.3
2038,1936,-132,17840,4.12,91.3
2041,2112,-144,17856,4.12,91.3
2044,2164,-184,17788,4.12,91.3
2047,2028,-92,17860,4.12,91.3
2050,1980,-180,17816,4.12,91.3
2053,2012,-152,17832,4.12,91.3
2056,2076,-44,17828,4.12,91.3
2059,1992,-168,17940,4.12,91.3
2062,2068,-100,17776,4.12,91.3
2065,2032,-264,17860,4.12,91.3
2068,1960,-108,17796,4.12,91.3
2071,2084,-124,17772,4.12,91.3
2074,2052,-132,17912,4.12,91.3
2077,2024,-184,17844,4.12,91.3
2089,2048,-96,17768,4.12,91.3
2092,2092,-200,17828,4.12,91.3
2095,2072,-196,17792,4.12,91.3
2098,2064,-76,17780,4.12,91.3
2101,2064,-212,17752,4.12,91.3
2104,2080,-80,18000,4.12,91.3
2107,2068,-124,17688,4.12,91.3
2110,1984,-104,17748,4.12,91.3
2113,2056,4,17748,4.12,91.3
2116,2024,-80,17780,4.12,91.3
2119,2096,-12,17856,4.12,91.3
2122,2116,-52,17896,4.12,91.3
2125,2100,-204,17772,4.12,91.3
2128,2004,-80,17772,4.12,91.3
2131,2020,-220,17844,4.12,91.3
2134,1988,-140,17632,4.12,91.3
2137,2084,-80,17732,4.12,91.3
2140,2040,-208,17856,4.12,91.3
2143,2052,-108,17888,4.12,91.3
2146,2064,-184,17936,4.12,91.3
2149,2048,-180,17956,4.12,91.3
2152,2072,-116,17844,4.12,91.3
2155,2124,-32,17864,4.12,91.3
2158,2012,-124,17804,4.12,91.3
2161,2040,-128,17716,4.12,91.3
2164,2060,-168,17920,4.12,91.3
2167,1976,-160,17796,4.12,91.3
2170,2104,-216,17776,4.12,91.3
2173,2004,-112,17896,4.12,91.3
2176,2008,-172,17788,4.12,91.3
2179,2092,-128,17900,4.12,91.3
2182,2036,-56,17848,4.12,91.3
2185,2008,-224,17780,4.12,91.3
2188,2104,-140,17968,4.12,91.3
2191,2064,-172,17804,4.12,91.3
2194,2020,-236,17768,4.12,91.3
2197,2084,-108,17772,4.12,91.3
2200,2104,-140,17904,4.12,91.3
2203,2072,-92,17756,4.12,91.3
2207,1888,-184,17904,4.12,91.3
2210,2020,-128,17792,4.12,91.3
2213,1972,-184,17920,4.12,91.3
2216,2024,-164,17888,4.12,91.3
2219,2012,-140,17724,4.12,91.3
2222,1980,-144,17872,4.12,91.3
2225,2008,-108,17928,4.12,91.3
2228,1948,-116,17748,4.12,91.3
2231,1996,-56,17876,4.12,91.3
2234,2008,-76,17660,4.12,91.3
2237,2072,-88,17784,4.12,91.3
2240,2000,-128,17748,4.12,91.3
2243,2052,-184,17776,4.12,91.3
2246,1996,-112,17852,4.12,91.3
2249,1972,-64,17728,4.12,91.3
2252,2040,-112,17880,4.12,91.3
2255,2060,-56,17908,4.12,91.3
2258,2084,-180,17756,4.12,91.3
2261,2020,-160,17920,4.12,91.3
2264,2008,-60,17584,4.12,91.3
2267,2028,-128,17812,4.12,91.3
2270,2072,-132,18044,4.12,91.3
2273,2084,-128,17904,4.12,91.3
2276,2040,-220,17828,4.12,91.3
2279,2116,-228,17872,4.12,91.3
2282,2100,-76,17944,4.12,91.3
2285,2012,-144,17792,4.12,91.3
2288,2032,-124,17948,4.12,91.3
2291,2020,0,17784,4.12,91.3
2294,1968,-120,17784,4.12,91.3
2297,2080,-36,17868,4.12,91.3
2300,2008,-96,17804,4.12,91.3
2303,2060,-112,17756,4.12,91.3
2306,2040,-56,17676,4.12,91.3
2309,2052,-92,17716,4.12,91.3
2312,1940,-112,17904,4.12,91.3
2315,2036,-52,17736,4.12,91.3
2318,2036,-164,17732,4.12,91.3
2321,2108,-236,17604,4.12,91.3
2324,2044,-184,17728,4.12,91.3
2327,2116,-136,17740,4.12,91.3
2330,2096,-116,17964,4.12,91.3
2333,1972,-104,17740,4.12,91.3
2336,1996,-148,17816,4.12,91.3
2339,1992,-184,17904,4.12,91.3
2342,2004,-156,17820,4.12,91.3
2345,2044,-184,17816,4.12,91.3
2348,2064,-124,17788,4.12,91.3
2351,2124,-164,17700,4.12,91.3
2354,2000,-148,17880,4.12,91.3
2357,2000,-112,17804,4.12,91.3
2360,1952,-176,17888,4.12,91.3
2363,1996,-136,17892,4.12,91.3
2366,2088,-152,17836,4.12,91.3
2369,2004,-116,17892,4.12,91.3
2372,2032,-68,17692,4.12,91.3
2375,2008,-164,17796,4.12,91.3
2378,1992,-148,17844,4.12,91.3
2381,2036,-176,17864,4.12,91.3
2384,2004,-184,17868,4.12,91.3
2387,1960,-116,17728,4.12,91.3
2390,2004,-152,17788,4.12,91.3
2393,2052,-76,17804,4.12,91.3
2396,1952,-108,17856,4.12,91.3
2399,2048,-132,17832,4.12,91.3
2402,2120,-68,17768,4.12,91.3
2405,2044,-60,17776,4.12,91.3
2408,2040,-88,17896,4.12,91.3
2411,2044,-56,17792,4.12,91.3
2414,2052,-132,17796,4.12,91.3
2417,1984,-124,17828,4.12,91.3
2420,2012,-68,17932,4.12,91.3
2423,2072,-44,17788,4.12,91.3
2426,2012,-172,17772,4.12,91.3
2429,2004,-184,17632,4.12,91.3
2432,1892,-172,17804,4.12,91.3
2435,1988,-72,17964,4.12,91.3
2438,2156,-168,17824,4.12,91.3
2441,2080,-68,17684,4.12,91.3
2444,2096,-92,17864,4.12,91.3
2447,1984,-212,17884,4.12,91.3
2450,2088,-124,17816,4.12,91.3
2453,1984,-144,17916,4.12,91.3
2456,2068,-132,17736,4.12,91.3
2459,2044,-148,17740,4.12,91.3
2462,2116,-208,17684,4.12,91.3
2465,2056,-108,17744,4.12,91.3
2468,2064,-148,17652,4.12,91.3
2471,1972,-124,17660,4.12,91.3
2474,2016,-136,17812,4.12,91.3
2477,2036,-104,17836,4.12,91.3
2480,2016,-92,17816,4.12,91.3
2483,1952,-116,17716,4.12,91.3
2486,1928,-168,17820,4.12,91.3
2499,2108,-120,17740,4.12,91.3
2502,2124,-72,17744,4.12,91.3
2505,2036,-104,17740,4.12,91.3
2508,2024,-72,17748,4.12,91.3
2511,2112,-148,17844,4.12,91.3
2514,2004,-100,17924,4.12,91.3
2517,2016,-120,17880,4.12,91.3
2520,2044,-116,17800,4.12,91.3
2523,2096,-176,17808,4.12,91.3
2526,1932,-124,17636,4.12,91.3
2529,2048,-124,17704,4.12,91.3
2532,2060,-128,17824,4.12,91.3
2535,2032,-152,17904,4.12,91.3
2538,2080,-200,17836,4.12,91.3
2541,2016,-140,17820,4.12,91.3
2544,2076,-84,17828,4.12,91.3
2547,1932,-168,17912,4.12,91.3
2550,2076,-168,17800,4.12,91.3
2553,2088,-188,17852,4.12,91.3
2556,2048,-96,17800,4.12,91.3
2559,1952,-148,17764,4.12,91.3
2562,2056,-96,17868,4.12,91.3
2565,1980,-48,17848,4.12,91.3
2568,1972,-156,17764,4.12,91.3
2571,2068,-228,17852,4.12,91.3
2574,2012,-128,17892,4.12,91.3
2577,2096,-176,17916,4.12,91.3
2580,2076,-92,17840,4.12,91.3
2583,2076,-100,17876,4.12,91.3
2586,2048,-164,17728,4.12,91.3
2589,2160,-200,17696,4.12,91.3
2592,2064,-104,17864,4.12,91.3
2595,2044,-56,17856,4.12,91.3
2598,2020,-116,17920,4.12,91.3
2601,1932,-120,17804,4.12,91.3
2604,2020,-128,17900,4.12,91.3
2607,2040,-144,17816,4.12,91.3
2610,1948,-64,17764,4.12,91.3
2613,2100,-80,17756,4.12,91.3
2616,2020,-28,17808,4.12,91.3
2619,2056,-144,17828,4.12,91.3
2622,2020,-72,17820,4.12,91.3
2625,2056,-136,17972,4.12,91.3
2628,2060,-60,17692,4.12,91.3
2631,1988,-192,17956,4.12,91.3
2634,2092,-56,17840,4.12,91.3
2637,2116,-52,17740,4.12,91.3
2640,2076,-184,17888,4.12,91.3
2643,2008,-108,17776,4.12,91.3
2646,2068,-156,17816,4.12,91.3
2649,1944,-176,17936,4.12,91.3
2652,1976,-100,17788,4.12,91.3
2655,2052,-124,17948,4.12,91.3
2658,2080,-56,17884,4.12,91.3
2661,2088,-188,17800,4.12,91.3
2664,1992,-156,17792,4.12,91.3
2667,2088,-160,17852,4.12,91.3
2670,2000,-140,17812,4.12,91.3
2673,1984,-148,17896,4.12,91.3
2676,2084,-136,17660,4.12,91.3
2679,1908,-200,17932,4.12,91.3
2682,2004,-160,17756,4.12,91.3
2685,2044,-96,17920,4.12,91.3
2688,2040,-140,17788,4.12,91.3
2691,2040,-64,17744,4.12,91.3
2694,1932,-28,17832,4.12,91.3
2697,2008,-72,17784,4.12,91.3
2700,2060,-92,17724,4.12,91.3
2703,2000,-140,17868,4.12,91.3
2706,2088,-232,17808,4.12,91.3
2709,2092,-92,17856,4.12,91.3
2713,2084,-144,17904,4.12,91.3
2716,2012,16,17828,4.12,91.3
2719,2016,-228,17768,4.12,91.3
2722,2068,-148,17652,4.12,91.3
2725,2140,-116,17860,4.12,91.3
2728,2044,-344,17772,4.12,91.3
2731,2024,-32,17912,4.12,91.3
2734,2020,-108,17732,4.12,91.3
2737,1992,-148,17852,4.12,91.3
2740,2000,-116,17760,4.12,91.3
2743,2032,-164,17820,4.12,91.3
2746,2080,-148,17848,4.12,91.3
2749,2028,-76,17856,4.12,91.3
2752,1996,-68,17880,4.12,91.3
2755,2080,-104,17864,4.12,91.3
2758,1996,-80,17812,4.12,91.3
2761,2040,-52,17776,4.12,91.3
2764,1968,-100,17752,4.12,91.3
2767,1896,-176,17772,4.12,91.3
2770,2060,-168,17876,4.12,91.3
2773,1968,-124,17852,4.12,91.3
2776,2036,-104,17796,4.12,91.3
2779,2036,24,17800,4.12,91.3
2782,1968,-116,17820,4.12,91.3
2785,2172,-184,17924,4.12,91.3
2788,2116,-180,17792,4.12,91.3
2791,1928,-72,17736,4.12,91.3
2794,2016,-24,17924,4.12,91.3
2797,1996,-136,17864,4.12,91.3
2800,2112,-48,17760,4.12,91.3
2803,2048,-88,17832,4.12,91.3
2806,2012,-180,17860,4.12,91.3
2809,1988,-168,17776,4.12,91.3
2812,2032,-136,17848,4.12,91.3
2815,1928,-112,17836,4.12,91.3
2818,1996,-40,17944,4.12,91.3
2821,2164,-188,17688,4.12,91.3
2824,2068,-132,17900,4.12,91.3
2827,2060,-112,17800,4.12,91.3
2830,2088,-176,17756,4.12,91.3
2833,2044,-168,17780,4.12,91.3
2836,2060,-124,17672,4.12,91.3
2839,2060,-212,17804,4.12,91.3
2842,2028,-216,17880,4.12,91.3
2845,2032,-140,17784,4.12,91.3
2848,2096,-116,17844,4.12,91.3
2851,2020,-112,17712,4.12,91.3
2854,2044,-48,17856,4.12,91.3
2857,1964,-164,17876,4.12,91.3
2860,1992,-112,17780,4.12,91.3
2863,2064,-56,17896,4.12,91.3
2866,2008,-124,17832,4.12,91.3
2869,2064,-84,17884,4.12,91.3
2872,2092,-176,17744,4.12,91.3
2875,2004,-100,17832,4.12,91.3
2878,1984,-40,17852,4.12,91.3
2881,2048,-76,17816,4.12,91.3
2884,2120,-128,17680,4.12,91.3
2887,2144,-228,17772,4.12,91.3
2890,1960,-156,17740,4.12,91.3
2893,1960,-80,17840,4.12,91.3
2896,2016,-88,17828,4.12,91.3
2899,2156,-96,17888,4.12,91.3
2911,2200,-88,17864,4.12,91.3
2915,1964,-140,17692,4.12,91.3
2918,2132,-156,17864,4.12,91.3
2921,1988,-92,17832,4.12,91.3
2924,1972,-156,17920,4.12,91.3
2927,2028,-104,17940,4.12,91.3
2930,2136,-92,17872,4.12,91.3
2933,2060,-116,17812,4.12,91.3
2936,1976,-84,17820,4.12,91.3
2939,1920,-104,17668,4.12,91.3
2942,2036,-156,17812,4.12,91.3
2945,2064,-172,17984,4.12,91.3
2948,2104,-20,17816,4.12,91.3
2951,2052,-124,17892,4.12,91.3
2954,2036,-84,17968,4.12,91.3
2957,2052,-64,17828,4.12,91.3
2960,2028,-192,17924,4.12,91.3
2963,1988,-128,17848,4.12,91.3
2966,2036,-92,17716,4.12,91.3
2969,1980,-136,17704,4.12,91.3
2972,2028,-104,17824,4.12,91.3
2975,1980,-192,17864,4.12,91.3
2978,2128,-96,17840,4.12,91.3
2981,2088,-128,18060,4.12,91.3
2984,2016,-124,17888,4.12,91.3
2987,2076,-144,17888,4.12,91.3
2990,2080,-116,17864,4.12,91.3
2993,2036,-148,17788,4.12,91.3
2996,2056,-108,17836,4.12,91.3
2999,2020,-84,17804,4.12,91.3
3002,2172,-32,17808,4.12,91.3
3005,2068,-88,17900,4.12,91.3
3008,2088,-96,17724,4.12,91.3
3011,2000,-104,17916,4.12,91.3
3014,2036,-24,17772,4.12,91.3
3017,2080,-124,17900,4.12,91.3
3020,2108,-124,17776,4.12,91.3
3023,2108,-32,17888,4.12,91.3
3026,2008,-128,17764,4.12,91.3
3029,2076,-112,17828,4.12,91.3
3032,2080,-192,17712,4.12,91.3
3035,1996,-116,17712,4.12,91.3
3038,2032,-64,17848,4.12,91.3
3041,1964,-68,17784,4.12,91.3
3044,2020,-140,17888,4.12,91.3
3047,2040,-124,17844,4.12,91.3
3050,2040,-76,17744,4.12,91.3
3053,1964,-96,17888,4.12,91.3
3056,2072,-188,17728,4.12,91.3
3059,1956,-80,17976,4.12,91.3
3062,2092,-36,17788,4.12,91.3
3065,1996,-172,17884,4.12,91.3
3068,2120,-48,17828,4.12,91.3
3071,1960,-92,17828,4.12,91.3
3074,2076,-128,17912,4.12,91.3
3077,2072,-196,17820,4.12,91.3
3080,2088,-148,17724,4.12,91.3
3083,2008,-168,17800,4.12,91.3
3086,2044,-108,17936,4.12,91.3
3089,1968,-256,17788,4.12,91.3
3092,2068,-68,17788,4.12,91.3
3095,2056,-176,17908,4.12,91.3
3098,2068,-164,17856,4.12,91.3
3101,2140,-80,17868,4.12,91.3
3104,2020,-80,17688,4.12,91.3
3107,1996,-184,17860,4.12,91.3
3110,2000,-152,17796,4.12,91.3
3113,1980,-124,17828,4.12,91.3
3116,2032,-88,17836,4.12,91.3
3119,2048,-112,17828,4.12,91.3
3122,2108,-136,17804,4.12,91.3
3125,2000,-208,17896,4.12,91.3
3128,2116,-168,17708,4.12,91.3
3131,2048,-120,17808,4.12,91.3
3134,2044,24,17760,4.12,91.3
3137,2076,-132,17892,4.12,91.3
3140,2072,-160,17852,4.12,91.3
3143,2036,-80,17940,4.12,91.3
3146,2068,-88,17884,4.12,91.3
3149,2056,-264,17856,4.12,91.3
3152,2020,-108,17736,4.12,91.3
3155,2048,-112,17800,4.12,91.3
3158,2020,-132,17840,4.12,91.3
3161,2052,-104,17696,4.12,91.3
3164,1952,-104,17904,4.12,91.3
3167,1980,-104,17820,4.12,91.3
3170,2108,-88,17716,4.12,91.3
3173,1996,-132,17976,4.12,91.3
3176,2096,-96,17776,4.12,91.3
3179,1860,-84,17908,4.12,91.3
3182,2116,-208,17916,4.12,91.3
3185,1980,-116,17720,4.12,91.3
3188,1992,-176,17904,4.12,91.3
3191,2052,-132,17776,4.12,91.3
3194,1992,-172,17736,4.12,91.3
3197,2072,-80,17804,4.12,91.3
3200,1988,-52,17996,4.12,91.3
3203,2040,-176,17668,4.12,91.3
3206,2036,-156,17800,4.12,91.3
3209,2012,-72,17824,4.12,91.3
3212,2064,-160,17760,4.12,91.3
3215,2104,-64,17932,4.12,91.3
3218,2032,-96,17812,4.12,91.3
3221,2100,-148,17968,4.12,91.3
3224,2068,-176,17620,4.12,91.3
3227,2008,-80,17716,4.12,91.3
3230,2056,-136,17852,4.12,91.3
3233,2060,-176,17804,4.12,91.3
3236,2068,-140,17816,4.12,91.3
3239,2072,-156,17728,4.12,91.3
3242,1984,-84,17996,4.12,91.3
3245,2020,-136,17732,4.12,91.3
3248,2080,-12,17852,4.12,91.3
3251,2052,-108,17776,4.12,91.3
3254,1952,-124,17864,4.12,91.3
3257,2100,-132,17688,4.12,91.3
3260,1972,-80,17908,4.12,91.3
3263,2084,-180,17924,4.12,91.3
3266,2104,-104,17788,4.12,91.3
3269,2092,-72,17884,4.12,91.3
3272,2056,-8,17800,4.12,91.3
3275,2020,-136,17708,4.12,91.3
3278,1960,-176,17792,4.12,91.3
3281,1964,-152,17844,4.12,91.3
3284,2040,-64,17964,4.12,91.3
3287,2032,0,17944,4.12,91.3
3290,2076,-64,17904,4.12,91.3
3293,1992,-244,17752,4.12,91.3
3296,2136,-128,17944,4.12,91.3
3299,2116,-100,17888,4.12,91.3
3302,1992,-60,17792,4.12,91.3
3305,1912,-72,17772,4.12,91.3
3308,2072,-168,17804,4.12,91.3
3320,2004,-104,17748,4.12,91.3
3324,2084,-44,17824,4.12,91.3
3327,2028,-80,17848,4.12,91.3
3330,2124,-152,17796,4.12,91.3
3333,2056,-124,17820,4.12,91.3
3336,2068,-200,17820,4.12,91.3
3339,2076,-168,17784,4.12,91.3
3342,2048,-52,17856,4.12,91.3
3345,2056,-200,17880,4.12,91.3
3348,2028,-144,17844,4.12,91.3
3351,1984,-88,17832,4.12,91.3
3354,2016,-180,17872,4.12,91.3
3357,2092,-104,17784,4.12,91.3
3360,2152,-184,17748,4.12,91.3
3363,2080,-120,17940,4.12,91.3
3366,2052,-112,17728,4.12,91.3
3369,2100,-180,17880,4.12,91.3
3372,2000,-104,17688,4.12,91.3
3375,2128,-76,17852,4.12,91.3
3378,2100,-172,17820,4.12,91.3
3381,2040,-160,17832,4.12,91.3
3384,2136,-128,17804,4.12,91.3
3387,2024,-156,17892,4.12,91.3
3390,1980,-144,17772,4.12,91.3
3393,1964,-108,17568,4.12,91.3
3396,2064,-156,17724,4.12,91.3
3399,2076,-52,17920,4.12,91.3
3402,2060,-96,17980,4.12,91.3
3405,2040,-148,17884,4.12,91.3
3408,2008,-140,17784,4.12,91.3
3411,2040,-112,17828,4.12,91.3
3414,2028,-164,17760,4.12,91.3
3417,2004,-168,17856,4.12,91.3
3420,1940,-200,17916,4.12,91.3
3423,1964,-152,17920,4.12,91.3
3426,2132,-112,17804,4.12,91.3
3429,1928,-176,17820,4.12,91.3
3432,1932,-124,17856,4.12,91.3
3435,1956,-204,17712,4.12,91.3
3438,2008,-136,17852,4.12,91.3
3441,2016,-132,17852,4.12,91.3
3444,2036,-128,17944,4.12,91.3
3447,1956,-144,17908,4.12,91.3
3450,1980,-160,17828,4.12,91.3
3453,1992,-124,17760,4.12,91.3
3456,2056,-124,17840,4.12,91.3
3459,2108,-176,17868,4.12,91.3
3462,2060,-196,17836,4.12,91.3
3465,2044,-44,17780,4.12,91.3
3468,2004,-188,17960,4.12,91.3
3471,2024,-88,17784,4.12,91.3
3474,2044,-96,17828,4.12,91.3
3477,1976,-140,17940,4.12,91.3
3480,2056,-116,17768,4.12,91.3
3483,2080,-180,17952,4.12,91.3
3486,2016,-96,17712,4.12,91.3
3489,2060,-112,17812,4.12,91.3
3492,2028,-132,17808,4.12,91.3
3495,2064,-172,17820,4.12,91.3
3498,2172,-132,17856,4.12,91.3
3501,2008,-148,17840,4.12,91.3
3504,2068,-88,17996,4.12,91.3
3507,2068,-168,17820,4.12,91.3
3510,1928,-120,17796,4.12,91.3
3513,2048,-112,17844,4.12,91.3
3516,2024,-80,17868,4.12,91.3
3519,2044,-212,17792,4.12,91.3
3522,2048,-220,17720,4.12,91.3
3525,2008,-188,17844,4.12,91.3
3528,2132,-140,17844,4.12,91.3
3531,2012,-108,17896,4.12,91.3
3534,2132,-72,17660,4.12,91.3
3537,2092,-128,17800,4.12,91.3
3540,2104,-120,17936,4.12,91.3
3543,2092,-160,17732,4.12,91.3
3546,2028,-192,17800,4.12,91.3
3549,2064,-20,17808,4.12,91.3
3552,2080,-80,17856,4.12,91.3
3555,2008,-208,17928,4.12,91.3
3558,1988,-136,17996,4.12,91.3
3561,2152,-120,17804,4.12,91.3
3564,2072,-152,17852,4.12,91.3
3567,2076,-120,17768,4.12,91.3
3570,2036,-168,17688,4.12,91.3
3573,2056,-128,17920,4.12,91.3
3576,1980,-96,17808,4.12,91.3
3579,1948,-112,17800,4.12,91.3
3582,2040,-156,17868,4.12,91.3
3585,2088,-124,17800,4.12,91.3
3588,2056,-216,17912,4.12,91.3
3591,2008,-72,17852,4.12,91.3
3594,2044,-68,17720,4.12,91.3
3597,1980,-56,17868,4.12,91.3
3600,2056,-160,17772,4.12,91.3
3603,1992,-88,17768,4.12,91.3
3606,2040,-72,17852,4.12,91.3
3609,2076,-172,18000,4.12,91.3
3612,2060,-4,17740,4.12,91.3
3615,1992,-136,17824,4.12,91.3
3618,1972,-88,17844,4.12,91.3
3621,1980,-64,17796,4.12,91.3
3624,2056,-176,17848,4.12,91.3
3627,2000,-128,17784,4.12,91.3
3630,1996,-128,17796,4.12,91.3
3633,2060,-156,17648,4.12,91.3
3636,2080,-148,17768,4.12,91.3
3639,2116,-148,17856,4.12,91.3
3642,1968,-104,17828,4.12,91.3
3645,2088,-104,17760,4.12,91.3
3648,1972,-128,17908,4.12,91.3
3651,1904,-168,17812,4.12,91.3
3654,2052,-204,17968,4.12,91.3
3657,2040,-148,17872,4.12,91.3
3660,2024,-116,17664,4.12,91.3
3663,2056,-76,17888,4.12,91.3
3666,2032,-100,17860,4.12,91.3
3669,2008,-124,17692,4.12,91.3
3672,2048,-140,17836,4.12,91.3
3675,2020,-104,17960,4.12,91.3
3678,2044,-176,17832,4.12,91.3
3681,2044,-104,17760,4.12,91.3
3684,2064,-188,17800,4.12,91.3
3687,2076,-36,17816,4.12,91.3
3690,2052,-108,17836,4.12,91.3
3693,2036,-196,17888,4.12,91.3
3696,2036,-192,17812,4.12,91.3
3699,2108,-140,17760,4.12,91.3
3702,2040,-112,17760,4.12,91.3
3705,2072,-116,17664,4.12,91.3
3708,2032,-84,17860,4.12,91.3
3711,2084,-168,17916,4.12,91.3
3714,1992,-108,17952,4.12,91.3
3717,2008,-132,17896,4.12,91.3
3729,2136,-176,17896,4.12,91.3
3732,2048,-104,17804,4.12,91.3
3735,2052,-64,17856,4.12,91.3
3738,2064,-164,17736,4.12,91.3
3741,1972,-184,17860,4.12,91.3
3744,2136,-72,17724,4.12,91.3
3747,2008,-136,17736,4.12,91.3
3750,1928,-44,17788,4.12,91.3
3753,2064,-212,17704,4.12,91.3
3756,2020,-160,17932,4.12,91.3
3759,2036,-116,17900,4.12,91.3
3762,2000,-172,17848,4.12,91.3
3765,2020,-220,17808,4.12,91.3
3768,2028,-124,17840,4.12,91.3
3771,2064,-216,18068,4.12,91.3
3774,2052,-136,17856,4.12,91.3
3777,2072,-196,17900,4.12,91.3
3780,2068,-148,17712,4.12,91.3
3783,2092,-116,17880,4.12,91.3
3786,2096,-192,17812,4.12,91.3
3789,2136,-72,17788,4.12,91.3
3792,2000,-164,17996,4.12,91.3
3795,2116,-64,17960,4.12,91.3
3798,2052,-80,17744,4.12,91.3
3801,2028,-68,17828,4.12,91.3
3804,2036,-232,17664,4.12,91.3
3807,1960,-216,17876,4.12,91.3
3810,2160,-164,17896,4.12,91.3
3813,2028,-176,17860,4.12,91.3
3816,1996,-60,17756,4.12,91.3
3819,2068,-104,17720,4.12,91.3
3822,2008,-124,17832,4.12,91.3
3825,1996,-108,17788,4.12,91.3
3828,2100,-108,17852,4.12,91.3
3831,2016,-208,17912,4.12,91.3
3834,1980,-92,17788,4.12,91.3
3837,1992,-88,17820,4.12,91.3
3840,2040,-160,17820,4.12,91.3
3843,2048,-140,17728,4.12,91.3
3846,2012,-96,17756,4.12,91.3
3849,2048,-36,17924,4.12,91.3
3852,1992,-216,17944,4.12,91.3
3855,2020,-92,17804,4.12,91.3
3858,2032,-192,17924,4.12,91.3
3861,2128,-100,17796,4.12,91.3
3864,1976,-184,17744,4.12,91.3
3867,2056,-96,17824,4.12,91.3
3870,2064,-80,17864,4.12,91.3
3873,2036,-88,17728,4.12,91.3
3876,2000,-276,17920,4.12,91.3
3879,2076,-124,17996,4.12,91.3
3882,2012,-216,17756,4.12,91.3
3885,1960,-152,17760,4.12,91.3
3888,1992,-80,17936,4.12,91.3
3891,1956,-28,17768,4.12,91.3
3894,1980,-132,17720,4.12,91.3
3897,1992,-160,17864,4.12,91.3
3900,1984,-112,17900,4.12,91.3
3903,2064,-168,17720,4.12,91.3
3906,2064,-124,17964,4.12,91.3
3909,2092,-124,17808,4.12,91.3
3912,2052,-108,17932,4.12,91.3
3915,2088,-184,17900,4.12,91.3
3919,1996,-108,17788,4.12,91.3
3922,2084,-56,17884,4.12,91.3
3925,2036,-132,17784,4.12,91.3
3928,2064,-180,17968,4.12,91.3
3931,2000,-88,17720,4.12,91.3
3934,1980,-68,17832,4.12,91.3
3937,2080,-204,17820,4.12,91.3
3940,2040,-124,17792,4.12,91.3
3943,2112,-112,17860,4.12,91.3
3946,2056,-108,17940,4.12,91.3
3949,1980,-144,17944,4.12,91.3
3952,1996,-188,17776,4.12,91.3
3955,2080,-164,17836,4.12,91.3
3958,2088,-184,17788,4.12,91.3
3961,1984,-112,17856,4.12,91.3
3964,2032,-148,17848,4.12,91.3
3967,2164,-80,17820,4.12,91.3
3970,2140,-60,17904,4.12,91.3
3973,1992,-204,17788,4.12,91.3
3976,2100,-112,17796,4.12,91.3
3979,1972,-136,17816,4.12,91.3
3982,1964,-112,17864,4.12,91.3
3985,2012,-124,17596,4.12,91.3
3988,2032,-128,17812,4.12,91.3
3991,2120,-144,17940,4.12,91.3
3994,2024,-152,17796,4.12,91.3
3997,2048,-224,17728,4.12,91.3
4000,1996,-68,17904,4.12,91.3
4003,2056,-72,17684,4.12,91.3
4006,1940,-144,17756,4.12,91.3
4009,2036,-216,17856,4.12,91.3
4012,2032,-160,17688,4.12,91.3
4015,2084,-156,17696,4.12,91.3
4018,2008,-112,17744,4.12,91.3
4021,2032,-104,17904,4.12,91.3
4024,2040,-176,17908,4.12,91.3
4027,1972,-132,17932,4.12,91.3
4030,1988,-100,17956,4.12,91.3
4033,2052,-88,17788,4.12,91.3
4036,2020,-112,17788,4.12,91.3
4039,2060,-148,17700,4.12,91.3
4042,2076,-192,17688,4.12,91.3
4045,1992,-168,17684,4.12,91.3
4048,2012,-60,17796,4.12,91.3
4051,2112,-108,17836,4.12,91.3
4054,2040,-92,17696,4.12,91.3
4057,1984,-132,17864,4.12,91.3
4060,2064,-132,17832,4.12,91.3
4063,2036,-132,17972,4.12,91.3
4066,2000,-52,17656,4.12,91.3
4069,2060,-164,17828,4.12,91.3
4072,1944,-84,17880,4.12,91.3
4075,2012,-176,17972,4.12,91.3
4078,2028,-156,17796,4.12,91.3
4081,2052,-132,17728,4.12,91.3
4084,2068,-116,17956,4.12,91.3
4087,2056,-168,17816,4.12,91.3
4090,2100,-276,17804,4.12,91.3
4093,2044,-196,17852,4.12,91.3
4096,2064,-172,17820,4.12,91.3
4099,2112,-80,17836,4.12,91.3
4102,2036,-88,17748,4.12,91.3
4105,2080,-140,17916,4.12,91.3
4108,2044,-152,17740,4.12,91.3
4111,2080,-48,17848,4.12,91.3
4114,2044,-12,17824,4.12,91.3
4117,2000,-152,17832,4.12,91.3
4120,2024,-192,17904,4.12,91.3
4123,1984,-140,17868,4.12,91.3
4126,2128,-64,17880,4.12,91.3
4129,2140,-56,17860,4.12,91.3
4141,1956,-156,17924,4.12,91.3
4144,2000,-132,17692,4.12,91.3
4147,2096,-132,17776,4.12,91.3
4150,1940,-140,17896,4.12,91.3
4153,2028,-108,17860,4.12,91.3
4156,2084,-88,17760,4.12,91.3
4159,2096,-184,17832,4.12,91.3
4162,2044,-156,17896,4.12,91.3
4165,2032,-168,17812,4.12,91.3
4168,2068,-60,17896,4.12,91.3
4171,2048,-132,17872,4.12,91.3
4175,2048,-160,17844,4.12,91.3
4178,1992,-28,17784,4.12,91.3
4181,1928,-220,17824,4.12,91.3
4184,1928,-108,17932,4.12,91.3
4187,2096,-132,17836,4.12,91.3
4190,1920,-132,17868,4.12,91.3
4193,2028,-40,17780,4.12,91.3
4196,2084,-124,17736,4.12,91.3
4199,2056,-220,17852,4.12,91.3
4202,1948,-140,17860,4.12,91.3
4205,1980,-104,17868,4.12,91.3
4208,1996,-148,17780,4.12,91.3
4211,2096,-148,17900,4.12,91.3
4214,2104,-148,17788,4.12,91.3
4217,1956,-100,17772,4.12,91.3
4220,1988,-152,17832,4.12,91.3
4223,2072,-52,17824,4.12,91.3
4226,1864,-180,17788,4.12,91.3
4229,1932,-72,17800,4.12,91.3
4232,2104,-64,17860,4.12,91.3
4235,2052,-168,17660,4.12,91.3
4238,2024,-88,17728,4.12,91.3
4241,1996,-132,17880,4.12,91.3
4244,2016,-148,17816,4.12,91.3
4247,2016,-80,17780,4.12,91.3
4250,2052,-208,17792,4.12,91.3
4253,1964,-196,17784,4.12,91.3
4256,2080,-160,17904,4.12,91.3
4259,2068,-104,17796,4.12,91.3
4262,2064,-160,17884,4.12,91.3
4265,2088,-196,17784,4.12,91.3
4268,2020,-160,17856,4.12,91.3
4271,1992,-136,17748,4.12,91.3
4274,2044,-196,17736,4.12,91.3
4277,2060,-168,17748,4.12,91.3
4280,2136,-200,17872,4.12,91.3
4283,2068,-128,17788,4.12,91.3
4286,2028,-40,17832,4.12,91.3
4289,2088,-156,17824,4.12,91.3
4292,2076,-100,17852,4.12,91.3
4295,2036,-184,17752,4.12,91.3
4298,2108,-128,17772,4.12,91.3
4301,2088,-184,17788,4.12,91.3
4304,2008,-192,17840,4.12,91.3
4307,2080,-104,17888,4.12,91.3
4310,2040,-88,17896,4.12,91.3
4313,2092,-148,17712,4.12,91.3
4316,2032,-80,17948,4.12,91.3
4319,2028,-152,17900,4.12,91.3
4322,2072,-112,17864,4.12,91.3
4325,2084,-124,17924,4.12,91.3
4328,2120,-64,17952,4.12,91.3
4331,1984,-84,17752,4.12,91.3
4334,2072,-212,17824,4.12,91.3
4337,2008,-88,17936,4.12,91.3
4340,2036,-76,17936,4.12,91.3
4343,2140,-160,17760,4.12,91.3
4346,1972,-188,17916,4.12,91.3
4349,2056,-196,17808,4.12,91.3
4352,1964,-156,17864,4.12,91.3
4355,2064,-164,17868,4.12,91.3
4358,1968,-96,17520,4.12,91.3
4361,2020,-56,17792,4.12,91.3
4364,2092,-168,17568,4.12,91.3
4367,2076,-184,17672,4.12,91.3
4370,1988,-196,17780,4.12,91.3
4373,2036,-36,17776,4.12,91.3
4376,2000,-216,17872,4.12,91.3
4379,1952,-124,17728,4.12,91.3
4382,2048,-176,17704,4.12,91.3
4385,2096,-188,17896,4.12,91.3
4388,2108,-132,17824,4.12,91.3
4391,2052,-188,17856,4.12,91.3
4394,1996,-232,17800,4.12,91.3
4397,2036,-164,17920,4.12,91.3
4400,2000,-188,17724,4.12,91.3
4403,2044,-160,17964,4.12,91.3
4406,2040,-104,17744,4.12,91.3
4409,2064,-148,17852,4.12,91.3
4412,2068,-136,17780,4.12,91.3
4415,1988,-160,17944,4.12,91.3
4418,2212,-164,17896,4.12,91.3
4421,2044,-152,17920,4.12,91.3
4424,2052,-152,17748,4.12,91.3
4427,2080,-188,17820,4.12,91.3
4430,2092,-96,17816,4.12,91.3
4433,2052,-80,17872,4.12,91.3
4436,2036,-140,17792,4.12,91.3
4439,2092,-144,17900,4.12,91.3
4442,2076,-152,17780,4.12,91.3
4445,2068,-104,17864,4.12,91.3
4448,2080,-164,17828,4.12,91.3
4451,2160,-56,17808,4.12,91.3
4454,2060,-100,17932,4.12,91.3
4457,2064,-144,17896,4.12,91.3
4460,2044,-184,17876,4.12,91.3
4463,2004,-224,17860,4.12,91.3
4466,2128,-92,17728,4.12,91.3
4469,2004,-76,17716,4.12,91.3
4472,2060,-184,17864,4.12,91.3
4475,2080,-68,17736,4.12,91.3
4478,2088,-100,17852,4.12,91.3
4481,2112,-148,17984,4.12,91.3
4484,2080,-136,17812,4.12,91.3
4487,1992,-204,17924,4.12,91.3
4490,2012,-172,17808,4.12,91.3
4493,1996,-136,17944,4.12,91.3
4496,2024,-52,17704,4.12,91.3
4499,2088,-116,17816,4.12,91.3
4502,2068,-168,17820,4.12,91.3
4505,2132,-164,17972,4.12,91.3
4508,2100,-144,17704,4.12,91.3
4511,1984,-200,17680,4.12,91.3
4514,2000,-116,17896,4.12,91.3
4517,2060,-120,17868,4.12,91.3
4520,2012,-152,17608,4.12,91.3
4523,2036,-184,17920,4.12,91.3
4526,2092,-184,17852,4.12,91.3
4529,1916,-72,17908,4.12,91.3
4532,2052,-88,17924,4.12,91.3
4535,2084,-156,17960,4.12,91.3
4538,2004,-176,17728,4.12,91.3
4551,1992,-140,17892,4.12,91.3
4554,2064,-172,17836,4.12,91.3
4557,2056,-80,17920,4.12,91.3
4560,2028,-96,17820,4.12,91.3
4563,2080,-152,17868,4.12,91.3
4566,1952,-144,17828,4.12,91.3
4569,2060,-100,17724,4.12,91.3
4572,1996,-16,17784,4.12,91.3
4575,2092,-116,17888,4.12,91.3
4578,2024,-68,17828,4.12,91.3
4581,1988,-200,17792,4.12,91.3
4584,2052,-180,17868,4.12,91.3
4587,2096,-104,17844,4.12,91.3
4590,2068,-168,17824,4.12,91.3
4593,2092,-176,17760,4.12,91.3
4596,2020,-56,17816,4.12,91.3
4599,2016,-56,17788,4.12,91.3
4602,2004,-72,17760,4.12,91.3
4605,2048,-52,17860,4.12,91.3
4608,2052,-184,17816,4.12,91.3
4611,2072,-120,17796,4.12,91.3
4614,2048,-56,17908,4.12,91.3
4617,2044,-108,17880,4.12,91.3
4620,2012,-100,17732,4.12,91.3
4623,2044,-20,17740,4.12,91.3
4626,2040,-160,17772,4.12,91.3
4629,2064,-48,17916,4.12,91.3
4632,1980,-52,17836,4.12,91.3
4635,1972,-136,17740,4.12,91.3
4638,2080,-136,17844,4.12,91.3
4641,2004,-148,17792,4.12,91.3
4644,2040,-156,17672,4.12,91.3
4647,2000,-160,17700,4.12,91.3
4650,2072,-120,17908,4.12,91.3
4653,2100,-232,17872,4.12,91.3
4656,2152,-184,17920,4.12,91.3
4659,2100,-224,17888,4.12,91.3
4662,2192,-148,17904,4.12,91.3
4665,1964,-176,17896,4.12,91.3
4668,2000,-148,17740,4.12,91.3
4671,2084,-216,17920,4.12,91.3
4674,2080,-136,17912,4.12,91.3
4677,2024,-148,17892,4.12,91.3
4680,2084,-140,17788,4.12,91.3
4683,2132,-32,17828,4.12,91.3
4686,1944,-80,17856,4.12,91.3
4689,2088,-176,17900,4.12,91.3
4692,2016,-80,17764,4.12,91.3
4695,1928,-120,17892,4.12,91.3
4698,2040,-116,17740,4.12,91.3
4701,2064,-68,17864,4.12,91.3
4704,1944,-168,17836,4.12,91.3
4707,2124,-88,17892,4.12,91.3
4710,2000,-148,17872,4.12,91.3
4713,2036,-200,17856,4.12,91.3
4716,1980,-152,17880,4.12,91.3
4719,2104,-108,17904,4.12,91.3
4722,2060,-44,17892,4.12,91.3
4725,1936,-96,17896,4.12,91.3
4728,2016,-192,17676,4.12,91.3
4731,2036,-144,17760,4.12,91.3
4734,1972,-160,17840,4.12,91.3
4737,2000,-100,17828,4.12,91.3
4740,2044,-104,17860,4.12,91.3
4743,2044,-104,17648,4.12,91.3
4746,2036,-64,17852,4.12,91.3
4749,2088,-164,17764,4.12,91.3
4752,1964,-136,17832,4.12,91.3
4755,2104,-148,17660,4.12,91.3
4758,1988,-184,17788,4.12,91.3
4761,2024,-124,17820,4.12,91.3
4764,1980,-148,17876,4.12,91.3
4767,1960,-152,17752,4.12,91.3
4770,2032,-40,17724,4.12,91.3
4773,2120,-112,17804,4.12,91.3
4776,1924,-156,17796,4.12,91.3
4779,2096,-72,17728,4.12,91.3
4782,2000,-196,17836,4.12,91.3
4785,2012,-148,17740,4.12,91.3
4788,2076,-84,17900,4.12,91.3
4791,2036,-160,17904,4.12,91.3
4794,2056,-88,17740,4.12,91.3
4797,2112,-56,17856,4.12,91.3
4800,2156,-116,17808,4.12,91.3
4803,2012,-120,17896,4.12,91.3
4806,2124,-176,17836,4.12,91.3
4809,2032,-136,17904,4.12,91.3
4812,2032,-120,17776,4.12,91.3
4815,2052,-96,17820,4.12,91.3
4818,2064,-144,17796,4.12,91.3
4821,1976,-128,17696,4.12,91.3
4824,2120,-116,17816,4.12,91.3
4827,2020,-72,17912,4.12,91.3
4830,2072,-112,17736,4.12,91.3
4833,2068,-236,17704,4.12,91.3
4836,1996,-116,17868,4.12,91.3
4839,1952,-120,17828,4.12,91.3
4842,2044,-236,17896,4.12,91.3
4845,2056,-160,17756,4.12,91.3
4848,2004,-112,17896,4.12,91.3
4851,2064,-48,17820,4.12,91.3
4854,2040,-108,17844,4.12,91.3
4857,1940,-160,17864,4.12,91.3
4860,2056,-112,17868,4.12,91.3
4863,2068,-200,17764,4.12,91.3
4866,2160,-4,17708,4.12,91.3
4869,2048,-96,17796,4.12,91.3
4872,2056,-136,17940,4.12,91.3
4875,2020,-156,17780,4.12,91.3
4878,2036,-144,17712,4.12,91.3
4881,2040,-212,17700,4.12,91.3
4884,2012,-140,17884,4.12,91.3
4887,2104,-52,17728,4.12,91.3
4890,2072,-112,17820,4.12,91.3
4893,2004,-132,17792,4.12,91.3
4896,2076,-140,17752,4.12,91.3
4899,2108,-208,17900,4.12,91.3
4902,2092,-112,17944,4.12,91.3
4905,2076,-172,17780,4.12,91.3
4908,2052,-8,17704,4.12,91.3
4911,1984,-108,17800,4.12,91.3
4914,2124,-212,17808,4.12,91.3
4917,2044,-68,17820,4.12,91.3
4920,2144,-64,17856,4.12,91.3
4923,2044,8,17852,4.12,91.3
4926,2052,-116,17824,4.12,91.3
4929,1992,-272,17820,4.12,91.3
4932,1952,-132,17668,4.12,91.3
4935,2016,-156,17780,4.12,91.3
4938,2092,-116,17808,4.12,91.3
4941,2060,-100,17804,4.12,91.3
4944,2016,-172,17836,4.12,91.3
4947,1984,-116,17776,4.12,91.3
4960,2064,-28,17848,4.12,91.3
4963,1992,-188,17768,4.12,91.3
4966,1884,-204,17968,4.12,91.3
4969,1996,-252,17912,4.12,91.3
4972,2012,-152,17744,4.12,91.3
4975,2084,-80,17724,4.12,91.3
4978,2048,-32,17872,4.12,91.3
4981,2064,-56,17836,4.12,91.3
4984,1968,-152,17812,4.12,91.3
4987,2016,-12,17744,4.12,91.3
4990,2004,-96,17724,4.12,91.3
4993,2104,-152,17980,4.12,91.3
4996,1976,-68,17816,4.12,91.3
4999,2060,-128,17928,4.12,91.3
5002,2084,-172,17776,4.12,91.3
5005,2104,-196,18124,4.12,91.3
5008,1976,-140,17944,4.12,91.3
5011,2024,-280,17816,4.12,91.3
5014,1964,-116,17764,4.12,91.3
5017,2104,-128,17944,4.12,91.3
5020,2124,-44,17728,4.12,91.3
5023,2004,-156,17880,4.12,91.3
5026,2052,-88,17872,4.12,91.3
5029,2044,-216,17808,4.12,91.3
5032,1936,-152,17800,4.12,91.3
5035,2108,-80,17804,4.12,91.3
5038,2016,-112,17852,4.12,91.3
5041,2004,-88,17796,4.12,91.3
5044,2064,-132,17844,4.12,91.3
5047,2036,-76,17808,4.12,91.3
5050,2076,-96,17708,4.12,91.3
5053,1972,-120,17892,4.12,91.3
5056,1956,-212,17840,4.12,91.3
5059,1900,-212,17764,4.12,91.3
5062,1976,-112,17872,4.12,91.3
5065,2052,-104,17784,4.12,91.3
5068,1980,-96,17852,4.12,91.3
5071,1948,-92,17856,4.12,91.3
5074,1972,-64,17892,4.12,91.3
5077,1972,-140,17824,4.12,91.3
5080,2060,-140,17880,4.12,91.3
5083,2008,-156,17848,4.12,91.3
5086,1944,-108,17736,4.12,91.3
5089,2008,-96,17840,4.12,91.3
5092,1980,-184,17704,4.12,91.3
5095,2024,-132,17912,4.12,91.3
5098,2048,-100,17732,4.12,91.3
5101,1980,-144,17832,4.12,91.3
5104,2076,-192,17772,4.12,91.3
5107,2080,-96,17892,4.12,91.3
5110,2080,-120,17912,4.12,91.3
5113,2004,-160,17740,4.12,91.3
5116,2036,-260,17760,4.12,91.3
5119,2052,-48,17904,4.12,91.3
5122,2124,-216,17852,4.12,91.3
5125,1920,-76,18044,4.12,91.3
5128,2044,-20,17788,4.12,91.3
5131,2048,-212,17800,4.12,91.3
5134,2020,-144,17892,4.12,91.3
5137,2052,-72,17880,4.12,91.3
5140,2104,-228,17852,4.12,91.3
5143,2092,-128,17864,4.12,91.3
5146,1940,-148,17836,4.12,91.3
5149,2164,-100,17868,4.12,91.3
5152,2004,-124,17880,4.12,91.3
5155,2084,-204,17908,4.12,91.3
5158,1992,-172,17932,4.12,91.3
5161,2008,-72,17792,4.12,91.3
5164,2060,-48,17628,4.12,91.3
5167,1964,-116,17748,4.12,91.3
5170,2040,-108,17716,4.12,91.3
5173,1968,-100,17840,4.12,91.3
5176,2092,-84,17828,4.12,91.3
5179,2032,-120,17860,4.12,91.3
5182,2044,-184,17848,4.12,91.3
5185,2028,-252,17860,4.12,91.3
5188,2036,-248,17884,4.12,91.3
5191,2060,-116,17768,4.12,91.3
5194,2104,-48,17696,4.12,91.3
5197,2044,-140,17884,4.12,91.3
5200,1972,-136,17796,4.12,91.3
5203,2004,-172,17920,4.12,91.3
5206,2040,16,17804,4.12,91.3
5209,2124,-12,17796,4.12,91.3
5212,2004,-116,17764,4.12,91.3
5215,2048,-164,17836,4.12,91.3
5218,1984,-192,17864,4.12,91.3
5221,2136,-60,17812,4.12,91.3
5224,2108,-128,17796,4.12,91.3
5227,2044,-152,17848,4.12,91.3
5230,2004,-36,17908,4.12,91.3
5233,2072,-104,17964,4.12,91.3
5236,2048,-152,17836,4.12,91.3
5239,2056,-64,17872,4.12,91.3
5242,1992,-60,17792,4.12,91.3
5245,2084,-104,17888,4.12,91.3
5248,2048,-148,17824,4.12,91.3
5251,1936,-76,17932,4.12,91.3
5254,1928,-112,17768,4.12,91.3
5257,1928,-168,17756,4.12,91.3
5260,1928,-128,17900,4.12,91.3
5263,2040,-168,17720,4.12,91.3
5266,2016,-112,17848,4.12,91.3
5269,2068,-68,17960,4.12,91.3
5272,1992,-104,17756,4.12,91.3
5275,2024,-48,17872,4.12,91.3
5278,1960,-224,17896,4.12,91.3
5281,2028,-192,17764,4.12,91.3
5284,2144,-212,17896,4.12,91.3
5287,2084,-136,17792,4.12,91.3
5290,2044,-68,17776,4.12,91.3
5293,1992,-56,17792,4.12,91.3
5296,2020,-60,17828,4.12,91.3
5299,2064,-184,17848,4.12,91.3
5302,1980,-124,17796,4.12,91.3
5305,2144,-192,17736,4.12,91.3
5308,2164,-156,17764,4.12,91.3
5311,2024,-96,17944,4.12,91.3
5314,2060,-128,17804,4.12,91.3
5317,1980,-96,17844,4.12,91.3
5320,2048,-108,17980,4.12,91.3
5323,1968,-164,17872,4.12,91.3
5326,2068,-32,17948,4.12,91.3
5329,1976,-88,17828,4.12,91.3
5332,2036,-36,17952,4.12,91.3
5335,1992,-128,17932,4.12,91.3
5338,1944,-112,17800,4.12,91.3
5341,2016,-124,17904,4.12,91.3
5344,2052,-120,17720,4.12,91.3
5347,2012,-84,17948,4.12,91.3
5350,2036,-96,17896,4.12,91.3
5353,2128,-244,17828,4.12,91.3
5356,1996,-116,17660,4.12,91.3
5359,2072,-184,17740,4.12,91.3
5371,2072,-108,17764,4.12,91.3
5375,2036,-104,17788,4.12,91.3
5378,2024,-88,17796,4.12,91.3
5381,2032,-144,17780,4.12,91.3
5384,2104,-120,17888,4.12,91.3
5387,1968,-88,17784,4.12,91.3
5390,2076,-176,17876,4.12,91.3
5393,2156,-180,17828,4.12,91.3
5396,2016,-44,17824,4.12,91.3
5399,2016,-156,17812,4.12,91.3
5402,1972,-184,17668,4.12,91.3
5405,2088,-228,17792,4.12,91.3
5408,1944,-72,17888,4.12,91.3
5411,2016,-172,17744,4.12,91.3
5414,2160,-144,17736,4.12,91.3
5417,2024,-200,17896,4.12,91.3
5420,2052,-108,17968,4.12,91.3
5423,2056,-132,17860,4.12,91.3
5426,2180,-160,17760,4.12,91.3
5429,2092,-160,17660,4.12,91.3
5432,2056,-156,17976,4.12,91.3
5435,2076,-204,17816,4.12,91.3
5438,2064,-140,17748,4.12,91.3
5441,2060,-128,17948,4.12,91.3
5444,2092,-88,17860,4.12,91.3
5447,2040,-236,17828,4.12,91.3
5450,2108,-192,17760,4.12,91.3
5453,2008,-236,17904,4.12,91.3
5456,2016,-224,17876,4.12,91.3
5459,1984,-168,17900,4.12,91.3
5462,2024,-52,17736,4.12,91.3
5465,2088,-108,17832,4.12,91.3
5468,2044,-204,17728,4.12,91.3
5471,2028,-124,17828,4.12,91.3
5474,1892,-152,17828,4.12,91.3
5477,1896,-144,17832,4.12,91.3
5480,2084,-156,17872,4.12,91.3
5483,1972,-88,17776,4.12,91.3
5486,2016,-232,17796,4.12,91.3
5489,1988,-160,17940,4.12,91.3
5492,2028,-108,17772,4.12,91.3
5495,2044,-160,17836,4.12,91.3
5498,2016,-152,17980,4.12,91.3
5501,1944,-148,17796,4.12,91.3
5504,2076,-204,17984,4.12,91.3
5507,1968,-160,17824,4.12,91.3
5510,1960,-176,17704,4.12,91.3
5513,2048,-64,17884,4.12,91.3
5516,2068,-36,17868,4.12,91.3
5519,1992,-80,17828,4.12,91.3
5522,2028,-124,17824,4.12,91.3
5525,2052,-160,17812,4.12,91.3
5528,2016,-148,17776,4.12,91.3
5531,1976,-96,17780,4.12,91.3
5534,2112,-180,17824,4.12,91.3
5537,2020,-196,17760,4.12,91.3
5540,2064,-200,17904,4.12,91.3
5543,2108,-140,17896,4.12,91.3
5546,2116,-72,17760,4.12,91.3
5549,2048,-176,17748,4.12,91.3
5552,2016,-136,17760,4.12,91.3
5555,2092,-68,17928,4.12,91.3
5558,2064,-192,17780,4.12,91.3
5561,2132,-152,17876,4.12,91.3
5564,2128,-144,17876,4.12,91.3
5567,2084,-136,17968,4.12,91.3
5570,2080,-116,17856,4.12,91.3
5573,2036,-100,17808,4.12,91.3
5576,2104,-108,17748,4.12,91.3
5579,2076,-220,17844,4.12,91.3
5582,2080,-72,17856,4.12,91.3
5585,2080,-84,17860,4.12,91.3
5588,2040,-256,17856,4.12,91.3
5591,2064,-188,17936,4.12,91.3
5594,1924,-192,17928,4.12,91.3
5597,2100,-96,17880,4.12,91.3
5600,2056,-96,17884,4.12,91.3
5603,1956,-80,17744,4.12,91.3
5606,2008,-144,17808,4.12,91.3
5609,2012,-232,17796,4.12,91.3
5612,2048,-128,17888,4.12,91.3
5615,2000,-140,17836,4.12,91.3
5618,2020,-64,17884,4.12,91.3
5621,2008,-52,17728,4.12,91.3
5624,2020,-140,17824,4.12,91.3
5627,2020,-212,17864,4.12,91.3
5630,2056,-176,17848,4.12,91.3
5633,2004,-100,17704,4.12,91.3
5636,2024,-136,17896,4.12,91.3
5639,2104,12,17892,4.12,91.3
5642,2020,-112,17816,4.12,91.3
5645,2016,-104,17864,4.12,91.3
5648,2024,-172,17820,4.12,91.3
5651,2052,-72,17892,4.12,91.3
5654,1996,-140,17832,4.12,91.3
5657,2056,-160,17640,4.12,91.3
5660,2008,-116,17820,4.12,91.3
5663,2056,-120,17824,4.12,91.3
5666,1996,-120,17880,4.12,91.3
5669,1956,-164,17740,4.12,91.3
5672,2088,-56,17948,4.12,91.3
5675,1936,-160,17756,4.12,91.3
5678,1992,-144,17952,4.12,91.3
5681,2036,-84,17816,4.12,91.3
5684,2044,-112,17888,4.12,91.3
5687,2096,-148,17820,4.12,91.3
5690,2052,-136,17880,4.12,91.3
5693,2084,-192,17808,4.12,91.3
5696,2052,-36,17844,4.12,91.3
5699,2020,-132,17768,4.12,91.3
5702,2144,-136,17712,4.12,91.3
5705,2068,-148,17668,4.12,91.3
5708,2100,-184,17784,4.12,91.3
5711,2112,-68,17836,4.12,91.3
5714,2132,-112,17860,4.12,91.3
5717,2032,-96,17792,4.12,91.3
5720,2068,-128,17744,4.12,91.3
5723,2032,-200,17740,4.12,91.3
5726,2048,-180,17900,4.12,91.3
5729,2000,-92,17748,4.12,91.3
5732,2000,-108,17740,4.12,91.3
5735,2004,-92,17880,4.12,91.3
5738,1988,-76,17728,4.12,91.3
5741,1992,-40,17824,4.12,91.3
5744,1980,-116,17836,4.12,91.3
5747,2000,-80,17784,4.12,91.3
5750,2124,-84,17840,4.12,91.3
5753,2188,-212,17720,4.12,91.3
5756,1992,-100,17776,4.12,91.3
5759,2028,-176,17768,4.12,91.3
5762,2020,-160,17980,4.12,91.3
5765,2056,-96,17916,4.12,91.3
5768,1968,-152,17876,4.12,91.3
5781,1976,-172,17848,4.12,91.3
5784,2100,-152,17836,4.12,91.3
5787,2132,-80,17676,4.12,91.3
5790,2008,-48,17816,4.12,91.3
5793,1988,-96,17864,4.12,91.3
5796,2100,-124,17856,4.12,91.3
5799,2040,-188,17772,4.12,91.3
5802,2036,-288,17760,4.12,91.3
5805,1964,-180,17764,4.12,91.3
5808,2024,-168,17780,4.12,91.3
5811,1964,-172,17808,4.12,91.3
5814,1928,-164,17820,4.12,91.3
5817,2020,-68,17784,4.12,91.3
5820,2036,-92,17836,4.12,91.3
5823,2072,-60,17836,4.12,91.3
5826,2088,-72,17812,4.12,91.3
5829,2004,-44,17864,4.12,91.3
5832,2100,-108,17908,4.12,91.3
5835,2032,-120,17880,4.12,91.3
5838,2044,-140,17824,4.12,91.3
5841,2068,-100,17744,4.12,91.3
5844,2040,-168,17864,4.12,91.3
5847,1980,-56,17856,4.12,91.3
5850,2068,-36,17844,4.12,91.3
5853,1984,-208,17828,4.12,91.3
5856,1928,-164,17784,4.12,91.3
5859,2108,-144,17756,4.12,91.3
5862,1980,-148,17724,4.12,91.3
5865,2092,-160,17940,4.12,91.3
5868,2028,-76,17800,4.12,91.3
5871,2072,-220,17828,4.12,91.3
5874,2100,-172,17804,4.12,91.3
5877,2024,-64,17988,4.12,91.3
5880,2020,-112,17864,4.12,91.3
5883,2080,-168,17808,4.12,91.3
5886,2052,-92,17816,4.12,91.3
5889,2040,-120,17852,4.12,91.3
5892,2052,-12,17936,4.12,91.3
5895,2060,-44,17648,4.12,91.3
5898,1984,-116,17776,4.12,91.3
5901,2108,-152,17800,4.12,91.3
5904,2092,-128,18000,4.12,91.3
5907,1984,-228,17908,4.12,91.3
5910,2192,-156,17744,4.12,91.3
5913,1976,-164,17724,4.12,91.3
5916,2032,-108,17756,4.12,91.3
5919,2008,-164,17852,4.12,91.3
5922,2044,-76,17812,4.12,91.3
5925,2120,-92,17856,4.12,91.3
5928,1932,-160,17888,4.12,91.3
5931,2024,-116,17976,4.12,91.3
5934,2156,-124,17976,4.12,91.3
5937,2012,-140,17968,4.12,91.3
5940,2088,-132,17796,4.12,91.3
5943,1908,-152,17868,4.12,91.3
5946,2016,-116,17924,4.12,91.3
5949,2080,-84,17852,4.12,91.3
5952,2152,-136,17836,4.12,91.3
5955,2080,-236,17844,4.12,91.3
5958,2080,-164,17924,4.12,91.3
5961,2060,-64,17884,4.12,91.3
5964,2044,-192,17776,4.12,91.3
5967,2104,-236,17828,4.12,91.3
5970,2096,-152,17828,4.12,91.3
5973,2040,-108,17880,4.12,91.3
5976,2084,-156,18004,4.12,91.3
5979,2020,-200,17892,4.12,91.3
5982,2012,-152,17808,4.12,91.3
5985,2020,-116,17780,4.12,91.3
5988,2056,-132,17868,4.12,91.3
5991,1992,-44,17896,4.12,91.3
5994,2020,-144,17856,4.12,91.3
5997,1960,-100,17856,4.12,91.3
6000,2028,-148,17800,4.12,91.3
6003,2100,-72,17664,4.12,91.3
6006,1960,-148,17816,4.12,91.3
6009,2028,-200,17840,4.12,91.3
6012,1988,-132,17912,4.12,91.3
6015,1980,-116,17664,4.12,91.3
6018,2000,-120,17956,4.12,91.3
6021,2024,-92,17752,4.12,91.3
6024,2008,-124,17848,4.12,91.3
6027,2088,-16,17948,4.12,91.3
6030,2104,-132,17776,4.12,91.3
6033,2032,-120,17860,4.12,91.3
6036,2004,-108,17860,4.12,91.3
6039,2024,-184,17852,4.12,91.3
6042,2028,-196,17816,4.12,91.3
6045,2068,-140,17792,4.12,91.3
6048,2016,-224,17924,4.12,91.3
6051,2064,-80,17920,4.12,91.3
6054,2120,-192,17784,4.12,91.3
6057,1972,-196,17808,4.12,91.3
6060,2076,-124,17816,4.12,91.3
6063,2124,-100,17864,4.12,91.3
6066,2096,-168,17860,4.12,91.3
6069,1980,-160,17772,4.12,91.3
6072,1956,-156,17808,4.12,91.3
6075,1940,-144,17760,4.12,91.3
6078,1988,-64,18052,4.12,91.3
6081,2068,-200,17884,4.12,91.3
6084,2000,-140,17880,4.12,91.3
6087,1988,-240,17916,4.12,91.3
6090,2072,-164,17932,4.12,91.3
6093,2056,-140,17868,4.12,91.3
6096,2028,-200,17932,4.12,91.3
6099,1980,-112,17752,4.12,91.3
6102,2036,-116,17752,4.12,91.3
6105,2068,-140,17704,4.12,91.3
6108,1952,-116,17688,4.12,91.3
6111,2008,-148,17864,4.12,91.3
6114,2076,-76,17908,4.12,91.3
6117,2112,-136,17852,4.12,91.3
6120,2104,-136,17876,4.12,91.3
6123,2064,-208,17732,4.12,91.3
6126,2036,-176,17960,4.12,91.3
6129,2088,-168,17852,4.12,91.3
6132,2044,-108,18040,4.12,91.3
6135,2000,-120,17780,4.12,91.3
6138,2056,-20,17780,4.12,91.3
6141,2092,-60,17820,4.12,91.3
6144,2000,-276,17768,4.12,91.3
6147,2044,-148,17764,4.12,91.3
6150,2032,-180,17864,4.12,91.3
6153,2028,-156,17868,4.12,91.3
6156,2024,-132,17848,4.12,91.3
6159,2096,-60,17800,4.12,91.3
6162,1944,-68,17832,4.12,91.3
6165,1944,-128,17924,4.12,91.3
6168,2008,-168,17892,4.12,91.3
6171,2056,-44,17832,4.12,91.3
6174,1980,-156,17864,4.12,91.3
6177,2024,-224,17776,4.12,91.3
6190,2056,-96,17772,4.12,91.3
6193,2044,-88,17780,4.12,91.3
6196,2024,-108,17832,4.12,91.3
6199,2020,-108,17796,4.12,91.3
6202,2048,4,17844,4.12,91.3
6205,2064,-60,17716,4.12,91.3
6208,2052,-104,17864,4.12,91.3
6211,1980,-160,17804,4.12,91.3
6214,2120,-112,17908,4.12,91.3
6217,1996,4,17708,4.12,91.3
6220,2036,-144,17956,4.12,91.3
6223,2000,-88,17768,4.12,91.3
6226,2016,-28,17948,4.12,91.3
6229,2080,24,17992,4.12,91.3
6232,2100,-36,17788,4.12,91.3
6235,1968,-96,17760,4.12,91.3
6238,2064,-80,17772,4.12,91.3
6241,2076,-108,18016,4.12,91.3
6244,2032,-80,17760,4.12,91.3
6247,2140,-200,18016,4.12,91.3
6250,2056,-56,17744,4.12,91.3
6253,2020,-160,17904,4.12,91.3
6256,1964,-96,17980,4.12,91.3
6259,2056,-100,17816,4.12,91.3
6262,1980,-136,17852,4.12,91.3
6265,2024,-168,17828,4.12,91.3
6268,2060,-116,17756,4.12,91.3
6271,2064,-96,17916,4.12,91.3
6274,2096,-76,17892,4.12,91.3
6277,2096,-76,17828,4.12,91.3
6280,2088,-264,17696,4.12,91.3
6283,2008,-180,17736,4.12,91.3
6286,2036,-184,17808,4.12,91.3
6289,2076,-116,17728,4.12,91.3
6292,2056,-132,17740,4.12,91.3
6295,2020,-84,17840,4.12,91.3
6298,1972,-204,18016,4.12,91.3
6301,2040,-128,17668,4.12,91.3
6304,2016,-136,17860,4.12,91.3
6307,2040,-52,17808,4.12,91.3
6310,1928,-132,17728,4.12,91.3
6313,2060,-180,17832,4.12,91.3
6316,2108,-20,17800,4.12,91.3
6319,2012,-116,17956,4.12,91.3
6322,2052,-140,17888,4.12,91.3
6325,2060,-180,17924,4.12,91.3
6328,1960,-180,17668,4.12,91.3
6331,1952,-120,17876,4.12,91.3
6334,1912,-88,17784,4.12,91.3
6337,2012,-104,17780,4.12,91.3
6340,1992,-84,17816,4.12,91.3
6343,2108,-148,17828,4.12,91.3
6346,2080,-108,17808,4.12,91.3
6349,2104,-148,17912,4.12,91.3
6352,2008,-156,17700,4.12,91.3
6355,2056,-80,17760,4.12,91.3
6358,2008,-124,17980,4.12,91.3
6362,2216,-160,17848,4.12,91.3
6365,2028,-32,17856,4.12,91.3
6368,2012,-172,17904,4.12,91.3
6371,2104,-76,17896,4.12,91.3
6374,2056,-96,17876,4.12,91.3
6377,2116,-104,17852,4.12,91.3
6380,1932,-152,17816,4.12,91.3
6383,1984,-112,17836,4.12,91.3
6386,2040,-108,17856,4.12,91.3
6389,2032,-196,17832,4.12,91.3
6392,2016,-72,17856,4.12,91.3
6395,2072,-132,17808,4.12,91.3
6398,2100,-204,17856,4.12,91.3
6401,1996,-64,17680,4.12,91.3
6404,2028,-128,17740,4.12,91.3
6407,2104,-96,17912,4.12,91.3
6410,2044,-120,17736,4.12,91.3
6413,2016,-96,17880,4.12,91.3
6416,2072,-196,17740,4.12,91.3
6419,2076,-184,17876,4.12,91.3
6422,2044,-168,17820,4.12,91.3
6425,2072,-184,17844,4.12,91.3
6428,1908,-220,17856,4.12,91.3
6431,2016,-204,17780,4.12,91.3
6434,2036,-112,17712,4.12,91.3
6437,2088,-88,17608,4.12,91.3
6440,1988,-60,17888,4.12,91.3
6443,2132,-132,17820,4.12,91.3
6446,2116,-80,17812,4.12,91.3
6449,1948,-48,17880,4.12,91.3
6452,1996,-92,17880,4.12,91.3
6455,2044,-128,17872,4.12,91.3
6458,2000,-104,17852,4.12,91.3
6461,2072,-128,17780,4.12,91.3
6464,2100,-204,17940,4.12,91.3
6467,2000,-84,17884,4.12,91.3
6470,2000,-132,17736,4.12,91.3
6473,2096,-100,17744,4.12,91.3
6476,2096,-68,17968,4.12,91.3
6479,1944,-220,17916,4.12,91.3
6482,2044,-108,17872,4.12,91.3
6485,1984,-188,17748,4.12,91.3
6488,2132,-108,17740,4.12,91.3
6491,2052,-156,17800,4.12,91.3
6494,1984,-108,17864,4.12,91.3
6497,1996,-108,17792,4.12,91.3
6500,1992,-84,17892,4.12,91.3
6503,1980,-108,17880,4.12,91.3
6506,2036,-40,17692,4.12,91.3
6509,2016,-68,17704,4.12,91.3
6512,2024,-116,17952,4.12,91.3
6515,2148,-148,17904,4.12,91.3
6518,2000,-124,17868,4.12,91.3
6521,2004,-96,17944,4.12,91.3
6524,2032,-184,17848,4.12,91.3
6527,2000,-32,17872,4.12,91.3
6530,2084,-196,17740,4.12,91.3
6533,2000,-132,17872,4.12,91.3
6536,2032,-136,17764,4.12,91.3
6539,1980,-136,17876,4.12,91.3
6542,2044,-64,17836,4.12,91.3
6545,2124,-160,17792,4.12,91.3
6548,2032,-212,17736,4.12,91.3
6551,2036,-164,17764,4.12,91.3
6554,2032,-120,17816,4.12,91.3
6558,2044,-164,17704,4.12,91.3
6561,2000,-108,17792,4.12,91.3
6564,2016,-8,17768,4.12,91.3
6567,1992,-168,17792,4.12,91.3
6570,2004,-80,17740,4.12,91.3
6573,2092,-116,17756,4.12,91.3
6576,2084,-96,17680,4.12,91.3
6579,2028,-44,17840,4.12,91.3
6582,2124,-60,17828,4.12,91.3
6585,2084,-92,17776,4.12,91.3
6588,2148,-128,17728,4.12,91.3
6591,2092,-160,17820,4.12,91.3
6603,2008,-188,17816,4.12,91.3
6606,1924,-204,17816,4.12,91.3
6609,2044,-96,17848,4.12,91.3
6612,2000,-92,17812,4.12,91.3
6615,2144,-192,17688,4.12,91.3
6618,1964,-140,17884,4.12,91.3
6621,1992,-176,17716,4.12,91.3
6624,2108,-144,17712,4.12,91.3
6627,2084,-184,17812,4.12,91.3
6630,2012,-168,17884,4.12,91.3
6633,2016,-216,17792,4.12,91.3
6636,2072,-124,17716,4.12,91.3
6639,2020,-192,17844,4.12,91.3
6642,1972,-132,17912,4.12,91.3
6645,2152,-96,17820,4.12,91.3
6648,2084,-60,17780,4.12,91.3
6651,1944,-152,17732,4.12,91.3
6654,2020,-76,17900,4.12,91.3
6657,2012,-120,17808,4.12,91.3
6660,1964,-96,17624,4.12,91.3
6663,2080,-156,17756,4.12,91.3
6666,2032,-132,17948,4.12,91.3
6669,2108,-120,17736,4.12,91.3
6672,1980,-196,17972,4.12,91.3
6675,2056,-96,17772,4.12,91.3
6678,2032,-152,17996,4.12,91.3
6681,2096,-196,17952,4.12,91.3
6684,2036,-152,17884,4.12,91.3
6687,2048,-120,17932,4.12,91.3
6690,2024,-72,17800,4.12,91.3
6693,2040,-96,17936,4.12,91.3
6696,2052,-268,17692,4.12,91.3
6699,1984,-164,17880,4.12,91.3
6702,2072,-108,17804,4.12,91.3
6705,1968,-116,17828,4.12,91.3
6708,2056,-116,17796,4.12,91.3
6711,2036,-68,18012,4.12,91.3
6714,2112,-32,17848,4.12,91.3
6717,1968,-24,17980,4.12,91.3
6720,2044,-296,17872,4.12,91.3
6723,2060,-136,17896,4.12,91.3
6726,2040,16,17816,4.12,91.3
6729,2060,-92,17908,4.12,91.3
6732,1996,-124,17816,4.12,91.3
6735,2064,-48,17816,4.12,91.3
6738,2020,-128,17808,4.12,91.3
6741,2096,-148,17872,4.12,91.3
6744,1976,-88,17788,4.12,91.3
6747,2048,-192,17668,4.12,91.3
6750,2032,-128,17864,4.12,91.3
6753,2032,-96,17760,4.12,91.3
6756,2040,-144,17788,4.12,91.3
6759,2108,-244,17952,4.12,91.3
6762,2008,-52,17752,4.12,91.3
6765,2040,-160,17940,4.12,91.3
6768,2044,-92,17860,4.12,91.3
6771,2060,-188,17948,4.12,91.3
6774,1980,-124,17856,4.12,91.3
6777,2072,-136,17860,4.12,91.3
6780,2100,-136,17768,4.12,91.3
6783,2064,-220,17728,4.12,91.3
6787,2020,-140,17776,4.12,91.3
6790,1988,-64,17732,4.12,91.3
6793,2168,-140,17856,4.12,91.3
6796,2160,-124,17852,4.12,91.3
6799,2144,-112,17852,4.12,91.3
6802,1992,-184,17816,4.12,91.3
6805,2064,-148,17840,4.12,91.3
6808,2052,-200,17920,4.12,91.3
6811,2144,-116,17844,4.12,91.3
6814,2104,-132,17824,4.12,91.3
6817,1944,12,17816,4.12,91.3
6820,2048,-56,17844,4.12,91.3
6823,2100,-108,17856,4.12,91.3
6826,2104,-96,17764,4.12,91.3
6829,2012,-84,17868,4.12,91.3
6832,1908,-224,17844,4.12,91.3
6835,2088,-64,17900,4.12,91.3
6838,2072,-156,17848,4.12,91.3
6841,2044,-212,17816,4.12,91.3
6844,1984,-96,17820,4.12,91.3
6847,2000,-112,17996,4.12,91.3
6850,1948,-172,17952,4.12,91.3
6853,2052,-132,17768,4.12,91.3
6856,2052,-68,17632,4.12,91.3
6859,2028,-112,17636,4.12,91.3
6862,1984,-96,17872,4.12,91.3
6865,2104,-180,17872,4.12,91.3
6868,2048,-120,17880,4.12,91.3
6871,2060,-96,17912,4.12,91.3
6874,1920,-208,17796,4.12,91.3
6877,2076,-148,17944,4.12,91.3
6880,2000,-144,17980,4.12,91.3
6883,2096,-148,17748,4.12,91.3
6886,2052,-88,17724,4.12,91.3
6889,2064,-92,17652,4.12,91.3
6892,1976,-88,17796,4.12,91.3
6895,2128,-56,17712,4.12,91.3
6898,2016,-148,17904,4.12,91.3
6901,2120,-176,17696,4.12,91.3
6904,1960,-112,17820,4.12,91.3
6907,2028,-124,17900,4.12,91.3
6910,2080,-96,17888,4.12,91.3
6913,2084,-84,17816,4.12,91.3
6916,2060,-80,17936,4.12,91.3
6919,2036,-96,17864,4.12,91.3
6922,2048,-144,17852,4.12,91.3
6925,2080,-140,17680,4.12,91.3
6928,2136,-108,17760,4.12,91.3
6931,2120,-104,17728,4.12,91.3
6934,2012,-160,17892,4.12,91.3
6937,2072,-56,17856,4.12,91.3
6940,2052,-144,17828,4.12,91.3
6943,2096,-120,17828,4.12,91.3
6946,1964,-88,17864,4.12,91.3
6949,2036,-144,17792,4.12,91.3
6952,2052,-76,17728,4.12,91.3
6955,2092,-124,17840,4.12,91.3
6958,2008,-128,17944,4.12,91.3
6961,2008,-96,17672,4.12,91.3
6964,2112,-92,17744,4.12,91.3
6967,2048,-44,17828,4.12,91.3
6970,2008,-124,17728,4.12,91.3
6973,2116,-116,17892,4.12,91.3
6976,2052,-88,17676,4.12,91.3
6979,1980,-196,17924,4.12,91.3
6982,2048,-180,17928,4.12,91.3
6985,1968,-44,17816,4.12,91.3
6988,2020,-184,17844,4.12,91.3
6991,2052,-140,17880,4.12,91.3
6994,2052,-124,17824,4.12,91.3
6997,2028,-148,17904,4.12,91.3
7000,1996,-104,17716,4.12,91.3
7003,2068,-88,17788,4.12,91.3
7015,2016,-60,17824,4.12,91.3
7018,1952,-108,17820,4.12,91.3
7021,2020,-92,17688,4.12,91.3
7024,2048,-108,17760,4.12,91.3
7027,2100,-120,17896,4.12,91.3
7030,2156,-136,17788,4.12,91.3
7033,2044,-152,17800,4.12,91.3
7036,1992,-180,17852,4.12,91.3
7039,1984,-208,17840,4.12,91.3
7042,2092,-8,17876,4.12,91.3
7045,2060,-76,17872,4.12,91.3
7048,2184,-128,17956,4.12,91.3
7051,2036,-132,17788,4.12,91.3
7054,2064,-116,17792,4.12,91.3
7057,1984,-152,17784,4.12,91.3
7060,2072,-84,17868,4.12,91.3
7063,2004,-156,17832,4.12,91.3
7066,2196,-112,17768,4.12,91.3
7069,2108,-152,17864,4.12,91.3
7072,2156,-112,17936,4.12,91.3
7075,1960,-164,17800,4.12,91.3
7078,2048,-132,17840,4.12,91.3
7081,2092,-144,17928,4.12,91.3
7084,2056,-156,17700,4.12,91.3
7087,1984,-144,17884,4.12,91.3
7090,2092,-208,17692,4.12,91.3
7093,1980,-236,17784,4.12,91.3
7096,2036,-124,17804,4.12,91.3
7099,2024,-220,17752,4.12,91.3
7102,2064,-124,17864,4.12,91.3
7105,2032,-192,17832,4.12,91.3
7108,2028,-132,17880,4.12,91.3
7111,1924,-208,17872,4.12,91.3
7114,2012,-256,17836,4.12,91.3
7117,1912,-128,17960,4.12,91.3
7120,1964,-172,17784,4.12,91.3
7123,2040,-40,17824,4.12,91.3
7126,1940,-56,17868,4.12,91.3
7129,2004,-156,17840,4.12,91.3
7132,1932,-192,17880,4.12,91.3
7135,2068,-140,17732,4.12,91.3
7138,2056,-148,17780,4.12,91.3
7141,1904,-168,17684,4.12,91.3
7144,2032,-108,17936,4.12,91.3
7147,2028,-132,17868,4.12,91.3
7150,2016,-28,17800,4.12,91.3
7153,2116,-172,17724,4.12,91.3
7156,2076,-148,17920,4.12,91.3
7159,1976,-140,17820,4.12,91.3
7162,2000,-20,17876,4.12,91.3
7165,2004,-24,17712,4.12,91.3
7168,2028,-116,17872,4.12,91.3
7171,2076,-136,17848,4.12,91.3
7174,2012,-188,17840,4.12,91.3
7177,2052,-96,17804,4.12,91.3
7180,2092,-164,17828,4.12,91.3
7183,2016,-28,17748,4.12,91.3
7186,2092,-116,17844,4.12,91.3
7189,2188,-132,17960,4.12,91.3
7192,2136,-160,17784,4.12,91.3
7195,2012,-124,17868,4.12,91.3
7198,2080,-164,17928,4.12,91.3
7201,2180,-228,17856,4.12,91.3
7204,2064,-120,17948,4.12,91.3
7207,1992,-160,17808,4.12,91.3
7210,2112,-144,17740,4.12,91.3
7213,2024,-88,17912,4.12,91.3
7216,2072,-288,17860,4.12,91.3
7219,2044,-80,17828,4.12,91.3
7222,2032,-144,17772,4.12,91.3
7225,2056,-64,17736,4.12,91.3
7228,1960,-120,17756,4.12,91.3
7231,2036,-124,17780,4.12,91.3
7234,2048,-80,17716,4.12,91.3
7237,2072,-160,17744,4.12,91.3
7240,1988,-196,17784,4.12,91.3
7243,2068,-160,17788,4.12,91.3
7246,2076,-116,17716,4.12,91.3
7249,2020,-148,17772,4.12,91.3
7252,2096,-56,17896,4.12,91.3
7255,2012,-152,17772,4.12,91.3
7258,1948,-104,17900,4.12,91.3
7261,2036,-148,17856,4.12,91.3
7264,2044,-232,17816,4.12,91.3
7267,2020,-152,17836,4.12,91.3
7270,2000,-112,17716,4.12,91.3
7273,2012,-168,17944,4.12,91.3
7276,2016,-140,17968,4.12,91.3
7279,2008,-220,17876,4.12,91.3
7282,1936,-120,17792,4.12,91.3
7285,2060,-156,18048,4.12,91.3
7288,2120,-132,18032,4.12,91.3
7291,1996,-108,17804,4.12,91.3
7294,1972,-128,17976,4.12,91.3
7297,2008,-140,17708,4.12,91.3
7300,2048,-56,17788,4.12,91.3
7303,2044,-168,17844,4.12,91.3
7306,2020,-200,18040,4.12,91.3
7309,2072,-196,17716,4.12,91.3
7312,2076,-12,17744,4.12,91.3
7315,2048,-156,17816,4.12,91.3
7318,2068,-104,17808,4.12,91.3
7321,2004,-136,17596,4.12,91.3
7324,2016,-40,17824,4.12,91.3
7327,2016,-36,17844,4.12,91.3
7330,2076,-200,17856,4.12,91.3
7333,1948,-176,17824,4.12,91.3
7336,1944,-192,17812,4.12,91.3
7339,2040,-124,17756,4.12,91.3
7342,1992,-96,17840,4.12,91.3
7345,2036,-124,17804,4.12,91.3
7348,2092,-108,17888,4.12,91.3
7351,1936,-80,17780,4.12,91.3
7354,2056,-148,17680,4.12,91.3
7357,1940,-112,17584,4.12,91.3
7360,1988,-132,17748,4.12,91.3
7363,2048,-40,17812,4.12,91.3
7366,1984,-68,17812,4.12,91.3
7369,1960,-92,17860,4.12,91.3
7372,2028,-172,17960,4.12,91.3
7375,1972,-100,17772,4.12,91.3
7378,1976,-56,17836,4.12,91.3
7381,2008,-64,17920,4.12,91.3
7384,2084,-120,17764,4.12,91.3
7387,2028,-176,17852,4.12,91.3
7390,2012,-144,17804,4.12,91.3
7393,2072,-72,17976,4.12,91.3
7396,2076,-180,17752,4.12,91.3
7399,2080,-108,17872,4.12,91.3
7402,1956,-116,17792,4.12,91.3
7405,2000,-172,17900,4.12,91.3
7408,1956,-140,17864,4.12,91.3
7411,2120,-192,17936,4.12,91.3
7424,2084,-144,17960,4.12,91.3
7427,2072,-92,17868,4.12,91.3
7430,2036,-84,17736,4.12,91.3
7433,2004,-200,17892,4.12,91.3
7436,2172,-180,17880,4.12,91.3
7439,2040,-116,17732,4.12,91.3
7442,2004,-88,17784,4.12,91.3
7445,1984,-132,17836,4.12,91.3
7448,2096,-108,17952,4.12,91.3
7451,2052,-104,17844,4.12,91.3
7454,2124,-140,17788,4.12,91.3
7457,2000,-164,17984,4.12,91.3
7460,2060,-232,17772,4.12,91.3
7463,2052,-184,17784,4.12,91.3
7466,2048,-148,17804,4.12,91.3
7469,2024,-64,17776,4.12,91.3
7472,2144,-136,17820,4.12,91.3
7475,2176,-96,17896,4.12,91.3
7478,2056,-132,18036,4.12,91.3
7481,2108,-136,17756,4.12,91.3
7484,2064,-100,17808,4.12,91.3
7487,2112,-164,17856,4.12,91.3
7490,2048,-32,17884,4.12,91.3
7493,1956,-156,17780,4.12,91.3
7496,2080,-208,17776,4.12,91.3
7499,2040,-80,17740,4.12,91.3
7502,2124,-108,17828,4.12,91.3
7505,2096,-108,17852,4.12,91.3
7508,1980,-140,17640,4.12,91.3
7511,2080,-84,17800,4.12,91.3
7514,1964,-128,17796,4.12,91.3
7517,2024,-84,17768,4.12,91.3
7520,2068,-128,17892,4.12,91.3
7523,1996,-128,17784,4.12,91.3
7526,2040,-128,17700,4.12,91.3
7529,2136,-148,17808,4.12,91.3
7532,2000,-128,17944,4.12,91.3
7535,1940,-72,17916,4.12,91.3
7538,1968,-204,17836,4.12,91.3
7541,2120,-8,18056,4.12,91.3
7544,2076,-192,17812,4.12,91.3
7547,1988,-132,17688,4.12,91.3
7550,2020,-104,17804,4.12,91.3
7553,2048,-204,17840,4.12,91.3
7556,2044,-128,17892,4.12,91.3
7559,1996,-160,17808,4.12,91.3
7562,1988,-176,17804,4.12,91.3
7565,2036,-176,17956,4.12,91.3
7568,2052,-80,17720,4.12,91.3
7571,2056,-176,17908,4.12,91.3
7574,2000,-132,17708,4.12,91.3
7577,1944,-216,17816,4.12,91.3
7580,2120,-60,17848,4.12,91.3
7583,1980,-100,17808,4.12,91.3
7586,2060,-104,17816,4.12,91.3
7589,2072,-196,17872,4.12,91.3
7592,2124,-76,17944,4.12,91.3
7595,2144,-76,17880,4.12,91.3
7598,2028,-164,17832,4.12,91.3
7601,2104,-152,17800,4.12,91.3
7604,2064,-100,17804,4.12,91.3
7607,2044,-92,17832,4.12,91.3
7610,1980,-88,17848,4.12,91.3
7613,2088,-24,17692,4.12,91.3
7616,2076,-92,17824,4.12,91.3
7619,2048,-148,17768,4.12,91.3
7622,2024,-4,17776,4.12,91.3
7625,1980,-80,17984,4.12,91.3
7628,2056,-64,17788,4.12,91.3
7631,2200,-72,17868,4.12,91.3
7634,1960,-168,17844,4.12,91.3
7637,1964,-128,17832,4.12,91.3
7640,1948,-148,17752,4.12,91.3
7643,2080,-104,17724,4.12,91.3
7646,1952,-40,17832,4.12,91.3
7649,2164,-132,17636,4.12,91.3
7652,2112,-112,17836,4.12,91.3
7655,1976,-132,17868,4.12,91.3
7658,1904,-296,17840,4.12,91.3
7661,1972,-156,17668,4.12,91.3
7664,2008,-156,17788,4.12,91.3
7667,2024,-88,17784,4.12,91.3
7670,2092,-152,17956,4.12,91.3
7673,2172,-144,17900,4.12,91.3
7676,2048,-208,17780,4.12,91.3
7679,2016,-160,17868,4.12,91.3
7682,2000,-120,17832,4.12,91.3
7685,2092,-108,17964,4.12,91.3
7688,2072,-196,17880,4.12,91.3
7691,2024,-184,17860,4.12,91.3
7694,2044,-52,17780,4.12,91.3
7697,1996,-108,17804,4.12,91.3
7700,1984,-172,17864,4.12,91.3
7703,1972,-200,17760,4.12,91.3
7706,2040,-168,17764,4.12,91.3
7709,2052,-160,17840,4.12,91.3
7712,2108,-128,17960,4.12,91.3
7715,2076,-96,17868,4.12,91.3
7718,2024,-140,17620,4.12,91.3
7721,2056,-116,17808,4.12,91.3
7724,2104,-68,17836,4.12,91.3
7727,1992,-92,17776,4.12,91.3
7730,2008,-56,17748,4.12,91.3
7733,2068,-148,17800,4.12,91.3
7736,2120,-204,17776,4.12,91.3
7739,1996,-144,17640,4.12,91.3
7742,2072,-60,17880,4.12,91.3
7745,2104,-232,17864,4.12,91.3
7748,2080,-104,18008,4.12,91.3
7751,1964,-96,17704,4.12,91.3
7754,2092,-60,17836,4.12,91.3
7757,2112,-124,17896,4.12,91.3
7760,2060,-84,17992,4.12,91.3
7763,2136,-104,17736,4.12,91.3
7766,2028,-80,17732,4.12,91.3
7769,2100,-76,17772,4.12,91.3
7772,1972,-140,17888,4.12,91.3
7775,2056,-52,17696,4.12,91.3
7778,1984,-148,17876,4.12,91.3
7781,1944,-88,17940,4.12,91.3
7784,2064,-212,17892,4.12,91.3
7787,1992,-208,17784,4.12,91.3
7790,1972,-144,17868,4.12,91.3
7793,2084,-184,17904,4.12,91.3
7796,2120,-48,17744,4.12,91.3
7799,2064,-168,17804,4.12,91.3
7802,2120,-140,17728,4.12,91.3
7805,2028,-164,17868,4.12,91.3
7808,2024,-128,17820,4.12,91.3
7811,2000,-144,17752,4.12,91.3
7814,2068,-140,17900,4.12,91.3
7817,1996,-208,17856,4.12,91.3
7820,2076,-64,17972,4.12,91.3
7833,2060,-128,17864,4.12,91.3
7836,2040,-108,17880,4.12,91.3
7839,2108,-148,17920,4.12,91.3
7842,2016,-92,17752,4.12,91.3
7845,2008,-120,17916,4.12,91.3
7848,1996,-120,17748,4.12,91.3
7851,2132,-140,17760,4.12,91.3
7854,2100,-144,17828,4.12,91.3
7857,2092,-140,17724,4.12,91.3
7860,2072,-180,17852,4.12,91.3
7863,2056,-88,17820,4.12,91.3
7866,2008,-144,17920,4.12,91.3
7869,2048,-168,17780,4.12,91.3
7872,2140,-20,17932,4.12,91.3
7875,2076,-136,17772,4.12,91.3
7878,1996,-140,17816,4.12,91.3
7881,2060,-72,17816,4.12,91.3
7884,2076,-144,17760,4.12,91.3
7887,2040,-152,17852,4.12,91.3
7890,1964,-208,17728,4.12,91.3
7893,2028,-164,17800,4.12,91.3
7896,2016,-40,17736,4.12,91.3
7899,2044,-208,17968,4.12,91.3
7902,1992,-148,17736,4.12,91.3
7905,1956,-132,17848,4.12,91.3
7908,2100,-172,18024,4.12,91.3
7911,2036,-136,17752,4.12,91.3
7914,2036,-56,17832,4.12,91.3
7917,1920,-180,17804,4.12,91.3
7920,2100,-80,17776,4.12,91.3
7923,1960,-156,17920,4.12,91.3
7926,2056,-128,17756,4.12,91.3
7929,1956,-160,17800,4.12,91.3
7932,1960,-128,17876,4.12,91.3
7935,2080,-72,17880,4.12,91.3
7938,1948,-164,17820,4.12,91.3
7941,1996,-184,17764,4.12,91.3
7944,2100,-56,17820,4.12,91.3
7947,1952,-148,17908,4.12,91.3
7950,2004,-184,17760,4.12,91.3
7953,1968,-140,17788,4.12,91.3
7956,2020,-132,17644,4.12,91.3
7959,2040,-12,17776,4.12,91.3
7962,2000,-180,17752,4.12,91.3
7965,1976,-104,17908,4.12,91.3
7969,2068,-288,17844,4.12,91.3
7972,2008,-80,17788,4.12,91.3
7975,1952,-164,17748,4.12,91.3
7978,1956,-172,17704,4.12,91.3
7981,2028,-160,17740,4.12,91.3
7984,1944,-44,17748,4.12,91.3
7987,2072,-160,17784,4.12,91.3
7990,2044,-76,17884,4.12,91.3
7993,2068,-176,17860,4.12,91.3
7996,2008,-60,17872,4.12,91.3
7999,1964,-124,17916,4.12,91.3
8002,2124,-112,17800,4.12,91.3
8005,2040,-68,17840,4.12,91.3
8008,2040,-64,17764,4.12,91.3
8011,2064,-52,17856,4.12,91.3
8014,1980,-212,17900,4.12,91.3
8017,1964,-148,17888,4.12,91.3
8020,2112,-80,17888,4.12,91.3
8023,2056,-200,17756,4.12,91.3
8026,2044,-104,17968,4.12,91.3
8029,2028,-140,17872,4.12,91.3
8032,2088,-68,17796,4.12,91.3
8035,2136,-100,17952,4.12,91.3
8038,2064,-184,17672,4.12,91.3
8041,2068,-200,17948,4.12,91.3
8044,2000,-148,17884,4.12,91.3
8047,2188,-84,17880,4.12,91.3
8050,2084,-152,17928,4.12,91.3
8053,2120,-180,17736,4.12,91.3
8056,2108,-164,17972,4.12,91.3
8059,2048,-108,17888,4.12,91.3
8062,2028,-120,17768,4.12,91.3
8065,2108,-236,17796,4.12,91.3
8068,1992,-68,17780,4.12,91.3
8071,2100,-148,17756,4.12,91.3
8074,1984,-184,17812,4.12,91.3
8077,2044,-88,17836,4.12,91.3
8080,1928,-128,17764,4.12,91.3
8083,2048,-132,17944,4.12,91.3
8086,2060,-128,17732,4.12,91.3
8089,2104,28,17836,4.12,91.3
8092,2016,-240,17764,4.12,91.3
8095,2052,-12,17772,4.12,91.3
8098,2140,-168,17808,4.12,91.3
8101,2012,-204,17940,4.12,91.3
8104,2088,-184,17768,4.12,91.3
8107,2052,-20,17936,4.12,91.3
8110,2044,-68,17840,4.12,91.3
8113,2100,-96,17800,4.12,91.3
8116,1980,-184,17936,4.12,91.3
8119,2020,-128,17912,4.12,91.3
8122,2024,-120,17868,4.12,91.3
8125,2124,-180,17640,4.12,91.3
8128,1956,-124,17912,4.12,91.3
8131,2040,-124,17844,4.12,91.3
8134,1992,-208,17956,4.12,91.3
8137,2000,-144,17784,4.12,91.3
8140,2064,-148,17824,4.12,91.3
8143,2044,-192,17944,4.12,91.3
8146,2100,-140,17720,4.12,91.3
8149,2008,-92,17896,4.12,91.3
8152,2016,-88,17872,4.12,91.3
8155,2168,-68,17960,4.12,91.3
8158,2056,-88,17848,4.12,91.3
8161,2048,-144,17792,4.12,91.3
8164,2004,-148,17812,4.12,91.3
8167,2036,-160,17964,4.12,91.3
8170,1992,-72,17720,4.12,91.3
8173,2004,-76,17752,4.12,91.3
8176,2124,-88,17912,4.12,91.3
8179,2016,-128,17820,4.12,91.3
8182,1948,-96,17796,4.12,91.3
8185,2008,-148,17868,4.12,91.3
8188,2024,-112,17800,4.12,91.3
8191,2000,-176,17748,4.12,91.3
8194,2052,-168,17792,4.12,91.3
8197,2088,-128,17984,4.12,91.3
8200,2076,-92,17904,4.12,91.3
8203,2008,-68,17768,4.12,91.3
8206,2084,-112,17896,4.12,91.3
8209,2092,-132,17776,4.12,91.3
8212,2052,-188,17808,4.12,91.3
8215,1980,-92,17824,4.12,91.3
8218,2000,-124,17696,4.12,91.3
8221,2072,-160,17740,4.12,91.3
8224,2028,-100,17748,4.12,91.3
8227,2016,-80,17872,4.12,91.3
8230,2008,-44,17752,4.12,91.3
8233,2020,-184,17768,4.12,91.3
8245,2128,-124,17808,4.12,91.3
8249,2028,-148,17684,4.12,91.3
8252,2044,-120,17924,4.12,91.3
8255,2032,-96,17876,4.12,91.3
8258,2136,-48,17840,4.12,91.3
8261,2088,-188,17848,4.12,91.3
8264,2056,-116,17792,4.12,91.3
8267,1968,-156,17916,4.12,91.3
8270,1976,-84,17736,4.12,91.3
8273,2000,-164,17988,4.12,91.3
8276,2064,-96,17828,4.12,91.3
8279,2088,-172,17880,4.12,91.3
8282,2004,-200,17888,4.12,91.3
8285,2036,-112,17908,4.12,91.3
8288,1952,-212,17852,4.12,91.3
8291,1920,-168,17792,4.12,91.3
8294,1964,-40,17796,4.12,91.3
8297,2052,-72,17556,4.12,91.3
8300,2116,-152,17784,4.12,91.3
8303,2104,-88,17656,4.12,91.3
8306,2008,-124,17856,4.12,91.3
8309,1932,-128,17792,4.12,91.3
8312,2120,-108,17716,4.12,91.3
8315,2020,-56,17840,4.12,91.3
8318,2052,-108,17692,4.12,91.3
8321,2060,-92,17880,4.12,91.3
8324,2000,-44,17740,4.12,91.3
8327,2040,-152,17808,4.12,91.3
8330,1992,-108,17824,4.12,91.3
8333,2012,-124,17804,4.12,91.3
8336,2076,-116,17736,4.12,91.3
8339,2008,-132,17792,4.12,91.3
8342,1968,-180,18044,4.12,91.3
8345,2148,-120,17904,4.12,91.3
8348,2012,-168,17840,4.12,91.3
8351,2040,-244,17896,4.12,91.3
8354,2028,-160,17848,4.12,91.3
8357,2056,-248,17804,4.12,91.3
8360,2048,-168,17872,4.12,91.3
8363,2056,-176,17776,4.12,91.3
8366,1972,-160,17860,4.12,91.3
8369,1960,-72,17832,4.12,91.3
8372,2068,-96,17924,4.12,91.3
8375,1984,-212,17808,4.12,91.3
8378,2144,-128,17896,4.12,91.3
8381,2000,-180,17724,4.12,91.3
8384,2016,-180,17888,4.12,91.3
8387,2128,-144,17848,4.12,91.3
8390,2052,-168,17788,4.12,91.3
8393,1928,-148,17760,4.12,91.3
8396,1988,-132,17840,4.12,91.3
8399,2056,-148,17820,4.12,91.3
8402,2036,-100,17724,4.12,91.3
8405,2068,-160,17828,4.12,91.3
8408,2092,-140,17928,4.12,91.3
8411,2004,-216,17908,4.12,91.3
8414,2000,-100,17876,4.12,91.3
8417,2020,-184,17860,4.12,91.3
8420,2104,-124,17748,4.12,91.3
8423,2020,-168,17784,4.12,91.3
8426,1924,-120,17964,4.12,91.3
8429,1972,-124,17924,4.12,91.3
8432,1996,-40,17780,4.12,91.3
8435,2100,-180,17972,4.12,91.3
8438,2072,-108,17924,4.12,91.3
8441,2012,-156,17600,4.12,91.3
8444,2068,-28,17820,4.12,91.3
8447,2112,-152,17904,4.12,91.3
8450,2020,-152,17756,4.12,91.3
8453,2092,-100,17808,4.12,91.3
8456,2028,-112,17840,4.12,91.3
8459,2008,0,17796,4.12,91.3
8462,2056,-108,17844,4.12,91.3
8465,1988,-96,17788,4.12,91.3
8468,2060,-200,17836,4.12,91.3
8471,2072,-56,17796,4.12,91.3
8474,2052,-172,17860,4.12,91.3
8477,2096,-120,17844,4.12,91.3
8480,2080,-96,17792,4.12,91.3
8483,1992,-80,17888,4.12,91.3
8486,2068,-132,17800,4.12,91.3
8489,2016,-132,17864,4.12,91.3
8492,2176,-152,18056,4.12,91.3
8495,2052,-172,17808,4.12,91.3
8498,2076,-56,17852,4.12,91.3
8501,2008,-140,17764,4.12,91.3
8504,2044,-140,17772,4.12,91.3
8507,2052,-108,17864,4.12,91.3
8510,2056,-76,17876,4.12,91.3
8513,2016,-192,17932,4.12,91.3
8516,2040,-160,17744,4.12,91.3
8519,2052,-96,17832,4.12,91.3
8522,2112,-96,17912,4.12,91.3
8525,1956,-204,17852,4.12,91.3
8528,2160,-164,17780,4.12,91.3
8531,2068,-136,17892,4.12,91.3
8534,1972,-128,17796,4.12,91.3
8537,2052,-104,17952,4.12,91.3
8540,2072,-212,17804,4.12,91.3
8543,2044,-84,17832,4.12,91.3
8546,1936,-116,17836,4.12,91.3
8549,1984,-124,17868,4.12,91.3
8552,1972,-176,17932,4.12,91.3
8555,2004,-172,17776,4.12,91.3
8558,2088,-88,17832,4.12,91.3
8561,2112,-60,17816,4.12,91.3
8564,2080,-148,17764,4.12,91.3
8567,2120,-76,17688,4.12,91.3
8570,2112,-124,17780,4.12,91.3
8573,2088,-96,17848,4.12,91.3
8576,2016,-100,17816,4.12,91.3
8579,2016,-72,17908,4.12,91.3
8582,2012,-96,17764,4.12,91.3
8585,1984,-136,17824,4.12,91.3
8588,2016,-92,17816,4.12,91.3
8591,2040,-80,17820,4.12,91.3
8594,1996,-56,17784,4.12,91.3
8597,1928,-92,17928,4.12,91.3
8600,2140,-80,17784,4.12,91.3
8603,2024,-184,17796,4.12,91.3
8606,2024,-140,17904,4.12,91.3
8609,2036,-184,17740,4.12,91.3
8612,2016,-72,17968,4.12,91.3
8615,1956,-176,17820,4.12,91.3
8618,2008,-184,17800,4.12,91.3
8621,2064,-76,17792,4.12,91.3
8624,2000,-112,17784,4.12,91.3
8627,1976,-172,17692,4.12,91.3
8630,2100,-148,17748,4.12,91.3
8633,1992,-56,17692,4.12,91.3
8636,2068,-168,17712,4.12,91.3
8639,2068,-120,17736,4.12,91.3
8642,1936,-88,17728,4.12,91.3
8654,2004,-176,17832,4.12,91.3
8658,2108,-116,17908,4.12,91.3
8661,2172,-120,17828,4.12,91.3
8664,2032,-160,17796,4.12,91.3
8667,2068,-216,17860,4.12,91.3
8670,1984,-196,17836,4.12,91.3
8673,1936,-148,17824,4.12,91.3
8676,1996,-204,17748,4.12,91.3
8679,2096,-120,17836,4.12,91.3
8682,2092,-156,17816,4.12,91.3
8685,1996,-168,17856,4.12,91.3
8688,2088,-100,17692,4.12,91.3
8691,2100,-108,17800,4.12,91.3
8694,2068,-168,17852,4.12,91.3
8697,2072,-212,17956,4.12,91.3
8700,2152,-152,17756,4.12,91.3
8703,2020,-156,17780,4.12,91.3
8706,2120,-28,17972,4.12,91.3
8709,2044,-180,17856,4.12,91.3
8712,2156,-204,17768,4.12,91.3
8715,2008,-136,17964,4.12,91.3
8718,1952,-208,17832,4.12,91.3
8721,2100,-176,17812,4.12,91.3
8724,1988,-184,18016,4.12,91.3
8727,2036,-52,17808,4.12,91.3
8730,2028,-96,17788,4.12,91.3
8733,2092,-228,17796,4.12,91.3
8736,2044,-108,17968,4.12,91.3
8739,2116,-188,17780,4.12,91.3
8742,2000,-212,17688,4.12,91.3
8745,2052,-160,17804,4.12,91.3
8748,2072,-80,17808,4.12,91.3
8751,1912,-132,17832,4.12,91.3
8754,2024,-108,17684,4.12,91.3
8757,2060,-156,17912,4.12,91.3
8760,2072,-112,17924,4.12,91.3
8763,1956,-108,17848,4.12,91.3
8766,2104,-132,17900,4.12,91.3
8769,2036,-76,17976,4.12,91.3
8772,1952,-128,17808,4.12,91.3
8775,1952,-148,17956,4.12,91.3
8778,2088,-76,17852,4.12,91.3
8781,2048,-108,17780,4.12,91.3
8784,2080,36,17932,4.12,91.3
8787,1936,-32,17860,4.12,91.3
8790,2048,-116,17752,4.12,91.3
8793,1932,-196,17664,4.12,91.3
8796,2044,-152,17860,4.12,91.3
8799,2096,-96,17840,4.12,91.3
8802,1964,-176,17728,4.12,91.3
8805,1992,-44,17780,4.12,91.3
8808,1900,-176,17912,4.12,91.3
8811,2120,-184,17712,4.12,91.3
8814,2012,-88,17620,4.12,91.3
8817,2064,-180,17784,4.12,91.3
8820,2104,-136,17944,4.12,91.3
8823,2112,-72,17840,4.12,91.3
8826,1996,-88,17792,4.12,91.3
8829,1992,-100,17700,4.12,91.3
8832,2060,-164,17784,4.12,91.3
8835,2116,-124,17888,4.12,91.3
8838,1944,-216,17788,4.12,91.3
8841,2096,-124,17848,4.12,91.3
8844,2032,-176,17748,4.12,91.3
8847,2056,-224,17796,4.12,91.3
8850,2100,-88,17700,4.12,91.3
8853,2036,-156,17864,4.12,91.3
8856,2108,-84,17844,4.12,91.3
8859,2080,-140,17820,4.12,91.3
8862,2116,-136,17804,4.12,91.3
8865,2020,-180,17884,4.12,91.3
8868,2112,-88,17856,4.12,91.3
8871,2092,-100,17928,4.12,91.3
8874,2088,-152,17804,4.12,91.3
8877,2080,-176,17804,4.12,91.3
8880,2108,-152,17812,4.12,91.3
8883,1992,-132,17812,4.12,91.3
8886,2044,-116,17764,4.12,91.3
8889,2088,-136,17756,4.12,91.3
8892,1956,-64,17768,4.12,91.3
8895,2008,-108,17984,4.12,91.3
8898,1964,-88,17800,4.12,91.3
8901,2016,-76,17900,4.12,91.3
8904,1944,-80,17788,4.12,91.3
8907,1936,-128,17796,4.12,91.3
8910,2092,-48,17840,4.12,91.3
8913,2020,-132,17876,4.12,91.3
8916,2016,-232,17704,4.12,91.3
8919,1968,-140,17936,4.12,91.3
8922,1952,-104,17744,4.12,91.3
8925,1952,-204,17796,4.12,91.3
8928,2020,-172,17888,4.12,91.3
8931,1968,-100,17804,4.12,91.3
8934,2092,-184,17752,4.12,91.3
8937,1952,-84,17888,4.12,91.3
8940,1988,-76,17800,4.12,91.3
8943,2100,-112,17972,4.12,91.3
8946,1976,-204,17804,4.12,91.3
8949,2100,-112,17708,4.12,91.3
8952,2036,-148,17836,4.12,91.3
8955,2016,-208,17760,4.12,91.3
8958,2044,-220,17768,4.12,91.3
8961,2048,-212,17780,4.12,91.3
8964,2108,-44,17892,4.12,91.3
8967,2116,-84,17840,4.12,91.3
8970,2064,-112,17776,4.12,91.3
8973,2092,-180,17744,4.12,91.3
8976,2064,-200,17976,4.12,91.3
8979,2052,-116,17824,4.12,91.3
8982,2028,-80,18032,4.12,91.3
8985,1944,-92,17844,4.12,91.3
8988,2048,-160,17784,4.12,91.3
8991,2048,-132,17852,4.12,91.3
8994,2100,-108,17804,4.12,91.3
8997,2140,-116,17916,4.12,91.3
9000,2072,-32,17900,4.12,91.3
9003,2108,-104,17944,4.12,91.3
9006,2028,-68,17828,4.12,91.3
9009,1988,-64,17952,4.12,91.3
9012,2168,60,17676,4.12,91.3
9015,2056,-140,17920,4.12,91.3
9018,2044,-60,17820,4.12,91.3
9021,1996,-148,17888,4.12,91.3
9024,1988,-176,17888,4.12,91.3
9027,1980,-148,17880,4.12,91.3
9030,2040,-92,17772,4.12,91.3
9033,2024,-192,17780,4.12,91.3
9036,2068,-120,17832,4.12,91.3
9039,2092,-64,17832,4.12,91.3
9042,2128,-132,17908,4.12,91.3
9045,2164,-100,17880,4.12,91.3
9048,2056,-120,17832,4.12,91.3
9051,1984,-256,17876,4.12,91.3
9054,2068,-44,17812,4.12,91.3
9066,1952,-220,17800,4.12,91.3
9070,1960,-144,18004,4.12,91.3
9073,1988,-56,17752,4.12,91.3
9076,1920,-112,17916,4.12,91.3
9079,1952,-140,17928,4.12,91.3
9082,2064,-212,17980,4.12,91.3
9085,1976,-128,17868,4.12,91.3
9088,2068,-240,17948,4.12,91.3
9091,2092,-104,17764,4.12,91.3
9094,1996,-212,17696,4.12,91.3
9097,2080,-224,17872,4.12,91.3
9100,2096,-116,17904,4.12,91.3
9103,1980,-120,17880,4.12,91.3
9106,2008,-108,17856,4.12,91.3
9109,2008,-216,17852,4.12,91.3
9112,1972,-68,17852,4.12,91.3
9115,1992,-120,17692,4.12,91.3
9118,2092,-140,17704,4.12,91.3
9121,2036,-28,17828,4.12,91.3
9124,2060,-132,17780,4.12,91.3
9127,2120,-64,17772,4.12,91.3
9130,2072,-184,17772,4.12,91.3
9133,2136,-120,17912,4.12,91.3
9136,2140,-144,17668,4.12,91.3
9139,1924,-144,17820,4.12,91.3
9142,1928,-148,17800,4.12,91.3
9145,2016,-192,17844,4.12,91.3
9148,2032,-132,17776,4.12,91.3
9151,2020,-100,17796,4.12,91.3
9154,2020,-52,17768,4.12,91.3
9157,2032,-80,17864,4.12,91.3
9160,2072,-176,17744,4.12,91.3
9163,2060,-140,17844,4.12,91.3
9166,1996,-128,17748,4.12,91.3
9169,1996,-80,17924,4.12,91.3
9172,2140,-160,17656,4.12,91.3
9175,2032,-132,17796,4.12,91.3
9178,2052,-168,17868,4.12,91.3
9181,1960,-172,17908,4.12,91.3
9184,2056,-156,17656,4.12,91.3
9187,1972,-176,17848,4.12,91.3
9190,2016,-32,17864,4.12,91.3
9193,1988,-84,17840,4.12,91.3
9196,1976,-60,17896,4.12,91.3
9199,2024,-136,17828,4.12,91.3
9202,2104,-116,17904,4.12,91.3
9205,2068,-180,17696,4.12,91.3
9208,2064,-120,17856,4.12,91.3
9211,1960,-152,17836,4.12,91.3
9214,2108,-220,17828,4.12,91.3
9217,2020,-76,17844,4.12,91.3
9220,1964,-148,17920,4.12,91.3
9223,2056,-60,17692,4.12,91.3
9226,2036,-176,17844,4.12,91.3
9229,2044,-224,17804,4.12,91.3
9232,2072,-248,17876,4.12,91.3
9235,2008,-208,17860,4.12,91.3
9238,2080,-68,17964,4.12,91.3
9241,2072,-136,17772,4.12,91.3
9244,2104,-260,17880,4.12,91.3
9247,2184,-84,17816,4.12,91.3
9250,2000,-212,17816,4.12,91.3
9253,2016,-96,17772,4.12,91.3
9256,2040,-120,17904,4.12,91.3
9259,2052,-172,17904,4.12,91.3
9262,2028,-132,17808,4.12,91.3
9265,2088,-212,17812,4.12,91.3
9268,2080,-80,17784,4.12,91.3
9271,2024,-148,17920,4.12,91.3
9274,2028,-232,17912,4.12,91.3
9277,2036,-120,17936,4.12,91.3
9280,2020,-160,17952,4.12,91.3
9283,2048,-176,17832,4.12,91.3
9286,2020,-100,17732,4.12,91.3
9289,2076,-120,17792,4.12,91.3
9292,1948,-220,17880,4.12,91.3
9295,1952,-140,17884,4.12,91.3
9298,1972,-176,17856,4.12,91.3
9301,2052,-104,17816,4.12,91.3
9304,2024,-84,17620,4.12,91.3
9307,1980,-160,17724,4.12,91.3
9310,2052,-168,17676,4.12,91.3
9313,2000,-136,17736,4.12,91.3
9316,2100,-132,17792,4.12,91.3
9319,2128,-124,17824,4.12,91.3
9322,1980,-104,17868,4.12,91.3
9325,2052,-80,17664,4.12,91.3
9328,1988,-76,17972,4.12,91.3
9331,2100,-32,17972,4.12,91.3
9334,2016,-168,17640,4.12,91.3
9337,2028,-256,17796,4.12,91.3
9340,2100,-140,17804,4.12,91.3
9343,1956,-220,17832,4.12,91.3
9346,2036,-52,17768,4.12,91.3
9349,2060,-44,17776,4.12,91.3
9352,1912,-120,18040,4.12,91.3
9355,2096,-120,17760,4.12,91.3
9358,2016,-172,17856,4.12,91.3
9361,2028,-76,17896,4.12,91.3
9364,2084,-124,17844,4.12,91.3
9367,2084,-176,17796,4.12,91.3
9370,2036,-200,17888,4.12,91.3
9373,2060,-196,17884,4.12,91.3
9376,1976,-176,17820,4.12,91.3
9379,2124,-180,17832,4.12,91.3
9382,2020,-108,17768,4.12,91.3
9385,2004,-108,17764,4.12,91.3
9388,2040,-160,17856,4.12,91.3
9391,2068,32,17740,4.12,91.3
9394,2064,-64,17932,4.12,91.3
9397,1956,-36,17824,4.12,91.3
9400,2052,-132,17816,4.12,91.3
9403,2028,-168,17876,4.12,91.3
9406,2036,-160,17836,4.12,91.3
9409,2112,-128,17864,4.12,91.3
9412,1948,-108,17820,4.12,91.3
9415,1948,-128,17964,4.12,91.3
9418,2024,-84,17828,4.12,91.3
9421,2032,-60,17644,4.12,91.3
9424,2076,-104,17772,4.12,91.3
9427,2036,-148,17820,4.12,91.3
9430,2000,4,17740,4.12,91.3
9433,2080,-112,17828,4.12,91.3
9436,1976,-92,17720,4.12,91.3
9439,2008,-24,17876,4.12,91.3
9442,1964,-100,17712,4.12,91.3
9445,2100,-64,17816,4.12,91.3
9448,2012,-40,17800,4.12,91.3
9451,2060,-108,17768,4.12,91.3
9454,2024,-148,17868,4.12,91.3
9457,1928,-52,17644,4.12,91.3
9460,2008,-140,17736,4.12,91.3
9463,1956,-164,17992,4.12,91.3
9476,2000,-124,17776,4.12,91.3
9479,1972,-104,17848,4.12,91.3
9482,1992,-144,17640,4.12,91.3
9485,2100,-172,17788,4.12,91.3
9488,2052,-192,17900,4.12,91.3
9491,2080,-200,17728,4.12,91.3
9494,2012,-212,17800,4.12,91.3
9497,1972,-200,17856,4.12,91.3
9500,2000,-204,17724,4.12,91.3
9503,2040,-200,17784,4.12,91.3
9506,1992,-136,17836,4.12,91.3
9509,1984,-224,17816,4.12,91.3
9512,2096,-192,17952,4.12,91.3
9515,2140,-176,17880,4.12,91.3
9518,2072,-80,17808,4.12,91.3
9521,2076,-52,17760,4.12,91.3
9524,2044,-208,17968,4.12,91.3
9527,2028,-196,17992,4.12,91.3
9530,2044,-120,17676,4.12,91.3
9533,2104,-136,17904,4.12,91.3
9536,2120,-152,17808,4.12,91.3
9539,1984,-28,17772,4.12,91.3
9542,2048,-88,17780,4.12,91.3
9545,2040,-108,17632,4.12,91.3
9548,2040,-84,17940,4.12,91.3
9551,1960,-180,17856,4.12,91.3
9554,1980,-144,17768,4.12,91.3
9557,2056,-156,17728,4.12,91.3
9560,2016,-52,17892,4.12,91.3
9563,2024,-60,17904,4.12,91.3
9566,1984,-112,17832,4.12,91.3
9569,2004,-44,17832,4.12,91.3
9572,1964,-200,17760,4.12,91.3
9575,2024,-132,17808,4.12,91.3
9578,2136,-88,17864,4.12,91.3
9581,2040,-92,17788,4.12,91.3
9584,1960,-212,17796,4.12,91.3
9587,1956,-144,17960,4.12,91.3
9590,2072,-132,17696,4.12,91.3
9593,2020,-72,17920,4.12,91.3
9596,2080,-68,17932,4.12,91.3
9599,2040,-108,17864,4.12,91.3
9602,2060,-204,17804,4.12,91.3
9605,2008,-172,17888,4.12,91.3
9608,2004,-60,17952,4.12,91.3
9611,2036,-144,17856,4.12,91.3
9614,2080,-8,17912,4.12,91.3
9617,1976,-108,17796,4.12,91.3
9620,1996,-104,17980,4.12,91.3
9623,2000,-200,17828,4.12,91.3
9626,2044,-36,17772,4.12,91.3
9629,1988,-108,17792,4.12,91.3
9632,2076,-56,17844,4.12,91.3
9635,2028,-180,17744,4.12,91.3
9638,1980,-144,17816,4.12,91.3
9641,2056,-116,17820,4.12,91.3
9644,2028,-44,17804,4.12,91.3
9647,2000,-196,17840,4.12,91.3
9650,2008,-164,17816,4.12,91.3
9653,2016,-68,17856,4.12,91.3
9656,2024,-112,17844,4.12,91.3
9659,1980,-68,17772,4.12,91.3
9662,2052,-116,17904,4.12,91.3
9665,2064,-168,17952,4.12,91.3
9668,2000,-176,17860,4.12,91.3
9671,2032,-140,17688,4.12,91.3
9674,2076,-168,17752,4.12,91.3
9677,1956,-112,17832,4.12,91.3
9680,2004,-100,17908,4.12,91.3
9683,2096,-164,17900,4.12,91.3
9686,2052,-156,17792,4.12,91.3
9689,2016,-148,17776,4.12,91.3
9692,2052,-168,17756,4.12,91.3
9695,1992,-12,17664,4.12,91.3
9698,2024,-176,17828,4.12,91.3
9701,1960,-188,17728,4.12,91.3
9704,2116,-200,17760,4.12,91.3
9707,2092,-116,17800,4.12,91.3
9710,2072,-140,17796,4.12,91.3
9713,1976,-40,17848,4.12,91.3
9716,2112,-136,17868,4.12,91.3
9719,2016,-96,17948,4.12,91.3
9722,2024,-100,17944,4.12,91.3
9725,1972,-88,17832,4.12,91.3
9728,2060,-116,17796,4.12,91.3
9731,2044,-84,17872,4.12,91.3
9734,2064,-136,17760,4.12,91.3
9737,2072,-32,17780,4.12,91.3
9740,2112,-184,17912,4.12,91.3
9743,1996,-108,17832,4.12,91.3
9746,2028,-228,17960,4.12,91.3
9749,2036,-188,17716,4.12,91.3
9752,1996,-108,17756,4.12,91.3
9755,2000,-200,17868,4.12,91.3
9758,2012,-132,17740,4.12,91.3
9761,2004,-116,17908,4.12,91.3
9764,2028,-136,17840,4.12,91.3
9767,2052,-92,17756,4.12,91.3
9770,1972,-256,17784,4.12,91.3
9773,2044,-176,17776,4.12,91.3
9776,2028,-172,17808,4.12,91.3
9779,2092,-188,17808,4.12,91.3
9782,2020,-132,17704,4.12,91.3
9785,2144,-140,17904,4.12,91.3
9788,2108,-164,17808,4.12,91.3
9791,2060,-176,17904,4.12,91.3
9794,2072,-300,17680,4.12,91.3
9797,2088,-132,17936,4.12,91.3
9800,1948,-116,17760,4.12,91.3
9803,2028,-60,17832,4.12,91.3
9806,2108,-144,17852,4.12,91.3
9809,2072,-204,17688,4.12,91.3
9812,2044,-76,18072,4.12,91.3
9815,2056,-156,17760,4.12,91.3
9818,2072,-160,17804,4.12,91.3
9821,1992,-204,17740,4.12,91.3
9824,2080,-164,17848,4.12,91.3
9827,1916,-100,17908,4.12,91.3
9830,1964,-108,17848,4.12,91.3
9833,2100,-116,17808,4.12,91.3
9836,2056,-108,17856,4.12,91.3
9839,2024,-132,17904,4.12,91.3
9842,1964,-72,17764,4.12,91.3
9845,2088,-92,17796,4.12,91.3
9848,2044,-104,17876,4.12,91.3
9851,1988,-116,17836,4.12,91.3
9854,2068,-64,17744,4.12,91.3
9857,2064,-132,17904,4.12,91.3
9860,2028,-132,17828,4.12,91.3
9863,1960,-280,17828,4.12,91.3
9866,2052,-212,17772,4.12,91.3
9869,1968,-128,17792,4.12,91.3
9872,2044,-28,17876,4.12,91.3
9885,2072,36,17836,4.12,91.3
9888,1948,-44,17724,4.12,91.3
9891,1952,-88,17868,4.12,91.3
9894,1980,-92,17724,4.12,91.3
9897,2112,-160,17912,4.12,91.3
9900,1948,-136,17772,4.12,91.3
9903,2060,-116,17852,4.12,91.3
9906,2044,-52,17860,4.12,91.3
9909,1940,-124,17836,4.12,91.3
9912,2020,-160,17820,4.12,91.3
9915,2052,-140,17900,4.12,91.3
9918,2016,-140,17900,4.12,91.3
9921,2104,-172,17884,4.12,91.3
9924,2072,-164,17876,4.12,91.3
9927,2124,-164,17880,4.12,91.3
9930,2140,-116,17948,4.12,91.3
9933,2088,-24,17840,4.12,91.3
9936,2036,-152,17828,4.12,91.3
9939,2148,-108,17888,4.12,91.3
9942,2092,-148,17816,4.12,91.3
9945,2128,-152,17760,4.12,91.3
9948,2096,-228,17740,4.12,91.3
9951,1948,-92,17932,4.12,91.3
9954,2068,-148,17728,4.12,91.3
9957,2036,-132,17792,4.12,91.3
9960,2092,-108,17852,4.12,91.3
9963,2128,-204,17740,4.12,91.3
9966,2132,-136,17788,4.12,91.3
9969,2192,-124,17796,4.12,91.3
9972,2016,-100,17876,4.12,91.3
9975,1880,-144,17904,4.12,91.3
9978,2072,-236,17932,4.12,91.3
9981,2020,-208,17808,4.12,91.3
9984,1976,-108,17828,4.12,91.3
9987,2016,-128,17848,4.12,91.3
9990,2020,-88,17924,4.12,91.3
9993,1976,-200,17708,4.12,91.3
9996,2056,-100,17976,4.12,91.3
9999,2092,-168,17748,4.12,91.3
10002,2008,-224,17856,4.12,91.3
10005,2044,-72,17884,4.12,91.3
10008,1924,-96,17836,4.12,91.3
10011,1924,-124,17852,4.12,91.3
10014,2008,-60,17732,4.12,91.3
10017,1912,-148,17832,4.12,91.3
10020,1936,-72,17856,4.12,91.3
10023,2168,-72,17688,4.12,91.3
10026,2052,-140,17828,4.12,91.3
10029,2048,-168,17780,4.12,91.3
10032,2108,-108,17800,4.12,91.3
10035,1992,-184,17892,4.12,91.3
10038,2076,-92,17896,4.12,91.3
10041,2092,-60,17892,4.12,91.3
10044,1948,-140,17776,4.12,91.3
10047,1984,-40,17800,4.12,91.3
10050,2052,-132,17872,4.12,91.3
10053,2008,-248,17836,4.12,91.3
10056,2064,-52,17776,4.12,91.3
10059,2000,-104,17772,4.12,91.3
10062,1984,-56,17764,4.12,91.3
10065,2052,-84,17872,4.12,91.3
10068,1948,-220,18060,4.12,91.3
10071,1992,-120,17868,4.12,91.3
10074,2100,-172,17952,4.12,91.3
10077,1984,-192,17904,4.12,91.3
10080,2028,-148,17732,4.12,91.3
10083,1956,-44,17732,4.12,91.3
10086,2004,-72,17824,4.12,91.3
10089,1976,-108,17856,4.12,91.3
10092,1960,-100,17860,4.12,91.3
10095,2112,-120,17872,4.12,91.3
10098,2060,-76,17696,4.12,91.3
10101,1976,-68,17756,4.12,91.3
10104,2056,-140,17740,4.12,91.3
10107,2004,-64,17772,4.12,91.3
10110,2008,-116,17820,4.12,91.3
10113,1968,20,17760,4.12,91.3
10116,1948,-128,17868,4.12,91.3
10119,2052,-136,17816,4.12,91.3
10122,2072,-108,17884,4.12,91.3
10125,2068,-8,17816,4.12,91.3
10128,1984,-104,17740,4.12,91.3
10131,2076,-260,17788,4.12,91.3
10134,2020,-184,17836,4.12,91.3
10137,2044,-136,17960,4.12,91.3
10140,2072,-116,17696,4.12,91.3
10143,2020,-124,17940,4.12,91.3
10146,1972,-120,17780,4.12,91.3
10149,1992,-92,17856,4.12,91.3
10152,2064,-124,17900,4.12,91.3
10155,1976,-112,17832,4.12,91.3
10158,2004,-156,17712,4.12,91.3
10161,2056,-100,17828,4.12,91.3
10164,2024,-120,17724,4.12,91.3
10167,2048,-152,17852,4.12,91.3
10170,1980,-200,17664,4.12,91.3
10173,2016,-192,17764,4.12,91.3
10176,2124,-128,17944,4.12,91.3
10179,1972,-176,17796,4.12,91.3
10182,1992,-84,17884,4.12,91.3
10185,2008,-124,17840,4.12,91.3
10188,1992,-148,17772,4.12,91.3
10191,2008,-212,17796,4.12,91.3
10194,2116,-212,17752,4.12,91.3
10197,2020,-256,17704,4.12,91.3
10200,1980,-116,17856,4.12,91.3
10203,2048,-112,17872,4.12,91.3
10206,2132,-224,17728,4.12,91.3
10209,2072,-156,17728,4.12,91.3
10212,2088,-144,17796,4.12,91.3
10215,2064,-176,17776,4.12,91.3
10218,1972,-76,17760,4.12,91.3
10221,2048,-76,17932,4.12,91.3
10224,2104,-236,17764,4.12,91.3
10227,2052,-188,17964,4.12,91.3
10230,1980,-160,17880,4.12,91.3
10233,2080,-208,17672,4.12,91.3
10236,2076,-96,17932,4.12,91.3
10239,2016,-96,17864,4.12,91.3
10242,2108,-180,17780,4.12,91.3
10245,2028,-76,17796,4.12,91.3
10248,2040,-148,17892,4.12,91.3
10251,2036,-64,17772,4.12,91.3
10254,2152,-76,17904,4.12,91.3
10257,1928,-80,17852,4.12,91.3
10260,2048,-92,17796,4.12,91.3
10263,2036,-40,17876,4.12,91.3
10266,2036,-136,17764,4.12,91.3
10269,1944,-212,17760,4.12,91.3
10272,1984,-68,17712,4.12,91.3
10275,2004,-140,17796,4.12,91.3
10287,2052,-132,17828,4.12,91.3
10291,1936,-216,17828,4.12,91.3
10294,1928,-28,17684,4.12,91.3
10297,1996,-176,17948,4.12,91.3
10300,2052,-108,17932,4.12,91.3
10303,2104,-148,17748,4.12,91.3
10306,2000,-112,17908,4.12,91.3
10309,2004,-248,17808,4.12,91.3
10312,2116,-160,17848,4.12,91.3
10315,1976,-172,17852,4.12,91.3
10318,2036,-116,17764,4.12,91.3
10321,2040,-128,17868,4.12,91.3
10324,2104,-128,17896,4.12,91.3
10327,2048,-256,17800,4.12,91.3
10330,1976,-80,17844,4.12,91.3
10333,2052,-116,17932,4.12,91.3
10336,2020,-80,17780,4.12,91.3
10339,2036,-156,18016,4.12,91.3
10342,1984,-196,17784,4.12,91.3
10345,2032,-96,17812,4.12,91.3
10348,2100,-152,17760,4.12,91.3
10351,2076,-180,17876,4.12,91.3
10354,1996,-204,17788,4.12,91.3
10357,2052,-196,17896,4.12,91.3
10360,2136,-124,17852,4.12,91.3
10363,2144,-56,17856,4.12,91.3
10366,1980,-60,17908,4.12,91.3
10369,2100,-92,17932,4.12,91.3
10372,2000,-176,17792,4.12,91.3
10375,1988,-112,17840,4.12,91.3
10378,2044,-132,17848,4.12,91.3
10381,2088,8,17724,4.12,91.3
10384,1996,-112,17740,4.12,91.3
10387,2136,-180,17728,4.12,91.3
10390,2200,-40,17828,4.12,91.3
10393,2084,-88,17796,4.12,91.3
10396,2040,-148,17920,4.12,91.3
10399,2064,-100,17756,4.12,91.3
10402,2008,-156,17816,4.12,91.3
10405,2028,-132,17920,4.12,91.3
10408,2048,-108,17616,4.12,91.3
10411,2108,-56,17840,4.12,91.3
10414,2012,-124,17704,4.12,91.3
10417,2064,-160,17772,4.12,91.3
10420,2000,-156,17804,4.12,91.3
10423,2028,-76,17976,4.12,91.3
10426,2032,-88,17888,4.12,91.3
10429,2020,-184,17808,4.12,91.3
10432,2020,-64,17704,4.12,91.3
10435,2028,-116,17748,4.12,91.3
10438,2056,16,17788,4.12,91.3
10441,2048,-120,17680,4.12,91.3
10444,1980,-16,17768,4.12,91.3
10447,2040,-124,17892,4.12,91.3
10450,2012,-156,17708,4.12,91.3
10453,2136,-172,17816,4.12,91.3
10456,1976,-200,17832,4.12,91.3
10459,2028,-200,17860,4.12,91.3
10462,2060,-120,17688,4.12,91.3
10465,2068,-120,17992,4.12,91.3
10468,2032,-180,17864,4.12,91.3
10471,2044,-144,17876,4.12,91.3
10474,2044,-108,17828,4.12,91.3
10477,1952,-124,17820,4.12,91.3
10480,2072,-40,17852,4.12,91.3
10483,2052,-88,17816,4.12,91.3
10486,2040,-136,17664,4.12,91.3
10489,1916,-152,17848,4.12,91.3
10492,2008,-196,17864,4.12,91.3
10495,2008,-172,17752,4.12,91.3
10498,2028,-272,17684,4.12,91.3
10501,2040,-148,17840,4.12,91.3
10504,1976,-124,17884,4.12,91.3
10507,2084,-56,17668,4.12,91.3
10510,2044,-104,17764,4.12,91.3
10513,2004,-32,17932,4.12,91.3
10516,2004,-80,17844,4.12,91.3
10519,2064,-44,17864,4.12,91.3
10522,2060,-72,17752,4.12,91.3
10525,2036,-80,17816,4.12,91.3
10528,1972,-108,17772,4.12,91.3
10531,2036,-128,17704,4.12,91.3
10534,1976,20,17804,4.12,91.3
10537,2012,-56,17752,4.12,91.3
10540,2028,-160,17684,4.12,91.3
10543,2032,-52,17924,4.12,91.3
10546,2016,-160,17736,4.12,91.3
10549,1952,-76,17816,4.12,91.3
10552,2076,-200,17772,4.12,91.3
10555,2092,-132,17992,4.12,91.3
10558,1996,-64,17804,4.12,91.3
10561,2000,-80,17852,4.12,91.3
10564,2056,-160,17772,4.12,91.3
10567,1992,-60,17796,4.12,91.3
10570,1992,-92,17872,4.12,91.3
10573,1968,-80,17752,4.12,91.3
10576,2072,-172,17912,4.12,91.3
10579,2028,-160,17748,4.12,91.3
10582,2044,-152,17784,4.12,91.3
10585,2064,-196,17712,4.12,91.3
10588,2080,-124,17904,4.12,91.3
10591,2024,-72,17740,4.12,91.3
10594,1968,-264,17948,4.12,91.3
10597,2088,-136,17700,4.12,91.3
10600,2024,-116,17932,4.12,91.3
10603,2088,-164,17796,4.12,91.3
10606,2092,-268,17912,4.12,91.3
10609,2040,-112,17916,4.12,91.3
10612,2028,-72,17844,4.12,91.3
10615,2044,-124,17768,4.12,91.3
10618,1960,-92,17936,4.12,91.3
10621,2080,-104,17796,4.12,91.3
10624,2096,-188,17840,4.12,91.3
10627,2120,-152,17924,4.12,91.3
10630,2012,-168,17948,4.12,91.3
10633,2040,-28,17840,4.12,91.3
10636,2080,-148,17844,4.12,91.3
10639,2144,-164,17744,4.12,91.3
10642,2048,-156,17840,4.12,91.3
10645,2012,-48,17932,4.12,91.3
10648,1956,-116,17776,4.12,91.3
10651,1988,-144,17864,4.12,91.3
10654,2024,-56,17996,4.12,91.3
10657,2040,-104,17948,4.12,91.3
10660,2088,-96,17828,4.12,91.3
10663,2044,-164,17832,4.12,91.3
10666,2064,-124,17960,4.12,91.3
10669,2104,-64,17692,4.12,91.3
10672,2048,-156,17768,4.12,91.3
10685,2036,-88,17836,4.12,91.3
10688,2008,-108,17828,4.12,91.3
10691,2044,-148,17692,4.12,91.3
10694,1956,-100,17916,4.12,91.3
10697,1984,-120,17816,4.12,91.3
10700,1892,-12,17856,4.12,91.3
10703,1984,-124,17840,4.12,91.3
10706,1956,-168,17792,4.12,91.3
10709,2056,-124,17832,4.12,91.3
10712,2056,-80,17828,4.12,91.3
10715,2012,-124,17656,4.12,91.3
10718,2008,-96,17796,4.12,91.3
10721,1956,-148,17876,4.12,91.3
10724,2044,-180,17900,4.12,91.3
10727,1980,-112,17736,4.12,91.3
10730,2016,-128,17800,4.12,91.3
10733,1928,-100,17880,4.12,91.3
10736,2000,-164,17940,4.12,91.3
10739,1932,-84,17900,4.12,91.3
10742,2028,-100,17876,4.12,91.3
10745,2020,-144,17876,4.12,91.3
10748,2044,-188,17776,4.12,91.3
10751,2032,-128,17820,4.12,91.3
10754,2008,-48,17972,4.12,91.3
10757,2000,-116,17856,4.12,91.3
10760,1988,-100,17892,4.12,91.3
10763,2072,-180,17844,4.12,91.3
10766,2108,-56,17824,4.12,91.3
10769,2160,-92,17876,4.12,91.3
10772,2092,-236,17832,4.12,91.3
10775,1920,-116,17812,4.12,91.3
10778,1992,-172,17696,4.12,91.3
10781,2000,-128,17800,4.12,91.3
10784,2116,-76,17900,4.12,91.3
10787,2088,-208,17828,4.12,91.3
10790,1972,-212,17896,4.12,91.3
10793,1972,-204,17760,4.12,91.3
10796,2044,-136,17700,4.12,91.3
10799,2052,-108,17752,4.12,91.3
10802,2044,-140,17832,4.12,91.3
10805,2092,-172,17848,4.12,91.3
10808,2080,-180,17788,4.12,91.3
10811,2060,-104,17792,4.12,91.3
10814,2024,-164,17896,4.12,91.3
10817,2052,-96,17716,4.12,91.3
10820,2032,-36,17868,4.12,91.3
10823,2092,-140,17904,4.12,91.3
10826,1984,-160,17640,4.12,91.3
10829,2040,-84,17892,4.12,91.3
10832,1992,-92,17960,4.12,91.3
10835,1984,-192,17720,4.12,91.3
10838,2008,-28,17928,4.12,91.3
10841,1980,-100,17840,4.12,91.3
10844,2100,-132,17888,4.12,91.3
10847,1928,-68,17828,4.12,91.3
10850,2100,-164,17692,4.12,91.3
10853,1996,-48,17840,4.12,91.3
10856,1964,-52,17940,4.12,91.3
10859,2052,-64,17864,4.12,91.3
10862,2016,-104,17868,4.12,91.3
10865,2024,-160,17940,4.12,91.3
10868,2040,-180,17836,4.12,91.3
10871,2044,-116,17820,4.12,91.3
10874,2036,-68,17824,4.12,91.3
10877,2096,-176,17840,4.12,91.3
10880,1956,-108,17792,4.12,91.3
10883,2012,-116,17788,4.12,91.3
10886,2088,-52,17912,4.12,91.3
10889,2116,-48,17936,4.12,91.3
10892,2020,-224,17828,4.12,91.3
10895,1984,-36,17780,4.12,91.3
10898,2000,-212,17752,4.12,91.3
10901,2116,-112,17984,4.12,91.3
10904,2008,-116,17720,4.12,91.3
10907,2008,-208,17976,4.12,91.3
10910,2088,-108,17656,4.12,91.3
10913,2024,-132,17904,4.12,91.3
10916,2036,-164,17852,4.12,91.3
10919,1984,-176,17892,4.12,91.3
10922,2028,-16,17696,4.12,91.3
10925,2056,-228,17876,4.12,91.3
10928,2080,-172,17784,4.12,91.3
10931,2096,-200,17852,4.12,91.3
10934,2012,-104,17928,4.12,91.3
10937,2040,-132,17772,4.12,91.3
10940,1996,-308,17796,4.12,91.3
10943,2048,-200,17932,4.12,91.3
10946,1984,-168,17820,4.12,91.3
10949,1940,-172,17804,4.12,91.3
10952,2084,-144,17776,4.12,91.3
10955,2016,-160,17808,4.12,91.3
10958,2044,-136,17876,4.12,91.3
10961,2044,-136,17824,4.12,91.3
10964,2036,-8,17844,4.12,91.3
10967,1968,-84,17756,4.12,91.3
10970,2016,-236,17836,4.12,91.3
10973,2020,-100,17912,4.12,91.3
10976,1996,-156,17664,4.12,91.3
10979,2036,-124,18032,4.12,91.3
10982,2104,-196,17832,4.12,91.3
10985,2008,-152,17952,4.12,91.3
10988,1928,-104,17912,4.12,91.3
10991,2048,-120,17972,4.12,91.3
10994,1928,-128,17724,4.12,91.3
10997,1992,-140,18012,4.12,91.3
11000,2000,-148,17820,4.12,91.3
11003,1948,-100,17740,4.12,91.3
11006,1988,-160,17756,4.12,91.3
11009,2036,-208,17868,4.12,91.3
11012,1992,-124,17916,4.12,91.3
11015,2028,-64,17844,4.12,91.3
11018,2000,-156,17928,4.12,91.3
11021,1996,-156,17732,4.12,91.3
11024,2004,-84,17880,4.12,91.3
11027,2016,-136,17764,4.12,91.3
11030,2104,-76,17924,4.12,91.3
11033,2076,-164,17796,4.12,91.3
11036,2060,-140,17996,4.12,91.3
11039,2016,-116,17848,4.12,91.3
11042,2032,-172,17808,4.12,91.3
11045,2096,-160,17880,4.12,91.3
11048,2092,-72,17756,4.12,91.3
11051,2052,-96,17724,4.12,91.3
11054,2020,-80,17716,4.12,91.3
11057,2032,-164,17940,4.12,91.3
11060,2020,-200,17812,4.12,91.3
11063,2064,-108,17936,4.12,91.3
11066,2032,-120,17824,4.12,91.3
11069,1996,-208,17796,4.12,91.3
11082,2140,-12,17684,4.12,91.3
11085,2044,-116,17904,4.12,91.3
11088,2008,-96,17696,4.12,91.3
11091,1924,-148,17904,4.12,91.3
11094,2092,-120,17744,4.12,91.3
11097,2028,-200,17804,4.12,91.3
11100,2020,-96,17740,4.12,91.3
11103,2000,-112,17712,4.12,91.3
11106,2016,-120,17812,4.12,91.3
11109,1924,-160,17840,4.12,91.3
11112,2076,-96,17812,4.12,91.3
11115,2028,-152,17868,4.12,91.3
11118,2032,-56,17992,4.12,91.3
11121,2096,-128,17932,4.12,91.3
11124,1988,-56,17808,4.12,91.3
11127,1992,-168,17852,4.12,91.3
11130,1948,-52,17840,4.12,91.3
11133,1904,-132,17792,4.12,91.3
11136,2060,-168,17760,4.12,91.3
11139,2012,-96,17864,4.12,91.3
11142,2000,-132,17864,4.12,91.3
11145,1996,-60,18040,4.12,91.3
11148,2036,-112,17876,4.12,91.3
11151,2096,-112,17812,4.12,91.3
11154,1964,-116,17868,4.12,91.3
11157,2172,-72,17924,4.12,91.3
11160,1960,-176,17764,4.12,91.3
11163,2044,-36,17656,4.12,91.3
11166,1984,-100,17856,4.12,91.3
11169,2108,-76,17912,4.12,91.3
11172,2000,-36,17828,4.12,91.3
11175,1948,-124,17728,4.12,91.3
11178,2016,-92,17728,4.12,91.3
11181,2044,-140,17860,4.12,91.3
11184,2084,-160,17844,4.12,91.3
11187,2100,-104,17740,4.12,91.3
11190,2128,-124,17660,4.12,91.3
11193,1992,-116,17760,4.12,91.3
11196,2024,-192,17796,4.12,91.3
11199,2120,-60,17836,4.12,91.3
11202,1960,-212,17712,4.12,91.3
11205,2008,-152,17816,4.12,91.3
11208,2008,-156,17820,4.12,91.3
11211,2064,-148,17792,4.12,91.3
11214,2076,-108,17792,4.12,91.3
11217,2072,-240,17904,4.12,91.3
11220,2084,-68,17904,4.12,91.3
11223,2032,-176,17888,4.12,91.3
11226,2016,-124,17752,4.12,91.3
11229,2148,-92,17752,4.12,91.3
11232,2056,-124,17868,4.12,91.3
11235,1956,-124,17876,4.12,91.3
11238,1928,-108,17844,4.12,91.3
11241,1996,-56,17988,4.12,91.3
11244,2024,-168,17752,4.12,91.3
11247,2080,-204,17896,4.12,91.3
11250,2092,-4,17884,4.12,91.3
11253,1952,-168,17912,4.12,91.3
11256,1944,-220,17832,4.12,91.3
11259,2100,-84,17844,4.12,91.3
11262,2036,-128,17776,4.12,91.3
11265,1952,-56,17812,4.12,91.3
11268,1968,-128,17760,4.12,91.3
11272,2000,-8,17852,4.12,91.3
11275,1952,-144,17712,4.12,91.3
11278,1972,-128,17884,4.12,91.3
11281,2052,-112,17840,4.12,91.3
11284,1980,-188,17828,4.12,91.3
11287,1988,-72,17836,4.12,91.3
11290,2060,-112,17860,4.12,91.3
11293,2000,-140,17928,4.12,91.3
11296,2144,-128,17856,4.12,91.3
11299,2064,-156,17820,4.12,91.3
11302,2104,-92,17764,4.12,91.3
11305,2044,-172,17772,4.12,91.3
11308,2048,-232,17836,4.12,91.3
11311,1992,-108,17828,4.12,91.3
11314,2088,-176,17804,4.12,91.3
11317,2120,-140,17840,4.12,91.3
11320,2016,-172,17700,4.12,91.3
11323,1984,-184,17820,4.12,91.3
11326,2080,-124,17860,4.12,91.3
11329,2096,-160,18008,4.12,91.3
11332,2028,-120,17800,4.12,91.3
11335,2016,-156,17924,4.12,91.3
11338,2032,-68,17900,4.12,91.3
11341,2108,-180,17780,4.12,91.3
11344,2060,-228,17744,4.12,91.3
11347,2096,-212,17912,4.12,91.3
11350,2104,-116,17768,4.12,91.3
11353,1992,-112,17952,4.12,91.3
11356,2092,-100,17680,4.12,91.3
11359,1928,-168,17856,4.12,91.3
11362,2052,-4,17924,4.12,91.3
11365,2132,-64,17932,4.12,91.3
11368,2112,-164,17844,4.12,91.3
11371,2008,-80,17952,4.12,91.3
11374,2032,-24,17736,4.12,91.3
11377,1888,-184,17888,4.12,91.3
11380,2052,-60,17872,4.12,91.3
11383,2108,0,17628,4.12,91.3
11386,2096,-108,17832,4.12,91.3
11389,2004,-240,17864,4.12,91.3
11392,2032,-164,17888,4.12,91.3
11395,1980,-152,18008,4.12,91.3
11398,2056,-48,17760,4.12,91.3
11401,2068,-100,17956,4.12,91.3
11404,2032,-72,18032,4.12,91.3
11407,2052,-108,17864,4.12,91.3
11410,2044,-44,17720,4.12,91.3
11413,2028,-216,17840,4.12,91.3
11416,2004,-88,17668,4.12,91.3
11419,2012,-88,17800,4.12,91.3
11422,1976,-140,17768,4.12,91.3
11425,2012,-124,17768,4.12,91.3
11428,2080,-148,17712,4.12,91.3
11431,2080,-212,17832,4.12,91.3
11434,2044,-176,17960,4.12,91.3
11437,2040,-180,17820,4.12,91.3
11440,1976,-40,17756,4.12,91.3
11443,1980,-92,17944,4.12,91.3
11446,1980,-80,17772,4.12,91.3
11449,1996,-152,17852,4.12,91.3
11452,2052,-64,17828,4.12,91.3
11455,2052,-164,17868,4.12,91.3
11458,2084,-140,17700,4.12,91.3
11461,2060,-92,18000,4.12,91.3
11464,2084,-148,17744,4.12,91.3
11467,2096,-200,17824,4.12,91.3
11480,2036,-56,17820,4.12,91.3
11483,2004,-224,17912,4.12,91.3
11486,2064,-160,17688,4.12,91.3
11489,1948,-116,17888,4.12,91.3
11492,2048,-32,17856,4.12,91.3
11495,1984,-148,17584,4.12,91.3
11498,2104,-192,17812,4.12,91.3
11501,2048,-228,17640,4.12,91.3
11504,2088,-124,17808,4.12,91.3
11507,2108,-192,17860,4.12,91.3
11510,1972,-180,17760,4.12,91.3
11513,2052,-124,17948,4.12,91.3
11516,1936,-204,17736,4.12,91.3
11519,2100,-124,17828,4.12,91.3
11522,2072,-132,17872,4.12,91.3
11525,1880,-52,18088,4.12,91.3
11528,1992,-112,17924,4.12,91.3
11531,2064,-168,17664,4.12,91.3
11534,1924,-156,17800,4.12,91.3
11537,2128,-216,17920,4.12,91.3
11540,2012,-20,17860,4.12,91.3
11543,2016,-168,17728,4.12,91.3
11546,2008,-88,17828,4.12,91.3
11549,2084,-180,17792,4.12,91.3
11552,2060,-116,17752,4.12,91.3
11555,1960,-140,17852,4.12,91.3
11558,2068,-136,17820,4.12,91.3
11561,2028,-212,17784,4.12,91.3
11564,2172,-148,17744,4.12,91.3
11567,2072,-152,17724,4.12,91.3
11570,2124,-152,17860,4.12,91.3
11573,2128,-128,17792,4.12,91.3
11576,2036,-116,17832,4.12,91.3
11579,2132,-88,17808,4.12,91.3
11582,2016,-172,17864,4.12,91.3
11585,2116,-116,17800,4.12,91.3
11588,1976,-168,17816,4.12,91.3
11591,1980,-52,17812,4.12,91.3
11594,2032,-88,17864,4.12,91.3
11597,2032,-140,17940,4.12,91.3
11600,2008,-156,17864,4.12,91.3
11603,1980,-88,17928,4.12,91.3
11606,2124,-164,17876,4.12,91.3
11609,2040,-220,17844,4.12,91.3
11612,2024,-84,17864,4.12,91.3
11615,2124,-140,17724,4.12,91.3
11618,2068,-180,17968,4.12,91.3
11621,2056,-124,17852,4.12,91.3
11624,2064,-96,17800,4.12,91.3
11627,2088,-100,17736,4.12,91.3
11630,1964,-100,17828,4.12,91.3
11633,1972,-144,17788,4.12,91.3
11636,1948,-208,17800,4.12,91.3
11639,1964,-140,18020,4.12,91.3
11642,1968,-116,17820,4.12,91.3
11645,2072,-116,17656,4.12,91.3
11648,2000,-44,17784,4.12,91.3
11651,1936,-208,17796,4.12,91.3
11654,2092,-128,17904,4.12,91.3
11657,2020,-120,17716,4.12,91.3
11660,2052,-140,17692,4.12,91.3
11663,2004,-132,17776,4.12,91.3
11666,2128,-80,17752,4.12,91.3
11669,2072,-220,17832,4.12,91.3
11672,2064,28,17932,4.12,91.3
11675,1936,-112,17972,4.12,91.3
11678,1964,-124,17892,4.12,91.3
11681,1956,-104,17840,4.12,91.3
11684,2108,-196,17764,4.12,91.3
11687,2028,-160,17876,4.12,91.3
11690,2080,-80,17916,4.12,91.3
11693,2012,-124,17748,4.12,91.3
11696,1972,-132,17816,4.12,91.3
11699,1968,-80,17904,4.12,91.3
11702,2116,-188,17812,4.12,91.3
11705,1960,-88,17744,4.12,91.3
11708,1948,-132,17892,4.12,91.3
11711,2060,-56,17704,4.12,91.3
11714,2036,-208,17908,4.12,91.3
11717,2028,-200,17972,4.12,91.3
11720,2028,-148,18016,4.12,91.3
11723,2080,-164,17880,4.12,91.3
11726,2008,-120,18016,4.12,91.3
11729,2012,-164,17864,4.12,91.3
11732,2080,-84,17776,4.12,91.3
11735,2184,-148,17920,4.12,91.3
11738,2016,-172,17832,4.12,91.3
11741,2000,-140,17872,4.12,91.3
11744,2060,-208,17652,4.12,91.3
11747,2004,-196,17784,4.12,91.3
11750,2072,-84,17688,4.12,91.3
11753,2004,-200,17772,4.12,91.3
11756,2072,-140,17872,4.12,91.3
11759,2056,-144,17824,4.12,91.3
11762,2072,-148,17732,4.12,91.3
11765,1984,-100,17760,4.12,91.3
11768,2028,-56,17956,4.12,91.3
11771,2020,-204,17780,4.12,91.3
11774,2124,-100,17640,4.12,91.3
11777,2108,-72,17924,4.12,91.3
11780,2004,-144,17904,4.12,91.3
11783,2088,-92,17724,4.12,91.3
11786,1968,-168,17840,4.12,91.3
11789,2068,-72,17824,4.12,91.3
11792,2036,-136,17596,4.12,91.3
11795,2052,-140,17728,4.12,91.3
11798,2092,-176,17812,4.12,91.3
11801,2000,-124,17696,4.12,91.3
11804,2112,-60,17988,4.12,91.3
11807,2156,-176,17808,4.12,91.3
11810,1956,-216,17824,4.12,91.3
11813,2064,-188,17776,4.12,91.3
11816,2052,-116,17840,4.12,91.3
11819,2116,-100,17736,4.12,91.3
11822,2116,-64,17912,4.12,91.3
11825,2020,-116,17772,4.12,91.3
11828,2080,-56,17892,4.12,91.3
11831,2096,-80,17864,4.12,91.3
11834,2072,-264,17716,4.12,91.3
11837,2020,-76,17836,4.12,91.3
11840,2020,-184,17768,4.12,91.3
11843,2096,-116,17764,4.12,91.3
11846,2052,-36,17760,4.12,91.3
11849,2028,-108,17920,4.12,91.3
11852,1988,-168,17892,4.12,91.3
11855,2008,-324,17764,4.12,91.3
11858,2004,-212,17736,4.12,91.3
11861,1940,-188,17796,4.12,91.3
11864,1956,-136,17820,4.12,91.3
11876,2044,-104,17784,4.12,91.3
11880,2020,-164,17964,4.12,91.3
11883,2092,-152,17852,4.12,91.3
11886,1928,-16,17884,4.12,91.3
11889,1972,-184,17724,4.12,91.3
11892,2072,-144,17820,4.12,91.3
11895,1976,-120,18004,4.12,91.3
11898,2064,-140,17760,4.12,91.3
11901,2096,-108,17868,4.12,91.3
11904,1924,-160,17868,4.12,91.3
11907,2020,-28,17880,4.12,91.3
11910,2032,-44,17864,4.12,91.3
11913,2004,-160,17892,4.12,91.3
11916,2028,-64,17828,4.12,91.3
11919,1980,-124,17812,4.12,91.3
11922,2000,-160,17780,4.12,91.3
11925,2088,-216,17744,4.12,91.3
11928,2072,-156,17776,4.12,91.3
11931,2136,-80,17820,4.12,91.3
11934,2052,-104,17832,4.12,91.3
11937,2052,-140,17752,4.12,91.3
11940,2072,-64,17824,4.12,91.3
11943,2124,-96,17840,4.12,91.3
11946,2064,16,17968,4.12,91.3
11949,2020,-76,17844,4.12,91.3
11952,1984,-96,17840,4.12,91.3
11955,2008,-28,17776,4.12,91.3
11958,2024,-208,17792,4.12,91.3
11961,2068,-112,17680,4.12,91.3
11964,2136,-60,17728,4.12,91.3
11967,2004,-140,17912,4.12,91.3
11970,2024,-220,17860,4.12,91.3
11973,2140,-128,17860,4.12,91.3
11976,2072,-200,17864,4.12,91.3
11979,1948,-180,17912,4.12,91.3
11982,1960,-184,17808,4.12,91.3
11985,1960,-140,17812,4.12,91.3
11988,2024,-160,17772,4.12,91.3
