timestamp_ms,accel_x,accel_y,accel_z,voltage,soc
3,1932,-124,17844,4.12,91.3
6,1972,-104,17824,4.12,91.3
9,1992,-128,17728,4.12,91.3
16,2056,-140,17892,4.12,91.3
19,2004,-80,17752,4.12,91.3
22,2068,-68,17704,4.12,91.3
25,2056,-88,17668,4.12,91.3
28,1992,-132,17784,4.12,91.3
31,2124,-104,17788,4.12,91.3
34,1948,-188,18000,4.12,91.3
37,2032,-252,17836,4.12,91.3
40,1992,-36,17776,4.12,91.3
44,2068,-144,17724,4.12,91.3
47,2048,-136,17612,4.12,91.3
50,2088,-112,17872,4.12,91.3
53,1936,-216,17736,4.12,91.3
56,1968,-176,17972,4.12,91.3
59,1976,-200,17900,4.12,91.3
62,2020,-128,17664,4.12,91.3
65,2052,-132,17752,4.12,91.3
68,2044,-152,17908,4.12,91.3
73,1896,-68,17840,4.12,91.3
76,2064,-116,17856,4.12,91.3
79,2060,-52,17864,4.12,91.3
82,2040,-128,17860,4.12,91.3
85,2128,-108,17484,4.12,91.3
89,2036,-96,17816,4.12,91.3
92,2016,-44,17608,4.12,91.3
95,1984,-152,17868,4.12,91.3
98,1972,-96,17852,4.12,91.3
101,1960,-68,17772,4.12,91.3
104,2000,-148,17856,4.12,91.3
107,2056,-136,17664,4.12,91.3
110,2084,-120,17780,4.12,91.3
113,2036,-164,17832,4.12,91.3
116,2060,-68,17788,4.12,91.3
119,2020,-36,17808,4.12,91.3
122,2008,-216,17756,4.12,91.3
125,2100,-164,17584,4.12,91.3
131,2044,-140,17812,4.12,91.3
134,2064,-172,17816,4.12,91.3
137,1980,-136,17864,4.12,91.3
140,1996,-156,17836,4.12,91.3
143,2028,-72,17780,4.12,91.3
146,2188,-140,17792,4.12,91.3
149,2056,-180,17888,4.12,91.3
152,2032,-152,17716,4.12,91.3
156,2108,-124,17864,4.12,91.3
159,2016,-152,17728,4.12,91.3
162,1948,-132,17868,4.12,91.3
165,2048,-204,17804,4.12,91.3
168,2056,-232,17744,4.12,91.3
171,2044,-164,17860,4.12,91.3
174,1992,-248,17744,4.12,91.3
177,2096,-256,17756,4.12,91.3
180,2108,-196,17924,4.12,91.3
185,2028,-180,17872,4.12,91.3
188,2064,-84,17712,4.12,91.3
191,1984,-256,17840,4.12,91.3
194,2016,-156,17648,4.12,91.3
198,1932,-92,17460,4.12,91.3
201,1768,-272,18076,4.12,91.3
204,2104,-204,17980,4.12,91.3
207,2264,-124,17520,4.12,91.3
210,2076,64,17540,4.12,91.3
213,1944,-100,17628,4.12,91.3
216,1776,-72,18276,4.12,91.3
219,1932,4,17680,4.12,91.3
222,1932,-36,17812,4.12,91.3
225,1920,-28,17908,4.12,91.3
229,2080,-8,17580,4.12,91.3
232,2096,-40,17764,4.12,91.3
235,1964,120,17876,4.12,91.3
240,2024,-76,17688,4.12,91.3
243,2040,-132,17888,4.12,91.3
246,2128,-84,17972,4.12,91.3
249,1940,-48,17676,4.12,91.3
252,2084,-60,17768,4.12,91.3
255,2112,-144,17808,4.12,91.3
258,2008,-132,17880,4.12,91.3
261,2136,-192,17684,4.12,91.3
264,2020,-56,17800,4.12,91.3
268,2020,-52,17644,4.12,91.3
271,2152,-80,17804,4.12,91.3
274,2136,-108,17740,4.12,91.3
277,2024,-160,17904,4.12,91.3
280,2164,-268,17792,4.12,91.3
283,2016,-168,17828,4.12,91.3
286,2196,-164,17684,4.12,91.3
289,2016,-64,17748,4.12,91.3
292,2108,-212,17872,4.12,91.3
298,2176,-124,17656,4.12,91.3
301,2132,-96,17620,4.12,91.3
304,2076,-256,17776,4.12,91.3
307,2104,-152,17660,4.12,91.3
310,2056,-168,17676,4.12,91.3
313,2176,-188,17864,4.12,91.3
316,2024,-208,17920,4.12,91.3
319,2060,-176,17728,4.12,91.3
322,2036,-192,17664,4.12,91.3
325,2080,-92,17620,4.12,91.3
328,2064,-176,17856,4.12,91.3
331,1968,-216,17744,4.12,91.3
334,1988,-4,17808,4.12,91.3
338,2012,-116,17764,4.12,91.3
341,2012,-216,17820,4.12,91.3
344,1908,-88,17672,4.12,91.3
347,2000,-156,17824,4.12,91.3
352,2000,-64,17972,4.12,91.3
355,2088,-36,17716,4.12,91.3
358,2036,-88,17740,4.12,91.3
361,2032,-128,17712,4.12,91.3
365,2000,-160,17744,4.12,91.3
368,1848,-112,17756,4.12,91.3
371,2052,-124,17704,4.12,91.3
374,2008,-96,17780,4.12,91.3
377,1972,-232,17780,4.12,91.3
380,1996,-100,17656,4.12,91.3
383,2028,-84,17848,4.12,91.3
386,2064,-72,17824,4.12,91.3
389,2072,-108,17764,4.12,91.3
392,2020,-168,17740,4.12,91.3
395,2004,-240,17872,4.12,91.3
398,2000,-96,17800,4.12,91.3
401,2016,-212,17764,4.12,91.3
407,2072,-128,17736,4.12,91.3
410,2016,-68,17852,4.12,91.3
413,2020,-204,17792,4.12,91.3
416,2200,-160,17828,4.12,91.3
419,2068,-244,17660,4.12,91.3
422,2128,-132,17840,4.12,91.3
425,2116,-168,17880,4.12,91.3
428,2000,-148,17880,4.12,91.3
431,2020,-136,17712,4.12,91.3
435,2024,-68,17808,4.12,91.3
438,2208,-132,17704,4.12,91.3
441,2096,-200,17924,4.12,91.3
444,2124,-188,17668,4.12,91.3
447,2124,-88,17836,4.12,91.3
450,2076,-92,17836,4.12,91.3
453,2136,-160,17688,4.12,91.3
456,2064,-44,17796,4.12,91.3
461,2092,-176,17756,4.12,91.3
464,1984,-180,17732,4.12,91.3
467,2032,-128,17824,4.12,91.3
470,2012,-156,17784,4.12,91.3
473,2040,-76,17924,4.12,91.3
477,2048,-84,17768,4.12,91.3
480,2092,-180,17680,4.12,91.3
483,2000,-60,17748,4.12,91.3
486,2124,-176,17812,4.12,91.3
489,2036,-152,17864,4.12,91.3
492,2040,-168,17844,4.12,91.3
495,2036,-144,17752,4.12,91.3
498,2060,-76,17828,4.12,91.3
501,1976,-44,17860,4.12,91.3
504,2048,-52,17740,4.12,91.3
507,2028,-172,17816,4.12,91.3
510,2072,-24,17608,4.12,91.3
514,1944,-180,17840,4.12,91.3
519,2084,-44,17820,4.12,91.3
522,2040,-88,17848,4.12,91.3
525,1968,-80,17852,4.12,91.3
528,2044,-160,17800,4.12,91.3
531,2060,-176,17680,4.12,91.3
534,2120,-124,17728,4.12,91.3
537,2068,-64,17768,4.12,91.3
540,2068,-40,17900,4.12,91.3
543,2160,-188,17772,4.12,91.3
546,2100,-176,17764,4.12,91.3
549,2100,-72,17800,4.12,91.3
552,2092,-176,17736,4.12,91.3
555,2108,-92,17748,4.12,91.3
559,2016,-168,17700,4.12,91.3
562,2092,-108,17748,4.12,91.3
565,2032,-204,17712,4.12,91.3
568,2064,-104,17652,4.12,91.3
573,2092,-144,17844,4.12,91.3
576,2028,-148,17892,4.12,91.3
579,2084,-244,17764,4.12,91.3
582,1984,-64,17800,4.12,91.3
586,1988,-168,17916,4.12,91.3
589,2024,-160,17732,4.12,91.3
592,2048,-100,17644,4.12,91.3
595,2092,24,17812,4.12,91.3
598,2044,-108,17736,4.12,91.3
601,1984,-96,17816,4.12,91.3
604,2008,-132,17940,4.12,91.3
607,2016,-148,17700,4.12,91.3
610,2052,-192,17724,4.12,91.3
613,2036,-172,17708,4.12,91.3
616,2124,-112,17772,4.12,91.3
619,2100,-100,17864,4.12,91.3
622,2036,-108,17804,4.12,91.3
628,2048,-164,17932,4.12,91.3
631,2104,-140,17908,4.12,91.3
634,2044,-140,17756,4.12,91.3
637,2088,-56,17760,4.12,91.3
640,2020,-172,17732,4.12,91.3
643,2076,-208,17836,4.12,91.3
646,2068,-124,17712,4.12,91.3
649,2088,-172,17840,4.12,91.3
652,2096,-68,17796,4.12,91.3
656,1972,-72,17752,4.12,91.3
659,2012,-112,17896,4.12,91.3
662,2000,-256,17780,4.12,91.3
665,2004,-164,17620,4.12,91.3
668,2076,-116,17852,4.12,91.3
671,1992,-156,17920,4.12,91.3
674,2020,-16,17852,4.12,91.3
677,2048,-124,17876,4.12,91.3
683,2060,-32,17836,4.12,91.3
686,2080,-132,17880,4.12,91.3
689,2108,-232,17936,4.12,91.3
692,2012,-124,17712,4.12,91.3
695,2088,12,17772,4.12,91.3
698,2008,0,17656,4.12,91.3
701,2156,-44,17676,4.12,91.3
704,1960,-76,17848,4.12,91.3
707,2044,-80,17924,4.12,91.3
710,2060,-120,17932,4.12,91.3
713,2212,-160,17512,4.12,91.3
716,2116,4,17636,4.12,91.3
719,1932,-124,17996,4.12,91.3
722,1936,-80,17960,4.12,91.3
726,2012,20,17824,4.12,91.3
729,2216,-88,17552,4.12,91.3
732,2156,-80,17772,4.12,91.3
735,2100,-88,17916,4.12,91.3
740,2044,-92,17900,4.12,91.3
743,1984,-168,17800,4.12,91.3
746,2068,-180,17800,4.12,91.3
749,2052,-128,17800,4.12,91.3
753,1936,-80,17440,4.12,91.3
756,1936,-112,17388,4.12,91.3
759,1872,-184,18116,4.12,91.3
762,2152,-144,18504,4.12,91.3
765,2560,-72,17732,4.12,91.3
768,2332,-168,17148,4.12,91.3
771,1892,-188,17664,4.12,91.3
774,1712,-96,18208,4.12,91.3
777,1692,-192,18112,4.12,91.3
780,2104,-40,17600,4.12,91.3
783,2452,-56,17332,4.12,91.3
786,2504,-76,17292,4.12,91.3
789,2272,-20,17732,4.12,91.3
795,1996,268,17960,4.12,91.3
798,2052,560,17908,4.12,91.3
801,2520,380,17908,4.12,91.3
804,772,-752,18868,4.12,91.3
807,496,-1076,17568,4.12,91.3
810,1304,-536,17188,4.12,91.3
813,1172,1004,17096,4.12,91.3
816,1732,1560,17996,4.12,91.3
819,1764,684,18380,4.12,91.3
823,1964,1588,18036,4.12,91.3
826,1832,2672,17168,4.12,91.3
829,1728,2680,17420,4.12,91.3
832,1688,2616,17900,4.12,91.3
835,1204,3824,18212,4.12,91.3
838,1416,4200,18672,4.12,91.3
841,1868,4564,17232,4.12,91.3
844,1796,4360,17684,4.12,91.3
847,1900,3832,18128,4.12,91.3
852,1868,2156,18044,4.12,91.3
855,2092,1948,18060,4.12,91.3
859,2124,516,18176,4.12,91.3
862,2004,304,17640,4.12,91.3
865,2064,-216,18000,4.12,91.3
868,2024,-1160,17584,4.12,91.3
871,1472,-1604,17272,4.12,91.3
874,1012,-1468,18756,4.12,91.3
877,544,-1472,17804,4.12,91.3
880,444,-2052,18056,4.12,91.3
883,328,-1632,18088,4.12,91.3
886,240,-1368,18264,4.12,91.3
889,256,-1096,16872,4.12,91.3
893,396,-1112,17596,4.12,91.3
896,344,-800,17604,4.12,91.3
899,944,-500,17756,4.12,91.3
902,1104,-124,18236,4.12,91.3
907,828,536,18584,4.12,91.3
910,1004,772,19048,4.12,91.3
913,1376,308,19144,4.12,91.3
916,964,440,18844,4.12,91.3
919,1084,-8,19124,4.12,91.3
922,1300,-428,18972,4.12,91.3
925,1664,-660,18000,4.12,91.3
928,1680,-648,17156,4.12,91.3
931,2816,-1160,16496,4.12,91.3
935,2016,-984,16360,4.12,91.3
938,3520,-1012,14840,4.12,91.3
941,3628,164,16196,4.12,91.3
944,3420,-1384,15944,4.12,91.3
947,5776,20,16804,4.12,91.3
950,4288,-624,17536,4.12,91.3
953,5196,-600,18212,4.12,91.3
956,4664,-480,18372,4.12,91.3
961,4728,-64,18328,4.12,91.3
964,5496,344,17296,4.12,91.3
967,6192,-4,17724,4.12,91.3
970,5508,180,18028,4.12,91.3
973,5448,244,17652,4.12,91.3
977,5056,356,16972,4.12,91.3
980,4680,912,17400,4.12,91.3
983,5128,624,16616,4.12,91.3
986,4624,388,17332,4.12,91.3
989,4600,-36,17456,4.12,91.3
992,4288,280,17692,4.12,91.3
995,4460,-744,17752,4.12,91.3
998,4224,-672,18272,4.12,91.3
1001,4336,-512,18764,4.12,91.3
1004,4692,-1752,18584,4.12,91.3
1007,3924,-1436,19176,4.12,91.3
1010,3272,-1260,19080,4.12,91.3
1016,2860,-1316,18336,4.12,91.3
1019,2480,-824,18364,4.12,91.3
1022,2088,-812,17932,4.12,91.3
1025,2372,-784,17744,4.12,91.3
1028,2292,-476,18048,4.12,91.3
1031,2184,-560,18576,4.12,91.3
1034,2364,-664,18716,4.12,91.3
1037,1876,-884,19068,4.12,91.3
1040,2180,-1044,19168,4.12,91.3
1044,2324,-1108,19220,4.12,91.3
1047,2404,-1040,19260,4.12,91.3
1050,2696,-1236,18436,4.12,91.3
1053,2324,-992,18652,4.12,91.3
1056,2520,-980,18308,4.12,91.3
1059,3252,-1276,17404,4.12,91.3
1062,2748,-1216,18120,4.12,91.3
1065,3020,-1184,17428,4.12,91.3
1071,3308,-1492,16796,4.12,91.3
1074,3792,-1628,16236,4.12,91.3
1077,3900,-1716,16140,4.12,91.3
1080,3900,-1684,15984,4.12,91.3
1083,3848,-1776,15700,4.12,91.3
1086,3996,-1692,15720,4.12,91.3
1089,4056,-1792,15660,4.12,91.3
1092,4252,-1664,15444,4.12,91.3
1095,4504,-1704,15032,4.12,91.3
1098,4428,-1748,15112,4.12,91.3
1101,4720,-1968,15404,4.12,91.3
1104,4620,-1672,14884,4.12,91.3
1108,4440,-1716,15600,4.12,91.3
1111,4964,-1672,14992,4.12,91.3
1114,4320,-1820,15756,4.12,91.3
1117,4644,-1688,15196,4.12,91.3
1122,4272,-1628,16460,4.12,91.3
1125,3984,-1164,16188,4.12,91.3
1128,3460,-488,17396,4.12,91.3
1131,2988,-468,18496,4.12,91.3
1135,2872,-516,18636,4.12,91.3
1138,2124,-320,19300,4.12,91.3
1141,1840,-60,19272,4.12,91.3
1144,1608,204,20120,4.12,91.3
1147,1404,124,20444,4.12,91.3
1150,1464,-192,21328,4.12,91.3
1153,836,124,22160,4.12,91.3
1156,1008,180,22080,4.12,91.3
1159,996,-40,22604,4.12,91.3
1162,1152,104,21380,4.12,91.3
1165,848,216,21296,4.12,91.3
1168,1516,-228,19920,4.12,91.3
1174,1764,-476,20168,4.12,91.3
1177,2516,-716,18924,4.12,91.3
1180,2412,-592,18508,4.12,91.3
1183,2676,-684,17912,4.12,91.3
1186,3084,-1256,18352,4.12,91.3
1189,3344,-1504,17644,4.12,91.3
1192,3660,-1512,17136,4.12,91.3
1195,3640,-1264,16380,4.12,91.3
1198,3992,-1072,16056,4.12,91.3
1202,4116,-1160,16428,4.12,91.3
1205,3784,-964,15720,4.12,91.3
1208,3636,-924,15400,4.12,91.3
1211,3816,-844,14824,4.12,91.3
1214,3356,-632,14912,4.12,91.3
1217,3836,-1088,14872,4.12,91.3
1220,3572,-980,14712,4.12,91.3
1223,3640,-1236,14492,4.12,91.3
1228,3648,-1132,13908,4.12,91.3
1232,3148,-1004,14564,4.12,91.3
1235,3480,-1284,13636,4.12,91.3
1238,2872,-1396,14268,4.12,91.3
1241,3144,-1388,13364,4.12,91.3
1244,2900,-1404,13736,4.12,91.3
1247,2592,-1404,13420,4.12,91.3
1250,2772,-1880,12676,4.12,91.3
1253,2100,-1860,12872,4.12,91.3
1256,1748,-2196,12860,4.12,91.3
1259,1336,-2240,12832,4.12,91.3
1262,-1624,-940,14316,4.12,91.3
1266,-2116,-972,13972,4.12,91.3
1269,-8336,-836,32767,4.12,91.3
1272,-6016,1588,32767,4.12,91.3
1275,588,1240,25652,4.12,91.3
1280,-412,3964,16508,4.12,91.3
1283,-1872,4812,19032,4.12,91.3
1286,-3676,5040,22456,4.12,91.3
1289,876,2828,15536,4.12,91.3
1292,484,2012,21108,4.12,91.3
1296,-44,1100,18680,4.12,91.3
1299,2524,-192,16564,4.12,91.3
1302,2076,-764,19572,4.12,91.3
1305,1576,-1244,17232,4.12,91.3
1308,2464,-1284,15832,4.12,91.3
1311,1428,-904,18292,4.12,91.3
1314,792,-1392,16668,4.12,91.3
1317,1844,-1160,15924,4.12,91.3
1320,596,-504,18712,4.12,91.3
1323,100,-496,17816,4.12,91.3
1326,624,-68,16628,4.12,91.3
1332,-276,324,18112,4.12,91.3
1335,356,308,17000,4.12,91.3
1338,-300,620,18148,4.12,91.3
1341,96,276,17128,4.12,91.3
1344,224,312,16912,4.12,91.3
1347,-88,648,18224,4.12,91.3
1350,300,224,17080,4.12,91.3
1353,556,-52,17284,4.12,91.3
1356,452,-296,17396,4.12,91.3
1359,488,-576,17772,4.12,91.3
1362,744,-748,17348,4.12,91.3
1365,444,-176,17876,4.12,91.3
1368,472,-260,17472,4.12,91.3
1372,432,100,17664,4.12,91.3
1375,448,152,17984,4.12,91.3
1378,488,284,18044,4.12,91.3
1381,660,36,17820,4.12,91.3
1384,416,32,18096,4.12,91.3
1389,752,-272,17864,4.12,91.3
1392,560,-192,18084,4.12,91.3
1395,400,-332,18048,4.12,91.3
1398,304,-108,18276,4.12,91.3
1401,496,-84,17984,4.12,91.3
1404,300,-168,18108,4.12,91.3
1407,300,-360,18116,4.12,91.3
1410,324,-168,18044,4.12,91.3
1414,20,-108,18016,4.12,91.3
1417,24,-72,17804,4.12,91.3
1420,-36,-28,17772,4.12,91.3
1423,-104,136,17744,4.12,91.3
1426,-188,224,17748,4.12,91.3
1429,-284,184,17752,4.12,91.3
1432,-348,-20,17804,4.12,91.3
1435,-468,156,17516,4.12,91.3
1438,-752,268,17400,4.12,91.3
1443,-932,96,17200,4.12,91.3
1447,-1100,188,17104,4.12,91.3
1450,-1276,160,17128,4.12,91.3
1453,-1512,196,16912,4.12,91.3
1456,-1688,152,16844,4.12,91.3
1459,-1760,88,16940,4.12,91.3
1462,-1500,128,16800,4.12,91.3
1465,-1704,-72,16848,4.12,91.3
1468,-1336,-140,16392,4.12,91.3
1471,-968,-328,16340,4.12,91.3
1474,-756,-584,16588,4.12,91.3
1477,-820,-568,16728,4.12,91.3
1480,-1088,-444,16812,4.12,91.3
1484,-1240,-492,16560,4.12,91.3
1487,-1540,-364,16892,4.12,91.3
1490,-1924,-460,16976,4.12,91.3
1493,-1968,-220,16812,4.12,91.3
1498,-1864,-340,17076,4.12,91.3
1501,-1512,-240,17168,4.12,91.3
1504,-1212,-396,17308,4.12,91.3
1507,-864,-344,17444,4.12,91.3
1510,-444,-288,17580,4.12,91.3
1514,-284,-276,17784,4.12,91.3
1517,-248,-256,18064,4.12,91.3
1520,-80,-184,17944,4.12,91.3
1523,-16,-208,18124,4.12,91.3
1526,8,-248,18084,4.12,91.3
1529,100,-260,17964,4.12,91.3
1532,64,-224,17952,4.12,91.3
1535,24,-328,18092,4.12,91.3
1538,28,-224,17976,4.12,91.3
1541,-112,-244,17844,4.12,91.3
1544,-132,-264,17888,4.12,91.3
1550,-108,-252,17860,4.12,91.3
1553,-220,-132,17760,4.12,91.3
1556,-284,-140,17640,4.12,91.3
1559,-176,-264,17624,4.12,91.3
1562,-120,-336,17468,4.12,91.3
1565,-236,-276,17572,4.12,91.3
1568,-160,-388,17532,4.12,91.3
1571,-120,-312,17788,4.12,91.3
1574,-156,-340,17604,4.12,91.3
1578,28,-348,17632,4.12,91.3
1581,8,-316,17756,4.12,91.3
1584,-108,-388,17796,4.12,91.3
1587,8,40,18488,4.12,91.3
1590,252,-308,18132,4.12,91.3
1593,468,-332,17648,4.12,91.3
1596,392,-172,18000,4.12,91.3
1599,624,-164,17940,4.12,91.3
1604,636,-116,17964,4.12,91.3
1608,692,-120,18064,4.12,91.3
1611,652,-68,18260,4.12,91.3
1614,688,-144,18112,4.12,91.3
1617,824,-148,18076,4.12,91.3
1620,800,-312,18072,4.12,91.3
1623,848,-244,17996,4.12,91.3
1626,852,-144,17948,4.12,91.3
1629,696,-192,17896,4.12,91.3
1632,620,-240,17640,4.12,91.3
1635,512,-96,17880,4.12,91.3
1638,408,-16,17676,4.12,91.3
1641,428,-12,17792,4.12,91.3
1644,440,-200,17720,4.12,91.3
1648,488,-204,17776,4.12,91.3
1651,532,-192,17724,4.12,91.3
1654,312,-400,17688,4.12,91.3
1659,272,-212,17668,4.12,91.3
1662,284,-320,17636,4.12,91.3
1665,232,-192,17880,4.12,91.3
1668,272,-128,17692,4.12,91.3
1671,368,-212,17628,4.12,91.3
1674,400,-192,17808,4.12,91.3
1678,432,-108,17816,4.12,91.3
1681,304,-152,17784,4.12,91.3
1684,336,-136,17724,4.12,91.3
1687,256,-240,17604,4.12,91.3
1690,236,-120,17656,4.12,91.3
1693,184,-164,17544,4.12,91.3
1696,268,-212,17256,4.12,91.3
1699,328,-160,17544,4.12,91.3
1702,328,-164,17588,4.12,91.3
1705,440,-220,17672,4.12,91.3
1708,432,-244,17756,4.12,91.3
1711,372,-256,17744,4.12,91.3
1717,660,-332,18024,4.12,91.3
1720,1016,-344,18176,4.12,91.3
1723,1272,-164,18204,4.12,91.3
1726,1412,-368,18312,4.12,91.3
1729,1460,-236,18460,4.12,91.3
1732,1668,108,18588,4.12,91.3
1735,1536,240,18456,4.12,91.3
1738,1720,184,18388,4.12,91.3
1742,1820,144,18480,4.12,91.3
1745,1848,116,18484,4.12,91.3
1748,1636,-8,18292,4.12,91.3
1751,1720,-132,18156,4.12,91.3
1754,1612,-136,18084,4.12,91.3
1757,1600,-132,17912,4.12,91.3
1760,1448,-220,17880,4.12,91.3
1763,1264,-240,17784,4.12,91.3
1768,524,-324,17732,4.12,91.3
1771,472,-400,17452,4.12,91.3
1774,472,-452,17536,4.12,91.3
1777,16,-368,17736,4.12,91.3
1780,328,-412,17176,4.12,91.3
1784,-248,-188,17760,4.12,91.3
1787,-452,-184,17292,4.12,91.3
1790,-652,-292,17484,4.12,91.3
1793,-540,-468,17136,4.12,91.3
1796,-548,-268,17060,4.12,91.3
1799,-996,-72,17464,4.12,91.3
1802,-1040,-200,16860,4.12,91.3
1805,-1328,-148,17168,4.12,91.3
1808,-1500,-296,17168,4.12,91.3
1812,-1736,-320,17284,4.12,91.3
1815,-1556,-436,16872,4.12,91.3
1818,-1728,-364,16944,4.12,91.3
1823,-1800,-428,17140,4.12,91.3
1826,-2260,-352,16904,4.12,91.3
1829,-4356,-384,19192,4.12,91.3
1832,-3636,-28,17128,4.12,91.3
1835,-1016,-8,16956,4.12,91.3
1838,-1796,-616,16584,4.12,91.3
1841,-1268,-176,17880,4.12,91.3
1844,-980,-224,17308,4.12,91.3
1847,-880,176,17520,4.12,91.3
1851,-392,24,17824,4.12,91.3
1854,-764,108,17904,4.12,91.3
1857,-480,76,17496,4.12,91.3
1860,-384,-132,18040,4.12,91.3
1863,-188,-4,17372,4.12,91.3
1866,-260,100,17808,4.12,91.3
1869,-352,24,17772,4.12,91.3
1872,-320,40,17924,4.12,91.3
1877,-268,104,17968,4.12,91.3
1880,-336,140,17640,4.12,91.3
1883,-508,32,17784,4.12,91.3
1886,-360,64,17772,4.12,91.3
1890,-224,108,17820,4.12,91.3
1893,-336,-316,18052,4.12,91.3
1896,-228,-284,18016,4.12,91.3
1899,-264,-316,17800,4.12,91.3
1902,40,-320,17872,4.12,91.3
1905,-136,-344,17600,4.12,91.3
1908,-136,-224,18080,4.12,91.3
1911,-68,-416,17228,4.12,91.3
1914,-472,-508,17796,4.12,91.3
1918,-796,-372,18288,4.12,91.3
1921,-368,-256,17220,4.12,91.3
1924,112,-300,17696,4.12,91.3
1927,-1516,-736,19100,4.12,91.3
1932,-764,-236,17472,4.12,91.3
1935,-328,-508,17468,4.12,91.3
1938,-1368,-308,16208,4.12,91.3
1941,-960,-36,17492,4.12,91.3
1944,-764,-468,17180,4.12,91.3
1947,-1852,-560,16804,4.12,91.3
1950,-1280,-280,17292,4.12,91.3
1953,-1852,-672,17672,4.12,91.3
1957,-1212,-308,16936,4.12,91.3
1960,-1572,-804,17996,4.12,91.3
1963,-1248,-56,15940,4.12,91.3
1966,-1600,-436,17808,4.12,91.3
1969,-1360,-220,16704,4.12,91.3
1972,-1560,-284,17064,4.12,91.3
1975,-1348,-232,16700,4.12,91.3
1978,-1400,-312,17092,4.12,91.3
1984,-1460,-232,16896,4.12,91.3
1987,-1488,-192,16952,4.12,91.3
1990,-1832,-252,16376,4.12,91.3
1993,-1612,-300,16720,4.12,91.3
1996,-1508,-204,16720,4.12,91.3
1999,-1432,-232,16728,4.12,91.3
2002,-1200,-148,16792,4.12,91.3
2005,-792,-220,16632,4.12,91.3
2008,-684,-172,16796,4.12,91.3
2011,-364,-264,16876,4.12,91.3
2014,-56,-108,17140,4.12,91.3
2017,180,-280,17004,4.12,91.3
2021,396,-176,16896,4.12,91.3
2024,552,-132,17220,4.12,91.3
2027,640,-208,17140,4.12,91.3
2030,1040,-132,17256,4.12,91.3
2035,1668,-80,17196,4.12,91.3
2038,1780,-136,17796,4.12,91.3
2041,-1896,-1448,32767,4.12,91.3
2044,8712,-4240,23556,4.12,91.3
2048,-4588,1744,32767,4.12,91.3
2051,14340,4316,-1512,4.12,91.3
2054,5480,1192,4460,4.12,91.3
2057,7888,-1744,13464,4.12,91.3
2060,8160,-2644,17440,4.12,91.3
2063,-316,-1464,21964,4.12,91.3
2066,-188,584,18672,4.12,91.3
2069,424,-860,21048,4.12,91.3
2072,-816,-1320,22204,4.12,91.3
2075,540,28,18324,4.12,91.3
2078,3368,676,16872,4.12,91.3
2081,2876,304,16636,4.12,91.3
2084,4496,-80,16300,4.12,91.3
2090,864,528,18620,4.12,91.3
2093,2012,-380,17544,4.12,91.3
2096,1804,-696,19380,4.12,91.3
2099,416,-264,19584,4.12,91.3
2102,1692,-24,17132,4.12,91.3
2105,2152,-96,18064,4.12,91.3
2108,1512,-228,18204,4.12,91.3
2111,3136,-48,16572,4.12,91.3
2115,2204,0,17624,4.12,91.3
2118,1760,-200,17692,4.12,91.3
2121,2412,-236,17352,4.12,91.3
2124,1380,-96,18528,4.12,91.3
2127,1612,-368,18168,4.12,91.3
2130,2276,-220,17916,4.12,91.3
2133,1828,-52,17748,4.12,91.3
2136,2368,-200,17500,4.12,91.3
2139,2504,-160,17524,4.12,91.3
2144,2040,-52,17780,4.12,91.3
2148,2064,-160,17856,4.12,91.3
2151,1520,-28,18260,4.12,91.3
2154,2236,-188,17460,4.12,91.3
2157,1952,-44,18008,4.12,91.3
2160,1856,-116,17864,4.12,91.3
2163,2524,-104,17316,4.12,91.3
2166,2116,-20,18016,4.12,91.3
2169,1912,-52,17820,4.12,91.3
2172,2256,-104,17628,4.12,91.3
2175,1620,-128,18200,4.12,91.3
2178,1896,-80,17964,4.12,91.3
2182,1992,-216,18004,4.12,91.3
2185,1968,-92,18052,4.12,91.3
2188,2356,-160,17344,4.12,91.3
2191,2020,-112,17792,4.12,91.3
2196,2068,-96,17616,4.12,91.3
2199,2120,-160,17888,4.12,91.3
2202,1904,-56,17660,4.12,91.3
2205,2088,-124,17652,4.12,91.3
2208,2016,-176,17940,4.12,91.3
2211,1900,-164,17924,4.12,91.3
2214,2120,-140,17748,4.12,91.3
2217,1848,-120,17996,4.12,91.3
2220,2092,-96,17804,4.12,91.3
2224,1932,-136,17768,4.12,91.3
2227,1928,-108,17904,4.12,91.3
2230,2184,-124,17716,4.12,91.3
2233,2128,-96,17728,4.12,91.3
2236,2096,76,17752,4.12,91.3
2239,2116,20,17776,4.12,91.3
2242,2016,-28,17896,4.12,91.3
2245,2164,40,17640,4.12,91.3
2250,2408,216,17812,4.12,91.3
2253,2640,400,17704,4.12,91.3
2256,3044,492,17516,4.12,91.3
2259,3028,364,17648,4.12,91.3
2263,676,-1648,17892,4.12,91.3
2266,68,-1692,17624,4.12,91.3
2269,1740,-308,17700,4.12,91.3
2272,2604,-52,17016,4.12,91.3
2275,3580,304,17156,4.12,91.3
2278,2576,288,17460,4.12,91.3
2281,2928,-24,17468,4.12,91.3
2284,2608,-196,17380,4.12,91.3
2287,2408,-64,17492,4.12,91.3
2290,2332,-116,17660,4.12,91.3
2294,2240,-76,18004,4.12,91.3
2297,2264,180,18148,4.12,91.3
2300,2468,192,18260,4.12,91.3
2305,2004,76,18992,4.12,91.3
2308,1972,32,18500,4.12,91.3
2311,1304,-120,19496,4.12,91.3
2314,1044,-808,17944,4.12,91.3
2317,1288,-488,19592,4.12,91.3
2320,2308,-1268,18008,4.12,91.3
2323,2664,-412,17964,4.12,91.3
2326,2208,-320,18040,4.12,91.3
2330,1404,56,18328,4.12,91.3
2333,916,32,18436,4.12,91.3
2336,1676,24,18308,4.12,91.3
2339,1700,-128,18232,4.12,91.3
2342,1712,-288,18004,4.12,91.3
2345,1440,-388,17996,4.12,91.3
2348,1360,-304,17880,4.12,91.3
2351,1128,-208,17956,4.12,91.3
2354,1036,-224,17948,4.12,91.3
2360,720,-232,17656,4.12,91.3
2363,536,-252,17416,4.12,91.3
2366,568,-164,17740,4.12,91.3
2369,536,-256,17528,4.12,91.3
2372,460,-220,17596,4.12,91.3
2375,404,-204,17620,4.12,91.3
2378,272,-192,17440,4.12,91.3
2381,136,-176,17544,4.12,91.3
2384,136,-20,17492,4.12,91.3
2387,-20,-232,17484,4.12,91.3
2390,-68,-80,17480,4.12,91.3
2394,-88,-120,17676,4.12,91.3
2397,-116,-184,17584,4.12,91.3
2400,-12,-140,17608,4.12,91.3
2403,-68,-112,17636,4.12,91.3
2406,-272,-148,17524,4.12,91.3
2409,-180,-148,17584,4.12,91.3
2414,-324,-168,17620,4.12,91.3
2417,-640,-88,17632,4.12,91.3
2420,-544,-128,17576,4.12,91.3
2423,-780,-20,17456,4.12,91.3
2427,-720,-192,17340,4.12,91.3
2430,-836,-140,17468,4.12,91.3
2433,-836,-136,17444,4.12,91.3
2436,-960,-208,17400,4.12,91.3
2439,-1064,-204,17332,4.12,91.3
2442,-1128,-248,17344,4.12,91.3
2445,-1408,-160,17076,4.12,91.3
2448,-1500,-264,17056,4.12,91.3
2451,-1676,-108,17092,4.12,91.3
2455,-1772,-116,16920,4.12,91.3
2458,-2064,-292,16924,4.12,91.3
2461,-2132,-288,16788,4.12,91.3
2466,-2132,-372,16784,4.12,91.3
2469,-2132,-264,16740,4.12,91.3
2472,-2280,-432,16868,4.12,91.3
2475,-2400,-496,16788,4.12,91.3
2478,-2448,-536,16788,4.12,91.3
2481,-2340,-144,16912,4.12,91.3
2484,-2196,-124,16812,4.12,91.3
2487,-2088,-240,16912,4.12,91.3
2491,-2132,-228,16948,4.12,91.3
2494,-2064,-156,16932,4.12,91.3
2497,-2056,-176,17028,4.12,91.3
2500,-1940,-140,16884,4.12,91.3
2503,-1872,-148,16932,4.12,91.3
2506,-1772,-256,17020,4.12,91.3
2509,-1716,-204,16996,4.12,91.3
2512,-1668,-132,16984,4.12,91.3
2518,-1564,-124,17168,4.12,91.3
2521,-1560,-184,17240,4.12,91.3
2524,-1372,-224,17176,4.12,91.3
2527,-1256,-148,16992,4.12,91.3
2530,-1104,-244,17148,4.12,91.3
2533,-1056,-40,17040,4.12,91.3
2536,-1024,-120,17108,4.12,91.3
2539,-892,-28,17080,4.12,91.3
2542,-800,-64,17292,4.12,91.3
2545,-704,-96,17200,4.12,91.3
2548,-692,124,17064,4.12,91.3
2551,-432,84,17336,4.12,91.3
2554,-340,-148,17224,4.12,91.3
2558,-140,0,17168,4.12,91.3
2561,-28,-148,16952,4.12,91.3
2564,-16,-192,17116,4.12,91.3
2567,176,-244,17156,4.12,91.3
2572,300,-324,17240,4.12,91.3
2575,512,-248,17192,4.12,91.3
2578,532,-396,17168,4.12,91.3
2581,572,-488,17140,4.12,91.3
2585,804,-324,17104,4.12,91.3
2588,1028,-276,17320,4.12,91.3
2591,-28,-1256,24244,4.12,91.3
2594,2140,-5940,32767,4.12,91.3
2597,1612,1084,23912,4.12,91.3
2600,9620,6364,9512,4.12,91.3
2603,8968,1932,-6408,4.12,91.3
2606,8960,-1536,8540,4.12,91.3
2609,8272,-2344,10144,4.12,91.3
2612,880,-1660,27596,4.12,91.3
2615,1164,-640,19216,4.12,91.3
2618,-52,884,18144,4.12,91.3
2621,-2148,572,22908,4.12,91.3
2627,932,708,19052,4.12,91.3
2630,1096,660,17864,4.12,91.3
2633,3888,24,16368,4.12,91.3
2636,2988,-292,18052,4.12,91.3
2639,2940,-144,15028,4.12,91.3
2642,2900,284,17092,4.12,91.3
2645,1064,-144,19352,4.12,91.3
2648,1136,-440,19080,4.12,91.3
2652,2176,-168,17564,4.12,91.3
2655,1516,-72,18232,4.12,91.3
2658,2616,-244,17564,4.12,91.3
2661,2460,208,17476,4.12,91.3
2664,1916,-56,17676,4.12,91.3
2667,2476,-212,17308,4.12,91.3
2670,1840,-120,17940,4.12,91.3
2673,1452,-4,18252,4.12,91.3
2676,2296,-4,17788,4.12,91.3
2681,1832,-92,17924,4.12,91.3
2684,2452,-76,16764,4.12,91.3
2687,1764,40,18080,4.12,91.3
2690,1688,-72,17956,4.12,91.3
2694,2164,-100,17856,4.12,91.3
2697,1556,-24,17928,4.12,91.3
2700,1848,-64,18044,4.12,91.3
2703,2204,-184,17740,4.12,91.3
2706,1980,-268,18076,4.12,91.3
2709,2568,-308,17368,4.12,91.3
2712,2092,-184,17836,4.12,91.3
2715,2068,-108,17812,4.12,91.3
2718,2384,-280,17536,4.12,91.3
2721,1784,-44,18156,4.12,91.3
2724,2032,-220,17716,4.12,91.3
2727,2100,16,17772,4.12,91.3
2730,1840,-56,18152,4.12,91.3
2736,2204,-172,17872,4.12,91.3
2739,1956,-164,17816,4.12,91.3
2742,2064,-76,17732,4.12,91.3
2745,2048,-44,17852,4.12,91.3
2748,1920,-220,17816,4.12,91.3
2751,2152,-100,17748,4.12,91.3
2754,2040,-12,17824,4.12,91.3
2757,1908,-104,18056,4.12,91.3
2761,2164,-144,17844,4.12,91.3
2764,1948,-140,17996,4.12,91.3
2767,2072,-124,17748,4.12,91.3
2770,2188,-68,17584,4.12,91.3
2773,2452,32,17140,4.12,91.3
2776,3008,224,16972,4.12,91.3
2779,3332,388,17248,4.12,91.3
2782,3924,376,17408,4.12,91.3
2787,1596,-1480,18108,4.12,91.3
2791,-84,-612,16504,4.12,91.3
2794,2160,480,17576,4.12,91.3
2797,3744,92,16712,4.12,91.3
2800,3688,352,17164,4.12,91.3
2803,2736,-516,19252,4.12,91.3
2806,1704,-464,19516,4.12,91.3
2809,192,-328,19724,4.12,91.3
2812,260,-380,18516,4.12,91.3
2815,624,-484,18500,4.12,91.3
2818,1068,-428,18004,4.12,91.3
2821,1472,-436,18072,4.12,91.3
2824,1828,-388,18104,4.12,91.3
2827,1832,-464,17904,4.12,91.3
2831,1648,-160,17704,4.12,91.3
2834,1200,156,18096,4.12,91.3
2837,1044,284,17780,4.12,91.3
2842,1356,140,17800,4.12,91.3
2845,1444,16,17780,4.12,91.3
2848,1756,-72,17928,4.12,91.3
2851,1592,-48,17908,4.12,91.3
2854,1644,-168,18088,4.12,91.3
2857,1548,-92,17988,4.12,91.3
2860,1640,-88,17968,4.12,91.3
2863,1488,-124,17848,4.12,91.3
2867,1444,-184,17728,4.12,91.3
2870,1404,-200,17920,4.12,91.3
2873,1340,-200,17864,4.12,91.3
2876,1304,-104,17856,4.12,91.3
2879,1208,-172,17900,4.12,91.3
2882,1224,-228,17792,4.12,91.3
2885,1136,-184,17772,4.12,91.3
2888,1088,-124,17916,4.12,91.3
2891,1044,-244,17820,4.12,91.3
2897,876,-60,17844,4.12,91.3
2900,872,-72,17816,4.12,91.3
2903,912,-88,17876,4.12,91.3
2906,944,-20,17824,4.12,91.3
2909,716,-56,17760,4.12,91.3
2912,932,-28,18012,4.12,91.3
2915,648,-80,17768,4.12,91.3
2918,468,-148,17784,4.12,91.3
2921,452,-120,17744,4.12,91.3
2924,440,-208,17736,4.12,91.3
2927,316,-168,17680,4.12,91.3
2931,284,-380,17664,4.12,91.3
2934,68,-260,17788,4.12,91.3
2937,104,-324,17640,4.12,91.3
2940,-56,-256,17540,4.12,91.3
2943,-188,-208,17584,4.12,91.3
2946,-212,-364,17340,4.12,91.3
2951,-444,-384,17356,4.12,91.3
2954,-564,-188,17328,4.12,91.3
2957,-680,-252,17180,4.12,91.3
2960,-460,-232,17080,4.12,91.3
2964,-492,-164,17340,4.12,91.3
2967,-552,-200,17220,4.12,91.3
2970,-656,-268,17252,4.12,91.3
2973,-424,-168,17440,4.12,91.3
2976,-488,-196,17432,4.12,91.3
2979,-464,-168,17488,4.12,91.3
2982,-316,-264,17540,4.12,91.3
2985,-372,-216,17628,4.12,91.3
2988,-356,-156,17544,4.12,91.3
2991,-252,-164,17596,4.12,91.3
2995,-224,-152,17652,4.12,91.3
2998,-268,-216,17752,4.12,91.3
3001,-84,-124,17708,4.12,91.3
3006,-92,-64,17800,4.12,91.3
3009,-116,-112,17764,4.12,91.3
3012,-264,-40,17808,4.12,91.3
3015,-244,-4,17564,4.12,91.3
3018,-176,-108,17824,4.12,91.3
3021,-224,-116,17540,4.12,91.3
3024,-264,-36,17660,4.12,91.3
3027,-304,-148,17552,4.12,91.3
3031,-224,-176,17712,4.12,91.3
3034,-284,-148,17540,4.12,91.3
3037,-208,-96,17700,4.12,91.3
3040,-344,-144,17736,4.12,91.3
3043,-288,-76,17716,4.12,91.3
3046,-252,-112,17876,4.12,91.3
3049,-204,-100,17676,4.12,91.3
3052,-296,-188,17604,4.12,91.3
3055,-384,-32,17732,4.12,91.3
3060,-508,-132,17640,4.12,91.3
3064,-496,-208,17592,4.12,91.3
3067,-556,-188,17464,4.12,91.3
3070,-764,-200,17460,4.12,91.3
3073,-792,-336,17396,4.12,91.3
3076,-900,-288,17208,4.12,91.3
3079,-968,-344,17204,4.12,91.3
3082,-1172,-284,17132,4.12,91.3
3085,-1196,-392,17168,4.12,91.3
3088,-1288,-348,17088,4.12,91.3
3091,-1372,-372,17256,4.12,91.3
3094,-1400,-452,17232,4.12,91.3
3097,-1292,-296,17176,4.12,91.3
3101,-1184,-296,17260,4.12,91.3
3104,-996,-132,17196,4.12,91.3
3107,-840,-160,17520,4.12,91.3
3112,-604,-152,17596,4.12,91.3
3115,-580,-252,17552,4.12,91.3
3118,-436,-172,17572,4.12,91.3
3121,-328,-156,17708,4.12,91.3
3124,-356,-196,17816,4.12,91.3
3127,-188,-112,17896,4.12,91.3
3130,-180,-136,17868,4.12,91.3
3133,-220,-196,17984,4.12,91.3
3136,-180,-48,17888,4.12,91.3
3140,-192,-120,17904,4.12,91.3
3143,-172,-128,17764,4.12,91.3
3146,-240,-148,17940,4.12,91.3
3149,-364,-272,17680,4.12,91.3
3152,-260,-124,17644,4.12,91.3
3155,-300,-232,17460,4.12,91.3
3158,-500,-188,17512,4.12,91.3
3163,-556,-260,17524,4.12,91.3
3166,-660,-268,17500,4.12,91.3
3169,-644,-216,17632,4.12,91.3
3172,-720,-236,17448,4.12,91.3
3175,-688,-356,17492,4.12,91.3
3179,-808,-192,17568,4.12,91.3
3182,-696,-236,17492,4.12,91.3
3185,-680,-204,17532,4.12,91.3
3188,-644,-252,17500,4.12,91.3
3191,-616,-132,17444,4.12,91.3
3194,-596,-168,17452,4.12,91.3
3197,-556,-220,17456,4.12,91.3
3200,-536,-244,17524,4.12,91.3
3203,-564,-256,17492,4.12,91.3
3207,-516,-348,17516,4.12,91.3
3210,-388,-228,17620,4.12,91.3
3213,-460,-132,17492,4.12,91.3
3218,-464,-148,17516,4.12,91.3
3221,-444,-324,17404,4.12,91.3
3224,-644,-264,17400,4.12,91.3
3227,-660,-164,17336,4.12,91.3
3230,-684,-124,17316,4.12,91.3
3233,-672,-156,17328,4.12,91.3
3236,-604,-184,17260,4.12,91.3
3239,-644,-164,17180,4.12,91.3
3243,-520,-280,17168,4.12,91.3
3246,-552,-144,17352,4.12,91.3
3249,-368,-180,17628,4.12,91.3
3252,-212,-336,17488,4.12,91.3
3255,-168,-192,17440,4.12,91.3
3258,108,-148,17720,4.12,91.3
3261,260,-232,17560,4.12,91.3
3264,260,-80,17652,4.12,91.3
3267,304,-100,17688,4.12,91.3
3273,356,-152,17660,4.12,91.3
3276,424,-92,17852,4.12,91.3
3279,672,-32,17548,4.12,91.3
3282,616,-104,17512,4.12,91.3
3285,576,-88,17772,4.12,91.3
3288,780,-124,17516,4.12,91.3
3291,692,-200,17528,4.12,91.3
3294,648,-220,17584,4.12,91.3
3297,728,-164,17568,4.12,91.3
3300,660,-272,17484,4.12,91.3
3303,656,-120,17456,4.12,91.3
3306,720,-228,17208,4.12,91.3
3310,584,-96,17388,4.12,91.3
3313,796,-176,17388,4.12,91.3
3316,880,-272,17276,4.12,91.3
3319,892,-344,17336,4.12,91.3
3322,924,-260,17456,4.12,91.3
3327,592,-1988,32672,4.12,91.3
3330,4752,-2832,18484,4.12,91.3
3333,-48,3084,22600,4.12,91.3
3336,6132,1284,10088,4.12,91.3
3340,2060,816,21368,4.12,91.3
3343,7824,-1636,12164,4.12,91.3
3346,4304,60,16776,4.12,91.3
3349,2900,780,15396,4.12,91.3
3352,2228,-28,16616,4.12,91.3
3355,552,-496,20120,4.12,91.3
3358,1876,-1492,18488,4.12,91.3
3361,1624,-156,19220,4.12,91.3
3364,1284,-96,16612,4.12,91.3
3367,1916,-164,17532,4.12,91.3
3370,2320,-28,18096,4.12,91.3
3373,2664,164,17460,4.12,91.3
3377,3536,828,15360,4.12,91.3
3382,1596,-60,18260,4.12,91.3
3385,3128,-384,16116,4.12,91.3
3388,1040,116,19188,4.12,91.3
3391,516,568,19500,4.12,91.3
3394,1584,-92,17700,4.12,91.3
3397,1720,-436,18040,4.12,91.3
3400,2912,-240,16204,4.12,91.3
3403,2512,212,17820,4.12,91.3
3407,2368,44,17244,4.12,91.3
3410,2688,-276,17316,4.12,91.3
3413,1660,-260,18308,4.12,91.3
3416,1692,-68,18208,4.12,91.3
3419,1780,-48,18044,4.12,91.3
3422,1588,-200,18268,4.12,91.3
3425,2188,-292,17872,4.12,91.3
3428,2340,-60,17728,4.12,91.3
3434,2276,-128,17648,4.12,91.3
3437,1972,-152,17816,4.12,91.3
3440,1704,-100,18032,4.12,91.3
3443,1988,-180,17828,4.12,91.3
3446,1920,-116,17956,4.12,91.3
3449,1976,-192,17992,4.12,91.3
3452,2364,-208,17612,4.12,91.3
3455,2124,-112,17780,4.12,91.3
3458,2028,-104,17736,4.12,91.3
3461,2120,-176,17828,4.12,91.3
3464,1884,-192,18028,4.12,91.3
3467,1932,-140,18116,4.12,91.3
3470,2128,-144,17804,4.12,91.3
3474,2000,-116,17664,4.12,91.3
3477,2068,-164,17768,4.12,91.3
3480,2068,-128,17832,4.12,91.3
3483,1948,-120,17764,4.12,91.3
3488,1972,-96,17840,4.12,91.3
3491,1932,-124,17876,4.12,91.3
3494,2088,-156,17780,4.12,91.3
3497,1980,-160,17844,4.12,91.3
3501,1980,-116,17776,4.12,91.3
3504,2012,-176,17876,4.12,91.3
3507,1912,-176,17812,4.12,91.3
3510,2024,-80,17884,4.12,91.3
3513,2048,-148,17728,4.12,91.3
3516,2000,-64,17896,4.12,91.3
3519,2004,-140,17648,4.12,91.3
3522,2056,-48,17800,4.12,91.3
3525,2052,-108,17800,4.12,91.3
3528,2284,4,17608,4.12,91.3
3531,2380,12,17456,4.12,91.3
3534,2424,184,17356,4.12,91.3
3537,2344,260,17772,4.12,91.3
3543,2028,12,18048,4.12,91.3
3546,820,-1872,18028,4.12,91.3
3549,1932,-168,18092,4.12,91.3
3552,2128,-256,17652,4.12,91.3
3555,2444,-132,17900,4.12,91.3
3558,2632,8,17280,4.12,91.3
3561,2252,316,17320,4.12,91.3
3564,2024,12,17728,4.12,91.3
3567,1828,-84,17960,4.12,91.3
3570,2128,-24,17740,4.12,91.3
3573,2372,212,17576,4.12,91.3
3576,2480,88,17300,4.12,91.3
3579,2784,-12,17280,4.12,91.3
3583,2704,-64,17212,4.12,91.3
3586,3036,-12,16984,4.12,91.3
3589,2852,156,17360,4.12,91.3
3592,2412,-20,17880,4.12,91.3
3597,1220,-168,19580,4.12,91.3
3600,884,-108,19440,4.12,91.3
3603,976,-148,18068,4.12,91.3
3606,1068,-428,18600,4.12,91.3
3610,1416,-512,18212,4.12,91.3
3613,1476,-484,18396,4.12,91.3
3616,1768,-368,18396,4.12,91.3
3619,1840,-404,18120,4.12,91.3
3622,1908,-148,17944,4.12,91.3
3625,1872,-104,17928,4.12,91.3
3628,1824,-72,18048,4.12,91.3
3631,1600,-32,17976,4.12,91.3
3634,1636,-116,18028,4.12,91.3
3637,1584,-68,17980,4.12,91.3
3640,1660,-184,17832,4.12,91.3
3643,1360,-340,17720,4.12,91.3
3646,1252,-256,17856,4.12,91.3
3652,888,-176,17628,4.12,91.3
3655,844,-204,17500,4.12,91.3
3658,824,-208,17704,4.12,91.3
3661,700,-116,17620,4.12,91.3
3664,776,-256,17544,4.12,91.3
3667,776,-140,17624,4.12,91.3
3670,708,-220,17436,4.12,91.3
3673,724,-80,17484,4.12,91.3
3677,892,-228,17572,4.12,91.3
3680,848,-184,17732,4.12,91.3
3683,980,-44,17796,4.12,91.3
3686,1112,-124,17724,4.12,91.3
3689,920,-136,17904,4.12,91.3
3692,1136,-68,17944,4.12,91.3
3695,1032,-180,17792,4.12,91.3
3698,988,-144,17940,4.12,91.3
3701,932,-176,17812,4.12,91.3
3706,1024,-28,17932,4.12,91.3
3710,904,-152,17860,4.12,91.3
3713,864,-156,17816,4.12,91.3
3716,848,-196,17996,4.12,91.3
3719,908,-284,17824,4.12,91.3
3722,884,-268,17824,4.12,91.3
3725,804,-216,17876,4.12,91.3
3728,712,-204,17796,4.12,91.3
3731,712,-184,17736,4.12,91.3
3734,640,-168,17656,4.12,91.3
3737,568,-272,17684,4.12,91.3
3740,448,-168,17648,4.12,91.3
3743,488,-268,17604,4.12,91.3
3747,340,-180,17640,4.12,91.3
3750,296,-120,17620,4.12,91.3
3753,184,-184,17616,4.12,91.3
3756,40,-228,17340,4.12,91.3
3761,-112,-168,17332,4.12,91.3
3764,-88,-208,17356,4.12,91.3
3767,-220,-296,17308,4.12,91.3
3770,-204,-176,17328,4.12,91.3
3773,-328,-136,17220,4.12,91.3
3777,-376,-264,17376,4.12,91.3
3780,-348,-148,17216,4.12,91.3
3783,-336,-192,17132,4.12,91.3
3786,-456,-96,17236,4.12,91.3
3789,-320,-256,17132,4.12,91.3
3792,-304,-252,17228,4.12,91.3
3795,-312,-224,17164,4.12,91.3
3798,-72,-204,17280,4.12,91.3
3801,0,-248,17400,4.12,91.3
3804,-112,-248,17288,4.12,91.3
3807,-88,-236,17332,4.12,91.3
3813,20,-168,17120,4.12,91.3
3816,136,-96,17224,4.12,91.3
3819,156,-156,17244,4.12,91.3
3822,4,-448,16284,4.12,91.3
3825,-312,-108,17076,4.12,91.3
3828,32,-124,16584,4.12,91.3
3831,212,-240,16688,4.12,91.3
3834,320,-268,17260,4.12,91.3
3837,720,-304,17108,4.12,91.3
3840,1148,-352,17324,4.12,91.3
3844,568,-2412,32767,4.12,91.3
3847,6024,-3656,16556,4.12,91.3
3850,-480,4224,23116,4.12,91.3
3853,6416,1936,12720,4.12,91.3
3856,7272,1228,15396,4.12,91.3
3859,7340,-948,11104,4.12,91.3
3862,5528,-1092,17772,4.12,91.3
3867,1804,16,14644,4.12,91.3
3870,172,-492,21520,4.12,91.3
3873,1140,-1376,19356,4.12,91.3
3876,276,200,19580,4.12,91.3
3879,1640,220,17208,4.12,91.3
3883,2340,-356,18044,4.12,91.3
3886,3136,-300,17380,4.12,91.3
3889,3312,200,15904,4.12,91.3
3892,2292,212,16828,4.12,91.3
3895,2432,-436,17716,4.12,91.3
3898,1676,-328,18684,4.12,91.3
3901,1584,-160,18044,4.12,91.3
3904,2044,80,17536,4.12,91.3
3907,1800,-248,18024,4.12,91.3
3911,2256,-300,17524,4.12,91.3
3914,2360,-76,17400,4.12,91.3
3917,2012,-20,17616,4.12,91.3
3922,1888,-124,18136,4.12,91.3
3925,1784,-168,17960,4.12,91.3
3928,1940,-160,17916,4.12,91.3
3931,2084,-216,17740,4.12,91.3
3934,2036,-160,17672,4.12,91.3
3937,2212,-124,17448,4.12,91.3
3940,2040,-176,17768,4.12,91.3
3943,1980,-204,17804,4.12,91.3
3947,2064,-64,17560,4.12,91.3
3950,2048,-136,17892,4.12,91.3
3953,1920,-116,17876,4.12,91.3
3956,2040,-60,17688,4.12,91.3
3959,2000,-136,17820,4.12,91.3
3962,2060,-140,17768,4.12,91.3
3965,2064,-60,17900,4.12,91.3
3968,1984,-140,17804,4.12,91.3
3971,1908,-40,17756,4.12,91.3
3976,1900,-180,17956,4.12,91.3
3979,1940,-56,17788,4.12,91.3
3982,2020,-72,17740,4.12,91.3
3985,1980,-96,17884,4.12,91.3
3988,2068,-164,17756,4.12,91.3
3992,2040,-92,17776,4.12,91.3
3995,1900,-80,17748,4.12,91.3
3998,2020,-160,17600,4.12,91.3
4001,2048,-28,17760,4.12,91.3
4004,2300,-44,17384,4.12,91.3
4007,2784,108,17040,4.12,91.3
4010,2744,224,17264,4.12,91.3
4013,2872,268,17516,4.12,91.3
4016,3484,148,17936,4.12,91.3
4019,4200,40,18064,4.12,91.3
4022,1920,-1892,15348,4.12,91.3
4025,-620,-620,17308,4.12,91.3
4031,3008,100,17840,4.12,91.3
4034,2500,-296,18500,4.12,91.3
4037,1908,-172,18656,4.12,91.3
4040,232,-44,19604,4.12,91.3
4043,64,-208,18324,4.12,91.3
4046,44,-212,18496,4.12,91.3
4049,1024,-464,18152,4.12,91.3
4052,1624,-328,17924,4.12,91.3
4055,1904,-148,17864,4.12,91.3
4059,1740,-116,17816,4.12,91.3
4062,1928,-92,17908,4.12,91.3
4065,1740,-176,17956,4.12,91.3
4068,1696,-132,17840,4.12,91.3
4071,1584,-140,17868,4.12,91.3
4074,1752,-136,18232,4.12,91.3
4077,1956,-204,18364,4.12,91.3
4080,2036,-264,17912,4.12,91.3
4085,1872,-108,18032,4.12,91.3
4089,1984,-164,18132,4.12,91.3
4092,1852,-96,17948,4.12,91.3
4095,1784,-20,18064,4.12,91.3
4098,1768,-156,18036,4.12,91.3
4101,1864,-152,18036,4.12,91.3
4104,1848,-124,18136,4.12,91.3
4107,1792,-72,18116,4.12,91.3
4110,1704,-136,18032,4.12,91.3
4113,1680,-96,17912,4.12,91.3
4116,1612,-176,18096,4.12,91.3
4119,1460,-120,17936,4.12,91.3
4123,1376,-116,18028,4.12,91.3
4126,1376,-12,17992,4.12,91.3
4129,1368,28,17708,4.12,91.3
4132,1356,24,17636,4.12,91.3
4137,1292,-104,17660,4.12,91.3
4140,1036,-148,17604,4.12,91.3
4143,1008,-248,17772,4.12,91.3
4146,1000,-188,17536,4.12,91.3
4149,792,-172,17380,4.12,91.3
4153,512,-164,17344,4.12,91.3
4156,376,-140,17340,4.12,91.3
4159,296,-184,17332,4.12,91.3
4162,32,-164,17396,4.12,91.3
4165,48,-200,17544,4.12,91.3
4168,48,-196,17428,4.12,91.3
4171,-76,-280,17284,4.12,91.3
4174,-112,-240,17304,4.12,91.3
4177,-232,-264,17348,4.12,91.3
4180,-140,-212,17356,4.12,91.3
4183,-168,-324,17480,4.12,91.3
4186,-148,-236,17364,4.12,91.3
4192,8,-288,17436,4.12,91.3
4195,104,-4,17484,4.12,91.3
4198,112,-148,17640,4.12,91.3
4201,204,-92,17384,4.12,91.3
4204,136,-128,17548,4.12,91.3
4207,128,-72,17460,4.12,91.3
4210,68,-144,17260,4.12,91.3
4213,112,-72,17396,4.12,91.3
4216,28,-84,17376,4.12,91.3
4219,-52,-140,17252,4.12,91.3
4223,-32,-172,17424,4.12,91.3
4226,-40,-88,17140,4.12,91.3
4229,72,-56,17116,4.12,91.3
4232,-16,-280,17396,4.12,91.3
4235,176,-180,17268,4.12,91.3
4238,392,-112,17172,4.12,91.3
4241,260,-176,17412,4.12,91.3
4244,104,-444,17040,4.12,91.3
4249,372,-116,16740,4.12,91.3
4253,588,-128,17012,4.12,91.3
4256,852,-28,17268,4.12,91.3
4259,852,-252,17688,4.12,91.3
4262,1012,-460,18472,4.12,91.3
4265,1892,-2024,32767,4.12,91.3
4268,3656,-1336,15760,4.12,91.3
4271,-3816,1692,25188,4.12,91.3
4274,5040,2524,16244,4.12,91.3
4277,11672,2584,19916,4.12,91.3
4280,5968,-1196,6352,4.12,91.3
4283,8860,-1280,3224,4.12,91.3
4287,4140,-208,12228,4.12,91.3
4290,5316,-1108,14904,4.12,91.3
4293,-1420,-12,32767,4.12,91.3
4296,-1776,1196,17224,4.12,91.3
4301,2256,-1300,18148,4.12,91.3
4304,1800,-1072,14856,4.12,91.3
4307,208,-96,22868,4.12,91.3
4310,5284,540,13864,4.12,91.3
4313,2856,844,16224,4.12,91.3
4317,2668,-300,16128,4.12,91.3
4320,4416,-784,16284,4.12,91.3
4323,476,-24,20796,4.12,91.3
4326,928,280,17224,4.12,91.3
4329,1704,-272,18996,4.12,91.3
4332,880,-524,18528,4.12,91.3
4335,2844,-140,17076,4.12,91.3
4338,2856,380,16632,4.12,91.3
4341,1836,-160,17752,4.12,91.3
4344,3044,-424,16832,4.12,91.3
4347,1992,136,17596,4.12,91.3
4350,940,-108,18668,4.12,91.3
4356,2052,-24,18108,4.12,91.3
4359,1600,-184,17864,4.12,91.3
4362,2708,-60,16696,4.12,91.3
4365,2132,28,17776,4.12,91.3
4368,1872,-192,17904,4.12,91.3
4371,2332,4,17348,4.12,91.3
4374,1688,-176,18148,4.12,91.3
4377,1980,-160,17696,4.12,91.3
4380,2336,-72,17716,4.12,91.3
4383,1696,-192,18188,4.12,91.3
4386,2200,-236,17680,4.12,91.3
4389,2324,-72,17344,4.12,91.3
4392,1672,-208,17900,4.12,91.3
4396,2156,-144,17632,4.12,91.3
4399,2016,-120,17904,4.12,91.3
4402,1832,-180,17852,4.12,91.3
4405,2252,-60,17592,4.12,91.3
4410,1816,-216,17960,4.12,91.3
4413,2340,-128,17592,4.12,91.3
4416,1944,-100,17856,4.12,91.3
4419,1860,-212,17904,4.12,91.3
4422,2252,-164,17732,4.12,91.3
4425,1888,-208,17860,4.12,91.3
4428,1956,-52,17748,4.12,91.3
4431,2272,-24,17484,4.12,91.3
4435,1948,-240,17880,4.12,91.3
4438,2240,-112,17588,4.12,91.3
4441,2612,-36,17280,4.12,91.3
4444,2316,196,17468,4.12,91.3
4447,2540,88,17752,4.12,91.3
4450,2596,-80,17956,4.12,91.3
4453,2564,-84,18320,4.12,91.3
4456,2556,-20,18184,4.12,91.3
4459,2100,-8,18060,4.12,91.3
4464,2024,172,18044,4.12,91.3
4468,1984,156,17972,4.12,91.3
4471,1816,-248,17196,4.12,91.3
4474,-780,-1924,16152,4.12,91.3
4477,2452,-476,18808,4.12,91.3
4480,2040,-256,17760,4.12,91.3
4483,1668,-636,18612,4.12,91.3
4486,2020,-392,17364,4.12,91.3
4489,2228,-76,17592,4.12,91.3
4492,2164,-52,17396,4.12,91.3
4495,2412,-100,17540,4.12,91.3
4498,2804,228,17436,4.12,91.3
4502,2824,356,17444,4.12,91.3
4505,2928,188,17464,4.12,91.3
4508,2712,-72,17380,4.12,91.3
4511,2376,-48,17348,4.12,91.3
4514,2232,20,17616,4.12,91.3
4519,1096,8,18604,4.12,91.3
4522,792,-52,18620,4.12,91.3
4525,816,-264,18616,4.12,91.3
4528,940,-300,17952,4.12,91.3
4531,1552,-416,18264,4.12,91.3
4535,1484,-152,18072,4.12,91.3
4538,1704,-84,17888,4.12,91.3
4541,1596,-176,17832,4.12,91.3
4544,1792,-268,17900,4.12,91.3
4547,1592,-232,17928,4.12,91.3
4550,1672,-176,18004,4.12,91.3
4553,1708,-224,18192,4.12,91.3
4556,1888,-284,18128,4.12,91.3
4559,1952,-296,18184,4.12,91.3
4562,1872,-224,17956,4.12,91.3
4565,1944,-128,17848,4.12,91.3
4571,1732,-220,17932,4.12,91.3
4574,1524,-264,17948,4.12,91.3
4577,1556,-140,17676,4.12,91.3
4580,1364,-164,17716,4.12,91.3
4583,1212,-184,17780,4.12,91.3
4586,1184,-188,17596,4.12,91.3
4589,1080,-216,17612,4.12,91.3
4592,1016,-112,17572,4.12,91.3
4595,1060,-232,17708,4.12,91.3
4599,1056,-176,17612,4.12,91.3
4602,1100,-228,17712,4.12,91.3
4605,1144,-132,17576,4.12,91.3
4608,1060,-120,17608,4.12,91.3
4611,1132,-144,17656,4.12,91.3
4614,1176,-248,17976,4.12,91.3
4617,1240,-128,17840,4.12,91.3
4620,1192,-188,17768,4.12,91.3
4625,1148,-164,17624,4.12,91.3
4629,1204,-204,17740,4.12,91.3
4632,1108,-144,17764,4.12,91.3
4635,1136,-160,17968,4.12,91.3
4638,1184,-240,17740,4.12,91.3
4641,1232,-144,17768,4.12,91.3
4644,1140,-244,17756,4.12,91.3
4647,1144,-116,17732,4.12,91.3
4650,1108,-136,17844,4.12,91.3
4653,1112,-228,17664,4.12,91.3
4656,1056,-176,17688,4.12,91.3
4659,1044,-184,17792,4.12,91.3
4663,956,-192,17760,4.12,91.3
4666,752,-224,17624,4.12,91.3
4669,812,-92,17500,4.12,91.3
4672,704,-184,17716,4.12,91.3
4675,784,-204,17608,4.12,91.3
4680,688,-244,17700,4.12,91.3
4683,812,-120,17520,4.12,91.3
4686,736,-188,17568,4.12,91.3
4689,712,-208,17564,4.12,91.3
4692,744,-248,17532,4.12,91.3
4696,740,-240,17276,4.12,91.3
4699,712,-224,17512,4.12,91.3
4702,692,-44,17488,4.12,91.3
4705,768,-192,17576,4.12,91.3
4708,852,-232,17548,4.12,91.3
4711,884,-292,17536,4.12,91.3
4714,948,-248,17472,4.12,91.3
4717,956,-192,17592,4.12,91.3
4720,1012,-128,17676,4.12,91.3
4723,1120,-84,17788,4.12,91.3
4726,1248,-236,17548,4.12,91.3
4729,1228,-248,17772,4.12,91.3
4735,1420,-168,17836,4.12,91.3
4738,1460,-208,17960,4.12,91.3
4741,1440,-160,17916,4.12,91.3
4744,1616,-168,17944,4.12,91.3
4747,1560,-116,17948,4.12,91.3
4750,1608,-72,17856,4.12,91.3
4753,1572,64,17796,4.12,91.3
4756,1728,-100,17900,4.12,91.3
4759,1728,-272,18032,4.12,91.3
4763,1812,-156,18028,4.12,91.3
4766,1840,-164,17940,4.12,91.3
4769,1836,-224,17912,4.12,91.3
4772,2200,-420,18296,4.12,91.3
4775,2184,-288,18348,4.12,91.3
4778,2136,64,17968,4.12,91.3
4781,1884,60,17828,4.12,91.3
4786,1740,-280,17864,4.12,91.3
4789,1616,-204,17992,4.12,91.3
4792,1444,-176,17772,4.12,91.3
4795,1392,-272,17840,4.12,91.3
4799,1496,-168,17672,4.12,91.3
4802,1300,-236,17752,4.12,91.3
4805,1312,-256,17756,4.12,91.3
4808,1288,-252,17688,4.12,91.3
4811,1292,-152,17692,4.12,91.3
4814,1272,-316,17964,4.12,91.3
4817,820,-632,17576,4.12,91.3
4820,560,-516,18384,4.12,91.3
4823,1100,-116,18772,4.12,91.3
4826,1652,-24,18436,4.12,91.3
4829,-1136,-624,20828,4.12,91.3
4832,-1260,0,20172,4.12,91.3
4835,-1748,388,22016,4.12,91.3
4841,3108,-264,20132,4.12,91.3
4844,7968,932,12740,4.12,91.3
4847,6364,1312,8936,4.12,91.3
4850,6232,-468,6964,4.12,91.3
4853,5676,-428,16868,4.12,91.3
4856,604,-920,24260,4.12,91.3
4859,-660,788,20420,4.12,91.3
4862,-2324,320,21368,4.12,91.3
4865,76,-1224,18924,4.12,91.3
4868,1872,-848,17208,4.12,91.3
4871,1196,444,19644,4.12,91.3
4874,3332,260,16528,4.12,91.3
4877,4436,148,15884,4.12,91.3
4881,2972,-28,16188,4.12,91.3
4884,2940,-160,16404,4.12,91.3
4887,1676,-32,18820,4.12,91.3
4890,392,-152,19328,4.12,91.3
4895,1532,-128,18480,4.12,91.3
4898,1596,-240,17908,4.12,91.3
4901,2700,-124,17148,4.12,91.3
4904,2604,184,17248,4.12,91.3
4908,2208,-192,17624,4.12,91.3
4911,2388,-92,17176,4.12,91.3
4914,1632,-136,17960,4.12,91.3
4917,1524,-164,18300,4.12,91.3
4920,2104,-148,18084,4.12,91.3
4923,1896,-160,17908,4.12,91.3
4926,2316,-52,17248,4.12,91.3
4929,2276,-160,17564,4.12,91.3
4932,1756,-184,18172,4.12,91.3
4935,2124,-124,17732,4.12,91.3
4938,2020,-216,17952,4.12,91.3
4941,1804,-164,17808,4.12,91.3
4944,2188,-80,17636,4.12,91.3
4950,1948,-160,18052,4.12,91.3
4953,2288,-160,17500,4.12,91.3
4956,2084,-148,17784,4.12,91.3
4959,1968,-176,17732,4.12,91.3
4962,2140,-228,17808,4.12,91.3
4965,1864,-184,18168,4.12,91.3
4968,2164,-8,17664,4.12,91.3
4971,2368,-176,17532,4.12,91.3
4975,2028,-68,17700,4.12,91.3
4978,2456,-56,17432,4.12,91.3
4981,2784,172,17200,4.12,91.3
4984,2760,424,17308,4.12,91.3
4987,2280,-1156,17140,4.12,91.3
4990,1392,-1036,16964,4.12,91.3
4993,2188,-464,17636,4.12,91.3
4996,2412,-60,17480,4.12,91.3
5002,3180,132,17492,4.12,91.3
5005,2828,264,17548,4.12,91.3
5008,1756,188,17984,4.12,91.3
5011,852,-28,18804,4.12,91.3
5014,624,-12,18828,4.12,91.3
5017,624,-84,18304,4.12,91.3
5020,1380,-448,18112,4.12,91.3
5023,1940,-544,18160,4.12,91.3
5026,1696,-560,18048,4.12,91.3
5029,1616,-168,17956,4.12,91.3
5032,1632,-192,18064,4.12,91.3
5035,1460,-204,18020,4.12,91.3
5038,1604,-372,17892,4.12,91.3
5042,1432,-200,17900,4.12,91.3
5045,1416,-28,17764,4.12,91.3
5048,1720,-40,17636,4.12,91.3
5051,1712,-156,17748,4.12,91.3
5056,1788,-68,17924,4.12,91.3
5059,1680,-152,17876,4.12,91.3
5062,1696,-120,17940,4.12,91.3
5065,1832,-188,18060,4.12,91.3
5069,1948,-220,18228,4.12,91.3
5072,2024,-92,18172,4.12,91.3
5075,2152,-116,18032,4.12,91.3
5078,2048,-124,18136,4.12,91.3
5081,1988,-160,18100,4.12,91.3
5084,1760,-164,17904,4.12,91.3
5087,1756,-160,17928,4.12,91.3
5090,1768,-224,17916,4.12,91.3
5093,1664,-168,18004,4.12,91.3
5096,1572,-264,17916,4.12,91.3
5099,1512,-280,17876,4.12,91.3
5102,1608,-44,17892,4.12,91.3
5105,1564,-112,17840,4.12,91.3
5111,1416,-156,17856,4.12,91.3
5114,1328,-88,17796,4.12,91.3
5117,1260,-244,17628,4.12,91.3
5120,1144,-132,17704,4.12,91.3
5123,1060,-116,17776,4.12,91.3
5126,1016,-172,17636,4.12,91.3
5129,844,-124,17676,4.12,91.3
5132,684,-132,17460,4.12,91.3
5136,592,-52,17436,4.12,91.3
5139,540,-124,17376,4.12,91.3
5142,460,-200,17484,4.12,91.3
5145,332,-176,17260,4.12,91.3
5148,324,-204,17400,4.12,91.3
5151,116,-160,17376,4.12,91.3
5154,108,-148,17468,4.12,91.3
5157,-92,-208,17360,4.12,91.3
5160,-4,-192,17516,4.12,91.3
5166,268,-184,17312,4.12,91.3
5169,240,-204,17332,4.12,91.3
5172,220,-144,17420,4.12,91.3
5175,248,-176,17544,4.12,91.3
5178,284,-160,17408,4.12,91.3
5181,304,-80,17400,4.12,91.3
5184,264,-156,17276,4.12,91.3
5187,308,-132,17340,4.12,91.3
5190,328,-212,17448,4.12,91.3
5193,300,-152,17440,4.12,91.3
5196,300,-144,17348,4.12,91.3
5199,276,-88,17384,4.12,91.3
5202,380,-176,17268,4.12,91.3
5206,408,-364,17352,4.12,91.3
5209,432,-104,17244,4.12,91.3
5212,408,-188,17188,4.12,91.3
5215,-72,-548,16164,4.12,91.3
5221,-1160,-784,14300,4.12,91.3
5224,-4792,-628,31048,4.12,91.3
5227,-7136,-4160,32767,4.12,91.3
5230,17784,5692,5300,4.12,91.3
5233,-380,740,-160,4.12,91.3
5236,7272,-484,-9096,4.12,91.3
5239,9416,-588,1420,4.12,91.3
5242,1360,-116,14084,4.12,91.3
5246,9728,-2312,12904,4.12,91.3
5249,10588,-3284,31788,4.12,91.3
5252,-7460,3616,32767,4.12,91.3
5255,732,-1144,7936,4.12,91.3
5258,-1884,1980,21056,4.12,91.3
5261,-1992,584,25396,4.12,91.3
5264,3472,-3268,17224,4.12,91.3
5267,4440,-56,15888,4.12,91.3
5272,5324,836,11308,4.12,91.3
5275,3324,792,15488,4.12,91.3
5278,1324,72,20232,4.12,91.3
5281,3664,-1604,17088,4.12,91.3
5285,592,-576,20940,4.12,91.3
5288,380,260,17876,4.12,91.3
5291,1504,548,18488,4.12,91.3
5294,1784,-316,18924,4.12,91.3
5297,3228,-548,16136,4.12,91.3
5300,3132,416,15524,4.12,91.3
5303,1916,-172,17932,4.12,91.3
5306,1820,-220,18836,4.12,91.3
5309,1804,-232,18216,4.12,91.3
5312,1580,-232,18432,4.12,91.3
5315,2352,-212,16800,4.12,91.3
5318,2012,-124,17584,4.12,91.3
5321,2176,-260,17720,4.12,91.3
5327,1984,-28,17896,4.12,91.3
5330,1976,-56,17712,4.12,91.3
5333,1668,-104,17656,4.12,91.3
5336,1524,-96,18588,4.12,91.3
5339,2212,-180,17756,4.12,91.3
5342,2500,20,17448,4.12,91.3
5345,2756,-80,16708,4.12,91.3
5348,2524,-80,17104,4.12,91.3
5352,1832,-28,17952,4.12,91.3
5355,1356,-124,18044,4.12,91.3
5358,1748,-216,18148,4.12,91.3
5361,1752,-180,17996,4.12,91.3
5364,1972,-44,17764,4.12,91.3
5367,2616,-112,17388,4.12,91.3
5370,2136,24,17792,4.12,91.3
5373,2204,100,17484,4.12,91.3
5376,2440,92,17508,4.12,91.3
5382,804,-976,17788,4.12,91.3
5385,992,-672,19600,4.12,91.3
5388,960,-1140,17504,4.12,91.3
5391,2208,-644,16540,4.12,91.3
5394,4772,268,16968,4.12,91.3
5397,4292,1224,17212,4.12,91.3
5400,3868,476,16808,4.12,91.3
5403,3632,100,17672,4.12,91.3
5406,3060,88,17716,4.12,91.3
5409,2212,40,17980,4.12,91.3
5412,2080,-236,18196,4.12,91.3
5415,1432,-340,18668,4.12,91.3
5418,1068,-140,18988,4.12,91.3
5422,856,100,19860,4.12,91.3
5425,836,120,18716,4.12,91.3
5428,664,-532,18972,4.12,91.3
5431,1368,-860,18440,4.12,91.3
5436,1824,-132,17872,4.12,91.3
5439,1476,68,17848,4.12,91.3
5442,940,88,18044,4.12,91.3
5445,1248,-128,17320,4.12,91.3
5449,1220,-180,17488,4.12,91.3
5452,1064,-324,17768,4.12,91.3
5455,1272,-272,17620,4.12,91.3
5458,1168,-220,17652,4.12,91.3
5461,928,-160,17912,4.12,91.3
5464,1096,-208,17632,4.12,91.3
5467,1132,-120,17732,4.12,91.3
5470,1100,-216,17848,4.12,91.3
5473,952,-180,17844,4.12,91.3
5476,1208,-224,17888,4.12,91.3
5479,1084,-176,17984,4.12,91.3
5482,856,-244,17560,4.12,91.3
5485,880,-124,17612,4.12,91.3
5491,592,-140,17560,4.12,91.3
5494,604,-160,17540,4.12,91.3
5497,624,-264,17720,4.12,91.3
5500,512,-188,17420,4.12,91.3
5503,660,-140,17568,4.12,91.3
5506,676,-180,17676,4.12,91.3
5509,564,-244,17568,4.12,91.3
5512,592,-352,17240,4.12,91.3
5516,492,-212,17332,4.12,91.3
5519,180,-172,17428,4.12,91.3
5522,244,-140,17332,4.12,91.3
5525,220,-280,17440,4.12,91.3
5528,192,-220,17268,4.12,91.3
5531,220,-300,17364,4.12,91.3
5534,156,-160,17500,4.12,91.3
5537,56,-120,17328,4.12,91.3
5540,72,-204,17260,4.12,91.3
5545,104,-32,17300,4.12,91.3
5549,196,-12,17340,4.12,91.3
5552,384,-84,17416,4.12,91.3
5555,280,-96,17252,4.12,91.3
5558,404,-84,17212,4.12,91.3
5561,496,-128,17380,4.12,91.3
5564,552,-136,17488,4.12,91.3
5567,704,-456,17424,4.12,91.3
5570,780,-552,17536,4.12,91.3
5573,644,-380,17520,4.12,91.3
5576,588,-364,17320,4.12,91.3
5579,-3248,-1568,17244,4.12,91.3
5582,-1732,-212,13200,4.12,91.3
5586,-2580,-24,15500,4.12,91.3
5589,-3344,-956,22392,4.12,91.3
5592,-7424,-6400,32767,4.12,91.3
5595,6704,3996,21708,4.12,91.3
5600,5088,-196,-3112,4.12,91.3
5603,10776,-604,3392,4.12,91.3
5606,1628,-1008,10576,4.12,91.3
5609,8824,-2428,8492,4.12,91.3
5612,12644,-4204,25360,4.12,91.3
5616,-6620,948,32767,4.12,91.3
5619,1244,-460,5352,4.12,91.3
5622,-380,992,17352,4.12,91.3
5625,-1824,784,17396,4.12,91.3
5628,3116,-2912,23468,4.12,91.3
5631,4528,-1552,13368,4.12,91.3
5634,2876,992,17700,4.12,91.3
5637,5188,972,11124,4.12,91.3
5640,1944,916,16664,4.12,91.3
5643,1460,192,19256,4.12,91.3
5646,3668,-1676,17168,4.12,91.3
5652,-340,-84,19608,4.12,91.3
5655,2040,720,17268,4.12,91.3
5658,1016,-68,20072,4.12,91.3
5661,2596,-536,17284,4.12,91.3
5664,3892,200,15100,4.12,91.3
5667,1580,48,18128,4.12,91.3
5670,1992,-148,18052,4.12,91.3
5673,1816,-248,18436,4.12,91.3
5676,1208,-120,18288,4.12,91.3
5679,2444,-212,16780,4.12,91.3
5682,2012,32,17192,4.12,91.3
5685,1732,-272,17688,4.12,91.3
5688,2348,-160,17892,4.12,91.3
5692,2188,64,18044,4.12,91.3
5695,2012,-168,17632,4.12,91.3
5698,2324,-44,17068,4.12,91.3
5701,1640,-168,18340,4.12,91.3
5706,2100,-128,17816,4.12,91.3
5709,2080,16,17560,4.12,91.3
5712,2212,-140,17568,4.12,91.3
5715,2224,-68,17680,4.12,91.3
5718,1836,-48,17808,4.12,91.3
5721,2068,-116,17716,4.12,91.3
5724,1948,-144,17872,4.12,91.3
5727,1724,-232,18200,4.12,91.3
5731,2136,-140,17648,4.12,91.3
5734,2172,-48,17748,4.12,91.3
5737,1784,-176,17904,4.12,91.3
5740,2172,-60,17696,4.12,91.3
5743,1996,-180,17948,4.12,91.3
5746,2004,-28,17672,4.12,91.3
5749,2228,-144,17736,4.12,91.3
5752,1848,-76,18100,4.12,91.3
5755,2048,-176,17784,4.12,91.3
5761,1912,-212,17944,4.12,91.3
5764,1908,-140,17944,4.12,91.3
5767,2176,-60,17640,4.12,91.3
5770,1932,-120,17896,4.12,91.3
5773,1916,-104,17920,4.12,91.3
5776,2000,-168,17788,4.12,91.3
5779,2000,-148,17916,4.12,91.3
5782,2224,-108,17572,4.12,91.3
5785,2040,-136,17788,4.12,91.3
5788,1948,-36,17696,4.12,91.3
5791,2116,-200,17704,4.12,91.3
5794,2084,-116,17756,4.12,91.3
5798,2024,-64,17744,4.12,91.3
5801,1988,-56,17972,4.12,91.3
5804,2028,-128,17856,4.12,91.3
5807,1976,-128,17756,4.12,91.3
5812,1952,-208,17912,4.12,91.3
5815,1988,-112,17760,4.12,91.3
5818,1960,-148,17884,4.12,91.3
5821,2016,-128,17728,4.12,91.3
5824,2044,-124,17864,4.12,91.3
5828,1992,-124,17932,4.12,91.3
5831,2016,-112,17728,4.12,91.3
5834,2012,-84,17624,4.12,91.3
5837,1932,-156,17804,4.12,91.3
5840,1912,-80,17828,4.12,91.3
5843,2020,-40,17868,4.12,91.3
5846,1824,-176,17928,4.12,91.3
5849,2092,-140,17668,4.12,91.3
5852,2104,-148,17564,4.12,91.3
5855,1808,-144,17748,4.12,91.3
5858,1964,-208,17860,4.12,91.3
5861,1964,-144,17852,4.12,91.3
5867,2000,-228,17716,4.12,91.3
5870,2056,-148,17788,4.12,91.3
5873,2000,-196,17784,4.12,91.3
5876,1980,-184,17876,4.12,91.3
5879,2040,-136,17952,4.12,91.3
5882,2024,-88,17752,4.12,91.3
5885,2108,-248,17864,4.12,91.3
5888,2064,-112,17792,4.12,91.3
5892,2032,-124,17868,4.12,91.3
5895,2008,-148,17888,4.12,91.3
5898,2080,-140,17832,4.12,91.3
5901,2116,-88,18008,4.12,91.3
5904,2036,-112,17808,4.12,91.3
5907,2020,-132,17716,4.12,91.3
5910,2028,-220,17804,4.12,91.3
5913,2112,-152,17752,4.12,91.3
5916,2132,-164,17692,4.12,91.3
5921,2016,-160,17852,4.12,91.3
5925,2032,-152,17668,4.12,91.3
5928,2000,-116,17904,4.12,91.3
5931,2024,-60,17812,4.12,91.3
5934,2080,-36,17632,4.12,91.3
5937,2136,-32,17800,4.12,91.3
5940,2044,24,17784,4.12,91.3
5943,2068,-116,17760,4.12,91.3
5946,1996,-32,17928,4.12,91.3
5949,1976,-156,17892,4.12,91.3
5952,2032,-108,17636,4.12,91.3
5955,1896,-132,17924,4.12,91.3
5959,1972,-200,17828,4.12,91.3
5962,2176,-20,17720,4.12,91.3
5965,2052,-52,17796,4.12,91.3
5968,1972,-140,17792,4.12,91.3
5973,2020,-160,17732,4.12,91.3
5976,2012,-168,17816,4.12,91.3
5979,2056,-88,17712,4.12,91.3
5982,1940,-188,17920,4.12,91.3
5985,2112,-108,17668,4.12,91.3
5988,2092,-188,17804,4.12,91.3
5992,2028,-148,17796,4.12,91.3
5995,1972,-208,17672,4.12,91.3
5998,2068,-152,17772,4.12,91.3
6001,2016,-128,17760,4.12,91.3
6004,1956,-220,17840,4.12,91.3
6007,1892,-120,17692,4.12,91.3
6010,2120,-96,17880,4.12,91.3
6013,2072,-84,17540,4.12,91.3
6016,1984,-172,17764,4.12,91.3
6019,1988,-64,17736,4.12,91.3
6022,1948,-64,17760,4.12,91.3
6028,2104,-40,17580,4.12,91.3
6031,1976,-20,18148,4.12,91.3
6034,2124,-68,17564,4.12,91.3
6037,2088,-48,17776,4.12,91.3
6040,1960,-104,17724,4.12,91.3
6043,2028,80,17812,4.12,91.3
6046,1920,-160,17844,4.12,91.3
6049,1932,-96,17664,4.12,91.3
6052,2036,-124,17924,4.12,91.3
6056,2016,-96,17716,4.12,91.3
6059,1984,-40,17904,4.12,91.3
6062,2000,-52,18000,4.12,91.3
6065,2000,-56,17684,4.12,91.3
6068,2008,12,17848,4.12,91.3
6071,1908,52,17728,4.12,91.3
6074,1936,-88,18124,4.12,91.3
6077,2016,-12,17776,4.12,91.3
6082,2168,-128,17676,4.12,91.3
6085,1924,8,18040,4.12,91.3
6088,1928,-100,17840,4.12,91.3
6091,1984,-88,17912,4.12,91.3
6095,2036,-192,17700,4.12,91.3
6098,1968,-176,17860,4.12,91.3
6101,1948,-76,17816,4.12,91.3
6104,2080,-80,17756,4.12,91.3
6107,2064,-108,17728,4.12,91.3
6110,1952,-64,17776,4.12,91.3
6113,1956,-200,17848,4.12,91.3
6116,2144,-192,17796,4.12,91.3
6119,2152,-196,17868,4.12,91.3
6122,2168,-188,17696,4.12,91.3
6125,2204,-296,17812,4.12,91.3
6129,2056,-140,17860,4.12,91.3
6132,2072,-148,17804,4.12,91.3
6137,2092,-180,17716,4.12,91.3
6140,2180,-184,17916,4.12,91.3
6143,2048,-176,17836,4.12,91.3
6146,2052,-144,17748,4.12,91.3
6149,2076,48,17664,4.12,91.3
6152,2084,-124,17968,4.12,91.3
6155,1948,-160,18148,4.12,91.3
6158,2132,4,17708,4.12,91.3
6161,1980,16,17868,4.12,91.3
6164,2048,8,17596,4.12,91.3
6167,1828,52,17804,4.12,91.3
6170,1876,140,17480,4.12,91.3
6173,1664,12,18372,4.12,91.3
6177,1912,-64,18552,4.12,91.3
6180,2376,180,17100,4.12,91.3
6183,2132,168,16284,4.12,91.3
6186,1636,-364,18940,4.12,91.3
6191,1564,60,17820,4.12,91.3
6194,1972,-380,17796,4.12,91.3
6197,2184,-264,18644,4.12,91.3
6200,2156,132,16744,4.12,91.3
6204,1908,-328,17720,4.12,91.3
6207,1732,-356,18848,4.12,91.3
6210,1916,-184,17660,4.12,91.3
6213,1952,-180,17688,4.12,91.3
6216,2316,-460,17168,4.12,91.3
6219,1720,-92,18204,4.12,91.3
6222,2268,-228,17196,4.12,91.3
6225,2144,-448,17948,4.12,91.3
6228,2136,-348,17652,4.12,91.3
6231,2124,-276,17884,4.12,91.3
6235,2228,-292,17520,4.12,91.3
6238,2284,-444,17936,4.12,91.3
6241,2368,-220,17888,4.12,91.3
6246,2360,-368,18024,4.12,91.3
6249,2400,-312,17880,4.12,91.3
6252,2344,-268,17764,4.12,91.3
6255,2440,-260,17312,4.12,91.3
6259,2320,-352,17888,4.12,91.3
6262,2200,-252,17968,4.12,91.3
6265,2356,-116,17796,4.12,91.3
6268,2272,-176,17696,4.12,91.3
6271,2192,-208,17832,4.12,91.3
6274,2288,-172,17756,4.12,91.3
6277,2080,-136,17796,4.12,91.3
6280,2092,-136,17768,4.12,91.3
6283,1968,-64,17964,4.12,91.3
6286,1964,-92,17852,4.12,91.3
6289,2068,-104,17604,4.12,91.3
6292,1948,-28,17668,4.12,91.3
6298,1972,20,17820,4.12,91.3
6301,2028,-52,17724,4.12,91.3
6304,1916,-48,17856,4.12,91.3
6307,1816,-88,17804,4.12,91.3
6310,1772,-48,17664,4.12,91.3
6313,1900,16,17616,4.12,91.3
6316,1848,12,17940,4.12,91.3
6319,1924,-64,17888,4.12,91.3
6322,1892,-80,17804,4.12,91.3
6326,1812,-88,17784,4.12,91.3
6329,1828,-56,17852,4.12,91.3
6332,1908,28,17936,4.12,91.3
6335,1936,-16,17772,4.12,91.3
6338,2016,-120,17872,4.12,91.3
6341,1992,-72,17792,4.12,91.3
6344,1840,-236,17892,4.12,91.3
6347,2036,-108,17748,4.12,91.3
6353,2008,-176,17676,4.12,91.3
6356,2076,-108,17736,4.12,91.3
6359,2020,-192,17764,4.12,91.3
6362,2024,-32,17796,4.12,91.3
6365,2172,-232,17728,4.12,91.3
6368,2124,-40,17852,4.12,91.3
6371,2072,-184,17704,4.12,91.3
6374,2164,-120,17716,4.12,91.3
6377,2160,-140,17772,4.12,91.3
6380,2144,-164,17680,4.12,91.3
6383,2176,-180,17832,4.12,91.3
6386,2156,-100,17784,4.12,91.3
6389,2208,-52,17876,4.12,91.3
6393,2188,-144,17804,4.12,91.3
6396,2148,-140,17824,4.12,91.3
6399,2128,-124,17748,4.12,91.3
6402,2200,-32,17804,4.12,91.3
6407,2020,-136,17756,4.12,91.3
6410,2076,-80,17712,4.12,91.3
6413,2204,-148,17820,4.12,91.3
6416,2140,-116,17764,4.12,91.3
6420,2072,-60,17840,4.12,91.3
6423,2108,-52,17856,4.12,91.3
6426,2068,-20,17756,4.12,91.3
6429,2172,-72,17860,4.12,91.3
6432,2164,-76,17844,4.12,91.3
6435,2144,-36,17792,4.12,91.3
6438,2072,-60,17720,4.12,91.3
6441,2036,-140,18000,4.12,91.3
6444,2000,-112,17804,4.12,91.3
6447,2008,-32,17832,4.12,91.3
6450,2048,-96,17768,4.12,91.3
6453,2056,-108,17900,4.12,91.3
6456,2168,-104,17792,4.12,91.3
6462,1964,-84,17856,4.12,91.3
6465,2068,-180,17884,4.12,91.3
6468,2016,-156,17824,4.12,91.3
6471,1932,-204,17788,4.12,91.3
6474,2008,-96,17760,4.12,91.3
6477,1964,-180,17816,4.12,91.3
6480,2008,-88,17732,4.12,91.3
6483,1936,-260,17936,4.12,91.3
6487,2064,-168,17844,4.12,91.3
6490,1968,-120,17644,4.12,91.3
6493,2060,-192,17944,4.12,91.3
6496,1936,-172,17776,4.12,91.3
6499,2028,-236,17820,4.12,91.3
6502,2000,-168,17608,4.12,91.3
6505,2000,-192,17952,4.12,91.3
6508,1996,-100,17904,4.12,91.3
6513,2036,-212,17768,4.12,91.3
6516,1968,-168,17760,4.12,91.3
6519,2044,-92,17920,4.12,91.3
6522,2160,0,17640,4.12,91.3
6525,2132,-96,17844,4.12,91.3
6529,2176,-16,17708,4.12,91.3
6532,1960,4,17728,4.12,91.3
6535,2084,-128,17932,4.12,91.3
6538,2108,-132,17840,4.12,91.3
6541,2176,-8,17856,4.12,91.3
6544,2124,-96,17860,4.12,91.3
6547,2020,-100,17908,4.12,91.3
6550,2068,-76,17932,4.12,91.3
6553,2164,-64,17932,4.12,91.3
6557,2164,-200,17844,4.12,91.3
6560,2080,12,17788,4.12,91.3
6563,2124,-32,17916,4.12,91.3
6566,2132,-124,17780,4.12,91.3
6571,2008,-104,17832,4.12,91.3
6574,2092,-72,17824,4.12,91.3
6577,2104,-76,17880,4.12,91.3
6580,2064,-52,17784,4.12,91.3
6583,2072,-116,17816,4.12,91.3
6586,2000,-108,17672,4.12,91.3
6589,2092,-144,17900,4.12,91.3
6592,1992,-108,17876,4.12,91.3
6595,2036,-44,17720,4.12,91.3
6599,2000,-168,17692,4.12,91.3
6602,2008,-4,17856,4.12,91.3
6605,2032,-176,17864,4.12,91.3
6608,2000,-116,17704,4.12,91.3
6611,1936,-184,17816,4.12,91.3
6614,2076,-116,17824,4.12,91.3
6617,2048,-152,17756,4.12,91.3
6622,1968,-96,17876,4.12,91.3
6625,2108,-160,17808,4.12,91.3
6628,2028,-188,17724,4.12,91.3
6631,1936,-196,17720,4.12,91.3
6635,1988,-72,17816,4.12,91.3
6638,1980,-112,17864,4.12,91.3
6641,1960,-72,17776,4.12,91.3
6644,2028,-64,17764,4.12,91.3
6647,2120,-116,17808,4.12,91.3
6650,1976,-88,17784,4.12,91.3
6653,2024,-104,17832,4.12,91.3
6656,2008,-16,17848,4.12,91.3
6659,2008,-84,17804,4.12,91.3
6662,1916,56,17760,4.12,91.3
6666,2092,8,17816,4.12,91.3
6669,2148,-64,17740,4.12,91.3
6672,1980,-32,17696,4.12,91.3
6677,2016,-84,17980,4.12,91.3
6680,2068,-200,17912,4.12,91.3
6683,2116,-144,17688,4.12,91.3
6686,2200,-80,17660,4.12,91.3
6689,2104,-84,17788,4.12,91.3
6693,2224,-80,17812,4.12,91.3
6696,2100,-240,17856,4.12,91.3
6699,2088,-168,17868,4.12,91.3
6702,2232,-132,17876,4.12,91.3
6705,2136,-136,17772,4.12,91.3
6708,2112,-144,17764,4.12,91.3
6711,2180,-192,17808,4.12,91.3
6714,2116,-216,17804,4.12,91.3
6717,2208,-84,17652,4.12,91.3
6720,2132,-188,17880,4.12,91.3
6723,2088,-200,17768,4.12,91.3
6726,2224,-164,17808,4.12,91.3
6732,2140,-96,17796,4.12,91.3
6735,2040,-160,17752,4.12,91.3
6738,2092,-104,17692,4.12,91.3
6741,2012,-196,17804,4.12,91.3
6744,2064,-72,17728,4.12,91.3
6747,2156,-124,18012,4.12,91.3
6750,2068,-96,17804,4.12,91.3
6753,2036,-76,17876,4.12,91.3
6756,2008,-108,17736,4.12,91.3
6760,2028,-16,18004,4.12,91.3
6763,1956,-80,17764,4.12,91.3
6766,1988,-124,17864,4.12,91.3
6769,1908,-96,17856,4.12,91.3
6772,2060,-132,17852,4.12,91.3
6775,2012,-188,17688,4.12,91.3
6778,1932,-112,17900,4.12,91.3
6781,2064,-80,17760,4.12,91.3
6786,1972,-204,17828,4.12,91.3
6789,2008,-48,17808,4.12,91.3
6792,2052,-148,17864,4.12,91.3
6796,1992,-120,17736,4.12,91.3
6799,2008,-184,17952,4.12,91.3
6802,2064,-92,17692,4.12,91.3
6805,1964,-132,17784,4.12,91.3
6808,1948,-152,17736,4.12,91.3
6811,2008,-308,17868,4.12,91.3
6814,2044,-192,17836,4.12,91.3
6817,2108,-164,17708,4.12,91.3
6820,2156,-160,17664,4.12,91.3
6823,2036,-180,17808,4.12,91.3
6827,2124,-176,17616,4.12,91.3
6830,2120,-116,17704,4.12,91.3
6833,2116,-168,17820,4.12,91.3
6838,1968,-156,17820,4.12,91.3
6841,2152,-80,17700,4.12,91.3
6844,2016,-44,17780,4.12,91.3
6847,2136,-36,17728,4.12,91.3
6850,2112,-88,17820,4.12,91.3
6854,2020,-128,17788,4.12,91.3
6857,2096,-48,17700,4.12,91.3
6860,2120,-28,17844,4.12,91.3
6863,2004,-56,17864,4.12,91.3
6866,2052,-60,17724,4.12,91.3
6869,2140,-128,17816,4.12,91.3
6872,2084,20,17724,4.12,91.3
6875,2032,-80,17784,4.12,91.3
6878,1972,-4,18004,4.12,91.3
6881,1964,-20,17748,4.12,91.3
6884,2036,0,17824,4.12,91.3
6887,1888,-60,17992,4.12,91.3
6893,1996,48,17676,4.12,91.3
6896,2100,-88,17876,4.12,91.3
6899,2072,-128,17772,4.12,91.3
6902,2020,-84,17808,4.12,91.3
6905,2080,-112,17788,4.12,91.3
6908,1964,-100,17852,4.12,91.3
6911,2040,-124,17736,4.12,91.3
6914,2056,44,17812,4.12,91.3
6917,2040,-68,17824,4.12,91.3
6921,2064,-92,17908,4.12,91.3
6924,2036,-140,17748,4.12,91.3
6927,2120,-76,17960,4.12,91.3
6930,2072,-208,17848,4.12,91.3
6933,2152,-164,17860,4.12,91.3
6936,2136,-268,17864,4.12,91.3
6939,2076,-140,17752,4.12,91.3
6942,2100,-160,17780,4.12,91.3
6950,2044,-300,17828,4.12,91.3
6953,2044,-100,17752,4.12,91.3
6956,2100,-148,17856,4.12,91.3
6959,2100,-204,17880,4.12,91.3
6962,2084,-288,17836,4.12,91.3
6965,2024,-176,17816,4.12,91.3
6968,2104,-256,17656,4.12,91.3
6971,2008,-300,17940,4.12,91.3
6975,2040,-260,17816,4.12,91.3
6978,1968,-148,17840,4.12,91.3
6981,1988,-196,17804,4.12,91.3
6984,1976,-200,17752,4.12,91.3
6987,2096,-60,17796,4.12,91.3
6990,1980,-244,17612,4.12,91.3
6993,2032,-76,17496,4.12,91.3
6996,2004,-192,17736,4.12,91.3
6999,2152,-136,17640,4.12,91.3
7004,1788,-288,18428,4.12,91.3
7007,1660,-160,18384,4.12,91.3
7010,1772,-236,18316,4.12,91.3
7013,2376,44,17064,4.12,91.3
7017,2500,-100,16168,4.12,91.3
7020,1732,-76,17932,4.12,91.3
7023,1648,24,18804,4.12,91.3
7026,1764,-152,18980,4.12,91.3
7029,2164,-256,17736,4.12,91.3
7032,2280,32,17476,4.12,91.3
7035,1976,60,17688,4.12,91.3
7038,2088,-188,17584,4.12,91.3
7041,1864,-180,18056,4.12,91.3
7044,1840,-80,17748,4.12,91.3
7047,2108,24,17824,4.12,91.3
7050,2160,-220,17832,4.12,91.3
7053,2048,-204,17908,4.12,91.3
7059,1920,-136,17948,4.12,91.3
7062,1824,-96,17992,4.12,91.3
7065,2156,-228,17840,4.12,91.3
7068,2260,-56,17332,4.12,91.3
7071,2200,-40,17500,4.12,91.3
7074,2004,-156,18128,4.12,91.3
7077,1900,-100,18272,4.12,91.3
7080,2020,-84,18016,4.12,91.3
7083,2212,-256,17608,4.12,91.3
7087,2196,-152,17516,4.12,91.3
7090,2056,-64,17476,4.12,91.3
7093,1980,-52,17820,4.12,91.3
7096,1944,-204,18188,4.12,91.3
7099,2228,-140,17888,4.12,91.3
7102,2156,-120,17688,4.12,91.3
7105,2144,-44,17688,4.12,91.3
7110,1820,-260,18044,4.12,91.3
7113,2016,-132,18104,4.12,91.3
7116,2316,-176,17608,4.12,91.3
7120,2320,-208,17400,4.12,91.3
7123,2036,-148,17832,4.12,91.3
7126,1948,-120,18096,4.12,91.3
7129,1852,-256,18000,4.12,91.3
7132,2068,-212,17804,4.12,91.3
7135,2108,-144,17788,4.12,91.3
7138,2112,-236,17804,4.12,91.3
7141,2124,-228,17612,4.12,91.3
7144,1948,-220,17724,4.12,91.3
7147,1964,-236,17812,4.12,91.3
7150,2104,-156,17728,4.12,91.3
7154,2100,-160,18044,4.12,91.3
7157,2080,-204,17688,4.12,91.3
7160,2016,-204,17816,4.12,91.3
7165,1976,-132,17776,4.12,91.3
7168,1960,-96,17724,4.12,91.3
7171,2072,-56,17668,4.12,91.3
7174,2000,-124,17748,4.12,91.3
7178,1956,-4,17940,4.12,91.3
7181,1952,-128,17976,4.12,91.3
7184,2080,68,17828,4.12,91.3
7187,2060,-132,17748,4.12,91.3
7190,2096,-76,17644,4.12,91.3
7193,2040,-32,17740,4.12,91.3
7196,1972,24,17784,4.12,91.3
7199,1992,-20,17904,4.12,91.3
7202,2200,-20,17932,4.12,91.3
7205,2080,84,17872,4.12,91.3
7208,2048,60,17824,4.12,91.3
7211,1952,24,17832,4.12,91.3
7214,1948,-40,17848,4.12,91.3
7220,2052,4,17824,4.12,91.3
7223,2184,-12,17808,4.12,91.3
7226,2104,4,17764,4.12,91.3
7229,2012,-124,17820,4.12,91.3
7232,1884,-112,17888,4.12,91.3
7235,2108,-96,17796,4.12,91.3
7238,2020,-240,17760,4.12,91.3
7241,1988,-148,17792,4.12,91.3
7244,2096,-164,17696,4.12,91.3
7248,1984,-48,17708,4.12,91.3
7251,2016,-172,17836,4.12,91.3
7254,2068,-116,17904,4.12,91.3
7257,2048,-128,17880,4.12,91.3
7260,2064,-124,17636,4.12,91.3
7263,2092,-132,17756,4.12,91.3
7266,1988,-232,17888,4.12,91.3
7269,2104,-212,17872,4.12,91.3
7274,2056,-184,17872,4.12,91.3
7278,2100,-212,17764,4.12,91.3
7281,1964,-228,17804,4.12,91.3
7284,1996,-332,17732,4.12,91.3
7287,2068,-220,17840,4.12,91.3
7290,2040,-180,17744,4.12,91.3
7293,2084,-140,17816,4.12,91.3
7296,2092,-108,17748,4.12,91.3
7299,2100,-192,17852,4.12,91.3
7302,2032,-132,17952,4.12,91.3
7305,2008,-120,17756,4.12,91.3
7308,2056,-92,17820,4.12,91.3
7312,2032,-164,17788,4.12,91.3
7315,2004,-104,17692,4.12,91.3
7318,2020,-104,17804,4.12,91.3
7321,2044,-144,17824,4.12,91.3
7326,1952,-60,17748,4.12,91.3
7329,2108,12,17892,4.12,91.3
7332,2144,-148,17840,4.12,91.3
7335,2008,-192,17796,4.12,91.3
7338,2024,-168,17832,4.12,91.3
7341,2044,-76,17904,4.12,91.3
7345,1992,-40,17700,4.12,91.3
7348,2068,-8,17888,4.12,91.3
7351,1984,0,17896,4.12,91.3
7354,2028,-68,17836,4.12,91.3
7357,1956,-92,17784,4.12,91.3
7360,1904,-72,17796,4.12,91.3
7363,2048,0,17804,4.12,91.3
7366,2032,0,17884,4.12,91.3
7369,2028,-120,17792,4.12,91.3
7372,2032,-120,17728,4.12,91.3
7375,2008,-120,17808,4.12,91.3
7381,1952,-76,17676,4.12,91.3
7384,2088,-24,17844,4.12,91.3
7387,2088,-64,17720,4.12,91.3
7390,2056,-128,17716,4.12,91.3
7393,2088,-36,17684,4.12,91.3
7396,2016,-180,17716,4.12,91.3
7399,1872,-148,17940,4.12,91.3
7402,2100,-180,17848,4.12,91.3
7405,2112,-156,17868,4.12,91.3
7408,2072,-104,17808,4.12,91.3
7411,2120,-160,17728,4.12,91.3
7414,2196,-212,17632,4.12,91.3
7417,2068,-220,17556,4.12,91.3
7421,2036,-284,17728,4.12,91.3
7424,2108,-112,17808,4.12,91.3
7427,2072,-184,17656,4.12,91.3
7430,2016,-172,17800,4.12,91.3
7435,2088,-96,17912,4.12,91.3
7438,2036,-96,17752,4.12,91.3
7441,2048,-188,17856,4.12,91.3
7444,2028,-96,17820,4.12,91.3
7447,2052,-48,17684,4.12,91.3
7450,1960,-52,17956,4.12,91.3
7453,2048,-24,17880,4.12,91.3
7456,1924,24,17752,4.12,91.3
7459,1972,-56,17852,4.12,91.3
7463,2124,-52,17780,4.12,91.3
7466,2040,-48,17744,4.12,91.3
7469,2020,-92,17760,4.12,91.3
7472,1928,28,17788,4.12,91.3
7475,1984,-72,17800,4.12,91.3
7478,2008,-148,17748,4.12,91.3
7481,2024,-152,17844,4.12,91.3
7484,2076,-24,17912,4.12,91.3
7489,2000,-156,17800,4.12,91.3
7493,2064,-92,17648,4.12,91.3
7496,2144,-156,17748,4.12,91.3
7499,2032,-84,17796,4.12,91.3
7502,2072,-64,17900,4.12,91.3
7505,2016,-184,17748,4.12,91.3
7508,1984,-116,17920,4.12,91.3
7511,2072,-120,17868,4.12,91.3
7514,2072,-232,17840,4.12,91.3
7517,1984,-88,17768,4.12,91.3
7520,2048,-236,17796,4.12,91.3
7523,2056,-272,17892,4.12,91.3
7526,2052,-88,17832,4.12,91.3
7530,1980,-236,17908,4.12,91.3
7533,1952,-108,17868,4.12,91.3
7536,1972,-196,17792,4.12,91.3
7539,1984,-80,17900,4.12,91.3
7544,1912,-176,17812,4.12,91.3
7547,2044,-124,17856,4.12,91.3
7550,2036,-48,17780,4.12,91.3
7553,1912,-140,17828,4.12,91.3
7556,2016,-104,17864,4.12,91.3
7560,1964,-52,17880,4.12,91.3
7563,2008,-92,17712,4.12,91.3
7566,2128,-140,17828,4.12,91.3
7569,2092,-168,17784,4.12,91.3
7572,2040,-200,18016,4.12,91.3
7575,2060,-84,17936,4.12,91.3
7578,2024,-136,17864,4.12,91.3
7581,1992,-100,17760,4.12,91.3
7584,2056,-124,17748,4.12,91.3
7587,2064,-112,17840,4.12,91.3
7590,1992,-72,17804,4.12,91.3
7593,2116,-160,17724,4.12,91.3
7599,2020,-72,17736,4.12,91.3
7602,1964,-184,17856,4.12,91.3
7605,1912,-72,17844,4.12,91.3
7608,2052,-148,17972,4.12,91.3
7611,2056,-96,17876,4.12,91.3
7614,2076,-120,17852,4.12,91.3
7617,2096,-68,17776,4.12,91.3
7620,2076,-152,17796,4.12,91.3
7623,2048,-108,17668,4.12,91.3
7627,2088,-80,17788,4.12,91.3
7630,2080,-144,17848,4.12,91.3
7633,2064,-180,17844,4.12,91.3
7636,2028,-168,17876,4.12,91.3
7639,2024,-80,17836,4.12,91.3
7642,1996,-192,17772,4.12,91.3
7645,2004,-108,17736,4.12,91.3
7650,2052,-124,17752,4.12,91.3
7653,2028,-168,17820,4.12,91.3
7656,2028,-172,17916,4.12,91.3
7659,2008,-188,17872,4.12,91.3
7663,2088,-124,17692,4.12,91.3
7666,2052,-164,17784,4.12,91.3
7669,2012,-176,17664,4.12,91.3
7672,2112,-128,17832,4.12,91.3
7675,2080,-124,17772,4.12,91.3
7678,2036,-84,17836,4.12,91.3
7681,1984,-124,17860,4.12,91.3
7684,2044,-64,17784,4.12,91.3
7687,2104,-104,17744,4.12,91.3
7691,2000,-20,17872,4.12,91.3
7694,1976,-92,17752,4.12,91.3
7697,1992,-80,17804,4.12,91.3
7700,2060,-124,17704,4.12,91.3
7705,2024,-108,17948,4.12,91.3
7708,2016,-172,17844,4.12,91.3
7711,1928,-76,17840,4.12,91.3
7714,1900,-100,17816,4.12,91.3
7717,2096,-84,17832,4.12,91.3
7721,2012,-84,17976,4.12,91.3
7724,2080,-112,17856,4.12,91.3
7727,2000,-64,17868,4.12,91.3
7730,2056,-168,17828,4.12,91.3
7733,2052,-84,17736,4.12,91.3
7736,1992,-156,17752,4.12,91.3
7739,2028,-60,17720,4.12,91.3
7742,2000,-172,17792,4.12,91.3
7745,1928,-64,17824,4.12,91.3
7748,2000,-168,17888,4.12,91.3
7751,2044,-120,17704,4.12,91.3
7754,2052,-68,17760,4.12,91.3
7760,2048,-112,17860,4.12,91.3
7763,2064,-156,17848,4.12,91.3
7766,2068,-88,17692,4.12,91.3
7769,2088,-200,17832,4.12,91.3
7772,2056,-108,17900,4.12,91.3
7775,2088,-172,17704,4.12,91.3
7778,2120,-128,17744,4.12,91.3
7781,2148,-192,17796,4.12,91.3
7784,2080,-116,18000,4.12,91.3
7788,2092,-108,17868,4.12,91.3
7791,2116,-64,17828,4.12,91.3
7794,2120,8,17736,4.12,91.3
7797,2128,-20,17668,4.12,91.3
7800,2028,-192,17700,4.12,91.3
7803,1948,-136,17736,4.12,91.3
7806,2092,-84,17832,4.12,91.3
7811,2056,-128,17780,4.12,91.3
7814,2052,-68,17820,4.12,91.3
7817,2068,-132,17940,4.12,91.3
7820,2072,-20,17880,4.12,91.3
7823,2052,-172,17812,4.12,91.3
7827,2028,-104,17924,4.12,91.3
7830,2028,-56,17784,4.12,91.3
7833,2020,-72,17876,4.12,91.3
7836,2040,-116,17908,4.12,91.3
7839,2152,-72,17740,4.12,91.3
7842,2100,-196,17840,4.12,91.3
7845,2092,-120,17796,4.12,91.3
7848,2052,-216,17792,4.12,91.3
7851,2012,-100,17812,4.12,91.3
7854,2048,-176,17836,4.12,91.3
7857,2104,-64,17704,4.12,91.3
7860,2116,-40,17768,4.12,91.3
7865,2052,-44,17596,4.12,91.3
7869,2052,-88,17896,4.12,91.3
7872,2056,-148,17828,4.12,91.3
7875,2080,-156,17840,4.12,91.3
7878,1940,-248,17752,4.12,91.3
7881,2052,-108,17708,4.12,91.3
7884,2032,-148,17752,4.12,91.3
7887,1944,-104,17796,4.12,91.3
7890,1960,-184,17748,4.12,91.3
7893,1920,-116,17804,4.12,91.3
7896,2060,-180,17888,4.12,91.3
7899,2088,-160,17832,4.12,91.3
7902,2016,-80,17752,4.12,91.3
7906,1996,-156,17796,4.12,91.3
7909,2068,-108,17768,4.12,91.3
7912,2008,-208,17732,4.12,91.3
7915,2036,-148,17664,4.12,91.3
7920,1924,-156,17764,4.12,91.3
7923,2000,-92,17856,4.12,91.3
7926,2116,-124,17720,4.12,91.3
7929,1980,28,17780,4.12,91.3
7933,2080,-136,17920,4.12,91.3
7936,2020,-212,18116,4.12,91.3
7939,2072,-32,17656,4.12,91.3
7942,2120,-44,17756,4.12,91.3
7945,2008,8,17920,4.12,91.3
7948,2084,-4,17856,4.12,91.3
7951,2076,-72,17752,4.12,91.3
7954,2168,-60,17928,4.12,91.3
7957,2168,-28,17724,4.12,91.3
7960,2004,-100,17796,4.12,91.3
7963,2100,-44,17840,4.12,91.3
7966,2128,-36,17872,4.12,91.3
7969,2032,-264,17664,4.12,91.3
7975,2080,-164,17744,4.12,91.3
7978,2096,-108,17784,4.12,91.3
7981,2252,-116,17920,4.12,91.3
7984,1964,-64,17908,4.12,91.3
7987,2000,-148,17692,4.12,91.3
7990,2060,-164,17756,4.12,91.3
7993,1916,-104,17796,4.12,91.3
7996,1980,-44,17844,4.12,91.3
8000,1964,-236,17768,4.12,91.3
8003,2012,-8,17756,4.12,91.3
8006,2028,-112,17808,4.12,91.3
8009,1956,-144,17812,4.12,91.3
8012,2096,-152,17872,4.12,91.3
8015,2012,-128,17840,4.12,91.3
8018,2020,-120,17604,4.12,91.3
8021,2084,-152,17760,4.12,91.3
8027,2068,-172,17836,4.12,91.3
8030,2056,-128,17888,4.12,91.3
8033,1972,-132,17864,4.12,91.3
8036,2052,-104,17776,4.12,91.3
8039,2100,-88,17840,4.12,91.3
8042,2044,-192,17704,4.12,91.3
8045,2012,-100,17824,4.12,91.3
8048,1952,-96,17780,4.12,91.3
8051,1968,-20,17768,4.12,91.3
8054,1980,-168,17704,4.12,91.3
8058,2056,0,17732,4.12,91.3
8061,1968,-60,17744,4.12,91.3
8064,2000,-124,17692,4.12,91.3
8067,2040,-144,17920,4.12,91.3
8070,1980,-16,17892,4.12,91.3
8073,1848,-212,17724,4.12,91.3
8076,2028,-52,17832,4.12,91.3
8081,2036,-160,17760,4.12,91.3
8084,2040,-120,17844,4.12,91.3
8087,2040,-40,17820,4.12,91.3
8090,2048,-64,17948,4.12,91.3
8094,2044,-140,17616,4.12,91.3
8097,1996,-152,17812,4.12,91.3
8100,2036,-20,17836,4.12,91.3
8103,2100,-116,17808,4.12,91.3
8106,1940,-88,17744,4.12,91.3
8109,1956,-116,17716,4.12,91.3
8112,2172,-148,18000,4.12,91.3
8115,2088,-192,17720,4.12,91.3
8118,1992,-80,17668,4.12,91.3
8121,1980,-128,17724,4.12,91.3
8125,2076,-104,17884,4.12,91.3
8128,2008,-144,17796,4.12,91.3
8131,2072,-152,17760,4.12,91.3
8136,2052,-144,17788,4.12,91.3
8139,2044,-148,17764,4.12,91.3
8142,1988,-36,17820,4.12,91.3
8145,2104,-160,17808,4.12,91.3
8148,2040,-108,17984,4.12,91.3
8151,2160,-72,17756,4.12,91.3
8154,2040,-24,17764,4.12,91.3
8157,2000,-40,17876,4.12,91.3
8161,2172,-172,17892,4.12,91.3
8164,2128,-40,17924,4.12,91.3
8167,2104,-132,17796,4.12,91.3
8170,2052,-160,17816,4.12,91.3
8173,2072,-168,17836,4.12,91.3
8176,2112,-120,17772,4.12,91.3
8179,2064,-140,17780,4.12,91.3
8182,1984,-172,17596,4.12,91.3
8185,2096,-224,17804,4.12,91.3
8191,2072,-168,17860,4.12,91.3
8194,2036,-136,17804,4.12,91.3
8197,2020,-116,17728,4.12,91.3
8200,2080,-232,17772,4.12,91.3
8203,2080,-104,17796,4.12,91.3
8206,2060,-164,17792,4.12,91.3
8209,2024,-132,17724,4.12,91.3
8212,2020,-80,17856,4.12,91.3
8215,2080,-172,17864,4.12,91.3
8218,1996,-68,17716,4.12,91.3
8221,1964,-28,17648,4.12,91.3
8224,1916,-168,17816,4.12,91.3
8228,2000,-48,17632,4.12,91.3
8231,2020,-156,17772,4.12,91.3
8234,2020,-44,17912,4.12,91.3
8237,2040,-68,17740,4.12,91.3
8242,2036,-120,17740,4.12,91.3
8245,2012,-120,17808,4.12,91.3
8248,2164,-48,17908,4.12,91.3
8251,2116,-108,17840,4.12,91.3
8254,2056,-104,17808,4.12,91.3
8258,1996,-56,17784,4.12,91.3
8261,2068,-32,17780,4.12,91.3
8264,2016,-104,17844,4.12,91.3
8267,2172,-20,17816,4.12,91.3
8270,2076,-132,17796,4.12,91.3
8273,2032,-24,17852,4.12,91.3
8276,2100,-72,17792,4.12,91.3
8279,2116,-84,17860,4.12,91.3
8282,2072,-96,17900,4.12,91.3
8285,2104,-52,17848,4.12,91.3
8288,2012,-156,17892,4.12,91.3
8291,1976,-124,17864,4.12,91.3
8296,2076,-24,17892,4.12,91.3
8299,1992,-28,17840,4.12,91.3
8302,2096,-100,17816,4.12,91.3
8306,1972,-160,17712,4.12,91.3
8309,2076,-56,17748,4.12,91.3
8312,2128,-244,17748,4.12,91.3
8315,2120,-112,17876,4.12,91.3
8318,2004,-188,17704,4.12,91.3
8321,1936,-128,17896,4.12,91.3
8324,2080,-132,17912,4.12,91.3
8327,2116,-196,17748,4.12,91.3
8330,2024,-136,17812,4.12,91.3
8333,2048,-188,17792,4.12,91.3
8336,2032,-72,17772,4.12,91.3
8340,2084,-96,17896,4.12,91.3
8343,2048,-104,17840,4.12,91.3
8346,2132,-64,17756,4.12,91.3
8351,2080,-140,17820,4.12,91.3
8354,2024,-204,17788,4.12,91.3
8357,2036,-72,17708,4.12,91.3
8360,2120,-108,17712,4.12,91.3
8363,2092,-172,17788,4.12,91.3
8367,2068,-44,17888,4.12,91.3
8370,2084,-68,17848,4.12,91.3
8373,2160,-220,17872,4.12,91.3
8376,2012,-80,17792,4.12,91.3
8379,2184,-124,17924,4.12,91.3
8382,2040,-148,17864,4.12,91.3
8385,2040,-128,17924,4.12,91.3
8388,2004,-136,17760,4.12,91.3
8391,2032,-180,17864,4.12,91.3
8394,1976,-188,17784,4.12,91.3
8397,1960,-48,17904,4.12,91.3
8400,2072,-108,17792,4.12,91.3
8406,1944,-52,17796,4.12,91.3
8409,1948,-80,17904,4.12,91.3
8412,2044,-96,17736,4.12,91.3
8415,1892,-88,17884,4.12,91.3
8418,1980,-220,17736,4.12,91.3
8421,1996,-160,17796,4.12,91.3
8424,1956,-104,17796,4.12,91.3
8427,1944,-44,17724,4.12,91.3
8430,2044,-120,17664,4.12,91.3
8434,1904,-160,17932,4.12,91.3
8437,1924,-88,17708,4.12,91.3
8440,1900,-156,17900,4.12,91.3
8443,2004,-100,17940,4.12,91.3
8446,1936,-164,17932,4.12,91.3
8449,1912,-84,17768,4.12,91.3
8452,2060,-172,17764,4.12,91.3
8457,1936,-112,17772,4.12,91.3
8460,2084,-48,17836,4.12,91.3
8463,1960,-144,17760,4.12,91.3
8466,2064,-188,17840,4.12,91.3
8470,2036,-136,17704,4.12,91.3
8473,2080,-48,17872,4.12,91.3
8476,2000,-168,17776,4.12,91.3
8479,2124,-124,17860,4.12,91.3
8482,2060,-88,17756,4.12,91.3
8485,2072,-156,17836,4.12,91.3
8488,2080,-124,17796,4.12,91.3
8491,2116,-88,17800,4.12,91.3
8494,2064,-112,17912,4.12,91.3
8498,2200,-136,17704,4.12,91.3
8501,2108,-116,17792,4.12,91.3
8504,2140,-124,17788,4.12,91.3
8507,2068,-96,17852,4.12,91.3
8512,2080,-112,17688,4.12,91.3
8515,2072,-80,17888,4.12,91.3
8518,2072,-168,17844,4.12,91.3
8521,2104,-176,17820,4.12,91.3
8524,2144,-108,17816,4.12,91.3
8528,2092,4,17796,4.12,91.3
8531,2072,-108,17960,4.12,91.3
8534,1992,-136,17948,4.12,91.3
8537,2080,-112,17752,4.12,91.3
8540,2044,-168,17800,4.12,91.3
8543,1992,-104,17832,4.12,91.3
8546,1824,-92,17840,4.12,91.3
8549,2024,-160,17792,4.12,91.3
8552,2000,-76,17844,4.12,91.3
8555,1964,-108,17736,4.12,91.3
8558,1948,-140,17952,4.12,91.3
8561,2052,-116,17884,4.12,91.3
8567,1928,-156,17636,4.12,91.3
8570,1948,-32,17680,4.12,91.3
8573,1980,-216,17744,4.12,91.3
8576,1936,-108,17864,4.12,91.3
8579,1972,-108,17764,4.12,91.3
8582,1944,-92,17792,4.12,91.3
8585,2032,-220,17776,4.12,91.3
8588,2092,-112,17860,4.12,91.3
8591,1920,-220,17740,4.12,91.3
8595,2044,-160,17932,4.12,91.3
8598,1992,-148,17836,4.12,91.3
8601,1956,-144,17816,4.12,91.3
8604,2092,-156,17856,4.12,91.3
8607,2024,-324,17796,4.12,91.3
8610,2088,-208,17788,4.12,91.3
8613,1968,-124,17768,4.12,91.3
8618,2072,-164,17812,4.12,91.3
8621,2080,-148,17612,4.12,91.3
8624,2064,-184,17668,4.12,91.3
8627,2080,-152,17900,4.12,91.3
8631,2092,-184,17772,4.12,91.3
8634,2076,-168,17892,4.12,91.3
8637,2076,-156,17712,4.12,91.3
8640,2152,-116,17792,4.12,91.3
8643,2188,-192,17896,4.12,91.3
8646,2124,-120,17876,4.12,91.3
8649,2080,-120,17808,4.12,91.3
8652,2100,-148,17912,4.12,91.3
8655,2004,-216,17912,4.12,91.3
8658,2128,-124,17800,4.12,91.3
8662,2128,-168,17872,4.12,91.3
8665,2072,-44,17848,4.12,91.3
8668,2204,-76,17916,4.12,91.3
8675,2184,-92,17876,4.12,91.3
8678,2072,-120,17808,4.12,91.3
8681,2080,-124,17804,4.12,91.3
8684,1964,-144,17752,4.12,91.3
8687,2100,-40,17620,4.12,91.3
8690,2088,-84,17812,4.12,91.3
8693,1992,-108,17968,4.12,91.3
8696,2092,-120,17700,4.12,91.3
8699,2072,-168,17720,4.12,91.3
8703,2008,-116,17680,4.12,91.3
8706,1964,-124,17792,4.12,91.3
8709,2032,-124,17736,4.12,91.3
8712,2008,-300,17880,4.12,91.3
8715,1964,-116,18028,4.12,91.3
8718,1844,-160,17844,4.12,91.3
8721,2052,-136,17620,4.12,91.3
8726,1948,-116,17796,4.12,91.3
8729,2016,-12,17872,4.12,91.3
8732,1996,-172,17652,4.12,91.3
8735,2016,-116,17780,4.12,91.3
8738,1968,-16,17704,4.12,91.3
8742,1864,-120,17952,4.12,91.3
8745,1772,-164,18116,4.12,91.3
8748,2036,-184,17672,4.12,91.3
8751,1972,-28,17680,4.12,91.3
8754,2044,-68,17464,4.12,91.3
8757,1828,-60,18100,4.12,91.3
8760,1940,-148,17904,4.12,91.3
8763,1948,-8,17812,4.12,91.3
8766,1980,-44,17996,4.12,91.3
8769,2072,-48,17692,4.12,91.3
8772,2140,-84,17548,4.12,91.3
8775,2064,-80,17716,4.12,91.3
8781,1968,32,17932,4.12,91.3
8784,2088,-88,17764,4.12,91.3
8787,2172,-152,17596,4.12,91.3
8790,2120,-100,17700,4.12,91.3
8793,2044,28,17852,4.12,91.3
8796,2112,-28,17744,4.12,91.3
8799,2144,-96,17900,4.12,91.3
8802,2176,-12,17824,4.12,91.3
8805,2276,-204,17784,4.12,91.3
8809,2300,-56,17644,4.12,91.3
8812,2144,-104,17552,4.12,91.3
8815,2152,-124,17784,4.12,91.3
8818,2140,-192,17964,4.12,91.3
8821,2272,-192,17856,4.12,91.3
8824,2252,-60,17740,4.12,91.3
8827,2180,-132,17544,4.12,91.3
8830,2080,-60,17900,4.12,91.3
8835,2040,-148,17844,4.12,91.3
8839,2152,-184,17776,4.12,91.3
8842,2128,-60,17728,4.12,91.3
8845,2076,-176,17836,4.12,91.3
8848,1964,-116,17780,4.12,91.3
8851,1968,-88,17856,4.12,91.3
8854,1940,-156,17868,4.12,91.3
8857,2032,-68,17684,4.12,91.3
8860,1988,-176,17752,4.12,91.3
8863,1984,-232,17980,4.12,91.3
8866,1952,-144,17764,4.12,91.3
8869,1944,-128,17836,4.12,91.3
8872,1952,-132,17876,4.12,91.3
8876,2072,-144,17844,4.12,91.3
8879,1920,-156,17644,4.12,91.3
8882,1928,-200,17700,4.12,91.3
8885,1904,-248,17900,4.12,91.3
8890,1900,-204,17620,4.12,91.3
8893,1844,-132,17696,4.12,91.3
8896,2004,-164,17736,4.12,91.3
8899,2012,-176,17876,4.12,91.3
8902,1944,-260,17872,4.12,91.3
8906,2052,-84,17744,4.12,91.3
8909,2016,-160,17736,4.12,91.3
8912,1992,-192,17772,4.12,91.3
8915,2076,-132,17712,4.12,91.3
8918,2052,-212,17796,4.12,91.3
8921,2024,-144,17832,4.12,91.3
8924,2104,-184,17716,4.12,91.3
8927,2020,16,17724,4.12,91.3
8930,2008,-52,17804,4.12,91.3
8933,2080,-72,17660,4.12,91.3
8936,2040,-12,17788,4.12,91.3
8942,2100,-196,17844,4.12,91.3
8945,2124,-76,17664,4.12,91.3
8948,2188,-180,17692,4.12,91.3
8951,2056,-164,17644,4.12,91.3
8954,2048,-16,17804,4.12,91.3
8957,2232,-132,17724,4.12,91.3
8960,2072,-108,17772,4.12,91.3
8963,2124,-100,17844,4.12,91.3
8966,2056,-56,17832,4.12,91.3
8970,2096,-60,17848,4.12,91.3
8973,2144,-180,17828,4.12,91.3
8976,2004,-132,17772,4.12,91.3
8979,2124,-172,17744,4.12,91.3
8982,2044,-132,17776,4.12,91.3
8985,2104,-152,17760,4.12,91.3
8988,2020,-76,17792,4.12,91.3
8991,2052,-164,17804,4.12,91.3
8997,2124,-136,17820,4.12,91.3
9000,2044,-212,17788,4.12,91.3
9003,2088,-148,17740,4.12,91.3
9006,2072,-56,17888,4.12,91.3
9009,1948,-156,17764,4.12,91.3
9012,1976,-68,17808,4.12,91.3
9015,2032,-204,17752,4.12,91.3
9018,2020,-96,17864,4.12,91.3
9021,1936,-224,17892,4.12,91.3
9024,2184,-176,17656,4.12,91.3
9028,2040,-124,17912,4.12,91.3
9031,2028,-80,17796,4.12,91.3
9034,2004,-84,17812,4.12,91.3
9037,2068,-140,17860,4.12,91.3
9040,2020,-128,17732,4.12,91.3
9043,2096,-72,17780,4.12,91.3
9046,2012,-172,17808,4.12,91.3
9051,2096,-116,17932,4.12,91.3
9054,2096,-88,17828,4.12,91.3
9057,2100,-80,17852,4.12,91.3
9060,2040,-60,18032,4.12,91.3
9064,2040,-100,17732,4.12,91.3
9067,2032,-144,17748,4.12,91.3
9070,1992,-20,17808,4.12,91.3
9073,2020,-152,17704,4.12,91.3
9076,2032,-88,17816,4.12,91.3
9079,2172,-140,17728,4.12,91.3
9082,2124,-32,17656,4.12,91.3
9085,2064,16,17720,4.12,91.3
9088,2112,-40,17780,4.12,91.3
9091,2096,-176,17748,4.12,91.3
9095,2148,-88,17800,4.12,91.3
9098,2020,-4,17692,4.12,91.3
9101,2044,-64,17880,4.12,91.3
9106,2124,-48,17708,4.12,91.3
9109,2060,-88,17828,4.12,91.3
9112,2120,-44,17880,4.12,91.3
9115,2080,-24,17644,4.12,91.3
9118,2100,-100,17896,4.12,91.3
9121,2040,-124,17900,4.12,91.3
9124,1972,-196,17696,4.12,91.3
9127,2024,-148,17936,4.12,91.3
9131,1924,-96,17848,4.12,91.3
9134,2100,-136,17820,4.12,91.3
9137,2028,-132,17780,4.12,91.3
9140,2088,-208,17888,4.12,91.3
9143,2004,-200,17900,4.12,91.3
9146,2036,-124,17716,4.12,91.3
9149,1964,-228,17944,4.12,91.3
9152,2064,-136,17844,4.12,91.3
9157,2044,-168,17720,4.12,91.3
9160,1956,-144,17668,4.12,91.3
9163,2004,-268,17824,4.12,91.3
9166,2012,-208,17832,4.12,91.3
9169,2088,-88,17768,4.12,91.3
9173,1988,-172,17772,4.12,91.3
9176,2104,-116,17712,4.12,91.3
9179,2032,-200,17868,4.12,91.3
9182,2016,-4,17788,4.12,91.3
9185,2020,-92,17944,4.12,91.3
9188,2052,-84,17844,4.12,91.3
9191,2008,-148,17788,4.12,91.3
9194,2020,-76,17864,4.12,91.3
9197,2020,-116,17724,4.12,91.3
9200,2064,-168,17792,4.12,91.3
9203,1968,24,17792,4.12,91.3
9206,2052,-108,17800,4.12,91.3
9212,2008,-48,17836,4.12,91.3
9215,2004,-24,17796,4.12,91.3
9218,1972,-84,17836,4.12,91.3
9221,2052,-120,17872,4.12,91.3
9224,2072,-96,17732,4.12,91.3
9227,2100,-112,17812,4.12,91.3
9230,2056,32,17872,4.12,91.3
9233,2044,-20,17736,4.12,91.3
9236,2048,-44,17944,4.12,91.3
9239,2036,-88,17832,4.12,91.3
9243,2116,4,17764,4.12,91.3
9246,2108,-40,17872,4.12,91.3
9249,2056,-124,17844,4.12,91.3
9252,2012,-12,17716,4.12,91.3
9255,1896,-132,17728,4.12,91.3
9258,2084,-116,17600,4.12,91.3
9261,1952,-172,17804,4.12,91.3
9266,1944,-240,17812,4.12,91.3
9269,2080,-172,17744,4.12,91.3
9272,2032,-232,17800,4.12,91.3
9275,2020,-144,17808,4.12,91.3
9279,2028,-176,17700,4.12,91.3
9282,2016,-172,17824,4.12,91.3
9285,2108,-104,17820,4.12,91.3
9288,2072,-124,17756,4.12,91.3
9291,1984,-108,17840,4.12,91.3
9294,1992,-124,17816,4.12,91.3
9297,2136,-100,17588,4.12,91.3
9300,2076,-148,17884,4.12,91.3
9303,2000,-152,17780,4.12,91.3
9306,2084,-148,17736,4.12,91.3
9310,2116,-176,17656,4.12,91.3
9313,1984,-44,17764,4.12,91.3
9316,2016,-104,17704,4.12,91.3
9321,2152,-96,17804,4.12,91.3
9324,2016,-60,17820,4.12,91.3
9327,2124,-152,17812,4.12,91.3
9330,2136,-80,17748,4.12,91.3
9333,2048,-96,17652,4.12,91.3
9337,2024,0,17716,4.12,91.3
9340,1996,-132,17680,4.12,91.3
9343,2020,-80,17888,4.12,91.3
9346,2104,-120,17672,4.12,91.3
9349,2040,-108,17776,4.12,91.3
9352,2044,-156,17848,4.12,91.3
9355,2088,-88,17736,4.12,91.3
9358,2088,32,17808,4.12,91.3
9361,1992,-156,18044,4.12,91.3
9364,2132,-168,17916,4.12,91.3
9367,2088,-112,17884,4.12,91.3
9370,2184,-80,17816,4.12,91.3
9376,2088,-68,17932,4.12,91.3
9379,2108,-132,17868,4.12,91.3
9382,2192,-68,17872,4.12,91.3
9385,2116,-152,17752,4.12,91.3
9388,2052,-256,17840,4.12,91.3
9391,2104,-168,17712,4.12,91.3
9394,2088,-200,17832,4.12,91.3
9397,2056,-232,17736,4.12,91.3
9400,2136,-168,17792,4.12,91.3
9404,2080,-212,17792,4.12,91.3
9407,1996,-156,17824,4.12,91.3
9410,1984,-88,17756,4.12,91.3
9413,2104,-532,17792,4.12,91.3
9416,2072,276,17280,4.12,91.3
9419,2100,220,15452,4.12,91.3
9422,560,32,20248,4.12,91.3
9427,1872,-416,18312,4.12,91.3
9430,2816,580,14164,4.12,91.3
9433,2180,400,15800,4.12,91.3
9436,732,-24,20684,4.12,91.3
9439,1372,-508,19348,4.12,91.3
9443,2092,-76,17380,4.12,91.3
9446,2020,-40,17280,4.12,91.3
9449,2148,-40,17504,4.12,91.3
9452,2232,132,17668,4.12,91.3
9455,2216,-48,17120,4.12,91.3
9458,1876,-160,18148,4.12,91.3
9461,1796,-140,18576,4.12,91.3
9464,2384,-216,17936,4.12,91.3
9467,2748,40,16512,4.12,91.3
9471,2092,-48,18192,4.12,91.3
9474,2096,-188,18468,4.12,91.3
9477,2260,112,18012,4.12,91.3
9482,2656,-72,16928,4.12,91.3
9485,2208,76,18044,4.12,91.3
9488,2160,60,17732,4.12,91.3
9491,2244,8,17856,4.12,91.3
9494,2308,12,18060,4.12,91.3
9497,2344,160,18160,4.12,91.3
9501,2340,-60,17932,4.12,91.3
9504,2124,-228,17316,4.12,91.3
9507,2076,-56,17584,4.12,91.3
9510,1952,-4,18020,4.12,91.3
9513,2048,-96,18244,4.12,91.3
9516,2216,-204,17872,4.12,91.3
9519,2144,-184,17572,4.12,91.3
9522,1924,-208,17932,4.12,91.3
9525,1852,-200,17760,4.12,91.3
9528,1868,-268,17848,4.12,91.3
9531,2060,-316,17640,4.12,91.3
9537,2092,-340,17792,4.12,91.3
9540,1928,-396,17740,4.12,91.3
9543,1840,-380,17668,4.12,91.3
9546,1900,-288,17860,4.12,91.3
9549,2108,-344,17888,4.12,91.3
9552,2320,-296,17680,4.12,91.3
9555,2168,-332,17868,4.12,91.3
9558,2020,-260,17868,4.12,91.3
9561,1856,-292,17924,4.12,91.3
9564,2032,-296,17776,4.12,91.3
9567,2176,-348,17776,4.12,91.3
9570,2172,-124,17808,4.12,91.3
9573,2052,-156,17872,4.12,91.3
9577,2080,-128,17848,4.12,91.3
9580,2068,-188,17720,4.12,91.3
9583,2128,-180,17832,4.12,91.3
9586,2156,-24,17660,4.12,91.3
9591,2072,-4,17904,4.12,91.3
9594,2016,-28,17984,4.12,91.3
9597,2048,-132,17880,4.12,91.3
9600,1956,-40,17668,4.12,91.3
9603,1956,68,17832,4.12,91.3
9606,1920,80,17912,4.12,91.3
9609,1920,68,17780,4.12,91.3
9612,2116,-52,17784,4.12,91.3
9615,1948,12,17788,4.12,91.3
9619,1936,-64,17856,4.12,91.3
9622,1884,-32,17692,4.12,91.3
9625,2072,-96,17792,4.12,91.3
9628,2016,88,17852,4.12,91.3
9631,2148,52,17832,4.12,91.3
9634,2048,80,17696,4.12,91.3
9637,2160,20,17944,4.12,91.3
9640,2144,-32,17704,4.12,91.3
9645,2128,-56,17852,4.12,91.3
9649,2072,0,17732,4.12,91.3
9652,2168,-60,17700,4.12,91.3
9655,2208,-52,17820,4.12,91.3
9658,2124,-140,17856,4.12,91.3
9661,2172,-20,17752,4.12,91.3
9664,2044,-132,17704,4.12,91.3
9667,2100,-124,17840,4.12,91.3
9670,2144,-144,17824,4.12,91.3
9673,2008,-252,17784,4.12,91.3
9676,2108,-280,17876,4.12,91.3
9679,2068,-244,17752,4.12,91.3
9682,2080,-160,17808,4.12,91.3
9686,2008,-264,17872,4.12,91.3
9689,1956,-344,17896,4.12,91.3
9692,1928,-280,17788,4.12,91.3
9695,1960,-176,17984,4.12,91.3
9700,1964,-264,17736,4.12,91.3
9703,2024,-232,17760,4.12,91.3
9706,1996,-72,17704,4.12,91.3
9709,1988,-136,17668,4.12,91.3
9712,1824,-244,17640,4.12,91.3
9716,1956,-84,17784,4.12,91.3
9719,1964,-192,17676,4.12,91.3
9722,2024,-200,17668,4.12,91.3
9725,1988,-184,17772,4.12,91.3
9728,1952,-116,17772,4.12,91.3
9731,2104,-132,17820,4.12,91.3
9734,2136,-184,17760,4.12,91.3
9737,2112,-60,17784,4.12,91.3
9740,2164,-144,17828,4.12,91.3
9743,2124,-96,17748,4.12,91.3
9746,2164,-120,17652,4.12,91.3
9749,2104,-152,17900,4.12,91.3
9755,2216,-104,17836,4.12,91.3
9758,2272,-28,17608,4.12,91.3
9761,2128,-220,17628,4.12,91.3
9764,2180,-72,17652,4.12,91.3
9767,2136,-60,17864,4.12,91.3
9770,2080,-104,17824,4.12,91.3
9773,2144,-56,17816,4.12,91.3
9776,2124,72,17776,4.12,91.3
9780,2080,-12,17876,4.12,91.3
9783,2032,-24,17892,4.12,91.3
9786,2060,56,17828,4.12,91.3
9789,2020,-68,17752,4.12,91.3
9792,2052,-8,17816,4.12,91.3
9795,2008,4,17728,4.12,91.3
9798,2128,48,18004,4.12,91.3
9801,2064,-24,17808,4.12,91.3
9804,2052,-88,18000,4.12,91.3
9810,1984,32,17712,4.12,91.3
9813,2036,-48,17732,4.12,91.3
9816,2076,-108,17884,4.12,91.3
9819,1964,-100,17840,4.12,91.3
9822,1976,-84,17832,4.12,91.3
9825,1900,-124,17912,4.12,91.3
9828,2000,-252,17888,4.12,91.3
9831,2000,-320,17760,4.12,91.3
9834,2064,-268,17704,4.12,91.3
9837,1880,-272,17768,4.12,91.3
9840,1916,-152,17776,4.12,91.3
9843,2012,-168,17872,4.12,91.3
9847,2076,-124,17764,4.12,91.3
9850,2124,-160,17868,4.12,91.3
9853,2076,-272,17724,4.12,91.3
9856,2048,-228,17704,4.12,91.3
9861,2064,-192,17808,4.12,91.3
9864,2084,-168,17752,4.12,91.3
9867,2056,-68,17676,4.12,91.3
9870,2088,-108,17844,4.12,91.3
9873,2016,-136,17852,4.12,91.3
9877,2108,-204,17920,4.12,91.3
9880,1992,-136,17740,4.12,91.3
9883,2188,-40,17816,4.12,91.3
9886,2052,24,17916,4.12,91.3
9889,2048,-68,17732,4.12,91.3
9892,1976,36,17792,4.12,91.3
9895,2020,-44,17796,4.12,91.3
9898,2080,36,17776,4.12,91.3
9901,2028,36,17752,4.12,91.3
9904,2052,-8,17708,4.12,91.3
9907,2040,4,17880,4.12,91.3
9910,2084,-24,17788,4.12,91.3
9913,2020,-136,17796,4.12,91.3
9919,2012,24,17772,4.12,91.3
9922,2064,24,17856,4.12,91.3
9925,2092,48,17828,4.12,91.3
9928,2080,-32,17808,4.12,91.3
9931,2140,-36,17648,4.12,91.3
9934,2028,-56,17784,4.12,91.3
9937,1968,-120,17860,4.12,91.3
9940,2104,-20,17612,4.12,91.3
9944,2060,-128,17824,4.12,91.3
9947,2112,-12,17820,4.12,91.3
9950,2108,-116,17728,4.12,91.3
9953,2072,-108,17832,4.12,91.3
9956,2080,-140,17880,4.12,91.3
9959,2140,-196,17676,4.12,91.3
9962,2128,-108,17716,4.12,91.3
9965,2136,-164,17656,4.12,91.3
9970,1944,-208,17768,4.12,91.3
9973,2112,-256,17800,4.12,91.3
9976,2036,-156,17832,4.12,91.3
9979,1968,-192,17960,4.12,91.3
9982,2048,-264,17860,4.12,91.3
9986,2056,-128,17884,4.12,91.3
9989,2000,-172,17688,4.12,91.3
9992,1968,-272,17800,4.12,91.3
9995,2020,-172,17728,4.12,91.3
9998,1896,-236,17808,4.12,91.3
10001,2044,-80,17880,4.12,91.3
10004,1912,-172,17908,4.12,91.3
10007,1984,-60,17752,4.12,91.3
10010,2092,-116,17744,4.12,91.3
10014,1904,-100,17816,4.12,91.3
10017,2072,-100,17632,4.12,91.3
10020,1928,-40,17676,4.12,91.3
10025,2036,-44,17792,4.12,91.3
10028,1960,-76,17788,4.12,91.3
10031,1996,-20,17764,4.12,91.3
10034,2064,-8,17616,4.12,91.3
10037,2076,-192,17836,4.12,91.3
10040,1992,4,17732,4.12,91.3
10043,1980,-84,17900,4.12,91.3
10046,2064,-96,17788,4.12,91.3
10049,2116,20,17896,4.12,91.3
10052,2096,-4,17772,4.12,91.3
10055,2132,-92,17752,4.12,91.3
10058,2092,-8,17936,4.12,91.3
10062,2108,-136,17732,4.12,91.3
10065,2120,-120,17768,4.12,91.3
10068,2196,-112,17796,4.12,91.3
10071,2088,-184,17804,4.12,91.3
10076,2064,-184,17872,4.12,91.3
10079,2088,-260,17832,4.12,91.3
10082,2088,-140,17884,4.12,91.3
10085,2024,-192,17740,4.12,91.3
10089,1980,-296,17676,4.12,91.3
10092,2080,-244,17836,4.12,91.3
10095,2000,-244,17760,4.12,91.3
10098,2032,-248,17808,4.12,91.3
10101,2096,-376,17784,4.12,91.3
10104,1988,-304,17728,4.12,91.3
10107,1980,-232,17792,4.12,91.3
10110,2036,-216,17836,4.12,91.3
10113,1968,-256,17780,4.12,91.3
10116,2068,-140,17724,4.12,91.3
10119,2004,-220,17780,4.12,91.3
10123,2020,-184,17736,4.12,91.3
10128,1984,-140,17740,4.12,91.3
10131,1988,-156,17736,4.12,91.3
10134,1952,-248,17832,4.12,91.3
10137,2000,-192,17808,4.12,91.3
10140,1976,-144,17968,4.12,91.3
10143,2072,-152,17696,4.12,91.3
10146,2080,-156,17808,4.12,91.3
10149,2048,-68,17948,4.12,91.3
10153,2012,-72,17792,4.12,91.3
10156,2044,-56,17804,4.12,91.3
10159,1984,-4,17872,4.12,91.3
10162,1996,0,17852,4.12,91.3
10165,2060,52,17828,4.12,91.3
10168,2052,-24,17728,4.12,91.3
10171,2072,-20,17696,4.12,91.3
10174,2040,20,17816,4.12,91.3
10177,2116,-4,17888,4.12,91.3
10183,1972,92,17876,4.12,91.3
10186,2020,76,17704,4.12,91.3
10189,2064,24,17820,4.12,91.3
10192,2068,-4,17872,4.12,91.3
10195,2020,-60,17752,4.12,91.3
10198,2076,-20,17796,4.12,91.3
10201,2196,16,17696,4.12,91.3
10204,2124,-28,17664,4.12,91.3
10207,2060,-64,17792,4.12,91.3
10210,2088,28,17916,4.12,91.3
10213,2168,-52,17772,4.12,91.3
10216,2052,4,17780,4.12,91.3
10219,2276,-8,17700,4.12,91.3
10223,2060,-96,17736,4.12,91.3
10226,2044,-112,17864,4.12,91.3
10229,2036,-160,17896,4.12,91.3
10232,2164,-128,17756,4.12,91.3
10237,2076,-128,17896,4.12,91.3
10240,2044,-144,17768,4.12,91.3
10243,2196,-204,17564,4.12,91.3
10246,2028,-60,17804,4.12,91.3
10250,2092,-224,17772,4.12,91.3
10253,2028,-188,17760,4.12,91.3
10256,1964,-228,17916,4.12,91.3
10259,1972,-140,17888,4.12,91.3
10262,1988,-336,17836,4.12,91.3
10265,1988,-276,17748,4.12,91.3
10268,1948,-192,17836,4.12,91.3
10271,1948,-280,17624,4.12,91.3
10274,1904,-260,17880,4.12,91.3
10277,1932,-236,17828,4.12,91.3
10280,1960,-312,17868,4.12,91.3
10283,2004,-220,17796,4.12,91.3
10289,2060,-88,17712,4.12,91.3
10292,2032,-72,17828,4.12,91.3
10295,2120,-88,17792,4.12,91.3
10298,2016,-108,17772,4.12,91.3
10301,2092,-168,17944,4.12,91.3
10304,2040,-172,17740,4.12,91.3
10307,2020,52,17640,4.12,91.3
10310,2068,0,17936,4.12,91.3
10314,2072,-104,17768,4.12,91.3
10317,2128,-64,17776,4.12,91.3
10320,2244,32,17804,4.12,91.3
10323,2192,-48,17864,4.12,91.3
10326,2228,40,17712,4.12,91.3
10329,2124,100,17660,4.12,91.3
10332,2008,-4,17696,4.12,91.3
10335,2140,-8,17744,4.12,91.3
10340,2016,44,17720,4.12,91.3
10344,2032,-32,17756,4.12,91.3
10347,2096,-80,17808,4.12,91.3
10350,2040,-24,17764,4.12,91.3
10353,2144,28,17752,4.12,91.3
10356,2204,-20,17872,4.12,91.3
10359,2108,0,17748,4.12,91.3
10362,1988,-124,17716,4.12,91.3
10365,1944,4,17828,4.12,91.3
10368,1964,-128,17880,4.12,91.3
10371,1992,-72,17868,4.12,91.3
10374,2040,-132,17644,4.12,91.3
10377,2128,-124,17840,4.12,91.3
10381,1980,-64,17828,4.12,91.3
10384,1964,-100,17736,4.12,91.3
10387,2048,-108,17956,4.12,91.3
10390,2024,-80,17892,4.12,91.3
10397,2012,-196,17784,4.12,91.3
10400,2060,-172,17668,4.12,91.3
10403,2144,-236,17904,4.12,91.3
10406,1968,-212,17756,4.12,91.3
10409,2052,-232,17928,4.12,91.3
10413,1992,-104,17680,4.12,91.3
10416,2024,-112,17848,4.12,91.3
10419,2040,-184,17884,4.12,91.3
10422,2048,-140,17932,4.12,91.3
10425,2156,-208,17752,4.12,91.3
10428,2108,-140,17804,4.12,91.3
10431,2016,-248,17768,4.12,91.3
10434,2108,-68,17772,4.12,91.3
10437,2052,-232,17784,4.12,91.3
10440,2092,-136,17856,4.12,91.3
10443,2028,-104,17736,4.12,91.3
10448,2092,24,17800,4.12,91.3
10452,2052,-28,17796,4.12,91.3
10455,1964,-80,17904,4.12,91.3
10458,1996,-156,17820,4.12,91.3
10461,2044,-68,17928,4.12,91.3
10464,2028,-120,17720,4.12,91.3
10467,2176,-52,17724,4.12,91.3
10470,2080,80,17696,4.12,91.3
10473,2084,-20,17804,4.12,91.3
10476,2208,-36,17708,4.12,91.3
10479,2124,-40,17924,4.12,91.3
10482,2088,-44,17904,4.12,91.3
10486,2072,-80,17780,4.12,91.3
10489,2028,-36,17908,4.12,91.3
10492,2000,-8,17672,4.12,91.3
10495,2096,48,17792,4.12,91.3
10500,1964,-84,17888,4.12,91.3
10503,2136,-68,17792,4.12,91.3
10506,2016,-28,17796,4.12,91.3
10509,1976,12,18008,4.12,91.3
10512,2064,-140,17820,4.12,91.3
10515,2064,-208,17692,4.12,91.3
10519,2036,-40,17788,4.12,91.3
10522,1956,-132,17772,4.12,91.3
10525,2088,-64,17772,4.12,91.3
10528,2048,-140,17908,4.12,91.3
10531,1984,-132,17720,4.12,91.3
10534,1964,-104,17700,4.12,91.3
10537,1924,-60,17880,4.12,91.3
10540,2040,-160,17736,4.12,91.3
10543,2012,-240,17864,4.12,91.3
10546,1952,-84,17912,4.12,91.3
10549,1980,-188,17856,4.12,91.3
10555,2108,-184,17712,4.12,91.3
10558,2032,-192,17952,4.12,91.3
10561,2072,-164,17780,4.12,91.3
10564,2080,-304,17680,4.12,91.3
10567,2084,-160,17764,4.12,91.3
10570,1920,-100,17732,4.12,91.3
10573,2056,-220,17676,4.12,91.3
10576,1980,-212,17728,4.12,91.3
10580,2032,-180,17804,4.12,91.3
10583,2128,-248,17892,4.12,91.3
10586,2012,-220,17888,4.12,91.3
10589,1924,-164,17792,4.12,91.3
10592,2036,-164,17772,4.12,91.3
10595,1972,-260,17816,4.12,91.3
10598,1976,-260,17756,4.12,91.3
10601,2008,-192,17728,4.12,91.3
10606,2040,-216,17716,4.12,91.3
10610,2028,-148,17860,4.12,91.3
10613,1980,-184,17760,4.12,91.3
10616,2044,-88,17848,4.12,91.3
10619,2108,-168,17944,4.12,91.3
10622,2080,-256,17912,4.12,91.3
10625,2008,-192,17820,4.12,91.3
10628,2124,-176,17716,4.12,91.3
10631,2020,-48,17820,4.12,91.3
10634,2112,-148,17900,4.12,91.3
10637,2204,-176,17928,4.12,91.3
10640,2264,-40,17816,4.12,91.3
10644,2044,-40,17728,4.12,91.3
10647,2064,-32,17888,4.12,91.3
10650,2056,-64,17824,4.12,91.3
10653,2124,-64,17680,4.12,91.3
10658,2048,52,17648,4.12,91.3
10661,2128,-12,17856,4.12,91.3
10664,2072,-76,17768,4.12,91.3
10667,2048,8,17776,4.12,91.3
10670,2092,-44,17800,4.12,91.3
10674,2060,84,17768,4.12,91.3
10677,2140,-16,17988,4.12,91.3
10680,2092,52,17804,4.12,91.3
10683,2072,-88,17672,4.12,91.3
10686,2080,56,17756,4.12,91.3
10689,2008,-104,17780,4.12,91.3
10692,1948,24,17824,4.12,91.3
10695,2016,-140,17796,4.12,91.3
10698,2132,-188,17820,4.12,91.3
10701,2056,-100,17768,4.12,91.3
10704,2104,-176,17680,4.12,91.3
10710,2016,-60,17860,4.12,91.3
10713,2052,-152,17772,4.12,91.3
10716,2092,-132,17816,4.12,91.3
10719,2108,-180,17688,4.12,91.3
10722,1996,-124,17716,4.12,91.3
10725,2016,-236,17928,4.12,91.3
10728,2072,-208,17780,4.12,91.3
10731,2044,-304,17876,4.12,91.3
10735,2048,-12,17752,4.12,91.3
10738,2072,-256,17508,4.12,91.3
10741,1800,-312,18316,4.12,91.3
10744,1964,-200,17804,4.12,91.3
10747,1908,-160,17992,4.12,91.3
10750,2144,-196,17416,4.12,91.3
10753,1808,-132,18020,4.12,91.3
10756,1892,-88,18008,4.12,91.3
10759,2000,-52,17692,4.12,91.3
10765,1972,-120,17688,4.12,91.3
10768,1992,-100,17904,4.12,91.3
10771,1988,-48,17740,4.12,91.3
10774,2096,-128,17664,4.12,91.3
10777,2024,40,17816,4.12,91.3
10780,2060,-36,17868,4.12,91.3
10783,2064,-64,17788,4.12,91.3
10786,2104,-116,17892,4.12,91.3
10789,2044,-24,17836,4.12,91.3
10792,2068,-88,17720,4.12,91.3
10795,1988,-52,17920,4.12,91.3
10798,1988,-64,17944,4.12,91.3
10802,2164,-200,17900,4.12,91.3
10805,2256,-88,17696,4.12,91.3
10808,2144,-40,17828,4.12,91.3
10811,2188,-64,17640,4.12,91.3
10816,2020,132,17680,4.12,91.3
10819,2152,-304,17888,4.12,91.3
10822,2188,132,18352,4.12,91.3
10825,2260,-104,17300,4.12,91.3
10828,2192,-52,17704,4.12,91.3
10832,2028,-88,17596,4.12,91.3
10835,2088,-20,18424,4.12,91.3
10838,2196,-200,17592,4.12,91.3
10841,2140,-68,17652,4.12,91.3
10844,2016,-96,17828,4.12,91.3
10847,2112,-216,17988,4.12,91.3
10850,2268,-80,17632,4.12,91.3
10853,2196,-136,17632,4.12,91.3
10856,2140,-216,17788,4.12,91.3
10859,1976,-80,18064,4.12,91.3
10862,1984,-124,17772,4.12,91.3
10867,2116,-248,17744,4.12,91.3
10871,2076,-136,17768,4.12,91.3
10874,1996,-252,17800,4.12,91.3
10877,2060,-264,17648,4.12,91.3
10880,2032,-176,17664,4.12,91.3
10883,1980,-192,17792,4.12,91.3
10886,2012,-216,17812,4.12,91.3
10889,1952,-196,17856,4.12,91.3
10892,2004,-156,17920,4.12,91.3
10895,2000,-152,17820,4.12,91.3
10898,1980,-320,17692,4.12,91.3
10901,2004,-272,17588,4.12,91.3
10905,2000,-152,17800,4.12,91.3
10908,1984,-248,17924,4.12,91.3
10911,2000,-168,17876,4.12,91.3
10914,2104,-240,17792,4.12,91.3
10919,2036,-128,17824,4.12,91.3
10922,2016,-24,17892,4.12,91.3
10925,2032,-16,17928,4.12,91.3
10928,2036,-64,17688,4.12,91.3
10931,2188,-148,17904,4.12,91.3
10935,1980,-68,17708,4.12,91.3
10938,1968,-56,17832,4.12,91.3
10941,2012,40,18012,4.12,91.3
10944,2004,52,17864,4.12,91.3
10947,2016,-16,17760,4.12,91.3
10950,2048,24,17748,4.12,91.3
10953,2056,4,17728,4.12,91.3
10956,2028,-12,17736,4.12,91.3
10959,2032,12,17752,4.12,91.3
10962,2088,-28,17752,4.12,91.3
10965,1964,60,17700,4.12,91.3
10968,2040,40,17888,4.12,91.3
10974,2000,8,17688,4.12,91.3
10977,1888,12,17776,4.12,91.3
10980,2012,-108,17836,4.12,91.3
10983,1936,-32,17832,4.12,91.3
10986,2108,-28,17740,4.12,91.3
10989,2004,-20,17920,4.12,91.3
10992,2104,-64,17892,4.12,91.3
10995,2004,-276,17924,4.12,91.3
10998,1988,-276,17848,4.12,91.3
11002,1960,-212,17780,4.12,91.3
11005,2032,-128,17796,4.12,91.3
11008,2040,-144,17752,4.12,91.3
11011,2060,-204,17748,4.12,91.3
11014,2048,-228,17800,4.12,91.3
11017,2100,-196,17844,4.12,91.3
11020,2116,-204,17856,4.12,91.3
11025,2172,-156,17752,4.12,91.3
11028,2088,-272,17740,4.12,91.3
11031,2152,-192,17904,4.12,91.3
11034,2088,-196,17888,4.12,91.3
11038,2144,-180,17692,4.12,91.3
11041,2128,-136,17644,4.12,91.3
11044,2164,-172,18052,4.12,91.3
11047,2128,-136,17668,4.12,91.3
11050,2244,-156,17812,4.12,91.3
11053,2140,-156,17796,4.12,91.3
11056,2072,-56,17880,4.12,91.3
11059,2164,-184,17816,4.12,91.3
11062,2124,-108,17876,4.12,91.3
11066,2044,-8,17852,4.12,91.3
11069,2224,48,17828,4.12,91.3
11072,2268,-184,17800,4.12,91.3
11077,1992,-132,17820,4.12,91.3
11080,2076,-60,17768,4.12,91.3
11083,2016,84,17780,4.12,91.3
11086,2080,-8,17656,4.12,91.3
11089,1996,-20,17676,4.12,91.3
11092,2068,-44,17876,4.12,91.3
11096,2044,-64,17884,4.12,91.3
11099,2028,-48,17908,4.12,91.3
11102,1952,-120,17796,4.12,91.3
11105,2084,-72,17760,4.12,91.3
11108,2168,-164,17868,4.12,91.3
11111,1944,-140,17820,4.12,91.3
11114,1876,-4,17764,4.12,91.3
11117,2076,-144,17796,4.12,91.3
11120,2040,-148,17772,4.12,91.3
11123,2040,-156,17868,4.12,91.3
11126,2000,-192,17712,4.12,91.3
11132,2044,-124,17804,4.12,91.3
11135,1896,-196,17920,4.12,91.3
11138,2012,-132,17828,4.12,91.3
11141,2080,-188,17796,4.12,91.3
11144,1992,-140,17820,4.12,91.3
11147,2052,-184,17740,4.12,91.3
11150,2056,-224,17784,4.12,91.3
11153,2044,-44,17728,4.12,91.3
11156,2080,-152,17688,4.12,91.3
11160,2084,-112,17844,4.12,91.3
11163,2140,-184,17836,4.12,91.3
11166,2144,-184,17792,4.12,91.3
11169,2112,-204,17684,4.12,91.3
11172,2124,-148,17740,4.12,91.3
11175,2100,-92,17840,4.12,91.3
11178,2076,-200,17876,4.12,91.3
11183,2028,-164,17744,4.12,91.3
11186,2096,-92,17904,4.12,91.3
11189,2084,-48,17904,4.12,91.3
11192,2116,-112,17784,4.12,91.3
11196,2032,-184,17716,4.12,91.3
11199,2064,-44,17832,4.12,91.3
11202,2100,-144,17816,4.12,91.3
11205,2020,-44,17828,4.12,91.3
11208,2052,-88,17752,4.12,91.3
11211,2120,-132,17900,4.12,91.3
11214,2076,-112,17780,4.12,91.3
11217,2180,-72,17748,4.12,91.3
11220,2116,40,17748,4.12,91.3
11224,2016,-52,17672,4.12,91.3
11227,2048,-48,17808,4.12,91.3
11230,2060,-88,17736,4.12,91.3
11235,1964,-52,17748,4.12,91.3
11238,1944,-96,17892,4.12,91.3
11241,2048,-72,17592,4.12,91.3
11244,1996,68,18004,4.12,91.3
11247,1956,-140,17856,4.12,91.3
11250,2016,36,17696,4.12,91.3
11253,1892,64,17852,4.12,91.3
11256,1916,32,17720,4.12,91.3
11260,1968,4,17844,4.12,91.3
11263,1972,-24,17740,4.12,91.3
11266,2100,40,17836,4.12,91.3
11269,2088,60,17848,4.12,91.3
11272,1964,-24,17804,4.12,91.3
11275,1876,-32,17804,4.12,91.3
11278,1892,-60,17780,4.12,91.3
11281,2032,-192,17636,4.12,91.3
11284,1876,-256,17728,4.12,91.3
11289,1876,-296,17860,4.12,91.3
11292,1996,-332,17708,4.12,91.3
11295,1984,-436,17928,4.12,91.3
11298,1980,-420,17760,4.12,91.3
11302,2020,-428,17844,4.12,91.3
11305,1972,-524,17876,4.12,91.3
11308,2120,-580,17788,4.12,91.3
11311,2080,-500,17656,4.12,91.3
11314,2156,-512,17760,4.12,91.3
11317,2104,-496,17924,4.12,91.3
11320,2344,-528,17720,4.12,91.3
11323,2324,-428,17820,4.12,91.3
11326,2248,-420,17860,4.12,91.3
11329,2392,-352,17752,4.12,91.3
11332,2288,-176,17820,4.12,91.3
11335,2344,-380,17700,4.12,91.3
11341,2268,-156,17696,4.12,91.3
11344,2216,-28,17840,4.12,91.3
11347,2320,-116,17684,4.12,91.3
11350,2236,8,17924,4.12,91.3
11353,2288,84,17804,4.12,91.3
11356,2180,0,17704,4.12,91.3
11359,2204,172,17764,4.12,91.3
11362,2148,208,17656,4.12,91.3
11366,2136,220,17904,4.12,91.3
11369,2072,248,17652,4.12,91.3
11372,2104,224,17740,4.12,91.3
11375,2056,240,17748,4.12,91.3
11378,1880,264,17712,4.12,91.3
11381,1864,88,17724,4.12,91.3
11384,1908,164,17860,4.12,91.3
11387,1904,112,17784,4.12,91.3
11392,1896,180,17756,4.12,91.3
11395,1832,120,17728,4.12,91.3
11398,1768,44,17904,4.12,91.3
11402,1880,172,17676,4.12,91.3
11405,1860,76,17568,4.12,91.3
11408,1776,-84,17832,4.12,91.3
11411,1820,104,17872,4.12,91.3
11414,1932,-76,17880,4.12,91.3
11417,1940,-112,17492,4.12,91.3
11420,2152,-672,17960,4.12,91.3
11423,1828,224,18476,4.12,91.3
11426,2280,-344,15540,4.12,91.3
11429,1220,-316,19904,4.12,91.3
11432,2132,-108,17628,4.12,91.3
11436,2080,-404,17904,4.12,91.3
11439,2428,-512,16740,4.12,91.3
11442,2056,-316,17652,4.12,91.3
11447,2112,-612,17564,4.12,91.3
11450,2288,-500,17996,4.12,91.3
11453,2248,-228,17292,4.12,91.3
11456,2068,-464,18176,4.12,91.3
11459,2216,-444,18052,4.12,91.3
11463,1944,-464,18084,4.12,91.3
11466,2404,-304,17280,4.12,91.3
11469,2340,-160,17540,4.12,91.3
11472,2036,-312,18284,4.12,91.3
11475,2380,-180,17616,4.12,91.3
11478,2160,-168,17740,4.12,91.3
11481,2352,-148,17672,4.12,91.3
11484,2100,-120,17996,4.12,91.3
11487,2120,-164,18064,4.12,91.3
11490,2360,-28,17648,4.12,91.3
11493,2144,0,17796,4.12,91.3
11499,2204,56,17644,4.12,91.3
11502,2028,96,17608,4.12,91.3
11505,2024,76,18064,4.12,91.3
11508,2148,52,17924,4.12,91.3
11511,2148,132,17644,4.12,91.3
11514,2188,168,17508,4.12,91.3
11517,2016,112,17756,4.12,91.3
11520,1888,172,18112,4.12,91.3
11523,2072,164,17944,4.12,91.3
11527,2064,116,17436,4.12,91.3
11530,2028,136,17596,4.12,91.3
11533,1760,76,17964,4.12,91.3
11536,1656,48,18100,4.12,91.3
11539,1920,36,17692,4.12,91.3
11542,1936,80,17512,4.12,91.3
11545,1876,72,17504,4.12,91.3
11548,1720,-56,17916,4.12,91.3
11554,1824,-76,17844,4.12,91.3
11557,2004,-52,17392,4.12,91.3
11560,1960,-140,17700,4.12,91.3
11563,1640,-212,18020,4.12,91.3
11566,1660,-184,17908,4.12,91.3
11569,1940,-336,18032,4.12,91.3
11572,2020,-340,17476,4.12,91.3
11575,2036,-340,17400,4.12,91.3
11578,1864,-236,18012,4.12,91.3
11581,1944,-228,17980,4.12,91.3
11584,1988,-408,17940,4.12,91.3
11587,2080,-296,17688,4.12,91.3
11591,2148,-144,17696,4.12,91.3
11594,2088,-384,17900,4.12,91.3
11597,2168,-320,17836,4.12,91.3
11600,2128,-280,17660,4.12,91.3
11605,2204,-212,17844,4.12,91.3
11608,2300,-152,17980,4.12,91.3
11611,2280,-108,17864,4.12,91.3
11614,2344,-188,17756,4.12,91.3
11618,2316,-80,17720,4.12,91.3
11621,2352,-184,17808,4.12,91.3
11624,2352,-148,17840,4.12,91.3
11627,2248,-40,17784,4.12,91.3
11630,2376,-180,17740,4.12,91.3
11633,2268,-28,17844,4.12,91.3
11636,2280,-8,18008,4.12,91.3
11639,2092,40,17908,4.12,91.3
11642,2232,112,17728,4.12,91.3
11645,2192,68,17792,4.12,91.3
11648,2100,100,17876,4.12,91.3
11651,1996,8,17756,4.12,91.3
11657,2024,108,17940,4.12,91.3
11660,1964,8,17676,4.12,91.3
11663,2028,48,17820,4.12,91.3
11666,1960,-40,17844,4.12,91.3
11669,1900,-128,17876,4.12,91.3
11672,1944,-36,17796,4.12,91.3
11675,1952,-124,17732,4.12,91.3
11678,1984,-136,17856,4.12,91.3
11681,1956,-188,17872,4.12,91.3
11685,1800,-172,17760,4.12,91.3
11688,1868,-40,17788,4.12,91.3
11691,1952,-224,17788,4.12,91.3
11694,1924,-192,17792,4.12,91.3
11697,2048,-192,17772,4.12,91.3
11700,1872,-244,17780,4.12,91.3
11703,2052,-152,17616,4.12,91.3
11706,1984,-196,17788,4.12,91.3
11711,1960,-272,17900,4.12,91.3
11714,2024,-324,17796,4.12,91.3
11717,2028,-292,17744,4.12,91.3
11720,2028,-376,17840,4.12,91.3
11723,2096,-276,17772,4.12,91.3
11727,2032,-148,17804,4.12,91.3
11730,2128,-260,17844,4.12,91.3
11733,2116,-248,17772,4.12,91.3
11736,2124,-248,18052,4.12,91.3
11739,2088,-232,17912,4.12,91.3
11742,2164,-88,17848,4.12,91.3
11745,2148,-96,17712,4.12,91.3
11748,2072,-108,17828,4.12,91.3
11751,2132,-40,17808,4.12,91.3
11754,2060,-108,17764,4.12,91.3
11757,2224,24,17664,4.12,91.3
11763,2280,-16,17560,4.12,91.3
11766,2160,-88,17576,4.12,91.3
11769,1856,80,18584,4.12,91.3
11772,2060,-76,18024,4.12,91.3
11775,1908,-28,18376,4.12,91.3
11778,2156,12,17680,4.12,91.3
11781,2452,104,16736,4.12,91.3
11784,2184,120,17320,4.12,91.3
11787,1880,-56,17900,4.12,91.3
11791,1680,108,18868,4.12,91.3
11794,2020,-168,18248,4.12,91.3
11797,2228,-40,18044,4.12,91.3
11800,2348,80,17288,4.12,91.3
11803,2024,-68,17504,4.12,91.3
11806,1848,-164,17800,4.12,91.3
11809,1804,-60,17916,4.12,91.3
11814,2088,-104,17808,4.12,91.3
11817,2144,-236,17812,4.12,91.3
11820,1944,-264,17976,4.12,91.3
11823,1728,-148,17996,4.12,91.3
11827,1784,-116,17784,4.12,91.3
11830,2056,-96,17764,4.12,91.3
11833,2036,-228,17568,4.12,91.3
11836,2048,-160,17556,4.12,91.3
11839,1832,-212,17888,4.12,91.3
11842,1704,-240,18276,4.12,91.3
11845,1892,-276,18140,4.12,91.3
11848,2132,-72,17608,4.12,91.3
11851,2024,-184,17572,4.12,91.3
11855,1956,-280,17568,4.12,91.3
11858,1872,-232,17948,4.12,91.3
11861,1996,-236,17952,4.12,91.3
11866,2156,-196,17940,4.12,91.3
11869,2076,-208,17932,4.12,91.3
11872,2068,-208,17660,4.12,91.3
11875,1956,-188,17780,4.12,91.3
11878,2004,-220,17792,4.12,91.3
11881,2188,-256,17772,4.12,91.3
11884,2128,-176,17876,4.12,91.3
11887,2204,-148,17708,4.12,91.3
11891,2088,-260,18044,4.12,91.3
11894,2092,-216,17940,4.12,91.3
11897,2184,-120,17600,4.12,91.3
11900,2176,-160,17816,4.12,91.3
11903,2208,-92,17612,4.12,91.3
11906,2200,-48,17652,4.12,91.3
11909,2192,-120,17808,4.12,91.3
11912,2232,-20,18172,4.12,91.3
11918,2200,-76,18076,4.12,91.3
11921,2268,-116,17688,4.12,91.3
11924,2200,-8,17536,4.12,91.3
11927,2164,-40,17728,4.12,91.3
11930,2200,-116,17728,4.12,91.3
11933,2164,-116,17956,4.12,91.3
11936,2180,-80,17976,4.12,91.3
11939,1960,28,17832,4.12,91.3
11942,2072,-92,17876,4.12,91.3
11945,2120,-140,17724,4.12,91.3
11948,2040,-124,17776,4.12,91.3
11951,2076,-56,17804,4.12,91.3
11954,2028,-148,17816,4.12,91.3
11958,2036,-112,17772,4.12,91.3
11961,2168,-108,17744,4.12,91.3
11964,2004,-132,17888,4.12,91.3
11967,1936,-148,17928,4.12,91.3
11972,1980,-184,17812,4.12,91.3
11975,2044,-160,17784,4.12,91.3
11978,2008,-148,17676,4.12,91.3
11981,1916,-156,17912,4.12,91.3
11985,2000,-92,17808,4.12,91.3
11988,2020,-180,17888,4.12,91.3
11991,2048,-120,17804,4.12,91.3
11994,1960,-112,17544,4.12,91.3
11997,2020,-68,17480,4.12,91.3
12000,2004,-268,17568,4.12,91.3
