timestamp_ms,global_ms,accel_x,accel_y,accel_z,accel_mag,temp_c,voltage,soc,loop_us
3,1830003,17056,-604,932,17092.12,26.84,-1.00,-1.0,2505
6,1830006,17048,-520,924,17080.94,26.79,-1.00,-1.0,2379
9,1830009,17028,-596,868,17060.52,26.88,-1.00,-1.0,2368
12,1830012,16996,-584,1008,17035.88,26.98,-1.00,-1.0,2359
15,1830015,16996,-432,752,17018.11,26.88,-1.00,-1.0,2364
18,1830018,16992,-604,928,17028.04,26.88,-1.00,-1.0,2358
21,1830021,16964,-520,876,16994.56,26.88,-1.00,-1.0,2365
24,1830024,16960,-532,1096,17003.70,26.88,-1.00,-1.0,2357
27,1830027,17056,-496,904,17087.14,26.88,-1.00,-1.0,2365
30,1830030,16924,-524,896,16955.80,26.88,-1.00,-1.0,2358
33,1830033,17088,-616,896,17122.56,26.88,-1.00,-1.0,2364
36,1830036,17032,-548,1000,17070.13,26.88,-1.00,-1.0,2359
39,1830039,17068,-528,1028,17107.08,26.88,-1.00,-1.0,2365
42,1830042,17016,-644,900,17051.95,26.88,-1.00,-1.0,2357
45,1830045,17020,-504,1004,17057.04,26.88,-1.00,-1.0,2371
48,1830048,16904,-516,1088,16946.84,26.88,-1.00,-1.0,2366
51,1830051,16976,-680,996,17018.78,26.88,-1.00,-1.0,2371
54,1830054,16996,-664,944,17035.14,26.98,-1.00,-1.0,2366
57,1830057,17196,-584,984,17234.03,26.93,-1.00,-1.0,2372
60,1830060,17124,-520,864,17153.67,26.93,-1.00,-1.0,2364
63,1830063,17048,-560,908,17081.35,26.93,-1.00,-1.0,2372
66,1830066,17072,-540,1072,17114.14,26.84,-1.00,-1.0,2366
69,1830069,17052,-664,1036,17096.34,26.93,-1.00,-1.0,2372
72,1830072,17060,-536,1024,17099.11,26.93,-1.00,-1.0,2366
75,1830075,17044,-576,988,17082.33,26.93,-1.00,-1.0,2372
78,1830078,17092,-496,996,17128.18,26.93,-1.00,-1.0,2365
81,1830081,17016,-612,1064,17060.21,27.02,-1.00,-1.0,2367
84,1830084,17040,-520,868,17070.02,26.84,-1.00,-1.0,2366
87,1830087,17036,-532,940,17070.21,26.84,-1.00,-1.0,2371
90,1830090,17100,-544,996,17137.62,26.93,-1.00,-1.0,2365
93,1830093,17052,-548,904,17084.74,26.74,-1.00,-1.0,2360
96,1830096,16960,-568,980,16997.78,26.84,-1.00,-1.0,2360
99,1830099,17028,-516,980,17063.98,26.84,-1.00,-1.0,2375
102,1830102,17108,-564,1040,17148.86,26.93,-1.00,-1.0,2370
105,1830105,16932,-536,896,16964.16,26.93,-1.00,-1.0,2373
108,1830108,17052,-496,856,17080.68,26.93,-1.00,-1.0,2368
111,1830111,16996,-492,876,17025.67,26.84,-1.00,-1.0,2373
114,1830114,16932,-480,916,16963.55,26.84,-1.00,-1.0,2367
117,1830117,16996,-544,852,17026.04,26.88,-1.00,-1.0,2372
120,1830120,17080,-568,884,17112.29,26.88,-1.00,-1.0,2366
123,1830123,17096,-500,992,17132.05,26.88,-1.00,-1.0,2371
126,1830126,17032,-536,900,17064.18,26.98,-1.00,-1.0,2366
129,1830129,16956,-528,1092,16999.33,26.88,-1.00,-1.0,2371
132,1830132,17172,-536,1012,17210.14,26.88,-1.00,-1.0,2365
135,1830135,17068,-492,824,17094.96,26.88,-1.00,-1.0,2372
138,1830138,17020,-580,936,17055.58,26.98,-1.00,-1.0,2365
141,1830141,16944,-576,928,16979.17,26.88,-1.00,-1.0,2372
144,1830144,17016,-616,1012,17057.19,26.79,-1.00,-1.0,2366
147,1830147,17036,-592,896,17069.81,26.88,-1.00,-1.0,2368
150,1830150,17124,-544,1184,17173.50,26.88,-1.00,-1.0,2361
153,1830153,16944,-552,836,16973.59,26.88,-1.00,-1.0,2369
156,1830156,17032,-524,1100,17075.53,26.88,-1.00,-1.0,2364
159,1830159,17068,-620,920,17104.02,26.88,-1.00,-1.0,2351
162,1830162,17024,-544,952,17059.27,26.88,-1.00,-1.0,2346
165,1830165,16932,-580,812,16961.38,26.98,-1.00,-1.0,2368
168,1830168,17124,-532,980,17160.27,26.79,-1.00,-1.0,2361
171,1830171,17028,-584,964,17065.26,26.88,-1.00,-1.0,2368
174,1830174,17032,-548,1052,17073.25,26.79,-1.00,-1.0,2361
177,1830177,17060,-556,1056,17101.69,26.88,-1.00,-1.0,2364
180,1830180,16908,-580,948,16944.48,26.98,-1.00,-1.0,2359
183,1830183,17012,-532,1000,17049.67,26.88,-1.00,-1.0,2365
186,1830186,17080,-516,900,17111.48,26.79,-1.00,-1.0,2358
189,1830189,17000,-496,1028,17038.28,26.84,-1.00,-1.0,2353
192,1830192,17020,-492,1044,17059.09,26.93,-1.00,-1.0,2346
195,1830195,17064,-588,1016,17104.33,26.84,-1.00,-1.0,2367
198,1830198,17056,-600,1036,17097.96,26.84,-1.00,-1.0,2358
201,1830201,17032,-584,916,17066.61,26.93,-1.00,-1.0,2366
204,1830204,17020,-516,872,17050.13,26.93,-1.00,-1.0,2359
207,1830207,17000,-612,860,17032.74,26.93,-1.00,-1.0,2369
210,1830210,16992,-508,1092,17034.63,26.93,-1.00,-1.0,2359
238,1830238,17028,-500,1076,17069.29,26.84,-1.00,-1.0,2450
241,1830241,16968,-572,1068,17011.20,26.84,-1.00,-1.0,2373
243,1830243,17028,-556,832,17057.38,26.88,-1.00,-1.0,2362
246,1830246,17012,-532,1052,17052.80,26.93,-1.00,-1.0,2364
249,1830249,16996,-456,924,17027.21,26.88,-1.00,-1.0,2360
251,1830251,17036,-560,916,17069.80,26.84,-1.00,-1.0,2378
254,1830254,16984,-608,940,17020.86,26.98,-1.00,-1.0,2369
256,1830256,16972,-572,1016,17012.00,26.88,-1.00,-1.0,2361
259,1830259,17028,-556,968,17064.55,26.93,-1.00,-1.0,2364
262,1830262,17044,-672,1048,17089.41,26.98,-1.00,-1.0,2343
264,1830264,17048,-564,1056,17089.98,26.93,-1.00,-1.0,2370
267,1830267,16908,-520,888,16939.29,26.79,-1.00,-1.0,2365
269,1830269,17004,-604,1092,17049.73,26.88,-1.00,-1.0,2360
272,1830272,16956,-556,1044,16997.21,26.93,-1.00,-1.0,2354
275,1830275,17088,-484,1048,17126.95,26.88,-1.00,-1.0,2356
277,1830277,17004,-604,820,17034.47,26.93,-1.00,-1.0,2372
280,1830280,16972,-608,860,17004.65,26.84,-1.00,-1.0,2365
282,1830282,17016,-588,896,17049.72,26.98,-1.00,-1.0,2356
285,1830285,16972,-644,868,17006.38,26.93,-1.00,-1.0,2358
288,1830288,17028,-604,864,17060.60,26.79,-1.00,-1.0,2356
290,1830290,17052,-536,832,17080.70,26.79,-1.00,-1.0,2364
293,1830293,17040,-568,888,17072.57,26.84,-1.00,-1.0,2364
295,1830295,17000,-524,1064,17041.32,26.88,-1.00,-1.0,2364
298,1830298,16968,-528,1000,17005.64,26.93,-1.00,-1.0,2363
301,1830301,17012,-464,1020,17048.87,26.79,-1.00,-1.0,2365
303,1830303,17020,-592,852,17051.59,26.88,-1.00,-1.0,2356
306,1830306,16988,-464,876,17016.90,26.84,-1.00,-1.0,2367
308,1830308,17008,-552,1072,17050.69,26.98,-1.00,-1.0,2360
311,1830311,16992,-536,848,17021.59,26.93,-1.00,-1.0,2372
313,1830313,17048,-564,944,17083.43,26.88,-1.00,-1.0,2359
316,1830316,17060,-576,1000,17098.99,26.79,-1.00,-1.0,2364
319,1830319,16920,-668,864,16955.21,26.84,-1.00,-1.0,2359
321,1830321,16984,-460,900,17014.05,26.88,-1.00,-1.0,2364
324,1830324,16964,-572,980,17001.91,26.84,-1.00,-1.0,2363
326,1830326,16976,-548,992,17013.79,26.88,-1.00,-1.0,2367
329,1830329,16984,-568,896,17017.10,26.88,-1.00,-1.0,2360
332,1830332,16940,-492,904,16971.24,26.84,-1.00,-1.0,2368
334,1830334,16944,-616,1108,16991.36,26.88,-1.00,-1.0,2360
337,1830337,17032,-620,956,17070.07,26.84,-1.00,-1.0,2367
339,1830339,17128,-488,940,17160.71,26.98,-1.00,-1.0,2364
342,1830342,16992,-640,916,17028.70,26.88,-1.00,-1.0,2363
345,1830345,16948,-628,1072,16993.48,26.84,-1.00,-1.0,2356
347,1830347,17040,-568,1052,17081.89,26.88,-1.00,-1.0,2364
350,1830350,17044,-504,804,17070.39,26.93,-1.00,-1.0,2371
352,1830352,17000,-604,1052,17043.22,26.88,-1.00,-1.0,2365
355,1830355,17048,-592,872,17080.55,26.88,-1.00,-1.0,2366
358,1830358,16944,-576,1024,16984.68,26.84,-1.00,-1.0,2356
360,1830360,16980,-444,928,17011.13,26.88,-1.00,-1.0,2367
363,1830363,16968,-556,996,17006.30,26.84,-1.00,-1.0,2372
365,1830365,17012,-572,840,17042.33,26.88,-1.00,-1.0,2369
368,1830368,16928,-472,1060,16967.72,26.88,-1.00,-1.0,2365
371,1830371,17004,-564,892,17036.72,26.93,-1.00,-1.0,2357
373,1830373,16896,-504,920,16928.53,26.88,-1.00,-1.0,2366
376,1830376,16980,-616,996,17020.34,26.84,-1.00,-1.0,2373
378,1830378,17056,-580,908,17090.00,26.79,-1.00,-1.0,2365
381,1830381,17012,-512,912,17044.12,26.84,-1.00,-1.0,2371
384,1830384,16944,-564,868,16975.59,26.84,-1.00,-1.0,2356
386,1830386,16948,-624,928,16984.85,26.88,-1.00,-1.0,2364
389,1830389,17056,-544,1044,17096.58,26.84,-1.00,-1.0,2372
391,1830391,17068,-488,900,17098.68,26.88,-1.00,-1.0,2365
394,1830394,17016,-576,836,17046.26,26.84,-1.00,-1.0,2366
397,1830397,17076,-608,964,17113.99,26.84,-1.00,-1.0,2356
399,1830399,17096,-496,976,17131.02,26.88,-1.00,-1.0,2367
402,1830402,16976,-640,972,17015.84,26.79,-1.00,-1.0,2379
405,1830405,16908,-596,988,16947.32,26.79,-1.00,-1.0,2381
408,1830408,17068,-500,864,17097.17,26.88,-1.00,-1.0,2372
411,1830411,16992,-672,1072,17039.04,26.79,-1.00,-1.0,2373
414,1830414,16988,-520,832,17016.31,26.79,-1.00,-1.0,2373
417,1830417,16928,-620,936,16965.19,26.98,-1.00,-1.0,2372
420,1830420,17164,-600,920,17199.11,26.88,-1.00,-1.0,2372
432,1830432,16980,-532,912,17012.79,26.88,-1.00,-1.0,2444
435,1830435,17012,-564,1012,17051.40,26.88,-1.00,-1.0,2381
438,1830438,17120,-540,884,17151.31,26.93,-1.00,-1.0,2357
440,1830440,17000,-512,1080,17041.96,26.88,-1.00,-1.0,2365
443,1830443,16972,-492,868,17001.30,26.88,-1.00,-1.0,2360
445,1830445,16952,-552,976,16989.04,26.84,-1.00,-1.0,2365
448,1830448,17104,-572,968,17140.92,26.98,-1.00,-1.0,2360
451,1830451,17044,-592,1032,17085.47,26.93,-1.00,-1.0,2366
453,1830453,16940,-460,932,16971.85,26.84,-1.00,-1.0,2358
456,1830456,17052,-564,872,17083.59,26.88,-1.00,-1.0,2367
458,1830458,17072,-588,976,17109.98,26.93,-1.00,-1.0,2357
461,1830461,16996,-556,924,17030.18,26.88,-1.00,-1.0,2373
463,1830463,17012,-528,948,17046.57,26.84,-1.00,-1.0,2360
466,1830466,16992,-460,964,17025.54,26.84,-1.00,-1.0,2365
469,1830469,17008,-472,1016,17044.86,26.88,-1.00,-1.0,2359
471,1830471,17104,-580,932,17139.19,26.93,-1.00,-1.0,2366
474,1830474,16956,-640,964,16995.44,26.88,-1.00,-1.0,2357
476,1830476,17080,-520,992,17116.68,26.84,-1.00,-1.0,2369
479,1830479,17056,-696,1204,17112.60,26.84,-1.00,-1.0,2362
482,1830482,17008,-596,992,17047.33,26.98,-1.00,-1.0,2364
484,1830484,17020,-556,932,17054.56,27.02,-1.00,-1.0,2361
487,1830487,16948,-556,1040,16988.98,26.88,-1.00,-1.0,2373
489,1830489,17028,-580,860,17059.57,26.84,-1.00,-1.0,2365
492,1830492,17072,-528,964,17107.35,26.93,-1.00,-1.0,2365
495,1830495,17064,-552,940,17098.78,26.93,-1.00,-1.0,2361
498,1830498,17012,-512,964,17046.98,26.84,-1.00,-1.0,2365
501,1830501,17048,-564,952,17083.87,26.93,-1.00,-1.0,2362
504,1830504,17096,-528,892,17127.39,26.84,-1.00,-1.0,2365
507,1830507,17072,-508,928,17104.75,26.93,-1.00,-1.0,2362
510,1830510,17072,-572,876,17104.03,26.93,-1.00,-1.0,2365
513,1830513,17072,-496,1024,17109.87,26.74,-1.00,-1.0,2357
516,1830516,17020,-488,872,17049.31,26.74,-1.00,-1.0,2365
519,1830519,17060,-580,896,17093.36,26.84,-1.00,-1.0,2357
522,1830522,17088,-548,900,17120.46,26.88,-1.00,-1.0,2365
525,1830525,17116,-600,928,17151.64,26.88,-1.00,-1.0,2358
528,1830528,16956,-492,880,16985.95,26.88,-1.00,-1.0,2352
531,1830531,17036,-640,980,17076.16,26.88,-1.00,-1.0,2345
534,1830534,17072,-616,824,17102.97,26.88,-1.00,-1.0,2365
537,1830537,17036,-544,940,17070.58,26.88,-1.00,-1.0,2357
540,1830540,17028,-668,964,17068.34,26.88,-1.00,-1.0,2365
543,1830543,17020,-500,968,17054.84,26.98,-1.00,-1.0,2358
546,1830546,16876,-496,848,16904.57,26.88,-1.00,-1.0,2366
549,1830549,17072,-576,976,17109.57,26.88,-1.00,-1.0,2357
552,1830552,17028,-516,1004,17065.38,26.88,-1.00,-1.0,2365
555,1830555,16972,-532,960,17007.45,26.88,-1.00,-1.0,2410
558,1830558,17008,-596,908,17042.64,26.88,-1.00,-1.0,2371
561,1830561,16988,-616,956,17026.03,26.88,-1.00,-1.0,2361
564,1830564,16976,-656,1024,17019.50,26.79,-1.00,-1.0,2365
567,1830567,17048,-580,956,17084.63,26.88,-1.00,-1.0,2361
570,1830570,16968,-604,952,17005.42,26.79,-1.00,-1.0,2365
573,1830573,17024,-500,980,17059.51,26.88,-1.00,-1.0,2361
576,1830576,16964,-512,968,16999.31,26.88,-1.00,-1.0,2367
579,1830579,17088,-584,900,17121.65,26.88,-1.00,-1.0,2362
582,1830582,16996,-548,924,17029.92,26.88,-1.00,-1.0,2366
585,1830585,17032,-504,996,17068.54,26.88,-1.00,-1.0,2361
588,1830588,17004,-536,996,17041.58,26.84,-1.00,-1.0,2366
591,1830591,17120,-576,908,17153.74,26.93,-1.00,-1.0,2361
594,1830594,17004,-492,968,17038.63,26.84,-1.00,-1.0,2368
597,1830597,17036,-564,1016,17075.59,26.93,-1.00,-1.0,2363
600,1830600,17084,-488,828,17111.01,26.93,-1.00,-1.0,2368
603,1830603,17000,-604,1048,17042.98,26.84,-1.00,-1.0,2364
606,1830606,17056,-568,1028,17096.39,26.93,-1.00,-1.0,2367
609,1830609,17080,-576,808,17108.80,26.93,-1.00,-1.0,2362
612,1830612,17132,-548,956,17167.40,26.84,-1.00,-1.0,2367
615,1830615,17032,-572,956,17068.40,26.93,-1.00,-1.0,2364
618,1830618,17088,-608,952,17125.29,26.84,-1.00,-1.0,2374
621,1830621,17004,-580,944,17040.06,26.84,-1.00,-1.0,2363
624,1830624,17100,-588,1020,17140.48,26.84,-1.00,-1.0,2368
627,1830627,17084,-552,876,17115.35,26.84,-1.00,-1.0,2363
630,1830630,17060,-636,928,17097.05,26.93,-1.00,-1.0,2369
642,1830642,16968,-492,876,16997.72,26.84,-1.00,-1.0,2432
645,1830645,17080,-656,940,17118.42,26.84,-1.00,-1.0,2369
648,1830648,16992,-564,876,17023.91,26.88,-1.00,-1.0,2369
650,1830650,17052,-704,1064,17099.66,26.84,-1.00,-1.0,2364
653,1830653,17008,-552,1024,17047.74,26.93,-1.00,-1.0,2368
656,1830656,17044,-556,988,17081.66,26.88,-1.00,-1.0,2360
658,1830658,17020,-572,980,17057.78,26.84,-1.00,-1.0,2366
661,1830661,17024,-600,832,17054.88,26.88,-1.00,-1.0,2365
663,1830663,16920,-580,908,16954.27,26.93,-1.00,-1.0,2365
666,1830666,16980,-496,1044,17019.29,26.88,-1.00,-1.0,2369
669,1830669,16952,-624,1000,16992.93,26.88,-1.00,-1.0,2365
671,1830671,17012,-640,920,17048.88,26.93,-1.00,-1.0,2360
674,1830674,16984,-620,980,17023.54,26.93,-1.00,-1.0,2415
676,1830676,17084,-484,980,17118.93,26.88,-1.00,-1.0,2354
679,1830679,17016,-476,1036,17054.15,26.84,-1.00,-1.0,2365
682,1830682,17008,-592,1036,17049.80,26.88,-1.00,-1.0,2368
684,1830684,16996,-648,920,17033.21,26.84,-1.00,-1.0,2365
687,1830687,16964,-644,936,17002.00,26.93,-1.00,-1.0,2370
689,1830689,16960,-596,1008,17000.38,26.88,-1.00,-1.0,2367
692,1830692,17140,-568,972,17176.93,26.93,-1.00,-1.0,2361
695,1830695,16976,-576,1052,17018.31,26.88,-1.00,-1.0,2366
697,1830697,16996,-468,856,17023.98,26.84,-1.00,-1.0,2361
700,1830700,17124,-552,848,17153.87,26.88,-1.00,-1.0,2374
702,1830702,17020,-504,944,17053.61,26.88,-1.00,-1.0,2363
705,1830705,17040,-572,896,17073.12,26.88,-1.00,-1.0,2368
709,1830709,16924,-480,812,16950.27,26.93,-1.00,-1.0,2392
711,1830711,17044,-552,1068,17086.35,26.79,-1.00,-1.0,2371
714,1830714,16992,-576,944,17027.95,26.88,-1.00,-1.0,2365
717,1830717,17004,-564,876,17035.89,26.88,-1.00,-1.0,2355
720,1830720,17012,-580,940,17047.82,26.88,-1.00,-1.0,2350
723,1830723,17076,-556,1060,17117.90,26.93,-1.00,-1.0,2369
726,1830726,17064,-532,860,17093.94,26.84,-1.00,-1.0,2365
730,1830730,17020,-612,1140,17069.11,26.84,-1.00,-1.0,2367
733,1830733,17084,-476,980,17118.71,26.93,-1.00,-1.0,2362
736,1830736,17032,-544,940,17066.59,26.93,-1.00,-1.0,2366
739,1830739,17044,-564,872,17075.61,26.84,-1.00,-1.0,2362
742,1830742,17004,-520,900,17035.74,26.84,-1.00,-1.0,2366
745,1830745,17060,-600,912,17094.89,26.93,-1.00,-1.0,2362
748,1830748,17052,-544,1084,17095.08,26.93,-1.00,-1.0,2366
751,1830751,16944,-600,988,16983.38,26.84,-1.00,-1.0,2362
754,1830754,17012,-552,948,17047.33,26.84,-1.00,-1.0,2367
757,1830757,17076,-616,964,17114.28,26.93,-1.00,-1.0,2362
760,1830760,17020,-460,1008,17056.03,26.93,-1.00,-1.0,2367
763,1830763,17012,-584,1064,17055.24,26.93,-1.00,-1.0,2362
766,1830766,17080,-588,852,17111.34,26.84,-1.00,-1.0,2366
769,1830769,17080,-620,1076,17125.09,26.84,-1.00,-1.0,2362
772,1830772,16952,-584,988,16990.81,26.84,-1.00,-1.0,2366
775,1830775,17032,-576,1064,17074.92,26.93,-1.00,-1.0,2362
778,1830778,16964,-616,1036,17006.77,26.93,-1.00,-1.0,2366
781,1830781,16996,-560,1108,17041.28,26.93,-1.00,-1.0,2362
784,1830784,16948,-540,896,16980.26,26.84,-1.00,-1.0,2366
787,1830787,17032,-532,912,17064.69,26.84,-1.00,-1.0,2362
790,1830790,17112,-412,992,17145.68,26.88,-1.00,-1.0,2366
793,1830793,16956,-536,1020,16995.11,26.79,-1.00,-1.0,2362
796,1830796,17040,-616,1052,17083.55,26.88,-1.00,-1.0,2367
799,1830799,16988,-604,1052,17031.26,26.88,-1.00,-1.0,2362
802,1830802,17012,-612,896,17046.57,26.88,-1.00,-1.0,2366
805,1830805,17028,-600,932,17064.04,26.88,-1.00,-1.0,2362
808,1830808,17060,-648,972,17099.95,26.88,-1.00,-1.0,2353
811,1830811,17000,-532,1004,17037.93,26.88,-1.00,-1.0,2349
814,1830814,16992,-556,1052,17033.61,26.79,-1.00,-1.0,2367
817,1830817,16956,-496,1000,16992.70,26.88,-1.00,-1.0,2362
820,1830820,16996,-636,1008,17037.74,26.79,-1.00,-1.0,2366
823,1830823,16872,-632,812,16903.35,26.88,-1.00,-1.0,2362
826,1830826,16948,-500,988,16984.13,26.88,-1.00,-1.0,2366
829,1830829,17012,-620,856,17044.80,26.98,-1.00,-1.0,2366
832,1830832,16924,-580,1000,16963.44,26.79,-1.00,-1.0,2366
835,1830835,17044,-528,880,17074.87,26.98,-1.00,-1.0,2362
838,1830838,17116,-604,932,17151.99,26.88,-1.00,-1.0,2366
841,1830841,17036,-600,816,17066.08,26.79,-1.00,-1.0,2363
844,1830844,17048,-496,1052,17087.63,26.98,-1.00,-1.0,2366
856,1830856,16964,-564,908,16997.64,26.79,-1.00,-1.0,2432
858,1830858,17060,-556,1044,17100.96,26.98,-1.00,-1.0,2370
861,1830861,17040,-520,1100,17083.38,26.84,-1.00,-1.0,2352
864,1830864,17056,-564,884,17088.20,26.88,-1.00,-1.0,2361
866,1830866,17060,-592,936,17095.91,26.88,-1.00,-1.0,2365
869,1830869,16992,-536,1112,17036.78,26.93,-1.00,-1.0,2369
871,1830871,17044,-540,1000,17081.85,26.88,-1.00,-1.0,2364
874,1830874,17048,-576,952,17084.27,26.84,-1.00,-1.0,2368
877,1830877,16912,-536,940,16946.58,26.88,-1.00,-1.0,2361
879,1830879,17072,-512,924,17104.65,26.84,-1.00,-1.0,2365
882,1830882,17068,-616,808,17098.21,26.84,-1.00,-1.0,2366
884,1830884,16980,-536,964,17015.79,26.88,-1.00,-1.0,2366
887,1830887,17052,-456,928,17083.32,26.93,-1.00,-1.0,2364
890,1830890,16988,-556,868,17019.24,26.88,-1.00,-1.0,2366
892,1830892,17100,-520,1044,17139.73,26.84,-1.00,-1.0,2360
895,1830895,17000,-548,1008,17038.67,26.84,-1.00,-1.0,2369
897,1830897,17096,-560,940,17130.98,26.88,-1.00,-1.0,2361
900,1830900,16992,-572,984,17030.08,26.93,-1.00,-1.0,2373
903,1830903,17000,-596,1100,17045.97,26.98,-1.00,-1.0,2361
905,1830905,17044,-560,980,17081.33,26.93,-1.00,-1.0,2365
908,1830908,17000,-592,972,17038.05,26.88,-1.00,-1.0,2364
910,1830910,17032,-480,1004,17068.32,26.88,-1.00,-1.0,2365
913,1830913,16972,-516,1032,17011.17,26.93,-1.00,-1.0,2369
916,1830916,17092,-556,1068,17134.36,26.84,-1.00,-1.0,2369
919,1830919,17124,-588,988,17162.55,26.84,-1.00,-1.0,2364
922,1830922,16936,-532,920,16969.31,26.88,-1.00,-1.0,2368
925,1830925,17052,-472,944,17084.63,26.88,-1.00,-1.0,2364
928,1830928,16980,-580,788,17008.17,26.79,-1.00,-1.0,2368
931,1830931,17040,-552,980,17077.08,26.88,-1.00,-1.0,2363
934,1830934,17012,-640,908,17048.23,26.88,-1.00,-1.0,2369
937,1830937,17092,-600,820,17122.17,26.88,-1.00,-1.0,2365
940,1830940,17112,-532,824,17140.09,26.98,-1.00,-1.0,2366
943,1830943,16944,-564,884,16976.42,26.88,-1.00,-1.0,2362
946,1830946,16984,-532,1076,17026.36,26.79,-1.00,-1.0,2368
949,1830949,17080,-604,852,17111.90,26.88,-1.00,-1.0,2362
952,1830952,17024,-644,992,17065.03,26.88,-1.00,-1.0,2369
955,1830955,17000,-568,988,17038.16,26.88,-1.00,-1.0,2364
958,1830958,16988,-472,1008,17024.42,26.79,-1.00,-1.0,2367
961,1830961,16988,-568,1124,17034.62,26.98,-1.00,-1.0,2362
964,1830964,16984,-584,1000,17023.43,26.88,-1.00,-1.0,2366
967,1830967,17104,-600,924,17139.45,26.88,-1.00,-1.0,2362
970,1830970,17028,-556,888,17060.20,26.88,-1.00,-1.0,2366
973,1830973,16996,-536,980,17032.67,26.79,-1.00,-1.0,2362
976,1830976,16964,-516,1012,17001.99,26.88,-1.00,-1.0,2367
979,1830979,16976,-556,1064,17018.40,26.88,-1.00,-1.0,2362
982,1830982,17020,-608,1068,17064.31,26.88,-1.00,-1.0,2370
985,1830985,17000,-616,852,17032.48,26.88,-1.00,-1.0,2362
988,1830988,17016,-564,940,17051.27,26.88,-1.00,-1.0,2366
991,1830991,17072,-516,740,17095.82,26.88,-1.00,-1.0,2362
994,1830994,17036,-560,1012,17075.22,26.79,-1.00,-1.0,2367
997,1830997,16948,-608,1064,16992.25,26.88,-1.00,-1.0,2362
1000,1831000,16996,-644,844,17029.12,26.88,-1.00,-1.0,2370
1003,1831003,17132,-576,1000,17170.82,26.93,-1.00,-1.0,2412
1006,1831006,16932,-632,952,16970.51,26.88,-1.00,-1.0,2373
1009,1831009,17092,-612,968,17130.32,26.88,-1.00,-1.0,2362
1012,1831012,16992,-536,1036,17031.99,26.84,-1.00,-1.0,2366
1015,1831015,17076,-536,880,17107.06,26.84,-1.00,-1.0,2362
1018,1831018,17068,-524,944,17102.12,26.84,-1.00,-1.0,2366
1021,1831021,16992,-464,956,17025.20,26.93,-1.00,-1.0,2362
1024,1831024,17012,-544,864,17042.61,26.93,-1.00,-1.0,2370
1027,1831027,16956,-448,908,16986.20,26.84,-1.00,-1.0,2362
1030,1831030,17000,-652,1032,17043.77,26.84,-1.00,-1.0,2366
1033,1831033,16976,-496,904,17007.29,26.93,-1.00,-1.0,2362
1036,1831036,16980,-544,912,17013.17,26.84,-1.00,-1.0,2366
1039,1831039,17060,-576,1044,17101.62,26.84,-1.00,-1.0,2362
1042,1831042,17064,-592,840,17094.92,26.84,-1.00,-1.0,2374
1045,1831045,16912,-512,852,16941.19,26.84,-1.00,-1.0,2369
1048,1831048,16984,-548,944,17019.04,26.84,-1.00,-1.0,2373
1051,1831051,17092,-540,920,17125.26,26.93,-1.00,-1.0,2370
1054,1831054,17076,-568,868,17107.48,26.79,-1.00,-1.0,2373
1066,1831066,17008,-600,916,17043.21,26.88,-1.00,-1.0,2439
1069,1831069,16988,-592,888,17021.49,26.93,-1.00,-1.0,2369
1071,1831071,17104,-612,880,17137.55,26.88,-1.00,-1.0,2373
1074,1831074,17008,-640,996,17049.15,26.84,-1.00,-1.0,2362
1076,1831076,16936,-536,1116,16981.19,26.88,-1.00,-1.0,2367
1079,1831079,17012,-572,1040,17053.36,26.93,-1.00,-1.0,2361
1082,1831082,17064,-656,1000,17105.86,27.02,-1.00,-1.0,2365
1084,1831084,17052,-520,1100,17095.35,26.79,-1.00,-1.0,2368
1087,1831087,17124,-484,872,17153.02,26.93,-1.00,-1.0,2367
1089,1831089,17064,-528,1000,17101.43,26.88,-1.00,-1.0,2364
1092,1831092,17040,-656,932,17078.07,26.93,-1.00,-1.0,2365
1095,1831095,17108,-668,940,17146.82,26.79,-1.00,-1.0,2361
1097,1831097,17012,-616,900,17046.92,26.79,-1.00,-1.0,2373
1100,1831100,17036,-596,928,17071.66,26.84,-1.00,-1.0,2362
1102,1831102,16960,-496,908,16991.53,26.79,-1.00,-1.0,2368
1105,1831105,17056,-572,920,17090.37,26.84,-1.00,-1.0,2361
1108,1831108,17032,-580,880,17064.58,26.88,-1.00,-1.0,2366
1110,1831110,16972,-564,1028,17012.46,26.84,-1.00,-1.0,2369
1113,1831113,17048,-628,1016,17089.79,26.84,-1.00,-1.0,2366
1115,1831115,17096,-588,880,17128.73,26.88,-1.00,-1.0,2361
1118,1831118,16988,-580,900,17021.71,26.93,-1.00,-1.0,2366
1121,1831121,17044,-616,1060,17088.04,26.88,-1.00,-1.0,2361
1123,1831123,17000,-508,1008,17037.43,26.93,-1.00,-1.0,2372
1126,1831126,16960,-528,864,16990.20,26.93,-1.00,-1.0,2369
1129,1831129,17028,-556,1160,17076.52,26.93,-1.00,-1.0,2378
1132,1831132,16996,-480,832,17023.12,26.84,-1.00,-1.0,2370
1135,1831135,17016,-572,912,17050.02,26.93,-1.00,-1.0,2374
1138,1831138,17124,-572,924,17158.45,26.84,-1.00,-1.0,2364
1141,1831141,17040,-516,840,17068.49,26.84,-1.00,-1.0,2374
1144,1831144,17016,-568,948,17051.85,26.84,-1.00,-1.0,2370
1147,1831147,17028,-604,952,17065.28,26.93,-1.00,-1.0,2369
1150,1831150,17068,-616,948,17105.40,26.84,-1.00,-1.0,2365
1153,1831153,17104,-456,924,17135.01,26.84,-1.00,-1.0,2370
1156,1831156,17152,-544,900,17184.21,26.93,-1.00,-1.0,2365
1159,1831159,17044,-524,964,17079.28,26.84,-1.00,-1.0,2354
1162,1831162,17000,-476,868,17028.80,26.84,-1.00,-1.0,2350
1165,1831165,17060,-664,928,17098.12,26.84,-1.00,-1.0,2372
1168,1831168,17088,-524,992,17124.79,26.84,-1.00,-1.0,2365
1171,1831171,17000,-552,944,17035.13,26.84,-1.00,-1.0,2370
1174,1831174,16976,-512,816,17003.31,26.93,-1.00,-1.0,2364
1177,1831177,17092,-540,872,17122.75,26.93,-1.00,-1.0,2367
1180,1831180,17028,-616,1024,17069.88,26.93,-1.00,-1.0,2362
1183,1831183,17064,-684,864,17099.54,26.84,-1.00,-1.0,2367
1186,1831186,16984,-568,944,17019.70,26.84,-1.00,-1.0,2362
1189,1831189,17040,-524,920,17072.86,26.79,-1.00,-1.0,2371
1192,1831192,17080,-568,792,17107.79,26.88,-1.00,-1.0,2350
1195,1831195,16988,-564,1036,17028.90,26.88,-1.00,-1.0,2368
1198,1831198,17072,-532,868,17102.33,26.88,-1.00,-1.0,2363
1201,1831201,17016,-524,932,17049.56,26.88,-1.00,-1.0,2367
1204,1831204,17060,-552,824,17088.81,26.88,-1.00,-1.0,2362
1207,1831207,17088,-444,1020,17124.17,26.88,-1.00,-1.0,2370
1210,1831210,17036,-524,976,17071.98,26.79,-1.00,-1.0,2366
1213,1831213,17032,-532,844,17061.20,26.79,-1.00,-1.0,2369
1216,1831216,16944,-616,992,16984.19,26.88,-1.00,-1.0,2367
1219,1831219,17104,-520,924,17136.83,26.88,-1.00,-1.0,2369
1222,1831222,17096,-552,856,17126.31,26.88,-1.00,-1.0,2364
1225,1831225,17000,-568,912,17033.92,26.98,-1.00,-1.0,2367
1228,1831228,17028,-508,1016,17065.85,26.88,-1.00,-1.0,2362
1231,1831231,16976,-636,948,17014.34,26.69,-1.00,-1.0,2368
1234,1831234,17056,-616,1000,17096.39,26.79,-1.00,-1.0,2363
1237,1831237,17000,-544,832,17029.04,26.88,-1.00,-1.0,2366
1240,1831240,17048,-628,928,17084.79,26.88,-1.00,-1.0,2362
1243,1831243,17132,-504,832,17159.59,26.88,-1.00,-1.0,2355
1246,1831246,17044,-596,1056,17087.08,26.88,-1.00,-1.0,2351
1249,1831249,16980,-592,1020,17020.91,26.88,-1.00,-1.0,2366
1252,1831252,16980,-668,884,17016.11,26.79,-1.00,-1.0,2362
1255,1831255,16960,-592,940,16996.34,26.93,-1.00,-1.0,2366
1258,1831258,17024,-700,1024,17069.13,26.93,-1.00,-1.0,2362
1261,1831261,17052,-624,912,17087.77,26.84,-1.00,-1.0,2368
1273,1831273,17052,-612,976,17090.87,26.84,-1.00,-1.0,2430
1276,1831276,17064,-648,1044,17108.18,26.88,-1.00,-1.0,2374
1278,1831278,17068,-608,1132,17116.30,26.93,-1.00,-1.0,2361
1281,1831281,17036,-596,932,17071.88,26.98,-1.00,-1.0,2369
1284,1831284,16992,-632,960,17030.83,26.93,-1.00,-1.0,2361
1286,1831286,17028,-568,888,17060.60,26.88,-1.00,-1.0,2373
1289,1831289,16988,-628,960,17026.69,26.84,-1.00,-1.0,2366
1291,1831291,16980,-564,976,17017.38,26.88,-1.00,-1.0,2367
1294,1831294,17020,-556,916,17053.70,26.93,-1.00,-1.0,2407
1297,1831297,16984,-492,1032,17022.44,26.84,-1.00,-1.0,2377
1299,1831299,17028,-640,936,17065.71,26.84,-1.00,-1.0,2365
1302,1831302,17036,-604,956,17073.49,26.79,-1.00,-1.0,2367
1305,1831305,17088,-628,908,17123.63,26.84,-1.00,-1.0,2362
1307,1831307,17016,-516,908,17048.02,26.88,-1.00,-1.0,2374
1310,1831310,16988,-588,936,17023.92,26.84,-1.00,-1.0,2362
1312,1831312,17184,-536,1048,17224.27,26.79,-1.00,-1.0,2367
1315,1831315,17024,-532,924,17057.36,26.88,-1.00,-1.0,2351
1318,1831318,17048,-516,928,17081.04,26.84,-1.00,-1.0,2367
1320,1831320,17016,-640,924,17053.08,26.88,-1.00,-1.0,2370
1323,1831323,17024,-556,976,17061.02,26.93,-1.00,-1.0,2366
1325,1831325,17048,-620,852,17080.53,26.79,-1.00,-1.0,2365
1328,1831328,17008,-652,1020,17051.03,26.79,-1.00,-1.0,2367
1331,1831331,17028,-648,1064,17073.51,26.93,-1.00,-1.0,2362
1333,1831333,17116,-576,980,17153.71,26.88,-1.00,-1.0,2374
1336,1831336,16988,-588,824,17018.13,26.88,-1.00,-1.0,2362
1339,1831339,17040,-544,920,17073.49,26.88,-1.00,-1.0,2366
1342,1831342,17024,-656,980,17064.80,26.88,-1.00,-1.0,2367
1345,1831345,16964,-588,1056,17007.00,26.88,-1.00,-1.0,2366
1348,1831348,17048,-496,956,17081.99,26.88,-1.00,-1.0,2366
1351,1831351,16952,-456,1040,16989.99,26.88,-1.00,-1.0,2362
1354,1831354,17084,-488,948,17117.24,26.79,-1.00,-1.0,2367
1357,1831357,17108,-524,864,17137.82,26.88,-1.00,-1.0,2370
1360,1831360,16952,-588,936,16988.00,26.88,-1.00,-1.0,2374
1363,1831363,17004,-500,840,17032.08,26.88,-1.00,-1.0,2370
1366,1831366,17108,-604,1088,17153.20,26.88,-1.00,-1.0,2374
1369,1831369,16996,-612,920,17031.88,26.88,-1.00,-1.0,2373
1372,1831372,17004,-504,1000,17040.83,26.88,-1.00,-1.0,2373
1375,1831375,16968,-592,1012,17008.46,26.88,-1.00,-1.0,2370
1378,1831378,16972,-484,984,17007.39,26.88,-1.00,-1.0,2373
1381,1831381,17008,-604,904,17042.71,26.98,-1.00,-1.0,2369
1384,1831384,17084,-632,892,17118.94,26.74,-1.00,-1.0,2373
1387,1831387,17020,-644,992,17061.04,26.84,-1.00,-1.0,2369
1390,1831390,16932,-548,872,16963.29,26.74,-1.00,-1.0,2381
1393,1831393,17040,-628,840,17072.25,26.84,-1.00,-1.0,2378
1396,1831396,17012,-588,1048,17054.39,26.84,-1.00,-1.0,2381
1399,1831399,17076,-644,856,17109.57,26.84,-1.00,-1.0,2378
1402,1831402,16956,-520,768,16981.35,26.84,-1.00,-1.0,2380
1405,1831405,17012,-612,1036,17054.50,26.84,-1.00,-1.0,2378
1408,1831408,17076,-464,1040,17113.93,26.84,-1.00,-1.0,2378
1411,1831411,17064,-528,972,17099.81,26.93,-1.00,-1.0,2370
1414,1831414,17128,-488,880,17157.53,26.93,-1.00,-1.0,2373
1417,1831417,17068,-612,1052,17111.34,26.84,-1.00,-1.0,2370
1420,1831420,17048,-636,920,17084.65,26.84,-1.00,-1.0,2374
1423,1831423,17052,-668,868,17087.14,26.93,-1.00,-1.0,2370
1426,1831426,17096,-484,904,17126.72,26.84,-1.00,-1.0,2374
1429,1831429,17080,-508,932,17112.95,26.93,-1.00,-1.0,2369
1432,1831432,16896,-544,988,16933.60,26.93,-1.00,-1.0,2369
1435,1831435,17008,-580,904,17041.88,26.93,-1.00,-1.0,2365
1438,1831438,17096,-668,804,17127.93,26.93,-1.00,-1.0,2369
1441,1831441,16948,-396,1064,16985.98,26.84,-1.00,-1.0,2365
1444,1831444,17020,-636,1096,17067.11,26.84,-1.00,-1.0,2353
1447,1831447,16980,-620,884,17014.29,26.84,-1.00,-1.0,2350
1450,1831450,16872,-608,788,16901.33,26.84,-1.00,-1.0,2369
1453,1831453,16976,-600,1080,17020.90,26.88,-1.00,-1.0,2365
1456,1831456,16984,-664,924,17022.07,26.88,-1.00,-1.0,2371
1459,1831459,17100,-520,968,17135.27,26.88,-1.00,-1.0,2365
1462,1831462,16984,-580,1120,17030.77,26.88,-1.00,-1.0,2366
1465,1831465,17044,-608,1000,17084.13,26.88,-1.00,-1.0,2362
1468,1831468,17020,-508,900,17051.35,26.88,-1.00,-1.0,2366
1480,1831480,17092,-592,896,17125.71,26.79,-1.00,-1.0,2439
1483,1831483,16992,-604,892,17026.11,26.88,-1.00,-1.0,2369
1486,1831486,17060,-632,916,17096.26,26.88,-1.00,-1.0,2365
1488,1831488,17076,-484,832,17103.11,26.84,-1.00,-1.0,2368
1491,1831491,16920,-524,1024,16959.05,26.88,-1.00,-1.0,2367
1493,1831493,17008,-640,960,17047.09,26.93,-1.00,-1.0,2362
1496,1831496,17044,-592,1044,17086.20,26.88,-1.00,-1.0,2365
1499,1831499,17012,-608,980,17051.05,26.79,-1.00,-1.0,2361
1501,1831501,16976,-576,920,17010.67,26.93,-1.00,-1.0,2373
1504,1831504,17008,-568,1040,17049.23,26.79,-1.00,-1.0,2362
1506,1831506,17072,-536,908,17104.53,26.84,-1.00,-1.0,2367
1509,1831509,17084,-552,908,17117.02,26.98,-1.00,-1.0,2361
1512,1831512,17080,-616,992,17119.87,26.93,-1.00,-1.0,2365
1514,1831514,17056,-528,996,17093.21,26.93,-1.00,-1.0,2368
1517,1831517,17004,-520,940,17037.90,26.88,-1.00,-1.0,2366
1519,1831519,17120,-540,956,17155.17,26.93,-1.00,-1.0,2365
1522,1831522,16960,-688,1004,17003.62,26.88,-1.00,-1.0,2365
1525,1831525,17008,-592,880,17041.04,26.84,-1.00,-1.0,2361
1527,1831527,17112,-648,920,17148.96,26.88,-1.00,-1.0,2372
1530,1831530,17084,-568,932,17118.83,26.79,-1.00,-1.0,2362
1532,1831532,17156,-480,1032,17193.71,26.93,-1.00,-1.0,2366
1535,1831535,16996,-604,992,17035.64,26.88,-1.00,-1.0,2364
1538,1831538,16956,-568,956,16992.42,26.84,-1.00,-1.0,2365
1540,1831540,16980,-568,808,17008.70,26.79,-1.00,-1.0,2361
1543,1831543,17004,-556,884,17036.04,26.79,-1.00,-1.0,2365
1546,1831546,17036,-632,816,17067.24,26.93,-1.00,-1.0,2361
1549,1831549,17060,-668,972,17100.72,26.93,-1.00,-1.0,2365
1552,1831552,17052,-504,944,17085.54,26.93,-1.00,-1.0,2360
1555,1831555,17032,-600,1008,17072.35,26.84,-1.00,-1.0,2365
1558,1831558,17048,-536,1060,17089.33,26.93,-1.00,-1.0,2361
1561,1831561,17036,-548,1032,17076.03,26.84,-1.00,-1.0,2365
1564,1831564,17044,-556,880,17075.76,26.84,-1.00,-1.0,2361
1567,1831567,16944,-552,964,16980.38,26.93,-1.00,-1.0,2365
1570,1831570,16972,-564,964,17008.71,26.98,-1.00,-1.0,2407
1573,1831573,17048,-652,920,17085.25,26.93,-1.00,-1.0,2375
1576,1831576,17096,-512,1100,17139.00,26.84,-1.00,-1.0,2365
1579,1831579,17036,-568,900,17069.21,26.84,-1.00,-1.0,2369
1582,1831582,17020,-444,936,17051.50,26.84,-1.00,-1.0,2364
1585,1831585,16988,-592,912,17022.76,26.88,-1.00,-1.0,2371
1588,1831588,16964,-516,1000,17001.28,26.88,-1.00,-1.0,2364
1591,1831591,17028,-496,1052,17067.67,26.88,-1.00,-1.0,2369
1594,1831594,17028,-508,1044,17067.54,26.88,-1.00,-1.0,2365
1597,1831597,17032,-568,1096,17076.68,26.79,-1.00,-1.0,2367
1600,1831600,17112,-556,956,17147.70,26.88,-1.00,-1.0,2363
1603,1831603,16992,-500,900,17023.16,26.88,-1.00,-1.0,2373
1606,1831606,17000,-632,952,17038.36,26.88,-1.00,-1.0,2363
1609,1831609,17024,-608,1140,17072.96,26.98,-1.00,-1.0,2370
1612,1831612,17080,-596,828,17110.44,26.88,-1.00,-1.0,2366
1615,1831615,17112,-640,1112,17160.03,26.88,-1.00,-1.0,2370
1618,1831618,16964,-592,1020,17004.95,26.88,-1.00,-1.0,2366
1621,1831621,17008,-532,1040,17048.07,26.79,-1.00,-1.0,2369
1624,1831624,16992,-548,972,17028.60,26.79,-1.00,-1.0,2366
1627,1831627,17020,-564,928,17054.61,26.88,-1.00,-1.0,2373
1630,1831630,16932,-544,984,16969.29,26.88,-1.00,-1.0,2366
1633,1831633,16976,-568,1020,17016.10,26.88,-1.00,-1.0,2368
1636,1831636,17104,-596,864,17136.18,26.88,-1.00,-1.0,2369
1639,1831639,16980,-576,1016,17020.12,26.88,-1.00,-1.0,2377
1642,1831642,16992,-628,912,17028.04,26.98,-1.00,-1.0,2371
1645,1831645,16968,-624,856,17001.03,26.88,-1.00,-1.0,2375
1648,1831648,17064,-520,944,17098.00,26.79,-1.00,-1.0,2371
1651,1831651,17100,-532,1164,17147.83,26.93,-1.00,-1.0,2378
1654,1831654,16964,-532,960,16999.47,26.84,-1.00,-1.0,2371
1657,1831657,17004,-604,844,17035.64,26.93,-1.00,-1.0,2374
1660,1831660,17020,-552,1064,17062.16,26.93,-1.00,-1.0,2373
1663,1831663,17068,-464,944,17100.38,26.84,-1.00,-1.0,2375
1666,1831666,17120,-636,1072,17165.32,26.84,-1.00,-1.0,2371
1669,1831669,17116,-472,964,17149.62,26.84,-1.00,-1.0,2376
1672,1831672,16976,-604,1044,17018.79,26.93,-1.00,-1.0,2370
1675,1831675,17000,-568,1060,17042.48,26.93,-1.00,-1.0,2374
1687,1831687,17020,-560,1028,17060.21,26.93,-1.00,-1.0,2441
1690,1831690,16992,-632,964,17031.05,26.93,-1.00,-1.0,2386
1693,1831693,17076,-600,960,17113.48,26.88,-1.00,-1.0,2367
1695,1831695,17048,-600,816,17078.06,26.93,-1.00,-1.0,2362
1698,1831698,17096,-568,968,17132.80,26.93,-1.00,-1.0,2366
1701,1831701,17020,-628,944,17057.72,26.88,-1.00,-1.0,2361
1703,1831703,17060,-580,908,17093.99,26.84,-1.00,-1.0,2373
1706,1831706,17068,-600,892,17101.82,26.88,-1.00,-1.0,2363
1708,1831708,17040,-532,940,17074.20,26.84,-1.00,-1.0,2370
1711,1831711,17000,-520,904,17031.96,26.88,-1.00,-1.0,2354
1714,1831714,17100,-588,976,17137.92,26.98,-1.00,-1.0,2365
1716,1831716,16968,-496,1036,17006.83,26.93,-1.00,-1.0,2363
1719,1831719,17008,-484,896,17038.46,26.79,-1.00,-1.0,2366
1721,1831721,17000,-572,948,17036.02,26.93,-1.00,-1.0,2372
1724,1831724,16960,-600,920,16995.53,26.88,-1.00,-1.0,2353
1727,1831727,17060,-576,1076,17103.60,26.88,-1.00,-1.0,2361
1729,1831729,17000,-488,816,17026.57,26.93,-1.00,-1.0,2372
1732,1831732,17008,-584,948,17044.41,26.88,-1.00,-1.0,2370
1734,1831734,16984,-472,1048,17022.85,26.93,-1.00,-1.0,2377
1737,1831737,17124,-512,920,17156.34,26.88,-1.00,-1.0,2361
1740,1831740,17060,-612,1016,17101.18,26.93,-1.00,-1.0,2365
1742,1831742,17096,-552,896,17128.36,26.88,-1.00,-1.0,2361
1745,1831745,16936,-556,1008,16975.08,26.88,-1.00,-1.0,2372
1748,1831748,17040,-548,1008,17078.58,26.79,-1.00,-1.0,2361
1751,1831751,16912,-500,1012,16949.63,26.88,-1.00,-1.0,2365
1754,1831754,16996,-476,956,17029.52,26.88,-1.00,-1.0,2360
1757,1831757,17000,-564,892,17032.73,26.88,-1.00,-1.0,2365
1760,1831760,17000,-504,844,17028.40,26.88,-1.00,-1.0,2361
1763,1831763,16992,-560,964,17028.53,26.88,-1.00,-1.0,2369
1766,1831766,16996,-500,864,17025.29,26.88,-1.00,-1.0,2361
1769,1831769,17100,-608,980,17138.85,26.79,-1.00,-1.0,2366
1772,1831772,16980,-552,908,17013.22,26.88,-1.00,-1.0,2361
1775,1831775,17036,-572,896,17069.13,26.98,-1.00,-1.0,2365
1778,1831778,17076,-580,1188,17127.10,26.79,-1.00,-1.0,2361
1781,1831781,17044,-636,1028,17086.81,26.88,-1.00,-1.0,2369
1784,1831784,17068,-592,952,17104.78,26.88,-1.00,-1.0,2361
1787,1831787,17004,-568,1008,17043.32,26.84,-1.00,-1.0,2365
1790,1831790,17020,-508,980,17055.76,26.93,-1.00,-1.0,2361
1793,1831793,17008,-536,980,17044.64,26.93,-1.00,-1.0,2365
1796,1831796,17012,-624,932,17048.93,26.93,-1.00,-1.0,2361
1799,1831799,17024,-596,964,17061.69,26.93,-1.00,-1.0,2365
1802,1831802,16984,-476,1096,17025.98,26.93,-1.00,-1.0,2361
1805,1831805,17096,-576,952,17132.17,26.93,-1.00,-1.0,2365
1808,1831808,17028,-516,872,17058.12,26.84,-1.00,-1.0,2347
1811,1831811,17060,-532,820,17087.98,26.93,-1.00,-1.0,2352
1814,1831814,17052,-668,1012,17095.06,26.84,-1.00,-1.0,2348
1817,1831817,17092,-592,976,17130.08,26.84,-1.00,-1.0,2365
1820,1831820,17036,-568,884,17068.37,26.93,-1.00,-1.0,2361
1823,1831823,17072,-548,1032,17111.94,26.84,-1.00,-1.0,2365
1826,1831826,16892,-544,888,16924.07,26.93,-1.00,-1.0,2361
1829,1831829,17028,-592,944,17064.42,26.84,-1.00,-1.0,2364
1832,1831832,17016,-620,960,17054.33,26.84,-1.00,-1.0,2364
1835,1831835,16908,-536,956,16943.49,26.84,-1.00,-1.0,2365
1838,1831838,17036,-628,956,17074.36,26.84,-1.00,-1.0,2361
1841,1831841,17044,-516,1084,17086.23,26.84,-1.00,-1.0,2365
1844,1831844,16944,-620,1020,16985.99,26.84,-1.00,-1.0,2361
1847,1831847,17028,-616,1016,17069.40,26.84,-1.00,-1.0,2365
1850,1831850,17028,-540,1012,17066.59,26.93,-1.00,-1.0,2361
1853,1831853,17048,-680,988,17090.14,26.88,-1.00,-1.0,2365
1856,1831856,16976,-624,884,17010.45,26.88,-1.00,-1.0,2361
1859,1831859,17084,-592,1060,17127.09,26.88,-1.00,-1.0,2366
1862,1831862,17020,-568,1072,17063.18,26.98,-1.00,-1.0,2361
1865,1831865,16912,-568,936,16947.40,26.88,-1.00,-1.0,2365
1868,1831868,17084,-504,1024,17122.08,26.88,-1.00,-1.0,2361
1871,1831871,17020,-552,932,17054.43,26.88,-1.00,-1.0,2366
1874,1831874,16952,-512,928,16985.10,26.79,-1.00,-1.0,2363
1877,1831877,17020,-508,904,17051.56,26.88,-1.00,-1.0,2373
1880,1831880,17000,-632,904,17035.75,26.88,-1.00,-1.0,2367
1883,1831883,17144,-472,1080,17184.47,26.88,-1.00,-1.0,2371
1895,1831895,17028,-552,1020,17067.45,26.93,-1.00,-1.0,2436
1898,1831898,17012,-608,800,17041.65,26.93,-1.00,-1.0,2369
1900,1831900,17128,-520,1104,17171.42,26.79,-1.00,-1.0,2369
1903,1831903,17060,-560,1032,17100.36,26.88,-1.00,-1.0,2361
1906,1831906,16964,-520,1040,17003.80,26.88,-1.00,-1.0,2365
1908,1831908,17020,-576,884,17052.67,26.88,-1.00,-1.0,2368
1911,1831911,17000,-588,960,17037.23,26.93,-1.00,-1.0,2366
1913,1831913,17128,-608,988,17167.24,26.88,-1.00,-1.0,2365
1916,1831916,17088,-564,928,17122.47,26.93,-1.00,-1.0,2367
1919,1831919,17020,-588,1036,17061.64,26.88,-1.00,-1.0,2362
1921,1831921,17044,-588,976,17082.04,26.84,-1.00,-1.0,2367
1924,1831924,16972,-500,1004,17009.02,26.84,-1.00,-1.0,2362
1926,1831926,17068,-584,904,17101.90,26.88,-1.00,-1.0,2376
1929,1831929,16992,-596,936,17028.19,26.93,-1.00,-1.0,2365
1932,1831932,17148,-500,928,17180.37,26.88,-1.00,-1.0,2365
1934,1831934,17032,-552,816,17060.47,26.93,-1.00,-1.0,2361
1937,1831937,17072,-584,896,17105.47,26.88,-1.00,-1.0,2374
1939,1831939,17028,-624,932,17064.90,27.02,-1.00,-1.0,2369
1942,1831942,17000,-572,1004,17039.22,26.84,-1.00,-1.0,2369
1945,1831945,17104,-460,1020,17140.56,26.98,-1.00,-1.0,2365
1947,1831947,17020,-464,876,17048.84,26.93,-1.00,-1.0,2365
1950,1831950,16996,-660,940,17034.77,26.88,-1.00,-1.0,2363
1952,1831952,17140,-508,916,17171.97,26.84,-1.00,-1.0,2373
1955,1831955,17020,-580,904,17053.86,26.88,-1.00,-1.0,2361
1958,1831958,17044,-504,1112,17087.67,26.84,-1.00,-1.0,2366
1961,1831961,17092,-468,964,17125.56,26.93,-1.00,-1.0,2362
1964,1831964,17028,-536,968,17063.91,26.93,-1.00,-1.0,2367
1967,1831967,17024,-584,988,17062.64,26.93,-1.00,-1.0,2362
1970,1831970,17008,-580,972,17045.62,26.84,-1.00,-1.0,2367
1973,1831973,16988,-528,1040,17027.99,26.93,-1.00,-1.0,2362
1976,1831976,17052,-656,1036,17096.03,26.84,-1.00,-1.0,2366
1979,1831979,17032,-640,976,17071.94,26.84,-1.00,-1.0,2362
1982,1831982,16992,-520,804,17018.96,26.84,-1.00,-1.0,2367
1985,1831985,17092,-484,1100,17134.20,26.84,-1.00,-1.0,2362
1988,1831988,17100,-520,1096,17142.98,26.88,-1.00,-1.0,2370
1991,1831991,17068,-468,984,17102.75,26.88,-1.00,-1.0,2362
1994,1831994,16952,-584,992,16991.04,26.98,-1.00,-1.0,2367
1997,1831997,17012,-596,996,17051.55,26.98,-1.00,-1.0,2362
2000,1832000,17040,-588,948,17076.48,26.88,-1.00,-1.0,2366
2003,1832003,17104,-572,1180,17154.20,26.88,-1.00,-1.0,2362
2006,1832006,17104,-620,896,17138.67,26.98,-1.00,-1.0,2370
2009,1832009,16992,-596,992,17031.36,26.88,-1.00,-1.0,2362
2012,1832012,17072,-588,1100,17117.50,26.88,-1.00,-1.0,2366
2015,1832015,17032,-520,888,17063.06,26.98,-1.00,-1.0,2362
2018,1832018,17068,-548,924,17101.78,26.79,-1.00,-1.0,2367
2021,1832021,17020,-584,932,17055.50,26.88,-1.00,-1.0,2362
2024,1832024,17016,-540,840,17045.28,26.79,-1.00,-1.0,2371
2027,1832027,17056,-640,856,17089.46,26.88,-1.00,-1.0,2362
2030,1832030,16988,-476,1028,17025.73,26.79,-1.00,-1.0,2367
2033,1832033,17008,-468,964,17041.72,26.88,-1.00,-1.0,2362
2036,1832036,17112,-604,864,17144.44,26.88,-1.00,-1.0,2366
2039,1832039,17048,-508,912,17079.93,26.98,-1.00,-1.0,2362
2042,1832042,16976,-484,900,17006.73,26.88,-1.00,-1.0,2373
2045,1832045,16976,-508,956,17010.48,26.98,-1.00,-1.0,2370
2048,1832048,17044,-560,924,17078.21,26.88,-1.00,-1.0,2374
2051,1832051,16984,-564,808,17012.56,26.88,-1.00,-1.0,2370
2054,1832054,17028,-616,904,17063.10,26.88,-1.00,-1.0,2374
2057,1832057,16980,-592,916,17014.99,26.79,-1.00,-1.0,2370
2060,1832060,17088,-424,984,17121.56,26.88,-1.00,-1.0,2374
2063,1832063,16964,-644,1132,17013.92,26.98,-1.00,-1.0,2369
2066,1832066,16968,-604,1040,17010.57,26.88,-1.00,-1.0,2374
2069,1832069,16980,-596,956,17017.33,26.88,-1.00,-1.0,2370
2072,1832072,17092,-656,916,17129.09,26.88,-1.00,-1.0,2374
2075,1832075,17088,-592,856,17119.67,26.98,-1.00,-1.0,2370
2078,1832078,16944,-632,1064,16989.13,26.93,-1.00,-1.0,2373
2081,1832081,16916,-508,820,16943.48,26.84,-1.00,-1.0,2369
2084,1832084,16996,-544,980,17032.92,26.93,-1.00,-1.0,2374
2087,1832087,16996,-544,912,17029.14,26.93,-1.00,-1.0,2369
2090,1832090,16988,-592,960,17025.40,26.93,-1.00,-1.0,2368
2102,1832102,16972,-532,892,17003.75,26.88,-1.00,-1.0,2417
2105,1832105,17068,-544,956,17103.41,26.79,-1.00,-1.0,2369
2107,1832107,17076,-604,996,17115.68,26.84,-1.00,-1.0,2367
2110,1832110,17068,-548,868,17098.84,26.98,-1.00,-1.0,2361
2113,1832113,17080,-524,820,17107.70,26.84,-1.00,-1.0,2365
2115,1832115,16984,-536,1016,17022.80,26.98,-1.00,-1.0,2373
2118,1832118,17036,-576,908,17069.90,26.88,-1.00,-1.0,2367
2120,1832120,17088,-552,876,17119.34,26.93,-1.00,-1.0,2361
2123,1832123,17040,-448,880,17068.59,26.79,-1.00,-1.0,2352
2126,1832126,17040,-524,1052,17080.48,26.84,-1.00,-1.0,2361
2128,1832128,17052,-564,800,17080.07,26.88,-1.00,-1.0,2373
2131,1832131,16972,-564,1028,17012.46,26.88,-1.00,-1.0,2362
2133,1832133,16940,-632,1040,16983.66,26.84,-1.00,-1.0,2368
2136,1832136,17052,-580,888,17084.95,26.88,-1.00,-1.0,2362
2139,1832139,16948,-468,852,16975.85,26.93,-1.00,-1.0,2365
2141,1832141,17080,-560,816,17108.65,26.79,-1.00,-1.0,2369
2144,1832144,16980,-500,1036,17018.92,26.98,-1.00,-1.0,2366
2146,1832146,16992,-540,984,17029.03,26.93,-1.00,-1.0,2364
2149,1832149,16988,-540,948,17023.00,26.88,-1.00,-1.0,2365
2152,1832152,17060,-624,912,17095.75,26.84,-1.00,-1.0,2365
2154,1832154,16940,-460,1056,16979.12,26.88,-1.00,-1.0,2373
2157,1832157,17020,-544,1024,17059.45,26.88,-1.00,-1.0,2362
2159,1832159,17020,-548,864,17050.72,26.79,-1.00,-1.0,2369
2162,1832162,17068,-580,936,17103.48,26.98,-1.00,-1.0,2361
2165,1832165,17032,-568,920,17066.28,26.79,-1.00,-1.0,2369
2168,1832168,17040,-660,1008,17082.54,26.88,-1.00,-1.0,2365
2171,1832171,16900,-588,996,16939.53,26.88,-1.00,-1.0,2371
2174,1832174,17068,-500,996,17104.35,26.98,-1.00,-1.0,2364
2177,1832177,16960,-572,880,16992.45,26.88,-1.00,-1.0,2367
2180,1832180,17028,-544,876,17059.19,26.88,-1.00,-1.0,2362
2183,1832183,17024,-532,936,17058.01,26.88,-1.00,-1.0,2367
2186,1832186,17008,-596,1044,17050.43,26.93,-1.00,-1.0,2362
2189,1832189,16960,-504,1016,16997.88,26.74,-1.00,-1.0,2356
2192,1832192,17088,-612,1076,17132.78,26.84,-1.00,-1.0,2351
2195,1832195,17032,-616,1072,17076.82,26.84,-1.00,-1.0,2369
2198,1832198,16996,-552,940,17030.92,26.84,-1.00,-1.0,2364
2201,1832201,17008,-604,940,17044.66,26.84,-1.00,-1.0,2368
2204,1832204,17012,-552,1132,17058.55,26.93,-1.00,-1.0,2363
2207,1832207,17036,-528,968,17071.65,26.93,-1.00,-1.0,2366
2210,1832210,17000,-552,956,17035.80,26.84,-1.00,-1.0,2366
2213,1832213,16976,-588,1048,17018.48,26.93,-1.00,-1.0,2367
2216,1832216,16968,-492,1016,17005.51,26.84,-1.00,-1.0,2365
2219,1832219,17060,-524,876,17090.51,26.93,-1.00,-1.0,2370
2222,1832222,17096,-604,872,17128.88,26.93,-1.00,-1.0,2365
2225,1832225,17040,-660,864,17074.65,26.84,-1.00,-1.0,2368
2228,1832228,17016,-520,808,17043.11,26.84,-1.00,-1.0,2363
2231,1832231,17056,-556,940,17090.93,26.93,-1.00,-1.0,2369
2234,1832234,16984,-536,912,17016.91,26.84,-1.00,-1.0,2364
2237,1832237,17016,-564,948,17051.72,26.84,-1.00,-1.0,2366
2240,1832240,17020,-468,1096,17061.67,26.93,-1.00,-1.0,2362
2243,1832243,16928,-504,876,16958.14,26.93,-1.00,-1.0,2355
2246,1832246,17080,-588,1024,17120.77,26.93,-1.00,-1.0,2352
2249,1832249,17068,-532,896,17099.78,26.93,-1.00,-1.0,2367
2252,1832252,17016,-572,1032,17056.86,26.84,-1.00,-1.0,2362
2255,1832255,16996,-516,944,17030.02,26.88,-1.00,-1.0,2367
2258,1832258,17128,-628,992,17168.19,26.88,-1.00,-1.0,2362
2261,1832261,17004,-488,980,17039.21,26.88,-1.00,-1.0,2366
2264,1832264,17044,-524,988,17080.65,26.88,-1.00,-1.0,2363
2267,1832267,17008,-492,936,17040.84,26.88,-1.00,-1.0,2368
2270,1832270,16948,-480,1044,16986.91,26.79,-1.00,-1.0,2362
2273,1832273,17072,-516,796,17098.33,26.88,-1.00,-1.0,2367
2276,1832276,16972,-484,988,17007.62,26.88,-1.00,-1.0,2362
2279,1832279,17032,-644,908,17068.34,26.88,-1.00,-1.0,2367
2282,1832282,17056,-544,1016,17094.89,26.88,-1.00,-1.0,2362
2285,1832285,16964,-648,876,16998.96,26.88,-1.00,-1.0,2366
2288,1832288,17000,-468,928,17031.74,26.88,-1.00,-1.0,2362
2291,1832291,17104,-536,816,17131.84,26.88,-1.00,-1.0,2366
2294,1832294,17028,-576,1092,17072.70,26.88,-1.00,-1.0,2362
2297,1832297,17096,-652,940,17134.23,26.98,-1.00,-1.0,2370
2309,1832309,17064,-544,852,17093.92,26.88,-1.00,-1.0,2430
2312,1832312,17060,-584,1044,17101.89,26.98,-1.00,-1.0,2371
2315,1832315,16932,-516,1040,16971.76,26.88,-1.00,-1.0,2349
2317,1832317,17072,-564,860,17102.95,26.84,-1.00,-1.0,2378
2320,1832320,17084,-524,1064,17125.12,26.88,-1.00,-1.0,2368
2322,1832322,16964,-604,872,16997.13,26.93,-1.00,-1.0,2361
2325,1832325,16960,-592,912,16994.82,26.88,-1.00,-1.0,2368
2328,1832328,17008,-504,932,17040.97,26.88,-1.00,-1.0,2359
2330,1832330,17096,-520,1104,17139.50,26.93,-1.00,-1.0,2381
2333,1832333,17040,-492,1004,17076.64,26.88,-1.00,-1.0,2364
2335,1832335,17000,-580,948,17036.29,26.93,-1.00,-1.0,2365
2338,1832338,17008,-516,928,17041.11,26.88,-1.00,-1.0,2363
2341,1832341,17104,-504,960,17138.33,26.88,-1.00,-1.0,2362
2343,1832343,17072,-548,896,17104.28,26.93,-1.00,-1.0,2378
2346,1832346,16972,-624,1000,17012.88,26.88,-1.00,-1.0,2366
2348,1832348,17004,-532,888,17035.48,26.84,-1.00,-1.0,2359
2351,1832351,17084,-636,1096,17130.93,26.88,-1.00,-1.0,2369
2354,1832354,17016,-524,948,17050.44,26.88,-1.00,-1.0,2359
2356,1832356,16948,-492,972,16982.98,26.84,-1.00,-1.0,2373
2359,1832359,17068,-512,968,17103.09,26.88,-1.00,-1.0,2362
2361,1832361,17048,-468,952,17080.97,26.84,-1.00,-1.0,2365
2364,1832364,16984,-552,860,17014.72,26.88,-1.00,-1.0,2362
2367,1832367,16996,-520,876,17026.50,26.79,-1.00,-1.0,2364
2369,1832369,17084,-612,892,17118.21,26.84,-1.00,-1.0,2370
2372,1832372,17024,-544,924,17057.73,26.93,-1.00,-1.0,2370
2375,1832375,16992,-644,892,17027.58,26.93,-1.00,-1.0,2370
2378,1832378,17144,-548,928,17177.84,26.93,-1.00,-1.0,2374
2381,1832381,17024,-540,1052,17065.02,26.93,-1.00,-1.0,2369
2384,1832384,17040,-496,972,17074.91,26.88,-1.00,-1.0,2373
2387,1832387,16988,-540,980,17024.81,26.88,-1.00,-1.0,2370
2390,1832390,17012,-504,1036,17050.97,26.88,-1.00,-1.0,2381
2393,1832393,16988,-524,1064,17029.35,26.88,-1.00,-1.0,2378
2396,1832396,17036,-664,1032,17080.14,26.88,-1.00,-1.0,2380
2399,1832399,16976,-540,1016,17014.95,26.88,-1.00,-1.0,2377
2402,1832402,17012,-544,904,17044.69,26.88,-1.00,-1.0,2382
2405,1832405,17024,-572,1092,17068.57,26.88,-1.00,-1.0,2376
2408,1832408,17044,-524,984,17080.42,26.88,-1.00,-1.0,2374
2411,1832411,17116,-508,984,17151.79,26.98,-1.00,-1.0,2369
2414,1832414,16992,-624,960,17030.53,26.98,-1.00,-1.0,2373
2417,1832417,17004,-536,924,17037.52,26.79,-1.00,-1.0,2369
2420,1832420,16984,-504,1064,17024.76,26.88,-1.00,-1.0,2374
2423,1832423,16992,-588,904,17026.19,26.88,-1.00,-1.0,2370
2426,1832426,17052,-544,956,17087.44,26.79,-1.00,-1.0,2374
2429,1832429,17036,-460,1004,17071.76,26.98,-1.00,-1.0,2370
2432,1832432,16964,-504,816,16991.09,26.88,-1.00,-1.0,2368
2435,1832435,16964,-632,868,16997.95,26.79,-1.00,-1.0,2365
2438,1832438,16992,-560,908,17025.46,26.88,-1.00,-1.0,2369
2441,1832441,17088,-560,992,17125.93,26.98,-1.00,-1.0,2365
2444,1832444,17052,-580,1020,17092.32,26.88,-1.00,-1.0,2353
2447,1832447,17104,-576,988,17142.19,26.88,-1.00,-1.0,2350
2450,1832450,17032,-532,1140,17078.40,26.93,-1.00,-1.0,2369
2453,1832453,17080,-492,992,17115.86,26.74,-1.00,-1.0,2367
2456,1832456,17024,-592,960,17061.32,26.93,-1.00,-1.0,2366
2459,1832459,17040,-568,944,17075.58,26.93,-1.00,-1.0,2366
2462,1832462,17052,-580,880,17084.54,26.84,-1.00,-1.0,2367
2465,1832465,16952,-544,980,16989.02,26.93,-1.00,-1.0,2362
2468,1832468,16976,-572,948,17012.07,26.84,-1.00,-1.0,2367
2471,1832471,17004,-504,932,17036.98,26.84,-1.00,-1.0,2362
2474,1832474,17124,-636,960,17162.68,26.84,-1.00,-1.0,2366
2477,1832477,17052,-556,928,17086.28,26.93,-1.00,-1.0,2362
2480,1832480,17036,-596,916,17071.02,26.93,-1.00,-1.0,2366
2483,1832483,16988,-596,932,17023.98,26.93,-1.00,-1.0,2362
2486,1832486,16996,-580,1080,17040.15,26.93,-1.00,-1.0,2366
2489,1832489,16984,-540,1176,17033.23,27.02,-1.00,-1.0,2362
2492,1832492,17060,-604,884,17093.56,26.93,-1.00,-1.0,2366
2495,1832495,17112,-604,920,17147.35,26.84,-1.00,-1.0,2362
2498,1832498,16940,-540,976,16976.68,26.93,-1.00,-1.0,2366
2501,1832501,16976,-648,1048,17020.66,26.93,-1.00,-1.0,2362
2504,1832504,16908,-580,1072,16951.88,26.84,-1.00,-1.0,2367
2517,1832517,16976,-568,860,17007.26,26.84,-1.00,-1.0,2449
2520,1832520,17000,-540,824,17028.52,27.02,-1.00,-1.0,2373
2522,1832522,16964,-568,924,16998.64,26.88,-1.00,-1.0,2365
2525,1832525,17116,-556,1060,17157.80,26.84,-1.00,-1.0,2365
2527,1832527,16916,-616,964,16954.64,26.88,-1.00,-1.0,2368
2530,1832530,17104,-628,1052,17147.82,26.93,-1.00,-1.0,2364
2533,1832533,17032,-572,892,17064.93,26.84,-1.00,-1.0,2366
2535,1832535,17076,-568,1036,17116.82,26.88,-1.00,-1.0,2361
2538,1832538,17020,-544,848,17049.79,26.84,-1.00,-1.0,2369
2540,1832540,17000,-676,908,17037.65,26.88,-1.00,-1.0,2362
2543,1832543,17020,-580,1004,17059.45,26.93,-1.00,-1.0,2368
2546,1832546,17080,-476,1016,17116.81,26.69,-1.00,-1.0,2362
2548,1832548,16960,-564,916,16994.08,26.88,-1.00,-1.0,2365
2551,1832551,16984,-616,1072,17028.94,26.84,-1.00,-1.0,2365
2553,1832553,16980,-572,916,17014.31,26.88,-1.00,-1.0,2368
2556,1832556,17072,-536,940,17106.26,26.93,-1.00,-1.0,2364
2559,1832559,16984,-608,1056,17027.66,26.88,-1.00,-1.0,2366
2561,1832561,17052,-624,948,17089.73,26.88,-1.00,-1.0,2361
2564,1832564,17036,-544,1056,17077.36,26.93,-1.00,-1.0,2367
2566,1832566,17092,-456,928,17123.25,26.79,-1.00,-1.0,2362
2569,1832569,16908,-496,972,16943.18,26.84,-1.00,-1.0,2374
2572,1832572,17012,-572,988,17050.26,26.88,-1.00,-1.0,2362
2574,1832574,17004,-544,956,17039.54,26.93,-1.00,-1.0,2366
2577,1832577,17048,-480,1096,17089.94,26.93,-1.00,-1.0,2363
2579,1832579,17044,-520,888,17075.04,26.88,-1.00,-1.0,2368
2582,1832582,16980,-564,952,17016.02,26.79,-1.00,-1.0,2363
2585,1832585,17096,-552,1000,17134.12,26.98,-1.00,-1.0,2367
2588,1832588,17124,-544,880,17155.22,26.88,-1.00,-1.0,2362
2591,1832591,17112,-572,888,17144.57,26.88,-1.00,-1.0,2367
2594,1832594,16988,-420,980,17021.43,26.88,-1.00,-1.0,2362
2597,1832597,17020,-492,1016,17057.39,26.88,-1.00,-1.0,2369
2600,1832600,17076,-604,864,17108.51,26.88,-1.00,-1.0,2364
2603,1832603,17028,-576,900,17061.49,26.88,-1.00,-1.0,2368
2606,1832606,16940,-584,1000,16979.54,26.88,-1.00,-1.0,2364
2609,1832609,17060,-600,1080,17104.68,27.02,-1.00,-1.0,2367
2612,1832612,17008,-596,936,17044.16,26.93,-1.00,-1.0,2367
2615,1832615,17004,-624,956,17042.28,26.84,-1.00,-1.0,2367
2618,1832618,16992,-620,1064,17036.56,26.74,-1.00,-1.0,2362
2621,1832621,16988,-608,1008,17028.74,26.93,-1.00,-1.0,2369
2624,1832624,17132,-540,928,17165.61,26.84,-1.00,-1.0,2366
2627,1832627,17092,-548,800,17119.48,26.93,-1.00,-1.0,2368
2630,1832630,16968,-420,1012,17003.34,26.84,-1.00,-1.0,2365
2633,1832633,17008,-496,1088,17049.98,26.74,-1.00,-1.0,2368
2636,1832636,17024,-692,876,17060.56,26.93,-1.00,-1.0,2367
2639,1832639,17032,-488,1124,17076.02,26.74,-1.00,-1.0,2369
2642,1832642,17044,-556,852,17074.34,26.93,-1.00,-1.0,2374
2645,1832645,17068,-572,896,17101.07,26.84,-1.00,-1.0,2376
2648,1832648,17060,-512,1216,17110.94,26.88,-1.00,-1.0,2373
2651,1832651,17012,-636,896,17047.45,26.98,-1.00,-1.0,2375
2654,1832654,17052,-632,908,17087.85,26.88,-1.00,-1.0,2370
2657,1832657,17028,-544,956,17063.49,26.88,-1.00,-1.0,2375
2660,1832660,16948,-596,972,16986.31,26.88,-1.00,-1.0,2370
2663,1832663,17044,-620,996,17084.33,26.88,-1.00,-1.0,2373
2666,1832666,17000,-600,1104,17046.37,26.88,-1.00,-1.0,2372
2669,1832669,17072,-536,992,17109.20,26.98,-1.00,-1.0,2375
2672,1832672,16956,-564,928,16990.74,26.88,-1.00,-1.0,2375
2675,1832675,16928,-596,880,16961.33,26.88,-1.00,-1.0,2375
2678,1832678,17080,-516,1012,17117.73,26.88,-1.00,-1.0,2369
2681,1832681,16984,-596,924,17019.55,26.88,-1.00,-1.0,2373
2684,1832684,17060,-468,1052,17098.81,26.88,-1.00,-1.0,2369
2687,1832687,17056,-624,1000,17096.68,26.98,-1.00,-1.0,2374
2690,1832690,16920,-556,888,16952.41,26.88,-1.00,-1.0,2369
2693,1832693,16972,-552,872,17003.35,26.88,-1.00,-1.0,2373
2696,1832696,16948,-584,996,16987.28,26.98,-1.00,-1.0,2369
2699,1832699,16900,-604,1024,16941.77,26.88,-1.00,-1.0,2374
2702,1832702,16960,-548,1008,16998.76,26.88,-1.00,-1.0,2369
2705,1832705,16976,-516,964,17011.18,26.88,-1.00,-1.0,2374
2708,1832708,17100,-624,1004,17140.81,26.88,-1.00,-1.0,2369
2711,1832711,17068,-380,988,17100.79,26.98,-1.00,-1.0,2368
2723,1832723,17052,-664,920,17089.71,26.84,-1.00,-1.0,2435
2726,1832726,17020,-616,804,17050.11,26.88,-1.00,-1.0,2370
2729,1832729,17068,-588,788,17096.29,26.93,-1.00,-1.0,2367
2731,1832731,16984,-580,808,17013.10,26.88,-1.00,-1.0,2362
2734,1832734,17048,-500,920,17080.13,26.93,-1.00,-1.0,2371
2737,1832737,16940,-632,924,16976.95,26.79,-1.00,-1.0,2358
2739,1832739,17040,-552,1000,17078.24,26.88,-1.00,-1.0,2374
2742,1832742,17140,-620,948,17177.39,26.74,-1.00,-1.0,2359
2744,1832744,17008,-568,1052,17049.97,26.88,-1.00,-1.0,2369
2747,1832747,17000,-516,860,17029.56,26.84,-1.00,-1.0,2359
2750,1832750,16928,-596,984,16967.05,26.88,-1.00,-1.0,2366
2752,1832752,17024,-560,844,17054.11,26.98,-1.00,-1.0,2366
2755,1832755,16960,-476,1132,17004.40,26.93,-1.00,-1.0,2367
2757,1832757,17032,-628,888,17066.69,26.88,-1.00,-1.0,2364
2760,1832760,17040,-544,924,17073.70,26.84,-1.00,-1.0,2367
2763,1832763,17044,-576,904,17077.67,26.93,-1.00,-1.0,2345
2765,1832765,17012,-556,972,17048.81,26.88,-1.00,-1.0,2380
2768,1832768,16988,-504,1060,17028.50,26.93,-1.00,-1.0,2359
2770,1832770,17064,-632,972,17103.34,26.88,-1.00,-1.0,2373
2773,1832773,17084,-548,864,17114.61,26.84,-1.00,-1.0,2360
2776,1832776,17076,-544,1024,17115.32,26.88,-1.00,-1.0,2366
2778,1832778,16964,-628,716,16990.71,26.79,-1.00,-1.0,2373
2781,1832781,17008,-516,1000,17045.19,26.84,-1.00,-1.0,2367
2784,1832784,17068,-568,788,17095.62,26.84,-1.00,-1.0,2358
2787,1832787,17056,-564,828,17085.40,26.98,-1.00,-1.0,2366
2790,1832790,17048,-652,872,17082.73,26.88,-1.00,-1.0,2362
2793,1832793,17084,-684,924,17122.64,26.79,-1.00,-1.0,2367
2796,1832796,17016,-492,984,17051.53,26.98,-1.00,-1.0,2358
2799,1832799,17000,-556,1036,17040.61,26.88,-1.00,-1.0,2366
2802,1832802,17024,-560,880,17055.93,26.88,-1.00,-1.0,2358
2805,1832805,17044,-596,1068,17087.83,26.98,-1.00,-1.0,2366
2808,1832808,16996,-520,1044,17035.97,26.88,-1.00,-1.0,2358
2811,1832811,17088,-540,988,17125.05,26.79,-1.00,-1.0,2354
2814,1832814,16996,-600,1144,17045.02,26.88,-1.00,-1.0,2345
2817,1832817,17060,-500,984,17095.67,26.88,-1.00,-1.0,2366
2820,1832820,17016,-576,888,17048.89,26.88,-1.00,-1.0,2358
2823,1832823,16908,-592,924,16943.57,26.88,-1.00,-1.0,2366
2826,1832826,17008,-616,1036,17050.65,26.98,-1.00,-1.0,2358
2829,1832829,17092,-596,904,17126.26,26.88,-1.00,-1.0,2366
2832,1832832,17020,-608,852,17052.15,26.88,-1.00,-1.0,2358
2835,1832835,16988,-612,880,17021.78,26.88,-1.00,-1.0,2366
2838,1832838,17104,-580,1044,17145.64,26.98,-1.00,-1.0,2360
2841,1832841,17020,-560,960,17056.25,26.79,-1.00,-1.0,2366
2844,1832844,17064,-596,1008,17104.13,26.88,-1.00,-1.0,2358
2847,1832847,16992,-624,964,17030.76,26.79,-1.00,-1.0,2367
2850,1832850,17000,-552,960,17036.03,26.79,-1.00,-1.0,2358
2853,1832853,17116,-580,912,17150.09,26.93,-1.00,-1.0,2366
2856,1832856,17032,-624,1016,17073.68,26.93,-1.00,-1.0,2358
2859,1832859,16984,-556,1068,17026.63,26.84,-1.00,-1.0,2366
2862,1832862,17024,-592,916,17058.90,26.93,-1.00,-1.0,2358
2865,1832865,17044,-584,848,17075.07,26.93,-1.00,-1.0,2366
2868,1832868,17092,-572,964,17128.72,26.93,-1.00,-1.0,2358
2871,1832871,17072,-612,920,17107.72,26.93,-1.00,-1.0,2367
2874,1832874,17008,-464,1148,17053.01,26.93,-1.00,-1.0,2358
2877,1832877,16968,-568,1108,17013.62,26.93,-1.00,-1.0,2370
2880,1832880,16968,-568,928,17002.85,26.93,-1.00,-1.0,2360
2883,1832883,16992,-600,928,17027.90,26.93,-1.00,-1.0,2370
2886,1832886,16932,-504,928,16964.90,26.93,-1.00,-1.0,2367
2889,1832889,17024,-620,908,17059.47,26.84,-1.00,-1.0,2369
2892,1832892,17028,-592,932,17063.76,26.74,-1.00,-1.0,2361
2895,1832895,16932,-672,1000,16974.81,26.84,-1.00,-1.0,2371
2898,1832898,17088,-560,1028,17128.05,26.84,-1.00,-1.0,2365
2901,1832901,17080,-492,864,17108.91,26.93,-1.00,-1.0,2371
2904,1832904,16960,-636,920,16996.84,26.84,-1.00,-1.0,2365
2907,1832907,17064,-632,996,17104.72,26.93,-1.00,-1.0,2374
2910,1832910,17032,-552,976,17068.87,26.84,-1.00,-1.0,2366
2913,1832913,16956,-616,1056,17000.02,26.84,-1.00,-1.0,2372
2916,1832916,17004,-644,832,17036.52,26.84,-1.00,-1.0,2366
2919,1832919,17020,-588,884,17053.08,26.98,-1.00,-1.0,2370
2931,1832931,16988,-528,980,17024.43,26.74,-1.00,-1.0,2441
2934,1832934,17060,-600,908,17094.68,26.84,-1.00,-1.0,2366
2936,1832936,16984,-568,980,17021.73,26.88,-1.00,-1.0,2380
2939,1832939,17016,-528,1012,17054.24,26.88,-1.00,-1.0,2361
2941,1832941,17080,-536,948,17114.68,26.93,-1.00,-1.0,2366
2944,1832944,16980,-532,928,17013.66,26.88,-1.00,-1.0,2359
2947,1832947,16992,-472,920,17023.43,26.93,-1.00,-1.0,2365
2949,1832949,17080,-480,1008,17116.45,26.84,-1.00,-1.0,2366
2952,1832952,17000,-672,864,17035.20,26.88,-1.00,-1.0,2368
2954,1832954,17100,-552,844,17129.71,26.84,-1.00,-1.0,2360
2957,1832957,17012,-552,832,17041.28,26.88,-1.00,-1.0,2368
2960,1832960,16952,-524,928,16985.47,26.93,-1.00,-1.0,2358
2962,1832962,17044,-532,976,17080.21,26.84,-1.00,-1.0,2374
2965,1832965,17096,-476,844,17123.44,26.88,-1.00,-1.0,2360
2967,1832967,16984,-592,964,17021.63,26.84,-1.00,-1.0,2366
2970,1832970,17052,-500,940,17085.21,26.79,-1.00,-1.0,2364
2973,1832973,17012,-464,952,17044.93,26.84,-1.00,-1.0,2366
2975,1832975,17000,-608,1020,17041.42,26.93,-1.00,-1.0,2358
2978,1832978,17000,-676,940,17039.38,26.98,-1.00,-1.0,2370
2980,1832980,17004,-564,900,17037.14,26.93,-1.00,-1.0,2358
2983,1832983,16968,-536,924,17001.59,26.88,-1.00,-1.0,2373
2986,1832986,16944,-576,1004,16983.49,26.93,-1.00,-1.0,2360
2988,1832988,16984,-568,904,17017.52,26.93,-1.00,-1.0,2366
2991,1832991,17000,-596,840,17031.17,26.84,-1.00,-1.0,2363
2994,1832994,17084,-560,1060,17126.01,26.93,-1.00,-1.0,2363
2997,1832997,17060,-556,876,17091.52,26.93,-1.00,-1.0,2364
3000,1833000,17124,-632,1084,17169.91,26.93,-1.00,-1.0,2363
3003,1833003,16956,-512,1004,16993.41,26.93,-1.00,-1.0,2365
3006,1833006,16956,-576,960,16992.92,26.93,-1.00,-1.0,2365
3009,1833009,16976,-508,916,17008.28,26.84,-1.00,-1.0,2364
3012,1833012,17104,-532,1016,17142.41,26.93,-1.00,-1.0,2363
3015,1833015,17000,-560,876,17031.76,26.84,-1.00,-1.0,2363
3018,1833018,16992,-520,1036,17031.49,26.84,-1.00,-1.0,2363
3021,1833021,16948,-576,968,16985.39,26.93,-1.00,-1.0,2364
3024,1833024,17008,-688,812,17041.27,26.93,-1.00,-1.0,2363
3027,1833027,17028,-596,884,17061.34,26.93,-1.00,-1.0,2364
3030,1833030,16988,-524,780,17013.97,26.84,-1.00,-1.0,2363
3033,1833033,17044,-592,944,17080.38,26.93,-1.00,-1.0,2363
3036,1833036,17080,-484,1016,17117.04,26.84,-1.00,-1.0,2363
3039,1833039,17072,-480,984,17107.07,26.84,-1.00,-1.0,2364
3042,1833042,16992,-508,932,17025.12,26.84,-1.00,-1.0,2363
3045,1833045,17004,-684,936,17043.47,26.93,-1.00,-1.0,2371
3048,1833048,16964,-588,980,17002.45,26.93,-1.00,-1.0,2370
3051,1833051,17060,-552,1128,17106.16,26.93,-1.00,-1.0,2371
3054,1833054,17012,-544,1016,17050.99,26.98,-1.00,-1.0,2370
3057,1833057,17016,-476,984,17051.07,26.98,-1.00,-1.0,2371
3060,1833060,16992,-580,872,17024.24,26.88,-1.00,-1.0,2369
3063,1833063,17044,-628,948,17081.89,26.79,-1.00,-1.0,2371
3066,1833066,17116,-596,1040,17157.92,26.98,-1.00,-1.0,2370
3069,1833069,17092,-588,896,17125.57,26.88,-1.00,-1.0,2372
3072,1833072,16980,-596,868,17012.61,26.79,-1.00,-1.0,2371
3075,1833075,17028,-584,932,17063.48,26.88,-1.00,-1.0,2371
3078,1833078,17076,-616,956,17113.83,26.88,-1.00,-1.0,2371
3081,1833081,17016,-680,964,17056.84,26.88,-1.00,-1.0,2371
3084,1833084,17060,-528,1024,17098.86,26.98,-1.00,-1.0,2370
3087,1833087,17056,-524,912,17088.40,26.88,-1.00,-1.0,2366
3090,1833090,17024,-576,956,17060.55,26.88,-1.00,-1.0,2371
3093,1833093,17008,-600,956,17045.41,26.88,-1.00,-1.0,2366
3096,1833096,16952,-556,836,16981.71,26.88,-1.00,-1.0,2366
3099,1833099,17056,-496,936,17088.86,26.88,-1.00,-1.0,2359
3102,1833102,16956,-548,860,16986.64,26.88,-1.00,-1.0,2373
3105,1833105,16984,-564,888,17016.55,26.88,-1.00,-1.0,2374
3108,1833108,16952,-512,868,16981.93,26.88,-1.00,-1.0,2372
3111,1833111,16992,-520,992,17028.87,26.88,-1.00,-1.0,2371
3114,1833114,17080,-672,980,17121.29,26.88,-1.00,-1.0,2371
3117,1833117,17032,-516,1004,17069.37,26.98,-1.00,-1.0,2372
3120,1833120,16892,-532,984,16929.00,26.88,-1.00,-1.0,2371
3123,1833123,16956,-516,968,16991.45,26.98,-1.00,-1.0,2373
3126,1833126,17044,-592,812,17073.60,26.88,-1.00,-1.0,2371
3138,1833138,17020,-540,952,17055.15,26.88,-1.00,-1.0,2433
3141,1833141,17100,-568,964,17136.57,26.79,-1.00,-1.0,2374
3143,1833143,17032,-584,844,17062.90,26.84,-1.00,-1.0,2360
3146,1833146,17020,-556,1040,17060.81,26.93,-1.00,-1.0,2371
3149,1833149,17024,-544,936,17058.39,26.88,-1.00,-1.0,2358
3151,1833151,17044,-576,868,17075.80,26.84,-1.00,-1.0,2380
3154,1833154,17024,-516,976,17059.76,26.88,-1.00,-1.0,2367
3156,1833156,17000,-500,1040,17039.12,26.84,-1.00,-1.0,2362
3159,1833159,17032,-572,836,17062.10,26.88,-1.00,-1.0,2370
3162,1833162,17072,-552,840,17101.56,26.88,-1.00,-1.0,2362
3164,1833164,17048,-656,1000,17089.90,26.93,-1.00,-1.0,2374
3167,1833167,17092,-516,1056,17132.36,26.98,-1.00,-1.0,2371
3169,1833169,17012,-552,1032,17052.21,26.93,-1.00,-1.0,2370
3172,1833172,17008,-632,956,17046.57,26.88,-1.00,-1.0,2353
3175,1833175,17008,-676,988,17050.08,26.84,-1.00,-1.0,2358
3177,1833177,17028,-532,1008,17066.10,26.93,-1.00,-1.0,2368
3180,1833180,17176,-520,944,17209.78,26.88,-1.00,-1.0,2367
3182,1833182,17064,-580,988,17102.42,26.84,-1.00,-1.0,2363
3185,1833185,16976,-656,980,17016.91,26.79,-1.00,-1.0,2367
3188,1833188,17008,-544,896,17040.27,26.84,-1.00,-1.0,2358
3190,1833190,17024,-584,976,17061.95,26.84,-1.00,-1.0,2374
3193,1833193,17052,-532,900,17084.02,26.88,-1.00,-1.0,2367
3195,1833195,17088,-572,1104,17133.18,26.84,-1.00,-1.0,2360
3198,1833198,17024,-528,956,17058.99,26.88,-1.00,-1.0,2368
3201,1833201,17056,-588,928,17091.34,26.88,-1.00,-1.0,2363
3204,1833204,17004,-584,1104,17049.81,26.79,-1.00,-1.0,2367
3207,1833207,17008,-556,948,17043.47,26.88,-1.00,-1.0,2362
3210,1833210,17076,-576,1036,17117.09,26.88,-1.00,-1.0,2370
3213,1833213,17020,-584,856,17051.52,26.88,-1.00,-1.0,2360
3216,1833216,17032,-544,948,17067.04,26.88,-1.00,-1.0,2369
3219,1833219,17092,-584,940,17127.79,26.88,-1.00,-1.0,2361
3222,1833222,17024,-576,812,17053.08,26.88,-1.00,-1.0,2370
3225,1833225,17044,-560,936,17078.87,26.88,-1.00,-1.0,2360
3228,1833228,16964,-584,1012,17004.19,26.88,-1.00,-1.0,2367
3231,1833231,17052,-592,936,17087.93,26.88,-1.00,-1.0,2360
3234,1833234,17028,-564,892,17060.67,26.88,-1.00,-1.0,2367
3237,1833237,16952,-572,1060,16994.74,26.88,-1.00,-1.0,2363
3240,1833240,16988,-604,972,17026.50,26.88,-1.00,-1.0,2367
3243,1833243,16904,-632,928,16941.25,26.88,-1.00,-1.0,2360
3246,1833246,16920,-548,944,16955.17,26.98,-1.00,-1.0,2355
3249,1833249,17068,-540,1028,17107.46,26.79,-1.00,-1.0,2349
3252,1833252,17108,-548,1036,17148.10,26.93,-1.00,-1.0,2367
3255,1833255,16880,-496,1032,16918.79,26.93,-1.00,-1.0,2363
3258,1833258,17060,-632,956,17098.45,26.84,-1.00,-1.0,2367
3261,1833261,17028,-552,940,17062.86,26.84,-1.00,-1.0,2360
3264,1833264,17060,-592,972,17097.92,26.84,-1.00,-1.0,2368
3267,1833267,17084,-616,948,17121.37,26.84,-1.00,-1.0,2359
3270,1833270,16988,-584,888,17021.21,26.84,-1.00,-1.0,2367
3273,1833273,17000,-524,896,17031.66,26.93,-1.00,-1.0,2361
3276,1833276,17024,-460,860,17051.91,26.93,-1.00,-1.0,2367
3279,1833279,17032,-468,1008,17068.22,26.84,-1.00,-1.0,2360
3282,1833282,16988,-516,864,17017.78,26.84,-1.00,-1.0,2367
3285,1833285,17112,-532,984,17148.52,26.93,-1.00,-1.0,2359
3288,1833288,17048,-636,988,17088.45,26.93,-1.00,-1.0,2367
3291,1833291,17044,-596,832,17074.70,26.84,-1.00,-1.0,2359
3294,1833294,17024,-592,1028,17065.28,26.84,-1.00,-1.0,2371
3297,1833297,17004,-628,940,17041.54,26.93,-1.00,-1.0,2359
3300,1833300,17064,-500,1044,17103.22,26.93,-1.00,-1.0,2368
3303,1833303,17048,-464,1004,17083.84,26.93,-1.00,-1.0,2360
3306,1833306,17076,-548,1044,17116.66,26.93,-1.00,-1.0,2367
3309,1833309,17080,-592,816,17109.73,26.93,-1.00,-1.0,2362
3312,1833312,17080,-476,996,17115.64,26.84,-1.00,-1.0,2367
3315,1833315,17020,-604,1052,17063.17,26.84,-1.00,-1.0,2360
3318,1833318,17128,-528,980,17164.14,26.88,-1.00,-1.0,2367
3321,1833321,16996,-588,928,17031.47,26.79,-1.00,-1.0,2360
3324,1833324,16920,-692,1000,16963.64,26.79,-1.00,-1.0,2368
3327,1833327,16956,-612,1000,16996.48,26.88,-1.00,-1.0,2360
3330,1833330,17064,-492,1024,17101.78,26.88,-1.00,-1.0,2368
3333,1833333,17028,-628,1060,17072.52,26.88,-1.00,-1.0,2360
3345,1833345,17080,-516,996,17116.79,26.84,-1.00,-1.0,2432
3348,1833348,16964,-484,1012,17001.05,26.84,-1.00,-1.0,2377
3351,1833351,17048,-612,988,17087.57,26.88,-1.00,-1.0,2360
3353,1833353,17080,-436,1076,17119.41,26.84,-1.00,-1.0,2375
3356,1833356,17060,-596,1004,17099.91,26.84,-1.00,-1.0,2363
3358,1833358,17028,-604,908,17062.88,26.88,-1.00,-1.0,2368
3361,1833361,17048,-580,1044,17089.78,27.02,-1.00,-1.0,2363
3364,1833364,16972,-544,928,17006.05,26.88,-1.00,-1.0,2364
3366,1833366,17104,-564,956,17139.98,26.93,-1.00,-1.0,2370
3369,1833369,16916,-552,884,16948.07,26.79,-1.00,-1.0,2367
3371,1833371,16968,-496,920,17000.16,26.88,-1.00,-1.0,2362
3374,1833374,16976,-544,1064,17018.01,26.84,-1.00,-1.0,2368
3377,1833377,17112,-496,928,17144.32,26.88,-1.00,-1.0,2359
3379,1833379,17164,-692,992,17206.56,26.84,-1.00,-1.0,2375
3382,1833382,16964,-528,928,16997.57,26.88,-1.00,-1.0,2363
3384,1833384,16976,-556,900,17008.93,26.88,-1.00,-1.0,2368
3387,1833387,16956,-480,920,16987.72,26.74,-1.00,-1.0,2363
3390,1833390,16920,-524,968,16955.77,26.79,-1.00,-1.0,2351
3392,1833392,16972,-556,1024,17011.95,26.93,-1.00,-1.0,2379
3395,1833395,17140,-532,956,17174.88,26.88,-1.00,-1.0,2367
3397,1833397,16992,-596,1088,17037.22,26.88,-1.00,-1.0,2362
3400,1833400,16924,-564,940,16959.46,26.93,-1.00,-1.0,2371
3403,1833403,17060,-524,900,17091.76,26.88,-1.00,-1.0,2360
3405,1833405,17080,-532,860,17109.91,26.84,-1.00,-1.0,2382
3408,1833408,16956,-552,788,16983.27,26.84,-1.00,-1.0,2378
3411,1833411,17020,-588,916,17054.77,26.84,-1.00,-1.0,2375
3414,1833414,17052,-564,972,17088.99,26.84,-1.00,-1.0,2370
3417,1833417,17020,-644,932,17057.66,26.93,-1.00,-1.0,2375
3420,1833420,16964,-560,748,16989.71,26.93,-1.00,-1.0,2371
3423,1833423,17084,-608,940,17120.64,26.84,-1.00,-1.0,2374
3426,1833426,16992,-492,948,17025.54,26.74,-1.00,-1.0,2366
3429,1833429,17048,-608,1124,17095.83,26.84,-1.00,-1.0,2374
3432,1833432,16984,-608,980,17023.11,26.93,-1.00,-1.0,2370
3435,1833435,16892,-560,1000,16930.84,26.84,-1.00,-1.0,2369
3438,1833438,17056,-464,1020,17092.77,26.93,-1.00,-1.0,2366
3441,1833441,17056,-388,836,17080.88,26.84,-1.00,-1.0,2370
3444,1833444,17024,-676,1084,17071.87,26.93,-1.00,-1.0,2365
3447,1833447,17028,-396,976,17060.54,26.93,-1.00,-1.0,2355
3450,1833450,16968,-604,996,17007.94,26.84,-1.00,-1.0,2350
3453,1833453,17012,-612,1044,17054.99,26.88,-1.00,-1.0,2370
3456,1833456,16976,-568,1140,17023.71,26.88,-1.00,-1.0,2365
3459,1833459,16968,-536,884,16999.46,26.79,-1.00,-1.0,2370
3462,1833462,16992,-544,964,17028.02,26.88,-1.00,-1.0,2365
3465,1833465,17132,-520,1024,17170.45,26.88,-1.00,-1.0,2367
3468,1833468,17084,-560,820,17112.83,26.88,-1.00,-1.0,2363
3471,1833471,16988,-656,768,17018.00,26.79,-1.00,-1.0,2368
3474,1833474,17104,-536,864,17134.19,26.79,-1.00,-1.0,2368
3477,1833477,17044,-580,1004,17083.39,26.98,-1.00,-1.0,2368
3480,1833480,17048,-628,924,17084.57,26.88,-1.00,-1.0,2363
3483,1833483,16956,-560,944,16991.49,26.88,-1.00,-1.0,2367
3486,1833486,17052,-548,1004,17090.32,26.98,-1.00,-1.0,2363
3489,1833489,17056,-580,984,17094.20,26.88,-1.00,-1.0,2367
3492,1833492,16992,-592,892,17025.69,26.88,-1.00,-1.0,2363
3495,1833495,17024,-512,872,17054.01,26.88,-1.00,-1.0,2367
3498,1833498,17120,-644,832,17152.30,26.88,-1.00,-1.0,2363
3501,1833501,17016,-392,884,17043.46,26.88,-1.00,-1.0,2371
3504,1833504,17008,-556,980,17045.28,26.98,-1.00,-1.0,2364
3507,1833507,17024,-532,1012,17062.35,26.88,-1.00,-1.0,2367
3510,1833510,17040,-544,1012,17078.69,26.79,-1.00,-1.0,2363
3513,1833513,17076,-472,880,17105.17,26.88,-1.00,-1.0,2367
3516,1833516,17120,-500,972,17154.86,26.84,-1.00,-1.0,2367
3519,1833519,17044,-524,1036,17083.50,26.93,-1.00,-1.0,2367
3522,1833522,17016,-472,928,17047.82,26.84,-1.00,-1.0,2371
3525,1833525,17016,-488,968,17050.50,26.93,-1.00,-1.0,2367
3528,1833528,17096,-488,992,17131.71,26.93,-1.00,-1.0,2358
3531,1833531,17092,-620,1156,17142.26,26.84,-1.00,-1.0,2354
3534,1833534,16992,-620,980,17031.53,26.93,-1.00,-1.0,2354
3537,1833537,17092,-616,976,17130.92,26.93,-1.00,-1.0,2367
3540,1833540,17092,-480,832,17118.97,27.02,-1.00,-1.0,2362
3552,1833552,17092,-504,952,17125.91,26.93,-1.00,-1.0,2437
3555,1833555,17080,-556,880,17111.69,26.84,-1.00,-1.0,2374
3558,1833558,17072,-564,980,17109.40,26.88,-1.00,-1.0,2367
3560,1833560,17000,-512,1180,17048.59,26.93,-1.00,-1.0,2365
3563,1833563,16940,-584,916,16974.80,26.84,-1.00,-1.0,2368
3565,1833565,16984,-620,980,17023.54,26.79,-1.00,-1.0,2376
3568,1833568,16896,-552,876,16927.70,26.93,-1.00,-1.0,2361
3571,1833571,17108,-592,960,17145.14,26.88,-1.00,-1.0,2373
3573,1833573,17020,-572,948,17055.97,26.93,-1.00,-1.0,2361
3576,1833576,17000,-484,920,17031.75,26.88,-1.00,-1.0,2373
3578,1833578,17012,-496,1112,17055.52,26.98,-1.00,-1.0,2349
3581,1833581,16972,-628,920,17008.51,26.93,-1.00,-1.0,2366
3584,1833584,16992,-616,992,17032.07,26.88,-1.00,-1.0,2368
3586,1833586,16932,-564,924,16966.57,26.93,-1.00,-1.0,2365
3589,1833589,17096,-548,996,17133.75,26.88,-1.00,-1.0,2369
3591,1833591,17088,-656,1056,17133.16,26.98,-1.00,-1.0,2354
3594,1833594,17016,-616,1056,17059.86,26.93,-1.00,-1.0,2362
3597,1833597,17096,-608,968,17134.17,26.88,-1.00,-1.0,2369
3599,1833599,17056,-488,836,17083.45,26.93,-1.00,-1.0,2361
3602,1833602,17056,-552,872,17087.20,26.88,-1.00,-1.0,2373
3604,1833604,17092,-584,724,17117.29,26.88,-1.00,-1.0,2359
3607,1833607,17000,-556,980,17037.30,26.88,-1.00,-1.0,2365
3610,1833610,17116,-540,1096,17159.55,26.88,-1.00,-1.0,2370
3612,1833612,17124,-664,876,17159.24,26.88,-1.00,-1.0,2368
3615,1833615,16948,-500,976,16983.44,26.88,-1.00,-1.0,2364
3618,1833618,17020,-556,1160,17068.54,26.88,-1.00,-1.0,2368
3621,1833621,17024,-596,1024,17065.18,26.79,-1.00,-1.0,2365
3624,1833624,16920,-684,836,16954.44,26.88,-1.00,-1.0,2369
3627,1833627,17060,-684,872,17095.96,26.88,-1.00,-1.0,2366
3630,1833630,17072,-488,848,17100.01,26.79,-1.00,-1.0,2367
3633,1833633,17024,-612,1096,17070.22,26.88,-1.00,-1.0,2366
3636,1833636,17100,-584,916,17134.47,26.88,-1.00,-1.0,2368
3639,1833639,17008,-548,1040,17048.58,26.88,-1.00,-1.0,2363
3642,1833642,16976,-568,940,17011.49,26.79,-1.00,-1.0,2376
3645,1833645,17080,-540,968,17115.93,26.88,-1.00,-1.0,2370
3648,1833648,17096,-604,1012,17136.57,26.88,-1.00,-1.0,2374
3651,1833651,16972,-628,940,17009.61,26.88,-1.00,-1.0,2369
3654,1833654,16940,-580,920,16974.88,26.98,-1.00,-1.0,2374
3657,1833657,17036,-484,1028,17073.85,26.93,-1.00,-1.0,2409
3660,1833660,17060,-520,908,17092.06,26.88,-1.00,-1.0,2381
3663,1833663,17040,-536,984,17076.80,26.88,-1.00,-1.0,2372
3666,1833666,16920,-464,1076,16960.53,26.88,-1.00,-1.0,2375
3669,1833669,16960,-604,840,16991.53,26.88,-1.00,-1.0,2370
3672,1833672,16984,-556,940,17019.08,26.84,-1.00,-1.0,2375
3675,1833675,17132,-580,1028,17172.61,26.93,-1.00,-1.0,2370
3678,1833678,17084,-596,920,17119.13,26.93,-1.00,-1.0,2374
3681,1833681,16976,-492,920,17008.03,26.84,-1.00,-1.0,2370
3684,1833684,16956,-568,776,16983.25,26.93,-1.00,-1.0,2373
3687,1833687,17044,-488,1016,17081.23,26.84,-1.00,-1.0,2370
3690,1833690,17012,-468,1092,17053.44,27.02,-1.00,-1.0,2373
3693,1833693,16944,-596,976,16982.55,26.93,-1.00,-1.0,2370
3696,1833696,16920,-692,916,16958.90,26.84,-1.00,-1.0,2374
3699,1833699,16976,-548,1012,17014.96,26.84,-1.00,-1.0,2370
3702,1833702,17088,-604,980,17126.73,26.84,-1.00,-1.0,2374
3705,1833705,17032,-496,924,17064.26,26.93,-1.00,-1.0,2369
3708,1833708,17032,-660,960,17071.80,26.93,-1.00,-1.0,2369
3711,1833711,16996,-656,920,17033.52,26.84,-1.00,-1.0,2368
3714,1833714,17000,-540,1004,17038.18,26.84,-1.00,-1.0,2369
3717,1833717,17032,-608,956,17069.64,26.88,-1.00,-1.0,2365
3720,1833720,17124,-604,776,17152.21,26.84,-1.00,-1.0,2355
3723,1833723,17068,-648,920,17105.05,26.93,-1.00,-1.0,2350
3726,1833726,16920,-548,980,16957.21,26.98,-1.00,-1.0,2369
3729,1833729,17052,-636,992,17092.67,26.88,-1.00,-1.0,2365
3733,1833733,17064,-664,1136,17114.66,26.88,-1.00,-1.0,2367
3736,1833736,16928,-500,1008,16965.35,26.88,-1.00,-1.0,2362
3739,1833739,16972,-660,992,17013.77,26.88,-1.00,-1.0,2367
3742,1833742,16968,-652,944,17006.74,26.88,-1.00,-1.0,2362
3745,1833745,16972,-640,968,17011.62,26.88,-1.00,-1.0,2366
3748,1833748,17040,-652,916,17077.05,26.79,-1.00,-1.0,2391
3751,1833751,17028,-544,1052,17069.14,26.88,-1.00,-1.0,2369
3763,1833763,16964,-492,948,16997.59,26.98,-1.00,-1.0,2434
3765,1833765,16944,-572,800,16972.52,26.98,-1.00,-1.0,2383
3768,1833768,16956,-516,948,16990.32,26.88,-1.00,-1.0,2361
3771,1833771,17084,-612,1032,17126.08,26.93,-1.00,-1.0,2361
3773,1833773,17028,-592,904,17062.25,26.88,-1.00,-1.0,2365
3776,1833776,16972,-580,1060,17014.96,26.84,-1.00,-1.0,2368
3778,1833778,16976,-456,968,17009.69,26.88,-1.00,-1.0,2373
3781,1833781,16964,-508,940,16997.62,26.88,-1.00,-1.0,2361
3784,1833784,16992,-556,992,17030.01,26.93,-1.00,-1.0,2361
3786,1833786,16992,-516,952,17026.47,26.88,-1.00,-1.0,2365
3789,1833789,17004,-568,860,17035.21,26.93,-1.00,-1.0,2369
3791,1833791,17072,-576,860,17103.35,26.88,-1.00,-1.0,2373
3794,1833794,16944,-528,716,16967.34,26.84,-1.00,-1.0,2361
3797,1833797,17072,-556,908,17105.17,26.84,-1.00,-1.0,2361
3799,1833799,17084,-584,984,17122.28,26.88,-1.00,-1.0,2366
3802,1833802,17096,-528,1016,17134.30,26.93,-1.00,-1.0,2369
3804,1833804,16920,-480,1036,16958.48,26.88,-1.00,-1.0,2373
3807,1833807,17124,-532,872,17154.44,26.84,-1.00,-1.0,2361
3810,1833810,17116,-596,980,17154.39,26.93,-1.00,-1.0,2361
3812,1833812,17072,-556,996,17110.06,26.88,-1.00,-1.0,2365
3815,1833815,17028,-568,1032,17068.70,26.84,-1.00,-1.0,2369
3817,1833817,17016,-484,952,17049.48,26.88,-1.00,-1.0,2377
3820,1833820,17060,-584,948,17096.30,26.84,-1.00,-1.0,2361
3823,1833823,17044,-532,888,17075.41,26.98,-1.00,-1.0,2370
3826,1833826,16940,-612,1072,16984.91,26.84,-1.00,-1.0,2365
3829,1833829,17084,-636,920,17120.57,26.84,-1.00,-1.0,2361
3832,1833832,17052,-568,928,17086.68,26.93,-1.00,-1.0,2361
3835,1833835,17088,-504,956,17122.14,26.93,-1.00,-1.0,2365
3838,1833838,16964,-492,948,16997.59,26.84,-1.00,-1.0,2361
3841,1833841,17132,-616,944,17169.04,26.84,-1.00,-1.0,2361
3844,1833844,16996,-492,924,17028.21,26.93,-1.00,-1.0,2365
3847,1833847,17000,-544,948,17035.10,26.84,-1.00,-1.0,2361
3850,1833850,17036,-552,928,17070.18,26.88,-1.00,-1.0,2365
3853,1833853,17092,-544,888,17123.70,26.88,-1.00,-1.0,2365
3856,1833856,17004,-484,956,17037.73,26.88,-1.00,-1.0,2365
3859,1833859,17024,-600,984,17062.97,26.88,-1.00,-1.0,2361
3862,1833862,17096,-616,964,17134.23,26.98,-1.00,-1.0,2365
3865,1833865,17024,-496,820,17050.95,26.88,-1.00,-1.0,2361
3868,1833868,17000,-500,768,17024.68,26.88,-1.00,-1.0,2361
3871,1833871,16976,-508,920,17008.50,26.88,-1.00,-1.0,2366
3874,1833874,17020,-524,964,17055.33,26.98,-1.00,-1.0,2367
3877,1833877,17056,-532,796,17082.85,26.98,-1.00,-1.0,2362
3880,1833880,17052,-504,896,17082.96,26.98,-1.00,-1.0,2370
3883,1833883,17092,-596,920,17127.12,26.79,-1.00,-1.0,2367
3886,1833886,16972,-604,816,17002.34,26.98,-1.00,-1.0,2366
3889,1833889,17088,-660,868,17122.76,26.88,-1.00,-1.0,2367
3892,1833892,17032,-608,1076,17076.78,26.88,-1.00,-1.0,2366
3895,1833895,17012,-504,944,17045.62,26.88,-1.00,-1.0,2368
3898,1833898,17052,-536,896,17083.93,26.88,-1.00,-1.0,2372
3901,1833901,17076,-532,1028,17115.19,26.98,-1.00,-1.0,2368
3904,1833904,17008,-548,1060,17049.81,26.88,-1.00,-1.0,2364
3907,1833907,16960,-572,916,16994.35,26.79,-1.00,-1.0,2371
3910,1833910,17072,-544,972,17108.30,26.79,-1.00,-1.0,2368
3913,1833913,16992,-524,900,17023.88,26.88,-1.00,-1.0,2371
3916,1833916,17008,-536,1120,17053.26,26.84,-1.00,-1.0,2372
3919,1833919,17084,-572,956,17120.29,26.93,-1.00,-1.0,2367
3922,1833922,17100,-656,1080,17146.62,26.84,-1.00,-1.0,2365
3925,1833925,17064,-544,916,17097.22,26.84,-1.00,-1.0,2407
3928,1833928,17000,-604,952,17037.35,26.84,-1.00,-1.0,2369
3931,1833931,17020,-636,920,17056.71,26.93,-1.00,-1.0,2363
3934,1833934,17060,-616,892,17094.41,26.93,-1.00,-1.0,2368
3937,1833937,17056,-544,896,17088.18,26.93,-1.00,-1.0,2362
3940,1833940,17016,-612,988,17055.64,26.93,-1.00,-1.0,2365
3943,1833943,16952,-568,1076,16995.61,26.84,-1.00,-1.0,2366
3946,1833946,17032,-592,900,17066.03,26.93,-1.00,-1.0,2363
3949,1833949,17028,-612,968,17066.47,26.93,-1.00,-1.0,2366
3952,1833952,17104,-476,932,17135.99,26.84,-1.00,-1.0,2367
3955,1833955,16992,-624,1040,17035.23,26.93,-1.00,-1.0,2363
3958,1833958,16968,-552,944,17003.20,26.93,-1.00,-1.0,2365
3970,1833970,17000,-484,1036,17038.41,26.93,-1.00,-1.0,2440
3973,1833973,17056,-568,976,17093.34,26.84,-1.00,-1.0,2382
3975,1833975,16976,-596,976,17014.47,26.98,-1.00,-1.0,2365
3978,1833978,17000,-580,1004,17039.50,26.93,-1.00,-1.0,2373
3980,1833980,17104,-612,1008,17144.60,26.84,-1.00,-1.0,2371
3983,1833983,17052,-584,984,17090.35,26.88,-1.00,-1.0,2365
3986,1833986,17004,-492,928,17036.41,26.84,-1.00,-1.0,2368
3988,1833988,17008,-548,968,17044.34,26.88,-1.00,-1.0,2364
3991,1833991,17004,-648,908,17040.55,26.84,-1.00,-1.0,2367
3994,1833994,17076,-592,1020,17116.68,26.79,-1.00,-1.0,2365
3996,1833996,17072,-648,868,17106.33,26.79,-1.00,-1.0,2365
3999,1833999,16984,-556,952,17019.74,26.84,-1.00,-1.0,2369
4001,1834001,16980,-592,996,17019.48,26.88,-1.00,-1.0,2365
4004,1834004,16944,-568,952,16980.23,26.93,-1.00,-1.0,2368
4007,1834007,17080,-536,964,17115.58,26.88,-1.00,-1.0,2365
4009,1834009,16972,-564,980,17009.62,26.79,-1.00,-1.0,2373
4012,1834012,17032,-536,1068,17073.87,26.98,-1.00,-1.0,2367
4014,1834014,17036,-556,836,17065.56,26.84,-1.00,-1.0,2367
4017,1834017,16988,-572,860,17019.37,26.93,-1.00,-1.0,2355
4020,1834020,17080,-592,892,17113.52,26.79,-1.00,-1.0,2366
4022,1834022,16976,-548,956,17011.73,26.84,-1.00,-1.0,2373
4025,1834025,17040,-660,884,17075.67,26.88,-1.00,-1.0,2366
4027,1834027,17004,-556,1028,17044.12,26.84,-1.00,-1.0,2368
4030,1834030,17052,-608,920,17087.62,26.79,-1.00,-1.0,2368
4033,1834033,16920,-596,832,16950.92,26.98,-1.00,-1.0,2366
4036,1834036,17100,-484,1016,17136.99,26.88,-1.00,-1.0,2366
4039,1834039,16996,-560,912,17029.66,26.79,-1.00,-1.0,2367
4042,1834042,16968,-548,888,17000.05,26.98,-1.00,-1.0,2366
4045,1834045,17056,-564,1020,17095.78,26.88,-1.00,-1.0,2373
4048,1834048,17040,-484,948,17073.21,26.79,-1.00,-1.0,2375
4051,1834051,17056,-572,808,17084.71,26.84,-1.00,-1.0,2374
4054,1834054,16996,-692,952,17036.70,26.93,-1.00,-1.0,2373
4057,1834057,17016,-520,968,17051.44,26.93,-1.00,-1.0,2373
4060,1834060,16988,-664,912,17025.42,26.84,-1.00,-1.0,2372
4063,1834063,17028,-680,1020,17072.07,26.93,-1.00,-1.0,2373
4066,1834066,16940,-520,960,16975.15,26.93,-1.00,-1.0,2374
4069,1834069,16904,-552,928,16938.45,26.93,-1.00,-1.0,2374
4072,1834072,17052,-528,1000,17089.46,26.84,-1.00,-1.0,2374
4075,1834075,17020,-616,920,17055.97,26.93,-1.00,-1.0,2374
4078,1834078,17020,-536,1076,17062.40,26.93,-1.00,-1.0,2374
4081,1834081,17004,-616,984,17043.58,26.93,-1.00,-1.0,2372
4084,1834084,17124,-616,956,17161.72,26.84,-1.00,-1.0,2368
4087,1834087,17072,-532,896,17103.77,26.84,-1.00,-1.0,2374
4090,1834090,17108,-668,968,17148.38,26.93,-1.00,-1.0,2369
4093,1834093,17052,-608,944,17088.93,26.84,-1.00,-1.0,2369
4096,1834096,17072,-568,984,17109.77,26.84,-1.00,-1.0,2363
4099,1834099,16992,-608,1016,17033.20,26.84,-1.00,-1.0,2362
4102,1834102,16968,-644,776,16997.94,26.93,-1.00,-1.0,2377
4105,1834105,17012,-564,1056,17054.07,26.84,-1.00,-1.0,2377
4108,1834108,17148,-420,988,17181.57,26.84,-1.00,-1.0,2374
4111,1834111,17080,-508,940,17113.39,26.84,-1.00,-1.0,2376
4114,1834114,17020,-576,984,17058.15,26.88,-1.00,-1.0,2374
4117,1834117,16948,-660,964,16988.22,26.79,-1.00,-1.0,2374
4120,1834120,16980,-536,980,17016.70,26.79,-1.00,-1.0,2375
4123,1834123,17020,-584,940,17055.94,26.88,-1.00,-1.0,2373
4126,1834126,17072,-532,1028,17111.20,26.79,-1.00,-1.0,2374
4129,1834129,16916,-444,1020,16952.54,26.88,-1.00,-1.0,2378
4132,1834132,17036,-632,848,17068.80,26.88,-1.00,-1.0,2373
4135,1834135,17020,-432,984,17053.89,26.79,-1.00,-1.0,2378
4138,1834138,17024,-556,768,17050.38,26.88,-1.00,-1.0,2374
4141,1834141,17084,-612,1004,17124.42,26.88,-1.00,-1.0,2369
4144,1834144,17052,-568,988,17090.04,26.88,-1.00,-1.0,2374
4147,1834147,17032,-464,892,17061.65,26.88,-1.00,-1.0,2369
4150,1834150,17020,-612,892,17054.34,26.79,-1.00,-1.0,2369
4153,1834153,17012,-500,996,17048.46,26.88,-1.00,-1.0,2369
4156,1834156,16976,-524,964,17011.42,26.88,-1.00,-1.0,2370
4159,1834159,16976,-604,1016,17017.10,26.79,-1.00,-1.0,2360
4162,1834162,17052,-512,904,17083.62,26.88,-1.00,-1.0,2372
4165,1834165,16972,-580,1080,17016.21,26.88,-1.00,-1.0,2369
4177,1834177,16976,-456,924,17007.24,26.88,-1.00,-1.0,2430
4180,1834180,16960,-624,1068,17005.05,26.88,-1.00,-1.0,2381
4182,1834182,16940,-440,816,16965.35,26.93,-1.00,-1.0,2372
4185,1834185,17164,-580,1040,17205.26,26.93,-1.00,-1.0,2367
4188,1834188,16988,-556,988,17025.79,26.88,-1.00,-1.0,2367
4190,1834190,17056,-436,912,17085.93,26.84,-1.00,-1.0,2366
4193,1834193,17044,-616,820,17074.83,26.88,-1.00,-1.0,2373
4195,1834195,17064,-532,952,17098.81,26.93,-1.00,-1.0,2353
4198,1834198,16968,-580,912,17002.39,26.88,-1.00,-1.0,2365
4201,1834201,17040,-656,796,17071.19,26.88,-1.00,-1.0,2368
4203,1834203,16968,-576,1092,17012.86,26.93,-1.00,-1.0,2365
4206,1834206,17036,-544,828,17064.78,26.88,-1.00,-1.0,2373
4209,1834209,17024,-608,816,17054.39,26.84,-1.00,-1.0,2367
4211,1834211,17012,-572,1068,17055.09,26.88,-1.00,-1.0,2365
4214,1834214,17016,-544,872,17047.01,26.84,-1.00,-1.0,2370
4216,1834216,17012,-644,1056,17056.90,26.88,-1.00,-1.0,2365
4219,1834219,17064,-572,1148,17112.13,26.98,-1.00,-1.0,2368
4222,1834222,16976,-528,876,17006.79,26.84,-1.00,-1.0,2365
4224,1834224,17008,-556,1084,17051.58,26.88,-1.00,-1.0,2365
4227,1834227,17056,-428,904,17085.30,26.93,-1.00,-1.0,2366
4229,1834229,17056,-604,976,17094.58,26.88,-1.00,-1.0,2366
4232,1834232,17028,-600,1000,17067.89,26.88,-1.00,-1.0,2352
4235,1834235,17072,-580,940,17107.69,26.93,-1.00,-1.0,2365
4237,1834237,17176,-536,944,17210.27,26.88,-1.00,-1.0,2365
4240,1834240,16948,-532,948,16982.83,26.93,-1.00,-1.0,2366
4243,1834243,16988,-596,956,17025.31,26.84,-1.00,-1.0,2366
4246,1834246,16980,-516,1012,17017.96,26.93,-1.00,-1.0,2355
4249,1834249,17052,-552,864,17082.79,26.84,-1.00,-1.0,2353
4252,1834252,17024,-576,932,17059.22,26.88,-1.00,-1.0,2367
4255,1834255,16964,-544,868,16994.90,26.88,-1.00,-1.0,2366
4258,1834258,16952,-564,976,16989.44,26.79,-1.00,-1.0,2367
4261,1834261,16960,-652,860,16994.30,26.88,-1.00,-1.0,2367
4264,1834264,17044,-508,900,17075.30,26.98,-1.00,-1.0,2368
4267,1834267,16988,-448,928,17019.22,26.88,-1.00,-1.0,2370
4270,1834270,16896,-600,996,16935.96,26.79,-1.00,-1.0,2367
4273,1834273,17044,-656,868,17078.69,26.88,-1.00,-1.0,2367
4276,1834276,16984,-480,996,17019.95,26.88,-1.00,-1.0,2366
4279,1834279,17024,-568,1060,17066.42,26.88,-1.00,-1.0,2366
4282,1834282,17140,-620,852,17172.36,26.79,-1.00,-1.0,2367
4285,1834285,17040,-552,1044,17080.87,26.79,-1.00,-1.0,2367
4288,1834288,16988,-572,1084,17032.16,26.98,-1.00,-1.0,2366
4291,1834291,17008,-624,824,17039.38,26.98,-1.00,-1.0,2366
4294,1834294,17052,-556,1056,17093.71,26.88,-1.00,-1.0,2366
4297,1834297,17084,-464,1044,17122.16,26.88,-1.00,-1.0,2366
4300,1834300,17048,-596,916,17082.99,26.88,-1.00,-1.0,2366
4303,1834303,17040,-644,1020,17082.64,26.88,-1.00,-1.0,2370
4306,1834306,16968,-596,1132,17016.16,26.88,-1.00,-1.0,2367
4309,1834309,17088,-540,896,17119.99,26.88,-1.00,-1.0,2366
4312,1834312,16888,-584,912,16922.69,26.79,-1.00,-1.0,2367
4315,1834315,16980,-540,872,17010.95,26.93,-1.00,-1.0,2366
4318,1834318,16988,-568,812,17016.88,26.84,-1.00,-1.0,2366
4321,1834321,16904,-604,992,16943.85,26.84,-1.00,-1.0,2366
4324,1834324,17044,-572,904,17077.54,26.84,-1.00,-1.0,2366
4327,1834327,17052,-536,988,17089.01,26.93,-1.00,-1.0,2367
4330,1834330,17080,-540,912,17112.85,26.93,-1.00,-1.0,2363
4333,1834333,17108,-556,1056,17149.58,26.84,-1.00,-1.0,2367
4336,1834336,17080,-672,876,17115.65,26.93,-1.00,-1.0,2366
4339,1834339,17104,-472,928,17135.66,26.84,-1.00,-1.0,2367
4342,1834342,17052,-584,944,17088.09,26.93,-1.00,-1.0,2367
4345,1834345,17052,-524,1060,17092.95,26.84,-1.00,-1.0,2366
4348,1834348,17020,-564,892,17052.69,26.93,-1.00,-1.0,2366
4351,1834351,17068,-492,1072,17108.71,26.84,-1.00,-1.0,2367
4354,1834354,17076,-572,1256,17131.68,26.93,-1.00,-1.0,2366
4357,1834357,16992,-472,920,17023.43,26.74,-1.00,-1.0,2366
4360,1834360,17032,-596,964,17069.67,26.93,-1.00,-1.0,2374
4363,1834363,17032,-596,1112,17078.66,26.93,-1.00,-1.0,2374
4366,1834366,17012,-564,876,17043.87,26.93,-1.00,-1.0,2373
4369,1834369,17040,-512,1036,17079.14,26.93,-1.00,-1.0,2375
4372,1834372,16964,-696,992,17007.23,26.84,-1.00,-1.0,2373
4384,1834384,16980,-548,1020,17019.43,26.84,-1.00,-1.0,2430
4387,1834387,16964,-568,880,16996.30,26.93,-1.00,-1.0,2383
4389,1834389,16936,-516,928,16969.25,26.88,-1.00,-1.0,2372
4392,1834392,17020,-544,1060,17061.65,26.93,-1.00,-1.0,2365
4395,1834395,16988,-468,1056,17027.22,26.88,-1.00,-1.0,2366
4397,1834397,17072,-560,968,17108.59,26.84,-1.00,-1.0,2366
4400,1834400,17052,-484,960,17085.86,26.93,-1.00,-1.0,2375
4402,1834402,17040,-528,896,17071.71,26.88,-1.00,-1.0,2368
4405,1834405,16968,-644,1056,17013.02,26.93,-1.00,-1.0,2365
4408,1834408,17024,-620,1040,17067.00,26.79,-1.00,-1.0,2372
4410,1834410,17064,-476,1148,17109.20,27.02,-1.00,-1.0,2364
4413,1834413,17040,-620,860,17072.95,26.88,-1.00,-1.0,2376
4416,1834416,17088,-504,1004,17124.89,26.93,-1.00,-1.0,2364
4418,1834418,17032,-584,924,17067.04,26.88,-1.00,-1.0,2365
4421,1834421,17068,-588,936,17103.76,26.88,-1.00,-1.0,2366
4423,1834423,17080,-568,984,17117.75,26.93,-1.00,-1.0,2366
4426,1834426,17044,-560,828,17073.29,26.79,-1.00,-1.0,2353
4429,1834429,17100,-592,948,17136.49,26.93,-1.00,-1.0,2364
4431,1834431,17012,-496,912,17043.65,26.79,-1.00,-1.0,2366
4434,1834434,17036,-540,928,17069.80,26.88,-1.00,-1.0,2367
4436,1834436,16924,-564,980,16961.73,26.93,-1.00,-1.0,2365
4439,1834439,16968,-612,1016,17009.40,26.88,-1.00,-1.0,2354
4442,1834442,16928,-584,1020,16968.75,26.84,-1.00,-1.0,2365
4444,1834444,17072,-488,848,17100.01,26.88,-1.00,-1.0,2367
4447,1834447,17020,-532,960,17055.35,26.88,-1.00,-1.0,2353
4450,1834450,17036,-572,932,17071.06,26.88,-1.00,-1.0,2354
4453,1834453,17008,-580,960,17044.94,26.84,-1.00,-1.0,2369
4456,1834456,17012,-608,880,17045.59,26.84,-1.00,-1.0,2369
4459,1834459,16948,-552,948,16983.47,26.93,-1.00,-1.0,2366
4462,1834462,17080,-552,912,17113.24,26.93,-1.00,-1.0,2368
4465,1834465,16980,-580,848,17011.05,27.02,-1.00,-1.0,2364
4468,1834468,17104,-508,992,17140.27,26.93,-1.00,-1.0,2365
4471,1834471,17008,-608,908,17043.07,26.84,-1.00,-1.0,2365
4474,1834474,17068,-536,912,17100.75,26.84,-1.00,-1.0,2365
4477,1834477,17048,-512,956,17082.46,26.84,-1.00,-1.0,2365
4480,1834480,16920,-536,932,16954.12,26.93,-1.00,-1.0,2365
4483,1834483,17000,-584,972,17037.78,26.84,-1.00,-1.0,2365
4486,1834486,16968,-536,936,17002.25,26.93,-1.00,-1.0,2365
4489,1834489,17044,-532,1012,17082.30,26.84,-1.00,-1.0,2365
4492,1834492,17072,-672,860,17106.85,26.84,-1.00,-1.0,2365
4495,1834495,17052,-504,1052,17091.85,26.84,-1.00,-1.0,2364
4498,1834498,17036,-576,920,17070.54,26.93,-1.00,-1.0,2365
4501,1834501,17048,-532,820,17076.00,26.84,-1.00,-1.0,2366
4504,1834504,17044,-576,1036,17085.17,26.84,-1.00,-1.0,2368
4507,1834507,17124,-516,1108,17167.56,26.84,-1.00,-1.0,2365
4510,1834510,17056,-572,988,17094.16,26.93,-1.00,-1.0,2365
4513,1834513,17072,-592,1084,17116.62,26.93,-1.00,-1.0,2365
4516,1834516,16920,-580,848,16951.16,26.88,-1.00,-1.0,2365
4519,1834519,17028,-508,1000,17064.90,26.88,-1.00,-1.0,2364
4522,1834522,17088,-500,976,17123.15,26.88,-1.00,-1.0,2365
4525,1834525,17036,-536,920,17069.24,26.88,-1.00,-1.0,2365
4528,1834528,17012,-532,1004,17049.90,26.88,-1.00,-1.0,2365
4531,1834531,17188,-468,1008,17223.89,26.79,-1.00,-1.0,2365
4534,1834534,17052,-608,868,17084.90,26.88,-1.00,-1.0,2352
4537,1834537,17040,-528,888,17071.29,26.79,-1.00,-1.0,2352
4540,1834540,17032,-612,1036,17074.45,26.79,-1.00,-1.0,2365
4543,1834543,17036,-528,936,17069.86,26.88,-1.00,-1.0,2365
4546,1834546,17072,-580,948,17108.13,26.79,-1.00,-1.0,2365
4549,1834549,17028,-516,876,17058.32,26.98,-1.00,-1.0,2365
4552,1834552,17004,-648,1052,17048.83,26.79,-1.00,-1.0,2367
4555,1834555,16996,-616,852,17028.49,26.88,-1.00,-1.0,2368
4558,1834558,17028,-532,976,17064.24,26.79,-1.00,-1.0,2365
4561,1834561,17044,-624,888,17078.52,26.88,-1.00,-1.0,2365
4564,1834564,17048,-504,928,17080.68,26.88,-1.00,-1.0,2365
4567,1834567,17028,-532,928,17061.56,26.88,-1.00,-1.0,2365
4570,1834570,16984,-508,1032,17022.91,26.88,-1.00,-1.0,2365
4573,1834573,16988,-544,832,17017.06,26.79,-1.00,-1.0,2365
4576,1834576,16944,-520,956,16978.91,26.88,-1.00,-1.0,2365
4579,1834579,17004,-548,760,17029.79,26.88,-1.00,-1.0,2367
4592,1834592,16996,-608,960,17033.95,26.88,-1.00,-1.0,2430
4594,1834594,17016,-544,1048,17056.92,26.88,-1.00,-1.0,2373
4597,1834597,16980,-600,880,17013.37,26.93,-1.00,-1.0,2372
4599,1834599,17044,-564,928,17078.56,26.93,-1.00,-1.0,2373
4602,1834602,17008,-504,1000,17044.83,26.88,-1.00,-1.0,2365
4605,1834605,17040,-668,944,17079.20,26.93,-1.00,-1.0,2367
4607,1834607,17060,-560,876,17091.65,26.88,-1.00,-1.0,2369
4610,1834610,17016,-508,928,17048.86,26.84,-1.00,-1.0,2376
4612,1834612,17080,-676,940,17119.20,26.88,-1.00,-1.0,2353
4615,1834615,17040,-464,1000,17075.62,26.84,-1.00,-1.0,2369
4618,1834618,17068,-532,948,17102.58,26.88,-1.00,-1.0,2369
4620,1834620,17020,-548,940,17054.74,26.88,-1.00,-1.0,2352
4623,1834623,17044,-600,924,17079.57,26.84,-1.00,-1.0,2372
4626,1834626,16968,-592,932,17003.88,26.98,-1.00,-1.0,2367
4628,1834628,17080,-476,988,17115.17,26.93,-1.00,-1.0,2365
4631,1834631,17000,-716,920,17039.93,26.88,-1.00,-1.0,2369
4633,1834633,16972,-640,1024,17014.90,26.84,-1.00,-1.0,2365
4636,1834636,16980,-548,884,17011.82,26.93,-1.00,-1.0,2368
4639,1834639,17052,-512,1128,17096.94,26.88,-1.00,-1.0,2365
4641,1834641,17012,-600,1032,17053.83,26.93,-1.00,-1.0,2365
4644,1834644,17008,-548,956,17043.66,26.98,-1.00,-1.0,2369
4646,1834646,17068,-500,840,17095.97,26.93,-1.00,-1.0,2365
4649,1834649,16980,-632,964,17019.08,26.88,-1.00,-1.0,2368
4652,1834652,16988,-552,984,17025.43,26.88,-1.00,-1.0,2365
4654,1834654,17012,-512,844,17040.62,26.98,-1.00,-1.0,2376
4657,1834657,17028,-504,944,17061.59,26.88,-1.00,-1.0,2375
4660,1834660,16908,-596,824,16938.55,26.79,-1.00,-1.0,2373
4663,1834663,16836,-456,1016,16872.79,26.79,-1.00,-1.0,2375
4666,1834666,17116,-580,940,17151.60,26.88,-1.00,-1.0,2373
4669,1834669,17008,-576,868,17039.87,26.88,-1.00,-1.0,2373
4672,1834672,16972,-544,940,17006.71,26.88,-1.00,-1.0,2375
4675,1834675,16896,-600,900,16930.59,26.79,-1.00,-1.0,2374
4678,1834678,17116,-496,964,17150.30,26.98,-1.00,-1.0,2372
4681,1834681,17092,-500,940,17125.13,26.88,-1.00,-1.0,2376
4684,1834684,17024,-548,976,17060.76,26.79,-1.00,-1.0,2373
4687,1834687,17056,-560,928,17090.40,26.88,-1.00,-1.0,2373
4690,1834690,17028,-588,876,17060.65,26.98,-1.00,-1.0,2370
4693,1834693,17064,-484,1112,17107.04,26.88,-1.00,-1.0,2372
4696,1834696,17032,-532,892,17063.64,26.79,-1.00,-1.0,2373
4699,1834699,17084,-556,992,17121.81,26.98,-1.00,-1.0,2373
4702,1834702,17064,-612,1036,17106.37,26.88,-1.00,-1.0,2372
4705,1834705,16944,-528,956,16979.16,26.88,-1.00,-1.0,2372
4708,1834708,17124,-708,964,17165.72,26.88,-1.00,-1.0,2372
4711,1834711,17032,-488,936,17064.68,26.79,-1.00,-1.0,2367
4714,1834714,17004,-512,952,17038.32,26.88,-1.00,-1.0,2367
4717,1834717,16984,-628,980,17023.84,26.88,-1.00,-1.0,2367
4720,1834720,17032,-564,988,17069.95,26.98,-1.00,-1.0,2367
4723,1834723,16872,-604,964,16910.31,26.79,-1.00,-1.0,2352
4726,1834726,17104,-516,924,17136.71,26.88,-1.00,-1.0,2352
4729,1834729,17036,-628,880,17070.27,26.88,-1.00,-1.0,2367
4733,1834733,17052,-520,1048,17092.09,26.88,-1.00,-1.0,2367
4736,1834736,16968,-552,880,16999.77,26.79,-1.00,-1.0,2365
4739,1834739,16912,-540,956,16947.60,26.88,-1.00,-1.0,2367
4742,1834742,16988,-504,880,17018.24,26.84,-1.00,-1.0,2365
4745,1834745,17060,-572,988,17098.16,27.02,-1.00,-1.0,2364
4748,1834748,17020,-580,852,17051.18,26.84,-1.00,-1.0,2365
4751,1834751,17084,-676,1060,17130.20,26.93,-1.00,-1.0,2365
4754,1834754,16964,-588,1056,17007.00,26.93,-1.00,-1.0,2368
4757,1834757,16940,-544,920,16973.68,26.93,-1.00,-1.0,2365
4760,1834760,16964,-668,988,17005.87,27.02,-1.00,-1.0,2365
4763,1834763,17056,-484,900,17086.59,26.93,-1.00,-1.0,2365
4766,1834766,16984,-624,1008,17025.32,26.84,-1.00,-1.0,2365
4769,1834769,17032,-548,912,17065.20,26.93,-1.00,-1.0,2364
4772,1834772,16988,-640,1004,17029.67,26.93,-1.00,-1.0,2365
4775,1834775,17028,-560,860,17058.90,26.93,-1.00,-1.0,2365
4778,1834778,17008,-544,920,17041.55,26.84,-1.00,-1.0,2368
4781,1834781,17012,-520,868,17042.06,26.84,-1.00,-1.0,2365
4784,1834784,17112,-572,968,17148.90,26.88,-1.00,-1.0,2364
4787,1834787,17076,-548,1036,17116.17,26.98,-1.00,-1.0,2365
4799,1834799,16916,-496,876,16945.93,26.93,-1.00,-1.0,2434
4801,1834801,17084,-524,920,17116.78,26.93,-1.00,-1.0,2380
4804,1834804,17036,-592,1068,17079.71,26.88,-1.00,-1.0,2365
4807,1834807,16920,-476,988,16955.50,26.84,-1.00,-1.0,2370
4809,1834809,16980,-512,940,17013.71,26.79,-1.00,-1.0,2365
4812,1834812,16932,-516,976,16967.95,26.98,-1.00,-1.0,2374
4814,1834814,17008,-588,948,17044.54,26.93,-1.00,-1.0,2366
4817,1834817,16976,-540,968,17012.15,26.88,-1.00,-1.0,2365
4820,1834820,17004,-488,852,17032.32,26.93,-1.00,-1.0,2369
4822,1834822,17080,-568,864,17111.27,26.88,-1.00,-1.0,2352
4825,1834825,16952,-556,964,16988.49,26.84,-1.00,-1.0,2371
4828,1834828,17144,-644,900,17179.68,26.84,-1.00,-1.0,2367
4830,1834830,17112,-572,1036,17152.87,26.88,-1.00,-1.0,2365
4833,1834833,17000,-584,1052,17042.53,26.93,-1.00,-1.0,2370
4835,1834835,16964,-660,864,16998.80,26.88,-1.00,-1.0,2365
4838,1834838,17080,-568,904,17113.34,26.93,-1.00,-1.0,2372
4841,1834841,17052,-680,992,17094.36,26.88,-1.00,-1.0,2364
4843,1834843,17064,-496,940,17097.07,26.93,-1.00,-1.0,2365
4846,1834846,17000,-620,956,17038.14,26.84,-1.00,-1.0,2369
4848,1834848,17148,-552,984,17185.08,26.88,-1.00,-1.0,2365
4851,1834851,17140,-516,1068,17180.99,26.84,-1.00,-1.0,2370
4854,1834854,16972,-484,896,17002.53,26.88,-1.00,-1.0,2365
4856,1834856,17020,-508,924,17052.63,26.84,-1.00,-1.0,2373
4859,1834859,17064,-612,1072,17108.59,26.79,-1.00,-1.0,2367
4862,1834862,17084,-596,1044,17126.24,26.93,-1.00,-1.0,2364
4865,1834865,17116,-484,884,17145.65,26.84,-1.00,-1.0,2364
4868,1834868,16940,-524,1044,16980.23,26.84,-1.00,-1.0,2365
4871,1834871,16960,-632,812,16991.19,26.93,-1.00,-1.0,2365
4874,1834874,17120,-564,1044,17161.07,26.84,-1.00,-1.0,2365
4877,1834877,17032,-624,832,17063.72,26.93,-1.00,-1.0,2365
4880,1834880,17040,-584,1028,17080.97,26.93,-1.00,-1.0,2366
4883,1834883,17056,-504,992,17092.26,26.93,-1.00,-1.0,2368
4886,1834886,17048,-456,840,17074.77,26.93,-1.00,-1.0,2372
4889,1834889,17116,-528,936,17149.70,26.84,-1.00,-1.0,2372
4892,1834892,17032,-480,932,17064.23,26.93,-1.00,-1.0,2369
4895,1834895,17024,-536,992,17061.30,26.84,-1.00,-1.0,2368
4898,1834898,17072,-420,980,17105.26,26.84,-1.00,-1.0,2377
4901,1834901,16968,-612,832,16999.41,26.93,-1.00,-1.0,2373
4904,1834904,16960,-628,996,17000.82,26.93,-1.00,-1.0,2374
4907,1834907,17052,-592,920,17087.06,26.93,-1.00,-1.0,2371
4910,1834910,17032,-556,904,17065.03,26.88,-1.00,-1.0,2377
4913,1834913,17004,-552,852,17034.28,26.88,-1.00,-1.0,2374
4916,1834916,17072,-516,984,17108.12,26.88,-1.00,-1.0,2375
4919,1834919,17072,-580,1008,17111.56,26.88,-1.00,-1.0,2372
4922,1834922,17020,-500,964,17054.61,26.79,-1.00,-1.0,2371
4925,1834925,16976,-564,912,17009.83,26.88,-1.00,-1.0,2369
4928,1834928,16972,-604,940,17008.74,26.98,-1.00,-1.0,2368
4931,1834931,17108,-524,936,17141.60,26.88,-1.00,-1.0,2369
4934,1834934,17028,-488,1104,17070.73,26.79,-1.00,-1.0,2373
4937,1834937,17012,-552,924,17046.02,26.88,-1.00,-1.0,2366
4940,1834940,16972,-552,972,17008.77,26.88,-1.00,-1.0,2368
4943,1834943,17060,-632,988,17100.27,26.88,-1.00,-1.0,2367
4946,1834946,16952,-600,876,16985.22,26.98,-1.00,-1.0,2370
4949,1834949,17080,-620,984,17119.55,26.98,-1.00,-1.0,2368
4952,1834952,17020,-580,976,17057.82,26.88,-1.00,-1.0,2367
4955,1834955,16984,-504,900,17015.29,26.98,-1.00,-1.0,2367
4958,1834958,17040,-640,908,17076.17,26.88,-1.00,-1.0,2368
4961,1834961,16976,-536,956,17011.34,26.88,-1.00,-1.0,2367
4964,1834964,16984,-568,916,17018.16,26.88,-1.00,-1.0,2366
4967,1834967,17104,-588,1020,17144.47,26.79,-1.00,-1.0,2366
4970,1834970,17008,-696,960,17049.28,26.98,-1.00,-1.0,2366
4973,1834973,17040,-584,812,17069.33,26.88,-1.00,-1.0,2366
4976,1834976,17008,-572,948,17044.00,26.79,-1.00,-1.0,2366
4979,1834979,17132,-652,900,17168.01,26.88,-1.00,-1.0,2370
4982,1834982,16932,-604,1016,16973.21,26.84,-1.00,-1.0,2366
4985,1834985,16988,-620,928,17024.62,26.84,-1.00,-1.0,2366
4988,1834988,17068,-504,956,17102.18,26.84,-1.00,-1.0,2366
4991,1834991,16980,-656,872,17015.03,26.93,-1.00,-1.0,2366
4994,1834994,17116,-532,1100,17159.56,26.93,-1.00,-1.0,2366
5006,1835006,16900,-548,948,16935.44,26.88,-1.00,-1.0,2433
5009,1835009,17008,-580,980,17046.08,26.88,-1.00,-1.0,2377
5011,1835011,17020,-548,1020,17059.34,26.93,-1.00,-1.0,2365
5014,1835014,17028,-544,968,17064.17,26.79,-1.00,-1.0,2368
5016,1835016,17052,-544,972,17088.34,26.93,-1.00,-1.0,2368
5019,1835019,17116,-548,1024,17155.36,26.88,-1.00,-1.0,2362
5022,1835022,17028,-512,1084,17070.15,26.88,-1.00,-1.0,2368
5024,1835024,17076,-576,1116,17122.12,26.93,-1.00,-1.0,2361
5027,1835027,16992,-644,980,17032.42,26.88,-1.00,-1.0,2372
5030,1835030,17032,-612,944,17069.12,26.84,-1.00,-1.0,2363
5032,1835032,16984,-608,1052,17027.41,26.88,-1.00,-1.0,2365
5035,1835035,17004,-480,888,17033.94,26.79,-1.00,-1.0,2363
5037,1835037,16880,-544,964,16916.25,26.93,-1.00,-1.0,2351
5040,1835040,17120,-680,924,17158.40,26.88,-1.00,-1.0,2369
5042,1835042,17004,-552,900,17036.75,26.93,-1.00,-1.0,2356
5045,1835045,17120,-636,928,17156.93,26.98,-1.00,-1.0,2362
5048,1835048,16984,-548,896,17016.44,26.88,-1.00,-1.0,2371
5050,1835050,16948,-580,912,16982.43,26.93,-1.00,-1.0,2361
5053,1835053,17048,-612,980,17087.11,26.88,-1.00,-1.0,2372
5055,1835055,17116,-572,1052,17157.84,26.84,-1.00,-1.0,2363
5058,1835058,17012,-508,912,17044.00,26.79,-1.00,-1.0,2365
5061,1835061,17120,-604,960,17157.53,26.84,-1.00,-1.0,2370
5063,1835063,17004,-612,988,17043.67,26.84,-1.00,-1.0,2352
5066,1835066,17084,-600,1056,17127.12,26.88,-1.00,-1.0,2369
5069,1835069,17136,-532,976,17172.02,26.88,-1.00,-1.0,2374
5072,1835072,17032,-544,828,17060.79,26.88,-1.00,-1.0,2371
5075,1835075,16940,-616,876,16973.82,26.88,-1.00,-1.0,2374
5078,1835078,17124,-492,896,17154.48,26.98,-1.00,-1.0,2371
5081,1835081,17020,-520,904,17051.92,26.88,-1.00,-1.0,2374
5084,1835084,16980,-608,952,17017.53,26.88,-1.00,-1.0,2371
5087,1835087,17020,-580,932,17055.36,26.88,-1.00,-1.0,2374
5090,1835090,17044,-520,792,17070.31,26.88,-1.00,-1.0,2370
5093,1835093,16940,-580,808,16969.17,26.98,-1.00,-1.0,2369
5096,1835096,17008,-632,1028,17050.76,26.88,-1.00,-1.0,2365
5099,1835099,17028,-592,900,17062.04,26.88,-1.00,-1.0,2361
5102,1835102,17004,-600,1020,17045.13,26.79,-1.00,-1.0,2358
5105,1835105,17036,-576,1060,17078.66,26.88,-1.00,-1.0,2376
5108,1835108,16948,-560,940,16983.28,26.88,-1.00,-1.0,2374
5111,1835111,17096,-468,1032,17133.51,26.93,-1.00,-1.0,2377
5114,1835114,17140,-564,968,17176.57,26.93,-1.00,-1.0,2369
5117,1835117,16980,-492,1088,17021.93,26.74,-1.00,-1.0,2374
5120,1835120,16992,-552,960,17028.05,26.84,-1.00,-1.0,2371
5123,1835123,17072,-536,820,17100.08,26.93,-1.00,-1.0,2373
5126,1835126,17060,-564,976,17097.20,26.93,-1.00,-1.0,2370
5129,1835129,16980,-488,1096,17022.33,26.84,-1.00,-1.0,2373
5132,1835132,17088,-584,964,17125.13,26.93,-1.00,-1.0,2370
5135,1835135,16992,-472,976,17026.55,26.84,-1.00,-1.0,2374
5138,1835138,17080,-596,944,17116.45,26.93,-1.00,-1.0,2370
5141,1835141,16984,-656,852,17018.01,26.93,-1.00,-1.0,2369
5144,1835144,17016,-540,1008,17054.38,26.84,-1.00,-1.0,2366
5147,1835147,17080,-524,1072,17121.63,26.84,-1.00,-1.0,2374
5150,1835150,16976,-664,1000,17018.39,26.84,-1.00,-1.0,2370
5153,1835153,16936,-688,1024,16980.87,26.84,-1.00,-1.0,2369
5156,1835156,17040,-472,896,17070.07,26.93,-1.00,-1.0,2366
5159,1835159,16956,-524,1060,16997.18,26.93,-1.00,-1.0,2369
5162,1835162,16956,-520,908,16988.25,26.93,-1.00,-1.0,2366
5165,1835165,17012,-656,960,17051.69,26.84,-1.00,-1.0,2354
5168,1835168,16952,-624,964,16990.85,26.84,-1.00,-1.0,2350
5171,1835171,17060,-556,1020,17099.51,26.93,-1.00,-1.0,2369
5174,1835174,17072,-512,856,17101.11,26.93,-1.00,-1.0,2366
5177,1835177,17084,-516,896,17115.26,26.93,-1.00,-1.0,2368
5180,1835180,16996,-644,1008,17038.04,26.93,-1.00,-1.0,2365
5183,1835183,17012,-640,900,17047.81,26.88,-1.00,-1.0,2366
5186,1835186,17088,-516,1004,17125.24,26.98,-1.00,-1.0,2363
5189,1835189,17024,-532,992,17061.17,26.88,-1.00,-1.0,2353
5192,1835192,16928,-580,928,16963.34,26.88,-1.00,-1.0,2363
5195,1835195,16980,-624,1052,17024.00,26.98,-1.00,-1.0,2367
5198,1835198,17020,-568,864,17051.38,26.79,-1.00,-1.0,2370
5201,1835201,17016,-560,988,17053.86,26.79,-1.00,-1.0,2369
5213,1835213,17048,-508,948,17081.89,26.88,-1.00,-1.0,2436
5216,1835216,17056,-504,968,17090.88,26.79,-1.00,-1.0,2371
5218,1835218,17072,-580,964,17109.03,26.84,-1.00,-1.0,2365
5221,1835221,17044,-660,860,17078.44,26.93,-1.00,-1.0,2364
5224,1835224,17092,-552,1016,17131.07,26.88,-1.00,-1.0,2365
5226,1835226,17012,-620,972,17051.02,26.93,-1.00,-1.0,2361
5229,1835229,16956,-512,988,16992.47,26.88,-1.00,-1.0,2370
5231,1835231,17092,-600,936,17128.12,26.93,-1.00,-1.0,2362
5234,1835234,16964,-528,896,16995.85,26.88,-1.00,-1.0,2372
5237,1835237,17036,-572,976,17073.52,26.88,-1.00,-1.0,2361
5239,1835239,17048,-604,932,17084.14,26.93,-1.00,-1.0,2365
5242,1835242,17112,-468,924,17143.32,26.79,-1.00,-1.0,2367
5244,1835244,17060,-652,964,17099.65,26.84,-1.00,-1.0,2362
5247,1835247,16992,-608,956,17029.73,26.88,-1.00,-1.0,2367
5250,1835250,17012,-660,984,17053.21,26.88,-1.00,-1.0,2362
5252,1835252,17040,-580,852,17071.14,26.93,-1.00,-1.0,2365
5255,1835255,16972,-596,1104,17018.31,26.88,-1.00,-1.0,2368
5257,1835257,16988,-540,944,17022.78,26.84,-1.00,-1.0,2362
5260,1835260,17060,-572,828,17089.66,26.88,-1.00,-1.0,2367
5263,1835263,17008,-540,900,17040.35,26.93,-1.00,-1.0,2361
5265,1835265,17080,-584,1048,17122.08,26.84,-1.00,-1.0,2365
5268,1835268,17068,-600,792,17096.90,26.88,-1.00,-1.0,2368
5270,1835270,16924,-552,876,16955.64,26.84,-1.00,-1.0,2366
5273,1835273,17068,-632,884,17102.56,26.84,-1.00,-1.0,2366
5276,1835276,17024,-516,952,17058.40,26.74,-1.00,-1.0,2363
5279,1835279,17096,-544,876,17127.07,26.93,-1.00,-1.0,2366
5282,1835282,17108,-584,944,17143.97,26.93,-1.00,-1.0,2363
5285,1835285,17044,-644,948,17082.49,26.93,-1.00,-1.0,2366
5288,1835288,16996,-652,948,17034.90,26.84,-1.00,-1.0,2363
5291,1835291,16980,-552,964,17016.30,26.93,-1.00,-1.0,2366
5294,1835294,17012,-628,1096,17058.83,26.93,-1.00,-1.0,2367
5297,1835297,16940,-536,996,16977.72,26.93,-1.00,-1.0,2366
5300,1835300,17024,-476,988,17059.29,26.93,-1.00,-1.0,2363
5303,1835303,16908,-480,904,16938.95,26.93,-1.00,-1.0,2366
5306,1835306,17104,-576,956,17140.38,26.84,-1.00,-1.0,2363
5309,1835309,17020,-496,1072,17060.94,26.84,-1.00,-1.0,2366
5312,1835312,17072,-644,984,17112.46,26.93,-1.00,-1.0,2363
5315,1835315,17028,-500,944,17061.47,26.88,-1.00,-1.0,2367
5318,1835318,17072,-592,896,17105.74,26.88,-1.00,-1.0,2363
5321,1835321,17044,-532,916,17076.88,26.79,-1.00,-1.0,2366
5324,1835324,17012,-468,852,17039.75,26.79,-1.00,-1.0,2363
5327,1835327,16980,-576,904,17013.80,26.88,-1.00,-1.0,2367
5330,1835330,17088,-484,896,17118.32,26.88,-1.00,-1.0,2363
5333,1835333,16968,-472,1052,17007.13,26.88,-1.00,-1.0,2366
5336,1835336,17004,-584,928,17039.31,26.88,-1.00,-1.0,2366
5339,1835339,16976,-528,1020,17014.81,26.88,-1.00,-1.0,2366
5342,1835342,17084,-612,940,17120.78,26.79,-1.00,-1.0,2367
5345,1835345,17000,-644,848,17033.32,26.98,-1.00,-1.0,2366
5348,1835348,17092,-636,908,17127.91,26.88,-1.00,-1.0,2366
5351,1835351,16924,-544,868,16954.97,26.88,-1.00,-1.0,2366
5354,1835354,17052,-480,1040,17090.43,26.88,-1.00,-1.0,2363
5357,1835357,17052,-588,920,17086.92,26.88,-1.00,-1.0,2366
5360,1835360,17008,-528,964,17043.48,26.88,-1.00,-1.0,2362
5363,1835363,17076,-652,1004,17117.91,26.88,-1.00,-1.0,2374
5366,1835366,16968,-536,936,17002.25,26.88,-1.00,-1.0,2371
5369,1835369,17092,-564,900,17124.97,26.88,-1.00,-1.0,2374
5372,1835372,17052,-544,772,17078.13,26.79,-1.00,-1.0,2372
5375,1835375,16944,-592,1068,16987.94,26.88,-1.00,-1.0,2374
5378,1835378,17028,-588,1000,17067.47,26.88,-1.00,-1.0,2369
5381,1835381,16960,-548,904,16992.91,26.93,-1.00,-1.0,2374
5384,1835384,17008,-584,1048,17050.26,26.84,-1.00,-1.0,2371
5387,1835387,17024,-588,1016,17064.42,26.84,-1.00,-1.0,2374
5390,1835390,16968,-512,1052,17008.29,26.84,-1.00,-1.0,2370
5393,1835393,17080,-548,1004,17118.26,26.93,-1.00,-1.0,2381
5396,1835396,17128,-556,964,17164.11,26.93,-1.00,-1.0,2378
5399,1835399,17000,-596,936,17036.18,26.84,-1.00,-1.0,2381
5402,1835402,17072,-580,1020,17112.28,26.84,-1.00,-1.0,2378
5405,1835405,16996,-544,912,17029.14,26.84,-1.00,-1.0,2381
5408,1835408,16980,-612,992,17019.96,26.93,-1.00,-1.0,2377
5411,1835411,16984,-592,936,17020.07,26.93,-1.00,-1.0,2374
5423,1835423,17004,-588,924,17039.23,26.79,-1.00,-1.0,2432
5426,1835426,17028,-620,944,17065.41,26.88,-1.00,-1.0,2372
5429,1835429,17084,-544,948,17118.93,26.93,-1.00,-1.0,2368
5431,1835431,17028,-544,924,17061.73,26.79,-1.00,-1.0,2362
5434,1835434,17052,-564,932,17086.76,26.79,-1.00,-1.0,2376
5436,1835436,17048,-596,964,17085.63,26.88,-1.00,-1.0,2363
5439,1835439,17060,-552,932,17094.35,26.79,-1.00,-1.0,2366
5442,1835442,16956,-536,1104,17000.35,26.84,-1.00,-1.0,2365
5444,1835444,16960,-560,808,16988.47,26.88,-1.00,-1.0,2365
5447,1835447,16988,-564,1032,17028.66,26.84,-1.00,-1.0,2369
5449,1835449,17008,-572,840,17038.33,26.88,-1.00,-1.0,2368
5452,1835452,16992,-548,1000,17030.22,26.84,-1.00,-1.0,2361
5455,1835455,17004,-620,924,17040.37,26.93,-1.00,-1.0,2370
5457,1835457,17052,-576,996,17090.77,26.79,-1.00,-1.0,2361
5460,1835460,17108,-604,848,17139.65,26.84,-1.00,-1.0,2372
5462,1835462,16988,-536,1012,17026.55,26.88,-1.00,-1.0,2350
5465,1835465,17020,-524,884,17050.99,26.84,-1.00,-1.0,2365
5468,1835468,17036,-576,992,17074.58,26.93,-1.00,-1.0,2369
5470,1835470,16924,-592,936,16960.20,26.79,-1.00,-1.0,2366
5473,1835473,17036,-520,964,17071.17,26.84,-1.00,-1.0,2373
5475,1835475,17056,-536,880,17087.10,26.88,-1.00,-1.0,2368
5478,1835478,16980,-484,1040,17018.70,26.84,-1.00,-1.0,2366
5481,1835481,17012,-444,956,17044.62,26.88,-1.00,-1.0,2370
5483,1835483,17048,-560,1036,17088.63,26.88,-1.00,-1.0,2418
5486,1835486,16976,-588,992,17015.12,26.88,-1.00,-1.0,2372
5489,1835489,16996,-672,964,17036.58,26.88,-1.00,-1.0,2366
5492,1835492,17024,-668,1000,17066.42,26.88,-1.00,-1.0,2366
5495,1835495,17028,-632,888,17062.85,26.98,-1.00,-1.0,2366
5498,1835498,16996,-600,844,17027.52,26.88,-1.00,-1.0,2366
5501,1835501,16952,-520,1012,16990.14,26.88,-1.00,-1.0,2366
5504,1835504,17020,-520,1004,17057.52,26.98,-1.00,-1.0,2366
5507,1835507,16924,-576,1004,16963.54,26.79,-1.00,-1.0,2367
5510,1835510,17032,-600,1024,17073.30,26.88,-1.00,-1.0,2366
5513,1835513,17060,-512,964,17094.88,26.88,-1.00,-1.0,2366
5516,1835516,17072,-588,912,17106.45,26.93,-1.00,-1.0,2366
5519,1835519,16976,-568,1068,17019.04,26.84,-1.00,-1.0,2366
5522,1835522,17044,-584,920,17078.80,26.84,-1.00,-1.0,2366
5525,1835525,17052,-580,1056,17094.51,26.93,-1.00,-1.0,2370
5528,1835528,16956,-452,1000,16991.47,26.93,-1.00,-1.0,2366
5531,1835531,17028,-524,1096,17071.28,26.84,-1.00,-1.0,2367
5534,1835534,17136,-564,888,17168.26,26.93,-1.00,-1.0,2353
5537,1835537,16976,-564,936,17011.14,26.84,-1.00,-1.0,2353
5540,1835540,16976,-572,960,17012.74,26.84,-1.00,-1.0,2366
5543,1835543,17108,-648,1064,17153.30,26.93,-1.00,-1.0,2366
5546,1835546,16936,-620,896,16971.01,26.93,-1.00,-1.0,2370
5549,1835549,17036,-516,756,17060.57,26.84,-1.00,-1.0,2366
5552,1835552,17064,-592,832,17094.53,26.84,-1.00,-1.0,2367
5555,1835555,17020,-624,1052,17063.89,26.84,-1.00,-1.0,2369
5558,1835558,17000,-532,992,17037.23,26.84,-1.00,-1.0,2366
5561,1835561,17068,-532,1024,17106.96,26.93,-1.00,-1.0,2366
5564,1835564,16984,-544,1072,17026.49,26.93,-1.00,-1.0,2366
5567,1835567,17052,-484,920,17083.66,26.84,-1.00,-1.0,2366
5570,1835570,16992,-564,996,17030.51,26.93,-1.00,-1.0,2367
5573,1835573,17008,-564,924,17042.42,26.93,-1.00,-1.0,2367
5576,1835576,16964,-544,988,17001.45,26.93,-1.00,-1.0,2366
5579,1835579,17124,-608,988,17163.25,26.93,-1.00,-1.0,2368
5582,1835582,17068,-648,1000,17109.54,26.88,-1.00,-1.0,2370
5585,1835585,16984,-544,936,17018.47,26.88,-1.00,-1.0,2368
5588,1835588,16968,-508,920,17000.51,26.88,-1.00,-1.0,2370
5591,1835591,17052,-556,940,17086.94,26.79,-1.00,-1.0,2368
5594,1835594,17004,-652,964,17043.78,26.88,-1.00,-1.0,2366
5597,1835597,17028,-544,1032,17067.92,26.98,-1.00,-1.0,2368
5600,1835600,17048,-492,896,17078.62,26.88,-1.00,-1.0,2368
5603,1835603,17080,-576,1016,17119.88,26.79,-1.00,-1.0,2367
5606,1835606,16968,-568,968,17005.08,26.88,-1.00,-1.0,2369
5609,1835609,17200,-588,996,17238.84,26.98,-1.00,-1.0,2367
5612,1835612,16988,-512,932,17021.25,26.88,-1.00,-1.0,2372
5615,1835615,17088,-524,1004,17125.49,26.88,-1.00,-1.0,2369
5618,1835618,17084,-536,1060,17125.24,26.88,-1.00,-1.0,2367
5631,1835631,17040,-568,1012,17079.47,26.88,-1.00,-1.0,2436
5633,1835633,17056,-624,1008,17097.15,26.88,-1.00,-1.0,2373
5636,1835636,16956,-588,972,16994.01,26.84,-1.00,-1.0,2368
5639,1835639,17080,-548,964,17115.96,26.84,-1.00,-1.0,2364
5641,1835641,16984,-524,976,17020.09,26.88,-1.00,-1.0,2372
5644,1835644,17008,-580,1116,17054.44,26.84,-1.00,-1.0,2367
5646,1835646,16968,-512,896,16999.35,26.88,-1.00,-1.0,2366
5649,1835649,17116,-472,1004,17151.92,26.93,-1.00,-1.0,2352
5652,1835652,16920,-552,848,16950.23,26.88,-1.00,-1.0,2365
5654,1835654,17156,-560,876,17187.47,26.79,-1.00,-1.0,2373
5657,1835657,17072,-496,1048,17111.33,26.93,-1.00,-1.0,2367
5659,1835659,17080,-616,848,17112.13,26.88,-1.00,-1.0,2367
5662,1835662,16952,-496,948,16985.73,26.84,-1.00,-1.0,2366
5665,1835665,17048,-512,928,17080.91,26.88,-1.00,-1.0,2365
5667,1835667,17036,-588,992,17074.98,26.84,-1.00,-1.0,2379
5670,1835670,16984,-564,964,17020.68,26.88,-1.00,-1.0,2366
5672,1835672,17004,-512,984,17040.14,26.84,-1.00,-1.0,2369
5675,1835675,17048,-496,976,17083.12,26.84,-1.00,-1.0,2368
5678,1835678,16884,-500,1032,16922.90,26.88,-1.00,-1.0,2364
5680,1835680,17072,-576,860,17103.35,26.84,-1.00,-1.0,2356
5683,1835683,16996,-516,808,17023.02,26.88,-1.00,-1.0,2373
5685,1835685,16992,-448,892,17021.29,26.93,-1.00,-1.0,2373
5688,1835688,17096,-568,860,17127.04,26.98,-1.00,-1.0,2365
5691,1835691,17012,-508,920,17044.43,26.88,-1.00,-1.0,2365
5693,1835693,17068,-596,1064,17111.52,26.84,-1.00,-1.0,2371
5696,1835696,16900,-528,976,16936.39,26.93,-1.00,-1.0,2372
5699,1835699,16996,-644,876,17030.74,26.93,-1.00,-1.0,2373
5702,1835702,16948,-528,824,16976.23,26.93,-1.00,-1.0,2373
5705,1835705,16980,-540,944,17014.79,26.84,-1.00,-1.0,2373
5708,1835708,17060,-580,872,17092.12,26.93,-1.00,-1.0,2372
5711,1835711,17000,-568,1008,17039.33,26.93,-1.00,-1.0,2367
5714,1835714,17040,-512,1008,17077.46,26.88,-1.00,-1.0,2367
5717,1835717,17048,-572,876,17080.07,26.88,-1.00,-1.0,2367
5720,1835720,16920,-648,1064,16965.80,26.88,-1.00,-1.0,2367
5723,1835723,17020,-608,888,17053.99,26.79,-1.00,-1.0,2354
5726,1835726,16972,-544,984,17009.20,26.88,-1.00,-1.0,2352
5729,1835729,16964,-500,912,16995.85,26.88,-1.00,-1.0,2367
5733,1835733,17080,-544,972,17116.28,26.88,-1.00,-1.0,2367
5736,1835736,16992,-600,872,17024.94,26.88,-1.00,-1.0,2366
5739,1835739,17044,-484,892,17074.19,26.88,-1.00,-1.0,2368
5742,1835742,17096,-508,980,17131.60,26.88,-1.00,-1.0,2365
5745,1835745,17000,-500,888,17030.52,26.88,-1.00,-1.0,2368
5748,1835748,17080,-584,908,17114.09,26.98,-1.00,-1.0,2365
5751,1835751,16916,-536,1068,16958.15,26.79,-1.00,-1.0,2365
5754,1835754,17072,-636,892,17107.11,26.88,-1.00,-1.0,2365
5757,1835757,17132,-508,836,17159.91,26.88,-1.00,-1.0,2364
5760,1835760,17092,-624,908,17127.47,26.88,-1.00,-1.0,2365
5763,1835763,16948,-472,860,16976.37,26.98,-1.00,-1.0,2365
5766,1835766,17152,-536,756,17177.02,26.88,-1.00,-1.0,2365
5769,1835769,17040,-536,936,17074.10,26.79,-1.00,-1.0,2365
5772,1835772,17000,-568,920,17034.35,26.79,-1.00,-1.0,2365
5775,1835775,16952,-492,1048,16991.49,26.79,-1.00,-1.0,2365
5778,1835778,17016,-484,948,17049.26,26.88,-1.00,-1.0,2364
5781,1835781,17000,-524,908,17032.29,26.88,-1.00,-1.0,2365
5784,1835784,16960,-620,1000,17000.77,26.88,-1.00,-1.0,2364
5787,1835787,17060,-544,872,17090.93,26.88,-1.00,-1.0,2365
5790,1835790,17032,-616,844,17064.02,26.88,-1.00,-1.0,2364
5793,1835793,17060,-596,1100,17105.81,26.88,-1.00,-1.0,2365
5796,1835796,17040,-516,884,17070.71,26.98,-1.00,-1.0,2365
5799,1835799,17064,-504,1016,17101.65,26.79,-1.00,-1.0,2365
5802,1835802,17052,-532,896,17083.81,26.88,-1.00,-1.0,2365
5805,1835805,17076,-656,1184,17129.56,26.98,-1.00,-1.0,2364
5808,1835808,16984,-616,1036,17026.71,26.93,-1.00,-1.0,2364
5811,1835811,17112,-592,900,17145.88,26.88,-1.00,-1.0,2352
5814,1835814,16932,-460,772,16955.83,26.93,-1.00,-1.0,2405
5817,1835817,17048,-624,1004,17088.94,26.74,-1.00,-1.0,2372
5820,1835820,17052,-516,836,17080.28,26.93,-1.00,-1.0,2366
5823,1835823,17012,-552,1024,17051.73,26.93,-1.00,-1.0,2366
5826,1835826,17052,-580,800,17080.61,26.84,-1.00,-1.0,2366
5838,1835838,16968,-512,920,17000.63,26.84,-1.00,-1.0,2441
5841,1835841,17056,-512,944,17089.78,26.93,-1.00,-1.0,2374
5843,1835843,16976,-552,1008,17014.86,26.88,-1.00,-1.0,2380
5846,1835846,17064,-540,824,17092.42,26.93,-1.00,-1.0,2368
5848,1835848,17128,-608,992,17167.47,26.79,-1.00,-1.0,2368
5851,1835851,17024,-524,944,17058.20,26.84,-1.00,-1.0,2367
5854,1835854,16952,-676,1144,17004.00,26.84,-1.00,-1.0,2363
5856,1835856,16880,-692,856,16915.85,26.88,-1.00,-1.0,2372
5859,1835859,16956,-612,904,16991.11,26.84,-1.00,-1.0,2374
5861,1835861,16992,-528,1004,17029.82,26.79,-1.00,-1.0,2375
5864,1835864,17164,-572,1064,17206.46,26.93,-1.00,-1.0,2364
5867,1835867,16992,-516,1020,17030.41,26.88,-1.00,-1.0,2365
5869,1835869,17076,-548,1036,17116.17,26.84,-1.00,-1.0,2365
5872,1835872,17064,-580,948,17100.15,26.98,-1.00,-1.0,2373
5874,1835874,17064,-520,1024,17102.60,26.88,-1.00,-1.0,2373
5877,1835877,17000,-628,1092,17046.61,26.93,-1.00,-1.0,2365
5880,1835880,17008,-540,1076,17050.55,26.79,-1.00,-1.0,2371
5882,1835882,17000,-580,948,17036.29,26.84,-1.00,-1.0,2365
5885,1835885,16964,-584,892,16997.47,26.88,-1.00,-1.0,2372
5887,1835887,16988,-592,852,17019.65,26.79,-1.00,-1.0,2368
5890,1835890,17048,-568,956,17084.23,26.79,-1.00,-1.0,2365
5893,1835893,16972,-464,988,17007.06,26.88,-1.00,-1.0,2369
5895,1835895,17020,-624,1080,17065.64,26.84,-1.00,-1.0,2352
5898,1835898,16988,-560,1012,17027.33,26.88,-1.00,-1.0,2372
5901,1835901,16972,-568,908,17005.76,26.88,-1.00,-1.0,2371
5904,1835904,16924,-592,1076,16968.50,26.88,-1.00,-1.0,2370
5907,1835907,17052,-544,1044,17092.59,26.88,-1.00,-1.0,2373
5910,1835910,16956,-664,924,16994.13,26.88,-1.00,-1.0,2373
5913,1835913,17028,-568,740,17053.53,26.84,-1.00,-1.0,2370
5916,1835916,17056,-600,908,17090.69,26.84,-1.00,-1.0,2372
5919,1835919,17024,-548,912,17057.22,26.93,-1.00,-1.0,2371
5922,1835922,17052,-660,868,17086.83,26.84,-1.00,-1.0,2369
5925,1835925,17164,-656,1084,17210.70,26.93,-1.00,-1.0,2370
5928,1835928,17020,-500,1012,17057.39,26.84,-1.00,-1.0,2368
5931,1835931,17144,-560,908,17177.16,26.93,-1.00,-1.0,2366
5934,1835934,17008,-480,868,17036.90,26.93,-1.00,-1.0,2368
5937,1835937,17056,-464,972,17089.97,26.93,-1.00,-1.0,2372
5940,1835940,17140,-652,944,17178.35,26.84,-1.00,-1.0,2368
5943,1835943,17000,-540,988,17037.25,26.84,-1.00,-1.0,2368
5946,1835946,16956,-608,952,16993.58,26.93,-1.00,-1.0,2367
5949,1835949,17028,-644,824,17060.08,26.93,-1.00,-1.0,2369
5952,1835952,16952,-632,1052,16996.37,26.93,-1.00,-1.0,2367
5955,1835955,17108,-596,992,17147.10,26.93,-1.00,-1.0,2367
5958,1835958,17028,-576,920,17062.56,26.93,-1.00,-1.0,2370
5961,1835961,16996,-504,1036,17035.00,26.84,-1.00,-1.0,2367
5964,1835964,17112,-568,1016,17151.54,26.93,-1.00,-1.0,2367
5967,1835967,17008,-548,876,17039.36,26.84,-1.00,-1.0,2367
5970,1835970,17044,-432,940,17075.37,26.84,-1.00,-1.0,2366
5973,1835973,17024,-612,1080,17069.20,26.84,-1.00,-1.0,2367
5976,1835976,17072,-608,1076,17116.68,26.84,-1.00,-1.0,2370
5979,1835979,17044,-548,824,17072.70,26.93,-1.00,-1.0,2366
5982,1835982,17120,-444,984,17154.00,26.88,-1.00,-1.0,2366
5985,1835985,16988,-484,1028,17025.96,26.79,-1.00,-1.0,2367
5988,1835988,16980,-508,968,17015.15,26.88,-1.00,-1.0,2366
5991,1835991,17000,-532,1260,17054.93,26.98,-1.00,-1.0,2366
5994,1835994,16952,-644,1092,16999.34,26.79,-1.00,-1.0,2366
5997,1835997,17056,-472,924,17087.53,26.88,-1.00,-1.0,2367
6000,1836000,17008,-500,1108,17051.38,26.88,-1.00,-1.0,2366
6003,1836003,16944,-584,928,16979.44,26.98,-1.00,-1.0,2367
6006,1836006,17040,-504,996,17076.52,26.79,-1.00,-1.0,2369
6009,1836009,16952,-568,952,16988.21,26.88,-1.00,-1.0,2366
6012,1836012,17092,-628,936,17129.12,26.88,-1.00,-1.0,2366
6015,1836015,17124,-604,1008,17164.27,26.88,-1.00,-1.0,2413
6018,1836018,17044,-616,968,17082.58,26.88,-1.00,-1.0,2372
6021,1836021,16928,-560,952,16963.99,26.79,-1.00,-1.0,2367
6024,1836024,17100,-588,980,17138.15,26.98,-1.00,-1.0,2366
6027,1836027,17140,-568,972,17176.93,26.88,-1.00,-1.0,2366
6030,1836030,17052,-696,1020,17096.65,26.88,-1.00,-1.0,2367
6033,1836033,17068,-648,908,17104.41,26.98,-1.00,-1.0,2366
6045,1836045,16932,-652,952,16971.27,26.84,-1.00,-1.0,2442
6048,1836048,17036,-548,868,17066.90,26.98,-1.00,-1.0,2372
6050,1836050,17016,-528,808,17043.35,26.93,-1.00,-1.0,2376
6053,1836053,16956,-604,928,16992.11,26.88,-1.00,-1.0,2367
6055,1836055,17044,-568,936,17079.13,26.84,-1.00,-1.0,2368
6058,1836058,17084,-528,1044,17124.01,26.98,-1.00,-1.0,2371
6061,1836061,16972,-560,1048,17013.54,26.84,-1.00,-1.0,2364
6063,1836063,17044,-564,812,17072.65,26.88,-1.00,-1.0,2372
6066,1836066,17044,-544,904,17076.62,26.84,-1.00,-1.0,2366
6068,1836068,17036,-612,964,17074.22,26.88,-1.00,-1.0,2378
6071,1836071,16980,-532,992,17017.27,26.88,-1.00,-1.0,2365
6074,1836074,17052,-580,988,17090.44,26.93,-1.00,-1.0,2364
6076,1836076,16948,-500,1020,16986.03,26.88,-1.00,-1.0,2366
6079,1836079,16988,-508,1012,17025.70,26.84,-1.00,-1.0,2372
6081,1836081,16972,-548,888,17004.05,26.88,-1.00,-1.0,2376
6084,1836084,17032,-548,984,17069.20,26.84,-1.00,-1.0,2365
6087,1836087,17024,-504,976,17059.40,26.88,-1.00,-1.0,2374
6089,1836089,17084,-592,904,17118.14,26.88,-1.00,-1.0,2365
6092,1836092,17016,-616,976,17055.10,26.93,-1.00,-1.0,2372
