timestamp_ms,global_ms,accel_x,accel_y,accel_z,accel_mag,temp_c,voltage,soc,loop_us
2,1220002,17100,-612,840,17131.55,30.46,-1.00,-1.0,2487
9,1220009,16980,-492,916,17011.80,30.41,-1.00,-1.0,2451
11,1220011,17068,-596,792,17096.76,30.41,-1.00,-1.0,2373
14,1220014,17100,-640,964,17139.10,30.46,-1.00,-1.0,2368
17,1220017,17088,-636,812,17119.10,30.46,-1.00,-1.0,2422
19,1220019,16976,-652,876,17011.09,30.37,-1.00,-1.0,2381
22,1220022,17056,-516,956,17090.56,30.46,-1.00,-1.0,2419
25,1220025,17016,-648,856,17049.84,30.46,-1.00,-1.0,2371
28,1220028,17104,-612,824,17134.77,30.37,-1.00,-1.0,2419
30,1220030,16984,-620,996,17024.47,30.37,-1.00,-1.0,2377
35,1220035,16968,-612,1056,17011.84,30.46,-1.00,-1.0,2456
38,1220038,17096,-628,972,17135.12,30.37,-1.00,-1.0,2378
41,1220041,16956,-672,744,16985.61,30.46,-1.00,-1.0,2429
43,1220043,17056,-616,916,17091.68,30.46,-1.00,-1.0,2379
46,1220046,17060,-560,924,17094.18,30.32,-1.00,-1.0,2365
49,1220049,17016,-552,892,17048.30,30.51,-1.00,-1.0,2427
52,1220052,17060,-628,900,17095.26,30.41,-1.00,-1.0,2370
54,1220054,16988,-592,840,17019.05,30.41,-1.00,-1.0,2420
57,1220057,16972,-624,760,17000.46,30.41,-1.00,-1.0,2359
62,1220062,17060,-676,888,17096.46,30.41,-1.00,-1.0,2440
65,1220065,17040,-596,848,17071.49,30.46,-1.00,-1.0,2367
68,1220068,17124,-668,932,17162.35,30.41,-1.00,-1.0,2419
70,1220070,17048,-580,680,17071.41,30.46,-1.00,-1.0,2365
73,1220073,17008,-612,660,17031.80,30.41,-1.00,-1.0,2374
76,1220076,17112,-552,900,17144.54,30.46,-1.00,-1.0,2419
78,1220078,17060,-784,836,17098.46,30.41,-1.00,-1.0,2371
81,1220081,17008,-468,912,17038.86,30.46,-1.00,-1.0,2419
84,1220084,17064,-700,836,17098.80,30.41,-1.00,-1.0,2369
89,1220089,16900,-644,896,16935.98,30.41,-1.00,-1.0,2439
92,1220092,17084,-580,844,17114.67,30.32,-1.00,-1.0,2370
94,1220094,17036,-524,960,17071.07,30.37,-1.00,-1.0,2419
97,1220097,17080,-580,712,17104.67,30.51,-1.00,-1.0,2371
100,1220100,17024,-640,980,17064.19,30.46,-1.00,-1.0,2367
102,1220102,17088,-572,800,17116.28,30.46,-1.00,-1.0,2429
105,1220105,17008,-564,980,17045.54,30.37,-1.00,-1.0,2379
108,1220108,17024,-672,864,17059.15,30.55,-1.00,-1.0,2422
111,1220111,17008,-604,860,17040.44,30.37,-1.00,-1.0,2371
116,1220116,17044,-484,844,17071.75,30.46,-1.00,-1.0,2446
119,1220119,17072,-596,840,17103.04,30.41,-1.00,-1.0,2370
121,1220121,17008,-644,764,17037.33,30.37,-1.00,-1.0,2420
124,1220124,17016,-632,964,17055.00,30.41,-1.00,-1.0,2371
127,1220127,17040,-576,852,17071.01,30.46,-1.00,-1.0,2374
130,1220130,17108,-676,780,17139.11,30.51,-1.00,-1.0,2426
132,1220132,16984,-656,896,17020.26,30.41,-1.00,-1.0,2385
135,1220135,17104,-632,916,17140.17,30.41,-1.00,-1.0,2423
138,1220138,17012,-544,820,17040.44,30.37,-1.00,-1.0,2378
143,1220143,16944,-600,832,16975.02,30.46,-1.00,-1.0,2439
145,1220145,17028,-640,1128,17077.32,30.37,-1.00,-1.0,2370
148,1220148,17088,-644,828,17120.17,30.51,-1.00,-1.0,2433
151,1220151,17060,-596,908,17094.54,30.37,-1.00,-1.0,2378
154,1220154,17048,-512,940,17081.57,30.41,-1.00,-1.0,2433
156,1220156,16948,-596,768,16975.86,30.46,-1.00,-1.0,2372
159,1220159,16876,-676,920,16914.57,30.51,-1.00,-1.0,2366
162,1220162,17024,-600,920,17059.40,30.46,-1.00,-1.0,2426
165,1220165,16964,-612,920,16999.95,30.41,-1.00,-1.0,2373
170,1220170,16964,-504,848,16992.66,30.51,-1.00,-1.0,2442
172,1220172,16988,-628,948,17026.02,30.51,-1.00,-1.0,2372
175,1220175,17100,-668,780,17130.81,30.46,-1.00,-1.0,2419
178,1220178,17088,-580,952,17124.32,30.41,-1.00,-1.0,2372
181,1220181,17272,-632,892,17306.56,30.46,-1.00,-1.0,2419
183,1220183,17092,-596,756,17119.09,30.51,-1.00,-1.0,2373
186,1220186,17016,-496,820,17042.96,30.46,-1.00,-1.0,2418
189,1220189,16984,-600,896,17018.20,30.51,-1.00,-1.0,2370
191,1220191,17080,-700,940,17120.16,30.37,-1.00,-1.0,2371
196,1220196,17084,-692,956,17124.71,30.37,-1.00,-1.0,2426
199,1220199,17116,-596,992,17155.08,30.41,-1.00,-1.0,2371
202,1220202,16968,-596,944,17004.69,30.37,-1.00,-1.0,2425
205,1220205,16984,-644,996,17025.36,30.37,-1.00,-1.0,2370
207,1220207,17028,-584,1032,17069.24,30.37,-1.00,-1.0,2421
210,1220210,17208,-680,812,17240.56,30.46,-1.00,-1.0,2358
213,1220213,17112,-564,876,17143.69,30.46,-1.00,-1.0,2426
216,1220216,17100,-556,808,17128.11,30.46,-1.00,-1.0,2370
220,1220220,17012,-592,968,17049.80,30.46,-1.00,-1.0,2439
223,1220223,17000,-680,968,17041.11,30.46,-1.00,-1.0,2373
226,1220226,17004,-628,868,17037.72,30.27,-1.00,-1.0,2368
228,1220228,17060,-564,984,17097.66,30.51,-1.00,-1.0,2428
231,1220231,17012,-612,984,17051.42,30.32,-1.00,-1.0,2376
234,1220234,17088,-672,792,17119.54,30.41,-1.00,-1.0,2422
237,1220237,17004,-608,956,17041.70,30.51,-1.00,-1.0,2378
239,1220239,17076,-668,948,17115.34,30.46,-1.00,-1.0,2426
242,1220242,17088,-676,1008,17131.05,30.41,-1.00,-1.0,2387
247,1220247,17140,-576,1080,17183.65,30.41,-1.00,-1.0,2446
250,1220250,17132,-588,844,17162.85,30.46,-1.00,-1.0,2369
252,1220252,17132,-656,840,17165.12,30.41,-1.00,-1.0,2421
255,1220255,17124,-584,968,17161.28,30.46,-1.00,-1.0,2371
258,1220258,17060,-572,964,17096.79,30.41,-1.00,-1.0,2367
261,1220261,16976,-656,872,17011.04,30.37,-1.00,-1.0,2421
263,1220263,17084,-600,1016,17124.70,30.41,-1.00,-1.0,2385
266,1220266,16960,-696,976,17002.31,30.41,-1.00,-1.0,2428
269,1220269,17048,-560,792,17075.57,30.41,-1.00,-1.0,2378
274,1220274,17012,-712,944,17053.04,30.32,-1.00,-1.0,2439
277,1220277,17000,-604,956,17037.57,30.41,-1.00,-1.0,2378
280,1220280,16932,-600,876,16965.26,30.41,-1.00,-1.0,2422
282,1220282,17080,-508,892,17110.82,30.41,-1.00,-1.0,2371
285,1220285,17072,-596,824,17102.26,30.41,-1.00,-1.0,2434
288,1220288,17116,-636,872,17150.00,30.41,-1.00,-1.0,2382
290,1220290,17068,-672,812,17100.51,30.46,-1.00,-1.0,2360
293,1220293,17048,-700,912,17086.72,30.46,-1.00,-1.0,2418
296,1220296,17068,-708,912,17107.01,30.46,-1.00,-1.0,2386
301,1220301,17096,-644,888,17131.16,30.37,-1.00,-1.0,2454
304,1220304,16976,-540,916,17009.27,30.41,-1.00,-1.0,2379
307,1220307,17048,-516,984,17084.17,30.37,-1.00,-1.0,2431
309,1220309,17092,-584,924,17126.92,30.37,-1.00,-1.0,2381
312,1220312,17052,-604,804,17081.62,30.46,-1.00,-1.0,2419
315,1220315,16984,-612,884,17018.00,30.41,-1.00,-1.0,2427
318,1220318,17048,-576,900,17081.46,30.37,-1.00,-1.0,2419
321,1220321,17052,-584,868,17084.06,30.41,-1.00,-1.0,2377
323,1220323,17020,-700,944,17060.53,30.37,-1.00,-1.0,2366
328,1220328,17012,-544,936,17046.41,30.37,-1.00,-1.0,2446
331,1220331,17072,-588,892,17105.40,30.46,-1.00,-1.0,2370
334,1220334,16920,-564,932,16955.03,30.37,-1.00,-1.0,2422
336,1220336,17044,-560,744,17069.42,30.37,-1.00,-1.0,2375
339,1220339,17040,-564,968,17076.79,30.51,-1.00,-1.0,2422
342,1220342,16988,-548,932,17022.37,30.46,-1.00,-1.0,2370
345,1220345,17044,-544,860,17074.35,30.41,-1.00,-1.0,2422
347,1220347,16964,-748,1032,17011.81,30.37,-1.00,-1.0,2370
352,1220352,17068,-504,864,17097.29,30.46,-1.00,-1.0,2447
355,1220355,17032,-604,928,17067.95,30.46,-1.00,-1.0,2374
358,1220358,17100,-604,972,17138.25,30.51,-1.00,-1.0,2366
361,1220361,17088,-636,860,17121.44,30.41,-1.00,-1.0,2421
363,1220363,16972,-552,912,17005.45,30.51,-1.00,-1.0,2368
366,1220366,17064,-592,804,17093.19,30.41,-1.00,-1.0,2421
369,1220369,17016,-544,896,17048.26,30.41,-1.00,-1.0,2369
372,1220372,17124,-588,860,17155.66,30.55,-1.00,-1.0,2421
374,1220374,16920,-568,956,16956.50,30.41,-1.00,-1.0,2368
379,1220379,16952,-668,764,16982.35,30.51,-1.00,-1.0,2440
382,1220382,17020,-592,832,17050.60,30.41,-1.00,-1.0,2357
385,1220385,17012,-656,864,17046.55,30.41,-1.00,-1.0,2428
388,1220388,17044,-600,912,17078.93,30.46,-1.00,-1.0,2367
390,1220390,17068,-604,864,17100.53,30.46,-1.00,-1.0,2365
393,1220393,16948,-600,968,16986.22,30.46,-1.00,-1.0,2431
396,1220396,17056,-616,940,17092.99,30.46,-1.00,-1.0,2367
398,1220398,17112,-524,1040,17151.58,30.37,-1.00,-1.0,2432
401,1220401,17064,-672,840,17097.87,30.51,-1.00,-1.0,2368
406,1220406,17004,-600,896,17038.16,30.41,-1.00,-1.0,2441
409,1220409,17080,-560,824,17109.03,30.51,-1.00,-1.0,2371
412,1220412,17012,-664,868,17047.07,30.51,-1.00,-1.0,2421
414,1220414,16988,-576,880,17020.53,30.55,-1.00,-1.0,2355
417,1220417,17068,-636,792,17098.20,30.41,-1.00,-1.0,2365
420,1220420,17028,-660,956,17067.58,30.37,-1.00,-1.0,2428
423,1220423,17028,-652,856,17061.96,30.46,-1.00,-1.0,2367
425,1220425,16948,-556,924,16982.27,30.46,-1.00,-1.0,2422
428,1220428,16980,-672,940,17019.27,30.32,-1.00,-1.0,2369
433,1220433,16996,-592,800,17025.11,30.46,-1.00,-1.0,2440
436,1220436,17088,-664,1012,17130.81,30.46,-1.00,-1.0,2376
439,1220439,16984,-604,848,17015.88,30.37,-1.00,-1.0,2426
441,1220441,17052,-548,892,17084.11,30.46,-1.00,-1.0,2369
444,1220444,17044,-600,768,17071.84,30.51,-1.00,-1.0,2435
447,1220447,17100,-664,912,17137.17,30.46,-1.00,-1.0,2376
449,1220449,16980,-576,844,17010.72,30.51,-1.00,-1.0,2369
452,1220452,17028,-600,892,17061.90,30.46,-1.00,-1.0,2421
455,1220455,17048,-640,984,17088.36,30.46,-1.00,-1.0,2368
460,1220460,16988,-532,748,17012.78,30.51,-1.00,-1.0,2440
463,1220463,16992,-532,900,17024.13,30.51,-1.00,-1.0,2370
466,1220466,17068,-620,1008,17108.98,30.41,-1.00,-1.0,2421
468,1220468,17040,-548,908,17072.97,30.41,-1.00,-1.0,2368
471,1220471,17020,-588,1064,17063.36,30.51,-1.00,-1.0,2407
474,1220474,17080,-588,792,17108.46,30.41,-1.00,-1.0,2367
477,1220477,17072,-652,956,17111.17,30.41,-1.00,-1.0,2421
479,1220479,17072,-556,988,17109.60,30.46,-1.00,-1.0,2371
482,1220482,16988,-576,924,17022.86,30.37,-1.00,-1.0,2368
487,1220487,17008,-684,948,17048.13,30.37,-1.00,-1.0,2441
490,1220490,17068,-668,912,17105.40,30.46,-1.00,-1.0,2367
493,1220493,16880,-592,968,16918.09,30.37,-1.00,-1.0,2432
496,1220496,16964,-588,1068,17007.75,30.46,-1.00,-1.0,2367
498,1220498,16900,-556,888,16932.45,30.37,-1.00,-1.0,2421
501,1220501,17060,-644,996,17101.18,30.46,-1.00,-1.0,2367
504,1220504,17064,-656,896,17100.10,30.37,-1.00,-1.0,2410
507,1220507,17008,-584,932,17043.53,30.37,-1.00,-1.0,2371
512,1220512,16972,-596,892,17005.87,30.37,-1.00,-1.0,2440
514,1220514,17000,-608,816,17030.43,30.55,-1.00,-1.0,2368
517,1220517,16988,-628,900,17023.41,30.41,-1.00,-1.0,2376
520,1220520,17068,-572,1004,17107.07,30.41,-1.00,-1.0,2432
522,1220522,17004,-648,956,17043.18,30.41,-1.00,-1.0,2378
525,1220525,16984,-560,904,17017.26,30.41,-1.00,-1.0,2428
528,1220528,17008,-644,844,17041.10,30.41,-1.00,-1.0,2371
531,1220531,17008,-656,916,17045.28,30.41,-1.00,-1.0,2427
533,1220533,17076,-548,952,17111.29,30.41,-1.00,-1.0,2378
539,1220539,17112,-628,960,17150.41,30.41,-1.00,-1.0,2440
541,1220541,17052,-660,784,17082.77,30.46,-1.00,-1.0,2366
544,1220544,16996,-580,1076,17039.90,30.41,-1.00,-1.0,2436
547,1220547,16980,-576,1076,17023.80,30.41,-1.00,-1.0,2364
549,1220549,17116,-656,820,17148.18,30.41,-1.00,-1.0,2370
552,1220552,17092,-704,1012,17136.40,30.46,-1.00,-1.0,2420
555,1220555,17008,-640,960,17047.09,30.41,-1.00,-1.0,2365
558,1220558,17020,-660,832,17053.10,30.46,-1.00,-1.0,2421
560,1220560,17024,-588,772,17051.64,30.46,-1.00,-1.0,2375
565,1220565,16984,-616,880,17017.94,30.41,-1.00,-1.0,2449
568,1220568,17052,-588,1000,17091.41,30.41,-1.00,-1.0,2371
571,1220571,17052,-612,912,17087.33,30.37,-1.00,-1.0,2423
574,1220574,17048,-584,992,17086.82,30.51,-1.00,-1.0,2366
576,1220576,17036,-632,960,17074.73,30.37,-1.00,-1.0,2427
579,1220579,17008,-668,924,17046.17,30.41,-1.00,-1.0,2381
582,1220582,17132,-592,936,17167.76,30.46,-1.00,-1.0,2369
585,1220585,17164,-612,1040,17206.37,30.51,-1.00,-1.0,2408
587,1220587,17096,-636,996,17136.79,30.37,-1.00,-1.0,2376
592,1220592,17008,-584,856,17039.54,30.46,-1.00,-1.0,2452
595,1220595,17100,-568,936,17135.01,30.51,-1.00,-1.0,2382
598,1220598,17092,-560,952,17127.65,30.46,-1.00,-1.0,2422
601,1220601,17136,-624,960,17174.21,30.37,-1.00,-1.0,2374
604,1220604,16976,-584,888,17009.24,30.46,-1.00,-1.0,2408
606,1220606,17124,-460,836,17150.56,30.37,-1.00,-1.0,2383
609,1220609,17056,-648,804,17087.23,30.37,-1.00,-1.0,2424
612,1220612,17104,-580,816,17133.27,30.46,-1.00,-1.0,2372
614,1220614,16992,-676,876,17027.99,30.37,-1.00,-1.0,2355
619,1220619,17032,-704,872,17068.83,30.46,-1.00,-1.0,2449
622,1220622,17092,-540,936,17126.12,30.37,-1.00,-1.0,2381
625,1220625,17004,-540,988,17041.24,30.41,-1.00,-1.0,2459
628,1220628,17016,-612,904,17050.98,30.41,-1.00,-1.0,2377
631,1220631,17000,-572,928,17034.92,30.46,-1.00,-1.0,2426
633,1220633,17032,-592,912,17066.67,30.41,-1.00,-1.0,2372
636,1220636,17028,-644,912,17064.56,30.46,-1.00,-1.0,2437
639,1220639,16972,-632,848,17004.92,30.41,-1.00,-1.0,2378
644,1220644,17052,-568,940,17087.33,30.46,-1.00,-1.0,2437
646,1220646,17088,-656,912,17124.89,30.46,-1.00,-1.0,2378
649,1220649,16992,-560,936,17026.97,30.46,-1.00,-1.0,2352
652,1220652,17072,-588,884,17104.98,30.41,-1.00,-1.0,2438
655,1220655,17084,-680,936,17123.13,30.32,-1.00,-1.0,2366
657,1220657,17084,-580,952,17120.33,30.41,-1.00,-1.0,2422
660,1220660,17088,-648,1016,17130.44,30.41,-1.00,-1.0,2370
663,1220663,17080,-712,868,17116.86,30.51,-1.00,-1.0,2430
666,1220666,17000,-580,760,17026.86,30.41,-1.00,-1.0,2368
670,1220670,17012,-576,916,17046.38,30.46,-1.00,-1.0,2440
673,1220673,17016,-616,1024,17057.91,30.55,-1.00,-1.0,2375
676,1220676,17040,-612,944,17077.10,30.46,-1.00,-1.0,2436
678,1220678,16968,-588,860,16999.95,30.46,-1.00,-1.0,2379
681,1220681,17068,-668,1028,17111.97,30.32,-1.00,-1.0,2366
684,1220684,17192,-612,992,17231.47,30.46,-1.00,-1.0,2431
687,1220687,16984,-560,900,17017.05,30.41,-1.00,-1.0,2367
690,1220690,17080,-612,896,17114.43,30.46,-1.00,-1.0,2421
693,1220693,17072,-524,996,17109.05,30.51,-1.00,-1.0,2368
698,1220698,17092,-532,900,17123.95,30.41,-1.00,-1.0,2431
700,1220700,16952,-460,920,16983.18,30.46,-1.00,-1.0,2367
703,1220703,16916,-528,672,16937.57,30.32,-1.00,-1.0,2429
706,1220706,17060,-512,900,17091.39,30.41,-1.00,-1.0,2368
709,1220709,17056,-648,868,17090.36,30.41,-1.00,-1.0,2421
711,1220711,17044,-664,936,17082.59,30.41,-1.00,-1.0,2368
714,1220714,17040,-548,884,17071.71,30.46,-1.00,-1.0,2376
717,1220717,17036,-620,816,17066.80,30.37,-1.00,-1.0,2436
720,1220720,17036,-652,976,17076.39,30.37,-1.00,-1.0,2375
725,1220725,17068,-720,952,17109.69,30.41,-1.00,-1.0,2431
727,1220727,17016,-648,860,17050.04,30.41,-1.00,-1.0,2368
730,1220730,17076,-608,852,17108.05,30.37,-1.00,-1.0,2430
733,1220733,17004,-552,1072,17046.70,30.41,-1.00,-1.0,2367
736,1220736,17008,-548,796,17035.43,30.46,-1.00,-1.0,2423
738,1220738,17072,-652,760,17101.34,30.41,-1.00,-1.0,2368
741,1220741,17048,-668,896,17084.59,30.37,-1.00,-1.0,2420
744,1220744,17032,-524,744,17056.29,30.51,-1.00,-1.0,2367
747,1220747,17048,-628,816,17079.07,30.46,-1.00,-1.0,2366
752,1220752,17084,-568,904,17117.33,30.46,-1.00,-1.0,2418
754,1220754,17020,-604,820,17050.44,30.41,-1.00,-1.0,2368
757,1220757,17092,-696,816,17125.62,30.46,-1.00,-1.0,2430
760,1220760,17052,-664,912,17089.28,30.41,-1.00,-1.0,2367
763,1220763,16900,-612,896,16934.80,30.46,-1.00,-1.0,2422
765,1220765,16996,-656,836,17029.19,30.46,-1.00,-1.0,2371
768,1220768,17048,-740,812,17083.36,30.46,-1.00,-1.0,2421
771,1220771,17096,-628,924,17132.46,30.46,-1.00,-1.0,2368
776,1220776,17032,-616,944,17069.26,30.41,-1.00,-1.0,2431
779,1220779,16980,-684,764,17010.94,30.41,-1.00,-1.0,2370
781,1220781,17172,-624,832,17203.46,30.46,-1.00,-1.0,2365
784,1220784,17048,-508,800,17074.32,30.41,-1.00,-1.0,2436
787,1220787,16924,-648,796,16955.10,30.46,-1.00,-1.0,2367
789,1220789,17004,-620,864,17037.22,30.41,-1.00,-1.0,2433
792,1220792,17004,-552,972,17040.70,30.37,-1.00,-1.0,2377
795,1220795,16968,-592,964,17005.67,30.41,-1.00,-1.0,2423
798,1220798,17016,-568,956,17052.30,30.51,-1.00,-1.0,2368
803,1220803,17028,-592,892,17061.62,30.41,-1.00,-1.0,2432
805,1220805,17028,-548,932,17062.29,30.55,-1.00,-1.0,2371
808,1220808,17092,-500,896,17122.77,30.41,-1.00,-1.0,2444
811,1220811,17020,-620,900,17055.05,30.41,-1.00,-1.0,2376
814,1220814,17036,-596,920,17071.23,30.37,-1.00,-1.0,2366
816,1220816,17000,-552,888,17032.12,30.46,-1.00,-1.0,2421
819,1220819,17024,-604,860,17056.41,30.46,-1.00,-1.0,2369
822,1220822,17076,-588,824,17105.98,30.37,-1.00,-1.0,2428
825,1220825,17056,-664,768,17086.19,30.51,-1.00,-1.0,2368
830,1220830,17088,-600,940,17124.35,30.41,-1.00,-1.0,2439
832,1220832,17012,-500,896,17042.92,30.41,-1.00,-1.0,2371
835,1220835,17088,-564,756,17114.01,30.41,-1.00,-1.0,2437
838,1220838,17000,-676,900,17037.22,30.41,-1.00,-1.0,2357
841,1220841,17032,-584,872,17064.30,30.46,-1.00,-1.0,2366
843,1220843,17040,-680,824,17073.46,30.37,-1.00,-1.0,2420
846,1220846,17064,-664,800,17095.64,30.46,-1.00,-1.0,2356
849,1220849,17072,-580,1060,17114.71,30.46,-1.00,-1.0,2428
852,1220852,17140,-632,924,17176.52,30.41,-1.00,-1.0,2368
857,1220857,17060,-540,908,17092.68,30.46,-1.00,-1.0,2430
859,1220859,17040,-560,856,17070.67,30.37,-1.00,-1.0,2367
862,1220862,17104,-656,812,17135.82,30.27,-1.00,-1.0,2429
865,1220865,17072,-688,984,17114.17,30.37,-1.00,-1.0,2370
868,1220868,17016,-544,760,17041.65,30.37,-1.00,-1.0,2421
870,1220870,17020,-644,848,17053.28,30.37,-1.00,-1.0,2368
873,1220873,17112,-732,980,17155.66,30.41,-1.00,-1.0,2377
876,1220876,16984,-588,952,17020.82,30.37,-1.00,-1.0,2421
879,1220879,16996,-628,896,17031.18,30.46,-1.00,-1.0,2366
883,1220883,17048,-632,992,17088.53,30.41,-1.00,-1.0,2442
886,1220886,17008,-588,876,17040.69,30.51,-1.00,-1.0,2374
889,1220889,17088,-612,904,17122.84,30.41,-1.00,-1.0,2417
892,1220892,17056,-572,812,17084.90,30.41,-1.00,-1.0,2370
894,1220894,17116,-664,976,17156.66,30.46,-1.00,-1.0,2429
897,1220897,17100,-604,960,17137.57,30.41,-1.00,-1.0,2376
900,1220900,17096,-692,800,17128.69,30.46,-1.00,-1.0,2424
903,1220903,17024,-612,844,17055.89,30.37,-1.00,-1.0,2367
906,1220906,16996,-592,748,17022.75,30.46,-1.00,-1.0,2366
911,1220911,16928,-580,876,16960.57,30.46,-1.00,-1.0,2431
913,1220913,17040,-604,780,17068.53,30.46,-1.00,-1.0,2375
916,1220916,17044,-688,1000,17087.17,30.46,-1.00,-1.0,2430
919,1220919,17064,-632,860,17097.34,30.55,-1.00,-1.0,2371
922,1220922,17084,-492,832,17111.32,30.41,-1.00,-1.0,2421
925,1220925,17028,-580,972,17065.58,30.46,-1.00,-1.0,2369
927,1220927,17060,-564,860,17090.97,30.41,-1.00,-1.0,2421
930,1220930,17080,-640,864,17113.81,30.46,-1.00,-1.0,2368
935,1220935,17064,-552,932,17098.35,30.37,-1.00,-1.0,2431
938,1220938,17096,-444,956,17128.46,30.37,-1.00,-1.0,2370
940,1220940,16980,-548,856,17010.39,30.41,-1.00,-1.0,2352
943,1220943,17036,-556,960,17072.08,30.32,-1.00,-1.0,2430
946,1220946,17052,-640,892,17087.30,30.32,-1.00,-1.0,2367
949,1220949,17048,-564,832,17077.61,30.51,-1.00,-1.0,2420
951,1220951,16948,-600,992,16987.61,30.32,-1.00,-1.0,2369
954,1220954,17152,-580,808,17180.81,30.51,-1.00,-1.0,2421
957,1220957,17004,-544,956,17039.54,30.41,-1.00,-1.0,2376
962,1220962,17024,-548,772,17050.30,30.37,-1.00,-1.0,2431
965,1220965,16940,-668,996,16982.40,30.46,-1.00,-1.0,2369
968,1220968,17020,-660,860,17054.49,30.41,-1.00,-1.0,2430
970,1220970,17112,-672,756,17141.87,30.37,-1.00,-1.0,2368
973,1220973,16912,-664,968,16952.69,30.32,-1.00,-1.0,2369
976,1220976,17076,-644,872,17110.37,30.37,-1.00,-1.0,2424
978,1220978,17108,-556,824,17136.85,30.41,-1.00,-1.0,2371
981,1220981,17048,-568,916,17082.04,30.46,-1.00,-1.0,2436
984,1220984,17132,-556,1020,17171.34,30.46,-1.00,-1.0,2378
989,1220989,17032,-544,872,17062.98,30.41,-1.00,-1.0,2439
992,1220992,17036,-604,924,17071.73,30.41,-1.00,-1.0,2367
994,1220994,17064,-544,824,17092.54,30.37,-1.00,-1.0,2430
997,1220997,17024,-548,932,17058.30,30.51,-1.00,-1.0,2370
1000,1221000,17044,-680,980,17085.69,30.37,-1.00,-1.0,2429
1003,1221003,17060,-560,844,17090.04,30.41,-1.00,-1.0,2354
1005,1221005,17000,-504,1036,17038.99,30.55,-1.00,-1.0,2381
1008,1221008,16992,-536,1008,17030.31,30.46,-1.00,-1.0,2422
1011,1221011,17116,-560,716,17140.12,30.55,-1.00,-1.0,2375
1016,1221016,16964,-644,940,17002.22,30.46,-1.00,-1.0,2439
1019,1221019,16964,-656,920,17001.59,30.41,-1.00,-1.0,2368
1021,1221021,16988,-652,1008,17030.37,30.46,-1.00,-1.0,2432
1024,1221024,17020,-584,904,17053.99,30.41,-1.00,-1.0,2368
1027,1221027,17080,-564,868,17111.34,30.46,-1.00,-1.0,2427
1030,1221030,17004,-540,900,17036.36,30.46,-1.00,-1.0,2368
1032,1221032,17096,-580,868,17127.84,30.46,-1.00,-1.0,2426
1035,1221035,17072,-604,792,17101.03,30.46,-1.00,-1.0,2368
1040,1221040,17056,-556,844,17085.92,30.51,-1.00,-1.0,2431
1043,1221043,17104,-552,1040,17144.48,30.41,-1.00,-1.0,2367
1045,1221045,17112,-556,944,17147.04,30.46,-1.00,-1.0,2365
1048,1221048,16984,-620,948,17021.73,30.37,-1.00,-1.0,2445
1051,1221051,16976,-640,828,17008.23,30.46,-1.00,-1.0,2374
1054,1221054,17080,-648,980,17120.36,30.41,-1.00,-1.0,2435
1056,1221056,16992,-600,980,17030.81,30.46,-1.00,-1.0,2378
1059,1221059,16980,-572,916,17014.31,30.41,-1.00,-1.0,2427
1062,1221062,17020,-472,852,17047.85,30.46,-1.00,-1.0,2371
1067,1221067,16956,-608,1036,16998.50,30.41,-1.00,-1.0,2434
1069,1221069,17080,-540,964,17115.70,30.41,-1.00,-1.0,2379
1072,1221072,16992,-660,788,17023.06,30.41,-1.00,-1.0,2430
1075,1221075,17088,-596,900,17122.06,30.41,-1.00,-1.0,2370
1078,1221078,17112,-720,876,17149.53,30.46,-1.00,-1.0,2427
1081,1221081,17084,-656,892,17119.84,30.51,-1.00,-1.0,2370
1083,1221083,17056,-632,904,17091.63,30.46,-1.00,-1.0,2365
1086,1221086,17056,-620,1032,17098.44,30.41,-1.00,-1.0,2423
1089,1221089,17116,-572,916,17150.04,30.41,-1.00,-1.0,2368
1094,1221094,17088,-700,896,17125.79,30.37,-1.00,-1.0,2431
1096,1221096,17000,-576,740,17025.84,30.46,-1.00,-1.0,2366
1099,1221099,17080,-736,680,17109.37,30.46,-1.00,-1.0,2430
1102,1221102,17116,-612,820,17146.56,30.37,-1.00,-1.0,2376
1105,1221105,17064,-580,1024,17104.53,30.41,-1.00,-1.0,2421
1107,1221107,17012,-516,940,17045.76,30.55,-1.00,-1.0,2369
1110,1221110,17056,-668,968,17096.50,30.41,-1.00,-1.0,2437
1113,1221113,17072,-656,896,17108.08,30.51,-1.00,-1.0,2368
1118,1221118,17012,-644,908,17048.38,30.51,-1.00,-1.0,2434
1121,1221121,16972,-608,1048,17015.19,30.41,-1.00,-1.0,2374
1123,1221123,17128,-736,1052,17176.05,30.37,-1.00,-1.0,2365
1126,1221126,16976,-648,932,17013.91,30.46,-1.00,-1.0,2429
1129,1221129,16988,-556,804,17016.10,30.37,-1.00,-1.0,2367
1132,1221132,17072,-588,876,17104.57,30.46,-1.00,-1.0,2421
1134,1221134,17096,-488,872,17125.18,30.46,-1.00,-1.0,2368
1137,1221137,17028,-496,936,17060.92,30.46,-1.00,-1.0,2421
1140,1221140,16944,-756,988,16989.61,30.46,-1.00,-1.0,2356
1145,1221145,17088,-588,872,17120.34,30.41,-1.00,-1.0,2434
1148,1221148,16976,-564,956,17012.25,30.41,-1.00,-1.0,2379
1151,1221151,17024,-712,804,17057.84,30.41,-1.00,-1.0,2419
1153,1221153,17000,-524,804,17027.07,30.51,-1.00,-1.0,2375
1156,1221156,17032,-584,756,17058.77,30.46,-1.00,-1.0,2424
1159,1221159,17076,-520,776,17101.53,30.41,-1.00,-1.0,2368
1161,1221161,17000,-596,872,17032.78,30.46,-1.00,-1.0,2366
1164,1221164,17000,-712,996,17044.03,30.41,-1.00,-1.0,2421
1167,1221167,17012,-536,860,17042.15,30.46,-1.00,-1.0,2367
1172,1221172,17072,-620,960,17110.21,30.46,-1.00,-1.0,2432
1175,1221175,17012,-648,860,17046.04,30.41,-1.00,-1.0,2367
1178,1221178,17068,-488,908,17099.10,30.46,-1.00,-1.0,2430
1180,1221180,17100,-580,828,17129.86,30.46,-1.00,-1.0,2372
1183,1221183,17088,-664,852,17122.11,30.37,-1.00,-1.0,2422
1186,1221186,17028,-640,804,17058.98,30.46,-1.00,-1.0,2367
1189,1221189,17004,-528,956,17039.04,30.46,-1.00,-1.0,2421
1191,1221191,17036,-572,868,17067.69,30.46,-1.00,-1.0,2368
1196,1221196,17072,-656,884,17107.45,30.46,-1.00,-1.0,2438
1199,1221199,17016,-596,936,17052.14,30.41,-1.00,-1.0,2370
1202,1221202,17084,-520,744,17108.10,30.37,-1.00,-1.0,2365
1204,1221204,17036,-688,876,17072.38,30.41,-1.00,-1.0,2431
1207,1221207,17116,-676,808,17148.39,30.51,-1.00,-1.0,2429
1210,1221210,16996,-644,912,17032.63,30.46,-1.00,-1.0,2427
1213,1221213,17072,-620,1032,17114.40,30.46,-1.00,-1.0,2374
1216,1221216,17088,-732,868,17125.68,30.51,-1.00,-1.0,2400
1218,1221218,17060,-680,780,17091.36,30.46,-1.00,-1.0,2376
1223,1221223,17072,-672,924,17110.19,30.37,-1.00,-1.0,2429
1226,1221226,17060,-716,1088,17109.65,30.46,-1.00,-1.0,2370
1229,1221229,17064,-636,916,17100.40,30.46,-1.00,-1.0,2427
1232,1221232,17080,-612,824,17110.81,30.37,-1.00,-1.0,2376
1234,1221234,17040,-628,904,17075.51,30.41,-1.00,-1.0,2418
1237,1221237,17044,-708,872,17080.97,30.46,-1.00,-1.0,2370
1240,1221240,17028,-720,828,17063.32,30.41,-1.00,-1.0,2366
1242,1221242,17108,-608,932,17144.15,30.46,-1.00,-1.0,2432
1245,1221245,17008,-580,952,17044.49,30.41,-1.00,-1.0,2372
1250,1221250,16992,-564,856,17022.89,30.41,-1.00,-1.0,2429
1253,1221253,16944,-660,812,16976.28,30.46,-1.00,-1.0,2376
1256,1221256,17000,-564,904,17033.36,30.41,-1.00,-1.0,2428
1258,1221258,17052,-612,920,17087.76,30.41,-1.00,-1.0,2373
1261,1221261,17072,-604,932,17108.09,30.46,-1.00,-1.0,2426
1264,1221264,17020,-616,840,17051.85,30.51,-1.00,-1.0,2378
1267,1221267,17040,-656,1076,17086.54,30.46,-1.00,-1.0,2422
1269,1221269,17048,-560,756,17073.94,30.41,-1.00,-1.0,2374
1274,1221274,17088,-580,920,17122.57,30.37,-1.00,-1.0,2438
1277,1221277,16948,-664,904,16985.08,30.46,-1.00,-1.0,2377
1280,1221280,17084,-584,900,17117.65,30.51,-1.00,-1.0,2364
1282,1221282,17064,-596,868,17096.45,30.51,-1.00,-1.0,2427
1285,1221285,17156,-636,864,17189.51,30.41,-1.00,-1.0,2371
1288,1221288,17156,-528,848,17185.06,30.51,-1.00,-1.0,2425
1291,1221291,17008,-556,744,17033.34,30.41,-1.00,-1.0,2370
1293,1221293,17080,-628,908,17115.64,30.41,-1.00,-1.0,2420
1296,1221296,17028,-668,940,17067.00,30.46,-1.00,-1.0,2385
1301,1221301,17020,-692,808,17053.21,30.41,-1.00,-1.0,2436
1304,1221304,17008,-692,888,17045.22,30.41,-1.00,-1.0,2370
1306,1221306,17008,-616,772,17036.65,30.46,-1.00,-1.0,2428
1309,1221309,17080,-672,888,17116.27,30.32,-1.00,-1.0,2372
1312,1221312,17060,-612,824,17090.85,30.46,-1.00,-1.0,2424
1315,1221315,16860,-612,952,16897.94,30.32,-1.00,-1.0,2371
1317,1221317,17120,-532,948,17154.48,30.37,-1.00,-1.0,2368
1320,1221320,17072,-580,932,17107.26,30.41,-1.00,-1.0,2418
1323,1221323,16976,-576,912,17010.23,30.37,-1.00,-1.0,2374
1328,1221328,17028,-616,940,17065.05,30.37,-1.00,-1.0,2438
1331,1221331,17072,-548,880,17103.45,30.37,-1.00,-1.0,2377
1334,1221334,17120,-668,1060,17165.79,30.37,-1.00,-1.0,2439
1336,1221336,17076,-612,896,17110.44,30.46,-1.00,-1.0,2378
1339,1221339,16952,-628,856,16985.21,30.41,-1.00,-1.0,2418
1342,1221342,17020,-644,972,17059.89,30.46,-1.00,-1.0,2371
1345,1221345,16964,-640,844,16997.04,30.41,-1.00,-1.0,2418
1347,1221347,17016,-600,852,17047.88,30.41,-1.00,-1.0,2377
1352,1221352,17024,-668,888,17060.23,30.41,-1.00,-1.0,2439
1355,1221355,17024,-568,948,17059.83,30.37,-1.00,-1.0,2386
1358,1221358,17008,-640,832,17040.36,30.51,-1.00,-1.0,2366
1361,1221361,17000,-532,948,17034.72,30.46,-1.00,-1.0,2429
1363,1221363,17060,-644,968,17099.57,30.41,-1.00,-1.0,2371
1366,1221366,17052,-516,820,17079.50,30.46,-1.00,-1.0,2417
1369,1221369,17008,-500,864,17037.27,30.32,-1.00,-1.0,2378
1372,1221372,17060,-680,1036,17104.95,30.46,-1.00,-1.0,2418
1374,1221374,17040,-564,880,17072.03,30.46,-1.00,-1.0,2371
1380,1221380,17068,-616,948,17105.40,30.41,-1.00,-1.0,2416
1382,1221382,17140,-600,944,17176.46,30.41,-1.00,-1.0,2373
1385,1221385,17088,-728,884,17126.33,30.51,-1.00,-1.0,2427
1388,1221388,17036,-576,916,17070.33,30.51,-1.00,-1.0,2370
1391,1221391,17060,-612,976,17098.85,30.51,-1.00,-1.0,2418
1393,1221393,17120,-568,824,17149.23,30.41,-1.00,-1.0,2372
1396,1221396,17088,-616,844,17119.92,30.37,-1.00,-1.0,2374
1399,1221399,17048,-692,920,17086.82,30.46,-1.00,-1.0,2418
1401,1221401,17088,-768,928,17130.40,30.46,-1.00,-1.0,2370
1406,1221406,17064,-708,748,17095.05,30.46,-1.00,-1.0,2416
1409,1221409,17040,-604,1008,17080.47,30.41,-1.00,-1.0,2373
1412,1221412,17136,-600,808,17165.53,30.46,-1.00,-1.0,2435
1415,1221415,16988,-560,968,17024.77,30.41,-1.00,-1.0,2370
1417,1221417,17032,-708,860,17068.39,30.46,-1.00,-1.0,2419
1420,1221420,17000,-692,932,17039.59,30.41,-1.00,-1.0,2371
1423,1221423,17140,-668,816,17172.41,30.37,-1.00,-1.0,2426
1426,1221426,17020,-544,940,17054.62,30.51,-1.00,-1.0,2370
1431,1221431,16948,-516,1008,16985.79,30.41,-1.00,-1.0,2431
1433,1221433,17072,-716,908,17111.12,30.51,-1.00,-1.0,2377
1436,1221436,17004,-644,1036,17047.70,30.46,-1.00,-1.0,2374
1439,1221439,16988,-620,976,17027.30,30.37,-1.00,-1.0,2427
1441,1221441,17060,-552,820,17088.61,30.46,-1.00,-1.0,2371
1444,1221444,16984,-576,924,17018.87,30.41,-1.00,-1.0,2425
1447,1221447,17068,-644,1036,17111.54,30.37,-1.00,-1.0,2378
1450,1221450,17120,-676,972,17160.89,30.46,-1.00,-1.0,2418
1452,1221452,17000,-600,980,17038.79,30.46,-1.00,-1.0,2373
1457,1221457,16948,-572,912,16982.16,30.37,-1.00,-1.0,2429
1460,1221460,17020,-528,788,17046.41,30.46,-1.00,-1.0,2370
1463,1221463,17140,-608,936,17176.30,30.46,-1.00,-1.0,2430
1466,1221466,17072,-688,916,17110.39,30.46,-1.00,-1.0,2369
1468,1221468,17064,-660,864,17098.60,30.41,-1.00,-1.0,2419
1471,1221471,17056,-596,956,17093.16,30.46,-1.00,-1.0,2371
1474,1221474,17048,-588,860,17079.80,30.51,-1.00,-1.0,2421
1477,1221477,17044,-568,780,17071.29,30.46,-1.00,-1.0,2370
1479,1221479,17080,-604,980,17118.75,30.46,-1.00,-1.0,2367
1484,1221484,17008,-624,888,17042.59,30.51,-1.00,-1.0,2444
1487,1221487,16984,-664,900,17020.79,30.41,-1.00,-1.0,2380
1490,1221490,17164,-652,828,17196.32,30.51,-1.00,-1.0,2441
1492,1221492,17072,-696,796,17104.71,30.51,-1.00,-1.0,2378
1495,1221495,17012,-528,868,17042.31,30.46,-1.00,-1.0,2418
1498,1221498,17104,-668,844,17137.83,30.51,-1.00,-1.0,2360
1501,1221501,17064,-744,808,17099.31,30.46,-1.00,-1.0,2425
1503,1221503,17056,-608,888,17089.92,30.41,-1.00,-1.0,2378
1508,1221508,17020,-532,996,17057.42,30.41,-1.00,-1.0,2429
1511,1221511,16996,-728,752,17028.20,30.46,-1.00,-1.0,2376
1513,1221513,17016,-636,848,17048.98,30.41,-1.00,-1.0,2374
1516,1221516,17052,-564,876,17083.80,30.46,-1.00,-1.0,2427
1519,1221519,17072,-668,940,17110.90,30.46,-1.00,-1.0,2372
1522,1221522,17072,-692,796,17104.55,30.46,-1.00,-1.0,2419
1524,1221524,17104,-616,856,17136.48,30.46,-1.00,-1.0,2373
1527,1221527,16984,-584,888,17017.22,30.46,-1.00,-1.0,2426
1530,1221530,16924,-448,904,16954.05,30.51,-1.00,-1.0,2369
1535,1221535,17060,-536,908,17092.55,30.41,-1.00,-1.0,2431
1538,1221538,17036,-560,888,17068.32,30.51,-1.00,-1.0,2369
1541,1221541,17040,-544,780,17066.52,30.51,-1.00,-1.0,2434
1544,1221544,17020,-496,784,17045.27,30.37,-1.00,-1.0,2365
1546,1221546,17052,-588,888,17085.23,30.41,-1.00,-1.0,2426
1549,1221549,17040,-644,812,17071.49,30.41,-1.00,-1.0,2368
1552,1221552,17072,-556,880,17103.71,30.37,-1.00,-1.0,2368
1555,1221555,16992,-624,1100,17039.00,30.46,-1.00,-1.0,2421
1557,1221557,16964,-668,944,17003.37,30.46,-1.00,-1.0,2383
1562,1221562,17016,-604,1036,17058.21,30.46,-1.00,-1.0,2438
1565,1221565,17048,-652,960,17087.45,30.41,-1.00,-1.0,2378
1568,1221568,17032,-612,868,17065.08,30.37,-1.00,-1.0,2428
1571,1221571,17024,-604,1012,17064.75,30.37,-1.00,-1.0,2376
1574,1221574,17076,-504,884,17106.29,30.46,-1.00,-1.0,2421
1576,1221576,17092,-532,844,17121.09,30.46,-1.00,-1.0,2385
1579,1221579,17016,-640,888,17051.17,30.46,-1.00,-1.0,2418
1582,1221582,17020,-704,928,17059.81,30.46,-1.00,-1.0,2374
1587,1221587,16984,-576,940,17019.74,30.37,-1.00,-1.0,2431
1589,1221589,17056,-604,924,17091.69,30.41,-1.00,-1.0,2372
1592,1221592,16916,-556,764,16942.37,30.46,-1.00,-1.0,2437
1595,1221595,17036,-584,1044,17077.95,30.46,-1.00,-1.0,2378
1598,1221598,17044,-564,944,17079.44,30.37,-1.00,-1.0,2366
1600,1221600,17160,-752,788,17194.54,30.41,-1.00,-1.0,2418
1603,1221603,17104,-492,928,17136.22,30.51,-1.00,-1.0,2371
1606,1221606,17040,-616,808,17070.26,30.41,-1.00,-1.0,2425
1609,1221609,17040,-648,772,17069.78,30.37,-1.00,-1.0,2370
1614,1221614,17156,-556,824,17184.77,30.46,-1.00,-1.0,2416
1616,1221616,16956,-628,780,16985.54,30.37,-1.00,-1.0,2377
1619,1221619,16920,-648,800,16951.29,30.51,-1.00,-1.0,2427
1622,1221622,16936,-632,912,16972.31,30.46,-1.00,-1.0,2370
1625,1221625,17096,-584,880,17128.59,30.41,-1.00,-1.0,2418
1627,1221627,17008,-580,932,17043.39,30.41,-1.00,-1.0,2371
1630,1221630,17004,-536,1016,17042.76,30.51,-1.00,-1.0,2418
1633,1221633,17072,-672,844,17106.05,30.51,-1.00,-1.0,2369
1636,1221636,17076,-560,784,17103.16,30.37,-1.00,-1.0,2366
1641,1221641,17064,-508,932,17096.98,30.46,-1.00,-1.0,2430
1643,1221643,16980,-616,884,17014.15,30.55,-1.00,-1.0,2373
1646,1221646,16992,-592,1044,17034.33,30.41,-1.00,-1.0,2428
1649,1221649,17008,-644,864,17042.10,30.32,-1.00,-1.0,2370
1652,1221652,17044,-588,816,17073.65,30.41,-1.00,-1.0,2419
1654,1221654,17028,-548,900,17060.57,30.41,-1.00,-1.0,2371
1657,1221657,17000,-596,772,17027.95,30.41,-1.00,-1.0,2418
1660,1221660,17020,-552,832,17049.26,30.41,-1.00,-1.0,2369
1665,1221665,17072,-572,904,17105.48,30.41,-1.00,-1.0,2434
1667,1221667,17036,-588,1016,17076.40,30.46,-1.00,-1.0,2378
1670,1221670,17040,-692,1044,17085.97,30.41,-1.00,-1.0,2428
1673,1221673,17076,-552,852,17106.15,30.41,-1.00,-1.0,2376
1676,1221676,17012,-556,968,17048.59,30.46,-1.00,-1.0,2366
1678,1221678,17060,-644,996,17101.18,30.37,-1.00,-1.0,2422
1681,1221681,17128,-512,936,17161.20,30.46,-1.00,-1.0,2371
1684,1221684,17112,-620,984,17151.48,30.37,-1.00,-1.0,2425
1687,1221687,16992,-612,948,17029.43,30.46,-1.00,-1.0,2371
1691,1221691,17060,-612,904,17094.89,30.46,-1.00,-1.0,2445
1694,1221694,17044,-624,848,17076.49,30.51,-1.00,-1.0,2387
1697,1221697,17040,-548,980,17076.95,30.51,-1.00,-1.0,2427
1700,1221700,17008,-632,832,17040.06,30.41,-1.00,-1.0,2372
1703,1221703,17048,-632,952,17086.25,30.51,-1.00,-1.0,2418
1705,1221705,17040,-472,884,17069.44,30.51,-1.00,-1.0,2371
1708,1221708,17132,-656,920,17169.22,30.51,-1.00,-1.0,2419
1711,1221711,17068,-600,868,17100.59,30.41,-1.00,-1.0,2370
1714,1221714,16980,-528,964,17015.54,30.37,-1.00,-1.0,2366
1718,1221718,17076,-708,896,17114.14,30.46,-1.00,-1.0,2416
1721,1221721,17088,-576,960,17124.63,30.51,-1.00,-1.0,2370
1724,1221724,16896,-596,1044,16938.71,30.37,-1.00,-1.0,2435
1727,1221727,17056,-652,900,17092.17,30.41,-1.00,-1.0,2370
1729,1221729,16984,-572,816,17013.21,30.37,-1.00,-1.0,2420
1732,1221732,17032,-572,840,17062.29,30.41,-1.00,-1.0,2371
1735,1221735,17004,-640,956,17042.87,30.46,-1.00,-1.0,2426
1738,1221738,17020,-660,908,17056.98,30.46,-1.00,-1.0,2369
1743,1221743,17076,-660,864,17110.58,30.46,-1.00,-1.0,2428
1745,1221745,17064,-592,860,17095.91,30.46,-1.00,-1.0,2370
1748,1221748,16932,-564,912,16965.92,30.37,-1.00,-1.0,2428
1751,1221751,17052,-684,964,17092.92,30.27,-1.00,-1.0,2377
1753,1221753,17028,-584,1048,17070.21,30.41,-1.00,-1.0,2374
1756,1221756,17092,-672,1068,17138.51,30.41,-1.00,-1.0,2419
1759,1221759,17012,-576,848,17042.86,30.41,-1.00,-1.0,2371
1762,1221762,17136,-644,808,17167.12,30.41,-1.00,-1.0,2418
1765,1221765,17096,-696,972,17137.75,30.41,-1.00,-1.0,2371
1770,1221770,17060,-596,864,17092.26,30.41,-1.00,-1.0,2429
1772,1221772,17112,-712,996,17155.74,30.37,-1.00,-1.0,2373
1775,1221775,17080,-604,912,17114.99,30.41,-1.00,-1.0,2442
1778,1221778,17200,-544,924,17233.39,30.41,-1.00,-1.0,2378
1781,1221781,16948,-508,928,16980.99,30.51,-1.00,-1.0,2433
1783,1221783,17004,-544,940,17038.65,30.41,-1.00,-1.0,2374
1786,1221786,16984,-504,928,17016.80,30.51,-1.00,-1.0,2429
1789,1221789,17036,-476,956,17069.44,30.51,-1.00,-1.0,2383
1792,1221792,17060,-592,904,17094.19,30.51,-1.00,-1.0,2369
1797,1221797,16952,-548,1012,16991.02,30.46,-1.00,-1.0,2436
1800,1221800,17032,-588,820,17061.86,30.37,-1.00,-1.0,2370
1802,1221802,16940,-584,772,16967.63,30.46,-1.00,-1.0,2429
1805,1221805,17104,-612,816,17134.39,30.37,-1.00,-1.0,2371
1808,1221808,16992,-564,812,17020.74,30.51,-1.00,-1.0,2425
1811,1221811,16988,-552,900,17020.78,30.46,-1.00,-1.0,2371
1813,1221813,17052,-576,892,17085.03,30.32,-1.00,-1.0,2420
1816,1221816,16972,-636,980,17012.16,30.41,-1.00,-1.0,2371
1821,1221821,17036,-564,900,17069.08,30.46,-1.00,-1.0,2415
1824,1221824,16984,-456,964,17017.45,30.46,-1.00,-1.0,2369
1827,1221827,17076,-632,908,17111.80,30.46,-1.00,-1.0,2427
1829,1221829,17000,-632,828,17031.88,30.46,-1.00,-1.0,2374
1832,1221832,17004,-664,1072,17050.69,30.41,-1.00,-1.0,2374
1835,1221835,17020,-716,756,17051.82,30.37,-1.00,-1.0,2429
1837,1221837,17108,-560,916,17141.65,30.41,-1.00,-1.0,2376
1840,1221840,17072,-740,732,17103.70,30.46,-1.00,-1.0,2412
1843,1221843,17024,-592,956,17061.10,30.41,-1.00,-1.0,2379
1848,1221848,17048,-604,848,17079.76,30.41,-1.00,-1.0,2432
1851,1221851,17060,-564,900,17093.03,30.41,-1.00,-1.0,2370
1853,1221853,16996,-608,912,17031.31,30.41,-1.00,-1.0,2430
1856,1221856,17044,-676,844,17078.27,30.41,-1.00,-1.0,2371
1859,1221859,17076,-636,796,17106.37,30.41,-1.00,-1.0,2425
1862,1221862,16988,-596,956,17025.31,30.41,-1.00,-1.0,2371
1864,1221864,17088,-696,876,17124.59,30.46,-1.00,-1.0,2433
1867,1221867,17104,-640,972,17143.55,30.41,-1.00,-1.0,2371
1870,1221870,17028,-684,860,17063.42,30.55,-1.00,-1.0,2366
1875,1221875,17048,-524,984,17084.41,30.37,-1.00,-1.0,2432
1877,1221877,16964,-548,848,16994.02,30.46,-1.00,-1.0,2378
1880,1221880,17032,-628,852,17064.86,30.37,-1.00,-1.0,2427
1883,1221883,17088,-576,872,17119.93,30.46,-1.00,-1.0,2371
1886,1221886,17104,-572,844,17134.36,30.37,-1.00,-1.0,2418
1888,1221888,17112,-516,964,17146.90,30.37,-1.00,-1.0,2377
1891,1221891,17112,-480,876,17141.13,30.46,-1.00,-1.0,2418
1894,1221894,17088,-528,900,17119.83,30.37,-1.00,-1.0,2373
1899,1221899,17016,-668,864,17051.01,30.41,-1.00,-1.0,2431
1901,1221901,17052,-548,896,17084.31,30.37,-1.00,-1.0,2357
1904,1221904,17008,-568,932,17042.98,30.37,-1.00,-1.0,2414
1907,1221907,16952,-596,852,16983.86,30.37,-1.00,-1.0,2374
1910,1221910,17076,-592,1008,17115.97,30.41,-1.00,-1.0,2367
1912,1221912,17056,-592,852,17087.53,30.55,-1.00,-1.0,2426
1915,1221915,16932,-552,992,16970.01,30.41,-1.00,-1.0,2371
1918,1221918,17008,-612,1008,17048.83,30.37,-1.00,-1.0,2426
1921,1221921,17032,-636,744,17060.10,30.51,-1.00,-1.0,2370
1925,1221925,17040,-556,912,17073.44,30.46,-1.00,-1.0,2436
1928,1221928,17108,-628,904,17143.37,30.46,-1.00,-1.0,2385
1931,1221931,17024,-596,848,17055.52,30.41,-1.00,-1.0,2428
1934,1221934,17068,-484,1016,17105.06,30.46,-1.00,-1.0,2369
1937,1221937,16996,-584,844,17026.96,30.41,-1.00,-1.0,2418
1939,1221939,17040,-540,904,17072.50,30.46,-1.00,-1.0,2373
1942,1221942,17192,-656,872,17226.60,30.41,-1.00,-1.0,2418
1945,1221945,17080,-588,920,17114.86,30.51,-1.00,-1.0,2380
1948,1221948,17084,-516,968,17119.18,30.41,-1.00,-1.0,2374
1953,1221953,17088,-680,740,17117.53,30.51,-1.00,-1.0,2428
1956,1221956,17036,-688,920,17074.69,30.32,-1.00,-1.0,2372
1958,1221958,17044,-472,808,17069.67,30.41,-1.00,-1.0,2427
1961,1221961,17056,-680,792,17087.91,30.51,-1.00,-1.0,2370
1964,1221964,17036,-644,772,17065.64,30.41,-1.00,-1.0,2425
1967,1221967,17136,-556,936,17170.55,30.41,-1.00,-1.0,2369
1969,1221969,17044,-612,1056,17087.64,30.46,-1.00,-1.0,2418
1972,1221972,17000,-596,892,17033.82,30.41,-1.00,-1.0,2372
1977,1221977,17040,-588,968,17077.60,30.41,-1.00,-1.0,2428
1980,1221980,17052,-668,1000,17094.35,30.41,-1.00,-1.0,2371
1983,1221983,17012,-652,748,17040.91,30.51,-1.00,-1.0,2427
1985,1221985,17056,-532,856,17085.75,30.37,-1.00,-1.0,2371
1988,1221988,16976,-544,840,17005.47,30.37,-1.00,-1.0,2374
1991,1221991,17032,-740,828,17068.16,30.37,-1.00,-1.0,2418
1993,1221993,17116,-532,876,17146.66,30.37,-1.00,-1.0,2374
1996,1221996,17028,-664,1008,17070.73,30.46,-1.00,-1.0,2426
1999,1221999,17004,-668,852,17038.43,30.46,-1.00,-1.0,2378
2004,1222004,17024,-560,944,17059.35,30.46,-1.00,-1.0,2436
2007,1222007,16992,-604,892,17026.11,30.46,-1.00,-1.0,2369
2009,1222009,17016,-552,908,17049.15,30.37,-1.00,-1.0,2429
2012,1222012,17056,-636,844,17088.71,30.46,-1.00,-1.0,2371
2015,1222015,16988,-532,940,17022.30,30.46,-1.00,-1.0,2425
2018,1222018,17200,-664,832,17232.91,30.46,-1.00,-1.0,2371
2020,1222020,17072,-604,928,17107.87,30.37,-1.00,-1.0,2425
2023,1222023,17040,-544,876,17071.17,30.46,-1.00,-1.0,2371
2026,1222026,17064,-608,824,17094.70,30.37,-1.00,-1.0,2374
2031,1222031,17036,-728,1044,17083.48,30.27,-1.00,-1.0,2436
2034,1222034,16988,-572,756,17014.43,30.37,-1.00,-1.0,2370
2036,1222036,17088,-484,852,17116.07,30.51,-1.00,-1.0,2442
2039,1222039,17072,-620,980,17111.34,30.46,-1.00,-1.0,2379
2042,1222042,17068,-576,864,17099.56,30.51,-1.00,-1.0,2421
2045,1222045,17044,-632,872,17077.99,30.37,-1.00,-1.0,2371
2047,1222047,17080,-548,880,17111.43,30.41,-1.00,-1.0,2429
2050,1222050,17056,-564,864,17087.18,30.37,-1.00,-1.0,2379
2055,1222055,16992,-500,1000,17028.74,30.46,-1.00,-1.0,2428
2058,1222058,17112,-672,896,17148.61,30.37,-1.00,-1.0,2378
2061,1222061,17020,-564,864,17051.25,30.32,-1.00,-1.0,2434
2063,1222063,17000,-584,988,17038.70,30.46,-1.00,-1.0,2374
2066,1222066,17020,-624,744,17047.68,30.41,-1.00,-1.0,2371
2069,1222069,17080,-608,880,17113.46,30.46,-1.00,-1.0,2418
2072,1222072,16984,-604,784,17012.81,30.51,-1.00,-1.0,2372
2074,1222074,17068,-556,864,17098.90,30.46,-1.00,-1.0,2418
2077,1222077,17076,-636,804,17106.74,30.37,-1.00,-1.0,2375
2082,1222082,17076,-560,928,17110.36,30.46,-1.00,-1.0,2431
2085,1222085,17036,-680,1040,17081.26,30.41,-1.00,-1.0,2367
2088,1222088,17124,-544,864,17154.41,30.46,-1.00,-1.0,2427
2090,1222090,17032,-692,908,17070.22,30.32,-1.00,-1.0,2372
2093,1222093,17124,-632,916,17160.12,30.37,-1.00,-1.0,2405
2096,1222096,17060,-648,976,17100.18,30.41,-1.00,-1.0,2370
2099,1222099,17040,-560,968,17076.66,30.46,-1.00,-1.0,2418
2101,1222101,17080,-688,772,17111.28,30.41,-1.00,-1.0,2358
2104,1222104,17048,-588,988,17086.73,30.46,-1.00,-1.0,2367
2109,1222109,17056,-628,980,17095.67,30.46,-1.00,-1.0,2428
2112,1222112,17044,-632,880,17078.40,30.46,-1.00,-1.0,2369
2114,1222114,17036,-692,980,17078.19,30.37,-1.00,-1.0,2428
2117,1222117,17072,-708,912,17111.00,30.46,-1.00,-1.0,2371
2120,1222120,16936,-572,964,16973.05,30.46,-1.00,-1.0,2426
2123,1222123,16964,-616,860,16996.95,30.46,-1.00,-1.0,2370
2125,1222125,17032,-652,900,17068.22,30.41,-1.00,-1.0,2421
2128,1222128,17060,-652,792,17090.81,30.37,-1.00,-1.0,2374
2133,1222133,17036,-644,868,17070.25,30.46,-1.00,-1.0,2435
2135,1222135,17044,-636,944,17081.97,30.41,-1.00,-1.0,2380
2138,1222138,16960,-660,800,16991.68,30.37,-1.00,-1.0,2427
2141,1222141,17016,-604,1008,17056.53,30.55,-1.00,-1.0,2360
2144,1222144,16964,-592,920,16999.24,30.37,-1.00,-1.0,2367
2146,1222146,16968,-524,844,16997.06,30.41,-1.00,-1.0,2421
2149,1222149,17048,-592,916,17082.85,30.46,-1.00,-1.0,2370
2152,1222152,17052,-456,952,17084.64,30.37,-1.00,-1.0,2418
2155,1222155,16964,-560,924,16998.37,30.37,-1.00,-1.0,2370
2160,1222160,17100,-568,896,17132.88,30.37,-1.00,-1.0,2428
2163,1222163,17112,-584,924,17146.88,30.46,-1.00,-1.0,2370
2166,1222166,16992,-604,828,17022.88,30.55,-1.00,-1.0,2428
2168,1222168,17076,-708,848,17111.70,30.46,-1.00,-1.0,2371
2171,1222171,16984,-620,876,17017.87,30.46,-1.00,-1.0,2418
2174,1222174,17156,-596,836,17186.69,30.46,-1.00,-1.0,2370
2177,1222177,17024,-592,848,17055.38,30.41,-1.00,-1.0,2419
2179,1222179,17100,-592,952,17136.71,30.46,-1.00,-1.0,2371
2182,1222182,16944,-672,812,16976.75,30.46,-1.00,-1.0,2366
2187,1222187,17052,-636,900,17087.57,30.46,-1.00,-1.0,2415
2190,1222190,17000,-632,956,17038.58,30.37,-1.00,-1.0,2370
2193,1222193,17016,-580,880,17048.61,30.41,-1.00,-1.0,2428
2195,1222195,17040,-556,1024,17079.79,30.46,-1.00,-1.0,2370
2198,1222198,17020,-700,752,17050.98,30.46,-1.00,-1.0,2418
2201,1222201,17068,-572,852,17098.82,30.46,-1.00,-1.0,2370
2204,1222204,17052,-672,972,17092.89,30.41,-1.00,-1.0,2419
2206,1222206,17076,-568,896,17108.92,30.46,-1.00,-1.0,2371
2211,1222211,17036,-652,980,17076.62,30.46,-1.00,-1.0,2437
2214,1222214,17044,-628,836,17076.04,30.46,-1.00,-1.0,2377
2217,1222217,17068,-584,904,17101.90,30.37,-1.00,-1.0,2428
2220,1222220,17136,-632,836,17168.02,30.55,-1.00,-1.0,2376
2222,1222222,16976,-524,856,17005.64,30.32,-1.00,-1.0,2352
2225,1222225,17056,-580,920,17090.64,30.51,-1.00,-1.0,2418
2228,1222228,17100,-624,860,17132.98,30.41,-1.00,-1.0,2370
2231,1222231,17060,-568,1024,17100.14,30.41,-1.00,-1.0,2406
2233,1222233,17088,-596,1032,17129.51,30.41,-1.00,-1.0,2372
2238,1222238,16968,-628,944,17005.84,30.37,-1.00,-1.0,2428
2241,1222241,17084,-512,972,17119.29,30.37,-1.00,-1.0,2371
2244,1222244,17004,-640,932,17041.54,30.41,-1.00,-1.0,2427
2246,1222246,17136,-680,956,17176.11,30.46,-1.00,-1.0,2377
2249,1222249,17132,-456,908,17162.10,30.41,-1.00,-1.0,2418
2252,1222252,17000,-632,848,17032.87,30.46,-1.00,-1.0,2374
2255,1222255,17052,-668,780,17082.90,30.51,-1.00,-1.0,2417
2257,1222257,17004,-548,920,17037.69,30.51,-1.00,-1.0,2367
2260,1222260,17036,-536,816,17063.95,30.46,-1.00,-1.0,2373
2265,1222265,17088,-544,912,17120.96,30.37,-1.00,-1.0,2429
2268,1222268,16984,-652,888,17019.69,30.41,-1.00,-1.0,2369
2271,1222271,16980,-700,912,17018.88,30.37,-1.00,-1.0,2427
2273,1222273,16960,-576,952,16996.46,30.41,-1.00,-1.0,2371
2276,1222276,17092,-760,876,17131.30,30.46,-1.00,-1.0,2418
2279,1222279,17020,-628,848,17052.68,30.51,-1.00,-1.0,2378
2282,1222282,17076,-620,796,17105.78,30.37,-1.00,-1.0,2418
2284,1222284,17108,-604,964,17145.78,30.46,-1.00,-1.0,2371
2289,1222289,17052,-548,828,17080.88,30.41,-1.00,-1.0,2415
2292,1222292,17084,-576,904,17117.59,30.37,-1.00,-1.0,2372
2295,1222295,17056,-668,876,17091.54,30.41,-1.00,-1.0,2434
2298,1222298,17140,-708,896,17178.00,30.41,-1.00,-1.0,2370
2300,1222300,17064,-572,932,17099.00,30.46,-1.00,-1.0,2369
2303,1222303,17048,-592,796,17076.84,30.37,-1.00,-1.0,2424
2306,1222306,17060,-580,836,17090.32,30.46,-1.00,-1.0,2370
2308,1222308,17052,-572,940,17087.46,30.32,-1.00,-1.0,2430
2311,1222311,17136,-700,980,17178.27,30.41,-1.00,-1.0,2378
2316,1222316,16988,-668,756,17017.93,30.41,-1.00,-1.0,2430
2319,1222319,17084,-680,736,17113.36,30.41,-1.00,-1.0,2371
2322,1222322,17028,-588,1012,17068.18,30.41,-1.00,-1.0,2427
2324,1222324,17008,-648,832,17040.66,30.51,-1.00,-1.0,2371
2327,1222327,17108,-608,904,17142.65,30.46,-1.00,-1.0,2418
2330,1222330,17044,-740,912,17084.42,30.41,-1.00,-1.0,2370
2333,1222333,17144,-568,752,17169.88,30.27,-1.00,-1.0,2418
2335,1222335,17108,-620,796,17137.73,30.41,-1.00,-1.0,2371
2338,1222338,16956,-656,848,16989.86,30.51,-1.00,-1.0,2368
2343,1222343,16988,-560,808,17016.42,30.37,-1.00,-1.0,2423
2346,1222346,17044,-580,980,17082.00,30.46,-1.00,-1.0,2369
2348,1222348,17036,-656,772,17066.10,30.46,-1.00,-1.0,2428
2351,1222351,17140,-620,892,17174.39,30.37,-1.00,-1.0,2375
2354,1222354,17080,-576,948,17115.98,30.37,-1.00,-1.0,2426
2357,1222357,17020,-600,852,17051.87,30.46,-1.00,-1.0,2372
2359,1222359,17012,-680,884,17048.52,30.41,-1.00,-1.0,2430
2362,1222362,17004,-676,732,17033.17,30.41,-1.00,-1.0,2371
2367,1222367,16940,-508,912,16972.14,30.41,-1.00,-1.0,2429
2370,1222370,17064,-568,908,17097.58,30.46,-1.00,-1.0,2377
2373,1222373,17104,-604,712,17129.46,30.51,-1.00,-1.0,2438
2375,1222375,17108,-564,956,17143.97,30.32,-1.00,-1.0,2379
2378,1222378,17096,-688,836,17130.25,30.46,-1.00,-1.0,2365
2381,1222381,16956,-628,948,16994.09,30.37,-1.00,-1.0,2421
2384,1222384,16956,-596,960,16993.61,30.37,-1.00,-1.0,2369
2386,1222386,17072,-624,848,17104.43,30.46,-1.00,-1.0,2419
2389,1222389,16992,-692,924,17031.17,30.46,-1.00,-1.0,2371
2394,1222394,16944,-632,828,16975.99,30.51,-1.00,-1.0,2429
2397,1222397,17036,-620,812,17066.61,30.41,-1.00,-1.0,2370
2400,1222400,17060,-584,992,17098.79,30.46,-1.00,-1.0,2427
2402,1222402,17096,-608,980,17134.86,30.41,-1.00,-1.0,2377
2405,1222405,17072,-548,952,17107.30,30.46,-1.00,-1.0,2418
2408,1222408,17068,-604,944,17104.75,30.51,-1.00,-1.0,2376
2411,1222411,17056,-632,872,17089.97,30.46,-1.00,-1.0,2417
2413,1222413,16980,-600,1056,17023.38,30.46,-1.00,-1.0,2373
2416,1222416,17012,-548,948,17047.20,30.37,-1.00,-1.0,2365
2421,1222421,17032,-632,896,17067.26,30.46,-1.00,-1.0,2428
2424,1222424,17016,-564,908,17049.54,30.41,-1.00,-1.0,2357
2427,1222427,16956,-688,924,16995.09,30.46,-1.00,-1.0,2427
2429,1222429,17016,-588,1016,17056.44,30.55,-1.00,-1.0,2377
2432,1222432,17008,-592,900,17042.08,30.46,-1.00,-1.0,2418
2435,1222435,17060,-564,820,17089.01,30.46,-1.00,-1.0,2374
2438,1222438,17140,-700,632,17165.93,30.46,-1.00,-1.0,2418
2441,1222441,16992,-588,872,17024.52,30.46,-1.00,-1.0,2372
2445,1222445,17132,-520,920,17164.56,30.37,-1.00,-1.0,2437
2448,1222448,17040,-592,980,17078.42,30.41,-1.00,-1.0,2384
2451,1222451,17056,-580,920,17090.64,30.37,-1.00,-1.0,2430
2454,1222454,17020,-612,876,17053.51,30.46,-1.00,-1.0,2370
2456,1222456,17108,-620,864,17141.02,30.41,-1.00,-1.0,2365
2459,1222459,17108,-556,868,17139.03,30.32,-1.00,-1.0,2418
2462,1222462,17056,-604,916,17091.26,30.46,-1.00,-1.0,2378
2465,1222465,17076,-648,980,17116.37,30.41,-1.00,-1.0,2419
2467,1222467,17036,-624,816,17066.94,30.41,-1.00,-1.0,2371
2472,1222472,17040,-640,1000,17081.31,30.51,-1.00,-1.0,2429
2475,1222475,17032,-592,1028,17073.26,30.37,-1.00,-1.0,2370
2478,1222478,17068,-604,1060,17111.55,30.51,-1.00,-1.0,2430
2481,1222481,17028,-604,996,17067.79,30.41,-1.00,-1.0,2369
2483,1222483,17012,-608,724,17038.25,30.41,-1.00,-1.0,2419
2486,1222486,17044,-656,904,17080.56,30.32,-1.00,-1.0,2370
2489,1222489,17004,-640,892,17039.40,30.41,-1.00,-1.0,2421
2492,1222492,17008,-648,856,17041.85,30.41,-1.00,-1.0,2370
2494,1222494,17120,-668,1068,17166.28,30.41,-1.00,-1.0,2369
2499,1222499,16972,-640,764,17001.24,30.51,-1.00,-1.0,2429
2502,1222502,16952,-616,836,16983.78,30.41,-1.00,-1.0,2370
2505,1222505,16976,-584,1084,17020.60,30.51,-1.00,-1.0,2435
2508,1222508,17012,-644,1008,17054.00,30.41,-1.00,-1.0,2374
2510,1222510,17048,-596,868,17080.48,30.37,-1.00,-1.0,2433
2513,1222513,17140,-512,900,17171.25,30.41,-1.00,-1.0,2371
2516,1222516,17144,-652,800,17175.04,30.37,-1.00,-1.0,2428
2519,1222519,16956,-632,1016,16998.17,30.41,-1.00,-1.0,2371
2524,1222524,17028,-712,796,17061.46,30.46,-1.00,-1.0,2444
2527,1222527,17072,-548,952,17107.30,30.46,-1.00,-1.0,2379
2530,1222530,17048,-504,872,17077.72,30.46,-1.00,-1.0,2443
2532,1222532,17044,-604,992,17083.53,30.37,-1.00,-1.0,2381
2535,1222535,17052,-620,924,17088.27,30.41,-1.00,-1.0,2365
2538,1222538,17092,-592,948,17128.50,30.41,-1.00,-1.0,2421
2541,1222541,17004,-616,868,17037.28,30.32,-1.00,-1.0,2369
2543,1222543,17076,-568,936,17111.06,30.51,-1.00,-1.0,2419
2546,1222546,17036,-580,912,17070.25,30.41,-1.00,-1.0,2371
2551,1222551,17016,-624,876,17049.96,30.46,-1.00,-1.0,2430
2553,1222553,17008,-664,876,17043.48,30.55,-1.00,-1.0,2378
2556,1222556,17072,-552,804,17099.83,30.41,-1.00,-1.0,2427
2559,1222559,17124,-592,704,17148.69,30.37,-1.00,-1.0,2373
2562,1222562,16940,-532,860,16970.16,30.41,-1.00,-1.0,2418
2564,1222564,16992,-632,900,17027.55,30.41,-1.00,-1.0,2372
2567,1222567,17132,-640,836,17164.32,30.41,-1.00,-1.0,2418
2570,1222570,16992,-608,944,17029.06,30.41,-1.00,-1.0,2372
2573,1222573,17064,-592,908,17098.39,30.41,-1.00,-1.0,2367
2578,1222578,17076,-628,804,17106.45,30.41,-1.00,-1.0,2428
2580,1222580,17072,-556,836,17101.50,30.51,-1.00,-1.0,2370
2583,1222583,16956,-540,892,16988.03,30.37,-1.00,-1.0,2427
2586,1222586,17108,-668,1040,17152.59,30.41,-1.00,-1.0,2369
2589,1222589,17064,-568,856,17094.90,30.46,-1.00,-1.0,2417
2591,1222591,17004,-584,960,17041.09,30.41,-1.00,-1.0,2374
2594,1222594,17064,-644,956,17102.89,30.37,-1.00,-1.0,2418
2597,1222597,16948,-620,880,16982.15,30.41,-1.00,-1.0,2379
2602,1222602,17072,-652,1024,17115.11,30.41,-1.00,-1.0,2436
2605,1222605,16988,-576,972,17025.53,30.41,-1.00,-1.0,2369
2607,1222607,17104,-608,940,17140.60,30.37,-1.00,-1.0,2427
2610,1222610,17016,-588,1004,17055.73,30.41,-1.00,-1.0,2375
2613,1222613,16960,-504,876,16990.09,30.46,-1.00,-1.0,2425
2616,1222616,17036,-568,908,17069.63,30.41,-1.00,-1.0,2369
2618,1222618,16992,-588,988,17030.85,30.46,-1.00,-1.0,2371
2621,1222621,17064,-532,916,17096.85,30.41,-1.00,-1.0,2423
2624,1222624,17096,-468,696,17116.56,30.46,-1.00,-1.0,2373
2629,1222629,17052,-576,828,17081.80,30.46,-1.00,-1.0,2428
2631,1222631,17108,-652,1060,17153.20,30.46,-1.00,-1.0,2372
2634,1222634,17076,-620,944,17113.31,30.41,-1.00,-1.0,2441
2637,1222637,17068,-516,992,17104.59,30.55,-1.00,-1.0,2379
2640,1222640,16996,-604,828,17026.87,30.41,-1.00,-1.0,2431
2642,1222642,16984,-588,884,17017.15,30.51,-1.00,-1.0,2379
2645,1222645,16908,-580,936,16943.82,30.41,-1.00,-1.0,2418
2648,1222648,17076,-668,936,17114.68,30.41,-1.00,-1.0,2377
2653,1222653,17016,-544,832,17045.01,30.37,-1.00,-1.0,2429
2656,1222656,17068,-668,684,17094.76,30.37,-1.00,-1.0,2377
2658,1222658,16968,-556,884,17000.11,30.41,-1.00,-1.0,2376
2661,1222661,17028,-632,932,17065.19,30.32,-1.00,-1.0,2427
2664,1222664,16980,-604,988,17019.44,30.41,-1.00,-1.0,2371
2667,1222667,17120,-604,908,17154.70,30.41,-1.00,-1.0,2419
2669,1222669,17080,-596,904,17114.29,30.41,-1.00,-1.0,2381
2672,1222672,17112,-520,872,17142.09,30.46,-1.00,-1.0,2417
2675,1222675,17092,-616,940,17128.91,30.41,-1.00,-1.0,2376
2680,1222680,17044,-548,832,17073.09,30.51,-1.00,-1.0,2431
2683,1222683,17012,-568,876,17044.01,30.46,-1.00,-1.0,2373
2686,1222686,17000,-604,768,17028.05,30.41,-1.00,-1.0,2435
2688,1222688,17036,-676,948,17075.74,30.41,-1.00,-1.0,2386
2691,1222691,16988,-588,800,17016.99,30.37,-1.00,-1.0,2366
2694,1222694,17044,-460,936,17075.88,30.46,-1.00,-1.0,2419
2696,1222696,16920,-592,824,16950.39,30.46,-1.00,-1.0,2371
2699,1222699,16992,-756,1108,17044.86,30.46,-1.00,-1.0,2418
2702,1222702,17060,-520,956,17094.68,30.46,-1.00,-1.0,2369
2707,1222707,16980,-632,892,17015.15,30.46,-1.00,-1.0,2428
2709,1222709,16996,-496,864,17025.17,30.51,-1.00,-1.0,2377
2712,1222712,16988,-420,852,17014.54,30.46,-1.00,-1.0,2427
2715,1222715,16996,-648,904,17032.36,30.46,-1.00,-1.0,2371
2718,1222718,16928,-584,800,16956.95,30.46,-1.00,-1.0,2425
2721,1222721,17180,-632,820,17211.17,30.46,-1.00,-1.0,2369
2723,1222723,17084,-600,916,17119.06,30.46,-1.00,-1.0,2421
2726,1222726,16880,-672,848,16914.64,30.37,-1.00,-1.0,2371
2729,1222729,17000,-580,924,17034.97,30.46,-1.00,-1.0,2366
2733,1222733,17028,-604,904,17062.67,30.41,-1.00,-1.0,2437
2736,1222736,17048,-608,1020,17089.30,30.51,-1.00,-1.0,2377
2739,1222739,16976,-648,1000,17017.77,30.46,-1.00,-1.0,2427
2742,1222742,16952,-536,912,16984.97,30.41,-1.00,-1.0,2375
2745,1222745,17112,-576,964,17148.81,30.37,-1.00,-1.0,2421
2747,1222747,17144,-552,900,17176.48,30.32,-1.00,-1.0,2385
2750,1222750,17040,-596,960,17077.42,30.46,-1.00,-1.0,2419
2753,1222753,17024,-580,908,17058.06,30.41,-1.00,-1.0,2373
2757,1222757,16948,-604,956,16985.68,30.41,-1.00,-1.0,2431
2760,1222760,17068,-664,896,17104.39,30.46,-1.00,-1.0,2369
2763,1222763,17092,-584,816,17121.43,30.32,-1.00,-1.0,2437
2766,1222766,17028,-556,696,17051.29,30.46,-1.00,-1.0,2370
2768,1222768,17096,-596,940,17132.19,30.41,-1.00,-1.0,2423
2771,1222771,17064,-692,928,17103.22,30.51,-1.00,-1.0,2371
2774,1222774,17084,-652,888,17119.48,30.46,-1.00,-1.0,2369
2777,1222777,16900,-544,1060,16941.95,30.55,-1.00,-1.0,2431
2780,1222780,17124,-632,856,17157.03,30.41,-1.00,-1.0,2378
2785,1222785,17128,-516,832,17155.96,30.41,-1.00,-1.0,2429
2787,1222787,17036,-640,716,17063.05,30.41,-1.00,-1.0,2366
2790,1222790,17056,-692,908,17094.16,30.41,-1.00,-1.0,2428
2793,1222793,17012,-616,1004,17052.73,30.41,-1.00,-1.0,2378
2796,1222796,17028,-532,904,17060.28,30.41,-1.00,-1.0,2421
2798,1222798,17088,-628,952,17126.02,30.41,-1.00,-1.0,2371
2801,1222801,17124,-616,840,17155.65,30.37,-1.00,-1.0,2433
2804,1222804,16992,-592,816,17021.88,30.41,-1.00,-1.0,2381
2809,1222809,17048,-592,852,17079.54,30.41,-1.00,-1.0,2435
2812,1222812,17084,-648,1000,17125.51,30.46,-1.00,-1.0,2370
2814,1222814,17052,-692,904,17089.96,30.37,-1.00,-1.0,2380
2817,1222817,17044,-644,736,17072.04,30.46,-1.00,-1.0,2429
2820,1222820,17028,-628,868,17061.67,30.46,-1.00,-1.0,2374
2823,1222823,17016,-616,928,17052.42,30.37,-1.00,-1.0,2421
2825,1222825,16920,-568,756,16946.40,30.37,-1.00,-1.0,2373
2828,1222828,17000,-656,808,17031.83,30.46,-1.00,-1.0,2419
2831,1222831,17056,-540,872,17086.81,30.37,-1.00,-1.0,2367
2836,1222836,17044,-588,936,17079.81,30.37,-1.00,-1.0,2435
2838,1222838,16928,-592,936,16964.19,30.46,-1.00,-1.0,2374
2841,1222841,17084,-560,1012,17123.11,30.46,-1.00,-1.0,2436
2844,1222844,17108,-660,816,17140.16,30.37,-1.00,-1.0,2376
2847,1222847,17048,-620,964,17086.49,30.46,-1.00,-1.0,2427
2849,1222849,17056,-648,872,17090.56,30.46,-1.00,-1.0,2379
2852,1222852,17028,-568,828,17057.58,30.41,-1.00,-1.0,2365
2855,1222855,17120,-712,948,17161.00,30.41,-1.00,-1.0,2421
2858,1222858,17100,-568,808,17128.50,30.37,-1.00,-1.0,2369
2863,1222863,16984,-604,776,17012.44,30.55,-1.00,-1.0,2434
2865,1222865,17024,-668,896,17060.64,30.46,-1.00,-1.0,2379
2868,1222868,17108,-680,988,17149.99,30.41,-1.00,-1.0,2427
2871,1222871,17076,-576,824,17105.57,30.46,-1.00,-1.0,2357
2874,1222874,17044,-556,940,17078.95,30.41,-1.00,-1.0,2418
2876,1222876,17032,-568,828,17061.57,30.37,-1.00,-1.0,2378
2879,1222879,17004,-644,860,17037.91,30.41,-1.00,-1.0,2419
2882,1222882,17064,-604,992,17103.48,30.46,-1.00,-1.0,2361
2887,1222887,17076,-624,880,17110.04,30.46,-1.00,-1.0,2436
2890,1222890,16960,-548,1056,17001.68,30.37,-1.00,-1.0,2370
2892,1222892,17076,-572,884,17108.43,30.41,-1.00,-1.0,2365
2895,1222895,17084,-616,956,17121.81,30.41,-1.00,-1.0,2428
2898,1222898,17112,-508,892,17142.76,30.51,-1.00,-1.0,2369
2901,1222901,16964,-596,984,17002.96,30.41,-1.00,-1.0,2418
2903,1222903,17088,-580,1000,17127.06,30.51,-1.00,-1.0,2371
2906,1222906,17020,-612,824,17050.92,30.41,-1.00,-1.0,2418
2909,1222909,17148,-520,892,17179.06,30.51,-1.00,-1.0,2369
2914,1222914,17020,-644,928,17057.44,30.32,-1.00,-1.0,2428
2916,1222916,17084,-620,956,17121.96,30.46,-1.00,-1.0,2377
2919,1222919,17048,-672,836,17081.71,30.41,-1.00,-1.0,2414
2922,1222922,16984,-656,804,17015.67,30.41,-1.00,-1.0,2372
2925,1222925,17056,-540,836,17085.01,30.41,-1.00,-1.0,2418
2928,1222928,16984,-592,944,17020.51,30.41,-1.00,-1.0,2372
2930,1222930,17096,-524,1008,17133.71,30.46,-1.00,-1.0,2365
2933,1222933,16948,-632,848,16980.97,30.46,-1.00,-1.0,2424
2936,1222936,16908,-604,776,16936.57,30.46,-1.00,-1.0,2370
2941,1222941,16964,-680,860,16999.39,30.46,-1.00,-1.0,2429
2943,1222943,17036,-584,964,17073.24,30.46,-1.00,-1.0,2371
2946,1222946,17036,-644,892,17071.49,30.41,-1.00,-1.0,2443
2949,1222949,17088,-604,872,17120.89,30.46,-1.00,-1.0,2378
2952,1222952,17072,-664,924,17109.88,30.41,-1.00,-1.0,2432
2954,1222954,17068,-608,864,17100.67,30.46,-1.00,-1.0,2373
2957,1222957,17028,-620,840,17059.98,30.51,-1.00,-1.0,2428
2960,1222960,16984,-596,908,17018.69,30.41,-1.00,-1.0,2374
2965,1222965,17056,-688,932,17095.29,30.46,-1.00,-1.0,2429
2967,1222967,16996,-696,832,17030.58,30.37,-1.00,-1.0,2369
2970,1222970,16984,-680,952,17024.25,30.37,-1.00,-1.0,2372
2973,1222973,17012,-604,900,17046.49,30.41,-1.00,-1.0,2440
2975,1222975,17124,-668,796,17155.50,30.46,-1.00,-1.0,2379
2978,1222978,17032,-580,1036,17073.33,30.51,-1.00,-1.0,2418
2981,1222981,17048,-688,792,17080.25,30.41,-1.00,-1.0,2375
2984,1222984,17048,-648,928,17085.53,30.32,-1.00,-1.0,2426
2987,1222987,17000,-492,820,17026.88,30.46,-1.00,-1.0,2372
2992,1222992,17076,-680,988,17118.07,30.41,-1.00,-1.0,2457
2995,1222995,17012,-588,828,17042.29,30.51,-1.00,-1.0,2369
2998,1222998,17052,-644,956,17090.91,30.46,-1.00,-1.0,2428
3000,1223000,17028,-632,948,17066.07,30.41,-1.00,-1.0,2368
3003,1223003,17124,-636,924,17160.70,30.46,-1.00,-1.0,2422
3006,1223006,17012,-556,860,17042.79,30.41,-1.00,-1.0,2371
3008,1223008,17116,-592,808,17145.29,30.37,-1.00,-1.0,2364
3011,1223011,17044,-644,896,17079.68,30.51,-1.00,-1.0,2422
3014,1223014,17016,-608,824,17046.79,30.51,-1.00,-1.0,2375
3019,1223019,17048,-636,808,17078.98,30.51,-1.00,-1.0,2447
3022,1223022,17156,-624,856,17188.67,30.46,-1.00,-1.0,2364
3024,1223024,17036,-608,904,17070.80,30.51,-1.00,-1.0,2444
3027,1223027,17044,-620,728,17070.80,30.41,-1.00,-1.0,2370
3030,1223030,17100,-636,768,17129.05,30.41,-1.00,-1.0,2432
3033,1223033,17060,-668,852,17094.32,30.41,-1.00,-1.0,2366
3035,1223035,17120,-632,796,17150.14,30.41,-1.00,-1.0,2436
3038,1223038,17052,-728,876,17090.00,30.32,-1.00,-1.0,2374
3043,1223043,17076,-652,944,17114.50,30.41,-1.00,-1.0,2436
3046,1223046,17096,-644,744,17124.29,30.46,-1.00,-1.0,2381
3048,1223048,17056,-632,768,17084.97,30.51,-1.00,-1.0,2373
3051,1223051,17020,-612,892,17054.34,30.46,-1.00,-1.0,2428
3054,1223054,16960,-596,892,16993.89,30.46,-1.00,-1.0,2370
3057,1223057,17136,-580,816,17165.22,30.46,-1.00,-1.0,2422
3059,1223059,17076,-704,896,17113.98,30.37,-1.00,-1.0,2371
3062,1223062,16976,-568,824,17005.47,30.46,-1.00,-1.0,2421
3065,1223065,17028,-616,924,17064.17,30.37,-1.00,-1.0,2370
3070,1223070,17052,-660,960,17091.75,30.51,-1.00,-1.0,2449
3073,1223073,17052,-648,928,17089.52,30.41,-1.00,-1.0,2377
3076,1223076,17112,-592,784,17140.18,30.46,-1.00,-1.0,2442
3078,1223078,17084,-664,804,17115.79,30.51,-1.00,-1.0,2378
3081,1223081,17112,-508,788,17137.66,30.37,-1.00,-1.0,2421
3084,1223084,16996,-684,820,17029.51,30.41,-1.00,-1.0,2372
3087,1223087,16996,-512,816,17023.28,30.37,-1.00,-1.0,2367
3089,1223089,17000,-524,952,17034.70,30.46,-1.00,-1.0,2424
3092,1223092,16900,-580,928,16935.39,30.46,-1.00,-1.0,2373
3099,1223099,17060,-740,792,17094.40,30.46,-1.00,-1.0,2441
3101,1223101,17140,-604,880,17173.20,30.37,-1.00,-1.0,2381
3104,1223104,16988,-608,1012,17028.97,30.46,-1.00,-1.0,2427
3107,1223107,17060,-572,1016,17099.80,30.37,-1.00,-1.0,2371
3110,1223110,17124,-564,880,17155.87,30.37,-1.00,-1.0,2422
3113,1223113,17024,-692,972,17065.76,30.37,-1.00,-1.0,2371
3115,1223115,16992,-616,896,17026.75,30.46,-1.00,-1.0,2421
3118,1223118,17036,-604,860,17068.38,30.46,-1.00,-1.0,2372
3123,1223123,17040,-568,872,17071.75,30.46,-1.00,-1.0,2439
3126,1223126,16956,-636,792,16986.40,30.46,-1.00,-1.0,2371
3128,1223128,17036,-592,936,17071.96,30.46,-1.00,-1.0,2369
3131,1223131,17064,-536,924,17097.40,30.41,-1.00,-1.0,2427
3134,1223134,16912,-716,848,16948.38,30.51,-1.00,-1.0,2368
3137,1223137,17140,-596,1024,17180.90,30.41,-1.00,-1.0,2421
3139,1223139,17036,-548,872,17067.10,30.37,-1.00,-1.0,2369
3142,1223142,17032,-676,908,17069.58,30.32,-1.00,-1.0,2422
3145,1223145,17068,-592,996,17107.28,30.41,-1.00,-1.0,2368
3150,1223150,16992,-560,836,17021.77,30.41,-1.00,-1.0,2435
3152,1223152,17052,-680,1028,17096.49,30.41,-1.00,-1.0,2372
3155,1223155,16956,-580,984,16994.43,30.46,-1.00,-1.0,2427
3158,1223158,17020,-632,860,17053.43,30.41,-1.00,-1.0,2377
3161,1223161,17104,-560,924,17138.09,30.46,-1.00,-1.0,2421
3163,1223163,17096,-580,804,17124.72,30.41,-1.00,-1.0,2370
3166,1223166,16920,-636,828,16952.18,30.46,-1.00,-1.0,2367
3169,1223169,16972,-568,812,17000.90,30.41,-1.00,-1.0,2422
3171,1223171,16972,-608,924,17008.00,30.46,-1.00,-1.0,2374
3176,1223176,17080,-584,916,17114.51,30.46,-1.00,-1.0,2435
3179,1223179,17044,-576,816,17073.24,30.32,-1.00,-1.0,2376
3182,1223182,17004,-656,884,17039.60,30.37,-1.00,-1.0,2427
3184,1223184,17052,-716,860,17088.68,30.41,-1.00,-1.0,2374
3187,1223187,17068,-564,836,17097.77,30.46,-1.00,-1.0,2437
3190,1223190,16912,-604,796,16941.49,30.37,-1.00,-1.0,2380
3193,1223193,17096,-684,832,17129.89,30.37,-1.00,-1.0,2434
3195,1223195,17068,-568,904,17101.36,30.46,-1.00,-1.0,2373
3200,1223200,17028,-556,932,17062.55,30.37,-1.00,-1.0,2436
3203,1223203,17020,-612,816,17050.54,30.51,-1.00,-1.0,2368
3206,1223206,17028,-532,776,17053.97,30.37,-1.00,-1.0,2370
3209,1223209,16980,-596,876,17013.02,30.51,-1.00,-1.0,2430
3211,1223211,17136,-624,784,17165.27,30.37,-1.00,-1.0,2376
3214,1223214,17024,-528,980,17060.36,30.41,-1.00,-1.0,2424
3217,1223217,17044,-520,936,17077.60,30.32,-1.00,-1.0,2371
3220,1223220,17100,-528,940,17133.96,30.41,-1.00,-1.0,2422
3222,1223222,16956,-588,844,16987.17,30.46,-1.00,-1.0,2357
3227,1223227,17112,-632,768,17140.88,30.46,-1.00,-1.0,2449
3230,1223230,17056,-500,864,17085.19,30.46,-1.00,-1.0,2377
3233,1223233,17020,-612,976,17058.94,30.51,-1.00,-1.0,2443
3235,1223235,16996,-632,944,17033.92,30.46,-1.00,-1.0,2376
3238,1223238,17064,-544,860,17094.32,30.32,-1.00,-1.0,2422
3241,1223241,17052,-588,800,17080.88,30.55,-1.00,-1.0,2358
3244,1223244,17068,-548,868,17098.84,30.32,-1.00,-1.0,2367
3246,1223246,17072,-572,988,17110.13,30.46,-1.00,-1.0,2421
3249,1223249,17076,-612,912,17111.29,30.41,-1.00,-1.0,2357
3254,1223254,17052,-568,988,17090.04,30.41,-1.00,-1.0,2441
3257,1223257,16984,-508,936,17017.36,30.51,-1.00,-1.0,2377
3260,1223260,17036,-572,1004,17075.14,30.32,-1.00,-1.0,2430
3262,1223262,17016,-680,748,17046.00,30.37,-1.00,-1.0,2356
3265,1223265,17120,-692,848,17154.95,30.51,-1.00,-1.0,2422
3268,1223268,17040,-608,888,17073.95,30.41,-1.00,-1.0,2367
3271,1223271,17060,-612,912,17095.32,30.51,-1.00,-1.0,2409
3273,1223273,16940,-668,888,16976.41,30.46,-1.00,-1.0,2384
3278,1223278,17020,-600,884,17053.50,30.55,-1.00,-1.0,2436
3281,1223281,16968,-544,812,16996.13,30.46,-1.00,-1.0,2383
3284,1223284,16948,-704,692,16976.72,30.41,-1.00,-1.0,2368
3286,1223286,16948,-700,836,16983.04,30.37,-1.00,-1.0,2415
3289,1223289,17068,-640,788,17098.16,30.41,-1.00,-1.0,2372
3292,1223292,17044,-604,796,17073.27,30.46,-1.00,-1.0,2422
3295,1223295,16956,-680,856,16991.21,30.51,-1.00,-1.0,2370
3297,1223297,17000,-536,904,17032.46,30.37,-1.00,-1.0,2422
3300,1223300,17032,-508,900,17063.33,30.41,-1.00,-1.0,2371
3305,1223305,17112,-664,800,17143.55,30.41,-1.00,-1.0,2440
3308,1223308,17096,-584,912,17130.27,30.41,-1.00,-1.0,2377
3311,1223311,16972,-580,976,17009.93,30.46,-1.00,-1.0,2429
3313,1223313,16984,-584,948,17020.46,30.51,-1.00,-1.0,2358
3316,1223316,16964,-528,992,17001.18,30.46,-1.00,-1.0,2367
3319,1223319,17020,-604,836,17051.22,30.46,-1.00,-1.0,2421
3321,1223321,17068,-648,808,17099.40,30.37,-1.00,-1.0,2369
3324,1223324,17124,-660,992,17165.40,30.46,-1.00,-1.0,2422
3327,1223327,17008,-644,940,17046.12,30.46,-1.00,-1.0,2368
3332,1223332,16960,-616,840,16991.96,30.41,-1.00,-1.0,2467
3335,1223335,17044,-608,780,17072.67,30.41,-1.00,-1.0,2365
3337,1223337,16976,-660,992,17017.76,30.41,-1.00,-1.0,2432
3340,1223340,17012,-568,996,17050.60,30.51,-1.00,-1.0,2378
3343,1223343,16996,-516,964,17031.13,30.32,-1.00,-1.0,2425
3346,1223346,17020,-632,896,17055.28,30.41,-1.00,-1.0,2366
3349,1223349,17052,-724,924,17092.36,30.37,-1.00,-1.0,2429
3351,1223351,17060,-628,904,17095.47,30.51,-1.00,-1.0,2379
3354,1223354,16980,-636,788,17010.17,30.37,-1.00,-1.0,2366
3359,1223359,17088,-600,892,17121.78,30.41,-1.00,-1.0,2452
3362,1223362,16996,-444,972,17029.56,30.37,-1.00,-1.0,2366
3365,1223365,17100,-716,856,17136.38,30.41,-1.00,-1.0,2428
3368,1223368,17008,-704,876,17045.09,30.41,-1.00,-1.0,2363
3370,1223370,17008,-640,900,17043.82,30.51,-1.00,-1.0,2428
3373,1223373,17044,-584,932,17079.45,30.46,-1.00,-1.0,2365
3376,1223376,16976,-532,936,17010.11,30.41,-1.00,-1.0,2428
3379,1223379,17008,-564,868,17039.47,30.41,-1.00,-1.0,2365
3383,1223383,16984,-616,800,17013.99,30.46,-1.00,-1.0,2440
3386,1223386,16956,-524,836,16984.68,30.55,-1.00,-1.0,2365
3389,1223389,17076,-568,956,17112.17,30.46,-1.00,-1.0,2427
3392,1223392,16984,-544,868,17014.87,30.46,-1.00,-1.0,2363
3394,1223394,17060,-504,968,17094.87,30.46,-1.00,-1.0,2365
3397,1223397,17072,-668,816,17104.54,30.41,-1.00,-1.0,2428
3400,1223400,17120,-556,936,17154.58,30.51,-1.00,-1.0,2363
3402,1223402,16940,-632,824,16971.80,30.41,-1.00,-1.0,2436
3405,1223405,17076,-688,912,17114.17,30.32,-1.00,-1.0,2365
3410,1223410,17024,-560,888,17056.34,30.46,-1.00,-1.0,2440
3413,1223413,17136,-696,788,17168.22,30.51,-1.00,-1.0,2375
3416,1223416,17064,-736,928,17105.06,30.51,-1.00,-1.0,2421
3418,1223418,17100,-520,868,17129.91,30.41,-1.00,-1.0,2369
3421,1223421,17124,-572,964,17160.65,30.41,-1.00,-1.0,2421
3424,1223424,16964,-572,860,16995.41,30.51,-1.00,-1.0,2374
3427,1223427,17000,-592,828,17030.45,30.41,-1.00,-1.0,2421
3429,1223429,16980,-652,964,17019.84,30.41,-1.00,-1.0,2369
3432,1223432,17128,-576,808,17156.72,30.46,-1.00,-1.0,2353
3437,1223437,17100,-596,844,17131.19,30.46,-1.00,-1.0,2447
3440,1223440,17028,-552,900,17060.70,30.41,-1.00,-1.0,2367
3442,1223442,17048,-572,776,17075.24,30.46,-1.00,-1.0,2430
3445,1223445,16960,-580,976,16997.96,30.37,-1.00,-1.0,2375
3448,1223448,17044,-448,864,17071.76,30.37,-1.00,-1.0,2415
3451,1223451,17080,-608,832,17111.06,30.51,-1.00,-1.0,2368
3453,1223453,17020,-620,896,17054.84,30.46,-1.00,-1.0,2431
3456,1223456,17056,-552,912,17089.28,30.37,-1.00,-1.0,2376
3461,1223461,17072,-604,832,17102.93,30.46,-1.00,-1.0,2440
3464,1223464,17056,-644,1020,17098.60,30.41,-1.00,-1.0,2371
3467,1223467,17040,-616,952,17077.69,30.46,-1.00,-1.0,2430
3469,1223469,17100,-604,872,17132.87,30.46,-1.00,-1.0,2370
3472,1223472,17132,-564,964,17168.37,30.37,-1.00,-1.0,2369
3475,1223475,16996,-712,952,17037.53,30.41,-1.00,-1.0,2421
3477,1223477,16936,-600,868,16968.84,30.37,-1.00,-1.0,2354
3480,1223480,17128,-640,872,17162.12,30.51,-1.00,-1.0,2421
3483,1223483,16948,-592,1052,16990.94,30.37,-1.00,-1.0,2373
3488,1223488,17044,-600,900,17078.29,30.46,-1.00,-1.0,2442
3491,1223491,17028,-644,1064,17073.36,30.46,-1.00,-1.0,2373
3494,1223494,16948,-568,852,16978.91,30.41,-1.00,-1.0,2422
3496,1223496,17084,-500,796,17109.84,30.46,-1.00,-1.0,2371
3499,1223499,17120,-692,864,17155.75,30.46,-1.00,-1.0,2421
3502,1223502,17088,-580,776,17115.44,30.46,-1.00,-1.0,2369
3505,1223505,17120,-656,748,17148.88,30.41,-1.00,-1.0,2421
3507,1223507,17044,-552,860,17074.61,30.37,-1.00,-1.0,2356
3510,1223510,17004,-648,916,17040.98,30.41,-1.00,-1.0,2366
3515,1223515,17028,-532,756,17053.07,30.46,-1.00,-1.0,2441
3518,1223518,17052,-600,1048,17094.71,30.46,-1.00,-1.0,2364
3521,1223521,17120,-592,984,17158.47,30.32,-1.00,-1.0,2420
3523,1223523,16932,-580,820,16961.76,30.41,-1.00,-1.0,2372
3526,1223526,17084,-584,876,17116.41,30.41,-1.00,-1.0,2421
3529,1223529,17016,-608,928,17052.13,30.51,-1.00,-1.0,2367
3532,1223532,17016,-656,948,17055.01,30.41,-1.00,-1.0,2420
3534,1223534,17036,-640,852,17069.29,30.41,-1.00,-1.0,2355
3539,1223539,17064,-632,996,17104.72,30.37,-1.00,-1.0,2456
3542,1223542,17004,-584,768,17031.35,30.46,-1.00,-1.0,2376
3545,1223545,17072,-568,872,17103.69,30.51,-1.00,-1.0,2434
3547,1223547,17140,-584,944,17175.91,30.37,-1.00,-1.0,2375
3550,1223550,17060,-608,972,17098.48,30.51,-1.00,-1.0,2364
3553,1223553,17020,-580,920,17054.71,30.37,-1.00,-1.0,2429
3556,1223556,17044,-572,924,17078.61,30.51,-1.00,-1.0,2367
3558,1223558,17096,-624,904,17131.25,30.46,-1.00,-1.0,2422
3561,1223561,17080,-636,840,17112.47,30.51,-1.00,-1.0,2367
3566,1223566,17040,-608,832,17071.13,30.46,-1.00,-1.0,2448
3569,1223569,17068,-576,928,17102.91,30.46,-1.00,-1.0,2367
3571,1223571,17060,-596,904,17094.33,30.55,-1.00,-1.0,2424
3574,1223574,17056,-620,904,17091.19,30.46,-1.00,-1.0,2368
3577,1223577,17088,-512,800,17114.38,30.46,-1.00,-1.0,2430
3580,1223580,17060,-556,852,17090.31,30.46,-1.00,-1.0,2354
3582,1223582,17012,-648,920,17049.18,30.46,-1.00,-1.0,2424
3585,1223585,17092,-648,944,17130.31,30.37,-1.00,-1.0,2369
3588,1223588,17072,-656,896,17108.08,30.41,-1.00,-1.0,2368
3592,1223592,16984,-632,932,17021.29,30.46,-1.00,-1.0,2440
3595,1223595,16952,-552,848,16982.17,30.37,-1.00,-1.0,2367
3598,1223598,17064,-576,912,17098.06,30.37,-1.00,-1.0,2424
3601,1223601,17116,-628,988,17155.99,30.37,-1.00,-1.0,2367
3603,1223603,17076,-588,860,17107.75,30.46,-1.00,-1.0,2422
3606,1223606,17000,-496,860,17028.96,30.37,-1.00,-1.0,2368
3609,1223609,17080,-528,816,17107.63,30.46,-1.00,-1.0,2423
3612,1223612,17036,-608,1056,17079.52,30.46,-1.00,-1.0,2367
3617,1223617,16976,-680,948,17016.04,30.55,-1.00,-1.0,2440
3619,1223619,17160,-588,980,17198.02,30.41,-1.00,-1.0,2367
3622,1223622,16924,-640,964,16963.51,30.46,-1.00,-1.0,2420
3625,1223625,17044,-464,928,17075.55,30.41,-1.00,-1.0,2367
3627,1223627,17076,-636,816,17107.31,30.46,-1.00,-1.0,2368
3630,1223630,17028,-588,1004,17067.71,30.41,-1.00,-1.0,2429
3633,1223633,16940,-568,796,16968.20,30.46,-1.00,-1.0,2376
3636,1223636,16988,-476,1052,17027.20,30.41,-1.00,-1.0,2425
3639,1223639,17000,-596,1084,17044.95,30.46,-1.00,-1.0,2372
3644,1223644,17048,-520,892,17079.24,30.55,-1.00,-1.0,2444
3646,1223646,16992,-572,844,17022.56,30.32,-1.00,-1.0,2355
3649,1223649,17004,-556,900,17036.88,30.46,-1.00,-1.0,2421
3652,1223652,17008,-576,900,17041.53,30.41,-1.00,-1.0,2368
3655,1223655,17044,-596,864,17076.29,30.46,-1.00,-1.0,2420
3657,1223657,17048,-680,996,17090.60,30.51,-1.00,-1.0,2356
3660,1223660,17076,-564,940,17111.15,30.55,-1.00,-1.0,2421
3663,1223663,17136,-576,860,17167.23,30.41,-1.00,-1.0,2366
3666,1223666,16984,-596,920,17019.34,30.46,-1.00,-1.0,2366
3671,1223671,17080,-532,688,17102.13,30.46,-1.00,-1.0,2442
3673,1223673,16988,-608,940,17024.85,30.37,-1.00,-1.0,2370
3676,1223676,17064,-632,972,17103.34,30.46,-1.00,-1.0,2407
3679,1223679,17116,-600,980,17154.53,30.46,-1.00,-1.0,2369
3682,1223682,17112,-572,924,17146.47,30.46,-1.00,-1.0,2420
3684,1223684,17080,-540,944,17114.59,30.37,-1.00,-1.0,2368
3687,1223687,17052,-612,948,17089.29,30.37,-1.00,-1.0,2420
3690,1223690,17120,-680,960,17160.37,30.46,-1.00,-1.0,2369
3695,1223695,16932,-620,952,16970.07,30.37,-1.00,-1.0,2445
3697,1223697,16992,-536,884,17023.42,30.41,-1.00,-1.0,2376
3700,1223700,17008,-616,1028,17050.17,30.46,-1.00,-1.0,2421
3703,1223703,16984,-648,816,17015.93,30.46,-1.00,-1.0,2368
3706,1223706,17052,-612,836,17083.45,30.37,-1.00,-1.0,2366
3708,1223708,16900,-580,984,16938.55,30.51,-1.00,-1.0,2421
3711,1223711,17036,-492,864,17064.99,30.46,-1.00,-1.0,2368
3714,1223714,16972,-624,792,17001.92,30.46,-1.00,-1.0,2428
3717,1223717,17000,-732,784,17033.80,30.32,-1.00,-1.0,2368
3722,1223722,16996,-612,976,17035.00,30.41,-1.00,-1.0,2440
3724,1223724,16988,-604,912,17023.18,30.46,-1.00,-1.0,2371
3727,1223727,16992,-668,828,17025.27,30.41,-1.00,-1.0,2421
3730,1223730,17056,-724,832,17091.62,30.46,-1.00,-1.0,2367
3733,1223733,17024,-700,768,17055.69,30.32,-1.00,-1.0,2422
3735,1223735,16960,-712,888,16998.15,30.41,-1.00,-1.0,2369
3738,1223738,17024,-696,876,17060.73,30.41,-1.00,-1.0,2421
3741,1223741,17092,-684,928,17130.83,30.46,-1.00,-1.0,2367
3744,1223744,17112,-600,764,17139.55,30.51,-1.00,-1.0,2366
3749,1223749,17036,-640,708,17062.71,30.41,-1.00,-1.0,2440
3751,1223751,17176,-680,788,17207.51,30.41,-1.00,-1.0,2371
3754,1223754,17008,-668,704,17035.67,30.51,-1.00,-1.0,2420
3757,1223757,17036,-764,932,17078.57,30.41,-1.00,-1.0,2375
3760,1223760,17052,-652,876,17086.93,30.41,-1.00,-1.0,2421
3762,1223762,17012,-644,868,17046.30,30.51,-1.00,-1.0,2368
3765,1223765,17052,-520,964,17087.14,30.41,-1.00,-1.0,2421
3768,1223768,17048,-616,996,17088.18,30.41,-1.00,-1.0,2377
3773,1223773,16980,-692,844,17015.04,30.46,-1.00,-1.0,2440
3775,1223775,17032,-688,948,17072.23,30.51,-1.00,-1.0,2370
3778,1223778,17080,-560,744,17105.37,30.46,-1.00,-1.0,2430
3781,1223781,17008,-632,868,17041.86,30.37,-1.00,-1.0,2376
3784,1223784,17076,-660,876,17111.19,30.41,-1.00,-1.0,2368
3786,1223786,17024,-624,920,17060.26,30.41,-1.00,-1.0,2421
3789,1223789,17060,-568,876,17091.92,30.41,-1.00,-1.0,2369
3792,1223792,17072,-716,936,17112.62,30.41,-1.00,-1.0,2429
3795,1223795,17128,-664,816,17160.28,30.46,-1.00,-1.0,2435
3800,1223800,17140,-520,928,17172.98,30.41,-1.00,-1.0,2443
3802,1223802,17116,-592,904,17150.08,30.46,-1.00,-1.0,2356
3805,1223805,17012,-784,1004,17059.62,30.41,-1.00,-1.0,2419
3808,1223808,17048,-648,876,17082.79,30.51,-1.00,-1.0,2431
3811,1223811,17000,-660,940,17038.76,30.55,-1.00,-1.0,2427
3813,1223813,16988,-644,892,17023.59,30.46,-1.00,-1.0,2381
3816,1223816,17000,-632,936,17037.47,30.41,-1.00,-1.0,2416
3819,1223819,17108,-576,876,17140.09,30.46,-1.00,-1.0,2376
3822,1223822,17004,-672,968,17044.78,30.37,-1.00,-1.0,2368
3827,1223827,17052,-696,860,17087.85,30.37,-1.00,-1.0,2446
3829,1223829,17036,-576,828,17065.83,30.46,-1.00,-1.0,2378
3832,1223832,17032,-696,868,17068.30,30.51,-1.00,-1.0,2420
3835,1223835,17056,-484,780,17080.69,30.46,-1.00,-1.0,2372
3838,1223838,17104,-632,960,17142.57,30.46,-1.00,-1.0,2423
3840,1223840,17088,-660,900,17124.41,30.37,-1.00,-1.0,2375
3843,1223843,17076,-580,824,17105.71,30.41,-1.00,-1.0,2421
3846,1223846,17016,-656,820,17048.37,30.46,-1.00,-1.0,2368
3851,1223851,16968,-660,924,17005.95,30.46,-1.00,-1.0,2446
3854,1223854,16964,-536,844,16993.44,30.37,-1.00,-1.0,2375
3857,1223857,16960,-592,996,16999.53,30.32,-1.00,-1.0,2428
3859,1223859,16984,-712,892,17022.30,30.46,-1.00,-1.0,2383
3862,1223862,17044,-612,936,17080.65,30.51,-1.00,-1.0,2366
3865,1223865,17156,-660,836,17189.03,30.46,-1.00,-1.0,2421
3867,1223867,17056,-648,908,17092.44,30.51,-1.00,-1.0,2368
3870,1223870,17084,-648,928,17121.45,30.46,-1.00,-1.0,2421
3873,1223873,17024,-672,856,17058.75,30.51,-1.00,-1.0,2367
3878,1223878,16980,-520,900,17011.78,30.51,-1.00,-1.0,2443
3881,1223881,17024,-476,948,17057.02,30.41,-1.00,-1.0,2368
3883,1223883,17092,-596,956,17129.09,30.37,-1.00,-1.0,2420
3886,1223886,16992,-712,876,17029.46,30.41,-1.00,-1.0,2369
3889,1223889,17000,-724,1004,17045.01,30.46,-1.00,-1.0,2427
3892,1223892,17096,-612,796,17125.46,30.51,-1.00,-1.0,2367
3894,1223894,17080,-580,1012,17119.78,30.46,-1.00,-1.0,2421
3897,1223897,16996,-556,1036,17036.62,30.51,-1.00,-1.0,2356
3900,1223900,17028,-612,800,17057.76,30.51,-1.00,-1.0,2366
3905,1223905,17068,-608,800,17097.55,30.41,-1.00,-1.0,2439
3907,1223907,17148,-508,844,17176.27,30.51,-1.00,-1.0,2370
3910,1223910,17116,-496,792,17141.49,30.37,-1.00,-1.0,2421
3913,1223913,16920,-464,872,16948.81,30.41,-1.00,-1.0,2373
3916,1223916,17016,-612,800,17045.79,30.37,-1.00,-1.0,2421
3918,1223918,17060,-620,1040,17102.91,30.51,-1.00,-1.0,2355
3921,1223921,17072,-636,792,17102.19,30.46,-1.00,-1.0,2421
3924,1223924,16956,-616,936,16992.98,30.41,-1.00,-1.0,2372
3929,1223929,17036,-576,816,17065.26,30.41,-1.00,-1.0,2455
3932,1223932,17180,-472,856,17207.79,30.41,-1.00,-1.0,2377
3935,1223935,16960,-576,988,16998.52,30.41,-1.00,-1.0,2429
3937,1223937,16992,-624,952,17030.08,30.41,-1.00,-1.0,2377
3940,1223940,16960,-576,868,16991.96,30.46,-1.00,-1.0,2364
3943,1223943,17096,-516,1000,17132.99,30.46,-1.00,-1.0,2428
3946,1223946,17004,-520,948,17038.34,30.46,-1.00,-1.0,2367
3948,1223948,17076,-556,996,17114.06,30.46,-1.00,-1.0,2421
3951,1223951,16964,-672,804,16996.33,30.55,-1.00,-1.0,2369
3956,1223956,17104,-644,832,17136.33,30.37,-1.00,-1.0,2439
3959,1223959,16988,-592,872,17020.66,30.51,-1.00,-1.0,2367
3962,1223962,17084,-420,924,17114.12,30.37,-1.00,-1.0,2421
3964,1223964,17072,-524,996,17109.05,30.46,-1.00,-1.0,2370
3967,1223967,17004,-676,876,17039.96,30.37,-1.00,-1.0,2421
3970,1223970,17028,-600,960,17065.59,30.51,-1.00,-1.0,2368
3973,1223973,17012,-652,876,17047.01,30.55,-1.00,-1.0,2421
3975,1223975,17132,-616,880,17165.64,30.46,-1.00,-1.0,2369
3978,1223978,16988,-600,980,17026.82,30.51,-1.00,-1.0,2373
3983,1223983,16968,-584,988,17006.77,30.41,-1.00,-1.0,2439
3985,1223985,17132,-600,788,17160.61,30.32,-1.00,-1.0,2372
3988,1223988,17024,-708,912,17063.11,30.51,-1.00,-1.0,2430
3991,1223991,17072,-580,1020,17112.28,30.51,-1.00,-1.0,2376
3994,1223994,17012,-568,984,17049.90,30.37,-1.00,-1.0,2434
3996,1223996,16960,-604,880,16993.55,30.41,-1.00,-1.0,2381
3999,1223999,17036,-508,868,17065.66,30.46,-1.00,-1.0,2421
4002,1224002,16868,-484,920,16900.00,30.41,-1.00,-1.0,2369
4007,1224007,17060,-556,1024,17099.75,30.55,-1.00,-1.0,2440
4009,1224009,16992,-544,980,17028.93,30.41,-1.00,-1.0,2368
4012,1224012,16948,-540,1004,16986.30,30.41,-1.00,-1.0,2420
4015,1224015,16992,-552,956,17027.82,30.41,-1.00,-1.0,2381
4017,1224017,17060,-532,840,17088.95,30.46,-1.00,-1.0,2373
4020,1224020,16972,-540,856,17002.15,30.46,-1.00,-1.0,2420
4023,1224023,16996,-592,912,17030.74,30.46,-1.00,-1.0,2358
4026,1224026,16964,-528,1044,17004.29,30.46,-1.00,-1.0,2424
4029,1224029,17060,-600,792,17088.91,30.32,-1.00,-1.0,2373
4034,1224034,16984,-592,920,17019.20,30.41,-1.00,-1.0,2427
4037,1224037,17052,-624,876,17085.88,30.46,-1.00,-1.0,2358
4039,1224039,17076,-600,1020,17116.96,30.32,-1.00,-1.0,2422
4042,1224042,17060,-684,936,17099.34,30.41,-1.00,-1.0,2370
4045,1224045,17064,-668,864,17098.91,30.51,-1.00,-1.0,2428
4048,1224048,17076,-832,952,17122.74,30.55,-1.00,-1.0,2369
4050,1224050,17152,-684,944,17191.57,30.51,-1.00,-1.0,2424
4053,1224053,17020,-704,852,17055.85,30.41,-1.00,-1.0,2368
4058,1224058,17052,-604,836,17083.16,30.51,-1.00,-1.0,2438
4061,1224061,16892,-692,920,16931.18,30.37,-1.00,-1.0,2367
4063,1224063,17112,-620,844,17144.02,30.41,-1.00,-1.0,2366
4066,1224066,17076,-660,888,17111.81,30.46,-1.00,-1.0,2436
4069,1224069,16992,-624,784,17021.52,30.51,-1.00,-1.0,2377
4072,1224072,17028,-628,916,17064.18,30.37,-1.00,-1.0,2433
4074,1224074,16988,-616,848,17020.30,30.37,-1.00,-1.0,2370
4077,1224077,17092,-660,848,17125.75,30.46,-1.00,-1.0,2430
4080,1224080,17076,-644,880,17110.78,30.46,-1.00,-1.0,2368
4085,1224085,17052,-596,908,17086.55,30.46,-1.00,-1.0,2447
4088,1224088,16980,-612,812,17010.42,30.46,-1.00,-1.0,2371
4090,1224090,16956,-612,808,16986.27,30.55,-1.00,-1.0,2428
4093,1224093,17000,-668,824,17033.06,30.46,-1.00,-1.0,2384
4096,1224096,17052,-636,756,17080.60,30.51,-1.00,-1.0,2366
4099,1224099,17060,-616,924,17096.11,30.51,-1.00,-1.0,2421
4101,1224101,16996,-628,1020,17038.16,30.41,-1.00,-1.0,2369
4104,1224104,17084,-640,824,17115.83,30.41,-1.00,-1.0,2421
4107,1224107,17012,-624,852,17044.75,30.46,-1.00,-1.0,2371
4112,1224112,17028,-644,784,17058.20,30.46,-1.00,-1.0,2442
4115,1224115,17008,-724,936,17049.12,30.37,-1.00,-1.0,2380
4118,1224118,16984,-704,880,17021.35,30.46,-1.00,-1.0,2424
4120,1224120,17068,-636,820,17099.52,30.37,-1.00,-1.0,2372
4123,1224123,17088,-584,788,17116.12,30.51,-1.00,-1.0,2420
4126,1224126,17016,-640,780,17045.89,30.41,-1.00,-1.0,2429
4129,1224129,17072,-668,844,17105.90,30.46,-1.00,-1.0,2424
4131,1224131,17068,-612,844,17099.81,30.46,-1.00,-1.0,2386
4134,1224134,17080,-656,844,17113.42,30.41,-1.00,-1.0,2365
4139,1224139,16940,-672,924,16978.48,30.51,-1.00,-1.0,2437
4142,1224142,16984,-692,772,17015.61,30.51,-1.00,-1.0,2370
4145,1224145,17144,-572,852,17174.69,30.41,-1.00,-1.0,2419
4147,1224147,17012,-616,1012,17053.20,30.41,-1.00,-1.0,2372
4150,1224150,17052,-632,856,17085.16,30.41,-1.00,-1.0,2419
4153,1224153,17124,-560,932,17158.48,30.41,-1.00,-1.0,2369
4156,1224156,17088,-508,1008,17125.24,30.51,-1.00,-1.0,2419
4158,1224158,17084,-532,852,17113.50,30.41,-1.00,-1.0,2372
4163,1224163,17072,-628,920,17108.30,30.41,-1.00,-1.0,2438
4166,1224166,16976,-624,884,17010.45,30.41,-1.00,-1.0,2371
4169,1224169,17112,-632,1060,17156.44,30.51,-1.00,-1.0,2419
4171,1224171,17068,-784,820,17105.66,30.37,-1.00,-1.0,2358
4174,1224174,17040,-612,900,17074.72,30.51,-1.00,-1.0,2419
4177,1224177,16948,-588,872,16980.60,30.51,-1.00,-1.0,2374
4180,1224180,17048,-628,772,17077.02,30.55,-1.00,-1.0,2367
4182,1224182,17088,-688,980,17129.90,30.46,-1.00,-1.0,2424
4185,1224185,17036,-580,872,17068.16,30.46,-1.00,-1.0,2370
4191,1224191,17048,-608,928,17084.06,30.46,-1.00,-1.0,2437
4193,1224193,17004,-608,880,17037.61,30.46,-1.00,-1.0,2370
4196,1224196,17100,-588,832,17130.32,30.41,-1.00,-1.0,2431
4199,1224199,16964,-608,964,17002.24,30.46,-1.00,-1.0,2379
4202,1224202,17044,-504,808,17070.58,30.51,-1.00,-1.0,2433
4204,1224204,17076,-668,944,17115.11,30.46,-1.00,-1.0,2381
4207,1224207,17036,-664,880,17071.63,30.41,-1.00,-1.0,2419
4210,1224210,17024,-588,948,17060.51,30.41,-1.00,-1.0,2377
4215,1224215,16944,-580,996,16983.15,30.46,-1.00,-1.0,2436
4217,1224217,17072,-632,956,17110.42,30.55,-1.00,-1.0,2372
4220,1224220,17004,-544,880,17035.44,30.51,-1.00,-1.0,2351
4223,1224223,17052,-560,896,17084.71,30.41,-1.00,-1.0,2418
4225,1224225,17032,-516,928,17065.07,30.41,-1.00,-1.0,2378
4228,1224228,17144,-512,860,17173.19,30.46,-1.00,-1.0,2418
4231,1224231,17040,-660,888,17075.88,30.41,-1.00,-1.0,2372
4234,1224234,17060,-608,752,17087.39,30.55,-1.00,-1.0,2418
4236,1224236,17016,-596,980,17054.62,30.41,-1.00,-1.0,2377
4241,1224241,17056,-592,868,17088.33,30.41,-1.00,-1.0,2444
4244,1224244,17008,-632,856,17041.25,30.41,-1.00,-1.0,2377
4247,1224247,16956,-600,1036,16998.21,30.37,-1.00,-1.0,2418
4250,1224250,16936,-604,884,16969.81,30.51,-1.00,-1.0,2371
4253,1224253,17052,-564,844,17082.19,30.46,-1.00,-1.0,2418
4255,1224255,17044,-536,868,17074.50,30.51,-1.00,-1.0,2358
4258,1224258,17080,-612,844,17111.79,30.46,-1.00,-1.0,2366
4261,1224261,17140,-620,940,17176.95,30.37,-1.00,-1.0,2419
4263,1224263,17000,-652,928,17037.79,30.37,-1.00,-1.0,2371
4268,1224268,17124,-560,992,17161.85,30.46,-1.00,-1.0,2423
4271,1224271,17092,-664,804,17123.78,30.37,-1.00,-1.0,2371
4274,1224274,17104,-488,920,17135.68,30.46,-1.00,-1.0,2425
4277,1224277,17032,-604,820,17062.42,30.46,-1.00,-1.0,2371
4279,1224279,17092,-592,864,17124.06,30.46,-1.00,-1.0,2419
4282,1224282,17008,-652,992,17049.38,30.46,-1.00,-1.0,2358
4285,1224285,16952,-640,860,16985.86,30.46,-1.00,-1.0,2424
4288,1224288,17064,-660,920,17101.52,30.55,-1.00,-1.0,2370
4290,1224290,16992,-672,860,17027.02,30.51,-1.00,-1.0,2379
4295,1224295,17040,-640,816,17071.53,30.41,-1.00,-1.0,2436
4298,1224298,17100,-704,860,17136.08,30.51,-1.00,-1.0,2366
4301,1224301,17040,-596,1088,17085.10,30.51,-1.00,-1.0,2431
4303,1224303,16988,-696,684,17016.00,30.41,-1.00,-1.0,2381
4306,1224306,17148,-640,812,17179.14,30.41,-1.00,-1.0,2412
4309,1224309,16976,-760,844,17013.95,30.41,-1.00,-1.0,2378
4312,1224312,17064,-512,880,17094.35,30.46,-1.00,-1.0,2432
4314,1224314,16964,-536,876,16995.06,30.51,-1.00,-1.0,2381
4319,1224319,17096,-600,796,17125.04,30.51,-1.00,-1.0,2447
4322,1224322,17036,-580,928,17071.11,30.41,-1.00,-1.0,2377
4325,1224325,16996,-608,1040,17038.64,30.46,-1.00,-1.0,2407
4328,1224328,16992,-544,948,17027.12,30.41,-1.00,-1.0,2371
4330,1224330,17008,-704,980,17050.75,30.46,-1.00,-1.0,2426
4333,1224333,17044,-560,932,17078.65,30.51,-1.00,-1.0,2377
4336,1224336,17008,-592,868,17040.42,30.37,-1.00,-1.0,2366
4339,1224339,17116,-668,816,17148.46,30.51,-1.00,-1.0,2418
4341,1224341,17072,-712,936,17112.46,30.46,-1.00,-1.0,2371
4346,1224346,17068,-640,896,17103.48,30.46,-1.00,-1.0,2436
4349,1224349,17056,-560,736,17081.05,30.55,-1.00,-1.0,2358
4352,1224352,17136,-512,852,17164.80,30.46,-1.00,-1.0,2418
4354,1224354,17012,-604,960,17049.77,30.46,-1.00,-1.0,2378
4357,1224357,17056,-592,860,17087.93,30.55,-1.00,-1.0,2418
4360,1224360,17000,-676,780,17031.31,30.46,-1.00,-1.0,2373
4363,1224363,17064,-628,932,17100.97,30.46,-1.00,-1.0,2418
4365,1224365,16992,-620,804,17022.30,30.37,-1.00,-1.0,2372
4368,1224368,17048,-504,784,17073.46,30.46,-1.00,-1.0,2365
4373,1224373,16980,-576,824,17009.74,30.46,-1.00,-1.0,2447
4376,1224376,16932,-656,852,16966.11,30.41,-1.00,-1.0,2378
4379,1224379,17036,-684,832,17070.01,30.46,-1.00,-1.0,2408
4382,1224382,17120,-616,868,17153.05,30.51,-1.00,-1.0,2371
4384,1224384,17044,-528,820,17071.88,30.46,-1.00,-1.0,2426
4387,1224387,17060,-492,888,17090.18,30.46,-1.00,-1.0,2377
4390,1224390,17000,-628,864,17033.52,30.46,-1.00,-1.0,2421
4393,1224393,16908,-536,948,16943.04,30.46,-1.00,-1.0,2373
4397,1224397,17032,-588,932,17067.61,30.37,-1.00,-1.0,2445
4400,1224400,17048,-484,1056,17087.53,30.37,-1.00,-1.0,2377
4403,1224403,17016,-572,860,17047.32,30.51,-1.00,-1.0,2418
4406,1224406,17124,-616,768,17152.28,30.37,-1.00,-1.0,2369
4408,1224408,17108,-592,916,17142.73,30.51,-1.00,-1.0,2364
4411,1224411,17012,-664,748,17041.38,30.41,-1.00,-1.0,2419
4414,1224414,17060,-548,808,17087.91,30.41,-1.00,-1.0,2370
4417,1224417,17028,-580,896,17061.42,30.41,-1.00,-1.0,2418
4419,1224419,17052,-620,920,17088.05,30.41,-1.00,-1.0,2371
4424,1224424,17072,-576,996,17110.73,30.46,-1.00,-1.0,2439
4427,1224427,17088,-592,896,17121.71,30.46,-1.00,-1.0,2376
4430,1224430,16980,-588,828,17010.34,30.51,-1.00,-1.0,2419
4432,1224432,17016,-704,944,17056.70,30.37,-1.00,-1.0,2361
4435,1224435,17000,-572,836,17030.15,30.41,-1.00,-1.0,2421
4438,1224438,17080,-592,1000,17119.49,30.37,-1.00,-1.0,2368
4441,1224441,17088,-576,904,17121.59,30.41,-1.00,-1.0,2420
4443,1224443,17048,-580,892,17081.17,30.41,-1.00,-1.0,2371
4446,1224446,17024,-628,836,17056.08,30.41,-1.00,-1.0,2366
4451,1224451,17020,-684,780,17051.59,30.51,-1.00,-1.0,2436
4454,1224454,17072,-548,1024,17111.46,30.51,-1.00,-1.0,2372
4457,1224457,17160,-612,832,17191.05,30.51,-1.00,-1.0,2425
4460,1224460,16964,-544,912,16997.21,30.51,-1.00,-1.0,2370
4462,1224462,17020,-556,972,17056.80,30.46,-1.00,-1.0,2419
4465,1224465,17020,-556,812,17048.43,30.51,-1.00,-1.0,2375
4468,1224468,17068,-568,800,17096.18,30.46,-1.00,-1.0,2426
4471,1224471,17020,-476,728,17042.21,30.51,-1.00,-1.0,2369
4476,1224476,17112,-640,1096,17159.00,30.51,-1.00,-1.0,2438
4478,1224478,17112,-596,816,17141.81,30.46,-1.00,-1.0,2369
4481,1224481,17072,-676,844,17106.21,30.51,-1.00,-1.0,2418
4484,1224484,17088,-560,912,17121.48,30.51,-1.00,-1.0,2371
4487,1224487,16992,-588,852,17023.50,30.41,-1.00,-1.0,2418
4489,1224489,17100,-564,1012,17139.20,30.41,-1.00,-1.0,2372
4492,1224492,17116,-600,792,17144.82,30.46,-1.00,-1.0,2368
4495,1224495,17020,-652,968,17059.97,30.46,-1.00,-1.0,2418
4497,1224497,16988,-668,956,17027.99,30.46,-1.00,-1.0,2374
4502,1224502,16924,-688,1016,16968.42,30.46,-1.00,-1.0,2437
4505,1224505,17076,-656,936,17114.21,30.46,-1.00,-1.0,2369
4508,1224508,17100,-660,1068,17146.03,30.46,-1.00,-1.0,2429
4511,1224511,17080,-660,1008,17122.44,30.46,-1.00,-1.0,2357
4513,1224513,17080,-600,892,17113.80,30.46,-1.00,-1.0,2421
4516,1224516,17076,-596,912,17110.72,30.55,-1.00,-1.0,2375
4519,1224519,17040,-620,836,17071.76,30.46,-1.00,-1.0,2425
4522,1224522,16996,-576,876,17028.30,30.46,-1.00,-1.0,2371
4527,1224527,17048,-588,940,17084.02,30.46,-1.00,-1.0,2436
4529,1224529,17144,-540,948,17178.68,30.51,-1.00,-1.0,2369
4532,1224532,17116,-664,836,17149.26,30.46,-1.00,-1.0,2375
4535,1224535,17056,-592,900,17089.99,30.51,-1.00,-1.0,2431
4537,1224537,17080,-508,856,17108.98,30.32,-1.00,-1.0,2382
4540,1224540,17104,-592,868,17136.24,30.41,-1.00,-1.0,2418
4543,1224543,17036,-516,796,17062.39,30.41,-1.00,-1.0,2375
4546,1224546,17024,-536,712,17047.31,30.41,-1.00,-1.0,2426
4548,1224548,17084,-692,816,17117.47,30.51,-1.00,-1.0,2380
4553,1224553,16980,-660,900,17016.64,30.41,-1.00,-1.0,2451
4556,1224556,17076,-568,1016,17115.63,30.46,-1.00,-1.0,2373
4559,1224559,17012,-568,788,17039.71,30.51,-1.00,-1.0,2407
4562,1224562,17044,-616,932,17080.57,30.51,-1.00,-1.0,2367
4564,1224564,17096,-600,756,17123.22,30.41,-1.00,-1.0,2428
4567,1224567,17028,-668,896,17064.64,30.46,-1.00,-1.0,2375
4570,1224570,17008,-636,712,17034.77,30.46,-1.00,-1.0,2366
4573,1224573,17048,-604,876,17081.17,30.46,-1.00,-1.0,2418
4575,1224575,17100,-548,1008,17138.45,30.41,-1.00,-1.0,2379
4580,1224580,17048,-644,1016,17090.39,30.41,-1.00,-1.0,2444
4583,1224583,17188,-588,868,17219.95,30.41,-1.00,-1.0,2377
4586,1224586,17132,-644,872,17166.26,30.51,-1.00,-1.0,2418
4589,1224589,17072,-668,952,17111.57,30.41,-1.00,-1.0,2377
4592,1224592,17092,-656,900,17128.25,30.37,-1.00,-1.0,2421
4594,1224594,17048,-588,876,17080.62,30.41,-1.00,-1.0,2387
4597,1224597,17024,-468,796,17049.02,30.46,-1.00,-1.0,2419
4600,1224600,17064,-572,864,17095.43,30.41,-1.00,-1.0,2373
4605,1224605,17100,-588,872,17132.31,30.46,-1.00,-1.0,2437
4607,1224607,17008,-612,876,17041.54,30.46,-1.00,-1.0,2371
4610,1224610,16996,-588,916,17030.82,30.46,-1.00,-1.0,2372
4613,1224613,17064,-588,792,17092.49,30.41,-1.00,-1.0,2418
4615,1224615,17068,-532,852,17097.53,30.41,-1.00,-1.0,2374
4618,1224618,17100,-620,928,17136.38,30.51,-1.00,-1.0,2432
4621,1224621,16976,-632,1000,17017.17,30.41,-1.00,-1.0,2368
4624,1224624,17068,-484,908,17098.99,30.41,-1.00,-1.0,2423
4627,1224627,16940,-648,984,16980.92,30.37,-1.00,-1.0,2371
4631,1224631,17024,-624,964,17062.69,30.51,-1.00,-1.0,2452
4634,1224634,17184,-536,876,17214.66,30.41,-1.00,-1.0,2377
4637,1224637,17044,-616,896,17078.65,30.37,-1.00,-1.0,2428
4639,1224639,17060,-620,940,17097.12,30.51,-1.00,-1.0,2377
4642,1224642,17024,-692,896,17061.60,30.46,-1.00,-1.0,2418
4645,1224645,16992,-640,932,17029.57,30.46,-1.00,-1.0,2374
4648,1224648,17000,-640,900,17035.83,30.46,-1.00,-1.0,2366
4651,1224651,17064,-700,956,17105.09,30.51,-1.00,-1.0,2418
4654,1224654,17024,-600,948,17060.93,30.46,-1.00,-1.0,2371
4659,1224659,16964,-656,800,16995.52,30.46,-1.00,-1.0,2437
4661,1224661,17004,-648,860,17038.06,30.37,-1.00,-1.0,2370
4664,1224664,17096,-564,1052,17137.62,30.46,-1.00,-1.0,2418
4667,1224667,17108,-668,940,17146.82,30.37,-1.00,-1.0,2371
4670,1224670,17000,-540,956,17035.42,30.51,-1.00,-1.0,2418
4672,1224672,17024,-716,896,17062.59,30.46,-1.00,-1.0,2371
4675,1224675,16968,-568,980,17005.77,30.37,-1.00,-1.0,2418
4678,1224678,17096,-756,908,17136.78,30.46,-1.00,-1.0,2370
4683,1224683,16984,-580,884,17016.88,30.46,-1.00,-1.0,2439
4685,1224685,17008,-600,720,17033.80,30.55,-1.00,-1.0,2378
4688,1224688,17080,-580,888,17112.90,30.37,-1.00,-1.0,2365
4691,1224691,17064,-524,820,17091.72,30.41,-1.00,-1.0,2425
4694,1224694,17124,-644,900,17159.72,30.41,-1.00,-1.0,2371
4696,1224696,16956,-584,848,16987.23,30.46,-1.00,-1.0,2423
4699,1224699,17064,-612,748,17091.35,30.41,-1.00,-1.0,2371
4702,1224702,16964,-492,836,16991.71,30.46,-1.00,-1.0,2425
4705,1224705,17080,-552,1008,17118.62,30.41,-1.00,-1.0,2371
4710,1224710,17020,-524,940,17053.99,30.51,-1.00,-1.0,2437
4712,1224712,17104,-644,816,17135.56,30.51,-1.00,-1.0,2370
4715,1224715,17056,-604,1036,17098.11,30.41,-1.00,-1.0,2418
4718,1224718,16972,-584,928,17007.38,30.51,-1.00,-1.0,2373
4721,1224721,17116,-516,984,17152.03,30.41,-1.00,-1.0,2418
4723,1224723,17000,-572,980,17037.83,30.51,-1.00,-1.0,2371
4726,1224726,16924,-636,892,16959.42,30.37,-1.00,-1.0,2369
4729,1224729,17000,-468,992,17035.35,30.46,-1.00,-1.0,2431
4732,1224732,17168,-584,1040,17209.38,30.41,-1.00,-1.0,2369
4737,1224737,17064,-568,944,17099.53,30.41,-1.00,-1.0,2436
4739,1224739,17024,-632,800,17054.50,30.41,-1.00,-1.0,2367
4742,1224742,17028,-536,868,17058.53,30.37,-1.00,-1.0,2418
4745,1224745,17068,-632,928,17104.89,30.41,-1.00,-1.0,2380
4748,1224748,17148,-648,880,17182.79,30.46,-1.00,-1.0,2418
4750,1224750,17112,-656,860,17146.15,30.41,-1.00,-1.0,2371
4753,1224753,17028,-604,828,17058.82,30.37,-1.00,-1.0,2419
4756,1224756,17048,-616,1092,17094.04,30.51,-1.00,-1.0,2377
4761,1224761,17148,-532,892,17179.42,30.41,-1.00,-1.0,2443
4764,1224764,17056,-456,948,17088.41,30.41,-1.00,-1.0,2370
4766,1224766,17044,-556,788,17071.26,30.55,-1.00,-1.0,2373
4769,1224769,16984,-636,844,17016.85,30.46,-1.00,-1.0,2407
4772,1224772,17100,-700,936,17139.90,30.37,-1.00,-1.0,2370
4774,1224774,17060,-604,896,17094.19,30.41,-1.00,-1.0,2428
4777,1224777,17028,-708,816,17062.24,30.46,-1.00,-1.0,2379
4780,1224780,17056,-508,956,17090.32,30.46,-1.00,-1.0,2422
4783,1224783,17064,-592,1004,17103.76,30.46,-1.00,-1.0,2374
4788,1224788,16968,-576,928,17003.12,30.46,-1.00,-1.0,2443
4791,1224791,17096,-632,796,17126.19,30.41,-1.00,-1.0,2370
4793,1224793,17124,-604,940,17160.41,30.37,-1.00,-1.0,2420
4796,1224796,17040,-700,812,17073.69,30.46,-1.00,-1.0,2372
4799,1224799,16952,-656,928,16990.05,30.37,-1.00,-1.0,2425
4802,1224802,17032,-528,880,17062.89,30.37,-1.00,-1.0,2371
4804,1224804,16992,-640,908,17028.27,30.41,-1.00,-1.0,2374
4807,1224807,17044,-620,912,17079.64,30.51,-1.00,-1.0,2419
4810,1224810,17060,-568,888,17092.54,30.51,-1.00,-1.0,2369
4815,1224815,17100,-588,884,17132.93,30.41,-1.00,-1.0,2441
4817,1224817,17060,-596,836,17090.87,30.41,-1.00,-1.0,2370
4820,1224820,16916,-684,888,16953.10,30.46,-1.00,-1.0,2418
4823,1224823,17016,-500,688,17037.24,30.51,-1.00,-1.0,2374
4826,1224826,16972,-624,888,17006.67,30.46,-1.00,-1.0,2418
4828,1224828,17020,-584,936,17055.72,30.41,-1.00,-1.0,2371
4831,1224831,17088,-524,940,17121.86,30.46,-1.00,-1.0,2418
4834,1224834,17012,-616,888,17046.29,30.51,-1.00,-1.0,2369
4838,1224838,17048,-640,844,17080.87,30.41,-1.00,-1.0,2449
4841,1224841,17076,-544,868,17106.70,30.37,-1.00,-1.0,2376
4844,1224844,17044,-608,888,17077.94,30.51,-1.00,-1.0,2370
4847,1224847,16988,-604,940,17024.71,30.46,-1.00,-1.0,2405
4849,1224849,16908,-544,852,16938.19,30.51,-1.00,-1.0,2372
4852,1224852,16948,-608,856,16980.49,30.46,-1.00,-1.0,2418
4855,1224855,17004,-496,756,17028.02,30.41,-1.00,-1.0,2370
4858,1224858,16956,-560,920,16990.17,30.46,-1.00,-1.0,2418
4861,1224861,17044,-644,800,17074.91,30.41,-1.00,-1.0,2370
4866,1224866,17092,-640,876,17126.40,30.41,-1.00,-1.0,2440
4868,1224868,17088,-652,904,17124.31,30.41,-1.00,-1.0,2384
4871,1224871,16936,-568,832,16965.94,30.46,-1.00,-1.0,2417
4874,1224874,17068,-672,944,17107.29,30.41,-1.00,-1.0,2373
4877,1224877,16956,-604,700,16981.19,30.46,-1.00,-1.0,2419
4879,1224879,17108,-660,1008,17150.37,30.41,-1.00,-1.0,2378
4882,1224882,17072,-652,748,17100.81,30.46,-1.00,-1.0,2365
4885,1224885,17032,-596,824,17062.33,30.46,-1.00,-1.0,2426
4888,1224888,16944,-652,904,16980.62,30.37,-1.00,-1.0,2369
4893,1224893,17028,-612,828,17059.10,30.41,-1.00,-1.0,2439
4895,1224895,17004,-668,820,17036.86,30.41,-1.00,-1.0,2381
4898,1224898,17076,-648,900,17111.97,30.46,-1.00,-1.0,2418
4901,1224901,17148,-572,900,17181.12,30.46,-1.00,-1.0,2373
4904,1224904,17064,-552,948,17099.22,30.41,-1.00,-1.0,2465
4907,1224907,17064,-544,936,17098.31,30.51,-1.00,-1.0,2368
4910,1224910,16956,-628,860,16989.41,30.46,-1.00,-1.0,2429
4912,1224912,17124,-588,956,17160.74,30.41,-1.00,-1.0,2384
4917,1224917,17028,-664,844,17061.83,30.41,-1.00,-1.0,2442
4920,1224920,16976,-696,872,17012.62,30.37,-1.00,-1.0,2364
4922,1224922,17068,-632,792,17098.05,30.37,-1.00,-1.0,2373
4925,1224925,17044,-576,820,17073.43,30.46,-1.00,-1.0,2422
4928,1224928,17048,-520,992,17084.75,30.46,-1.00,-1.0,2371
4931,1224931,16984,-608,888,17018.06,30.46,-1.00,-1.0,2421
4933,1224933,17088,-668,900,17124.72,30.37,-1.00,-1.0,2376
4936,1224936,17156,-660,768,17185.86,30.37,-1.00,-1.0,2422
4939,1224939,17060,-572,800,17088.32,30.46,-1.00,-1.0,2369
4944,1224944,17020,-592,980,17058.47,30.46,-1.00,-1.0,2443
4947,1224947,17040,-596,888,17073.53,30.51,-1.00,-1.0,2372
4949,1224949,17076,-636,876,17110.28,30.46,-1.00,-1.0,2424
4952,1224952,17056,-532,816,17083.79,30.41,-1.00,-1.0,2384
4955,1224955,17104,-628,856,17136.92,30.46,-1.00,-1.0,2423
4958,1224958,17088,-628,984,17127.82,30.41,-1.00,-1.0,2372
4960,1224960,17112,-496,776,17136.77,30.46,-1.00,-1.0,2367
4963,1224963,17044,-496,840,17071.89,30.51,-1.00,-1.0,2420
4966,1224966,17052,-656,800,17083.36,30.37,-1.00,-1.0,2375
4971,1224971,17072,-560,828,17101.24,30.46,-1.00,-1.0,2447
4974,1224974,17016,-656,928,17053.91,30.37,-1.00,-1.0,2368
4976,1224976,17008,-592,976,17046.26,30.41,-1.00,-1.0,2424
4979,1224979,17116,-636,872,17150.00,30.46,-1.00,-1.0,2369
4982,1224982,17036,-616,876,17069.62,30.41,-1.00,-1.0,2430
4985,1224985,16952,-676,868,16987.66,30.46,-1.00,-1.0,2434
4988,1224988,16972,-624,860,17005.23,30.41,-1.00,-1.0,2414
4990,1224990,16984,-708,952,17025.39,30.46,-1.00,-1.0,2377
4995,1224995,17096,-600,964,17133.67,30.37,-1.00,-1.0,2437
4998,1224998,17056,-508,724,17078.92,30.46,-1.00,-1.0,2369
5001,1225001,16984,-644,908,17020.44,30.41,-1.00,-1.0,2365
5003,1225003,17020,-580,764,17047.01,30.51,-1.00,-1.0,2421
5006,1225006,17036,-640,844,17068.90,30.41,-1.00,-1.0,2372
5009,1225009,17000,-612,896,17034.59,30.46,-1.00,-1.0,2426
5012,1225012,17112,-616,824,17142.90,30.41,-1.00,-1.0,2371
5014,1225014,16964,-568,772,16991.05,30.37,-1.00,-1.0,2425
5017,1225017,17076,-636,876,17110.28,30.51,-1.00,-1.0,2371
5023,1225023,17088,-636,836,17120.26,30.37,-1.00,-1.0,2451
5025,1225025,17052,-624,800,17082.16,30.46,-1.00,-1.0,2379
5028,1225028,17020,-632,848,17052.83,30.51,-1.00,-1.0,2419
5031,1225031,17052,-524,852,17081.31,30.37,-1.00,-1.0,2374
5034,1225034,17020,-556,948,17055.45,30.46,-1.00,-1.0,2419
5036,1225036,16984,-624,940,17021.43,30.46,-1.00,-1.0,2373
5039,1225039,17008,-620,924,17044.36,30.41,-1.00,-1.0,2365
5042,1225042,17064,-620,856,17096.70,30.46,-1.00,-1.0,2426
5045,1225045,17040,-620,1040,17082.96,30.41,-1.00,-1.0,2370
5049,1225049,17028,-608,908,17063.03,30.41,-1.00,-1.0,2424
5052,1225052,16992,-568,892,17024.88,30.41,-1.00,-1.0,2373
5055,1225055,17056,-632,992,17096.51,30.46,-1.00,-1.0,2464
5058,1225058,17028,-656,960,17067.65,30.55,-1.00,-1.0,2378
5061,1225061,17028,-564,912,17061.73,30.51,-1.00,-1.0,2423
5063,1225063,17024,-580,948,17060.24,30.46,-1.00,-1.0,2355
5066,1225066,17028,-612,808,17058.14,30.51,-1.00,-1.0,2422
5069,1225069,17020,-676,744,17049.66,30.46,-1.00,-1.0,2368
5074,1225074,17044,-640,808,17075.14,30.46,-1.00,-1.0,2436
5076,1225076,17088,-680,920,17126.25,30.46,-1.00,-1.0,2371
5079,1225079,17072,-636,768,17101.10,30.41,-1.00,-1.0,2366
5082,1225082,17096,-520,784,17121.87,30.51,-1.00,-1.0,2437
5085,1225085,17060,-604,872,17092.95,30.41,-1.00,-1.0,2366
5087,1225087,17116,-572,824,17145.37,30.41,-1.00,-1.0,2421
5090,1225090,17092,-540,952,17127.01,30.41,-1.00,-1.0,2356
5093,1225093,17156,-568,768,17182.57,30.41,-1.00,-1.0,2421
5096,1225096,17024,-536,820,17052.16,30.41,-1.00,-1.0,2367
5101,1225101,17104,-660,784,17134.67,30.41,-1.00,-1.0,2433
5103,1225103,16952,-596,884,16985.49,30.41,-1.00,-1.0,2375
5106,1225106,17116,-556,924,17149.94,30.51,-1.00,-1.0,2429
5109,1225109,17068,-612,888,17102.04,30.46,-1.00,-1.0,2367
5112,1225112,17052,-592,864,17084.13,30.51,-1.00,-1.0,2421
5114,1225114,16984,-544,880,17015.48,30.41,-1.00,-1.0,2369
5117,1225117,16976,-664,932,17014.53,30.46,-1.00,-1.0,2373
5120,1225120,16972,-488,940,17005.02,30.46,-1.00,-1.0,2420
5122,1225122,16980,-616,900,17014.99,30.46,-1.00,-1.0,2368
5127,1225127,17044,-608,888,17077.94,30.37,-1.00,-1.0,2433
5130,1225130,16980,-492,904,17011.16,30.41,-1.00,-1.0,2367
5133,1225133,17008,-612,904,17043.00,30.46,-1.00,-1.0,2437
5136,1225136,16952,-624,988,16992.23,30.55,-1.00,-1.0,2371
5138,1225138,17052,-596,992,17091.22,30.46,-1.00,-1.0,2423
5141,1225141,16956,-624,888,16990.70,30.46,-1.00,-1.0,2369
5144,1225144,17036,-496,1016,17073.47,30.46,-1.00,-1.0,2423
5147,1225147,16980,-548,832,17009.20,30.37,-1.00,-1.0,2367
5152,1225152,17040,-608,864,17072.72,30.46,-1.00,-1.0,2431
5154,1225154,17000,-580,916,17034.54,30.41,-1.00,-1.0,2367
5157,1225157,17028,-616,924,17064.17,30.37,-1.00,-1.0,2373
5160,1225160,17024,-536,828,17052.55,30.37,-1.00,-1.0,2437
5162,1225162,17000,-672,860,17035.00,30.46,-1.00,-1.0,2373
5165,1225165,17128,-684,920,17166.32,30.51,-1.00,-1.0,2430
5168,1225168,16976,-716,956,17017.97,30.41,-1.00,-1.0,2376
5171,1225171,17044,-600,900,17078.29,30.41,-1.00,-1.0,2431
5173,1225173,17068,-588,884,17100.99,30.41,-1.00,-1.0,2377
5178,1225178,16964,-636,948,17002.37,30.41,-1.00,-1.0,2433
5181,1225181,17064,-516,860,17093.45,30.37,-1.00,-1.0,2364
5184,1225184,17064,-668,764,17094.15,30.51,-1.00,-1.0,2435
5187,1225187,17040,-708,1040,17086.38,30.46,-1.00,-1.0,2363
5189,1225189,16996,-528,928,17029.50,30.41,-1.00,-1.0,2435
5192,1225192,17088,-584,928,17123.14,30.41,-1.00,-1.0,2365
5195,1225195,17052,-620,980,17091.39,30.41,-1.00,-1.0,2369
5198,1225198,17032,-612,936,17068.68,30.46,-1.00,-1.0,2420
5200,1225200,17044,-608,856,17076.31,30.51,-1.00,-1.0,2368
5205,1225205,17088,-620,864,17121.06,30.51,-1.00,-1.0,2437
5208,1225208,17068,-504,748,17091.81,30.41,-1.00,-1.0,2355
5211,1225211,17168,-696,660,17194.77,30.46,-1.00,-1.0,2436
5213,1225213,17132,-644,816,17163.51,30.41,-1.00,-1.0,2374
5216,1225216,16992,-640,844,17024.98,30.37,-1.00,-1.0,2421
5219,1225219,17008,-676,920,17046.27,30.41,-1.00,-1.0,2369
5222,1225222,17132,-580,900,17165.43,30.46,-1.00,-1.0,2421
5224,1225224,17072,-636,936,17109.46,30.51,-1.00,-1.0,2374
5227,1225227,17040,-520,880,17070.63,30.41,-1.00,-1.0,2365
5232,1225232,17104,-604,960,17141.56,30.41,-1.00,-1.0,2431
5235,1225235,17060,-556,932,17094.48,30.46,-1.00,-1.0,2374
5238,1225238,17028,-644,856,17061.66,30.41,-1.00,-1.0,2430
5240,1225240,17012,-564,924,17046.41,30.51,-1.00,-1.0,2368
5243,1225243,17044,-564,1124,17090.33,30.51,-1.00,-1.0,2420
5246,1225246,17032,-676,920,17070.22,30.32,-1.00,-1.0,2377
5249,1225249,16984,-604,964,17022.05,30.41,-1.00,-1.0,2421
5251,1225251,17076,-592,796,17104.79,30.51,-1.00,-1.0,2371
5256,1225256,16964,-444,844,16990.79,30.37,-1.00,-1.0,2432
5259,1225259,17008,-636,832,17040.21,30.37,-1.00,-1.0,2370
5262,1225262,17068,-592,904,17102.17,30.46,-1.00,-1.0,2429
5264,1225264,17144,-572,832,17173.71,30.55,-1.00,-1.0,2369
5267,1225267,17104,-608,888,17137.82,30.41,-1.00,-1.0,2373
5270,1225270,16932,-528,844,16961.24,30.51,-1.00,-1.0,2420
5272,1225272,17112,-528,820,17139.77,30.41,-1.00,-1.0,2371
5275,1225275,17180,-612,816,17210.25,30.46,-1.00,-1.0,2430
5278,1225278,17068,-612,868,17101.01,30.51,-1.00,-1.0,2376
5283,1225283,16948,-484,844,16975.90,30.41,-1.00,-1.0,2431
5286,1225286,17104,-528,800,17130.84,30.41,-1.00,-1.0,2376
5289,1225289,17120,-544,852,17149.82,30.41,-1.00,-1.0,2429
5291,1225291,17000,-740,880,17038.84,30.51,-1.00,-1.0,2371
5294,1225294,17140,-568,944,17175.37,30.41,-1.00,-1.0,2429
5297,1225297,16932,-568,1044,16973.66,30.51,-1.00,-1.0,2371
5300,1225300,17048,-568,904,17081.40,30.51,-1.00,-1.0,2421
5302,1225302,16924,-616,972,16963.08,30.51,-1.00,-1.0,2373
5305,1225305,16972,-660,928,17010.16,30.46,-1.00,-1.0,2380
5310,1225310,17004,-632,928,17041.03,30.51,-1.00,-1.0,2430
5313,1225313,17008,-552,1012,17047.02,30.51,-1.00,-1.0,2376
5316,1225316,17036,-560,904,17069.16,30.37,-1.00,-1.0,2438
5318,1225318,17080,-552,788,17107.08,30.41,-1.00,-1.0,2374
5321,1225321,17104,-584,972,17141.55,30.46,-1.00,-1.0,2429
5324,1225324,17136,-636,1020,17178.11,30.46,-1.00,-1.0,2375
5327,1225327,17060,-576,856,17091.17,30.46,-1.00,-1.0,2434
5329,1225329,17092,-516,1012,17129.71,30.46,-1.00,-1.0,2376
5334,1225334,16972,-580,968,17009.47,30.51,-1.00,-1.0,2434
5337,1225337,17080,-640,836,17112.42,30.51,-1.00,-1.0,2363
5340,1225340,17092,-668,1084,17139.36,30.46,-1.00,-1.0,2437
5343,1225343,17064,-524,896,17095.54,30.41,-1.00,-1.0,2363
5345,1225345,17020,-560,1052,17061.67,30.46,-1.00,-1.0,2426
5348,1225348,17060,-600,944,17096.63,30.41,-1.00,-1.0,2365
5351,1225351,17108,-620,912,17143.51,30.55,-1.00,-1.0,2365
5354,1225354,17032,-624,844,17064.31,30.46,-1.00,-1.0,2409
5356,1225356,16984,-592,948,17020.73,30.46,-1.00,-1.0,2367
5361,1225361,17012,-536,876,17042.97,30.46,-1.00,-1.0,2446
5364,1225364,17076,-564,852,17106.54,30.46,-1.00,-1.0,2374
5367,1225367,17024,-636,944,17062.01,30.37,-1.00,-1.0,2439
5369,1225369,17008,-668,852,17042.42,30.46,-1.00,-1.0,2376
5372,1225372,17008,-676,1008,17051.25,30.41,-1.00,-1.0,2417
5375,1225375,17020,-640,904,17056.00,30.46,-1.00,-1.0,2372
5378,1225378,17036,-704,916,17075.13,30.41,-1.00,-1.0,2423
5380,1225380,17036,-656,808,17067.76,30.46,-1.00,-1.0,2375
5385,1225385,17104,-680,868,17139.51,30.55,-1.00,-1.0,2434
5388,1225388,16956,-588,988,16994.94,30.46,-1.00,-1.0,2363
5391,1225391,17136,-628,844,17168.26,30.55,-1.00,-1.0,2367
5394,1225394,17120,-616,964,17158.18,30.41,-1.00,-1.0,2430
5396,1225396,17076,-536,820,17104.08,30.41,-1.00,-1.0,2368
5399,1225399,17008,-532,892,17039.68,30.41,-1.00,-1.0,2407
5402,1225402,17008,-540,988,17045.23,30.41,-1.00,-1.0,2369
5405,1225405,17128,-684,928,17166.75,30.41,-1.00,-1.0,2420
5407,1225407,17044,-592,824,17074.17,30.51,-1.00,-1.0,2368
5412,1225412,17016,-692,956,17056.88,30.51,-1.00,-1.0,2431
5415,1225415,17104,-596,972,17141.96,30.51,-1.00,-1.0,2367
5418,1225418,17104,-584,964,17141.10,30.51,-1.00,-1.0,2430
5420,1225420,16992,-536,872,17022.80,30.46,-1.00,-1.0,2373
5423,1225423,17036,-656,1012,17078.63,30.41,-1.00,-1.0,2421
5426,1225426,17056,-616,772,17084.57,30.51,-1.00,-1.0,2370
5429,1225429,17072,-600,908,17106.65,30.46,-1.00,-1.0,2366
5431,1225431,17080,-644,980,17120.21,30.46,-1.00,-1.0,2425
5434,1225434,17036,-636,768,17065.16,30.46,-1.00,-1.0,2368
5439,1225439,17096,-572,844,17126.38,30.46,-1.00,-1.0,2431
5442,1225442,17072,-620,820,17102.92,30.41,-1.00,-1.0,2430
5445,1225445,17120,-556,832,17149.22,30.46,-1.00,-1.0,2427
5448,1225448,17004,-628,760,17032.56,30.41,-1.00,-1.0,2375
5450,1225450,17120,-616,940,17156.85,30.46,-1.00,-1.0,2414
5453,1225453,17044,-576,908,17077.88,30.41,-1.00,-1.0,2376
5456,1225456,17060,-644,932,17097.57,30.46,-1.00,-1.0,2421
5459,1225459,17068,-572,940,17103.43,30.46,-1.00,-1.0,2375
5463,1225463,17068,-600,928,17103.74,30.41,-1.00,-1.0,2430
5466,1225466,16972,-688,880,17008.72,30.51,-1.00,-1.0,2382
5469,1225469,17064,-548,1024,17103.48,30.41,-1.00,-1.0,2365
5471,1225471,17104,-588,824,17133.93,30.46,-1.00,-1.0,2429
5474,1225474,17016,-532,896,17047.88,30.46,-1.00,-1.0,2370
5477,1225477,16924,-588,900,16958.11,30.46,-1.00,-1.0,2422
5480,1225480,17008,-580,876,17040.42,30.46,-1.00,-1.0,2369
5482,1225482,17092,-672,840,17125.82,30.46,-1.00,-1.0,2426
5485,1225485,16928,-620,724,16954.81,30.46,-1.00,-1.0,2372
5490,1225490,17052,-540,756,17077.29,30.37,-1.00,-1.0,2427
5493,1225493,17004,-672,928,17042.56,30.37,-1.00,-1.0,2374
5496,1225496,17108,-636,860,17141.40,30.55,-1.00,-1.0,2413
5499,1225499,17124,-536,852,17153.56,30.27,-1.00,-1.0,2369
5501,1225501,17088,-572,968,17124.95,30.37,-1.00,-1.0,2419
5504,1225504,17004,-552,840,17033.68,30.55,-1.00,-1.0,2371
5507,1225507,17008,-608,860,17040.58,30.41,-1.00,-1.0,2368
5509,1225509,17088,-568,928,17122.60,30.51,-1.00,-1.0,2425
5512,1225512,16948,-644,832,16980.63,30.46,-1.00,-1.0,2372
5517,1225517,16988,-652,816,17020.08,30.46,-1.00,-1.0,2429
5520,1225520,17116,-548,772,17142.16,30.46,-1.00,-1.0,2374
5523,1225523,16896,-580,844,16927.01,30.51,-1.00,-1.0,2432
5526,1225526,17036,-584,936,17071.69,30.41,-1.00,-1.0,2369
5528,1225528,17036,-560,1044,17077.14,30.41,-1.00,-1.0,2431
5531,1225531,17040,-624,720,17066.62,30.32,-1.00,-1.0,2371
5534,1225534,17140,-636,960,17178.64,30.41,-1.00,-1.0,2426
5537,1225537,17092,-552,960,17127.84,30.41,-1.00,-1.0,2371
5542,1225542,17068,-556,872,17099.30,30.41,-1.00,-1.0,2428
5544,1225544,17136,-532,868,17166.21,30.46,-1.00,-1.0,2376
5547,1225547,17088,-672,948,17127.46,30.41,-1.00,-1.0,2369
5550,1225550,17068,-616,988,17107.67,30.46,-1.00,-1.0,2424
5552,1225552,16952,-628,796,16982.29,30.37,-1.00,-1.0,2377
5555,1225555,16860,-644,760,16889.40,30.46,-1.00,-1.0,2418
5558,1225558,17016,-584,668,17039.12,30.46,-1.00,-1.0,2373
5561,1225561,16928,-624,1064,16972.88,30.46,-1.00,-1.0,2418
5563,1225563,17140,-632,1076,17185.37,30.46,-1.00,-1.0,2372
5568,1225568,16948,-576,776,16975.53,30.46,-1.00,-1.0,2435
5571,1225571,17028,-520,844,17056.83,30.51,-1.00,-1.0,2388
5574,1225574,17104,-652,864,17138.21,30.37,-1.00,-1.0,2425
5577,1225577,17036,-692,912,17074.42,30.46,-1.00,-1.0,2369
5580,1225580,17060,-568,728,17084.97,30.46,-1.00,-1.0,2418
5582,1225582,16984,-592,940,17020.29,30.46,-1.00,-1.0,2373
5585,1225585,17104,-544,700,17126.96,30.51,-1.00,-1.0,2373
5588,1225588,17000,-568,916,17034.13,30.41,-1.00,-1.0,2418
5590,1225590,17036,-664,860,17070.61,30.46,-1.00,-1.0,2379
5595,1225595,17092,-616,832,17123.32,30.46,-1.00,-1.0,2436
5598,1225598,17040,-584,732,17065.71,30.46,-1.00,-1.0,2389
5601,1225601,17160,-584,780,17187.64,30.46,-1.00,-1.0,2425
5604,1225604,17044,-536,912,17076.80,30.46,-1.00,-1.0,2370
5607,1225607,17064,-592,844,17095.11,30.46,-1.00,-1.0,2418
5609,1225609,16956,-628,700,16982.06,30.46,-1.00,-1.0,2374
5612,1225612,17004,-556,940,17039.04,30.46,-1.00,-1.0,2418
5615,1225615,16992,-604,956,17029.59,30.55,-1.00,-1.0,2371
5620,1225620,17036,-508,880,17066.28,30.46,-1.00,-1.0,2433
5622,1225622,17044,-556,848,17074.14,30.46,-1.00,-1.0,2383
5625,1225625,17016,-536,800,17043.23,30.51,-1.00,-1.0,2368
5628,1225628,17044,-616,932,17080.57,30.41,-1.00,-1.0,2427
5631,1225631,17024,-632,1000,17065.05,30.51,-1.00,-1.0,2370
5633,1225633,17144,-592,736,17170.00,30.41,-1.00,-1.0,2422
5636,1225636,17008,-712,800,17041.68,30.41,-1.00,-1.0,2371
5639,1225639,17052,-600,824,17082.44,30.41,-1.00,-1.0,2407
5642,1225642,17108,-580,960,17144.73,30.41,-1.00,-1.0,2370
5647,1225647,17044,-644,864,17078.03,30.41,-1.00,-1.0,2427
5649,1225649,16968,-572,972,17005.44,30.37,-1.00,-1.0,2374
5652,1225652,17052,-580,896,17085.37,30.41,-1.00,-1.0,2425
5655,1225655,16964,-616,1124,17012.35,30.41,-1.00,-1.0,2370
5658,1225658,17012,-656,836,17045.16,30.51,-1.00,-1.0,2418
5660,1225660,16988,-624,876,17022.01,30.41,-1.00,-1.0,2371
5663,1225663,17060,-552,1000,17098.20,30.37,-1.00,-1.0,2373
5666,1225666,17104,-528,812,17131.40,30.46,-1.00,-1.0,2426
5669,1225669,17128,-524,792,17154.31,30.51,-1.00,-1.0,2369
5673,1225673,17024,-596,948,17060.79,30.46,-1.00,-1.0,2435
5676,1225676,16884,-592,928,16919.84,30.46,-1.00,-1.0,2379
5679,1225679,17100,-668,804,17131.92,30.51,-1.00,-1.0,2431
5681,1225681,16996,-736,904,17035.93,30.37,-1.00,-1.0,2376
5684,1225684,17100,-548,812,17128.04,30.46,-1.00,-1.0,2418
5687,1225687,17056,-656,812,17087.91,30.55,-1.00,-1.0,2368
5690,1225690,17044,-632,892,17079.02,30.41,-1.00,-1.0,2418
5693,1225693,17084,-588,776,17111.72,30.41,-1.00,-1.0,2370
5698,1225698,17140,-576,908,17173.70,30.41,-1.00,-1.0,2427
5700,1225700,17016,-644,848,17049.29,30.46,-1.00,-1.0,2374
5703,1225703,17052,-512,804,17078.62,30.46,-1.00,-1.0,2372
5706,1225706,17052,-656,976,17092.50,30.46,-1.00,-1.0,2435
5708,1225708,17104,-512,972,17139.25,30.55,-1.00,-1.0,2376
5711,1225711,16988,-616,864,17021.11,30.46,-1.00,-1.0,2426
5714,1225714,17080,-636,880,17114.48,30.37,-1.00,-1.0,2379
5717,1225717,17076,-564,784,17103.29,30.41,-1.00,-1.0,2428
5720,1225720,16944,-644,712,16971.18,30.46,-1.00,-1.0,2369
5725,1225725,16916,-600,888,16949.91,30.51,-1.00,-1.0,2427
5727,1225727,16992,-640,1012,17034.14,30.51,-1.00,-1.0,2370
5730,1225730,17056,-564,828,17085.40,30.46,-1.00,-1.0,2424
5733,1225733,17104,-636,780,17133.58,30.41,-1.00,-1.0,2373
5736,1225736,17088,-692,812,17121.27,30.46,-1.00,-1.0,2418
5738,1225738,17068,-628,872,17101.79,30.51,-1.00,-1.0,2371
5741,1225741,17064,-632,796,17094.24,30.46,-1.00,-1.0,2373
5744,1225744,16960,-568,868,16991.69,30.41,-1.00,-1.0,2428
5747,1225747,17008,-540,980,17044.77,30.46,-1.00,-1.0,2369
5752,1225752,17124,-624,804,17154.22,30.37,-1.00,-1.0,2427
5754,1225754,17052,-568,972,17089.12,30.41,-1.00,-1.0,2374
5757,1225757,17036,-612,916,17071.58,30.37,-1.00,-1.0,2424
5760,1225760,17088,-648,784,17118.24,30.46,-1.00,-1.0,2378
5763,1225763,16988,-576,880,17020.53,30.37,-1.00,-1.0,2418
5765,1225765,17068,-572,848,17098.62,30.46,-1.00,-1.0,2371
5768,1225768,17036,-644,976,17076.08,30.55,-1.00,-1.0,2419
5771,1225771,17152,-564,848,17182.21,30.46,-1.00,-1.0,2378
5776,1225776,17100,-588,820,17129.74,30.37,-1.00,-1.0,2431
5778,1225778,17072,-580,808,17100.95,30.41,-1.00,-1.0,2362
5781,1225781,17056,-588,800,17084.87,30.37,-1.00,-1.0,2365
5784,1225784,17180,-548,824,17208.48,30.51,-1.00,-1.0,2431
5787,1225787,17008,-560,852,17038.53,30.37,-1.00,-1.0,2369
5789,1225789,17056,-560,816,17084.69,30.51,-1.00,-1.0,2430
5792,1225792,17024,-596,816,17053.96,30.37,-1.00,-1.0,2371
5795,1225795,16944,-636,880,16978.75,30.51,-1.00,-1.0,2427
5798,1225798,17024,-640,836,17056.53,30.41,-1.00,-1.0,2379
5803,1225803,17060,-652,864,17094.30,30.41,-1.00,-1.0,2426
5805,1225805,16952,-664,788,16983.29,30.46,-1.00,-1.0,2376
5808,1225808,17016,-608,804,17045.83,30.51,-1.00,-1.0,2439
5811,1225811,17028,-588,868,17060.24,30.41,-1.00,-1.0,2378
5814,1225814,17008,-636,852,17041.20,30.41,-1.00,-1.0,2431
5816,1225816,17100,-660,896,17136.17,30.41,-1.00,-1.0,2383
5819,1225819,17060,-560,984,17097.53,30.46,-1.00,-1.0,2366
5822,1225822,17060,-660,984,17101.10,30.46,-1.00,-1.0,2426
5825,1225825,17020,-632,912,17056.13,30.41,-1.00,-1.0,2375
5830,1225830,17176,-600,804,17205.27,30.41,-1.00,-1.0,2435
5832,1225832,17056,-624,788,17085.59,30.41,-1.00,-1.0,2378
5835,1225835,17080,-560,844,17110.01,30.37,-1.00,-1.0,2432
5838,1225838,17072,-772,948,17115.72,30.41,-1.00,-1.0,2359
5841,1225841,16992,-688,744,17022.19,30.37,-1.00,-1.0,2425
5843,1225843,17008,-528,960,17043.25,30.41,-1.00,-1.0,2381
5846,1225846,17084,-584,896,17117.45,30.46,-1.00,-1.0,2418
5849,1225849,17072,-592,996,17111.27,30.51,-1.00,-1.0,2373
5856,1225856,17112,-596,884,17145.18,30.41,-1.00,-1.0,2427
5858,1225858,16964,-596,912,16998.95,30.41,-1.00,-1.0,2375
5861,1225861,17048,-488,904,17078.92,30.46,-1.00,-1.0,2368
5864,1225864,17008,-660,964,17048.08,30.37,-1.00,-1.0,2425
5866,1225866,17100,-528,848,17129.15,30.46,-1.00,-1.0,2357
5869,1225869,17040,-620,764,17068.38,30.55,-1.00,-1.0,2419
5872,1225872,17068,-680,784,17099.52,30.46,-1.00,-1.0,2374
5875,1225875,17176,-628,904,17211.23,30.46,-1.00,-1.0,2418
5877,1225877,17020,-624,848,17052.53,30.37,-1.00,-1.0,2372
5882,1225882,17092,-572,784,17119.53,30.37,-1.00,-1.0,2435
5885,1225885,17072,-568,860,17103.08,30.51,-1.00,-1.0,2382
5888,1225888,17036,-644,988,17076.77,30.37,-1.00,-1.0,2431
5890,1225890,17056,-596,968,17093.84,30.37,-1.00,-1.0,2378
5893,1225893,17148,-604,976,17186.37,30.37,-1.00,-1.0,2364
5896,1225896,16992,-560,892,17024.61,30.41,-1.00,-1.0,2426
5899,1225899,17016,-592,828,17046.42,30.46,-1.00,-1.0,2370
5901,1225901,17036,-716,840,17071.72,30.51,-1.00,-1.0,2419
5904,1225904,17048,-592,1040,17089.95,30.46,-1.00,-1.0,2371
5909,1225909,17016,-532,868,17046.43,30.46,-1.00,-1.0,2427
5912,1225912,17100,-528,912,17132.44,30.46,-1.00,-1.0,2371
5915,1225915,17112,-552,844,17141.69,30.37,-1.00,-1.0,2424
5917,1225917,17020,-584,796,17048.61,30.55,-1.00,-1.0,2371
5920,1225920,17100,-544,784,17126.61,30.46,-1.00,-1.0,2418
5923,1225923,17008,-652,992,17049.38,30.46,-1.00,-1.0,2370
5926,1225926,17084,-584,896,17117.45,30.41,-1.00,-1.0,2418
5928,1225928,16956,-628,960,16994.76,30.46,-1.00,-1.0,2371
5931,1225931,17132,-648,844,17165.01,30.41,-1.00,-1.0,2374
5936,1225936,17088,-604,888,17121.71,30.41,-1.00,-1.0,2433
5939,1225939,17048,-576,932,17083.17,30.51,-1.00,-1.0,2373
5941,1225941,17012,-652,768,17041.80,30.41,-1.00,-1.0,2426
5944,1225944,17156,-628,936,17192.99,30.37,-1.00,-1.0,2371
5947,1225947,17184,-504,932,17216.63,30.51,-1.00,-1.0,2421
5950,1225950,17008,-620,1004,17048.88,30.41,-1.00,-1.0,2370
5952,1225952,17112,-584,964,17149.08,30.41,-1.00,-1.0,2421
5955,1225955,17020,-460,984,17054.62,30.41,-1.00,-1.0,2371
5960,1225960,17072,-644,1020,17114.56,30.46,-1.00,-1.0,2460
5963,1225963,17020,-572,932,17055.09,30.55,-1.00,-1.0,2375
5966,1225966,17092,-628,844,17124.35,30.46,-1.00,-1.0,2430
5968,1225968,17024,-628,972,17063.29,30.37,-1.00,-1.0,2372
5971,1225971,17036,-596,896,17069.95,30.46,-1.00,-1.0,2432
5974,1225974,17096,-552,932,17130.28,30.46,-1.00,-1.0,2369
5977,1225977,17012,-564,880,17044.08,30.41,-1.00,-1.0,2367
5979,1225979,17008,-652,844,17041.41,30.41,-1.00,-1.0,2423
5982,1225982,17008,-604,908,17042.93,30.37,-1.00,-1.0,2357
5987,1225987,16964,-624,860,16997.24,30.37,-1.00,-1.0,2445
5990,1225990,17056,-588,912,17090.48,30.46,-1.00,-1.0,2371
5993,1225993,17028,-620,912,17063.67,30.51,-1.00,-1.0,2424
5995,1225995,17152,-616,956,17189.66,30.37,-1.00,-1.0,2372
5998,1225998,16992,-552,876,17023.52,30.46,-1.00,-1.0,2422
6001,1226001,17036,-576,784,17063.75,30.55,-1.00,-1.0,2370
6004,1226004,17060,-636,856,17093.30,30.41,-1.00,-1.0,2422
6006,1226006,17020,-736,896,17059.45,30.41,-1.00,-1.0,2376
6009,1226009,16984,-632,928,17021.07,30.41,-1.00,-1.0,2374
6014,1226014,17080,-540,860,17110.16,30.41,-1.00,-1.0,2449
6017,1226017,17156,-604,980,17194.58,30.41,-1.00,-1.0,2368
6019,1226019,17048,-580,928,17083.09,30.46,-1.00,-1.0,2422
6022,1226022,17024,-580,900,17057.64,30.41,-1.00,-1.0,2370
6025,1226025,17036,-556,948,17071.41,30.46,-1.00,-1.0,2429
6028,1226028,17040,-564,816,17068.85,30.41,-1.00,-1.0,2369
6030,1226030,16952,-568,744,16977.82,30.37,-1.00,-1.0,2422
6033,1226033,17028,-612,912,17063.38,30.51,-1.00,-1.0,2369
6038,1226038,17016,-548,920,17049.66,30.41,-1.00,-1.0,2442
6041,1226041,17076,-612,852,17108.19,30.41,-1.00,-1.0,2368
6044,1226044,17048,-600,932,17084.00,30.41,-1.00,-1.0,2422
6046,1226046,17080,-528,896,17111.63,30.41,-1.00,-1.0,2373
6049,1226049,17012,-656,908,17048.84,30.46,-1.00,-1.0,2375
6052,1226052,17096,-700,936,17135.91,30.41,-1.00,-1.0,2434
6054,1226054,17100,-692,872,17136.20,30.37,-1.00,-1.0,2371
6057,1226057,17012,-616,940,17049.08,30.51,-1.00,-1.0,2432
6060,1226060,17028,-644,900,17063.92,30.46,-1.00,-1.0,2376
6065,1226065,17080,-684,776,17111.29,30.41,-1.00,-1.0,2444
6067,1226067,16992,-584,820,17021.79,30.41,-1.00,-1.0,2375
6070,1226070,16996,-668,752,17025.74,30.51,-1.00,-1.0,2421
6073,1226073,16988,-656,804,17019.66,30.41,-1.00,-1.0,2371
6076,1226076,17032,-588,884,17065.06,30.41,-1.00,-1.0,2422
6078,1226078,17040,-620,840,17071.95,30.41,-1.00,-1.0,2370
6081,1226081,17044,-628,876,17078.05,30.46,-1.00,-1.0,2422
6084,1226084,17104,-536,1028,17143.25,30.41,-1.00,-1.0,2373
6087,1226087,17080,-632,984,17119.99,30.37,-1.00,-1.0,2367
6091,1226091,17052,-616,924,17088.12,30.41,-1.00,-1.0,2450
6094,1226094,17028,-680,780,17059.41,30.41,-1.00,-1.0,2384
6097,1226097,17112,-628,856,17144.90,30.41,-1.00,-1.0,2422
6100,1226100,17040,-632,1076,17085.63,30.41,-1.00,-1.0,2377
6103,1226103,17152,-668,908,17189.00,30.51,-1.00,-1.0,2416
6105,1226105,17044,-696,888,17081.30,30.41,-1.00,-1.0,2377
6108,1226108,16920,-552,812,16948.46,30.41,-1.00,-1.0,2422
6111,1226111,17052,-472,860,17080.20,30.41,-1.00,-1.0,2367
