timestamp_ms,global_ms,accel_x,accel_y,accel_z,accel_mag,temp_c,voltage,soc,loop_us
3,915003,17084,-596,980,17122.46,32.20,-1.00,-1.0,2493
9,915009,17048,-624,800,17078.16,32.15,-1.00,-1.0,2456
12,915012,17096,-568,784,17123.39,32.15,-1.00,-1.0,2370
14,915014,17024,-652,876,17058.99,32.20,-1.00,-1.0,2366
17,915017,17088,-560,944,17123.21,32.15,-1.00,-1.0,2418
20,915020,17088,-616,808,17118.18,32.11,-1.00,-1.0,2372
23,915023,17080,-640,800,17110.70,32.06,-1.00,-1.0,2418
25,915025,17048,-624,884,17082.30,32.11,-1.00,-1.0,2375
28,915028,17092,-664,900,17128.55,32.15,-1.00,-1.0,2418
31,915031,17084,-672,764,17114.27,32.11,-1.00,-1.0,2372
35,915035,17020,-612,780,17048.85,32.20,-1.00,-1.0,2447
38,915038,16964,-596,816,16994.07,32.11,-1.00,-1.0,2382
41,915041,17104,-592,944,17140.26,32.06,-1.00,-1.0,2367
44,915044,17128,-624,628,17150.86,32.06,-1.00,-1.0,2418
46,915046,17128,-648,860,17161.81,32.15,-1.00,-1.0,2372
49,915049,17016,-676,1012,17059.47,32.15,-1.00,-1.0,2417
52,915052,17096,-596,824,17126.22,32.15,-1.00,-1.0,2372
55,915055,17000,-644,804,17031.18,32.15,-1.00,-1.0,2417
57,915057,17208,-608,772,17236.04,32.06,-1.00,-1.0,2372
60,915060,17068,-596,900,17102.10,32.15,-1.00,-1.0,2373
65,915065,17180,-628,772,17208.80,32.06,-1.00,-1.0,2446
68,915068,17060,-668,868,17095.12,32.06,-1.00,-1.0,2359
70,915070,17060,-704,936,17100.16,32.11,-1.00,-1.0,2418
73,915073,17088,-668,832,17121.28,32.15,-1.00,-1.0,2372
76,915076,16976,-568,900,17009.33,32.06,-1.00,-1.0,2426
79,915079,17088,-576,740,17113.71,32.15,-1.00,-1.0,2371
81,915081,17140,-532,744,17164.39,32.11,-1.00,-1.0,2419
84,915084,17076,-612,764,17104.04,32.15,-1.00,-1.0,2372
87,915087,17080,-636,848,17112.86,32.11,-1.00,-1.0,2367
92,915092,16972,-612,744,16999.32,32.20,-1.00,-1.0,2439
94,915094,17056,-644,764,17085.24,32.06,-1.00,-1.0,2371
97,915097,17052,-580,840,17082.53,32.11,-1.00,-1.0,2433
100,915100,17076,-608,692,17100.83,32.15,-1.00,-1.0,2382
103,915103,17040,-516,768,17065.10,32.11,-1.00,-1.0,2431
105,915105,17088,-608,696,17112.97,32.11,-1.00,-1.0,2376
108,915108,17120,-608,800,17149.46,32.15,-1.00,-1.0,2369
111,915111,17136,-604,868,17168.60,32.06,-1.00,-1.0,2420
114,915114,17016,-652,876,17051.00,32.15,-1.00,-1.0,2373
119,915119,16980,-576,712,17004.68,32.15,-1.00,-1.0,2446
121,915121,16956,-624,784,16985.58,32.20,-1.00,-1.0,2371
124,915124,17140,-536,908,17172.40,32.15,-1.00,-1.0,2417
127,915127,17048,-616,640,17071.13,32.11,-1.00,-1.0,2373
130,915130,17032,-564,728,17056.88,32.25,-1.00,-1.0,2417
132,915132,17048,-616,780,17076.95,32.15,-1.00,-1.0,2374
135,915135,17052,-584,876,17084.47,32.15,-1.00,-1.0,2417
138,915138,17028,-556,824,17056.99,32.15,-1.00,-1.0,2372
141,915141,17156,-608,852,17187.90,32.15,-1.00,-1.0,2367
146,915146,17056,-644,952,17094.68,32.15,-1.00,-1.0,2446
148,915148,17108,-576,820,17137.32,32.15,-1.00,-1.0,2371
151,915151,17096,-588,860,17127.71,32.15,-1.00,-1.0,2418
154,915154,17044,-568,856,17074.93,32.15,-1.00,-1.0,2372
157,915157,16976,-600,800,17005.43,32.15,-1.00,-1.0,2420
159,915159,17068,-624,808,17098.50,32.06,-1.00,-1.0,2375
162,915162,17008,-556,768,17034.41,32.15,-1.00,-1.0,2417
165,915165,17144,-620,692,17169.16,32.15,-1.00,-1.0,2372
168,915168,17076,-652,876,17110.88,32.15,-1.00,-1.0,2367
173,915173,17056,-660,776,17086.40,32.15,-1.00,-1.0,2441
175,915175,17060,-620,876,17093.72,32.06,-1.00,-1.0,2374
178,915178,17088,-720,1000,17132.37,32.20,-1.00,-1.0,2418
181,915181,16988,-656,944,17026.85,32.15,-1.00,-1.0,2371
184,915184,17072,-580,800,17100.57,32.20,-1.00,-1.0,2417
186,915186,17088,-588,840,17118.73,32.15,-1.00,-1.0,2371
189,915189,17012,-648,980,17052.52,32.20,-1.00,-1.0,2417
192,915192,17008,-628,684,17033.33,32.06,-1.00,-1.0,2372
195,915195,17004,-604,888,17037.88,32.11,-1.00,-1.0,2367
200,915200,17096,-616,692,17121.08,32.11,-1.00,-1.0,2440
202,915202,17076,-496,864,17105.04,32.15,-1.00,-1.0,2368
205,915205,17000,-752,832,17036.95,32.20,-1.00,-1.0,2417
208,915208,17096,-648,912,17132.57,32.15,-1.00,-1.0,2371
211,915211,17032,-608,828,17062.95,32.20,-1.00,-1.0,2417
213,915213,16980,-668,844,17014.08,32.01,-1.00,-1.0,2373
216,915216,16948,-600,736,16974.58,32.11,-1.00,-1.0,2418
219,915219,16952,-704,884,16989.62,32.15,-1.00,-1.0,2371
222,915222,17152,-660,760,17181.51,32.25,-1.00,-1.0,2429
227,915227,17056,-568,800,17084.20,32.20,-1.00,-1.0,2432
229,915229,17104,-616,872,17137.29,32.11,-1.00,-1.0,2372
232,915232,17080,-696,800,17112.88,32.20,-1.00,-1.0,2423
235,915235,17056,-532,728,17079.82,32.15,-1.00,-1.0,2372
238,915238,17140,-624,772,17168.72,32.11,-1.00,-1.0,2420
240,915240,17024,-740,904,17064.04,32.20,-1.00,-1.0,2359
243,915243,17196,-548,780,17222.40,32.11,-1.00,-1.0,2418
246,915246,17064,-584,804,17092.91,32.06,-1.00,-1.0,2372
249,915249,16984,-708,748,17015.20,32.25,-1.00,-1.0,2366
253,915253,17044,-676,780,17075.22,32.11,-1.00,-1.0,2432
256,915256,17016,-620,936,17053.00,32.11,-1.00,-1.0,2371
259,915259,17136,-644,972,17175.62,32.11,-1.00,-1.0,2432
262,915262,16960,-624,876,16994.07,32.20,-1.00,-1.0,2369
264,915264,17096,-580,768,17123.07,32.20,-1.00,-1.0,2418
267,915267,17108,-664,740,17136.87,32.11,-1.00,-1.0,2359
270,915270,17052,-700,748,17082.75,32.11,-1.00,-1.0,2425
273,915273,17028,-568,768,17054.77,32.15,-1.00,-1.0,2373
276,915276,17040,-552,752,17065.52,32.25,-1.00,-1.0,2369
281,915281,17076,-644,816,17107.61,32.15,-1.00,-1.0,2431
283,915283,17116,-624,948,17153.59,32.20,-1.00,-1.0,2368
286,915286,17028,-588,776,17055.81,32.15,-1.00,-1.0,2429
289,915289,17040,-632,940,17077.61,32.15,-1.00,-1.0,2380
292,915292,17088,-656,724,17115.91,32.15,-1.00,-1.0,2420
294,915294,17048,-592,624,17069.69,32.15,-1.00,-1.0,2372
297,915297,17036,-648,832,17068.61,32.15,-1.00,-1.0,2431
300,915300,17096,-636,844,17128.63,32.25,-1.00,-1.0,2374
303,915303,17148,-668,800,17179.64,32.15,-1.00,-1.0,2366
308,915308,17032,-656,652,17057.09,32.15,-1.00,-1.0,2431
310,915310,17100,-712,848,17135.81,32.15,-1.00,-1.0,2370
313,915313,17036,-660,868,17070.86,32.15,-1.00,-1.0,2431
316,915316,17144,-616,900,17178.65,32.15,-1.00,-1.0,2382
319,915319,17096,-600,896,17129.97,32.25,-1.00,-1.0,2426
321,915321,17024,-576,720,17048.95,32.06,-1.00,-1.0,2376
324,915324,17036,-644,900,17071.91,32.11,-1.00,-1.0,2432
327,915327,17084,-520,780,17109.70,32.15,-1.00,-1.0,2380
330,915330,16992,-676,892,17028.82,32.15,-1.00,-1.0,2367
335,915335,16992,-592,876,17024.86,32.06,-1.00,-1.0,2437
337,915337,17000,-684,712,17028.65,32.15,-1.00,-1.0,2371
340,915340,17016,-624,836,17047.95,32.20,-1.00,-1.0,2430
343,915343,16976,-600,716,17001.68,32.20,-1.00,-1.0,2375
346,915346,17048,-648,804,17079.25,32.20,-1.00,-1.0,2423
348,915348,17072,-644,776,17101.76,32.20,-1.00,-1.0,2381
351,915351,17092,-704,948,17132.74,32.11,-1.00,-1.0,2416
354,915354,16980,-576,772,17007.30,32.20,-1.00,-1.0,2359
357,915357,17008,-592,904,17042.29,32.11,-1.00,-1.0,2371
362,915362,17000,-620,872,17033.64,32.20,-1.00,-1.0,2435
364,915364,17060,-572,896,17093.09,32.01,-1.00,-1.0,2376
367,915367,17096,-640,784,17125.93,32.20,-1.00,-1.0,2422
370,915370,17096,-676,792,17127.68,32.20,-1.00,-1.0,2373
373,915373,17040,-620,792,17069.66,32.11,-1.00,-1.0,2418
375,915375,17012,-676,748,17041.85,32.11,-1.00,-1.0,2376
378,915378,17048,-600,852,17079.82,32.06,-1.00,-1.0,2417
381,915381,17088,-640,844,17120.80,32.20,-1.00,-1.0,2372
384,915384,17012,-648,792,17042.75,32.20,-1.00,-1.0,2370
389,915389,17044,-656,820,17076.32,32.20,-1.00,-1.0,2434
392,915392,17088,-648,784,17118.24,32.15,-1.00,-1.0,2372
395,915395,17080,-584,756,17106.70,32.11,-1.00,-1.0,2430
397,915397,16976,-652,896,17012.13,32.20,-1.00,-1.0,2392
400,915400,17052,-616,744,17079.34,32.15,-1.00,-1.0,2419
403,915403,17120,-680,876,17155.88,32.20,-1.00,-1.0,2375
406,915406,17100,-728,788,17133.62,32.25,-1.00,-1.0,2416
408,915408,16976,-564,888,17008.56,32.11,-1.00,-1.0,2374
411,915411,17012,-588,800,17040.95,32.15,-1.00,-1.0,2374
416,915416,17076,-680,872,17111.77,32.06,-1.00,-1.0,2432
418,915418,16956,-620,744,16983.63,32.15,-1.00,-1.0,2371
421,915421,17064,-632,844,17096.54,32.15,-1.00,-1.0,2423
424,915424,17092,-556,928,17126.20,32.15,-1.00,-1.0,2372
427,915427,17112,-540,848,17141.51,32.15,-1.00,-1.0,2426
430,915430,17004,-656,800,17035.44,32.15,-1.00,-1.0,2367
432,915432,17028,-660,700,17055.16,32.15,-1.00,-1.0,2416
435,915435,17116,-552,712,17139.69,32.15,-1.00,-1.0,2373
438,915438,17084,-584,708,17108.63,32.15,-1.00,-1.0,2366
443,915443,17100,-544,832,17128.87,32.15,-1.00,-1.0,2430
445,915445,17080,-584,920,17114.73,32.15,-1.00,-1.0,2368
448,915448,17032,-592,752,17058.87,32.20,-1.00,-1.0,2422
451,915451,16984,-668,868,17019.28,32.15,-1.00,-1.0,2379
454,915454,17116,-668,768,17146.24,32.11,-1.00,-1.0,2417
456,915456,17048,-568,816,17076.97,32.11,-1.00,-1.0,2372
459,915459,17148,-596,832,17178.51,32.11,-1.00,-1.0,2416
462,915462,16956,-560,780,16983.17,32.11,-1.00,-1.0,2380
465,915465,17044,-684,792,17076.10,32.20,-1.00,-1.0,2374
470,915470,17080,-664,852,17114.12,32.15,-1.00,-1.0,2433
472,915472,17140,-648,872,17174.40,32.25,-1.00,-1.0,2371
475,915475,16984,-632,764,17012.92,32.06,-1.00,-1.0,2410
478,915478,17072,-616,792,17101.46,32.25,-1.00,-1.0,2372
481,915481,17088,-584,864,17119.79,32.15,-1.00,-1.0,2416
483,915483,17036,-560,880,17067.90,32.15,-1.00,-1.0,2371
486,915486,17156,-612,692,17180.85,32.15,-1.00,-1.0,2416
489,915489,17040,-520,676,17061.33,32.11,-1.00,-1.0,2367
494,915494,17000,-728,892,17038.95,32.11,-1.00,-1.0,2438
497,915497,16988,-656,848,17021.80,32.25,-1.00,-1.0,2369
499,915499,17028,-576,756,17054.50,32.20,-1.00,-1.0,2376
502,915502,17020,-648,920,17057.16,32.15,-1.00,-1.0,2425
505,915505,17084,-680,816,17116.99,32.20,-1.00,-1.0,2375
507,915507,17052,-648,664,17077.22,32.06,-1.00,-1.0,2424
510,915510,17052,-656,884,17087.50,32.25,-1.00,-1.0,2388
513,915513,17156,-636,632,17179.41,32.06,-1.00,-1.0,2418
516,915516,17124,-592,868,17156.20,32.20,-1.00,-1.0,2380
521,915521,17072,-640,860,17105.62,32.11,-1.00,-1.0,2434
524,915524,17048,-636,968,17087.30,32.15,-1.00,-1.0,2425
526,915526,17052,-692,872,17088.30,32.20,-1.00,-1.0,2370
529,915529,17044,-732,908,17083.86,32.15,-1.00,-1.0,2438
532,915532,17008,-572,912,17042.04,32.25,-1.00,-1.0,2379
535,915535,17088,-512,848,17116.69,32.15,-1.00,-1.0,2428
537,915537,17104,-612,832,17135.16,32.15,-1.00,-1.0,2379
540,915540,16980,-580,780,17007.80,32.25,-1.00,-1.0,2417
543,915543,16956,-632,808,16987.00,32.06,-1.00,-1.0,2379
548,915548,17060,-728,760,17092.43,32.25,-1.00,-1.0,2429
551,915551,17136,-688,728,17165.25,32.20,-1.00,-1.0,2376
553,915553,17128,-592,980,17166.22,32.15,-1.00,-1.0,2353
556,915556,17088,-640,712,17114.80,32.11,-1.00,-1.0,2426
559,915559,16984,-636,820,17015.67,32.15,-1.00,-1.0,2375
562,915562,17076,-832,760,17113.14,32.15,-1.00,-1.0,2420
564,915564,16972,-576,880,17004.56,32.15,-1.00,-1.0,2369
567,915567,17092,-652,824,17124.27,32.29,-1.00,-1.0,2406
570,915570,17064,-644,740,17092.17,32.15,-1.00,-1.0,2373
575,915575,17124,-612,808,17153.97,32.15,-1.00,-1.0,2430
578,915578,17028,-640,908,17064.20,32.20,-1.00,-1.0,2371
580,915580,16996,-644,784,17026.26,32.15,-1.00,-1.0,2374
583,915583,17044,-576,884,17076.63,32.20,-1.00,-1.0,2429
586,915586,17112,-680,836,17145.90,32.20,-1.00,-1.0,2370
589,915589,17084,-584,868,17116.00,32.01,-1.00,-1.0,2419
591,915591,17032,-716,768,17064.33,32.11,-1.00,-1.0,2369
594,915594,17132,-664,904,17168.68,32.20,-1.00,-1.0,2420
597,915597,17020,-524,860,17049.77,32.15,-1.00,-1.0,2371
602,915602,17064,-624,912,17099.74,32.06,-1.00,-1.0,2430
605,915605,17176,-604,788,17204.67,32.15,-1.00,-1.0,2378
607,915607,17088,-568,772,17114.86,32.20,-1.00,-1.0,2365
610,915610,17080,-564,724,17104.64,32.11,-1.00,-1.0,2427
613,915613,16988,-580,852,17019.24,32.20,-1.00,-1.0,2369
616,915616,16984,-624,924,17020.56,32.11,-1.00,-1.0,2419
618,915618,17092,-644,812,17123.39,32.20,-1.00,-1.0,2369
621,915621,17052,-640,876,17086.48,32.20,-1.00,-1.0,2419
624,915624,16984,-608,952,17021.52,32.20,-1.00,-1.0,2370
629,915629,17068,-752,824,17104.42,32.11,-1.00,-1.0,2423
632,915632,17072,-580,776,17099.47,32.15,-1.00,-1.0,2384
634,915634,17096,-584,916,17130.48,32.11,-1.00,-1.0,2365
637,915637,17100,-528,984,17136.42,32.06,-1.00,-1.0,2427
640,915640,17088,-668,884,17123.88,32.11,-1.00,-1.0,2370
643,915643,17060,-604,884,17093.56,32.15,-1.00,-1.0,2419
645,915645,17036,-668,740,17065.14,32.11,-1.00,-1.0,2370
648,915648,17028,-568,928,17062.72,32.15,-1.00,-1.0,2419
651,915651,17112,-652,816,17143.85,32.11,-1.00,-1.0,2369
656,915656,17108,-572,932,17142.91,32.25,-1.00,-1.0,2429
659,915659,17116,-632,732,17143.30,32.15,-1.00,-1.0,2375
661,915661,17020,-628,884,17054.51,32.29,-1.00,-1.0,2385
664,915664,17112,-604,756,17139.34,32.01,-1.00,-1.0,2428
667,915667,17100,-644,712,17126.93,32.11,-1.00,-1.0,2371
670,915670,17072,-568,764,17098.52,32.11,-1.00,-1.0,2420
672,915672,17088,-640,712,17114.80,32.20,-1.00,-1.0,2371
675,915675,17068,-676,944,17107.45,32.15,-1.00,-1.0,2419
678,915678,17016,-648,656,17040.96,32.15,-1.00,-1.0,2369
683,915683,17036,-700,876,17072.86,32.11,-1.00,-1.0,2428
685,915685,16956,-600,824,16986.61,32.25,-1.00,-1.0,2386
688,915688,17052,-656,808,17083.73,32.25,-1.00,-1.0,2364
691,915691,17004,-688,780,17035.78,32.15,-1.00,-1.0,2421
694,915694,17044,-580,816,17073.38,32.15,-1.00,-1.0,2367
696,915696,16972,-716,832,17007.46,32.15,-1.00,-1.0,2422
699,915699,16988,-656,792,17019.10,32.15,-1.00,-1.0,2372
702,915702,17004,-664,936,17042.68,32.15,-1.00,-1.0,2419
705,915705,17096,-580,784,17123.79,32.15,-1.00,-1.0,2370
710,915710,17052,-660,880,17087.44,32.15,-1.00,-1.0,2422
713,915713,17112,-472,708,17133.14,32.20,-1.00,-1.0,2371
715,915715,17052,-612,852,17084.24,32.25,-1.00,-1.0,2365
718,915718,16996,-636,668,17021.01,32.20,-1.00,-1.0,2446
721,915721,17012,-708,860,17048.43,32.20,-1.00,-1.0,2376
724,915724,17132,-720,888,17170.10,32.11,-1.00,-1.0,2431
726,915726,17040,-716,724,17070.40,32.15,-1.00,-1.0,2372
729,915729,17056,-640,800,17086.74,32.11,-1.00,-1.0,2431
732,915732,17116,-680,888,17152.50,32.15,-1.00,-1.0,2369
737,915737,17040,-624,836,17071.90,32.15,-1.00,-1.0,2421
740,915740,17060,-688,800,17092.60,32.15,-1.00,-1.0,2371
742,915742,17040,-520,808,17067.07,32.15,-1.00,-1.0,2378
745,915745,17060,-624,928,17096.61,32.20,-1.00,-1.0,2433
748,915748,17092,-764,820,17128.71,32.20,-1.00,-1.0,2372
751,915751,17072,-656,804,17103.51,32.15,-1.00,-1.0,2426
753,915753,17104,-656,808,17135.64,32.11,-1.00,-1.0,2377
756,915756,17084,-568,896,17116.91,32.15,-1.00,-1.0,2420
759,915759,17024,-580,868,17055.98,32.20,-1.00,-1.0,2377
764,915764,17020,-680,848,17054.67,32.11,-1.00,-1.0,2422
767,915767,17036,-620,712,17062.14,32.15,-1.00,-1.0,2383
769,915769,16932,-624,696,16957.78,32.11,-1.00,-1.0,2372
772,915772,16976,-496,936,17009.02,32.15,-1.00,-1.0,2427
775,915775,17044,-596,788,17072.61,32.11,-1.00,-1.0,2360
778,915778,17064,-500,812,17090.62,32.15,-1.00,-1.0,2421
781,915781,17048,-656,724,17075.97,32.25,-1.00,-1.0,2411
783,915783,17028,-664,856,17062.43,32.15,-1.00,-1.0,2437
786,915786,17068,-676,676,17094.75,32.20,-1.00,-1.0,2390
791,915791,17156,-672,860,17190.68,32.11,-1.00,-1.0,2434
794,915794,17040,-552,804,17067.88,32.20,-1.00,-1.0,2386
797,915797,16964,-580,876,16996.50,32.15,-1.00,-1.0,2362
799,915799,17088,-664,904,17124.77,32.15,-1.00,-1.0,2426
802,915802,17124,-668,840,17157.60,32.15,-1.00,-1.0,2370
805,915805,16992,-644,724,17019.61,32.20,-1.00,-1.0,2424
808,915808,17068,-544,828,17096.73,32.06,-1.00,-1.0,2371
810,915810,17052,-568,804,17080.39,32.25,-1.00,-1.0,2417
813,915813,17116,-604,780,17144.41,32.15,-1.00,-1.0,2374
818,915818,17076,-656,848,17109.62,32.20,-1.00,-1.0,2421
821,915821,17096,-592,776,17123.84,32.20,-1.00,-1.0,2373
824,915824,16996,-652,732,17024.25,32.15,-1.00,-1.0,2373
827,915827,17020,-644,916,17056.79,32.15,-1.00,-1.0,2425
829,915829,17032,-536,892,17063.76,32.25,-1.00,-1.0,2379
832,915832,17156,-604,660,17179.31,32.15,-1.00,-1.0,2416
835,915835,17020,-572,884,17052.54,32.15,-1.00,-1.0,2371
838,915838,16976,-584,776,17003.76,32.15,-1.00,-1.0,2419
840,915840,17092,-608,896,17126.27,32.15,-1.00,-1.0,2359
845,915845,17144,-596,940,17180.09,32.15,-1.00,-1.0,2434
848,915848,16976,-632,872,17010.12,32.29,-1.00,-1.0,2385
851,915851,17028,-476,824,17054.57,32.01,-1.00,-1.0,2419
854,915854,17076,-680,792,17107.88,32.15,-1.00,-1.0,2410
856,915856,17004,-560,780,17031.09,32.06,-1.00,-1.0,2377
859,915859,17116,-656,816,17147.99,32.25,-1.00,-1.0,2421
862,915862,17072,-708,752,17103.21,32.06,-1.00,-1.0,2371
865,915865,17008,-660,812,17040.16,32.25,-1.00,-1.0,2422
867,915867,17024,-620,864,17057.18,32.15,-1.00,-1.0,2369
872,915872,17012,-744,848,17049.36,32.20,-1.00,-1.0,2431
875,915875,17120,-600,840,17151.09,32.15,-1.00,-1.0,2374
878,915878,16852,-636,996,16893.38,32.20,-1.00,-1.0,2420
880,915880,17028,-688,824,17061.80,32.15,-1.00,-1.0,2372
883,915883,17116,-556,784,17142.96,32.15,-1.00,-1.0,2373
886,915886,17008,-568,756,17034.27,32.25,-1.00,-1.0,2430
888,915888,17060,-636,696,17086.03,32.25,-1.00,-1.0,2374
891,915891,17104,-692,856,17139.38,32.20,-1.00,-1.0,2417
894,915894,17120,-604,892,17153.86,32.15,-1.00,-1.0,2372
899,915899,17016,-596,880,17049.16,32.25,-1.00,-1.0,2437
902,915902,17040,-724,884,17078.27,32.25,-1.00,-1.0,2376
904,915904,17088,-640,840,17120.60,32.15,-1.00,-1.0,2427
907,915907,17120,-596,780,17148.12,32.25,-1.00,-1.0,2391
910,915910,16992,-700,860,17028.14,32.11,-1.00,-1.0,2366
913,915913,17112,-752,728,17143.98,32.15,-1.00,-1.0,2417
915,915915,17060,-728,820,17095.20,32.11,-1.00,-1.0,2359
918,915918,17008,-560,848,17038.33,32.11,-1.00,-1.0,2416
921,915921,17048,-668,816,17080.59,32.20,-1.00,-1.0,2372
926,915926,17040,-644,780,17070.00,32.06,-1.00,-1.0,2430
929,915929,17056,-620,748,17083.65,32.20,-1.00,-1.0,2378
932,915932,17040,-644,804,17071.11,32.20,-1.00,-1.0,2421
935,915935,17012,-644,820,17043.92,32.20,-1.00,-1.0,2371
937,915937,17064,-680,720,17092.71,32.15,-1.00,-1.0,2364
940,915940,17044,-664,832,17077.21,32.25,-1.00,-1.0,2423
943,915943,17052,-752,876,17091.04,32.15,-1.00,-1.0,2371
945,915945,17016,-680,800,17048.36,32.06,-1.00,-1.0,2432
948,915948,17132,-676,756,17161.99,32.20,-1.00,-1.0,2374
953,915953,17124,-596,920,17159.05,32.20,-1.00,-1.0,2430
956,915956,17032,-624,748,17059.83,32.20,-1.00,-1.0,2374
959,915959,17048,-544,820,17076.38,32.25,-1.00,-1.0,2426
962,915962,16984,-568,892,17016.89,32.20,-1.00,-1.0,2370
964,915964,17072,-548,908,17104.91,32.15,-1.00,-1.0,2373
967,915967,17076,-612,848,17107.99,32.15,-1.00,-1.0,2420
970,915970,17008,-560,828,17037.35,32.15,-1.00,-1.0,2371
972,915972,17028,-652,808,17059.62,32.20,-1.00,-1.0,2426
975,915975,17080,-672,820,17112.87,32.15,-1.00,-1.0,2373
980,915980,16992,-704,884,17029.54,32.25,-1.00,-1.0,2430
983,915983,17040,-556,616,17060.19,32.20,-1.00,-1.0,2373
986,915986,17052,-576,832,17082.00,32.15,-1.00,-1.0,2426
989,915989,17100,-636,684,17125.49,32.15,-1.00,-1.0,2373
991,915991,17012,-640,888,17047.18,32.15,-1.00,-1.0,2379
994,915994,17096,-540,808,17123.60,32.20,-1.00,-1.0,2420
997,915997,17044,-584,876,17076.49,32.20,-1.00,-1.0,2384
1000,916000,17056,-556,824,17084.94,32.11,-1.00,-1.0,2404
1002,916002,17044,-540,884,17075.45,32.15,-1.00,-1.0,2373
1007,916007,17040,-544,820,17068.39,32.25,-1.00,-1.0,2432
1010,916010,17064,-772,824,17101.32,32.06,-1.00,-1.0,2373
1013,916013,17080,-668,956,17119.77,32.15,-1.00,-1.0,2431
1016,916016,16944,-556,696,16967.40,32.15,-1.00,-1.0,2357
1018,916018,16976,-624,900,17011.29,32.15,-1.00,-1.0,2379
1021,916021,17012,-688,744,17042.15,32.20,-1.00,-1.0,2419
1024,916024,17024,-520,728,17047.49,32.20,-1.00,-1.0,2374
1027,916027,17052,-520,736,17075.79,32.20,-1.00,-1.0,2404
1029,916029,17020,-644,752,17048.77,32.20,-1.00,-1.0,2375
1034,916034,16964,-604,888,16997.96,32.25,-1.00,-1.0,2433
1037,916037,17116,-648,836,17148.65,32.15,-1.00,-1.0,2372
1040,916040,17000,-604,824,17030.67,32.11,-1.00,-1.0,2427
1043,916043,17040,-668,764,17070.19,32.25,-1.00,-1.0,2371
1045,916045,17036,-548,836,17065.30,32.20,-1.00,-1.0,2426
1048,916048,17008,-676,1020,17051.96,32.15,-1.00,-1.0,2372
1051,916051,17036,-632,712,17062.58,32.20,-1.00,-1.0,2366
1054,916054,16976,-580,888,17009.10,32.15,-1.00,-1.0,2417
1056,916056,17068,-668,740,17097.09,32.20,-1.00,-1.0,2380
1061,916061,17000,-568,928,17034.78,32.20,-1.00,-1.0,2438
1064,916064,16980,-600,884,17013.58,32.15,-1.00,-1.0,2380
1067,916067,16960,-684,912,16998.27,32.20,-1.00,-1.0,2419
1070,916070,17044,-632,756,17072.46,32.20,-1.00,-1.0,2373
1072,916072,17064,-656,928,17101.80,32.11,-1.00,-1.0,2420
1075,916075,17032,-680,876,17068.06,32.29,-1.00,-1.0,2387
1078,916078,17084,-716,780,17116.78,32.15,-1.00,-1.0,2419
1081,916081,17108,-672,716,17136.16,32.11,-1.00,-1.0,2376
1083,916083,17120,-580,868,17151.80,32.29,-1.00,-1.0,2374
1088,916088,17012,-584,836,17042.54,32.15,-1.00,-1.0,2430
1091,916091,17036,-568,964,17072.70,32.15,-1.00,-1.0,2373
1094,916094,17028,-544,860,17058.38,32.15,-1.00,-1.0,2429
1097,916097,17068,-624,872,17101.65,32.15,-1.00,-1.0,2368
1099,916099,16956,-656,776,16986.42,32.15,-1.00,-1.0,2421
1102,916102,17076,-676,916,17113.91,32.15,-1.00,-1.0,2372
1105,916105,17072,-708,964,17113.85,32.15,-1.00,-1.0,2423
1108,916108,17080,-608,888,17113.87,32.25,-1.00,-1.0,2371
1112,916112,16956,-676,968,16997.06,32.20,-1.00,-1.0,2443
1115,916115,16948,-708,832,16983.17,32.11,-1.00,-1.0,2380
1118,916118,17088,-644,868,17122.15,32.25,-1.00,-1.0,2365
1120,916120,17040,-656,892,17075.94,32.11,-1.00,-1.0,2420
1123,916123,17124,-648,888,17159.25,32.15,-1.00,-1.0,2372
1126,916126,17052,-632,816,17083.21,32.20,-1.00,-1.0,2424
1129,916129,17052,-624,864,17085.27,32.25,-1.00,-1.0,2371
1132,916132,17124,-632,844,17156.43,32.15,-1.00,-1.0,2416
1135,916135,17052,-624,712,17078.26,32.15,-1.00,-1.0,2372
1140,916140,17036,-672,908,17073.41,32.25,-1.00,-1.0,2417
1142,916142,17072,-684,828,17105.75,32.15,-1.00,-1.0,2376
1145,916145,17004,-628,632,17027.33,32.15,-1.00,-1.0,2420
1148,916148,17052,-644,760,17081.07,32.15,-1.00,-1.0,2372
1150,916150,17048,-544,804,17075.62,32.20,-1.00,-1.0,2365
1153,916153,17000,-672,852,17034.60,32.11,-1.00,-1.0,2417
1156,916156,16968,-636,792,16998.38,32.11,-1.00,-1.0,2383
1159,916159,17136,-700,852,17171.44,32.15,-1.00,-1.0,2473
1162,916162,16984,-616,1008,17025.03,32.15,-1.00,-1.0,2367
1167,916167,17056,-680,684,17083.25,32.25,-1.00,-1.0,2422
1169,916169,17024,-636,884,17058.80,32.25,-1.00,-1.0,2376
1172,916172,17084,-680,888,17120.57,32.06,-1.00,-1.0,2425
1175,916175,17016,-592,800,17045.08,32.15,-1.00,-1.0,2370
1178,916178,17060,-596,912,17094.75,32.20,-1.00,-1.0,2421
1180,916180,17116,-644,764,17145.14,32.25,-1.00,-1.0,2370
1183,916183,17044,-544,644,17064.84,32.20,-1.00,-1.0,2369
1186,916186,17052,-628,904,17087.49,32.25,-1.00,-1.0,2423
1189,916189,17088,-508,852,17116.77,32.20,-1.00,-1.0,2370
1194,916194,17036,-552,732,17060.65,32.11,-1.00,-1.0,2424
1196,916196,17068,-544,784,17094.65,32.15,-1.00,-1.0,2380
1199,916199,17164,-580,868,17195.72,32.11,-1.00,-1.0,2424
1202,916202,17064,-632,944,17101.77,32.20,-1.00,-1.0,2370
1205,916205,16952,-708,860,16988.56,32.20,-1.00,-1.0,2420
1207,916207,17104,-560,844,17133.96,32.20,-1.00,-1.0,2370
1210,916210,17024,-556,816,17052.61,32.15,-1.00,-1.0,2375
1213,916213,17032,-644,740,17060.23,32.25,-1.00,-1.0,2434
1216,916216,17016,-636,808,17047.04,32.11,-1.00,-1.0,2370
1221,916221,17020,-728,892,17058.90,32.20,-1.00,-1.0,2422
1223,916223,17052,-568,908,17085.60,32.29,-1.00,-1.0,2383
1226,916226,16992,-652,780,17022.38,32.20,-1.00,-1.0,2423
1229,916229,17076,-632,832,17107.93,32.11,-1.00,-1.0,2370
1232,916232,17012,-688,864,17047.81,32.25,-1.00,-1.0,2420
1234,916234,17152,-624,872,17185.48,32.29,-1.00,-1.0,2370
1237,916237,17120,-648,964,17159.36,32.15,-1.00,-1.0,2419
1240,916240,17032,-644,740,17060.23,32.11,-1.00,-1.0,2371
1243,916243,17016,-596,852,17047.74,32.25,-1.00,-1.0,2367
1248,916248,17104,-620,848,17136.23,32.20,-1.00,-1.0,2423
1251,916251,16944,-648,872,16978.79,32.20,-1.00,-1.0,2384
1253,916253,17052,-624,796,17081.97,32.20,-1.00,-1.0,2422
1256,916256,17076,-704,816,17109.97,32.11,-1.00,-1.0,2371
1259,916259,16984,-616,836,17015.72,32.20,-1.00,-1.0,2427
1262,916262,17056,-580,792,17084.23,32.11,-1.00,-1.0,2369
1264,916264,17156,-672,856,17190.48,32.20,-1.00,-1.0,2420
1267,916267,17104,-716,908,17143.04,32.15,-1.00,-1.0,2358
1272,916272,17048,-632,772,17077.17,32.25,-1.00,-1.0,2412
1275,916275,17168,-692,900,17205.50,32.15,-1.00,-1.0,2386
1277,916277,17028,-556,756,17053.84,32.20,-1.00,-1.0,2369
1280,916280,17024,-608,844,17055.75,32.15,-1.00,-1.0,2424
1283,916283,17084,-696,780,17115.95,32.11,-1.00,-1.0,2371
1286,916286,17036,-624,900,17071.16,32.15,-1.00,-1.0,2421
1288,916288,17028,-568,888,17060.60,32.11,-1.00,-1.0,2370
1291,916291,17032,-620,768,17060.58,32.25,-1.00,-1.0,2420
1294,916294,17092,-696,900,17129.82,32.20,-1.00,-1.0,2370
1299,916299,17088,-648,892,17123.53,32.15,-1.00,-1.0,2422
1301,916301,17092,-664,840,17125.51,32.20,-1.00,-1.0,2375
1304,916304,16964,-632,844,16996.74,32.15,-1.00,-1.0,2428
1307,916307,17052,-648,744,17080.52,32.15,-1.00,-1.0,2377
1309,916309,17056,-644,828,17088.23,32.20,-1.00,-1.0,2376
1312,916312,17172,-648,780,17201.92,32.20,-1.00,-1.0,2419
1315,916315,17072,-528,816,17099.64,32.15,-1.00,-1.0,2373
1318,916318,17072,-620,880,17105.90,32.11,-1.00,-1.0,2425
1321,916321,17024,-604,784,17052.74,32.11,-1.00,-1.0,2370
1325,916325,17080,-784,836,17118.41,32.25,-1.00,-1.0,2424
1328,916328,17124,-576,800,17152.35,32.15,-1.00,-1.0,2380
1331,916331,17000,-640,988,17040.71,32.15,-1.00,-1.0,2430
1334,916334,17072,-652,756,17101.16,32.15,-1.00,-1.0,2369
1336,916336,17060,-720,752,17091.74,32.15,-1.00,-1.0,2422
1339,916339,17092,-688,748,17122.19,32.25,-1.00,-1.0,2370
1342,916342,16980,-648,880,17015.13,32.20,-1.00,-1.0,2367
1345,916345,16988,-532,708,17011.07,32.11,-1.00,-1.0,2422
1348,916348,17080,-632,896,17115.16,32.20,-1.00,-1.0,2369
1353,916353,17176,-652,888,17211.29,32.20,-1.00,-1.0,2427
1355,916355,17048,-656,904,17084.55,32.25,-1.00,-1.0,2379
1358,916358,17056,-616,852,17088.37,32.20,-1.00,-1.0,2422
1361,916361,17052,-700,740,17082.40,32.15,-1.00,-1.0,2378
1364,916364,17044,-668,804,17076.02,32.20,-1.00,-1.0,2432
1366,916366,17072,-656,812,17103.88,32.20,-1.00,-1.0,2377
1369,916369,17124,-644,812,17155.33,32.11,-1.00,-1.0,2419
1372,916372,17036,-552,880,17067.64,32.06,-1.00,-1.0,2359
1375,916375,17192,-592,812,17221.34,32.20,-1.00,-1.0,2367
1380,916380,17104,-680,644,17129.62,32.20,-1.00,-1.0,2432
1382,916382,17076,-700,896,17113.81,32.20,-1.00,-1.0,2384
1385,916385,17020,-592,736,17046.19,32.11,-1.00,-1.0,2422
1388,916388,17032,-588,772,17059.62,32.20,-1.00,-1.0,2378
1391,916391,17032,-644,760,17061.11,32.15,-1.00,-1.0,2422
1393,916393,17000,-596,800,17029.25,32.20,-1.00,-1.0,2375
1396,916396,16936,-600,800,16965.50,32.15,-1.00,-1.0,2420
1399,916399,17116,-680,744,17145.65,32.20,-1.00,-1.0,2376
1402,916402,17020,-648,816,17051.87,32.15,-1.00,-1.0,2366
1407,916407,17064,-576,884,17096.59,32.20,-1.00,-1.0,2425
1409,916409,17040,-596,760,17067.35,32.11,-1.00,-1.0,2391
1412,916412,17120,-648,936,17157.81,32.15,-1.00,-1.0,2422
1415,916415,17064,-548,804,17091.72,32.11,-1.00,-1.0,2373
1418,916418,16976,-628,824,17007.58,32.15,-1.00,-1.0,2424
1420,916420,17080,-660,856,17114.17,32.15,-1.00,-1.0,2369
1423,916423,17112,-584,788,17140.09,32.15,-1.00,-1.0,2420
1426,916426,16984,-716,824,17019.04,32.15,-1.00,-1.0,2372
1431,916431,17044,-644,904,17080.10,32.11,-1.00,-1.0,2431
1434,916434,17060,-520,844,17088.78,32.20,-1.00,-1.0,2384
1436,916436,17016,-520,780,17041.80,32.15,-1.00,-1.0,2366
1439,916439,17100,-636,832,17132.04,32.15,-1.00,-1.0,2424
1442,916442,17008,-604,892,17042.08,32.06,-1.00,-1.0,2369
1445,916445,17056,-568,760,17082.37,32.15,-1.00,-1.0,2407
1447,916447,17120,-668,864,17154.80,32.15,-1.00,-1.0,2370
1450,916450,17036,-676,848,17070.48,32.15,-1.00,-1.0,2420
1453,916453,17008,-704,828,17042.69,32.15,-1.00,-1.0,2377
1458,916458,17028,-664,1060,17073.88,32.25,-1.00,-1.0,2423
1461,916461,17044,-644,768,17073.44,32.15,-1.00,-1.0,2380
1463,916463,17080,-704,844,17115.32,32.20,-1.00,-1.0,2424
1466,916466,17028,-648,896,17063.87,32.25,-1.00,-1.0,2370
1469,916469,17048,-616,764,17076.22,32.11,-1.00,-1.0,2367
1471,916471,17112,-560,764,17138.20,32.15,-1.00,-1.0,2430
1474,916474,17040,-560,852,17070.47,32.20,-1.00,-1.0,2381
1477,916477,17000,-636,800,17030.69,32.15,-1.00,-1.0,2409
1480,916480,17084,-612,816,17114.42,32.11,-1.00,-1.0,2373
1485,916485,17092,-660,752,17121.26,32.15,-1.00,-1.0,2431
1488,916488,17120,-656,852,17153.74,32.25,-1.00,-1.0,2380
1490,916490,17088,-628,632,17111.21,32.20,-1.00,-1.0,2422
1493,916493,17008,-628,860,17041.30,32.20,-1.00,-1.0,2370
1496,916496,17016,-588,804,17045.13,32.11,-1.00,-1.0,2423
1499,916499,16956,-640,844,16989.05,32.20,-1.00,-1.0,2369
1501,916501,17084,-692,868,17120.03,32.06,-1.00,-1.0,2372
1504,916504,17040,-640,908,17076.17,32.15,-1.00,-1.0,2410
1507,916507,17072,-704,900,17110.20,32.20,-1.00,-1.0,2380
1512,916512,17044,-632,912,17080.08,32.15,-1.00,-1.0,2430
1514,916514,17056,-644,724,17083.50,32.15,-1.00,-1.0,2384
1517,916517,17088,-648,780,17118.06,32.25,-1.00,-1.0,2422
1520,916520,17096,-576,796,17124.21,32.25,-1.00,-1.0,2378
1523,916523,17084,-708,896,17122.12,32.15,-1.00,-1.0,2422
1526,916526,17000,-596,872,17032.78,32.20,-1.00,-1.0,2403
1528,916528,17080,-560,872,17111.41,32.15,-1.00,-1.0,2433
1531,916531,17064,-716,920,17103.78,32.15,-1.00,-1.0,2390
1534,916534,17040,-696,756,17070.96,32.15,-1.00,-1.0,2374
1539,916539,17044,-532,900,17076.04,32.20,-1.00,-1.0,2420
1541,916541,17048,-760,888,17088.02,32.20,-1.00,-1.0,2382
1544,916544,17060,-556,876,17091.52,32.11,-1.00,-1.0,2420
1547,916547,17032,-644,672,17057.41,32.20,-1.00,-1.0,2372
1550,916550,17184,-628,812,17214.63,32.20,-1.00,-1.0,2417
1552,916552,17176,-612,776,17204.41,32.20,-1.00,-1.0,2372
1555,916555,17060,-592,812,17089.57,32.15,-1.00,-1.0,2417
1558,916558,17104,-584,936,17139.54,32.15,-1.00,-1.0,2359
1563,916563,17028,-584,800,17056.78,32.15,-1.00,-1.0,2425
1566,916566,17120,-656,748,17148.88,32.20,-1.00,-1.0,2377
1568,916568,17036,-620,924,17072.30,32.06,-1.00,-1.0,2366
1571,916571,17048,-564,740,17073.37,32.20,-1.00,-1.0,2424
1574,916574,17060,-704,808,17093.63,32.25,-1.00,-1.0,2372
1577,916577,16904,-604,756,16931.67,32.11,-1.00,-1.0,2416
1579,916579,17000,-572,680,17023.21,32.29,-1.00,-1.0,2371
1582,916582,17088,-580,728,17113.33,32.11,-1.00,-1.0,2417
1585,916585,17092,-684,836,17126.10,32.15,-1.00,-1.0,2361
1590,916590,17064,-628,852,17096.79,32.15,-1.00,-1.0,2424
1593,916593,17108,-608,832,17139.01,32.15,-1.00,-1.0,2377
1595,916595,16992,-616,776,17020.86,32.20,-1.00,-1.0,2433
1598,916598,17000,-600,724,17025.98,32.25,-1.00,-1.0,2387
1601,916601,17100,-568,760,17126.30,32.11,-1.00,-1.0,2367
1604,916604,16996,-640,864,17029.98,32.15,-1.00,-1.0,2416
1606,916606,17032,-596,692,17056.47,32.20,-1.00,-1.0,2372
1609,916609,16968,-632,780,16997.67,32.15,-1.00,-1.0,2417
1612,916612,16976,-652,868,17010.68,32.20,-1.00,-1.0,2373
1617,916617,16984,-748,928,17025.77,32.20,-1.00,-1.0,2420
1620,916620,17056,-632,888,17090.79,32.15,-1.00,-1.0,2385
1623,916623,17112,-692,732,17141.62,32.11,-1.00,-1.0,2429
1625,916625,16960,-640,964,16999.43,32.11,-1.00,-1.0,2360
1628,916628,17008,-620,860,17041.01,32.20,-1.00,-1.0,2372
1631,916631,17152,-580,728,17177.24,32.15,-1.00,-1.0,2416
1633,916633,17056,-612,756,17083.71,32.15,-1.00,-1.0,2371
1636,916636,16944,-648,796,16975.06,32.15,-1.00,-1.0,2416
1639,916639,16968,-524,744,16992.38,32.11,-1.00,-1.0,2372
1644,916644,17072,-736,840,17108.49,32.11,-1.00,-1.0,2422
1647,916647,17064,-528,884,17095.04,32.15,-1.00,-1.0,2383
1650,916650,17068,-760,868,17106.95,32.11,-1.00,-1.0,2420
1652,916652,16992,-636,628,17015.49,32.11,-1.00,-1.0,2372
1655,916655,17064,-660,644,17088.90,32.25,-1.00,-1.0,2416
1658,916658,16924,-632,768,16953.20,32.20,-1.00,-1.0,2376
1660,916660,17068,-568,828,17097.51,32.15,-1.00,-1.0,2367
1663,916663,17136,-640,712,17162.72,32.20,-1.00,-1.0,2433
1666,916666,17064,-576,864,17095.57,32.15,-1.00,-1.0,2374
1671,916671,16960,-576,796,16988.44,32.20,-1.00,-1.0,2430
1674,916674,17088,-700,936,17127.93,32.11,-1.00,-1.0,2373
1677,916677,17144,-564,684,17166.91,32.20,-1.00,-1.0,2422
1679,916679,16992,-644,708,17018.93,32.20,-1.00,-1.0,2377
1682,916682,17068,-568,796,17095.99,32.20,-1.00,-1.0,2417
1685,916685,16972,-592,896,17005.94,32.20,-1.00,-1.0,2374
1688,916688,17188,-616,940,17224.70,32.11,-1.00,-1.0,2417
1690,916690,17016,-592,912,17050.70,32.20,-1.00,-1.0,2376
1693,916693,17024,-600,992,17063.43,32.15,-1.00,-1.0,2365
1698,916698,17068,-588,760,17095.03,32.15,-1.00,-1.0,2419
1701,916701,17080,-592,788,17108.41,32.11,-1.00,-1.0,2383
1704,916704,17136,-564,644,17157.37,32.15,-1.00,-1.0,2420
1706,916706,17080,-564,784,17107.28,32.25,-1.00,-1.0,2372
1709,916709,17124,-596,764,17151.39,32.15,-1.00,-1.0,2416
1712,916712,17020,-692,748,17050.48,32.15,-1.00,-1.0,2371
1715,916715,16976,-648,908,17012.61,32.06,-1.00,-1.0,2417
1717,916717,17124,-640,864,17157.72,32.15,-1.00,-1.0,2371
1722,916722,17044,-652,920,17081.26,32.15,-1.00,-1.0,2433
1725,916725,17068,-588,792,17096.48,32.15,-1.00,-1.0,2387
1727,916727,17096,-576,792,17124.03,32.20,-1.00,-1.0,2373
1730,916730,17008,-672,788,17039.50,32.06,-1.00,-1.0,2418
1733,916733,17008,-584,892,17041.38,32.20,-1.00,-1.0,2362
1736,916736,17060,-532,840,17088.95,32.25,-1.00,-1.0,2418
1738,916738,16956,-604,872,16989.15,32.20,-1.00,-1.0,2375
1741,916741,17104,-700,684,17131.98,32.15,-1.00,-1.0,2417
1744,916744,17012,-656,912,17049.05,32.20,-1.00,-1.0,2372
1749,916749,17064,-644,720,17091.32,32.25,-1.00,-1.0,2432
1752,916752,17092,-636,828,17123.86,32.15,-1.00,-1.0,2377
1754,916754,17064,-564,824,17093.19,32.20,-1.00,-1.0,2422
1757,916757,17044,-664,680,17070.48,32.15,-1.00,-1.0,2372
1760,916760,17092,-604,896,17126.12,32.20,-1.00,-1.0,2369
1762,916762,17072,-660,860,17106.38,32.25,-1.00,-1.0,2419
1765,916765,17076,-592,940,17112.10,32.11,-1.00,-1.0,2386
1768,916768,17092,-556,836,17121.46,32.20,-1.00,-1.0,2431
1771,916771,17064,-564,852,17094.56,32.11,-1.00,-1.0,2379
1776,916776,17016,-624,824,17047.36,32.20,-1.00,-1.0,2425
1779,916779,16972,-612,720,16998.29,32.15,-1.00,-1.0,2374
1782,916782,17044,-608,876,17077.32,32.20,-1.00,-1.0,2424
1784,916784,16992,-604,776,17020.43,32.11,-1.00,-1.0,2372
1787,916787,17008,-556,836,17037.61,32.11,-1.00,-1.0,2417
1790,916790,17088,-540,600,17107.05,32.11,-1.00,-1.0,2380
1792,916792,17020,-708,820,17054.44,32.25,-1.00,-1.0,2373
1795,916795,17076,-580,852,17107.08,32.15,-1.00,-1.0,2416
1798,916798,17068,-616,780,17096.91,32.06,-1.00,-1.0,2386
1803,916803,17044,-640,852,17077.28,32.20,-1.00,-1.0,2424
1806,916806,17100,-568,996,17138.40,32.11,-1.00,-1.0,2386
1809,916809,17136,-596,788,17164.46,32.25,-1.00,-1.0,2430
1811,916811,17044,-720,816,17078.71,32.20,-1.00,-1.0,2377
1814,916814,17052,-696,924,17091.19,32.15,-1.00,-1.0,2416
1817,916817,17156,-592,772,17183.56,32.20,-1.00,-1.0,2379
1820,916820,17084,-576,756,17110.42,32.15,-1.00,-1.0,2366
1822,916822,17076,-552,856,17106.35,32.20,-1.00,-1.0,2417
1825,916825,17040,-644,892,17075.48,32.06,-1.00,-1.0,2379
1830,916830,17112,-592,792,17140.54,32.15,-1.00,-1.0,2439
1833,916833,17104,-488,760,17127.83,32.11,-1.00,-1.0,2381
1836,916836,17076,-496,872,17105.44,32.15,-1.00,-1.0,2443
1838,916838,17060,-552,668,17081.99,32.06,-1.00,-1.0,2380
1841,916841,17076,-620,892,17110.52,32.06,-1.00,-1.0,2416
1844,916844,16988,-624,792,17017.90,32.15,-1.00,-1.0,2375
1847,916847,17016,-564,792,17043.76,32.25,-1.00,-1.0,2418
1849,916849,17100,-580,864,17131.63,32.06,-1.00,-1.0,2376
1852,916852,17056,-600,840,17087.21,32.25,-1.00,-1.0,2368
1857,916857,17064,-592,688,17088.12,32.15,-1.00,-1.0,2438
1860,916860,17168,-668,1032,17211.96,32.15,-1.00,-1.0,2381
1863,916863,17016,-616,912,17051.55,32.15,-1.00,-1.0,2438
1865,916865,17052,-592,836,17082.74,32.15,-1.00,-1.0,2381
1868,916868,17084,-692,996,17126.99,32.11,-1.00,-1.0,2417
1871,916871,17052,-592,864,17084.13,32.06,-1.00,-1.0,2375
1874,916874,17092,-676,868,17127.37,32.20,-1.00,-1.0,2418
1876,916876,17052,-556,784,17079.07,32.15,-1.00,-1.0,2375
1881,916881,17056,-656,780,17086.42,32.06,-1.00,-1.0,2433
1884,916884,17068,-544,748,17093.04,32.25,-1.00,-1.0,2385
1887,916887,17088,-656,836,17121.01,32.20,-1.00,-1.0,2366
1890,916890,17104,-660,776,17134.31,32.20,-1.00,-1.0,2420
1892,916892,17048,-768,904,17089.22,32.01,-1.00,-1.0,2372
1895,916895,17012,-508,760,17036.54,32.11,-1.00,-1.0,2417
1898,916898,17012,-596,788,17040.67,32.20,-1.00,-1.0,2376
1901,916901,17008,-600,788,17036.81,32.11,-1.00,-1.0,2417
1903,916903,16956,-524,892,16987.53,32.11,-1.00,-1.0,2372
1908,916908,17084,-556,884,17115.89,32.20,-1.00,-1.0,2424
1911,916911,17084,-612,1016,17125.12,32.15,-1.00,-1.0,2378
1914,916914,17048,-628,872,17081.83,32.20,-1.00,-1.0,2420
1916,916916,17044,-660,960,17083.77,32.25,-1.00,-1.0,2355
1919,916919,17028,-608,748,17055.26,32.11,-1.00,-1.0,2365
1922,916922,17028,-724,792,17061.78,32.25,-1.00,-1.0,2423
1925,916925,17048,-660,836,17081.24,32.20,-1.00,-1.0,2357
1927,916927,17116,-632,928,17152.79,32.25,-1.00,-1.0,2419
1930,916930,17108,-656,844,17141.36,32.20,-1.00,-1.0,2372
1935,916935,17032,-708,1048,17078.89,32.15,-1.00,-1.0,2424
1938,916938,17064,-600,864,17096.39,32.25,-1.00,-1.0,2381
1941,916941,17104,-600,784,17132.47,32.15,-1.00,-1.0,2432
1943,916943,16996,-520,948,17030.36,32.25,-1.00,-1.0,2373
1946,916946,16972,-640,816,17003.65,32.20,-1.00,-1.0,2431
1949,916949,17120,-716,836,17155.35,32.15,-1.00,-1.0,2379
1952,916952,17012,-680,792,17044.00,32.20,-1.00,-1.0,2370
1954,916954,17092,-632,876,17126.10,32.15,-1.00,-1.0,2417
1957,916957,17124,-624,808,17154.40,32.15,-1.00,-1.0,2375
1962,916962,17044,-632,856,17077.18,32.20,-1.00,-1.0,2426
1965,916965,17020,-600,788,17048.79,32.11,-1.00,-1.0,2380
1968,916968,17080,-684,928,17118.86,32.20,-1.00,-1.0,2420
1970,916970,17152,-552,812,17180.08,32.20,-1.00,-1.0,2372
1973,916973,17080,-712,800,17113.54,32.15,-1.00,-1.0,2416
1976,916976,17044,-716,748,17075.42,32.20,-1.00,-1.0,2372
1979,916979,17020,-612,888,17054.13,32.15,-1.00,-1.0,2417
1981,916981,17028,-644,784,17058.20,32.15,-1.00,-1.0,2375
1984,916984,16976,-568,804,17004.52,32.15,-1.00,-1.0,2372
1989,916989,17096,-644,820,17127.77,32.15,-1.00,-1.0,2424
1992,916992,17104,-640,784,17133.92,32.15,-1.00,-1.0,2377
1995,916995,17064,-644,808,17095.25,32.15,-1.00,-1.0,2420
1998,916998,17052,-656,656,17077.22,32.15,-1.00,-1.0,2370
2000,917000,17024,-636,912,17060.27,32.15,-1.00,-1.0,2420
2003,917003,17008,-560,892,17040.58,32.15,-1.00,-1.0,2372
2006,917006,16956,-624,728,16983.09,32.06,-1.00,-1.0,2420
2009,917009,17064,-568,876,17095.91,32.25,-1.00,-1.0,2370
2014,917014,16920,-712,696,16949.27,32.15,-1.00,-1.0,2424
2016,917016,17060,-636,724,17087.20,32.11,-1.00,-1.0,2378
2019,917019,16984,-656,856,17018.21,32.25,-1.00,-1.0,2371
2022,917022,16996,-604,792,17025.16,32.20,-1.00,-1.0,2433
2024,917024,16992,-656,740,17020.75,32.25,-1.00,-1.0,2376
2027,917027,17020,-600,740,17046.64,32.11,-1.00,-1.0,2417
2030,917030,17028,-656,832,17060.93,32.20,-1.00,-1.0,2378
2033,917033,17088,-576,768,17114.95,32.20,-1.00,-1.0,2433
2035,917035,17040,-600,776,17068.21,32.20,-1.00,-1.0,2382
2040,917040,17092,-680,764,17122.57,32.20,-1.00,-1.0,2434
2043,917043,17052,-608,780,17080.65,32.15,-1.00,-1.0,2369
2046,917046,17060,-656,916,17097.16,32.20,-1.00,-1.0,2366
2049,917049,17192,-628,796,17221.87,32.25,-1.00,-1.0,2418
2051,917051,17024,-604,792,17053.11,32.20,-1.00,-1.0,2379
2054,917054,17088,-640,836,17120.40,32.15,-1.00,-1.0,2416
2057,917057,17084,-616,852,17116.32,32.20,-1.00,-1.0,2372
2060,917060,17000,-644,712,17027.09,32.25,-1.00,-1.0,2417
2062,917062,17000,-628,1020,17042.15,32.20,-1.00,-1.0,2381
2067,917067,17052,-700,724,17081.71,32.11,-1.00,-1.0,2433
2070,917070,17052,-628,784,17081.56,32.20,-1.00,-1.0,2384
2073,917073,17036,-624,880,17070.12,32.15,-1.00,-1.0,2423
2076,917076,17032,-604,812,17062.04,32.20,-1.00,-1.0,2376
2078,917078,17132,-664,980,17172.85,32.15,-1.00,-1.0,2365
2081,917081,17028,-716,832,17063.34,32.15,-1.00,-1.0,2417
2084,917084,16972,-680,884,17008.61,32.15,-1.00,-1.0,2372
2087,917087,17080,-648,824,17112.14,32.11,-1.00,-1.0,2416
2089,917089,17036,-576,716,17060.77,32.15,-1.00,-1.0,2380
2095,917095,17096,-632,768,17124.91,32.20,-1.00,-1.0,2425
2097,917097,17104,-648,772,17133.67,32.15,-1.00,-1.0,2381
2100,917100,17056,-584,816,17085.49,32.20,-1.00,-1.0,2432
2103,917103,17012,-672,720,17040.48,32.20,-1.00,-1.0,2379
2106,917106,17088,-604,860,17120.29,32.15,-1.00,-1.0,2433
2108,917108,17076,-564,848,17106.34,32.20,-1.00,-1.0,2382
2111,917111,17124,-632,936,17161.20,32.15,-1.00,-1.0,2364
2114,917114,17048,-688,988,17090.46,32.29,-1.00,-1.0,2424
2117,917117,17140,-624,888,17174.33,32.15,-1.00,-1.0,2371
2122,917122,17052,-620,816,17082.77,32.15,-1.00,-1.0,2426
2124,917124,17100,-640,924,17136.90,32.15,-1.00,-1.0,2379
2127,917127,17052,-720,904,17091.12,32.15,-1.00,-1.0,2419
2130,917130,17076,-652,952,17114.94,32.15,-1.00,-1.0,2372
2133,917133,17040,-556,828,17069.16,32.06,-1.00,-1.0,2417
2135,917135,17008,-616,920,17044.00,32.15,-1.00,-1.0,2375
2138,917138,17144,-632,764,17172.65,32.15,-1.00,-1.0,2416
2141,917141,17056,-616,848,17088.17,32.15,-1.00,-1.0,2374
2144,917144,17128,-660,972,17168.25,32.15,-1.00,-1.0,2366
2148,917148,17096,-652,720,17123.57,32.15,-1.00,-1.0,2425
2151,917151,17116,-652,784,17146.35,32.25,-1.00,-1.0,2360
2154,917154,16992,-656,888,17027.83,32.11,-1.00,-1.0,2431
2157,917157,17028,-720,824,17063.12,32.06,-1.00,-1.0,2371
2159,917159,17152,-672,724,17180.42,32.11,-1.00,-1.0,2420
2162,917162,16956,-692,860,16991.89,32.11,-1.00,-1.0,2372
2165,917165,17076,-644,860,17109.77,32.20,-1.00,-1.0,2424
2168,917168,17052,-596,872,17084.68,32.20,-1.00,-1.0,2371
2172,917172,16996,-564,852,17026.69,32.25,-1.00,-1.0,2418
2175,917175,17092,-616,860,17124.71,32.25,-1.00,-1.0,2385
2178,917178,17040,-560,780,17067.03,32.20,-1.00,-1.0,2365
2180,917180,17032,-604,956,17069.50,32.20,-1.00,-1.0,2424
2183,917183,17032,-644,768,17061.46,32.11,-1.00,-1.0,2376
2186,917186,17132,-656,764,17161.57,32.20,-1.00,-1.0,2424
2189,917189,16992,-568,704,17016.06,32.20,-1.00,-1.0,2371
2192,917192,17136,-536,796,17162.85,32.11,-1.00,-1.0,2419
2195,917195,16968,-600,880,17001.39,32.11,-1.00,-1.0,2373
2200,917200,17020,-704,792,17052.96,32.11,-1.00,-1.0,2425
2202,917202,17064,-632,756,17092.43,32.15,-1.00,-1.0,2378
2205,917205,17016,-548,820,17044.56,32.20,-1.00,-1.0,2419
2208,917208,17084,-544,736,17108.50,32.11,-1.00,-1.0,2372
2210,917210,16992,-572,912,17026.07,32.15,-1.00,-1.0,2373
2213,917213,17056,-496,852,17084.47,32.15,-1.00,-1.0,2426
2216,917216,17024,-676,820,17057.14,32.25,-1.00,-1.0,2380
2219,917219,17120,-628,844,17152.29,32.25,-1.00,-1.0,2432
2222,917222,16972,-632,864,17005.73,32.20,-1.00,-1.0,2371
2227,917227,16992,-612,748,17019.46,32.20,-1.00,-1.0,2424
2229,917229,17064,-628,772,17092.99,32.15,-1.00,-1.0,2369
2232,917232,17028,-680,804,17060.53,32.20,-1.00,-1.0,2419
2235,917235,17084,-604,840,17115.30,32.20,-1.00,-1.0,2380
2238,917238,17096,-668,928,17134.20,32.15,-1.00,-1.0,2417
2240,917240,17088,-596,700,17112.71,32.20,-1.00,-1.0,2375
2243,917243,17108,-584,656,17130.53,32.15,-1.00,-1.0,2373
2246,917246,16940,-568,760,16966.55,32.20,-1.00,-1.0,2431
2249,917249,17008,-672,780,17039.13,32.25,-1.00,-1.0,2370
2254,917254,17076,-636,740,17103.86,32.11,-1.00,-1.0,2411
2256,917256,17104,-568,928,17138.57,32.11,-1.00,-1.0,2375
2259,917259,16984,-604,888,17017.92,32.25,-1.00,-1.0,2418
2262,917262,16964,-604,840,16995.52,32.20,-1.00,-1.0,2372
2265,917265,17048,-660,784,17078.78,32.15,-1.00,-1.0,2417
2267,917267,17048,-588,880,17080.82,32.20,-1.00,-1.0,2372
2270,917270,16976,-668,808,17008.34,32.15,-1.00,-1.0,2373
2273,917273,17080,-676,820,17113.03,32.20,-1.00,-1.0,2429
2276,917276,17108,-544,764,17133.69,32.15,-1.00,-1.0,2373
2281,917281,17080,-672,792,17111.55,32.25,-1.00,-1.0,2424
2283,917283,17004,-668,952,17043.72,32.06,-1.00,-1.0,2377
2286,917286,17028,-580,728,17053.42,32.15,-1.00,-1.0,2435
2289,917289,17024,-744,836,17060.74,32.15,-1.00,-1.0,2375
2292,917292,16948,-696,800,16981.14,32.20,-1.00,-1.0,2428
2294,917294,17068,-628,872,17101.79,32.15,-1.00,-1.0,2373
2297,917297,17028,-644,804,17059.13,32.15,-1.00,-1.0,2431
2300,917300,17140,-664,732,17168.47,32.15,-1.00,-1.0,2379
2303,917303,17068,-612,900,17102.67,32.15,-1.00,-1.0,2367
2308,917308,17128,-612,800,17157.59,32.15,-1.00,-1.0,2424
2310,917310,17076,-672,948,17115.49,32.15,-1.00,-1.0,2373
2313,917313,17096,-588,812,17125.37,32.15,-1.00,-1.0,2426
2316,917316,17088,-652,692,17114.43,32.15,-1.00,-1.0,2374
2319,917319,17120,-572,808,17148.60,32.20,-1.00,-1.0,2429
2321,917321,17072,-648,800,17103.01,32.25,-1.00,-1.0,2377
2324,917324,17144,-596,768,17171.54,32.11,-1.00,-1.0,2431
2327,917327,17096,-624,772,17124.79,32.15,-1.00,-1.0,2377
2332,917332,17068,-628,884,17102.41,32.06,-1.00,-1.0,2436
2335,917335,17144,-620,776,17172.75,32.15,-1.00,-1.0,2377
2337,917337,17080,-640,896,17115.46,32.20,-1.00,-1.0,2359
2340,917340,17028,-688,936,17067.58,32.20,-1.00,-1.0,2419
2343,917343,17148,-588,792,17176.35,32.20,-1.00,-1.0,2374
2346,917346,17108,-580,740,17133.82,32.25,-1.00,-1.0,2417
2348,917348,17100,-656,740,17128.57,32.20,-1.00,-1.0,2359
2351,917351,17036,-684,764,17066.83,32.20,-1.00,-1.0,2416
2354,917354,16992,-656,748,17021.10,32.11,-1.00,-1.0,2372
2359,917359,17060,-684,824,17093.58,32.25,-1.00,-1.0,2424
2361,917361,17104,-572,768,17130.79,32.15,-1.00,-1.0,2378
2364,917364,17120,-692,808,17153.02,32.06,-1.00,-1.0,2419
2367,917367,17028,-580,808,17057.02,32.25,-1.00,-1.0,2372
2369,917369,16972,-724,736,17003.37,32.11,-1.00,-1.0,2370
2372,917372,17076,-644,856,17109.57,32.20,-1.00,-1.0,2426
2375,917375,17040,-692,772,17071.51,32.20,-1.00,-1.0,2379
2378,917378,17024,-652,740,17052.54,32.25,-1.00,-1.0,2417
2381,917381,17068,-664,816,17100.39,32.25,-1.00,-1.0,2369
2385,917385,17024,-548,800,17051.59,32.11,-1.00,-1.0,2436
2388,917388,17048,-592,920,17083.07,32.15,-1.00,-1.0,2384
2391,917391,17048,-620,832,17079.55,32.11,-1.00,-1.0,2422
2394,917394,17088,-696,768,17119.40,32.20,-1.00,-1.0,2373
2397,917397,17012,-584,752,17038.62,32.15,-1.00,-1.0,2424
2399,917399,17148,-572,764,17174.54,32.20,-1.00,-1.0,2388
2402,917402,17116,-532,808,17143.32,32.15,-1.00,-1.0,2366
2405,917405,17076,-696,712,17105.00,32.15,-1.00,-1.0,2425
2408,917408,17020,-704,888,17057.68,32.15,-1.00,-1.0,2370
2413,917413,17016,-552,748,17041.38,32.25,-1.00,-1.0,2424
2416,917416,17036,-656,720,17063.82,32.25,-1.00,-1.0,2416
2418,917418,17068,-632,632,17091.39,32.15,-1.00,-1.0,2431
2421,917421,17064,-592,828,17094.33,32.20,-1.00,-1.0,2387
2424,917424,17036,-684,864,17071.60,32.15,-1.00,-1.0,2418
2427,917427,17052,-740,752,17084.61,32.11,-1.00,-1.0,2377
2430,917430,17064,-484,736,17086.72,32.15,-1.00,-1.0,2405
2432,917432,16976,-656,844,17009.62,32.11,-1.00,-1.0,2387
2435,917435,17012,-548,752,17037.43,32.25,-1.00,-1.0,2366
2440,917440,17028,-616,836,17059.63,32.15,-1.00,-1.0,2425
2442,917442,17108,-560,812,17136.41,32.15,-1.00,-1.0,2359
2445,917445,17052,-644,780,17081.97,32.25,-1.00,-1.0,2425
2448,917448,17052,-632,964,17090.92,32.15,-1.00,-1.0,2377
2451,917451,17028,-740,760,17061.01,32.20,-1.00,-1.0,2428
2454,917454,16944,-684,912,16982.31,32.15,-1.00,-1.0,2366
2456,917456,17080,-624,900,17115.07,32.29,-1.00,-1.0,2419
2459,917459,17100,-564,836,17129.71,32.06,-1.00,-1.0,2369
2462,917462,17124,-636,960,17162.68,32.11,-1.00,-1.0,2373
2467,917467,17020,-660,920,17057.62,32.20,-1.00,-1.0,2422
2470,917470,16960,-644,708,16986.98,32.06,-1.00,-1.0,2376
2472,917472,16968,-700,844,17003.39,32.20,-1.00,-1.0,2429
2475,917475,17168,-604,792,17196.87,32.25,-1.00,-1.0,2370
2478,917478,16984,-628,856,17017.15,32.20,-1.00,-1.0,2427
2481,917481,17036,-556,792,17063.46,32.20,-1.00,-1.0,2369
2483,917483,17136,-476,744,17158.75,32.11,-1.00,-1.0,2421
2486,917486,17076,-708,840,17111.30,32.25,-1.00,-1.0,2369
2491,917491,17164,-636,772,17193.12,32.06,-1.00,-1.0,2423
2494,917494,17052,-656,764,17081.71,32.06,-1.00,-1.0,2377
2496,917496,17072,-672,720,17100.38,32.20,-1.00,-1.0,2367
2499,917499,16952,-608,904,16986.97,32.25,-1.00,-1.0,2441
2502,917502,17108,-752,860,17146.10,32.20,-1.00,-1.0,2377
2505,917505,17016,-608,864,17048.77,32.15,-1.00,-1.0,2429
2507,917507,17088,-520,936,17121.51,32.15,-1.00,-1.0,2375
2510,917510,17096,-644,748,17124.47,32.15,-1.00,-1.0,2420
2513,917513,17108,-692,776,17139.57,32.15,-1.00,-1.0,2376
2520,917520,17072,-592,764,17099.34,32.15,-1.00,-1.0,2412
2523,917523,17060,-616,860,17092.77,32.25,-1.00,-1.0,2382
2526,917526,17060,-660,956,17099.51,32.15,-1.00,-1.0,2429
2528,917528,16964,-628,856,16997.19,32.15,-1.00,-1.0,2372
2531,917531,17076,-672,816,17108.69,32.20,-1.00,-1.0,2366
2534,917534,17048,-720,888,17086.29,32.11,-1.00,-1.0,2419
2536,917536,16964,-600,800,16993.45,32.20,-1.00,-1.0,2356
2539,917539,17148,-684,784,17179.54,32.11,-1.00,-1.0,2419
2542,917542,17032,-604,832,17063.00,32.20,-1.00,-1.0,2369
2547,917547,17004,-620,792,17033.72,32.20,-1.00,-1.0,2422
2549,917549,17024,-636,812,17055.22,32.15,-1.00,-1.0,2377
2552,917552,17020,-644,904,17056.15,32.20,-1.00,-1.0,2432
2555,917555,17016,-720,852,17052.52,32.25,-1.00,-1.0,2372
2558,917558,17072,-624,640,17095.38,32.20,-1.00,-1.0,2421
2560,917560,17012,-596,832,17042.76,32.11,-1.00,-1.0,2353
2563,917563,17068,-652,832,17100.70,32.11,-1.00,-1.0,2364
2566,917566,17056,-564,844,17086.18,32.15,-1.00,-1.0,2427
2569,917569,17100,-660,840,17133.34,32.29,-1.00,-1.0,2369
2574,917574,16980,-700,732,17010.18,32.15,-1.00,-1.0,2422
2577,917577,16956,-564,868,16987.57,32.11,-1.00,-1.0,2385
2580,917580,17008,-600,868,17040.70,32.15,-1.00,-1.0,2427
2582,917582,16948,-668,816,16980.78,32.06,-1.00,-1.0,2370
2585,917585,17032,-576,1024,17072.47,32.15,-1.00,-1.0,2434
2588,917588,16996,-624,804,17026.45,32.15,-1.00,-1.0,2380
2591,917591,17104,-616,860,17136.68,32.15,-1.00,-1.0,2431
2593,917593,17068,-644,824,17100.01,32.25,-1.00,-1.0,2372
2596,917596,17072,-724,720,17102.51,32.20,-1.00,-1.0,2367
2601,917601,17016,-556,776,17042.76,32.15,-1.00,-1.0,2428
2603,917603,16964,-600,776,16992.34,32.15,-1.00,-1.0,2381
2606,917606,16940,-644,792,16970.73,32.20,-1.00,-1.0,2433
2609,917609,17080,-624,704,17105.89,32.15,-1.00,-1.0,2373
2612,917612,17080,-580,704,17104.34,32.20,-1.00,-1.0,2424
2614,917614,16976,-636,856,17009.46,32.20,-1.00,-1.0,2376
2617,917617,17020,-612,804,17049.97,32.20,-1.00,-1.0,2419
2620,917620,17092,-680,852,17126.73,32.15,-1.00,-1.0,2372
2625,917625,17036,-564,688,17059.21,32.15,-1.00,-1.0,2429
2628,917628,17068,-520,744,17092.12,32.15,-1.00,-1.0,2373
2630,917630,16988,-664,764,17018.13,32.20,-1.00,-1.0,2358
2633,917633,17004,-624,780,17033.31,32.11,-1.00,-1.0,2427
2636,917636,17100,-588,928,17135.25,32.20,-1.00,-1.0,2372
2639,917639,17024,-584,824,17053.93,32.20,-1.00,-1.0,2419
2641,917641,17064,-656,756,17093.33,32.20,-1.00,-1.0,2369
2644,917644,17080,-640,868,17114.01,32.15,-1.00,-1.0,2419
2647,917647,17068,-600,876,17100.99,32.11,-1.00,-1.0,2370
2652,917652,17008,-536,760,17033.41,32.20,-1.00,-1.0,2428
2654,917654,17016,-640,740,17044.10,32.20,-1.00,-1.0,2378
2657,917657,16956,-628,724,16983.06,32.11,-1.00,-1.0,2353
2660,917660,17028,-628,896,17063.12,32.15,-1.00,-1.0,2434
2663,917663,17052,-548,852,17082.06,32.15,-1.00,-1.0,2368
2665,917665,17072,-612,764,17100.04,32.15,-1.00,-1.0,2421
2668,917668,17096,-544,792,17122.98,32.25,-1.00,-1.0,2370
2671,917671,17096,-704,816,17129.94,32.25,-1.00,-1.0,2427
2674,917674,17048,-552,768,17074.21,32.25,-1.00,-1.0,2368
2679,917679,17040,-672,896,17076.77,32.20,-1.00,-1.0,2424
2681,917681,17072,-560,904,17105.09,32.20,-1.00,-1.0,2379
2684,917684,17080,-608,752,17107.35,32.15,-1.00,-1.0,2427
2687,917687,17076,-736,840,17112.48,32.20,-1.00,-1.0,2370
2689,917689,17036,-648,844,17069.20,32.25,-1.00,-1.0,2365
2692,917692,17080,-668,752,17109.59,32.11,-1.00,-1.0,2419
2695,917695,16996,-580,848,17027.02,32.25,-1.00,-1.0,2376
2698,917698,17132,-656,740,17160.52,32.11,-1.00,-1.0,2419
2700,917700,17040,-672,680,17066.80,32.25,-1.00,-1.0,2369
2705,917705,17064,-552,768,17090.19,32.15,-1.00,-1.0,2422
2708,917708,17072,-616,912,17107.44,32.15,-1.00,-1.0,2370
2711,917711,17148,-684,828,17181.60,32.25,-1.00,-1.0,2440
2714,917714,17056,-568,752,17082.02,32.25,-1.00,-1.0,2369
2716,917716,17088,-564,876,17119.73,32.15,-1.00,-1.0,2421
2719,917719,17080,-580,832,17110.09,32.25,-1.00,-1.0,2370
2722,917722,17036,-660,752,17065.36,32.11,-1.00,-1.0,2367
2724,917724,17128,-648,716,17155.20,32.11,-1.00,-1.0,2429
2727,917727,17032,-532,724,17055.68,32.20,-1.00,-1.0,2378
2732,917732,17016,-672,832,17049.58,32.20,-1.00,-1.0,2422
2735,917735,17168,-660,784,17198.56,32.15,-1.00,-1.0,2384
2738,917738,17072,-620,792,17101.60,32.20,-1.00,-1.0,2426
2740,917740,16968,-660,852,17002.19,32.20,-1.00,-1.0,2370
2743,917743,16976,-656,824,17008.64,32.20,-1.00,-1.0,2426
2746,917746,16944,-624,788,16973.79,32.15,-1.00,-1.0,2377
2749,917749,17020,-672,1020,17063.77,32.29,-1.00,-1.0,2419
2751,917751,17128,-556,824,17156.82,32.20,-1.00,-1.0,2371
2754,917754,17028,-580,636,17049.74,32.15,-1.00,-1.0,2353
2759,917759,17048,-720,852,17084.46,32.11,-1.00,-1.0,2429
2762,917762,16984,-608,788,17013.14,32.20,-1.00,-1.0,2374
2764,917764,17016,-620,756,17044.07,32.25,-1.00,-1.0,2437
2767,917767,17008,-548,804,17035.81,32.20,-1.00,-1.0,2376
2770,917770,17112,-616,792,17141.39,32.15,-1.00,-1.0,2408
2773,917773,16944,-580,784,16972.04,32.11,-1.00,-1.0,2370
2775,917775,17064,-596,724,17089.75,32.06,-1.00,-1.0,2429
2778,917778,17024,-576,824,17053.66,32.11,-1.00,-1.0,2376
2783,917783,17064,-688,752,17094.41,32.15,-1.00,-1.0,2412
2786,917786,17092,-672,824,17125.04,32.11,-1.00,-1.0,2373
2788,917788,17036,-624,812,17066.75,32.15,-1.00,-1.0,2370
2791,917791,17048,-660,756,17077.51,32.20,-1.00,-1.0,2425
2794,917794,16976,-664,852,17010.33,32.15,-1.00,-1.0,2369
2797,917797,16896,-700,796,16929.22,32.20,-1.00,-1.0,2419
2799,917799,17120,-664,844,17153.65,32.15,-1.00,-1.0,2369
2802,917802,17080,-732,780,17113.46,32.20,-1.00,-1.0,2419
2805,917805,17096,-496,792,17121.52,32.15,-1.00,-1.0,2370
2809,917809,17080,-680,856,17114.95,32.25,-1.00,-1.0,2430
2812,917812,17064,-604,664,17087.59,32.20,-1.00,-1.0,2383
2815,917815,17052,-752,756,17085.31,32.15,-1.00,-1.0,2427
2818,917818,17056,-640,852,17089.26,32.25,-1.00,-1.0,2375
2820,917820,17108,-612,792,17137.25,32.20,-1.00,-1.0,2364
2823,917823,17080,-560,808,17108.27,32.11,-1.00,-1.0,2420
2826,917826,17060,-792,808,17097.48,32.15,-1.00,-1.0,2369
2829,917829,16968,-688,880,17004.73,32.20,-1.00,-1.0,2419
2831,917831,17000,-612,852,17032.34,32.20,-1.00,-1.0,2369
2836,917836,17060,-576,748,17086.10,32.11,-1.00,-1.0,2422
2839,917839,17124,-664,740,17152.84,32.06,-1.00,-1.0,2376
2842,917842,16960,-656,920,16997.60,32.20,-1.00,-1.0,2436
2845,917845,17112,-664,816,17144.31,32.20,-1.00,-1.0,2370
2847,917847,17036,-648,764,17065.43,32.20,-1.00,-1.0,2421
2850,917850,16976,-552,856,17006.53,32.25,-1.00,-1.0,2358
2853,917853,17012,-580,904,17045.87,32.20,-1.00,-1.0,2366
2855,917855,17072,-668,912,17109.39,32.15,-1.00,-1.0,2436
2858,917858,17064,-668,728,17092.58,32.15,-1.00,-1.0,2372
2863,917863,17112,-560,804,17140.03,32.15,-1.00,-1.0,2417
2866,917866,17116,-704,792,17148.77,32.15,-1.00,-1.0,2384
2869,917869,17144,-612,700,17169.20,32.15,-1.00,-1.0,2431
2871,917871,16980,-712,856,17016.46,32.15,-1.00,-1.0,2378
2874,917874,17044,-620,856,17076.74,32.29,-1.00,-1.0,2421
2877,917877,17012,-536,704,17034.99,32.25,-1.00,-1.0,2370
2880,917880,17080,-536,844,17109.24,32.20,-1.00,-1.0,2366
2882,917882,17068,-564,700,17091.66,32.15,-1.00,-1.0,2420
2885,917885,17124,-768,860,17162.77,32.11,-1.00,-1.0,2370
2890,917890,17024,-564,656,17045.97,32.20,-1.00,-1.0,2422
2893,917893,17052,-676,764,17082.49,32.25,-1.00,-1.0,2379
2896,917896,17112,-620,776,17140.80,32.11,-1.00,-1.0,2427
2898,917898,16972,-632,844,17004.72,32.20,-1.00,-1.0,2369
2901,917901,17104,-616,728,17130.56,32.20,-1.00,-1.0,2419
2904,917904,17112,-656,904,17148.41,32.20,-1.00,-1.0,2370
2907,917907,17072,-608,736,17098.67,32.11,-1.00,-1.0,2421
2909,917909,17092,-516,812,17119.05,32.11,-1.00,-1.0,2369
2912,917912,17080,-612,792,17109.30,32.11,-1.00,-1.0,2366
2917,917917,17080,-628,836,17111.97,32.20,-1.00,-1.0,2422
2920,917920,17004,-600,872,17036.91,32.11,-1.00,-1.0,2358
2923,917923,17060,-648,968,17099.72,32.11,-1.00,-1.0,2434
2925,917925,17020,-512,740,17043.77,32.11,-1.00,-1.0,2369
2928,917928,17080,-600,792,17108.88,32.11,-1.00,-1.0,2421
2931,917931,17056,-576,756,17082.46,32.11,-1.00,-1.0,2373
2934,917934,17008,-616,836,17039.67,32.20,-1.00,-1.0,2421
2937,917937,16984,-708,852,17020.09,32.20,-1.00,-1.0,2368
2941,917941,17124,-576,700,17147.98,32.11,-1.00,-1.0,2430
2944,917944,17020,-508,824,17047.51,32.20,-1.00,-1.0,2390
2947,917947,16972,-576,760,16998.77,32.11,-1.00,-1.0,2366
2950,917950,17072,-604,872,17104.92,32.25,-1.00,-1.0,2426
2952,917952,17072,-780,904,17113.70,32.25,-1.00,-1.0,2369
2955,917955,17080,-656,688,17106.43,32.25,-1.00,-1.0,2419
2958,917958,17096,-564,796,17123.81,32.15,-1.00,-1.0,2376
2961,917961,17036,-756,816,17072.28,32.15,-1.00,-1.0,2419
2963,917963,17044,-576,684,17067.44,32.15,-1.00,-1.0,2369
2969,917969,17016,-564,724,17040.73,32.20,-1.00,-1.0,2425
2971,917971,17060,-592,792,17088.63,32.11,-1.00,-1.0,2373
2974,917974,17096,-612,704,17121.43,32.20,-1.00,-1.0,2419
2977,917977,17152,-604,1008,17192.21,32.20,-1.00,-1.0,2372
2979,917979,16980,-676,872,17015.81,32.15,-1.00,-1.0,2365
2982,917982,16968,-576,704,16992.36,32.25,-1.00,-1.0,2420
2985,917985,17112,-652,904,17148.26,32.25,-1.00,-1.0,2376
2988,917988,17088,-668,940,17126.87,32.15,-1.00,-1.0,2420
2990,917990,17040,-628,848,17072.64,32.25,-1.00,-1.0,2369
2995,917995,17124,-644,692,17150.07,32.20,-1.00,-1.0,2437
2998,917998,17048,-676,760,17078.32,32.15,-1.00,-1.0,2378
3001,918001,17012,-584,792,17040.44,32.29,-1.00,-1.0,2444
3003,918003,17164,-736,760,17196.57,32.20,-1.00,-1.0,2379
3006,918006,17084,-596,844,17115.21,32.20,-1.00,-1.0,2419
3009,918009,17052,-604,852,17083.95,32.20,-1.00,-1.0,2372
3012,918012,17092,-572,796,17120.08,32.15,-1.00,-1.0,2366
3014,918014,17048,-600,888,17081.65,32.11,-1.00,-1.0,2429
3017,918017,17024,-672,876,17059.76,32.20,-1.00,-1.0,2373
3022,918022,17068,-648,820,17099.97,32.15,-1.00,-1.0,2424
3025,918025,17076,-524,780,17101.83,32.15,-1.00,-1.0,2375
3028,918028,17124,-548,828,17152.76,32.15,-1.00,-1.0,2426
3030,918030,17032,-632,832,17064.02,32.15,-1.00,-1.0,2369
3033,918033,17032,-564,728,17056.88,32.15,-1.00,-1.0,2419
3036,918036,17028,-764,772,17062.60,32.15,-1.00,-1.0,2369
3039,918039,17008,-652,612,17031.49,32.15,-1.00,-1.0,2419
3041,918041,17068,-688,616,17092.96,32.20,-1.00,-1.0,2379
3044,918044,17048,-664,732,17076.62,32.20,-1.00,-1.0,2378
3049,918049,17080,-620,852,17112.47,32.20,-1.00,-1.0,2424
3052,918052,17032,-580,836,17062.37,32.25,-1.00,-1.0,2369
3055,918055,17128,-552,816,17156.31,32.20,-1.00,-1.0,2438
3058,918058,17020,-644,780,17050.03,32.15,-1.00,-1.0,2367
3060,918060,17068,-632,804,17098.61,32.11,-1.00,-1.0,2435
3063,918063,16916,-516,912,16948.42,32.11,-1.00,-1.0,2369
3066,918066,17096,-640,980,17136.02,32.11,-1.00,-1.0,2428
3069,918069,17092,-652,800,17123.13,32.15,-1.00,-1.0,2369
3071,918071,17096,-596,800,17125.08,32.20,-1.00,-1.0,2376
3076,918076,16964,-576,896,16997.41,32.20,-1.00,-1.0,2427
3079,918079,17116,-584,952,17152.40,32.20,-1.00,-1.0,2375
3082,918082,17012,-616,820,17042.89,32.11,-1.00,-1.0,2428
3085,918085,17008,-592,740,17034.38,32.20,-1.00,-1.0,2368
3087,918087,17060,-768,808,17096.38,32.15,-1.00,-1.0,2429
3090,918090,17100,-584,784,17127.92,32.11,-1.00,-1.0,2377
3093,918093,16968,-600,808,16997.82,32.15,-1.00,-1.0,2409
3096,918096,17140,-620,704,17165.65,32.20,-1.00,-1.0,2370
3101,918101,17024,-636,960,17062.90,32.15,-1.00,-1.0,2421
3103,918103,17056,-656,800,17087.35,32.15,-1.00,-1.0,2357
3106,918106,16944,-640,836,16976.68,32.11,-1.00,-1.0,2378
3109,918109,17048,-564,908,17081.48,32.15,-1.00,-1.0,2439
3111,918111,16976,-692,672,17003.38,32.25,-1.00,-1.0,2376
3114,918114,17084,-724,764,17116.39,32.06,-1.00,-1.0,2420
3117,918117,16980,-680,892,17017.01,32.25,-1.00,-1.0,2371
3120,918120,17020,-640,836,17052.53,32.15,-1.00,-1.0,2421
3122,918122,16960,-692,820,16993.91,32.15,-1.00,-1.0,2353
3127,918127,17104,-644,900,17139.77,32.15,-1.00,-1.0,2432
3130,918130,16992,-628,788,17021.85,32.20,-1.00,-1.0,2383
3133,918133,16952,-524,764,16977.29,32.25,-1.00,-1.0,2428
3136,918136,17132,-656,892,17167.74,32.15,-1.00,-1.0,2375
3138,918138,16984,-620,820,17015.08,32.11,-1.00,-1.0,2365
3141,918141,17076,-676,776,17106.98,32.11,-1.00,-1.0,2420
3144,918144,17068,-668,884,17103.93,32.20,-1.00,-1.0,2369
3147,918147,16980,-684,772,17011.30,32.11,-1.00,-1.0,2419
3150,918150,17088,-668,736,17116.88,32.15,-1.00,-1.0,2373
3155,918155,16976,-644,892,17011.61,32.15,-1.00,-1.0,2425
3157,918157,17096,-644,772,17125.54,32.15,-1.00,-1.0,2372
3160,918160,17084,-612,872,17117.18,32.20,-1.00,-1.0,2431
3163,918163,16940,-644,908,16976.54,32.25,-1.00,-1.0,2369
3166,918166,17096,-696,948,17136.40,32.15,-1.00,-1.0,2420
3168,918168,17004,-676,888,17040.59,32.15,-1.00,-1.0,2369
3171,918171,17008,-624,816,17038.99,32.11,-1.00,-1.0,2374
3174,918174,17044,-520,724,17067.29,32.15,-1.00,-1.0,2419
3177,918177,17024,-740,720,17055.28,32.15,-1.00,-1.0,2370
3182,918182,17096,-560,784,17123.13,32.25,-1.00,-1.0,2422
3184,918184,17020,-636,880,17054.60,32.06,-1.00,-1.0,2377
3187,918187,17020,-580,660,17042.66,32.20,-1.00,-1.0,2426
3190,918190,16992,-584,872,17024.38,32.15,-1.00,-1.0,2369
3193,918193,17080,-696,828,17114.22,32.20,-1.00,-1.0,2419
3195,918195,17088,-600,864,17120.35,32.20,-1.00,-1.0,2369
3198,918198,17028,-684,828,17061.84,32.20,-1.00,-1.0,2419
3201,918201,17060,-632,808,17090.81,32.20,-1.00,-1.0,2369
3204,918204,17068,-556,888,17100.12,32.11,-1.00,-1.0,2366
3209,918209,17100,-540,796,17127.03,32.15,-1.00,-1.0,2462
3211,918211,16984,-740,864,17022.05,32.20,-1.00,-1.0,2364
3214,918214,17032,-576,804,17060.69,32.20,-1.00,-1.0,2421
3217,918217,17096,-624,792,17125.71,32.20,-1.00,-1.0,2370
3220,918220,17152,-732,868,17189.54,32.29,-1.00,-1.0,2421
3222,918222,17096,-596,788,17124.53,32.29,-1.00,-1.0,2370
3225,918225,17088,-688,856,17123.25,32.20,-1.00,-1.0,2421
3228,918228,17012,-600,800,17041.37,32.20,-1.00,-1.0,2370
3232,918232,17004,-632,860,17037.46,32.25,-1.00,-1.0,2451
3235,918235,17100,-600,756,17127.22,32.15,-1.00,-1.0,2372
3238,918238,17032,-628,816,17063.10,32.29,-1.00,-1.0,2367
3241,918241,17100,-604,800,17129.36,32.20,-1.00,-1.0,2423
3243,918243,17016,-672,844,17050.17,32.20,-1.00,-1.0,2370
3246,918246,16976,-604,788,17005.01,32.25,-1.00,-1.0,2420
3249,918249,17052,-652,816,17083.96,32.20,-1.00,-1.0,2370
3252,918252,17144,-632,788,17173.73,32.15,-1.00,-1.0,2427
3255,918255,17028,-700,836,17062.88,32.15,-1.00,-1.0,2370
3260,918260,16972,-624,804,17002.49,32.20,-1.00,-1.0,2464
3262,918262,17068,-580,792,17096.21,32.15,-1.00,-1.0,2365
3265,918265,17044,-572,836,17074.07,32.25,-1.00,-1.0,2365
3268,918268,17100,-620,740,17127.23,32.25,-1.00,-1.0,2426
3271,918271,16976,-716,864,17013.04,32.25,-1.00,-1.0,2364
3273,918273,17080,-632,800,17110.40,32.25,-1.00,-1.0,2424
3276,918276,17072,-548,896,17104.28,32.06,-1.00,-1.0,2366
3279,918279,17064,-564,944,17099.40,32.25,-1.00,-1.0,2427
3282,918282,17128,-700,876,17164.67,32.15,-1.00,-1.0,2377
3287,918287,17112,-596,872,17144.57,32.15,-1.00,-1.0,2441
3289,918289,17072,-600,792,17100.89,32.15,-1.00,-1.0,2364
3292,918292,16976,-592,940,17012.31,32.29,-1.00,-1.0,2434
3295,918295,17104,-576,788,17131.83,32.15,-1.00,-1.0,2377
3297,918297,17048,-572,864,17079.46,32.20,-1.00,-1.0,2350
3300,918300,17064,-584,760,17090.90,32.11,-1.00,-1.0,2419
3303,918303,16992,-700,776,17024.11,32.20,-1.00,-1.0,2377
3306,918306,17044,-648,904,17080.25,32.25,-1.00,-1.0,2420
3309,918309,17068,-560,824,17097.05,32.11,-1.00,-1.0,2373
3314,918314,17036,-620,808,17066.42,32.20,-1.00,-1.0,2448
3316,918316,17048,-632,728,17075.24,32.15,-1.00,-1.0,2371
3319,918319,17024,-712,716,17053.92,32.29,-1.00,-1.0,2429
3322,918322,17164,-572,876,17195.86,32.20,-1.00,-1.0,2373
3325,918325,16948,-680,752,16978.30,32.11,-1.00,-1.0,2430
3327,918327,17104,-636,812,17135.07,32.06,-1.00,-1.0,2381
3330,918330,17020,-696,808,17053.38,32.15,-1.00,-1.0,2365
3333,918333,16988,-520,992,17024.88,32.15,-1.00,-1.0,2426
3336,918336,17076,-648,860,17109.92,32.20,-1.00,-1.0,2367
3341,918341,17016,-568,788,17043.70,32.20,-1.00,-1.0,2445
3343,918343,17044,-672,908,17081.39,32.20,-1.00,-1.0,2371
3346,918346,17000,-684,904,17037.75,32.11,-1.00,-1.0,2419
3349,918349,17040,-644,744,17068.39,32.11,-1.00,-1.0,2369
3352,918352,17088,-636,720,17114.98,32.20,-1.00,-1.0,2425
3354,918354,17016,-664,660,17041.74,32.20,-1.00,-1.0,2373
3357,918357,17152,-532,756,17176.89,32.11,-1.00,-1.0,2420
3360,918360,17084,-672,724,17112.53,32.20,-1.00,-1.0,2361
3363,918363,17024,-652,756,17053.25,32.20,-1.00,-1.0,2366
3368,918368,17136,-692,776,17167.51,32.20,-1.00,-1.0,2443
3370,918370,17080,-588,672,17103.32,32.20,-1.00,-1.0,2370
3373,918373,17036,-600,792,17064.95,32.25,-1.00,-1.0,2419
3376,918376,16944,-676,836,16978.07,32.11,-1.00,-1.0,2368
3379,918379,17016,-640,752,17044.63,32.15,-1.00,-1.0,2421
3381,918381,17064,-612,940,17100.83,32.11,-1.00,-1.0,2373
3384,918384,17132,-648,856,17165.61,32.15,-1.00,-1.0,2419
3387,918387,17020,-656,832,17052.95,32.20,-1.00,-1.0,2370
3392,918392,16988,-588,784,17016.24,32.11,-1.00,-1.0,2440
3395,918395,16996,-544,832,17025.04,32.20,-1.00,-1.0,2369
3397,918397,17028,-636,912,17064.26,32.15,-1.00,-1.0,2372
3400,918400,17056,-632,876,17090.17,32.25,-1.00,-1.0,2419
3403,918403,17020,-648,628,17043.90,32.15,-1.00,-1.0,2372
3406,918406,17092,-576,804,17120.59,32.15,-1.00,-1.0,2421
3408,918408,17068,-588,864,17099.97,32.25,-1.00,-1.0,2368
3411,918411,17064,-632,832,17095.96,32.15,-1.00,-1.0,2419
3414,918414,17072,-564,796,17099.85,32.25,-1.00,-1.0,2369
3420,918420,17028,-588,816,17057.68,32.25,-1.00,-1.0,2450
3422,918422,16976,-664,872,17011.35,32.15,-1.00,-1.0,2369
3425,918425,17036,-632,816,17067.24,32.11,-1.00,-1.0,2421
3428,918428,17100,-620,772,17128.64,32.15,-1.00,-1.0,2367
3430,918430,17056,-608,616,17077.95,32.11,-1.00,-1.0,2378
3433,918433,17012,-604,644,17034.90,32.15,-1.00,-1.0,2427
3436,918436,17040,-520,804,17066.88,32.11,-1.00,-1.0,2378
3439,918439,17064,-604,816,17094.17,32.25,-1.00,-1.0,2430
3441,918441,17100,-524,848,17129.03,32.15,-1.00,-1.0,2377
3446,918446,17000,-560,916,17033.87,32.20,-1.00,-1.0,2441
3449,918449,17032,-684,828,17065.83,32.01,-1.00,-1.0,2379
3452,918452,17016,-612,800,17045.79,32.25,-1.00,-1.0,2432
3454,918454,17044,-624,844,17076.29,32.11,-1.00,-1.0,2372
3457,918457,17080,-592,924,17115.22,32.15,-1.00,-1.0,2367
3460,918460,17104,-616,744,17131.25,32.20,-1.00,-1.0,2421
3463,918463,17024,-588,940,17060.07,32.25,-1.00,-1.0,2367
3465,918465,17124,-528,944,17158.13,32.15,-1.00,-1.0,2422
3468,918468,17036,-608,788,17065.05,32.15,-1.00,-1.0,2372
3473,918473,17004,-640,840,17036.76,32.06,-1.00,-1.0,2444
3476,918476,17008,-580,784,17035.94,32.15,-1.00,-1.0,2373
3479,918479,17028,-632,808,17058.87,32.15,-1.00,-1.0,2408
3481,918481,17072,-708,792,17105.02,32.15,-1.00,-1.0,2376
3484,918484,17016,-560,812,17044.56,32.15,-1.00,-1.0,2422
3487,918487,17092,-572,936,17127.16,32.15,-1.00,-1.0,2371
3489,918489,16972,-612,884,17006.02,32.15,-1.00,-1.0,2366
3492,918492,17028,-684,788,17059.94,32.11,-1.00,-1.0,2421
3495,918495,17112,-628,832,17143.72,32.20,-1.00,-1.0,2370
3500,918500,17072,-580,892,17105.12,32.20,-1.00,-1.0,2446
3503,918503,17152,-656,780,17182.25,32.20,-1.00,-1.0,2367
3505,918505,17116,-616,780,17144.83,32.20,-1.00,-1.0,2424
3508,918508,17004,-604,736,17030.63,32.11,-1.00,-1.0,2368
3511,918511,17104,-568,856,17134.82,32.11,-1.00,-1.0,2424
3514,918514,17068,-616,764,17096.19,32.20,-1.00,-1.0,2367
3516,918516,17088,-572,780,17115.35,32.20,-1.00,-1.0,2422
3519,918519,17148,-684,740,17177.58,32.20,-1.00,-1.0,2369
3522,918522,17044,-576,692,17067.76,32.15,-1.00,-1.0,2374
3527,918527,17108,-708,740,17138.63,32.11,-1.00,-1.0,2443
3530,918530,17076,-656,820,17108.26,32.20,-1.00,-1.0,2367
3532,918532,17060,-704,748,17090.90,32.15,-1.00,-1.0,2427
3535,918535,17024,-644,760,17053.12,32.11,-1.00,-1.0,2373
3538,918538,17092,-616,836,17123.52,32.15,-1.00,-1.0,2427
3541,918541,17032,-648,684,17058.04,32.20,-1.00,-1.0,2369
3543,918543,17064,-628,696,17089.73,32.15,-1.00,-1.0,2436
3546,918546,17104,-708,808,17137.71,32.25,-1.00,-1.0,2368
3551,918551,17084,-556,692,17107.05,32.11,-1.00,-1.0,2440
3554,918554,17048,-640,1008,17089.76,32.20,-1.00,-1.0,2367
3556,918556,16928,-640,648,16952.48,32.25,-1.00,-1.0,2369
3559,918559,17028,-568,796,17056.05,32.25,-1.00,-1.0,2426
3562,918562,17000,-584,768,17027.36,32.15,-1.00,-1.0,2371
3565,918565,17012,-572,692,17035.67,32.20,-1.00,-1.0,2433
3567,918567,17064,-688,940,17103.71,32.15,-1.00,-1.0,2375
3570,918570,17048,-668,928,17086.30,32.15,-1.00,-1.0,2421
3573,918573,17028,-600,844,17059.46,32.15,-1.00,-1.0,2372
3578,918578,17088,-684,816,17121.14,32.25,-1.00,-1.0,2447
3581,918581,17056,-672,836,17089.69,32.25,-1.00,-1.0,2367
3583,918583,17032,-588,788,17060.36,32.20,-1.00,-1.0,2429
3586,918586,17012,-668,836,17045.62,32.15,-1.00,-1.0,2375
3589,918589,17036,-604,928,17071.95,32.11,-1.00,-1.0,2366
3592,918592,17100,-644,852,17133.32,32.20,-1.00,-1.0,2421
3594,918594,17120,-652,840,17152.99,32.20,-1.00,-1.0,2368
3597,918597,17076,-596,840,17107.03,32.06,-1.00,-1.0,2421
3600,918600,17096,-636,896,17131.27,32.20,-1.00,-1.0,2370
3605,918605,17080,-668,900,17116.73,32.20,-1.00,-1.0,2443
3608,918608,17120,-660,884,17155.51,32.15,-1.00,-1.0,2372
3611,918611,17048,-732,644,17075.86,32.20,-1.00,-1.0,2424
3613,918613,17088,-720,932,17128.54,32.15,-1.00,-1.0,2376
3616,918616,17012,-588,896,17045.72,32.20,-1.00,-1.0,2421
3619,918619,17080,-544,1036,17120.04,32.20,-1.00,-1.0,2371
3621,918621,17124,-596,888,17157.36,32.11,-1.00,-1.0,2353
3624,918624,17016,-640,816,17047.57,32.15,-1.00,-1.0,2420
3627,918627,17076,-740,868,17114.05,32.11,-1.00,-1.0,2368
3632,918632,17100,-608,876,17133.21,32.15,-1.00,-1.0,2446
3635,918635,17068,-628,768,17096.81,32.20,-1.00,-1.0,2367
3637,918637,17088,-620,860,17120.86,32.06,-1.00,-1.0,2424
3640,918640,17052,-588,832,17082.41,32.15,-1.00,-1.0,2369
3643,918643,17112,-668,928,17150.16,32.15,-1.00,-1.0,2428
3646,918646,17040,-608,884,17073.74,32.15,-1.00,-1.0,2367
3648,918648,17080,-628,808,17110.63,32.15,-1.00,-1.0,2422
3651,918651,17000,-588,832,17030.50,32.25,-1.00,-1.0,2368
3654,918654,17056,-692,868,17092.09,32.25,-1.00,-1.0,2366
3659,918659,17080,-616,776,17108.71,32.20,-1.00,-1.0,2445
3661,918661,17076,-556,792,17103.40,32.20,-1.00,-1.0,2376
3664,918664,17140,-692,772,17171.33,32.20,-1.00,-1.0,2420
3667,918667,16976,-620,852,17008.67,32.20,-1.00,-1.0,2372
3670,918670,17060,-740,800,17094.77,32.20,-1.00,-1.0,2423
3672,918672,17016,-656,884,17051.57,32.20,-1.00,-1.0,2375
3675,918675,17088,-692,792,17120.34,32.15,-1.00,-1.0,2421
3678,918678,17080,-684,904,17117.58,32.15,-1.00,-1.0,2368
3681,918681,16924,-668,904,16961.29,32.25,-1.00,-1.0,2366
3686,918686,17004,-636,908,17040.10,32.25,-1.00,-1.0,2440
3689,918689,17148,-628,728,17174.93,32.25,-1.00,-1.0,2371
3692,918692,16948,-616,816,16978.81,32.34,-1.00,-1.0,2420
3694,918694,17020,-616,756,17047.91,32.25,-1.00,-1.0,2369
3697,918697,17048,-636,708,17074.54,32.06,-1.00,-1.0,2423
3700,918700,17048,-620,704,17073.79,32.25,-1.00,-1.0,2366
3703,918703,17064,-600,844,17095.39,32.15,-1.00,-1.0,2421
3705,918705,17048,-552,816,17076.44,32.15,-1.00,-1.0,2368
3710,918710,17000,-576,908,17033.97,32.15,-1.00,-1.0,2440
3713,918713,17044,-580,748,17070.26,32.25,-1.00,-1.0,2370
3716,918716,17036,-672,688,17063.12,32.15,-1.00,-1.0,2364
3719,918719,17136,-644,868,17170.05,32.15,-1.00,-1.0,2444
3721,918721,17144,-616,752,17171.54,32.15,-1.00,-1.0,2369
3724,918724,17036,-584,808,17065.15,32.25,-1.00,-1.0,2420
3727,918727,17112,-680,876,17147.89,32.25,-1.00,-1.0,2367
3730,918730,17072,-672,812,17104.51,32.15,-1.00,-1.0,2422
3732,918732,17032,-576,712,17056.60,32.15,-1.00,-1.0,2368
3737,918737,17036,-584,796,17064.58,32.15,-1.00,-1.0,2439
3740,918740,17016,-640,736,17043.93,32.20,-1.00,-1.0,2367
3743,918743,17076,-668,756,17105.78,32.15,-1.00,-1.0,2430
3745,918745,17068,-676,784,17099.36,32.15,-1.00,-1.0,2374
3748,918748,17092,-608,900,17126.47,32.15,-1.00,-1.0,2364
3751,918751,17056,-652,872,17090.72,32.11,-1.00,-1.0,2430
3754,918754,17024,-632,888,17058.86,32.25,-1.00,-1.0,2354
3756,918756,17088,-572,812,17116.84,32.20,-1.00,-1.0,2425
3759,918759,16992,-692,852,17027.41,32.11,-1.00,-1.0,2376
3764,918764,17040,-556,768,17066.36,32.20,-1.00,-1.0,2431
3767,918767,17056,-644,716,17083.17,32.20,-1.00,-1.0,2374
3770,918770,17072,-676,928,17110.56,32.20,-1.00,-1.0,2430
3772,918772,17096,-660,876,17131.15,32.20,-1.00,-1.0,2370
3775,918775,17048,-584,756,17074.74,32.20,-1.00,-1.0,2427
3778,918778,17124,-556,756,17149.70,32.20,-1.00,-1.0,2372
3780,918780,17048,-584,808,17077.12,32.25,-1.00,-1.0,2378
3783,918783,16984,-668,736,17013.06,32.20,-1.00,-1.0,2460
3786,918786,17056,-672,924,17094.22,32.29,-1.00,-1.0,2377
3791,918791,17120,-548,780,17146.52,32.06,-1.00,-1.0,2448
3794,918794,17052,-532,884,17083.18,32.20,-1.00,-1.0,2377
3797,918797,17036,-692,732,17065.75,32.25,-1.00,-1.0,2447
3799,918799,17004,-676,696,17031.66,32.15,-1.00,-1.0,2376
3802,918802,17012,-644,784,17042.23,32.15,-1.00,-1.0,2423
3805,918805,17068,-636,848,17100.88,32.25,-1.00,-1.0,2372
3808,918808,16996,-616,828,17027.30,32.15,-1.00,-1.0,2430
3810,918810,17036,-640,800,17066.78,32.15,-1.00,-1.0,2378
3813,918813,17056,-576,868,17087.78,32.15,-1.00,-1.0,2373
3818,918818,16996,-676,664,17022.39,32.25,-1.00,-1.0,2447
3821,918821,17072,-680,896,17109.02,32.15,-1.00,-1.0,2373
3824,918824,17024,-788,852,17063.51,32.25,-1.00,-1.0,2445
3826,918826,17080,-540,832,17108.78,32.25,-1.00,-1.0,2377
3829,918829,17096,-664,772,17126.30,32.06,-1.00,-1.0,2429
3832,918832,16956,-580,832,16986.30,32.06,-1.00,-1.0,2375
3835,918835,17080,-552,876,17111.36,32.15,-1.00,-1.0,2429
3837,918837,17012,-660,772,17042.29,32.25,-1.00,-1.0,2375
3842,918842,17036,-592,888,17069.40,32.06,-1.00,-1.0,2440
3845,918845,17016,-652,828,17048.61,32.15,-1.00,-1.0,2383
3848,918848,17048,-632,868,17081.78,32.20,-1.00,-1.0,2366
3851,918851,17108,-600,728,17133.99,32.11,-1.00,-1.0,2431
3853,918853,16980,-668,896,17016.74,32.11,-1.00,-1.0,2369
3856,918856,17076,-644,1036,17119.52,32.20,-1.00,-1.0,2422
3859,918859,17124,-564,820,17152.90,32.11,-1.00,-1.0,2368
3862,918862,17004,-608,888,17038.02,32.11,-1.00,-1.0,2422
3864,918864,17072,-532,692,17094.30,32.20,-1.00,-1.0,2370
3869,918869,17072,-680,808,17104.63,32.25,-1.00,-1.0,2434
3872,918872,16984,-628,744,17011.88,32.15,-1.00,-1.0,2371
3875,918875,17084,-592,908,17118.35,32.20,-1.00,-1.0,2434
3877,918877,17104,-624,788,17133.51,32.15,-1.00,-1.0,2371
3880,918880,17032,-620,764,17060.40,32.29,-1.00,-1.0,2374
3883,918883,17060,-544,828,17088.74,32.15,-1.00,-1.0,2422
3885,918885,17060,-732,844,17096.54,32.11,-1.00,-1.0,2369
3888,918888,17068,-648,808,17099.40,32.11,-1.00,-1.0,2408
3891,918891,16984,-652,784,17014.58,32.20,-1.00,-1.0,2373
3896,918896,16972,-608,644,16995.09,32.20,-1.00,-1.0,2439
3899,918899,17108,-672,772,17138.59,32.15,-1.00,-1.0,2371
3902,918902,17116,-656,948,17154.78,32.11,-1.00,-1.0,2431
3904,918904,17140,-652,724,17167.67,32.11,-1.00,-1.0,2376
3907,918907,16992,-560,760,17018.20,32.20,-1.00,-1.0,2369
3910,918910,17084,-632,884,17118.53,32.15,-1.00,-1.0,2430
3913,918913,17104,-560,816,17132.61,32.20,-1.00,-1.0,2355
3915,918915,17084,-556,736,17108.88,32.15,-1.00,-1.0,2424
3918,918918,17080,-688,788,17112.00,32.11,-1.00,-1.0,2370
3923,918923,17104,-612,808,17134.01,32.20,-1.00,-1.0,2431
3926,918926,17124,-716,972,17166.50,32.15,-1.00,-1.0,2368
3929,918929,17064,-576,784,17091.71,32.20,-1.00,-1.0,2431
3931,918931,17076,-480,784,17100.73,32.11,-1.00,-1.0,2371
3934,918934,17032,-580,844,17062.76,32.20,-1.00,-1.0,2422
3937,918937,17108,-692,776,17139.57,32.20,-1.00,-1.0,2373
3940,918940,17040,-588,792,17068.53,32.15,-1.00,-1.0,2367
3942,918942,17092,-580,812,17121.10,32.25,-1.00,-1.0,2422
3945,918945,17060,-620,832,17091.53,32.25,-1.00,-1.0,2369
3950,918950,17124,-584,768,17151.16,32.20,-1.00,-1.0,2431
3953,918953,17096,-616,824,17126.93,32.20,-1.00,-1.0,2369
3956,918956,16896,-632,808,16927.11,32.25,-1.00,-1.0,2431
3959,918959,17056,-512,812,17082.99,32.20,-1.00,-1.0,2368
3961,918961,17040,-664,824,17072.83,32.15,-1.00,-1.0,2421
3964,918964,16988,-700,912,17026.86,32.20,-1.00,-1.0,2370
3967,918967,16976,-584,832,17006.41,32.15,-1.00,-1.0,2428
3970,918970,16964,-592,844,16995.30,32.20,-1.00,-1.0,2370
3972,918972,17040,-664,856,17074.40,32.15,-1.00,-1.0,2369
3977,918977,16996,-644,808,17027.38,32.15,-1.00,-1.0,2432
3980,918980,17088,-716,876,17125.41,32.20,-1.00,-1.0,2368
3983,918983,16992,-588,924,17027.26,32.25,-1.00,-1.0,2439
3986,918986,17028,-652,836,17060.97,32.15,-1.00,-1.0,2368
3988,918988,17152,-596,768,17179.53,32.15,-1.00,-1.0,2424
3991,918991,17088,-576,788,17115.85,32.15,-1.00,-1.0,2370
3994,918994,17124,-600,904,17158.34,32.15,-1.00,-1.0,2429
3997,918997,16964,-448,872,16992.30,32.15,-1.00,-1.0,2368
4002,919002,17104,-616,888,17138.11,32.25,-1.00,-1.0,2433
4004,919004,17028,-640,776,17057.68,32.11,-1.00,-1.0,2355
4007,919007,17072,-688,776,17103.47,32.15,-1.00,-1.0,2367
4010,919010,17128,-584,860,17159.52,32.20,-1.00,-1.0,2431
4012,919012,17020,-584,852,17051.32,32.06,-1.00,-1.0,2369
4015,919015,17116,-644,832,17148.31,32.29,-1.00,-1.0,2422
4018,919018,17052,-592,832,17082.55,32.25,-1.00,-1.0,2376
4021,919021,17024,-616,768,17052.44,32.29,-1.00,-1.0,2422
4023,919023,17140,-584,932,17175.25,32.20,-1.00,-1.0,2372
4028,919028,17036,-688,752,17066.46,32.20,-1.00,-1.0,2434
4031,919031,17092,-628,824,17123.37,32.15,-1.00,-1.0,2368
4034,919034,17044,-632,736,17071.59,32.15,-1.00,-1.0,2438
4037,919037,17084,-640,744,17112.16,32.15,-1.00,-1.0,2367
4039,919039,17028,-704,884,17065.46,32.20,-1.00,-1.0,2368
4042,919042,17068,-628,876,17102.00,32.15,-1.00,-1.0,2423
4045,919045,17040,-596,676,17063.81,32.11,-1.00,-1.0,2369
4048,919048,17052,-684,828,17085.79,32.06,-1.00,-1.0,2424
4050,919050,17104,-648,800,17134.96,32.20,-1.00,-1.0,2377
4055,919055,17008,-660,952,17047.40,32.25,-1.00,-1.0,2439
4058,919058,17080,-580,872,17112.08,32.20,-1.00,-1.0,2369
4061,919061,17076,-716,864,17112.83,32.25,-1.00,-1.0,2432
4063,919063,17116,-628,684,17141.17,32.06,-1.00,-1.0,2370
4066,919066,17104,-560,808,17132.23,32.15,-1.00,-1.0,2422
4069,919069,17124,-624,784,17153.29,32.15,-1.00,-1.0,2370
4072,919072,17016,-576,932,17051.24,32.15,-1.00,-1.0,2367
4075,919075,17084,-668,956,17123.76,32.15,-1.00,-1.0,2424
4077,919077,17016,-636,788,17046.11,32.15,-1.00,-1.0,2377
4082,919082,16956,-580,848,16987.10,32.20,-1.00,-1.0,2432
4085,919085,17100,-568,832,17129.65,32.25,-1.00,-1.0,2380
4088,919088,17044,-664,864,17078.80,32.20,-1.00,-1.0,2431
4090,919090,17020,-624,896,17054.99,32.20,-1.00,-1.0,2375
4093,919093,16988,-508,828,17015.75,32.25,-1.00,-1.0,2436
4096,919096,17000,-580,840,17030.62,32.20,-1.00,-1.0,2377
4098,919098,17112,-584,752,17138.47,32.15,-1.00,-1.0,2356
4102,919102,17044,-568,716,17068.49,32.15,-1.00,-1.0,2421
4104,919104,17032,-604,904,17066.67,32.15,-1.00,-1.0,2376
4109,919109,17044,-576,764,17070.84,32.15,-1.00,-1.0,2439
4112,919112,17140,-604,756,17167.29,32.25,-1.00,-1.0,2382
4115,919115,17116,-636,804,17146.67,32.25,-1.00,-1.0,2432
4118,919118,17072,-676,844,17106.21,32.15,-1.00,-1.0,2368
4121,919121,16920,-516,800,16946.76,32.25,-1.00,-1.0,2424
4123,919123,17040,-680,796,17072.13,32.25,-1.00,-1.0,2372
4126,919126,17060,-672,824,17093.10,32.25,-1.00,-1.0,2421
4129,919129,16972,-676,808,17004.66,32.15,-1.00,-1.0,2371
4132,919132,17044,-656,804,17075.56,32.15,-1.00,-1.0,2370
4137,919137,17048,-644,780,17077.98,32.15,-1.00,-1.0,2439
4139,919139,17060,-688,852,17095.11,32.25,-1.00,-1.0,2375
4142,919142,17088,-724,896,17126.78,32.15,-1.00,-1.0,2432
4145,919145,17080,-608,728,17106.32,32.25,-1.00,-1.0,2370
4148,919148,17112,-612,860,17144.52,32.11,-1.00,-1.0,2421
4150,919150,17092,-528,780,17117.93,32.15,-1.00,-1.0,2369
4153,919153,17172,-676,844,17206.01,32.20,-1.00,-1.0,2421
4156,919156,17080,-616,740,17107.12,32.15,-1.00,-1.0,2369
4161,919161,17088,-716,876,17125.41,32.25,-1.00,-1.0,2440
4163,919163,17012,-648,728,17039.89,32.25,-1.00,-1.0,2377
4166,919166,17028,-748,732,17060.13,32.20,-1.00,-1.0,2367
4169,919169,17096,-640,844,17128.78,32.20,-1.00,-1.0,2433
4172,919172,17020,-652,828,17052.60,32.20,-1.00,-1.0,2367
4174,919174,17048,-744,964,17091.44,32.11,-1.00,-1.0,2422
4177,919177,17044,-576,884,17076.63,32.20,-1.00,-1.0,2369
4180,919180,16968,-548,736,16992.79,32.20,-1.00,-1.0,2424
4183,919183,17068,-608,720,17094.00,32.20,-1.00,-1.0,2368
4188,919188,17088,-644,892,17123.38,32.20,-1.00,-1.0,2432
4190,919190,17044,-600,724,17069.92,32.11,-1.00,-1.0,2368
4193,919193,17064,-632,904,17099.61,32.20,-1.00,-1.0,2435
4196,919196,17100,-632,708,17126.32,32.25,-1.00,-1.0,2368
4198,919198,17020,-548,948,17055.19,32.15,-1.00,-1.0,2368
4201,919201,17052,-588,872,17084.40,32.15,-1.00,-1.0,2436
4204,919204,17052,-560,1036,17092.62,32.25,-1.00,-1.0,2376
4207,919207,17080,-564,756,17106.02,32.15,-1.00,-1.0,2434
4210,919210,17088,-632,772,17117.10,32.20,-1.00,-1.0,2356
4215,919215,17092,-712,840,17127.43,32.20,-1.00,-1.0,2432
4217,919217,17008,-700,756,17039.18,32.11,-1.00,-1.0,2367
4220,919220,16992,-676,836,17025.98,32.20,-1.00,-1.0,2434
4223,919223,17032,-692,712,17060.92,32.20,-1.00,-1.0,2368
4226,919226,17060,-688,828,17093.93,32.20,-1.00,-1.0,2408
4228,919228,17156,-564,780,17182.98,32.29,-1.00,-1.0,2369
4231,919231,17108,-608,916,17143.29,32.15,-1.00,-1.0,2375
4234,919234,17068,-616,832,17099.37,32.25,-1.00,-1.0,2436
4237,919237,17108,-772,904,17149.25,32.25,-1.00,-1.0,2369
4242,919242,17136,-656,900,17172.15,32.25,-1.00,-1.0,2432
4244,919244,17052,-620,696,17077.46,32.11,-1.00,-1.0,2355
4247,919247,17088,-668,944,17127.09,32.15,-1.00,-1.0,2431
4250,919250,17020,-652,916,17057.10,32.20,-1.00,-1.0,2369
4253,919253,17060,-728,868,17097.57,32.15,-1.00,-1.0,2422
4255,919255,16980,-628,744,17007.89,32.25,-1.00,-1.0,2369
4258,919258,17060,-716,896,17098.51,32.25,-1.00,-1.0,2421
4261,919261,17088,-600,732,17114.19,32.20,-1.00,-1.0,2369
4264,919264,17036,-700,832,17070.66,32.15,-1.00,-1.0,2367
4269,919269,17120,-564,708,17143.91,32.15,-1.00,-1.0,2436
4272,919272,16996,-660,872,17031.15,32.15,-1.00,-1.0,2368
4275,919275,17032,-676,696,17059.61,32.29,-1.00,-1.0,2439
4278,919278,17052,-696,876,17088.67,32.15,-1.00,-1.0,2368
4280,919280,17004,-660,872,17039.13,32.20,-1.00,-1.0,2430
4283,919283,17116,-680,812,17148.74,32.34,-1.00,-1.0,2376
4286,919286,17096,-656,772,17125.99,32.20,-1.00,-1.0,2424
4289,919289,17052,-776,864,17091.50,32.25,-1.00,-1.0,2370
4291,919291,17072,-588,852,17103.36,32.20,-1.00,-1.0,2371
4296,919296,17068,-672,872,17103.47,32.20,-1.00,-1.0,2435
4299,919299,17064,-676,832,17097.64,32.15,-1.00,-1.0,2372
4302,919302,17020,-644,792,17050.58,32.20,-1.00,-1.0,2439
4304,919304,17008,-600,776,17036.26,32.11,-1.00,-1.0,2378
4307,919307,17104,-636,920,17140.53,32.20,-1.00,-1.0,2422
4310,919310,17120,-588,800,17148.77,32.11,-1.00,-1.0,2366
4313,919313,16996,-552,824,17024.91,32.20,-1.00,-1.0,2411
4315,919315,17024,-644,800,17054.95,32.20,-1.00,-1.0,2385
4320,919320,17004,-596,768,17031.77,32.20,-1.00,-1.0,2432
4323,919323,16964,-588,876,16996.78,32.25,-1.00,-1.0,2377
4325,919325,17060,-668,716,17088.08,32.20,-1.00,-1.0,2373
4328,919328,17180,-708,880,17217.09,32.25,-1.00,-1.0,2431
4331,919331,17096,-496,868,17125.21,32.20,-1.00,-1.0,2370
4334,919334,17040,-676,880,17076.09,32.15,-1.00,-1.0,2422
4336,919336,17076,-632,896,17111.17,32.11,-1.00,-1.0,2362
4339,919339,17072,-668,784,17103.04,32.06,-1.00,-1.0,2422
4342,919342,17060,-568,876,17091.92,32.11,-1.00,-1.0,2372
4347,919347,17064,-704,808,17097.62,32.29,-1.00,-1.0,2435
4350,919350,17036,-532,940,17070.21,32.25,-1.00,-1.0,2374
4353,919353,17092,-564,672,17114.50,32.11,-1.00,-1.0,2439
4355,919355,17036,-580,756,17062.63,32.20,-1.00,-1.0,2376
4358,919358,17088,-688,860,17123.46,32.15,-1.00,-1.0,2367
4361,919361,17056,-604,768,17083.96,32.25,-1.00,-1.0,2425
4363,919363,16912,-644,888,16947.54,32.06,-1.00,-1.0,2369
4366,919366,17104,-616,816,17134.53,32.29,-1.00,-1.0,2422
4369,919369,17128,-572,844,17158.32,32.15,-1.00,-1.0,2367
4374,919374,17060,-712,912,17099.19,32.15,-1.00,-1.0,2432
4376,919376,17072,-628,868,17105.58,32.15,-1.00,-1.0,2376
4379,919379,17000,-656,636,17024.54,32.25,-1.00,-1.0,2430
4382,919382,17076,-664,780,17106.70,32.15,-1.00,-1.0,2371
4385,919385,17040,-628,840,17072.25,32.15,-1.00,-1.0,2429
4388,919388,17064,-632,840,17096.35,32.25,-1.00,-1.0,2369
4390,919390,17024,-644,808,17055.33,32.20,-1.00,-1.0,2366
4393,919393,17036,-656,944,17074.74,32.20,-1.00,-1.0,2430
4396,919396,16976,-644,904,17012.25,32.25,-1.00,-1.0,2368
4401,919401,17112,-688,852,17147.01,32.15,-1.00,-1.0,2436
4403,919403,16968,-676,744,16997.75,32.20,-1.00,-1.0,2376
4406,919406,17004,-656,864,17038.57,32.15,-1.00,-1.0,2431
4409,919409,17020,-576,704,17044.29,32.25,-1.00,-1.0,2371
4412,919412,17100,-704,800,17133.17,32.25,-1.00,-1.0,2421
4414,919414,17036,-660,640,17060.79,32.25,-1.00,-1.0,2376
4417,919417,17036,-572,704,17060.13,32.15,-1.00,-1.0,2422
4420,919420,16956,-620,816,16986.94,32.25,-1.00,-1.0,2371
4423,919423,17140,-592,780,17167.95,32.15,-1.00,-1.0,2367
4428,919428,16908,-604,740,16934.96,32.15,-1.00,-1.0,2432
4430,919430,17036,-612,676,17060.39,32.15,-1.00,-1.0,2374
4433,919433,17020,-576,696,17043.96,32.15,-1.00,-1.0,2432
4436,919436,16984,-616,836,17015.72,32.15,-1.00,-1.0,2370
4439,919439,17016,-696,924,17055.28,32.25,-1.00,-1.0,2422
4442,919442,17072,-668,728,17100.57,32.25,-1.00,-1.0,2371
4444,919444,17052,-584,676,17075.38,32.15,-1.00,-1.0,2421
4447,919447,17048,-624,908,17083.56,32.15,-1.00,-1.0,2371
4452,919452,17044,-508,860,17073.24,32.15,-1.00,-1.0,2435
4455,919455,17136,-580,704,17160.26,32.11,-1.00,-1.0,2374
4457,919457,17068,-704,824,17102.38,32.15,-1.00,-1.0,2366
4460,919460,16904,-652,772,16934.18,32.15,-1.00,-1.0,2474
4463,919463,17024,-632,952,17062.31,32.15,-1.00,-1.0,2372
4466,919466,17136,-668,844,17169.77,32.15,-1.00,-1.0,2420
4468,919468,17092,-532,704,17114.76,32.25,-1.00,-1.0,2374
4471,919471,17020,-584,740,17046.09,32.25,-1.00,-1.0,2422
4474,919474,16984,-620,808,17014.51,32.25,-1.00,-1.0,2356
4479,919479,17068,-660,780,17098.56,32.15,-1.00,-1.0,2431
4481,919481,17088,-708,824,17122.50,32.15,-1.00,-1.0,2375
4484,919484,17108,-636,700,17134.12,32.11,-1.00,-1.0,2366
4487,919487,16956,-712,704,16985.54,32.25,-1.00,-1.0,2438
4490,919490,17064,-680,852,17098.78,32.20,-1.00,-1.0,2367
4492,919492,16984,-736,768,17017.28,32.15,-1.00,-1.0,2436
4495,919495,17004,-592,896,17037.88,32.20,-1.00,-1.0,2368
4498,919498,17004,-720,832,17039.56,32.15,-1.00,-1.0,2429
4501,919501,16996,-524,832,17024.42,32.15,-1.00,-1.0,2362
4506,919506,17040,-640,956,17078.79,32.25,-1.00,-1.0,2431
4508,919508,17064,-584,752,17090.54,32.15,-1.00,-1.0,2366
4511,919511,17092,-624,844,17124.20,32.11,-1.00,-1.0,2417
4514,919514,16980,-680,864,17015.56,32.25,-1.00,-1.0,2371
4516,919516,17008,-588,768,17035.48,32.11,-1.00,-1.0,2367
4519,919519,17044,-624,800,17074.17,32.15,-1.00,-1.0,2429
4522,919522,17060,-644,888,17095.23,32.06,-1.00,-1.0,2375
4525,919525,17072,-680,920,17110.29,32.25,-1.00,-1.0,2424
4528,919528,16996,-608,892,17030.25,32.25,-1.00,-1.0,2374
4533,919533,17120,-556,896,17152.45,32.06,-1.00,-1.0,2440
4536,919536,17024,-596,776,17052.10,32.11,-1.00,-1.0,2367
4538,919538,17024,-528,804,17051.15,32.15,-1.00,-1.0,2445
4541,919541,16956,-608,876,16989.50,32.15,-1.00,-1.0,2376
4544,919544,17060,-640,788,17090.18,32.25,-1.00,-1.0,2423
4547,919547,17104,-580,876,17136.24,32.06,-1.00,-1.0,2369
4549,919549,17076,-568,820,17105.11,32.20,-1.00,-1.0,2366
4552,919552,17024,-576,780,17051.59,32.11,-1.00,-1.0,2408
4555,919555,17140,-664,908,17176.87,32.15,-1.00,-1.0,2370
4560,919560,16976,-668,628,17000.74,32.15,-1.00,-1.0,2438
4563,919563,17068,-644,820,17099.82,32.15,-1.00,-1.0,2367
4565,919565,17000,-592,920,17035.17,32.25,-1.00,-1.0,2442
4568,919568,17060,-616,776,17088.75,32.25,-1.00,-1.0,2376
4571,919571,17052,-644,872,17086.42,32.06,-1.00,-1.0,2408
4574,919574,17076,-552,772,17102.35,32.25,-1.00,-1.0,2368
4576,919576,16996,-496,772,17020.75,32.25,-1.00,-1.0,2431
4579,919579,17020,-580,672,17043.13,32.25,-1.00,-1.0,2375
4582,919582,17056,-716,848,17092.07,32.20,-1.00,-1.0,2366
4587,919587,17076,-616,720,17102.27,32.11,-1.00,-1.0,2438
4590,919590,16956,-640,872,16990.46,32.15,-1.00,-1.0,2366
4592,919592,17140,-624,864,17173.10,32.25,-1.00,-1.0,2439
4595,919595,17072,-656,756,17101.32,32.20,-1.00,-1.0,2382
4598,919598,17128,-664,824,17160.66,32.20,-1.00,-1.0,2422
4601,919601,17024,-568,876,17055.98,32.20,-1.00,-1.0,2373
4604,919604,16988,-664,756,17017.77,32.29,-1.00,-1.0,2423
4606,919606,17020,-656,880,17055.36,32.20,-1.00,-1.0,2376
4611,919611,16980,-676,868,17015.61,32.20,-1.00,-1.0,2446
4614,919614,17000,-532,844,17029.25,32.15,-1.00,-1.0,2375
4617,919617,17028,-652,800,17059.25,32.20,-1.00,-1.0,2365
4619,919619,17052,-672,784,17083.24,32.15,-1.00,-1.0,2433
4622,919622,17032,-572,860,17063.29,32.20,-1.00,-1.0,2368
4625,919625,17052,-556,808,17080.18,32.25,-1.00,-1.0,2428
4628,919628,17020,-608,780,17048.71,32.25,-1.00,-1.0,2367
4630,919630,17040,-632,712,17066.57,32.15,-1.00,-1.0,2420
4633,919633,17052,-632,780,17081.53,32.15,-1.00,-1.0,2368
4638,919638,17052,-596,908,17086.55,32.11,-1.00,-1.0,2433
4641,919641,17044,-576,768,17071.01,32.29,-1.00,-1.0,2368
4644,919644,17092,-668,776,17122.64,32.06,-1.00,-1.0,2429
4646,919646,17000,-468,748,17022.88,32.20,-1.00,-1.0,2368
4649,919649,17092,-560,852,17122.38,32.25,-1.00,-1.0,2373
4652,919652,17112,-672,852,17146.37,32.29,-1.00,-1.0,2421
4654,919654,16932,-656,856,16966.31,32.15,-1.00,-1.0,2369
4657,919657,17052,-664,740,17080.96,32.20,-1.00,-1.0,2429
4660,919660,17068,-648,920,17105.05,32.06,-1.00,-1.0,2368
4665,919665,17056,-672,896,17092.73,32.25,-1.00,-1.0,2432
4668,919668,16972,-636,724,16999.34,32.29,-1.00,-1.0,2369
4671,919671,17080,-560,896,17112.65,32.15,-1.00,-1.0,2430
4673,919673,16964,-700,912,17002.91,32.25,-1.00,-1.0,2368
4676,919676,17136,-656,832,17168.72,32.15,-1.00,-1.0,2373
4679,919679,17104,-560,772,17130.57,32.29,-1.00,-1.0,2421
4681,919681,17036,-552,844,17065.82,32.15,-1.00,-1.0,2369
4684,919684,17036,-644,792,17066.55,32.20,-1.00,-1.0,2435
4687,919687,17092,-592,768,17119.48,32.15,-1.00,-1.0,2369
4692,919692,16964,-612,844,16996.00,32.20,-1.00,-1.0,2441
4695,919695,17048,-692,788,17080.23,32.25,-1.00,-1.0,2367
4697,919697,17008,-644,848,17041.30,32.29,-1.00,-1.0,2446
4700,919700,17160,-604,836,17190.97,32.20,-1.00,-1.0,2376
4703,919703,16992,-580,888,17025.07,32.29,-1.00,-1.0,2424
4706,919706,17108,-644,764,17137.16,32.20,-1.00,-1.0,2368
4708,919708,16972,-472,748,16995.03,32.25,-1.00,-1.0,2366
4711,919711,16956,-644,956,16995.13,32.20,-1.00,-1.0,2420
4714,919714,17056,-708,876,17093.15,32.25,-1.00,-1.0,2368
4719,919719,17036,-608,808,17065.98,32.20,-1.00,-1.0,2439
4722,919722,17092,-708,700,17120.97,32.29,-1.00,-1.0,2371
4724,919724,17016,-676,812,17048.77,32.15,-1.00,-1.0,2435
4727,919727,17080,-596,856,17111.82,32.11,-1.00,-1.0,2384
4730,919730,17084,-692,796,17116.53,32.15,-1.00,-1.0,2420
4733,919733,17008,-644,972,17047.92,32.20,-1.00,-1.0,2369
4736,919736,17012,-576,664,17034.70,32.15,-1.00,-1.0,2409
4738,919738,17028,-648,848,17061.41,32.15,-1.00,-1.0,2387
4741,919741,17052,-544,816,17080.18,32.11,-1.00,-1.0,2366
4746,919746,17028,-652,916,17065.08,32.20,-1.00,-1.0,2431
4749,919749,17076,-684,904,17113.59,32.25,-1.00,-1.0,2366
4752,919752,17008,-596,828,17038.57,32.11,-1.00,-1.0,2417
4754,919754,17016,-584,772,17043.51,32.25,-1.00,-1.0,2367
4757,919757,16984,-640,872,17018.41,32.20,-1.00,-1.0,2420
4760,919760,17048,-548,812,17076.12,32.25,-1.00,-1.0,2366
4763,919763,17112,-676,852,17146.53,32.20,-1.00,-1.0,2407
4765,919765,17068,-568,840,17098.10,32.15,-1.00,-1.0,2368
4770,919770,16996,-692,828,17030.22,32.25,-1.00,-1.0,2437
4773,919773,16972,-600,936,17008.38,32.15,-1.00,-1.0,2369
4776,919776,17012,-676,792,17043.84,32.15,-1.00,-1.0,2365
4778,919778,17056,-672,928,17094.44,32.11,-1.00,-1.0,2432
4781,919781,17032,-604,772,17060.18,32.20,-1.00,-1.0,2369
4784,919784,16968,-788,784,17004.37,32.20,-1.00,-1.0,2423
4787,919787,17040,-636,960,17078.87,32.20,-1.00,-1.0,2368
4789,919789,17032,-588,776,17059.80,32.29,-1.00,-1.0,2425
4792,919792,16992,-648,824,17024.30,32.15,-1.00,-1.0,2383
4797,919797,17036,-640,780,17065.85,32.11,-1.00,-1.0,2431
4800,919800,16924,-608,752,16951.61,32.20,-1.00,-1.0,2376
4803,919803,17092,-664,860,17126.50,32.15,-1.00,-1.0,2430
4805,919805,17052,-624,812,17082.72,32.20,-1.00,-1.0,2374
4808,919808,17020,-584,644,17042.19,32.34,-1.00,-1.0,2369
4811,919811,17100,-756,860,17138.29,32.11,-1.00,-1.0,2421
4813,919813,17048,-668,860,17082.74,32.25,-1.00,-1.0,2355
4816,919816,17040,-600,888,17073.67,32.15,-1.00,-1.0,2421
4819,919819,17088,-644,816,17119.59,32.25,-1.00,-1.0,2376
4824,919824,16984,-544,1012,17022.82,32.15,-1.00,-1.0,2438
4827,919827,17040,-552,896,17072.47,32.20,-1.00,-1.0,2364
4830,919830,17104,-656,808,17135.64,32.15,-1.00,-1.0,2439
4832,919832,17036,-648,780,17066.15,32.15,-1.00,-1.0,2371
4835,919835,17044,-736,920,17084.67,32.25,-1.00,-1.0,2430
4838,919838,17068,-620,824,17099.12,32.25,-1.00,-1.0,2375
4841,919841,17044,-636,908,17080.01,32.11,-1.00,-1.0,2366
4843,919843,17088,-632,892,17122.93,32.29,-1.00,-1.0,2421
4846,919846,16996,-620,860,17029.04,32.15,-1.00,-1.0,2355
4851,919851,16900,-660,800,16931.79,32.15,-1.00,-1.0,2447
4854,919854,17024,-644,752,17052.77,32.15,-1.00,-1.0,2377
4857,919857,17132,-592,740,17158.19,32.25,-1.00,-1.0,2443
4859,919859,17060,-540,880,17091.21,32.06,-1.00,-1.0,2377
4862,919862,17164,-604,896,17197.98,32.25,-1.00,-1.0,2421
4865,919865,17008,-656,772,17038.14,32.25,-1.00,-1.0,2371
4868,919868,16960,-640,804,16991.10,32.20,-1.00,-1.0,2426
4870,919870,17076,-660,784,17106.72,32.06,-1.00,-1.0,2375
4873,919873,17040,-612,828,17071.08,32.15,-1.00,-1.0,2365
4878,919878,17020,-656,872,17054.94,32.15,-1.00,-1.0,2440
4881,919881,17060,-684,848,17094.75,32.15,-1.00,-1.0,2366
4884,919884,17100,-556,936,17134.62,32.20,-1.00,-1.0,2440
4886,919886,17100,-632,740,17127.67,32.25,-1.00,-1.0,2371
4889,919889,17104,-696,756,17134.84,32.25,-1.00,-1.0,2421
4892,919892,16900,-640,732,16927.95,32.25,-1.00,-1.0,2367
4895,919895,17072,-592,776,17099.88,32.20,-1.00,-1.0,2427
4897,919897,17028,-556,868,17059.17,32.15,-1.00,-1.0,2372
4900,919900,17116,-636,916,17152.29,32.20,-1.00,-1.0,2365
4905,919905,17000,-644,816,17031.75,32.25,-1.00,-1.0,2430
4908,919908,17004,-656,812,17036.01,32.29,-1.00,-1.0,2367
4911,919911,17064,-660,892,17100.04,32.25,-1.00,-1.0,2429
4913,919913,17048,-544,792,17075.05,32.20,-1.00,-1.0,2355
4916,919916,17128,-692,852,17163.13,32.15,-1.00,-1.0,2421
4919,919919,17092,-540,808,17119.61,32.20,-1.00,-1.0,2367
4922,919922,16992,-636,700,17018.30,32.15,-1.00,-1.0,2420
4924,919924,17016,-680,960,17056.62,32.29,-1.00,-1.0,2369
4929,919929,17020,-660,828,17052.91,32.20,-1.00,-1.0,2434
4932,919932,17016,-692,824,17049.99,32.15,-1.00,-1.0,2372
4934,919934,17072,-648,864,17106.13,32.29,-1.00,-1.0,2365
4937,919937,17128,-576,956,17164.33,32.25,-1.00,-1.0,2430
4940,919940,17052,-584,584,17071.99,32.11,-1.00,-1.0,2367
4943,919943,17020,-620,704,17045.83,32.15,-1.00,-1.0,2407
4945,919945,17044,-624,868,17077.49,32.15,-1.00,-1.0,2368
4948,919948,17048,-636,920,17084.65,32.25,-1.00,-1.0,2423
4951,919951,17068,-588,792,17096.48,32.25,-1.00,-1.0,2368
4956,919956,16940,-692,912,16978.64,32.25,-1.00,-1.0,2417
4959,919959,16988,-732,884,17026.73,32.20,-1.00,-1.0,2368
4962,919962,17044,-664,964,17084.15,32.15,-1.00,-1.0,2429
4965,919965,17080,-708,736,17110.50,32.11,-1.00,-1.0,2367
4967,919967,17040,-628,820,17071.27,32.15,-1.00,-1.0,2365
4970,919970,17020,-632,856,17053.23,32.20,-1.00,-1.0,2428
4973,919973,17032,-684,644,17057.89,32.15,-1.00,-1.0,2367
4975,919975,17092,-692,908,17130.08,32.29,-1.00,-1.0,2434
4978,919978,17136,-612,908,17170.95,32.15,-1.00,-1.0,2370
4983,919983,17020,-680,828,17053.69,32.15,-1.00,-1.0,2432
4986,919986,16992,-504,776,17017.18,32.25,-1.00,-1.0,2367
4989,919989,17064,-640,820,17095.67,32.25,-1.00,-1.0,2438
4992,919992,17068,-620,752,17095.80,32.25,-1.00,-1.0,2366
4994,919994,16964,-564,680,16986.99,32.15,-1.00,-1.0,2422
4997,919997,17076,-632,780,17105.48,32.25,-1.00,-1.0,2368
5000,920000,17048,-580,684,17071.57,32.20,-1.00,-1.0,2371
5002,920002,17056,-656,740,17084.64,32.20,-1.00,-1.0,2429
5005,920005,17072,-668,796,17103.60,32.20,-1.00,-1.0,2371
5010,920010,17080,-700,776,17111.94,32.20,-1.00,-1.0,2434
5013,920013,17028,-608,912,17063.24,32.25,-1.00,-1.0,2367
5016,920016,17016,-616,768,17044.46,32.20,-1.00,-1.0,2438
5019,920019,17036,-716,804,17069.98,32.15,-1.00,-1.0,2366
5021,920021,17120,-648,776,17149.82,32.20,-1.00,-1.0,2427
5024,920024,17100,-700,808,17133.38,32.25,-1.00,-1.0,2368
5027,920027,17148,-704,660,17175.13,32.29,-1.00,-1.0,2429
5030,920030,17008,-588,760,17035.12,32.11,-1.00,-1.0,2370
5032,920032,17004,-496,948,17037.63,32.20,-1.00,-1.0,2369
5037,920037,17076,-600,916,17111.07,32.20,-1.00,-1.0,2433
5040,920040,17088,-656,944,17126.62,32.25,-1.00,-1.0,2367
5043,920043,17076,-520,900,17107.61,32.11,-1.00,-1.0,2438
5046,920046,17088,-608,832,17119.04,32.20,-1.00,-1.0,2367
5048,920048,16944,-620,916,16980.06,32.20,-1.00,-1.0,2436
5051,920051,17032,-624,784,17061.45,32.20,-1.00,-1.0,2376
5054,920054,16976,-648,744,17004.65,32.20,-1.00,-1.0,2428
5057,920057,17016,-608,752,17043.46,32.20,-1.00,-1.0,2369
5062,920062,17040,-496,912,17071.60,32.20,-1.00,-1.0,2431
5064,920064,17000,-604,804,17029.72,32.20,-1.00,-1.0,2371
5067,920067,17036,-680,704,17064.09,32.20,-1.00,-1.0,2365
5070,920070,17028,-648,888,17063.45,32.25,-1.00,-1.0,2429
5072,920072,17028,-672,848,17062.34,32.15,-1.00,-1.0,2374
5075,920075,17120,-616,888,17154.08,32.15,-1.00,-1.0,2420
5078,920078,16976,-620,876,17009.89,32.25,-1.00,-1.0,2370
5081,920081,17012,-640,980,17052.22,32.15,-1.00,-1.0,2420
5083,920083,17088,-624,840,17120.01,32.15,-1.00,-1.0,2370
5088,920088,17024,-576,900,17057.50,32.15,-1.00,-1.0,2441
5091,920091,17052,-680,696,17079.74,32.15,-1.00,-1.0,2382
5094,920094,17068,-596,848,17099.44,32.15,-1.00,-1.0,2366
5097,920097,17060,-660,876,17095.22,32.20,-1.00,-1.0,2430
5099,920099,16960,-584,852,16991.43,32.20,-1.00,-1.0,2370
5102,920102,17084,-668,856,17118.47,32.11,-1.00,-1.0,2421
5105,920105,17032,-608,744,17059.08,32.29,-1.00,-1.0,2376
5108,920108,17092,-592,916,17126.76,32.20,-1.00,-1.0,2420
5110,920110,17068,-636,924,17104.82,32.15,-1.00,-1.0,2370
5116,920116,16960,-544,824,16988.72,32.20,-1.00,-1.0,2440
5119,920119,17008,-572,852,17038.93,32.20,-1.00,-1.0,2374
5122,920122,17052,-644,804,17083.09,32.20,-1.00,-1.0,2430
5124,920124,17080,-556,760,17105.94,32.20,-1.00,-1.0,2369
5127,920127,17056,-604,680,17080.23,32.25,-1.00,-1.0,2366
5130,920130,17080,-544,912,17112.98,32.15,-1.00,-1.0,2421
5132,920132,17036,-556,724,17060.44,32.15,-1.00,-1.0,2374
5135,920135,17112,-640,824,17143.78,32.20,-1.00,-1.0,2422
5138,920138,17156,-680,748,17185.76,32.15,-1.00,-1.0,2371
5143,920143,17036,-576,748,17062.14,32.15,-1.00,-1.0,2436
5145,920145,17048,-648,660,17073.07,32.06,-1.00,-1.0,2372
5148,920148,17104,-656,764,17133.62,32.25,-1.00,-1.0,2430
5151,920151,16992,-668,880,17027.88,32.15,-1.00,-1.0,2375
5154,920154,17016,-564,756,17042.12,32.15,-1.00,-1.0,2432
5156,920156,17004,-616,832,17035.48,32.15,-1.00,-1.0,2375
5159,920159,17092,-632,844,17124.49,32.15,-1.00,-1.0,2366
5162,920162,17116,-592,900,17149.87,32.20,-1.00,-1.0,2429
5165,920165,17192,-568,792,17219.60,32.29,-1.00,-1.0,2367
5170,920170,17120,-692,660,17146.69,32.15,-1.00,-1.0,2436
5172,920172,17072,-632,948,17109.98,32.15,-1.00,-1.0,2376
5175,920175,17096,-604,760,17123.54,32.20,-1.00,-1.0,2429
5178,920178,17076,-628,824,17107.40,32.15,-1.00,-1.0,2368
5181,920181,17076,-640,772,17105.42,32.20,-1.00,-1.0,2421
5183,920183,17092,-564,812,17120.57,32.25,-1.00,-1.0,2375
5186,920186,17060,-588,844,17090.98,32.20,-1.00,-1.0,2421
5189,920189,17076,-608,772,17104.25,32.15,-1.00,-1.0,2369
5192,920192,17096,-720,876,17133.56,32.29,-1.00,-1.0,2354
5197,920197,17108,-668,868,17143.03,32.29,-1.00,-1.0,2431
5199,920199,17084,-552,872,17115.14,32.20,-1.00,-1.0,2367
5202,920202,17072,-624,1036,17114.79,32.29,-1.00,-1.0,2430
5205,920205,17008,-632,868,17041.86,32.20,-1.00,-1.0,2367
5208,920208,17020,-644,828,17052.29,32.20,-1.00,-1.0,2420
5210,920210,17068,-684,832,17101.95,32.20,-1.00,-1.0,2368
5213,920213,17112,-576,884,17144.50,32.20,-1.00,-1.0,2422
5216,920216,17056,-668,972,17096.73,32.20,-1.00,-1.0,2371
5221,920221,17108,-664,864,17142.67,32.20,-1.00,-1.0,2434
5223,920223,17140,-656,824,17172.33,32.15,-1.00,-1.0,2375
5226,920226,17136,-680,808,17168.51,32.29,-1.00,-1.0,2365
5229,920229,17024,-620,836,17055.79,32.15,-1.00,-1.0,2433
5232,920232,17116,-716,876,17153.35,32.15,-1.00,-1.0,2367
5234,920234,17096,-636,888,17130.86,32.25,-1.00,-1.0,2422
5237,920237,17000,-580,872,17032.23,32.15,-1.00,-1.0,2370
5240,920240,17124,-648,832,17156.44,32.15,-1.00,-1.0,2410
5243,920243,17064,-616,856,17096.56,32.15,-1.00,-1.0,2367
5248,920248,16972,-520,704,16994.55,32.15,-1.00,-1.0,2431
5250,920250,17040,-684,744,17069.94,32.11,-1.00,-1.0,2367
5253,920253,17004,-708,896,17042.30,32.15,-1.00,-1.0,2429
5256,920256,16988,-692,908,17026.32,32.20,-1.00,-1.0,2367
5258,920258,17068,-556,860,17098.70,32.15,-1.00,-1.0,2367
5261,920261,17020,-572,960,17056.65,32.20,-1.00,-1.0,2416
5264,920264,17060,-668,800,17091.81,32.15,-1.00,-1.0,2376
5267,920267,17120,-676,728,17148.80,32.20,-1.00,-1.0,2437
5270,920270,17044,-592,836,17074.76,32.15,-1.00,-1.0,2367
5275,920275,17000,-596,980,17038.65,32.25,-1.00,-1.0,2431
5277,920277,17008,-576,832,17038.08,32.15,-1.00,-1.0,2367
5280,920280,16964,-644,824,16996.21,32.15,-1.00,-1.0,2429
5283,920283,17108,-636,808,17138.88,32.15,-1.00,-1.0,2376
5286,920286,16984,-640,808,17015.25,32.25,-1.00,-1.0,2411
5288,920288,17120,-632,800,17150.33,32.20,-1.00,-1.0,2446
5291,920291,17072,-576,920,17106.47,32.20,-1.00,-1.0,2383
5294,920294,17068,-728,656,17096.11,32.29,-1.00,-1.0,2426
5297,920297,17000,-604,720,17025.96,32.20,-1.00,-1.0,2371
5302,920302,16960,-756,852,16998.21,32.20,-1.00,-1.0,2432
5304,920304,16948,-588,892,16981.64,32.15,-1.00,-1.0,2369
5307,920307,17088,-588,856,17119.53,32.20,-1.00,-1.0,2445
5310,920310,17052,-604,836,17083.16,32.25,-1.00,-1.0,2375
5313,920313,17124,-608,800,17153.46,32.20,-1.00,-1.0,2436
5315,920315,16984,-636,940,17021.88,32.29,-1.00,-1.0,2379
5318,920318,16952,-580,816,16981.54,32.25,-1.00,-1.0,2365
5321,920321,17012,-612,768,17040.32,32.15,-1.00,-1.0,2429
5324,920324,17096,-592,812,17125.51,32.11,-1.00,-1.0,2371
5329,920329,17012,-584,892,17045.38,32.25,-1.00,-1.0,2434
5331,920331,17048,-676,848,17082.46,32.20,-1.00,-1.0,2355
5334,920334,17060,-560,916,17093.75,32.15,-1.00,-1.0,2431
5337,920337,17172,-536,848,17201.28,32.20,-1.00,-1.0,2370
5340,920340,17008,-572,848,17038.73,32.25,-1.00,-1.0,2422
5342,920342,16948,-596,776,16976.22,32.15,-1.00,-1.0,2368
5345,920345,17092,-672,872,17127.42,32.15,-1.00,-1.0,2408
5348,920348,17024,-568,772,17050.96,32.11,-1.00,-1.0,2370
5351,920351,17028,-700,740,17058.44,32.20,-1.00,-1.0,2369
5355,920355,17044,-628,864,17077.44,32.11,-1.00,-1.0,2432
5358,920358,17020,-616,884,17054.07,32.15,-1.00,-1.0,2367
5361,920361,17040,-636,908,17076.02,32.20,-1.00,-1.0,2437
5364,920364,17008,-744,880,17046.99,32.20,-1.00,-1.0,2367
5366,920366,17108,-532,792,17134.58,32.20,-1.00,-1.0,2437
5369,920369,17112,-632,820,17143.29,32.11,-1.00,-1.0,2377
5372,920372,17016,-676,864,17051.33,32.20,-1.00,-1.0,2424
5375,920375,17064,-676,704,17091.89,32.25,-1.00,-1.0,2367
5380,920380,17004,-692,760,17035.04,32.15,-1.00,-1.0,2440
5382,920382,17132,-652,804,17163.24,32.20,-1.00,-1.0,2375
5385,920385,17072,-604,700,17097.02,32.15,-1.00,-1.0,2365
5388,920388,17020,-636,724,17047.26,32.15,-1.00,-1.0,2432
5391,920391,17092,-668,760,17121.92,32.25,-1.00,-1.0,2366
5393,920393,17028,-576,944,17063.87,32.20,-1.00,-1.0,2422
5396,920396,17024,-716,804,17058.01,32.25,-1.00,-1.0,2368
5399,920399,17020,-548,708,17043.53,32.15,-1.00,-1.0,2423
5402,920402,17048,-676,804,17080.33,32.15,-1.00,-1.0,2367
5407,920407,17096,-680,732,17125.17,32.15,-1.00,-1.0,2431
5409,920409,17040,-628,708,17066.26,32.25,-1.00,-1.0,2373
5412,920412,16996,-656,812,17028.03,32.15,-1.00,-1.0,2430
5415,920415,17060,-680,904,17097.46,32.25,-1.00,-1.0,2371
5418,920418,17104,-536,932,17137.76,32.29,-1.00,-1.0,2366
5420,920420,17052,-560,868,17083.26,32.29,-1.00,-1.0,2429
5423,920423,17048,-600,788,17076.75,32.20,-1.00,-1.0,2368
5426,920426,17104,-568,712,17128.23,32.20,-1.00,-1.0,2427
5429,920429,16984,-664,748,17013.43,32.15,-1.00,-1.0,2367
5434,920434,17076,-568,736,17101.29,32.15,-1.00,-1.0,2430
5436,920436,17132,-692,852,17167.12,32.15,-1.00,-1.0,2369
5439,920439,17008,-624,776,17037.12,32.15,-1.00,-1.0,2475
5442,920442,16868,-592,936,16904.32,32.25,-1.00,-1.0,2397
5445,920445,17048,-648,860,17081.97,32.20,-1.00,-1.0,2420
5448,920448,17044,-536,864,17074.30,32.15,-1.00,-1.0,2374
5450,920450,17044,-652,740,17072.51,32.25,-1.00,-1.0,2369
5453,920453,17100,-528,756,17124.85,32.15,-1.00,-1.0,2423
5456,920456,16996,-640,700,17022.45,32.34,-1.00,-1.0,2383
5461,920461,17060,-520,800,17086.66,32.15,-1.00,-1.0,2427
5464,920464,17000,-580,876,17032.43,32.20,-1.00,-1.0,2374
5466,920466,17112,-572,828,17141.57,32.25,-1.00,-1.0,2445
5469,920469,17052,-580,780,17079.68,32.15,-1.00,-1.0,2377
5472,920472,17020,-556,688,17042.97,32.25,-1.00,-1.0,2409
5475,920475,16988,-520,868,17018.11,32.06,-1.00,-1.0,2372
5477,920477,17044,-596,760,17071.34,32.15,-1.00,-1.0,2366
5480,920480,17028,-620,748,17055.69,32.20,-1.00,-1.0,2419
5483,920483,17008,-608,864,17040.78,32.20,-1.00,-1.0,2373
5488,920488,17104,-580,888,17136.85,32.20,-1.00,-1.0,2426
5491,920491,17012,-624,808,17042.61,32.20,-1.00,-1.0,2375
5493,920493,17108,-684,748,17138.00,32.20,-1.00,-1.0,2433
5496,920496,17072,-688,812,17105.14,32.20,-1.00,-1.0,2374
5499,920499,17160,-692,752,17190.40,32.25,-1.00,-1.0,2425
5502,920502,17084,-720,920,17123.90,32.29,-1.00,-1.0,2371
5504,920504,17068,-564,880,17099.97,32.15,-1.00,-1.0,2424
5507,920507,17060,-672,860,17094.88,32.20,-1.00,-1.0,2371
5510,920510,17056,-620,864,17089.12,32.15,-1.00,-1.0,2417
5515,920515,17052,-564,928,17086.54,32.25,-1.00,-1.0,2438
5518,920518,17096,-628,760,17124.40,32.15,-1.00,-1.0,2375
5521,920521,17132,-752,828,17168.47,32.20,-1.00,-1.0,2418
5523,920523,17128,-676,860,17162.89,32.20,-1.00,-1.0,2374
5526,920526,17000,-632,848,17032.87,32.29,-1.00,-1.0,2419
5529,920529,17068,-572,820,17097.26,32.15,-1.00,-1.0,2370
5532,920532,16992,-640,804,17023.04,32.20,-1.00,-1.0,2418
5534,920534,17012,-660,876,17047.32,32.20,-1.00,-1.0,2374
5539,920539,17088,-648,820,17119.93,32.20,-1.00,-1.0,2434
5542,920542,17044,-624,776,17073.06,32.11,-1.00,-1.0,2373
5544,920544,16988,-612,916,17023.68,32.15,-1.00,-1.0,2367
5547,920547,17060,-648,684,17086.00,32.20,-1.00,-1.0,2430
5550,920550,16928,-752,760,16961.73,32.25,-1.00,-1.0,2381
5553,920553,17028,-644,940,17066.08,32.25,-1.00,-1.0,2431
5555,920555,17152,-620,712,17177.96,32.15,-1.00,-1.0,2377
5558,920558,17140,-652,824,17172.18,32.20,-1.00,-1.0,2418
5561,920561,17036,-672,768,17066.54,32.15,-1.00,-1.0,2374
5566,920566,17020,-572,780,17047.46,32.25,-1.00,-1.0,2434
5568,920568,16988,-676,736,17017.37,32.25,-1.00,-1.0,2374
5571,920571,17100,-652,840,17133.03,32.15,-1.00,-1.0,2417
5574,920574,17000,-600,836,17031.12,32.15,-1.00,-1.0,2378
5576,920576,17016,-616,876,17049.67,32.20,-1.00,-1.0,2374
5579,920579,17012,-608,792,17041.28,32.29,-1.00,-1.0,2418
5582,920582,17024,-668,896,17060.64,32.20,-1.00,-1.0,2371
5585,920585,17068,-624,848,17100.44,32.20,-1.00,-1.0,2418
5588,920588,17060,-640,788,17090.18,32.20,-1.00,-1.0,2356
5593,920593,17032,-712,808,17066.01,32.15,-1.00,-1.0,2433
5596,920596,16988,-664,780,17018.86,32.15,-1.00,-1.0,2384
5599,920599,16956,-668,940,16995.17,32.15,-1.00,-1.0,2421
5601,920601,17036,-564,884,17068.24,32.25,-1.00,-1.0,2372
5604,920604,17052,-584,840,17082.66,32.20,-1.00,-1.0,2432
5607,920607,17084,-624,924,17120.35,32.15,-1.00,-1.0,2381
5610,920610,17104,-708,780,17136.41,32.20,-1.00,-1.0,2368
5612,920612,17116,-652,840,17149.00,32.15,-1.00,-1.0,2418
5615,920615,17028,-616,780,17056.98,32.11,-1.00,-1.0,2375
5620,920620,17100,-528,748,17124.49,32.20,-1.00,-1.0,2421
5623,920623,17028,-648,876,17062.83,32.15,-1.00,-1.0,2380
5626,920626,17008,-580,748,17034.32,32.20,-1.00,-1.0,2421
5628,920628,17032,-668,824,17065.00,32.20,-1.00,-1.0,2386
5631,920631,17180,-580,916,17214.18,32.20,-1.00,-1.0,2421
5634,920634,17048,-672,888,17084.33,32.20,-1.00,-1.0,2373
5637,920637,17000,-672,740,17029.36,32.11,-1.00,-1.0,2421
5639,920639,17060,-692,816,17093.52,32.20,-1.00,-1.0,2373
5642,920642,17072,-656,912,17108.92,32.25,-1.00,-1.0,2366
5647,920647,17000,-560,768,17026.55,32.20,-1.00,-1.0,2434
5650,920650,17104,-688,796,17136.33,32.20,-1.00,-1.0,2383
5653,920653,17044,-628,868,17077.64,32.25,-1.00,-1.0,2420
5655,920655,17004,-644,860,17037.91,32.20,-1.00,-1.0,2374
5658,920658,17008,-632,936,17045.46,32.15,-1.00,-1.0,2418
5661,920661,17132,-580,796,17160.29,32.20,-1.00,-1.0,2371
5664,920664,17188,-584,828,17217.84,32.25,-1.00,-1.0,2418
5666,920666,17132,-620,752,17159.70,32.11,-1.00,-1.0,2358
5669,920669,17072,-656,756,17101.32,32.25,-1.00,-1.0,2366
5674,920674,17016,-580,828,17046.00,32.15,-1.00,-1.0,2435
5677,920677,17052,-620,692,17077.29,32.20,-1.00,-1.0,2371
5680,920680,17064,-648,832,17096.56,32.15,-1.00,-1.0,2418
5682,920682,16976,-596,816,17006.05,32.20,-1.00,-1.0,2358
5685,920685,17056,-672,816,17088.73,32.15,-1.00,-1.0,2418
5688,920688,17040,-684,808,17072.85,32.20,-1.00,-1.0,2371
5691,920691,17008,-664,668,17034.06,32.15,-1.00,-1.0,2420
5693,920693,17032,-632,712,17058.59,32.11,-1.00,-1.0,2374
5698,920698,17068,-596,840,17099.05,32.11,-1.00,-1.0,2448
5701,920701,17016,-628,864,17049.49,32.20,-1.00,-1.0,2382
5704,920704,17068,-588,844,17098.97,32.15,-1.00,-1.0,2364
5706,920706,17056,-676,876,17091.85,32.15,-1.00,-1.0,2418
5709,920709,17032,-664,828,17065.04,32.15,-1.00,-1.0,2358
5712,920712,17072,-632,820,17103.36,32.15,-1.00,-1.0,2426
5715,920715,17104,-612,860,17136.54,32.25,-1.00,-1.0,2370
5717,920717,17076,-632,716,17102.69,32.20,-1.00,-1.0,2421
5720,920720,17016,-688,728,17045.46,32.11,-1.00,-1.0,2371
5725,920725,17064,-632,792,17094.06,32.15,-1.00,-1.0,2433
5728,920728,17156,-732,788,17189.68,32.25,-1.00,-1.0,2374
5731,920731,17064,-588,832,17094.39,32.15,-1.00,-1.0,2418
5733,920733,17072,-596,756,17099.12,32.15,-1.00,-1.0,2371
5736,920736,17048,-656,852,17081.88,32.20,-1.00,-1.0,2374
5739,920739,17104,-520,760,17128.77,32.15,-1.00,-1.0,2433
5741,920741,17096,-640,820,17127.62,32.20,-1.00,-1.0,2375
5744,920744,17124,-584,888,17156.95,32.25,-1.00,-1.0,2428
5747,920747,16976,-580,852,17007.26,32.20,-1.00,-1.0,2371
5752,920752,17060,-612,852,17092.22,32.15,-1.00,-1.0,2440
5755,920755,17104,-600,876,17136.93,32.20,-1.00,-1.0,2377
5757,920757,16988,-580,912,17022.35,32.15,-1.00,-1.0,2420
5760,920760,17068,-632,752,17096.24,32.25,-1.00,-1.0,2385
5763,920763,17076,-640,916,17112.52,32.15,-1.00,-1.0,2418
5766,920766,17044,-640,752,17072.58,32.25,-1.00,-1.0,2370
5768,920768,17020,-664,712,17047.82,32.20,-1.00,-1.0,2366
5771,920771,17124,-632,888,17158.65,32.15,-1.00,-1.0,2432
5774,920774,17148,-648,716,17175.17,32.29,-1.00,-1.0,2378
5779,920779,17128,-604,848,17159.61,32.20,-1.00,-1.0,2440
5782,920782,17000,-628,700,17025.99,32.15,-1.00,-1.0,2374
5784,920784,17068,-624,764,17096.48,32.20,-1.00,-1.0,2420
5787,920787,16984,-628,712,17010.51,32.20,-1.00,-1.0,2371
5790,920790,17036,-592,904,17070.24,32.20,-1.00,-1.0,2426
5793,920793,17080,-708,852,17115.89,32.25,-1.00,-1.0,2370
5795,920795,17064,-676,880,17100.04,32.20,-1.00,-1.0,2420
5798,920798,17040,-644,800,17070.92,32.15,-1.00,-1.0,2386
5801,920801,17016,-684,796,17048.34,32.15,-1.00,-1.0,2381
5806,920806,17036,-632,740,17063.77,32.25,-1.00,-1.0,2434
5809,920809,17116,-616,816,17146.51,32.11,-1.00,-1.0,2382
5812,920812,17008,-588,804,17037.14,32.25,-1.00,-1.0,2434
5814,920814,16908,-688,768,16939.41,32.25,-1.00,-1.0,2375
5817,920817,17084,-684,680,17111.21,32.15,-1.00,-1.0,2428
5820,920820,17020,-648,860,17054.03,32.15,-1.00,-1.0,2378
5823,920823,17048,-652,880,17083.14,32.15,-1.00,-1.0,2431
5825,920825,17016,-668,844,17050.01,32.25,-1.00,-1.0,2380
5830,920830,17016,-648,876,17050.85,32.25,-1.00,-1.0,2444
5833,920833,17072,-568,728,17096.95,32.25,-1.00,-1.0,2378
5836,920836,17084,-624,764,17112.46,32.20,-1.00,-1.0,2366
5839,920839,16980,-648,880,17015.13,32.20,-1.00,-1.0,2418
5841,920841,17072,-604,660,17095.43,32.11,-1.00,-1.0,2371
5844,920844,17096,-532,736,17120.10,32.20,-1.00,-1.0,2418
5847,920847,17096,-616,780,17124.87,32.20,-1.00,-1.0,2370
5850,920850,17132,-656,748,17160.87,32.20,-1.00,-1.0,2418
5852,920852,16992,-696,804,17025.24,32.20,-1.00,-1.0,2370
5857,920857,17072,-628,988,17112.09,32.29,-1.00,-1.0,2433
5860,920860,17044,-592,816,17073.79,32.25,-1.00,-1.0,2362
5863,920863,16988,-676,828,17021.60,32.20,-1.00,-1.0,2364
5865,920865,17052,-640,832,17084.28,32.15,-1.00,-1.0,2418
5868,920868,17036,-568,888,17068.58,32.29,-1.00,-1.0,2371
5871,920871,17028,-640,740,17056.08,32.25,-1.00,-1.0,2421
5874,920874,17032,-612,772,17060.47,32.20,-1.00,-1.0,2370
5876,920876,17044,-540,800,17071.31,32.25,-1.00,-1.0,2418
5879,920879,17072,-600,952,17109.05,32.20,-1.00,-1.0,2371
5884,920884,17036,-544,788,17062.89,32.20,-1.00,-1.0,2439
5887,920887,17064,-728,828,17099.58,32.11,-1.00,-1.0,2375
5890,920890,17012,-608,800,17041.65,32.11,-1.00,-1.0,2419
5892,920892,17056,-688,764,17086.96,32.25,-1.00,-1.0,2377
5895,920895,17084,-684,672,17110.89,32.25,-1.00,-1.0,2364
5898,920898,17032,-632,1008,17073.50,32.25,-1.00,-1.0,2425
5901,920901,17008,-672,728,17036.83,32.25,-1.00,-1.0,2357
5903,920903,17128,-680,824,17161.29,32.25,-1.00,-1.0,2419
5906,920906,17076,-592,800,17104.98,32.20,-1.00,-1.0,2371
5911,920911,17000,-628,828,17031.73,32.20,-1.00,-1.0,2434
5914,920914,17096,-468,872,17124.62,32.29,-1.00,-1.0,2379
5917,920917,17088,-632,800,17118.39,32.25,-1.00,-1.0,2418
5919,920919,16976,-640,768,17005.41,32.20,-1.00,-1.0,2357
5922,920922,17096,-660,864,17130.54,32.20,-1.00,-1.0,2419
5925,920925,17084,-604,880,17117.31,32.20,-1.00,-1.0,2373
5928,920928,17040,-484,776,17064.53,32.15,-1.00,-1.0,2366
5930,920930,17064,-600,848,17095.59,32.25,-1.00,-1.0,2419
5933,920933,16988,-664,856,17022.51,32.25,-1.00,-1.0,2357
5938,920938,16984,-624,712,17010.37,32.20,-1.00,-1.0,2433
5941,920941,17108,-632,868,17141.66,32.20,-1.00,-1.0,2374
5944,920944,17012,-640,732,17039.76,32.15,-1.00,-1.0,2426
5947,920947,17052,-544,808,17079.80,32.11,-1.00,-1.0,2374
5949,920949,16988,-660,932,17026.34,32.25,-1.00,-1.0,2422
5952,920952,17008,-600,904,17042.57,32.20,-1.00,-1.0,2371
5955,920955,17096,-576,864,17127.51,32.25,-1.00,-1.0,2425
5958,920958,17044,-548,812,17072.13,32.20,-1.00,-1.0,2370
5960,920960,17100,-612,764,17128.00,32.15,-1.00,-1.0,2365
5967,920967,17056,-672,820,17088.92,32.15,-1.00,-1.0,2433
5970,920970,17024,-636,816,17055.41,32.25,-1.00,-1.0,2374
5973,920973,17036,-556,948,17071.41,32.15,-1.00,-1.0,2418
5975,920975,17044,-660,888,17079.87,32.15,-1.00,-1.0,2372
5978,920978,16940,-604,656,16963.45,32.20,-1.00,-1.0,2418
5981,920981,17104,-596,772,17131.78,32.15,-1.00,-1.0,2378
5984,920984,17100,-680,888,17136.54,32.11,-1.00,-1.0,2418
5986,920986,17028,-604,756,17055.47,32.15,-1.00,-1.0,2371
5991,920991,17028,-540,752,17053.15,32.25,-1.00,-1.0,2420
5994,920994,17160,-564,876,17191.60,32.25,-1.00,-1.0,2374
5996,920996,16992,-672,816,17024.85,32.15,-1.00,-1.0,2369
5999,920999,17036,-644,868,17070.25,32.20,-1.00,-1.0,2434
6002,921002,17020,-676,836,17053.92,32.20,-1.00,-1.0,2379
6005,921005,16992,-636,972,17031.66,32.20,-1.00,-1.0,2432
6007,921007,17016,-716,872,17053.37,32.20,-1.00,-1.0,2375
6010,921010,17008,-536,884,17039.39,32.11,-1.00,-1.0,2429
6013,921013,17048,-568,844,17078.33,32.11,-1.00,-1.0,2379
6018,921018,17064,-496,588,17081.33,32.20,-1.00,-1.0,2441
6021,921021,16992,-592,772,17019.83,32.20,-1.00,-1.0,2374
6023,921023,17012,-744,684,17041.99,32.20,-1.00,-1.0,2427
6026,921026,17064,-584,756,17090.72,32.11,-1.00,-1.0,2378
6029,921029,17028,-624,740,17055.49,32.15,-1.00,-1.0,2366
6032,921032,17128,-584,816,17157.37,32.15,-1.00,-1.0,2418
6034,921034,17196,-604,832,17226.71,32.06,-1.00,-1.0,2371
6037,921037,17080,-676,744,17109.56,32.15,-1.00,-1.0,2418
6040,921040,17048,-612,780,17076.80,32.15,-1.00,-1.0,2369
6045,921045,17080,-520,736,17103.76,32.29,-1.00,-1.0,2442
6048,921048,16984,-584,872,17016.39,32.20,-1.00,-1.0,2376
6050,921050,17020,-672,800,17052.04,32.15,-1.00,-1.0,2426
6053,921053,17068,-644,756,17096.87,32.20,-1.00,-1.0,2386
6056,921056,17048,-576,756,17074.47,32.15,-1.00,-1.0,2419
6059,921059,16980,-644,940,17018.19,32.29,-1.00,-1.0,2371
6061,921061,17084,-616,752,17111.63,32.06,-1.00,-1.0,2366
6064,921064,17088,-696,828,17122.20,32.11,-1.00,-1.0,2418
6067,921067,17088,-652,708,17115.08,32.25,-1.00,-1.0,2370
6072,921072,17068,-656,836,17101.05,32.25,-1.00,-1.0,2440
6074,921074,17004,-652,880,17039.23,32.25,-1.00,-1.0,2382
6077,921077,17024,-624,792,17053.83,32.25,-1.00,-1.0,2418
6080,921080,16924,-556,912,16957.67,32.15,-1.00,-1.0,2372
6083,921083,17040,-596,912,17074.79,32.25,-1.00,-1.0,2418
6085,921085,16984,-684,720,17013.01,32.25,-1.00,-1.0,2372
6088,921088,16932,-600,780,16960.57,32.11,-1.00,-1.0,2365
6091,921091,17024,-496,792,17049.63,32.20,-1.00,-1.0,2426
6094,921094,17024,-528,844,17053.08,32.29,-1.00,-1.0,2370
6099,921099,17100,-648,720,17127.41,32.20,-1.00,-1.0,2433
6101,921101,16992,-580,820,17021.66,32.25,-1.00,-1.0,2374
6104,921104,17164,-628,1004,17204.80,32.20,-1.00,-1.0,2418
6107,921107,17032,-560,688,17055.09,32.25,-1.00,-1.0,2371
6110,921110,17072,-516,804,17098.71,32.20,-1.00,-1.0,2405
6112,921112,17048,-680,820,17081.25,32.25,-1.00,-1.0,2371
6115,921115,17016,-604,812,17046.07,32.20,-1.00,-1.0,2421
6118,921118,17052,-660,712,17079.62,32.25,-1.00,-1.0,2369
6120,921120,16952,-620,804,16982.38,32.20,-1.00,-1.0,2368
6125,921125,17000,-536,728,17024.02,32.11,-1.00,-1.0,2434
6128,921128,17128,-620,812,17158.44,32.20,-1.00,-1.0,2374
6131,921131,17072,-660,820,17104.42,32.20,-1.00,-1.0,2420
6134,921134,17084,-640,948,17122.25,32.20,-1.00,-1.0,2370
6136,921136,17068,-736,752,17100.40,32.20,-1.00,-1.0,2421
6139,921139,16956,-572,740,16981.78,32.20,-1.00,-1.0,2371
6142,921142,17084,-580,900,17117.52,32.20,-1.00,-1.0,2420
6145,921145,17096,-632,836,17128.09,32.20,-1.00,-1.0,2370
6150,921150,17096,-684,764,17126.73,32.20,-1.00,-1.0,2434
6152,921152,17108,-664,796,17139.38,32.25,-1.00,-1.0,2374
6155,921155,16996,-660,816,17028.37,32.15,-1.00,-1.0,2400
6158,921158,17032,-680,728,17061.11,32.20,-1.00,-1.0,2440
6161,921161,17060,-572,908,17093.72,32.29,-1.00,-1.0,2369
6163,921163,17056,-644,672,17081.38,32.25,-1.00,-1.0,2422
6166,921166,17044,-532,812,17071.62,32.20,-1.00,-1.0,2371
6169,921169,17052,-636,912,17088.21,32.15,-1.00,-1.0,2421
6172,921172,17072,-672,964,17112.39,32.20,-1.00,-1.0,2370
6176,921176,17068,-600,800,17097.27,32.15,-1.00,-1.0,2426
6179,921179,17084,-640,848,17117.00,32.20,-1.00,-1.0,2374
6182,921182,17056,-608,896,17090.34,32.15,-1.00,-1.0,2436
6185,921185,16968,-632,816,16999.36,32.15,-1.00,-1.0,2369
6187,921187,17076,-532,888,17107.35,32.15,-1.00,-1.0,2367
6190,921190,17004,-604,936,17040.45,32.20,-1.00,-1.0,2419
6193,921193,17020,-648,940,17058.25,32.15,-1.00,-1.0,2371
6196,921196,17108,-600,888,17141.54,32.20,-1.00,-1.0,2422
6198,921198,17100,-580,644,17121.95,32.25,-1.00,-1.0,2374
6203,921203,17096,-596,844,17127.19,32.15,-1.00,-1.0,2432
6206,921206,16956,-608,676,16980.36,32.20,-1.00,-1.0,2374
6208,921208,17024,-560,700,17047.59,32.25,-1.00,-1.0,2428
6211,921211,16976,-608,740,17002.99,32.25,-1.00,-1.0,2371
6214,921214,16980,-712,764,17012.09,32.25,-1.00,-1.0,2425
6217,921217,17064,-644,712,17090.98,32.15,-1.00,-1.0,2370
6219,921219,17028,-548,876,17059.32,32.34,-1.00,-1.0,2369
6222,921222,17096,-568,952,17131.90,32.29,-1.00,-1.0,2421
6225,921225,17036,-724,660,17064.15,32.20,-1.00,-1.0,2369
