timestamp_ms,global_ms,accel_x,accel_y,accel_z,accel_mag,temp_c,voltage,soc,loop_us
2,1830002,17028,-612,916,17063.60,27.49,-1.00,-1.0,2497
9,1830009,17012,-668,988,17053.75,27.45,-1.00,-1.0,2451
12,1830012,16992,-600,1168,17042.66,27.45,-1.00,-1.0,2369
14,1830014,17088,-576,992,17126.46,27.45,-1.00,-1.0,2373
17,1830017,17048,-536,912,17080.79,27.40,-1.00,-1.0,2420
20,1830020,17008,-576,1132,17055.36,27.49,-1.00,-1.0,2372
23,1830023,16996,-616,1028,17038.20,27.49,-1.00,-1.0,2420
25,1830025,16988,-504,920,17020.36,27.49,-1.00,-1.0,2373
28,1830028,17036,-628,928,17072.81,27.31,-1.00,-1.0,2407
31,1830031,16940,-528,1020,16978.89,27.40,-1.00,-1.0,2370
35,1830035,17156,-556,872,17187.14,27.49,-1.00,-1.0,2452
38,1830038,17060,-568,828,17089.52,27.45,-1.00,-1.0,2374
41,1830041,17016,-544,880,17047.42,27.49,-1.00,-1.0,2409
44,1830044,17128,-572,892,17160.75,27.45,-1.00,-1.0,2368
46,1830046,16928,-564,776,16955.16,27.40,-1.00,-1.0,2365
49,1830049,16996,-544,1072,17038.46,27.54,-1.00,-1.0,2407
52,1830052,17020,-620,984,17059.69,27.49,-1.00,-1.0,2372
55,1830055,17004,-584,780,17031.90,27.45,-1.00,-1.0,2420
57,1830057,17000,-576,904,17033.76,27.49,-1.00,-1.0,2374
62,1830062,17012,-588,992,17051.04,27.40,-1.00,-1.0,2451
65,1830065,17028,-600,860,17060.26,27.40,-1.00,-1.0,2370
68,1830068,17008,-580,988,17046.54,27.49,-1.00,-1.0,2422
70,1830070,17008,-468,876,17036.97,27.40,-1.00,-1.0,2373
73,1830073,17080,-520,936,17113.53,27.35,-1.00,-1.0,2366
76,1830076,17116,-552,1024,17155.49,27.45,-1.00,-1.0,2423
79,1830079,17052,-508,844,17080.43,27.35,-1.00,-1.0,2368
81,1830081,17168,-544,992,17205.24,27.45,-1.00,-1.0,2421
84,1830084,16948,-612,960,16986.20,27.45,-1.00,-1.0,2369
89,1830089,17024,-616,896,17058.69,27.54,-1.00,-1.0,2441
92,1830092,17016,-600,948,17052.95,27.35,-1.00,-1.0,2368
95,1830095,16956,-564,1004,16995.06,27.45,-1.00,-1.0,2420
97,1830097,17020,-580,1076,17063.84,27.45,-1.00,-1.0,2370
100,1830100,17060,-572,1032,17100.75,27.49,-1.00,-1.0,2370
103,1830103,17024,-588,980,17062.32,27.40,-1.00,-1.0,2427
105,1830105,17028,-436,1040,17065.30,27.40,-1.00,-1.0,2369
108,1830108,17068,-580,892,17101.13,27.40,-1.00,-1.0,2434
111,1830111,17088,-508,836,17115.98,27.49,-1.00,-1.0,2377
116,1830116,16956,-552,892,16988.42,27.31,-1.00,-1.0,2448
119,1830119,17084,-576,720,17108.86,27.40,-1.00,-1.0,2366
121,1830121,17052,-540,852,17081.81,27.40,-1.00,-1.0,2434
124,1830124,17088,-484,996,17123.84,27.45,-1.00,-1.0,2370
127,1830127,17044,-620,904,17079.21,27.49,-1.00,-1.0,2429
130,1830130,17036,-592,928,17071.52,27.49,-1.00,-1.0,2369
132,1830132,16956,-508,880,16986.42,27.45,-1.00,-1.0,2368
135,1830135,17004,-624,836,17035.97,27.54,-1.00,-1.0,2420
138,1830138,16960,-552,928,16994.34,27.45,-1.00,-1.0,2371
143,1830143,17008,-640,972,17047.77,27.45,-1.00,-1.0,2450
145,1830145,16992,-636,1016,17034.22,27.45,-1.00,-1.0,2375
148,1830148,17064,-528,812,17091.47,27.45,-1.00,-1.0,2420
151,1830151,17088,-548,896,17120.25,27.45,-1.00,-1.0,2359
154,1830154,16976,-632,816,17007.35,27.45,-1.00,-1.0,2422
156,1830156,17092,-628,1112,17139.64,27.45,-1.00,-1.0,2372
159,1830159,17020,-564,968,17056.83,27.45,-1.00,-1.0,2419
162,1830162,17172,-608,784,17200.64,27.45,-1.00,-1.0,2356
165,1830165,17036,-496,1000,17072.53,27.40,-1.00,-1.0,2367
170,1830170,17064,-504,976,17099.32,27.45,-1.00,-1.0,2444
172,1830172,16992,-632,908,17027.97,27.35,-1.00,-1.0,2375
175,1830175,16956,-544,800,16983.58,27.45,-1.00,-1.0,2420
178,1830178,17084,-632,948,17121.95,27.45,-1.00,-1.0,2371
181,1830181,16948,-532,868,16978.55,27.45,-1.00,-1.0,2421
183,1830183,17044,-640,1028,17086.96,27.45,-1.00,-1.0,2373
186,1830186,17012,-560,824,17041.15,27.40,-1.00,-1.0,2420
189,1830189,17080,-528,888,17111.22,27.54,-1.00,-1.0,2372
194,1830194,16968,-604,864,17000.71,27.35,-1.00,-1.0,2443
197,1830197,17032,-632,852,17065.00,27.45,-1.00,-1.0,2368
199,1830199,16944,-584,1044,16986.17,27.49,-1.00,-1.0,2367
202,1830202,16888,-656,808,16920.04,27.40,-1.00,-1.0,2419
205,1830205,17032,-496,828,17059.33,27.49,-1.00,-1.0,2369
208,1830208,17072,-544,1128,17117.87,27.49,-1.00,-1.0,2420
210,1830210,16992,-624,876,17026.00,27.40,-1.00,-1.0,2369
213,1830213,17000,-524,896,17031.66,27.40,-1.00,-1.0,2419
216,1830216,17056,-700,860,17092.01,27.49,-1.00,-1.0,2369
221,1830221,16976,-596,1060,17019.50,27.40,-1.00,-1.0,2427
223,1830223,17164,-492,1016,17201.08,27.49,-1.00,-1.0,2365
226,1830226,17056,-536,800,17083.16,27.49,-1.00,-1.0,2419
229,1830229,17020,-516,980,17056.00,27.40,-1.00,-1.0,2370
231,1830231,17060,-524,896,17091.55,27.54,-1.00,-1.0,2375
234,1830234,17132,-620,1068,17176.45,27.54,-1.00,-1.0,2430
237,1830237,17020,-476,948,17053.03,27.45,-1.00,-1.0,2376
240,1830240,17096,-564,892,17128.54,27.40,-1.00,-1.0,2428
243,1830243,17028,-596,908,17062.60,27.40,-1.00,-1.0,2368
247,1830247,17040,-604,824,17070.60,27.49,-1.00,-1.0,2440
250,1830250,17044,-548,980,17080.94,27.45,-1.00,-1.0,2371
253,1830253,17076,-508,1052,17115.91,27.40,-1.00,-1.0,2421
255,1830255,17080,-448,912,17110.20,27.40,-1.00,-1.0,2350
258,1830258,17052,-552,808,17080.05,27.49,-1.00,-1.0,2420
261,1830261,17028,-732,816,17063.25,27.45,-1.00,-1.0,2366
264,1830264,17028,-564,920,17062.16,27.45,-1.00,-1.0,2367
267,1830267,16984,-584,948,17020.46,27.45,-1.00,-1.0,2420
270,1830270,16940,-672,856,16974.92,27.45,-1.00,-1.0,2370
275,1830275,16964,-556,980,17001.38,27.40,-1.00,-1.0,2427
277,1830277,17000,-552,1040,17040.72,27.49,-1.00,-1.0,2366
280,1830280,16984,-500,896,17014.97,27.45,-1.00,-1.0,2420
283,1830283,17076,-608,1044,17118.69,27.49,-1.00,-1.0,2370
286,1830286,17064,-592,772,17091.71,27.35,-1.00,-1.0,2422
288,1830288,17024,-492,1036,17062.59,27.49,-1.00,-1.0,2356
291,1830291,17040,-584,824,17069.90,27.45,-1.00,-1.0,2420
294,1830294,16964,-628,1016,17006.00,27.49,-1.00,-1.0,2370
297,1830297,17040,-536,856,17069.90,27.45,-1.00,-1.0,2372
302,1830302,17044,-632,1060,17088.62,27.54,-1.00,-1.0,2441
304,1830304,17084,-556,864,17114.87,27.54,-1.00,-1.0,2366
307,1830307,16932,-540,912,16965.14,27.45,-1.00,-1.0,2421
310,1830310,16976,-528,1008,17014.10,27.54,-1.00,-1.0,2377
313,1830313,17016,-632,984,17056.14,27.45,-1.00,-1.0,2420
315,1830315,17012,-616,872,17045.47,27.45,-1.00,-1.0,2370
318,1830318,17080,-636,852,17113.06,27.45,-1.00,-1.0,2419
321,1830321,16920,-592,1004,16960.10,27.54,-1.00,-1.0,2377
326,1830326,17100,-568,932,17134.80,27.35,-1.00,-1.0,2447
329,1830329,17072,-520,1060,17112.78,27.45,-1.00,-1.0,2371
331,1830331,17024,-600,816,17054.10,27.45,-1.00,-1.0,2421
334,1830334,16988,-556,980,17025.32,27.45,-1.00,-1.0,2369
337,1830337,17180,-620,976,17218.87,27.40,-1.00,-1.0,2371
339,1830339,17044,-720,912,17083.56,27.40,-1.00,-1.0,2429
342,1830342,17000,-572,988,17038.29,27.40,-1.00,-1.0,2375
345,1830345,17092,-520,860,17121.52,27.49,-1.00,-1.0,2421
348,1830348,16996,-616,884,17030.12,27.49,-1.00,-1.0,2371
353,1830353,17016,-548,984,17053.23,27.40,-1.00,-1.0,2448
355,1830355,17000,-580,1000,17039.26,27.40,-1.00,-1.0,2368
358,1830358,17028,-524,896,17059.61,27.49,-1.00,-1.0,2416
361,1830361,17028,-532,888,17059.44,27.45,-1.00,-1.0,2377
364,1830364,17072,-540,832,17100.79,27.40,-1.00,-1.0,2435
366,1830366,17048,-524,868,17078.12,27.49,-1.00,-1.0,2379
369,1830369,17136,-500,780,17161.03,27.45,-1.00,-1.0,2365
372,1830372,17044,-564,816,17072.84,27.35,-1.00,-1.0,2427
375,1830375,17000,-620,832,17031.64,27.40,-1.00,-1.0,2370
380,1830380,17056,-668,992,17097.88,27.49,-1.00,-1.0,2445
382,1830382,17052,-608,904,17086.77,27.40,-1.00,-1.0,2377
385,1830385,17048,-608,900,17082.56,27.45,-1.00,-1.0,2420
388,1830388,17052,-480,956,17085.52,27.40,-1.00,-1.0,2372
391,1830391,16972,-532,980,17008.59,27.35,-1.00,-1.0,2422
393,1830393,16932,-536,916,16965.23,27.49,-1.00,-1.0,2374
396,1830396,17084,-576,956,17120.42,27.35,-1.00,-1.0,2365
399,1830399,17076,-532,992,17113.06,27.45,-1.00,-1.0,2427
402,1830402,17032,-516,996,17068.90,27.45,-1.00,-1.0,2370
407,1830407,16964,-648,856,16997.94,27.45,-1.00,-1.0,2446
409,1830409,16976,-676,1020,17020.04,27.45,-1.00,-1.0,2374
412,1830412,17048,-560,864,17079.06,27.45,-1.00,-1.0,2420
415,1830415,16972,-624,932,17009.02,27.45,-1.00,-1.0,2372
418,1830418,16984,-580,896,17017.50,27.45,-1.00,-1.0,2422
420,1830420,16964,-660,948,17003.28,27.45,-1.00,-1.0,2368
423,1830423,17020,-604,976,17058.66,27.45,-1.00,-1.0,2419
426,1830426,17096,-452,1044,17133.81,27.54,-1.00,-1.0,2371
429,1830429,16976,-668,956,17016.01,27.54,-1.00,-1.0,2371
434,1830434,17044,-528,828,17072.27,27.49,-1.00,-1.0,2440
436,1830436,16988,-592,896,17021.91,27.49,-1.00,-1.0,2371
439,1830439,16896,-548,844,16925.94,27.49,-1.00,-1.0,2420
442,1830442,17004,-560,956,17040.06,27.45,-1.00,-1.0,2377
445,1830445,17048,-512,1000,17084.98,27.49,-1.00,-1.0,2419
447,1830447,16940,-492,980,16975.46,27.49,-1.00,-1.0,2369
450,1830450,17056,-512,1036,17095.10,27.40,-1.00,-1.0,2420
453,1830453,17148,-568,904,17181.20,27.45,-1.00,-1.0,2376
457,1830457,17048,-516,944,17081.91,27.45,-1.00,-1.0,2430
460,1830460,16976,-592,928,17011.65,27.45,-1.00,-1.0,2370
463,1830463,17060,-516,928,17093.01,27.45,-1.00,-1.0,2374
466,1830466,17060,-568,932,17094.88,27.49,-1.00,-1.0,2420
468,1830468,16964,-616,924,17000.31,27.49,-1.00,-1.0,2371
471,1830471,17080,-512,1012,17117.61,27.40,-1.00,-1.0,2419
474,1830474,16964,-608,988,17003.62,27.54,-1.00,-1.0,2377
477,1830477,17060,-616,928,17096.32,27.40,-1.00,-1.0,2423
480,1830480,17032,-656,868,17066.71,27.49,-1.00,-1.0,2373
485,1830485,17096,-508,916,17128.06,27.45,-1.00,-1.0,2447
488,1830488,17016,-620,996,17056.40,27.40,-1.00,-1.0,2367
490,1830490,16944,-668,900,16981.03,27.49,-1.00,-1.0,2420
493,1830493,17048,-504,888,17078.55,27.49,-1.00,-1.0,2369
496,1830496,17056,-632,972,17095.36,27.45,-1.00,-1.0,2367
498,1830498,17020,-580,788,17048.10,27.35,-1.00,-1.0,2429
501,1830501,17084,-656,996,17125.58,27.45,-1.00,-1.0,2376
504,1830504,17136,-504,980,17171.40,27.54,-1.00,-1.0,2408
507,1830507,17028,-568,956,17064.27,27.49,-1.00,-1.0,2381
512,1830512,17008,-480,960,17041.83,27.49,-1.00,-1.0,2447
515,1830515,17100,-544,968,17136.01,27.40,-1.00,-1.0,2366
517,1830517,16976,-540,908,17008.84,27.45,-1.00,-1.0,2422
520,1830520,17064,-652,964,17103.64,27.40,-1.00,-1.0,2370
523,1830523,17056,-544,988,17093.25,27.45,-1.00,-1.0,2427
526,1830526,17016,-680,928,17054.85,27.40,-1.00,-1.0,2356
528,1830528,17052,-548,932,17086.24,27.54,-1.00,-1.0,2382
531,1830531,17028,-568,888,17060.60,27.49,-1.00,-1.0,2421
534,1830534,17036,-664,788,17067.14,27.45,-1.00,-1.0,2380
539,1830539,17000,-568,852,17030.81,27.45,-1.00,-1.0,2448
542,1830542,17024,-512,952,17058.28,27.45,-1.00,-1.0,2367
544,1830544,17028,-600,884,17061.48,27.45,-1.00,-1.0,2435
547,1830547,17016,-648,1000,17057.67,27.45,-1.00,-1.0,2370
550,1830550,16980,-540,820,17008.36,27.45,-1.00,-1.0,2424
553,1830553,17088,-572,944,17123.61,27.45,-1.00,-1.0,2370
555,1830555,17096,-700,956,17137.01,27.45,-1.00,-1.0,2431
558,1830558,17040,-564,852,17070.61,27.45,-1.00,-1.0,2377
561,1830561,16928,-504,932,16961.13,27.45,-1.00,-1.0,2374
566,1830566,17012,-564,936,17047.06,27.45,-1.00,-1.0,2448
569,1830569,16988,-564,940,17023.33,27.45,-1.00,-1.0,2366
571,1830571,17020,-584,948,17056.38,27.45,-1.00,-1.0,2431
574,1830574,17080,-524,996,17117.04,27.35,-1.00,-1.0,2377
577,1830577,17076,-580,932,17111.25,27.40,-1.00,-1.0,2423
580,1830580,17040,-532,976,17076.22,27.45,-1.00,-1.0,2370
582,1830582,17028,-552,968,17064.42,27.40,-1.00,-1.0,2427
585,1830585,17008,-652,800,17039.28,27.54,-1.00,-1.0,2377
590,1830590,17040,-592,1120,17087.03,27.45,-1.00,-1.0,2439
593,1830593,16992,-732,912,17032.19,27.40,-1.00,-1.0,2367
596,1830596,17136,-480,980,17170.71,27.35,-1.00,-1.0,2366
598,1830598,17036,-604,920,17071.51,27.49,-1.00,-1.0,2428
601,1830601,17092,-624,920,17128.11,27.45,-1.00,-1.0,2377
604,1830604,17000,-560,912,17033.65,27.40,-1.00,-1.0,2425
607,1830607,17100,-512,832,17127.88,27.45,-1.00,-1.0,2372
609,1830609,17020,-420,1068,17058.65,27.49,-1.00,-1.0,2428
612,1830612,16988,-496,880,17018.01,27.31,-1.00,-1.0,2385
617,1830617,17016,-560,920,17050.05,27.45,-1.00,-1.0,2440
620,1830620,17104,-652,896,17139.86,27.35,-1.00,-1.0,2371
623,1830623,17116,-600,932,17151.85,27.54,-1.00,-1.0,2427
625,1830625,17088,-544,912,17120.96,27.35,-1.00,-1.0,2373
628,1830628,17016,-600,1048,17058.80,27.40,-1.00,-1.0,2369
631,1830631,17008,-536,976,17044.41,27.54,-1.00,-1.0,2422
633,1830633,17060,-484,932,17092.29,27.40,-1.00,-1.0,2359
636,1830636,16996,-616,908,17031.38,27.45,-1.00,-1.0,2420
639,1830639,17064,-552,1100,17108.33,27.59,-1.00,-1.0,2371
644,1830644,16976,-604,752,17003.38,27.45,-1.00,-1.0,2440
647,1830647,16904,-620,972,16943.27,27.54,-1.00,-1.0,2367
649,1830649,17124,-540,1016,17162.61,27.45,-1.00,-1.0,2420
652,1830652,17012,-656,1004,17054.22,27.35,-1.00,-1.0,2369
655,1830655,17120,-556,888,17152.03,27.45,-1.00,-1.0,2427
658,1830658,17008,-528,976,17044.16,27.45,-1.00,-1.0,2368
660,1830660,17012,-508,972,17047.32,27.40,-1.00,-1.0,2374
663,1830663,17036,-548,808,17063.95,27.45,-1.00,-1.0,2421
666,1830666,16900,-544,928,16934.20,27.45,-1.00,-1.0,2369
671,1830671,16992,-632,912,17028.19,27.49,-1.00,-1.0,2450
673,1830673,16992,-660,880,17027.57,27.49,-1.00,-1.0,2377
676,1830676,17048,-540,980,17084.68,27.45,-1.00,-1.0,2420
679,1830679,17068,-572,920,17102.35,27.49,-1.00,-1.0,2373
682,1830682,17008,-600,936,17044.30,27.45,-1.00,-1.0,2422
684,1830684,17008,-600,880,17041.32,27.49,-1.00,-1.0,2376
687,1830687,16980,-568,912,17013.96,27.45,-1.00,-1.0,2420
690,1830690,17004,-592,936,17040.03,27.35,-1.00,-1.0,2370
693,1830693,17084,-576,984,17122.01,27.45,-1.00,-1.0,2370
698,1830698,17068,-656,948,17106.89,27.45,-1.00,-1.0,2441
701,1830701,16976,-476,964,17010.01,27.45,-1.00,-1.0,2370
704,1830704,17088,-612,960,17125.88,27.45,-1.00,-1.0,2420
706,1830706,16980,-592,900,17014.14,27.45,-1.00,-1.0,2370
709,1830709,16976,-568,888,17008.70,27.35,-1.00,-1.0,2420
712,1830712,17028,-604,960,17065.73,27.45,-1.00,-1.0,2375
715,1830715,17056,-544,852,17085.93,27.45,-1.00,-1.0,2420
717,1830717,17064,-564,916,17097.87,27.45,-1.00,-1.0,2369
722,1830722,17016,-644,1036,17059.67,27.45,-1.00,-1.0,2449
725,1830725,16992,-576,848,17022.89,27.49,-1.00,-1.0,2369
728,1830728,16992,-504,876,17022.03,27.45,-1.00,-1.0,2366
730,1830730,17060,-568,996,17098.49,27.40,-1.00,-1.0,2420
733,1830733,16996,-644,988,17036.87,27.45,-1.00,-1.0,2369
736,1830736,17000,-488,948,17033.40,27.49,-1.00,-1.0,2428
739,1830739,16928,-528,940,16962.30,27.45,-1.00,-1.0,2368
741,1830741,17052,-612,912,17087.33,27.49,-1.00,-1.0,2423
744,1830744,17016,-520,956,17050.77,27.40,-1.00,-1.0,2370
749,1830749,17048,-576,872,17080.00,27.40,-1.00,-1.0,2440
752,1830752,16996,-564,1016,17035.68,27.45,-1.00,-1.0,2368
755,1830755,17008,-516,844,17036.74,27.54,-1.00,-1.0,2408
757,1830757,16968,-536,964,17003.81,27.45,-1.00,-1.0,2369
760,1830760,17040,-632,980,17079.85,27.49,-1.00,-1.0,2377
763,1830763,17020,-632,980,17059.90,27.45,-1.00,-1.0,2436
765,1830765,16976,-592,852,17007.67,27.40,-1.00,-1.0,2372
768,1830768,17020,-520,932,17053.43,27.45,-1.00,-1.0,2417
771,1830771,17064,-544,868,17094.72,27.49,-1.00,-1.0,2370
776,1830776,16968,-468,960,17001.58,27.49,-1.00,-1.0,2440
779,1830779,17072,-556,788,17099.22,27.49,-1.00,-1.0,2368
782,1830782,16992,-552,848,17022.10,27.40,-1.00,-1.0,2420
784,1830784,17012,-532,880,17043.05,27.49,-1.00,-1.0,2374
787,1830787,17136,-568,1164,17184.88,27.49,-1.00,-1.0,2419
790,1830790,17028,-596,996,17067.51,27.49,-1.00,-1.0,2377
792,1830792,16972,-532,804,16999.36,27.45,-1.00,-1.0,2377
795,1830795,17136,-568,880,17167.98,27.45,-1.00,-1.0,2420
798,1830798,17008,-540,1028,17047.59,27.45,-1.00,-1.0,2376
803,1830803,17112,-560,928,17146.29,27.35,-1.00,-1.0,2440
806,1830806,17152,-516,1004,17189.11,27.49,-1.00,-1.0,2374
809,1830809,17076,-492,844,17103.92,27.45,-1.00,-1.0,2422
811,1830811,16932,-592,860,16964.16,27.40,-1.00,-1.0,2370
814,1830814,17088,-580,884,17120.68,27.45,-1.00,-1.0,2427
817,1830817,17080,-576,976,17117.56,27.49,-1.00,-1.0,2377
820,1830820,16980,-504,992,17016.42,27.45,-1.00,-1.0,2421
822,1830822,17028,-552,956,17063.75,27.45,-1.00,-1.0,2370
825,1830825,17048,-500,940,17081.21,27.45,-1.00,-1.0,2381
830,1830830,17112,-680,864,17147.29,27.45,-1.00,-1.0,2455
833,1830833,17028,-592,876,17060.79,27.45,-1.00,-1.0,2376
836,1830836,17080,-624,928,17116.57,27.49,-1.00,-1.0,2436
838,1830838,17104,-584,980,17142.00,27.45,-1.00,-1.0,2378
841,1830841,16988,-572,1020,17028.20,27.40,-1.00,-1.0,2420
844,1830844,17028,-640,920,17064.84,27.45,-1.00,-1.0,2373
847,1830847,17148,-636,828,17179.76,27.40,-1.00,-1.0,2427
849,1830849,17084,-488,1148,17129.48,27.35,-1.00,-1.0,2380
854,1830854,16984,-512,948,17018.14,27.40,-1.00,-1.0,2440
857,1830857,16988,-540,904,17020.60,27.40,-1.00,-1.0,2363
860,1830860,17060,-600,1004,17100.05,27.45,-1.00,-1.0,2366
862,1830862,17040,-700,920,17079.17,27.45,-1.00,-1.0,2427
865,1830865,17036,-580,1044,17077.81,27.45,-1.00,-1.0,2370
868,1830868,17020,-556,1008,17058.89,27.45,-1.00,-1.0,2426
871,1830871,17064,-588,944,17100.20,27.45,-1.00,-1.0,2369
873,1830873,17056,-616,984,17095.46,27.45,-1.00,-1.0,2430
876,1830876,17056,-604,896,17090.20,27.40,-1.00,-1.0,2372
881,1830881,17048,-556,932,17082.51,27.35,-1.00,-1.0,2449
884,1830884,17092,-624,920,17128.11,27.45,-1.00,-1.0,2367
886,1830886,16944,-592,816,16973.96,27.45,-1.00,-1.0,2428
889,1830889,17072,-472,924,17103.50,27.54,-1.00,-1.0,2377
892,1830892,17088,-520,1008,17125.60,27.40,-1.00,-1.0,2366
895,1830895,17080,-612,776,17108.57,27.45,-1.00,-1.0,2420
897,1830897,16960,-588,852,16991.56,27.40,-1.00,-1.0,2369
900,1830900,17028,-568,984,17065.86,27.35,-1.00,-1.0,2420
903,1830903,16920,-520,880,16950.85,27.49,-1.00,-1.0,2370
908,1830908,17060,-500,1012,17097.30,27.49,-1.00,-1.0,2446
911,1830911,17084,-636,940,17121.66,27.49,-1.00,-1.0,2366
914,1830914,17060,-552,964,17096.13,27.40,-1.00,-1.0,2423
916,1830916,17032,-568,956,17068.26,27.49,-1.00,-1.0,2372
919,1830919,17012,-560,852,17042.53,27.45,-1.00,-1.0,2420
922,1830922,17072,-580,1012,17111.80,27.40,-1.00,-1.0,2370
925,1830925,17040,-488,952,17073.55,27.45,-1.00,-1.0,2367
927,1830927,17032,-608,904,17066.81,27.45,-1.00,-1.0,2422
930,1830930,17072,-592,964,17109.44,27.45,-1.00,-1.0,2369
935,1830935,17008,-540,964,17043.85,27.54,-1.00,-1.0,2441
938,1830938,16968,-568,936,17003.29,27.40,-1.00,-1.0,2368
941,1830941,16976,-656,800,17007.50,27.54,-1.00,-1.0,2424
943,1830943,17016,-544,924,17049.75,27.40,-1.00,-1.0,2357
946,1830946,17008,-656,1048,17052.88,27.35,-1.00,-1.0,2420
949,1830949,17068,-556,1020,17107.49,27.49,-1.00,-1.0,2373
952,1830952,17080,-516,844,17108.62,27.45,-1.00,-1.0,2421
954,1830954,17096,-636,956,17134.52,27.40,-1.00,-1.0,2368
957,1830957,16960,-552,980,16997.26,27.54,-1.00,-1.0,2366
962,1830962,17052,-568,844,17082.32,27.45,-1.00,-1.0,2441
965,1830965,17040,-532,848,17069.38,27.45,-1.00,-1.0,2369
968,1830968,17044,-680,912,17081.92,27.45,-1.00,-1.0,2429
971,1830971,16992,-540,876,17023.13,27.45,-1.00,-1.0,2366
973,1830973,16984,-652,944,17022.71,27.45,-1.00,-1.0,2421
976,1830976,17024,-580,1040,17065.60,27.45,-1.00,-1.0,2369
979,1830979,16964,-520,956,16998.87,27.45,-1.00,-1.0,2426
982,1830982,17076,-604,844,17107.51,27.35,-1.00,-1.0,2368
987,1830987,17052,-484,1076,17092.77,27.45,-1.00,-1.0,2442
989,1830989,17092,-488,1112,17135.09,27.45,-1.00,-1.0,2367
992,1830992,17008,-572,956,17044.45,27.40,-1.00,-1.0,2373
995,1830995,17000,-604,824,17030.67,27.49,-1.00,-1.0,2420
997,1830997,17048,-504,824,17075.34,27.45,-1.00,-1.0,2370
1000,1831000,17112,-636,928,17148.94,27.49,-1.00,-1.0,2427
1003,1831003,16948,-576,884,16980.81,27.49,-1.00,-1.0,2377
1006,1831006,17036,-508,988,17072.19,27.49,-1.00,-1.0,2420
1008,1831008,16976,-632,936,17013.53,27.35,-1.00,-1.0,2370
1014,1831014,17064,-644,1036,17107.55,27.35,-1.00,-1.0,2441
1016,1831016,16984,-608,1140,17033.07,27.35,-1.00,-1.0,2367
1019,1831019,17060,-492,1020,17097.54,27.49,-1.00,-1.0,2421
1022,1831022,17060,-568,964,17096.65,27.35,-1.00,-1.0,2370
1025,1831025,17076,-560,1008,17114.89,27.40,-1.00,-1.0,2406
1027,1831027,16948,-552,872,16979.39,27.45,-1.00,-1.0,2369
1030,1831030,16988,-596,1000,17027.84,27.40,-1.00,-1.0,2377
1033,1831033,17120,-572,896,17152.97,27.45,-1.00,-1.0,2434
1035,1831035,17032,-524,936,17065.75,27.40,-1.00,-1.0,2374
1040,1831040,16996,-700,928,17035.70,27.40,-1.00,-1.0,2441
1043,1831043,17036,-576,1056,17078.41,27.31,-1.00,-1.0,2367
1046,1831046,16956,-648,840,16989.16,27.49,-1.00,-1.0,2428
1049,1831049,17116,-624,844,17148.15,27.40,-1.00,-1.0,2367
1051,1831051,17024,-624,1040,17067.15,27.40,-1.00,-1.0,2426
1054,1831054,17044,-472,988,17079.13,27.49,-1.00,-1.0,2370
1057,1831057,16964,-584,844,16995.02,27.45,-1.00,-1.0,2427
1060,1831060,17088,-508,940,17121.37,27.40,-1.00,-1.0,2369
1064,1831064,17032,-524,972,17067.76,27.45,-1.00,-1.0,2451
1067,1831067,16988,-540,1000,17025.97,27.54,-1.00,-1.0,2375
1070,1831070,17108,-632,924,17144.59,27.45,-1.00,-1.0,2367
1073,1831073,17032,-632,1004,17073.27,27.40,-1.00,-1.0,2420
1075,1831075,17088,-600,944,17124.57,27.45,-1.00,-1.0,2370
1078,1831078,17056,-528,932,17089.60,27.40,-1.00,-1.0,2424
1081,1831081,16996,-600,824,17026.54,27.49,-1.00,-1.0,2370
1084,1831084,17016,-508,952,17050.18,27.49,-1.00,-1.0,2420
1086,1831086,17044,-592,824,17074.17,27.35,-1.00,-1.0,2380
1091,1831091,17024,-536,1036,17063.91,27.45,-1.00,-1.0,2440
1094,1831094,17016,-476,896,17046.22,27.40,-1.00,-1.0,2376
1097,1831097,16988,-460,1016,17024.57,27.54,-1.00,-1.0,2421
1099,1831099,17036,-552,804,17063.89,27.40,-1.00,-1.0,2369
1102,1831102,17104,-564,960,17140.20,27.45,-1.00,-1.0,2436
1105,1831105,17024,-608,992,17063.71,27.45,-1.00,-1.0,2365
1107,1831107,17032,-584,936,17067.69,27.45,-1.00,-1.0,2375
1111,1831111,16964,-544,836,16993.30,27.49,-1.00,-1.0,2422
1113,1831113,17044,-508,908,17075.73,27.45,-1.00,-1.0,2381
1118,1831118,16988,-452,940,17019.99,27.35,-1.00,-1.0,2451
1121,1831121,17056,-616,820,17086.81,27.45,-1.00,-1.0,2381
1124,1831124,17056,-472,972,17090.19,27.49,-1.00,-1.0,2423
1127,1831127,16984,-520,912,17016.42,27.45,-1.00,-1.0,2372
1129,1831129,17020,-416,884,17048.02,27.49,-1.00,-1.0,2407
1132,1831132,17112,-592,924,17147.15,27.45,-1.00,-1.0,2383
1135,1831135,17016,-592,976,17054.25,27.49,-1.00,-1.0,2423
1138,1831138,17100,-544,928,17133.80,27.45,-1.00,-1.0,2371
1143,1831143,17104,-672,832,17137.40,27.45,-1.00,-1.0,2441
1145,1831145,17132,-624,964,17170.44,27.35,-1.00,-1.0,2370
1148,1831148,17092,-608,988,17131.32,27.49,-1.00,-1.0,2367
1151,1831151,17108,-568,1024,17148.03,27.40,-1.00,-1.0,2421
1154,1831154,17028,-588,944,17064.28,27.40,-1.00,-1.0,2368
1156,1831156,16996,-588,940,17032.13,27.40,-1.00,-1.0,2420
1159,1831159,17060,-624,948,17097.71,27.40,-1.00,-1.0,2370
1162,1831162,16976,-544,968,17012.28,27.49,-1.00,-1.0,2421
1165,1831165,17000,-560,944,17035.40,27.49,-1.00,-1.0,2367
1170,1831170,17152,-568,852,17182.54,27.40,-1.00,-1.0,2448
1172,1831172,17064,-624,880,17098.07,27.45,-1.00,-1.0,2370
1175,1831175,16972,-604,1004,17012.40,27.49,-1.00,-1.0,2420
1178,1831178,17088,-528,1004,17125.61,27.49,-1.00,-1.0,2374
1181,1831181,16956,-556,952,16991.80,27.49,-1.00,-1.0,2420
1183,1831183,17072,-444,880,17100.43,27.49,-1.00,-1.0,2369
1186,1831186,17132,-520,912,17164.14,27.45,-1.00,-1.0,2375
1189,1831189,16976,-540,956,17011.47,27.54,-1.00,-1.0,2420
1192,1831192,17156,-492,956,17189.66,27.45,-1.00,-1.0,2370
1197,1831197,16944,-540,1056,16985.46,27.49,-1.00,-1.0,2440
1199,1831199,17032,-600,1032,17073.78,27.49,-1.00,-1.0,2367
1202,1831202,16984,-628,904,17019.63,27.54,-1.00,-1.0,2407
1205,1831205,17064,-604,988,17103.25,27.49,-1.00,-1.0,2372
1208,1831208,17164,-552,1028,17203.62,27.45,-1.00,-1.0,2421
1210,1831210,17072,-628,872,17105.79,27.31,-1.00,-1.0,2371
1213,1831213,17024,-496,912,17055.62,27.54,-1.00,-1.0,2407
1216,1831216,16964,-488,956,16997.92,27.45,-1.00,-1.0,2437
1221,1831221,16928,-600,992,16967.65,27.40,-1.00,-1.0,2445
1224,1831224,17056,-540,1016,17094.77,27.49,-1.00,-1.0,2367
1226,1831226,16956,-604,1000,16996.20,27.49,-1.00,-1.0,2429
1229,1831229,16976,-560,920,17010.13,27.40,-1.00,-1.0,2389
1232,1831232,16972,-548,1020,17011.45,27.54,-1.00,-1.0,2367
1235,1831235,16952,-516,1008,16989.78,27.45,-1.00,-1.0,2420
1237,1831237,17064,-636,884,17098.71,27.45,-1.00,-1.0,2356
1240,1831240,17008,-632,812,17039.10,27.45,-1.00,-1.0,2420
1243,1831243,17012,-496,1044,17051.22,27.45,-1.00,-1.0,2373
1248,1831248,17080,-548,960,17115.73,27.45,-1.00,-1.0,2440
1251,1831251,17116,-604,964,17153.76,27.54,-1.00,-1.0,2369
1253,1831253,16932,-540,888,16963.87,27.54,-1.00,-1.0,2421
1256,1831256,16960,-604,1064,17004.07,27.45,-1.00,-1.0,2369
1259,1831259,17044,-620,1120,17092.01,27.45,-1.00,-1.0,2426
1262,1831262,16968,-652,920,17005.43,27.45,-1.00,-1.0,2368
1264,1831264,17024,-460,1028,17061.21,27.35,-1.00,-1.0,2420
1267,1831267,17004,-632,1016,17046.05,27.45,-1.00,-1.0,2370
1270,1831270,17060,-644,940,17098.01,27.40,-1.00,-1.0,2366
1274,1831274,16984,-544,884,17015.69,27.45,-1.00,-1.0,2447
1277,1831277,17112,-520,840,17140.49,27.49,-1.00,-1.0,2380
1280,1831280,16996,-484,864,17024.83,27.45,-1.00,-1.0,2422
1283,1831283,17040,-516,960,17074.82,27.40,-1.00,-1.0,2373
1286,1831286,17020,-616,932,17056.62,27.54,-1.00,-1.0,2422
1288,1831288,17112,-456,1004,17147.49,27.49,-1.00,-1.0,2426
1291,1831291,17052,-536,1024,17091.12,27.54,-1.00,-1.0,2409
1294,1831294,17084,-716,900,17122.67,27.45,-1.00,-1.0,2420
1299,1831299,17096,-556,900,17128.70,27.45,-1.00,-1.0,2439
1301,1831301,17124,-560,1016,17163.25,27.35,-1.00,-1.0,2358
1304,1831304,17092,-476,896,17122.09,27.35,-1.00,-1.0,2420
1307,1831307,16948,-608,884,16981.93,27.45,-1.00,-1.0,2370
1310,1831310,17092,-528,920,17124.88,27.49,-1.00,-1.0,2421
1313,1831313,16952,-580,1064,16995.26,27.45,-1.00,-1.0,2365
1315,1831315,16956,-532,1096,16999.71,27.49,-1.00,-1.0,2364
1318,1831318,17052,-604,876,17085.17,27.49,-1.00,-1.0,2425
1321,1831321,17064,-620,844,17096.11,27.45,-1.00,-1.0,2376
1326,1831326,17040,-516,936,17073.49,27.45,-1.00,-1.0,2442
1328,1831328,17104,-512,804,17130.54,27.40,-1.00,-1.0,2366
1331,1831331,16968,-532,996,17005.53,27.54,-1.00,-1.0,2431
1334,1831334,17104,-576,944,17139.71,27.49,-1.00,-1.0,2376
1337,1831337,17004,-672,888,17040.43,27.45,-1.00,-1.0,2430
1339,1831339,17016,-560,936,17050.92,27.54,-1.00,-1.0,2379
1342,1831342,17084,-568,880,17116.08,27.45,-1.00,-1.0,2419
1345,1831345,17056,-556,896,17088.57,27.35,-1.00,-1.0,2372
1350,1831350,16984,-596,916,17019.12,27.45,-1.00,-1.0,2446
1353,1831353,17036,-464,960,17069.33,27.40,-1.00,-1.0,2366
1355,1831355,17024,-572,860,17055.30,27.45,-1.00,-1.0,2365
1358,1831358,17060,-560,932,17094.61,27.35,-1.00,-1.0,2420
1361,1831361,16984,-580,952,17020.54,27.45,-1.00,-1.0,2369
1364,1831364,17000,-636,960,17038.96,27.49,-1.00,-1.0,2419
1366,1831366,17080,-496,1076,17121.04,27.49,-1.00,-1.0,2369
1369,1831369,17012,-576,960,17048.80,27.49,-1.00,-1.0,2419
1372,1831372,17004,-552,1088,17047.71,27.49,-1.00,-1.0,2373
1377,1831377,17040,-632,940,17077.61,27.49,-1.00,-1.0,2438
1379,1831379,17024,-624,976,17063.37,27.45,-1.00,-1.0,2368
1382,1831382,16984,-596,920,17019.34,27.49,-1.00,-1.0,2420
1385,1831385,17072,-668,1012,17115.01,27.45,-1.00,-1.0,2372
1388,1831388,17112,-596,1040,17153.93,27.49,-1.00,-1.0,2421
1390,1831390,17044,-648,1084,17090.72,27.45,-1.00,-1.0,2353
1393,1831393,17016,-592,908,17050.49,27.49,-1.00,-1.0,2364
1396,1831396,17144,-568,948,17179.58,27.45,-1.00,-1.0,2426
1399,1831399,17008,-508,968,17043.10,27.40,-1.00,-1.0,2369
1404,1831404,17052,-596,1024,17093.11,27.40,-1.00,-1.0,2441
1406,1831406,17024,-696,980,17066.38,27.54,-1.00,-1.0,2373
1409,1831409,17092,-632,1008,17133.36,27.40,-1.00,-1.0,2420
1412,1831412,17060,-620,920,17096.04,27.45,-1.00,-1.0,2372
1415,1831415,17108,-632,1028,17150.51,27.59,-1.00,-1.0,2421
1417,1831417,16948,-568,824,16977.52,27.49,-1.00,-1.0,2359
1420,1831420,16992,-656,888,17027.83,27.49,-1.00,-1.0,2419
1423,1831423,17044,-580,764,17070.97,27.45,-1.00,-1.0,2370
1428,1831428,17012,-556,904,17045.07,27.45,-1.00,-1.0,2454
1431,1831431,17096,-584,940,17131.78,27.45,-1.00,-1.0,2374
1433,1831433,17048,-616,976,17087.02,27.40,-1.00,-1.0,2365
1436,1831436,17052,-672,924,17090.23,27.49,-1.00,-1.0,2421
1439,1831439,16968,-572,884,17000.64,27.40,-1.00,-1.0,2369
1442,1831442,17104,-492,904,17134.94,27.40,-1.00,-1.0,2420
1445,1831445,16968,-544,932,17002.28,27.40,-1.00,-1.0,2366
1447,1831447,17052,-596,796,17080.97,27.40,-1.00,-1.0,2419
1450,1831450,17040,-596,1132,17087.96,27.40,-1.00,-1.0,2370
1455,1831455,17116,-492,940,17148.85,27.45,-1.00,-1.0,2443
1458,1831458,17096,-628,912,17131.82,27.40,-1.00,-1.0,2374
1461,1831461,17016,-532,964,17051.59,27.40,-1.00,-1.0,2422
1463,1831463,16920,-568,940,16955.61,27.49,-1.00,-1.0,2376
1466,1831466,17080,-524,1060,17120.88,27.49,-1.00,-1.0,2419
1469,1831469,17032,-580,1036,17073.33,27.40,-1.00,-1.0,2370
1471,1831471,17040,-608,1008,17080.61,27.45,-1.00,-1.0,2366
1474,1831474,17132,-468,952,17164.81,27.45,-1.00,-1.0,2419
1477,1831477,17008,-504,940,17041.41,27.35,-1.00,-1.0,2376
1482,1831482,17072,-528,868,17102.21,27.45,-1.00,-1.0,2439
1484,1831484,17056,-636,912,17092.20,27.54,-1.00,-1.0,2367
1487,1831487,17000,-620,952,17037.92,27.49,-1.00,-1.0,2435
1490,1831490,16976,-636,832,17008.27,27.35,-1.00,-1.0,2377
1493,1831493,17052,-556,852,17082.32,27.49,-1.00,-1.0,2430
1495,1831495,17112,-600,940,17148.30,27.40,-1.00,-1.0,2373
1498,1831498,17060,-520,884,17090.80,27.40,-1.00,-1.0,2412
1501,1831501,17060,-572,812,17088.89,27.54,-1.00,-1.0,2378
1506,1831506,17008,-496,888,17038.39,27.45,-1.00,-1.0,2439
1508,1831508,17060,-592,920,17095.04,27.45,-1.00,-1.0,2365
1511,1831511,16980,-588,1088,17024.98,27.45,-1.00,-1.0,2373
1514,1831514,17000,-636,796,17030.51,27.49,-1.00,-1.0,2436
1516,1831516,17008,-536,916,17041.08,27.40,-1.00,-1.0,2379
1519,1831519,16944,-544,924,16977.89,27.49,-1.00,-1.0,2419
1522,1831522,17016,-636,852,17049.18,27.49,-1.00,-1.0,2372
1525,1831525,17072,-556,976,17108.91,27.40,-1.00,-1.0,2429
1528,1831528,17084,-532,952,17118.77,27.35,-1.00,-1.0,2377
1533,1831533,16984,-692,876,17020.65,27.45,-1.00,-1.0,2446
1536,1831536,17076,-604,1084,17121.03,27.35,-1.00,-1.0,2366
1538,1831538,17124,-592,916,17158.70,27.49,-1.00,-1.0,2420
1541,1831541,17020,-588,1044,17062.12,27.45,-1.00,-1.0,2376
1544,1831544,16996,-556,760,17022.07,27.35,-1.00,-1.0,2462
1547,1831547,17048,-516,848,17076.88,27.45,-1.00,-1.0,2368
1550,1831550,16936,-664,920,16973.96,27.40,-1.00,-1.0,2435
1552,1831552,17044,-540,976,17080.46,27.40,-1.00,-1.0,2369
1555,1831555,17000,-548,984,17037.27,27.40,-1.00,-1.0,2367
1560,1831560,17080,-616,1052,17123.45,27.40,-1.00,-1.0,2446
1563,1831563,16956,-604,1000,16996.20,27.49,-1.00,-1.0,2365
1565,1831565,16968,-556,996,17006.30,27.45,-1.00,-1.0,2431
1568,1831568,17092,-644,740,17120.13,27.40,-1.00,-1.0,2388
1571,1831571,17020,-680,916,17058.19,27.35,-1.00,-1.0,2422
1574,1831574,17124,-604,792,17152.94,27.40,-1.00,-1.0,2370
1576,1831576,17056,-592,1084,17100.66,27.45,-1.00,-1.0,2422
1579,1831579,17076,-508,1016,17113.74,27.49,-1.00,-1.0,2385
1584,1831584,16888,-544,992,16925.85,27.49,-1.00,-1.0,2455
1587,1831587,17028,-696,960,17069.24,27.40,-1.00,-1.0,2373
1590,1831590,17052,-672,1084,17099.63,27.45,-1.00,-1.0,2434
1592,1831592,17108,-544,856,17138.04,27.40,-1.00,-1.0,2377
1595,1831595,17076,-512,940,17109.52,27.45,-1.00,-1.0,2365
1598,1831598,16976,-528,864,17006.17,27.45,-1.00,-1.0,2427
1601,1831601,16988,-600,1076,17032.61,27.45,-1.00,-1.0,2368
1603,1831603,17080,-580,892,17113.11,27.49,-1.00,-1.0,2419
1606,1831606,17008,-512,996,17044.83,27.45,-1.00,-1.0,2369
1611,1831611,17024,-664,904,17060.91,27.54,-1.00,-1.0,2441
1614,1831614,17028,-616,932,17064.61,27.35,-1.00,-1.0,2368
1617,1831617,16956,-600,912,16991.11,27.45,-1.00,-1.0,2420
1619,1831619,17052,-580,1016,17092.08,27.45,-1.00,-1.0,2369
1622,1831622,17056,-444,1044,17093.69,27.40,-1.00,-1.0,2420
1625,1831625,16992,-520,816,17019.53,27.45,-1.00,-1.0,2370
1628,1831628,16984,-520,944,17018.16,27.49,-1.00,-1.0,2419
1630,1831630,17088,-572,960,17124.50,27.45,-1.00,-1.0,2369
1633,1831633,17028,-576,912,17062.13,27.45,-1.00,-1.0,2369
1638,1831638,17120,-624,1016,17161.47,27.45,-1.00,-1.0,2441
1641,1831641,16992,-596,1032,17033.74,27.45,-1.00,-1.0,2372
1643,1831643,16972,-636,912,17008.38,27.45,-1.00,-1.0,2427
1646,1831646,17112,-548,804,17139.64,27.45,-1.00,-1.0,2377
1649,1831649,17060,-456,932,17091.52,27.54,-1.00,-1.0,2420
1652,1831652,16972,-596,916,17007.15,27.35,-1.00,-1.0,2371
1655,1831655,17008,-628,900,17043.37,27.45,-1.00,-1.0,2422
1657,1831657,16996,-524,948,17030.48,27.35,-1.00,-1.0,2377
1662,1831662,17044,-472,900,17074.27,27.45,-1.00,-1.0,2452
1665,1831665,16988,-644,1104,17036.01,27.45,-1.00,-1.0,2368
1668,1831668,17048,-596,728,17073.94,27.35,-1.00,-1.0,2431
1670,1831670,17108,-540,964,17143.64,27.54,-1.00,-1.0,2376
1673,1831673,17008,-580,932,17043.39,27.49,-1.00,-1.0,2365
1676,1831676,17036,-632,912,17072.10,27.40,-1.00,-1.0,2426
1679,1831679,17040,-536,920,17073.23,27.40,-1.00,-1.0,2371
1681,1831681,17016,-616,964,17054.41,27.45,-1.00,-1.0,2422
1684,1831684,17072,-560,860,17102.82,27.49,-1.00,-1.0,2369
1689,1831689,17004,-612,936,17040.73,27.45,-1.00,-1.0,2459
1692,1831692,17000,-556,996,17038.23,27.54,-1.00,-1.0,2373
1694,1831694,17000,-580,844,17030.82,27.40,-1.00,-1.0,2423
1697,1831697,16964,-652,1060,17009.59,27.45,-1.00,-1.0,2385
1700,1831700,17000,-564,996,17038.49,27.40,-1.00,-1.0,2420
1703,1831703,17024,-552,940,17058.87,27.45,-1.00,-1.0,2372
1706,1831706,16924,-544,968,16960.39,27.49,-1.00,-1.0,2423
1708,1831708,16996,-604,932,17032.25,27.35,-1.00,-1.0,2372
1711,1831711,17028,-568,928,17062.72,27.40,-1.00,-1.0,2366
1716,1831716,17140,-536,900,17171.98,27.40,-1.00,-1.0,2440
1718,1831718,17032,-572,904,17065.56,27.49,-1.00,-1.0,2367
1721,1831721,17036,-508,808,17062.71,27.40,-1.00,-1.0,2421
1724,1831724,17060,-580,1028,17100.78,27.40,-1.00,-1.0,2370
1727,1831727,16980,-592,976,17018.33,27.49,-1.00,-1.0,2422
1729,1831729,17036,-604,948,17073.04,27.49,-1.00,-1.0,2353
1732,1831732,17116,-588,968,17153.43,27.40,-1.00,-1.0,2420
1735,1831735,17076,-624,912,17111.72,27.45,-1.00,-1.0,2369
1740,1831740,16960,-624,944,16997.71,27.45,-1.00,-1.0,2440
1743,1831743,16924,-644,936,16962.09,27.49,-1.00,-1.0,2367
1746,1831746,16972,-612,780,17000.93,27.45,-1.00,-1.0,2420
1748,1831748,17044,-612,992,17083.81,27.40,-1.00,-1.0,2369
1751,1831751,16980,-612,928,17016.35,27.45,-1.00,-1.0,2372
1754,1831754,16920,-624,844,16952.53,27.45,-1.00,-1.0,2432
1756,1831756,17044,-580,980,17082.00,27.45,-1.00,-1.0,2371
1759,1831759,16992,-580,928,17027.20,27.40,-1.00,-1.0,2429
1762,1831762,16952,-604,1060,16995.84,27.45,-1.00,-1.0,2370
1767,1831767,17096,-576,956,17132.39,27.45,-1.00,-1.0,2439
1770,1831770,16976,-576,908,17010.02,27.35,-1.00,-1.0,2367
1773,1831773,17016,-616,984,17055.55,27.45,-1.00,-1.0,2421
1775,1831775,16972,-644,1072,17018.01,27.35,-1.00,-1.0,2372
1778,1831778,17072,-528,772,17097.60,27.45,-1.00,-1.0,2419
1781,1831781,17060,-600,932,17095.97,27.45,-1.00,-1.0,2376
1784,1831784,16888,-508,868,16917.92,27.45,-1.00,-1.0,2419
1786,1831786,17000,-480,964,17034.07,27.45,-1.00,-1.0,2369
1791,1831791,17068,-488,1052,17107.35,27.54,-1.00,-1.0,2442
1794,1831794,16956,-528,1044,16996.31,27.45,-1.00,-1.0,2368
1797,1831797,17004,-592,900,17038.09,27.45,-1.00,-1.0,2366
1799,1831799,16912,-544,928,16946.18,27.49,-1.00,-1.0,2429
1802,1831802,16936,-620,992,16976.35,27.40,-1.00,-1.0,2376
1805,1831805,17032,-608,908,17067.02,27.49,-1.00,-1.0,2420
1808,1831808,16960,-592,960,16997.46,27.45,-1.00,-1.0,2371
1810,1831810,16984,-544,904,17016.74,27.49,-1.00,-1.0,2426
1813,1831813,16964,-588,832,16994.57,27.49,-1.00,-1.0,2383
1818,1831818,17048,-568,1060,17090.36,27.49,-1.00,-1.0,2454
1821,1831821,17036,-456,892,17065.43,27.59,-1.00,-1.0,2373
1824,1831824,17092,-640,908,17128.06,27.40,-1.00,-1.0,2433
1826,1831826,16964,-556,992,17002.07,27.40,-1.00,-1.0,2377
1829,1831829,17012,-572,896,17045.18,27.45,-1.00,-1.0,2419
1832,1831832,16992,-552,976,17028.96,27.40,-1.00,-1.0,2357
1835,1831835,17044,-552,884,17075.83,27.45,-1.00,-1.0,2366
1837,1831837,17048,-508,896,17079.09,27.45,-1.00,-1.0,2419
1840,1831840,16936,-656,904,16972.79,27.40,-1.00,-1.0,2376
1845,1831845,16860,-644,856,16894.00,27.49,-1.00,-1.0,2442
1848,1831848,16948,-484,804,16973.96,27.40,-1.00,-1.0,2369
1851,1831851,17048,-524,1044,17087.97,27.40,-1.00,-1.0,2428
1854,1831854,16960,-608,976,16998.94,27.54,-1.00,-1.0,2368
1856,1831856,17008,-460,1004,17043.82,27.40,-1.00,-1.0,2430
1859,1831859,17028,-512,904,17059.66,27.49,-1.00,-1.0,2369
1862,1831862,17104,-528,952,17138.61,27.49,-1.00,-1.0,2426
1865,1831865,17068,-540,772,17093.98,27.40,-1.00,-1.0,2369
1870,1831870,16980,-520,1040,17019.77,27.45,-1.00,-1.0,2438
1872,1831872,17048,-592,940,17084.16,27.45,-1.00,-1.0,2366
1875,1831875,17120,-648,992,17160.96,27.40,-1.00,-1.0,2373
1878,1831878,17092,-556,952,17127.52,27.45,-1.00,-1.0,2432
1880,1831880,16960,-604,784,16988.85,27.45,-1.00,-1.0,2377
1883,1831883,17064,-568,948,17099.75,27.35,-1.00,-1.0,2419
1886,1831886,17032,-564,1036,17072.80,27.45,-1.00,-1.0,2371
1889,1831889,17092,-540,1000,17129.74,27.45,-1.00,-1.0,2421
1891,1831891,16992,-584,872,17024.38,27.45,-1.00,-1.0,2373
1896,1831896,17056,-540,912,17088.90,27.45,-1.00,-1.0,2438
1899,1831899,16916,-604,928,16952.20,27.45,-1.00,-1.0,2371
1902,1831902,17044,-556,928,17078.30,27.31,-1.00,-1.0,2428
1905,1831905,17000,-624,936,17037.18,27.45,-1.00,-1.0,2370
1907,1831907,16936,-640,928,16973.48,27.31,-1.00,-1.0,2419
1910,1831910,17016,-628,948,17053.95,27.45,-1.00,-1.0,2369
1913,1831913,16976,-600,1036,17018.16,27.49,-1.00,-1.0,2367
1915,1831915,17056,-596,800,17085.15,27.54,-1.00,-1.0,2430
1918,1831918,16944,-564,1012,16983.56,27.35,-1.00,-1.0,2370
1923,1831923,17040,-532,876,17070.79,27.45,-1.00,-1.0,2446
1926,1831926,16964,-664,996,17006.18,27.35,-1.00,-1.0,2372
1928,1831928,17060,-580,840,17090.51,27.45,-1.00,-1.0,2428
1931,1831931,17052,-696,912,17090.55,27.45,-1.00,-1.0,2385
1934,1831934,17044,-532,920,17077.10,27.45,-1.00,-1.0,2421
1937,1831937,17068,-648,1008,17110.01,27.45,-1.00,-1.0,2376
1940,1831940,17032,-556,888,17064.19,27.45,-1.00,-1.0,2419
1942,1831942,17072,-576,884,17104.57,27.49,-1.00,-1.0,2369
1947,1831947,16988,-532,880,17019.09,27.49,-1.00,-1.0,2439
1950,1831950,17076,-456,1012,17112.04,27.54,-1.00,-1.0,2369
1953,1831953,17108,-552,964,17144.03,27.49,-1.00,-1.0,2351
1955,1831955,17004,-640,872,17038.37,27.45,-1.00,-1.0,2421
1958,1831958,16996,-520,964,17031.26,27.49,-1.00,-1.0,2369
1961,1831961,17028,-540,864,17058.46,27.54,-1.00,-1.0,2429
1964,1831964,17112,-504,944,17145.43,27.49,-1.00,-1.0,2368
1966,1831966,17116,-588,1028,17156.92,27.54,-1.00,-1.0,2422
1969,1831969,17004,-604,1080,17048.96,27.49,-1.00,-1.0,2369
1974,1831974,17008,-508,888,17038.74,27.40,-1.00,-1.0,2439
1977,1831977,16980,-632,860,17013.51,27.40,-1.00,-1.0,2367
1980,1831980,17008,-592,980,17046.49,27.49,-1.00,-1.0,2427
1983,1831983,17012,-516,892,17043.18,27.45,-1.00,-1.0,2368
1985,1831985,17000,-508,896,17031.17,27.49,-1.00,-1.0,2419
1988,1831988,17044,-564,936,17079.00,27.49,-1.00,-1.0,2356
1991,1831991,16932,-488,1044,16971.17,27.35,-1.00,-1.0,2370
1993,1831993,17020,-600,896,17054.13,27.45,-1.00,-1.0,2430
1996,1831996,17036,-548,992,17073.65,27.45,-1.00,-1.0,2369
2001,1832001,16984,-592,900,17018.13,27.40,-1.00,-1.0,2438
2004,1832004,17048,-512,964,17082.91,27.59,-1.00,-1.0,2353
2007,1832007,17004,-584,952,17040.64,27.40,-1.00,-1.0,2428
2010,1832010,17104,-632,944,17141.69,27.40,-1.00,-1.0,2368
2012,1832012,17036,-724,1104,17087.08,27.35,-1.00,-1.0,2419
2015,1832015,17044,-588,968,17081.59,27.40,-1.00,-1.0,2356
2018,1832018,17060,-608,1052,17103.21,27.45,-1.00,-1.0,2427
2021,1832021,17012,-636,832,17044.20,27.49,-1.00,-1.0,2368
2026,1832026,17104,-620,892,17138.46,27.49,-1.00,-1.0,2441
2028,1832028,17024,-588,960,17061.18,27.40,-1.00,-1.0,2368
2031,1832031,16964,-604,940,17000.76,27.40,-1.00,-1.0,2420
2034,1832034,17104,-576,1012,17143.59,27.40,-1.00,-1.0,2369
2036,1832036,17052,-628,824,17083.44,27.35,-1.00,-1.0,2366
2039,1832039,17012,-504,800,17038.26,27.45,-1.00,-1.0,2419
2042,1832042,17100,-544,896,17132.10,27.35,-1.00,-1.0,2378
2045,1832045,17000,-632,808,17030.92,27.45,-1.00,-1.0,2419
2047,1832047,16964,-472,876,16993.16,27.35,-1.00,-1.0,2374
2052,1832052,17020,-656,972,17060.35,27.35,-1.00,-1.0,2440
2055,1832055,17028,-588,984,17066.54,27.45,-1.00,-1.0,2365
2058,1832058,17096,-584,964,17133.11,27.49,-1.00,-1.0,2428
2061,1832061,17012,-580,880,17044.62,27.35,-1.00,-1.0,2368
2063,1832063,17064,-656,956,17103.34,27.35,-1.00,-1.0,2434
2066,1832066,17080,-508,964,17114.72,27.45,-1.00,-1.0,2369
2069,1832069,17040,-548,1072,17082.48,27.49,-1.00,-1.0,2429
2072,1832072,17020,-508,916,17052.20,27.45,-1.00,-1.0,2369
2074,1832074,16940,-532,840,16969.15,27.45,-1.00,-1.0,2378
2079,1832079,16988,-556,920,17021.98,27.45,-1.00,-1.0,2449
2082,1832082,16984,-536,900,17016.27,27.49,-1.00,-1.0,2373
2085,1832085,16988,-544,1104,17032.53,27.49,-1.00,-1.0,2408
2088,1832088,16976,-620,948,17013.75,27.40,-1.00,-1.0,2369
2090,1832090,17072,-548,860,17102.43,27.49,-1.00,-1.0,2428
2093,1832093,17120,-640,944,17157.95,27.40,-1.00,-1.0,2376
2096,1832096,17064,-648,972,17103.94,27.59,-1.00,-1.0,2409
2099,1832099,17056,-516,1044,17095.71,27.49,-1.00,-1.0,2369
2103,1832103,17024,-604,1088,17069.42,27.49,-1.00,-1.0,2448
2106,1832106,17044,-608,964,17082.06,27.49,-1.00,-1.0,2368
2109,1832109,17024,-520,980,17060.11,27.54,-1.00,-1.0,2422
2112,1832112,17020,-604,904,17054.69,27.40,-1.00,-1.0,2368
2114,1832114,17032,-632,916,17068.32,27.45,-1.00,-1.0,2365
2117,1832117,17096,-572,916,17130.07,27.49,-1.00,-1.0,2419
2120,1832120,16948,-560,876,16979.86,27.45,-1.00,-1.0,2369
2123,1832123,17064,-640,908,17100.12,27.40,-1.00,-1.0,2418
2125,1832125,16984,-600,1032,17025.90,27.45,-1.00,-1.0,2377
2130,1832130,17048,-580,852,17079.13,27.40,-1.00,-1.0,2447
2133,1832133,17076,-620,1028,17118.15,27.40,-1.00,-1.0,2373
2136,1832136,17008,-580,1004,17047.48,27.40,-1.00,-1.0,2431
2138,1832138,17016,-592,912,17050.70,27.49,-1.00,-1.0,2373
2141,1832141,16944,-584,848,16975.26,27.40,-1.00,-1.0,2412
2144,1832144,17032,-508,1048,17071.77,27.40,-1.00,-1.0,2377
2147,1832147,17052,-648,948,17090.62,27.45,-1.00,-1.0,2435
2149,1832149,17064,-520,944,17098.00,27.45,-1.00,-1.0,2356
2152,1832152,16996,-548,1028,17035.88,27.45,-1.00,-1.0,2371
2158,1832158,17028,-528,952,17062.76,27.45,-1.00,-1.0,2442
2160,1832160,17000,-528,840,17028.93,27.45,-1.00,-1.0,2364
2163,1832163,17012,-600,924,17047.64,27.45,-1.00,-1.0,2421
2166,1832166,17076,-620,1004,17116.72,27.45,-1.00,-1.0,2371
2169,1832169,17060,-568,816,17088.95,27.45,-1.00,-1.0,2419
2171,1832171,17044,-484,984,17079.24,27.54,-1.00,-1.0,2359
2174,1832174,17020,-600,952,17057.16,27.45,-1.00,-1.0,2422
2177,1832177,17032,-604,992,17071.55,27.45,-1.00,-1.0,2371
2182,1832182,16960,-556,1152,17008.17,27.45,-1.00,-1.0,2445
2184,1832184,17056,-596,1028,17097.34,27.45,-1.00,-1.0,2375
2187,1832187,16968,-476,976,17002.71,27.45,-1.00,-1.0,2420
2190,1832190,17028,-560,1148,17075.84,27.45,-1.00,-1.0,2370
2193,1832193,17080,-496,988,17115.74,27.45,-1.00,-1.0,2420
2195,1832195,17052,-596,780,17080.23,27.54,-1.00,-1.0,2374
2198,1832198,17048,-596,776,17076.06,27.49,-1.00,-1.0,2365
2201,1832201,17028,-524,892,17059.40,27.40,-1.00,-1.0,2421
2204,1832204,16972,-592,992,17011.27,27.49,-1.00,-1.0,2372
2209,1832209,16980,-572,812,17009.03,27.40,-1.00,-1.0,2439
2211,1832211,16968,-620,940,17005.32,27.45,-1.00,-1.0,2365
2214,1832214,17048,-592,816,17077.78,27.49,-1.00,-1.0,2420
2217,1832217,17088,-604,872,17120.89,27.40,-1.00,-1.0,2371
2220,1832220,17044,-632,1036,17087.15,27.40,-1.00,-1.0,2406
2222,1832222,17028,-580,868,17059.97,27.45,-1.00,-1.0,2369
2225,1832225,16992,-588,944,17028.36,27.40,-1.00,-1.0,2419
2228,1832228,17096,-576,948,17131.95,27.40,-1.00,-1.0,2369
2233,1832233,17036,-536,876,17066.93,27.40,-1.00,-1.0,2438
2235,1832235,17016,-628,816,17047.12,27.35,-1.00,-1.0,2368
2238,1832238,17060,-580,972,17097.51,27.45,-1.00,-1.0,2422
2241,1832241,17052,-684,768,17082.98,27.49,-1.00,-1.0,2436
2244,1832244,17180,-524,936,17213.46,27.40,-1.00,-1.0,2367
2247,1832247,17008,-628,1000,17048.94,27.45,-1.00,-1.0,2422
2249,1832249,17052,-592,956,17089.04,27.49,-1.00,-1.0,2366
2252,1832252,17016,-604,1012,17056.76,27.54,-1.00,-1.0,2424
2255,1832255,17052,-632,1000,17092.98,27.49,-1.00,-1.0,2374
2260,1832260,16932,-592,1036,16973.99,27.49,-1.00,-1.0,2435
2263,1832263,17112,-496,916,17143.68,27.54,-1.00,-1.0,2367
2266,1832266,17036,-552,1028,17075.91,27.40,-1.00,-1.0,2428
2268,1832268,16988,-568,984,17025.95,27.45,-1.00,-1.0,2372
2271,1832271,16976,-632,900,17011.58,27.49,-1.00,-1.0,2419
2274,1832274,17008,-596,884,17041.38,27.49,-1.00,-1.0,2370
2276,1832276,16948,-556,1028,16988.25,27.40,-1.00,-1.0,2366
2279,1832279,16996,-556,1064,17038.35,27.45,-1.00,-1.0,2419
2282,1832282,17032,-580,940,17067.78,27.40,-1.00,-1.0,2376
2287,1832287,17100,-592,896,17133.69,27.40,-1.00,-1.0,2432
2290,1832290,17040,-584,1012,17080.01,27.40,-1.00,-1.0,2368
2292,1832292,17068,-512,972,17103.32,27.49,-1.00,-1.0,2425
2295,1832295,17076,-556,1012,17114.99,27.49,-1.00,-1.0,2370
2298,1832298,16920,-604,1060,16963.93,27.49,-1.00,-1.0,2426
2301,1832301,17060,-612,1052,17103.36,27.49,-1.00,-1.0,2368
2303,1832303,17044,-604,1012,17084.70,27.45,-1.00,-1.0,2419
2306,1832306,17052,-604,996,17091.74,27.49,-1.00,-1.0,2373
2311,1832311,17084,-608,1080,17128.90,27.45,-1.00,-1.0,2439
2314,1832314,17000,-612,948,17037.41,27.40,-1.00,-1.0,2369
2316,1832316,16988,-592,968,17025.85,27.45,-1.00,-1.0,2428
2319,1832319,17104,-592,764,17131.29,27.45,-1.00,-1.0,2369
2322,1832322,17008,-632,996,17048.86,27.49,-1.00,-1.0,2369
2325,1832325,17048,-628,920,17084.35,27.40,-1.00,-1.0,2421
2327,1832327,17024,-616,1076,17069.09,27.45,-1.00,-1.0,2376
2330,1832330,17008,-584,844,17038.94,27.49,-1.00,-1.0,2420
2333,1832333,17008,-516,912,17040.25,27.59,-1.00,-1.0,2371
2337,1832337,17028,-672,924,17066.29,27.54,-1.00,-1.0,2436
2340,1832340,16960,-632,952,16998.45,27.54,-1.00,-1.0,2370
2343,1832343,17048,-564,916,17081.90,27.45,-1.00,-1.0,2433
2346,1832346,17096,-616,1004,17136.53,27.45,-1.00,-1.0,2369
2348,1832348,17052,-560,952,17087.73,27.40,-1.00,-1.0,2431
2351,1832351,17088,-604,1048,17130.76,27.54,-1.00,-1.0,2370
2354,1832354,17088,-560,944,17123.21,27.40,-1.00,-1.0,2427
2357,1832357,17004,-532,972,17040.06,27.49,-1.00,-1.0,2370
2360,1832360,17044,-652,864,17078.34,27.49,-1.00,-1.0,2366
2365,1832365,16980,-548,920,17013.73,27.49,-1.00,-1.0,2433
2367,1832367,17012,-504,956,17046.29,27.45,-1.00,-1.0,2367
2370,1832370,17188,-544,936,17222.06,27.40,-1.00,-1.0,2441
2373,1832373,16988,-516,904,17019.86,27.49,-1.00,-1.0,2377
2376,1832376,17096,-568,984,17133.71,27.49,-1.00,-1.0,2428
2378,1832378,17036,-488,852,17064.27,27.49,-1.00,-1.0,2377
2381,1832381,17072,-552,840,17101.56,27.40,-1.00,-1.0,2419
2384,1832384,16972,-552,1000,17010.39,27.40,-1.00,-1.0,2372
2389,1832389,17016,-516,944,17049.97,27.40,-1.00,-1.0,2439
2392,1832392,16996,-588,988,17034.84,27.54,-1.00,-1.0,2366
2394,1832394,17048,-556,1056,17089.72,27.49,-1.00,-1.0,2443
2397,1832397,17036,-552,728,17060.48,27.35,-1.00,-1.0,2377
2400,1832400,17000,-588,868,17032.30,27.45,-1.00,-1.0,2366
2403,1832403,16964,-616,968,17002.76,27.45,-1.00,-1.0,2419
2405,1832405,17020,-536,912,17052.84,27.54,-1.00,-1.0,2370
2408,1832408,16988,-588,896,17021.77,27.45,-1.00,-1.0,2419
2411,1832411,17028,-680,756,17058.33,27.45,-1.00,-1.0,2369
2416,1832416,16976,-548,828,17005.01,27.45,-1.00,-1.0,2435
2418,1832418,17012,-532,1024,17051.09,27.40,-1.00,-1.0,2374
2421,1832421,17104,-648,940,17142.06,27.35,-1.00,-1.0,2427
2424,1832424,16956,-620,860,16989.11,27.49,-1.00,-1.0,2357
2427,1832427,17060,-544,1068,17102.05,27.45,-1.00,-1.0,2421
2429,1832429,17088,-564,928,17122.47,27.35,-1.00,-1.0,2373
2432,1832432,17032,-580,980,17070.03,27.45,-1.00,-1.0,2420
2435,1832435,16948,-560,1060,16990.35,27.35,-1.00,-1.0,2359
2438,1832438,16960,-612,964,16998.39,27.45,-1.00,-1.0,2366
2443,1832443,17036,-640,956,17074.80,27.54,-1.00,-1.0,2435
2445,1832445,17096,-604,952,17133.13,27.45,-1.00,-1.0,2372
2448,1832448,17008,-576,900,17041.53,27.45,-1.00,-1.0,2427
2451,1832451,16972,-616,936,17008.95,27.45,-1.00,-1.0,2372
2454,1832454,17028,-552,904,17060.91,27.45,-1.00,-1.0,2421
2456,1832456,17020,-452,732,17041.73,27.45,-1.00,-1.0,2353
2459,1832459,16988,-584,816,17017.61,27.45,-1.00,-1.0,2419
2462,1832462,17004,-608,920,17039.72,27.45,-1.00,-1.0,2371
2467,1832467,17040,-580,976,17077.78,27.45,-1.00,-1.0,2435
2470,1832470,17076,-660,1024,17119.40,27.49,-1.00,-1.0,2373
2472,1832472,16976,-700,944,17016.63,27.45,-1.00,-1.0,2434
2475,1832475,16924,-540,916,16957.37,27.45,-1.00,-1.0,2377
2478,1832478,17000,-504,900,17031.27,27.49,-1.00,-1.0,2366
2481,1832481,17080,-580,944,17115.90,27.40,-1.00,-1.0,2419
2483,1832483,16996,-604,1040,17038.50,27.49,-1.00,-1.0,2373
2486,1832486,17080,-600,1036,17121.91,27.49,-1.00,-1.0,2419
2489,1832489,17040,-604,864,17072.58,27.49,-1.00,-1.0,2376
2494,1832494,17060,-608,976,17098.71,27.49,-1.00,-1.0,2439
2497,1832497,16992,-656,1004,17034.27,27.40,-1.00,-1.0,2366
2499,1832499,17084,-584,1076,17127.81,27.40,-1.00,-1.0,2427
2502,1832502,16924,-628,996,16964.91,27.45,-1.00,-1.0,2370
2505,1832505,17080,-604,972,17118.29,27.40,-1.00,-1.0,2427
2508,1832508,17036,-592,860,17067.96,27.49,-1.00,-1.0,2368
2510,1832510,17060,-572,924,17094.58,27.40,-1.00,-1.0,2420
2513,1832513,17052,-576,792,17080.10,27.45,-1.00,-1.0,2369
2519,1832519,17008,-584,992,17046.91,27.40,-1.00,-1.0,2431
2521,1832521,16996,-616,868,17029.29,27.40,-1.00,-1.0,2365
2524,1832524,17040,-544,984,17077.05,27.45,-1.00,-1.0,2372
2527,1832527,17004,-556,988,17041.75,27.45,-1.00,-1.0,2437
2529,1832529,17040,-568,808,17068.60,27.35,-1.00,-1.0,2376
2532,1832532,17060,-596,948,17096.71,27.49,-1.00,-1.0,2419
2535,1832535,16888,-544,876,16919.45,27.45,-1.00,-1.0,2370
2538,1832538,17004,-556,1036,17044.60,27.40,-1.00,-1.0,2421
2540,1832540,17112,-536,1024,17150.99,27.45,-1.00,-1.0,2372
2545,1832545,16984,-616,948,17021.59,27.45,-1.00,-1.0,2448
2548,1832548,17016,-620,996,17056.40,27.45,-1.00,-1.0,2375
2551,1832551,17000,-604,896,17034.31,27.54,-1.00,-1.0,2441
2553,1832553,16948,-580,1036,16989.54,27.45,-1.00,-1.0,2377
2556,1832556,17080,-580,960,17116.79,27.40,-1.00,-1.0,2419
2559,1832559,16972,-524,900,17003.92,27.45,-1.00,-1.0,2357
2562,1832562,17044,-436,832,17069.86,27.49,-1.00,-1.0,2366
2564,1832564,17096,-692,796,17128.51,27.49,-1.00,-1.0,2419
2567,1832567,17048,-540,868,17078.62,27.40,-1.00,-1.0,2369
2572,1832572,17136,-532,872,17166.42,27.35,-1.00,-1.0,2435
2575,1832575,16956,-628,956,16994.54,27.40,-1.00,-1.0,2367
2578,1832578,16960,-512,1016,16998.12,27.40,-1.00,-1.0,2427
2580,1832580,17088,-436,940,17119.39,27.40,-1.00,-1.0,2369
2583,1832583,16936,-544,772,16962.31,27.49,-1.00,-1.0,2419
2586,1832586,17116,-580,932,17151.17,27.40,-1.00,-1.0,2369
2589,1832589,16944,-652,856,16978.13,27.40,-1.00,-1.0,2419
2591,1832591,17032,-568,968,17068.94,27.49,-1.00,-1.0,2369
2596,1832596,16924,-656,868,16958.94,27.40,-1.00,-1.0,2438
2599,1832599,17028,-592,888,17061.41,27.45,-1.00,-1.0,2368
2602,1832602,16988,-556,876,17019.65,27.49,-1.00,-1.0,2365
2604,1832604,16892,-496,992,16928.37,27.45,-1.00,-1.0,2429
2607,1832607,17052,-652,928,17089.68,27.49,-1.00,-1.0,2369
2610,1832610,17016,-600,924,17051.63,27.35,-1.00,-1.0,2426
2613,1832613,16972,-584,1040,17013.86,27.35,-1.00,-1.0,2368
2615,1832615,17032,-544,892,17064.02,27.45,-1.00,-1.0,2420
2618,1832618,17044,-556,1040,17084.75,27.45,-1.00,-1.0,2369
2623,1832623,16924,-636,912,16960.48,27.40,-1.00,-1.0,2432
2626,1832626,17008,-556,860,17038.80,27.49,-1.00,-1.0,2367
2629,1832629,17048,-520,964,17083.15,27.54,-1.00,-1.0,2426
2631,1832631,17012,-612,936,17048.72,27.40,-1.00,-1.0,2369
2634,1832634,17064,-464,1072,17103.93,27.35,-1.00,-1.0,2421
2637,1832637,17040,-616,872,17073.41,27.49,-1.00,-1.0,2369
2639,1832639,17012,-500,884,17042.29,27.45,-1.00,-1.0,2370
2642,1832642,17036,-556,832,17065.36,27.40,-1.00,-1.0,2434
2645,1832645,16968,-540,964,17003.94,27.49,-1.00,-1.0,2370
2650,1832650,16976,-564,880,17008.15,27.49,-1.00,-1.0,2431
2653,1832653,17004,-568,900,17037.27,27.40,-1.00,-1.0,2370
2655,1832655,17028,-532,848,17057.40,27.40,-1.00,-1.0,2421
2658,1832658,17004,-548,944,17039.00,27.40,-1.00,-1.0,2377
2661,1832661,17060,-508,988,17096.13,27.45,-1.00,-1.0,2421
2664,1832664,17044,-600,1020,17085.03,27.49,-1.00,-1.0,2371
2667,1832667,17048,-644,820,17079.86,27.45,-1.00,-1.0,2419
2669,1832669,17092,-568,904,17125.31,27.40,-1.00,-1.0,2371
2674,1832674,17116,-604,976,17154.44,27.49,-1.00,-1.0,2442
2677,1832677,16912,-456,904,16942.28,27.49,-1.00,-1.0,2373
2680,1832680,16988,-536,948,17022.87,27.45,-1.00,-1.0,2365
2682,1832682,17060,-496,792,17085.58,27.45,-1.00,-1.0,2427
2685,1832685,17012,-516,924,17044.89,27.45,-1.00,-1.0,2370
2688,1832688,16928,-580,900,16961.83,27.45,-1.00,-1.0,2427
2691,1832691,16960,-528,852,16989.59,27.45,-1.00,-1.0,2369
2693,1832693,17044,-564,1024,17084.04,27.54,-1.00,-1.0,2422
2696,1832696,17056,-580,888,17088.95,27.45,-1.00,-1.0,2369
2701,1832701,17064,-508,856,17093.01,27.45,-1.00,-1.0,2439
2704,1832704,17052,-580,1024,17092.56,27.49,-1.00,-1.0,2370
2707,1832707,16984,-504,1000,17020.88,27.45,-1.00,-1.0,2429
2709,1832709,17036,-532,1132,17081.85,27.35,-1.00,-1.0,2374
2712,1832712,16956,-532,936,16990.15,27.45,-1.00,-1.0,2419
2715,1832715,17020,-496,900,17050.99,27.45,-1.00,-1.0,2371
2718,1832718,17000,-528,1064,17041.45,27.54,-1.00,-1.0,2366
2720,1832720,16968,-552,928,17002.32,27.49,-1.00,-1.0,2422
2723,1832723,16984,-628,968,17023.15,27.45,-1.00,-1.0,2371
2728,1832728,17016,-556,1104,17060.84,27.49,-1.00,-1.0,2440
2731,1832731,16956,-544,936,16990.53,27.40,-1.00,-1.0,2365
2733,1832733,17016,-604,888,17049.86,27.49,-1.00,-1.0,2440
2736,1832736,16980,-572,908,17013.88,27.49,-1.00,-1.0,2369
2739,1832739,16976,-636,916,17012.59,27.49,-1.00,-1.0,2427
2742,1832742,17036,-692,904,17074.00,27.49,-1.00,-1.0,2369
2744,1832744,17084,-568,944,17119.49,27.35,-1.00,-1.0,2430
2747,1832747,16964,-552,840,16993.75,27.40,-1.00,-1.0,2376
2752,1832752,17096,-592,980,17134.29,27.45,-1.00,-1.0,2440
2755,1832755,17072,-556,996,17110.06,27.45,-1.00,-1.0,2365
2757,1832757,17044,-624,980,17083.55,27.49,-1.00,-1.0,2365
2760,1832760,17064,-616,1028,17106.03,27.45,-1.00,-1.0,2435
2763,1832763,16992,-624,884,17026.42,27.40,-1.00,-1.0,2369
2765,1832765,17036,-560,920,17070.01,27.54,-1.00,-1.0,2430
2768,1832768,17004,-528,968,17039.71,27.40,-1.00,-1.0,2376
2771,1832771,17044,-568,972,17081.14,27.45,-1.00,-1.0,2435
2774,1832774,17040,-576,844,17070.61,27.40,-1.00,-1.0,2369
2779,1832779,16980,-588,916,17014.85,27.40,-1.00,-1.0,2432
2782,1832782,16996,-556,900,17028.89,27.45,-1.00,-1.0,2367
2785,1832785,17000,-524,1024,17038.87,27.40,-1.00,-1.0,2427
2787,1832787,17108,-584,948,17144.20,27.49,-1.00,-1.0,2369
2790,1832790,17004,-556,960,17040.15,27.49,-1.00,-1.0,2419
2793,1832793,16976,-608,1076,17020.93,27.45,-1.00,-1.0,2369
2796,1832796,17036,-556,1044,17077.01,27.49,-1.00,-1.0,2419
2798,1832798,17160,-592,868,17192.13,27.40,-1.00,-1.0,2369
2801,1832801,17116,-500,912,17147.57,27.45,-1.00,-1.0,2373
2806,1832806,17012,-600,792,17040.99,27.40,-1.00,-1.0,2433
2809,1832809,17044,-568,1008,17083.23,27.49,-1.00,-1.0,2375
2812,1832812,17048,-576,1052,17090.14,27.45,-1.00,-1.0,2427
2814,1832814,16996,-588,988,17034.84,27.49,-1.00,-1.0,2370
2817,1832817,16940,-600,1064,16983.98,27.45,-1.00,-1.0,2419
2820,1832820,17108,-560,920,17141.87,27.40,-1.00,-1.0,2377
2823,1832823,17032,-584,1068,17075.44,27.54,-1.00,-1.0,2420
2825,1832825,16912,-532,960,16947.58,27.49,-1.00,-1.0,2372
2830,1832830,17012,-624,924,17048.50,27.49,-1.00,-1.0,2432
2833,1832833,17008,-624,1008,17049.27,27.40,-1.00,-1.0,2370
2836,1832836,16992,-484,888,17022.07,27.40,-1.00,-1.0,2434
2839,1832839,16960,-644,924,16997.36,27.49,-1.00,-1.0,2368
2841,1832841,16880,-660,920,16917.93,27.45,-1.00,-1.0,2380
2844,1832844,17024,-660,856,17058.28,27.54,-1.00,-1.0,2421
2847,1832847,16904,-668,1112,16953.70,27.54,-1.00,-1.0,2376
2849,1832849,17060,-564,1048,17101.46,27.40,-1.00,-1.0,2421
2852,1832852,17084,-532,1000,17121.51,27.45,-1.00,-1.0,2371
2857,1832857,17016,-628,908,17051.78,27.35,-1.00,-1.0,2447
2860,1832860,17068,-612,916,17103.52,27.45,-1.00,-1.0,2377
2863,1832863,16996,-532,992,17033.23,27.45,-1.00,-1.0,2438
2865,1832865,17096,-584,1056,17138.54,27.45,-1.00,-1.0,2378
2868,1832868,17044,-584,1036,17085.44,27.40,-1.00,-1.0,2419
2871,1832871,16896,-488,924,16928.28,27.45,-1.00,-1.0,2358
2874,1832874,16976,-584,896,17009.66,27.45,-1.00,-1.0,2431
2876,1832876,16992,-508,1012,17029.69,27.54,-1.00,-1.0,2378
2881,1832881,16992,-600,992,17031.50,27.54,-1.00,-1.0,2444
2884,1832884,17056,-544,912,17089.03,27.54,-1.00,-1.0,2370
2887,1832887,17084,-484,928,17116.03,27.35,-1.00,-1.0,2367
2890,1832890,17084,-580,960,17120.78,27.49,-1.00,-1.0,2427
2892,1832892,16968,-492,976,17003.17,27.40,-1.00,-1.0,2369
2895,1832895,17096,-580,840,17126.45,27.45,-1.00,-1.0,2419
2898,1832898,17088,-596,856,17119.80,27.40,-1.00,-1.0,2369
2901,1832901,16968,-624,916,17004.16,27.54,-1.00,-1.0,2420
2903,1832903,17208,-468,824,17234.07,27.40,-1.00,-1.0,2369
2908,1832908,17084,-560,936,17118.78,27.49,-1.00,-1.0,2439
2911,1832911,16980,-612,1044,17023.07,27.49,-1.00,-1.0,2368
2914,1832914,17036,-632,1008,17077.49,27.59,-1.00,-1.0,2429
2916,1832916,17084,-544,984,17120.96,27.40,-1.00,-1.0,2373
2919,1832919,16992,-584,888,17025.21,27.35,-1.00,-1.0,2419
2922,1832922,16996,-464,1104,17038.14,27.49,-1.00,-1.0,2371
2925,1832925,17048,-524,964,17083.27,27.45,-1.00,-1.0,2366
2927,1832927,16992,-580,980,17030.12,27.45,-1.00,-1.0,2421
2930,1832930,17004,-576,1052,17046.25,27.49,-1.00,-1.0,2369
2935,1832935,16956,-680,796,16988.29,27.35,-1.00,-1.0,2432
2938,1832938,16984,-532,884,17015.31,27.54,-1.00,-1.0,2367
2941,1832941,17052,-504,904,17083.38,27.45,-1.00,-1.0,2427
2943,1832943,17048,-632,932,17085.15,27.54,-1.00,-1.0,2370
2946,1832946,17064,-460,872,17092.46,27.54,-1.00,-1.0,2419
2949,1832949,17036,-516,832,17064.11,27.35,-1.00,-1.0,2377
2952,1832952,17168,-604,888,17201.56,27.45,-1.00,-1.0,2419
2954,1832954,17056,-572,1088,17100.24,27.35,-1.00,-1.0,2369
2959,1832959,17036,-488,1040,17074.69,27.40,-1.00,-1.0,2433
2962,1832962,16892,-596,1008,16932.54,27.40,-1.00,-1.0,2365
2964,1832964,17008,-476,876,17037.20,27.54,-1.00,-1.0,2353
2967,1832967,17028,-608,888,17061.97,27.54,-1.00,-1.0,2428
2970,1832970,17044,-552,896,17076.46,27.45,-1.00,-1.0,2369
2973,1832973,17028,-624,1028,17070.41,27.45,-1.00,-1.0,2419
2975,1832975,17068,-584,936,17103.62,27.45,-1.00,-1.0,2371
2978,1832978,16992,-528,976,17028.20,27.49,-1.00,-1.0,2421
2981,1832981,17040,-628,1076,17085.48,27.45,-1.00,-1.0,2373
2986,1832986,17048,-548,932,17082.25,27.45,-1.00,-1.0,2433
2989,1832989,17140,-596,852,17171.51,27.45,-1.00,-1.0,2353
2992,1832992,16992,-624,1068,17036.96,27.35,-1.00,-1.0,2433
2995,1832995,17112,-480,888,17141.75,27.45,-1.00,-1.0,2368
2997,1832997,17068,-604,940,17104.53,27.45,-1.00,-1.0,2419
3000,1833000,17020,-608,828,17050.97,27.45,-1.00,-1.0,2370
3003,1833003,17028,-564,948,17063.69,27.49,-1.00,-1.0,2366
3005,1833005,16936,-568,972,16973.38,27.49,-1.00,-1.0,2429
3008,1833008,17036,-532,972,17072.00,27.49,-1.00,-1.0,2371
3013,1833013,17044,-540,968,17080.00,27.40,-1.00,-1.0,2433
3016,1833016,17068,-560,1000,17106.44,27.45,-1.00,-1.0,2366
3019,1833019,17060,-524,968,17095.47,27.40,-1.00,-1.0,2429
3022,1833022,17024,-540,828,17052.68,27.45,-1.00,-1.0,2367
3024,1833024,17076,-516,1000,17113.04,27.49,-1.00,-1.0,2422
3027,1833027,16996,-544,1072,17038.46,27.45,-1.00,-1.0,2370
3030,1833030,17040,-556,1052,17081.49,27.49,-1.00,-1.0,2429
3033,1833033,17064,-572,940,17099.44,27.54,-1.00,-1.0,2369
3038,1833038,17032,-552,976,17068.87,27.45,-1.00,-1.0,2433
3040,1833040,16976,-492,904,17007.17,27.45,-1.00,-1.0,2366
3043,1833043,16996,-584,1028,17037.07,27.40,-1.00,-1.0,2427
3046,1833046,16960,-608,944,16997.13,27.35,-1.00,-1.0,2370
3048,1833048,17104,-580,912,17138.11,27.49,-1.00,-1.0,2369
3051,1833051,17100,-568,980,17137.47,27.45,-1.00,-1.0,2429
3054,1833054,16892,-552,860,16922.88,27.31,-1.00,-1.0,2376
3057,1833057,17044,-524,1076,17085.97,27.45,-1.00,-1.0,2428
3059,1833059,17056,-628,896,17091.06,27.45,-1.00,-1.0,2378
3064,1833064,17012,-632,804,17042.71,27.45,-1.00,-1.0,2443
3067,1833067,16996,-548,900,17028.63,27.40,-1.00,-1.0,2362
3070,1833070,17036,-532,1000,17073.62,27.45,-1.00,-1.0,2430
3073,1833073,17004,-608,944,17041.03,27.49,-1.00,-1.0,2365
3075,1833075,16948,-632,944,16986.03,27.54,-1.00,-1.0,2429
3078,1833078,17084,-556,972,17120.66,27.40,-1.00,-1.0,2374
3081,1833081,17036,-604,860,17068.38,27.45,-1.00,-1.0,2422
3084,1833084,17104,-576,1012,17143.59,27.49,-1.00,-1.0,2366
3086,1833086,17032,-600,868,17064.65,27.54,-1.00,-1.0,2375
3091,1833091,17048,-544,940,17082.56,27.54,-1.00,-1.0,2444
3094,1833094,16952,-520,888,16983.21,27.35,-1.00,-1.0,2369
3097,1833097,17024,-636,956,17062.68,27.45,-1.00,-1.0,2414
3100,1833100,17076,-516,1068,17117.14,27.45,-1.00,-1.0,2364
3102,1833102,17120,-652,1000,17161.57,27.45,-1.00,-1.0,2429
3105,1833105,17052,-548,864,17082.67,27.54,-1.00,-1.0,2375
3108,1833108,17000,-556,868,17031.22,27.45,-1.00,-1.0,2422
3111,1833111,17024,-632,872,17058.03,27.35,-1.00,-1.0,2366
3116,1833116,17068,-628,1016,17109.74,27.40,-1.00,-1.0,2439
3119,1833119,16984,-596,824,17014.42,27.45,-1.00,-1.0,2362
3121,1833121,16992,-568,1024,17032.30,27.49,-1.00,-1.0,2427
3124,1833124,17168,-508,964,17202.54,27.49,-1.00,-1.0,2367
3127,1833127,17004,-568,988,17042.15,27.54,-1.00,-1.0,2366
3129,1833129,16928,-604,980,16967.10,27.45,-1.00,-1.0,2427
3132,1833132,17060,-528,904,17092.09,27.54,-1.00,-1.0,2382
3135,1833135,17072,-664,952,17111.41,27.45,-1.00,-1.0,2420
3138,1833138,16952,-592,888,16985.56,27.45,-1.00,-1.0,2371
3142,1833142,17012,-508,972,17047.32,27.45,-1.00,-1.0,2439
3145,1833145,17004,-588,972,17041.91,27.45,-1.00,-1.0,2373
3148,1833148,17056,-580,976,17093.74,27.49,-1.00,-1.0,2429
3151,1833151,16968,-572,852,16999.00,27.40,-1.00,-1.0,2369
3154,1833154,17096,-644,1088,17142.69,27.49,-1.00,-1.0,2419
3156,1833156,16980,-592,824,17010.29,27.40,-1.00,-1.0,2371
3159,1833159,17040,-544,996,17077.75,27.49,-1.00,-1.0,2419
3162,1833162,17032,-576,940,17067.64,27.49,-1.00,-1.0,2372
3165,1833165,16948,-544,896,16980.38,27.59,-1.00,-1.0,2369
3169,1833169,16972,-532,940,17006.33,27.45,-1.00,-1.0,2447
3172,1833172,16984,-556,852,17014.44,27.45,-1.00,-1.0,2375
3175,1833175,16976,-636,864,17009.87,27.49,-1.00,-1.0,2440
3177,1833177,16972,-632,816,17003.36,27.45,-1.00,-1.0,2377
3180,1833180,16976,-428,1056,17014.20,27.49,-1.00,-1.0,2419
3183,1833183,17072,-664,860,17106.54,27.40,-1.00,-1.0,2374
3186,1833186,17064,-576,996,17102.74,27.49,-1.00,-1.0,2420
3189,1833189,17044,-588,1068,17087.55,27.49,-1.00,-1.0,2366
3194,1833194,17124,-624,1080,17169.37,27.40,-1.00,-1.0,2435
3196,1833196,17000,-608,908,17035.09,27.49,-1.00,-1.0,2368
3199,1833199,17088,-488,972,17122.58,27.40,-1.00,-1.0,2426
3202,1833202,17016,-524,1020,17054.60,27.49,-1.00,-1.0,2370
3204,1833204,16960,-576,848,16990.95,27.45,-1.00,-1.0,2369
3207,1833207,16940,-532,1044,16980.48,27.45,-1.00,-1.0,2419
3210,1833210,17036,-600,884,17069.47,27.45,-1.00,-1.0,2377
3213,1833213,16932,-656,904,16968.80,27.45,-1.00,-1.0,2419
3216,1833216,16976,-584,856,17007.60,27.35,-1.00,-1.0,2369
3221,1833221,16976,-548,764,17002.02,27.45,-1.00,-1.0,2432
3223,1833223,17104,-504,992,17140.15,27.40,-1.00,-1.0,2365
3226,1833226,16984,-628,872,17017.96,27.45,-1.00,-1.0,2427
3229,1833229,17068,-520,880,17098.58,27.49,-1.00,-1.0,2369
3232,1833232,16920,-528,888,16951.51,27.45,-1.00,-1.0,2419
3234,1833234,16996,-512,988,17032.39,27.49,-1.00,-1.0,2369
3237,1833237,17004,-532,1036,17043.84,27.45,-1.00,-1.0,2419
3240,1833240,17012,-564,872,17043.67,27.40,-1.00,-1.0,2369
3245,1833245,17100,-584,1032,17141.06,27.49,-1.00,-1.0,2439
3247,1833247,16956,-708,948,16997.23,27.49,-1.00,-1.0,2374
3250,1833250,17036,-528,908,17068.35,27.45,-1.00,-1.0,2365
3253,1833253,17056,-584,944,17092.08,27.45,-1.00,-1.0,2429
3256,1833256,16992,-580,1120,17038.75,27.35,-1.00,-1.0,2368
3258,1833258,17076,-564,908,17109.42,27.45,-1.00,-1.0,2420
3261,1833261,17048,-456,980,17082.23,27.54,-1.00,-1.0,2370
3264,1833264,17068,-568,984,17105.77,27.49,-1.00,-1.0,2430
3267,1833267,17000,-652,952,17039.11,27.35,-1.00,-1.0,2368
3272,1833272,17060,-600,868,17092.60,27.45,-1.00,-1.0,2433
3274,1833274,17000,-480,852,17028.10,27.54,-1.00,-1.0,2366
3277,1833277,17004,-520,972,17039.70,27.49,-1.00,-1.0,2427
3280,1833280,16984,-612,916,17019.69,27.45,-1.00,-1.0,2373
3283,1833283,16964,-588,1000,17003.62,27.49,-1.00,-1.0,2419
3285,1833285,17068,-480,1100,17110.14,27.45,-1.00,-1.0,2372
3288,1833288,16968,-672,808,17000.51,27.59,-1.00,-1.0,2354
3291,1833291,17028,-504,980,17063.62,27.45,-1.00,-1.0,2428
3294,1833294,17000,-664,920,17037.82,27.49,-1.00,-1.0,2368
3299,1833299,17056,-532,956,17091.05,27.40,-1.00,-1.0,2434
3301,1833301,16924,-472,964,16958.00,27.45,-1.00,-1.0,2363
3304,1833304,16988,-608,1040,17030.66,27.49,-1.00,-1.0,2427
3307,1833307,16960,-664,1020,17003.61,27.40,-1.00,-1.0,2376
3310,1833310,16980,-528,932,17013.75,27.40,-1.00,-1.0,2419
3312,1833312,17076,-576,968,17113.11,27.54,-1.00,-1.0,2370
3315,1833315,16972,-592,852,17003.68,27.49,-1.00,-1.0,2419
3318,1833318,17132,-516,740,17155.74,27.49,-1.00,-1.0,2377
3323,1833323,16984,-620,980,17023.54,27.45,-1.00,-1.0,2439
3326,1833326,17028,-620,884,17062.20,27.35,-1.00,-1.0,2366
3328,1833328,16980,-540,948,17015.01,27.49,-1.00,-1.0,2369
3331,1833331,17128,-504,864,17157.18,27.35,-1.00,-1.0,2430
3334,1833334,17036,-644,828,17068.26,27.40,-1.00,-1.0,2369
3336,1833336,17036,-500,1012,17073.36,27.45,-1.00,-1.0,2426
3339,1833339,17020,-616,892,17054.49,27.49,-1.00,-1.0,2377
3342,1833342,17012,-588,976,17050.12,27.45,-1.00,-1.0,2423
3345,1833345,17020,-580,980,17058.05,27.45,-1.00,-1.0,2372
3350,1833350,17124,-544,928,17157.75,27.45,-1.00,-1.0,2442
3353,1833353,17028,-624,852,17060.72,27.54,-1.00,-1.0,2371
3356,1833356,17008,-556,1072,17050.82,27.40,-1.00,-1.0,2436
3359,1833359,17028,-532,976,17064.24,27.45,-1.00,-1.0,2366
3361,1833361,17048,-556,1004,17086.59,27.40,-1.00,-1.0,2419
3364,1833364,17008,-500,968,17042.86,27.45,-1.00,-1.0,2370
3367,1833367,16952,-592,880,16985.15,27.40,-1.00,-1.0,2365
3369,1833369,17000,-544,944,17034.88,27.45,-1.00,-1.0,2431
3372,1833372,17060,-632,1040,17103.35,27.40,-1.00,-1.0,2378
3377,1833377,17100,-536,884,17131.22,27.59,-1.00,-1.0,2441
3380,1833380,17056,-632,916,17092.27,27.49,-1.00,-1.0,2365
3382,1833382,17096,-584,1000,17135.18,27.40,-1.00,-1.0,2430
3385,1833385,17028,-652,840,17061.17,27.40,-1.00,-1.0,2371
3388,1833388,17064,-588,1068,17107.50,27.45,-1.00,-1.0,2428
3391,1833391,17024,-568,972,17061.18,27.40,-1.00,-1.0,2359
3393,1833393,17012,-564,964,17048.62,27.35,-1.00,-1.0,2421
3396,1833396,17008,-564,912,17041.77,27.49,-1.00,-1.0,2370
3401,1833401,17036,-568,1016,17075.72,27.49,-1.00,-1.0,2432
3404,1833404,17060,-528,1028,17099.10,27.49,-1.00,-1.0,2367
3407,1833407,17016,-584,984,17054.43,27.49,-1.00,-1.0,2427
3409,1833409,17044,-544,852,17073.95,27.40,-1.00,-1.0,2369
3412,1833412,17000,-512,896,17031.29,27.45,-1.00,-1.0,2373
3415,1833415,16916,-556,916,16949.90,27.45,-1.00,-1.0,2432
3417,1833417,17036,-536,852,17065.71,27.35,-1.00,-1.0,2373
3420,1833420,16948,-504,1008,16985.43,27.45,-1.00,-1.0,2428
3423,1833423,16976,-652,868,17010.68,27.45,-1.00,-1.0,2378
3428,1833428,17068,-568,868,17099.49,27.45,-1.00,-1.0,2438
3431,1833431,17108,-488,992,17143.68,27.45,-1.00,-1.0,2366
3433,1833433,16944,-592,1012,16984.52,27.45,-1.00,-1.0,2438
3436,1833436,16960,-592,916,16995.03,27.45,-1.00,-1.0,2375
3439,1833439,17020,-528,948,17054.56,27.35,-1.00,-1.0,2407
3442,1833442,17052,-636,956,17090.62,27.45,-1.00,-1.0,2370
3444,1833444,17068,-532,1016,17106.49,27.45,-1.00,-1.0,2429
3447,1833447,17064,-572,888,17096.66,27.45,-1.00,-1.0,2377
3450,1833450,16912,-420,924,16942.43,27.49,-1.00,-1.0,2366
3455,1833455,16924,-564,960,16960.59,27.49,-1.00,-1.0,2432
3457,1833457,17080,-572,824,17109.43,27.49,-1.00,-1.0,2368
3460,1833460,17008,-540,1016,17046.88,27.40,-1.00,-1.0,2426
3463,1833463,17052,-644,960,17091.14,27.54,-1.00,-1.0,2415
3466,1833466,17052,-520,1016,17090.15,27.40,-1.00,-1.0,2427
3469,1833469,17020,-624,792,17049.84,27.49,-1.00,-1.0,2377
3472,1833472,17072,-584,868,17104.03,27.49,-1.00,-1.0,2414
3474,1833474,17016,-612,752,17043.60,27.35,-1.00,-1.0,2362
3479,1833479,17040,-540,956,17075.34,27.45,-1.00,-1.0,2448
3482,1833482,17024,-612,892,17058.33,27.54,-1.00,-1.0,2374
3485,1833485,17008,-548,940,17042.77,27.40,-1.00,-1.0,2438
3487,1833487,17052,-552,976,17088.83,27.49,-1.00,-1.0,2376
3490,1833490,17052,-572,992,17090.40,27.45,-1.00,-1.0,2365
3493,1833493,16920,-592,992,16959.39,27.45,-1.00,-1.0,2423
3496,1833496,17020,-452,976,17053.95,27.45,-1.00,-1.0,2368
3498,1833498,16984,-616,1036,17026.71,27.45,-1.00,-1.0,2422
3501,1833501,16984,-504,908,17015.72,27.45,-1.00,-1.0,2370
3506,1833506,17076,-580,1008,17115.55,27.35,-1.00,-1.0,2418
3509,1833509,16984,-488,1016,17021.36,27.40,-1.00,-1.0,2367
3512,1833512,17008,-612,896,17042.58,27.45,-1.00,-1.0,2427
3514,1833514,17056,-536,948,17090.73,27.49,-1.00,-1.0,2369
3517,1833517,16952,-544,912,16985.23,27.45,-1.00,-1.0,2419
3520,1833520,17084,-584,1008,17123.67,27.49,-1.00,-1.0,2370
3523,1833523,17004,-556,1140,17051.24,27.45,-1.00,-1.0,2419
3525,1833525,17028,-568,992,17066.33,27.45,-1.00,-1.0,2369
3528,1833528,17144,-628,1012,17185.32,27.45,-1.00,-1.0,2376
3533,1833533,17088,-576,824,17117.55,27.45,-1.00,-1.0,2434
3536,1833536,16916,-556,844,16946.17,27.45,-1.00,-1.0,2366
3538,1833538,17024,-468,960,17057.47,27.49,-1.00,-1.0,2432
3541,1833541,17052,-712,760,17083.77,27.45,-1.00,-1.0,2370
3544,1833544,17000,-468,912,17030.88,27.40,-1.00,-1.0,2426
3547,1833547,17028,-556,620,17048.35,27.35,-1.00,-1.0,2370
3549,1833549,16976,-576,944,17011.98,27.49,-1.00,-1.0,2436
3552,1833552,17008,-496,984,17043.66,27.45,-1.00,-1.0,2369
3557,1833557,17036,-592,984,17074.66,27.45,-1.00,-1.0,2430
3560,1833560,16992,-604,900,17026.54,27.45,-1.00,-1.0,2375
3563,1833563,16952,-536,1032,16991.84,27.49,-1.00,-1.0,2427
3565,1833565,17060,-484,944,17092.95,27.49,-1.00,-1.0,2371
3568,1833568,17020,-568,1020,17059.99,27.49,-1.00,-1.0,2369
3571,1833571,16960,-636,928,16997.27,27.45,-1.00,-1.0,2421
3573,1833573,16968,-568,940,17003.51,27.45,-1.00,-1.0,2368
3576,1833576,17028,-504,936,17061.15,27.45,-1.00,-1.0,2419
3579,1833579,16976,-656,848,17009.82,27.35,-1.00,-1.0,2373
3584,1833584,17076,-712,760,17107.73,27.49,-1.00,-1.0,2431
3586,1833586,17012,-540,1000,17049.92,27.49,-1.00,-1.0,2369
3589,1833589,16936,-560,1036,16976.90,27.49,-1.00,-1.0,2443
3592,1833592,16932,-456,976,16966.23,27.59,-1.00,-1.0,2381
3595,1833595,17072,-508,972,17107.19,27.35,-1.00,-1.0,2432
3597,1833597,17000,-472,892,17029.93,27.49,-1.00,-1.0,2377
3600,1833600,17044,-588,904,17078.08,27.45,-1.00,-1.0,2419
3603,1833603,16960,-680,1024,17004.49,27.45,-1.00,-1.0,2371
3608,1833608,17088,-472,780,17112.30,27.49,-1.00,-1.0,2438
3611,1833611,17060,-560,980,17097.30,27.40,-1.00,-1.0,2367
3613,1833613,17068,-536,1088,17111.04,27.45,-1.00,-1.0,2369
3616,1833616,17064,-476,940,17096.50,27.45,-1.00,-1.0,2431
3619,1833619,17020,-656,948,17059.00,27.45,-1.00,-1.0,2374
3622,1833622,16988,-608,1000,17028.27,27.49,-1.00,-1.0,2406
3624,1833624,17008,-520,952,17042.56,27.45,-1.00,-1.0,2369
3627,1833627,17040,-468,980,17074.57,27.45,-1.00,-1.0,2421
3630,1833630,17032,-572,916,17066.20,27.45,-1.00,-1.0,2371
3635,1833635,16996,-608,864,17028.80,27.45,-1.00,-1.0,2439
3638,1833638,17016,-536,788,17042.67,27.40,-1.00,-1.0,2374
3640,1833640,17008,-628,852,17040.90,27.45,-1.00,-1.0,2435
3643,1833643,17088,-496,944,17121.24,27.45,-1.00,-1.0,2377
3646,1833646,17088,-584,948,17124.24,27.45,-1.00,-1.0,2422
3649,1833649,17124,-644,852,17157.27,27.54,-1.00,-1.0,2372
3651,1833651,16956,-648,988,16997.12,27.40,-1.00,-1.0,2366
3654,1833654,17048,-548,880,17079.49,27.49,-1.00,-1.0,2419
3657,1833657,17016,-616,968,17054.64,27.45,-1.00,-1.0,2369
3662,1833662,17028,-588,972,17065.85,27.45,-1.00,-1.0,2434
3665,1833665,16960,-520,824,16987.96,27.45,-1.00,-1.0,2374
3667,1833667,17048,-576,928,17082.95,27.35,-1.00,-1.0,2415
3670,1833670,17072,-640,948,17110.27,27.45,-1.00,-1.0,2377
3673,1833673,17028,-484,1048,17067.08,27.54,-1.00,-1.0,2420
3676,1833676,17040,-620,1072,17084.94,27.45,-1.00,-1.0,2371
3679,1833679,17028,-672,1020,17071.75,27.49,-1.00,-1.0,2418
3681,1833681,17112,-596,1028,17153.21,27.45,-1.00,-1.0,2371
3686,1833686,17080,-568,988,17117.98,27.45,-1.00,-1.0,2446
3689,1833689,16976,-616,996,17016.35,27.45,-1.00,-1.0,2375
3691,1833691,17084,-456,992,17118.85,27.49,-1.00,-1.0,2365
3694,1833694,17012,-664,1056,17057.67,27.49,-1.00,-1.0,2427
3697,1833697,17060,-556,948,17095.36,27.45,-1.00,-1.0,2368
3700,1833700,16964,-584,940,17000.06,27.40,-1.00,-1.0,2425
3703,1833703,17064,-580,964,17101.05,27.40,-1.00,-1.0,2368
3705,1833705,17008,-560,932,17042.72,27.49,-1.00,-1.0,2419
3708,1833708,17024,-588,1048,17066.36,27.49,-1.00,-1.0,2369
3713,1833713,17044,-544,876,17075.16,27.35,-1.00,-1.0,2431
3716,1833716,16972,-600,984,17011.09,27.49,-1.00,-1.0,2370
3719,1833719,17000,-512,908,17031.93,27.49,-1.00,-1.0,2427
3721,1833721,16944,-504,808,16970.74,27.49,-1.00,-1.0,2369
3724,1833724,17016,-500,1068,17056.81,27.59,-1.00,-1.0,2419
3727,1833727,17060,-560,868,17091.24,27.49,-1.00,-1.0,2369
3729,1833729,17056,-644,964,17095.36,27.45,-1.00,-1.0,2369
3732,1833732,16984,-604,928,17020.05,27.35,-1.00,-1.0,2434
3735,1833735,17076,-648,1036,17119.67,27.49,-1.00,-1.0,2369
3740,1833740,17068,-596,972,17106.04,27.49,-1.00,-1.0,2418
3743,1833743,17116,-600,956,17153.17,27.40,-1.00,-1.0,2368
3746,1833746,16976,-608,1008,17016.77,27.40,-1.00,-1.0,2421
3748,1833748,17056,-616,976,17095.00,27.49,-1.00,-1.0,2369
3751,1833751,17128,-668,896,17164.42,27.35,-1.00,-1.0,2425
3754,1833754,17080,-504,1056,17120.03,27.49,-1.00,-1.0,2369
3757,1833757,16892,-656,944,16931.07,27.45,-1.00,-1.0,2419
3759,1833759,17036,-624,972,17075.11,27.40,-1.00,-1.0,2369
3764,1833764,16984,-604,908,17018.98,27.35,-1.00,-1.0,2432
3767,1833767,17016,-656,840,17049.35,27.49,-1.00,-1.0,2368
3769,1833769,17108,-520,956,17142.58,27.45,-1.00,-1.0,2368
3772,1833772,16992,-628,900,17027.40,27.40,-1.00,-1.0,2438
3775,1833775,17044,-524,888,17075.16,27.45,-1.00,-1.0,2372
3778,1833778,17048,-616,1024,17089.83,27.40,-1.00,-1.0,2421
3780,1833780,17088,-584,928,17123.14,27.31,-1.00,-1.0,2376
3783,1833783,17032,-616,752,17059.72,27.40,-1.00,-1.0,2419
3786,1833786,17048,-528,884,17079.07,27.45,-1.00,-1.0,2377
3791,1833791,16908,-592,980,16946.72,27.45,-1.00,-1.0,2431
3794,1833794,17060,-660,944,17098.84,27.40,-1.00,-1.0,2367
3796,1833796,17012,-504,856,17040.98,27.45,-1.00,-1.0,2427
3799,1833799,16904,-584,796,16932.80,27.45,-1.00,-1.0,2369
3802,1833802,17020,-496,928,17052.50,27.45,-1.00,-1.0,2426
3805,1833805,17016,-576,972,17053.47,27.45,-1.00,-1.0,2372
3807,1833807,17096,-508,1020,17133.93,27.40,-1.00,-1.0,2373
3810,1833810,16956,-536,948,16990.94,27.49,-1.00,-1.0,2428
3813,1833813,16976,-628,1032,17018.93,27.49,-1.00,-1.0,2376
3818,1833818,16996,-596,960,17033.52,27.49,-1.00,-1.0,2431
3821,1833821,16996,-484,880,17025.65,27.54,-1.00,-1.0,2376
3824,1833824,17144,-580,944,17179.76,27.49,-1.00,-1.0,2442
3826,1833826,16912,-532,912,16944.93,27.49,-1.00,-1.0,2372
3829,1833829,17028,-572,972,17065.31,27.49,-1.00,-1.0,2430
3832,1833832,17084,-484,856,17112.28,27.45,-1.00,-1.0,2377
3835,1833835,17080,-572,1008,17119.28,27.49,-1.00,-1.0,2433
3837,1833837,17132,-500,1148,17177.70,27.49,-1.00,-1.0,2378
3842,1833842,17092,-584,1028,17132.84,27.49,-1.00,-1.0,2439
3845,1833845,16988,-504,904,17019.50,27.49,-1.00,-1.0,2371
3848,1833848,17112,-600,1092,17157.30,27.49,-1.00,-1.0,2410
3851,1833851,17036,-532,912,17068.69,27.49,-1.00,-1.0,2364
3853,1833853,17060,-596,968,17097.83,27.45,-1.00,-1.0,2365
3856,1833856,17044,-416,1028,17080.04,27.45,-1.00,-1.0,2426
3859,1833859,17076,-508,928,17108.74,27.54,-1.00,-1.0,2370
3862,1833862,17076,-464,824,17102.16,27.45,-1.00,-1.0,2419
3864,1833864,16960,-596,928,16995.82,27.45,-1.00,-1.0,2369
3869,1833869,17016,-532,944,17050.47,27.54,-1.00,-1.0,2437
3872,1833872,17128,-572,892,17160.75,27.49,-1.00,-1.0,2370
3875,1833875,17012,-520,1092,17054.94,27.35,-1.00,-1.0,2428
3877,1833877,17040,-548,936,17074.48,27.45,-1.00,-1.0,2373
3880,1833880,17132,-500,1104,17174.81,27.45,-1.00,-1.0,2419
3883,1833883,17068,-600,904,17102.45,27.35,-1.00,-1.0,2370
3886,1833886,16964,-664,980,17005.25,27.45,-1.00,-1.0,2421
3888,1833888,16972,-564,860,17003.13,27.45,-1.00,-1.0,2368
3891,1833891,17004,-660,952,17043.41,27.54,-1.00,-1.0,2367
3896,1833896,17116,-564,964,17152.40,27.45,-1.00,-1.0,2439
3899,1833899,17008,-580,856,17039.40,27.49,-1.00,-1.0,2355
3902,1833902,17020,-596,900,17054.20,27.45,-1.00,-1.0,2435
3904,1833904,17008,-608,852,17040.18,27.35,-1.00,-1.0,2380
3907,1833907,17024,-536,1036,17063.91,27.54,-1.00,-1.0,2419
3910,1833910,17032,-616,1040,17074.84,27.45,-1.00,-1.0,2372
3913,1833913,17032,-612,992,17071.84,27.45,-1.00,-1.0,2423
3915,1833915,17052,-576,948,17088.04,27.54,-1.00,-1.0,2369
3920,1833920,17100,-580,1008,17139.50,27.54,-1.00,-1.0,2439
3923,1833923,17016,-632,920,17052.57,27.45,-1.00,-1.0,2373
3926,1833926,16984,-612,908,17019.26,27.45,-1.00,-1.0,2430
3929,1833929,17052,-500,884,17082.22,27.45,-1.00,-1.0,2372
3931,1833931,17028,-556,1020,17067.58,27.49,-1.00,-1.0,2365
3934,1833934,17020,-568,792,17047.88,27.40,-1.00,-1.0,2419
3937,1833937,17036,-556,868,17067.16,27.35,-1.00,-1.0,2369
3940,1833940,17064,-532,920,17097.06,27.40,-1.00,-1.0,2419
3942,1833942,17000,-648,948,17038.74,27.49,-1.00,-1.0,2369
3947,1833947,16988,-628,1128,17036.99,27.49,-1.00,-1.0,2431
3950,1833950,17084,-532,976,17120.12,27.40,-1.00,-1.0,2367
3953,1833953,17104,-592,948,17140.48,27.45,-1.00,-1.0,2467
3956,1833956,16992,-632,1020,17034.31,27.54,-1.00,-1.0,2372
3959,1833959,16988,-548,936,17022.59,27.40,-1.00,-1.0,2422
3961,1833961,16952,-580,932,16987.51,27.45,-1.00,-1.0,2370
3964,1833964,17008,-612,916,17043.64,27.49,-1.00,-1.0,2424
3967,1833967,17032,-572,780,17059.44,27.45,-1.00,-1.0,2368
3972,1833972,17008,-628,900,17043.37,27.45,-1.00,-1.0,2435
3974,1833974,16956,-576,1044,16997.87,27.45,-1.00,-1.0,2375
3977,1833977,17000,-616,968,17038.68,27.40,-1.00,-1.0,2365
3980,1833980,17096,-548,968,17132.15,27.45,-1.00,-1.0,2432
3983,1833983,17052,-616,928,17088.34,27.49,-1.00,-1.0,2367
3985,1833985,17048,-644,824,17080.05,27.54,-1.00,-1.0,2424
3988,1833988,16992,-596,948,17028.86,27.40,-1.00,-1.0,2366
3991,1833991,17052,-508,924,17084.57,27.45,-1.00,-1.0,2423
3994,1833994,17076,-516,852,17105.03,27.49,-1.00,-1.0,2365
3998,1833998,16968,-604,1012,17008.88,27.45,-1.00,-1.0,2426
4001,1834001,17044,-540,1048,17084.72,27.45,-1.00,-1.0,2369
4004,1834004,17100,-604,936,17136.25,27.45,-1.00,-1.0,2432
4006,1834006,17052,-600,992,17091.37,27.54,-1.00,-1.0,2381
4009,1834009,17032,-532,912,17064.69,27.49,-1.00,-1.0,2416
4012,1834012,17140,-520,888,17170.86,27.45,-1.00,-1.0,2358
4015,1834015,17096,-600,924,17131.46,27.49,-1.00,-1.0,2364
4017,1834017,16960,-564,964,16996.73,27.45,-1.00,-1.0,2428
4020,1834020,17044,-636,928,17081.09,27.45,-1.00,-1.0,2373
4025,1834025,16996,-548,992,17033.74,27.45,-1.00,-1.0,2431
4028,1834028,17016,-516,892,17047.18,27.40,-1.00,-1.0,2366
4031,1834031,16988,-552,1024,17027.78,27.54,-1.00,-1.0,2437
4034,1834034,17080,-612,1000,17120.19,27.49,-1.00,-1.0,2368
4036,1834036,17008,-608,892,17042.22,27.45,-1.00,-1.0,2421
4039,1834039,17000,-508,968,17035.11,27.40,-1.00,-1.0,2371
4042,1834042,16980,-536,892,17011.86,27.45,-1.00,-1.0,2423
4045,1834045,17052,-588,988,17090.72,27.49,-1.00,-1.0,2369
4050,1834050,17116,-540,940,17150.30,27.40,-1.00,-1.0,2432
4052,1834052,16976,-528,868,17006.38,27.40,-1.00,-1.0,2370
4055,1834055,17080,-556,1040,17120.66,27.49,-1.00,-1.0,2416
4058,1834058,17004,-552,784,17031.01,27.45,-1.00,-1.0,2432
4061,1834061,17004,-572,1012,17043.69,27.45,-1.00,-1.0,2365
4063,1834063,17072,-560,928,17106.37,27.45,-1.00,-1.0,2420
4066,1834066,17068,-452,888,17097.06,27.45,-1.00,-1.0,2367
4069,1834069,17080,-480,988,17115.28,27.45,-1.00,-1.0,2424
4072,1834072,17016,-584,936,17051.73,27.45,-1.00,-1.0,2365
4077,1834077,17008,-536,964,17043.73,27.40,-1.00,-1.0,2438
4079,1834079,16896,-620,956,16934.38,27.49,-1.00,-1.0,2365
4082,1834082,17004,-528,836,17032.72,27.45,-1.00,-1.0,2423
4085,1834085,17012,-608,916,17047.49,27.49,-1.00,-1.0,2369
4088,1834088,17116,-500,964,17150.42,27.45,-1.00,-1.0,2420
4090,1834090,17012,-568,1012,17051.54,27.49,-1.00,-1.0,2369
4093,1834093,16936,-536,920,16969.44,27.45,-1.00,-1.0,2369
4096,1834096,17020,-616,916,17055.76,27.45,-1.00,-1.0,2420
4098,1834098,17036,-696,824,17070.11,27.49,-1.00,-1.0,2380
4103,1834103,17060,-604,800,17089.42,27.49,-1.00,-1.0,2449
4106,1834106,17064,-540,844,17093.39,27.40,-1.00,-1.0,2373
4109,1834109,17024,-528,1048,17064.40,27.49,-1.00,-1.0,2425
4112,1834112,17124,-568,896,17156.83,27.45,-1.00,-1.0,2377
4114,1834114,16996,-624,1052,17039.96,27.40,-1.00,-1.0,2421
4117,1834117,17044,-596,928,17079.65,27.40,-1.00,-1.0,2385
4120,1834120,17128,-560,968,17164.47,27.45,-1.00,-1.0,2422
4123,1834123,17100,-636,900,17135.47,27.49,-1.00,-1.0,2371
4128,1834128,16976,-532,968,17011.90,27.49,-1.00,-1.0,2442
4130,1834130,17048,-588,1052,17090.54,27.40,-1.00,-1.0,2373
4133,1834133,17072,-584,912,17106.31,27.45,-1.00,-1.0,2365
4136,1834136,17076,-568,1048,17117.55,27.45,-1.00,-1.0,2431
4139,1834139,17032,-592,960,17069.30,27.45,-1.00,-1.0,2365
4141,1834141,17076,-592,856,17107.69,27.45,-1.00,-1.0,2420
4144,1834144,17028,-648,880,17063.03,27.54,-1.00,-1.0,2356
4147,1834147,17020,-616,1044,17063.11,27.45,-1.00,-1.0,2427
4150,1834150,17132,-600,880,17165.08,27.45,-1.00,-1.0,2368
4155,1834155,17032,-496,1020,17069.72,27.45,-1.00,-1.0,2440
4157,1834157,17004,-564,964,17040.64,27.40,-1.00,-1.0,2368
4160,1834160,16940,-536,916,16973.21,27.45,-1.00,-1.0,2422
4163,1834163,16992,-636,1012,17033.99,27.45,-1.00,-1.0,2371
4166,1834166,16992,-608,1036,17034.41,27.45,-1.00,-1.0,2419
4168,1834168,17096,-672,1016,17139.34,27.45,-1.00,-1.0,2372
4171,1834171,16956,-520,1084,16998.57,27.45,-1.00,-1.0,2419
4174,1834174,16980,-628,940,17017.59,27.54,-1.00,-1.0,2370
4177,1834177,17052,-636,852,17085.11,27.45,-1.00,-1.0,2366
4182,1834182,17124,-488,1008,17160.58,27.49,-1.00,-1.0,2437
4185,1834185,17080,-584,872,17112.21,27.54,-1.00,-1.0,2367
4188,1834188,17016,-520,1020,17054.47,27.40,-1.00,-1.0,2421
4190,1834190,16852,-600,856,16884.39,27.49,-1.00,-1.0,2369
4193,1834193,16980,-520,772,17005.49,27.49,-1.00,-1.0,2419
4196,1834196,16944,-484,1012,16981.09,27.40,-1.00,-1.0,2370
4199,1834199,17060,-576,912,17094.07,27.49,-1.00,-1.0,2419
4201,1834201,17076,-528,976,17112.02,27.40,-1.00,-1.0,2369
4206,1834206,17044,-544,1080,17086.85,27.45,-1.00,-1.0,2437
4209,1834209,17048,-596,920,17083.21,27.45,-1.00,-1.0,2367
4212,1834212,17012,-448,1024,17048.68,27.35,-1.00,-1.0,2422
4214,1834214,17076,-536,860,17106.04,27.45,-1.00,-1.0,2369
4217,1834217,17044,-584,1088,17088.67,27.49,-1.00,-1.0,2373
4220,1834220,17028,-528,968,17063.66,27.45,-1.00,-1.0,2422
4222,1834222,17000,-628,952,17038.21,27.40,-1.00,-1.0,2372
4225,1834225,16964,-596,904,16998.52,27.45,-1.00,-1.0,2434
4228,1834228,16992,-480,968,17026.32,27.31,-1.00,-1.0,2379
4233,1834233,16984,-532,904,17016.36,27.40,-1.00,-1.0,2439
4236,1834236,17036,-592,1004,17075.82,27.49,-1.00,-1.0,2366
4238,1834238,17068,-520,816,17095.40,27.59,-1.00,-1.0,2423
4241,1834241,16964,-672,936,17003.09,27.40,-1.00,-1.0,2370
4244,1834244,16984,-516,960,17018.93,27.45,-1.00,-1.0,2427
4247,1834247,17020,-636,1020,17062.39,27.40,-1.00,-1.0,2370
4249,1834249,17084,-560,968,17120.56,27.45,-1.00,-1.0,2427
4252,1834252,17112,-572,900,17145.20,27.40,-1.00,-1.0,2369
4255,1834255,17052,-476,996,17087.69,27.45,-1.00,-1.0,2373
4260,1834260,17008,-564,984,17045.77,27.45,-1.00,-1.0,2445
4262,1834262,17056,-596,808,17085.53,27.45,-1.00,-1.0,2375
4265,1834265,17048,-568,976,17085.36,27.49,-1.00,-1.0,2422
4268,1834268,17096,-604,940,17132.47,27.45,-1.00,-1.0,2372
4271,1834271,16988,-664,964,17028.28,27.40,-1.00,-1.0,2420
4273,1834273,16940,-568,904,16973.61,27.35,-1.00,-1.0,2373
4276,1834276,17004,-588,888,17037.32,27.49,-1.00,-1.0,2419
4279,1834279,16996,-556,956,17031.94,27.35,-1.00,-1.0,2369
4284,1834284,17036,-420,880,17063.88,27.45,-1.00,-1.0,2440
4287,1834287,17120,-584,896,17153.38,27.45,-1.00,-1.0,2372
4290,1834290,17084,-640,940,17121.81,27.49,-1.00,-1.0,2444
4292,1834292,17016,-632,940,17053.66,27.40,-1.00,-1.0,2367
4295,1834295,17048,-540,860,17078.22,27.35,-1.00,-1.0,2370
4298,1834298,16948,-560,872,16979.65,27.49,-1.00,-1.0,2424
4300,1834300,17084,-508,864,17113.38,27.35,-1.00,-1.0,2373
4303,1834303,17032,-552,860,17062.63,27.45,-1.00,-1.0,2458
4306,1834306,17052,-476,884,17081.53,27.45,-1.00,-1.0,2368
4311,1834311,16964,-592,884,16997.33,27.45,-1.00,-1.0,2438
4314,1834314,17076,-592,988,17114.80,27.45,-1.00,-1.0,2375
4317,1834317,17064,-480,916,17095.31,27.54,-1.00,-1.0,2424
4319,1834319,16976,-608,876,17009.46,27.45,-1.00,-1.0,2373
4322,1834322,17060,-616,956,17097.87,27.45,-1.00,-1.0,2436
4325,1834325,17156,-500,1068,17196.48,27.45,-1.00,-1.0,2373
4328,1834328,16996,-668,844,17030.05,27.45,-1.00,-1.0,2427
4330,1834330,17040,-612,888,17074.09,27.45,-1.00,-1.0,2371
4333,1834333,17012,-648,1016,17054.63,27.40,-1.00,-1.0,2369
4338,1834338,17052,-636,1004,17093.37,27.40,-1.00,-1.0,2441
4341,1834341,17108,-456,1056,17146.62,27.49,-1.00,-1.0,2377
4344,1834344,17020,-600,868,17052.68,27.45,-1.00,-1.0,2458
4346,1834346,16956,-520,992,16992.95,27.45,-1.00,-1.0,2369
4349,1834349,17000,-644,992,17041.09,27.49,-1.00,-1.0,2436
4352,1834352,17064,-488,956,17097.72,27.45,-1.00,-1.0,2374
4355,1834355,17008,-524,892,17039.43,27.49,-1.00,-1.0,2437
4357,1834357,17076,-592,1048,17118.37,27.35,-1.00,-1.0,2372
4362,1834362,16932,-628,948,16970.14,27.45,-1.00,-1.0,2432
4365,1834365,17012,-568,856,17042.99,27.45,-1.00,-1.0,2366
4368,1834368,17036,-576,836,17066.22,27.40,-1.00,-1.0,2434
4371,1834371,17080,-448,896,17109.35,27.45,-1.00,-1.0,2368
4373,1834373,16976,-628,860,17009.37,27.54,-1.00,-1.0,2438
4376,1834376,16988,-516,968,17023.38,27.45,-1.00,-1.0,2377
4379,1834379,17036,-580,936,17071.55,27.49,-1.00,-1.0,2365
4382,1834382,17028,-592,976,17066.22,27.54,-1.00,-1.0,2420
4384,1834384,16980,-600,956,17017.47,27.40,-1.00,-1.0,2369
4389,1834389,17020,-568,968,17056.96,27.45,-1.00,-1.0,2432
4392,1834392,17004,-520,928,17037.24,27.45,-1.00,-1.0,2367
4395,1834395,17024,-584,876,17056.52,27.45,-1.00,-1.0,2427
4397,1834397,17032,-524,872,17062.36,27.45,-1.00,-1.0,2369
4400,1834400,17112,-604,764,17139.69,27.45,-1.00,-1.0,2420
4403,1834403,16964,-540,936,16998.38,27.45,-1.00,-1.0,2370
4406,1834406,17068,-556,928,17102.25,27.45,-1.00,-1.0,2422
4408,1834408,16988,-580,928,17023.21,27.45,-1.00,-1.0,2356
4413,1834413,16988,-592,1036,17029.85,27.49,-1.00,-1.0,2431
4416,1834416,17004,-600,920,17039.44,27.35,-1.00,-1.0,2375
4418,1834418,16928,-648,948,16966.90,27.40,-1.00,-1.0,2372
4421,1834421,17064,-552,824,17092.80,27.35,-1.00,-1.0,2427
4424,1834424,17044,-580,916,17078.45,27.35,-1.00,-1.0,2374
4427,1834427,16956,-544,812,16984.15,27.45,-1.00,-1.0,2422
4430,1834430,17112,-584,900,17145.60,27.45,-1.00,-1.0,2368
4432,1834432,17048,-552,988,17085.53,27.45,-1.00,-1.0,2419
4435,1834435,16912,-616,832,16943.65,27.45,-1.00,-1.0,2370
4440,1834440,17148,-536,948,17182.55,27.35,-1.00,-1.0,2434
4443,1834443,17004,-620,1000,17044.66,27.40,-1.00,-1.0,2370
4446,1834446,17052,-644,992,17092.97,27.45,-1.00,-1.0,2430
4448,1834448,17080,-664,876,17115.33,27.40,-1.00,-1.0,2377
4451,1834451,17156,-484,928,17187.90,27.45,-1.00,-1.0,2420
4454,1834454,16976,-584,1068,17019.58,27.35,-1.00,-1.0,2376
4456,1834456,16984,-596,844,17015.40,27.45,-1.00,-1.0,2366
4459,1834459,17032,-564,1016,17071.60,27.40,-1.00,-1.0,2419
4462,1834462,17044,-572,896,17077.12,27.49,-1.00,-1.0,2380
4467,1834467,17004,-648,912,17040.77,27.45,-1.00,-1.0,2438
4470,1834470,16992,-604,888,17025.90,27.45,-1.00,-1.0,2366
4472,1834472,17088,-616,932,17124.48,27.45,-1.00,-1.0,2427
4475,1834475,17044,-592,864,17076.15,27.45,-1.00,-1.0,2369
4478,1834478,17088,-632,940,17125.50,27.31,-1.00,-1.0,2428
4481,1834481,16976,-588,988,17014.89,27.54,-1.00,-1.0,2369
4483,1834483,16976,-540,1000,17014.00,27.45,-1.00,-1.0,2421
4486,1834486,17088,-608,908,17122.90,27.45,-1.00,-1.0,2370
4491,1834491,16988,-568,1020,17028.07,27.45,-1.00,-1.0,2433
4494,1834494,16944,-588,1000,16983.67,27.35,-1.00,-1.0,2369
4496,1834496,17084,-536,1080,17126.49,27.45,-1.00,-1.0,2365
4499,1834499,16892,-548,744,16917.25,27.40,-1.00,-1.0,2427
4502,1834502,17096,-596,944,17132.41,27.49,-1.00,-1.0,2377
4505,1834505,17072,-600,940,17108.38,27.49,-1.00,-1.0,2420
4507,1834507,16936,-492,784,16961.27,27.40,-1.00,-1.0,2372
4510,1834510,17004,-560,1024,17044.01,27.54,-1.00,-1.0,2435
4513,1834513,17088,-472,948,17120.78,27.49,-1.00,-1.0,2364
4518,1834518,16956,-472,796,16981.23,27.49,-1.00,-1.0,2439
4521,1834521,17060,-636,908,17095.98,27.40,-1.00,-1.0,2366
4523,1834523,16996,-600,956,17033.44,27.49,-1.00,-1.0,2428
4526,1834526,16984,-524,980,17020.32,27.40,-1.00,-1.0,2369
4529,1834529,17048,-564,808,17076.45,27.49,-1.00,-1.0,2426
4532,1834532,17024,-608,964,17062.11,27.40,-1.00,-1.0,2368
4534,1834534,17080,-532,820,17107.95,27.54,-1.00,-1.0,2373
4537,1834537,17056,-548,964,17092.01,27.45,-1.00,-1.0,2424
4540,1834540,17036,-560,1028,17076.17,27.45,-1.00,-1.0,2377
4545,1834545,17152,-556,920,17185.65,27.49,-1.00,-1.0,2438
4548,1834548,17012,-620,1016,17053.59,27.49,-1.00,-1.0,2365
4550,1834550,16928,-644,972,16968.11,27.45,-1.00,-1.0,2428
4553,1834553,16976,-660,960,17015.93,27.49,-1.00,-1.0,2369
4556,1834556,17012,-552,1144,17059.36,27.45,-1.00,-1.0,2428
4559,1834559,17000,-564,816,17028.92,27.49,-1.00,-1.0,2369
4561,1834561,17040,-608,912,17075.22,27.45,-1.00,-1.0,2425
4564,1834564,17088,-504,968,17122.81,27.40,-1.00,-1.0,2369
4569,1834569,17080,-580,1084,17124.19,27.49,-1.00,-1.0,2431
4572,1834572,16944,-556,960,16980.28,27.40,-1.00,-1.0,2366
4574,1834574,17092,-604,948,17128.92,27.54,-1.00,-1.0,2365
4577,1834577,17020,-564,932,17054.83,27.45,-1.00,-1.0,2442
4580,1834580,16956,-596,892,16989.90,27.45,-1.00,-1.0,2377
4583,1834583,17012,-456,948,17044.49,27.45,-1.00,-1.0,2437
4585,1834585,17072,-528,964,17107.35,27.45,-1.00,-1.0,2377
4588,1834588,16948,-520,980,16984.27,27.45,-1.00,-1.0,2420
4591,1834591,17112,-608,828,17142.81,27.45,-1.00,-1.0,2357
4596,1834596,17080,-580,936,17115.46,27.49,-1.00,-1.0,2436
4598,1834598,16884,-552,1072,16927.00,27.54,-1.00,-1.0,2374
4601,1834601,16988,-556,900,17020.91,27.40,-1.00,-1.0,2426
4604,1834604,17036,-544,1032,17075.90,27.49,-1.00,-1.0,2373
4607,1834607,17124,-592,928,17159.34,27.40,-1.00,-1.0,2421
4609,1834609,17000,-596,948,17036.84,27.40,-1.00,-1.0,2368
4612,1834612,17004,-580,1036,17045.40,27.49,-1.00,-1.0,2419
4615,1834615,16932,-608,860,16964.72,27.49,-1.00,-1.0,2373
4618,1834618,17012,-516,968,17047.33,27.40,-1.00,-1.0,2353
4623,1834623,17092,-568,852,17122.65,27.45,-1.00,-1.0,2431
4625,1834625,16944,-548,856,16974.46,27.40,-1.00,-1.0,2365
4628,1834628,16992,-552,828,17021.12,27.45,-1.00,-1.0,2427
4631,1834631,17068,-488,780,17092.78,27.54,-1.00,-1.0,2377
4634,1834634,17092,-628,956,17130.23,27.54,-1.00,-1.0,2421
4636,1834636,17056,-560,964,17092.40,27.54,-1.00,-1.0,2369
4639,1834639,16960,-628,984,17000.12,27.54,-1.00,-1.0,2420
4642,1834642,16928,-552,1016,16967.44,27.49,-1.00,-1.0,2413
4647,1834647,16992,-528,844,17021.14,27.54,-1.00,-1.0,2441
4650,1834650,16968,-448,920,16998.83,27.54,-1.00,-1.0,2368
4653,1834653,16932,-480,1060,16971.94,27.45,-1.00,-1.0,2420
4655,1834655,17016,-608,896,17050.42,27.45,-1.00,-1.0,2369
4658,1834658,16996,-556,1024,17035.89,27.40,-1.00,-1.0,2353
4661,1834661,17060,-576,868,17091.78,27.49,-1.00,-1.0,2433
4663,1834663,17032,-412,912,17061.38,27.49,-1.00,-1.0,2379
4666,1834666,17064,-520,904,17095.84,27.45,-1.00,-1.0,2461
4669,1834669,16968,-556,1056,17009.92,27.45,-1.00,-1.0,2369
4674,1834674,17076,-588,900,17109.81,27.45,-1.00,-1.0,2441
4677,1834677,16940,-568,968,16977.14,27.35,-1.00,-1.0,2375
4680,1834680,16992,-584,868,17024.18,27.40,-1.00,-1.0,2419
4682,1834682,17092,-524,920,17124.76,27.45,-1.00,-1.0,2370
4685,1834685,17056,-548,1008,17094.55,27.45,-1.00,-1.0,2420
4688,1834688,17028,-604,948,17065.06,27.54,-1.00,-1.0,2379
4691,1834691,17028,-568,848,17058.56,27.49,-1.00,-1.0,2420
4693,1834693,17064,-616,912,17099.45,27.45,-1.00,-1.0,2370
4696,1834696,16976,-604,1036,17018.30,27.45,-1.00,-1.0,2367
4701,1834701,16988,-564,844,17018.30,27.35,-1.00,-1.0,2442
4704,1834704,17056,-644,896,17091.66,27.40,-1.00,-1.0,2368
4707,1834707,17000,-516,960,17034.90,27.45,-1.00,-1.0,2420
4709,1834709,17024,-620,956,17062.09,27.45,-1.00,-1.0,2370
4712,1834712,17048,-548,988,17085.40,27.45,-1.00,-1.0,2419
4715,1834715,17068,-628,1072,17113.16,27.45,-1.00,-1.0,2374
4718,1834718,17072,-492,964,17106.27,27.45,-1.00,-1.0,2420
4720,1834720,16968,-692,976,17010.13,27.45,-1.00,-1.0,2370
4725,1834725,17168,-668,864,17202.70,27.45,-1.00,-1.0,2442
4728,1834728,17044,-644,864,17078.03,27.45,-1.00,-1.0,2368
4731,1834731,17080,-596,972,17118.01,27.45,-1.00,-1.0,2422
4733,1834733,17028,-672,944,17067.38,27.45,-1.00,-1.0,2369
4736,1834736,16924,-644,876,16958.89,27.45,-1.00,-1.0,2366
4739,1834739,16980,-496,876,17009.81,27.49,-1.00,-1.0,2427
4742,1834742,17068,-508,880,17098.22,27.40,-1.00,-1.0,2369
4744,1834744,17044,-576,952,17080.28,27.49,-1.00,-1.0,2425
4747,1834747,17092,-520,916,17124.42,27.45,-1.00,-1.0,2370
4752,1834752,17044,-544,884,17075.58,27.45,-1.00,-1.0,2441
4755,1834755,17008,-460,888,17037.38,27.54,-1.00,-1.0,2368
4758,1834758,16948,-436,876,16976.22,27.49,-1.00,-1.0,2420
4760,1834760,17100,-504,920,17132.15,27.45,-1.00,-1.0,2357
4763,1834763,16936,-544,768,16962.13,27.45,-1.00,-1.0,2420
4766,1834766,17088,-620,748,17115.60,27.54,-1.00,-1.0,2371
4769,1834769,17044,-532,972,17079.98,27.40,-1.00,-1.0,2420
4771,1834771,16984,-540,908,17016.82,27.45,-1.00,-1.0,2370
4774,1834774,17004,-588,868,17036.29,27.40,-1.00,-1.0,2366
4779,1834779,16956,-520,1028,16995.09,27.40,-1.00,-1.0,2441
4782,1834782,17124,-560,988,17161.62,27.49,-1.00,-1.0,2375
4785,1834785,16920,-584,936,16955.93,27.40,-1.00,-1.0,2420
4787,1834787,17084,-588,916,17118.64,27.49,-1.00,-1.0,2370
4790,1834790,17100,-660,900,17136.38,27.49,-1.00,-1.0,2420
4793,1834793,17016,-628,792,17045.99,27.49,-1.00,-1.0,2377
4796,1834796,17064,-656,1008,17106.33,27.40,-1.00,-1.0,2420
4798,1834798,17060,-516,920,17092.58,27.49,-1.00,-1.0,2370
4803,1834803,17000,-512,868,17029.84,27.45,-1.00,-1.0,2457
4806,1834806,17004,-572,964,17040.91,27.49,-1.00,-1.0,2373
4809,1834809,16956,-456,900,16985.99,27.45,-1.00,-1.0,2432
4811,1834811,16972,-456,964,17005.47,27.45,-1.00,-1.0,2381
4814,1834814,16976,-596,976,17014.47,27.54,-1.00,-1.0,2366
4817,1834817,17056,-552,992,17093.74,27.59,-1.00,-1.0,2427
4820,1834820,16972,-544,908,17004.97,27.49,-1.00,-1.0,2368
4822,1834822,17000,-564,964,17036.65,27.49,-1.00,-1.0,2419
4825,1834825,16964,-608,852,16996.26,27.54,-1.00,-1.0,2386
4830,1834830,16988,-540,888,17019.76,27.45,-1.00,-1.0,2428
4833,1834833,17028,-632,1076,17073.66,27.35,-1.00,-1.0,2368
4836,1834836,17036,-596,984,17074.80,27.49,-1.00,-1.0,2420
4838,1834838,17048,-584,816,17077.51,27.40,-1.00,-1.0,2373
4841,1834841,16992,-492,964,17026.43,27.49,-1.00,-1.0,2420
4844,1834844,17008,-604,780,17036.59,27.40,-1.00,-1.0,2370
4847,1834847,16892,-488,792,16917.60,27.49,-1.00,-1.0,2420
4849,1834849,17044,-624,860,17077.09,27.59,-1.00,-1.0,2374
4852,1834852,17020,-616,1016,17061.42,27.45,-1.00,-1.0,2374
4857,1834857,17036,-568,952,17072.03,27.54,-1.00,-1.0,2457
4860,1834860,17012,-580,852,17043.19,27.35,-1.00,-1.0,2375
4863,1834863,16960,-516,1024,16998.72,27.45,-1.00,-1.0,2432
4865,1834865,17088,-596,888,17121.43,27.45,-1.00,-1.0,2371
4868,1834868,17040,-584,880,17072.70,27.49,-1.00,-1.0,2427
4871,1834871,17060,-592,852,17091.52,27.35,-1.00,-1.0,2377
4874,1834874,17004,-568,992,17042.38,27.40,-1.00,-1.0,2427
4876,1834876,17044,-556,1036,17084.51,27.45,-1.00,-1.0,2378
4881,1834881,17036,-496,772,17060.70,27.45,-1.00,-1.0,2453
4884,1834884,17032,-560,852,17062.49,27.45,-1.00,-1.0,2374
4887,1834887,16952,-576,916,16986.50,27.54,-1.00,-1.0,2407
4890,1834890,17088,-548,1048,17128.88,27.35,-1.00,-1.0,2369
4892,1834892,17084,-544,844,17113.48,27.45,-1.00,-1.0,2425
4895,1834895,16996,-604,936,17032.47,27.49,-1.00,-1.0,2423
4898,1834898,17032,-636,896,17067.41,27.45,-1.00,-1.0,2367
4901,1834901,17072,-612,1020,17113.39,27.40,-1.00,-1.0,2424
4903,1834903,17040,-416,1052,17077.51,27.40,-1.00,-1.0,2368
4908,1834908,17096,-536,1144,17142.62,27.49,-1.00,-1.0,2449
4911,1834911,17044,-540,928,17077.79,27.40,-1.00,-1.0,2374
4914,1834914,17132,-708,1000,17175.76,27.40,-1.00,-1.0,2421
4917,1834917,17008,-520,912,17040.37,27.49,-1.00,-1.0,2371
4920,1834920,17108,-516,800,17134.47,27.40,-1.00,-1.0,2421
4922,1834922,17052,-500,856,17080.79,27.40,-1.00,-1.0,2371
4925,1834925,17048,-628,1028,17090.51,27.40,-1.00,-1.0,2420
4928,1834928,16996,-636,968,17035.42,27.59,-1.00,-1.0,2367
4933,1834933,16900,-640,972,16940.02,27.49,-1.00,-1.0,2444
4935,1834935,17048,-492,892,17078.41,27.45,-1.00,-1.0,2369
4938,1834938,16992,-536,908,17024.68,27.49,-1.00,-1.0,2367
4941,1834941,17172,-544,940,17206.31,27.45,-1.00,-1.0,2429
4944,1834944,17052,-624,852,17084.67,27.40,-1.00,-1.0,2368
4946,1834946,17044,-580,940,17079.75,27.54,-1.00,-1.0,2421
4949,1834949,17112,-600,984,17150.77,27.40,-1.00,-1.0,2369
4952,1834952,17108,-484,912,17139.13,27.45,-1.00,-1.0,2428
4955,1834955,16984,-596,980,17022.69,27.49,-1.00,-1.0,2366
4959,1834959,17028,-556,788,17055.29,27.49,-1.00,-1.0,2442
4962,1834962,17028,-564,1012,17067.37,27.49,-1.00,-1.0,2368
4965,1834965,16956,-592,852,16987.71,27.45,-1.00,-1.0,2419
4968,1834968,17060,-608,1092,17105.72,27.40,-1.00,-1.0,2369
4971,1834971,17080,-588,824,17109.97,27.54,-1.00,-1.0,2420
4973,1834973,17060,-584,792,17088.36,27.40,-1.00,-1.0,2372
4976,1834976,17124,-416,900,17152.68,27.45,-1.00,-1.0,2372
4979,1834979,17052,-588,920,17086.92,27.49,-1.00,-1.0,2419
4981,1834981,17032,-536,916,17065.03,27.35,-1.00,-1.0,2370
4986,1834986,17084,-564,1008,17123.00,27.45,-1.00,-1.0,2441
4989,1834989,17036,-484,1000,17072.19,27.35,-1.00,-1.0,2366
4992,1834992,17056,-544,916,17089.24,27.45,-1.00,-1.0,2427
4995,1834995,16952,-652,968,16992.13,27.45,-1.00,-1.0,2368
4997,1834997,17024,-580,912,17058.27,27.54,-1.00,-1.0,2419
5000,1835000,16980,-632,864,17013.71,27.45,-1.00,-1.0,2371
5003,1835003,16984,-564,932,17018.90,27.45,-1.00,-1.0,2427
5006,1835006,16980,-532,1000,17017.74,27.45,-1.00,-1.0,2369
5011,1835011,16996,-628,880,17030.35,27.40,-1.00,-1.0,2459
5014,1835014,16984,-660,888,17020.00,27.49,-1.00,-1.0,2369
5017,1835017,17084,-552,900,17116.59,27.45,-1.00,-1.0,2369
5019,1835019,17088,-544,968,17124.04,27.40,-1.00,-1.0,2420
5022,1835022,16956,-616,816,16986.80,27.45,-1.00,-1.0,2369
5025,1835025,17068,-536,1000,17105.67,27.45,-1.00,-1.0,2426
5028,1835028,17044,-488,940,17076.88,27.45,-1.00,-1.0,2368
5030,1835030,16984,-616,928,17020.48,27.45,-1.00,-1.0,2467
5033,1835033,17036,-572,780,17063.44,27.45,-1.00,-1.0,2370
5038,1835038,17048,-608,984,17087.20,27.54,-1.00,-1.0,2443
5041,1835041,17108,-548,844,17137.57,27.49,-1.00,-1.0,2372
5043,1835043,17040,-552,824,17068.84,27.54,-1.00,-1.0,2408
5046,1835046,16976,-572,1052,17018.18,27.49,-1.00,-1.0,2384
5049,1835049,17148,-632,1140,17197.47,27.54,-1.00,-1.0,2419
5052,1835052,17156,-604,876,17188.96,27.40,-1.00,-1.0,2371
5054,1835054,17096,-612,940,17132.76,27.45,-1.00,-1.0,2353
5057,1835057,16896,-620,972,16935.29,27.49,-1.00,-1.0,2419
5060,1835060,17012,-520,968,17047.45,27.54,-1.00,-1.0,2371
5065,1835065,17016,-496,980,17051.41,27.54,-1.00,-1.0,2442
5067,1835067,16984,-548,808,17012.04,27.45,-1.00,-1.0,2369
5070,1835070,17028,-564,916,17061.94,27.45,-1.00,-1.0,2419
5073,1835073,17060,-568,908,17093.59,27.45,-1.00,-1.0,2372
5076,1835076,17112,-520,860,17141.49,27.45,-1.00,-1.0,2421
5078,1835078,17084,-556,816,17112.51,27.45,-1.00,-1.0,2369
5081,1835081,17084,-548,920,17117.53,27.49,-1.00,-1.0,2419
5084,1835084,16984,-596,984,17022.92,27.45,-1.00,-1.0,2372
5089,1835089,17092,-528,940,17125.97,27.45,-1.00,-1.0,2443
5092,1835092,17060,-600,832,17090.81,27.45,-1.00,-1.0,2372
5094,1835094,17024,-544,1032,17063.93,27.49,-1.00,-1.0,2364
5097,1835097,17004,-624,912,17039.87,27.49,-1.00,-1.0,2419
5100,1835100,16948,-592,996,16987.56,27.45,-1.00,-1.0,2369
5103,1835103,16980,-656,852,17014.01,27.40,-1.00,-1.0,2423
5105,1835105,16916,-592,1096,16961.80,27.49,-1.00,-1.0,2356
5108,1835108,16984,-596,768,17011.80,27.40,-1.00,-1.0,2419
5111,1835111,17040,-608,884,17073.74,27.45,-1.00,-1.0,2373
5116,1835116,16996,-532,964,17031.63,27.45,-1.00,-1.0,2442
5119,1835119,17052,-584,948,17088.31,27.49,-1.00,-1.0,2365
5121,1835121,17056,-520,912,17088.28,27.40,-1.00,-1.0,2419
5124,1835124,17024,-500,1076,17065.30,27.49,-1.00,-1.0,2370
5127,1835127,16980,-552,960,17016.07,27.49,-1.00,-1.0,2425
5130,1835130,16956,-536,868,16986.66,27.49,-1.00,-1.0,2368
5132,1835132,17012,-576,908,17045.95,27.45,-1.00,-1.0,2365
5135,1835135,17020,-548,768,17046.13,27.45,-1.00,-1.0,2427
5138,1835138,16976,-600,928,17011.93,27.54,-1.00,-1.0,2369
5143,1835143,17032,-716,884,17069.95,27.45,-1.00,-1.0,2443
5145,1835145,17108,-528,1008,17145.80,27.49,-1.00,-1.0,2365
5148,1835148,17040,-568,928,17074.70,27.45,-1.00,-1.0,2419
5151,1835151,17064,-572,988,17102.15,27.49,-1.00,-1.0,2376
5154,1835154,17068,-616,892,17102.39,27.45,-1.00,-1.0,2419
5156,1835156,16980,-512,1012,17017.83,27.49,-1.00,-1.0,2369
5159,1835159,16968,-476,1024,17005.53,27.45,-1.00,-1.0,2419
5162,1835162,17020,-616,1004,17060.71,27.49,-1.00,-1.0,2377
5167,1835167,16932,-596,852,16963.89,27.49,-1.00,-1.0,2447
5170,1835170,17000,-568,1012,17039.56,27.49,-1.00,-1.0,2366
5172,1835172,17032,-588,852,17063.43,27.45,-1.00,-1.0,2421
5175,1835175,17088,-620,828,17119.28,27.40,-1.00,-1.0,2369
5178,1835178,17004,-552,944,17039.13,27.45,-1.00,-1.0,2370
5180,1835180,17040,-532,992,17077.14,27.40,-1.00,-1.0,2422
5183,1835183,17028,-584,1072,17071.70,27.35,-1.00,-1.0,2385
5186,1835186,17016,-476,888,17045.80,27.59,-1.00,-1.0,2422
5189,1835189,17072,-536,920,17105.17,27.45,-1.00,-1.0,2370
5194,1835194,16956,-628,1040,16999.47,27.54,-1.00,-1.0,2447
5196,1835196,17028,-568,1028,17068.46,27.54,-1.00,-1.0,2370
5199,1835199,16980,-568,980,17017.74,27.49,-1.00,-1.0,2427
5202,1835202,17020,-676,1016,17063.69,27.35,-1.00,-1.0,2378
5205,1835205,17004,-604,1068,17048.21,27.49,-1.00,-1.0,2428
5207,1835207,17076,-460,860,17103.83,27.40,-1.00,-1.0,2379
5210,1835210,17056,-544,904,17088.60,27.49,-1.00,-1.0,2419
5213,1835213,16992,-568,904,17025.51,27.49,-1.00,-1.0,2371
5216,1835216,16968,-580,1016,17008.28,27.54,-1.00,-1.0,2366
5220,1835220,17060,-588,904,17094.05,27.54,-1.00,-1.0,2444
5223,1835223,16916,-476,820,16942.55,27.64,-1.00,-1.0,2365
5226,1835226,17028,-616,880,17061.85,27.49,-1.00,-1.0,2426
5229,1835229,17040,-512,1016,17077.94,27.54,-1.00,-1.0,2369
5231,1835231,17036,-524,1024,17074.79,27.49,-1.00,-1.0,2433
5234,1835234,16892,-596,928,16927.97,27.45,-1.00,-1.0,2369
5237,1835237,17076,-596,996,17115.40,27.40,-1.00,-1.0,2426
5240,1835240,16992,-508,1000,17028.98,27.45,-1.00,-1.0,2370
5244,1835244,17072,-596,1000,17111.64,27.54,-1.00,-1.0,2441
5247,1835247,17072,-544,768,17097.92,27.45,-1.00,-1.0,2367
5250,1835250,17044,-496,916,17075.80,27.45,-1.00,-1.0,2427
5253,1835253,17040,-580,960,17076.87,27.45,-1.00,-1.0,2368
5255,1835255,16920,-604,984,16959.35,27.35,-1.00,-1.0,2422
5258,1835258,16924,-616,936,16961.05,27.45,-1.00,-1.0,2369
5261,1835261,17016,-596,996,17055.54,27.45,-1.00,-1.0,2370
5264,1835264,16984,-596,936,17020.21,27.45,-1.00,-1.0,2420
5267,1835267,16984,-556,900,17016.91,27.45,-1.00,-1.0,2369
5272,1835272,17008,-548,1016,17047.13,27.45,-1.00,-1.0,2440
5275,1835275,17040,-524,1128,17085.33,27.45,-1.00,-1.0,2365
5277,1835277,17032,-656,888,17067.74,27.54,-1.00,-1.0,2419
5280,1835280,16976,-604,776,17004.46,27.54,-1.00,-1.0,2370
5283,1835283,17060,-604,980,17098.79,27.45,-1.00,-1.0,2426
5286,1835286,17004,-544,968,17040.22,27.45,-1.00,-1.0,2368
5288,1835288,17016,-604,880,17049.44,27.45,-1.00,-1.0,2419
5291,1835291,17000,-604,1096,17046.00,27.54,-1.00,-1.0,2370
5296,1835296,17092,-600,936,17128.12,27.54,-1.00,-1.0,2444
5299,1835299,17040,-512,836,17068.18,27.40,-1.00,-1.0,2367
5301,1835301,17072,-560,1044,17113.06,27.45,-1.00,-1.0,2365
5304,1835304,17052,-604,1016,17092.92,27.49,-1.00,-1.0,2419
5307,1835307,16976,-616,980,17015.42,27.54,-1.00,-1.0,2377
5310,1835310,17032,-556,924,17066.11,27.45,-1.00,-1.0,2420
5312,1835312,17024,-532,968,17059.79,27.35,-1.00,-1.0,2369
5315,1835315,17028,-536,1060,17069.38,27.40,-1.00,-1.0,2419
5318,1835318,17172,-476,948,17204.73,27.45,-1.00,-1.0,2376
5323,1835323,17100,-592,976,17138.06,27.54,-1.00,-1.0,2440
5326,1835326,17144,-616,964,17182.13,27.45,-1.00,-1.0,2366
5328,1835328,16960,-584,1044,17002.13,27.49,-1.00,-1.0,2419
5331,1835331,16940,-544,896,16972.40,27.64,-1.00,-1.0,2370
5334,1835334,16980,-500,896,17010.97,27.49,-1.00,-1.0,2426
5337,1835337,17108,-624,796,17137.87,27.45,-1.00,-1.0,2369
5339,1835339,16976,-488,896,17006.63,27.49,-1.00,-1.0,2373
5342,1835342,17016,-540,1024,17055.33,27.45,-1.00,-1.0,2421
5345,1835345,17104,-604,920,17139.37,27.54,-1.00,-1.0,2374
5350,1835350,17104,-508,960,17138.45,27.49,-1.00,-1.0,2442
5352,1835352,17096,-568,768,17122.67,27.49,-1.00,-1.0,2369
5355,1835355,17088,-508,972,17123.16,27.45,-1.00,-1.0,2429
5358,1835358,17000,-512,948,17034.11,27.40,-1.00,-1.0,2377
5361,1835361,16984,-560,972,17021.01,27.45,-1.00,-1.0,2433
5363,1835363,17052,-496,960,17086.20,27.45,-1.00,-1.0,2376
5366,1835366,17092,-496,928,17124.36,27.45,-1.00,-1.0,2419
5369,1835369,17084,-520,1028,17122.80,27.45,-1.00,-1.0,2364
5374,1835374,17112,-576,796,17140.19,27.49,-1.00,-1.0,2446
5377,1835377,17004,-484,892,17034.26,27.49,-1.00,-1.0,2366
5379,1835379,17132,-600,972,17170.04,27.54,-1.00,-1.0,2368
5382,1835382,17004,-576,896,17037.33,27.49,-1.00,-1.0,2419
5385,1835385,17104,-600,880,17137.13,27.45,-1.00,-1.0,2372
5388,1835388,17076,-632,876,17110.13,27.45,-1.00,-1.0,2419
5390,1835390,17004,-520,796,17030.56,27.45,-1.00,-1.0,2370
5393,1835393,17100,-628,1080,17145.58,27.40,-1.00,-1.0,2406
5396,1835396,17012,-568,1096,17056.73,27.45,-1.00,-1.0,2369
5401,1835401,16988,-540,936,17022.33,27.45,-1.00,-1.0,2447
5403,1835403,16968,-612,864,17001.00,27.45,-1.00,-1.0,2377
5406,1835406,17016,-592,816,17045.84,27.40,-1.00,-1.0,2419
5409,1835409,17036,-508,948,17069.92,27.45,-1.00,-1.0,2370
5412,1835412,17016,-492,928,17048.39,27.49,-1.00,-1.0,2421
5414,1835414,17052,-504,904,17083.38,27.45,-1.00,-1.0,2373
5417,1835417,16952,-676,824,16985.47,27.49,-1.00,-1.0,2364
5420,1835420,17016,-628,956,17054.40,27.49,-1.00,-1.0,2421
5423,1835423,17032,-516,896,17063.36,27.49,-1.00,-1.0,2369
5428,1835428,16980,-468,944,17012.66,27.49,-1.00,-1.0,2426
5430,1835430,16932,-588,912,16966.74,27.40,-1.00,-1.0,2366
5433,1835433,17148,-588,1020,17188.37,27.49,-1.00,-1.0,2419
5436,1835436,17004,-480,844,17031.70,27.49,-1.00,-1.0,2369
5439,1835439,16964,-556,1068,17006.68,27.45,-1.00,-1.0,2422
5441,1835441,17112,-576,912,17145.96,27.49,-1.00,-1.0,2357
5444,1835444,17016,-524,868,17046.18,27.40,-1.00,-1.0,2419
5447,1835447,17036,-484,952,17069.44,27.49,-1.00,-1.0,2369
5451,1835451,17032,-608,908,17067.02,27.45,-1.00,-1.0,2448
5454,1835454,16952,-572,872,16984.05,27.54,-1.00,-1.0,2373
5457,1835457,17012,-632,976,17051.69,27.40,-1.00,-1.0,2366
5460,1835460,17024,-516,924,17056.86,27.45,-1.00,-1.0,2419
5462,1835462,16944,-516,1068,16985.46,27.40,-1.00,-1.0,2369
5465,1835465,16984,-608,1028,17025.94,27.54,-1.00,-1.0,2419
5468,1835468,17064,-556,964,17100.25,27.49,-1.00,-1.0,2369
5471,1835471,16976,-508,820,17003.38,27.54,-1.00,-1.0,2424
5474,1835474,16996,-424,928,17026.60,27.49,-1.00,-1.0,2374
5479,1835479,17060,-604,984,17099.03,27.40,-1.00,-1.0,2439
5482,1835482,16988,-508,1008,17025.46,27.40,-1.00,-1.0,2366
5484,1835484,17016,-496,848,17044.34,27.45,-1.00,-1.0,2419
5487,1835487,17040,-524,972,17075.74,27.40,-1.00,-1.0,2358
5490,1835490,16988,-552,976,17024.96,27.54,-1.00,-1.0,2427
5493,1835493,17012,-520,956,17046.77,27.40,-1.00,-1.0,2368
5495,1835495,17008,-524,972,17043.81,27.45,-1.00,-1.0,2419
5498,1835498,17016,-536,996,17053.55,27.49,-1.00,-1.0,2369
5501,1835501,17104,-492,968,17138.43,27.45,-1.00,-1.0,2374
5506,1835506,17000,-540,936,17034.31,27.45,-1.00,-1.0,2448
5509,1835509,17048,-644,852,17081.42,27.45,-1.00,-1.0,2366
5511,1835511,16988,-536,808,17015.65,27.54,-1.00,-1.0,2423
5514,1835514,16960,-564,760,16986.38,27.45,-1.00,-1.0,2369
5517,1835517,17128,-544,944,17162.62,27.45,-1.00,-1.0,2421
5520,1835520,17028,-556,972,17064.78,27.45,-1.00,-1.0,2368
5522,1835522,17036,-568,764,17062.58,27.45,-1.00,-1.0,2421
5525,1835525,16972,-540,888,17003.79,27.45,-1.00,-1.0,2369
5530,1835530,17116,-608,892,17150.01,27.45,-1.00,-1.0,2427
5533,1835533,16988,-624,852,17020.79,27.49,-1.00,-1.0,2366
5535,1835535,17048,-552,956,17083.70,27.45,-1.00,-1.0,2368
5538,1835538,17052,-584,1036,17093.42,27.49,-1.00,-1.0,2433
5541,1835541,17028,-528,816,17055.71,27.45,-1.00,-1.0,2381
5544,1835544,16976,-576,904,17009.81,27.40,-1.00,-1.0,2432
5546,1835546,17080,-632,1016,17121.86,27.45,-1.00,-1.0,2373
5549,1835549,17108,-532,1020,17146.63,27.49,-1.00,-1.0,2428
5552,1835552,17076,-620,940,17113.09,27.49,-1.00,-1.0,2377
5557,1835557,16948,-472,876,16977.19,27.49,-1.00,-1.0,2446
5560,1835560,17092,-612,956,17129.65,27.54,-1.00,-1.0,2366
5562,1835562,17008,-552,924,17042.02,27.40,-1.00,-1.0,2429
5565,1835565,17076,-568,1000,17114.68,27.49,-1.00,-1.0,2377
5568,1835568,17040,-484,948,17073.21,27.49,-1.00,-1.0,2421
5571,1835571,17020,-676,940,17059.34,27.49,-1.00,-1.0,2370
5573,1835573,16948,-612,1124,16996.25,27.49,-1.00,-1.0,2428
5576,1835576,17112,-608,940,17148.58,27.49,-1.00,-1.0,2376
5579,1835579,17044,-632,796,17074.28,27.40,-1.00,-1.0,2369
5584,1835584,16988,-624,1064,17032.72,27.40,-1.00,-1.0,2448
5587,1835587,16948,-612,988,16987.80,27.40,-1.00,-1.0,2365
5589,1835589,17056,-560,844,17086.05,27.40,-1.00,-1.0,2429
5592,1835592,17028,-708,932,17068.18,27.49,-1.00,-1.0,2377
5595,1835595,17080,-668,928,17118.23,27.49,-1.00,-1.0,2421
5598,1835598,17020,-524,816,17047.61,27.49,-1.00,-1.0,2373
5600,1835600,17032,-536,920,17065.25,27.45,-1.00,-1.0,2427
5603,1835603,16884,-508,956,16918.67,27.40,-1.00,-1.0,2384
5608,1835608,17112,-532,864,17142.05,27.49,-1.00,-1.0,2455
5611,1835611,16984,-532,952,17018.98,27.40,-1.00,-1.0,2375
5614,1835614,16964,-536,984,17000.97,27.35,-1.00,-1.0,2435
5616,1835616,16972,-600,848,17003.76,27.49,-1.00,-1.0,2377
5619,1835619,17020,-580,988,17058.52,27.45,-1.00,-1.0,2364
5622,1835622,16964,-452,960,16997.15,27.49,-1.00,-1.0,2426
5625,1835625,16992,-588,872,17024.52,27.45,-1.00,-1.0,2368
5627,1835627,17076,-584,888,17109.04,27.45,-1.00,-1.0,2419
5630,1835630,17088,-520,900,17119.58,27.45,-1.00,-1.0,2369
5637,1835637,16952,-520,980,16988.26,27.49,-1.00,-1.0,2440
5639,1835639,17032,-476,1028,17069.63,27.45,-1.00,-1.0,2366
5642,1835642,17056,-516,896,17087.31,27.49,-1.00,-1.0,2419
5645,1835645,17060,-460,996,17095.24,27.45,-1.00,-1.0,2369
5648,1835648,17060,-536,932,17093.84,27.49,-1.00,-1.0,2419
5650,1835650,17012,-532,844,17041.23,27.45,-1.00,-1.0,2369
5653,1835653,17056,-548,996,17093.84,27.40,-1.00,-1.0,2419
5656,1835656,17068,-488,884,17097.84,27.45,-1.00,-1.0,2369
5658,1835658,17080,-520,1076,17121.76,27.49,-1.00,-1.0,2368
5663,1835663,16956,-620,876,16989.93,27.49,-1.00,-1.0,2440
5666,1835666,17068,-552,1032,17108.08,27.49,-1.00,-1.0,2367
5669,1835669,17056,-632,956,17094.46,27.49,-1.00,-1.0,2418
5671,1835671,17076,-456,876,17104.53,27.45,-1.00,-1.0,2356
5674,1835674,17096,-584,1016,17136.12,27.40,-1.00,-1.0,2419
5677,1835677,17068,-544,876,17099.12,27.49,-1.00,-1.0,2369
5680,1835680,17016,-628,832,17047.90,27.49,-1.00,-1.0,2419
5682,1835682,17132,-592,868,17164.19,27.45,-1.00,-1.0,2374
5688,1835688,16972,-600,1032,17013.93,27.54,-1.00,-1.0,2443
5690,1835690,17100,-628,948,17137.77,27.45,-1.00,-1.0,2353
5693,1835693,17040,-540,836,17069.04,27.49,-1.00,-1.0,2419
5696,1835696,17052,-556,756,17077.80,27.45,-1.00,-1.0,2373
5698,1835698,16992,-616,780,17021.04,27.49,-1.00,-1.0,2364
5701,1835701,17044,-508,960,17078.57,27.49,-1.00,-1.0,2419
5704,1835704,17032,-556,896,17064.61,27.49,-1.00,-1.0,2369
5707,1835707,17072,-536,864,17102.25,27.49,-1.00,-1.0,2419
5709,1835709,17028,-544,1004,17066.25,27.49,-1.00,-1.0,2370
5714,1835714,17000,-620,964,17038.59,27.49,-1.00,-1.0,2440
5717,1835717,17044,-568,860,17075.13,27.40,-1.00,-1.0,2368
5720,1835720,16972,-592,1004,17011.97,27.40,-1.00,-1.0,2428
5723,1835723,17072,-580,948,17108.13,27.49,-1.00,-1.0,2365
5725,1835725,17100,-532,964,17135.41,27.49,-1.00,-1.0,2420
5728,1835728,17008,-528,852,17037.51,27.49,-1.00,-1.0,2357
5731,1835731,17080,-576,928,17114.89,27.49,-1.00,-1.0,2425
5734,1835734,17028,-572,896,17061.15,27.49,-1.00,-1.0,2368
5736,1835736,17012,-532,900,17044.10,27.45,-1.00,-1.0,2365
5741,1835741,17040,-540,1012,17078.56,27.40,-1.00,-1.0,2439
5744,1835744,17060,-652,852,17093.70,27.40,-1.00,-1.0,2367
5747,1835747,17020,-584,832,17050.33,27.54,-1.00,-1.0,2420
5749,1835749,17068,-492,932,17100.51,27.40,-1.00,-1.0,2370
5752,1835752,17032,-496,932,17064.69,27.35,-1.00,-1.0,2419
5755,1835755,17132,-532,944,17166.23,27.49,-1.00,-1.0,2370
5758,1835758,16920,-528,816,16947.89,27.54,-1.00,-1.0,2419
5760,1835760,17052,-568,820,17081.15,27.40,-1.00,-1.0,2369
5765,1835765,17080,-568,976,17117.29,27.49,-1.00,-1.0,2439
5768,1835768,16964,-588,800,16993.03,27.40,-1.00,-1.0,2365
5771,1835771,17044,-568,848,17074.53,27.54,-1.00,-1.0,2426
5774,1835774,17024,-644,960,17063.20,27.40,-1.00,-1.0,2368
5776,1835776,17108,-588,1000,17147.29,27.54,-1.00,-1.0,2366
5779,1835779,16984,-592,908,17018.55,27.40,-1.00,-1.0,2428
5782,1835782,17016,-528,844,17045.10,27.45,-1.00,-1.0,2368
5784,1835784,17004,-548,948,17039.22,27.49,-1.00,-1.0,2429
5787,1835787,16992,-544,988,17029.39,27.45,-1.00,-1.0,2377
5792,1835792,17092,-568,884,17124.27,27.35,-1.00,-1.0,2440
5795,1835795,16956,-568,928,16990.87,27.45,-1.00,-1.0,2374
5798,1835798,17056,-564,1124,17102.30,27.45,-1.00,-1.0,2419
5800,1835800,17056,-576,948,17092.03,27.54,-1.00,-1.0,2374
5803,1835803,17052,-608,832,17083.11,27.45,-1.00,-1.0,2428
5806,1835806,17060,-544,860,17090.32,27.45,-1.00,-1.0,2377
5809,1835809,17068,-540,816,17096.03,27.49,-1.00,-1.0,2423
5811,1835811,16968,-608,980,17007.15,27.45,-1.00,-1.0,2370
5814,1835814,17028,-596,892,17061.76,27.40,-1.00,-1.0,2367
5819,1835819,17124,-616,1000,17164.23,27.40,-1.00,-1.0,2442
5822,1835822,16956,-612,912,16991.53,27.49,-1.00,-1.0,2368
5824,1835824,17004,-588,1036,17045.68,27.49,-1.00,-1.0,2426
5827,1835827,17020,-664,880,17055.66,27.49,-1.00,-1.0,2383
5830,1835830,17004,-584,992,17042.92,27.49,-1.00,-1.0,2422
5833,1835833,16968,-616,864,17001.15,27.49,-1.00,-1.0,2371
5836,1835836,17008,-564,1088,17052.09,27.49,-1.00,-1.0,2422
5838,1835838,16888,-544,944,16923.11,27.40,-1.00,-1.0,2376
5845,1835845,17024,-604,948,17061.07,27.45,-1.00,-1.0,2427
5848,1835848,17000,-680,1028,17044.62,27.40,-1.00,-1.0,2366
5851,1835851,17040,-568,1028,17080.43,27.45,-1.00,-1.0,2419
5853,1835853,17072,-608,908,17106.94,27.45,-1.00,-1.0,2369
5856,1835856,16988,-460,968,17021.77,27.54,-1.00,-1.0,2420
5859,1835859,17016,-592,748,17042.72,27.45,-1.00,-1.0,2370
5861,1835861,17052,-520,1044,17091.84,27.40,-1.00,-1.0,2366
5864,1835864,17112,-640,956,17150.63,27.49,-1.00,-1.0,2433
5867,1835867,17072,-636,872,17106.08,27.40,-1.00,-1.0,2379
5872,1835872,17028,-636,884,17062.79,27.54,-1.00,-1.0,2440
5874,1835874,16972,-480,764,16995.97,27.45,-1.00,-1.0,2368
5877,1835877,17036,-612,1024,17077.72,27.45,-1.00,-1.0,2419
5880,1835880,16992,-592,1020,17032.88,27.45,-1.00,-1.0,2378
5883,1835883,17032,-628,936,17069.26,27.49,-1.00,-1.0,2419
5885,1835885,17096,-532,1004,17133.72,27.45,-1.00,-1.0,2369
5888,1835888,17072,-624,1044,17115.27,27.49,-1.00,-1.0,2419
5891,1835891,17132,-644,964,17171.18,27.45,-1.00,-1.0,2376
5896,1835896,17064,-532,920,17097.06,27.54,-1.00,-1.0,2441
5899,1835899,17112,-660,936,17150.28,27.45,-1.00,-1.0,2366
5901,1835901,17060,-552,1104,17104.59,27.45,-1.00,-1.0,2366
5904,1835904,17032,-592,976,17070.21,27.49,-1.00,-1.0,2428
5907,1835907,17104,-652,996,17145.38,27.49,-1.00,-1.0,2368
5909,1835909,16996,-548,1064,17038.09,27.49,-1.00,-1.0,2430
5912,1835912,17084,-560,928,17118.35,27.40,-1.00,-1.0,2377
5915,1835915,17028,-604,892,17062.04,27.45,-1.00,-1.0,2422
5918,1835918,17028,-644,920,17064.99,27.49,-1.00,-1.0,2369
5923,1835923,16936,-468,1000,16971.95,27.40,-1.00,-1.0,2439
5925,1835925,17088,-700,916,17126.84,27.40,-1.00,-1.0,2366
5928,1835928,17028,-612,884,17061.91,27.49,-1.00,-1.0,2419
5931,1835931,16952,-664,1092,17000.11,27.40,-1.00,-1.0,2376
5934,1835934,17000,-568,1132,17047.11,27.59,-1.00,-1.0,2419
5936,1835936,16892,-572,940,16927.80,27.40,-1.00,-1.0,2369
5939,1835939,17028,-620,944,17065.41,27.49,-1.00,-1.0,2418
5942,1835942,16880,-628,844,16912.75,27.40,-1.00,-1.0,2377
5944,1835944,16936,-628,844,16968.64,27.45,-1.00,-1.0,2375
5949,1835949,17032,-584,956,17068.80,27.45,-1.00,-1.0,2453
5952,1835952,17076,-568,856,17106.87,27.49,-1.00,-1.0,2372
5955,1835955,17108,-620,876,17141.63,27.35,-1.00,-1.0,2420
5958,1835958,17012,-448,940,17043.84,27.45,-1.00,-1.0,2370
5960,1835960,17032,-628,952,17070.14,27.45,-1.00,-1.0,2427
5963,1835963,17012,-592,896,17045.86,27.45,-1.00,-1.0,2385
5966,1835966,17156,-612,1052,17199.12,27.45,-1.00,-1.0,2420
5969,1835969,17020,-620,996,17060.39,27.45,-1.00,-1.0,2369
5974,1835974,17012,-524,972,17047.80,27.45,-1.00,-1.0,2441
5976,1835976,17132,-512,956,17166.29,27.40,-1.00,-1.0,2370
5979,1835979,16932,-588,992,16971.22,27.45,-1.00,-1.0,2434
5982,1835982,16992,-556,876,17023.65,27.45,-1.00,-1.0,2377
5985,1835985,17008,-548,900,17040.61,27.49,-1.00,-1.0,2366
5987,1835987,17080,-568,896,17112.91,27.49,-1.00,-1.0,2419
5990,1835990,17012,-520,820,17039.69,27.35,-1.00,-1.0,2372
5993,1835993,17016,-580,1036,17057.37,27.49,-1.00,-1.0,2426
5996,1835996,17056,-608,852,17088.09,27.49,-1.00,-1.0,2368
6001,1836001,16968,-580,1004,17007.57,27.49,-1.00,-1.0,2442
6003,1836003,17044,-612,972,17082.66,27.54,-1.00,-1.0,2353
6006,1836006,16996,-580,860,17027.62,27.45,-1.00,-1.0,2419
6009,1836009,16956,-484,852,16984.29,27.49,-1.00,-1.0,2427
6012,1836012,17040,-644,856,17073.64,27.45,-1.00,-1.0,2435
6014,1836014,17036,-536,1184,17085.50,27.54,-1.00,-1.0,2383
6017,1836017,17124,-628,832,17155.70,27.49,-1.00,-1.0,2415
6020,1836020,17028,-588,932,17063.62,27.45,-1.00,-1.0,2379
6023,1836023,17012,-600,884,17045.52,27.49,-1.00,-1.0,2366
6028,1836028,17068,-556,900,17100.75,27.49,-1.00,-1.0,2433
6030,1836030,17020,-596,1012,17060.47,27.49,-1.00,-1.0,2366
6033,1836033,16992,-604,924,17027.82,27.40,-1.00,-1.0,2420
6036,1836036,17008,-552,992,17045.85,27.40,-1.00,-1.0,2369
6039,1836039,17108,-476,880,17137.23,27.49,-1.00,-1.0,2427
6041,1836041,17108,-568,972,17145.00,27.49,-1.00,-1.0,2369
6044,1836044,17072,-552,932,17106.33,27.54,-1.00,-1.0,2421
6047,1836047,17040,-596,820,17070.13,27.49,-1.00,-1.0,2372
6052,1836052,17036,-604,864,17068.59,27.54,-1.00,-1.0,2433
6054,1836054,17072,-484,972,17106.50,27.49,-1.00,-1.0,2366
6057,1836057,16964,-544,888,16995.93,27.45,-1.00,-1.0,2427
6060,1836060,17096,-624,936,17132.97,27.45,-1.00,-1.0,2377
6062,1836062,17008,-576,836,17038.27,27.40,-1.00,-1.0,2375
6065,1836065,17116,-672,944,17155.18,27.40,-1.00,-1.0,2419
6068,1836068,17040,-576,852,17071.01,27.45,-1.00,-1.0,2371
6071,1836071,17084,-572,896,17117.04,27.49,-1.00,-1.0,2421
6073,1836073,17016,-632,948,17054.10,27.49,-1.00,-1.0,2374
6078,1836078,16972,-564,940,17007.37,27.45,-1.00,-1.0,2433
6081,1836081,17048,-616,860,17080.79,27.45,-1.00,-1.0,2374
6084,1836084,17132,-432,912,17161.70,27.54,-1.00,-1.0,2427
6086,1836086,17044,-560,976,17081.10,27.45,-1.00,-1.0,2375
6089,1836089,16936,-460,848,16963.46,27.40,-1.00,-1.0,2435
6092,1836092,16968,-588,864,17000.15,27.45,-1.00,-1.0,2380
6095,1836095,16980,-568,880,17012.27,27.40,-1.00,-1.0,2430
6097,1836097,17052,-552,932,17086.37,27.54,-1.00,-1.0,2374
6100,1836100,17004,-564,852,17034.67,27.49,-1.00,-1.0,2367
