timestamp_ms,global_ms,accel_x,accel_y,accel_z,accel_mag,temp_c,voltage,soc,loop_us
2,1220002,17028,-544,868,17058.79,30.51,-1.00,-1.0,2497
9,1220009,17096,-584,820,17125.62,30.55,-1.00,-1.0,2450
11,1220011,16948,-572,952,16984.35,30.46,-1.00,-1.0,2373
14,1220014,17012,-768,864,17051.23,30.51,-1.00,-1.0,2366
17,1220017,17088,-516,932,17121.17,30.60,-1.00,-1.0,2421
19,1220019,17036,-668,784,17067.11,30.60,-1.00,-1.0,2368
22,1220022,17132,-532,860,17161.82,30.60,-1.00,-1.0,2419
25,1220025,17040,-540,976,17076.47,30.51,-1.00,-1.0,2371
28,1220028,17140,-640,928,17177.03,30.60,-1.00,-1.0,2422
30,1220030,17068,-568,924,17102.43,30.51,-1.00,-1.0,2373
35,1220035,16992,-600,924,17027.68,30.51,-1.00,-1.0,2454
38,1220038,17084,-552,904,17116.80,30.55,-1.00,-1.0,2377
41,1220041,17112,-516,1000,17148.96,30.51,-1.00,-1.0,2367
43,1220043,17044,-672,856,17078.71,30.55,-1.00,-1.0,2422
46,1220046,17016,-528,864,17046.10,30.60,-1.00,-1.0,2373
49,1220049,17056,-644,644,17080.30,30.55,-1.00,-1.0,2424
52,1220052,17024,-616,876,17057.65,30.60,-1.00,-1.0,2376
54,1220054,17048,-592,868,17080.35,30.55,-1.00,-1.0,2418
57,1220057,17000,-596,756,17027.24,30.60,-1.00,-1.0,2360
62,1220062,17004,-696,968,17045.75,30.60,-1.00,-1.0,2441
65,1220065,16960,-520,840,16988.75,30.51,-1.00,-1.0,2375
68,1220068,16984,-548,832,17013.20,30.55,-1.00,-1.0,2421
70,1220070,17016,-616,852,17048.45,30.51,-1.00,-1.0,2379
73,1220073,17048,-604,808,17077.82,30.46,-1.00,-1.0,2373
76,1220076,17036,-600,988,17075.17,30.55,-1.00,-1.0,2418
78,1220078,17000,-568,904,17033.49,30.55,-1.00,-1.0,2376
81,1220081,17108,-664,852,17142.07,30.51,-1.00,-1.0,2418
84,1220084,17060,-592,920,17095.04,30.65,-1.00,-1.0,2379
89,1220089,17096,-568,892,17128.68,30.55,-1.00,-1.0,2440
92,1220092,17024,-576,912,17058.14,30.55,-1.00,-1.0,2369
94,1220094,17060,-632,1028,17102.62,30.46,-1.00,-1.0,2418
97,1220097,17016,-600,912,17050.98,30.60,-1.00,-1.0,2436
100,1220100,17044,-608,972,17082.52,30.55,-1.00,-1.0,2375
103,1220103,16964,-560,876,16995.83,30.51,-1.00,-1.0,2417
105,1220105,17112,-728,1008,17157.12,30.55,-1.00,-1.0,2376
108,1220108,17036,-580,792,17064.26,30.51,-1.00,-1.0,2430
111,1220111,17036,-588,860,17067.82,30.60,-1.00,-1.0,2386
116,1220116,17060,-604,996,17099.72,30.60,-1.00,-1.0,2450
119,1220119,17104,-624,908,17139.45,30.55,-1.00,-1.0,2366
121,1220121,17108,-656,960,17147.47,30.60,-1.00,-1.0,2422
124,1220124,16992,-636,712,17018.80,30.55,-1.00,-1.0,2370
127,1220127,17040,-624,876,17073.91,30.51,-1.00,-1.0,2427
130,1220130,17052,-548,940,17086.68,30.46,-1.00,-1.0,2357
132,1220132,17056,-608,856,17088.29,30.51,-1.00,-1.0,2382
135,1220135,17068,-644,844,17100.98,30.55,-1.00,-1.0,2424
138,1220138,17032,-680,812,17064.90,30.51,-1.00,-1.0,2373
143,1220143,17068,-596,872,17100.65,30.60,-1.00,-1.0,2441
145,1220145,17084,-596,892,17117.65,30.51,-1.00,-1.0,2369
148,1220148,17016,-672,904,17053.24,30.55,-1.00,-1.0,2430
151,1220151,16984,-568,824,17013.46,30.51,-1.00,-1.0,2377
154,1220154,17076,-660,916,17113.28,30.46,-1.00,-1.0,2432
156,1220156,17068,-532,836,17096.74,30.51,-1.00,-1.0,2371
159,1220159,17076,-596,936,17112.02,30.46,-1.00,-1.0,2364
162,1220162,16924,-584,748,16950.59,30.51,-1.00,-1.0,2429
165,1220165,17080,-668,732,17108.72,30.55,-1.00,-1.0,2367
170,1220170,17020,-612,876,17053.51,30.65,-1.00,-1.0,2448
172,1220172,16960,-600,952,16997.29,30.46,-1.00,-1.0,2368
175,1220175,17024,-644,924,17061.22,30.55,-1.00,-1.0,2420
178,1220178,17028,-576,868,17059.84,30.46,-1.00,-1.0,2370
181,1220181,17000,-604,844,17031.65,30.55,-1.00,-1.0,2420
183,1220183,17060,-540,744,17084.75,30.55,-1.00,-1.0,2373
186,1220186,17044,-600,720,17069.75,30.55,-1.00,-1.0,2420
189,1220189,17128,-576,888,17160.67,30.65,-1.00,-1.0,2372
191,1220191,17080,-656,772,17110.02,30.46,-1.00,-1.0,2366
196,1220196,17048,-580,940,17083.74,30.65,-1.00,-1.0,2428
199,1220199,17084,-648,800,17114.99,30.65,-1.00,-1.0,2367
202,1220202,17020,-552,1004,17058.52,30.51,-1.00,-1.0,2428
205,1220205,17120,-756,872,17158.86,30.55,-1.00,-1.0,2369
207,1220207,16964,-528,888,16995.43,30.55,-1.00,-1.0,2420
210,1220210,17136,-552,896,17168.29,30.55,-1.00,-1.0,2371
213,1220213,17060,-632,800,17090.44,30.60,-1.00,-1.0,2427
216,1220216,17176,-580,808,17204.77,30.46,-1.00,-1.0,2369
222,1220222,16956,-628,832,16988.01,30.60,-1.00,-1.0,2441
225,1220225,17060,-588,800,17088.87,30.55,-1.00,-1.0,2368
227,1220227,17048,-568,884,17080.35,30.60,-1.00,-1.0,2368
230,1220230,16996,-496,984,17031.69,30.55,-1.00,-1.0,2434
233,1220233,17016,-632,860,17049.44,30.60,-1.00,-1.0,2366
236,1220236,17036,-536,944,17070.55,30.55,-1.00,-1.0,2427
238,1220238,17016,-636,840,17048.59,30.51,-1.00,-1.0,2370
241,1220241,17088,-544,768,17113.90,30.46,-1.00,-1.0,2433
244,1220244,16972,-604,872,17005.12,30.55,-1.00,-1.0,2381
249,1220249,17012,-584,940,17047.96,30.60,-1.00,-1.0,2441
251,1220251,16976,-608,816,17006.47,30.51,-1.00,-1.0,2366
254,1220254,17052,-552,872,17083.20,30.51,-1.00,-1.0,2419
257,1220257,16960,-504,796,16986.15,30.51,-1.00,-1.0,2370
259,1220259,17112,-604,796,17141.15,30.55,-1.00,-1.0,2370
262,1220262,17020,-604,900,17054.48,30.65,-1.00,-1.0,2415
265,1220265,16984,-524,784,17010.16,30.55,-1.00,-1.0,2377
268,1220268,17076,-688,1032,17120.99,30.65,-1.00,-1.0,2435
270,1220270,17004,-700,860,17040.12,30.65,-1.00,-1.0,2380
275,1220275,17000,-616,968,17038.68,30.55,-1.00,-1.0,2455
278,1220278,17000,-632,860,17033.47,30.46,-1.00,-1.0,2370
281,1220281,17024,-508,824,17051.50,30.65,-1.00,-1.0,2423
284,1220284,17076,-528,1032,17115.30,30.55,-1.00,-1.0,2370
286,1220286,17068,-588,832,17098.38,30.55,-1.00,-1.0,2430
289,1220289,17112,-576,936,17147.26,30.46,-1.00,-1.0,2373
292,1220292,17132,-584,936,17167.49,30.60,-1.00,-1.0,2367
295,1220295,16996,-652,956,17035.35,30.60,-1.00,-1.0,2420
297,1220297,17072,-692,864,17107.85,30.51,-1.00,-1.0,2370
302,1220302,16972,-668,1028,17016.22,30.51,-1.00,-1.0,2447
305,1220305,17156,-604,784,17184.52,30.51,-1.00,-1.0,2354
308,1220308,17056,-620,880,17089.94,30.51,-1.00,-1.0,2421
310,1220310,17096,-720,888,17134.18,30.51,-1.00,-1.0,2373
313,1220313,17168,-664,972,17208.31,30.60,-1.00,-1.0,2420
316,1220316,17044,-568,884,17076.36,30.51,-1.00,-1.0,2360
319,1220319,17084,-584,856,17115.40,30.69,-1.00,-1.0,2422
321,1220321,17100,-612,900,17134.60,30.60,-1.00,-1.0,2378
324,1220324,17012,-656,888,17047.79,30.55,-1.00,-1.0,2366
329,1220329,16936,-648,972,16976.24,30.55,-1.00,-1.0,2441
332,1220332,16948,-596,776,16976.22,30.60,-1.00,-1.0,2370
335,1220335,16940,-584,992,16979.07,30.65,-1.00,-1.0,2419
337,1220337,17136,-668,816,17168.42,30.60,-1.00,-1.0,2370
340,1220340,17088,-544,908,17120.75,30.55,-1.00,-1.0,2420
343,1220343,17040,-580,824,17069.77,30.60,-1.00,-1.0,2370
346,1220346,16904,-604,944,16941.11,30.55,-1.00,-1.0,2420
348,1220348,16932,-620,760,16960.38,30.46,-1.00,-1.0,2369
353,1220353,17120,-704,956,17161.12,30.55,-1.00,-1.0,2442
356,1220356,17036,-644,944,17074.28,30.51,-1.00,-1.0,2368
359,1220359,17104,-568,816,17132.87,30.46,-1.00,-1.0,2365
361,1220361,17064,-712,956,17105.58,30.60,-1.00,-1.0,2435
364,1220364,16976,-592,884,17009.31,30.55,-1.00,-1.0,2370
367,1220367,16964,-640,860,16997.84,30.60,-1.00,-1.0,2427
370,1220370,17020,-580,944,17056.02,30.65,-1.00,-1.0,2370
372,1220372,17068,-708,820,17102.35,30.51,-1.00,-1.0,2430
375,1220375,17008,-604,908,17042.93,30.46,-1.00,-1.0,2378
380,1220380,17112,-560,860,17142.75,30.46,-1.00,-1.0,2441
383,1220383,17096,-572,900,17129.23,30.55,-1.00,-1.0,2375
386,1220386,17012,-696,912,17050.64,30.51,-1.00,-1.0,2427
388,1220388,16992,-596,796,17021.07,30.46,-1.00,-1.0,2370
391,1220391,16992,-636,896,17027.49,30.60,-1.00,-1.0,2370
394,1220394,17028,-604,968,17066.18,30.55,-1.00,-1.0,2422
396,1220396,16980,-696,856,17015.80,30.51,-1.00,-1.0,2368
399,1220399,17036,-592,800,17065.04,30.65,-1.00,-1.0,2420
402,1220402,17100,-588,916,17134.61,30.51,-1.00,-1.0,2373
407,1220407,17028,-648,852,17061.61,30.51,-1.00,-1.0,2446
410,1220410,17144,-592,924,17179.09,30.51,-1.00,-1.0,2372
413,1220413,17000,-724,996,17044.54,30.55,-1.00,-1.0,2423
415,1220415,17008,-628,864,17041.51,30.51,-1.00,-1.0,2377
418,1220418,17020,-612,960,17058.04,30.65,-1.00,-1.0,2375
421,1220421,17008,-600,916,17043.21,30.69,-1.00,-1.0,2420
423,1220423,17128,-604,852,17159.81,30.55,-1.00,-1.0,2371
426,1220426,17076,-632,704,17102.19,30.55,-1.00,-1.0,2420
429,1220429,17036,-572,924,17070.62,30.55,-1.00,-1.0,2370
434,1220434,16940,-652,936,16978.36,30.55,-1.00,-1.0,2464
436,1220436,16944,-648,788,16974.69,30.55,-1.00,-1.0,2371
439,1220439,17064,-592,852,17095.51,30.55,-1.00,-1.0,2420
442,1220442,17124,-616,808,17154.12,30.46,-1.00,-1.0,2373
445,1220445,17020,-532,820,17048.04,30.46,-1.00,-1.0,2427
448,1220448,17036,-560,1024,17075.93,30.55,-1.00,-1.0,2370
450,1220450,17152,-652,896,17187.76,30.55,-1.00,-1.0,2366
453,1220453,17012,-536,1000,17049.79,30.51,-1.00,-1.0,2427
456,1220456,16984,-552,856,17014.51,30.51,-1.00,-1.0,2369
460,1220460,17048,-600,736,17074.43,30.46,-1.00,-1.0,2442
463,1220463,17016,-520,704,17038.49,30.55,-1.00,-1.0,2368
466,1220466,17044,-568,800,17072.22,30.51,-1.00,-1.0,2427
469,1220469,17020,-584,956,17056.83,30.65,-1.00,-1.0,2368
471,1220471,17040,-624,1040,17083.11,30.41,-1.00,-1.0,2422
474,1220474,17096,-664,896,17132.34,30.55,-1.00,-1.0,2358
477,1220477,17016,-568,772,17042.97,30.51,-1.00,-1.0,2427
480,1220480,16964,-584,816,16993.65,30.41,-1.00,-1.0,2369
483,1220483,17080,-552,868,17110.95,30.51,-1.00,-1.0,2365
488,1220488,17036,-652,908,17072.63,30.46,-1.00,-1.0,2441
490,1220490,17080,-632,684,17105.37,30.55,-1.00,-1.0,2367
493,1220493,17068,-580,856,17099.29,30.55,-1.00,-1.0,2419
496,1220496,17008,-580,716,17032.94,30.55,-1.00,-1.0,2370
499,1220499,17060,-588,976,17098.01,30.51,-1.00,-1.0,2419
501,1220501,17080,-532,1024,17118.94,30.55,-1.00,-1.0,2370
504,1220504,17076,-604,964,17113.85,30.65,-1.00,-1.0,2420
507,1220507,17036,-612,892,17070.31,30.55,-1.00,-1.0,2370
512,1220512,17036,-648,936,17073.99,30.55,-1.00,-1.0,2445
514,1220514,17088,-588,932,17123.50,30.46,-1.00,-1.0,2374
517,1220517,17052,-644,860,17085.81,30.55,-1.00,-1.0,2369
520,1220520,16940,-612,752,16967.72,30.60,-1.00,-1.0,2427
523,1220523,17116,-548,876,17147.16,30.51,-1.00,-1.0,2369
525,1220525,17016,-556,860,17046.79,30.55,-1.00,-1.0,2425
528,1220528,17096,-624,1012,17137.29,30.60,-1.00,-1.0,2370
531,1220531,17064,-652,844,17097.30,30.55,-1.00,-1.0,2427
534,1220534,17056,-652,940,17094.32,30.51,-1.00,-1.0,2373
539,1220539,17056,-576,860,17087.38,30.51,-1.00,-1.0,2441
541,1220541,17048,-648,964,17087.53,30.60,-1.00,-1.0,2367
544,1220544,17096,-600,856,17127.93,30.46,-1.00,-1.0,2419
547,1220547,16940,-564,732,16965.19,30.51,-1.00,-1.0,2376
549,1220549,16956,-596,828,16986.66,30.55,-1.00,-1.0,2377
552,1220552,17052,-504,1016,17089.67,30.60,-1.00,-1.0,2420
555,1220555,17028,-584,932,17063.48,30.55,-1.00,-1.0,2371
558,1220558,16976,-628,988,17016.32,30.60,-1.00,-1.0,2421
561,1220561,17020,-576,1056,17062.45,30.46,-1.00,-1.0,2372
566,1220566,17032,-532,888,17063.43,30.55,-1.00,-1.0,2441
568,1220568,17056,-596,840,17087.07,30.69,-1.00,-1.0,2367
571,1220571,17004,-656,772,17034.15,30.46,-1.00,-1.0,2428
574,1220574,17040,-532,792,17066.69,30.51,-1.00,-1.0,2377
577,1220577,16928,-636,856,16961.56,30.46,-1.00,-1.0,2422
579,1220579,17060,-580,848,17090.91,30.55,-1.00,-1.0,2371
582,1220582,17060,-624,940,17097.27,30.55,-1.00,-1.0,2367
585,1220585,16952,-620,864,16985.32,30.60,-1.00,-1.0,2422
588,1220588,17048,-716,952,17089.57,30.55,-1.00,-1.0,2377
593,1220593,17008,-556,784,17035.14,30.55,-1.00,-1.0,2441
595,1220595,17064,-524,940,17097.90,30.55,-1.00,-1.0,2368
598,1220598,17032,-556,960,17068.09,30.55,-1.00,-1.0,2434
601,1220601,17036,-580,872,17068.16,30.46,-1.00,-1.0,2376
604,1220604,16976,-620,836,17007.88,30.51,-1.00,-1.0,2434
606,1220606,17052,-628,912,17087.91,30.46,-1.00,-1.0,2379
609,1220609,17040,-576,832,17070.02,30.60,-1.00,-1.0,2420
612,1220612,16992,-576,796,17020.38,30.55,-1.00,-1.0,2373
615,1220615,17088,-664,980,17128.95,30.51,-1.00,-1.0,2369
620,1220620,17108,-552,900,17140.55,30.55,-1.00,-1.0,2449
622,1220622,17060,-628,924,17096.54,30.55,-1.00,-1.0,2378
625,1220625,17120,-592,744,17146.38,30.51,-1.00,-1.0,2420
628,1220628,17052,-576,1012,17091.71,30.55,-1.00,-1.0,2359
631,1220631,17012,-632,928,17049.01,30.51,-1.00,-1.0,2430
633,1220633,17036,-620,948,17073.62,30.51,-1.00,-1.0,2378
636,1220636,16976,-604,936,17012.51,30.51,-1.00,-1.0,2420
639,1220639,17000,-532,900,17032.12,30.46,-1.00,-1.0,2373
644,1220644,17088,-512,912,17119.98,30.51,-1.00,-1.0,2440
646,1220646,17092,-536,804,17119.29,30.60,-1.00,-1.0,2370
649,1220649,17052,-596,956,17089.17,30.65,-1.00,-1.0,2365
652,1220652,17080,-592,844,17111.08,30.55,-1.00,-1.0,2428
655,1220655,17056,-640,780,17085.82,30.55,-1.00,-1.0,2369
657,1220657,16972,-668,904,17009.18,30.60,-1.00,-1.0,2436
660,1220660,17064,-692,872,17100.27,30.55,-1.00,-1.0,2370
663,1220663,17012,-616,876,17045.67,30.65,-1.00,-1.0,2428
666,1220666,17064,-620,760,17092.16,30.60,-1.00,-1.0,2370
670,1220670,17036,-564,708,17060.03,30.41,-1.00,-1.0,2451
673,1220673,17108,-668,976,17148.83,30.60,-1.00,-1.0,2382
676,1220676,17072,-692,828,17106.07,30.41,-1.00,-1.0,2420
679,1220679,17008,-616,712,17034.04,30.51,-1.00,-1.0,2371
681,1220681,17076,-612,940,17112.80,30.55,-1.00,-1.0,2366
684,1220684,16984,-576,1008,17023.63,30.46,-1.00,-1.0,2420
687,1220687,16988,-608,904,17022.90,30.55,-1.00,-1.0,2370
690,1220690,17144,-588,756,17170.73,30.55,-1.00,-1.0,2428
693,1220693,16976,-660,872,17011.19,30.55,-1.00,-1.0,2368
698,1220698,17016,-576,792,17044.16,30.65,-1.00,-1.0,2441
700,1220700,16912,-548,964,16948.31,30.60,-1.00,-1.0,2354
703,1220703,16996,-528,860,17025.93,30.46,-1.00,-1.0,2420
706,1220706,16976,-476,940,17008.67,30.60,-1.00,-1.0,2372
709,1220709,17080,-628,784,17109.51,30.55,-1.00,-1.0,2422
711,1220711,17064,-700,968,17105.76,30.41,-1.00,-1.0,2360
714,1220714,16964,-596,820,16994.26,30.55,-1.00,-1.0,2366
717,1220717,17072,-604,1088,17117.29,30.55,-1.00,-1.0,2426
720,1220720,17112,-588,848,17143.09,30.55,-1.00,-1.0,2378
725,1220725,17000,-632,896,17035.32,30.55,-1.00,-1.0,2448
728,1220728,17128,-620,968,17166.53,30.65,-1.00,-1.0,2367
730,1220730,16968,-584,768,16995.41,30.55,-1.00,-1.0,2420
733,1220733,17028,-528,852,17057.47,30.55,-1.00,-1.0,2370
736,1220736,16976,-640,904,17012.10,30.55,-1.00,-1.0,2428
739,1220739,17112,-616,848,17144.07,30.55,-1.00,-1.0,2373
741,1220741,17144,-632,884,17178.41,30.51,-1.00,-1.0,2422
744,1220744,16916,-620,688,16941.33,30.46,-1.00,-1.0,2370
747,1220747,17096,-648,964,17135.41,30.65,-1.00,-1.0,2374
752,1220752,17012,-616,992,17052.03,30.55,-1.00,-1.0,2448
755,1220755,17024,-596,832,17054.74,30.65,-1.00,-1.0,2366
757,1220757,17036,-580,956,17072.66,30.60,-1.00,-1.0,2421
760,1220760,16976,-640,748,17004.52,30.55,-1.00,-1.0,2371
763,1220763,17100,-604,824,17130.49,30.55,-1.00,-1.0,2423
766,1220766,17112,-668,836,17145.43,30.55,-1.00,-1.0,2370
768,1220768,17052,-680,868,17087.61,30.51,-1.00,-1.0,2422
771,1220771,17036,-564,784,17063.35,30.46,-1.00,-1.0,2370
774,1220774,17112,-616,880,17145.68,30.46,-1.00,-1.0,2369
779,1220779,17096,-520,888,17126.94,30.55,-1.00,-1.0,2449
782,1220782,17008,-544,868,17038.82,30.51,-1.00,-1.0,2366
784,1220784,16984,-648,816,17015.93,30.60,-1.00,-1.0,2421
787,1220787,16984,-672,836,17017.84,30.60,-1.00,-1.0,2371
790,1220790,17044,-640,844,17076.88,30.51,-1.00,-1.0,2428
793,1220793,17008,-636,728,17035.45,30.60,-1.00,-1.0,2357
795,1220795,17104,-588,764,17131.15,30.51,-1.00,-1.0,2420
798,1220798,17140,-580,868,17171.76,30.51,-1.00,-1.0,2370
803,1220803,16956,-552,960,16992.12,30.51,-1.00,-1.0,2440
806,1220806,17048,-604,928,17083.92,30.55,-1.00,-1.0,2368
808,1220808,17024,-620,948,17061.64,30.60,-1.00,-1.0,2369
811,1220811,17076,-612,944,17113.02,30.46,-1.00,-1.0,2429
814,1220814,17072,-596,972,17110.03,30.51,-1.00,-1.0,2377
817,1220817,16976,-512,880,17006.50,30.65,-1.00,-1.0,2429
819,1220819,17100,-684,804,17132.55,30.60,-1.00,-1.0,2373
822,1220822,16956,-620,880,16990.14,30.55,-1.00,-1.0,2416
825,1220825,16992,-640,904,17028.06,30.55,-1.00,-1.0,2373
830,1220830,17080,-712,852,17116.05,30.55,-1.00,-1.0,2448
833,1220833,16968,-716,908,17007.36,30.60,-1.00,-1.0,2367
835,1220835,17008,-656,844,17041.56,30.55,-1.00,-1.0,2430
838,1220838,17008,-576,852,17039.06,30.60,-1.00,-1.0,2378
841,1220841,17052,-676,1096,17100.55,30.65,-1.00,-1.0,2366
844,1220844,17076,-672,876,17111.65,30.60,-1.00,-1.0,2420
846,1220846,16988,-668,844,17022.06,30.55,-1.00,-1.0,2370
849,1220849,17004,-580,780,17031.76,30.60,-1.00,-1.0,2420
852,1220852,17056,-608,876,17089.30,30.46,-1.00,-1.0,2372
857,1220857,16992,-584,896,17025.62,30.55,-1.00,-1.0,2440
860,1220860,17096,-488,932,17128.34,30.60,-1.00,-1.0,2398
862,1220862,17096,-596,932,17131.76,30.55,-1.00,-1.0,2440
865,1220865,17024,-612,928,17060.26,30.65,-1.00,-1.0,2391
868,1220868,17016,-612,812,17046.35,30.51,-1.00,-1.0,2415
871,1220871,17032,-644,872,17066.46,30.46,-1.00,-1.0,2378
873,1220873,16976,-496,844,17004.20,30.51,-1.00,-1.0,2367
876,1220876,16948,-704,848,16983.80,30.51,-1.00,-1.0,2416
879,1220879,16956,-568,860,16987.29,30.46,-1.00,-1.0,2381
884,1220884,17032,-592,928,17067.53,30.55,-1.00,-1.0,2420
886,1220886,17068,-536,1024,17107.09,30.60,-1.00,-1.0,2377
889,1220889,17016,-576,892,17049.10,30.55,-1.00,-1.0,2447
892,1220892,17012,-728,952,17054.16,30.46,-1.00,-1.0,2383
895,1220895,17012,-672,908,17049.46,30.55,-1.00,-1.0,2427
897,1220897,16996,-572,1052,17038.13,30.46,-1.00,-1.0,2379
900,1220900,17052,-604,844,17083.55,30.51,-1.00,-1.0,2417
903,1220903,16928,-540,932,16962.23,30.41,-1.00,-1.0,2373
906,1220906,17056,-532,896,17087.80,30.51,-1.00,-1.0,2367
911,1220911,17060,-604,684,17084.39,30.55,-1.00,-1.0,2422
914,1220914,17012,-620,960,17050.34,30.55,-1.00,-1.0,2376
917,1220917,16976,-560,904,17009.27,30.60,-1.00,-1.0,2434
919,1220919,17100,-576,832,17129.92,30.55,-1.00,-1.0,2380
922,1220922,17016,-640,1020,17058.55,30.60,-1.00,-1.0,2420
925,1220925,17072,-584,844,17102.82,30.55,-1.00,-1.0,2373
928,1220928,16980,-680,956,17020.48,30.51,-1.00,-1.0,2417
930,1220930,17060,-628,720,17086.73,30.60,-1.00,-1.0,2376
935,1220935,17140,-628,892,17174.68,30.55,-1.00,-1.0,2437
938,1220938,17000,-580,920,17034.75,30.46,-1.00,-1.0,2381
941,1220941,17088,-604,756,17115.38,30.51,-1.00,-1.0,2367
943,1220943,17080,-504,912,17111.76,30.55,-1.00,-1.0,2432
946,1220946,17048,-580,844,17078.73,30.51,-1.00,-1.0,2359
949,1220949,17084,-556,832,17113.28,30.65,-1.00,-1.0,2424
952,1220952,17064,-680,824,17097.41,30.51,-1.00,-1.0,2371
954,1220954,17036,-580,920,17070.68,30.55,-1.00,-1.0,2418
957,1220957,16944,-600,824,16974.63,30.55,-1.00,-1.0,2373
962,1220962,17184,-596,964,17221.33,30.60,-1.00,-1.0,2422
965,1220965,17048,-636,924,17084.86,30.51,-1.00,-1.0,2376
968,1220968,17156,-568,964,17192.45,30.55,-1.00,-1.0,2431
970,1220970,17000,-604,788,17028.97,30.60,-1.00,-1.0,2374
973,1220973,16996,-576,928,17031.06,30.55,-1.00,-1.0,2377
976,1220976,16948,-612,792,16977.53,30.55,-1.00,-1.0,2430
978,1220978,17064,-668,828,17097.13,30.55,-1.00,-1.0,2373
981,1220981,16992,-532,824,17020.28,30.51,-1.00,-1.0,2425
984,1220984,17016,-592,920,17051.13,30.55,-1.00,-1.0,2373
989,1220989,17052,-572,700,17075.95,30.51,-1.00,-1.0,2407
992,1220992,17064,-700,856,17099.79,30.51,-1.00,-1.0,2374
995,1220995,17080,-544,812,17107.94,30.55,-1.00,-1.0,2431
997,1220997,17072,-540,832,17100.79,30.55,-1.00,-1.0,2373
1000,1221000,17052,-640,932,17089.44,30.55,-1.00,-1.0,2418
1003,1221003,17008,-568,900,17041.26,30.60,-1.00,-1.0,2373
1005,1221005,16964,-696,940,17004.27,30.55,-1.00,-1.0,2370
1008,1221008,17052,-544,840,17081.34,30.51,-1.00,-1.0,2430
1011,1221011,17128,-620,864,17160.98,30.55,-1.00,-1.0,2373
1016,1221016,17052,-664,928,17090.14,30.46,-1.00,-1.0,2419
1019,1221019,17040,-552,908,17073.10,30.55,-1.00,-1.0,2374
1022,1221022,17120,-540,940,17154.29,30.55,-1.00,-1.0,2430
1024,1221024,16976,-588,1020,17016.78,30.55,-1.00,-1.0,2372
1027,1221027,17156,-668,952,17195.37,30.55,-1.00,-1.0,2418
1030,1221030,16928,-616,768,16956.61,30.55,-1.00,-1.0,2373
1033,1221033,17056,-616,904,17091.04,30.55,-1.00,-1.0,2418
1035,1221035,17028,-560,996,17066.29,30.65,-1.00,-1.0,2373
1040,1221040,17000,-620,912,17035.73,30.55,-1.00,-1.0,2421
1043,1221043,17076,-612,876,17109.40,30.55,-1.00,-1.0,2375
1046,1221046,17032,-624,744,17059.66,30.46,-1.00,-1.0,2365
1048,1221048,17036,-560,912,17069.58,30.51,-1.00,-1.0,2446
1051,1221051,17088,-672,972,17128.81,30.60,-1.00,-1.0,2381
1054,1221054,17068,-580,876,17100.30,30.60,-1.00,-1.0,2405
1057,1221057,17052,-756,952,17095.28,30.55,-1.00,-1.0,2373
1059,1221059,17096,-580,856,17127.24,30.51,-1.00,-1.0,2428
1062,1221062,17088,-612,892,17122.21,30.51,-1.00,-1.0,2387
1067,1221067,17048,-656,916,17085.19,30.55,-1.00,-1.0,2421
1070,1221070,17044,-536,988,17081.02,30.51,-1.00,-1.0,2379
1073,1221073,17068,-564,948,17103.61,30.55,-1.00,-1.0,2431
1075,1221075,17060,-700,940,17100.21,30.55,-1.00,-1.0,2374
1078,1221078,16944,-616,684,16968.98,30.60,-1.00,-1.0,2375
1081,1221081,17024,-508,864,17053.48,30.51,-1.00,-1.0,2417
1083,1221083,17108,-728,852,17144.67,30.60,-1.00,-1.0,2376
1086,1221086,17072,-580,852,17103.08,30.55,-1.00,-1.0,2427
1089,1221089,17008,-608,808,17038.03,30.55,-1.00,-1.0,2380
1094,1221094,17044,-560,892,17076.51,30.60,-1.00,-1.0,2423
1097,1221097,17024,-552,800,17051.72,30.55,-1.00,-1.0,2374
1099,1221099,17148,-448,952,17180.25,30.60,-1.00,-1.0,2439
1102,1221102,17076,-588,900,17109.81,30.60,-1.00,-1.0,2373
1105,1221105,17032,-588,868,17064.24,30.60,-1.00,-1.0,2426
1108,1221108,17040,-656,816,17072.13,30.51,-1.00,-1.0,2372
1110,1221110,16988,-620,804,17018.31,30.46,-1.00,-1.0,2427
1113,1221113,17124,-640,888,17158.95,30.46,-1.00,-1.0,2375
1116,1221116,17052,-572,840,17082.26,30.55,-1.00,-1.0,2370
1121,1221121,16964,-512,800,16990.57,30.55,-1.00,-1.0,2435
1124,1221124,16956,-520,864,16985.96,30.60,-1.00,-1.0,2382
1127,1221127,17088,-656,980,17128.64,30.55,-1.00,-1.0,2445
1129,1221129,17140,-612,832,17171.09,30.55,-1.00,-1.0,2381
1132,1221132,17040,-704,1024,17085.25,30.55,-1.00,-1.0,2418
1135,1221135,17056,-540,1028,17095.48,30.55,-1.00,-1.0,2361
1138,1221138,17008,-472,776,17032.23,30.55,-1.00,-1.0,2419
1140,1221140,17064,-616,844,17095.96,30.55,-1.00,-1.0,2376
1145,1221145,17056,-528,796,17082.73,30.55,-1.00,-1.0,2428
1148,1221148,17048,-612,1040,17090.65,30.55,-1.00,-1.0,2388
1151,1221151,16964,-584,924,16999.18,30.55,-1.00,-1.0,2432
1154,1221154,17008,-612,892,17042.37,30.65,-1.00,-1.0,2372
1157,1221157,17104,-584,928,17139.11,30.65,-1.00,-1.0,2420
1159,1221159,17040,-512,836,17068.18,30.46,-1.00,-1.0,2375
1162,1221162,17024,-640,828,17056.13,30.60,-1.00,-1.0,2375
1165,1221165,17032,-488,892,17062.32,30.60,-1.00,-1.0,2418
1167,1221167,17092,-556,840,17121.66,30.60,-1.00,-1.0,2373
1172,1221172,17040,-560,968,17076.66,30.60,-1.00,-1.0,2407
1175,1221175,17048,-656,940,17086.49,30.46,-1.00,-1.0,2373
1178,1221178,17036,-616,892,17070.46,30.60,-1.00,-1.0,2439
1181,1221181,17068,-624,904,17103.31,30.55,-1.00,-1.0,2369
1183,1221183,17060,-628,868,17093.61,30.51,-1.00,-1.0,2418
1186,1221186,16964,-520,888,16995.18,30.51,-1.00,-1.0,2372
1189,1221189,17072,-488,824,17098.84,30.51,-1.00,-1.0,2424
1192,1221192,17040,-712,904,17078.81,30.55,-1.00,-1.0,2372
1194,1221194,17056,-748,860,17094.04,30.60,-1.00,-1.0,2366
1199,1221199,16988,-532,972,17024.10,30.60,-1.00,-1.0,2420
1202,1221202,17088,-604,852,17119.88,30.55,-1.00,-1.0,2378
1205,1221205,17008,-632,876,17042.27,30.60,-1.00,-1.0,2440
1208,1221208,17164,-612,1060,17207.59,30.46,-1.00,-1.0,2368
1210,1221210,17048,-620,872,17081.54,30.51,-1.00,-1.0,2421
1213,1221213,17016,-644,892,17051.53,30.41,-1.00,-1.0,2373
1216,1221216,17040,-608,832,17071.13,30.41,-1.00,-1.0,2423
1219,1221219,17044,-612,808,17074.11,30.60,-1.00,-1.0,2372
1224,1221224,17004,-692,932,17043.58,30.55,-1.00,-1.0,2410
1226,1221226,16988,-644,832,17020.55,30.55,-1.00,-1.0,2380
1229,1221229,17084,-644,1060,17128.96,30.60,-1.00,-1.0,2431
1232,1221232,16992,-516,872,17022.18,30.51,-1.00,-1.0,2372
1235,1221235,17004,-608,868,17036.99,30.51,-1.00,-1.0,2417
1237,1221237,17184,-560,960,17219.90,30.60,-1.00,-1.0,2373
1240,1221240,17088,-704,944,17128.53,30.46,-1.00,-1.0,2374
1243,1221243,17016,-652,944,17054.63,30.55,-1.00,-1.0,2420
1245,1221245,17088,-644,888,17123.17,30.46,-1.00,-1.0,2373
1250,1221250,17032,-592,852,17063.57,30.55,-1.00,-1.0,2421
1253,1221253,17156,-548,976,17192.47,30.51,-1.00,-1.0,2373
1256,1221256,17088,-584,956,17124.68,30.65,-1.00,-1.0,2433
1259,1221259,17052,-532,1000,17089.58,30.55,-1.00,-1.0,2371
1261,1221261,16984,-572,792,17012.08,30.55,-1.00,-1.0,2420
1264,1221264,17032,-592,788,17060.49,30.55,-1.00,-1.0,2376
1267,1221267,17136,-624,856,17168.71,30.46,-1.00,-1.0,2424
1270,1221270,17044,-556,860,17074.74,30.55,-1.00,-1.0,2360
1274,1221274,17120,-592,824,17150.04,30.55,-1.00,-1.0,2420
1277,1221277,17044,-572,904,17077.54,30.55,-1.00,-1.0,2374
1280,1221280,17148,-576,872,17179.82,30.41,-1.00,-1.0,2369
1283,1221283,17056,-592,856,17087.72,30.51,-1.00,-1.0,2432
1285,1221285,17016,-748,916,17057.05,30.60,-1.00,-1.0,2375
1288,1221288,17060,-552,1008,17098.67,30.60,-1.00,-1.0,2417
1291,1221291,17080,-716,860,17116.62,30.51,-1.00,-1.0,2373
1294,1221294,17064,-568,968,17100.87,30.55,-1.00,-1.0,2417
1296,1221296,16996,-588,844,17027.10,30.55,-1.00,-1.0,2377
1301,1221301,17016,-560,928,17050.48,30.55,-1.00,-1.0,2421
1304,1221304,17012,-604,1052,17055.20,30.51,-1.00,-1.0,2374
1307,1221307,17044,-688,880,17080.56,30.65,-1.00,-1.0,2431
1309,1221309,17032,-516,876,17062.32,30.46,-1.00,-1.0,2372
1312,1221312,17040,-608,876,17073.33,30.55,-1.00,-1.0,2417
1315,1221315,17052,-580,876,17084.33,30.55,-1.00,-1.0,2373
1317,1221317,16964,-540,964,16999.95,30.55,-1.00,-1.0,2376
1320,1221320,17016,-588,856,17047.66,30.51,-1.00,-1.0,2423
1323,1221323,16932,-604,836,16963.38,30.55,-1.00,-1.0,2382
1328,1221328,17008,-616,844,17040.07,30.46,-1.00,-1.0,2421
1331,1221331,17040,-616,876,17073.62,30.55,-1.00,-1.0,2374
1334,1221334,17104,-588,940,17139.90,30.60,-1.00,-1.0,2441
1337,1221337,17024,-580,936,17059.57,30.60,-1.00,-1.0,2371
1339,1221339,17080,-620,832,17111.49,30.60,-1.00,-1.0,2427
1342,1221342,17016,-560,1056,17057.93,30.51,-1.00,-1.0,2379
1345,1221345,17060,-680,808,17092.65,30.60,-1.00,-1.0,2420
1348,1221348,16944,-636,736,16971.90,30.60,-1.00,-1.0,2379
1353,1221353,17060,-560,844,17090.04,30.51,-1.00,-1.0,2420
1355,1221355,17024,-632,808,17054.88,30.55,-1.00,-1.0,2373
1358,1221358,17036,-580,832,17066.16,30.60,-1.00,-1.0,2369
1361,1221361,17064,-620,924,17100.24,30.55,-1.00,-1.0,2433
1363,1221363,16996,-592,876,17028.85,30.60,-1.00,-1.0,2372
1366,1221366,17084,-600,916,17119.06,30.55,-1.00,-1.0,2417
1369,1221369,17048,-600,940,17084.43,30.55,-1.00,-1.0,2375
1372,1221372,17080,-568,856,17110.87,30.46,-1.00,-1.0,2418
1374,1221374,17068,-708,812,17101.96,30.65,-1.00,-1.0,2371
1379,1221379,16992,-604,944,17028.92,30.51,-1.00,-1.0,2430
1382,1221382,17060,-724,860,17097.00,30.60,-1.00,-1.0,2380
1385,1221385,17048,-720,816,17082.70,30.65,-1.00,-1.0,2432
1388,1221388,16980,-600,944,17016.80,30.60,-1.00,-1.0,2379
1391,1221391,17032,-572,992,17070.45,30.65,-1.00,-1.0,2418
1393,1221393,17104,-532,876,17134.68,30.55,-1.00,-1.0,2376
1396,1221396,16988,-528,860,17017.95,30.55,-1.00,-1.0,2374
1399,1221399,17072,-616,888,17106.17,30.51,-1.00,-1.0,2417
1402,1221402,17044,-524,900,17075.79,30.46,-1.00,-1.0,2375
1406,1221406,16992,-568,888,17024.67,30.55,-1.00,-1.0,2429
1409,1221409,17028,-656,928,17065.88,30.51,-1.00,-1.0,2387
1412,1221412,17060,-600,872,17092.80,30.55,-1.00,-1.0,2432
1415,1221415,16980,-624,896,17015.07,30.65,-1.00,-1.0,2372
1418,1221418,17060,-664,904,17096.83,30.55,-1.00,-1.0,2417
1420,1221420,17096,-604,856,17128.07,30.55,-1.00,-1.0,2376
1423,1221423,17076,-560,1032,17116.32,30.46,-1.00,-1.0,2404
1426,1221426,17140,-588,828,17170.06,30.55,-1.00,-1.0,2374
1431,1221431,17040,-616,876,17073.62,30.55,-1.00,-1.0,2432
1433,1221433,17052,-592,952,17088.81,30.60,-1.00,-1.0,2379
1436,1221436,17148,-624,844,17180.09,30.55,-1.00,-1.0,2366
1439,1221439,17008,-592,1032,17049.56,30.51,-1.00,-1.0,2439
1442,1221442,17072,-696,900,17109.87,30.60,-1.00,-1.0,2371
1444,1221444,17004,-624,932,17040.95,30.51,-1.00,-1.0,2418
1447,1221447,17004,-572,928,17038.91,30.51,-1.00,-1.0,2372
1450,1221450,17052,-556,980,17089.19,30.51,-1.00,-1.0,2423
1453,1221453,17068,-656,856,17102.04,30.51,-1.00,-1.0,2371
1458,1221458,17088,-668,876,17123.47,30.55,-1.00,-1.0,2419
1460,1221460,17076,-616,812,17106.39,30.55,-1.00,-1.0,2361
1463,1221463,16984,-588,856,17015.72,30.51,-1.00,-1.0,2423
1466,1221466,17072,-656,896,17108.08,30.46,-1.00,-1.0,2373
1469,1221469,17020,-656,824,17052.56,30.51,-1.00,-1.0,2424
1471,1221471,17016,-684,748,17046.16,30.46,-1.00,-1.0,2372
1474,1221474,17016,-560,856,17046.72,30.51,-1.00,-1.0,2374
1477,1221477,17028,-668,780,17058.94,30.55,-1.00,-1.0,2420
1480,1221480,17064,-576,808,17092.83,30.51,-1.00,-1.0,2372
1484,1221484,17028,-652,1016,17070.74,30.46,-1.00,-1.0,2420
1487,1221487,17120,-592,768,17147.44,30.51,-1.00,-1.0,2373
1490,1221490,17056,-668,976,17096.96,30.65,-1.00,-1.0,2439
1493,1221493,17060,-612,912,17095.32,30.55,-1.00,-1.0,2372
1495,1221495,17020,-624,912,17055.84,30.55,-1.00,-1.0,2427
1498,1221498,16972,-580,888,17005.11,30.55,-1.00,-1.0,2381
1501,1221501,16976,-588,780,17004.08,30.55,-1.00,-1.0,2407
1504,1221504,17120,-708,852,17155.80,30.55,-1.00,-1.0,2373
1508,1221508,17120,-632,876,17154.04,30.60,-1.00,-1.0,2420
1511,1221511,16956,-640,876,16990.67,30.51,-1.00,-1.0,2374
1514,1221514,17052,-616,904,17087.05,30.55,-1.00,-1.0,2366
1516,1221516,17036,-592,968,17073.75,30.55,-1.00,-1.0,2442
1519,1221519,17056,-588,912,17090.48,30.55,-1.00,-1.0,2381
1522,1221522,17052,-636,980,17091.97,30.55,-1.00,-1.0,2418
1525,1221525,16952,-564,908,16985.67,30.55,-1.00,-1.0,2378
1528,1221528,16948,-600,884,16981.64,30.46,-1.00,-1.0,2420
1531,1221531,17024,-580,936,17059.57,30.55,-1.00,-1.0,2373
1536,1221536,17088,-520,936,17121.51,30.55,-1.00,-1.0,2419
1538,1221538,17052,-688,888,17088.96,30.51,-1.00,-1.0,2373
1541,1221541,17068,-612,904,17102.88,30.55,-1.00,-1.0,2431
1544,1221544,17068,-680,856,17102.97,30.46,-1.00,-1.0,2380
1546,1221546,17072,-572,844,17102.42,30.51,-1.00,-1.0,2373
1549,1221549,17028,-568,940,17063.38,30.60,-1.00,-1.0,2418
1552,1221552,17000,-652,848,17033.62,30.51,-1.00,-1.0,2360
1555,1221555,17008,-644,1000,17049.54,30.60,-1.00,-1.0,2419
1558,1221558,17044,-576,796,17072.30,30.65,-1.00,-1.0,2374
1563,1221563,17020,-572,864,17051.51,30.46,-1.00,-1.0,2419
1565,1221565,17072,-592,884,17105.12,30.65,-1.00,-1.0,2373
1568,1221568,17016,-512,928,17048.98,30.46,-1.00,-1.0,2446
1571,1221571,16968,-524,888,16999.30,30.55,-1.00,-1.0,2379
1574,1221574,17188,-624,928,17224.34,30.60,-1.00,-1.0,2427
1576,1221576,17056,-608,948,17093.14,30.55,-1.00,-1.0,2375
1579,1221579,17104,-676,856,17138.74,30.55,-1.00,-1.0,2411
1582,1221582,17032,-668,780,17062.93,30.46,-1.00,-1.0,2380
1585,1221585,17072,-732,820,17107.35,30.51,-1.00,-1.0,2367
1590,1221590,17004,-636,860,17037.61,30.55,-1.00,-1.0,2421
1592,1221592,17032,-628,948,17069.92,30.55,-1.00,-1.0,2375
1595,1221595,17112,-620,912,17147.50,30.55,-1.00,-1.0,2447
1598,1221598,17040,-700,848,17075.44,30.55,-1.00,-1.0,2384
1601,1221601,16952,-612,1044,16995.14,30.60,-1.00,-1.0,2424
1603,1221603,17072,-616,824,17102.97,30.51,-1.00,-1.0,2379
1606,1221606,17084,-660,952,17123.23,30.60,-1.00,-1.0,2417
1609,1221609,17120,-568,772,17146.81,30.60,-1.00,-1.0,2360
1614,1221614,16920,-592,832,16950.79,30.51,-1.00,-1.0,2426
1617,1221617,17004,-664,840,17037.68,30.55,-1.00,-1.0,2374
1619,1221619,17088,-476,856,17116.05,30.51,-1.00,-1.0,2441
1622,1221622,17044,-564,864,17075.20,30.55,-1.00,-1.0,2380
1625,1221625,17044,-608,892,17078.15,30.46,-1.00,-1.0,2366
1628,1221628,17028,-568,844,17058.36,30.46,-1.00,-1.0,2417
1630,1221630,17064,-560,1068,17106.56,30.65,-1.00,-1.0,2372
1633,1221633,17140,-652,888,17175.37,30.46,-1.00,-1.0,2417
1636,1221636,16988,-540,780,17014.47,30.65,-1.00,-1.0,2373
1641,1221641,16964,-620,976,17003.36,30.60,-1.00,-1.0,2420
1643,1221643,17000,-684,908,17037.97,30.51,-1.00,-1.0,2381
1646,1221646,17012,-636,996,17053.00,30.55,-1.00,-1.0,2432
1649,1221649,17016,-660,896,17052.35,30.46,-1.00,-1.0,2376
1652,1221652,16932,-496,992,16968.29,30.55,-1.00,-1.0,2424
1655,1221655,17108,-696,892,17145.37,30.46,-1.00,-1.0,2371
1657,1221657,17104,-624,920,17140.09,30.46,-1.00,-1.0,2416
1660,1221660,17024,-604,956,17061.52,30.55,-1.00,-1.0,2372
1663,1221663,17012,-600,632,17034.30,30.55,-1.00,-1.0,2367
1668,1221668,17092,-604,860,17124.28,30.60,-1.00,-1.0,2425
1670,1221670,17036,-488,852,17064.27,30.51,-1.00,-1.0,2379
1673,1221673,17016,-624,832,17047.75,30.65,-1.00,-1.0,2432
1676,1221676,17112,-664,972,17152.44,30.60,-1.00,-1.0,2375
1679,1221679,17024,-620,812,17054.63,30.46,-1.00,-1.0,2419
1681,1221681,17036,-604,916,17071.30,30.55,-1.00,-1.0,2372
1684,1221684,17096,-572,892,17128.81,30.55,-1.00,-1.0,2417
1687,1221687,17020,-548,860,17050.52,30.55,-1.00,-1.0,2375
1692,1221692,17028,-704,820,17062.26,30.55,-1.00,-1.0,2440
1695,1221695,16908,-476,880,16937.57,30.65,-1.00,-1.0,2378
1697,1221697,17048,-568,992,17086.28,30.51,-1.00,-1.0,2431
1700,1221700,17032,-588,868,17064.24,30.55,-1.00,-1.0,2371
1703,1221703,16996,-528,1000,17033.58,30.60,-1.00,-1.0,2369
1706,1221706,16984,-712,888,17022.10,30.55,-1.00,-1.0,2407
1708,1221708,17016,-624,844,17048.34,30.60,-1.00,-1.0,2390
1711,1221711,17120,-536,912,17152.65,30.46,-1.00,-1.0,2421
1714,1221714,16992,-572,968,17029.16,30.55,-1.00,-1.0,2367
1719,1221719,17084,-596,824,17114.24,30.55,-1.00,-1.0,2415
1721,1221721,16976,-580,916,17010.59,30.46,-1.00,-1.0,2381
1724,1221724,17044,-708,856,17080.16,30.55,-1.00,-1.0,2429
1727,1221727,17120,-620,900,17154.85,30.55,-1.00,-1.0,2370
1730,1221730,17088,-560,876,17119.60,30.55,-1.00,-1.0,2420
1732,1221732,17124,-600,920,17159.19,30.65,-1.00,-1.0,2375
1735,1221735,17048,-624,916,17083.99,30.55,-1.00,-1.0,2419
1738,1221738,17004,-608,748,17031.30,30.51,-1.00,-1.0,2377
1741,1221741,17020,-524,920,17052.90,30.51,-1.00,-1.0,2374
1746,1221746,17128,-668,912,17165.27,30.46,-1.00,-1.0,2426
1749,1221749,16964,-556,972,17000.92,30.55,-1.00,-1.0,2377
1751,1221751,17100,-544,920,17133.37,30.51,-1.00,-1.0,2428
1754,1221754,17064,-600,872,17096.80,30.46,-1.00,-1.0,2371
1757,1221757,17020,-612,832,17051.31,30.51,-1.00,-1.0,2425
1760,1221760,16984,-672,928,17022.60,30.55,-1.00,-1.0,2371
1762,1221762,17072,-592,896,17105.74,30.51,-1.00,-1.0,2419
1765,1221765,17124,-564,948,17159.49,30.65,-1.00,-1.0,2372
1770,1221770,16992,-664,996,17034.11,30.55,-1.00,-1.0,2426
1773,1221773,17068,-444,832,17094.03,30.55,-1.00,-1.0,2381
1776,1221776,17096,-584,840,17126.58,30.55,-1.00,-1.0,2420
1778,1221778,17004,-696,876,17040.77,30.55,-1.00,-1.0,2374
1781,1221781,17132,-528,984,17168.36,30.60,-1.00,-1.0,2375
1784,1221784,17096,-532,856,17125.68,30.55,-1.00,-1.0,2426
1786,1221786,17036,-492,884,17066.01,30.51,-1.00,-1.0,2373
1789,1221789,17016,-688,992,17058.77,30.46,-1.00,-1.0,2435
1792,1221792,17064,-568,736,17089.31,30.55,-1.00,-1.0,2379
1797,1221797,17060,-568,748,17085.83,30.60,-1.00,-1.0,2433
1800,1221800,16968,-680,800,17000.45,30.51,-1.00,-1.0,2374
1802,1221802,17076,-540,840,17105.17,30.55,-1.00,-1.0,2430
1805,1221805,17120,-676,856,17154.71,30.60,-1.00,-1.0,2372
1808,1221808,17016,-572,852,17046.92,30.55,-1.00,-1.0,2425
1811,1221811,17072,-668,820,17104.73,30.60,-1.00,-1.0,2372
1813,1221813,16948,-652,792,16979.02,30.55,-1.00,-1.0,2435
1816,1221816,17100,-664,956,17139.57,30.60,-1.00,-1.0,2372
1819,1221819,16940,-612,1024,16981.95,30.55,-1.00,-1.0,2375
1824,1221824,17024,-688,876,17060.40,30.55,-1.00,-1.0,2428
1827,1221827,17060,-632,896,17095.20,30.41,-1.00,-1.0,2374
1829,1221829,17140,-596,984,17178.56,30.55,-1.00,-1.0,2445
1832,1221832,17104,-688,844,17138.62,30.55,-1.00,-1.0,2372
1835,1221835,17060,-544,912,17093.02,30.51,-1.00,-1.0,2438
1838,1221838,17136,-640,924,17172.82,30.51,-1.00,-1.0,2368
1841,1221841,17064,-628,836,17096.00,30.55,-1.00,-1.0,2429
1843,1221843,17108,-612,968,17146.29,30.51,-1.00,-1.0,2356
1848,1221848,17052,-684,880,17088.39,30.60,-1.00,-1.0,2429
1851,1221851,17052,-636,708,17078.54,30.55,-1.00,-1.0,2359
1854,1221854,16996,-624,808,17026.63,30.51,-1.00,-1.0,2431
1856,1221856,17016,-568,808,17044.64,30.60,-1.00,-1.0,2376
1859,1221859,17052,-628,912,17087.91,30.55,-1.00,-1.0,2366
1862,1221862,17028,-700,896,17065.92,30.55,-1.00,-1.0,2431
1865,1221865,17060,-580,840,17090.51,30.55,-1.00,-1.0,2369
1867,1221867,17052,-660,812,17084.08,30.55,-1.00,-1.0,2429
1870,1221870,17048,-604,768,17075.98,30.55,-1.00,-1.0,2371
1875,1221875,17024,-536,948,17058.80,30.51,-1.00,-1.0,2428
1878,1221878,17100,-628,1028,17142.38,30.60,-1.00,-1.0,2377
1881,1221881,17052,-520,888,17083.02,30.55,-1.00,-1.0,2418
1883,1221883,16984,-620,844,17016.26,30.51,-1.00,-1.0,2370
1886,1221886,17168,-572,828,17197.47,30.46,-1.00,-1.0,2422
1889,1221889,17080,-584,996,17118.98,30.51,-1.00,-1.0,2372
1892,1221892,17120,-632,888,17154.66,30.55,-1.00,-1.0,2409
1894,1221894,17040,-576,812,17069.06,30.60,-1.00,-1.0,2370
1897,1221897,17088,-528,908,17120.25,30.51,-1.00,-1.0,2370
1902,1221902,17028,-604,896,17062.25,30.60,-1.00,-1.0,2429
1905,1221905,17076,-580,808,17104.94,30.60,-1.00,-1.0,2373
1907,1221907,17072,-600,916,17107.08,30.55,-1.00,-1.0,2426
1910,1221910,17168,-648,980,17208.15,30.51,-1.00,-1.0,2369
1913,1221913,17104,-644,764,17133.16,30.55,-1.00,-1.0,2436
1916,1221916,17084,-560,968,17120.56,30.46,-1.00,-1.0,2368
1918,1221918,17004,-568,912,17037.91,30.55,-1.00,-1.0,2422
1921,1221921,17072,-696,808,17105.28,30.55,-1.00,-1.0,2372
1926,1221926,17056,-600,896,17090.05,30.51,-1.00,-1.0,2436
1928,1221928,16996,-564,896,17028.94,30.51,-1.00,-1.0,2383
1931,1221931,17092,-648,1000,17133.49,30.51,-1.00,-1.0,2430
1934,1221934,17124,-572,956,17160.20,30.51,-1.00,-1.0,2357
1937,1221937,16968,-612,784,16997.12,30.55,-1.00,-1.0,2368
1939,1221939,17052,-552,836,17081.40,30.46,-1.00,-1.0,2424
1942,1221942,17052,-600,824,17082.44,30.46,-1.00,-1.0,2369
1945,1221945,17032,-616,884,17066.05,30.46,-1.00,-1.0,2422
1948,1221948,17072,-500,936,17104.95,30.55,-1.00,-1.0,2370
1953,1221953,17088,-584,1008,17127.66,30.46,-1.00,-1.0,2428
1956,1221956,17024,-620,764,17052.41,30.60,-1.00,-1.0,2376
1959,1221959,17080,-624,832,17111.63,30.55,-1.00,-1.0,2431
1961,1221961,16972,-604,852,17004.10,30.46,-1.00,-1.0,2369
1964,1221964,17020,-532,928,17053.58,30.55,-1.00,-1.0,2424
1967,1221967,17060,-468,912,17090.77,30.46,-1.00,-1.0,2368
1970,1221970,17016,-604,912,17051.12,30.55,-1.00,-1.0,2423
1972,1221972,17120,-640,924,17156.86,30.55,-1.00,-1.0,2369
1975,1221975,17044,-556,932,17078.52,30.55,-1.00,-1.0,2368
1980,1221980,17004,-580,920,17038.74,30.55,-1.00,-1.0,2428
1983,1221983,17020,-660,816,17052.33,30.55,-1.00,-1.0,2373
1986,1221986,17140,-620,876,17173.57,30.55,-1.00,-1.0,2431
1988,1221988,17032,-452,784,17056.03,30.65,-1.00,-1.0,2369
1991,1221991,17088,-616,868,17121.12,30.55,-1.00,-1.0,2422
1994,1221994,17008,-604,892,17042.08,30.55,-1.00,-1.0,2369
1997,1221997,17080,-604,900,17114.36,30.46,-1.00,-1.0,2408
1999,1221999,17088,-672,888,17124.25,30.55,-1.00,-1.0,2370
2004,1222004,17116,-692,832,17150.18,30.55,-1.00,-1.0,2429
2007,1222007,17024,-652,880,17059.19,30.51,-1.00,-1.0,2360
2010,1222010,17060,-616,844,17091.97,30.55,-1.00,-1.0,2431
2012,1222012,17008,-620,848,17040.41,30.55,-1.00,-1.0,2371
2015,1222015,17028,-588,844,17059.04,30.55,-1.00,-1.0,2367
2018,1222018,17096,-592,868,17128.25,30.51,-1.00,-1.0,2430
2021,1222021,17000,-680,912,17038.02,30.55,-1.00,-1.0,2356
2023,1222023,17072,-632,828,17103.75,30.51,-1.00,-1.0,2423
2026,1222026,17056,-720,828,17091.26,30.41,-1.00,-1.0,2370
2031,1222031,17036,-628,820,17067.28,30.51,-1.00,-1.0,2428
2034,1222034,17148,-572,860,17179.08,30.55,-1.00,-1.0,2373
2037,1222037,17024,-660,848,17057.88,30.60,-1.00,-1.0,2431
2039,1222039,17108,-536,980,17144.43,30.51,-1.00,-1.0,2371
2042,1222042,16952,-612,988,16991.79,30.51,-1.00,-1.0,2422
2045,1222045,17108,-684,948,17147.89,30.55,-1.00,-1.0,2377
2048,1222048,16976,-628,980,17015.86,30.60,-1.00,-1.0,2422
2050,1222050,17052,-628,772,17081.02,30.60,-1.00,-1.0,2370
2053,1222053,17008,-644,976,17048.15,30.60,-1.00,-1.0,2375
2058,1222058,17036,-656,864,17070.50,30.51,-1.00,-1.0,2428
2061,1222061,17080,-608,856,17112.24,30.46,-1.00,-1.0,2381
2064,1222064,17068,-592,948,17104.55,30.60,-1.00,-1.0,2431
2066,1222066,17072,-596,876,17104.85,30.51,-1.00,-1.0,2372
2069,1222069,16980,-516,868,17010.00,30.55,-1.00,-1.0,2438
2072,1222072,17100,-608,816,17130.25,30.60,-1.00,-1.0,2378
2075,1222075,17012,-548,852,17042.13,30.46,-1.00,-1.0,2434
2077,1222077,16904,-652,928,16942.00,30.51,-1.00,-1.0,2371
2082,1222082,17148,-560,692,17171.09,30.60,-1.00,-1.0,2429
2085,1222085,16924,-616,928,16960.61,30.60,-1.00,-1.0,2374
2088,1222088,16996,-660,788,17027.05,30.55,-1.00,-1.0,2434
2091,1222091,17036,-616,832,17067.42,30.60,-1.00,-1.0,2370
2093,1222093,17088,-560,952,17123.66,30.55,-1.00,-1.0,2369
2096,1222096,17108,-504,840,17136.02,30.51,-1.00,-1.0,2428
2099,1222099,17060,-660,992,17101.56,30.55,-1.00,-1.0,2370
2102,1222102,17148,-564,764,17174.27,30.60,-1.00,-1.0,2423
2104,1222104,17032,-664,800,17063.70,30.55,-1.00,-1.0,2374
2109,1222109,16972,-644,932,17009.77,30.60,-1.00,-1.0,2428
2112,1222112,16996,-688,920,17034.78,30.55,-1.00,-1.0,2373
2115,1222115,17020,-616,972,17058.86,30.69,-1.00,-1.0,2431
2117,1222117,17104,-576,816,17133.14,30.60,-1.00,-1.0,2371
2120,1222120,16960,-564,928,16994.73,30.60,-1.00,-1.0,2422
2123,1222123,16956,-616,884,16990.20,30.55,-1.00,-1.0,2369
2126,1222126,17072,-568,876,17103.89,30.60,-1.00,-1.0,2409
2128,1222128,17028,-600,900,17062.32,30.41,-1.00,-1.0,2369
2131,1222131,17060,-588,932,17095.55,30.55,-1.00,-1.0,2371
2136,1222136,17100,-604,860,17132.26,30.65,-1.00,-1.0,2435
2139,1222139,17036,-588,836,17066.63,30.60,-1.00,-1.0,2372
2141,1222141,17152,-572,880,17184.08,30.46,-1.00,-1.0,2443
2144,1222144,17084,-740,972,17127.62,30.65,-1.00,-1.0,2369
2147,1222147,17020,-576,896,17053.30,30.55,-1.00,-1.0,2432
2150,1222150,17012,-604,840,17043.43,30.46,-1.00,-1.0,2374
2152,1222152,17008,-616,860,17040.87,30.55,-1.00,-1.0,2430
2155,1222155,16952,-616,880,16986.00,30.51,-1.00,-1.0,2370
2160,1222160,16980,-620,880,17014.09,30.60,-1.00,-1.0,2439
2163,1222163,17052,-540,1020,17091.01,30.55,-1.00,-1.0,2376
2166,1222166,17048,-624,856,17080.88,30.55,-1.00,-1.0,2439
2168,1222168,17092,-572,912,17125.87,30.60,-1.00,-1.0,2376
2171,1222171,17140,-632,972,17179.17,30.60,-1.00,-1.0,2366
2174,1222174,17108,-572,924,17142.48,30.55,-1.00,-1.0,2412
2177,1222177,17040,-600,832,17070.85,30.60,-1.00,-1.0,2369
2179,1222179,17088,-752,1072,17138.10,30.55,-1.00,-1.0,2423
2182,1222182,17000,-640,844,17032.97,30.51,-1.00,-1.0,2373
2187,1222187,17044,-696,932,17083.65,30.51,-1.00,-1.0,2428
2190,1222190,17044,-536,960,17079.43,30.51,-1.00,-1.0,2374
2193,1222193,17048,-680,828,17081.64,30.51,-1.00,-1.0,2430
2195,1222195,16956,-616,920,16992.11,30.51,-1.00,-1.0,2371
2198,1222198,17012,-592,888,17045.44,30.69,-1.00,-1.0,2422
2201,1222201,17136,-616,880,17169.63,30.60,-1.00,-1.0,2373
2204,1222204,17080,-604,928,17115.85,30.51,-1.00,-1.0,2421
2207,1222207,16980,-580,912,17014.36,30.60,-1.00,-1.0,2372
2209,1222209,17132,-632,848,17164.61,30.60,-1.00,-1.0,2367
2214,1222214,17080,-668,948,17119.33,30.41,-1.00,-1.0,2428
2217,1222217,16972,-592,868,17004.49,30.51,-1.00,-1.0,2374
2220,1222220,17088,-660,756,17117.44,30.51,-1.00,-1.0,2430
2222,1222222,17080,-684,956,17120.40,30.51,-1.00,-1.0,2356
2225,1222225,17016,-696,732,17045.95,30.55,-1.00,-1.0,2423
2228,1222228,17072,-576,928,17106.90,30.51,-1.00,-1.0,2372
2231,1222231,17040,-632,768,17069.00,30.55,-1.00,-1.0,2423
2234,1222234,16956,-652,748,16985.01,30.60,-1.00,-1.0,2372
2238,1222238,17120,-596,908,17154.42,30.51,-1.00,-1.0,2436
2241,1222241,17024,-568,928,17058.73,30.60,-1.00,-1.0,2389
2244,1222244,17028,-556,780,17054.92,30.51,-1.00,-1.0,2433
2247,1222247,17104,-488,852,17132.16,30.51,-1.00,-1.0,2370
2249,1222249,16964,-544,720,16987.98,30.55,-1.00,-1.0,2354
2252,1222252,16956,-624,916,16992.19,30.55,-1.00,-1.0,2423
2255,1222255,17040,-584,860,17071.68,30.46,-1.00,-1.0,2368
2258,1222258,16984,-592,924,17019.42,30.55,-1.00,-1.0,2409
2260,1222260,17196,-548,932,17229.96,30.65,-1.00,-1.0,2372
2265,1222265,17012,-628,952,17050.19,30.46,-1.00,-1.0,2428
2268,1222268,16944,-628,848,16976.83,30.55,-1.00,-1.0,2361
2271,1222271,17112,-656,796,17143.06,30.55,-1.00,-1.0,2438
2274,1222274,17040,-596,844,17071.30,30.46,-1.00,-1.0,2367
2276,1222276,17020,-592,848,17051.39,30.65,-1.00,-1.0,2425
2279,1222279,17084,-592,896,17117.72,30.55,-1.00,-1.0,2370
2282,1222282,17044,-620,944,17081.38,30.55,-1.00,-1.0,2429
2285,1222285,17012,-592,860,17044.01,30.65,-1.00,-1.0,2368
2287,1222287,17108,-608,888,17141.82,30.51,-1.00,-1.0,2368
2292,1222292,16984,-640,736,17011.98,30.55,-1.00,-1.0,2429
2295,1222295,17008,-612,824,17038.94,30.55,-1.00,-1.0,2373
2298,1222298,17136,-712,896,17174.17,30.60,-1.00,-1.0,2432
2301,1222301,16924,-676,848,16958.71,30.55,-1.00,-1.0,2368
2303,1222303,17080,-692,860,17115.63,30.60,-1.00,-1.0,2423
2306,1222306,16964,-576,888,16996.99,30.55,-1.00,-1.0,2370
2309,1222309,17012,-556,876,17043.61,30.51,-1.00,-1.0,2439
2312,1222312,16928,-600,712,16953.59,30.46,-1.00,-1.0,2355
2316,1222316,17008,-592,700,17032.69,30.51,-1.00,-1.0,2429
2319,1222319,17056,-600,932,17091.98,30.55,-1.00,-1.0,2374
2322,1222322,17016,-572,928,17050.88,30.51,-1.00,-1.0,2369
2325,1222325,17020,-644,824,17052.10,30.46,-1.00,-1.0,2432
2327,1222327,17044,-604,972,17082.38,30.55,-1.00,-1.0,2377
2330,1222330,17072,-692,792,17104.37,30.51,-1.00,-1.0,2450
2333,1222333,17040,-660,868,17074.85,30.60,-1.00,-1.0,2378
2336,1222336,17016,-660,1028,17059.80,30.46,-1.00,-1.0,2439
2338,1222338,17044,-572,812,17072.92,30.51,-1.00,-1.0,2379
2343,1222343,17048,-532,880,17078.98,30.60,-1.00,-1.0,2428
2346,1222346,17020,-564,876,17051.86,30.51,-1.00,-1.0,2375
2349,1222349,17008,-668,920,17045.96,30.41,-1.00,-1.0,2430
2351,1222351,17060,-612,904,17094.89,30.60,-1.00,-1.0,2368
2354,1222354,16964,-592,904,16998.38,30.60,-1.00,-1.0,2422
2357,1222357,17032,-572,872,17063.90,30.60,-1.00,-1.0,2377
2359,1222359,17020,-560,1052,17061.67,30.46,-1.00,-1.0,2374
2363,1222363,17056,-604,824,17086.57,30.55,-1.00,-1.0,2410
2365,1222365,16968,-584,924,17003.17,30.55,-1.00,-1.0,2374
2370,1222370,17044,-552,788,17071.13,30.55,-1.00,-1.0,2437
2373,1222373,16960,-592,824,16990.32,30.51,-1.00,-1.0,2374
2376,1222376,17140,-604,756,17167.29,30.46,-1.00,-1.0,2430
2379,1222379,17120,-536,876,17150.78,30.51,-1.00,-1.0,2364
2381,1222381,17032,-624,816,17062.95,30.55,-1.00,-1.0,2432
2384,1222384,17016,-568,852,17046.78,30.55,-1.00,-1.0,2380
2387,1222387,17116,-592,1000,17155.40,30.46,-1.00,-1.0,2422
2390,1222390,17132,-592,904,17166.04,30.46,-1.00,-1.0,2368
2395,1222395,17020,-600,912,17054.97,30.51,-1.00,-1.0,2426
2397,1222397,17072,-664,848,17105.94,30.60,-1.00,-1.0,2371
2400,1222400,17008,-596,904,17042.43,30.55,-1.00,-1.0,2444
2403,1222403,17120,-664,1020,17163.21,30.51,-1.00,-1.0,2376
2405,1222405,17048,-560,916,17081.77,30.55,-1.00,-1.0,2351
2408,1222408,17008,-616,896,17042.72,30.60,-1.00,-1.0,2421
2411,1222411,17020,-624,828,17051.55,30.46,-1.00,-1.0,2372
2414,1222414,17068,-564,788,17095.49,30.51,-1.00,-1.0,2421
2417,1222417,17108,-568,896,17140.86,30.46,-1.00,-1.0,2369
2422,1222422,17064,-632,844,17096.54,30.46,-1.00,-1.0,2430
2424,1222424,16976,-596,800,17005.29,30.55,-1.00,-1.0,2374
2427,1222427,17012,-644,928,17049.46,30.51,-1.00,-1.0,2429
2430,1222430,17120,-700,960,17161.18,30.46,-1.00,-1.0,2368
2433,1222433,16992,-616,932,17028.69,30.46,-1.00,-1.0,2421
2435,1222435,17048,-560,908,17081.35,30.55,-1.00,-1.0,2369
2438,1222438,17000,-672,848,17034.40,30.51,-1.00,-1.0,2421
2441,1222441,16984,-636,880,17018.67,30.46,-1.00,-1.0,2375
2444,1222444,17052,-520,912,17084.29,30.51,-1.00,-1.0,2367
2449,1222449,16960,-704,852,16995.97,30.55,-1.00,-1.0,2427
2451,1222451,17056,-616,912,17091.47,30.65,-1.00,-1.0,2375
2454,1222454,17036,-616,828,17067.23,30.51,-1.00,-1.0,2429
2457,1222457,17076,-656,916,17113.13,30.51,-1.00,-1.0,2367
2460,1222460,16984,-532,804,17011.34,30.60,-1.00,-1.0,2422
2462,1222462,16988,-600,920,17023.47,30.51,-1.00,-1.0,2369
2465,1222465,17136,-568,900,17169.02,30.60,-1.00,-1.0,2420
2468,1222468,17040,-532,732,17064.01,30.51,-1.00,-1.0,2367
2473,1222473,17084,-576,828,17113.75,30.60,-1.00,-1.0,2430
2475,1222475,16952,-624,848,16984.66,30.55,-1.00,-1.0,2380
2478,1222478,17080,-612,980,17119.04,30.60,-1.00,-1.0,2365
2481,1222481,17072,-568,900,17105.14,30.55,-1.00,-1.0,2437
2484,1222484,17012,-620,988,17051.94,30.65,-1.00,-1.0,2368
2486,1222486,17124,-656,840,17157.14,30.55,-1.00,-1.0,2424
2489,1222489,17044,-616,1012,17085.13,30.46,-1.00,-1.0,2369
2492,1222492,17028,-680,948,17067.92,30.55,-1.00,-1.0,2429
2495,1222495,17048,-612,776,17076.62,30.55,-1.00,-1.0,2369
2500,1222500,16996,-680,828,17029.74,30.60,-1.00,-1.0,2427
2502,1222502,17068,-568,900,17101.15,30.60,-1.00,-1.0,2373
2505,1222505,16992,-532,908,17024.56,30.55,-1.00,-1.0,2430
2508,1222508,17068,-504,928,17100.64,30.41,-1.00,-1.0,2368
2511,1222511,17064,-624,776,17093.03,30.46,-1.00,-1.0,2425
2513,1222513,17016,-644,956,17055.00,30.55,-1.00,-1.0,2369
2516,1222516,17120,-640,852,17153.13,30.55,-1.00,-1.0,2373
2519,1222519,16992,-560,732,17016.98,30.51,-1.00,-1.0,2432
2522,1222522,17068,-732,856,17105.12,30.55,-1.00,-1.0,2368
2527,1222527,17008,-584,924,17043.09,30.55,-1.00,-1.0,2428
2530,1222530,17112,-640,932,17149.31,30.55,-1.00,-1.0,2381
2533,1222533,17064,-620,792,17093.62,30.51,-1.00,-1.0,2442
2535,1222535,17092,-608,972,17130.41,30.65,-1.00,-1.0,2374
2538,1222538,17008,-576,932,17043.25,30.60,-1.00,-1.0,2430
2541,1222541,16996,-644,952,17034.82,30.60,-1.00,-1.0,2377
2544,1222544,17092,-628,816,17122.99,30.60,-1.00,-1.0,2435
2546,1222546,17024,-536,1088,17067.15,30.46,-1.00,-1.0,2378
2551,1222551,17028,-580,1052,17070.32,30.60,-1.00,-1.0,2434
2554,1222554,16976,-576,736,17001.71,30.55,-1.00,-1.0,2384
2557,1222557,16924,-588,1016,16964.66,30.51,-1.00,-1.0,2442
2559,1222559,17028,-500,860,17057.03,30.55,-1.00,-1.0,2378
2562,1222562,16984,-604,1044,17026.77,30.46,-1.00,-1.0,2365
2565,1222565,17064,-604,984,17103.02,30.46,-1.00,-1.0,2429
2568,1222568,16968,-544,916,17001.41,30.55,-1.00,-1.0,2367
2570,1222570,17048,-528,792,17074.55,30.46,-1.00,-1.0,2422
2573,1222573,17032,-564,940,17067.24,30.55,-1.00,-1.0,2369
2578,1222578,17016,-540,832,17044.88,30.51,-1.00,-1.0,2428
2581,1222581,17044,-604,892,17078.01,30.60,-1.00,-1.0,2374
2584,1222584,17104,-636,948,17142.05,30.55,-1.00,-1.0,2429
2586,1222586,17036,-592,996,17075.36,30.60,-1.00,-1.0,2372
2589,1222589,17172,-632,872,17205.74,30.55,-1.00,-1.0,2421
2592,1222592,17080,-568,996,17118.44,30.51,-1.00,-1.0,2369
2595,1222595,17064,-604,896,17098.18,30.65,-1.00,-1.0,2421
2597,1222597,17052,-644,896,17087.66,30.51,-1.00,-1.0,2369
2600,1222600,16992,-620,828,17023.46,30.55,-1.00,-1.0,2375
2605,1222605,16956,-552,892,16988.42,30.55,-1.00,-1.0,2427
2608,1222608,17060,-556,636,17080.90,30.55,-1.00,-1.0,2372
2610,1222610,17040,-588,716,17065.17,30.55,-1.00,-1.0,2429
2613,1222613,16984,-640,976,17024.05,30.55,-1.00,-1.0,2369
2616,1222616,17064,-752,764,17097.64,30.55,-1.00,-1.0,2429
2619,1222619,17068,-540,888,17099.61,30.55,-1.00,-1.0,2368
2621,1222621,17012,-660,772,17042.29,30.55,-1.00,-1.0,2423
2624,1222624,17080,-604,972,17118.29,30.55,-1.00,-1.0,2369
2629,1222629,17036,-564,796,17063.91,30.46,-1.00,-1.0,2427
2632,1222632,17052,-688,848,17086.93,30.55,-1.00,-1.0,2374
2635,1222635,16964,-560,1000,17002.67,30.46,-1.00,-1.0,2429
2637,1222637,17056,-532,808,17083.41,30.46,-1.00,-1.0,2369
2640,1222640,17032,-576,876,17064.24,30.51,-1.00,-1.0,2374
2643,1222643,16932,-632,1096,16979.20,30.51,-1.00,-1.0,2421
2645,1222645,16952,-616,940,16989.21,30.55,-1.00,-1.0,2372
2648,1222648,17044,-596,796,17072.98,30.60,-1.00,-1.0,2437
2651,1222651,16972,-480,1012,17008.92,30.51,-1.00,-1.0,2379
2656,1222656,17044,-512,904,17075.63,30.51,-1.00,-1.0,2434
2659,1222659,17060,-620,820,17090.95,30.55,-1.00,-1.0,2372
2661,1222661,17060,-552,876,17091.39,30.51,-1.00,-1.0,2429
2664,1222664,17048,-492,960,17082.10,30.60,-1.00,-1.0,2370
2667,1222667,17092,-624,856,17124.79,30.51,-1.00,-1.0,2429
2670,1222670,17096,-632,748,17124.02,30.60,-1.00,-1.0,2355
2672,1222672,17116,-644,936,17153.67,30.51,-1.00,-1.0,2421
2675,1222675,17056,-504,852,17084.70,30.51,-1.00,-1.0,2369
2678,1222678,17048,-616,824,17079.01,30.55,-1.00,-1.0,2367
2683,1222683,16956,-644,836,16988.81,30.55,-1.00,-1.0,2432
2685,1222685,17108,-724,808,17142.37,30.55,-1.00,-1.0,2381
2688,1222688,16984,-620,804,17014.32,30.46,-1.00,-1.0,2429
2691,1222691,17048,-668,884,17083.97,30.55,-1.00,-1.0,2373
2694,1222694,17076,-620,892,17110.52,30.46,-1.00,-1.0,2424
2696,1222696,17076,-632,944,17113.75,30.65,-1.00,-1.0,2370
2699,1222699,17068,-640,904,17103.90,30.55,-1.00,-1.0,2422
2702,1222702,16912,-544,932,16946.39,30.55,-1.00,-1.0,2371
2707,1222707,16884,-572,952,16920.49,30.55,-1.00,-1.0,2431
2710,1222710,17040,-604,836,17071.18,30.46,-1.00,-1.0,2376
2713,1222713,16988,-628,964,17026.91,30.65,-1.00,-1.0,2436
2715,1222715,17056,-700,880,17093.03,30.55,-1.00,-1.0,2376
2718,1222718,17028,-580,960,17064.90,30.51,-1.00,-1.0,2367
2721,1222721,17000,-564,768,17026.68,30.51,-1.00,-1.0,2421
2723,1222723,16976,-680,844,17010.56,30.60,-1.00,-1.0,2369
2726,1222726,16912,-588,956,16949.20,30.51,-1.00,-1.0,2421
2729,1222729,17068,-732,668,17096.74,30.51,-1.00,-1.0,2375
2734,1222734,17064,-664,792,17095.27,30.41,-1.00,-1.0,2428
2736,1222736,17140,-664,812,17172.07,30.51,-1.00,-1.0,2371
2739,1222739,17008,-604,960,17045.78,30.55,-1.00,-1.0,2436
2742,1222742,17064,-632,920,17100.46,30.60,-1.00,-1.0,2372
2745,1222745,17032,-544,784,17058.71,30.37,-1.00,-1.0,2424
2747,1222747,16964,-568,948,16999.96,30.60,-1.00,-1.0,2371
2750,1222750,17004,-672,892,17040.63,30.46,-1.00,-1.0,2435
2753,1222753,17036,-520,912,17068.32,30.46,-1.00,-1.0,2377
2756,1222756,17060,-544,892,17091.96,30.51,-1.00,-1.0,2373
2761,1222761,17072,-560,932,17106.59,30.60,-1.00,-1.0,2430
2763,1222763,17140,-540,936,17174.03,30.55,-1.00,-1.0,2375
2766,1222766,17056,-672,820,17088.92,30.60,-1.00,-1.0,2417
2769,1222769,16980,-656,748,17009.12,30.60,-1.00,-1.0,2368
2772,1222772,17032,-668,992,17073.94,30.60,-1.00,-1.0,2421
2774,1222774,17024,-596,920,17059.26,30.46,-1.00,-1.0,2369
2777,1222777,17148,-560,900,17180.73,30.51,-1.00,-1.0,2408
2780,1222780,17104,-572,912,17137.85,30.55,-1.00,-1.0,2379
2785,1222785,17140,-524,876,17170.37,30.55,-1.00,-1.0,2436
2788,1222788,17152,-640,832,17184.09,30.41,-1.00,-1.0,2372
2790,1222790,16932,-680,736,16961.62,30.55,-1.00,-1.0,2381
2793,1222793,17012,-564,1112,17057.63,30.55,-1.00,-1.0,2457
2796,1222796,17032,-660,888,17067.90,30.55,-1.00,-1.0,2378
2799,1222799,17008,-604,860,17040.44,30.55,-1.00,-1.0,2437
2801,1222801,17132,-680,964,17172.57,30.55,-1.00,-1.0,2375
2804,1222804,17112,-496,936,17144.76,30.55,-1.00,-1.0,2431
2807,1222807,17072,-528,904,17104.07,30.55,-1.00,-1.0,2377
2812,1222812,17016,-584,964,17053.29,30.55,-1.00,-1.0,2435
2815,1222815,17044,-564,868,17075.40,30.55,-1.00,-1.0,2369
2817,1222817,17072,-632,924,17108.66,30.55,-1.00,-1.0,2450
2820,1222820,17040,-628,860,17073.24,30.55,-1.00,-1.0,2377
2823,1222823,17020,-676,800,17052.20,30.51,-1.00,-1.0,2411
2826,1222826,17092,-532,860,17121.89,30.55,-1.00,-1.0,2374
2828,1222828,17028,-648,884,17063.24,30.60,-1.00,-1.0,2367
2831,1222831,17072,-564,992,17110.10,30.55,-1.00,-1.0,2424
2834,1222834,17044,-608,952,17081.39,30.60,-1.00,-1.0,2375
2839,1222839,16928,-536,984,16965.04,30.55,-1.00,-1.0,2435
2842,1222842,16968,-660,980,17009.09,30.55,-1.00,-1.0,2368
2844,1222844,17108,-568,872,17139.62,30.69,-1.00,-1.0,2445
2847,1222847,17072,-568,936,17107.07,30.55,-1.00,-1.0,2385
2850,1222850,17104,-580,868,17135.83,30.60,-1.00,-1.0,2428
2853,1222853,17124,-536,972,17159.94,30.60,-1.00,-1.0,2368
2856,1222856,17068,-608,876,17101.28,30.51,-1.00,-1.0,2423
2858,1222858,16996,-632,932,17033.26,30.46,-1.00,-1.0,2376
2863,1222863,17012,-580,760,17038.84,30.55,-1.00,-1.0,2442
2866,1222866,17092,-616,772,17120.51,30.55,-1.00,-1.0,2377
2868,1222868,17040,-688,876,17076.37,30.60,-1.00,-1.0,2351
2871,1222871,17004,-572,856,17035.14,30.55,-1.00,-1.0,2423
2874,1222874,17068,-652,944,17106.52,30.41,-1.00,-1.0,2370
2877,1222877,17072,-556,784,17099.04,30.46,-1.00,-1.0,2417
2879,1222879,16968,-656,784,16998.77,30.51,-1.00,-1.0,2363
2882,1222882,17088,-556,740,17113.05,30.55,-1.00,-1.0,2418
2885,1222885,17028,-584,960,17065.04,30.60,-1.00,-1.0,2371
2890,1222890,17068,-604,808,17097.79,30.51,-1.00,-1.0,2426
2893,1222893,17072,-684,880,17108.34,30.51,-1.00,-1.0,2373
2896,1222896,16984,-644,920,17021.09,30.51,-1.00,-1.0,2437
2898,1222898,17092,-524,780,17117.81,30.51,-1.00,-1.0,2376
2901,1222901,17080,-600,772,17107.96,30.55,-1.00,-1.0,2424
2904,1222904,17012,-624,844,17044.35,30.60,-1.00,-1.0,2371
2906,1222906,17076,-632,952,17114.19,30.55,-1.00,-1.0,2367
2909,1222909,17080,-624,1020,17121.80,30.55,-1.00,-1.0,2422
2912,1222912,16972,-496,832,16999.62,30.46,-1.00,-1.0,2370
2917,1222917,17044,-620,980,17083.41,30.51,-1.00,-1.0,2431
2920,1222920,17072,-580,848,17102.88,30.60,-1.00,-1.0,2376
2923,1222923,16984,-576,836,17014.31,30.65,-1.00,-1.0,2437
2925,1222925,17116,-520,788,17142.02,30.55,-1.00,-1.0,2369
2928,1222928,17124,-564,844,17154.06,30.55,-1.00,-1.0,2421
2931,1222931,16980,-588,984,17018.65,30.46,-1.00,-1.0,2369
2934,1222934,17120,-668,876,17155.41,30.55,-1.00,-1.0,2421
2936,1222936,17036,-620,772,17064.75,30.46,-1.00,-1.0,2368
2941,1222941,17072,-584,924,17106.96,30.55,-1.00,-1.0,2428
2944,1222944,17004,-636,780,17033.76,30.55,-1.00,-1.0,2368
2946,1222946,17036,-552,840,17065.63,30.51,-1.00,-1.0,2367
2949,1222949,16968,-548,868,16999.02,30.51,-1.00,-1.0,2451
2952,1222952,17004,-496,952,17037.85,30.60,-1.00,-1.0,2376
2955,1222955,17020,-604,816,17050.25,30.55,-1.00,-1.0,2435
2957,1222957,17012,-568,916,17046.11,30.60,-1.00,-1.0,2379
2960,1222960,17028,-596,900,17062.18,30.46,-1.00,-1.0,2429
2963,1222963,17028,-572,816,17057.13,30.46,-1.00,-1.0,2368
2968,1222968,16984,-552,776,17010.68,30.55,-1.00,-1.0,2437
2970,1222970,17132,-536,844,17161.15,30.51,-1.00,-1.0,2378
2973,1222973,17104,-556,860,17134.63,30.46,-1.00,-1.0,2435
2976,1222976,17044,-656,916,17081.20,30.55,-1.00,-1.0,2372
2979,1222979,17148,-680,832,17181.63,30.55,-1.00,-1.0,2423
2981,1222981,16988,-632,884,17022.72,30.46,-1.00,-1.0,2370
2984,1222984,17004,-656,988,17045.31,30.55,-1.00,-1.0,2366
2987,1222987,16976,-612,816,17006.62,30.41,-1.00,-1.0,2422
2990,1222990,17112,-588,852,17143.28,30.55,-1.00,-1.0,2369
2995,1222995,17060,-528,920,17092.95,30.55,-1.00,-1.0,2428
2998,1222998,17048,-616,964,17086.34,30.46,-1.00,-1.0,2367
3001,1223001,17100,-668,964,17140.17,30.51,-1.00,-1.0,2435
3003,1223003,17000,-620,844,17032.23,30.55,-1.00,-1.0,2369
3006,1223006,17024,-520,840,17052.64,30.55,-1.00,-1.0,2421
3009,1223009,17072,-616,860,17104.74,30.55,-1.00,-1.0,2371
3012,1223012,17076,-660,792,17107.09,30.51,-1.00,-1.0,2408
3014,1223014,17048,-688,1012,17091.86,30.55,-1.00,-1.0,2369
3019,1223019,17000,-636,784,17029.95,30.55,-1.00,-1.0,2436
3022,1223022,17020,-580,808,17049.04,30.46,-1.00,-1.0,2370
3025,1223025,16992,-572,992,17030.54,30.51,-1.00,-1.0,2364
3027,1223027,17092,-592,1024,17132.88,30.69,-1.00,-1.0,2438
3030,1223030,17028,-624,960,17066.45,30.60,-1.00,-1.0,2369
3033,1223033,17088,-632,948,17125.94,30.60,-1.00,-1.0,2431
3036,1223036,17068,-600,832,17098.80,30.51,-1.00,-1.0,2368
3038,1223038,17024,-640,908,17060.21,30.55,-1.00,-1.0,2422
3041,1223041,17032,-612,908,17067.16,30.55,-1.00,-1.0,2378
3046,1223046,17068,-576,936,17103.35,30.51,-1.00,-1.0,2427
3049,1223049,17080,-580,800,17108.56,30.60,-1.00,-1.0,2368
3052,1223052,17080,-560,968,17116.57,30.51,-1.00,-1.0,2434
3054,1223054,17000,-544,784,17026.76,30.60,-1.00,-1.0,2369
3057,1223057,16932,-568,968,16969.16,30.55,-1.00,-1.0,2422
3060,1223060,17040,-676,772,17070.87,30.51,-1.00,-1.0,2375
3062,1223062,17112,-584,952,17148.41,30.46,-1.00,-1.0,2374
3065,1223065,17040,-772,1000,17086.77,30.51,-1.00,-1.0,2421
3068,1223068,17064,-588,932,17099.54,30.46,-1.00,-1.0,2384
3073,1223073,16944,-636,972,16983.77,30.55,-1.00,-1.0,2427
3076,1223076,17076,-628,980,17115.62,30.60,-1.00,-1.0,2376
3079,1223079,17040,-676,976,17081.31,30.65,-1.00,-1.0,2435
3081,1223081,17056,-684,948,17096.01,30.46,-1.00,-1.0,2372
3084,1223084,17012,-612,732,17038.74,30.46,-1.00,-1.0,2435
3087,1223087,17080,-644,764,17109.20,30.55,-1.00,-1.0,2377
3090,1223090,17028,-544,804,17055.65,30.55,-1.00,-1.0,2433
3092,1223092,17000,-644,948,17038.59,30.46,-1.00,-1.0,2371
3097,1223097,17036,-620,912,17071.66,30.46,-1.00,-1.0,2429
3100,1223100,17080,-564,1004,17118.78,30.51,-1.00,-1.0,2368
3103,1223103,16980,-668,916,17017.80,30.55,-1.00,-1.0,2371
3106,1223106,17044,-592,792,17072.66,30.60,-1.00,-1.0,2438
3108,1223108,17160,-624,800,17189.97,30.55,-1.00,-1.0,2357
3111,1223111,16932,-616,892,16966.67,30.51,-1.00,-1.0,2422
3114,1223114,17020,-520,884,17050.87,30.55,-1.00,-1.0,2367
3117,1223117,17056,-532,1056,17096.94,30.51,-1.00,-1.0,2408
3119,1223119,17072,-628,900,17107.24,30.51,-1.00,-1.0,2371
3124,1223124,17004,-616,860,17036.87,30.46,-1.00,-1.0,2442
3127,1223127,17152,-680,756,17182.11,30.65,-1.00,-1.0,2377
3130,1223130,17120,-640,860,17153.53,30.51,-1.00,-1.0,2448
3132,1223132,17104,-560,892,17136.40,30.60,-1.00,-1.0,2376
3135,1223135,17028,-580,836,17058.37,30.60,-1.00,-1.0,2421
3138,1223138,17040,-680,888,17076.67,30.55,-1.00,-1.0,2369
3141,1223141,17040,-620,844,17072.15,30.51,-1.00,-1.0,2366
3143,1223143,17028,-580,844,17058.77,30.55,-1.00,-1.0,2423
3146,1223146,17072,-668,952,17111.57,30.51,-1.00,-1.0,2369
3151,1223151,17004,-624,792,17033.87,30.51,-1.00,-1.0,2427
3154,1223154,17044,-620,872,17077.55,30.41,-1.00,-1.0,2367
3157,1223157,16964,-604,900,16998.59,30.46,-1.00,-1.0,2434
3159,1223159,16996,-612,852,17028.34,30.60,-1.00,-1.0,2369
3162,1223162,17056,-660,820,17088.45,30.46,-1.00,-1.0,2421
3165,1223165,17004,-656,880,17039.39,30.60,-1.00,-1.0,2369
3168,1223168,17016,-600,800,17045.36,30.65,-1.00,-1.0,2421
3170,1223170,16976,-536,816,17004.05,30.55,-1.00,-1.0,2369
3175,1223175,16988,-576,732,17013.52,30.46,-1.00,-1.0,2429
3178,1223178,17080,-588,804,17109.02,30.55,-1.00,-1.0,2368
3180,1223180,16996,-516,792,17022.27,30.51,-1.00,-1.0,2365
3183,1223183,17036,-784,864,17075.90,30.55,-1.00,-1.0,2435
3186,1223186,16976,-588,1000,17015.59,30.55,-1.00,-1.0,2371
3189,1223189,17104,-592,760,17131.11,30.55,-1.00,-1.0,2409
3191,1223191,17028,-732,808,17062.87,30.46,-1.00,-1.0,2369
3194,1223194,17060,-616,816,17090.61,30.46,-1.00,-1.0,2421
3197,1223197,17080,-620,788,17109.40,30.55,-1.00,-1.0,2370
3202,1223202,17044,-632,880,17078.40,30.55,-1.00,-1.0,2427
3205,1223205,16976,-560,884,17008.22,30.51,-1.00,-1.0,2367
3208,1223208,17032,-588,844,17063.03,30.55,-1.00,-1.0,2435
3211,1223211,17060,-680,888,17096.62,30.46,-1.00,-1.0,2370
3213,1223213,17056,-516,804,17082.73,30.55,-1.00,-1.0,2422
3216,1223216,16988,-688,896,17025.52,30.55,-1.00,-1.0,2369
3219,1223219,17096,-544,812,17123.92,30.46,-1.00,-1.0,2366
3221,1223221,17104,-572,876,17135.97,30.51,-1.00,-1.0,2434
3224,1223224,17000,-560,920,17034.08,30.55,-1.00,-1.0,2370
3229,1223229,17084,-652,948,17122.70,30.55,-1.00,-1.0,2428
3232,1223232,17052,-664,932,17090.36,30.55,-1.00,-1.0,2369
3235,1223235,17088,-608,868,17120.83,30.55,-1.00,-1.0,2442
3238,1223238,17084,-508,948,17117.82,30.65,-1.00,-1.0,2368
3240,1223240,17100,-584,760,17126.84,30.55,-1.00,-1.0,2423
3243,1223243,17024,-568,836,17053.98,30.55,-1.00,-1.0,2369
3246,1223246,17116,-616,856,17148.46,30.65,-1.00,-1.0,2429
3249,1223249,17072,-668,880,17107.71,30.55,-1.00,-1.0,2368
3254,1223254,17052,-592,936,17087.93,30.46,-1.00,-1.0,2431
3256,1223256,17064,-600,920,17099.31,30.55,-1.00,-1.0,2370
3259,1223259,17056,-568,872,17087.72,30.55,-1.00,-1.0,2374
3262,1223262,17096,-608,1008,17136.48,30.60,-1.00,-1.0,2436
3264,1223264,17076,-604,868,17108.71,30.51,-1.00,-1.0,2369
3267,1223267,17004,-632,816,17035.29,30.60,-1.00,-1.0,2437
3270,1223270,16952,-616,792,16981.67,30.51,-1.00,-1.0,2376
3273,1223273,17148,-704,808,17181.46,30.65,-1.00,-1.0,2433
3275,1223275,17044,-624,888,17078.52,30.51,-1.00,-1.0,2371
3280,1223280,16992,-580,928,17027.20,30.60,-1.00,-1.0,2431
3283,1223283,17004,-628,932,17041.10,30.60,-1.00,-1.0,2368
3286,1223286,17084,-560,876,17115.61,30.60,-1.00,-1.0,2444
3289,1223289,16992,-568,968,17029.03,30.51,-1.00,-1.0,2367
3291,1223291,17064,-568,876,17095.91,30.65,-1.00,-1.0,2432
3294,1223294,17128,-528,880,17158.72,30.60,-1.00,-1.0,2377
3297,1223297,17160,-628,904,17195.27,30.46,-1.00,-1.0,2366
3300,1223300,17060,-604,816,17090.18,30.41,-1.00,-1.0,2422
3302,1223302,16972,-520,928,17005.30,30.60,-1.00,-1.0,2373
3307,1223307,17112,-612,888,17145.95,30.51,-1.00,-1.0,2428
3310,1223310,17060,-588,884,17093.00,30.60,-1.00,-1.0,2368
3313,1223313,17008,-456,824,17034.05,30.51,-1.00,-1.0,2442
3316,1223316,17092,-636,1016,17133.98,30.51,-1.00,-1.0,2367
3318,1223318,16964,-724,928,17004.78,30.65,-1.00,-1.0,2435
3321,1223321,17024,-592,948,17060.65,30.51,-1.00,-1.0,2376
3324,1223324,17072,-700,828,17106.40,30.55,-1.00,-1.0,2424
3327,1223327,17056,-620,980,17095.38,30.60,-1.00,-1.0,2374
3332,1223332,17096,-584,812,17125.23,30.60,-1.00,-1.0,2427
3334,1223334,17064,-664,980,17105.01,30.51,-1.00,-1.0,2367
3337,1223337,16960,-564,908,16993.65,30.55,-1.00,-1.0,2353
3340,1223340,17164,-632,852,17196.75,30.46,-1.00,-1.0,2443
3342,1223342,17028,-668,860,17062.79,30.55,-1.00,-1.0,2374
3345,1223345,17080,-588,1104,17125.74,30.51,-1.00,-1.0,2422
3348,1223348,16992,-588,940,17028.14,30.65,-1.00,-1.0,2371
3351,1223351,16960,-676,900,16997.31,30.55,-1.00,-1.0,2422
3353,1223353,17020,-600,868,17052.68,30.46,-1.00,-1.0,2375
3359,1223359,17020,-556,856,17050.58,30.51,-1.00,-1.0,2422
3362,1223362,17028,-692,908,17066.23,30.65,-1.00,-1.0,2369
3365,1223365,17120,-664,1016,17162.97,30.60,-1.00,-1.0,2437
3367,1223367,17088,-684,940,17127.50,30.60,-1.00,-1.0,2369
3370,1223370,16992,-560,740,17017.32,30.60,-1.00,-1.0,2422
3373,1223373,17068,-568,796,17095.99,30.60,-1.00,-1.0,2368
3375,1223375,17072,-648,920,17109.05,30.46,-1.00,-1.0,2367
3378,1223378,17004,-664,852,17038.28,30.46,-1.00,-1.0,2431
3381,1223381,17044,-584,844,17074.88,30.65,-1.00,-1.0,2377
3386,1223386,16992,-592,884,17025.28,30.46,-1.00,-1.0,2463
3388,1223388,17068,-644,896,17103.63,30.55,-1.00,-1.0,2359
3391,1223391,17112,-684,796,17144.15,30.60,-1.00,-1.0,2425
3394,1223394,17016,-664,944,17055.10,30.60,-1.00,-1.0,2370
3397,1223397,17052,-500,992,17088.15,30.51,-1.00,-1.0,2429
3400,1223400,16996,-656,784,17026.71,30.60,-1.00,-1.0,2369
3402,1223402,16972,-544,792,16999.18,30.60,-1.00,-1.0,2424
3405,1223405,17012,-604,824,17042.65,30.60,-1.00,-1.0,2357
3410,1223410,17000,-604,732,17026.47,30.60,-1.00,-1.0,2445
3413,1223413,17128,-648,852,17161.42,30.55,-1.00,-1.0,2374
3415,1223415,17028,-632,1016,17069.99,30.60,-1.00,-1.0,2353
3418,1223418,17004,-548,960,17039.89,30.55,-1.00,-1.0,2423
3421,1223421,17020,-628,796,17050.17,30.60,-1.00,-1.0,2368
3424,1223424,17004,-560,952,17039.83,30.55,-1.00,-1.0,2422
3426,1223426,17084,-604,828,17114.71,30.51,-1.00,-1.0,2369
3429,1223429,17036,-640,872,17070.30,30.55,-1.00,-1.0,2423
3432,1223432,17028,-588,844,17059.04,30.60,-1.00,-1.0,2368
3437,1223437,17076,-600,660,17099.28,30.51,-1.00,-1.0,2441
3439,1223439,16992,-576,832,17022.11,30.51,-1.00,-1.0,2371
3442,1223442,17052,-644,792,17082.53,30.51,-1.00,-1.0,2422
3445,1223445,17168,-612,796,17197.34,30.51,-1.00,-1.0,2372
3448,1223448,17024,-688,1020,17068.40,30.51,-1.00,-1.0,2422
3451,1223451,17068,-636,916,17104.39,30.51,-1.00,-1.0,2371
3453,1223453,17120,-616,936,17156.63,30.65,-1.00,-1.0,2366
3456,1223456,17028,-532,928,17061.56,30.55,-1.00,-1.0,2431
3459,1223459,17028,-592,1068,17071.73,30.65,-1.00,-1.0,2369
3464,1223464,17132,-600,856,17163.86,30.55,-1.00,-1.0,2442
3466,1223466,17056,-604,888,17089.78,30.51,-1.00,-1.0,2367
3469,1223469,17124,-588,856,17155.46,30.55,-1.00,-1.0,2423
3472,1223472,16940,-640,972,16979.93,30.65,-1.00,-1.0,2369
3475,1223475,17028,-600,924,17063.60,30.55,-1.00,-1.0,2423
3477,1223477,17052,-552,928,17086.15,30.46,-1.00,-1.0,2370
3480,1223480,17152,-592,924,17187.07,30.46,-1.00,-1.0,2422
3483,1223483,17040,-632,776,17069.37,30.46,-1.00,-1.0,2368
3488,1223488,17048,-660,840,17081.44,30.60,-1.00,-1.0,2442
3491,1223491,17072,-636,856,17105.28,30.51,-1.00,-1.0,2371
3493,1223493,17020,-576,816,17049.28,30.65,-1.00,-1.0,2366
3496,1223496,17028,-628,860,17061.27,30.60,-1.00,-1.0,2429
3499,1223499,17060,-596,916,17094.97,30.46,-1.00,-1.0,2369
3501,1223501,16968,-520,988,17004.69,30.51,-1.00,-1.0,2429
3504,1223504,17072,-720,860,17108.80,30.55,-1.00,-1.0,2370
3507,1223507,17052,-620,1096,17098.43,30.60,-1.00,-1.0,2430
3510,1223510,17080,-668,956,17119.77,30.55,-1.00,-1.0,2370
3515,1223515,16980,-616,972,17018.95,30.55,-1.00,-1.0,2442
3517,1223517,17032,-596,868,17064.52,30.65,-1.00,-1.0,2355
3520,1223520,17080,-700,768,17111.58,30.65,-1.00,-1.0,2423
3523,1223523,16988,-584,868,17020.18,30.65,-1.00,-1.0,2368
3526,1223526,17008,-604,916,17043.36,30.55,-1.00,-1.0,2422
3528,1223528,17036,-532,904,17068.26,30.65,-1.00,-1.0,2370
3531,1223531,17112,-620,912,17147.50,30.51,-1.00,-1.0,2375
3534,1223534,17116,-672,908,17153.24,30.60,-1.00,-1.0,2434
3537,1223537,16992,-700,868,17028.55,30.55,-1.00,-1.0,2368
3542,1223542,16980,-648,872,17014.72,30.46,-1.00,-1.0,2429
3544,1223544,17020,-680,816,17053.11,30.55,-1.00,-1.0,2365
3547,1223547,17060,-536,856,17089.87,30.60,-1.00,-1.0,2423
3550,1223550,17012,-580,704,17036.44,30.55,-1.00,-1.0,2369
3553,1223553,17028,-676,800,17060.18,30.55,-1.00,-1.0,2426
3555,1223555,17060,-560,772,17086.64,30.55,-1.00,-1.0,2370
3558,1223558,17008,-692,940,17048.01,30.60,-1.00,-1.0,2422
3561,1223561,17036,-568,912,17069.85,30.46,-1.00,-1.0,2369
3566,1223566,17016,-572,868,17047.72,30.55,-1.00,-1.0,2442
3568,1223568,17036,-528,1008,17073.96,30.60,-1.00,-1.0,2369
3571,1223571,16968,-540,980,17004.85,30.51,-1.00,-1.0,2366
3574,1223574,16996,-668,936,17034.86,30.55,-1.00,-1.0,2422
3576,1223576,17056,-648,948,17094.61,30.55,-1.00,-1.0,2376
3579,1223579,17112,-652,816,17143.85,30.65,-1.00,-1.0,2422
3582,1223582,17148,-728,800,17182.08,30.65,-1.00,-1.0,2373
3585,1223585,17088,-680,1000,17130.74,30.55,-1.00,-1.0,2422
3588,1223588,17016,-604,768,17044.03,30.51,-1.00,-1.0,2372
3592,1223592,17012,-716,832,17047.38,30.60,-1.00,-1.0,2444
3595,1223595,17040,-496,868,17069.30,30.55,-1.00,-1.0,2427
3598,1223598,17100,-684,888,17136.70,30.41,-1.00,-1.0,2423
3601,1223601,17048,-620,752,17075.84,30.46,-1.00,-1.0,2385
3604,1223604,17000,-580,832,17030.23,30.55,-1.00,-1.0,2415
3606,1223606,17080,-500,1088,17121.92,30.55,-1.00,-1.0,2363
3609,1223609,17092,-528,824,17119.99,30.51,-1.00,-1.0,2374
3612,1223612,17024,-608,920,17059.68,30.55,-1.00,-1.0,2414
3615,1223615,17160,-608,852,17191.89,30.55,-1.00,-1.0,2376
3620,1223620,16980,-588,860,17011.93,30.55,-1.00,-1.0,2425
3622,1223622,17096,-540,904,17128.40,30.51,-1.00,-1.0,2380
3625,1223625,17072,-592,1024,17112.93,30.55,-1.00,-1.0,2427
3628,1223628,17060,-476,940,17092.51,30.55,-1.00,-1.0,2377
3631,1223631,17016,-512,832,17044.02,30.55,-1.00,-1.0,2419
3633,1223633,17024,-572,964,17060.86,30.55,-1.00,-1.0,2378
3636,1223636,17008,-588,844,17039.08,30.55,-1.00,-1.0,2419
3639,1223639,17052,-564,892,17084.63,30.55,-1.00,-1.0,2372
3644,1223644,16968,-708,928,17008.10,30.55,-1.00,-1.0,2423
3647,1223647,17104,-596,948,17140.62,30.55,-1.00,-1.0,2382
3649,1223649,17072,-644,872,17106.38,30.51,-1.00,-1.0,2365
3652,1223652,17100,-620,948,17137.48,30.51,-1.00,-1.0,2426
3655,1223655,17040,-644,896,17075.69,30.51,-1.00,-1.0,2375
3658,1223658,17104,-644,896,17139.55,30.51,-1.00,-1.0,2418
3660,1223660,17132,-556,836,17161.39,30.60,-1.00,-1.0,2371
3663,1223663,17052,-672,820,17084.93,30.51,-1.00,-1.0,2418
3666,1223666,17008,-560,872,17039.54,30.60,-1.00,-1.0,2372
3671,1223671,17072,-592,984,17110.58,30.51,-1.00,-1.0,2420
3673,1223673,17020,-680,864,17055.48,30.46,-1.00,-1.0,2364
3676,1223676,16972,-520,856,17001.53,30.51,-1.00,-1.0,2413
3679,1223679,17104,-516,904,17135.64,30.55,-1.00,-1.0,2380
3682,1223682,16976,-540,916,17009.27,30.60,-1.00,-1.0,2427
3685,1223685,17004,-672,876,17039.80,30.55,-1.00,-1.0,2374
3687,1223687,17068,-620,832,17099.51,30.51,-1.00,-1.0,2365
3690,1223690,17040,-620,832,17071.56,30.55,-1.00,-1.0,2427
3693,1223693,17012,-572,912,17046.03,30.51,-1.00,-1.0,2370
3698,1223698,17064,-624,964,17102.60,30.51,-1.00,-1.0,2420
3700,1223700,16984,-588,944,17020.38,30.65,-1.00,-1.0,2387
3703,1223703,17040,-644,880,17074.86,30.55,-1.00,-1.0,2474
3706,1223706,17120,-756,796,17155.16,30.46,-1.00,-1.0,2384
3709,1223709,17080,-632,1028,17122.58,30.60,-1.00,-1.0,2424
3712,1223712,17004,-580,852,17035.21,30.55,-1.00,-1.0,2367
3715,1223715,17060,-692,892,17097.31,30.55,-1.00,-1.0,2426
3717,1223717,17104,-584,952,17140.43,30.55,-1.00,-1.0,2372
3722,1223722,17064,-560,932,17098.61,30.55,-1.00,-1.0,2443
3725,1223725,17000,-564,864,17031.28,30.55,-1.00,-1.0,2375
3728,1223728,17044,-556,844,17073.94,30.51,-1.00,-1.0,2367
3730,1223730,17096,-616,924,17132.03,30.51,-1.00,-1.0,2434
3733,1223733,17080,-608,1024,17121.47,30.60,-1.00,-1.0,2369
3736,1223736,17088,-648,700,17114.60,30.55,-1.00,-1.0,2431
3739,1223739,17088,-500,972,17122.92,30.41,-1.00,-1.0,2367
3741,1223741,17016,-600,864,17048.48,30.65,-1.00,-1.0,2424
3744,1223744,17048,-600,912,17082.92,30.41,-1.00,-1.0,2369
3749,1223749,17132,-564,852,17162.44,30.51,-1.00,-1.0,2427
3752,1223752,16916,-556,816,16944.79,30.51,-1.00,-1.0,2369
3755,1223755,17060,-628,904,17095.47,30.51,-1.00,-1.0,2434
3757,1223757,17052,-584,908,17086.14,30.60,-1.00,-1.0,2369
3760,1223760,17092,-596,872,17124.60,30.46,-1.00,-1.0,2422
3763,1223763,17048,-620,852,17080.53,30.51,-1.00,-1.0,2367
3765,1223765,17052,-564,924,17086.33,30.55,-1.00,-1.0,2369
3768,1223768,17132,-608,920,17167.46,30.60,-1.00,-1.0,2436
3771,1223771,17080,-664,916,17117.43,30.55,-1.00,-1.0,2377
3776,1223776,17128,-568,892,17160.61,30.60,-1.00,-1.0,2434
3778,1223778,17112,-572,824,17141.38,30.55,-1.00,-1.0,2377
3781,1223781,16964,-580,852,16995.28,30.55,-1.00,-1.0,2461
3784,1223784,16956,-612,820,16986.84,30.65,-1.00,-1.0,2371
3787,1223787,17036,-600,960,17073.57,30.51,-1.00,-1.0,2429
3790,1223790,17104,-636,908,17139.89,30.55,-1.00,-1.0,2370
3792,1223792,17076,-600,916,17111.07,30.55,-1.00,-1.0,2439
3795,1223795,16996,-620,820,17027.06,30.46,-1.00,-1.0,2378
3800,1223800,17036,-568,972,17073.16,30.46,-1.00,-1.0,2432
3803,1223803,17176,-632,948,17213.75,30.60,-1.00,-1.0,2371
3805,1223805,17036,-596,872,17068.71,30.55,-1.00,-1.0,2366
3808,1223808,17012,-600,852,17043.89,30.41,-1.00,-1.0,2441
3811,1223811,17004,-632,900,17039.53,30.65,-1.00,-1.0,2369
3813,1223813,16992,-544,944,17026.89,30.60,-1.00,-1.0,2434
3816,1223816,16984,-640,888,17019.24,30.60,-1.00,-1.0,2377
3819,1223819,17016,-616,864,17049.05,30.51,-1.00,-1.0,2413
3822,1223822,17064,-600,876,17097.00,30.51,-1.00,-1.0,2371
3827,1223827,17096,-604,784,17124.62,30.55,-1.00,-1.0,2422
3830,1223830,17052,-608,852,17084.09,30.55,-1.00,-1.0,2369
3832,1223832,17052,-588,808,17081.26,30.55,-1.00,-1.0,2435
3835,1223835,17044,-628,832,17075.85,30.55,-1.00,-1.0,2371
3838,1223838,17060,-668,936,17098.71,30.51,-1.00,-1.0,2429
3841,1223841,16916,-608,720,16942.23,30.55,-1.00,-1.0,2371
3843,1223843,17068,-676,852,17102.62,30.51,-1.00,-1.0,2370
3846,1223846,17024,-592,868,17056.39,30.65,-1.00,-1.0,2422
3849,1223849,17048,-500,716,17070.35,30.51,-1.00,-1.0,2352
3854,1223854,17064,-612,884,17097.84,30.51,-1.00,-1.0,2422
3857,1223857,16996,-680,924,17034.68,30.46,-1.00,-1.0,2368
3859,1223859,17008,-572,916,17042.25,30.55,-1.00,-1.0,2433
3862,1223862,17052,-716,844,17087.88,30.55,-1.00,-1.0,2370
3865,1223865,17164,-568,876,17195.72,30.51,-1.00,-1.0,2429
3868,1223868,16996,-652,860,17030.23,30.55,-1.00,-1.0,2370
3870,1223870,17136,-580,868,17167.77,30.60,-1.00,-1.0,2429
3873,1223873,17076,-560,880,17107.83,30.60,-1.00,-1.0,2371
3878,1223878,17036,-576,952,17072.30,30.55,-1.00,-1.0,2433
3881,1223881,17028,-672,904,17065.21,30.55,-1.00,-1.0,2373
3883,1223883,17052,-564,904,17085.26,30.55,-1.00,-1.0,2371
3886,1223886,17032,-544,896,17064.22,30.51,-1.00,-1.0,2446
3889,1223889,17024,-552,848,17054.04,30.51,-1.00,-1.0,2372
3892,1223892,17108,-752,960,17151.41,30.46,-1.00,-1.0,2435
3894,1223894,17056,-596,888,17089.50,30.60,-1.00,-1.0,2378
3897,1223897,17016,-628,904,17051.56,30.55,-1.00,-1.0,2422
3900,1223900,17028,-588,800,17056.92,30.55,-1.00,-1.0,2370
3905,1223905,17044,-520,984,17080.30,30.55,-1.00,-1.0,2435
3908,1223908,16996,-660,788,17027.05,30.51,-1.00,-1.0,2378
3911,1223911,17008,-620,880,17042.03,30.55,-1.00,-1.0,2439
3913,1223913,17000,-592,868,17032.44,30.55,-1.00,-1.0,2373
3916,1223916,17000,-504,916,17032.12,30.55,-1.00,-1.0,2423
3919,1223919,17008,-596,944,17044.60,30.55,-1.00,-1.0,2372
3921,1223921,16940,-612,968,16978.67,30.55,-1.00,-1.0,2368
3924,1223924,17052,-564,884,17084.21,30.51,-1.00,-1.0,2422
3927,1223927,16968,-644,820,17000.00,30.55,-1.00,-1.0,2358
3932,1223932,17060,-612,892,17094.26,30.55,-1.00,-1.0,2435
3935,1223935,17100,-496,844,17128.00,30.55,-1.00,-1.0,2375
3938,1223938,16964,-588,844,16995.16,30.46,-1.00,-1.0,2434
3940,1223940,17016,-644,844,17049.09,30.55,-1.00,-1.0,2372
3943,1223943,17172,-604,856,17203.93,30.55,-1.00,-1.0,2423
3946,1223946,17036,-652,960,17075.48,30.55,-1.00,-1.0,2370
3949,1223949,17036,-556,896,17068.60,30.46,-1.00,-1.0,2422
3951,1223951,17024,-588,952,17060.73,30.46,-1.00,-1.0,2357
3956,1223956,17016,-556,808,17044.24,30.65,-1.00,-1.0,2449
3959,1223959,17052,-652,980,17092.58,30.51,-1.00,-1.0,2377
3962,1223962,17056,-656,928,17093.82,30.55,-1.00,-1.0,2366
3964,1223964,17012,-528,784,17038.24,30.55,-1.00,-1.0,2432
3967,1223967,17052,-600,736,17078.42,30.55,-1.00,-1.0,2369
3970,1223970,17104,-644,812,17135.37,30.60,-1.00,-1.0,2430
3973,1223973,17072,-604,788,17100.85,30.55,-1.00,-1.0,2369
3975,1223975,16984,-672,864,17019.23,30.60,-1.00,-1.0,2423
3978,1223978,17060,-692,904,17097.94,30.69,-1.00,-1.0,2370
3983,1223983,17008,-552,856,17038.47,30.60,-1.00,-1.0,2427
3986,1223986,16960,-676,852,16994.84,30.51,-1.00,-1.0,2369
3988,1223988,16984,-656,984,17025.12,30.46,-1.00,-1.0,2434
3991,1223991,16992,-596,800,17021.26,30.60,-1.00,-1.0,2370
3994,1223994,17104,-664,940,17142.68,30.55,-1.00,-1.0,2429
3997,1223997,16964,-612,908,16999.30,30.51,-1.00,-1.0,2369
3999,1223999,16976,-684,880,17012.55,30.55,-1.00,-1.0,2371
4002,1224002,17068,-576,868,17099.76,30.55,-1.00,-1.0,2422
4005,1224005,17028,-620,956,17066.08,30.51,-1.00,-1.0,2370
4010,1224010,17064,-624,992,17104.20,30.60,-1.00,-1.0,2432
4012,1224012,17096,-588,908,17130.19,30.55,-1.00,-1.0,2380
4015,1224015,17084,-604,900,17118.35,30.51,-1.00,-1.0,2431
4018,1224018,17040,-608,844,17071.72,30.51,-1.00,-1.0,2371
4021,1224021,16988,-564,824,17017.32,30.60,-1.00,-1.0,2430
4024,1224024,17088,-608,900,17122.48,30.60,-1.00,-1.0,2369
4026,1224026,17084,-568,904,17117.33,30.51,-1.00,-1.0,2424
4029,1224029,16968,-592,776,16996.05,30.55,-1.00,-1.0,2370
4032,1224032,17060,-652,828,17092.52,30.55,-1.00,-1.0,2368
4037,1224037,17016,-600,812,17045.93,30.55,-1.00,-1.0,2433
4040,1224040,16968,-672,800,17000.13,30.51,-1.00,-1.0,2368
4043,1224043,16996,-600,964,17033.89,30.55,-1.00,-1.0,2432
4045,1224045,17012,-448,852,17039.21,30.65,-1.00,-1.0,2370
4048,1224048,17064,-592,828,17094.33,30.55,-1.00,-1.0,2423
4051,1224051,17080,-500,840,17107.95,30.65,-1.00,-1.0,2377
4054,1224054,17064,-548,712,17087.64,30.46,-1.00,-1.0,2422
4056,1224056,17084,-704,800,17117.20,30.55,-1.00,-1.0,2370
4061,1224061,17060,-584,1016,17100.20,30.41,-1.00,-1.0,2432
4064,1224064,17012,-644,792,17042.60,30.60,-1.00,-1.0,2356
4067,1224067,16928,-588,956,16965.17,30.55,-1.00,-1.0,2440
4070,1224070,17052,-612,832,17083.25,30.60,-1.00,-1.0,2368
4072,1224072,17000,-620,908,17035.52,30.46,-1.00,-1.0,2372
4075,1224075,17080,-672,964,17120.38,30.60,-1.00,-1.0,2412
4078,1224078,17044,-676,792,17075.78,30.46,-1.00,-1.0,2369
4080,1224080,17080,-488,908,17111.08,30.60,-1.00,-1.0,2432
4083,1224083,17112,-676,840,17145.94,30.46,-1.00,-1.0,2386
4088,1224088,16940,-620,916,16976.07,30.46,-1.00,-1.0,2447
4091,1224091,17108,-588,776,17135.68,30.55,-1.00,-1.0,2377
4094,1224094,17084,-588,952,17120.61,30.60,-1.00,-1.0,2443
4096,1224096,17088,-608,1036,17130.17,30.60,-1.00,-1.0,2380
4099,1224099,16980,-500,848,17008.51,30.60,-1.00,-1.0,2423
4102,1224102,16988,-616,988,17027.85,30.51,-1.00,-1.0,2371
4105,1224105,17048,-544,892,17079.99,30.60,-1.00,-1.0,2423
4107,1224107,17100,-632,704,17126.15,30.41,-1.00,-1.0,2377
4110,1224110,16960,-696,1028,17005.38,30.60,-1.00,-1.0,2374
4115,1224115,17052,-632,992,17092.52,30.55,-1.00,-1.0,2458
4118,1224118,17080,-640,952,17118.48,30.55,-1.00,-1.0,2367
4121,1224121,17008,-436,832,17033.92,30.65,-1.00,-1.0,2425
4124,1224124,16916,-560,872,16947.71,30.55,-1.00,-1.0,2366
4126,1224126,17020,-604,964,17057.97,30.55,-1.00,-1.0,2424
4129,1224129,17108,-600,896,17141.95,30.55,-1.00,-1.0,2366
4132,1224132,17044,-596,940,17080.30,30.55,-1.00,-1.0,2430
4135,1224135,16960,-460,940,16992.26,30.55,-1.00,-1.0,2364
4140,1224140,17072,-604,964,17109.86,30.46,-1.00,-1.0,2441
4142,1224142,17084,-628,932,17120.92,30.51,-1.00,-1.0,2364
4145,1224145,17020,-660,812,17052.14,30.55,-1.00,-1.0,2426
4148,1224148,17000,-548,892,17032.20,30.46,-1.00,-1.0,2367
4150,1224150,17108,-528,984,17144.41,30.55,-1.00,-1.0,2365
4153,1224153,17020,-656,804,17051.60,30.60,-1.00,-1.0,2437
4156,1224156,17088,-592,948,17124.51,30.51,-1.00,-1.0,2364
4159,1224159,16980,-592,932,17015.86,30.60,-1.00,-1.0,2426
4161,1224161,17112,-568,908,17145.48,30.60,-1.00,-1.0,2370
4166,1224166,17072,-564,856,17102.75,30.51,-1.00,-1.0,2442
4169,1224169,17016,-588,928,17051.43,30.65,-1.00,-1.0,2367
4172,1224172,16948,-596,956,16985.40,30.60,-1.00,-1.0,2429
4175,1224175,17044,-632,888,17078.81,30.46,-1.00,-1.0,2367
4177,1224177,17064,-544,1016,17102.87,30.60,-1.00,-1.0,2429
4180,1224180,17060,-620,852,17092.51,30.55,-1.00,-1.0,2369
4183,1224183,17088,-604,824,17118.51,30.51,-1.00,-1.0,2429
4186,1224186,17016,-616,956,17053.96,30.51,-1.00,-1.0,2370
4188,1224188,16992,-616,944,17029.35,30.55,-1.00,-1.0,2367
4194,1224194,16996,-600,872,17028.93,30.55,-1.00,-1.0,2449
4197,1224197,16988,-628,784,17017.67,30.55,-1.00,-1.0,2368
4199,1224199,17000,-524,964,17035.37,30.60,-1.00,-1.0,2422
4202,1224202,17084,-596,992,17123.15,30.55,-1.00,-1.0,2372
4205,1224205,16908,-564,932,16943.06,30.60,-1.00,-1.0,2432
4208,1224208,16984,-660,904,17020.84,30.65,-1.00,-1.0,2355
4210,1224210,17132,-560,960,17168.01,30.51,-1.00,-1.0,2423
4213,1224213,16912,-556,940,16947.23,30.55,-1.00,-1.0,2369
4218,1224218,17064,-632,932,17101.12,30.55,-1.00,-1.0,2441
4221,1224221,17028,-592,896,17061.83,30.55,-1.00,-1.0,2368
4223,1224223,17152,-664,924,17189.70,30.60,-1.00,-1.0,2425
4226,1224226,17004,-636,868,17038.01,30.55,-1.00,-1.0,2373
4229,1224229,16984,-576,944,17019.96,30.60,-1.00,-1.0,2368
4231,1224231,16976,-660,860,17010.58,30.55,-1.00,-1.0,2430
4234,1224234,17160,-592,920,17194.84,30.55,-1.00,-1.0,2384
4237,1224237,17112,-556,916,17145.52,30.46,-1.00,-1.0,2424
4240,1224240,16932,-644,776,16962.00,30.65,-1.00,-1.0,2373
4245,1224245,17104,-672,840,17137.79,30.51,-1.00,-1.0,2441
4247,1224247,17060,-572,900,17093.30,30.60,-1.00,-1.0,2371
4250,1224250,17068,-632,872,17101.94,30.55,-1.00,-1.0,2431
4253,1224253,16972,-632,984,17012.24,30.60,-1.00,-1.0,2377
4256,1224256,17136,-596,920,17171.03,30.46,-1.00,-1.0,2433
4258,1224258,17040,-740,864,17077.93,30.46,-1.00,-1.0,2378
4261,1224261,17156,-592,940,17191.93,30.55,-1.00,-1.0,2422
4264,1224264,17068,-608,984,17107.15,30.55,-1.00,-1.0,2357
4267,1224267,16984,-524,836,17012.63,30.55,-1.00,-1.0,2367
4272,1224272,16996,-580,820,17025.65,30.65,-1.00,-1.0,2448
4274,1224274,17112,-644,828,17144.12,30.55,-1.00,-1.0,2362
4277,1224277,17012,-616,920,17047.99,30.55,-1.00,-1.0,2422
4280,1224280,16936,-552,988,16973.77,30.46,-1.00,-1.0,2370
4283,1224283,16996,-644,980,17036.41,30.51,-1.00,-1.0,2421
4285,1224285,17196,-576,800,17224.23,30.65,-1.00,-1.0,2371
4288,1224288,17140,-512,756,17164.30,30.55,-1.00,-1.0,2421
4291,1224291,17000,-524,876,17030.62,30.55,-1.00,-1.0,2368
4296,1224296,16948,-588,884,16981.22,30.55,-1.00,-1.0,2450
4298,1224298,17100,-672,876,17135.61,30.55,-1.00,-1.0,2378
4301,1224301,17036,-620,824,17067.18,30.65,-1.00,-1.0,2421
4304,1224304,17064,-568,748,17089.83,30.65,-1.00,-1.0,2369
4307,1224307,17040,-644,860,17073.84,30.51,-1.00,-1.0,2367
4309,1224309,17036,-656,724,17063.99,30.41,-1.00,-1.0,2424
4312,1224312,16988,-636,840,17020.64,30.51,-1.00,-1.0,2369
4315,1224315,17024,-568,696,17047.69,30.69,-1.00,-1.0,2428
4318,1224318,17076,-532,756,17101.00,30.51,-1.00,-1.0,2367
4323,1224323,17152,-580,800,17180.44,30.60,-1.00,-1.0,2442
4325,1224325,16976,-664,884,17011.96,30.60,-1.00,-1.0,2368
4328,1224328,16944,-592,980,16982.64,30.60,-1.00,-1.0,2422
4331,1224331,17056,-604,932,17092.12,30.51,-1.00,-1.0,2367
4334,1224334,16984,-636,872,17018.26,30.60,-1.00,-1.0,2422
4336,1224336,16992,-620,928,17028.61,30.51,-1.00,-1.0,2369
4339,1224339,17056,-648,1016,17098.52,30.60,-1.00,-1.0,2425
4342,1224342,17152,-556,896,17184.38,30.60,-1.00,-1.0,2368
4344,1224344,16952,-620,892,16986.77,30.55,-1.00,-1.0,2378
4349,1224349,17020,-644,904,17056.15,30.55,-1.00,-1.0,2444
4352,1224352,17060,-592,948,17096.57,30.55,-1.00,-1.0,2368
4355,1224355,17020,-620,1016,17061.57,30.46,-1.00,-1.0,2429
4358,1224358,16952,-608,952,16989.59,30.55,-1.00,-1.0,2368
4360,1224360,17036,-648,800,17067.08,30.60,-1.00,-1.0,2429
4363,1224363,17008,-580,836,17038.41,30.65,-1.00,-1.0,2376
4366,1224366,16996,-668,816,17028.68,30.46,-1.00,-1.0,2411
4369,1224369,17056,-576,868,17087.78,30.55,-1.00,-1.0,2370
4374,1224374,17000,-652,932,17038.01,30.65,-1.00,-1.0,2443
4376,1224376,17044,-564,964,17080.55,30.55,-1.00,-1.0,2368
4379,1224379,17004,-668,872,17039.44,30.65,-1.00,-1.0,2421
4382,1224382,17112,-648,844,17145.05,30.46,-1.00,-1.0,2377
4384,1224384,17080,-620,1036,17122.62,30.60,-1.00,-1.0,2375
4387,1224387,17028,-596,960,17065.45,30.60,-1.00,-1.0,2422
4390,1224390,17020,-576,940,17055.67,30.46,-1.00,-1.0,2359
4393,1224393,16988,-548,908,17021.07,30.60,-1.00,-1.0,2422
4395,1224395,17012,-592,972,17050.03,30.60,-1.00,-1.0,2371
4400,1224400,17008,-528,940,17042.14,30.55,-1.00,-1.0,2441
4403,1224403,17080,-636,828,17111.88,30.51,-1.00,-1.0,2367
4406,1224406,17040,-688,972,17081.56,30.65,-1.00,-1.0,2429
4409,1224409,17032,-540,1044,17072.51,30.51,-1.00,-1.0,2367
4411,1224411,17072,-672,868,17107.26,30.65,-1.00,-1.0,2425
4414,1224414,17124,-552,900,17156.52,30.55,-1.00,-1.0,2369
4417,1224417,17088,-532,996,17125.27,30.55,-1.00,-1.0,2429
4420,1224420,16960,-496,780,16985.17,30.55,-1.00,-1.0,2368
4423,1224423,16968,-616,788,16997.45,30.51,-1.00,-1.0,2365
4427,1224427,17076,-672,992,17117.99,30.60,-1.00,-1.0,2457
4430,1224430,16996,-612,860,17028.74,30.55,-1.00,-1.0,2376
4433,1224433,17132,-628,808,17162.54,30.60,-1.00,-1.0,2429
4435,1224435,17064,-628,948,17101.85,30.60,-1.00,-1.0,2378
4438,1224438,17052,-668,876,17087.55,30.60,-1.00,-1.0,2422
4441,1224441,17044,-660,1032,17087.96,30.69,-1.00,-1.0,2370
4444,1224444,17020,-672,1036,17064.74,30.46,-1.00,-1.0,2421
4447,1224447,17036,-612,868,17069.07,30.55,-1.00,-1.0,2368
4452,1224452,17040,-632,864,17073.59,30.55,-1.00,-1.0,2444
4454,1224454,17016,-556,976,17053.03,30.41,-1.00,-1.0,2367
4457,1224457,16988,-608,764,17016.04,30.55,-1.00,-1.0,2421
4460,1224460,17180,-640,864,17213.61,30.60,-1.00,-1.0,2368
4462,1224462,17032,-560,736,17057.09,30.55,-1.00,-1.0,2369
4465,1224465,17088,-600,820,17118.18,30.60,-1.00,-1.0,2429
4468,1224468,17112,-612,944,17148.94,30.55,-1.00,-1.0,2376
4471,1224471,17052,-588,876,17084.61,30.60,-1.00,-1.0,2424
4474,1224474,17024,-620,972,17062.99,30.65,-1.00,-1.0,2369
4479,1224479,17012,-672,944,17051.42,30.55,-1.00,-1.0,2441
4481,1224481,17072,-608,824,17102.69,30.46,-1.00,-1.0,2368
4484,1224484,17092,-560,1024,17131.80,30.55,-1.00,-1.0,2422
4487,1224487,17048,-544,916,17081.26,30.55,-1.00,-1.0,2370
4490,1224490,17000,-668,776,17030.81,30.55,-1.00,-1.0,2408
4492,1224492,16988,-676,932,17026.97,30.46,-1.00,-1.0,2369
4495,1224495,17020,-592,868,17052.40,30.55,-1.00,-1.0,2425
4498,1224498,16944,-720,688,16973.24,30.65,-1.00,-1.0,2374
4501,1224501,16984,-624,840,17016.21,30.55,-1.00,-1.0,2367
4506,1224506,17076,-564,892,17108.58,30.55,-1.00,-1.0,2441
4508,1224508,17020,-580,896,17053.43,30.55,-1.00,-1.0,2368
4511,1224511,17012,-648,824,17044.27,30.60,-1.00,-1.0,2422
4514,1224514,17108,-568,968,17144.78,30.55,-1.00,-1.0,2368
4517,1224517,16992,-536,948,17026.86,30.60,-1.00,-1.0,2424
4519,1224519,16984,-604,788,17013.00,30.55,-1.00,-1.0,2369
4522,1224522,17064,-612,968,17102.39,30.51,-1.00,-1.0,2421
4525,1224525,16940,-592,800,16969.21,30.55,-1.00,-1.0,2370
4530,1224530,17096,-540,928,17129.68,30.46,-1.00,-1.0,2441
4533,1224533,16984,-672,880,17020.05,30.55,-1.00,-1.0,2368
4535,1224535,17108,-580,844,17138.62,30.51,-1.00,-1.0,2422
4538,1224538,17052,-592,992,17091.09,30.65,-1.00,-1.0,2369
4541,1224541,16932,-636,816,16963.58,30.51,-1.00,-1.0,2366
4543,1224543,17028,-580,800,17056.65,30.46,-1.00,-1.0,2432
4546,1224546,17064,-488,976,17098.85,30.60,-1.00,-1.0,2377
4549,1224549,17100,-584,1040,17141.55,30.65,-1.00,-1.0,2424
4552,1224552,16884,-612,956,16922.11,30.51,-1.00,-1.0,2371
4557,1224557,17016,-584,952,17052.61,30.51,-1.00,-1.0,2440
4559,1224559,17052,-616,940,17089.00,30.51,-1.00,-1.0,2369
4562,1224562,16956,-568,780,16983.43,30.55,-1.00,-1.0,2437
4565,1224565,17044,-588,924,17079.15,30.60,-1.00,-1.0,2377
4568,1224568,17112,-648,936,17149.83,30.65,-1.00,-1.0,2433
4570,1224570,17036,-596,948,17072.76,30.60,-1.00,-1.0,2372
4573,1224573,17056,-600,888,17089.64,30.55,-1.00,-1.0,2432
4576,1224576,17104,-640,824,17135.79,30.55,-1.00,-1.0,2377
4579,1224579,17056,-648,912,17092.65,30.55,-1.00,-1.0,2371
4584,1224584,17012,-540,932,17046.07,30.65,-1.00,-1.0,2441
4586,1224586,16988,-648,868,17022.50,30.51,-1.00,-1.0,2372
4589,1224589,16980,-620,896,17014.92,30.65,-1.00,-1.0,2430
4592,1224592,17104,-628,888,17138.54,30.55,-1.00,-1.0,2377
4595,1224595,17148,-708,976,17190.34,30.46,-1.00,-1.0,2439
4597,1224597,16976,-608,936,17012.65,30.65,-1.00,-1.0,2378
4600,1224600,17104,-536,892,17135.63,30.55,-1.00,-1.0,2421
4603,1224603,17036,-596,808,17065.56,30.55,-1.00,-1.0,2372
4608,1224608,17048,-620,1036,17090.70,30.55,-1.00,-1.0,2441
4610,1224610,17072,-664,960,17111.86,30.55,-1.00,-1.0,2359
4613,1224613,17032,-576,976,17069.66,30.51,-1.00,-1.0,2421
4616,1224616,17024,-632,1028,17066.71,30.46,-1.00,-1.0,2369
4619,1224619,17148,-620,948,17185.37,30.51,-1.00,-1.0,2366
4621,1224621,17032,-552,956,17067.74,30.55,-1.00,-1.0,2429
4624,1224624,17084,-588,924,17119.07,30.51,-1.00,-1.0,2369
4627,1224627,16988,-556,696,17011.34,30.55,-1.00,-1.0,2428
4630,1224630,17072,-552,772,17098.36,30.55,-1.00,-1.0,2370
4634,1224634,17056,-620,876,17089.73,30.55,-1.00,-1.0,2443
4637,1224637,17076,-632,964,17114.86,30.65,-1.00,-1.0,2368
4640,1224640,17112,-572,852,17142.74,30.55,-1.00,-1.0,2429
4643,1224643,17128,-476,868,17156.58,30.55,-1.00,-1.0,2369
4645,1224645,17056,-484,872,17085.13,30.46,-1.00,-1.0,2431
4648,1224648,17008,-620,952,17045.90,30.46,-1.00,-1.0,2376
4651,1224651,16976,-620,968,17014.88,30.65,-1.00,-1.0,2410
4654,1224654,17076,-692,864,17111.84,30.51,-1.00,-1.0,2423
4657,1224657,17076,-592,980,17114.34,30.55,-1.00,-1.0,2368
4662,1224662,17016,-480,860,17044.48,30.60,-1.00,-1.0,2439
4664,1224664,17064,-520,940,17097.78,30.60,-1.00,-1.0,2373
4667,1224667,17020,-572,768,17046.92,30.51,-1.00,-1.0,2419
4670,1224670,17028,-632,1028,17070.71,30.51,-1.00,-1.0,2372
4673,1224673,16976,-688,916,17014.61,30.60,-1.00,-1.0,2419
4676,1224676,17016,-712,712,17045.77,30.60,-1.00,-1.0,2373
4678,1224678,16980,-656,860,17014.42,30.51,-1.00,-1.0,2419
4681,1224681,17028,-536,1048,17068.64,30.60,-1.00,-1.0,2372
4686,1224686,17048,-568,904,17081.40,30.51,-1.00,-1.0,2438
4689,1224689,16936,-608,980,16975.22,30.65,-1.00,-1.0,2380
4692,1224692,17008,-596,964,17045.72,30.60,-1.00,-1.0,2420
4694,1224694,17004,-644,752,17032.80,30.51,-1.00,-1.0,2374
4697,1224697,17092,-660,932,17130.11,30.65,-1.00,-1.0,2378
4700,1224700,17036,-568,928,17070.71,30.55,-1.00,-1.0,2420
4702,1224702,17000,-612,880,17033.76,30.55,-1.00,-1.0,2373
4705,1224705,17028,-552,864,17058.84,30.55,-1.00,-1.0,2428
4708,1224708,17080,-540,892,17111.80,30.55,-1.00,-1.0,2374
4713,1224713,17008,-572,848,17038.73,30.55,-1.00,-1.0,2446
4716,1224716,17100,-660,896,17136.17,30.51,-1.00,-1.0,2369
4718,1224718,17088,-576,952,17124.19,30.55,-1.00,-1.0,2420
4721,1224721,17052,-520,840,17080.59,30.65,-1.00,-1.0,2371
4724,1224724,17036,-608,876,17069.34,30.46,-1.00,-1.0,2426
4727,1224727,17104,-520,852,17133.10,30.55,-1.00,-1.0,2371
4729,1224729,17132,-596,928,17167.46,30.55,-1.00,-1.0,2421
4732,1224732,17040,-652,860,17074.14,30.46,-1.00,-1.0,2371
4735,1224735,16944,-624,752,16972.15,30.55,-1.00,-1.0,2374
4740,1224740,16956,-656,920,16993.61,30.55,-1.00,-1.0,2438
4743,1224743,17016,-608,1052,17059.33,30.60,-1.00,-1.0,2371
4745,1224745,17124,-548,752,17149.26,30.65,-1.00,-1.0,2418
4748,1224748,17100,-588,1012,17140.01,30.55,-1.00,-1.0,2372
4751,1224751,17060,-660,912,17097.10,30.55,-1.00,-1.0,2427
4754,1224754,17052,-596,956,17089.17,30.55,-1.00,-1.0,2372
4756,1224756,17112,-592,956,17148.90,30.55,-1.00,-1.0,2422
4759,1224759,17048,-668,804,17080.02,30.65,-1.00,-1.0,2375
4764,1224764,17072,-644,812,17103.43,30.55,-1.00,-1.0,2440
4767,1224767,17024,-600,980,17062.74,30.60,-1.00,-1.0,2373
4770,1224770,17076,-640,972,17115.61,30.65,-1.00,-1.0,2419
4772,1224772,16960,-684,956,17000.69,30.51,-1.00,-1.0,2371
4775,1224775,17000,-596,884,17033.40,30.46,-1.00,-1.0,2374
4778,1224778,17024,-644,824,17056.09,30.46,-1.00,-1.0,2420
4780,1224780,16976,-620,956,17014.20,30.55,-1.00,-1.0,2373
4783,1224783,17100,-692,824,17133.82,30.60,-1.00,-1.0,2434
4786,1224786,17020,-596,944,17056.57,30.60,-1.00,-1.0,2379
4791,1224791,17128,-660,860,17162.27,30.65,-1.00,-1.0,2441
4794,1224794,17104,-628,808,17134.59,30.55,-1.00,-1.0,2371
4796,1224796,17112,-688,908,17149.88,30.60,-1.00,-1.0,2420
4799,1224799,16936,-696,824,16970.31,30.55,-1.00,-1.0,2372
4802,1224802,16952,-568,892,16984.95,30.60,-1.00,-1.0,2426
4805,1224805,17096,-568,956,17132.13,30.55,-1.00,-1.0,2372
4807,1224807,17060,-564,748,17085.70,30.51,-1.00,-1.0,2424
4810,1224810,17116,-596,892,17149.59,30.55,-1.00,-1.0,2372
4813,1224813,16984,-544,904,17016.74,30.60,-1.00,-1.0,2375
4818,1224818,17072,-632,768,17100.95,30.65,-1.00,-1.0,2447
4820,1224820,17036,-592,992,17075.12,30.60,-1.00,-1.0,2378
4823,1224823,17016,-616,912,17051.55,30.65,-1.00,-1.0,2419
4826,1224826,17080,-592,796,17108.78,30.55,-1.00,-1.0,2375
4829,1224829,16944,-560,980,16981.55,30.55,-1.00,-1.0,2421
4831,1224831,17012,-588,844,17043.07,30.55,-1.00,-1.0,2373
4834,1224834,17084,-468,772,17107.84,30.65,-1.00,-1.0,2419
4837,1224837,17052,-652,744,17080.67,30.55,-1.00,-1.0,2375
4842,1224842,17044,-624,836,17075.90,30.60,-1.00,-1.0,2439
4844,1224844,17052,-688,864,17087.73,30.60,-1.00,-1.0,2379
4847,1224847,17092,-588,860,17123.72,30.55,-1.00,-1.0,2415
4850,1224850,17048,-492,776,17072.74,30.60,-1.00,-1.0,2379
4853,1224853,17024,-568,960,17060.50,30.55,-1.00,-1.0,2366
4855,1224855,16992,-608,800,17021.68,30.60,-1.00,-1.0,2419
4858,1224858,16960,-580,796,16988.57,30.46,-1.00,-1.0,2371
4861,1224861,16996,-628,848,17028.73,30.55,-1.00,-1.0,2421
4864,1224864,17192,-536,860,17221.84,30.55,-1.00,-1.0,2370
4869,1224869,17016,-556,964,17052.35,30.55,-1.00,-1.0,2449
4872,1224872,17108,-572,900,17141.20,30.60,-1.00,-1.0,2375
4874,1224874,17036,-604,776,17064.36,30.46,-1.00,-1.0,2426
4877,1224877,17092,-520,824,17119.75,30.55,-1.00,-1.0,2385
4880,1224880,17004,-648,888,17039.50,30.65,-1.00,-1.0,2420
4883,1224883,17028,-616,876,17061.64,30.55,-1.00,-1.0,2378
4886,1224886,17132,-580,916,17166.27,30.55,-1.00,-1.0,2422
4888,1224888,17020,-652,896,17056.04,30.55,-1.00,-1.0,2366
4891,1224891,17000,-668,860,17034.84,30.55,-1.00,-1.0,2368
4896,1224896,17056,-604,904,17090.62,30.55,-1.00,-1.0,2441
4899,1224899,17136,-684,932,17174.95,30.55,-1.00,-1.0,2375
4902,1224902,17048,-608,856,17080.30,30.55,-1.00,-1.0,2422
4904,1224904,17024,-664,968,17064.42,30.55,-1.00,-1.0,2374
4907,1224907,17052,-648,880,17086.98,30.55,-1.00,-1.0,2419
4910,1224910,16968,-616,824,16999.16,30.65,-1.00,-1.0,2372
4913,1224913,16976,-532,720,16999.59,30.55,-1.00,-1.0,2419
4915,1224915,17076,-564,788,17103.47,30.46,-1.00,-1.0,2358
4920,1224920,17020,-664,820,17052.67,30.65,-1.00,-1.0,2452
4923,1224923,17052,-544,868,17082.74,30.65,-1.00,-1.0,2377
4926,1224926,16912,-616,880,16946.08,30.46,-1.00,-1.0,2428
4928,1224928,17080,-556,928,17114.23,30.46,-1.00,-1.0,2378
4931,1224931,17008,-572,796,17036.22,30.60,-1.00,-1.0,2366
4934,1224934,16980,-524,968,17015.64,30.51,-1.00,-1.0,2426
4937,1224937,16980,-600,888,17013.79,30.60,-1.00,-1.0,2371
4939,1224939,17096,-776,1012,17143.50,30.69,-1.00,-1.0,2419
4942,1224942,16988,-584,932,17023.57,30.51,-1.00,-1.0,2375
4947,1224947,17020,-616,824,17051.06,30.60,-1.00,-1.0,2438
4950,1224950,17032,-692,932,17071.51,30.41,-1.00,-1.0,2370
4953,1224953,17048,-580,1012,17087.86,30.51,-1.00,-1.0,2419
4955,1224955,16996,-604,864,17028.66,30.51,-1.00,-1.0,2372
4958,1224958,17012,-668,884,17048.04,30.60,-1.00,-1.0,2419
4961,1224961,17044,-536,940,17078.31,30.60,-1.00,-1.0,2370
4964,1224964,17004,-636,924,17040.96,30.60,-1.00,-1.0,2419
4966,1224966,17104,-604,832,17134.87,30.60,-1.00,-1.0,2371
4969,1224969,16924,-600,812,16954.09,30.51,-1.00,-1.0,2367
4974,1224974,17004,-592,860,17036.02,30.60,-1.00,-1.0,2439
4977,1224977,17068,-556,896,17100.54,30.41,-1.00,-1.0,2370
4980,1224980,16980,-584,804,17009.05,30.51,-1.00,-1.0,2419
4982,1224982,17028,-528,900,17059.94,30.60,-1.00,-1.0,2372
4985,1224985,17040,-652,920,17077.27,30.60,-1.00,-1.0,2419
4988,1224988,17080,-592,928,17115.43,30.60,-1.00,-1.0,2371
4991,1224991,17028,-440,948,17060.04,30.55,-1.00,-1.0,2419
4993,1224993,17140,-504,912,17171.64,30.51,-1.00,-1.0,2371
4998,1224998,16984,-604,996,17023.90,30.60,-1.00,-1.0,2438
5001,1225001,17024,-640,856,17057.52,30.60,-1.00,-1.0,2377
5004,1225004,17084,-592,996,17123.25,30.55,-1.00,-1.0,2426
5007,1225007,17084,-640,888,17119.03,30.60,-1.00,-1.0,2370
5009,1225009,17052,-640,820,17083.70,30.55,-1.00,-1.0,2366
5012,1225012,17032,-528,900,17063.93,30.55,-1.00,-1.0,2428
5015,1225015,17048,-580,768,17075.14,30.65,-1.00,-1.0,2370
5017,1225017,16996,-644,792,17026.63,30.55,-1.00,-1.0,2431
5020,1225020,16964,-644,876,16998.81,30.55,-1.00,-1.0,2379
5026,1225026,17036,-636,740,17063.92,30.69,-1.00,-1.0,2446
5028,1225028,17016,-576,824,17045.67,30.60,-1.00,-1.0,2359
5031,1225031,17012,-508,872,17041.91,30.65,-1.00,-1.0,2419
5034,1225034,17100,-616,880,17133.71,30.60,-1.00,-1.0,2372
5037,1225037,17076,-640,928,17113.17,30.55,-1.00,-1.0,2426
5040,1225040,17096,-632,800,17126.37,30.60,-1.00,-1.0,2371
5042,1225042,17028,-568,816,17057.00,30.65,-1.00,-1.0,2420
5045,1225045,16980,-596,928,17015.78,30.60,-1.00,-1.0,2359
5048,1225048,17000,-624,872,17033.78,30.55,-1.00,-1.0,2367
5052,1225052,17120,-700,792,17152.60,30.55,-1.00,-1.0,2442
5055,1225055,16984,-692,908,17022.33,30.46,-1.00,-1.0,2375
5058,1225058,16956,-472,860,16984.36,30.60,-1.00,-1.0,2428
5061,1225061,17084,-600,868,17116.56,30.55,-1.00,-1.0,2371
5063,1225063,17040,-436,988,17074.19,30.46,-1.00,-1.0,2427
5066,1225066,16988,-712,876,17025.46,30.46,-1.00,-1.0,2371
5069,1225069,17036,-656,824,17068.53,30.60,-1.00,-1.0,2427
5072,1225072,17208,-584,820,17237.42,30.55,-1.00,-1.0,2371
5077,1225077,17156,-676,760,17186.12,30.65,-1.00,-1.0,2438
5079,1225079,17036,-540,948,17070.90,30.51,-1.00,-1.0,2423
5082,1225082,17060,-644,828,17092.22,30.55,-1.00,-1.0,2432
5085,1225085,17060,-644,864,17094.00,30.46,-1.00,-1.0,2374
5088,1225088,16952,-580,836,16982.51,30.60,-1.00,-1.0,2370
5090,1225090,17004,-580,824,17033.83,30.41,-1.00,-1.0,2425
5093,1225093,17124,-536,884,17155.18,30.51,-1.00,-1.0,2388
5096,1225096,17156,-700,992,17198.91,30.51,-1.00,-1.0,2417
5099,1225099,17000,-540,816,17028.14,30.51,-1.00,-1.0,2378
5104,1225104,17020,-732,756,17052.50,30.60,-1.00,-1.0,2423
5106,1225106,17088,-676,832,17121.59,30.46,-1.00,-1.0,2378
5109,1225109,17036,-624,976,17075.34,30.51,-1.00,-1.0,2450
5112,1225112,17036,-500,964,17070.58,30.51,-1.00,-1.0,2376
5115,1225115,17020,-580,940,17055.80,30.51,-1.00,-1.0,2432
5117,1225117,16932,-532,864,16962.38,30.51,-1.00,-1.0,2376
5120,1225120,17072,-544,948,17106.95,30.55,-1.00,-1.0,2461
5123,1225123,17048,-720,856,17084.65,30.55,-1.00,-1.0,2370
5126,1225126,17044,-636,808,17074.99,30.51,-1.00,-1.0,2367
5131,1225131,17008,-672,876,17043.80,30.60,-1.00,-1.0,2425
5133,1225133,17012,-536,688,17034.34,30.46,-1.00,-1.0,2378
5136,1225136,17152,-592,764,17179.21,30.60,-1.00,-1.0,2432
5139,1225139,17036,-668,848,17070.17,30.51,-1.00,-1.0,2372
5142,1225142,17028,-584,956,17064.81,30.65,-1.00,-1.0,2433
5144,1225144,17060,-496,912,17091.56,30.60,-1.00,-1.0,2377
5147,1225147,17072,-592,868,17104.30,30.55,-1.00,-1.0,2422
5150,1225150,17092,-656,792,17122.91,30.51,-1.00,-1.0,2357
5155,1225155,17016,-588,724,17041.54,30.51,-1.00,-1.0,2426
5158,1225158,17040,-564,892,17072.65,30.51,-1.00,-1.0,2372
5160,1225160,17104,-588,1012,17144.00,30.51,-1.00,-1.0,2445
5163,1225163,16988,-644,900,17024.01,30.51,-1.00,-1.0,2373
5166,1225166,17040,-520,960,17074.94,30.55,-1.00,-1.0,2370
5169,1225169,17040,-540,848,17069.63,30.55,-1.00,-1.0,2423
5171,1225171,17060,-600,820,17090.23,30.65,-1.00,-1.0,2370
5174,1225174,17012,-644,844,17045.09,30.65,-1.00,-1.0,2410
5177,1225177,17088,-616,672,17112.30,30.55,-1.00,-1.0,2369
5182,1225182,17076,-632,924,17112.66,30.55,-1.00,-1.0,2431
5184,1225184,17064,-624,988,17103.96,30.51,-1.00,-1.0,2376
5187,1225187,16996,-568,788,17023.74,30.46,-1.00,-1.0,2444
5190,1225190,17020,-624,832,17051.74,30.55,-1.00,-1.0,2373
5193,1225193,17036,-616,816,17066.65,30.46,-1.00,-1.0,2423
5195,1225195,17096,-516,888,17126.82,30.55,-1.00,-1.0,2377
5198,1225198,17024,-592,1036,17065.77,30.55,-1.00,-1.0,2422
5201,1225201,17096,-576,760,17122.58,30.55,-1.00,-1.0,2370
5204,1225204,17100,-524,800,17126.72,30.60,-1.00,-1.0,2368
5209,1225209,17004,-488,904,17035.00,30.65,-1.00,-1.0,2426
5211,1225211,17100,-636,1004,17141.25,30.55,-1.00,-1.0,2360
5214,1225214,17160,-632,784,17189.52,30.60,-1.00,-1.0,2437
5217,1225217,16996,-640,936,17033.78,30.55,-1.00,-1.0,2369
5220,1225220,17072,-584,1004,17111.46,30.51,-1.00,-1.0,2422
5222,1225222,17000,-612,860,17032.74,30.55,-1.00,-1.0,2370
5225,1225225,17076,-556,772,17102.48,30.51,-1.00,-1.0,2422
5228,1225228,17048,-580,888,17080.96,30.55,-1.00,-1.0,2369
5233,1225233,17020,-656,996,17061.73,30.51,-1.00,-1.0,2423
5235,1225235,17056,-684,932,17095.13,30.55,-1.00,-1.0,2373
5238,1225238,17088,-676,852,17122.58,30.60,-1.00,-1.0,2437
5241,1225241,16992,-608,1028,17033.92,30.60,-1.00,-1.0,2368
5243,1225243,17036,-652,788,17066.67,30.55,-1.00,-1.0,2370
5246,1225246,16972,-632,704,16998.35,30.55,-1.00,-1.0,2433
5249,1225249,16900,-608,668,16924.12,30.55,-1.00,-1.0,2377
5252,1225252,17120,-652,884,17155.20,30.55,-1.00,-1.0,2435
5254,1225254,16992,-540,872,17022.93,30.65,-1.00,-1.0,2376
5259,1225259,16980,-616,848,17012.32,30.60,-1.00,-1.0,2424
5262,1225262,17008,-600,752,17035.19,30.51,-1.00,-1.0,2372
5265,1225265,16944,-624,912,16980.00,30.55,-1.00,-1.0,2437
5267,1225267,17076,-688,908,17113.96,30.60,-1.00,-1.0,2376
5270,1225270,17020,-568,916,17054.09,30.46,-1.00,-1.0,2437
5273,1225273,17032,-504,804,17058.41,30.55,-1.00,-1.0,2365
5276,1225276,17044,-632,932,17081.16,30.55,-1.00,-1.0,2427
5278,1225278,17036,-556,920,17069.88,30.46,-1.00,-1.0,2370
5281,1225281,17068,-704,908,17106.63,30.46,-1.00,-1.0,2369
5286,1225286,17132,-612,964,17170.01,30.60,-1.00,-1.0,2424
5289,1225289,17000,-508,888,17030.75,30.51,-1.00,-1.0,2372
5292,1225292,17096,-600,900,17130.18,30.55,-1.00,-1.0,2440
5295,1225295,17064,-576,988,17102.28,30.51,-1.00,-1.0,2368
5297,1225297,17112,-668,808,17144.08,30.46,-1.00,-1.0,2424
5300,1225300,16980,-560,760,17006.22,30.51,-1.00,-1.0,2369
5303,1225303,17096,-572,916,17130.07,30.55,-1.00,-1.0,2425
5306,1225306,17040,-596,932,17075.87,30.60,-1.00,-1.0,2369
5311,1225311,16984,-592,964,17021.63,30.60,-1.00,-1.0,2424
5313,1225313,16964,-608,784,16992.99,30.55,-1.00,-1.0,2374
5316,1225316,17012,-580,792,17040.30,30.60,-1.00,-1.0,2436
5319,1225319,17076,-596,956,17113.12,30.51,-1.00,-1.0,2372
5321,1225321,17052,-692,984,17094.38,30.65,-1.00,-1.0,2371
5324,1225324,17156,-648,856,17189.56,30.55,-1.00,-1.0,2436
5327,1225327,17020,-644,948,17058.54,30.55,-1.00,-1.0,2377
5330,1225330,17136,-560,844,17165.91,30.51,-1.00,-1.0,2437
5332,1225332,17108,-660,840,17141.32,30.60,-1.00,-1.0,2378
5337,1225337,16940,-564,716,16964.50,30.55,-1.00,-1.0,2423
5340,1225340,17168,-672,1088,17215.56,30.55,-1.00,-1.0,2374
5343,1225343,17072,-588,916,17106.66,30.60,-1.00,-1.0,2435
5346,1225346,17096,-592,904,17130.12,30.55,-1.00,-1.0,2368
5348,1225348,17044,-532,936,17077.97,30.60,-1.00,-1.0,2440
5351,1225351,17076,-620,852,17108.48,30.55,-1.00,-1.0,2377
5354,1225354,17036,-564,812,17064.66,30.51,-1.00,-1.0,2412
5357,1225357,17092,-568,920,17126.16,30.55,-1.00,-1.0,2371
5359,1225359,17004,-620,880,17038.04,30.60,-1.00,-1.0,2376
5364,1225364,17016,-608,940,17052.79,30.51,-1.00,-1.0,2436
5367,1225367,17072,-516,868,17101.84,30.55,-1.00,-1.0,2380
5370,1225370,17000,-496,800,17026.04,30.60,-1.00,-1.0,2437
5373,1225373,17064,-608,868,17096.88,30.51,-1.00,-1.0,2373
5376,1225376,16956,-536,996,16993.68,30.51,-1.00,-1.0,2425
5378,1225378,17068,-652,968,17107.86,30.60,-1.00,-1.0,2377
5381,1225381,16944,-620,924,16980.50,30.51,-1.00,-1.0,2424
5384,1225384,17068,-536,1000,17105.67,30.51,-1.00,-1.0,2372
5389,1225389,16944,-660,864,16978.85,30.51,-1.00,-1.0,2433
5391,1225391,17108,-684,836,17142.07,30.51,-1.00,-1.0,2377
5394,1225394,16992,-616,896,17026.75,30.60,-1.00,-1.0,2444
5397,1225397,17064,-648,896,17099.79,30.51,-1.00,-1.0,2373
5400,1225400,16964,-548,888,16996.06,30.46,-1.00,-1.0,2367
5402,1225402,17008,-552,780,17034.82,30.55,-1.00,-1.0,2424
5405,1225405,17112,-480,712,17133.53,30.65,-1.00,-1.0,2370
5408,1225408,17028,-612,908,17063.17,30.55,-1.00,-1.0,2430
5411,1225411,17008,-652,896,17044.06,30.55,-1.00,-1.0,2369
5416,1225416,16976,-520,900,17007.79,30.55,-1.00,-1.0,2423
5418,1225418,17096,-680,988,17138.02,30.46,-1.00,-1.0,2373
5421,1225421,17064,-668,816,17096.55,30.46,-1.00,-1.0,2437
5424,1225424,17060,-668,832,17093.33,30.55,-1.00,-1.0,2369
5427,1225427,16996,-692,856,17031.61,30.46,-1.00,-1.0,2422
5429,1225429,16948,-656,904,16984.77,30.46,-1.00,-1.0,2369
5432,1225432,17076,-600,884,17109.39,30.55,-1.00,-1.0,2426
5435,1225435,17008,-740,868,17046.21,30.55,-1.00,-1.0,2369
5438,1225438,17000,-544,916,17033.35,30.46,-1.00,-1.0,2367
5442,1225442,17028,-612,932,17064.46,30.65,-1.00,-1.0,2424
5445,1225445,17072,-636,840,17104.48,30.46,-1.00,-1.0,2375
5448,1225448,17000,-600,940,17036.54,30.60,-1.00,-1.0,2439
5451,1225451,17092,-560,792,17119.50,30.65,-1.00,-1.0,2356
5453,1225453,16940,-592,804,16969.40,30.51,-1.00,-1.0,2422
5456,1225456,17040,-572,912,17073.97,30.55,-1.00,-1.0,2374
5459,1225459,17024,-516,860,17053.52,30.51,-1.00,-1.0,2434
5462,1225462,17104,-664,824,17136.71,30.65,-1.00,-1.0,2355
5466,1225466,17008,-584,928,17043.31,30.55,-1.00,-1.0,2430
5469,1225469,17056,-632,804,17086.63,30.55,-1.00,-1.0,2376
5472,1225472,16972,-764,800,17008.01,30.55,-1.00,-1.0,2367
5474,1225474,17012,-612,924,17048.06,30.60,-1.00,-1.0,2439
5477,1225477,16980,-684,948,17020.19,30.46,-1.00,-1.0,2369
5480,1225480,17036,-716,884,17073.94,30.60,-1.00,-1.0,2430
5483,1225483,16964,-612,928,17000.38,30.60,-1.00,-1.0,2370
5486,1225486,17100,-672,860,17134.79,30.41,-1.00,-1.0,2422
5489,1225489,17080,-536,780,17106.20,30.51,-1.00,-1.0,2356
5494,1225494,17060,-636,816,17091.34,30.65,-1.00,-1.0,2423
5496,1225496,17052,-548,928,17086.02,30.55,-1.00,-1.0,2374
5499,1225499,16940,-592,792,16968.83,30.55,-1.00,-1.0,2437
5502,1225502,16964,-660,848,16998.00,30.55,-1.00,-1.0,2369
5505,1225505,17080,-532,900,17111.97,30.60,-1.00,-1.0,2423
5507,1225507,16964,-516,924,16996.98,30.60,-1.00,-1.0,2370
5510,1225510,16964,-568,964,17000.86,30.60,-1.00,-1.0,2375
5513,1225513,17080,-528,940,17113.99,30.46,-1.00,-1.0,2438
5516,1225516,17060,-644,904,17096.07,30.60,-1.00,-1.0,2370
5521,1225521,16996,-548,980,17033.05,30.60,-1.00,-1.0,2424
5523,1225523,17132,-572,852,17162.71,30.51,-1.00,-1.0,2373
5526,1225526,17072,-508,920,17104.32,30.69,-1.00,-1.0,2437
5529,1225529,17052,-620,828,17083.35,30.60,-1.00,-1.0,2370
5532,1225532,17104,-552,892,17136.14,30.51,-1.00,-1.0,2421
5534,1225534,17044,-596,824,17074.31,30.51,-1.00,-1.0,2370
5537,1225537,16952,-600,996,16991.83,30.60,-1.00,-1.0,2423
5540,1225540,17056,-656,816,17088.11,30.60,-1.00,-1.0,2370
5545,1225545,17000,-612,740,17027.10,30.55,-1.00,-1.0,2424
5547,1225547,16996,-616,936,17032.90,30.65,-1.00,-1.0,2380
5550,1225550,17040,-640,816,17071.53,30.60,-1.00,-1.0,2370
5553,1225553,17044,-616,700,17069.49,30.55,-1.00,-1.0,2443
5556,1225556,17096,-596,884,17129.21,30.55,-1.00,-1.0,2370
5558,1225558,17052,-644,1036,17095.58,30.55,-1.00,-1.0,2432
5561,1225561,17076,-552,884,17107.77,30.55,-1.00,-1.0,2376
5564,1225564,16980,-616,868,17013.33,30.55,-1.00,-1.0,2411
5567,1225567,17084,-700,920,17123.07,30.65,-1.00,-1.0,2373
5572,1225572,17060,-548,996,17097.83,30.60,-1.00,-1.0,2425
5574,1225574,17008,-600,876,17041.11,30.60,-1.00,-1.0,2373
5577,1225577,16972,-620,940,17009.31,30.55,-1.00,-1.0,2437
5580,1225580,17140,-488,840,17167.51,30.51,-1.00,-1.0,2377
5583,1225583,17000,-564,896,17032.94,30.65,-1.00,-1.0,2423
5585,1225585,17044,-624,988,17084.01,30.65,-1.00,-1.0,2371
5588,1225588,17000,-660,860,17034.53,30.55,-1.00,-1.0,2354
5591,1225591,17156,-656,912,17192.74,30.51,-1.00,-1.0,2424
5594,1225594,17204,-612,1016,17244.84,30.55,-1.00,-1.0,2377
5599,1225599,17040,-592,864,17072.16,30.46,-1.00,-1.0,2423
5601,1225601,17180,-472,920,17211.09,30.55,-1.00,-1.0,2375
5604,1225604,17008,-576,812,17037.11,30.46,-1.00,-1.0,2453
5607,1225607,17076,-680,784,17107.51,30.55,-1.00,-1.0,2377
5610,1225610,17060,-608,952,17097.36,30.60,-1.00,-1.0,2436
5612,1225612,16984,-620,836,17015.86,30.46,-1.00,-1.0,2377
5615,1225615,17040,-600,860,17072.23,30.51,-1.00,-1.0,2422
5618,1225618,17100,-732,972,17143.24,30.46,-1.00,-1.0,2373
5623,1225623,17044,-608,748,17071.24,30.65,-1.00,-1.0,2412
5626,1225626,17036,-660,884,17071.68,30.51,-1.00,-1.0,2373
5628,1225628,17056,-600,848,17087.61,30.55,-1.00,-1.0,2382
5631,1225631,17020,-608,964,17058.12,30.60,-1.00,-1.0,2438
5634,1225634,17064,-536,848,17093.46,30.60,-1.00,-1.0,2369
5637,1225637,17000,-516,776,17025.52,30.51,-1.00,-1.0,2421
5639,1225639,17028,-648,792,17058.72,30.51,-1.00,-1.0,2357
5642,1225642,17192,-684,824,17225.32,30.51,-1.00,-1.0,2422
5645,1225645,17076,-552,908,17109.03,30.60,-1.00,-1.0,2366
5650,1225650,17108,-512,908,17139.73,30.60,-1.00,-1.0,2424
5652,1225652,17032,-592,948,17068.63,30.51,-1.00,-1.0,2373
5655,1225655,17024,-604,1012,17064.75,30.55,-1.00,-1.0,2437
5658,1225658,17044,-628,964,17082.79,30.51,-1.00,-1.0,2368
5661,1225661,16984,-584,988,17022.73,30.55,-1.00,-1.0,2422
5663,1225663,17052,-644,800,17082.90,30.60,-1.00,-1.0,2370
5666,1225666,17052,-656,832,17084.88,30.55,-1.00,-1.0,2378
5669,1225669,17044,-596,860,17076.09,30.65,-1.00,-1.0,2422
5672,1225672,17056,-572,1000,17094.86,30.51,-1.00,-1.0,2368
5676,1225676,17060,-636,972,17099.50,30.60,-1.00,-1.0,2434
5679,1225679,17100,-656,996,17141.54,30.55,-1.00,-1.0,2373
5682,1225682,17124,-628,980,17163.51,30.60,-1.00,-1.0,2424
5685,1225685,17056,-536,772,17081.87,30.51,-1.00,-1.0,2373
5687,1225687,17088,-568,1036,17128.80,30.60,-1.00,-1.0,2431
5690,1225690,17036,-596,816,17065.94,30.51,-1.00,-1.0,2387
5693,1225693,17100,-624,960,17138.29,30.51,-1.00,-1.0,2425
5696,1225696,17000,-548,904,17032.84,30.55,-1.00,-1.0,2369
5701,1225701,17084,-588,904,17118.00,30.51,-1.00,-1.0,2425
5703,1225703,17124,-560,700,17147.45,30.60,-1.00,-1.0,2381
5706,1225706,17076,-560,924,17110.15,30.46,-1.00,-1.0,2365
5709,1225709,17116,-652,908,17152.46,30.55,-1.00,-1.0,2445
5712,1225712,17064,-600,860,17096.19,30.55,-1.00,-1.0,2369
5714,1225714,17036,-580,756,17062.63,30.51,-1.00,-1.0,2429
5717,1225717,17060,-604,968,17098.11,30.55,-1.00,-1.0,2370
5720,1225720,17100,-500,848,17128.31,30.55,-1.00,-1.0,2429
5723,1225723,17076,-576,804,17104.62,30.55,-1.00,-1.0,2369
5728,1225728,17104,-680,860,17139.10,30.55,-1.00,-1.0,2423
5730,1225730,17004,-700,964,17045.68,30.60,-1.00,-1.0,2381
5733,1225733,17104,-584,880,17136.58,30.55,-1.00,-1.0,2430
5736,1225736,17020,-496,872,17049.54,30.55,-1.00,-1.0,2370
5739,1225739,17052,-600,952,17089.09,30.46,-1.00,-1.0,2437
5742,1225742,17072,-596,1036,17113.79,30.55,-1.00,-1.0,2369
5744,1225744,17060,-600,940,17096.41,30.51,-1.00,-1.0,2366
5747,1225747,16908,-568,912,16942.10,30.51,-1.00,-1.0,2430
5750,1225750,17124,-660,968,17164.03,30.46,-1.00,-1.0,2376
5755,1225755,17028,-616,908,17063.31,30.55,-1.00,-1.0,2431
5758,1225758,17060,-580,1044,17101.75,30.55,-1.00,-1.0,2374
5760,1225760,16980,-580,932,17015.45,30.51,-1.00,-1.0,2431
5763,1225763,17044,-692,1040,17089.72,30.65,-1.00,-1.0,2370
5766,1225766,17032,-672,748,17061.66,30.46,-1.00,-1.0,2431
5769,1225769,17012,-640,980,17052.22,30.55,-1.00,-1.0,2369
5771,1225771,16984,-632,936,17021.51,30.69,-1.00,-1.0,2423
5774,1225774,17184,-564,964,17220.26,30.55,-1.00,-1.0,2370
5779,1225779,17076,-600,816,17106.01,30.55,-1.00,-1.0,2424
5782,1225782,16964,-620,800,16994.17,30.65,-1.00,-1.0,2372
5784,1225784,16996,-532,816,17023.89,30.51,-1.00,-1.0,2369
5787,1225787,17032,-640,952,17070.59,30.60,-1.00,-1.0,2453
5790,1225790,17092,-492,820,17118.73,30.60,-1.00,-1.0,2377
5793,1225793,17100,-568,932,17134.80,30.55,-1.00,-1.0,2434
5795,1225795,16984,-584,816,17013.62,30.60,-1.00,-1.0,2382
5798,1225798,16988,-552,932,17022.50,30.74,-1.00,-1.0,2422
5801,1225801,17052,-616,868,17085.19,30.55,-1.00,-1.0,2377
5806,1225806,17092,-612,848,17123.96,30.60,-1.00,-1.0,2431
5809,1225809,17076,-568,948,17111.72,30.60,-1.00,-1.0,2373
5811,1225811,17100,-528,664,17121.03,30.46,-1.00,-1.0,2439
5814,1225814,17032,-668,892,17068.42,30.60,-1.00,-1.0,2378
5817,1225817,17140,-632,952,17178.05,30.55,-1.00,-1.0,2430
5820,1225820,17056,-592,944,17092.36,30.55,-1.00,-1.0,2372
5822,1225822,17052,-536,896,17083.93,30.46,-1.00,-1.0,2367
5825,1225825,16988,-604,952,17025.37,30.51,-1.00,-1.0,2421
5828,1225828,17052,-688,892,17089.17,30.55,-1.00,-1.0,2376
5833,1225833,17140,-612,828,17170.90,30.51,-1.00,-1.0,2430
5836,1225836,16992,-532,804,17019.33,30.60,-1.00,-1.0,2378
5838,1225838,17052,-604,772,17080.15,30.55,-1.00,-1.0,2447
5841,1225841,17016,-616,928,17052.42,30.55,-1.00,-1.0,2384
5844,1225844,17040,-660,940,17078.67,30.55,-1.00,-1.0,2425
5847,1225847,17048,-624,884,17082.30,30.55,-1.00,-1.0,2374
5850,1225850,16908,-524,812,16935.60,30.46,-1.00,-1.0,2429
5852,1225852,17108,-700,900,17145.95,30.55,-1.00,-1.0,2381
5859,1225859,17068,-552,896,17100.41,30.65,-1.00,-1.0,2424
5862,1225862,17048,-668,828,17081.16,30.65,-1.00,-1.0,2375
5864,1225864,17052,-704,940,17092.39,30.51,-1.00,-1.0,2366
5867,1225867,16956,-556,900,16988.97,30.60,-1.00,-1.0,2437
5870,1225870,17008,-532,940,17042.26,30.60,-1.00,-1.0,2377
5873,1225873,17028,-640,864,17061.91,30.55,-1.00,-1.0,2422
5875,1225875,17072,-616,880,17105.76,30.41,-1.00,-1.0,2370
5878,1225878,17060,-620,980,17099.37,30.65,-1.00,-1.0,2422
5881,1225881,17088,-624,800,17118.09,30.60,-1.00,-1.0,2377
5886,1225886,17080,-676,1016,17123.54,30.60,-1.00,-1.0,2424
5888,1225888,17052,-516,872,17082.08,30.60,-1.00,-1.0,2373
5891,1225891,17072,-632,816,17103.17,30.51,-1.00,-1.0,2436
5894,1225894,17116,-616,840,17147.67,30.51,-1.00,-1.0,2368
5897,1225897,17080,-616,808,17110.19,30.55,-1.00,-1.0,2422
5899,1225899,17084,-576,860,17115.33,30.60,-1.00,-1.0,2356
5902,1225902,17104,-588,924,17139.03,30.55,-1.00,-1.0,2375
5905,1225905,16984,-624,724,17010.87,30.55,-1.00,-1.0,2436
5907,1225907,16972,-624,908,17007.72,30.55,-1.00,-1.0,2380
5912,1225912,17004,-560,928,17038.51,30.46,-1.00,-1.0,2425
5915,1225915,17092,-580,856,17123.25,30.55,-1.00,-1.0,2373
5918,1225918,17028,-704,856,17064.03,30.65,-1.00,-1.0,2444
5921,1225921,17008,-616,820,17038.89,30.46,-1.00,-1.0,2368
5923,1225923,17124,-492,968,17158.39,30.46,-1.00,-1.0,2433
5926,1225926,16992,-592,1016,17032.64,30.55,-1.00,-1.0,2376
5929,1225929,17072,-584,856,17103.42,30.51,-1.00,-1.0,2425
5932,1225932,17080,-604,908,17114.78,30.55,-1.00,-1.0,2371
5937,1225937,17028,-604,904,17062.67,30.55,-1.00,-1.0,2426
5939,1225939,17068,-524,944,17102.12,30.65,-1.00,-1.0,2377
5942,1225942,17100,-536,904,17132.27,30.55,-1.00,-1.0,2354
5945,1225945,17000,-540,828,17028.72,30.60,-1.00,-1.0,2448
5947,1225947,17000,-716,804,17034.06,30.60,-1.00,-1.0,2375
5950,1225950,17012,-624,948,17049.82,30.51,-1.00,-1.0,2422
5953,1225953,16992,-600,1080,17036.86,30.60,-1.00,-1.0,2373
5956,1225956,17032,-608,860,17064.53,30.51,-1.00,-1.0,2422
5958,1225958,17172,-556,992,17209.61,30.60,-1.00,-1.0,2377
5963,1225963,16976,-696,872,17012.62,30.51,-1.00,-1.0,2433
5966,1225966,17012,-568,892,17044.84,30.55,-1.00,-1.0,2381
5969,1225969,17060,-680,776,17091.17,30.51,-1.00,-1.0,2436
5972,1225972,17020,-624,956,17058.24,30.46,-1.00,-1.0,2371
5975,1225975,17056,-604,808,17085.81,30.51,-1.00,-1.0,2409
5977,1225977,17076,-616,772,17104.54,30.51,-1.00,-1.0,2383
5980,1225980,17136,-568,792,17163.69,30.46,-1.00,-1.0,2367
5983,1225983,16976,-524,824,17004.06,30.46,-1.00,-1.0,2422
5985,1225985,17144,-640,948,17182.11,30.55,-1.00,-1.0,2370
5990,1225990,17124,-528,912,17156.39,30.60,-1.00,-1.0,2423
5993,1225993,17032,-612,960,17070.01,30.60,-1.00,-1.0,2376
5996,1225996,17064,-640,852,17097.24,30.46,-1.00,-1.0,2436
5999,1225999,17056,-580,892,17089.15,30.60,-1.00,-1.0,2371
6001,1226001,17060,-580,892,17093.15,30.65,-1.00,-1.0,2423
6004,1226004,17076,-528,960,17111.11,30.51,-1.00,-1.0,2371
6007,1226007,16916,-528,764,16941.47,30.55,-1.00,-1.0,2423
6009,1226009,17000,-668,952,17039.73,30.60,-1.00,-1.0,2358
6014,1226014,16976,-616,928,17012.50,30.60,-1.00,-1.0,2438
6017,1226017,17080,-440,852,17106.90,30.51,-1.00,-1.0,2380
6020,1226020,17052,-608,888,17085.93,30.55,-1.00,-1.0,2371
6023,1226023,17044,-556,844,17073.94,30.46,-1.00,-1.0,2436
6025,1226025,17064,-728,808,17098.62,30.65,-1.00,-1.0,2357
6028,1226028,17000,-588,792,17028.59,30.51,-1.00,-1.0,2451
6031,1226031,17068,-636,920,17104.61,30.60,-1.00,-1.0,2372
6034,1226034,17004,-512,824,17031.65,30.55,-1.00,-1.0,2422
6036,1226036,17032,-512,924,17064.73,30.51,-1.00,-1.0,2376
6041,1226041,17008,-636,868,17042.01,30.60,-1.00,-1.0,2434
6044,1226044,17028,-536,920,17061.26,30.51,-1.00,-1.0,2379
6047,1226047,17016,-608,948,17053.23,30.60,-1.00,-1.0,2439
6050,1226050,17084,-596,840,17115.02,30.60,-1.00,-1.0,2372
6053,1226053,17008,-552,876,17039.49,30.55,-1.00,-1.0,2430
6055,1226055,17080,-548,744,17104.98,30.51,-1.00,-1.0,2376
6058,1226058,17168,-704,844,17203.14,30.55,-1.00,-1.0,2367
6061,1226061,16976,-632,740,17003.87,30.46,-1.00,-1.0,2422
6063,1226063,16980,-552,940,17014.96,30.46,-1.00,-1.0,2355
6068,1226068,17064,-672,976,17105.09,30.65,-1.00,-1.0,2426
6071,1226071,17112,-672,1000,17154.36,30.55,-1.00,-1.0,2372
6074,1226074,17108,-592,936,17143.81,30.55,-1.00,-1.0,2437
6076,1226076,17060,-580,1012,17099.83,30.55,-1.00,-1.0,2369
6079,1226079,16984,-552,872,17015.33,30.51,-1.00,-1.0,2422
6082,1226082,17104,-696,968,17145.50,30.65,-1.00,-1.0,2376
6085,1226085,17032,-576,980,17069.89,30.60,-1.00,-1.0,2422
6087,1226087,16992,-616,828,17023.31,30.60,-1.00,-1.0,2369
6092,1226092,16952,-572,752,16978.31,30.46,-1.00,-1.0,2425
6095,1226095,17068,-588,968,17105.54,30.51,-1.00,-1.0,2374
6097,1226097,17184,-604,804,17213.40,30.65,-1.00,-1.0,2366
6100,1226100,17000,-516,900,17031.62,30.60,-1.00,-1.0,2435
6103,1226103,17056,-480,852,17084.01,30.55,-1.00,-1.0,2416
6106,1226106,17008,-520,896,17039.52,30.51,-1.00,-1.0,2430
6109,1226109,17024,-568,740,17049.54,30.55,-1.00,-1.0,2376
6111,1226111,17052,-468,920,17083.21,30.51,-1.00,-1.0,2421
6114,1226114,17016,-620,836,17047.80,30.46,-1.00,-1.0,2376
