timestamp_ms,global_ms,accel_x,accel_y,accel_z,accel_mag,temp_c,voltage,soc,loop_us
3,305003,17132,-652,732,17160.02,29.85,-1.00,-1.0,2495
9,305009,17132,-608,608,17153.56,29.85,-1.00,-1.0,2462
12,305012,17020,-648,704,17046.88,29.85,-1.00,-1.0,2371
15,305015,16980,-764,640,17009.22,29.75,-1.00,-1.0,2409
18,305018,17136,-552,704,17159.34,29.89,-1.00,-1.0,2446
20,305020,17072,-608,768,17100.08,29.89,-1.00,-1.0,2350
23,305023,17108,-588,852,17139.29,29.80,-1.00,-1.0,2421
26,305026,16984,-644,620,17007.51,29.80,-1.00,-1.0,2364
29,305029,17020,-668,684,17046.83,29.80,-1.00,-1.0,2430
31,305031,17088,-640,632,17111.66,29.80,-1.00,-1.0,2362
36,305036,17032,-548,624,17052.23,29.80,-1.00,-1.0,2439
39,305039,17068,-512,760,17092.58,29.75,-1.00,-1.0,2353
41,305041,17108,-560,736,17132.98,29.80,-1.00,-1.0,2362
44,305044,17052,-604,720,17077.88,29.89,-1.00,-1.0,2429
47,305047,17100,-596,684,17124.05,29.80,-1.00,-1.0,2368
50,305050,17004,-572,604,17024.34,29.80,-1.00,-1.0,2428
52,305052,17128,-596,568,17147.78,29.89,-1.00,-1.0,2367
55,305055,17068,-608,648,17091.12,29.89,-1.00,-1.0,2420
58,305058,17028,-648,652,17052.79,29.80,-1.00,-1.0,2369
60,305060,16968,-596,692,16992.56,29.85,-1.00,-1.0,2367
65,305065,17056,-636,788,17086.04,29.75,-1.00,-1.0,2418
68,305068,17052,-604,700,17077.05,29.80,-1.00,-1.0,2365
71,305071,17048,-692,808,17081.16,29.85,-1.00,-1.0,2430
74,305074,17052,-552,700,17075.29,29.80,-1.00,-1.0,2368
76,305076,17088,-560,900,17120.85,29.75,-1.00,-1.0,2424
79,305079,17024,-560,756,17049.98,29.89,-1.00,-1.0,2356
82,305082,17072,-616,816,17102.59,29.75,-1.00,-1.0,2420
85,305085,17060,-660,788,17090.94,29.80,-1.00,-1.0,2369
87,305087,17028,-540,688,17050.45,29.75,-1.00,-1.0,2371
92,305092,17036,-468,504,17049.88,29.85,-1.00,-1.0,2431
95,305095,17124,-576,880,17156.27,29.75,-1.00,-1.0,2364
98,305098,17032,-608,724,17058.22,29.85,-1.00,-1.0,2437
100,305100,17028,-624,672,17052.68,29.94,-1.00,-1.0,2368
103,305103,17076,-600,656,17099.13,29.85,-1.00,-1.0,2428
106,305106,17024,-576,632,17045.46,29.85,-1.00,-1.0,2369
109,305109,16972,-624,552,16992.44,29.80,-1.00,-1.0,2369
111,305111,17064,-432,792,17087.83,29.80,-1.00,-1.0,2423
114,305114,17064,-696,688,17092.04,29.80,-1.00,-1.0,2371
119,305119,17024,-672,480,17044.02,29.80,-1.00,-1.0,2444
122,305122,17032,-572,772,17059.08,29.94,-1.00,-1.0,2373
125,305125,17032,-560,736,17057.09,29.89,-1.00,-1.0,2439
127,305127,17100,-544,692,17122.64,29.80,-1.00,-1.0,2377
130,305130,17064,-728,624,17090.92,29.80,-1.00,-1.0,2421
133,305133,17084,-596,708,17109.05,29.80,-1.00,-1.0,2369
135,305135,17048,-580,744,17074.08,29.85,-1.00,-1.0,2367
138,305138,17084,-628,664,17108.43,29.85,-1.00,-1.0,2422
141,305141,17024,-668,808,17056.25,29.94,-1.00,-1.0,2369
146,305146,17044,-560,824,17073.09,29.85,-1.00,-1.0,2432
149,305149,17036,-572,792,17063.99,29.71,-1.00,-1.0,2369
151,305151,17060,-600,720,17085.72,29.75,-1.00,-1.0,2429
154,305154,16996,-532,648,17016.67,29.89,-1.00,-1.0,2368
157,305157,16988,-452,660,17006.82,29.85,-1.00,-1.0,2420
160,305160,17056,-556,656,17077.66,29.85,-1.00,-1.0,2369
162,305162,16976,-548,928,17010.18,29.85,-1.00,-1.0,2420
165,305165,16980,-564,664,17002.33,29.89,-1.00,-1.0,2369
168,305168,17120,-728,592,17145.70,29.80,-1.00,-1.0,2370
173,305173,17052,-648,560,17073.49,29.71,-1.00,-1.0,2436
176,305176,17116,-704,544,17139.11,29.80,-1.00,-1.0,2377
178,305178,17048,-636,516,17067.66,29.85,-1.00,-1.0,2417
181,305181,17020,-640,724,17047.41,29.99,-1.00,-1.0,2371
184,305184,16956,-580,716,16981.02,29.75,-1.00,-1.0,2421
187,305187,16992,-608,708,17017.61,29.89,-1.00,-1.0,2372
189,305189,16940,-580,704,16964.54,29.85,-1.00,-1.0,2423
192,305192,17136,-764,656,17165.56,29.80,-1.00,-1.0,2377
195,305195,17052,-656,680,17078.16,29.94,-1.00,-1.0,2366
200,305200,17028,-660,760,17057.72,29.75,-1.00,-1.0,2433
203,305203,17040,-672,756,17069.99,29.80,-1.00,-1.0,2373
205,305205,17096,-572,648,17117.84,29.85,-1.00,-1.0,2429
208,305208,17096,-588,800,17124.80,29.71,-1.00,-1.0,2356
211,305211,17068,-620,688,17093.11,29.85,-1.00,-1.0,2423
214,305214,17096,-632,824,17127.51,29.80,-1.00,-1.0,2370
216,305216,17040,-628,784,17069.58,29.85,-1.00,-1.0,2424
219,305219,17104,-564,704,17127.77,29.80,-1.00,-1.0,2371
222,305222,16960,-536,644,16980.68,29.85,-1.00,-1.0,2367
227,305227,17028,-572,792,17056.00,29.71,-1.00,-1.0,2439
229,305229,16948,-656,712,16975.63,29.85,-1.00,-1.0,2365
232,305232,17044,-592,748,17070.67,29.80,-1.00,-1.0,2433
235,305235,17052,-616,692,17077.15,29.89,-1.00,-1.0,2368
238,305238,17036,-644,792,17066.55,29.80,-1.00,-1.0,2427
240,305240,17120,-592,708,17144.86,29.80,-1.00,-1.0,2369
243,305243,17068,-604,672,17091.90,29.80,-1.00,-1.0,2424
246,305246,16972,-688,684,16999.71,29.89,-1.00,-1.0,2372
249,305249,17036,-580,752,17062.45,29.89,-1.00,-1.0,2366
254,305254,17052,-608,696,17077.03,29.85,-1.00,-1.0,2434
256,305256,17052,-596,728,17077.94,29.85,-1.00,-1.0,2375
259,305259,17104,-656,796,17135.07,29.85,-1.00,-1.0,2429
262,305262,16936,-636,660,16960.78,29.85,-1.00,-1.0,2369
265,305265,17028,-568,616,17048.60,29.85,-1.00,-1.0,2424
267,305267,16992,-584,800,17020.84,29.75,-1.00,-1.0,2368
270,305270,17016,-556,584,17035.09,29.80,-1.00,-1.0,2420
273,305273,16980,-632,648,17004.11,29.71,-1.00,-1.0,2369
276,305276,17052,-572,656,17074.20,29.80,-1.00,-1.0,2366
281,305281,17100,-568,792,17127.75,29.75,-1.00,-1.0,2432
284,305284,17096,-576,796,17124.21,29.75,-1.00,-1.0,2368
287,305287,17020,-680,732,17049.30,29.89,-1.00,-1.0,2430
289,305289,17032,-544,580,17050.55,29.75,-1.00,-1.0,2368
292,305292,17108,-640,744,17136.12,29.80,-1.00,-1.0,2420
295,305295,17044,-712,700,17073.22,29.80,-1.00,-1.0,2409
298,305298,17052,-528,752,17076.74,29.75,-1.00,-1.0,2432
301,305301,17008,-604,564,17028.06,29.85,-1.00,-1.0,2377
303,305303,17032,-644,596,17054.59,29.89,-1.00,-1.0,2368
308,305308,17088,-604,664,17111.56,29.80,-1.00,-1.0,2438
311,305311,17064,-624,752,17091.96,29.94,-1.00,-1.0,2366
314,305314,17008,-596,700,17032.83,29.89,-1.00,-1.0,2432
316,305316,17068,-560,608,17088.00,29.80,-1.00,-1.0,2364
319,305319,16992,-628,732,17019.35,29.71,-1.00,-1.0,2421
322,305322,16980,-620,676,17004.76,29.80,-1.00,-1.0,2372
325,305325,17104,-664,804,17135.76,29.80,-1.00,-1.0,2427
327,305327,17068,-696,708,17096.85,29.89,-1.00,-1.0,2368
330,305330,16936,-592,760,16963.38,29.71,-1.00,-1.0,2372
335,305335,17044,-604,720,17069.89,29.71,-1.00,-1.0,2437
338,305338,17028,-628,716,17054.61,29.80,-1.00,-1.0,2373
340,305340,16968,-624,856,17001.03,29.75,-1.00,-1.0,2423
343,305343,17008,-592,740,17034.38,29.71,-1.00,-1.0,2368
346,305346,17120,-636,716,17146.77,29.80,-1.00,-1.0,2421
349,305349,17132,-600,804,17161.35,29.80,-1.00,-1.0,2376
351,305351,17036,-656,724,17063.99,29.85,-1.00,-1.0,2420
354,305354,17096,-532,768,17121.51,29.71,-1.00,-1.0,2369
357,305357,17024,-572,732,17049.33,29.75,-1.00,-1.0,2380
362,305362,17156,-544,816,17184.01,29.85,-1.00,-1.0,2437
365,305365,17064,-716,784,17097.00,29.85,-1.00,-1.0,2373
368,305368,17028,-640,688,17053.91,29.85,-1.00,-1.0,2432
370,305370,17100,-608,660,17123.53,29.85,-1.00,-1.0,2370
373,305373,17112,-652,740,17140.40,29.85,-1.00,-1.0,2431
376,305376,17088,-628,604,17110.20,29.75,-1.00,-1.0,2380
379,305379,17068,-604,620,17089.93,29.80,-1.00,-1.0,2435
381,305381,16972,-648,724,16999.79,29.75,-1.00,-1.0,2378
384,305384,17072,-560,776,17098.80,29.80,-1.00,-1.0,2372
389,305389,17056,-580,684,17079.56,29.85,-1.00,-1.0,2453
392,305392,16984,-544,740,17008.81,29.85,-1.00,-1.0,2371
395,305395,17072,-560,624,17092.58,29.80,-1.00,-1.0,2432
397,305397,17128,-680,592,17151.71,29.85,-1.00,-1.0,2368
400,305400,17128,-604,732,17154.27,29.89,-1.00,-1.0,2429
403,305403,17120,-620,728,17146.68,29.85,-1.00,-1.0,2372
406,305406,17096,-616,780,17124.87,29.89,-1.00,-1.0,2434
408,305408,17060,-568,556,17078.51,29.75,-1.00,-1.0,2369
411,305411,17036,-664,524,17056.99,29.80,-1.00,-1.0,2368
416,305416,17120,-612,796,17149.42,29.89,-1.00,-1.0,2452
419,305419,17108,-592,696,17132.38,29.85,-1.00,-1.0,2370
422,305422,17096,-520,564,17113.20,29.89,-1.00,-1.0,2434
424,305424,17120,-608,800,17149.46,29.80,-1.00,-1.0,2375
427,305427,17024,-636,652,17048.35,29.80,-1.00,-1.0,2420
430,305430,17000,-536,692,17022.52,29.80,-1.00,-1.0,2373
433,305433,17072,-600,676,17095.91,29.89,-1.00,-1.0,2427
435,305435,17060,-580,712,17084.70,29.89,-1.00,-1.0,2372
438,305438,17140,-688,740,17169.76,29.80,-1.00,-1.0,2369
443,305443,17064,-596,768,17091.67,29.85,-1.00,-1.0,2438
446,305446,17020,-620,800,17050.07,29.85,-1.00,-1.0,2369
448,305448,17052,-676,732,17081.09,29.85,-1.00,-1.0,2424
451,305451,17116,-488,768,17140.17,29.75,-1.00,-1.0,2369
454,305454,17040,-560,664,17062.12,29.85,-1.00,-1.0,2420
457,305457,17168,-592,852,17199.32,29.80,-1.00,-1.0,2423
460,305460,16996,-524,756,17020.87,29.85,-1.00,-1.0,2427
462,305462,17080,-564,700,17103.64,29.85,-1.00,-1.0,2372
465,305465,17028,-568,816,17057.00,29.85,-1.00,-1.0,2365
470,305470,17120,-704,752,17150.96,29.80,-1.00,-1.0,2441
472,305472,17080,-632,844,17112.52,29.80,-1.00,-1.0,2372
475,305475,17044,-572,792,17071.98,29.80,-1.00,-1.0,2426
478,305478,17004,-524,704,17026.63,29.80,-1.00,-1.0,2383
481,305481,17176,-652,716,17203.28,29.71,-1.00,-1.0,2420
484,305484,17024,-640,764,17053.15,29.80,-1.00,-1.0,2370
486,305486,17064,-696,696,17092.37,29.75,-1.00,-1.0,2423
489,305489,17036,-640,728,17063.55,29.85,-1.00,-1.0,2356
492,305492,17036,-620,696,17061.48,29.85,-1.00,-1.0,2353
497,305497,16988,-652,724,17015.92,29.94,-1.00,-1.0,2438
500,305500,17156,-644,720,17183.17,29.80,-1.00,-1.0,2365
503,305503,17116,-592,756,17142.91,29.75,-1.00,-1.0,2425
505,305505,17020,-616,672,17044.40,29.85,-1.00,-1.0,2354
508,305508,17124,-576,648,17145.93,29.75,-1.00,-1.0,2420
511,305511,17052,-588,664,17075.05,29.80,-1.00,-1.0,2369
514,305514,17112,-656,632,17136.23,29.75,-1.00,-1.0,2422
516,305516,17072,-516,780,17097.60,29.85,-1.00,-1.0,2368
519,305519,17040,-604,644,17062.86,29.80,-1.00,-1.0,2369
524,305524,17112,-684,628,17137.18,29.75,-1.00,-1.0,2438
527,305527,17124,-644,700,17150.40,29.85,-1.00,-1.0,2366
530,305530,17032,-644,620,17055.44,29.89,-1.00,-1.0,2430
532,305532,17016,-560,596,17035.64,29.85,-1.00,-1.0,2368
535,305535,17148,-608,644,17170.86,29.89,-1.00,-1.0,2420
538,305538,17032,-580,720,17057.08,29.85,-1.00,-1.0,2369
541,305541,17096,-488,748,17119.31,29.89,-1.00,-1.0,2427
543,305543,17012,-564,720,17036.57,29.85,-1.00,-1.0,2368
548,305548,17048,-620,672,17072.50,29.94,-1.00,-1.0,2437
551,305551,17044,-624,732,17071.12,29.85,-1.00,-1.0,2369
554,305554,17036,-552,816,17064.46,29.89,-1.00,-1.0,2372
557,305557,16996,-588,616,17017.32,29.75,-1.00,-1.0,2435
559,305559,17072,-628,672,17096.76,29.80,-1.00,-1.0,2372
562,305562,17096,-568,720,17120.58,29.85,-1.00,-1.0,2429
565,305565,17116,-624,608,17138.16,29.89,-1.00,-1.0,2375
568,305568,16992,-692,820,17025.84,29.75,-1.00,-1.0,2432
570,305570,17060,-560,676,17082.57,29.85,-1.00,-1.0,2379
575,305575,17108,-664,616,17131.96,29.85,-1.00,-1.0,2447
578,305578,17104,-624,584,17125.34,29.80,-1.00,-1.0,2361
581,305581,17084,-484,708,17105.51,29.75,-1.00,-1.0,2366
583,305583,17068,-612,496,17086.17,29.80,-1.00,-1.0,2422
586,305586,17052,-616,620,17074.38,29.75,-1.00,-1.0,2369
589,305589,17128,-636,824,17159.60,29.71,-1.00,-1.0,2420
592,305592,17080,-584,628,17101.52,29.85,-1.00,-1.0,2373
594,305594,17080,-604,724,17106.00,29.89,-1.00,-1.0,2420
597,305597,17024,-564,660,17046.12,29.85,-1.00,-1.0,2380
602,305602,17092,-592,764,17119.30,29.85,-1.00,-1.0,2452
605,305605,17048,-560,620,17068.46,29.80,-1.00,-1.0,2366
608,305608,17008,-660,564,17030.14,29.85,-1.00,-1.0,2367
610,305610,17060,-720,668,17088.25,29.80,-1.00,-1.0,2422
613,305613,16972,-704,692,17000.68,29.85,-1.00,-1.0,2368
616,305616,16948,-576,728,16973.40,29.80,-1.00,-1.0,2419
619,305619,17120,-572,700,17143.85,29.75,-1.00,-1.0,2368
621,305621,16992,-512,588,17009.88,29.89,-1.00,-1.0,2419
624,305624,17088,-568,788,17115.59,29.85,-1.00,-1.0,2377
629,305629,17068,-616,692,17093.12,29.75,-1.00,-1.0,2446
632,305632,17088,-520,684,17109.59,29.89,-1.00,-1.0,2409
635,305635,17012,-636,688,17037.78,29.75,-1.00,-1.0,2374
638,305638,17052,-620,680,17076.81,29.89,-1.00,-1.0,2436
640,305640,17080,-640,808,17111.07,29.85,-1.00,-1.0,2375
643,305643,17092,-628,712,17118.35,29.99,-1.00,-1.0,2415
646,305646,17100,-652,816,17131.87,29.80,-1.00,-1.0,2377
649,305649,17116,-592,732,17141.87,29.80,-1.00,-1.0,2417
651,305651,17080,-552,500,17096.23,29.71,-1.00,-1.0,2373
656,305656,17048,-568,672,17070.69,29.80,-1.00,-1.0,2424
659,305659,17076,-760,716,17107.89,29.80,-1.00,-1.0,2371
661,305661,17116,-588,768,17143.31,29.75,-1.00,-1.0,2365
664,305664,17128,-656,472,17147.05,29.85,-1.00,-1.0,2440
667,305667,17096,-628,660,17120.26,29.85,-1.00,-1.0,2377
670,305670,17036,-572,700,17059.97,29.89,-1.00,-1.0,2409
672,305672,17064,-616,784,17093.10,29.85,-1.00,-1.0,2370
675,305675,17080,-700,620,17105.58,29.80,-1.00,-1.0,2419
678,305678,17008,-564,724,17032.74,29.89,-1.00,-1.0,2357
683,305683,16984,-692,772,17015.61,29.75,-1.00,-1.0,2423
686,305686,17136,-624,740,17163.32,29.80,-1.00,-1.0,2378
688,305688,16972,-640,604,16994.80,29.80,-1.00,-1.0,2372
691,305691,17092,-616,600,17113.62,29.89,-1.00,-1.0,2419
694,305694,16996,-540,704,17019.14,29.89,-1.00,-1.0,2372
697,305697,17044,-552,736,17068.81,29.80,-1.00,-1.0,2421
699,305699,16960,-564,728,16984.98,29.89,-1.00,-1.0,2366
702,305702,17032,-604,652,17055.17,29.75,-1.00,-1.0,2419
705,305705,17124,-648,552,17145.14,29.80,-1.00,-1.0,2370
711,305711,16936,-704,844,16971.62,29.80,-1.00,-1.0,2427
713,305713,17008,-640,700,17034.43,29.80,-1.00,-1.0,2411
716,305716,17080,-564,696,17103.48,29.89,-1.00,-1.0,2387
719,305719,17132,-620,688,17157.02,29.80,-1.00,-1.0,2427
722,305722,16964,-576,608,16984.66,29.80,-1.00,-1.0,2374
724,305724,17036,-592,752,17062.86,29.71,-1.00,-1.0,2417
727,305727,16992,-656,724,17020.06,29.80,-1.00,-1.0,2373
730,305730,17104,-688,672,17131.02,29.80,-1.00,-1.0,2405
733,305733,17048,-612,644,17071.13,29.89,-1.00,-1.0,2373
738,305738,17048,-504,696,17069.64,29.89,-1.00,-1.0,2431
740,305740,17004,-568,684,17027.23,29.89,-1.00,-1.0,2380
743,305743,16952,-668,732,16980.94,29.80,-1.00,-1.0,2371
746,305746,16972,-652,640,16996.57,29.75,-1.00,-1.0,2430
748,305748,17116,-584,696,17140.10,29.85,-1.00,-1.0,2368
751,305751,17104,-608,724,17130.11,29.94,-1.00,-1.0,2421
754,305754,17004,-628,620,17026.88,29.75,-1.00,-1.0,2370
757,305757,17080,-524,688,17101.88,29.85,-1.00,-1.0,2428
759,305759,17080,-608,588,17100.93,29.85,-1.00,-1.0,2368
764,305764,16956,-556,656,16977.79,29.85,-1.00,-1.0,2423
767,305767,16992,-636,604,17014.62,29.80,-1.00,-1.0,2380
770,305770,17064,-648,712,17091.14,29.85,-1.00,-1.0,2372
773,305773,17024,-604,688,17048.60,29.89,-1.00,-1.0,2435
775,305775,17040,-604,624,17062.12,29.80,-1.00,-1.0,2378
778,305778,17024,-612,600,17045.56,29.80,-1.00,-1.0,2415
781,305781,17148,-632,724,17174.91,29.80,-1.00,-1.0,2378
784,305784,17052,-704,660,17079.28,29.80,-1.00,-1.0,2430
786,305786,17040,-632,584,17061.71,29.85,-1.00,-1.0,2368
791,305791,17132,-624,792,17161.64,29.75,-1.00,-1.0,2422
794,305794,16984,-564,732,17009.12,29.85,-1.00,-1.0,2371
797,305797,17148,-592,692,17172.16,29.80,-1.00,-1.0,2381
800,305800,17084,-540,708,17107.19,29.80,-1.00,-1.0,2435
802,305802,17060,-516,732,17083.49,29.80,-1.00,-1.0,2380
805,305805,17060,-620,648,17083.56,29.85,-1.00,-1.0,2419
808,305808,17116,-636,724,17143.11,29.80,-1.00,-1.0,2372
811,305811,17060,-532,652,17080.74,29.80,-1.00,-1.0,2426
813,305813,17000,-576,592,17020.05,29.80,-1.00,-1.0,2369
818,305818,17108,-588,748,17134.44,29.85,-1.00,-1.0,2409
821,305821,17004,-632,700,17030.13,29.94,-1.00,-1.0,2377
824,305824,16956,-572,620,16976.97,29.89,-1.00,-1.0,2373
827,305827,17120,-680,664,17146.36,29.89,-1.00,-1.0,2434
829,305829,16992,-516,636,17011.73,29.80,-1.00,-1.0,2377
832,305832,17064,-544,712,17087.51,29.75,-1.00,-1.0,2420
835,305835,17072,-648,592,17094.55,29.89,-1.00,-1.0,2373
838,305838,17112,-568,636,17133.23,29.80,-1.00,-1.0,2425
840,305840,17072,-644,628,17095.68,29.80,-1.00,-1.0,2376
845,305845,17048,-540,704,17071.07,29.89,-1.00,-1.0,2422
848,305848,16976,-564,624,16996.82,29.89,-1.00,-1.0,2374
851,305851,17024,-612,728,17050.54,29.80,-1.00,-1.0,2371
854,305854,17052,-632,728,17079.23,29.75,-1.00,-1.0,2425
856,305856,17032,-644,756,17060.93,29.85,-1.00,-1.0,2378
859,305859,17048,-632,720,17074.90,29.85,-1.00,-1.0,2425
862,305862,17120,-524,756,17144.69,29.85,-1.00,-1.0,2377
865,305865,17052,-604,724,17078.05,29.85,-1.00,-1.0,2422
868,305868,17108,-520,884,17138.71,29.80,-1.00,-1.0,2375
872,305872,17020,-588,716,17045.20,29.85,-1.00,-1.0,2424
875,305875,16952,-580,548,16970.77,29.85,-1.00,-1.0,2386
878,305878,17056,-636,696,17082.04,29.80,-1.00,-1.0,2373
880,305880,17116,-572,676,17138.89,29.80,-1.00,-1.0,2422
883,305883,17100,-608,696,17124.96,29.80,-1.00,-1.0,2372
886,305886,17112,-596,728,17137.85,29.75,-1.00,-1.0,2427
889,305889,16980,-552,728,17004.56,29.89,-1.00,-1.0,2377
892,305892,16972,-652,656,16997.18,29.94,-1.00,-1.0,2420
895,305895,17124,-608,736,17150.59,29.94,-1.00,-1.0,2370
899,305899,17012,-448,664,17030.85,29.80,-1.00,-1.0,2425
902,305902,17040,-608,656,17063.46,29.80,-1.00,-1.0,2381
905,305905,17072,-604,764,17099.76,29.75,-1.00,-1.0,2366
907,305907,17040,-608,684,17064.56,29.85,-1.00,-1.0,2424
910,305910,17088,-608,832,17119.04,29.75,-1.00,-1.0,2372
913,305913,17208,-668,664,17233.76,29.89,-1.00,-1.0,2420
916,305916,17000,-560,688,17023.13,29.75,-1.00,-1.0,2370
919,305919,17076,-700,524,17098.37,29.89,-1.00,-1.0,2421
922,305922,17092,-652,732,17120.09,29.85,-1.00,-1.0,2367
927,305927,17120,-536,660,17141.10,29.85,-1.00,-1.0,2426
929,305929,17072,-568,624,17092.84,29.85,-1.00,-1.0,2394
932,305932,17120,-588,736,17145.90,29.89,-1.00,-1.0,2422
935,305935,17076,-560,804,17104.09,29.94,-1.00,-1.0,2360
937,305937,17032,-548,572,17050.41,29.80,-1.00,-1.0,2366
940,305940,16920,-496,720,16942.57,29.80,-1.00,-1.0,2420
943,305943,17056,-568,544,17074.12,29.80,-1.00,-1.0,2370
946,305946,17068,-548,668,17089.86,29.85,-1.00,-1.0,2422
949,305949,17016,-508,772,17041.08,29.89,-1.00,-1.0,2369
954,305954,17044,-616,652,17067.59,29.89,-1.00,-1.0,2422
956,305956,17116,-656,668,17141.59,29.85,-1.00,-1.0,2388
959,305959,16996,-572,652,17018.12,29.89,-1.00,-1.0,2422
962,305962,16992,-632,664,17016.71,29.89,-1.00,-1.0,2371
964,305964,17036,-664,720,17064.13,29.80,-1.00,-1.0,2366
967,305967,16968,-580,644,16990.12,29.85,-1.00,-1.0,2428
970,305970,17192,-616,652,17215.38,29.85,-1.00,-1.0,2369
973,305973,17024,-508,700,17045.96,29.94,-1.00,-1.0,2427
976,305976,17020,-520,704,17042.49,29.80,-1.00,-1.0,2370
981,305981,17040,-652,640,17064.47,29.89,-1.00,-1.0,2422
983,305983,17064,-596,688,17088.26,29.89,-1.00,-1.0,2382
986,305986,17028,-580,652,17050.35,29.80,-1.00,-1.0,2421
989,305989,17012,-544,720,17035.92,29.89,-1.00,-1.0,2378
991,305991,16976,-496,692,16997.34,29.80,-1.00,-1.0,2367
994,305994,16936,-540,652,16957.15,29.85,-1.00,-1.0,2434
997,305997,17012,-536,688,17034.34,29.85,-1.00,-1.0,2369
1000,306000,17120,-712,572,17144.34,29.94,-1.00,-1.0,2427
1003,306003,17044,-708,724,17074.05,29.75,-1.00,-1.0,2377
1008,306008,17104,-656,596,17126.95,29.89,-1.00,-1.0,2422
1010,306010,17052,-580,640,17073.86,29.80,-1.00,-1.0,2381
1013,306013,16988,-656,724,17016.07,29.85,-1.00,-1.0,2423
1016,306016,17020,-564,612,17040.34,29.80,-1.00,-1.0,2372
1018,306018,17088,-568,732,17113.10,29.85,-1.00,-1.0,2370
1021,306021,17096,-552,756,17121.61,29.80,-1.00,-1.0,2429
1024,306024,17108,-588,776,17135.68,29.94,-1.00,-1.0,2376
1027,306027,17084,-732,624,17111.06,29.89,-1.00,-1.0,2420
1030,306030,17056,-548,696,17078.99,29.85,-1.00,-1.0,2377
1035,306035,16928,-648,744,16956.73,29.85,-1.00,-1.0,2429
1037,306037,16992,-560,572,17010.85,29.80,-1.00,-1.0,2380
1040,306040,17076,-652,644,17100.57,29.85,-1.00,-1.0,2425
1043,306043,17160,-644,672,17185.22,29.85,-1.00,-1.0,2370
1046,306046,17076,-544,632,17096.35,29.94,-1.00,-1.0,2429
1048,306048,17088,-612,680,17112.47,29.80,-1.00,-1.0,2368
1051,306051,17020,-600,712,17045.45,29.89,-1.00,-1.0,2379
1054,306054,17032,-628,696,17057.78,29.89,-1.00,-1.0,2419
1057,306057,17164,-596,772,17191.69,29.85,-1.00,-1.0,2381
1062,306062,17120,-616,740,17147.05,29.94,-1.00,-1.0,2430
1064,306064,17104,-612,700,17129.25,29.85,-1.00,-1.0,2375
1067,306067,17060,-728,736,17091.38,29.89,-1.00,-1.0,2429
1070,306070,16992,-580,724,17017.30,29.75,-1.00,-1.0,2370
1073,306073,17080,-548,716,17103.78,29.80,-1.00,-1.0,2428
1075,306075,17084,-580,776,17111.45,29.85,-1.00,-1.0,2370
1078,306078,17020,-596,776,17048.10,29.89,-1.00,-1.0,2432
1081,306081,16992,-708,672,17020.02,29.94,-1.00,-1.0,2370
1084,306084,16912,-528,652,16932.80,29.89,-1.00,-1.0,2374
1089,306089,16964,-588,824,16994.18,29.89,-1.00,-1.0,2426
1091,306091,17040,-540,672,17061.79,29.99,-1.00,-1.0,2389
1094,306094,17004,-604,720,17029.95,29.85,-1.00,-1.0,2422
1097,306097,17132,-616,724,17158.35,29.80,-1.00,-1.0,2372
1100,306100,17144,-684,712,17172.41,29.85,-1.00,-1.0,2421
1102,306102,17080,-576,636,17101.54,29.89,-1.00,-1.0,2373
1105,306105,17016,-556,788,17043.31,29.75,-1.00,-1.0,2419
1108,306108,17140,-548,644,17160.85,29.66,-1.00,-1.0,2370
1112,306112,17064,-640,692,17090.01,29.80,-1.00,-1.0,2423
1115,306115,16956,-568,644,16977.73,29.89,-1.00,-1.0,2375
1118,306118,17068,-604,708,17093.35,29.85,-1.00,-1.0,2373
1121,306121,17064,-636,704,17090.35,29.75,-1.00,-1.0,2424
1123,306123,16992,-568,720,17016.73,29.80,-1.00,-1.0,2368
1126,306126,17020,-592,704,17044.84,29.75,-1.00,-1.0,2419
1129,306129,17124,-644,688,17149.91,29.94,-1.00,-1.0,2370
1132,306132,17028,-568,632,17049.19,29.85,-1.00,-1.0,2422
1135,306135,17036,-652,680,17062.03,29.89,-1.00,-1.0,2367
1140,306140,17128,-636,624,17151.16,29.80,-1.00,-1.0,2422
1143,306143,16992,-592,816,17021.88,29.89,-1.00,-1.0,2389
1145,306145,17032,-696,688,17060.09,29.80,-1.00,-1.0,2376
1148,306148,17064,-588,720,17089.30,29.85,-1.00,-1.0,2423
1151,306151,17048,-704,688,17076.39,29.85,-1.00,-1.0,2370
1154,306154,17048,-556,696,17071.26,29.85,-1.00,-1.0,2424
1156,306156,17052,-592,776,17079.91,29.89,-1.00,-1.0,2368
1159,306159,16968,-628,716,16994.71,29.85,-1.00,-1.0,2420
1162,306162,17060,-572,660,17082.34,29.85,-1.00,-1.0,2374
1167,306167,17012,-624,636,17035.32,29.85,-1.00,-1.0,2429
1169,306169,17048,-616,620,17070.39,29.89,-1.00,-1.0,2387
1172,306172,17100,-660,696,17126.88,29.85,-1.00,-1.0,2425
1175,306175,17124,-612,544,17143.57,29.94,-1.00,-1.0,2377
1178,306178,17072,-636,652,17096.28,29.89,-1.00,-1.0,2366
1180,306180,17080,-652,740,17108.45,29.89,-1.00,-1.0,2419
1183,306183,17084,-600,664,17107.42,29.80,-1.00,-1.0,2357
1186,306186,17220,-628,720,17246.48,29.80,-1.00,-1.0,2420
1189,306189,17052,-632,644,17075.86,29.85,-1.00,-1.0,2372
1194,306194,17100,-552,696,17123.06,29.75,-1.00,-1.0,2426
1197,306197,16952,-616,776,16980.93,29.94,-1.00,-1.0,2389
1199,306199,17108,-636,720,17134.95,29.75,-1.00,-1.0,2426
1202,306202,17008,-580,832,17038.21,29.85,-1.00,-1.0,2357
1205,306205,17044,-612,720,17070.18,29.85,-1.00,-1.0,2420
1208,306208,17020,-640,664,17044.97,29.85,-1.00,-1.0,2369
1210,306210,17008,-544,700,17031.09,29.80,-1.00,-1.0,2353
1213,306213,17008,-576,696,17031.98,29.89,-1.00,-1.0,2419
1216,306216,17072,-560,648,17093.47,29.71,-1.00,-1.0,2369
1221,306221,17132,-544,804,17159.48,29.85,-1.00,-1.0,2424
1224,306224,17020,-560,668,17042.31,29.75,-1.00,-1.0,2387
1226,306226,17040,-664,776,17070.58,29.80,-1.00,-1.0,2423
1229,306229,17132,-536,704,17154.83,29.94,-1.00,-1.0,2372
1232,306232,17124,-564,664,17146.15,29.89,-1.00,-1.0,2406
1235,306235,17128,-644,648,17152.35,29.75,-1.00,-1.0,2372
1237,306237,17112,-592,728,17137.71,29.89,-1.00,-1.0,2419
1240,306240,17092,-540,620,17111.76,29.75,-1.00,-1.0,2372
1243,306243,16964,-576,680,16987.39,29.80,-1.00,-1.0,2366
1248,306248,17132,-664,656,17157.41,29.89,-1.00,-1.0,2425
1251,306251,17052,-568,556,17070.51,29.85,-1.00,-1.0,2385
1253,306253,17168,-604,596,17188.96,29.89,-1.00,-1.0,2422
1256,306256,17124,-600,664,17147.37,29.80,-1.00,-1.0,2370
1259,306259,16988,-600,660,17011.40,29.80,-1.00,-1.0,2419
1262,306262,17084,-616,760,17111.99,29.80,-1.00,-1.0,2369
1264,306264,17100,-656,616,17123.66,29.71,-1.00,-1.0,2420
1267,306267,16996,-628,684,17021.35,29.80,-1.00,-1.0,2370
1272,306272,17148,-600,780,17176.21,29.89,-1.00,-1.0,2432
1275,306275,17032,-644,704,17058.70,29.85,-1.00,-1.0,2378
1277,306277,16960,-596,640,16982.53,29.80,-1.00,-1.0,2370
1280,306280,17148,-736,656,17176.32,29.89,-1.00,-1.0,2424
1283,306283,16992,-664,732,17020.72,29.89,-1.00,-1.0,2369
1286,306286,17024,-592,824,17054.21,29.94,-1.00,-1.0,2422
1288,306288,17076,-656,800,17107.31,29.80,-1.00,-1.0,2368
1291,306291,17108,-600,704,17132.99,29.89,-1.00,-1.0,2419
1294,306294,17140,-460,704,17160.62,29.75,-1.00,-1.0,2370
1299,306299,17012,-616,844,17044.06,29.85,-1.00,-1.0,2428
1301,306301,17032,-612,580,17052.86,29.85,-1.00,-1.0,2381
1304,306304,17176,-608,608,17197.51,29.89,-1.00,-1.0,2429
1307,306307,17108,-664,608,17131.67,29.85,-1.00,-1.0,2376
1310,306310,17060,-612,680,17084.51,29.80,-1.00,-1.0,2367
1312,306312,16948,-708,728,16978.40,29.85,-1.00,-1.0,2420
1315,306315,17084,-620,756,17111.96,29.89,-1.00,-1.0,2373
1318,306318,17112,-680,676,17138.84,29.89,-1.00,-1.0,2434
1321,306321,17156,-636,696,17181.89,29.75,-1.00,-1.0,2377
1326,306326,17028,-580,608,17048.72,29.85,-1.00,-1.0,2422
1328,306328,17060,-592,608,17081.09,29.80,-1.00,-1.0,2380
1331,306331,17160,-608,676,17184.07,29.85,-1.00,-1.0,2425
1334,306334,17044,-620,764,17072.38,29.85,-1.00,-1.0,2370
1336,306336,17036,-660,656,17061.40,29.75,-1.00,-1.0,2370
1339,306339,17036,-636,700,17062.23,29.89,-1.00,-1.0,2427
1342,306342,16996,-628,668,17020.71,29.71,-1.00,-1.0,2385
1345,306345,17080,-568,720,17104.60,29.80,-1.00,-1.0,2428
1348,306348,17060,-660,752,17089.32,29.89,-1.00,-1.0,2383
1353,306353,17012,-568,812,17040.84,29.85,-1.00,-1.0,2422
1356,306356,16932,-680,640,16957.73,29.94,-1.00,-1.0,2390
1359,306359,17128,-528,592,17146.36,29.80,-1.00,-1.0,2437
1361,306361,17008,-584,740,17034.11,29.80,-1.00,-1.0,2373
1364,306364,17044,-556,696,17067.26,29.80,-1.00,-1.0,2430
1367,306367,17092,-524,696,17114.19,29.71,-1.00,-1.0,2377
1369,306369,17112,-568,652,17133.83,29.89,-1.00,-1.0,2366
1372,306372,17032,-588,624,17053.57,29.85,-1.00,-1.0,2419
1375,306375,17036,-636,684,17061.58,29.80,-1.00,-1.0,2377
1380,306380,17008,-644,824,17040.12,29.80,-1.00,-1.0,2437
1383,306383,17044,-644,648,17068.47,29.89,-1.00,-1.0,2382
1386,306386,17060,-564,724,17084.67,29.89,-1.00,-1.0,2439
1388,306388,17008,-496,776,17032.92,29.89,-1.00,-1.0,2376
1391,306391,17048,-572,708,17072.28,29.80,-1.00,-1.0,2421
1394,306394,17044,-592,720,17069.47,29.80,-1.00,-1.0,2373
1397,306397,17076,-756,808,17111.81,29.75,-1.00,-1.0,2421
1399,306399,17068,-552,820,17096.60,29.89,-1.00,-1.0,2372
1402,306402,17208,-560,636,17228.85,29.80,-1.00,-1.0,2356
1407,306407,17080,-656,616,17103.69,29.80,-1.00,-1.0,2437
1410,306410,16992,-592,616,17013.46,29.89,-1.00,-1.0,2388
1413,306413,17084,-532,700,17106.61,29.85,-1.00,-1.0,2429
1415,306415,17160,-720,728,17190.52,29.80,-1.00,-1.0,2377
1418,306418,17072,-616,488,17090.08,29.89,-1.00,-1.0,2419
1421,306421,17112,-556,628,17132.54,29.89,-1.00,-1.0,2372
1424,306424,17160,-548,712,17183.51,29.75,-1.00,-1.0,2421
1426,306426,17076,-604,764,17103.75,29.80,-1.00,-1.0,2374
1431,306431,16968,-608,652,16991.40,29.80,-1.00,-1.0,2431
1434,306434,17080,-596,728,17105.89,29.80,-1.00,-1.0,2382
1437,306437,17064,-600,700,17088.89,29.85,-1.00,-1.0,2367
1439,306439,17076,-656,712,17103.42,29.71,-1.00,-1.0,2427
1442,306442,17028,-724,676,17056.79,29.85,-1.00,-1.0,2369
1445,306445,17148,-656,800,17179.18,29.89,-1.00,-1.0,2421
1448,306448,16972,-544,752,16997.36,29.85,-1.00,-1.0,2370
1450,306450,17104,-624,696,17129.53,29.89,-1.00,-1.0,2421
1453,306453,17008,-532,512,17024.02,29.75,-1.00,-1.0,2356
1458,306458,17132,-536,760,17157.22,29.85,-1.00,-1.0,2422
1461,306461,17052,-508,776,17077.21,29.85,-1.00,-1.0,2382
1464,306464,17032,-504,668,17052.54,29.75,-1.00,-1.0,2424
1466,306466,16932,-564,772,16958.97,29.85,-1.00,-1.0,2366
1469,306469,17048,-576,592,17068.00,29.80,-1.00,-1.0,2365
1472,306472,16992,-568,748,17017.94,29.80,-1.00,-1.0,2426
1474,306474,17096,-668,776,17126.63,29.80,-1.00,-1.0,2368
1477,306477,17032,-576,612,17052.72,29.80,-1.00,-1.0,2433
1480,306480,17056,-644,632,17079.85,29.85,-1.00,-1.0,2369
1485,306485,17056,-620,684,17080.96,29.85,-1.00,-1.0,2422
1488,306488,17064,-680,684,17091.24,29.85,-1.00,-1.0,2380
1491,306491,17156,-632,640,17179.56,29.80,-1.00,-1.0,2424
1493,306493,17080,-556,748,17105.41,29.94,-1.00,-1.0,2365
1496,306496,17052,-608,840,17083.50,29.80,-1.00,-1.0,2419
1499,306499,17092,-632,612,17114.63,29.85,-1.00,-1.0,2370
1501,306501,16980,-644,720,17007.46,29.89,-1.00,-1.0,2367
1504,306504,17132,-664,780,17162.60,29.85,-1.00,-1.0,2432
1507,306507,17012,-704,680,17040.13,29.89,-1.00,-1.0,2376
1512,306512,17124,-736,756,17156.47,29.80,-1.00,-1.0,2423
1515,306515,17052,-556,776,17078.70,29.89,-1.00,-1.0,2384
1518,306518,17064,-680,824,17097.41,29.94,-1.00,-1.0,2434
1520,306520,17076,-496,752,17099.75,29.89,-1.00,-1.0,2370
1523,306523,17132,-564,572,17150.82,29.85,-1.00,-1.0,2435
1526,306526,17044,-656,820,17076.32,29.85,-1.00,-1.0,2377
1528,306528,17112,-632,708,17138.30,29.89,-1.00,-1.0,2366
1531,306531,17024,-632,848,17056.82,29.85,-1.00,-1.0,2422
1534,306534,17080,-664,640,17104.88,29.80,-1.00,-1.0,2373
1539,306539,17064,-680,804,17096.46,29.80,-1.00,-1.0,2422
1542,306542,17028,-632,584,17049.73,29.85,-1.00,-1.0,2382
1544,306544,17104,-580,784,17131.78,29.89,-1.00,-1.0,2422
1547,306547,17092,-684,844,17126.49,29.80,-1.00,-1.0,2370
1550,306550,16972,-564,584,16991.41,29.80,-1.00,-1.0,2420
1553,306553,17068,-628,812,17098.84,29.99,-1.00,-1.0,2370
1555,306555,17120,-656,520,17140.45,29.89,-1.00,-1.0,2420
1558,306558,17076,-556,680,17098.58,29.85,-1.00,-1.0,2373
1561,306561,17028,-664,812,17060.28,29.85,-1.00,-1.0,2367
1566,306566,17044,-652,632,17068.17,29.89,-1.00,-1.0,2423
1569,306569,17152,-576,684,17175.29,29.80,-1.00,-1.0,2374
1572,306572,17116,-612,704,17141.40,29.89,-1.00,-1.0,2420
1575,306575,17044,-592,668,17067.36,29.80,-1.00,-1.0,2370
1577,306577,17024,-524,536,17040.49,29.89,-1.00,-1.0,2425
1580,306580,17024,-520,792,17050.34,29.89,-1.00,-1.0,2369
1583,306583,17080,-600,728,17106.03,29.89,-1.00,-1.0,2420
1586,306586,17128,-640,520,17147.84,29.89,-1.00,-1.0,2369
1591,306591,17060,-648,788,17090.48,29.89,-1.00,-1.0,2422
1593,306593,17028,-600,648,17050.88,29.89,-1.00,-1.0,2388
1596,306596,17100,-568,772,17126.84,29.80,-1.00,-1.0,2367
1599,306599,17048,-580,828,17077.95,29.85,-1.00,-1.0,2431
1601,306601,17004,-652,756,17033.28,29.85,-1.00,-1.0,2365
1604,306604,17036,-680,684,17063.28,29.85,-1.00,-1.0,2428
1607,306607,17120,-548,788,17146.88,29.89,-1.00,-1.0,2366
1610,306610,17124,-568,556,17142.44,29.85,-1.00,-1.0,2426
1612,306612,17072,-660,608,17095.57,29.85,-1.00,-1.0,2367
1617,306617,17008,-628,684,17033.33,29.89,-1.00,-1.0,2422
1620,306620,17072,-648,692,17098.30,29.89,-1.00,-1.0,2370
1623,306623,17040,-708,748,17071.10,29.89,-1.00,-1.0,2421
1626,306626,17012,-568,724,17036.87,29.80,-1.00,-1.0,2380
1628,306628,16996,-644,632,17019.94,29.85,-1.00,-1.0,2363
1631,306631,17048,-708,684,17076.40,29.80,-1.00,-1.0,2436
1634,306634,17148,-624,724,17174.62,29.75,-1.00,-1.0,2378
1637,306637,17156,-620,712,17181.96,29.89,-1.00,-1.0,2428
1639,306639,17060,-628,704,17086.06,29.80,-1.00,-1.0,2377
1644,306644,17124,-484,708,17145.46,29.99,-1.00,-1.0,2434
1647,306647,17040,-664,736,17068.81,29.85,-1.00,-1.0,2384
1650,306650,17044,-564,696,17067.53,29.80,-1.00,-1.0,2412
1652,306652,17100,-632,604,17122.33,29.85,-1.00,-1.0,2365
1655,306655,17072,-584,680,17095.52,29.80,-1.00,-1.0,2428
1658,306658,17132,-636,732,17159.42,29.85,-1.00,-1.0,2374
1661,306661,17084,-508,684,17105.23,29.80,-1.00,-1.0,2367
1663,306663,17072,-536,604,17091.09,29.75,-1.00,-1.0,2419
1666,306666,17028,-508,700,17049.95,29.80,-1.00,-1.0,2372
1671,306671,17092,-616,708,17117.74,29.80,-1.00,-1.0,2431
1674,306674,17008,-620,696,17033.52,29.80,-1.00,-1.0,2381
1677,306677,17148,-616,608,17169.83,29.89,-1.00,-1.0,2421
1680,306680,17156,-588,620,17177.27,29.89,-1.00,-1.0,2382
1682,306682,16944,-508,616,16962.80,29.80,-1.00,-1.0,2408
1685,306685,17112,-612,740,17138.92,29.80,-1.00,-1.0,2385
1688,306688,17124,-568,780,17151.16,29.80,-1.00,-1.0,2420
1691,306691,17064,-536,664,17085.32,29.80,-1.00,-1.0,2373
1693,306693,17012,-592,692,17036.36,29.85,-1.00,-1.0,2366
1698,306698,17056,-552,736,17080.79,29.80,-1.00,-1.0,2431
1701,306701,17096,-580,532,17114.11,29.89,-1.00,-1.0,2388
1704,306704,17052,-604,732,17078.39,29.80,-1.00,-1.0,2428
1707,306707,17052,-556,708,17075.75,29.89,-1.00,-1.0,2373
1709,306709,17080,-540,724,17103.87,29.85,-1.00,-1.0,2421
1712,306712,17064,-612,756,17091.70,29.89,-1.00,-1.0,2357
1715,306715,17012,-576,764,17038.88,29.80,-1.00,-1.0,2419
1718,306718,17124,-564,564,17142.57,29.89,-1.00,-1.0,2368
1720,306720,16988,-520,704,17010.53,29.85,-1.00,-1.0,2367
1725,306725,17092,-656,812,17123.85,29.89,-1.00,-1.0,2437
1728,306728,17072,-528,700,17094.50,29.85,-1.00,-1.0,2379
1731,306731,17080,-660,704,17107.24,29.89,-1.00,-1.0,2429
1733,306733,16964,-556,756,16989.94,29.89,-1.00,-1.0,2370
1736,306736,17064,-572,744,17089.79,29.80,-1.00,-1.0,2430
1739,306739,17032,-588,716,17057.18,29.89,-1.00,-1.0,2376
1742,306742,17028,-520,704,17050.48,29.80,-1.00,-1.0,2422
1744,306744,17084,-544,700,17106.99,29.89,-1.00,-1.0,2369
1749,306749,17068,-608,712,17093.66,29.80,-1.00,-1.0,2430
1752,306752,17008,-692,680,17035.65,29.85,-1.00,-1.0,2371
1754,306754,16984,-660,616,17007.98,29.80,-1.00,-1.0,2372
1757,306757,17036,-604,656,17059.32,29.94,-1.00,-1.0,2430
1760,306760,17096,-636,760,17124.70,29.85,-1.00,-1.0,2378
1763,306763,17072,-600,608,17093.36,29.85,-1.00,-1.0,2421
1766,306766,16980,-604,604,17001.47,29.85,-1.00,-1.0,2372
1768,306768,16916,-564,600,16936.03,29.80,-1.00,-1.0,2420
1771,306771,17028,-552,636,17048.81,29.89,-1.00,-1.0,2369
1776,306776,17072,-612,748,17099.33,29.94,-1.00,-1.0,2427
1779,306779,17092,-596,740,17118.39,29.85,-1.00,-1.0,2370
1782,306782,16916,-524,536,16932.60,29.80,-1.00,-1.0,2431
1785,306785,17084,-680,704,17112.02,29.85,-1.00,-1.0,2374
1787,306787,16988,-632,620,17011.05,29.80,-1.00,-1.0,2370
1790,306790,17112,-592,676,17135.58,29.85,-1.00,-1.0,2421
1793,306793,17060,-596,644,17082.55,29.80,-1.00,-1.0,2377
1796,306796,17044,-552,712,17067.79,29.85,-1.00,-1.0,2431
1798,306798,17020,-540,728,17044.12,29.89,-1.00,-1.0,2368
1803,306803,17040,-508,708,17062.27,29.80,-1.00,-1.0,2414
1806,306806,17008,-580,676,17031.31,29.80,-1.00,-1.0,2376
1809,306809,17048,-612,644,17071.13,29.89,-1.00,-1.0,2422
1812,306812,17048,-700,732,17078.06,29.71,-1.00,-1.0,2370
1814,306814,16904,-604,808,16934.07,29.89,-1.00,-1.0,2419
1817,306817,16964,-600,652,16987.12,29.80,-1.00,-1.0,2370
1820,306820,17116,-660,668,17141.74,29.85,-1.00,-1.0,2398
1823,306823,17084,-664,592,17107.14,29.89,-1.00,-1.0,2443
1825,306825,17028,-736,600,17054.46,29.80,-1.00,-1.0,2367
1830,306830,17068,-600,728,17094.05,29.89,-1.00,-1.0,2427
1833,306833,17132,-716,684,17160.59,29.89,-1.00,-1.0,2373
1836,306836,17048,-704,864,17084.39,29.85,-1.00,-1.0,2421
1839,306839,17028,-572,652,17050.08,29.89,-1.00,-1.0,2381
1841,306841,16992,-464,676,17011.77,29.85,-1.00,-1.0,2421
1844,306844,17040,-596,720,17065.62,29.80,-1.00,-1.0,2370
1847,306847,17148,-640,676,17173.25,29.85,-1.00,-1.0,2420
1850,306850,17064,-632,684,17089.39,29.89,-1.00,-1.0,2376
1853,306853,17056,-532,624,17075.70,29.75,-1.00,-1.0,2370
1857,306857,17104,-604,764,17131.71,29.85,-1.00,-1.0,2428
1860,306860,17028,-668,708,17055.80,29.89,-1.00,-1.0,2377
1863,306863,17148,-528,652,17168.51,29.85,-1.00,-1.0,2436
1866,306866,17056,-628,832,17087.82,29.89,-1.00,-1.0,2375
1869,306869,17040,-668,672,17066.32,29.85,-1.00,-1.0,2429
1871,306871,17008,-592,712,17033.19,29.85,-1.00,-1.0,2373
1874,306874,17000,-676,508,17021.02,29.85,-1.00,-1.0,2430
1877,306877,17036,-544,796,17063.26,29.85,-1.00,-1.0,2376
1882,306882,16952,-488,700,16973.46,29.89,-1.00,-1.0,2438
1884,306884,17000,-608,644,17023.05,29.89,-1.00,-1.0,2370
1887,306887,17064,-592,692,17088.28,29.85,-1.00,-1.0,2368
1890,306890,17020,-536,680,17042.01,29.89,-1.00,-1.0,2427
1893,306893,17096,-588,760,17122.98,29.85,-1.00,-1.0,2370
1895,306895,16940,-612,652,16963.59,29.99,-1.00,-1.0,2419
1898,306898,17060,-680,772,17090.99,29.89,-1.00,-1.0,2372
1901,306901,17176,-512,624,17194.96,29.89,-1.00,-1.0,2419
1904,306904,17072,-624,620,17094.65,29.80,-1.00,-1.0,2372
1909,306909,17088,-580,688,17111.68,29.89,-1.00,-1.0,2434
1911,306911,17052,-648,668,17077.38,29.85,-1.00,-1.0,2384
1914,306914,17076,-660,636,17100.58,29.80,-1.00,-1.0,2369
1917,306917,17032,-668,624,17056.51,29.80,-1.00,-1.0,2425
1919,306919,17004,-600,812,17033.95,29.80,-1.00,-1.0,2368
1922,306922,17140,-596,668,17163.36,29.85,-1.00,-1.0,2421
1925,306925,17052,-528,692,17074.20,29.89,-1.00,-1.0,2369
1928,306928,17088,-660,652,17113.17,29.89,-1.00,-1.0,2427
1931,306931,17128,-528,840,17156.71,29.80,-1.00,-1.0,2370
1935,306935,17004,-628,712,17030.48,29.85,-1.00,-1.0,2427
1938,306938,17088,-544,600,17107.18,29.80,-1.00,-1.0,2376
1941,306941,17032,-592,760,17059.22,29.85,-1.00,-1.0,2421
1944,306944,17056,-560,628,17076.74,29.80,-1.00,-1.0,2369
1946,306946,17112,-492,600,17129.58,29.85,-1.00,-1.0,2369
1949,306949,17084,-716,660,17111.73,29.89,-1.00,-1.0,2428
1952,306952,17096,-620,684,17120.91,29.85,-1.00,-1.0,2377
1955,306955,17056,-552,748,17081.32,29.80,-1.00,-1.0,2427
1958,306958,16992,-604,564,17012.08,29.89,-1.00,-1.0,2366
1962,306962,17080,-628,624,17102.93,29.89,-1.00,-1.0,2435
1965,306965,16956,-520,700,16978.41,29.89,-1.00,-1.0,2381
1968,306968,17044,-532,640,17064.31,29.80,-1.00,-1.0,2424
1971,306971,16988,-624,768,17016.80,29.80,-1.00,-1.0,2374
1973,306973,17088,-568,696,17111.60,29.89,-1.00,-1.0,2426
1976,306976,17040,-596,612,17061.40,29.89,-1.00,-1.0,2388
1979,306979,17032,-628,744,17059.80,29.80,-1.00,-1.0,2367
1982,306982,17000,-592,664,17023.26,29.85,-1.00,-1.0,2428
1985,306985,17036,-632,636,17059.58,29.80,-1.00,-1.0,2366
1990,306990,17076,-676,628,17100.91,29.89,-1.00,-1.0,2429
1993,306993,17060,-556,760,17085.97,29.80,-1.00,-1.0,2380
1995,306995,17012,-672,624,17036.70,29.94,-1.00,-1.0,2429
1998,306998,17008,-644,644,17032.37,29.89,-1.00,-1.0,2375
2001,307001,17040,-584,612,17060.98,29.94,-1.00,-1.0,2419
2004,307004,17000,-604,668,17023.84,29.89,-1.00,-1.0,2372
2006,307006,17032,-656,800,17063.39,29.85,-1.00,-1.0,2418
2009,307009,17040,-584,876,17072.49,29.89,-1.00,-1.0,2356
2012,307012,17040,-560,684,17062.91,29.85,-1.00,-1.0,2374
2017,307017,16964,-640,616,16987.24,29.89,-1.00,-1.0,2427
2019,307019,17100,-568,740,17125.43,29.89,-1.00,-1.0,2372
2022,307022,17132,-540,632,17152.16,29.85,-1.00,-1.0,2415
2025,307025,17012,-632,732,17039.46,29.85,-1.00,-1.0,2372
2028,307028,17056,-604,716,17081.70,29.85,-1.00,-1.0,2421
2030,307030,17068,-628,668,17092.61,29.75,-1.00,-1.0,2355
2033,307033,17064,-652,768,17093.71,29.85,-1.00,-1.0,2419
2036,307036,17100,-672,652,17125.62,29.89,-1.00,-1.0,2368
2041,307041,17020,-640,624,17043.46,29.89,-1.00,-1.0,2435
2043,307043,16996,-708,744,17027.00,29.89,-1.00,-1.0,2378
2046,307046,17072,-600,696,17096.71,29.85,-1.00,-1.0,2366
2049,307049,16960,-644,720,16987.49,29.94,-1.00,-1.0,2423
2052,307052,17116,-668,664,17141.89,29.94,-1.00,-1.0,2369
2054,307054,17092,-576,608,17112.51,29.94,-1.00,-1.0,2419
2057,307057,17052,-712,676,17080.24,29.94,-1.00,-1.0,2370
2060,307060,17092,-532,772,17117.70,29.94,-1.00,-1.0,2419
2063,307063,17120,-496,688,17141.00,29.89,-1.00,-1.0,2379
2068,307068,17084,-644,700,17110.46,29.80,-1.00,-1.0,2435
2070,307070,17008,-564,580,17027.23,29.85,-1.00,-1.0,2377
2073,307073,17104,-668,652,17129.45,29.89,-1.00,-1.0,2421
2076,307076,17080,-660,876,17115.18,29.89,-1.00,-1.0,2372
2079,307079,17080,-468,696,17100.58,29.80,-1.00,-1.0,2367
2081,307081,17020,-600,704,17045.12,29.85,-1.00,-1.0,2423
2084,307084,17008,-656,580,17030.53,29.85,-1.00,-1.0,2385
2087,307087,17072,-580,812,17101.14,29.85,-1.00,-1.0,2422
2090,307090,17004,-560,688,17027.12,29.80,-1.00,-1.0,2375
2095,307095,17056,-576,668,17078.79,29.85,-1.00,-1.0,2461
2098,307098,17080,-536,684,17102.09,29.85,-1.00,-1.0,2370
2100,307100,17020,-636,868,17053.98,29.80,-1.00,-1.0,2420
2103,307103,16952,-700,756,16983.28,29.85,-1.00,-1.0,2370
2106,307106,17108,-640,812,17139.21,29.80,-1.00,-1.0,2370
2109,307109,17168,-600,704,17192.90,29.80,-1.00,-1.0,2423
2111,307111,17024,-560,800,17051.98,29.89,-1.00,-1.0,2371
2114,307114,17028,-552,612,17047.93,29.85,-1.00,-1.0,2437
2117,307117,17104,-588,552,17123.00,29.85,-1.00,-1.0,2360
2122,307122,17132,-604,660,17155.34,29.89,-1.00,-1.0,2449
2124,307124,17064,-636,764,17092.93,29.80,-1.00,-1.0,2367
2127,307127,17056,-560,696,17079.38,29.85,-1.00,-1.0,2438
2130,307130,17012,-680,748,17042.01,29.89,-1.00,-1.0,2370
2133,307133,17000,-540,736,17024.49,29.85,-1.00,-1.0,2429
2135,307135,17056,-572,636,17077.44,29.80,-1.00,-1.0,2370
2138,307138,17044,-592,708,17068.97,29.94,-1.00,-1.0,2368
2141,307141,17072,-604,748,17099.05,29.80,-1.00,-1.0,2421
2144,307144,16980,-816,756,17016.40,29.85,-1.00,-1.0,2358
2149,307149,17012,-524,748,17036.50,29.80,-1.00,-1.0,2442
2151,307151,17032,-576,632,17053.45,29.85,-1.00,-1.0,2373
2154,307154,17152,-696,592,17176.32,29.89,-1.00,-1.0,2419
2157,307157,17116,-624,632,17139.03,29.80,-1.00,-1.0,2371
2160,307160,17092,-644,688,17117.96,29.80,-1.00,-1.0,2429
2162,307162,17152,-596,848,17183.29,29.89,-1.00,-1.0,2367
2165,307165,17092,-504,720,17114.58,29.89,-1.00,-1.0,2420
2168,307168,16988,-624,700,17013.86,29.80,-1.00,-1.0,2371
2171,307171,17044,-544,904,17076.62,29.94,-1.00,-1.0,2370
2176,307176,17096,-496,964,17130.34,29.75,-1.00,-1.0,2442
2178,307178,16976,-648,800,17007.19,29.85,-1.00,-1.0,2370
2181,307181,17104,-628,692,17129.51,29.85,-1.00,-1.0,2435
2184,307184,17024,-604,636,17046.58,29.75,-1.00,-1.0,2379
2187,307187,17148,-592,692,17172.16,29.94,-1.00,-1.0,2434
2189,307189,17028,-616,728,17054.68,29.85,-1.00,-1.0,2379
2192,307192,17056,-556,740,17081.10,29.89,-1.00,-1.0,2420
2195,307195,16972,-700,680,17000.04,29.89,-1.00,-1.0,2374
2200,307200,17104,-584,668,17127.00,29.89,-1.00,-1.0,2442
2203,307203,17132,-776,848,17170.52,29.89,-1.00,-1.0,2374
2205,307205,17056,-596,844,17087.27,29.80,-1.00,-1.0,2366
2208,307208,17024,-652,672,17049.73,29.85,-1.00,-1.0,2420
2211,307211,17108,-676,752,17137.86,29.89,-1.00,-1.0,2376
2213,307213,17156,-652,660,17181.07,29.85,-1.00,-1.0,2420
2216,307216,17036,-696,756,17066.96,29.94,-1.00,-1.0,2370
2219,307219,17100,-604,896,17134.11,29.85,-1.00,-1.0,2420
2222,307222,17112,-604,616,17133.73,29.80,-1.00,-1.0,2371
2227,307227,17076,-596,800,17105.12,29.71,-1.00,-1.0,2442
2230,307230,17028,-752,720,17059.80,29.89,-1.00,-1.0,2368
2232,307232,17124,-644,604,17146.75,29.89,-1.00,-1.0,2420
2235,307235,17056,-624,792,17085.78,29.80,-1.00,-1.0,2370
2238,307238,17012,-696,576,17035.97,29.85,-1.00,-1.0,2370
2241,307241,17084,-548,752,17109.32,29.85,-1.00,-1.0,2423
2243,307243,17052,-704,632,17078.22,29.85,-1.00,-1.0,2371
2246,307246,17088,-644,764,17117.19,29.80,-1.00,-1.0,2436
2249,307249,16996,-656,764,17025.80,29.85,-1.00,-1.0,2371
2254,307254,17084,-588,768,17111.36,29.85,-1.00,-1.0,2441
2257,307257,17024,-532,600,17042.88,29.89,-1.00,-1.0,2368
2260,307260,17040,-600,528,17058.73,29.89,-1.00,-1.0,2472
2262,307262,16996,-636,704,17022.46,29.80,-1.00,-1.0,2377
2265,307265,16956,-600,732,16982.40,29.89,-1.00,-1.0,2422
2268,307268,17052,-692,636,17077.88,29.80,-1.00,-1.0,2374
2270,307270,17060,-656,740,17088.64,29.85,-1.00,-1.0,2367
2273,307273,17028,-564,608,17048.18,29.80,-1.00,-1.0,2429
2276,307276,17060,-596,772,17087.86,29.85,-1.00,-1.0,2368
2281,307281,17096,-444,808,17120.84,29.85,-1.00,-1.0,2428
2284,307284,17140,-564,752,17165.76,29.85,-1.00,-1.0,2367
2286,307286,17076,-656,664,17101.49,29.94,-1.00,-1.0,2434
2289,307289,17096,-692,824,17129.83,29.85,-1.00,-1.0,2357
2292,307292,17036,-592,728,17061.82,29.85,-1.00,-1.0,2421
2295,307295,17060,-596,728,17085.92,29.85,-1.00,-1.0,2369
2297,307297,16972,-548,584,16990.88,29.89,-1.00,-1.0,2369
2300,307300,17120,-572,648,17141.80,29.89,-1.00,-1.0,2429
2303,307303,16996,-560,596,17015.66,29.94,-1.00,-1.0,2370
2308,307308,17092,-632,756,17120.38,29.75,-1.00,-1.0,2427
2311,307311,17024,-536,720,17047.65,29.75,-1.00,-1.0,2367
2313,307313,17056,-608,680,17080.38,29.85,-1.00,-1.0,2433
2316,307316,17036,-652,712,17063.33,29.99,-1.00,-1.0,2420
2319,307319,17096,-540,728,17120.01,29.94,-1.00,-1.0,2433
2322,307322,17112,-584,788,17140.09,29.75,-1.00,-1.0,2376
2325,307325,17056,-540,780,17082.36,29.94,-1.00,-1.0,2417
2327,307327,17076,-616,584,17097.08,29.85,-1.00,-1.0,2373
2330,307330,17024,-656,728,17052.18,29.89,-1.00,-1.0,2372
2335,307335,17200,-584,712,17224.63,29.80,-1.00,-1.0,2428
2338,307338,16984,-564,864,17015.31,29.85,-1.00,-1.0,2380
2341,307341,17096,-584,684,17119.64,29.80,-1.00,-1.0,2434
2343,307343,17036,-556,676,17058.47,29.80,-1.00,-1.0,2372
2346,307346,17096,-600,760,17123.40,29.89,-1.00,-1.0,2434
2349,307349,17088,-604,756,17115.38,29.89,-1.00,-1.0,2377
2352,307352,17088,-588,748,17114.47,29.89,-1.00,-1.0,2434
2354,307354,17000,-576,632,17021.49,29.89,-1.00,-1.0,2375
2359,307359,17072,-564,668,17094.37,29.85,-1.00,-1.0,2427
2362,307362,17024,-668,712,17051.97,29.89,-1.00,-1.0,2367
2364,307364,17080,-676,692,17107.37,29.75,-1.00,-1.0,2365
2367,307367,16940,-716,636,16967.05,29.89,-1.00,-1.0,2430
2370,307370,17064,-592,544,17082.93,29.85,-1.00,-1.0,2370
2373,307373,17124,-652,800,17155.07,29.80,-1.00,-1.0,2422
2375,307375,17068,-684,800,17100.42,29.85,-1.00,-1.0,2368
2378,307378,17104,-556,764,17130.08,29.80,-1.00,-1.0,2420
2381,307381,16944,-608,600,16965.52,29.85,-1.00,-1.0,2373
2386,307386,17160,-588,712,17184.83,29.89,-1.00,-1.0,2429
2388,307388,17000,-648,680,17025.93,29.80,-1.00,-1.0,2370
2391,307391,17080,-644,608,17102.95,29.80,-1.00,-1.0,2434
2394,307394,17040,-536,668,17061.51,29.89,-1.00,-1.0,2369
2397,307397,17016,-548,672,17038.08,29.94,-1.00,-1.0,2367
2399,307399,17008,-620,708,17034.02,29.75,-1.00,-1.0,2420
2402,307402,17044,-688,704,17072.40,29.85,-1.00,-1.0,2359
2405,307405,17068,-684,768,17098.96,29.85,-1.00,-1.0,2419
2408,307408,16948,-536,776,16974.22,29.75,-1.00,-1.0,2372
2413,307413,17052,-540,676,17073.94,29.80,-1.00,-1.0,2432
2416,307416,17028,-636,764,17056.99,29.80,-1.00,-1.0,2371
2419,307419,17000,-636,772,17029.40,29.85,-1.00,-1.0,2436
2421,307421,17076,-720,696,17105.34,29.89,-1.00,-1.0,2368
2424,307424,16976,-592,788,17004.59,29.85,-1.00,-1.0,2428
2427,307427,17020,-488,716,17042.04,29.80,-1.00,-1.0,2376
2430,307430,16964,-644,640,16988.28,30.04,-1.00,-1.0,2366
2432,307432,16956,-620,688,16981.27,29.89,-1.00,-1.0,2419
2435,307435,17088,-668,732,17116.71,29.75,-1.00,-1.0,2370
2440,307440,17020,-596,680,17044.00,29.85,-1.00,-1.0,2437
2443,307443,16968,-592,684,16992.10,29.85,-1.00,-1.0,2373
2446,307446,17100,-636,720,17126.96,29.94,-1.00,-1.0,2431
2448,307448,17104,-644,628,17127.64,29.94,-1.00,-1.0,2373
2451,307451,17020,-632,744,17047.97,29.80,-1.00,-1.0,2420
2454,307454,17036,-568,632,17057.18,29.85,-1.00,-1.0,2372
2457,307457,17000,-600,748,17027.02,29.80,-1.00,-1.0,2422
2459,307459,16988,-592,644,17010.51,29.85,-1.00,-1.0,2368
2462,307462,17064,-668,792,17095.43,29.89,-1.00,-1.0,2365
2467,307467,17020,-600,808,17049.73,29.94,-1.00,-1.0,2436
2470,307470,17068,-568,724,17092.79,29.75,-1.00,-1.0,2373
2473,307473,17012,-636,716,17038.94,29.80,-1.00,-1.0,2430
2475,307475,16964,-632,700,16990.20,29.85,-1.00,-1.0,2374
2478,307478,17060,-512,740,17083.71,29.89,-1.00,-1.0,2420
2481,307481,17020,-604,712,17045.59,29.85,-1.00,-1.0,2373
2484,307484,17068,-616,704,17093.62,29.80,-1.00,-1.0,2421
2486,307486,17000,-620,728,17026.87,29.89,-1.00,-1.0,2368
2489,307489,17036,-564,724,17060.70,29.80,-1.00,-1.0,2366
2494,307494,16980,-620,692,17005.40,29.80,-1.00,-1.0,2427
2497,307497,17264,-632,744,17291.58,29.85,-1.00,-1.0,2357
2500,307500,17088,-640,620,17111.22,29.89,-1.00,-1.0,2430
2502,307502,16948,-700,628,16974.07,29.89,-1.00,-1.0,2368
2505,307505,17012,-644,840,17044.90,29.89,-1.00,-1.0,2419
2508,307508,17096,-600,928,17131.68,29.80,-1.00,-1.0,2376
2511,307511,17032,-544,780,17058.53,29.89,-1.00,-1.0,2420
2513,307513,17064,-496,772,17088.65,29.89,-1.00,-1.0,2369
2518,307518,17016,-568,656,17038.11,29.80,-1.00,-1.0,2436
2521,307521,17104,-584,772,17131.37,29.94,-1.00,-1.0,2384
2524,307524,16988,-596,800,17017.27,29.80,-1.00,-1.0,2367
2526,307526,17100,-488,572,17116.52,29.85,-1.00,-1.0,2428
2529,307529,17092,-672,796,17123.72,29.89,-1.00,-1.0,2369
2532,307532,17012,-600,464,17028.90,29.94,-1.00,-1.0,2419
2535,307535,16972,-676,812,17004.86,29.89,-1.00,-1.0,2369
2537,307537,17040,-604,780,17068.53,29.75,-1.00,-1.0,2420
2540,307540,17084,-600,744,17110.71,29.80,-1.00,-1.0,2371
2545,307545,17040,-568,508,17057.03,29.80,-1.00,-1.0,2429
2548,307548,17056,-640,824,17087.88,29.80,-1.00,-1.0,2357
2551,307551,17080,-644,660,17104.88,29.94,-1.00,-1.0,2428
2553,307553,17084,-540,812,17111.81,29.85,-1.00,-1.0,2409
2556,307556,16948,-700,644,16974.67,29.80,-1.00,-1.0,2373
2559,307559,17036,-704,696,17064.74,29.75,-1.00,-1.0,2424
2562,307562,17036,-616,760,17064.07,29.94,-1.00,-1.0,2384
2564,307564,17100,-540,736,17124.35,29.85,-1.00,-1.0,2414
2567,307567,17124,-480,712,17145.52,29.85,-1.00,-1.0,2376
2573,307573,17124,-496,640,17143.13,29.89,-1.00,-1.0,2437
2575,307575,17124,-616,752,17151.57,29.94,-1.00,-1.0,2370
2578,307578,17036,-564,740,17061.39,29.89,-1.00,-1.0,2429
2581,307581,17036,-564,656,17057.95,29.89,-1.00,-1.0,2384
2584,307584,17016,-580,652,17038.36,29.89,-1.00,-1.0,2424
2587,307587,16948,-592,716,16973.45,29.80,-1.00,-1.0,2379
2589,307589,17064,-592,784,17092.26,29.89,-1.00,-1.0,2367
2592,307592,17132,-656,668,17157.56,29.85,-1.00,-1.0,2420
2595,307595,16992,-612,640,17015.06,29.85,-1.00,-1.0,2370
2599,307599,17036,-556,660,17057.84,29.85,-1.00,-1.0,2429
2602,307602,16932,-584,780,16960.01,29.89,-1.00,-1.0,2378
2605,307605,17052,-608,632,17074.54,29.85,-1.00,-1.0,2421
2608,307608,17132,-544,844,17161.40,29.80,-1.00,-1.0,2370
2610,307610,16992,-588,668,17015.29,29.75,-1.00,-1.0,2420
2613,307613,17104,-624,704,17129.85,29.80,-1.00,-1.0,2370
2616,307616,17032,-580,656,17054.49,29.94,-1.00,-1.0,2420
2619,307619,17108,-604,656,17131.22,29.75,-1.00,-1.0,2369
2621,307621,17000,-592,708,17025.03,29.89,-1.00,-1.0,2376
2626,307626,17016,-688,660,17042.69,29.80,-1.00,-1.0,2430
2629,307629,17008,-504,764,17032.61,29.89,-1.00,-1.0,2377
2632,307632,17080,-536,592,17098.66,29.89,-1.00,-1.0,2429
2634,307634,17108,-604,660,17131.38,29.89,-1.00,-1.0,2369
2637,307637,17020,-680,712,17048.45,29.80,-1.00,-1.0,2428
2640,307640,17004,-584,820,17033.78,29.89,-1.00,-1.0,2377
2643,307643,17004,-760,800,17039.77,29.89,-1.00,-1.0,2407
2645,307645,17112,-632,848,17144.65,29.89,-1.00,-1.0,2369
2650,307650,17088,-648,812,17119.55,29.80,-1.00,-1.0,2427
2653,307653,17076,-528,772,17101.60,29.85,-1.00,-1.0,2370
2656,307656,17144,-580,772,17171.17,29.89,-1.00,-1.0,2378
2659,307659,17044,-616,676,17068.52,29.94,-1.00,-1.0,2422
2661,307661,17156,-544,664,17177.46,29.80,-1.00,-1.0,2373
2664,307664,17064,-552,648,17085.22,29.85,-1.00,-1.0,2419
2667,307667,17076,-608,736,17102.66,29.89,-1.00,-1.0,2369
2670,307670,17036,-620,804,17066.23,29.94,-1.00,-1.0,2421
2672,307672,17024,-704,604,17049.25,29.85,-1.00,-1.0,2369
2677,307677,17092,-484,704,17113.34,29.94,-1.00,-1.0,2437
2680,307680,17076,-520,764,17100.99,29.89,-1.00,-1.0,2391
2683,307683,16948,-696,556,16971.39,29.75,-1.00,-1.0,2367
2685,307685,17048,-556,712,17071.92,29.99,-1.00,-1.0,2421
2688,307688,17028,-624,612,17050.42,29.89,-1.00,-1.0,2370
2691,307691,17028,-556,752,17053.66,29.89,-1.00,-1.0,2419
2694,307694,16992,-584,620,17013.33,29.89,-1.00,-1.0,2370
2696,307696,17020,-556,724,17044.46,29.89,-1.00,-1.0,2419
2699,307699,16968,-620,512,16987.04,29.94,-1.00,-1.0,2369
2704,307704,17096,-500,724,17118.63,29.85,-1.00,-1.0,2430
2707,307707,17052,-540,704,17075.07,29.89,-1.00,-1.0,2366
2710,307710,17016,-644,660,17040.97,29.94,-1.00,-1.0,2420
2713,307713,17108,-720,740,17139.13,29.85,-1.00,-1.0,2372
2715,307715,16976,-616,780,17005.07,29.89,-1.00,-1.0,2365
2718,307718,17028,-532,608,17047.15,29.89,-1.00,-1.0,2419
2721,307721,17040,-516,800,17066.57,29.89,-1.00,-1.0,2377
2723,307723,17008,-576,672,17031.01,29.89,-1.00,-1.0,2419
2726,307726,17044,-600,692,17068.59,29.89,-1.00,-1.0,2370
2731,307731,17096,-732,736,17127.48,29.94,-1.00,-1.0,2427
2734,307734,17028,-680,716,17056.61,29.85,-1.00,-1.0,2371
2737,307737,17080,-540,616,17099.63,29.89,-1.00,-1.0,2428
2740,307740,17100,-680,708,17128.15,29.85,-1.00,-1.0,2369
2742,307742,17040,-604,748,17067.10,29.89,-1.00,-1.0,2419
2745,307745,17036,-636,664,17060.79,29.75,-1.00,-1.0,2374
2748,307748,17084,-600,828,17114.57,29.89,-1.00,-1.0,2375
2751,307751,16972,-660,764,17002.00,29.85,-1.00,-1.0,2429
2753,307753,17148,-580,700,17172.08,29.89,-1.00,-1.0,2369
2758,307758,17000,-596,740,17026.53,29.89,-1.00,-1.0,2427
2761,307761,17104,-616,644,17127.20,29.80,-1.00,-1.0,2370
2764,307764,17092,-552,680,17114.43,29.89,-1.00,-1.0,2421
2767,307767,17052,-572,612,17072.56,29.89,-1.00,-1.0,2377
2769,307769,17016,-604,636,17038.59,29.89,-1.00,-1.0,2419
2772,307772,17096,-556,656,17117.61,29.99,-1.00,-1.0,2370
2775,307775,17048,-600,684,17072.26,29.80,-1.00,-1.0,2420
2778,307778,16992,-628,728,17019.18,29.80,-1.00,-1.0,2371
2780,307780,16948,-556,736,16973.08,29.89,-1.00,-1.0,2366
2785,307785,17112,-552,676,17134.24,29.94,-1.00,-1.0,2430
2788,307788,17044,-640,728,17071.54,29.80,-1.00,-1.0,2370
2791,307791,17052,-604,700,17077.05,29.94,-1.00,-1.0,2429
2793,307793,17032,-544,680,17054.25,29.85,-1.00,-1.0,2376
2796,307796,17156,-588,640,17178.00,29.85,-1.00,-1.0,2430
2799,307799,17044,-612,776,17072.63,29.85,-1.00,-1.0,2380
2802,307802,17044,-748,736,17076.27,29.89,-1.00,-1.0,2423
2805,307805,17016,-528,712,17039.07,29.85,-1.00,-1.0,2375
2809,307809,17040,-656,676,17066.02,29.85,-1.00,-1.0,2427
2812,307812,17072,-644,696,17098.31,29.89,-1.00,-1.0,2377
2815,307815,16960,-652,476,16979.20,29.85,-1.00,-1.0,2371
2817,307817,17116,-504,704,17137.88,29.89,-1.00,-1.0,2424
2820,307820,16996,-636,572,17017.51,29.94,-1.00,-1.0,2384
2823,307823,17052,-660,676,17078.15,29.89,-1.00,-1.0,2421
2826,307826,16964,-620,624,16986.79,29.94,-1.00,-1.0,2377
2829,307829,16976,-548,668,16997.97,29.85,-1.00,-1.0,2429
2831,307831,17068,-572,696,17091.76,29.85,-1.00,-1.0,2371
2836,307836,17120,-668,696,17147.16,29.75,-1.00,-1.0,2427
2839,307839,16940,-604,764,16967.97,29.75,-1.00,-1.0,2378
2842,307842,16992,-656,728,17020.23,29.89,-1.00,-1.0,2436
2845,307845,17112,-632,644,17135.77,29.94,-1.00,-1.0,2378
2847,307847,16988,-532,568,17005.82,29.80,-1.00,-1.0,2369
2850,307850,17108,-540,644,17128.63,29.89,-1.00,-1.0,2419
2853,307853,17092,-580,764,17118.89,29.89,-1.00,-1.0,2372
2856,307856,16960,-672,652,16985.83,29.80,-1.00,-1.0,2421
2859,307859,17060,-652,692,17086.47,29.75,-1.00,-1.0,2375
2864,307864,17008,-568,696,17031.71,29.85,-1.00,-1.0,2434
2866,307866,17028,-572,764,17054.72,29.85,-1.00,-1.0,2378
2869,307869,16936,-608,772,16964.48,29.85,-1.00,-1.0,2425
2872,307872,17064,-624,772,17092.85,29.85,-1.00,-1.0,2370
2875,307875,17036,-632,724,17063.09,29.89,-1.00,-1.0,2368
2877,307877,16972,-612,740,16999.14,29.89,-1.00,-1.0,2421
2880,307880,17056,-616,696,17081.31,29.80,-1.00,-1.0,2377
2883,307883,17124,-700,788,17156.41,29.89,-1.00,-1.0,2420
2886,307886,16952,-600,748,16979.10,29.89,-1.00,-1.0,2370
2891,307891,17048,-616,728,17074.65,29.80,-1.00,-1.0,2430
2893,307893,17124,-588,644,17146.19,29.85,-1.00,-1.0,2372
2896,307896,17120,-592,688,17144.04,29.89,-1.00,-1.0,2438
2899,307899,17096,-668,652,17121.46,29.80,-1.00,-1.0,2377
2902,307902,17116,-644,568,17137.53,29.89,-1.00,-1.0,2428
2904,307904,17000,-628,740,17027.68,29.80,-1.00,-1.0,2377
2907,307907,17024,-580,684,17047.61,29.89,-1.00,-1.0,2366
2910,307910,17052,-516,732,17075.50,29.75,-1.00,-1.0,2427
2913,307913,17036,-524,656,17056.68,29.80,-1.00,-1.0,2367
2918,307918,17108,-604,792,17136.97,29.89,-1.00,-1.0,2433
2920,307920,17000,-584,648,17022.37,29.80,-1.00,-1.0,2370
2923,307923,16988,-584,736,17013.96,29.80,-1.00,-1.0,2423
2926,307926,16976,-648,780,17006.26,29.89,-1.00,-1.0,2374
2929,307929,17068,-560,808,17096.29,29.80,-1.00,-1.0,2431
2931,307931,17124,-516,700,17146.07,29.89,-1.00,-1.0,2376
2934,307934,17040,-636,628,17063.43,29.80,-1.00,-1.0,2429
2937,307937,17060,-632,704,17086.21,29.80,-1.00,-1.0,2374
2940,307940,17080,-600,756,17107.25,29.85,-1.00,-1.0,2366
2945,307945,17048,-640,676,17073.40,29.89,-1.00,-1.0,2430
2947,307947,17076,-696,888,17113.23,29.99,-1.00,-1.0,2387
2950,307950,17044,-616,744,17071.35,29.94,-1.00,-1.0,2421
2953,307953,17052,-644,688,17078.02,29.89,-1.00,-1.0,2367
2956,307956,17064,-668,676,17090.45,29.85,-1.00,-1.0,2421
2958,307958,17100,-592,752,17126.76,29.99,-1.00,-1.0,2370
2961,307961,17088,-588,652,17110.54,29.85,-1.00,-1.0,2419
2964,307964,17056,-592,696,17080.46,29.80,-1.00,-1.0,2368
2969,307969,17092,-608,920,17127.54,29.89,-1.00,-1.0,2435
2971,307971,17172,-584,664,17194.75,29.80,-1.00,-1.0,2374
2974,307974,17052,-600,672,17075.78,29.85,-1.00,-1.0,2367
2977,307977,16964,-652,812,16995.93,29.94,-1.00,-1.0,2421
2980,307980,17016,-660,824,17048.72,29.85,-1.00,-1.0,2369
2982,307982,17144,-708,732,17174.22,29.85,-1.00,-1.0,2420
2985,307985,17124,-528,624,17143.50,29.85,-1.00,-1.0,2370
2988,307988,16952,-628,584,16973.68,29.85,-1.00,-1.0,2420
2991,307991,17008,-628,656,17032.23,29.85,-1.00,-1.0,2370
2995,307995,17048,-716,724,17078.38,29.80,-1.00,-1.0,2427
2998,307998,16996,-572,740,17021.71,29.80,-1.00,-1.0,2374
3001,308001,17104,-544,700,17126.96,29.89,-1.00,-1.0,2421
3004,308004,16932,-732,756,16964.67,29.80,-1.00,-1.0,2385
3006,308006,17036,-624,772,17064.89,29.85,-1.00,-1.0,2374
3009,308009,17012,-556,752,17037.69,29.85,-1.00,-1.0,2420
3012,308012,17072,-620,712,17098.09,29.89,-1.00,-1.0,2369
3015,308015,17100,-580,672,17123.03,29.89,-1.00,-1.0,2431
3018,308018,17072,-620,760,17100.15,29.99,-1.00,-1.0,2374
3022,308022,17096,-672,736,17125.03,29.94,-1.00,-1.0,2430
3025,308025,17084,-608,644,17106.94,29.85,-1.00,-1.0,2364
3028,308028,17080,-576,548,17098.49,29.85,-1.00,-1.0,2421
3031,308031,17044,-580,748,17070.26,29.94,-1.00,-1.0,2373
3033,308033,17068,-576,672,17090.93,29.75,-1.00,-1.0,2419
3036,308036,17052,-528,764,17077.27,29.85,-1.00,-1.0,2372
3039,308039,16956,-608,628,16978.52,29.80,-1.00,-1.0,2374
3042,308042,17088,-568,668,17110.48,29.89,-1.00,-1.0,2428
3045,308045,16988,-604,784,17016.80,29.89,-1.00,-1.0,2375
3050,308050,17092,-736,728,17123.32,29.89,-1.00,-1.0,2434
3052,308052,17008,-552,800,17035.75,29.89,-1.00,-1.0,2370
3055,308055,16968,-640,612,16991.09,29.80,-1.00,-1.0,2424
3058,308058,16952,-680,636,16977.55,29.99,-1.00,-1.0,2369
3061,308061,17072,-568,672,17094.66,29.89,-1.00,-1.0,2434
3063,308063,16972,-560,776,16998.96,29.99,-1.00,-1.0,2368
3066,308066,17044,-604,864,17076.57,29.94,-1.00,-1.0,2381
3069,308069,17052,-656,700,17078.96,29.85,-1.00,-1.0,2420
3072,308072,17012,-572,772,17039.11,29.80,-1.00,-1.0,2378
3077,308077,17084,-576,732,17109.37,29.89,-1.00,-1.0,2429
3079,308079,17164,-680,752,17193.92,29.89,-1.00,-1.0,2370
3082,308082,16956,-636,760,16984.94,29.85,-1.00,-1.0,2430
3085,308085,17028,-572,732,17053.32,29.89,-1.00,-1.0,2369
3088,308088,17032,-548,680,17054.38,29.80,-1.00,-1.0,2425
3091,308091,17036,-480,732,17058.47,29.85,-1.00,-1.0,2421
3093,308093,17000,-592,700,17024.70,29.89,-1.00,-1.0,2430
3096,308096,17112,-584,764,17139.00,29.89,-1.00,-1.0,2377
3099,308099,17072,-464,740,17094.33,29.94,-1.00,-1.0,2374
3104,308104,17124,-576,572,17143.23,29.94,-1.00,-1.0,2434
3106,308106,17092,-676,740,17121.36,29.85,-1.00,-1.0,2370
3109,308109,17128,-536,712,17151.17,29.85,-1.00,-1.0,2438
3112,308112,17044,-544,652,17065.14,29.85,-1.00,-1.0,2376
3115,308115,17084,-668,648,17109.33,29.80,-1.00,-1.0,2420
3117,308117,17048,-708,748,17079.08,29.85,-1.00,-1.0,2374
3120,308120,17036,-580,832,17066.16,29.80,-1.00,-1.0,2427
3123,308123,17008,-580,704,17032.44,29.94,-1.00,-1.0,2385
3128,308128,16964,-612,768,16992.40,29.75,-1.00,-1.0,2444
3131,308131,17084,-596,524,17102.42,29.85,-1.00,-1.0,2378
3133,308133,17036,-740,692,17066.10,29.89,-1.00,-1.0,2369
3136,308136,17124,-704,688,17152.27,29.80,-1.00,-1.0,2421
3139,308139,17180,-504,688,17201.16,29.80,-1.00,-1.0,2369
3142,308142,17096,-628,640,17119.50,29.80,-1.00,-1.0,2428
3144,308144,17056,-572,656,17078.19,29.80,-1.00,-1.0,2372
3147,308147,17036,-636,680,17061.42,29.85,-1.00,-1.0,2419
3150,308150,17044,-532,772,17069.77,29.80,-1.00,-1.0,2369
3155,308155,17028,-708,748,17059.12,29.89,-1.00,-1.0,2427
3158,308158,16984,-564,612,17004.38,29.89,-1.00,-1.0,2378
3160,308160,17096,-580,584,17115.80,29.89,-1.00,-1.0,2421
3163,308163,17100,-644,644,17124.24,29.89,-1.00,-1.0,2369
3166,308166,16908,-508,688,16929.62,29.89,-1.00,-1.0,2374
3168,308168,17008,-468,832,17034.77,29.94,-1.00,-1.0,2420
3171,308171,17088,-616,644,17111.22,29.75,-1.00,-1.0,2372
3174,308174,17000,-612,568,17020.49,29.85,-1.00,-1.0,2427
3177,308177,17068,-680,832,17101.79,29.80,-1.00,-1.0,2370
3182,308182,16948,-508,620,16966.94,29.80,-1.00,-1.0,2431
3185,308185,17140,-592,712,17164.99,29.89,-1.00,-1.0,2382
3187,308187,17044,-592,736,17070.15,29.89,-1.00,-1.0,2409
3190,308190,17060,-540,880,17091.21,29.89,-1.00,-1.0,2385
3193,308193,17004,-572,656,17026.26,29.80,-1.00,-1.0,2421
3196,308196,16964,-616,608,16986.06,29.80,-1.00,-1.0,2377
3198,308198,17036,-508,700,17057.94,29.85,-1.00,-1.0,2366
3201,308201,16992,-568,700,17015.89,29.85,-1.00,-1.0,2420
3204,308204,17088,-608,628,17110.34,29.89,-1.00,-1.0,2359
3209,308209,17072,-644,828,17104.20,29.85,-1.00,-1.0,2432
3211,308211,17052,-676,600,17075.94,29.85,-1.00,-1.0,2380
3214,308214,17080,-540,688,17102.38,29.85,-1.00,-1.0,2422
3217,308217,17028,-528,652,17048.66,29.85,-1.00,-1.0,2370
3220,308220,17044,-592,764,17071.38,29.85,-1.00,-1.0,2422
3222,308222,17076,-588,664,17099.02,29.94,-1.00,-1.0,2368
3225,308225,17044,-496,700,17065.58,29.85,-1.00,-1.0,2420
3228,308228,17004,-464,736,17026.24,29.85,-1.00,-1.0,2370
3231,308231,17136,-520,756,17160.55,29.94,-1.00,-1.0,2366
3236,308236,17036,-624,596,17057.84,29.80,-1.00,-1.0,2433
3238,308238,17152,-660,644,17176.77,29.80,-1.00,-1.0,2383
3241,308241,16996,-620,700,17021.71,29.85,-1.00,-1.0,2421
3244,308244,17044,-644,572,17065.75,29.89,-1.00,-1.0,2370
3247,308247,17004,-572,716,17028.68,29.89,-1.00,-1.0,2421
3249,308249,16964,-636,608,16986.80,29.80,-1.00,-1.0,2372
3252,308252,17076,-576,772,17103.14,29.94,-1.00,-1.0,2419
3255,308255,17056,-580,712,17080.71,29.85,-1.00,-1.0,2370
3258,308258,17104,-532,532,17120.54,29.85,-1.00,-1.0,2366
3263,308263,17052,-544,700,17075.03,29.85,-1.00,-1.0,2427
3266,308266,16980,-684,652,17006.27,29.89,-1.00,-1.0,2378
3268,308268,17060,-508,756,17084.30,29.85,-1.00,-1.0,2408
3271,308271,17068,-544,796,17095.21,29.85,-1.00,-1.0,2374
3274,308274,17060,-672,804,17092.15,29.94,-1.00,-1.0,2419
3277,308277,17072,-616,500,17090.43,29.94,-1.00,-1.0,2370
3279,308279,17048,-688,740,17077.92,29.94,-1.00,-1.0,2406
3282,308282,17012,-556,728,17036.64,29.94,-1.00,-1.0,2370
3287,308287,16988,-732,584,17013.79,29.85,-1.00,-1.0,2437
3290,308290,17096,-556,800,17123.74,29.89,-1.00,-1.0,2390
3293,308293,17064,-628,728,17091.06,29.85,-1.00,-1.0,2366
3295,308295,17072,-592,744,17098.46,29.89,-1.00,-1.0,2420
3298,308298,17200,-680,668,17226.39,29.94,-1.00,-1.0,2369
3301,308301,17000,-532,716,17023.39,29.80,-1.00,-1.0,2419
3304,308304,17000,-560,836,17029.75,30.04,-1.00,-1.0,2370
3306,308306,17028,-652,792,17058.87,29.99,-1.00,-1.0,2422
3309,308309,17056,-568,760,17082.37,29.94,-1.00,-1.0,2356
3314,308314,17032,-588,668,17055.23,29.85,-1.00,-1.0,2427
3317,308317,17096,-536,664,17117.28,29.94,-1.00,-1.0,2362
3320,308320,16996,-636,680,17021.48,29.85,-1.00,-1.0,2423
3322,308322,17112,-616,728,17138.55,29.85,-1.00,-1.0,2373
3325,308325,17052,-696,700,17080.55,29.99,-1.00,-1.0,2368
3328,308328,17032,-608,740,17058.91,29.80,-1.00,-1.0,2430
3330,308330,17032,-540,836,17061.05,29.89,-1.00,-1.0,2368
3333,308333,17096,-640,640,17119.94,29.99,-1.00,-1.0,2419
3336,308336,17072,-504,680,17092.97,29.89,-1.00,-1.0,2377
3341,308341,17072,-568,776,17099.06,29.80,-1.00,-1.0,2429
3344,308344,16980,-764,728,17012.76,29.80,-1.00,-1.0,2379
3346,308346,17064,-480,688,17084.61,29.89,-1.00,-1.0,2421
3349,308349,17100,-584,796,17128.47,29.89,-1.00,-1.0,2375
3352,308352,17072,-548,672,17094.01,29.85,-1.00,-1.0,2435
3355,308355,17084,-532,804,17111.18,29.80,-1.00,-1.0,2372
3357,308357,17008,-576,924,17042.82,29.85,-1.00,-1.0,2374
3360,308360,17104,-596,684,17128.04,29.89,-1.00,-1.0,2420
3363,308363,17040,-632,612,17062.70,29.85,-1.00,-1.0,2385
3368,308368,17052,-676,708,17080.07,29.94,-1.00,-1.0,2426
3371,308371,17036,-648,744,17064.55,29.89,-1.00,-1.0,2379
3374,308374,17056,-656,636,17080.46,29.85,-1.00,-1.0,2442
3376,308376,17012,-628,556,17032.66,29.85,-1.00,-1.0,2374
3379,308379,17012,-532,648,17032.65,29.85,-1.00,-1.0,2427
3382,308382,16956,-540,764,16981.79,29.85,-1.00,-1.0,2378
3385,308385,17116,-592,684,17139.89,29.94,-1.00,-1.0,2428
3387,308387,16964,-520,676,16985.43,29.94,-1.00,-1.0,2378
3390,308390,16980,-640,804,17011.07,29.85,-1.00,-1.0,2373
3395,308395,16996,-580,684,17019.64,29.85,-1.00,-1.0,2443
3398,308398,17040,-664,668,17066.01,29.85,-1.00,-1.0,2381
3401,308401,17112,-540,660,17133.23,29.85,-1.00,-1.0,2432
3403,308403,16988,-532,828,17016.48,29.85,-1.00,-1.0,2371
3406,308406,17020,-600,824,17050.49,29.85,-1.00,-1.0,2413
3409,308409,17004,-528,824,17032.14,29.85,-1.00,-1.0,2374
3412,308412,16992,-592,564,17011.66,29.85,-1.00,-1.0,2429
3414,308414,17104,-540,720,17127.66,29.85,-1.00,-1.0,2369
3420,308420,17024,-500,580,17041.21,29.80,-1.00,-1.0,2437
3423,308423,17044,-576,684,17067.44,29.85,-1.00,-1.0,2376
3425,308425,16992,-592,820,17022.07,29.89,-1.00,-1.0,2370
3428,308428,16964,-760,788,16999.29,29.85,-1.00,-1.0,2421
3431,308431,17056,-660,824,17088.64,29.89,-1.00,-1.0,2378
3433,308433,17092,-496,708,17113.85,29.94,-1.00,-1.0,2420
3436,308436,17076,-644,692,17102.14,29.85,-1.00,-1.0,2370
3439,308439,17096,-548,700,17119.10,29.85,-1.00,-1.0,2419
3442,308442,17092,-496,744,17115.37,29.94,-1.00,-1.0,2381
3446,308446,17096,-672,628,17120.72,29.80,-1.00,-1.0,2429
3449,308449,17032,-620,784,17061.30,29.89,-1.00,-1.0,2370
3452,308452,17008,-692,800,17040.86,29.85,-1.00,-1.0,2374
3455,308455,17056,-604,688,17080.55,29.89,-1.00,-1.0,2440
3457,308457,17016,-680,676,17042.99,29.94,-1.00,-1.0,2377
3460,308460,17100,-604,692,17124.65,29.80,-1.00,-1.0,2421
3463,308463,17028,-580,712,17052.75,29.85,-1.00,-1.0,2359
3466,308466,16984,-596,696,17008.70,29.80,-1.00,-1.0,2429
3468,308468,16980,-588,764,17007.35,29.99,-1.00,-1.0,2377
3473,308473,17036,-560,728,17060.74,29.94,-1.00,-1.0,2431
3476,308476,17092,-676,656,17117.94,29.94,-1.00,-1.0,2367
3479,308479,17116,-580,796,17144.31,29.89,-1.00,-1.0,2437
3481,308481,17156,-636,600,17178.27,29.85,-1.00,-1.0,2365
3484,308484,17000,-500,900,17031.15,29.89,-1.00,-1.0,2365
3487,308487,16980,-580,688,17003.83,29.89,-1.00,-1.0,2419
3490,308490,17040,-540,700,17062.92,29.89,-1.00,-1.0,2370
3492,308492,16996,-620,668,17020.42,29.99,-1.00,-1.0,2419
3495,308495,17016,-632,660,17040.52,29.94,-1.00,-1.0,2369
3500,308500,17096,-588,712,17120.92,29.85,-1.00,-1.0,2428
3503,308503,17076,-544,736,17100.51,29.99,-1.00,-1.0,2376
3506,308506,17020,-684,928,17059.00,29.94,-1.00,-1.0,2422
3508,308508,17116,-600,704,17140.98,29.89,-1.00,-1.0,2369
3511,308511,16972,-592,636,16994.23,29.85,-1.00,-1.0,2422
3514,308514,17028,-524,608,17046.91,29.71,-1.00,-1.0,2370
3516,308516,17156,-576,768,17182.84,29.85,-1.00,-1.0,2367
3519,308519,17068,-584,716,17092.99,29.89,-1.00,-1.0,2432
3522,308522,17048,-640,592,17070.28,29.94,-1.00,-1.0,2370
3527,308527,17000,-672,648,17025.61,29.94,-1.00,-1.0,2426
3530,308530,17088,-612,548,17107.73,29.80,-1.00,-1.0,2372
3533,308533,17036,-608,744,17063.07,29.94,-1.00,-1.0,2430
3535,308535,17048,-600,652,17071.01,29.89,-1.00,-1.0,2365
3538,308538,17148,-664,736,17176.63,29.85,-1.00,-1.0,2419
3541,308541,17068,-588,660,17090.87,29.85,-1.00,-1.0,2376
3544,308544,17072,-540,568,17089.98,29.85,-1.00,-1.0,2427
3546,308546,17104,-588,656,17126.67,29.80,-1.00,-1.0,2368
3549,308549,17024,-592,660,17047.07,29.94,-1.00,-1.0,2368
3554,308554,17020,-552,616,17040.09,29.85,-1.00,-1.0,2429
3557,308557,17068,-632,568,17089.14,29.94,-1.00,-1.0,2375
3560,308560,16976,-676,652,17001.96,29.99,-1.00,-1.0,2423
3562,308562,16996,-612,748,17023.46,29.94,-1.00,-1.0,2369
3565,308565,17136,-640,748,17164.25,29.99,-1.00,-1.0,2422
3568,308568,17048,-616,648,17071.43,29.94,-1.00,-1.0,2369
3571,308571,17052,-616,676,17076.51,29.89,-1.00,-1.0,2422
3573,308573,17008,-564,608,17028.21,29.85,-1.00,-1.0,2368
3578,308578,17060,-568,792,17087.82,29.85,-1.00,-1.0,2427
3581,308581,16976,-668,744,17005.42,29.85,-1.00,-1.0,2377
3584,308584,17116,-712,672,17143.98,29.80,-1.00,-1.0,2372
3587,308587,17128,-580,644,17149.91,29.80,-1.00,-1.0,2424
3589,308589,17140,-676,648,17165.56,29.89,-1.00,-1.0,2370
3592,308592,16984,-680,636,17009.50,29.80,-1.00,-1.0,2434
3595,308595,17124,-528,536,17140.52,29.89,-1.00,-1.0,2380
3598,308598,17088,-604,712,17113.49,29.80,-1.00,-1.0,2430
3600,308600,17144,-620,680,17168.68,29.89,-1.00,-1.0,2380
3605,308605,17096,-616,632,17118.76,29.89,-1.00,-1.0,2430
3608,308608,17072,-564,640,17093.30,29.99,-1.00,-1.0,2370
3611,308611,17012,-572,684,17035.35,29.80,-1.00,-1.0,2438
3613,308613,17008,-628,700,17033.98,29.89,-1.00,-1.0,2368
3616,308616,17008,-568,704,17032.04,29.85,-1.00,-1.0,2365
3619,308619,17004,-580,680,17027.47,29.94,-1.00,-1.0,2419
3622,308622,16980,-568,516,16997.33,29.75,-1.00,-1.0,2369
3624,308624,17144,-596,688,17168.15,29.94,-1.00,-1.0,2419
3627,308627,17052,-560,764,17078.29,29.89,-1.00,-1.0,2378
3632,308632,17140,-628,780,17169.23,29.94,-1.00,-1.0,2428
3635,308635,17008,-588,632,17029.89,29.85,-1.00,-1.0,2376
3638,308638,17088,-664,572,17110.46,29.89,-1.00,-1.0,2430
3640,308640,17112,-608,616,17133.88,29.85,-1.00,-1.0,2367
3643,308643,17016,-644,608,17039.03,29.94,-1.00,-1.0,2414
3646,308646,17088,-684,816,17121.14,29.99,-1.00,-1.0,2432
3649,308649,17160,-500,676,17180.59,29.80,-1.00,-1.0,2376
3651,308651,17048,-556,672,17070.30,29.89,-1.00,-1.0,2423
3654,308654,17032,-524,692,17054.10,29.94,-1.00,-1.0,2379
3659,308659,17028,-580,648,17050.19,29.85,-1.00,-1.0,2429
3662,308662,17084,-544,572,17102.23,29.89,-1.00,-1.0,2379
3665,308665,17020,-568,752,17046.07,29.94,-1.00,-1.0,2432
3667,308667,17000,-708,628,17026.32,29.89,-1.00,-1.0,2376
3670,308670,17052,-632,652,17076.16,29.94,-1.00,-1.0,2431
3673,308673,17024,-612,724,17050.38,29.75,-1.00,-1.0,2377
3675,308675,17076,-508,680,17097.08,29.89,-1.00,-1.0,2408
3678,308678,17028,-544,712,17051.56,29.89,-1.00,-1.0,2434
3681,308681,17064,-648,744,17092.50,29.94,-1.00,-1.0,2377
3686,308686,16996,-596,716,17021.51,29.94,-1.00,-1.0,2430
3689,308689,17124,-592,776,17151.79,29.94,-1.00,-1.0,2373
3692,308692,17068,-640,708,17094.66,29.89,-1.00,-1.0,2420
3695,308695,17100,-628,640,17123.49,29.85,-1.00,-1.0,2371
3697,308697,17112,-516,780,17137.54,29.99,-1.00,-1.0,2426
3700,308700,17056,-592,648,17078.57,29.85,-1.00,-1.0,2371
3703,308703,17140,-612,704,17165.37,29.80,-1.00,-1.0,2419
3706,308706,17104,-596,636,17126.19,29.85,-1.00,-1.0,2370
3708,308708,17004,-644,580,17026.07,29.89,-1.00,-1.0,2366
3713,308713,17052,-616,760,17080.04,29.80,-1.00,-1.0,2431
3716,308716,17044,-720,696,17073.39,29.85,-1.00,-1.0,2377
3719,308719,17112,-592,756,17138.92,29.89,-1.00,-1.0,2420
3722,308722,17024,-668,764,17054.22,29.80,-1.00,-1.0,2369
3724,308724,17092,-612,808,17122.03,29.89,-1.00,-1.0,2419
3727,308727,17036,-624,676,17060.82,29.89,-1.00,-1.0,2370
3730,308730,17024,-628,748,17051.99,29.89,-1.00,-1.0,2419
3733,308733,17028,-612,816,17058.52,29.89,-1.00,-1.0,2370
3738,308738,16992,-500,508,17006.94,29.75,-1.00,-1.0,2434
3740,308740,17060,-604,816,17090.18,29.94,-1.00,-1.0,2371
3743,308743,17036,-696,640,17062.22,29.99,-1.00,-1.0,2370
3746,308746,16980,-636,596,17002.36,29.89,-1.00,-1.0,2425
3749,308749,17040,-556,576,17058.79,29.89,-1.00,-1.0,2369
3751,308751,17052,-540,524,17068.59,29.89,-1.00,-1.0,2420
3754,308754,17080,-552,664,17101.81,29.89,-1.00,-1.0,2370
3757,308757,17052,-624,776,17081.05,29.89,-1.00,-1.0,2419
3760,308760,16952,-596,696,16976.75,29.89,-1.00,-1.0,2370
3765,308765,17084,-704,668,17111.54,29.89,-1.00,-1.0,2435
3767,308767,17072,-680,696,17099.71,29.89,-1.00,-1.0,2378
3770,308770,17052,-592,700,17076.63,29.80,-1.00,-1.0,2427
3773,308773,17116,-676,708,17143.97,29.89,-1.00,-1.0,2369
3775,308775,17072,-640,708,17098.66,29.94,-1.00,-1.0,2366
3778,308778,17112,-496,784,17137.13,29.75,-1.00,-1.0,2422
3781,308781,16996,-544,724,17020.11,29.85,-1.00,-1.0,2370
3784,308784,17064,-588,800,17092.86,29.94,-1.00,-1.0,2422
3786,308786,17044,-564,616,17064.45,29.94,-1.00,-1.0,2368
3791,308791,17156,-536,696,17178.48,29.94,-1.00,-1.0,2429
3794,308794,17116,-628,600,17138.02,29.89,-1.00,-1.0,2376
3797,308797,17128,-568,752,17153.91,29.94,-1.00,-1.0,2422
3800,308800,17056,-796,536,17082.97,29.94,-1.00,-1.0,2369
3802,308802,17060,-568,684,17083.15,29.85,-1.00,-1.0,2419
3805,308805,17036,-640,716,17063.05,29.80,-1.00,-1.0,2369
3808,308808,17108,-640,716,17134.93,29.99,-1.00,-1.0,2373
3811,308811,17080,-648,696,17106.45,29.89,-1.00,-1.0,2433
3813,308813,17028,-668,616,17052.23,29.85,-1.00,-1.0,2369
3818,308818,17008,-568,780,17035.35,29.85,-1.00,-1.0,2415
3821,308821,17000,-568,756,17026.28,29.89,-1.00,-1.0,2372
3824,308824,17064,-584,708,17088.66,29.94,-1.00,-1.0,2421
3827,308827,17104,-568,768,17130.65,29.85,-1.00,-1.0,2369
3829,308829,17068,-712,652,17095.28,29.94,-1.00,-1.0,2421
3832,308832,17068,-676,664,17094.28,29.89,-1.00,-1.0,2356
3835,308835,17060,-616,812,17090.42,29.99,-1.00,-1.0,2374
3838,308838,17028,-652,716,17055.51,29.89,-1.00,-1.0,2432
3840,308840,16972,-560,684,16995.01,29.89,-1.00,-1.0,2375
3847,308847,17084,-500,716,17106.31,29.94,-1.00,-1.0,2429
3850,308850,17016,-588,664,17039.10,29.94,-1.00,-1.0,2375
3853,308853,17036,-556,696,17059.28,29.80,-1.00,-1.0,2432
3855,308855,17024,-592,848,17055.38,29.94,-1.00,-1.0,2368
3858,308858,17020,-680,764,17050.70,29.89,-1.00,-1.0,2421
3861,308861,17004,-620,792,17033.72,29.85,-1.00,-1.0,2372
3864,308864,17060,-612,576,17080.69,29.89,-1.00,-1.0,2427
3866,308866,17108,-520,668,17128.93,29.94,-1.00,-1.0,2368
3869,308869,17088,-572,584,17107.54,29.89,-1.00,-1.0,2373
3874,308874,17084,-596,668,17107.44,29.89,-1.00,-1.0,2436
3876,308876,17092,-548,608,17111.59,29.94,-1.00,-1.0,2376
3879,308879,16976,-532,712,16999.25,29.89,-1.00,-1.0,2426
3882,308882,17168,-572,804,17196.33,29.85,-1.00,-1.0,2369
3885,308885,17080,-604,880,17113.32,29.89,-1.00,-1.0,2426
3887,308887,17044,-560,740,17069.25,29.99,-1.00,-1.0,2370
3890,308890,17048,-464,704,17068.84,29.80,-1.00,-1.0,2428
3893,308893,17044,-648,752,17072.88,29.89,-1.00,-1.0,2370
3898,308898,17012,-580,700,17036.27,29.85,-1.00,-1.0,2428
3901,308901,17048,-608,728,17074.37,29.85,-1.00,-1.0,2377
3903,308903,17088,-576,872,17119.93,29.89,-1.00,-1.0,2368
3906,308906,17124,-496,792,17149.48,29.89,-1.00,-1.0,2432
3909,308909,17020,-596,652,17042.91,29.89,-1.00,-1.0,2378
3912,308912,17024,-596,564,17043.76,29.85,-1.00,-1.0,2430
3914,308914,17028,-600,704,17053.11,29.80,-1.00,-1.0,2376
3917,308917,17152,-620,704,17177.63,29.85,-1.00,-1.0,2420
3920,308920,17040,-484,584,17056.87,29.89,-1.00,-1.0,2364
3925,308925,17088,-640,696,17114.14,29.89,-1.00,-1.0,2435
3927,308927,17148,-540,692,17170.45,29.89,-1.00,-1.0,2376
3930,308930,17024,-584,704,17048.55,29.85,-1.00,-1.0,2431
3933,308933,17060,-520,696,17082.11,29.89,-1.00,-1.0,2369
3936,308936,16972,-576,684,16995.54,29.85,-1.00,-1.0,2366
3938,308938,17036,-592,588,17056.42,29.94,-1.00,-1.0,2419
3941,308941,17112,-664,676,17138.21,29.94,-1.00,-1.0,2369
3944,308944,17084,-624,724,17110.72,29.85,-1.00,-1.0,2419
3947,308947,17000,-584,708,17024.76,29.85,-1.00,-1.0,2370
3952,308952,17088,-528,728,17111.65,29.94,-1.00,-1.0,2434
3954,308954,17056,-656,632,17080.31,29.75,-1.00,-1.0,2384
3957,308957,17036,-620,840,17067.96,29.85,-1.00,-1.0,2422
3960,308960,17104,-592,524,17122.26,29.75,-1.00,-1.0,2370
3963,308963,17112,-588,572,17131.65,29.94,-1.00,-1.0,2421
3965,308965,17104,-588,540,17122.62,29.85,-1.00,-1.0,2374
3968,308968,17108,-592,620,17129.46,29.89,-1.00,-1.0,2365
3971,308971,16944,-584,712,16969.01,29.89,-1.00,-1.0,2421
3973,308973,16976,-648,636,17000.26,29.99,-1.00,-1.0,2368
3978,308978,17076,-596,792,17104.74,29.89,-1.00,-1.0,2428
3981,308981,17092,-656,748,17120.93,30.04,-1.00,-1.0,2370
3984,308984,17000,-524,712,17022.97,29.89,-1.00,-1.0,2428
3987,308987,17072,-556,628,17092.59,29.85,-1.00,-1.0,2369
3989,308989,17028,-544,732,17052.41,29.89,-1.00,-1.0,2419
3992,308992,17016,-516,872,17046.14,29.89,-1.00,-1.0,2369
3995,308995,17112,-604,724,17137.96,29.89,-1.00,-1.0,2420
3998,308998,17020,-580,696,17044.10,29.80,-1.00,-1.0,2370
4000,309000,17028,-636,716,17054.91,29.94,-1.00,-1.0,2373
4005,309005,17008,-688,804,17040.89,29.94,-1.00,-1.0,2429
4008,309008,16980,-592,668,17003.44,29.89,-1.00,-1.0,2376
4011,309011,17016,-596,628,17038.01,29.94,-1.00,-1.0,2428
4013,309013,17176,-588,740,17201.99,29.89,-1.00,-1.0,2369
4016,309016,17056,-576,600,17076.27,29.85,-1.00,-1.0,2424
4019,309019,17000,-580,680,17023.48,29.80,-1.00,-1.0,2370
4022,309022,17052,-668,772,17082.53,29.94,-1.00,-1.0,2427
4024,309024,17036,-596,696,17060.62,29.89,-1.00,-1.0,2369
4027,309027,17120,-508,720,17142.66,29.89,-1.00,-1.0,2409
4032,309032,17056,-596,676,17079.79,29.94,-1.00,-1.0,2438
4035,309035,17096,-604,768,17123.90,29.89,-1.00,-1.0,2373
4038,309038,16968,-596,652,16990.98,29.85,-1.00,-1.0,2428
4040,309040,17028,-656,720,17055.84,29.94,-1.00,-1.0,2368
4043,309043,17028,-604,720,17053.91,29.85,-1.00,-1.0,2427
4046,309046,17156,-552,676,17178.18,29.89,-1.00,-1.0,2370
4049,309049,17132,-672,776,17162.73,29.94,-1.00,-1.0,2427
4051,309051,17108,-520,532,17124.17,29.75,-1.00,-1.0,2370
4056,309056,17064,-640,748,17092.37,29.89,-1.00,-1.0,2444
4059,309059,17120,-576,748,17146.01,29.85,-1.00,-1.0,2386
4062,309062,17104,-644,668,17129.15,29.89,-1.00,-1.0,2366
4064,309064,17068,-616,544,17087.77,29.85,-1.00,-1.0,2422
4067,309067,17040,-636,680,17065.42,29.89,-1.00,-1.0,2369
4070,309070,17000,-628,684,17025.34,29.85,-1.00,-1.0,2421
4073,309073,17064,-548,728,17088.31,29.89,-1.00,-1.0,2369
4075,309075,17044,-624,668,17068.50,29.94,-1.00,-1.0,2420
4078,309078,17036,-608,840,17067.53,29.85,-1.00,-1.0,2373
4083,309083,17056,-600,792,17084.92,29.80,-1.00,-1.0,2438
4086,309086,17000,-668,672,17026.38,29.80,-1.00,-1.0,2372
4088,309088,17000,-640,668,17025.15,29.99,-1.00,-1.0,2420
4091,309091,16996,-644,632,17019.94,29.80,-1.00,-1.0,2370
4094,309094,16960,-628,684,16985.40,29.85,-1.00,-1.0,2374
4096,309096,17036,-616,684,17060.85,29.94,-1.00,-1.0,2420
4099,309099,17096,-656,764,17125.63,29.85,-1.00,-1.0,2373
4102,309102,17000,-624,608,17022.31,29.89,-1.00,-1.0,2435
4105,309105,16968,-564,824,16997.36,29.89,-1.00,-1.0,2377
4110,309110,17104,-612,696,17129.09,29.99,-1.00,-1.0,2441
4112,309112,17000,-608,664,17023.82,29.94,-1.00,-1.0,2371
4115,309115,17088,-656,528,17108.74,29.89,-1.00,-1.0,2428
4118,309118,17104,-568,680,17126.93,29.80,-1.00,-1.0,2377
4121,309121,17068,-708,744,17098.87,29.80,-1.00,-1.0,2407
4123,309123,17096,-544,776,17122.25,29.94,-1.00,-1.0,2370
4126,309126,17068,-532,804,17095.21,29.89,-1.00,-1.0,2366
4129,309129,16920,-516,772,16945.46,29.80,-1.00,-1.0,2420
4132,309132,17060,-608,700,17085.18,29.99,-1.00,-1.0,2369
4137,309137,17052,-556,820,17080.76,29.89,-1.00,-1.0,2437
4139,309139,17064,-588,700,17088.47,29.80,-1.00,-1.0,2374
4142,309142,17088,-560,640,17109.15,29.89,-1.00,-1.0,2428
4145,309145,17080,-572,740,17105.59,29.89,-1.00,-1.0,2385
4148,309148,17048,-508,696,17069.76,29.89,-1.00,-1.0,2419
4151,309151,17104,-628,612,17126.46,29.89,-1.00,-1.0,2374
4153,309153,16980,-508,676,17001.04,29.99,-1.00,-1.0,2407
4156,309156,17096,-556,740,17121.04,29.89,-1.00,-1.0,2385
4159,309159,16996,-552,888,17028.13,29.80,-1.00,-1.0,2367
4164,309164,17104,-568,732,17129.08,29.89,-1.00,-1.0,2442
4167,309167,17016,-672,644,17041.44,29.89,-1.00,-1.0,2380
4170,309170,17148,-548,704,17171.19,29.89,-1.00,-1.0,2433
4172,309172,17084,-636,712,17110.65,29.89,-1.00,-1.0,2372
4175,309175,17032,-580,732,17057.59,29.99,-1.00,-1.0,2428
4178,309178,17044,-576,788,17071.93,29.89,-1.00,-1.0,2377
4181,309181,16968,-596,712,16993.39,29.94,-1.00,-1.0,2428
4183,309183,17064,-536,848,17093.46,29.89,-1.00,-1.0,2378
4188,309188,17032,-600,764,17059.68,29.80,-1.00,-1.0,2439
4191,309191,17000,-556,784,17027.15,29.89,-1.00,-1.0,2366
4194,309194,17068,-608,720,17094.00,29.85,-1.00,-1.0,2368
4196,309196,17036,-632,628,17059.28,29.85,-1.00,-1.0,2420
4199,309199,17032,-524,564,17049.39,29.85,-1.00,-1.0,2370
4202,309202,17076,-592,876,17108.70,29.94,-1.00,-1.0,2419
4205,309205,16936,-576,792,16964.29,29.85,-1.00,-1.0,2373
4207,309207,17032,-656,660,17057.40,29.85,-1.00,-1.0,2420
4210,309210,17076,-580,712,17100.68,29.85,-1.00,-1.0,2370
4215,309215,17120,-620,684,17144.87,29.94,-1.00,-1.0,2444
4218,309218,17040,-432,856,17066.96,29.80,-1.00,-1.0,2358
4220,309220,17020,-640,780,17049.88,29.94,-1.00,-1.0,2364
4223,309223,17072,-616,764,17100.19,29.89,-1.00,-1.0,2420
4226,309226,17144,-592,672,17167.38,29.94,-1.00,-1.0,2370
4229,309229,17136,-656,608,17159.33,29.89,-1.00,-1.0,2462
4232,309232,17060,-624,556,17080.46,29.94,-1.00,-1.0,2371
4234,309234,16952,-580,716,16977.03,29.94,-1.00,-1.0,2424
4237,309237,17092,-484,712,17113.67,29.94,-1.00,-1.0,2371
4242,309242,17080,-628,612,17102.49,29.85,-1.00,-1.0,2446
4245,309245,17060,-600,736,17086.41,29.89,-1.00,-1.0,2373
4248,309248,17080,-644,748,17108.50,29.85,-1.00,-1.0,2431
4250,309250,17144,-632,796,17174.10,29.94,-1.00,-1.0,2380
4253,309253,16996,-624,604,17018.17,29.89,-1.00,-1.0,2365
4256,309256,17080,-640,628,17103.52,29.99,-1.00,-1.0,2423
4258,309258,17008,-652,656,17033.13,29.89,-1.00,-1.0,2368
4261,309261,17048,-656,616,17071.73,29.89,-1.00,-1.0,2422
4264,309264,17084,-560,648,17105.45,29.89,-1.00,-1.0,2372
4270,309270,17068,-632,828,17099.76,29.94,-1.00,-1.0,2436
4272,309272,17040,-672,680,17066.80,29.89,-1.00,-1.0,2372
4275,309275,16980,-612,824,17010.99,29.85,-1.00,-1.0,2438
4278,309278,16940,-644,700,16966.68,29.80,-1.00,-1.0,2378
4281,309281,17016,-624,676,17040.85,29.94,-1.00,-1.0,2433
4283,309283,17032,-604,716,17057.74,29.85,-1.00,-1.0,2379
4286,309286,17024,-676,668,17050.51,29.89,-1.00,-1.0,2365
4289,309289,17076,-624,756,17104.11,29.80,-1.00,-1.0,2428
4291,309291,17056,-620,772,17084.72,29.89,-1.00,-1.0,2368
4296,309296,17164,-672,656,17189.67,29.80,-1.00,-1.0,2436
4299,309299,17080,-496,736,17103.04,29.94,-1.00,-1.0,2373
4302,309302,17020,-596,660,17043.22,29.80,-1.00,-1.0,2422
4304,309304,17036,-632,484,17054.59,29.75,-1.00,-1.0,2354
4307,309307,17008,-572,600,17028.19,29.89,-1.00,-1.0,2421
4310,309310,16972,-560,800,17000.07,29.85,-1.00,-1.0,2372
4313,309313,17000,-596,728,17026.02,29.89,-1.00,-1.0,2422
4315,309315,17004,-608,684,17028.61,29.85,-1.00,-1.0,2369
4318,309318,17028,-612,788,17057.21,29.85,-1.00,-1.0,2366
4323,309323,17016,-584,652,17038.50,29.89,-1.00,-1.0,2436
4326,309326,17152,-584,772,17179.29,29.89,-1.00,-1.0,2376
4328,309328,17024,-596,732,17050.15,29.94,-1.00,-1.0,2421
4331,309331,17044,-436,924,17074.60,29.99,-1.00,-1.0,2371
4334,309334,17048,-604,716,17073.72,29.94,-1.00,-1.0,2420
4337,309337,17112,-632,664,17136.54,29.80,-1.00,-1.0,2378
4339,309339,17068,-684,656,17094.29,29.85,-1.00,-1.0,2420
4342,309342,16992,-556,756,17017.89,29.89,-1.00,-1.0,2371
4347,309347,17156,-732,704,17186.04,29.99,-1.00,-1.0,2436
4350,309350,17036,-676,692,17063.45,29.89,-1.00,-1.0,2372
4352,309352,16980,-616,596,17001.62,29.94,-1.00,-1.0,2366
4355,309355,17132,-616,684,17156.71,29.85,-1.00,-1.0,2434
4358,309358,17116,-672,640,17141.14,29.85,-1.00,-1.0,2370
4361,309361,17020,-656,892,17055.98,29.94,-1.00,-1.0,2428
4363,309363,17020,-636,668,17044.97,29.85,-1.00,-1.0,2370
4366,309366,17116,-640,740,17143.94,29.94,-1.00,-1.0,2429
4369,309369,17100,-544,676,17122.00,29.94,-1.00,-1.0,2385
4374,309374,17020,-580,800,17048.66,29.85,-1.00,-1.0,2453
4377,309377,17032,-488,592,17049.27,29.85,-1.00,-1.0,2379
4380,309380,17020,-532,792,17046.72,29.89,-1.00,-1.0,2431
4382,309382,17012,-640,632,17035.76,29.94,-1.00,-1.0,2378
4385,309385,17028,-692,616,17053.19,29.99,-1.00,-1.0,2364
4388,309388,17052,-596,688,17076.28,29.89,-1.00,-1.0,2427
4390,309390,17052,-600,816,17082.05,29.71,-1.00,-1.0,2368
4393,309393,17008,-660,660,17033.59,29.85,-1.00,-1.0,2421
4396,309396,17008,-656,504,17028.11,29.89,-1.00,-1.0,2373
4401,309401,17076,-736,592,17102.10,29.80,-1.00,-1.0,2451
4404,309404,17028,-572,704,17052.14,29.85,-1.00,-1.0,2378
4407,309407,17112,-688,708,17140.45,29.89,-1.00,-1.0,2431
4409,309409,16992,-644,604,17014.92,29.89,-1.00,-1.0,2378
4412,309412,17176,-556,644,17197.06,29.94,-1.00,-1.0,2367
4415,309415,17156,-600,592,17176.69,29.85,-1.00,-1.0,2428
4417,309417,17020,-572,716,17044.65,29.94,-1.00,-1.0,2366
4420,309420,17156,-564,644,17177.34,29.94,-1.00,-1.0,2420
4423,309423,17084,-648,720,17111.44,29.89,-1.00,-1.0,2368
4428,309428,17052,-568,652,17073.91,29.80,-1.00,-1.0,2446
4431,309431,17100,-616,688,17124.92,29.80,-1.00,-1.0,2358
4434,309434,17032,-540,792,17058.95,29.80,-1.00,-1.0,2425
4436,309436,17132,-668,612,17155.94,29.89,-1.00,-1.0,2380
4439,309439,17036,-732,660,17064.49,29.89,-1.00,-1.0,2417
4442,309442,16916,-592,712,16941.32,29.89,-1.00,-1.0,2358
4444,309444,17108,-696,644,17134.26,29.85,-1.00,-1.0,2364
4447,309447,16984,-692,688,17012.01,29.94,-1.00,-1.0,2422
4450,309450,17020,-600,664,17043.51,29.85,-1.00,-1.0,2370
4455,309455,17112,-628,592,17133.75,29.89,-1.00,-1.0,2436
4458,309458,17088,-580,572,17107.41,29.89,-1.00,-1.0,2358
4461,309461,16996,-568,768,17022.82,29.80,-1.00,-1.0,2423
4463,309463,17028,-604,800,17057.48,29.89,-1.00,-1.0,2374
4466,309466,17092,-644,680,17117.64,29.94,-1.00,-1.0,2420
4469,309469,17044,-632,896,17079.23,29.89,-1.00,-1.0,2371
4472,309472,17008,-592,500,17025.64,29.89,-1.00,-1.0,2422
4474,309474,17092,-536,652,17112.83,29.99,-1.00,-1.0,2374
4477,309477,17168,-608,624,17190.09,29.94,-1.00,-1.0,2366
4482,309482,17052,-596,712,17077.26,29.94,-1.00,-1.0,2436
4485,309485,17064,-516,648,17084.09,29.94,-1.00,-1.0,2380
4487,309487,17052,-664,756,17081.66,29.99,-1.00,-1.0,2420
4490,309490,17016,-608,748,17043.28,29.85,-1.00,-1.0,2371
4493,309493,17012,-532,660,17033.11,29.89,-1.00,-1.0,2421
4496,309496,17048,-624,828,17079.50,29.85,-1.00,-1.0,2378
4498,309498,17076,-580,580,17095.69,29.89,-1.00,-1.0,2420
4501,309501,16996,-668,752,17025.74,29.85,-1.00,-1.0,2371
4506,309506,17068,-716,680,17096.54,29.94,-1.00,-1.0,2439
4509,309509,16976,-636,744,17004.19,29.80,-1.00,-1.0,2374
4511,309511,17072,-640,648,17096.28,29.94,-1.00,-1.0,2366
4514,309514,17072,-428,712,17092.20,29.89,-1.00,-1.0,2421
4517,309517,17048,-616,580,17068.98,29.99,-1.00,-1.0,2377
4519,309519,17016,-552,672,17038.21,29.89,-1.00,-1.0,2420
4522,309522,17072,-616,684,17096.80,29.99,-1.00,-1.0,2370
4525,309525,16976,-608,684,17000.65,29.89,-1.00,-1.0,2421
4528,309528,17000,-616,784,17029.21,29.89,-1.00,-1.0,2370
4533,309533,16964,-540,760,16989.60,29.89,-1.00,-1.0,2437
4536,309536,17088,-600,740,17114.54,29.94,-1.00,-1.0,2375
4539,309539,17132,-560,600,17151.65,29.80,-1.00,-1.0,2424
4541,309541,17108,-584,772,17135.36,29.80,-1.00,-1.0,2370
4544,309544,17040,-536,796,17067.00,29.80,-1.00,-1.0,2381
4547,309547,17004,-576,688,17027.66,29.94,-1.00,-1.0,2424
4550,309550,17056,-672,728,17084.75,29.89,-1.00,-1.0,2379
4552,309552,17052,-652,776,17082.10,29.94,-1.00,-1.0,2423
4555,309555,17000,-628,628,17023.18,29.99,-1.00,-1.0,2374
4560,309560,17008,-644,548,17029.01,29.99,-1.00,-1.0,2438
4563,309563,17096,-524,696,17118.18,29.89,-1.00,-1.0,2371
4566,309566,17044,-536,624,17063.84,29.80,-1.00,-1.0,2427
4568,309568,17080,-624,624,17102.78,29.89,-1.00,-1.0,2369
4571,309571,17000,-564,624,17020.79,29.85,-1.00,-1.0,2429
4574,309574,17180,-588,608,17200.81,29.89,-1.00,-1.0,2371
4577,309577,17032,-644,656,17056.79,30.04,-1.00,-1.0,2367
4579,309579,17108,-496,748,17131.53,29.94,-1.00,-1.0,2422
4582,309582,16964,-664,656,16989.66,29.99,-1.00,-1.0,2376
4587,309587,17028,-564,728,17052.88,29.99,-1.00,-1.0,2436
4590,309590,17096,-592,872,17128.46,29.99,-1.00,-1.0,2371
4593,309593,17156,-500,748,17179.58,29.94,-1.00,-1.0,2427
4595,309595,17012,-664,656,17037.59,29.80,-1.00,-1.0,2369
4598,309598,17040,-580,720,17065.06,29.94,-1.00,-1.0,2437
4601,309601,17060,-640,780,17089.81,29.89,-1.00,-1.0,2370
4604,309604,17072,-632,724,17099.03,29.85,-1.00,-1.0,2367
4606,309606,16996,-576,732,17021.50,29.89,-1.00,-1.0,2420
4609,309609,17096,-584,660,17118.70,29.94,-1.00,-1.0,2380
4614,309614,17148,-720,592,17173.32,29.89,-1.00,-1.0,2436
4617,309617,17036,-532,736,17060.19,29.89,-1.00,-1.0,2370
4620,309620,17020,-540,632,17040.29,29.94,-1.00,-1.0,2421
4623,309623,17076,-716,720,17106.16,29.89,-1.00,-1.0,2377
4625,309625,16996,-724,592,17021.71,29.89,-1.00,-1.0,2420
4628,309628,17132,-576,652,17154.08,29.80,-1.00,-1.0,2371
4631,309631,17044,-560,560,17062.39,29.85,-1.00,-1.0,2421
4634,309634,17160,-540,864,17190.22,29.89,-1.00,-1.0,2376
4636,309636,17000,-600,592,17020.88,29.94,-1.00,-1.0,2375
4641,309641,17104,-652,544,17125.06,29.85,-1.00,-1.0,2448
4644,309644,17000,-592,692,17024.38,29.94,-1.00,-1.0,2377
4647,309647,17180,-604,788,17208.67,29.89,-1.00,-1.0,2458
4650,309650,17104,-528,620,17123.38,29.89,-1.00,-1.0,2377
4653,309653,17052,-636,752,17080.42,29.89,-1.00,-1.0,2464
4655,309655,17092,-580,856,17123.25,29.89,-1.00,-1.0,2370
4658,309658,16996,-616,764,17024.31,29.80,-1.00,-1.0,2423
4661,309661,17060,-584,664,17082.90,29.89,-1.00,-1.0,2367
4666,309666,17056,-592,704,17080.79,29.85,-1.00,-1.0,2431
4668,309668,17072,-568,728,17096.95,29.94,-1.00,-1.0,2367
4671,309671,17100,-524,612,17118.97,29.89,-1.00,-1.0,2365
4674,309674,17096,-616,704,17121.57,29.99,-1.00,-1.0,2434
4677,309677,17060,-624,676,17084.79,29.89,-1.00,-1.0,2370
4679,309679,16972,-616,784,17001.26,29.89,-1.00,-1.0,2407
4682,309682,16968,-596,704,16993.05,29.89,-1.00,-1.0,2369
4685,309685,17072,-656,684,17098.29,29.85,-1.00,-1.0,2421
4688,309688,17024,-580,700,17048.25,29.80,-1.00,-1.0,2370
4692,309692,17112,-608,616,17133.88,29.89,-1.00,-1.0,2427
4695,309695,17116,-564,672,17138.47,29.94,-1.00,-1.0,2416
4698,309698,17088,-500,696,17109.48,29.99,-1.00,-1.0,2428
4701,309701,17044,-476,832,17070.93,29.89,-1.00,-1.0,2375
4703,309703,17120,-592,816,17149.66,29.85,-1.00,-1.0,2370
4706,309706,17136,-604,692,17160.60,29.75,-1.00,-1.0,2423
4709,309709,17024,-728,668,17052.65,29.75,-1.00,-1.0,2375
4712,309712,17048,-508,640,17067.57,29.89,-1.00,-1.0,2425
4714,309714,17028,-628,684,17053.30,29.94,-1.00,-1.0,2372
4719,309719,17056,-580,752,17082.42,29.85,-1.00,-1.0,2430
4722,309722,17036,-544,796,17063.26,29.99,-1.00,-1.0,2371
4725,309725,17008,-704,536,17031.00,29.85,-1.00,-1.0,2435
4727,309727,17124,-620,684,17148.87,29.80,-1.00,-1.0,2366
4730,309730,17048,-716,720,17078.21,29.85,-1.00,-1.0,2421
4733,309733,16892,-576,724,16917.32,29.89,-1.00,-1.0,2357
4735,309735,16968,-616,592,16989.49,29.85,-1.00,-1.0,2366
4738,309738,17084,-540,780,17110.32,29.94,-1.00,-1.0,2420
4741,309741,16996,-536,776,17022.15,29.89,-1.00,-1.0,2370
4746,309746,17004,-640,632,17027.77,29.89,-1.00,-1.0,2429
4749,309749,16984,-532,684,17006.09,29.89,-1.00,-1.0,2370
4752,309752,17008,-540,700,17030.96,29.85,-1.00,-1.0,2426
4755,309755,17064,-640,724,17091.34,29.89,-1.00,-1.0,2369
4757,309757,17068,-664,608,17091.73,29.85,-1.00,-1.0,2420
4760,309760,17024,-672,780,17055.10,29.85,-1.00,-1.0,2370
4763,309763,16976,-604,760,17003.73,29.94,-1.00,-1.0,2419
4766,309766,17012,-620,880,17046.02,29.80,-1.00,-1.0,2370
4768,309768,17156,-580,772,17183.15,29.94,-1.00,-1.0,2353
4773,309773,17096,-636,632,17119.50,29.89,-1.00,-1.0,2429
4776,309776,16932,-608,756,16959.77,29.85,-1.00,-1.0,2374
4779,309779,16872,-504,664,16892.58,29.94,-1.00,-1.0,2426
4782,309782,17104,-600,712,17129.32,29.94,-1.00,-1.0,2370
4784,309784,16956,-628,756,16984.46,29.94,-1.00,-1.0,2406
4787,309787,16992,-588,768,17019.51,29.94,-1.00,-1.0,2370
4790,309790,17012,-544,824,17040.63,29.94,-1.00,-1.0,2422
4793,309793,17028,-724,648,17055.70,30.04,-1.00,-1.0,2370
4795,309795,17068,-520,804,17094.84,29.80,-1.00,-1.0,2370
4800,309800,17088,-600,720,17113.68,29.85,-1.00,-1.0,2430
4803,309803,17008,-552,840,17037.68,29.85,-1.00,-1.0,2370
4806,309806,17052,-572,740,17077.63,29.99,-1.00,-1.0,2426
4809,309809,17032,-600,784,17060.59,29.94,-1.00,-1.0,2370
4811,309811,17012,-636,712,17038.77,29.89,-1.00,-1.0,2419
4814,309814,17064,-500,780,17089.13,29.85,-1.00,-1.0,2369
4817,309817,17192,-660,684,17218.26,29.89,-1.00,-1.0,2419
4820,309820,16988,-544,704,17011.28,29.85,-1.00,-1.0,2369
4825,309825,17116,-600,728,17141.98,29.94,-1.00,-1.0,2430
4827,309827,17148,-640,548,17168.69,29.89,-1.00,-1.0,2359
4830,309830,17052,-468,868,17080.49,29.89,-1.00,-1.0,2365
4833,309833,17088,-624,780,17117.17,29.99,-1.00,-1.0,2432
4835,309835,17136,-624,640,17159.30,29.89,-1.00,-1.0,2371
4838,309838,16972,-536,604,16991.20,29.89,-1.00,-1.0,2432
4841,309841,17084,-560,780,17110.96,29.89,-1.00,-1.0,2370
4844,309844,17052,-580,584,17071.85,29.89,-1.00,-1.0,2429
4846,309846,17056,-672,760,17086.14,29.89,-1.00,-1.0,2375
4851,309851,16960,-628,688,16985.56,29.89,-1.00,-1.0,2429
4854,309854,17156,-672,596,17179.50,29.89,-1.00,-1.0,2371
4857,309857,16992,-568,732,17017.24,29.85,-1.00,-1.0,2440
4860,309860,17088,-616,660,17111.83,29.89,-1.00,-1.0,2377
4862,309862,17056,-544,680,17078.22,29.85,-1.00,-1.0,2369
4865,309865,17044,-568,620,17064.73,29.89,-1.00,-1.0,2419
4868,309868,17032,-592,844,17063.17,29.85,-1.00,-1.0,2372
4871,309871,17036,-628,712,17062.43,29.89,-1.00,-1.0,2425
4874,309874,17080,-528,756,17104.88,29.94,-1.00,-1.0,2376
4879,309879,17068,-648,676,17093.67,30.08,-1.00,-1.0,2459
4881,309881,17116,-628,648,17139.77,29.89,-1.00,-1.0,2365
4884,309884,16976,-560,704,16999.82,29.89,-1.00,-1.0,2422
4887,309887,17096,-568,728,17120.92,29.89,-1.00,-1.0,2367
4890,309890,17012,-592,728,17037.86,29.89,-1.00,-1.0,2428
4892,309892,16980,-644,708,17006.95,29.89,-1.00,-1.0,2366
4895,309895,16996,-584,816,17025.60,29.80,-1.00,-1.0,2373
4898,309898,17060,-568,728,17084.97,29.94,-1.00,-1.0,2424
4901,309901,17148,-648,712,17175.00,29.85,-1.00,-1.0,2371
4905,309905,17072,-552,640,17092.91,29.89,-1.00,-1.0,2442
4908,309908,17056,-668,704,17083.59,29.89,-1.00,-1.0,2366
4911,309911,17008,-628,608,17030.45,29.89,-1.00,-1.0,2421
4914,309914,16992,-680,744,17021.87,29.99,-1.00,-1.0,2370
4916,309916,17072,-672,604,17095.89,29.89,-1.00,-1.0,2420
4919,309919,17016,-632,572,17037.34,29.89,-1.00,-1.0,2370
4922,309922,17060,-596,644,17082.55,29.89,-1.00,-1.0,2421
4925,309925,17056,-592,724,17081.62,29.89,-1.00,-1.0,2371
4928,309928,17040,-620,680,17064.83,29.94,-1.00,-1.0,2367
4932,309932,16992,-608,700,17017.28,29.94,-1.00,-1.0,2453
4935,309935,17052,-652,760,17081.38,29.85,-1.00,-1.0,2375
4938,309938,17112,-536,680,17133.89,29.85,-1.00,-1.0,2409
4940,309940,16988,-544,784,17014.78,30.04,-1.00,-1.0,2370
4943,309943,17124,-584,652,17146.36,29.94,-1.00,-1.0,2429
4946,309946,17012,-620,640,17035.32,29.94,-1.00,-1.0,2378
4949,309949,17024,-552,716,17047.99,29.85,-1.00,-1.0,2408
4952,309952,16996,-684,620,17021.05,29.89,-1.00,-1.0,2370
4957,309957,16960,-524,704,16982.69,29.89,-1.00,-1.0,2442
4959,309959,17072,-604,724,17098.02,29.89,-1.00,-1.0,2373
4962,309962,17008,-532,644,17028.50,29.89,-1.00,-1.0,2366
4965,309965,16964,-632,660,16988.59,29.85,-1.00,-1.0,2427
4967,309967,17120,-496,724,17142.48,29.94,-1.00,-1.0,2369
4970,309970,17136,-676,620,17160.53,29.94,-1.00,-1.0,2428
4973,309973,17112,-628,656,17136.08,29.94,-1.00,-1.0,2370
4976,309976,17124,-624,672,17148.54,29.85,-1.00,-1.0,2427
4979,309979,17008,-544,616,17027.84,29.89,-1.00,-1.0,2370
4984,309984,17108,-644,716,17135.08,29.80,-1.00,-1.0,2441
4986,309986,17036,-644,616,17059.29,29.89,-1.00,-1.0,2366
4989,309989,17016,-672,772,17046.75,29.75,-1.00,-1.0,2366
4992,309992,17064,-536,832,17092.68,29.85,-1.00,-1.0,2428
4994,309994,17104,-624,788,17133.51,29.94,-1.00,-1.0,2369
4997,309997,17028,-604,700,17053.08,29.89,-1.00,-1.0,2429
5000,310000,16972,-672,676,16998.75,29.94,-1.00,-1.0,2370
5003,310003,16964,-612,664,16988.02,29.89,-1.00,-1.0,2425
5006,310006,17168,-616,704,17193.47,29.94,-1.00,-1.0,2378
5011,310011,17036,-676,760,17066.34,29.94,-1.00,-1.0,2449
5013,310013,17068,-520,780,17093.72,29.99,-1.00,-1.0,2366
5016,310016,17036,-672,744,17065.47,30.04,-1.00,-1.0,2421
5019,310019,16984,-540,676,17006.02,29.85,-1.00,-1.0,2371
5021,310021,17012,-688,816,17045.45,29.85,-1.00,-1.0,2372
5024,310024,17024,-536,780,17050.29,29.89,-1.00,-1.0,2430
5027,310027,17060,-636,668,17084.91,29.99,-1.00,-1.0,2377
5030,310030,17056,-644,716,17083.17,29.99,-1.00,-1.0,2421
5033,310033,17096,-608,728,17122.29,29.85,-1.00,-1.0,2378
5038,310038,17068,-660,832,17101.01,29.94,-1.00,-1.0,2441
5041,310041,17080,-624,616,17102.49,29.99,-1.00,-1.0,2367
5043,310043,16956,-652,648,16980.90,29.94,-1.00,-1.0,2421
5046,310046,17064,-624,712,17090.24,29.89,-1.00,-1.0,2374
5049,310049,17096,-536,552,17113.30,29.94,-1.00,-1.0,2420
5052,310052,17076,-680,684,17103.22,29.85,-1.00,-1.0,2371
5054,310054,16984,-552,604,17003.70,30.04,-1.00,-1.0,2370
5057,310057,17088,-536,592,17106.65,29.89,-1.00,-1.0,2434
5060,310060,17120,-604,784,17148.58,29.89,-1.00,-1.0,2378
5065,310065,17068,-516,748,17092.17,29.94,-1.00,-1.0,2444
5067,310067,16992,-648,892,17027.73,29.85,-1.00,-1.0,2354
5070,310070,17008,-624,816,17038.99,29.89,-1.00,-1.0,2423
5073,310073,17036,-624,768,17064.71,29.94,-1.00,-1.0,2373
5076,310076,16976,-532,616,16995.50,29.89,-1.00,-1.0,2430
5078,310078,17048,-672,804,17080.17,29.94,-1.00,-1.0,2357
5081,310081,17092,-620,648,17115.51,29.89,-1.00,-1.0,2422
5084,310084,17084,-576,728,17109.20,29.85,-1.00,-1.0,2371
5087,310087,17020,-528,712,17043.07,29.89,-1.00,-1.0,2372
5092,310092,17044,-520,584,17061.93,29.89,-1.00,-1.0,2444
5094,310094,17048,-572,636,17069.45,29.94,-1.00,-1.0,2354
5097,310097,17052,-672,744,17081.45,29.89,-1.00,-1.0,2420
5100,310100,17048,-616,768,17076.40,29.94,-1.00,-1.0,2369
5103,310103,17104,-612,808,17134.01,29.89,-1.00,-1.0,2430
5105,310105,17080,-656,640,17104.57,29.94,-1.00,-1.0,2369
5108,310108,17120,-520,740,17143.87,29.89,-1.00,-1.0,2422
5111,310111,17096,-548,588,17114.88,29.94,-1.00,-1.0,2373
5118,310118,17088,-520,696,17110.07,29.89,-1.00,-1.0,2455
5120,310120,17088,-648,660,17113.01,29.89,-1.00,-1.0,2368
5123,310123,17120,-676,696,17147.47,29.89,-1.00,-1.0,2365
5126,310126,16992,-488,768,17016.35,29.94,-1.00,-1.0,2418
5129,310129,17088,-604,796,17117.19,29.85,-1.00,-1.0,2371
5131,310131,16984,-560,812,17012.62,29.85,-1.00,-1.0,2420
5134,310134,17144,-724,624,17170.62,29.94,-1.00,-1.0,2370
5137,310137,17016,-636,740,17043.95,29.85,-1.00,-1.0,2420
5140,310140,17056,-696,600,17080.74,29.85,-1.00,-1.0,2370
5144,310144,17080,-544,628,17100.20,29.85,-1.00,-1.0,2445
5147,310147,17080,-640,568,17101.42,29.94,-1.00,-1.0,2370
5150,310150,17036,-576,684,17059.45,29.94,-1.00,-1.0,2420
5153,310153,17044,-640,684,17069.72,29.85,-1.00,-1.0,2369
5155,310155,17024,-644,716,17051.22,29.99,-1.00,-1.0,2369
5158,310158,17020,-652,764,17049.61,29.99,-1.00,-1.0,2436
5161,310161,17188,-564,644,17209.30,29.89,-1.00,-1.0,2364
5164,310164,16988,-612,740,17015.12,29.89,-1.00,-1.0,2426
5166,310166,17096,-644,660,17120.85,29.89,-1.00,-1.0,2371
5171,310171,17012,-548,600,17031.40,29.89,-1.00,-1.0,2439
5174,310174,17044,-612,600,17065.54,29.85,-1.00,-1.0,2370
5177,310177,17076,-708,720,17105.83,29.99,-1.00,-1.0,2422
5179,310179,17060,-532,700,17082.64,29.89,-1.00,-1.0,2367
5182,310182,17040,-664,772,17070.40,29.99,-1.00,-1.0,2372
5185,310185,17008,-572,756,17034.40,29.94,-1.00,-1.0,2409
5187,310187,17084,-612,748,17111.31,29.89,-1.00,-1.0,2368
5190,310190,17036,-672,564,17058.57,29.94,-1.00,-1.0,2428
5193,310193,17072,-696,732,17101.85,29.99,-1.00,-1.0,2377
5198,310198,17036,-648,712,17063.18,29.89,-1.00,-1.0,2439
5201,310201,17096,-624,892,17130.62,29.89,-1.00,-1.0,2373
5203,310203,17120,-556,548,17137.79,29.89,-1.00,-1.0,2419
5206,310206,16912,-556,720,16936.45,29.89,-1.00,-1.0,2370
5209,310209,17032,-692,564,17055.38,29.89,-1.00,-1.0,2419
5212,310212,17060,-696,868,17096.24,29.89,-1.00,-1.0,2377
5214,310214,17008,-648,636,17032.22,29.85,-1.00,-1.0,2374
5217,310217,17092,-580,648,17114.11,29.89,-1.00,-1.0,2419
5220,310220,16976,-600,716,17001.68,29.85,-1.00,-1.0,2371
5225,310225,17000,-556,800,17027.89,29.94,-1.00,-1.0,2448
5227,310227,17004,-608,668,17027.97,29.94,-1.00,-1.0,2366
5230,310230,17044,-600,704,17069.08,29.94,-1.00,-1.0,2427
5233,310233,17044,-596,676,17067.81,29.89,-1.00,-1.0,2376
5236,310236,16996,-580,700,17020.29,29.94,-1.00,-1.0,2408
5238,310238,17068,-596,608,17089.22,29.85,-1.00,-1.0,2370
5241,310241,17032,-500,692,17053.38,29.94,-1.00,-1.0,2429
5244,310244,17036,-592,804,17065.23,29.85,-1.00,-1.0,2377
5247,310247,17072,-544,688,17094.52,29.89,-1.00,-1.0,2366
5252,310252,17104,-564,792,17131.61,29.85,-1.00,-1.0,2442
5254,310254,17104,-724,624,17130.69,29.85,-1.00,-1.0,2373
5257,310257,17148,-552,540,17165.38,29.89,-1.00,-1.0,2419
5260,310260,17044,-580,676,17067.26,29.75,-1.00,-1.0,2359
5263,310263,17088,-416,704,17107.55,29.89,-1.00,-1.0,2420
5265,310265,17088,-620,584,17109.21,29.94,-1.00,-1.0,2371
5268,310268,17052,-584,748,17078.39,29.99,-1.00,-1.0,2419
5271,310271,17076,-616,768,17104.36,29.85,-1.00,-1.0,2357
5276,310276,16980,-480,668,16999.91,29.85,-1.00,-1.0,2448
5278,310278,16960,-616,760,16988.19,29.94,-1.00,-1.0,2366
5281,310281,17244,-668,720,17271.95,29.80,-1.00,-1.0,2366
5284,310284,17068,-592,768,17095.52,29.89,-1.00,-1.0,2419
5287,310287,16968,-500,712,16990.29,29.89,-1.00,-1.0,2369
5289,310289,17000,-520,668,17021.06,29.99,-1.00,-1.0,2419
5292,310292,17120,-636,748,17148.13,29.80,-1.00,-1.0,2370
5295,310295,17068,-632,636,17091.54,29.89,-1.00,-1.0,2419
5298,310298,16936,-616,644,16959.43,29.99,-1.00,-1.0,2369
5303,310303,16996,-588,876,17028.71,29.80,-1.00,-1.0,2446
5305,310305,17032,-532,688,17054.19,29.89,-1.00,-1.0,2374
5308,310308,17044,-604,640,17066.70,29.99,-1.00,-1.0,2419
5311,310311,17080,-556,784,17107.02,29.89,-1.00,-1.0,2370
5313,310313,17076,-568,632,17097.13,29.94,-1.00,-1.0,2366
5316,310316,16996,-664,660,17021.77,29.94,-1.00,-1.0,2421
5319,310319,17052,-540,616,17071.67,29.89,-1.00,-1.0,2369
5322,310322,17060,-564,612,17080.29,29.94,-1.00,-1.0,2422
5324,310324,17044,-580,736,17069.74,29.85,-1.00,-1.0,2368
5329,310329,17052,-648,696,17078.50,29.85,-1.00,-1.0,2443
5332,310332,17036,-644,636,17060.03,30.04,-1.00,-1.0,2370
5335,310335,17032,-552,568,17050.41,29.89,-1.00,-1.0,2427
5337,310337,17096,-556,724,17120.35,29.94,-1.00,-1.0,2369
5340,310340,16996,-556,724,17020.50,29.89,-1.00,-1.0,2432
5343,310343,17076,-672,816,17108.69,29.94,-1.00,-1.0,2374
5346,310346,16960,-616,764,16988.37,29.99,-1.00,-1.0,2367
5348,310348,17112,-544,756,17137.33,29.94,-1.00,-1.0,2419
5351,310351,17068,-632,656,17092.29,29.89,-1.00,-1.0,2369
5356,310356,16960,-616,732,16986.96,29.89,-1.00,-1.0,2448
5358,310358,17104,-556,748,17129.38,29.94,-1.00,-1.0,2365
5361,310361,16880,-628,540,16900.31,30.04,-1.00,-1.0,2453
5364,310364,17048,-604,784,17076.70,29.94,-1.00,-1.0,2376
5367,310367,17012,-652,676,17037.91,29.94,-1.00,-1.0,2422
5370,310370,16936,-536,660,16957.33,30.04,-1.00,-1.0,2367
5372,310372,17132,-708,752,17163.11,29.89,-1.00,-1.0,2376
5375,310375,17092,-652,716,17119.41,29.89,-1.00,-1.0,2423
5378,310378,17068,-632,720,17094.87,29.80,-1.00,-1.0,2375
5383,310383,17072,-616,872,17105.35,29.99,-1.00,-1.0,2443
5386,310386,17020,-620,756,17048.06,29.89,-1.00,-1.0,2375
5389,310389,17008,-664,540,17029.52,29.89,-1.00,-1.0,2437
5391,310391,16988,-596,624,17009.90,29.89,-1.00,-1.0,2384
5394,310394,16888,-644,680,16913.95,29.85,-1.00,-1.0,2420
5397,310397,17028,-576,760,17054.68,29.80,-1.00,-1.0,2358
5400,310400,17016,-592,728,17041.85,29.99,-1.00,-1.0,2429
5402,310402,17036,-616,844,17068.01,29.89,-1.00,-1.0,2380
5405,310405,17076,-604,820,17106.34,29.89,-1.00,-1.0,2368
5410,310410,17128,-664,696,17154.99,29.89,-1.00,-1.0,2441
5413,310413,17044,-600,568,17064.01,29.89,-1.00,-1.0,2370
5416,310416,16980,-564,656,17002.02,29.89,-1.00,-1.0,2439
5418,310418,17084,-584,620,17105.22,29.89,-1.00,-1.0,2373
5421,310421,17096,-660,752,17125.25,29.85,-1.00,-1.0,2426
5424,310424,17024,-572,832,17053.91,29.89,-1.00,-1.0,2360
5427,310427,17024,-592,656,17046.92,29.94,-1.00,-1.0,2429
5429,310429,17060,-564,756,17086.05,29.89,-1.00,-1.0,2374
5434,310434,17076,-644,560,17097.31,29.99,-1.00,-1.0,2431
5437,310437,17072,-632,748,17100.06,29.80,-1.00,-1.0,2362
5440,310440,17088,-640,684,17113.66,29.85,-1.00,-1.0,2367
5442,310442,17044,-580,556,17062.93,29.94,-1.00,-1.0,2427
5445,310445,17044,-588,632,17065.85,29.85,-1.00,-1.0,2376
5448,310448,17156,-568,632,17177.03,29.94,-1.00,-1.0,2419
5451,310451,17036,-624,736,17063.30,29.94,-1.00,-1.0,2369
5453,310453,17052,-564,728,17076.85,29.94,-1.00,-1.0,2419
5456,310456,17012,-472,624,17029.98,29.85,-1.00,-1.0,2369
5461,310461,17060,-508,772,17085.01,29.94,-1.00,-1.0,2427
5464,310464,17104,-604,868,17136.66,29.89,-1.00,-1.0,2368
5467,310467,16996,-640,752,17024.66,29.94,-1.00,-1.0,2429
5469,310469,16984,-580,808,17013.10,29.85,-1.00,-1.0,2373
5472,310472,17056,-616,664,17080.03,29.80,-1.00,-1.0,2375
5475,310475,17028,-564,600,17047.90,29.89,-1.00,-1.0,2426
5477,310477,17172,-528,680,17193.57,29.89,-1.00,-1.0,2367
5480,310480,17068,-532,652,17088.73,29.89,-1.00,-1.0,2425
5483,310483,16992,-664,696,17019.21,29.89,-1.00,-1.0,2369
5488,310488,17088,-632,780,17117.46,29.85,-1.00,-1.0,2438
5491,310491,17080,-612,688,17104.80,29.94,-1.00,-1.0,2381
5494,310494,17068,-596,668,17091.46,29.85,-1.00,-1.0,2428
5497,310497,17044,-620,640,17067.28,29.94,-1.00,-1.0,2378
5499,310499,17056,-516,740,17079.84,29.94,-1.00,-1.0,2419
5502,310502,17108,-568,776,17135.01,29.94,-1.00,-1.0,2372
5505,310505,17080,-580,624,17101.23,29.89,-1.00,-1.0,2373
5507,310507,17128,-524,732,17151.64,29.89,-1.00,-1.0,2419
5510,310510,17048,-560,672,17070.43,29.99,-1.00,-1.0,2373
5515,310515,17088,-604,652,17111.10,29.89,-1.00,-1.0,2427
5518,310518,17020,-508,596,17038.01,29.94,-1.00,-1.0,2376
5521,310521,17028,-628,664,17052.51,29.89,-1.00,-1.0,2429
5523,310523,17036,-540,744,17060.79,29.99,-1.00,-1.0,2371
5526,310526,16860,-572,764,16886.99,29.99,-1.00,-1.0,2421
5529,310529,17128,-568,552,17146.30,29.89,-1.00,-1.0,2369
5532,310532,17044,-568,692,17067.50,29.89,-1.00,-1.0,2426
5534,310534,17072,-628,756,17100.27,29.89,-1.00,-1.0,2372
5537,310537,17012,-536,620,17031.73,29.89,-1.00,-1.0,2365
5542,310542,17108,-524,592,17126.26,29.94,-1.00,-1.0,2427
5545,310545,17064,-536,736,17088.27,29.89,-1.00,-1.0,2374
5547,310547,17056,-668,780,17086.89,29.94,-1.00,-1.0,2427
5550,310550,17040,-640,716,17067.04,29.85,-1.00,-1.0,2379
5553,310553,17184,-576,656,17206.16,29.94,-1.00,-1.0,2434
5556,310556,17060,-612,788,17089.15,29.89,-1.00,-1.0,2379
5559,310559,17052,-624,656,17076.02,29.94,-1.00,-1.0,2429
5561,310561,16976,-592,740,17002.43,29.85,-1.00,-1.0,2373
5564,310564,16984,-620,680,17008.91,29.94,-1.00,-1.0,2366
5569,310569,17132,-560,728,17156.60,29.99,-1.00,-1.0,2427
5572,310572,17112,-548,772,17138.17,29.99,-1.00,-1.0,2367
5574,310574,17000,-664,756,17029.75,29.80,-1.00,-1.0,2427
5577,310577,16996,-680,640,17021.63,29.89,-1.00,-1.0,2369
5580,310580,17092,-656,624,17115.96,29.89,-1.00,-1.0,2421
5583,310583,17120,-684,676,17146.99,29.89,-1.00,-1.0,2369
5585,310585,17100,-552,672,17122.10,29.89,-1.00,-1.0,2425
5588,310588,17024,-616,680,17048.71,29.94,-1.00,-1.0,2376
5593,310593,17104,-520,660,17124.63,29.94,-1.00,-1.0,2429
5596,310596,17020,-676,644,17045.59,29.80,-1.00,-1.0,2366
5599,310599,17060,-560,688,17083.05,29.85,-1.00,-1.0,2371
5601,310601,17088,-564,632,17108.98,29.89,-1.00,-1.0,2429
5604,310604,17028,-632,728,17055.27,29.99,-1.00,-1.0,2377
5607,310607,17172,-592,568,17191.59,29.89,-1.00,-1.0,2425
5610,310610,17104,-632,772,17133.07,29.99,-1.00,-1.0,2371
5612,310612,17052,-708,784,17084.69,29.80,-1.00,-1.0,2420
5615,310615,17004,-548,796,17031.44,29.99,-1.00,-1.0,2380
5620,310620,17064,-564,764,17090.40,30.04,-1.00,-1.0,2427
5623,310623,17124,-688,820,17157.42,29.85,-1.00,-1.0,2366
5626,310626,17096,-624,672,17120.58,29.94,-1.00,-1.0,2434
5628,310628,17004,-652,680,17030.08,29.94,-1.00,-1.0,2374
5631,310631,16908,-520,732,16931.82,29.89,-1.00,-1.0,2368
5634,310634,17064,-724,720,17094.52,29.99,-1.00,-1.0,2419
5637,310637,17016,-672,636,17041.14,29.89,-1.00,-1.0,2370
5639,310639,17080,-592,668,17103.31,29.89,-1.00,-1.0,2419
5642,310642,17028,-632,676,17053.13,29.89,-1.00,-1.0,2377
5647,310647,17048,-660,520,17068.69,29.99,-1.00,-1.0,2436
5650,310650,17048,-540,780,17074.38,29.94,-1.00,-1.0,2365
5653,310653,16996,-644,628,17019.79,29.94,-1.00,-1.0,2446
5656,310656,17132,-656,768,17161.75,29.89,-1.00,-1.0,2369
5658,310658,17056,-576,764,17082.82,30.04,-1.00,-1.0,2423
5661,310661,17120,-636,588,17141.90,29.85,-1.00,-1.0,2368
5664,310664,17020,-652,732,17048.21,29.80,-1.00,-1.0,2378
5667,310667,17036,-624,564,17056.75,29.89,-1.00,-1.0,2436
5669,310669,17016,-632,648,17040.06,29.89,-1.00,-1.0,2374
5674,310674,17028,-652,736,17056.37,29.99,-1.00,-1.0,2442
5677,310677,16976,-552,668,16998.10,29.89,-1.00,-1.0,2370
5680,310680,16940,-608,732,16966.71,29.89,-1.00,-1.0,2419
5682,310682,17116,-544,792,17142.95,29.89,-1.00,-1.0,2366
5685,310685,16960,-508,780,16985.53,29.89,-1.00,-1.0,2431
5688,310688,17000,-532,764,17025.47,29.89,-1.00,-1.0,2374
5691,310691,17028,-544,692,17050.74,29.89,-1.00,-1.0,2411
5693,310693,17128,-588,668,17151.10,29.89,-1.00,-1.0,2367
5696,310696,17056,-632,700,17082.05,29.94,-1.00,-1.0,2367
5701,310701,17052,-632,656,17076.31,29.99,-1.00,-1.0,2440
5704,310704,17144,-676,568,17166.72,29.89,-1.00,-1.0,2377
5707,310707,17024,-652,792,17054.88,29.94,-1.00,-1.0,2428
5710,310710,17036,-592,484,17053.15,29.89,-1.00,-1.0,2375
5712,310712,16996,-620,660,17020.11,29.94,-1.00,-1.0,2423
5715,310715,17028,-620,680,17052.85,29.99,-1.00,-1.0,2375
5718,310718,17004,-568,660,17026.28,29.85,-1.00,-1.0,2420
5721,310721,17000,-596,728,17026.02,29.99,-1.00,-1.0,2371
5725,310725,17084,-536,644,17104.53,29.99,-1.00,-1.0,2433
5728,310728,17032,-676,660,17058.18,29.89,-1.00,-1.0,2365
5731,310731,17056,-640,736,17083.87,29.89,-1.00,-1.0,2366
5734,310734,17048,-612,796,17077.54,29.94,-1.00,-1.0,2430
5736,310736,17140,-716,712,17169.72,29.85,-1.00,-1.0,2370
5739,310739,17060,-600,744,17086.75,29.94,-1.00,-1.0,2421
5742,310742,17064,-576,712,17088.56,29.85,-1.00,-1.0,2375
5745,310745,16964,-544,744,16989.02,29.94,-1.00,-1.0,2422
5747,310747,17028,-632,668,17052.81,29.85,-1.00,-1.0,2367
5752,310752,17040,-596,580,17060.28,29.99,-1.00,-1.0,2433
5755,310755,17036,-608,668,17059.93,29.94,-1.00,-1.0,2367
5758,310758,17020,-468,740,17042.51,29.89,-1.00,-1.0,2371
5760,310760,17140,-664,652,17165.24,29.94,-1.00,-1.0,2436
5763,310763,17020,-680,608,17044.43,29.94,-1.00,-1.0,2378
5766,310766,17068,-592,712,17093.10,29.85,-1.00,-1.0,2424
5769,310769,17016,-556,688,17038.98,29.89,-1.00,-1.0,2375
5771,310771,17012,-624,812,17042.79,29.80,-1.00,-1.0,2420
5774,310774,17064,-576,736,17089.57,29.99,-1.00,-1.0,2370
5779,310779,17056,-564,816,17084.82,29.94,-1.00,-1.0,2432
5782,310782,16996,-572,608,17016.49,29.94,-1.00,-1.0,2354
5785,310785,17064,-580,868,17095.90,29.85,-1.00,-1.0,2430
5787,310787,17044,-536,728,17067.96,29.85,-1.00,-1.0,2374
5790,310790,17020,-608,692,17044.91,29.80,-1.00,-1.0,2366
5793,310793,16984,-692,692,17012.17,29.89,-1.00,-1.0,2431
5795,310795,17020,-656,676,17046.05,29.99,-1.00,-1.0,2369
5798,310798,17120,-584,876,17152.34,29.99,-1.00,-1.0,2419
5801,310801,17088,-572,668,17110.62,29.89,-1.00,-1.0,2370
5806,310806,17044,-552,664,17065.86,29.89,-1.00,-1.0,2432
5809,310809,17056,-716,664,17083.93,29.89,-1.00,-1.0,2353
5812,310812,17104,-608,668,17127.83,29.89,-1.00,-1.0,2429
5815,310815,17036,-604,664,17059.63,29.89,-1.00,-1.0,2371
5817,310817,17096,-556,900,17128.70,29.89,-1.00,-1.0,2423
5820,310820,17072,-576,708,17096.38,29.89,-1.00,-1.0,2375
5823,310823,17076,-572,668,17098.63,29.94,-1.00,-1.0,2362
5826,310826,16992,-552,608,17011.83,29.94,-1.00,-1.0,2432
5828,310828,17020,-552,592,17039.24,29.99,-1.00,-1.0,2369
5833,310833,16948,-612,696,16973.32,29.80,-1.00,-1.0,2432
5836,310836,17104,-680,600,17128.02,29.89,-1.00,-1.0,2366
5839,310839,17028,-644,740,17056.23,29.85,-1.00,-1.0,2429
5842,310842,17040,-588,760,17067.07,29.80,-1.00,-1.0,2377
5844,310844,17000,-568,720,17024.72,29.89,-1.00,-1.0,2421
5847,310847,17060,-656,748,17088.99,29.89,-1.00,-1.0,2370
5850,310850,17012,-668,712,17039.99,29.94,-1.00,-1.0,2420
5853,310853,16992,-496,736,17015.16,29.99,-1.00,-1.0,2377
5856,310856,17040,-664,732,17068.63,29.94,-1.00,-1.0,2371
5860,310860,16984,-496,748,17007.70,29.89,-1.00,-1.0,2432
5863,310863,17080,-584,688,17103.82,29.89,-1.00,-1.0,2372
5866,310866,17108,-612,772,17136.34,29.85,-1.00,-1.0,2445
5869,310869,17040,-540,832,17068.84,29.94,-1.00,-1.0,2377
5872,310872,17116,-604,748,17142.98,29.85,-1.00,-1.0,2431
5874,310874,17124,-576,688,17147.49,29.94,-1.00,-1.0,2376
5877,310877,17112,-600,700,17136.82,30.04,-1.00,-1.0,2414
5880,310880,17124,-588,660,17146.80,29.94,-1.00,-1.0,2376
5885,310885,17052,-604,748,17079.08,29.94,-1.00,-1.0,2442
5887,310887,17068,-648,788,17098.46,29.89,-1.00,-1.0,2366
5890,310890,17032,-540,636,17052.42,29.85,-1.00,-1.0,2374
5893,310893,17076,-608,572,17096.39,29.89,-1.00,-1.0,2428
5896,310896,17048,-604,552,17067.62,29.89,-1.00,-1.0,2370
5898,310898,17092,-596,584,17112.36,29.94,-1.00,-1.0,2453
5901,310901,17120,-568,672,17142.60,29.85,-1.00,-1.0,2370
5904,310904,17068,-668,704,17095.57,29.89,-1.00,-1.0,2437
5907,310907,16984,-572,728,17009.22,29.94,-1.00,-1.0,2375
5912,310912,17012,-656,688,17038.54,29.85,-1.00,-1.0,2432
5915,310915,17084,-668,676,17110.41,29.80,-1.00,-1.0,2367
5917,310917,17064,-480,600,17081.29,29.89,-1.00,-1.0,2428
5920,310920,16968,-556,916,17001.80,29.89,-1.00,-1.0,2356
5923,310923,16980,-624,764,17008.63,29.85,-1.00,-1.0,2374
5926,310926,17108,-540,704,17130.99,29.99,-1.00,-1.0,2433
5928,310928,17020,-548,748,17045.24,29.85,-1.00,-1.0,2378
5931,310931,17020,-544,672,17041.95,29.99,-1.00,-1.0,2420
5934,310934,17096,-604,744,17122.84,29.99,-1.00,-1.0,2372
5939,310939,17024,-636,768,17053.18,29.94,-1.00,-1.0,2426
5941,310941,17048,-576,632,17069.43,29.89,-1.00,-1.0,2366
5944,310944,17048,-524,712,17070.91,29.85,-1.00,-1.0,2431
5947,310947,17008,-616,736,17035.06,29.94,-1.00,-1.0,2369
5950,310950,17080,-576,748,17106.07,29.89,-1.00,-1.0,2368
5952,310952,17096,-580,604,17116.50,29.89,-1.00,-1.0,2408
5955,310955,17000,-604,760,17027.70,29.99,-1.00,-1.0,2388
5958,310958,17080,-632,524,17099.72,29.89,-1.00,-1.0,2421
5961,310961,17000,-604,824,17030.67,29.89,-1.00,-1.0,2369
5967,310967,17036,-488,816,17062.51,29.94,-1.00,-1.0,2431
5970,310970,17100,-544,748,17124.99,29.85,-1.00,-1.0,2366
5973,310973,17056,-628,708,17082.24,30.04,-1.00,-1.0,2428
5976,310976,16988,-600,564,17007.95,29.85,-1.00,-1.0,2369
5978,310978,17040,-604,652,17063.16,29.85,-1.00,-1.0,2419
5981,310981,17096,-632,748,17124.02,29.85,-1.00,-1.0,2370
5984,310984,16984,-672,680,17010.89,29.89,-1.00,-1.0,2369
5987,310987,17108,-524,732,17131.67,29.99,-1.00,-1.0,2430
5989,310989,17036,-660,668,17061.86,29.80,-1.00,-1.0,2376
5994,310994,17060,-656,704,17087.12,29.99,-1.00,-1.0,2446
5997,310997,17088,-636,704,17114.32,29.80,-1.00,-1.0,2371
6000,311000,16952,-536,812,16979.90,29.89,-1.00,-1.0,2436
6002,311002,17020,-624,744,17047.68,29.89,-1.00,-1.0,2372
6005,311005,17068,-588,520,17086.04,29.89,-1.00,-1.0,2428
6008,311008,17068,-580,668,17090.91,29.80,-1.00,-1.0,2375
6011,311011,17108,-556,600,17127.54,29.89,-1.00,-1.0,2428
6013,311013,17012,-644,576,17033.93,29.89,-1.00,-1.0,2373
6016,311016,17032,-644,772,17061.64,30.04,-1.00,-1.0,2366
6021,311021,16980,-712,788,17013.18,29.99,-1.00,-1.0,2433
6024,311024,17116,-568,628,17136.93,29.99,-1.00,-1.0,2373
6026,311026,17048,-552,624,17068.34,29.80,-1.00,-1.0,2415
6029,311029,17040,-660,664,17065.70,29.89,-1.00,-1.0,2374
6032,311032,17092,-584,696,17116.13,29.94,-1.00,-1.0,2422
6035,311035,17048,-660,684,17074.48,29.89,-1.00,-1.0,2370
6037,311037,17156,-672,600,17179.64,29.89,-1.00,-1.0,2407
6040,311040,17060,-612,816,17090.46,29.89,-1.00,-1.0,2382
6045,311045,16984,-648,664,17009.32,29.89,-1.00,-1.0,2431
6048,311048,16964,-608,768,16992.26,29.99,-1.00,-1.0,2374
6050,311050,16984,-552,696,17007.21,29.89,-1.00,-1.0,2369
6053,311053,17028,-576,844,17058.63,29.94,-1.00,-1.0,2427
6056,311056,17080,-596,852,17111.62,29.85,-1.00,-1.0,2370
6059,311059,17108,-560,564,17126.45,29.94,-1.00,-1.0,2417
6061,311061,16960,-616,700,16985.61,29.89,-1.00,-1.0,2373
6064,311064,17044,-688,664,17070.80,29.94,-1.00,-1.0,2416
6067,311067,17104,-472,636,17122.33,29.94,-1.00,-1.0,2373
6072,311072,17060,-556,576,17078.77,29.89,-1.00,-1.0,2439
6074,311074,17088,-572,608,17108.38,29.89,-1.00,-1.0,2362
6077,311077,17060,-676,800,17092.12,29.89,-1.00,-1.0,2437
6080,311080,17132,-620,776,17160.77,29.99,-1.00,-1.0,2372
6083,311083,17072,-640,652,17096.43,29.94,-1.00,-1.0,2366
6085,311085,16988,-628,780,17017.49,29.99,-1.00,-1.0,2419
6088,311088,17040,-592,712,17065.14,29.94,-1.00,-1.0,2369
6091,311091,17132,-600,592,17152.72,29.99,-1.00,-1.0,2418
6094,311094,16972,-548,724,16996.27,29.85,-1.00,-1.0,2369
6099,311099,17088,-632,684,17113.36,30.04,-1.00,-1.0,2436
6101,311101,17140,-700,692,17168.24,29.99,-1.00,-1.0,2375
6104,311104,17140,-640,772,17169.31,29.94,-1.00,-1.0,2427
6107,311107,17052,-592,800,17081.02,29.85,-1.00,-1.0,2373
6110,311110,17064,-688,784,17095.85,29.94,-1.00,-1.0,2421
6112,311112,17020,-616,728,17046.70,29.94,-1.00,-1.0,2373
6115,311115,17088,-568,620,17108.68,29.89,-1.00,-1.0,2369
6118,311118,17080,-576,736,17105.55,29.89,-1.00,-1.0,2429
6120,311120,17052,-648,716,17079.32,29.80,-1.00,-1.0,2368
6125,311125,16988,-556,712,17012.00,29.89,-1.00,-1.0,2431
6128,311128,16972,-688,816,17005.53,29.94,-1.00,-1.0,2366
6131,311131,16972,-572,832,17002.01,29.89,-1.00,-1.0,2427
6134,311134,17020,-520,628,17039.52,29.85,-1.00,-1.0,2369
6136,311136,17056,-500,776,17080.96,29.89,-1.00,-1.0,2419
6139,311139,16988,-516,840,17016.58,29.89,-1.00,-1.0,2369
6142,311142,17068,-604,728,17094.19,29.94,-1.00,-1.0,2375
6145,311145,17164,-616,628,17186.53,29.94,-1.00,-1.0,2432
6147,311147,17080,-584,788,17108.14,29.89,-1.00,-1.0,2375
6152,311152,17104,-500,700,17125.62,29.89,-1.00,-1.0,2432
6155,311155,17008,-580,732,17033.62,29.89,-1.00,-1.0,2366
6158,311158,17004,-624,696,17029.67,29.85,-1.00,-1.0,2435
6160,311160,17060,-576,724,17085.07,29.89,-1.00,-1.0,2355
6163,311163,17056,-680,588,17079.67,29.99,-1.00,-1.0,2420
6166,311166,17092,-584,576,17111.67,29.89,-1.00,-1.0,2370
6169,311169,16892,-600,788,16921.01,29.94,-1.00,-1.0,2429
6171,311171,17044,-628,820,17075.27,29.89,-1.00,-1.0,2368
6174,311174,17120,-680,608,17144.28,29.94,-1.00,-1.0,2380
6179,311179,17052,-660,604,17075.45,29.99,-1.00,-1.0,2432
6182,311182,17008,-532,656,17028.96,29.85,-1.00,-1.0,2365
6184,311184,16972,-568,712,16996.42,29.89,-1.00,-1.0,2429
6187,311187,16980,-520,616,16999.12,29.94,-1.00,-1.0,2356
6190,311190,17036,-532,708,17059.00,29.94,-1.00,-1.0,2451
6193,311193,17040,-660,624,17064.19,29.94,-1.00,-1.0,2377
6196,311196,17072,-704,800,17105.23,29.85,-1.00,-1.0,2441
6198,311198,17052,-580,648,17074.16,30.04,-1.00,-1.0,2373
6203,311203,17072,-596,808,17101.50,29.99,-1.00,-1.0,2435
6206,311206,17056,-620,716,17082.28,29.80,-1.00,-1.0,2371
6208,311208,16944,-556,724,16968.57,29.94,-1.00,-1.0,2369
6211,311211,17092,-604,896,17126.12,29.89,-1.00,-1.0,2423
6214,311214,17056,-496,788,17081.40,29.94,-1.00,-1.0,2378
6217,311217,17108,-604,768,17135.88,29.89,-1.00,-1.0,2430
6219,311219,16996,-520,768,17021.29,29.94,-1.00,-1.0,2379
6222,311222,17080,-636,608,17102.65,29.89,-1.00,-1.0,2420
6225,311225,17036,-496,808,17062.36,29.89,-1.00,-1.0,2369
