timestamp_ms,global_ms,accel_x,accel_y,accel_z,accel_mag,temp_c,voltage,soc,loop_us
2,305002,17024,-620,556,17044.36,31.35,-1.00,-1.0,2501
8,305008,17132,-632,672,17156.82,31.35,-1.00,-1.0,2451
11,305011,17072,-484,716,17093.86,31.40,-1.00,-1.0,2371
14,305014,17160,-748,660,17188.97,31.45,-1.00,-1.0,2368
17,305017,17000,-640,728,17027.61,31.49,-1.00,-1.0,2421
19,305019,17184,-616,616,17206.07,31.35,-1.00,-1.0,2367
22,305022,17080,-648,584,17102.26,31.40,-1.00,-1.0,2420
25,305025,17044,-680,680,17071.11,31.35,-1.00,-1.0,2371
28,305028,17092,-532,772,17117.70,31.49,-1.00,-1.0,2421
30,305030,17008,-556,668,17030.19,31.45,-1.00,-1.0,2371
35,305035,17020,-608,680,17044.43,31.26,-1.00,-1.0,2442
38,305038,17036,-560,612,17056.19,31.40,-1.00,-1.0,2364
41,305041,16944,-648,624,16967.86,31.45,-1.00,-1.0,2371
43,305043,17084,-668,660,17109.79,31.40,-1.00,-1.0,2407
46,305046,17056,-636,596,17078.26,31.35,-1.00,-1.0,2387
49,305049,17108,-592,748,17134.57,31.31,-1.00,-1.0,2420
52,305052,17032,-668,664,17058.02,31.35,-1.00,-1.0,2375
54,305054,17092,-520,636,17111.73,31.40,-1.00,-1.0,2421
57,305057,17028,-660,684,17054.51,31.45,-1.00,-1.0,2387
60,305060,17080,-568,668,17102.49,31.40,-1.00,-1.0,2366
65,305065,17016,-692,736,17045.96,31.40,-1.00,-1.0,2438
67,305067,17076,-604,620,17097.92,31.40,-1.00,-1.0,2375
70,305070,17004,-644,780,17034.06,31.40,-1.00,-1.0,2418
73,305073,17088,-604,704,17113.16,31.49,-1.00,-1.0,2374
76,305076,17088,-644,752,17116.66,31.40,-1.00,-1.0,2419
78,305078,17052,-668,660,17077.84,31.31,-1.00,-1.0,2371
81,305081,17000,-608,652,17023.36,31.31,-1.00,-1.0,2418
84,305084,17028,-676,536,17049.84,31.40,-1.00,-1.0,2374
86,305086,17040,-660,772,17070.24,31.35,-1.00,-1.0,2354
91,305091,17072,-604,568,17092.12,31.40,-1.00,-1.0,2439
94,305094,17148,-604,660,17171.32,31.40,-1.00,-1.0,2368
97,305097,17104,-632,768,17132.89,31.35,-1.00,-1.0,2420
100,305100,17092,-624,676,17116.74,31.31,-1.00,-1.0,2372
102,305102,17088,-680,576,17111.22,31.45,-1.00,-1.0,2418
105,305105,17104,-616,652,17127.50,31.40,-1.00,-1.0,2372
108,305108,17112,-664,644,17136.98,31.26,-1.00,-1.0,2369
111,305111,17020,-708,780,17052.57,31.35,-1.00,-1.0,2422
113,305113,17040,-564,660,17062.10,31.35,-1.00,-1.0,2375
118,305118,17184,-632,732,17211.19,31.35,-1.00,-1.0,2438
121,305121,17060,-548,764,17085.89,31.35,-1.00,-1.0,2369
124,305124,17076,-660,784,17106.72,31.35,-1.00,-1.0,2420
126,305126,17096,-596,700,17120.70,31.35,-1.00,-1.0,2371
129,305129,17072,-640,792,17102.34,31.45,-1.00,-1.0,2419
132,305132,17108,-668,720,17136.17,31.35,-1.00,-1.0,2372
134,305134,17040,-720,612,17066.18,31.31,-1.00,-1.0,2371
137,305137,17128,-628,636,17151.30,31.40,-1.00,-1.0,2425
140,305140,16984,-592,580,17004.21,31.31,-1.00,-1.0,2375
145,305145,17012,-632,668,17036.84,31.40,-1.00,-1.0,2449
148,305148,17184,-620,672,17208.31,31.40,-1.00,-1.0,2371
151,305151,17132,-620,668,17156.22,31.40,-1.00,-1.0,2424
153,305153,17048,-580,600,17068.41,31.40,-1.00,-1.0,2378
156,305156,17036,-592,672,17059.52,31.45,-1.00,-1.0,2418
159,305159,17116,-596,644,17138.48,31.40,-1.00,-1.0,2375
162,305162,17104,-588,676,17127.45,31.40,-1.00,-1.0,2420
164,305164,17084,-716,720,17114.15,31.31,-1.00,-1.0,2376
167,305167,16968,-544,624,16988.18,31.40,-1.00,-1.0,2366
172,305172,17128,-576,740,17153.65,31.40,-1.00,-1.0,2433
175,305175,17068,-636,660,17092.59,31.49,-1.00,-1.0,2376
178,305178,17144,-556,888,17175.98,31.40,-1.00,-1.0,2427
180,305180,17004,-680,704,17032.15,31.31,-1.00,-1.0,2379
183,305183,17116,-660,640,17140.67,31.45,-1.00,-1.0,2418
186,305186,17024,-592,600,17044.85,31.40,-1.00,-1.0,2361
189,305189,17000,-676,676,17026.86,31.40,-1.00,-1.0,2425
191,305191,17044,-584,704,17068.53,31.40,-1.00,-1.0,2378
194,305194,17036,-640,624,17059.43,31.35,-1.00,-1.0,2366
199,305199,17096,-740,844,17132.81,31.35,-1.00,-1.0,2446
202,305202,17060,-628,712,17086.40,31.31,-1.00,-1.0,2366
205,305205,17088,-568,676,17110.80,31.40,-1.00,-1.0,2420
207,305207,17072,-636,704,17098.34,31.40,-1.00,-1.0,2376
210,305210,16956,-672,696,16983.58,31.45,-1.00,-1.0,2419
213,305213,17028,-620,676,17052.69,31.40,-1.00,-1.0,2368
216,305216,17060,-668,748,17089.45,31.35,-1.00,-1.0,2420
218,305218,17032,-596,708,17057.12,31.31,-1.00,-1.0,2372
221,305221,17056,-664,684,17082.62,31.40,-1.00,-1.0,2429
226,305226,17124,-640,704,17150.41,31.45,-1.00,-1.0,2438
229,305229,17136,-532,660,17156.96,31.35,-1.00,-1.0,2366
232,305232,17008,-568,624,17028.92,31.35,-1.00,-1.0,2418
234,305234,17060,-656,732,17088.29,31.35,-1.00,-1.0,2351
237,305237,17048,-620,704,17073.79,31.45,-1.00,-1.0,2417
240,305240,17084,-532,712,17107.10,31.45,-1.00,-1.0,2371
243,305243,17100,-640,824,17131.80,31.35,-1.00,-1.0,2422
245,305245,17056,-676,696,17083.57,31.54,-1.00,-1.0,2372
248,305248,17156,-616,692,17181.00,31.40,-1.00,-1.0,2366
253,305253,17028,-656,836,17061.12,31.35,-1.00,-1.0,2440
256,305256,17016,-512,892,17047.05,31.40,-1.00,-1.0,2419
259,305259,17056,-628,624,17078.96,31.40,-1.00,-1.0,2438
261,305261,17032,-640,624,17055.44,31.35,-1.00,-1.0,2381
264,305264,17104,-560,820,17132.80,31.26,-1.00,-1.0,2424
267,305267,17048,-572,476,17064.23,31.35,-1.00,-1.0,2377
270,305270,17024,-748,672,17053.67,31.45,-1.00,-1.0,2416
272,305272,17116,-592,656,17138.79,31.35,-1.00,-1.0,2379
275,305275,17052,-656,724,17079.96,31.40,-1.00,-1.0,2367
280,305280,17028,-580,724,17053.25,31.40,-1.00,-1.0,2423
283,305283,17092,-608,628,17114.34,31.35,-1.00,-1.0,2370
286,305286,17036,-596,548,17055.23,31.49,-1.00,-1.0,2435
288,305288,16956,-592,640,16978.40,31.40,-1.00,-1.0,2374
291,305291,17048,-612,596,17069.39,31.40,-1.00,-1.0,2421
294,305294,17176,-624,784,17205.20,31.40,-1.00,-1.0,2369
297,305297,17012,-660,580,17034.67,31.40,-1.00,-1.0,2427
299,305299,16980,-556,568,16998.59,31.49,-1.00,-1.0,2368
302,305302,17080,-652,576,17102.14,31.40,-1.00,-1.0,2368
307,305307,16996,-640,704,17022.61,31.40,-1.00,-1.0,2422
310,305310,16984,-624,692,17009.54,31.40,-1.00,-1.0,2369
313,305313,17112,-556,672,17134.21,31.40,-1.00,-1.0,2435
315,305315,17096,-736,524,17119.86,31.40,-1.00,-1.0,2368
318,305318,17156,-588,816,17185.46,31.35,-1.00,-1.0,2432
321,305321,17100,-680,560,17122.68,31.40,-1.00,-1.0,2369
324,305324,17056,-648,524,17076.35,31.35,-1.00,-1.0,2426
326,305326,17060,-520,784,17085.92,31.40,-1.00,-1.0,2369
329,305329,16972,-648,772,17001.90,31.45,-1.00,-1.0,2367
334,305334,17028,-644,688,17054.06,31.35,-1.00,-1.0,2426
337,305337,17056,-552,580,17074.78,31.40,-1.00,-1.0,2370
340,305340,17072,-592,660,17095.01,31.35,-1.00,-1.0,2435
342,305342,17060,-656,684,17086.30,31.49,-1.00,-1.0,2375
345,305345,17140,-552,540,17157.39,31.35,-1.00,-1.0,2429
348,305348,17032,-620,728,17058.82,31.35,-1.00,-1.0,2369
351,305351,17060,-612,764,17088.06,31.35,-1.00,-1.0,2423
353,305353,16956,-544,780,16982.65,31.40,-1.00,-1.0,2369
356,305356,17096,-644,728,17123.61,31.35,-1.00,-1.0,2375
363,305363,17072,-696,716,17101.18,31.40,-1.00,-1.0,2422
366,305366,16936,-564,624,16956.87,31.40,-1.00,-1.0,2370
369,305369,17092,-512,712,17114.48,31.40,-1.00,-1.0,2435
371,305371,17028,-728,588,17053.70,31.40,-1.00,-1.0,2368
374,305374,16948,-652,712,16975.47,31.35,-1.00,-1.0,2428
377,305377,17048,-724,760,17080.28,31.40,-1.00,-1.0,2370
380,305380,16984,-672,608,17008.16,31.26,-1.00,-1.0,2427
382,305382,17068,-620,636,17091.10,31.49,-1.00,-1.0,2368
385,305385,17100,-568,576,17119.12,31.35,-1.00,-1.0,2377
390,305390,17076,-616,704,17101.60,31.35,-1.00,-1.0,2422
393,305393,17168,-608,632,17190.38,31.45,-1.00,-1.0,2378
396,305396,17020,-592,796,17048.88,31.35,-1.00,-1.0,2429
398,305398,16972,-660,736,17000.77,31.45,-1.00,-1.0,2372
401,305401,17104,-652,652,17128.84,31.31,-1.00,-1.0,2441
404,305404,16964,-556,532,16981.45,31.35,-1.00,-1.0,2377
407,305407,17028,-544,624,17048.11,31.49,-1.00,-1.0,2432
409,305409,17088,-580,632,17109.52,31.45,-1.00,-1.0,2370
412,305412,17124,-608,784,17152.72,31.40,-1.00,-1.0,2366
417,305417,17124,-668,700,17151.31,31.31,-1.00,-1.0,2424
420,305420,17080,-548,484,17095.64,31.40,-1.00,-1.0,2380
422,305422,17084,-580,764,17110.91,31.40,-1.00,-1.0,2428
425,305425,16976,-688,592,17000.25,31.49,-1.00,-1.0,2363
428,305428,17040,-660,744,17069.00,31.40,-1.00,-1.0,2419
431,305431,17124,-664,692,17150.83,31.40,-1.00,-1.0,2371
433,305433,17076,-576,768,17102.96,31.31,-1.00,-1.0,2418
436,305436,17040,-496,644,17059.38,31.31,-1.00,-1.0,2377
439,305439,16984,-588,676,17007.62,31.45,-1.00,-1.0,2366
443,305443,17148,-652,724,17175.66,31.35,-1.00,-1.0,2423
446,305446,17028,-560,668,17050.30,31.45,-1.00,-1.0,2370
449,305449,17060,-680,612,17084.51,31.31,-1.00,-1.0,2434
452,305452,17056,-724,704,17085.87,31.45,-1.00,-1.0,2378
455,305455,17124,-616,624,17146.43,31.31,-1.00,-1.0,2428
457,305457,17036,-728,600,17062.10,31.35,-1.00,-1.0,2373
460,305460,17036,-580,684,17059.59,31.40,-1.00,-1.0,2434
463,305463,17092,-636,684,17117.50,31.35,-1.00,-1.0,2378
465,305465,17096,-588,632,17117.78,31.40,-1.00,-1.0,2369
470,305470,16984,-568,548,17002.33,31.35,-1.00,-1.0,2421
473,305473,17056,-608,612,17077.80,31.35,-1.00,-1.0,2371
476,305476,17120,-660,748,17149.04,31.45,-1.00,-1.0,2429
478,305478,17084,-628,688,17109.38,31.45,-1.00,-1.0,2374
481,305481,16996,-656,656,17021.30,31.35,-1.00,-1.0,2421
484,305484,17048,-604,604,17069.39,31.45,-1.00,-1.0,2369
487,305487,17044,-536,704,17066.95,31.35,-1.00,-1.0,2422
489,305489,16976,-664,624,17000.44,31.35,-1.00,-1.0,2368
492,305492,17128,-568,804,17156.27,31.40,-1.00,-1.0,2379
497,305497,16992,-644,792,17022.63,31.40,-1.00,-1.0,2422
500,305500,16988,-700,676,17015.85,31.45,-1.00,-1.0,2378
502,305502,17072,-620,656,17095.85,31.40,-1.00,-1.0,2426
505,305505,17012,-656,692,17038.70,31.35,-1.00,-1.0,2378
508,305508,17072,-596,640,17094.38,31.40,-1.00,-1.0,2435
511,305511,17060,-676,888,17096.46,31.40,-1.00,-1.0,2364
514,305514,17056,-612,672,17080.20,31.40,-1.00,-1.0,2423
516,305516,17060,-596,572,17079.99,31.40,-1.00,-1.0,2370
519,305519,17084,-616,592,17105.35,31.31,-1.00,-1.0,2366
524,305524,17096,-592,692,17120.24,31.31,-1.00,-1.0,2429
526,305526,17068,-668,580,17090.91,31.40,-1.00,-1.0,2370
529,305529,17104,-532,744,17128.44,31.40,-1.00,-1.0,2436
532,305532,17100,-604,648,17122.93,31.40,-1.00,-1.0,2383
535,305535,16980,-672,684,17007.05,31.26,-1.00,-1.0,2420
537,305537,17028,-668,644,17053.26,31.40,-1.00,-1.0,2372
540,305540,17080,-596,516,17098.18,31.40,-1.00,-1.0,2427
543,305543,17028,-628,700,17053.95,31.40,-1.00,-1.0,2384
548,305548,16988,-600,592,17008.90,31.40,-1.00,-1.0,2422
551,305551,17052,-628,740,17079.60,31.31,-1.00,-1.0,2383
553,305553,17148,-632,660,17172.33,31.40,-1.00,-1.0,2376
556,305556,17060,-668,616,17084.18,31.45,-1.00,-1.0,2427
559,305559,17044,-592,576,17064.00,31.45,-1.00,-1.0,2378
562,305562,17168,-576,748,17193.94,31.35,-1.00,-1.0,2421
564,305564,17012,-624,728,17039.00,31.35,-1.00,-1.0,2368
567,305567,16972,-588,704,16996.77,31.35,-1.00,-1.0,2420
570,305570,17032,-572,660,17054.38,31.45,-1.00,-1.0,2369
575,305575,17068,-680,736,17097.39,31.35,-1.00,-1.0,2425
577,305577,17004,-580,672,17027.15,31.40,-1.00,-1.0,2374
580,305580,17072,-668,648,17097.35,31.45,-1.00,-1.0,2365
583,305583,17084,-660,688,17110.58,31.40,-1.00,-1.0,2426
586,305586,17124,-692,716,17152.93,31.35,-1.00,-1.0,2369
588,305588,16984,-604,768,17012.08,31.40,-1.00,-1.0,2425
591,305591,16964,-616,756,16992.01,31.45,-1.00,-1.0,2369
594,305594,17080,-692,608,17104.82,31.40,-1.00,-1.0,2419
597,305597,17064,-668,648,17089.36,31.45,-1.00,-1.0,2370
602,305602,17004,-728,688,17033.48,31.45,-1.00,-1.0,2425
604,305604,17056,-592,564,17075.59,31.40,-1.00,-1.0,2378
607,305607,17108,-648,644,17132.38,31.40,-1.00,-1.0,2365
610,305610,17116,-584,772,17143.35,31.35,-1.00,-1.0,2464
613,305613,17120,-596,640,17142.32,31.45,-1.00,-1.0,2368
615,305615,17024,-616,740,17051.21,31.40,-1.00,-1.0,2423
618,305618,17140,-656,832,17172.71,31.26,-1.00,-1.0,2367
621,305621,17120,-580,728,17145.29,31.31,-1.00,-1.0,2411
624,305624,17092,-608,684,17116.48,31.35,-1.00,-1.0,2368
629,305629,17100,-504,784,17125.38,31.45,-1.00,-1.0,2434
631,305631,17016,-580,756,17042.66,31.31,-1.00,-1.0,2368
634,305634,17000,-692,672,17027.34,31.35,-1.00,-1.0,2368
637,305637,17052,-652,640,17076.46,31.40,-1.00,-1.0,2443
639,305639,16972,-596,656,16995.13,31.40,-1.00,-1.0,2366
642,305642,16960,-596,704,16985.06,31.49,-1.00,-1.0,2422
645,305645,17032,-584,816,17061.53,31.40,-1.00,-1.0,2370
648,305648,17068,-636,564,17089.15,31.40,-1.00,-1.0,2427
651,305651,17060,-624,788,17089.59,31.35,-1.00,-1.0,2371
655,305655,17076,-692,512,17097.68,31.40,-1.00,-1.0,2428
658,305658,16992,-624,712,17018.35,31.31,-1.00,-1.0,2366
661,305661,17008,-652,616,17031.64,31.31,-1.00,-1.0,2373
664,305664,17012,-756,632,17040.51,31.45,-1.00,-1.0,2442
666,305666,17028,-524,652,17048.53,31.40,-1.00,-1.0,2371
669,305669,17016,-712,652,17043.37,31.45,-1.00,-1.0,2428
672,305672,17028,-680,608,17052.41,31.35,-1.00,-1.0,2376
675,305675,17052,-620,572,17072.85,31.31,-1.00,-1.0,2421
678,305678,17040,-648,704,17066.84,31.31,-1.00,-1.0,2368
682,305682,17076,-664,664,17101.80,31.35,-1.00,-1.0,2440
685,305685,16948,-680,660,16974.47,31.26,-1.00,-1.0,2367
688,305688,17044,-652,748,17072.86,31.31,-1.00,-1.0,2367
690,305690,17144,-648,804,17175.07,31.40,-1.00,-1.0,2433
693,305693,17096,-556,700,17119.36,31.40,-1.00,-1.0,2370
696,305696,17076,-704,536,17098.91,31.40,-1.00,-1.0,2424
699,305699,17088,-704,644,17114.62,31.40,-1.00,-1.0,2370
702,305702,17100,-684,700,17127.98,31.31,-1.00,-1.0,2428
705,305705,17036,-616,708,17061.83,31.40,-1.00,-1.0,2368
710,305710,17056,-684,616,17080.82,31.49,-1.00,-1.0,2427
712,305712,17100,-600,776,17128.11,31.40,-1.00,-1.0,2375
715,305715,17144,-632,660,17168.34,31.31,-1.00,-1.0,2366
718,305718,17060,-532,672,17081.52,31.35,-1.00,-1.0,2440
720,305720,17052,-516,608,17070.64,31.35,-1.00,-1.0,2369
723,305723,17100,-660,608,17123.53,31.35,-1.00,-1.0,2427
726,305726,17052,-804,844,17091.79,31.45,-1.00,-1.0,2370
729,305729,17036,-616,612,17058.12,31.35,-1.00,-1.0,2427
732,305732,17120,-680,564,17142.78,31.45,-1.00,-1.0,2377
737,305737,17044,-700,692,17072.40,31.31,-1.00,-1.0,2428
739,305739,17052,-644,780,17081.97,31.49,-1.00,-1.0,2373
742,305742,17056,-712,568,17080.30,31.35,-1.00,-1.0,2365
745,305745,17108,-568,552,17126.32,31.21,-1.00,-1.0,2441
747,305747,17136,-640,716,17162.89,31.35,-1.00,-1.0,2369
750,305750,17012,-580,744,17038.14,31.49,-1.00,-1.0,2431
753,305753,17080,-584,648,17102.26,31.35,-1.00,-1.0,2377
756,305756,17088,-672,696,17115.37,31.40,-1.00,-1.0,2407
759,305759,17068,-608,748,17095.20,31.45,-1.00,-1.0,2378
764,305764,17132,-688,748,17162.12,31.45,-1.00,-1.0,2435
766,305766,17056,-616,780,17084.94,31.40,-1.00,-1.0,2366
769,305769,16968,-684,612,16992.80,31.35,-1.00,-1.0,2366
772,305772,17088,-636,768,17117.07,31.40,-1.00,-1.0,2436
774,305774,17104,-632,676,17129.02,31.35,-1.00,-1.0,2371
777,305777,16980,-552,832,17009.33,31.31,-1.00,-1.0,2429
780,305780,17168,-628,756,17196.11,31.40,-1.00,-1.0,2376
783,305783,17048,-680,660,17074.32,31.40,-1.00,-1.0,2406
786,305786,17108,-660,688,17134.54,31.35,-1.00,-1.0,2365
791,305791,17124,-648,712,17151.04,31.35,-1.00,-1.0,2435
793,305793,17100,-636,736,17127.64,31.35,-1.00,-1.0,2367
796,305796,16976,-576,604,16996.50,31.40,-1.00,-1.0,2374
799,305799,17032,-608,792,17061.24,31.40,-1.00,-1.0,2423
801,305801,17092,-600,804,17121.42,31.40,-1.00,-1.0,2374
804,305804,17020,-512,740,17043.77,31.40,-1.00,-1.0,2430
807,305807,16984,-652,700,17010.92,31.40,-1.00,-1.0,2384
810,305810,17064,-604,668,17087.75,31.31,-1.00,-1.0,2421
813,305813,17032,-648,624,17055.74,31.31,-1.00,-1.0,2378
818,305818,17076,-612,668,17100.02,31.40,-1.00,-1.0,2435
820,305820,17100,-656,684,17126.24,31.35,-1.00,-1.0,2353
823,305823,17004,-692,668,17031.18,31.31,-1.00,-1.0,2380
826,305826,16996,-576,700,17020.16,31.35,-1.00,-1.0,2435
829,305829,17052,-620,656,17075.87,31.40,-1.00,-1.0,2372
831,305831,17020,-584,620,17041.30,31.35,-1.00,-1.0,2421
834,305834,16996,-680,752,17026.21,31.49,-1.00,-1.0,2376
837,305837,17044,-684,700,17072.08,31.35,-1.00,-1.0,2420
840,305840,17048,-556,652,17069.52,31.40,-1.00,-1.0,2373
845,305845,17124,-576,600,17144.19,31.40,-1.00,-1.0,2435
847,305847,17008,-616,748,17035.58,31.40,-1.00,-1.0,2366
850,305850,17028,-732,712,17058.59,31.40,-1.00,-1.0,2368
853,305853,17012,-668,760,17042.06,31.45,-1.00,-1.0,2433
856,305856,16940,-716,700,16969.57,31.45,-1.00,-1.0,2371
858,305858,17096,-632,780,17125.45,31.35,-1.00,-1.0,2421
861,305861,17028,-612,720,17054.20,31.31,-1.00,-1.0,2371
864,305864,17064,-664,644,17089.05,31.45,-1.00,-1.0,2420
867,305867,17100,-636,856,17133.22,31.40,-1.00,-1.0,2371
872,305872,17064,-836,652,17096.90,31.45,-1.00,-1.0,2428
874,305874,17068,-568,728,17092.96,31.45,-1.00,-1.0,2370
877,305877,17072,-724,628,17098.88,31.45,-1.00,-1.0,2366
880,305880,17016,-600,744,17042.82,31.40,-1.00,-1.0,2439
882,305882,17044,-648,652,17068.77,31.40,-1.00,-1.0,2369
885,305885,17028,-644,620,17051.45,31.40,-1.00,-1.0,2438
888,305888,17080,-592,656,17102.84,31.31,-1.00,-1.0,2370
891,305891,17048,-584,688,17071.87,31.35,-1.00,-1.0,2420
894,305894,17068,-688,808,17100.96,31.45,-1.00,-1.0,2371
899,305899,17040,-652,664,17065.39,31.40,-1.00,-1.0,2435
901,305901,17064,-608,504,17082.27,31.45,-1.00,-1.0,2367
904,305904,16996,-544,648,17017.05,31.31,-1.00,-1.0,2373
907,305907,17108,-560,736,17132.98,31.45,-1.00,-1.0,2427
909,305909,17064,-504,844,17092.29,31.40,-1.00,-1.0,2369
912,305912,17008,-616,596,17029.58,31.45,-1.00,-1.0,2429
915,305915,17068,-612,696,17093.14,31.40,-1.00,-1.0,2376
918,305918,17036,-712,688,17064.75,31.40,-1.00,-1.0,2420
921,305921,17068,-656,616,17091.71,31.35,-1.00,-1.0,2373
926,305926,17080,-724,720,17110.49,31.45,-1.00,-1.0,2417
928,305928,17088,-624,612,17110.34,31.40,-1.00,-1.0,2369
931,305931,17112,-656,736,17140.38,31.35,-1.00,-1.0,2441
934,305934,17100,-684,568,17123.10,31.40,-1.00,-1.0,2384
937,305937,17012,-632,564,17033.08,31.40,-1.00,-1.0,2371
939,305939,17000,-632,540,17020.31,31.40,-1.00,-1.0,2421
942,305942,17076,-540,696,17098.71,31.40,-1.00,-1.0,2370
945,305945,17100,-580,748,17126.18,31.40,-1.00,-1.0,2419
948,305948,17000,-540,640,17020.61,31.40,-1.00,-1.0,2370
953,305953,17176,-600,704,17200.89,31.35,-1.00,-1.0,2429
956,305956,17040,-656,528,17060.79,31.35,-1.00,-1.0,2373
958,305958,17096,-712,756,17127.51,31.40,-1.00,-1.0,2431
961,305961,16964,-676,636,16989.37,31.45,-1.00,-1.0,2372
964,305964,16996,-628,744,17023.86,31.40,-1.00,-1.0,2374
966,305966,17020,-692,600,17044.62,31.45,-1.00,-1.0,2420
969,305969,17012,-644,664,17037.13,31.35,-1.00,-1.0,2423
972,305972,17092,-644,600,17114.65,31.40,-1.00,-1.0,2428
975,305975,17084,-544,520,17100.57,31.40,-1.00,-1.0,2376
980,305980,17056,-556,704,17079.57,31.40,-1.00,-1.0,2425
983,305983,16992,-644,608,17015.07,31.35,-1.00,-1.0,2374
985,305985,17000,-632,740,17027.83,31.40,-1.00,-1.0,2427
988,305988,17096,-480,816,17122.19,31.40,-1.00,-1.0,2372
991,305991,16920,-548,756,16945.74,31.35,-1.00,-1.0,2377
994,305994,16976,-608,592,16997.20,31.45,-1.00,-1.0,2430
996,305996,17172,-552,752,17197.32,31.45,-1.00,-1.0,2379
999,305999,17008,-692,684,17035.81,31.35,-1.00,-1.0,2414
1002,306002,17096,-592,668,17119.29,31.40,-1.00,-1.0,2372
1007,306007,16948,-568,820,16977.33,31.40,-1.00,-1.0,2425
1010,306010,16956,-652,496,16975.78,31.49,-1.00,-1.0,2373
1012,306012,17068,-740,716,17099.03,31.49,-1.00,-1.0,2426
1015,306015,17108,-612,652,17131.36,31.40,-1.00,-1.0,2372
1018,306018,17124,-532,680,17145.75,31.35,-1.00,-1.0,2372
1021,306021,16988,-648,652,17012.85,31.45,-1.00,-1.0,2433
1023,306023,17076,-644,584,17098.12,31.35,-1.00,-1.0,2375
1026,306026,17132,-704,684,17160.10,31.31,-1.00,-1.0,2428
1029,306029,17076,-636,824,17107.70,31.49,-1.00,-1.0,2375
1034,306034,17048,-592,792,17076.65,31.49,-1.00,-1.0,2424
1037,306037,17148,-596,720,17173.45,31.40,-1.00,-1.0,2373
1039,306039,17140,-728,724,17170.72,31.45,-1.00,-1.0,2426
1042,306042,16972,-564,812,17000.77,31.31,-1.00,-1.0,2372
1045,306045,17064,-560,648,17085.48,31.35,-1.00,-1.0,2417
1048,306048,17024,-684,748,17054.15,31.31,-1.00,-1.0,2373
1050,306050,17080,-624,596,17101.78,31.35,-1.00,-1.0,2376
1053,306053,17052,-572,696,17075.78,31.40,-1.00,-1.0,2416
1056,306056,17008,-588,640,17030.19,31.35,-1.00,-1.0,2380
1061,306061,17068,-596,664,17091.31,31.45,-1.00,-1.0,2424
1064,306064,16964,-624,684,16989.25,31.35,-1.00,-1.0,2381
1066,306066,17020,-632,756,17048.50,31.45,-1.00,-1.0,2426
1069,306069,17112,-544,640,17132.60,31.35,-1.00,-1.0,2379
1072,306072,17096,-484,724,17118.17,31.40,-1.00,-1.0,2430
1075,306075,16956,-688,644,16982.17,31.45,-1.00,-1.0,2374
1078,306078,17064,-620,800,17093.99,31.40,-1.00,-1.0,2431
1080,306080,16964,-668,496,16984.39,31.35,-1.00,-1.0,2377
1083,306083,17072,-536,656,17093.01,31.40,-1.00,-1.0,2381
1088,306088,17056,-516,496,17071.01,31.40,-1.00,-1.0,2424
1091,306091,16992,-604,632,17014.47,31.40,-1.00,-1.0,2380
1093,306093,17008,-620,828,17039.43,31.40,-1.00,-1.0,2426
1096,306096,17080,-616,488,17098.07,31.49,-1.00,-1.0,2366
1099,306099,17040,-568,608,17060.30,31.40,-1.00,-1.0,2416
1102,306102,17100,-576,648,17121.96,31.31,-1.00,-1.0,2369
1104,306104,17076,-588,712,17100.95,31.40,-1.00,-1.0,2417
1107,306107,17048,-712,844,17083.72,31.49,-1.00,-1.0,2379
1112,306112,17072,-564,680,17094.84,31.45,-1.00,-1.0,2435
1114,306114,16984,-632,600,17006.34,31.45,-1.00,-1.0,2359
1117,306117,16936,-600,580,16956.55,31.40,-1.00,-1.0,2379
1120,306120,17052,-668,588,17075.21,31.40,-1.00,-1.0,2428
1123,306123,17060,-604,644,17082.83,31.40,-1.00,-1.0,2373
1125,306125,17024,-592,684,17048.02,31.45,-1.00,-1.0,2416
1128,306128,17020,-608,632,17042.58,31.40,-1.00,-1.0,2374
1131,306131,17084,-636,552,17104.74,31.45,-1.00,-1.0,2416
1134,306134,17124,-604,712,17149.44,31.31,-1.00,-1.0,2360
1139,306139,16984,-636,708,17010.64,31.31,-1.00,-1.0,2438
1142,306142,17116,-604,724,17141.95,31.31,-1.00,-1.0,2381
1144,306144,17048,-600,660,17071.32,31.35,-1.00,-1.0,2364
1147,306147,16996,-632,720,17022.98,31.35,-1.00,-1.0,2426
1150,306150,17000,-628,736,17027.51,31.40,-1.00,-1.0,2359
1153,306153,17124,-664,760,17153.71,31.45,-1.00,-1.0,2424
1155,306155,17104,-560,696,17127.31,31.35,-1.00,-1.0,2371
1158,306158,17036,-720,656,17063.82,31.26,-1.00,-1.0,2416
1161,306161,17052,-624,700,17077.77,31.45,-1.00,-1.0,2372
1166,306166,17076,-608,780,17104.62,31.35,-1.00,-1.0,2435
1169,306169,17044,-664,688,17070.80,31.40,-1.00,-1.0,2378
1172,306172,17120,-772,624,17148.75,31.35,-1.00,-1.0,2428
1174,306174,17088,-648,600,17110.80,31.35,-1.00,-1.0,2376
1177,306177,17060,-748,724,17091.73,31.35,-1.00,-1.0,2365
1180,306180,17064,-692,656,17090.62,31.40,-1.00,-1.0,2424
1182,306182,17096,-704,808,17129.56,31.45,-1.00,-1.0,2371
1185,306185,17124,-732,584,17149.58,31.40,-1.00,-1.0,2418
1188,306188,16988,-732,592,17014.07,31.35,-1.00,-1.0,2372
1193,306193,17084,-604,644,17106.80,31.35,-1.00,-1.0,2424
1196,306196,17088,-592,624,17109.63,31.40,-1.00,-1.0,2375
1199,306199,17012,-600,764,17039.71,31.45,-1.00,-1.0,2427
1201,306201,17032,-692,728,17061.59,31.35,-1.00,-1.0,2356
1204,306204,17112,-620,840,17143.82,31.35,-1.00,-1.0,2417
1207,306207,17080,-608,688,17104.66,31.40,-1.00,-1.0,2372
1209,306209,17080,-636,628,17103.37,31.40,-1.00,-1.0,2366
1212,306212,17104,-644,696,17130.27,31.40,-1.00,-1.0,2418
1215,306215,17044,-552,588,17063.07,31.45,-1.00,-1.0,2372
1220,306220,17060,-552,756,17085.66,31.35,-1.00,-1.0,2425
1223,306223,17060,-668,512,17080.75,31.35,-1.00,-1.0,2375
1226,306226,17148,-680,564,17170.74,31.40,-1.00,-1.0,2434
1228,306228,17028,-728,664,17056.48,31.45,-1.00,-1.0,2369
1231,306231,17080,-648,660,17105.03,31.40,-1.00,-1.0,2420
1234,306234,17028,-704,636,17054.41,31.45,-1.00,-1.0,2372
1237,306237,17016,-548,784,17042.86,31.40,-1.00,-1.0,2422
1239,306239,17036,-604,564,17056.03,31.45,-1.00,-1.0,2371
1242,306242,17080,-636,704,17106.33,31.31,-1.00,-1.0,2365
1247,306247,17000,-680,580,17023.48,31.40,-1.00,-1.0,2424
1250,306250,17060,-596,680,17083.95,31.45,-1.00,-1.0,2376
1253,306253,17120,-560,672,17142.33,31.40,-1.00,-1.0,2434
1255,306255,17096,-552,740,17120.91,31.45,-1.00,-1.0,2369
1258,306258,17000,-600,664,17023.54,31.40,-1.00,-1.0,2418
1261,306261,17116,-604,664,17139.52,31.45,-1.00,-1.0,2360
1264,306264,17096,-680,756,17126.21,31.31,-1.00,-1.0,2424
1266,306266,17116,-728,768,17148.68,31.35,-1.00,-1.0,2371
1271,306271,17048,-612,720,17074.17,31.35,-1.00,-1.0,2411
1274,306274,17140,-700,712,17169.06,31.45,-1.00,-1.0,2379
1277,306277,16948,-600,540,16967.21,31.31,-1.00,-1.0,2366
1279,306279,17044,-632,652,17068.17,31.31,-1.00,-1.0,2426
1282,306282,17148,-696,616,17173.17,31.49,-1.00,-1.0,2372
1285,306285,17144,-676,712,17172.09,31.45,-1.00,-1.0,2416
1288,306288,17068,-552,616,17088.03,31.49,-1.00,-1.0,2378
1290,306290,17044,-488,780,17068.82,31.35,-1.00,-1.0,2416
1293,306293,17048,-644,624,17071.57,31.45,-1.00,-1.0,2374
1298,306298,17144,-512,672,17164.80,31.45,-1.00,-1.0,2418
1301,306301,17084,-632,768,17112.93,31.40,-1.00,-1.0,2380
1304,306304,17104,-580,640,17125.79,31.35,-1.00,-1.0,2435
1306,306306,17036,-592,660,17059.05,31.35,-1.00,-1.0,2380
1309,306309,17116,-700,732,17145.94,31.40,-1.00,-1.0,2364
1312,306312,17060,-604,624,17082.09,31.31,-1.00,-1.0,2420
1314,306314,17024,-660,572,17046.39,31.49,-1.00,-1.0,2370
1317,306317,17024,-628,696,17049.79,31.45,-1.00,-1.0,2427
1320,306320,16948,-588,616,16969.38,31.35,-1.00,-1.0,2376
1325,306325,17012,-664,632,17036.68,31.40,-1.00,-1.0,2424
1328,306328,17008,-616,676,17032.57,31.40,-1.00,-1.0,2373
1331,306331,17104,-696,812,17137.40,31.40,-1.00,-1.0,2427
1333,306333,17072,-744,712,17103.03,31.49,-1.00,-1.0,2370
1336,306336,16996,-588,732,17021.91,31.45,-1.00,-1.0,2364
1339,306339,17124,-732,672,17152.81,31.45,-1.00,-1.0,2424
1341,306341,17060,-704,720,17089.69,31.35,-1.00,-1.0,2373
1344,306344,17128,-692,700,17156.26,31.49,-1.00,-1.0,2424
1347,306347,17132,-668,600,17155.51,31.45,-1.00,-1.0,2381
1352,306352,17060,-644,688,17086.01,31.45,-1.00,-1.0,2426
1355,306355,17084,-628,672,17108.74,31.45,-1.00,-1.0,2372
1358,306358,17072,-592,644,17094.40,31.35,-1.00,-1.0,2434
1360,306360,17120,-600,652,17142.91,31.45,-1.00,-1.0,2375
1363,306363,17052,-532,712,17075.15,31.40,-1.00,-1.0,2424
1366,306366,17116,-620,696,17141.36,31.35,-1.00,-1.0,2379
1369,306369,17056,-704,744,17086.73,31.40,-1.00,-1.0,2366
1371,306371,17152,-632,804,17182.46,31.35,-1.00,-1.0,2417
1374,306374,17088,-672,624,17112.59,31.40,-1.00,-1.0,2379
1379,306379,17068,-640,620,17091.24,31.40,-1.00,-1.0,2434
1382,306382,17144,-620,632,17166.85,31.35,-1.00,-1.0,2381
1385,306385,17004,-628,656,17028.23,31.40,-1.00,-1.0,2426
1387,306387,17084,-588,720,17109.27,31.35,-1.00,-1.0,2372
1390,306390,17032,-644,704,17058.70,31.31,-1.00,-1.0,2419
1393,306393,16932,-656,500,16952.08,31.49,-1.00,-1.0,2387
1396,306396,17116,-632,668,17140.69,31.31,-1.00,-1.0,2418
1399,306399,17016,-588,736,17042.06,31.40,-1.00,-1.0,2373
1401,306401,17076,-600,616,17097.64,31.40,-1.00,-1.0,2368
1406,306406,16996,-676,856,17030.96,31.40,-1.00,-1.0,2433
1409,306409,17120,-560,696,17143.29,31.45,-1.00,-1.0,2379
1412,306412,17184,-640,716,17210.81,31.40,-1.00,-1.0,2427
1415,306415,17064,-628,648,17087.84,31.49,-1.00,-1.0,2374
1417,306417,17144,-628,452,17161.45,31.40,-1.00,-1.0,2419
1420,306420,17088,-644,704,17114.62,31.31,-1.00,-1.0,2387
1423,306423,17152,-660,716,17179.62,31.40,-1.00,-1.0,2416
1426,306426,17008,-556,732,17032.82,31.40,-1.00,-1.0,2375
1431,306431,17116,-572,620,17136.78,31.40,-1.00,-1.0,2429
1433,306433,17056,-616,748,17083.50,31.45,-1.00,-1.0,2374
1436,306436,17072,-628,688,17097.39,31.40,-1.00,-1.0,2367
1439,306439,17056,-732,696,17085.88,31.35,-1.00,-1.0,2433
1441,306441,17076,-596,696,17100.57,31.35,-1.00,-1.0,2368
1444,306444,17144,-564,608,17164.05,31.45,-1.00,-1.0,2419
1447,306447,17000,-704,572,17024.18,31.45,-1.00,-1.0,2373
1450,306450,17060,-616,764,17088.21,31.35,-1.00,-1.0,2424
1452,306452,16984,-604,800,17013.55,31.35,-1.00,-1.0,2371
1457,306457,17072,-688,676,17099.22,31.40,-1.00,-1.0,2411
1460,306460,17052,-612,672,17076.21,31.40,-1.00,-1.0,2380
1463,306463,17040,-548,720,17064.01,31.45,-1.00,-1.0,2425
1466,306466,17108,-636,616,17130.90,31.40,-1.00,-1.0,2373
1468,306468,17072,-544,612,17091.62,31.35,-1.00,-1.0,2369
1471,306471,17088,-556,752,17113.57,31.35,-1.00,-1.0,2459
1474,306474,17132,-676,708,17159.94,31.45,-1.00,-1.0,2368
1477,306477,17136,-636,684,17161.44,31.35,-1.00,-1.0,2430
1479,306479,17000,-624,696,17025.68,31.35,-1.00,-1.0,2365
1484,306484,17096,-528,712,17118.96,31.35,-1.00,-1.0,2427
1487,306487,17048,-656,760,17077.54,31.35,-1.00,-1.0,2372
1490,306490,17028,-664,624,17052.36,31.35,-1.00,-1.0,2429
1493,306493,17080,-564,676,17102.67,31.49,-1.00,-1.0,2369
1495,306495,17064,-600,528,17082.71,31.35,-1.00,-1.0,2420
1498,306498,16972,-608,576,16992.65,31.45,-1.00,-1.0,2370
1501,306501,17192,-552,552,17209.71,31.40,-1.00,-1.0,2374
1504,306504,17104,-600,720,17129.66,31.31,-1.00,-1.0,2424
1506,306506,17084,-576,696,17107.87,31.40,-1.00,-1.0,2369
1511,306511,16992,-524,644,17012.27,31.40,-1.00,-1.0,2430
1514,306514,17132,-572,704,17156.00,31.40,-1.00,-1.0,2369
1517,306517,17104,-628,704,17130.00,31.31,-1.00,-1.0,2439
1519,306519,17068,-644,704,17094.65,31.40,-1.00,-1.0,2371
1522,306522,17164,-676,652,17189.68,31.35,-1.00,-1.0,2428
1525,306525,17132,-600,628,17154.00,31.31,-1.00,-1.0,2377
1528,306528,17044,-624,616,17066.54,31.45,-1.00,-1.0,2366
1530,306530,17124,-600,620,17145.72,31.31,-1.00,-1.0,2420
1533,306533,17068,-652,564,17089.76,31.31,-1.00,-1.0,2370
1538,306538,17132,-696,700,17160.41,31.35,-1.00,-1.0,2427
1541,306541,17036,-656,636,17060.48,31.35,-1.00,-1.0,2372
1544,306544,17020,-648,492,17039.44,31.40,-1.00,-1.0,2437
1546,306546,17020,-632,568,17041.20,31.45,-1.00,-1.0,2366
1549,306549,17080,-668,752,17109.59,31.49,-1.00,-1.0,2420
1552,306552,17084,-696,652,17110.60,31.35,-1.00,-1.0,2370
1555,306555,17076,-568,616,17096.54,31.40,-1.00,-1.0,2426
1557,306557,17088,-700,692,17116.33,31.40,-1.00,-1.0,2368
1560,306560,17064,-556,660,17085.81,31.40,-1.00,-1.0,2365
1565,306565,17160,-668,628,17184.48,31.31,-1.00,-1.0,2427
1568,306568,17080,-608,668,17103.87,31.40,-1.00,-1.0,2370
1571,306571,17004,-720,684,17032.98,31.40,-1.00,-1.0,2428
1574,306574,17096,-720,688,17124.98,31.40,-1.00,-1.0,2377
1576,306576,17084,-628,520,17103.45,31.40,-1.00,-1.0,2419
1579,306579,16996,-580,580,17015.78,31.31,-1.00,-1.0,2370
1582,306582,17008,-584,648,17030.36,31.45,-1.00,-1.0,2419
1585,306585,17024,-620,616,17046.42,31.49,-1.00,-1.0,2377
1590,306590,17036,-640,604,17058.71,31.40,-1.00,-1.0,2434
1592,306592,17076,-676,724,17104.71,31.31,-1.00,-1.0,2370
1595,306595,17072,-528,600,17090.70,31.40,-1.00,-1.0,2364
1598,306598,17088,-680,612,17112.47,31.45,-1.00,-1.0,2431
1600,306600,17072,-616,764,17100.19,31.40,-1.00,-1.0,2370
1603,306603,17092,-628,704,17118.02,31.35,-1.00,-1.0,2427
1606,306606,17020,-688,524,17041.96,31.45,-1.00,-1.0,2377
1609,306609,17100,-592,612,17121.19,31.45,-1.00,-1.0,2409
1612,306612,17040,-612,592,17061.26,31.54,-1.00,-1.0,2372
1617,306617,17088,-636,612,17110.78,31.45,-1.00,-1.0,2436
1619,306619,16924,-660,644,16949.10,31.45,-1.00,-1.0,2374
1622,306622,17120,-552,648,17141.15,31.45,-1.00,-1.0,2437
1625,306625,17028,-564,712,17052.21,31.45,-1.00,-1.0,2374
1627,306627,17144,-592,672,17167.38,31.40,-1.00,-1.0,2366
1630,306630,16956,-596,760,16983.48,31.35,-1.00,-1.0,2469
1633,306633,17032,-644,800,17062.94,31.45,-1.00,-1.0,2371
1636,306636,17048,-672,604,17071.93,31.40,-1.00,-1.0,2423
1639,306639,17128,-568,652,17149.81,31.45,-1.00,-1.0,2369
1644,306644,17008,-572,588,17027.77,31.45,-1.00,-1.0,2437
1646,306646,16992,-572,628,17013.22,31.35,-1.00,-1.0,2380
1649,306649,17000,-604,612,17021.73,31.40,-1.00,-1.0,2431
1652,306652,17152,-596,700,17176.62,31.45,-1.00,-1.0,2371
1655,306655,17000,-720,644,17027.42,31.40,-1.00,-1.0,2422
1657,306657,17000,-552,728,17024.53,31.35,-1.00,-1.0,2374
1660,306660,17052,-564,624,17072.73,31.31,-1.00,-1.0,2365
1663,306663,17024,-660,816,17056.32,31.35,-1.00,-1.0,2424
1666,306666,17052,-644,536,17072.57,31.40,-1.00,-1.0,2370
1671,306671,17100,-548,608,17119.58,31.40,-1.00,-1.0,2432
1673,306673,17068,-608,712,17093.66,31.45,-1.00,-1.0,2379
1676,306676,17072,-664,708,17099.57,31.31,-1.00,-1.0,2430
1679,306679,17068,-620,668,17092.32,31.31,-1.00,-1.0,2373
1682,306682,16984,-532,720,17007.58,31.40,-1.00,-1.0,2423
1684,306684,17172,-672,488,17192.07,31.40,-1.00,-1.0,2374
1687,306687,17048,-632,664,17072.63,31.40,-1.00,-1.0,2421
1690,306690,17128,-576,680,17151.17,31.40,-1.00,-1.0,2372
1693,306693,17028,-588,608,17048.99,31.40,-1.00,-1.0,2367
1698,306698,16992,-432,716,17012.56,31.40,-1.00,-1.0,2427
1700,306700,17064,-564,712,17088.16,31.40,-1.00,-1.0,2377
1703,306703,17168,-644,664,17192.90,31.40,-1.00,-1.0,2430
1706,306706,16988,-624,740,17015.55,31.49,-1.00,-1.0,2370
1709,306709,17140,-716,828,17174.92,31.40,-1.00,-1.0,2422
1711,306711,17104,-652,728,17131.90,31.40,-1.00,-1.0,2354
1714,306714,17028,-704,692,17056.59,31.40,-1.00,-1.0,2420
1717,306717,17100,-660,676,17126.08,31.40,-1.00,-1.0,2373
1720,306720,17032,-588,792,17060.54,31.45,-1.00,-1.0,2367
1724,306724,17092,-624,748,17119.74,31.54,-1.00,-1.0,2437
1727,306727,17068,-632,712,17094.53,31.35,-1.00,-1.0,2373
1730,306730,16960,-616,784,16989.28,31.40,-1.00,-1.0,2437
1733,306733,17056,-576,592,17075.99,31.40,-1.00,-1.0,2377
1736,306736,16960,-616,624,16982.65,31.40,-1.00,-1.0,2430
1738,306738,17072,-668,832,17105.31,31.31,-1.00,-1.0,2377
1741,306741,17080,-644,680,17105.66,31.40,-1.00,-1.0,2420
1744,306744,17000,-568,660,17022.29,31.49,-1.00,-1.0,2372
1749,306749,16956,-592,588,16976.52,31.45,-1.00,-1.0,2435
1751,306751,16980,-624,668,17004.59,31.31,-1.00,-1.0,2370
1754,306754,17084,-632,636,17107.51,31.40,-1.00,-1.0,2373
1757,306757,17084,-620,632,17106.93,31.40,-1.00,-1.0,2430
1760,306760,17092,-544,592,17110.90,31.40,-1.00,-1.0,2373
1762,306762,17124,-632,616,17146.73,31.40,-1.00,-1.0,2422
1765,306765,17020,-512,740,17043.77,31.40,-1.00,-1.0,2384
1768,306768,17000,-604,672,17023.99,31.40,-1.00,-1.0,2420
1771,306771,17036,-764,636,17064.98,31.35,-1.00,-1.0,2377
1776,306776,17044,-732,684,17073.42,31.45,-1.00,-1.0,2434
1778,306778,17068,-632,768,17096.96,31.40,-1.00,-1.0,2369
1781,306781,16988,-660,688,17014.73,31.35,-1.00,-1.0,2428
1784,306784,17152,-596,752,17178.82,31.35,-1.00,-1.0,2372
1786,306786,16948,-648,620,16971.71,31.40,-1.00,-1.0,2370
1789,306789,17060,-568,612,17080.42,31.40,-1.00,-1.0,2427
1792,306792,17136,-708,708,17165.23,31.40,-1.00,-1.0,2375
1795,306795,17032,-648,612,17055.31,31.31,-1.00,-1.0,2423
1798,306798,17044,-640,572,17065.60,31.40,-1.00,-1.0,2377
1803,306803,17080,-564,760,17106.20,31.45,-1.00,-1.0,2435
1805,306805,17128,-536,624,17147.74,31.35,-1.00,-1.0,2371
1808,306808,17132,-628,756,17160.17,31.31,-1.00,-1.0,2430
1811,306811,17084,-544,700,17106.99,31.35,-1.00,-1.0,2370
1814,306814,16964,-600,676,16988.06,31.31,-1.00,-1.0,2425
1816,306816,17032,-596,664,17055.36,31.35,-1.00,-1.0,2357
1819,306819,17028,-624,572,17049.03,31.40,-1.00,-1.0,2380
1822,306822,17096,-592,768,17123.48,31.35,-1.00,-1.0,2420
1825,306825,16984,-564,696,17007.61,31.31,-1.00,-1.0,2377
1830,306830,16976,-608,616,16998.05,31.31,-1.00,-1.0,2435
1832,306832,17176,-584,700,17200.18,31.31,-1.00,-1.0,2371
1835,306835,17044,-484,716,17065.90,31.49,-1.00,-1.0,2444
1838,306838,17140,-676,728,17168.77,31.40,-1.00,-1.0,2373
1841,306841,17192,-680,764,17222.40,31.40,-1.00,-1.0,2421
1843,306843,17004,-596,600,17025.02,31.40,-1.00,-1.0,2373
1846,306846,17132,-628,696,17157.63,31.40,-1.00,-1.0,2431
1849,306849,17088,-664,660,17113.63,31.40,-1.00,-1.0,2377
1852,306852,17036,-576,608,17056.57,31.40,-1.00,-1.0,2360
1857,306857,17184,-600,572,17203.98,31.40,-1.00,-1.0,2434
1859,306859,17044,-780,748,17078.23,31.40,-1.00,-1.0,2370
1862,306862,17008,-632,632,17031.47,31.49,-1.00,-1.0,2444
1865,306865,17016,-508,728,17039.14,31.40,-1.00,-1.0,2370
1868,306868,17080,-592,660,17103.00,31.45,-1.00,-1.0,2427
1870,306870,16984,-704,716,17013.66,31.40,-1.00,-1.0,2374
1873,306873,17088,-584,800,17116.68,31.31,-1.00,-1.0,2429
1876,306876,17060,-588,648,17082.43,31.40,-1.00,-1.0,2376
1881,306881,17032,-552,612,17051.93,31.40,-1.00,-1.0,2427
1884,306884,17096,-584,820,17125.62,31.31,-1.00,-1.0,2372
1886,306886,17036,-588,676,17059.54,31.49,-1.00,-1.0,2373
1889,306889,17088,-600,632,17110.21,31.35,-1.00,-1.0,2429
1892,306892,17004,-724,560,17028.62,31.35,-1.00,-1.0,2370
1895,306895,17080,-504,616,17098.54,31.45,-1.00,-1.0,2420
1897,306897,17044,-588,592,17064.41,31.35,-1.00,-1.0,2373
1900,306900,17060,-544,680,17082.21,31.45,-1.00,-1.0,2419
1903,306903,17048,-640,644,17072.16,31.35,-1.00,-1.0,2373
1908,306908,17096,-636,664,17120.71,31.35,-1.00,-1.0,2430
1910,306910,17048,-664,796,17079.48,31.35,-1.00,-1.0,2376
1913,306913,17092,-616,608,17113.90,31.49,-1.00,-1.0,2365
1916,306916,17064,-580,704,17088.36,31.40,-1.00,-1.0,2428
1919,306919,17084,-580,872,17116.07,31.40,-1.00,-1.0,2370
1921,306921,17048,-668,604,17071.77,31.49,-1.00,-1.0,2419
1924,306924,17064,-704,720,17093.69,31.31,-1.00,-1.0,2369
1927,306927,17072,-636,624,17095.23,31.40,-1.00,-1.0,2419
1930,306930,17084,-624,724,17110.72,31.40,-1.00,-1.0,2369
1935,306935,17068,-528,784,17094.15,31.40,-1.00,-1.0,2433
1937,306937,17136,-636,636,17159.59,31.31,-1.00,-1.0,2371
1940,306940,17084,-664,724,17112.22,31.40,-1.00,-1.0,2430
1943,306943,17128,-640,712,17154.73,31.40,-1.00,-1.0,2369
1945,306945,17140,-672,728,17168.61,31.35,-1.00,-1.0,2369
1948,306948,17120,-672,536,17141.57,31.35,-1.00,-1.0,2428
1951,306951,16960,-704,724,16990.04,31.35,-1.00,-1.0,2385
1954,306954,17064,-696,776,17095.81,31.31,-1.00,-1.0,2419
1957,306957,16996,-656,716,17023.72,31.40,-1.00,-1.0,2369
1962,306962,17044,-608,684,17068.55,31.35,-1.00,-1.0,2434
1964,306964,17068,-632,700,17094.04,31.45,-1.00,-1.0,2382
1967,306967,17208,-612,672,17231.99,31.40,-1.00,-1.0,2428
1970,306970,17068,-572,724,17092.92,31.45,-1.00,-1.0,2369
1973,306973,17036,-632,676,17061.12,31.40,-1.00,-1.0,2421
1975,306975,17156,-616,636,17178.83,31.26,-1.00,-1.0,2374
1978,306978,17080,-640,700,17106.31,31.40,-1.00,-1.0,2364
1981,306981,16964,-636,660,16988.74,31.35,-1.00,-1.0,2419
1984,306984,17024,-636,688,17049.76,31.40,-1.00,-1.0,2369
1989,306989,17176,-628,496,17194.63,31.49,-1.00,-1.0,2414
1992,306992,17032,-604,624,17054.13,31.40,-1.00,-1.0,2372
1994,306994,17188,-616,800,17217.63,31.31,-1.00,-1.0,2429
1997,306997,17068,-584,528,17086.15,31.40,-1.00,-1.0,2370
2000,307000,17076,-684,732,17105.36,31.40,-1.00,-1.0,2419
2003,307003,17164,-604,624,17185.96,31.40,-1.00,-1.0,2370
2005,307005,17036,-724,668,17064.46,31.49,-1.00,-1.0,2419
2008,307008,17136,-744,604,17162.78,31.40,-1.00,-1.0,2369
2011,307011,17028,-656,712,17055.50,31.35,-1.00,-1.0,2366
2016,307016,16988,-752,660,17017.44,31.45,-1.00,-1.0,2428
2019,307019,17048,-704,616,17073.65,31.40,-1.00,-1.0,2371
2021,307021,17096,-580,628,17117.36,31.45,-1.00,-1.0,2428
2024,307024,17000,-608,676,17024.29,31.40,-1.00,-1.0,2370
2027,307027,17164,-564,644,17185.33,31.45,-1.00,-1.0,2420
2030,307030,17032,-604,576,17052.44,31.40,-1.00,-1.0,2370
2032,307032,16976,-644,548,16997.05,31.35,-1.00,-1.0,2419
2035,307035,17064,-532,688,17086.15,31.49,-1.00,-1.0,2369
2040,307040,17028,-708,600,17053.27,31.40,-1.00,-1.0,2426
2043,307043,16988,-636,680,17013.50,31.31,-1.00,-1.0,2371
2045,307045,16988,-612,616,17010.18,31.35,-1.00,-1.0,2368
2048,307048,17032,-660,532,17053.08,31.40,-1.00,-1.0,2441
2051,307051,17092,-568,700,17115.76,31.35,-1.00,-1.0,2370
2054,307054,17076,-568,660,17098.19,31.40,-1.00,-1.0,2427
2056,307056,17124,-672,648,17149.43,31.26,-1.00,-1.0,2369
2059,307059,16972,-592,788,17000.59,31.40,-1.00,-1.0,2428
2062,307062,17104,-676,856,17138.74,31.45,-1.00,-1.0,2376
2067,307067,17080,-720,692,17109.17,31.45,-1.00,-1.0,2427
2070,307070,17048,-752,556,17073.63,31.45,-1.00,-1.0,2378
2072,307072,16976,-692,804,17009.11,31.31,-1.00,-1.0,2428
2075,307075,17060,-612,644,17083.12,31.35,-1.00,-1.0,2370
2078,307078,16988,-700,556,17011.50,31.40,-1.00,-1.0,2368
2081,307081,17012,-636,708,17038.60,31.45,-1.00,-1.0,2421
2083,307083,17088,-656,580,17110.42,31.40,-1.00,-1.0,2372
2086,307086,17072,-680,684,17099.22,31.40,-1.00,-1.0,2419
2089,307089,17020,-596,812,17049.78,31.31,-1.00,-1.0,2384
2094,307094,17036,-636,648,17060.18,31.40,-1.00,-1.0,2442
2097,307097,17036,-616,720,17062.33,31.40,-1.00,-1.0,2381
2100,307100,17092,-640,580,17113.81,31.40,-1.00,-1.0,2443
2102,307102,17044,-628,548,17064.37,31.40,-1.00,-1.0,2377
2105,307105,17136,-688,768,17166.99,31.35,-1.00,-1.0,2364
2108,307108,17052,-576,596,17072.13,31.35,-1.00,-1.0,2427
2110,307110,17140,-660,616,17163.76,31.35,-1.00,-1.0,2368
2113,307113,17104,-612,764,17131.99,31.45,-1.00,-1.0,2421
2116,307116,16968,-608,584,16988.93,31.40,-1.00,-1.0,2372
2121,307121,17004,-652,660,17029.29,31.40,-1.00,-1.0,2441
2124,307124,16968,-652,600,16991.12,31.40,-1.00,-1.0,2377
2127,307127,17048,-656,692,17074.64,31.35,-1.00,-1.0,2440
2129,307129,17088,-596,816,17117.85,31.40,-1.00,-1.0,2377
2132,307132,17044,-620,520,17063.20,31.40,-1.00,-1.0,2418
2135,307135,17032,-644,720,17059.37,31.40,-1.00,-1.0,2373
2137,307137,17084,-616,640,17107.08,31.45,-1.00,-1.0,2366
2140,307140,16964,-508,544,16980.32,31.31,-1.00,-1.0,2421
2143,307143,16944,-620,668,16968.49,31.31,-1.00,-1.0,2372
2148,307148,16996,-620,712,17022.20,31.45,-1.00,-1.0,2427
2151,307151,16960,-652,796,16991.18,31.35,-1.00,-1.0,2372
2153,307153,17040,-636,668,17064.94,31.35,-1.00,-1.0,2429
2156,307156,17088,-620,792,17117.58,31.45,-1.00,-1.0,2370
2159,307159,17056,-608,672,17080.06,31.40,-1.00,-1.0,2419
2162,307162,17108,-696,652,17134.56,31.45,-1.00,-1.0,2369
2164,307164,16996,-604,756,17023.52,31.31,-1.00,-1.0,2406
2167,307167,17004,-584,736,17029.94,31.35,-1.00,-1.0,2370
2170,307170,16996,-668,704,17023.69,31.35,-1.00,-1.0,2366
2175,307175,17000,-580,608,17020.75,31.31,-1.00,-1.0,2426
2178,307178,17024,-644,500,17043.51,31.45,-1.00,-1.0,2372
2180,307180,17152,-616,596,17173.40,31.49,-1.00,-1.0,2428
2183,307183,16988,-604,572,17008.36,31.31,-1.00,-1.0,2370
2186,307186,17036,-612,584,17056.99,31.49,-1.00,-1.0,2419
2189,307189,17036,-616,768,17064.42,31.40,-1.00,-1.0,2376
2191,307191,17164,-624,752,17191.79,31.31,-1.00,-1.0,2419
2194,307194,16964,-616,620,16986.50,31.40,-1.00,-1.0,2369
2199,307199,17060,-632,644,17083.85,31.45,-1.00,-1.0,2427
2202,307202,17028,-676,544,17050.09,31.26,-1.00,-1.0,2373
2204,307204,17028,-704,692,17056.59,31.40,-1.00,-1.0,2364
2207,307207,17148,-592,680,17171.69,31.45,-1.00,-1.0,2445
2210,307210,17084,-648,560,17105.45,31.40,-1.00,-1.0,2370
2213,307213,17036,-588,676,17059.54,31.35,-1.00,-1.0,2424
2215,307215,16972,-668,668,16998.27,31.40,-1.00,-1.0,2370
2218,307218,17124,-700,836,17158.68,31.45,-1.00,-1.0,2429
2221,307221,17048,-708,780,17080.51,31.40,-1.00,-1.0,2369
2226,307226,16980,-584,752,17006.67,31.35,-1.00,-1.0,2427
2229,307229,17072,-616,728,17098.62,31.35,-1.00,-1.0,2373
2232,307232,17036,-692,836,17070.53,31.31,-1.00,-1.0,2430
2234,307234,17024,-632,448,17041.62,31.35,-1.00,-1.0,2365
2237,307237,17072,-692,680,17099.54,31.40,-1.00,-1.0,2365
2240,307240,17008,-716,632,17034.79,31.35,-1.00,-1.0,2426
2242,307242,17028,-628,680,17053.14,31.31,-1.00,-1.0,2367
2245,307245,17060,-572,688,17083.45,31.35,-1.00,-1.0,2435
2248,307248,17084,-696,596,17108.56,31.40,-1.00,-1.0,2369
2253,307253,17048,-612,644,17071.13,31.40,-1.00,-1.0,2426
2256,307256,17088,-680,692,17115.52,31.45,-1.00,-1.0,2370
2259,307259,17164,-684,584,17187.55,31.31,-1.00,-1.0,2437
2261,307261,17112,-556,524,17129.05,31.31,-1.00,-1.0,2365
2264,307264,17064,-716,688,17092.87,31.40,-1.00,-1.0,2423
2267,307267,17020,-540,660,17041.35,31.49,-1.00,-1.0,2369
2269,307269,16936,-616,556,16956.32,31.45,-1.00,-1.0,2367
2272,307272,17068,-688,748,17098.23,31.45,-1.00,-1.0,2434
2275,307275,17036,-716,640,17063.05,31.40,-1.00,-1.0,2371
2280,307280,16988,-672,696,17015.53,31.40,-1.00,-1.0,2426
2283,307283,17080,-572,700,17103.91,31.40,-1.00,-1.0,2359
2286,307286,16992,-688,592,17016.22,31.40,-1.00,-1.0,2437
2288,307288,17040,-612,648,17063.29,31.49,-1.00,-1.0,2365
2291,307291,16992,-584,664,17014.99,31.40,-1.00,-1.0,2419
2294,307294,17116,-668,840,17149.62,31.40,-1.00,-1.0,2370
2296,307296,17056,-652,684,17082.16,31.35,-1.00,-1.0,2367
2299,307299,17076,-632,592,17097.94,31.35,-1.00,-1.0,2427
2302,307302,17088,-680,592,17111.77,31.35,-1.00,-1.0,2374
2307,307307,16936,-640,756,16964.94,31.35,-1.00,-1.0,2428
2310,307310,17020,-632,652,17044.21,31.49,-1.00,-1.0,2370
2313,307313,17032,-552,716,17055.98,31.45,-1.00,-1.0,2438
2315,307315,17100,-632,652,17124.09,31.45,-1.00,-1.0,2368
2318,307318,17064,-632,692,17089.71,31.35,-1.00,-1.0,2423
2321,307321,16984,-548,668,17005.96,31.49,-1.00,-1.0,2370
2324,307324,17052,-648,756,17081.05,31.45,-1.00,-1.0,2426
2326,307326,17104,-688,680,17131.33,31.35,-1.00,-1.0,2370
2329,307329,16944,-632,728,16971.40,31.45,-1.00,-1.0,2368
2334,307334,17040,-656,736,17068.50,31.26,-1.00,-1.0,2430
2337,307337,17148,-676,616,17172.37,31.40,-1.00,-1.0,2374
2340,307340,17056,-596,696,17080.60,31.35,-1.00,-1.0,2436
2342,307342,17088,-544,700,17110.98,31.35,-1.00,-1.0,2372
2345,307345,16976,-640,680,17001.66,31.49,-1.00,-1.0,2429
2348,307348,17056,-576,724,17081.07,31.45,-1.00,-1.0,2377
2351,307351,17120,-592,444,17135.99,31.40,-1.00,-1.0,2421
2353,307353,17044,-704,780,17076.36,31.35,-1.00,-1.0,2369
2358,307358,17056,-588,676,17079.52,31.40,-1.00,-1.0,2434
2361,307361,17092,-684,568,17115.11,31.40,-1.00,-1.0,2384
2364,307364,17048,-588,716,17073.16,31.40,-1.00,-1.0,2366
2366,307366,17016,-592,712,17041.18,31.35,-1.00,-1.0,2428
2369,307369,17056,-584,536,17074.41,31.45,-1.00,-1.0,2356
2372,307372,17000,-636,728,17027.46,31.45,-1.00,-1.0,2419
2375,307375,17060,-680,716,17088.55,31.45,-1.00,-1.0,2370
2377,307377,17004,-552,724,17028.36,31.45,-1.00,-1.0,2419
2380,307380,17044,-664,604,17067.62,31.40,-1.00,-1.0,2377
2385,307385,16976,-572,628,16997.24,31.35,-1.00,-1.0,2426
2388,307388,17044,-620,624,17066.68,31.35,-1.00,-1.0,2379
2391,307391,17024,-680,680,17051.14,31.40,-1.00,-1.0,2431
2393,307393,17032,-644,780,17062.01,31.35,-1.00,-1.0,2372
2396,307396,17052,-592,704,17076.79,31.40,-1.00,-1.0,2368
2399,307399,17088,-676,792,17119.70,31.35,-1.00,-1.0,2421
2401,307401,17024,-608,768,17052.16,31.40,-1.00,-1.0,2371
2404,307404,17020,-668,592,17043.39,31.35,-1.00,-1.0,2419
2407,307407,16976,-596,668,16999.59,31.31,-1.00,-1.0,2372
2412,307412,17112,-560,728,17136.63,31.40,-1.00,-1.0,2433
2415,307415,17068,-636,632,17091.54,31.40,-1.00,-1.0,2384
2418,307418,17096,-628,732,17123.18,31.49,-1.00,-1.0,2430
2421,307421,17064,-608,680,17088.36,31.40,-1.00,-1.0,2370
2423,307423,17024,-684,632,17049.45,31.45,-1.00,-1.0,2420
2426,307426,17064,-684,580,17087.55,31.40,-1.00,-1.0,2372
2429,307429,17116,-584,748,17142.29,31.35,-1.00,-1.0,2373
2431,307431,17104,-612,648,17127.21,31.49,-1.00,-1.0,2419
2434,307434,17060,-672,848,17094.28,31.35,-1.00,-1.0,2369
2439,307439,17076,-604,612,17097.63,31.45,-1.00,-1.0,2429
2442,307442,17124,-664,596,17147.23,31.40,-1.00,-1.0,2373
2445,307445,17132,-684,596,17156.00,31.35,-1.00,-1.0,2429
2448,307448,17088,-572,712,17112.39,31.45,-1.00,-1.0,2371
2450,307450,16976,-628,776,17005.33,31.45,-1.00,-1.0,2419
2453,307453,17176,-604,596,17196.95,31.45,-1.00,-1.0,2369
2456,307456,17160,-608,588,17180.83,31.45,-1.00,-1.0,2406
2459,307459,17028,-656,576,17050.36,31.40,-1.00,-1.0,2369
2461,307461,17176,-540,548,17193.22,31.45,-1.00,-1.0,2367
2466,307466,16964,-636,644,16988.13,31.35,-1.00,-1.0,2426
2469,307469,17152,-704,736,17182.21,31.35,-1.00,-1.0,2374
2472,307472,17044,-556,720,17068.26,31.54,-1.00,-1.0,2428
2475,307475,17060,-644,624,17083.55,31.45,-1.00,-1.0,2369
2477,307477,17044,-632,712,17070.57,31.45,-1.00,-1.0,2419
2480,307480,17012,-748,652,17040.91,31.35,-1.00,-1.0,2370
2483,307483,17120,-596,596,17140.74,31.35,-1.00,-1.0,2419
2486,307486,17120,-596,720,17145.50,31.35,-1.00,-1.0,2369
2488,307488,17048,-696,688,17076.07,31.40,-1.00,-1.0,2370
2493,307493,17028,-576,732,17053.46,31.35,-1.00,-1.0,2427
2496,307496,17044,-572,648,17065.90,31.45,-1.00,-1.0,2370
2499,307499,17128,-612,556,17147.95,31.40,-1.00,-1.0,2430
2502,307502,17032,-636,660,17056.64,31.35,-1.00,-1.0,2369
2504,307504,17076,-692,600,17100.54,31.40,-1.00,-1.0,2419
2507,307507,17004,-636,616,17027.04,31.45,-1.00,-1.0,2370
2510,307510,17052,-632,604,17074.39,31.49,-1.00,-1.0,2419
2513,307513,17052,-700,816,17085.86,31.45,-1.00,-1.0,2372
2518,307518,17044,-556,844,17073.94,31.35,-1.00,-1.0,2426
2520,307520,17064,-708,660,17091.43,31.45,-1.00,-1.0,2378
2523,307523,17064,-592,728,17089.78,31.31,-1.00,-1.0,2365
2526,307526,17056,-648,688,17082.17,31.40,-1.00,-1.0,2435
2528,307528,17144,-664,812,17176.06,31.40,-1.00,-1.0,2371
2531,307531,17052,-612,736,17078.85,31.45,-1.00,-1.0,2432
2534,307534,17076,-712,588,17100.95,31.40,-1.00,-1.0,2370
2537,307537,17108,-604,624,17130.03,31.40,-1.00,-1.0,2426
2539,307539,17108,-660,596,17131.10,31.49,-1.00,-1.0,2369
2544,307544,16956,-584,792,16984.53,31.40,-1.00,-1.0,2431
2547,307547,17048,-524,712,17070.91,31.40,-1.00,-1.0,2370
2550,307550,17068,-700,728,17097.85,31.40,-1.00,-1.0,2428
2553,307553,17120,-592,704,17144.69,31.40,-1.00,-1.0,2377
2555,307555,16980,-644,664,17005.18,31.35,-1.00,-1.0,2374
2558,307558,17104,-664,592,17127.12,31.40,-1.00,-1.0,2419
2561,307561,17096,-584,584,17115.94,31.35,-1.00,-1.0,2369
2564,307564,17072,-648,704,17098.79,31.49,-1.00,-1.0,2421
2566,307566,17036,-604,828,17066.80,31.45,-1.00,-1.0,2367
2572,307572,17160,-632,740,17187.57,31.35,-1.00,-1.0,2440
2575,307575,17080,-668,684,17106.74,31.31,-1.00,-1.0,2378
2578,307578,17012,-620,792,17041.71,31.45,-1.00,-1.0,2439
2580,307580,17044,-624,880,17078.11,31.35,-1.00,-1.0,2376
2583,307583,17068,-628,828,17099.61,31.40,-1.00,-1.0,2419
2586,307586,17088,-624,780,17117.17,31.45,-1.00,-1.0,2370
2588,307588,17088,-564,748,17113.66,31.40,-1.00,-1.0,2366
2591,307591,16984,-596,620,17005.76,31.40,-1.00,-1.0,2420
2594,307594,16988,-596,572,17008.07,31.40,-1.00,-1.0,2369
2599,307599,17000,-624,696,17025.68,31.49,-1.00,-1.0,2426
2601,307601,17008,-608,816,17038.41,31.35,-1.00,-1.0,2378
2604,307604,17124,-720,812,17158.35,31.40,-1.00,-1.0,2428
2607,307607,16956,-592,812,16985.75,31.49,-1.00,-1.0,2370
2610,307610,17028,-656,696,17054.84,31.40,-1.00,-1.0,2421
2612,307612,17004,-664,624,17028.40,31.40,-1.00,-1.0,2353
2615,307615,17004,-676,620,17028.72,31.49,-1.00,-1.0,2419
2618,307618,16992,-632,636,17015.64,31.40,-1.00,-1.0,2370
2621,307621,17108,-560,736,17132.98,31.35,-1.00,-1.0,2369
2626,307626,16964,-672,784,16995.40,31.49,-1.00,-1.0,2416
2628,307628,16928,-612,664,16952.07,31.40,-1.00,-1.0,2373
2631,307631,17088,-616,736,17114.93,31.35,-1.00,-1.0,2432
2634,307634,17060,-696,724,17089.54,31.35,-1.00,-1.0,2370
2637,307637,16964,-556,668,16986.25,31.45,-1.00,-1.0,2426
2639,307639,17120,-632,544,17140.30,31.45,-1.00,-1.0,2371
2642,307642,17036,-568,492,17052.56,31.45,-1.00,-1.0,2432
2645,307645,17144,-648,576,17165.91,31.35,-1.00,-1.0,2369
2650,307650,17068,-688,676,17095.23,31.40,-1.00,-1.0,2426
2653,307653,17108,-628,732,17135.16,31.40,-1.00,-1.0,2371
2655,307655,17060,-664,592,17083.18,31.45,-1.00,-1.0,2367
2658,307658,17108,-640,664,17132.84,31.40,-1.00,-1.0,2443
2661,307661,17036,-608,776,17064.50,31.35,-1.00,-1.0,2377
2664,307664,17068,-720,828,17103.23,31.40,-1.00,-1.0,2431
2666,307666,17052,-632,712,17078.56,31.40,-1.00,-1.0,2379
2669,307669,17048,-600,840,17079.22,31.31,-1.00,-1.0,2420
2672,307672,16932,-560,684,16955.06,31.45,-1.00,-1.0,2356
2677,307677,17076,-652,680,17101.97,31.35,-1.00,-1.0,2437
2679,307679,17096,-528,612,17115.10,31.45,-1.00,-1.0,2370
2682,307682,17108,-612,732,17134.59,31.40,-1.00,-1.0,2371
2685,307685,17052,-700,632,17078.06,31.40,-1.00,-1.0,2428
2688,307688,17056,-708,664,17083.60,31.40,-1.00,-1.0,2370
2690,307690,17024,-592,636,17046.16,31.45,-1.00,-1.0,2419
2693,307693,17072,-588,624,17093.52,31.40,-1.00,-1.0,2369
2696,307696,17112,-600,620,17133.74,31.31,-1.00,-1.0,2406
2699,307699,17036,-632,580,17057.58,31.40,-1.00,-1.0,2369
2704,307704,17048,-672,624,17072.65,31.40,-1.00,-1.0,2426
2706,307706,17048,-612,652,17071.44,31.40,-1.00,-1.0,2378
2709,307709,17072,-668,592,17095.32,31.35,-1.00,-1.0,2429
2712,307712,17044,-508,636,17063.43,31.40,-1.00,-1.0,2370
2714,307714,17136,-664,616,17159.92,31.45,-1.00,-1.0,2366
2717,307717,17012,-664,596,17035.38,31.49,-1.00,-1.0,2427
2720,307720,16964,-644,616,16987.39,31.45,-1.00,-1.0,2370
2723,307723,17104,-684,792,17135.98,31.40,-1.00,-1.0,2425
2726,307726,16944,-544,772,16970.30,31.45,-1.00,-1.0,2370
2731,307731,17044,-652,592,17066.74,31.40,-1.00,-1.0,2427
2733,307733,17144,-508,592,17161.74,31.40,-1.00,-1.0,2373
2736,307736,17088,-472,704,17109.01,31.45,-1.00,-1.0,2428
2739,307739,17064,-612,760,17091.88,31.35,-1.00,-1.0,2370
2742,307742,17008,-444,684,17027.54,31.35,-1.00,-1.0,2421
2744,307744,17088,-612,692,17112.95,31.45,-1.00,-1.0,2366
2747,307747,17088,-624,688,17113.22,31.45,-1.00,-1.0,2365
2750,307750,17028,-608,564,17048.18,31.40,-1.00,-1.0,2426
2753,307753,17028,-656,720,17055.84,31.45,-1.00,-1.0,2377
2758,307758,17104,-668,744,17133.20,31.35,-1.00,-1.0,2427
2760,307760,17120,-576,624,17141.05,31.45,-1.00,-1.0,2371
2763,307763,17132,-664,844,17165.62,31.45,-1.00,-1.0,2428
2766,307766,16980,-680,524,17001.69,31.40,-1.00,-1.0,2422
2769,307769,17096,-536,732,17120.06,31.35,-1.00,-1.0,2413
2772,307772,17072,-560,708,17095.85,31.49,-1.00,-1.0,2377
2774,307774,17020,-604,780,17048.57,31.26,-1.00,-1.0,2412
2777,307777,16984,-536,664,17005.42,31.35,-1.00,-1.0,2377
2780,307780,17140,-672,668,17166.17,31.40,-1.00,-1.0,2373
2785,307785,17076,-652,564,17097.75,31.40,-1.00,-1.0,2428
2787,307787,17060,-548,724,17084.15,31.40,-1.00,-1.0,2373
2790,307790,17080,-580,696,17104.01,31.49,-1.00,-1.0,2436
2793,307793,17068,-640,652,17092.44,31.49,-1.00,-1.0,2379
2796,307796,17040,-548,624,17060.22,31.31,-1.00,-1.0,2432
2798,307798,17176,-680,628,17200.92,31.49,-1.00,-1.0,2381
2801,307801,17048,-616,748,17075.52,31.35,-1.00,-1.0,2418
2804,307804,17124,-580,580,17143.63,31.49,-1.00,-1.0,2377
2808,307808,16980,-564,680,17002.97,31.40,-1.00,-1.0,2424
2811,307811,17036,-608,720,17062.04,31.35,-1.00,-1.0,2372
2814,307814,17044,-544,636,17064.54,31.40,-1.00,-1.0,2367
2817,307817,17008,-616,556,17028.23,31.35,-1.00,-1.0,2434
2819,307819,17076,-684,736,17105.54,31.45,-1.00,-1.0,2378
2822,307822,17108,-568,672,17130.61,31.45,-1.00,-1.0,2417
2825,307825,17072,-648,644,17096.43,31.35,-1.00,-1.0,2373
2828,307828,16964,-584,740,16990.17,31.45,-1.00,-1.0,2405
2831,307831,17128,-672,744,17157.32,31.40,-1.00,-1.0,2377
2836,307836,17112,-544,800,17139.33,31.40,-1.00,-1.0,2432
2838,307838,17088,-628,720,17114.69,31.31,-1.00,-1.0,2373
2841,307841,17120,-568,708,17144.04,31.35,-1.00,-1.0,2443
2844,307844,17104,-648,608,17127.07,31.40,-1.00,-1.0,2372
2847,307847,17016,-572,508,17033.19,31.35,-1.00,-1.0,2366
2849,307849,17064,-552,736,17088.78,31.40,-1.00,-1.0,2416
2852,307852,17168,-732,668,17196.58,31.45,-1.00,-1.0,2372
2855,307855,16992,-560,676,17014.66,31.49,-1.00,-1.0,2416
2858,307858,17084,-588,744,17110.30,31.45,-1.00,-1.0,2375
2863,307863,17088,-668,692,17115.05,31.35,-1.00,-1.0,2430
2865,307865,17080,-624,756,17108.11,31.31,-1.00,-1.0,2373
2868,307868,16956,-640,680,16981.69,31.35,-1.00,-1.0,2436
2871,307871,17112,-576,668,17134.72,31.45,-1.00,-1.0,2385
2874,307874,17052,-652,680,17078.00,31.40,-1.00,-1.0,2366
2876,307876,17080,-728,632,17107.19,31.40,-1.00,-1.0,2416
2879,307879,17072,-528,740,17096.19,31.40,-1.00,-1.0,2372
2882,307882,17096,-548,736,17120.61,31.40,-1.00,-1.0,2416
2885,307885,17056,-716,632,17082.72,31.45,-1.00,-1.0,2372
2890,307890,17108,-616,688,17132.91,31.45,-1.00,-1.0,2427
2892,307892,17080,-540,720,17103.70,31.40,-1.00,-1.0,2376
2895,307895,17112,-636,572,17133.37,31.45,-1.00,-1.0,2433
2898,307898,17120,-680,600,17144.00,31.45,-1.00,-1.0,2380
2901,307901,17120,-524,760,17144.87,31.40,-1.00,-1.0,2419
2904,307904,17044,-652,692,17070.50,31.35,-1.00,-1.0,2373
2906,307906,17120,-600,612,17141.44,31.40,-1.00,-1.0,2370
2909,307909,17108,-588,796,17136.60,31.45,-1.00,-1.0,2417
2912,307912,16980,-600,660,17003.41,31.49,-1.00,-1.0,2376
2917,307917,16988,-612,664,17011.98,31.40,-1.00,-1.0,2426
2920,307920,17084,-724,580,17109.17,31.45,-1.00,-1.0,2380
2922,307922,17020,-668,660,17045.89,31.49,-1.00,-1.0,2425
2925,307925,17008,-656,704,17035.20,31.40,-1.00,-1.0,2371
2928,307928,16984,-676,668,17010.57,31.40,-1.00,-1.0,2403
2931,307931,16904,-696,748,16934.85,31.54,-1.00,-1.0,2373
2933,307933,17188,-780,704,17220.09,31.40,-1.00,-1.0,2416
2936,307936,16992,-640,580,17013.94,31.35,-1.00,-1.0,2362
2939,307939,17080,-576,744,17105.90,31.40,-1.00,-1.0,2366
2944,307944,17000,-600,752,17027.20,31.40,-1.00,-1.0,2425
2947,307947,17032,-564,656,17053.96,31.45,-1.00,-1.0,2381
2949,307949,17000,-628,556,17020.68,31.40,-1.00,-1.0,2426
2952,307952,17044,-764,704,17075.63,31.40,-1.00,-1.0,2372
2955,307955,17144,-596,616,17165.41,31.49,-1.00,-1.0,2416
2958,307958,17040,-664,644,17065.09,31.40,-1.00,-1.0,2372
2960,307960,17072,-636,708,17098.51,31.49,-1.00,-1.0,2416
2963,307963,17128,-636,764,17156.82,31.40,-1.00,-1.0,2372
2968,307968,17072,-624,668,17096.46,31.40,-1.00,-1.0,2432
2971,307971,17120,-616,736,17146.88,31.35,-1.00,-1.0,2360
2973,307973,17060,-632,616,17082.81,31.40,-1.00,-1.0,2365
2976,307976,17112,-656,740,17140.55,31.45,-1.00,-1.0,2429
2979,307979,17032,-616,764,17060.25,31.40,-1.00,-1.0,2372
2982,307982,17188,-624,740,17215.23,31.35,-1.00,-1.0,2424
2984,307984,17080,-632,672,17104.89,31.49,-1.00,-1.0,2371
2987,307987,16960,-556,492,16976.24,31.35,-1.00,-1.0,2419
2990,307990,17052,-640,684,17077.71,31.45,-1.00,-1.0,2373
2995,307995,17068,-568,752,17094.00,31.54,-1.00,-1.0,2432
2997,307997,17132,-688,696,17159.93,31.35,-1.00,-1.0,2377
3000,308000,17072,-660,720,17099.92,31.40,-1.00,-1.0,2436
3003,308003,17020,-564,824,17049.27,31.45,-1.00,-1.0,2379
3006,308006,17052,-588,680,17075.68,31.40,-1.00,-1.0,2366
3008,308008,17008,-660,624,17032.23,31.40,-1.00,-1.0,2416
3011,308011,17124,-708,696,17152.76,31.40,-1.00,-1.0,2372
3014,308014,17080,-612,652,17103.39,31.35,-1.00,-1.0,2417
3017,308017,17096,-628,688,17121.36,31.45,-1.00,-1.0,2372
3022,308022,17068,-684,728,17097.21,31.40,-1.00,-1.0,2424
3024,308024,17028,-588,684,17051.87,31.40,-1.00,-1.0,2375
3027,308027,17096,-596,760,17123.26,31.35,-1.00,-1.0,2426
3030,308030,17048,-660,672,17074.00,31.40,-1.00,-1.0,2373
3033,308033,17068,-660,720,17095.92,31.45,-1.00,-1.0,2424
3035,308035,17012,-652,632,17036.22,31.49,-1.00,-1.0,2371
3038,308038,17028,-576,672,17050.99,31.45,-1.00,-1.0,2365
3041,308041,17060,-688,712,17088.71,31.40,-1.00,-1.0,2432
3044,308044,16964,-680,788,16995.90,31.45,-1.00,-1.0,2372
3049,308049,17016,-624,660,17040.22,31.45,-1.00,-1.0,2424
3052,308052,17040,-724,588,17065.51,31.45,-1.00,-1.0,2372
3055,308055,17024,-572,752,17050.20,31.35,-1.00,-1.0,2434
3057,308057,16992,-560,624,17012.67,31.40,-1.00,-1.0,2375
3060,308060,17048,-656,560,17069.80,31.35,-1.00,-1.0,2418
3063,308063,17080,-576,644,17101.84,31.35,-1.00,-1.0,2372
3065,308065,17128,-580,688,17151.62,31.40,-1.00,-1.0,2367
3068,308068,16984,-572,852,17014.97,31.40,-1.00,-1.0,2423
3071,308071,17040,-604,780,17068.53,31.40,-1.00,-1.0,2379
3076,308076,16988,-628,760,17016.58,31.31,-1.00,-1.0,2425
3079,308079,17056,-616,644,17079.27,31.35,-1.00,-1.0,2381
3081,308081,17076,-608,552,17095.73,31.31,-1.00,-1.0,2425
3084,308084,17040,-568,772,17066.93,31.40,-1.00,-1.0,2373
3087,308087,17088,-580,680,17111.36,31.40,-1.00,-1.0,2431
3090,308090,16992,-556,760,17018.07,31.40,-1.00,-1.0,2374
3093,308093,16988,-520,940,17021.93,31.40,-1.00,-1.0,2429
3095,308095,17116,-560,676,17138.50,31.40,-1.00,-1.0,2373
3098,308098,16976,-668,564,16998.50,31.49,-1.00,-1.0,2386
3103,308103,17060,-556,680,17082.60,31.40,-1.00,-1.0,2424
3106,308106,17044,-612,652,17067.44,31.40,-1.00,-1.0,2384
3109,308109,17184,-600,576,17204.12,31.40,-1.00,-1.0,2437
3111,308111,17048,-520,608,17066.76,31.40,-1.00,-1.0,2374
3114,308114,17132,-652,720,17159.51,31.35,-1.00,-1.0,2426
3117,308117,16996,-704,668,17023.69,31.40,-1.00,-1.0,2380
3120,308120,17048,-632,652,17072.17,31.35,-1.00,-1.0,2426
3122,308122,17104,-592,724,17129.55,31.40,-1.00,-1.0,2381
3127,308127,17016,-700,556,17039.46,31.40,-1.00,-1.0,2437
3130,308130,17100,-596,772,17127.79,31.49,-1.00,-1.0,2369
3133,308133,17044,-512,492,17058.79,31.45,-1.00,-1.0,2366
3135,308135,17052,-628,840,17084.22,31.35,-1.00,-1.0,2426
3138,308138,17072,-640,684,17097.68,31.45,-1.00,-1.0,2372
3141,308141,17048,-592,748,17074.67,31.35,-1.00,-1.0,2419
3144,308144,17056,-560,832,17085.46,31.35,-1.00,-1.0,2373
3146,308146,17080,-592,896,17113.73,31.31,-1.00,-1.0,2417
3149,308149,17092,-716,696,17121.14,31.45,-1.00,-1.0,2372
3154,308154,17116,-592,560,17135.39,31.45,-1.00,-1.0,2434
3157,308157,16976,-604,772,17004.28,31.45,-1.00,-1.0,2377
3160,308160,16964,-628,604,16986.36,31.35,-1.00,-1.0,2429
3162,308162,17032,-520,592,17050.22,31.45,-1.00,-1.0,2375
3165,308165,17064,-764,732,17096.77,31.49,-1.00,-1.0,2365
3168,308168,17084,-676,612,17108.32,31.40,-1.00,-1.0,2427
3170,308170,17172,-532,816,17199.61,31.40,-1.00,-1.0,2370
3173,308173,17100,-680,580,17123.34,31.40,-1.00,-1.0,2417
3176,308176,17032,-560,824,17061.11,31.45,-1.00,-1.0,2372
3181,308181,17028,-628,652,17052.05,31.45,-1.00,-1.0,2432
3184,308184,17112,-684,620,17136.88,31.35,-1.00,-1.0,2376
3187,308187,17128,-644,644,17152.20,31.35,-1.00,-1.0,2427
3189,308189,17200,-568,780,17227.04,31.45,-1.00,-1.0,2379
3192,308192,17004,-632,784,17033.79,31.40,-1.00,-1.0,2416
3195,308195,17012,-592,592,17032.59,31.54,-1.00,-1.0,2375
3197,308197,17092,-624,628,17114.91,31.49,-1.00,-1.0,2366
3200,308200,17028,-676,584,17051.42,31.40,-1.00,-1.0,2418
3203,308203,17088,-584,560,17107.14,31.40,-1.00,-1.0,2372
3208,308208,16992,-572,616,17012.78,31.40,-1.00,-1.0,2424
3211,308211,17048,-532,640,17068.30,31.40,-1.00,-1.0,2374
3213,308213,17124,-580,680,17147.31,31.40,-1.00,-1.0,2418
3216,308216,17032,-516,632,17051.53,31.40,-1.00,-1.0,2372
3219,308219,17052,-628,632,17075.26,31.35,-1.00,-1.0,2423
3222,308222,16920,-680,660,16946.52,31.31,-1.00,-1.0,2379
3224,308224,17028,-668,724,17056.47,31.35,-1.00,-1.0,2416
3227,308227,17104,-624,692,17129.36,31.40,-1.00,-1.0,2372
3230,308230,17060,-484,684,17080.56,31.49,-1.00,-1.0,2352
3235,308235,17004,-588,636,17026.05,31.45,-1.00,-1.0,2427
3237,308237,17128,-612,572,17148.47,31.35,-1.00,-1.0,2374
3240,308240,17040,-644,672,17065.40,31.40,-1.00,-1.0,2428
3243,308243,17008,-644,616,17031.33,31.45,-1.00,-1.0,2388
3246,308246,17104,-704,672,17131.67,31.40,-1.00,-1.0,2419
3249,308249,17140,-664,772,17170.22,31.35,-1.00,-1.0,2374
3251,308251,16932,-632,776,16961.55,31.40,-1.00,-1.0,2419
3254,308254,17084,-580,648,17106.12,31.40,-1.00,-1.0,2372
3257,308257,17036,-528,708,17058.88,31.49,-1.00,-1.0,2366
3262,308262,17000,-672,820,17033.03,31.31,-1.00,-1.0,2425
3265,308265,17052,-632,704,17078.22,31.40,-1.00,-1.0,2375
3268,308268,17100,-692,752,17130.51,31.31,-1.00,-1.0,2433
3270,308270,17072,-684,792,17104.04,31.40,-1.00,-1.0,2368
3273,308273,17108,-576,608,17128.49,31.40,-1.00,-1.0,2418
3276,308276,17004,-644,772,17033.69,31.40,-1.00,-1.0,2359
3279,308279,17152,-696,676,17179.42,31.40,-1.00,-1.0,2423
3281,308281,17012,-496,600,17029.80,31.31,-1.00,-1.0,2370
3286,308286,17064,-568,696,17087.63,31.40,-1.00,-1.0,2427
3289,308289,17012,-640,640,17036.06,31.40,-1.00,-1.0,2374
3292,308292,17104,-628,772,17132.93,31.35,-1.00,-1.0,2373
3294,308294,17020,-616,608,17041.99,31.45,-1.00,-1.0,2426
3297,308297,17128,-648,588,17150.34,31.40,-1.00,-1.0,2372
3300,308300,17104,-588,524,17122.12,31.45,-1.00,-1.0,2424
3303,308303,16968,-520,740,16992.09,31.40,-1.00,-1.0,2416
3306,308306,17160,-656,752,17188.99,31.45,-1.00,-1.0,2438
3308,308308,17048,-620,692,17073.30,31.45,-1.00,-1.0,2371
3313,308313,17076,-704,744,17106.69,31.49,-1.00,-1.0,2427
3316,308316,17100,-656,620,17123.81,31.40,-1.00,-1.0,2370
3319,308319,17028,-632,764,17056.84,31.35,-1.00,-1.0,2430
3322,308322,17008,-632,752,17036.34,31.31,-1.00,-1.0,2374
3324,308324,17112,-580,720,17136.96,31.45,-1.00,-1.0,2370
3327,308327,17044,-664,724,17072.29,31.40,-1.00,-1.0,2433
3330,308330,17108,-688,652,17134.24,31.45,-1.00,-1.0,2377
3333,308333,17008,-660,744,17037.05,31.31,-1.00,-1.0,2435
3335,308335,17060,-584,612,17080.96,31.40,-1.00,-1.0,2379
3340,308340,17076,-600,596,17096.93,31.40,-1.00,-1.0,2430
3343,308343,17040,-644,592,17062.44,31.35,-1.00,-1.0,2366
3346,308346,17144,-592,736,17170.00,31.40,-1.00,-1.0,2438
3348,308348,17076,-708,736,17106.51,31.35,-1.00,-1.0,2365
3351,308351,16904,-652,612,16927.64,31.40,-1.00,-1.0,2432
3354,308354,16976,-604,696,17000.99,31.35,-1.00,-1.0,2366
3357,308357,17056,-680,772,17087.00,31.40,-1.00,-1.0,2366
3359,308359,17044,-596,732,17070.12,31.35,-1.00,-1.0,2420
3362,308362,17196,-616,552,17215.88,31.31,-1.00,-1.0,2377
3367,308367,17036,-544,536,17053.11,31.40,-1.00,-1.0,2435
3370,308370,17012,-596,880,17045.17,31.49,-1.00,-1.0,2377
3373,308373,16976,-600,636,16998.50,31.40,-1.00,-1.0,2428
3376,308376,17088,-548,644,17108.91,31.40,-1.00,-1.0,2373
3378,308378,17092,-644,776,17121.72,31.40,-1.00,-1.0,2421
3381,308381,17140,-632,672,17164.81,31.40,-1.00,-1.0,2384
3384,308384,17080,-664,808,17111.99,31.35,-1.00,-1.0,2419
3387,308387,17024,-692,660,17050.84,31.49,-1.00,-1.0,2369
3389,308389,16960,-608,748,16987.37,31.40,-1.00,-1.0,2374
3394,308394,17096,-604,648,17118.94,31.40,-1.00,-1.0,2434
3397,308397,17068,-568,764,17094.53,31.31,-1.00,-1.0,2385
3400,308400,17092,-632,660,17116.41,31.45,-1.00,-1.0,2428
3403,308403,17012,-648,736,17040.24,31.40,-1.00,-1.0,2371
3405,308405,17100,-664,800,17131.58,31.45,-1.00,-1.0,2420
3408,308408,17132,-572,628,17153.05,31.31,-1.00,-1.0,2372
3411,308411,17052,-672,668,17078.30,31.45,-1.00,-1.0,2420
3414,308414,17088,-616,668,17112.14,31.40,-1.00,-1.0,2368
3419,308419,17064,-600,640,17086.54,31.35,-1.00,-1.0,2423
3422,308422,16964,-444,800,16988.66,31.45,-1.00,-1.0,2372
3424,308424,17008,-656,680,17034.22,31.40,-1.00,-1.0,2364
3427,308427,17064,-680,628,17089.09,31.40,-1.00,-1.0,2439
3430,308430,17048,-584,504,17065.44,31.40,-1.00,-1.0,2376
3433,308433,17020,-616,532,17039.45,31.35,-1.00,-1.0,2409
3435,308435,17156,-676,608,17180.07,31.49,-1.00,-1.0,2369
3438,308438,17016,-556,728,17040.64,31.45,-1.00,-1.0,2429
3441,308441,17096,-620,524,17115.26,31.40,-1.00,-1.0,2374
3446,308446,17096,-616,560,17116.26,31.40,-1.00,-1.0,2435
3448,308448,17096,-624,588,17117.49,31.35,-1.00,-1.0,2370
3451,308451,16996,-696,832,17030.58,31.40,-1.00,-1.0,2379
3454,308454,17064,-616,684,17088.81,31.35,-1.00,-1.0,2432
3457,308457,17032,-500,716,17054.38,31.45,-1.00,-1.0,2372
3459,308459,17056,-580,628,17077.41,31.40,-1.00,-1.0,2460
3462,308462,17088,-660,756,17117.44,31.40,-1.00,-1.0,2369
3465,308465,16988,-688,808,17021.12,31.31,-1.00,-1.0,2438
3468,308468,17104,-640,660,17128.69,31.40,-1.00,-1.0,2375
3473,308473,17100,-612,712,17125.76,31.49,-1.00,-1.0,2414
3475,308475,17016,-676,584,17039.43,31.49,-1.00,-1.0,2371
3478,308478,17064,-652,728,17091.96,31.49,-1.00,-1.0,2430
3481,308481,17060,-576,624,17081.12,31.31,-1.00,-1.0,2371
3484,308484,17120,-616,668,17144.10,31.54,-1.00,-1.0,2370
3486,308486,17076,-700,632,17102.02,31.45,-1.00,-1.0,2423
3489,308489,17000,-632,516,17019.57,31.40,-1.00,-1.0,2377
3492,308492,17004,-596,704,17029.00,31.35,-1.00,-1.0,2420
3495,308495,16936,-676,552,16958.47,31.45,-1.00,-1.0,2374
3500,308500,17056,-580,644,17078.01,31.40,-1.00,-1.0,2435
3502,308502,17008,-720,772,17040.73,31.40,-1.00,-1.0,2371
3505,308505,17072,-668,684,17098.75,31.35,-1.00,-1.0,2443
3508,308508,17032,-676,780,17063.25,31.49,-1.00,-1.0,2370
3511,308511,17008,-680,600,17032.16,31.35,-1.00,-1.0,2428
3513,308513,17012,-648,544,17033.03,31.40,-1.00,-1.0,2370
3516,308516,17080,-584,764,17107.05,31.45,-1.00,-1.0,2367
3519,308519,17044,-600,828,17074.65,31.49,-1.00,-1.0,2407
3522,308522,16908,-584,616,16929.29,31.45,-1.00,-1.0,2370
3527,308527,17052,-640,600,17074.55,31.45,-1.00,-1.0,2433
3529,308529,17076,-552,780,17102.71,31.45,-1.00,-1.0,2375
3532,308532,17024,-556,696,17047.29,31.35,-1.00,-1.0,2439
3535,308535,17024,-616,616,17046.28,31.45,-1.00,-1.0,2373
3538,308538,17024,-560,656,17045.84,31.45,-1.00,-1.0,2430
3540,308540,17036,-688,804,17068.83,31.35,-1.00,-1.0,2379
3543,308543,17084,-628,708,17110.19,31.40,-1.00,-1.0,2420
3546,308546,16940,-620,764,16968.55,31.45,-1.00,-1.0,2374
3548,308548,17124,-652,688,17150.21,31.35,-1.00,-1.0,2367
3553,308553,17092,-632,692,17117.67,31.49,-1.00,-1.0,2414
3556,308556,17056,-612,652,17079.43,31.40,-1.00,-1.0,2371
3559,308559,16992,-612,836,17023.56,31.40,-1.00,-1.0,2430
3562,308562,16948,-656,676,16974.16,31.49,-1.00,-1.0,2370
3564,308564,17020,-576,712,17044.62,31.45,-1.00,-1.0,2421
3567,308567,17084,-540,664,17105.42,31.40,-1.00,-1.0,2357
3570,308570,17116,-564,732,17140.93,31.40,-1.00,-1.0,2420
3573,308573,17036,-608,748,17063.25,31.40,-1.00,-1.0,2370
3578,308578,17004,-560,664,17026.17,31.40,-1.00,-1.0,2428
3580,308580,17080,-676,708,17108.03,31.45,-1.00,-1.0,2378
3583,308583,17060,-564,744,17085.53,31.40,-1.00,-1.0,2365
3586,308586,17032,-600,748,17058.97,31.35,-1.00,-1.0,2437
3588,308588,17020,-632,608,17042.58,31.49,-1.00,-1.0,2365
3591,308591,17120,-620,656,17143.78,31.45,-1.00,-1.0,2420
3594,308594,17048,-636,600,17070.41,31.31,-1.00,-1.0,2371
3597,308597,17100,-532,600,17118.79,31.45,-1.00,-1.0,2429
3600,308600,17092,-508,612,17110.50,31.45,-1.00,-1.0,2368
3604,308604,17056,-592,768,17083.54,31.45,-1.00,-1.0,2428
3607,308607,17044,-572,680,17067.15,31.45,-1.00,-1.0,2367
3610,308610,17060,-604,692,17084.71,31.45,-1.00,-1.0,2438
3613,308613,17008,-652,736,17036.40,31.45,-1.00,-1.0,2377
3615,308615,17096,-580,704,17120.32,31.40,-1.00,-1.0,2376
3618,308618,17056,-716,684,17084.72,31.49,-1.00,-1.0,2420
3621,308621,17040,-756,664,17069.68,31.40,-1.00,-1.0,2369
3624,308624,17148,-580,632,17169.44,31.40,-1.00,-1.0,2422
3627,308627,17040,-660,700,17067.14,31.40,-1.00,-1.0,2364
3631,308631,17124,-556,748,17149.34,31.40,-1.00,-1.0,2416
3634,308634,17100,-688,748,17130.17,31.49,-1.00,-1.0,2374
3637,308637,17024,-644,616,17047.31,31.31,-1.00,-1.0,2424
3640,308640,16996,-576,492,17012.87,31.40,-1.00,-1.0,2370
3642,308642,17128,-532,672,17149.43,31.40,-1.00,-1.0,2353
3645,308645,17136,-612,772,17164.29,31.45,-1.00,-1.0,2428
3648,308648,17148,-724,588,17173.35,31.35,-1.00,-1.0,2370
3651,308651,17044,-624,668,17068.50,31.40,-1.00,-1.0,2422
3654,308654,17060,-604,672,17083.91,31.49,-1.00,-1.0,2372
3658,308658,17056,-676,788,17087.57,31.45,-1.00,-1.0,2432
3661,308661,17180,-664,700,17207.07,31.35,-1.00,-1.0,2371
3664,308664,17080,-680,680,17107.05,31.40,-1.00,-1.0,2439
3666,308666,17120,-672,612,17144.11,31.45,-1.00,-1.0,2369
3669,308669,17072,-580,580,17091.69,31.49,-1.00,-1.0,2429
3672,308672,17044,-544,668,17065.76,31.31,-1.00,-1.0,2378
3675,308675,17024,-648,644,17048.50,31.49,-1.00,-1.0,2367
3678,308678,17036,-680,600,17060.12,31.45,-1.00,-1.0,2422
3681,308681,17020,-636,608,17042.73,31.40,-1.00,-1.0,2368
3686,308686,17112,-676,672,17138.53,31.49,-1.00,-1.0,2429
3688,308688,16988,-584,760,17015.02,31.40,-1.00,-1.0,2377
3691,308691,17140,-548,656,17161.30,31.45,-1.00,-1.0,2430
3694,308694,17092,-596,652,17114.81,31.49,-1.00,-1.0,2358
3697,308697,17052,-636,716,17078.87,31.35,-1.00,-1.0,2421
3699,308699,17088,-616,740,17115.10,31.31,-1.00,-1.0,2374
3702,308702,17112,-748,740,17144.32,31.35,-1.00,-1.0,2420
3705,308705,17024,-644,676,17049.58,31.40,-1.00,-1.0,2371
3708,308708,17128,-572,632,17149.20,31.35,-1.00,-1.0,2367
3713,308713,17096,-604,700,17120.98,31.45,-1.00,-1.0,2428
3715,308715,17096,-640,632,17119.64,31.40,-1.00,-1.0,2378
3718,308718,17140,-700,696,17168.40,31.54,-1.00,-1.0,2430
3721,308721,17080,-656,748,17108.95,31.40,-1.00,-1.0,2371
3724,308724,17156,-652,664,17181.22,31.45,-1.00,-1.0,2422
3726,308726,17096,-632,568,17117.10,31.45,-1.00,-1.0,2356
3729,308729,17052,-548,632,17072.51,31.35,-1.00,-1.0,2420
3732,308732,17076,-588,728,17101.62,31.40,-1.00,-1.0,2372
3737,308737,17044,-740,712,17074.91,31.40,-1.00,-1.0,2417
3739,308739,16948,-644,664,16973.22,31.40,-1.00,-1.0,2374
3742,308742,17060,-632,684,17085.40,31.35,-1.00,-1.0,2365
3745,308745,17060,-560,752,17085.75,31.45,-1.00,-1.0,2430
3748,308748,17040,-580,752,17066.44,31.45,-1.00,-1.0,2374
3750,308750,17112,-620,832,17143.43,31.40,-1.00,-1.0,2419
3753,308753,17112,-668,716,17139.99,31.45,-1.00,-1.0,2370
3756,308756,17064,-556,568,17082.50,31.40,-1.00,-1.0,2420
3759,308759,16984,-636,756,17012.71,31.40,-1.00,-1.0,2378
3764,308764,17136,-632,796,17166.12,31.54,-1.00,-1.0,2435
3766,308766,17008,-732,704,17038.29,31.45,-1.00,-1.0,2372
3769,308769,17080,-680,644,17105.66,31.49,-1.00,-1.0,2431
3772,308772,17000,-504,548,17016.29,31.35,-1.00,-1.0,2371
3775,308775,17148,-504,716,17170.34,31.49,-1.00,-1.0,2372
3777,308777,16992,-616,668,17016.28,31.64,-1.00,-1.0,2427
3780,308780,16984,-664,636,17008.87,31.40,-1.00,-1.0,2384
3783,308783,17060,-588,720,17085.31,31.45,-1.00,-1.0,2421
3786,308786,17048,-760,676,17078.32,31.40,-1.00,-1.0,2373
3791,308791,17028,-652,640,17052.49,31.49,-1.00,-1.0,2435
3793,308793,17120,-672,636,17144.98,31.40,-1.00,-1.0,2371
3796,308796,17100,-520,764,17124.96,31.40,-1.00,-1.0,2424
3799,308799,17060,-644,596,17082.55,31.40,-1.00,-1.0,2370
3802,308802,17124,-708,772,17156.01,31.49,-1.00,-1.0,2437
3804,308804,17088,-552,692,17110.91,31.40,-1.00,-1.0,2357
3807,308807,17052,-560,716,17076.21,31.45,-1.00,-1.0,2380
3810,308810,17100,-624,712,17126.19,31.35,-1.00,-1.0,2420
3813,308813,16960,-700,820,16994.23,31.40,-1.00,-1.0,2376
3818,308818,17088,-584,676,17111.33,31.49,-1.00,-1.0,2414
3820,308820,17072,-568,700,17095.78,31.40,-1.00,-1.0,2370
3823,308823,17048,-596,640,17070.42,31.40,-1.00,-1.0,2424
3826,308826,17212,-600,560,17231.56,31.40,-1.00,-1.0,2369
3829,308829,17112,-636,720,17138.95,31.40,-1.00,-1.0,2434
3831,308831,17060,-648,528,17080.46,31.40,-1.00,-1.0,2369
3834,308834,17040,-612,648,17063.29,31.45,-1.00,-1.0,2369
3837,308837,17096,-660,688,17122.56,31.35,-1.00,-1.0,2423
3840,308840,17112,-632,692,17137.64,31.40,-1.00,-1.0,2373
3845,308845,17132,-520,712,17154.67,31.45,-1.00,-1.0,2430
3847,308847,16984,-616,668,17008.29,31.45,-1.00,-1.0,2378
3850,308850,16988,-504,848,17016.62,31.49,-1.00,-1.0,2430
3853,308853,17200,-648,724,17227.42,31.54,-1.00,-1.0,2375
3856,308856,17000,-476,648,17019.00,31.40,-1.00,-1.0,2422
3858,308858,17132,-636,556,17152.81,31.45,-1.00,-1.0,2369
3861,308861,17012,-668,700,17039.49,31.40,-1.00,-1.0,2420
3864,308864,17040,-700,732,17070.07,31.45,-1.00,-1.0,2373
3867,308867,17004,-576,872,17036.08,31.45,-1.00,-1.0,2368
3871,308871,17120,-604,660,17143.36,31.49,-1.00,-1.0,2428
3874,308874,16964,-704,672,16991.89,31.49,-1.00,-1.0,2370
3877,308877,17004,-620,640,17027.33,31.45,-1.00,-1.0,2422
3880,308880,17080,-672,620,17104.46,31.40,-1.00,-1.0,2376
3882,308882,17100,-552,712,17123.72,31.35,-1.00,-1.0,2427
3885,308885,17028,-476,772,17052.14,31.40,-1.00,-1.0,2370
3888,308888,17060,-664,720,17088.09,31.45,-1.00,-1.0,2420
3891,308891,17004,-580,628,17025.47,31.35,-1.00,-1.0,2372
3896,308896,17016,-604,632,17038.44,31.45,-1.00,-1.0,2415
3898,308898,17060,-616,712,17085.96,31.35,-1.00,-1.0,2375
3901,308901,16984,-608,708,17009.62,31.31,-1.00,-1.0,2366
3904,308904,17072,-688,652,17098.29,31.40,-1.00,-1.0,2431
3907,308907,17044,-596,756,17071.17,31.40,-1.00,-1.0,2373
3909,308909,17012,-568,680,17035.06,31.45,-1.00,-1.0,2420
3912,308912,17060,-648,720,17087.48,31.40,-1.00,-1.0,2370
3915,308915,17076,-568,744,17101.63,31.45,-1.00,-1.0,2420
3918,308918,17040,-592,836,17070.76,31.40,-1.00,-1.0,2372
3923,308923,17040,-576,684,17063.45,31.45,-1.00,-1.0,2443
3926,308926,17056,-456,780,17079.91,31.35,-1.00,-1.0,2380
3929,308929,17044,-664,724,17072.29,31.40,-1.00,-1.0,2444
3931,308931,17016,-664,848,17050.05,31.45,-1.00,-1.0,2380
3934,308934,17028,-596,712,17053.30,31.40,-1.00,-1.0,2365
3937,308937,17040,-572,588,17059.73,31.49,-1.00,-1.0,2427
3939,308939,17012,-616,580,17033.03,31.40,-1.00,-1.0,2369
3942,308942,17072,-632,616,17094.80,31.45,-1.00,-1.0,2422
3945,308945,16972,-684,516,16993.61,31.40,-1.00,-1.0,2373
3950,308950,17032,-568,640,17053.48,31.49,-1.00,-1.0,2428
3953,308953,17048,-636,660,17072.62,31.40,-1.00,-1.0,2372
3955,308955,16996,-668,588,17019.28,31.40,-1.00,-1.0,2422
3958,308958,17136,-564,660,17157.98,31.40,-1.00,-1.0,2372
3961,308961,17048,-636,636,17071.71,31.49,-1.00,-1.0,2428
3964,308964,17164,-604,592,17184.82,31.40,-1.00,-1.0,2370
3966,308966,16996,-624,700,17021.85,31.35,-1.00,-1.0,2369
3969,308969,17156,-668,752,17185.46,31.35,-1.00,-1.0,2428
3972,308972,17024,-644,572,17045.78,31.45,-1.00,-1.0,2370
3977,308977,17132,-584,728,17157.40,31.49,-1.00,-1.0,2428
3980,308980,17032,-568,540,17050.02,31.49,-1.00,-1.0,2373
3982,308982,17080,-668,652,17105.49,31.40,-1.00,-1.0,2422
3985,308985,17152,-676,636,17177.09,31.40,-1.00,-1.0,2373
3988,308988,16988,-656,656,17013.31,31.45,-1.00,-1.0,2427
3991,308991,16972,-632,760,17000.76,31.49,-1.00,-1.0,2370
3993,308993,17016,-700,664,17043.33,31.35,-1.00,-1.0,2420
3996,308996,17140,-644,672,17165.25,31.40,-1.00,-1.0,2370
3999,308999,17040,-640,600,17062.57,31.45,-1.00,-1.0,2370
4004,309004,17008,-676,656,17034.06,31.45,-1.00,-1.0,2428
4007,309007,17128,-580,700,17152.11,31.49,-1.00,-1.0,2372
4009,309009,17004,-664,744,17033.22,31.35,-1.00,-1.0,2429
4012,309012,17124,-616,596,17145.44,31.45,-1.00,-1.0,2369
4015,309015,17120,-556,636,17140.83,31.45,-1.00,-1.0,2419
4018,309018,16992,-632,656,17016.40,31.40,-1.00,-1.0,2370
4020,309020,17008,-660,664,17033.75,31.45,-1.00,-1.0,2420
4023,309023,17076,-652,632,17100.12,31.35,-1.00,-1.0,2370
4026,309026,16980,-600,604,17001.33,31.49,-1.00,-1.0,2410
4031,309031,17036,-596,520,17054.35,31.40,-1.00,-1.0,2445
4034,309034,17004,-632,572,17025.35,31.31,-1.00,-1.0,2379
4037,309037,17080,-604,660,17103.42,31.40,-1.00,-1.0,2437
4039,309039,17020,-616,540,17039.70,31.49,-1.00,-1.0,2375
4042,309042,17048,-612,700,17073.34,31.45,-1.00,-1.0,2420
4045,309045,17020,-548,792,17047.23,31.40,-1.00,-1.0,2372
4048,309048,17004,-672,732,17033.01,31.49,-1.00,-1.0,2422
4050,309050,17080,-688,560,17103.02,31.40,-1.00,-1.0,2373
4055,309055,17040,-648,668,17065.40,31.35,-1.00,-1.0,2430
4058,309058,17052,-576,616,17072.84,31.35,-1.00,-1.0,2377
4060,309060,17040,-604,676,17064.10,31.49,-1.00,-1.0,2365
4063,309063,17072,-656,664,17097.50,31.49,-1.00,-1.0,2439
4066,309066,17052,-712,536,17075.27,31.40,-1.00,-1.0,2373
4069,309069,17060,-568,684,17083.15,31.40,-1.00,-1.0,2423
4071,309071,17072,-572,664,17094.48,31.49,-1.00,-1.0,2369
4074,309074,17088,-600,784,17116.49,31.40,-1.00,-1.0,2429
4077,309077,17088,-640,744,17116.16,31.40,-1.00,-1.0,2376
4082,309082,17040,-632,576,17061.44,31.35,-1.00,-1.0,2437
4084,309084,17076,-620,592,17097.50,31.45,-1.00,-1.0,2369
4087,309087,17040,-608,796,17069.41,31.40,-1.00,-1.0,2426
4090,309090,16972,-572,660,16994.46,31.35,-1.00,-1.0,2370
4093,309093,17128,-636,632,17151.45,31.40,-1.00,-1.0,2370
4095,309095,17028,-536,672,17049.68,31.45,-1.00,-1.0,2427
4098,309098,17080,-564,600,17099.84,31.45,-1.00,-1.0,2384
4101,309101,17056,-544,676,17078.06,31.54,-1.00,-1.0,2429
4104,309104,17092,-556,632,17112.71,31.35,-1.00,-1.0,2383
4109,309109,17028,-528,576,17045.92,31.49,-1.00,-1.0,2435
4112,309112,17040,-652,684,17066.18,31.40,-1.00,-1.0,2378
4115,309115,17096,-628,792,17125.85,31.40,-1.00,-1.0,2437
4117,309117,17116,-580,588,17135.92,31.40,-1.00,-1.0,2371
4120,309120,17016,-652,748,17044.91,31.45,-1.00,-1.0,2427
4123,309123,17072,-572,644,17093.71,31.45,-1.00,-1.0,2377
4125,309125,16980,-652,700,17006.93,31.45,-1.00,-1.0,2366
4128,309128,17148,-636,708,17174.39,31.40,-1.00,-1.0,2419
4131,309131,17008,-576,740,17033.83,31.45,-1.00,-1.0,2372
4136,309136,17076,-656,620,17099.84,31.45,-1.00,-1.0,2445
4139,309139,17132,-672,776,17162.73,31.35,-1.00,-1.0,2377
4142,309142,17028,-692,692,17056.10,31.45,-1.00,-1.0,2439
4144,309144,16976,-644,680,17001.81,31.45,-1.00,-1.0,2380
4147,309147,17112,-672,608,17135.98,31.45,-1.00,-1.0,2419
4150,309150,17124,-612,644,17147.03,31.54,-1.00,-1.0,2370
4153,309153,17096,-584,836,17126.39,31.45,-1.00,-1.0,2420
4155,309155,17128,-656,696,17154.68,31.45,-1.00,-1.0,2374
4158,309158,17068,-616,632,17090.80,31.35,-1.00,-1.0,2366
4163,309163,16992,-564,604,17012.08,31.35,-1.00,-1.0,2439
4166,309166,17012,-692,724,17041.46,31.45,-1.00,-1.0,2373
4169,309169,17120,-684,828,17153.65,31.45,-1.00,-1.0,2433
4171,309171,17088,-692,752,17118.53,31.54,-1.00,-1.0,2380
4174,309174,17028,-576,548,17046.55,31.49,-1.00,-1.0,2419
4177,309177,17116,-676,632,17141.00,31.45,-1.00,-1.0,2370
4180,309180,17000,-604,728,17026.30,31.40,-1.00,-1.0,2420
4182,309182,17008,-640,604,17030.75,31.35,-1.00,-1.0,2377
4187,309187,17184,-624,632,17206.94,31.35,-1.00,-1.0,2438
4190,309190,17104,-576,612,17124.63,31.45,-1.00,-1.0,2378
4193,309193,17036,-644,644,17060.33,31.40,-1.00,-1.0,2366
4195,309195,17108,-584,748,17134.30,31.49,-1.00,-1.0,2425
4198,309198,17052,-540,692,17074.58,31.40,-1.00,-1.0,2377
4201,309201,16996,-476,712,17017.57,31.35,-1.00,-1.0,2419
4204,309204,17104,-624,884,17138.19,31.40,-1.00,-1.0,2376
4206,309206,17036,-604,612,17057.69,31.49,-1.00,-1.0,2418
4209,309209,17080,-624,660,17104.13,31.40,-1.00,-1.0,2369
4214,309214,17108,-612,712,17133.74,31.40,-1.00,-1.0,2430
4217,309217,17056,-632,700,17082.05,31.40,-1.00,-1.0,2370
4219,309219,17052,-648,628,17075.86,31.40,-1.00,-1.0,2365
4222,309222,17116,-560,720,17140.29,31.35,-1.00,-1.0,2436
4225,309225,16984,-612,644,17007.22,31.45,-1.00,-1.0,2377
4228,309228,17088,-532,732,17111.94,31.40,-1.00,-1.0,2407
4230,309230,17012,-612,612,17034.00,31.45,-1.00,-1.0,2369
4233,309233,17056,-592,700,17080.62,31.45,-1.00,-1.0,2428
4236,309236,17104,-592,596,17124.62,31.40,-1.00,-1.0,2369
4241,309241,16992,-636,728,17019.47,31.40,-1.00,-1.0,2430
4244,309244,17020,-584,772,17047.51,31.49,-1.00,-1.0,2371
4247,309247,17116,-676,720,17144.47,31.45,-1.00,-1.0,2431
4249,309249,17112,-668,720,17140.16,31.40,-1.00,-1.0,2367
4252,309252,17084,-648,800,17114.99,31.45,-1.00,-1.0,2373
4255,309255,17024,-484,680,17044.45,31.49,-1.00,-1.0,2423
4257,309257,17072,-516,788,17097.96,31.35,-1.00,-1.0,2368
4260,309260,17076,-656,672,17101.80,31.40,-1.00,-1.0,2429
4263,309263,17092,-664,704,17119.38,31.54,-1.00,-1.0,2370
4269,309269,17012,-656,760,17041.60,31.49,-1.00,-1.0,2452
4272,309272,17044,-604,568,17064.15,31.49,-1.00,-1.0,2373
4274,309274,17088,-700,580,17112.16,31.45,-1.00,-1.0,2422
4277,309277,17060,-608,564,17080.14,31.40,-1.00,-1.0,2353
4280,309280,17064,-636,748,17092.22,31.54,-1.00,-1.0,2420
4283,309283,16920,-664,660,16945.88,31.40,-1.00,-1.0,2369
4285,309285,17080,-544,600,17099.19,31.45,-1.00,-1.0,2366
4288,309288,17052,-528,732,17075.87,31.49,-1.00,-1.0,2434
4291,309291,17048,-624,736,17075.29,31.35,-1.00,-1.0,2377
4295,309295,17048,-556,752,17073.63,31.45,-1.00,-1.0,2435
4298,309298,17092,-608,744,17118.99,31.54,-1.00,-1.0,2368
4301,309301,17048,-580,664,17070.78,31.45,-1.00,-1.0,2420
4304,309304,17012,-688,712,17040.79,31.45,-1.00,-1.0,2369
4306,309306,17056,-592,716,17081.28,31.35,-1.00,-1.0,2420
4309,309309,17112,-716,600,17137.48,31.54,-1.00,-1.0,2369
4312,309312,17016,-636,888,17051.02,31.35,-1.00,-1.0,2420
4315,309315,17160,-668,748,17189.28,31.45,-1.00,-1.0,2370
4317,309317,16976,-540,824,17004.56,31.40,-1.00,-1.0,2376
4322,309322,17124,-668,692,17150.99,31.40,-1.00,-1.0,2437
4325,309325,17116,-572,592,17135.79,31.45,-1.00,-1.0,2365
4328,309328,17032,-664,708,17059.64,31.40,-1.00,-1.0,2435
4330,309330,17168,-600,796,17196.91,31.45,-1.00,-1.0,2368
4333,309333,17052,-588,700,17076.49,31.31,-1.00,-1.0,2428
4336,309336,17072,-568,772,17098.88,31.40,-1.00,-1.0,2377
4339,309339,17020,-660,708,17047.50,31.40,-1.00,-1.0,2408
4341,309341,17040,-680,680,17067.12,31.40,-1.00,-1.0,2373
4346,309346,17084,-476,548,17099.41,31.40,-1.00,-1.0,2434
4349,309349,17088,-588,736,17113.95,31.45,-1.00,-1.0,2368
4352,309352,17000,-624,640,17023.48,31.40,-1.00,-1.0,2371
4355,309355,16988,-684,584,17011.79,31.26,-1.00,-1.0,2420
4357,309357,17012,-556,676,17034.50,31.49,-1.00,-1.0,2368
4360,309360,17044,-608,680,17068.39,31.45,-1.00,-1.0,2419
4363,309363,17024,-648,776,17053.99,31.49,-1.00,-1.0,2372
4366,309366,17112,-704,824,17146.29,31.45,-1.00,-1.0,2424
4368,309368,17132,-664,680,17158.34,31.49,-1.00,-1.0,2368
4374,309374,17004,-672,532,17025.59,31.40,-1.00,-1.0,2437
4376,309376,17036,-620,688,17061.16,31.31,-1.00,-1.0,2375
4379,309379,16992,-580,656,17014.55,31.49,-1.00,-1.0,2428
4382,309382,17104,-656,704,17131.05,31.49,-1.00,-1.0,2377
4384,309384,17176,-756,640,17204.54,31.31,-1.00,-1.0,2366
4387,309387,17056,-672,708,17083.91,31.35,-1.00,-1.0,2419
4390,309390,16940,-624,632,16963.27,31.45,-1.00,-1.0,2372
4393,309393,17088,-632,748,17116.04,31.45,-1.00,-1.0,2429
4395,309395,17080,-640,700,17106.31,31.35,-1.00,-1.0,2365
4400,309400,17104,-680,696,17131.66,31.40,-1.00,-1.0,2442
4403,309403,17052,-616,604,17073.81,31.45,-1.00,-1.0,2379
4406,309406,17060,-652,648,17084.75,31.45,-1.00,-1.0,2419
4409,309409,17144,-668,648,17169.24,31.35,-1.00,-1.0,2370
4411,309411,17064,-572,724,17088.93,31.40,-1.00,-1.0,2366
4414,309414,17132,-504,540,17147.92,31.40,-1.00,-1.0,2419
4417,309417,16976,-568,616,16996.67,31.35,-1.00,-1.0,2369
4419,309419,17128,-668,592,17151.24,31.40,-1.00,-1.0,2419
4422,309422,17008,-640,720,17035.26,31.45,-1.00,-1.0,2372
4427,309427,17112,-668,752,17141.54,31.35,-1.00,-1.0,2442
4430,309430,17092,-688,688,17119.67,31.54,-1.00,-1.0,2379
4433,309433,17044,-640,660,17068.78,31.45,-1.00,-1.0,2419
4436,309436,17036,-660,644,17060.94,31.45,-1.00,-1.0,2370
4438,309438,17104,-688,652,17130.24,31.45,-1.00,-1.0,2419
4441,309441,16984,-556,692,17007.18,31.45,-1.00,-1.0,2358
4444,309444,17124,-664,504,17144.28,31.40,-1.00,-1.0,2366
4446,309446,17140,-596,736,17166.14,31.40,-1.00,-1.0,2419
4449,309449,16956,-676,684,16983.25,31.45,-1.00,-1.0,2369
4454,309454,17048,-700,652,17074.82,31.45,-1.00,-1.0,2436
4457,309457,17036,-616,656,17059.75,31.45,-1.00,-1.0,2359
4460,309460,17104,-568,556,17122.46,31.45,-1.00,-1.0,2419
4463,309463,17092,-660,660,17117.47,31.45,-1.00,-1.0,2371
4465,309465,17136,-680,592,17159.70,31.45,-1.00,-1.0,2419
4468,309468,17104,-664,760,17133.75,31.45,-1.00,-1.0,2358
4471,309471,17180,-532,712,17202.97,31.45,-1.00,-1.0,2419
4474,309474,17148,-540,552,17165.38,31.45,-1.00,-1.0,2372
4476,309476,17052,-604,592,17072.96,31.40,-1.00,-1.0,2366
4481,309481,16984,-584,664,17007.00,31.40,-1.00,-1.0,2435
4484,309484,17008,-600,628,17030.16,31.40,-1.00,-1.0,2367
4487,309487,17040,-632,760,17068.64,31.45,-1.00,-1.0,2431
4489,309489,17120,-576,600,17140.19,31.40,-1.00,-1.0,2362
4492,309492,17156,-428,608,17172.11,31.40,-1.00,-1.0,2421
4495,309495,17032,-584,744,17058.24,31.40,-1.00,-1.0,2369
4498,309498,17000,-648,608,17023.21,31.35,-1.00,-1.0,2428
4500,309500,17028,-580,492,17044.98,31.40,-1.00,-1.0,2356
4505,309505,17000,-556,732,17024.83,31.35,-1.00,-1.0,2442
4508,309508,16984,-644,588,17006.37,31.35,-1.00,-1.0,2366
4510,309510,17104,-572,748,17129.90,31.40,-1.00,-1.0,2365
4513,309513,17040,-552,588,17059.08,31.40,-1.00,-1.0,2419
4516,309516,17060,-552,640,17080.92,31.40,-1.00,-1.0,2376
4519,309519,16972,-592,616,16993.49,31.45,-1.00,-1.0,2421
4521,309521,17096,-660,632,17120.40,31.40,-1.00,-1.0,2368
4524,309524,17080,-628,596,17101.93,31.45,-1.00,-1.0,2419
4527,309527,17088,-556,600,17107.57,31.59,-1.00,-1.0,2369
4532,309532,17104,-676,608,17128.15,31.40,-1.00,-1.0,2434
4535,309535,17160,-652,768,17189.55,31.49,-1.00,-1.0,2371
4538,309538,17120,-568,664,17142.29,31.45,-1.00,-1.0,2419
4541,309541,17016,-464,680,17035.90,31.49,-1.00,-1.0,2369
4543,309543,17012,-692,612,17037.06,31.35,-1.00,-1.0,2370
4546,309546,17080,-572,532,17097.85,31.45,-1.00,-1.0,2413
4549,309549,17128,-568,780,17155.16,31.45,-1.00,-1.0,2376
4552,309552,17088,-660,688,17114.58,31.49,-1.00,-1.0,2433
4554,309554,16968,-564,652,16989.89,31.35,-1.00,-1.0,2368
4559,309559,17140,-528,624,17159.48,31.45,-1.00,-1.0,2433
4562,309562,17152,-564,736,17177.04,31.40,-1.00,-1.0,2372
4565,309565,17008,-644,632,17031.92,31.54,-1.00,-1.0,2420
4568,309568,17040,-656,664,17065.54,31.54,-1.00,-1.0,2377
4570,309570,17084,-568,628,17104.97,31.35,-1.00,-1.0,2419
4573,309573,17196,-600,652,17218.81,31.40,-1.00,-1.0,2369
4576,309576,17152,-580,844,17182.54,31.40,-1.00,-1.0,2367
4579,309579,17056,-672,584,17079.22,31.40,-1.00,-1.0,2424
4581,309581,17008,-716,672,17036.32,31.35,-1.00,-1.0,2371
4586,309586,17060,-604,572,17080.27,31.54,-1.00,-1.0,2434
4589,309589,16976,-612,772,17004.56,31.40,-1.00,-1.0,2374
4592,309592,17100,-612,544,17119.59,31.45,-1.00,-1.0,2435
4595,309595,17116,-592,572,17135.79,31.45,-1.00,-1.0,2364
4598,309598,17176,-668,768,17206.13,31.45,-1.00,-1.0,2423
4600,309600,17072,-668,632,17096.75,31.45,-1.00,-1.0,2373
4603,309603,17052,-660,676,17078.15,31.40,-1.00,-1.0,2368
4606,309606,17160,-752,616,17187.51,31.31,-1.00,-1.0,2421
4609,309609,17060,-596,672,17083.63,31.40,-1.00,-1.0,2373
4614,309614,17028,-628,628,17051.14,31.40,-1.00,-1.0,2437
4616,309616,17092,-628,604,17114.20,31.35,-1.00,-1.0,2367
4619,309619,17040,-652,696,17066.67,31.40,-1.00,-1.0,2434
4622,309622,17076,-564,548,17094.10,31.31,-1.00,-1.0,2377
4625,309625,17056,-580,644,17078.01,31.49,-1.00,-1.0,2431
4627,309627,17032,-568,632,17053.18,31.31,-1.00,-1.0,2379
4630,309630,17080,-624,592,17101.64,31.40,-1.00,-1.0,2419
4633,309633,17176,-564,636,17197.02,31.40,-1.00,-1.0,2356
4636,309636,17088,-536,776,17114.01,31.49,-1.00,-1.0,2367
4641,309641,17056,-596,792,17084.78,31.40,-1.00,-1.0,2441
4643,309643,17092,-544,728,17116.14,31.40,-1.00,-1.0,2381
4646,309646,17148,-552,720,17171.98,31.40,-1.00,-1.0,2419
4649,309649,16984,-588,692,17008.26,31.40,-1.00,-1.0,2369
4652,309652,17044,-632,556,17064.77,31.31,-1.00,-1.0,2421
4654,309654,17156,-640,732,17183.53,31.40,-1.00,-1.0,2373
4657,309657,17036,-648,736,17064.20,31.40,-1.00,-1.0,2418
4660,309660,17132,-692,684,17159.61,31.49,-1.00,-1.0,2374
4665,309665,17000,-652,696,17026.73,31.40,-1.00,-1.0,2437
4667,309667,17044,-636,740,17071.91,31.31,-1.00,-1.0,2368
4670,309670,17080,-672,536,17101.62,31.40,-1.00,-1.0,2371
4673,309673,17044,-544,736,17068.55,31.54,-1.00,-1.0,2419
4676,309676,17076,-588,652,17098.56,31.35,-1.00,-1.0,2370
4678,309678,17064,-652,552,17085.37,31.45,-1.00,-1.0,2406
4681,309681,17052,-664,724,17080.28,31.49,-1.00,-1.0,2370
4684,309684,17128,-584,692,17151.92,31.45,-1.00,-1.0,2419
4687,309687,17028,-704,652,17055.01,31.45,-1.00,-1.0,2370
4691,309691,17048,-616,640,17071.13,31.45,-1.00,-1.0,2433
4694,309694,17060,-704,600,17085.06,31.35,-1.00,-1.0,2372
4697,309697,17020,-572,824,17049.53,31.49,-1.00,-1.0,2419
4700,309700,17104,-644,740,17132.11,31.45,-1.00,-1.0,2377
4702,309702,17032,-680,720,17060.77,31.49,-1.00,-1.0,2376
4705,309705,17084,-748,592,17110.61,31.40,-1.00,-1.0,2419
4708,309708,17060,-708,696,17088.86,31.31,-1.00,-1.0,2372
4711,309711,17048,-596,644,17070.57,31.45,-1.00,-1.0,2428
4714,309714,17084,-644,572,17105.70,31.45,-1.00,-1.0,2367
4718,309718,16968,-584,804,16997.07,31.35,-1.00,-1.0,2442
4721,309721,17052,-668,744,17081.29,31.40,-1.00,-1.0,2381
4724,309724,16976,-612,692,17001.12,31.45,-1.00,-1.0,2426
4727,309727,17080,-624,644,17103.52,31.49,-1.00,-1.0,2371
4729,309729,16976,-556,612,16996.12,31.35,-1.00,-1.0,2422
4732,309732,17072,-600,696,17096.71,31.49,-1.00,-1.0,2421
4735,309735,17008,-676,748,17037.86,31.35,-1.00,-1.0,2370
4738,309738,17020,-628,600,17042.15,31.40,-1.00,-1.0,2426
4741,309741,17052,-760,756,17085.66,31.31,-1.00,-1.0,2382
4746,309746,17072,-532,728,17095.79,31.40,-1.00,-1.0,2439
4748,309748,17008,-632,604,17030.45,31.54,-1.00,-1.0,2369
4751,309751,17000,-632,532,17020.06,31.40,-1.00,-1.0,2417
4754,309754,17208,-628,732,17235.01,31.45,-1.00,-1.0,2372
4757,309757,17004,-508,744,17027.85,31.31,-1.00,-1.0,2432
4759,309759,17084,-604,708,17109.33,31.45,-1.00,-1.0,2371
4762,309762,17024,-564,648,17045.66,31.40,-1.00,-1.0,2419
4765,309765,17056,-532,740,17080.33,31.40,-1.00,-1.0,2372
4768,309768,17076,-636,680,17101.37,31.49,-1.00,-1.0,2374
4773,309773,16932,-628,632,16955.43,31.40,-1.00,-1.0,2439
4775,309775,17084,-588,672,17107.32,31.40,-1.00,-1.0,2373
4778,309778,16996,-668,688,17023.03,31.40,-1.00,-1.0,2421
4781,309781,17080,-508,660,17100.29,31.40,-1.00,-1.0,2372
4784,309784,17100,-688,800,17132.52,31.40,-1.00,-1.0,2420
4786,309786,17060,-648,608,17083.12,31.31,-1.00,-1.0,2371
4789,309789,17016,-600,528,17034.76,31.54,-1.00,-1.0,2462
4792,309792,16992,-512,680,17013.31,31.35,-1.00,-1.0,2376
4795,309795,16972,-620,712,16998.24,31.40,-1.00,-1.0,2362
4800,309800,17144,-704,644,17170.53,31.40,-1.00,-1.0,2437
4803,309803,17096,-592,668,17119.29,31.40,-1.00,-1.0,2373
4805,309805,17080,-652,644,17104.57,31.49,-1.00,-1.0,2420
4808,309808,17188,-508,604,17206.11,31.40,-1.00,-1.0,2370
4811,309811,17000,-660,736,17028.72,31.40,-1.00,-1.0,2420
4814,309814,17036,-652,656,17061.09,31.49,-1.00,-1.0,2371
4816,309816,16960,-632,524,16979.86,31.40,-1.00,-1.0,2420
4819,309819,17104,-592,660,17126.96,31.49,-1.00,-1.0,2370
4824,309824,17032,-620,644,17055.44,31.40,-1.00,-1.0,2434
4827,309827,17052,-616,776,17080.76,31.45,-1.00,-1.0,2354
4829,309829,16964,-644,904,17000.27,31.31,-1.00,-1.0,2371
4832,309832,16972,-508,668,16992.74,31.49,-1.00,-1.0,2421
4835,309835,17080,-648,780,17110.08,31.40,-1.00,-1.0,2371
4838,309838,17044,-596,616,17065.54,31.49,-1.00,-1.0,2427
4840,309840,17060,-640,748,17088.38,31.40,-1.00,-1.0,2369
4843,309843,17032,-632,640,17055.73,31.45,-1.00,-1.0,2421
4846,309846,17116,-648,720,17143.39,31.49,-1.00,-1.0,2370
4851,309851,17132,-688,588,17155.89,31.40,-1.00,-1.0,2435
4854,309854,17092,-584,516,17109.76,31.49,-1.00,-1.0,2374
4856,309856,17060,-532,572,17077.88,31.40,-1.00,-1.0,2420
4859,309859,17140,-500,576,17156.96,31.45,-1.00,-1.0,2422
4862,309862,17136,-604,688,17160.44,31.40,-1.00,-1.0,2372
4865,309865,17060,-620,672,17084.48,31.35,-1.00,-1.0,2421
4867,309867,17052,-628,560,17072.75,31.40,-1.00,-1.0,2374
4870,309870,17068,-644,748,17096.52,31.45,-1.00,-1.0,2414
4873,309873,17104,-584,616,17125.05,31.40,-1.00,-1.0,2374
4878,309878,17084,-644,700,17110.46,31.49,-1.00,-1.0,2431
4881,309881,17032,-608,708,17057.55,31.40,-1.00,-1.0,2375
4883,309883,16988,-564,704,17011.93,31.40,-1.00,-1.0,2419
4886,309886,17008,-620,668,17032.40,31.40,-1.00,-1.0,2372
4889,309889,17084,-604,636,17106.50,31.31,-1.00,-1.0,2419
4892,309892,16964,-652,648,16988.89,31.40,-1.00,-1.0,2370
4894,309894,17060,-604,724,17086.04,31.45,-1.00,-1.0,2368
4897,309897,17060,-612,628,17082.52,31.45,-1.00,-1.0,2435
4900,309900,17048,-560,660,17069.96,31.49,-1.00,-1.0,2372
4905,309905,17056,-704,664,17083.43,31.49,-1.00,-1.0,2430
4907,309907,16968,-644,676,16993.67,31.40,-1.00,-1.0,2372
4910,309910,17028,-596,708,17053.13,31.45,-1.00,-1.0,2425
4913,309913,17068,-612,812,17098.26,31.49,-1.00,-1.0,2358
4916,309916,17028,-676,748,17057.82,31.45,-1.00,-1.0,2426
4918,309918,16956,-668,724,16984.59,31.49,-1.00,-1.0,2370
4921,309921,17020,-548,592,17039.11,31.35,-1.00,-1.0,2418
4924,309924,17096,-680,704,17124.00,31.40,-1.00,-1.0,2359
4927,309927,17012,-612,700,17037.39,31.40,-1.00,-1.0,2371
4932,309932,17092,-644,820,17123.77,31.49,-1.00,-1.0,2438
4934,309934,17076,-668,676,17102.43,31.45,-1.00,-1.0,2373
4937,309937,17076,-656,712,17103.42,31.49,-1.00,-1.0,2418
4940,309940,17052,-556,608,17071.89,31.45,-1.00,-1.0,2378
4943,309943,17036,-604,684,17060.42,31.40,-1.00,-1.0,2430
4945,309945,17036,-568,524,17053.52,31.40,-1.00,-1.0,2379
4948,309948,17000,-668,624,17024.56,31.40,-1.00,-1.0,2417
4951,309951,17028,-584,712,17052.88,31.40,-1.00,-1.0,2371
4956,309956,17008,-556,628,17028.67,31.49,-1.00,-1.0,2430
4959,309959,16992,-680,620,17016.90,31.40,-1.00,-1.0,2373
4961,309961,17092,-668,712,17119.86,31.45,-1.00,-1.0,2369
4964,309964,17076,-584,592,17096.24,31.35,-1.00,-1.0,2419
4967,309967,17132,-556,636,17152.81,31.35,-1.00,-1.0,2380
4969,309969,17084,-620,712,17110.07,31.40,-1.00,-1.0,2418
4972,309972,17008,-688,628,17033.49,31.45,-1.00,-1.0,2371
4975,309975,17076,-652,740,17104.46,31.40,-1.00,-1.0,2418
4978,309978,17144,-740,640,17171.89,31.45,-1.00,-1.0,2371
4983,309983,17052,-564,748,17077.71,31.40,-1.00,-1.0,2430
4986,309986,17136,-632,644,17159.74,31.40,-1.00,-1.0,2369
4988,309988,17072,-636,744,17100.04,31.45,-1.00,-1.0,2365
4991,309991,17100,-600,720,17125.66,31.40,-1.00,-1.0,2432
4994,309994,17020,-520,700,17042.32,31.45,-1.00,-1.0,2379
4997,309997,17088,-540,436,17102.09,31.59,-1.00,-1.0,2429
4999,309999,17012,-612,604,17033.72,31.49,-1.00,-1.0,2377
5002,310002,17056,-624,692,17081.43,31.40,-1.00,-1.0,2432
5005,310005,17040,-596,860,17072.09,31.45,-1.00,-1.0,2371
5010,310010,17052,-588,800,17080.88,31.45,-1.00,-1.0,2430
5013,310013,17136,-532,632,17155.90,31.45,-1.00,-1.0,2376
5015,310015,17044,-672,724,17072.60,31.35,-1.00,-1.0,2404
5018,310018,17016,-560,720,17040.43,31.35,-1.00,-1.0,2373
5021,310021,17076,-712,616,17101.94,31.49,-1.00,-1.0,2373
5024,310024,17104,-624,684,17129.04,31.40,-1.00,-1.0,2432
5026,310026,17080,-692,736,17109.85,31.49,-1.00,-1.0,2375
5029,310029,17052,-632,604,17074.39,31.40,-1.00,-1.0,2428
5032,310032,16976,-640,632,16999.81,31.49,-1.00,-1.0,2371
5037,310037,17100,-576,776,17127.29,31.49,-1.00,-1.0,2430
5040,310040,17056,-628,580,17077.41,31.54,-1.00,-1.0,2376
5042,310042,17032,-648,688,17058.20,31.31,-1.00,-1.0,2418
5045,310045,17064,-704,792,17096.87,31.45,-1.00,-1.0,2372
5048,310048,17080,-580,720,17105.01,31.49,-1.00,-1.0,2418
5051,310051,17052,-648,616,17075.42,31.35,-1.00,-1.0,2378
5053,310053,17076,-656,652,17101.03,31.40,-1.00,-1.0,2375
5056,310056,17008,-568,788,17035.72,31.45,-1.00,-1.0,2418
5059,310059,17108,-668,836,17141.44,31.40,-1.00,-1.0,2378
5064,310064,17064,-640,764,17093.08,31.40,-1.00,-1.0,2430
5067,310067,17140,-692,664,17166.81,31.40,-1.00,-1.0,2379
5069,310069,17072,-696,724,17101.51,31.49,-1.00,-1.0,2418
5072,310072,17036,-640,776,17065.67,31.40,-1.00,-1.0,2374
5075,310075,17016,-628,532,17035.89,31.40,-1.00,-1.0,2439
5078,310078,17136,-644,760,17164.93,31.49,-1.00,-1.0,2366
5081,310081,17088,-628,580,17109.37,31.45,-1.00,-1.0,2426
5083,310083,17000,-528,716,17023.26,31.49,-1.00,-1.0,2371
5086,310086,17040,-640,700,17066.38,31.45,-1.00,-1.0,2380
5091,310091,17020,-680,640,17045.60,31.40,-1.00,-1.0,2430
5094,310094,17096,-620,780,17125.01,31.40,-1.00,-1.0,2383
5097,310097,17072,-648,756,17101.01,31.45,-1.00,-1.0,2430
5099,310099,17060,-580,624,17081.26,31.40,-1.00,-1.0,2375
5102,310102,17080,-616,692,17105.11,31.35,-1.00,-1.0,2429
5105,310105,17136,-584,484,17152.78,31.40,-1.00,-1.0,2375
5108,310108,17072,-604,656,17095.27,31.45,-1.00,-1.0,2431
5110,310110,17044,-620,668,17068.35,31.45,-1.00,-1.0,2378
5117,310117,17096,-600,696,17120.68,31.40,-1.00,-1.0,2440
5120,310120,17012,-576,648,17034.08,31.54,-1.00,-1.0,2375
5122,310122,16992,-516,532,17008.15,31.40,-1.00,-1.0,2365
5125,310125,17108,-640,728,17135.44,31.45,-1.00,-1.0,2431
5128,310128,17068,-708,700,17097.01,31.45,-1.00,-1.0,2380
5131,310131,17124,-580,564,17143.10,31.45,-1.00,-1.0,2421
5133,310133,17124,-564,668,17146.30,31.45,-1.00,-1.0,2375
5136,310136,17096,-616,608,17117.89,31.45,-1.00,-1.0,2427
5139,310139,17116,-604,728,17142.12,31.54,-1.00,-1.0,2378
5144,310144,17020,-640,764,17049.16,31.40,-1.00,-1.0,2441
5146,310146,16944,-568,556,16962.63,31.49,-1.00,-1.0,2374
5149,310149,17004,-644,564,17025.54,31.35,-1.00,-1.0,2432
5152,310152,17068,-716,576,17092.72,31.54,-1.00,-1.0,2372
5155,310155,17084,-616,620,17106.34,31.45,-1.00,-1.0,2369
5157,310157,17108,-668,740,17137.02,31.49,-1.00,-1.0,2419
5160,310160,17076,-624,688,17101.24,31.45,-1.00,-1.0,2371
5163,310163,17124,-580,640,17145.77,31.40,-1.00,-1.0,2406
5166,310166,17104,-688,496,17125.02,31.45,-1.00,-1.0,2369
5171,310171,17068,-528,608,17086.99,31.45,-1.00,-1.0,2438
5173,310173,17172,-644,656,17196.59,31.45,-1.00,-1.0,2381
5176,310176,17052,-616,696,17077.31,31.40,-1.00,-1.0,2418
5179,310179,17076,-576,684,17099.40,31.45,-1.00,-1.0,2375
5181,310181,17168,-664,664,17193.66,31.40,-1.00,-1.0,2370
5184,310184,17072,-624,584,17093.38,31.35,-1.00,-1.0,2418
5187,310187,17020,-600,744,17046.82,31.40,-1.00,-1.0,2370
5190,310190,16984,-616,672,17008.45,31.49,-1.00,-1.0,2425
5192,310192,16956,-596,580,16976.38,31.31,-1.00,-1.0,2370
5197,310197,17124,-576,736,17149.49,31.40,-1.00,-1.0,2430
5200,310200,17008,-604,624,17030.16,31.40,-1.00,-1.0,2375
5203,310203,17088,-544,728,17112.15,31.40,-1.00,-1.0,2420
5206,310206,17128,-616,660,17151.78,31.40,-1.00,-1.0,2371
5208,310208,17008,-592,720,17033.52,31.49,-1.00,-1.0,2418
5211,310211,17008,-544,756,17033.48,31.40,-1.00,-1.0,2371
5214,310214,17116,-640,680,17141.46,31.45,-1.00,-1.0,2377
5217,310217,17088,-708,628,17114.19,31.40,-1.00,-1.0,2436
5219,310219,17064,-648,512,17083.97,31.45,-1.00,-1.0,2375
5224,310224,17152,-632,596,17173.98,31.35,-1.00,-1.0,2434
5227,310227,17068,-648,748,17096.67,31.54,-1.00,-1.0,2370
5230,310230,17096,-704,560,17119.65,31.45,-1.00,-1.0,2431
5232,310232,17036,-604,640,17058.71,31.45,-1.00,-1.0,2369
5235,310235,17084,-596,596,17104.78,31.49,-1.00,-1.0,2435
5238,310238,17004,-676,600,17028.01,31.45,-1.00,-1.0,2372
5241,310241,17096,-608,688,17120.64,31.40,-1.00,-1.0,2425
5243,310243,17020,-576,652,17042.22,31.35,-1.00,-1.0,2371
5246,310246,17028,-560,560,17046.41,31.40,-1.00,-1.0,2366
5251,310251,17064,-684,720,17092.88,31.45,-1.00,-1.0,2434
5254,310254,17148,-580,744,17173.93,31.40,-1.00,-1.0,2419
5257,310257,17100,-572,748,17125.91,31.54,-1.00,-1.0,2424
5260,310260,17032,-520,716,17054.97,31.40,-1.00,-1.0,2381
5262,310262,17028,-668,692,17055.14,31.35,-1.00,-1.0,2417
5265,310265,17052,-624,756,17080.15,31.45,-1.00,-1.0,2373
5268,310268,17028,-632,584,17049.73,31.45,-1.00,-1.0,2416
5271,310271,17052,-644,560,17073.34,31.45,-1.00,-1.0,2380
5276,310276,17056,-656,680,17082.15,31.40,-1.00,-1.0,2422
5278,310278,17024,-604,704,17049.25,31.40,-1.00,-1.0,2379
5281,310281,17060,-648,676,17085.68,31.45,-1.00,-1.0,2365
5284,310284,17072,-516,816,17099.28,31.40,-1.00,-1.0,2440
5286,310286,17076,-624,608,17098.21,31.45,-1.00,-1.0,2367
5289,310289,17048,-588,680,17071.69,31.49,-1.00,-1.0,2432
5292,310292,17076,-628,560,17096.72,31.49,-1.00,-1.0,2375
5295,310295,17040,-660,612,17063.76,31.40,-1.00,-1.0,2423
5297,310297,17076,-468,652,17094.85,31.40,-1.00,-1.0,2368
5302,310302,16984,-512,656,17004.38,31.35,-1.00,-1.0,2422
5305,310305,17044,-648,668,17069.39,31.40,-1.00,-1.0,2429
5308,310308,17036,-688,700,17064.25,31.45,-1.00,-1.0,2416
5311,310311,17080,-560,556,17098.22,31.45,-1.00,-1.0,2380
5313,310313,17044,-644,604,17066.85,31.35,-1.00,-1.0,2366
5316,310316,17044,-604,604,17065.39,31.40,-1.00,-1.0,2429
5319,310319,17056,-528,724,17079.52,31.49,-1.00,-1.0,2376
5322,310322,17068,-608,564,17088.14,31.49,-1.00,-1.0,2422
5324,310324,17124,-640,652,17148.36,31.40,-1.00,-1.0,2376
5329,310329,17048,-580,740,17073.91,31.49,-1.00,-1.0,2436
5332,310332,16992,-664,748,17021.41,31.40,-1.00,-1.0,2386
5335,310335,17060,-580,740,17085.89,31.40,-1.00,-1.0,2408
5337,310337,17140,-520,556,17156.90,31.40,-1.00,-1.0,2370
5340,310340,17048,-568,508,17065.02,31.40,-1.00,-1.0,2427
5343,310343,17052,-580,656,17074.47,31.40,-1.00,-1.0,2379
5346,310346,17096,-636,640,17119.79,31.40,-1.00,-1.0,2365
5348,310348,17156,-652,620,17179.58,31.45,-1.00,-1.0,2419
5351,310351,17152,-608,636,17174.55,31.45,-1.00,-1.0,2371
5356,310356,17008,-648,772,17037.84,31.49,-1.00,-1.0,2433
5358,310358,17008,-648,640,17032.37,31.40,-1.00,-1.0,2378
5361,310361,17048,-596,900,17082.14,31.35,-1.00,-1.0,2429
5364,310364,17124,-676,628,17148.84,31.40,-1.00,-1.0,2377
5367,310367,17080,-664,620,17104.14,31.35,-1.00,-1.0,2418
5369,310369,16976,-608,632,16998.64,31.40,-1.00,-1.0,2374
5372,310372,17040,-656,648,17064.93,31.45,-1.00,-1.0,2366
5375,310375,17052,-656,668,17077.68,31.40,-1.00,-1.0,2417
5378,310378,17088,-656,748,17116.94,31.45,-1.00,-1.0,2369
5383,310383,17008,-624,608,17030.30,31.40,-1.00,-1.0,2433
5385,310385,16992,-656,716,17019.72,31.54,-1.00,-1.0,2392
5388,310388,16924,-708,620,16950.15,31.45,-1.00,-1.0,2420
5391,310391,17060,-660,600,17083.30,31.54,-1.00,-1.0,2371
5394,310394,17124,-600,712,17149.29,31.45,-1.00,-1.0,2419
5396,310396,16996,-572,676,17019.05,31.45,-1.00,-1.0,2372
5399,310399,17096,-656,520,17116.48,31.45,-1.00,-1.0,2418
5402,310402,17068,-604,756,17095.41,31.45,-1.00,-1.0,2372
5404,310404,17000,-472,684,17020.30,31.49,-1.00,-1.0,2365
5409,310409,17104,-600,636,17126.33,31.45,-1.00,-1.0,2425
5412,310412,17020,-608,672,17044.11,31.35,-1.00,-1.0,2379
5415,310415,17072,-740,648,17100.31,31.40,-1.00,-1.0,2421
5418,310418,17088,-624,696,17113.55,31.45,-1.00,-1.0,2370
5420,310420,16972,-532,704,16994.92,31.40,-1.00,-1.0,2418
5423,310423,17040,-676,784,17071.42,31.45,-1.00,-1.0,2371
5426,310426,17108,-592,792,17136.55,31.40,-1.00,-1.0,2419
5429,310429,17100,-632,772,17129.08,31.45,-1.00,-1.0,2370
5434,310434,17104,-616,608,17125.88,31.45,-1.00,-1.0,2430
5436,310436,17136,-632,676,17160.97,31.35,-1.00,-1.0,2386
5439,310439,17096,-704,676,17123.84,31.40,-1.00,-1.0,2365
5442,310442,17052,-728,692,17081.56,31.40,-1.00,-1.0,2429
5444,310444,17120,-664,720,17147.99,31.40,-1.00,-1.0,2357
5447,310447,17036,-596,720,17061.62,31.40,-1.00,-1.0,2420
5450,310450,17172,-668,664,17197.81,31.40,-1.00,-1.0,2371
5453,310453,17048,-668,860,17082.74,31.40,-1.00,-1.0,2428
5455,310455,16988,-604,580,17008.63,31.40,-1.00,-1.0,2370
5460,310460,17040,-704,728,17070.07,31.40,-1.00,-1.0,2425
5463,310463,17092,-596,688,17116.22,31.35,-1.00,-1.0,2378
5466,310466,17052,-668,668,17078.15,31.40,-1.00,-1.0,2422
5469,310469,17028,-676,792,17059.81,31.49,-1.00,-1.0,2369
5471,310471,17076,-580,704,17100.35,31.45,-1.00,-1.0,2370
5474,310474,17108,-596,740,17134.37,31.45,-1.00,-1.0,2433
5477,310477,17148,-616,632,17170.70,31.45,-1.00,-1.0,2378
5480,310480,17004,-608,712,17029.76,31.45,-1.00,-1.0,2432
5482,310482,17000,-632,680,17025.33,31.40,-1.00,-1.0,2370
5487,310487,17136,-552,648,17157.13,31.49,-1.00,-1.0,2424
5490,310490,17132,-656,728,17160.00,31.49,-1.00,-1.0,2375
5493,310493,17060,-648,616,17083.41,31.40,-1.00,-1.0,2420
5496,310496,16992,-636,620,17015.20,31.49,-1.00,-1.0,2369
5498,310498,16996,-760,808,17032.16,31.49,-1.00,-1.0,2418
5501,310501,17052,-700,688,17080.22,31.40,-1.00,-1.0,2371
5504,310504,17160,-624,704,17185.77,31.45,-1.00,-1.0,2368
5507,310507,17088,-636,764,17116.89,31.45,-1.00,-1.0,2421
5509,310509,17172,-552,684,17194.48,31.40,-1.00,-1.0,2371
5514,310514,17160,-576,760,17186.48,31.49,-1.00,-1.0,2426
5517,310517,17068,-588,692,17092.14,31.40,-1.00,-1.0,2378
5520,310520,17040,-716,704,17069.56,31.35,-1.00,-1.0,2421
5523,310523,17216,-620,692,17241.05,31.40,-1.00,-1.0,2369
5525,310525,17036,-680,500,17056.90,31.40,-1.00,-1.0,2418
5528,310528,16948,-692,760,16979.14,31.40,-1.00,-1.0,2361
5531,310531,17072,-604,576,17092.39,31.35,-1.00,-1.0,2418
5534,310534,17096,-576,672,17118.89,31.40,-1.00,-1.0,2370
5536,310536,17004,-468,556,17019.52,31.49,-1.00,-1.0,2366
5541,310541,17188,-584,684,17211.52,31.35,-1.00,-1.0,2435
5544,310544,17040,-580,748,17066.27,31.54,-1.00,-1.0,2385
5547,310547,17056,-568,640,17077.45,31.40,-1.00,-1.0,2407
5549,310549,17128,-556,584,17146.97,31.45,-1.00,-1.0,2370
5552,310552,17112,-540,668,17133.54,31.40,-1.00,-1.0,2427
5555,310555,17048,-684,720,17076.90,31.45,-1.00,-1.0,2379
5558,310558,17044,-596,832,17074.70,31.40,-1.00,-1.0,2423
5560,310560,17020,-620,628,17042.86,31.45,-1.00,-1.0,2377
5563,310563,17044,-540,624,17063.96,31.45,-1.00,-1.0,2366
5568,310568,17104,-572,720,17128.70,31.40,-1.00,-1.0,2425
5571,310571,17116,-692,608,17140.77,31.49,-1.00,-1.0,2379
5574,310574,17000,-616,584,17021.18,31.54,-1.00,-1.0,2427
5576,310576,17100,-780,648,17130.04,31.40,-1.00,-1.0,2370
5579,310579,17080,-712,536,17103.23,31.45,-1.00,-1.0,2419
5582,310582,17128,-620,700,17153.51,31.49,-1.00,-1.0,2371
5585,310585,17164,-568,744,17189.50,31.45,-1.00,-1.0,2425
5588,310588,17064,-636,564,17085.16,31.31,-1.00,-1.0,2374
5592,310592,17040,-596,676,17063.81,31.45,-1.00,-1.0,2425
5595,310595,16908,-584,748,16934.61,31.45,-1.00,-1.0,2379
5598,310598,17092,-584,800,17120.68,31.49,-1.00,-1.0,2352
5601,310601,17028,-552,688,17050.83,31.40,-1.00,-1.0,2420
5603,310603,17052,-660,616,17075.88,31.40,-1.00,-1.0,2375
5606,310606,17060,-656,580,17082.46,31.45,-1.00,-1.0,2419
5609,310609,17048,-660,764,17077.87,31.40,-1.00,-1.0,2373
5612,310612,17132,-608,740,17158.75,31.45,-1.00,-1.0,2418
5615,310615,17112,-656,716,17139.53,31.40,-1.00,-1.0,2375
5620,310620,17028,-592,744,17054.52,31.40,-1.00,-1.0,2434
5622,310622,17080,-576,728,17105.21,31.49,-1.00,-1.0,2382
5625,310625,17112,-652,420,17129.57,31.40,-1.00,-1.0,2429
5628,310628,17152,-636,668,17176.78,31.40,-1.00,-1.0,2373
5630,310630,16996,-604,632,17018.47,31.31,-1.00,-1.0,2366
5633,310633,17036,-668,748,17065.49,31.45,-1.00,-1.0,2418
5636,310636,17148,-640,724,17175.21,31.35,-1.00,-1.0,2358
5639,310639,17148,-628,708,17174.10,31.35,-1.00,-1.0,2426
5642,310642,17088,-620,656,17111.82,31.40,-1.00,-1.0,2374
5647,310647,17072,-604,660,17095.43,31.40,-1.00,-1.0,2431
5649,310649,17000,-584,656,17022.67,31.40,-1.00,-1.0,2388
5652,310652,16924,-680,692,16951.79,31.45,-1.00,-1.0,2419
5655,310655,16976,-520,572,16993.59,31.40,-1.00,-1.0,2372
5658,310658,17004,-500,668,17024.46,31.35,-1.00,-1.0,2418
5660,310660,17124,-728,776,17157.03,31.49,-1.00,-1.0,2376
5663,310663,17096,-572,604,17116.23,31.45,-1.00,-1.0,2365
5666,310666,17008,-676,580,17031.31,31.49,-1.00,-1.0,2407
5669,310669,17096,-576,844,17126.51,31.45,-1.00,-1.0,2370
5674,310674,17068,-620,540,17087.79,31.40,-1.00,-1.0,2432
5676,310676,17024,-524,700,17046.44,31.49,-1.00,-1.0,2378
5679,310679,17056,-628,608,17078.38,31.40,-1.00,-1.0,2430
5682,310682,17084,-616,688,17108.94,31.40,-1.00,-1.0,2377
5685,310685,17112,-548,580,17130.59,31.35,-1.00,-1.0,2420
5687,310687,17092,-616,640,17115.07,31.40,-1.00,-1.0,2376
5690,310690,17168,-660,648,17192.90,31.40,-1.00,-1.0,2425
5693,310693,17052,-668,592,17075.34,31.40,-1.00,-1.0,2389
5696,310696,17084,-652,644,17108.56,31.54,-1.00,-1.0,2367
5701,310701,17080,-556,720,17104.21,31.45,-1.00,-1.0,2424
5703,310703,17084,-580,776,17111.45,31.40,-1.00,-1.0,2384
5706,310706,17072,-632,632,17095.38,31.45,-1.00,-1.0,2419
5709,310709,17104,-660,632,17128.39,31.45,-1.00,-1.0,2374
5712,310712,17068,-676,820,17101.05,31.45,-1.00,-1.0,2419
5714,310714,17016,-596,696,17040.65,31.35,-1.00,-1.0,2373
5717,310717,17040,-644,680,17065.72,31.35,-1.00,-1.0,2418
5720,310720,17064,-600,632,17086.24,31.54,-1.00,-1.0,2373
5725,310725,17144,-632,684,17169.28,31.45,-1.00,-1.0,2430
5727,310727,17152,-624,716,17178.28,31.40,-1.00,-1.0,2379
5730,310730,17020,-632,604,17042.44,31.45,-1.00,-1.0,2365
5733,310733,16996,-724,872,17033.75,31.49,-1.00,-1.0,2423
5736,310736,17060,-580,760,17086.77,31.45,-1.00,-1.0,2369
5738,310738,17124,-620,764,17152.24,31.40,-1.00,-1.0,2418
5741,310741,17060,-624,624,17082.81,31.45,-1.00,-1.0,2371
5744,310744,17032,-620,752,17059.86,31.49,-1.00,-1.0,2419
5747,310747,17080,-628,912,17115.86,31.49,-1.00,-1.0,2377
5751,310751,17120,-572,616,17140.62,31.31,-1.00,-1.0,2425
5754,310754,17088,-672,660,17113.94,31.45,-1.00,-1.0,2427
5757,310757,17040,-672,676,17066.64,31.40,-1.00,-1.0,2367
5760,310760,17044,-552,592,17063.21,31.45,-1.00,-1.0,2427
5762,310762,17008,-504,740,17031.55,31.54,-1.00,-1.0,2376
5765,310765,17056,-592,624,17077.67,31.35,-1.00,-1.0,2424
5768,310768,17060,-624,772,17088.86,31.45,-1.00,-1.0,2388
5771,310771,17072,-676,736,17101.22,31.45,-1.00,-1.0,2416
5774,310774,17040,-660,652,17065.24,31.49,-1.00,-1.0,2379
5778,310778,17052,-688,744,17082.08,31.35,-1.00,-1.0,2410
5781,310781,17056,-548,684,17078.50,31.45,-1.00,-1.0,2383
5784,310784,17108,-608,820,17138.43,31.40,-1.00,-1.0,2431
5787,310787,17096,-580,724,17121.15,31.45,-1.00,-1.0,2367
5789,310789,17080,-636,672,17105.04,31.49,-1.00,-1.0,2365
5792,310792,17008,-672,664,17034.22,31.54,-1.00,-1.0,2422
5795,310795,16948,-520,544,16964.70,31.35,-1.00,-1.0,2380
5798,310798,17016,-664,532,17037.26,31.35,-1.00,-1.0,2431
5801,310801,17072,-552,744,17097.12,31.45,-1.00,-1.0,2377
5806,310806,17084,-604,792,17113.01,31.49,-1.00,-1.0,2429
5808,310808,17104,-580,672,17127.02,31.49,-1.00,-1.0,2375
5811,310811,17000,-524,632,17019.81,31.49,-1.00,-1.0,2432
5814,310814,17028,-568,660,17050.25,31.49,-1.00,-1.0,2369
5817,310817,17028,-548,680,17050.38,31.45,-1.00,-1.0,2423
5819,310819,17072,-560,836,17101.63,31.40,-1.00,-1.0,2367
5822,310822,17044,-712,680,17072.41,31.45,-1.00,-1.0,2380
5825,310825,16992,-680,612,17016.61,31.40,-1.00,-1.0,2425
5828,310828,17032,-596,632,17054.14,31.45,-1.00,-1.0,2374
5833,310833,17016,-604,676,17040.13,31.35,-1.00,-1.0,2425
5835,310835,17156,-512,644,17175.72,31.40,-1.00,-1.0,2376
5838,310838,17072,-668,684,17098.75,31.45,-1.00,-1.0,2431
5841,310841,17088,-656,636,17112.41,31.45,-1.00,-1.0,2368
5844,310844,17024,-620,644,17047.46,31.45,-1.00,-1.0,2427
5846,310846,17008,-700,660,17035.19,31.45,-1.00,-1.0,2369
5849,310849,17116,-588,712,17140.89,31.45,-1.00,-1.0,2426
5852,310852,17036,-636,732,17063.58,31.45,-1.00,-1.0,2369
5855,310855,17124,-668,772,17154.40,31.45,-1.00,-1.0,2369
5860,310860,17072,-640,716,17098.99,31.45,-1.00,-1.0,2432
5862,310862,17012,-568,584,17031.49,31.35,-1.00,-1.0,2376
5865,310865,17008,-576,500,17025.09,31.45,-1.00,-1.0,2445
5868,310868,17148,-628,588,17169.57,31.45,-1.00,-1.0,2376
5871,310871,17088,-544,720,17111.81,31.40,-1.00,-1.0,2424
5873,310873,17116,-620,668,17140.25,31.45,-1.00,-1.0,2368
5876,310876,17044,-688,688,17071.75,31.49,-1.00,-1.0,2429
5879,310879,17072,-640,700,17098.33,31.45,-1.00,-1.0,2375
5884,310884,17016,-648,808,17047.49,31.35,-1.00,-1.0,2421
5887,310887,17000,-592,712,17025.20,31.45,-1.00,-1.0,2376
5889,310889,17044,-588,700,17068.50,31.40,-1.00,-1.0,2377
5892,310892,17012,-580,776,17039.56,31.49,-1.00,-1.0,2429
5895,310895,17048,-648,692,17074.34,31.49,-1.00,-1.0,2356
5898,310898,17096,-640,668,17121.01,31.40,-1.00,-1.0,2421
5900,310900,17068,-644,664,17093.05,31.40,-1.00,-1.0,2375
5903,310903,17104,-668,720,17132.18,31.49,-1.00,-1.0,2420
5906,310906,17124,-596,644,17146.47,31.49,-1.00,-1.0,2371
5911,310911,17024,-664,756,17053.71,31.49,-1.00,-1.0,2424
5913,310913,17144,-496,684,17164.81,31.40,-1.00,-1.0,2381
5916,310916,17044,-596,688,17068.29,31.40,-1.00,-1.0,2437
5919,310919,17052,-652,580,17074.31,31.40,-1.00,-1.0,2376
5922,310922,17100,-568,692,17123.42,31.54,-1.00,-1.0,2366
5924,310924,17068,-640,640,17091.98,31.45,-1.00,-1.0,2420
5927,310927,17000,-536,608,17019.31,31.45,-1.00,-1.0,2369
5930,310930,17104,-628,720,17130.66,31.45,-1.00,-1.0,2421
5933,310933,17148,-620,764,17176.21,31.40,-1.00,-1.0,2368
5938,310938,17008,-624,636,17031.32,31.40,-1.00,-1.0,2425
5941,310941,17084,-632,600,17106.21,31.49,-1.00,-1.0,2383
5943,310943,17048,-624,632,17071.12,31.35,-1.00,-1.0,2427
5946,310946,17176,-608,744,17202.85,31.49,-1.00,-1.0,2370
5949,310949,17004,-656,668,17029.76,31.35,-1.00,-1.0,2373
5951,310951,17024,-600,668,17047.66,31.40,-1.00,-1.0,2426
5954,310954,16984,-708,668,17011.87,31.45,-1.00,-1.0,2368
5957,310957,16984,-644,704,17010.78,31.49,-1.00,-1.0,2421
5960,310960,17096,-680,612,17120.46,31.45,-1.00,-1.0,2369
5967,310967,17020,-600,696,17044.79,31.45,-1.00,-1.0,2428
5969,310969,17056,-692,592,17080.29,31.45,-1.00,-1.0,2376
5972,310972,17104,-580,684,17127.49,31.40,-1.00,-1.0,2431
5975,310975,17092,-580,744,17118.01,31.45,-1.00,-1.0,2368
5978,310978,17008,-528,752,17032.80,31.49,-1.00,-1.0,2423
5980,310980,17060,-692,636,17085.87,31.45,-1.00,-1.0,2367
5983,310983,17020,-644,652,17044.65,31.40,-1.00,-1.0,2380
5986,310986,17024,-528,648,17044.51,31.45,-1.00,-1.0,2423
5989,310989,17056,-632,612,17078.67,31.40,-1.00,-1.0,2370
5993,310993,17024,-588,620,17045.43,31.49,-1.00,-1.0,2424
5996,310996,17052,-648,612,17075.28,31.40,-1.00,-1.0,2376
5999,310999,17076,-668,752,17105.60,31.40,-1.00,-1.0,2437
6001,311001,17096,-588,732,17121.76,31.40,-1.00,-1.0,2371
6004,311004,16988,-548,500,17004.19,31.49,-1.00,-1.0,2430
6007,311007,16984,-652,708,17011.25,31.40,-1.00,-1.0,2376
6010,311010,17096,-628,732,17123.18,31.40,-1.00,-1.0,2408
6012,311012,17012,-580,752,17038.49,31.49,-1.00,-1.0,2368
6015,311015,17080,-652,832,17112.68,31.49,-1.00,-1.0,2366
6020,311020,17004,-664,740,17033.04,31.49,-1.00,-1.0,2431
6023,311023,16976,-624,620,16998.78,31.40,-1.00,-1.0,2383
6026,311026,17076,-536,748,17100.78,31.45,-1.00,-1.0,2437
6028,311028,17120,-572,720,17144.68,31.45,-1.00,-1.0,2375
6031,311031,17112,-604,624,17134.02,31.45,-1.00,-1.0,2421
6034,311034,17020,-628,540,17040.14,31.45,-1.00,-1.0,2358
6037,311037,17112,-668,684,17138.69,31.35,-1.00,-1.0,2420
6039,311039,17112,-632,768,17140.88,31.45,-1.00,-1.0,2375
6044,311044,17028,-644,716,17055.21,31.45,-1.00,-1.0,2435
6047,311047,16924,-688,728,16953.62,31.40,-1.00,-1.0,2383
6050,311050,17052,-592,660,17075.03,31.45,-1.00,-1.0,2367
6052,311052,16956,-568,624,16976.98,31.49,-1.00,-1.0,2430
6055,311055,17076,-592,644,17098.39,31.45,-1.00,-1.0,2368
6058,311058,17008,-632,812,17039.10,31.49,-1.00,-1.0,2420
6061,311061,17052,-668,604,17075.77,31.45,-1.00,-1.0,2371
6063,311063,17108,-528,668,17129.18,31.40,-1.00,-1.0,2421
6066,311066,17072,-604,688,17096.53,31.40,-1.00,-1.0,2368
6071,311071,17136,-576,648,17157.92,31.45,-1.00,-1.0,2422
6074,311074,16992,-568,680,17015.08,31.45,-1.00,-1.0,2379
6077,311077,17088,-580,588,17107.95,31.40,-1.00,-1.0,2429
6079,311079,16964,-568,728,16989.11,31.45,-1.00,-1.0,2366
6082,311082,17112,-656,640,17136.53,31.31,-1.00,-1.0,2365
6085,311085,17028,-628,680,17053.14,31.45,-1.00,-1.0,2428
6087,311087,17084,-700,636,17110.16,31.49,-1.00,-1.0,2368
6090,311090,17028,-624,644,17051.60,31.45,-1.00,-1.0,2437
6093,311093,17048,-604,664,17071.62,31.40,-1.00,-1.0,2372
6098,311098,16964,-608,676,16988.35,31.49,-1.00,-1.0,2422
6101,311101,17028,-572,720,17052.81,31.40,-1.00,-1.0,2375
6103,311103,17004,-548,600,17023.40,31.45,-1.00,-1.0,2430
6106,311106,16956,-596,724,16981.91,31.40,-1.00,-1.0,2368
6109,311109,17184,-584,712,17208.66,31.40,-1.00,-1.0,2421
6112,311112,17020,-588,724,17045.54,31.40,-1.00,-1.0,2375
6114,311114,17060,-692,644,17086.17,31.45,-1.00,-1.0,2374
6117,311117,17080,-644,504,17099.57,31.49,-1.00,-1.0,2421
6120,311120,17116,-668,704,17143.49,31.45,-1.00,-1.0,2371
6125,311125,17028,-656,624,17052.05,31.40,-1.00,-1.0,2422
6128,311128,16988,-592,616,17009.47,31.49,-1.00,-1.0,2384
6130,311130,17008,-612,696,17033.23,31.35,-1.00,-1.0,2423
6133,311133,17072,-612,652,17095.40,31.40,-1.00,-1.0,2368
6136,311136,17008,-580,652,17030.37,31.49,-1.00,-1.0,2420
6139,311139,17060,-664,692,17086.94,31.40,-1.00,-1.0,2376
6141,311141,17088,-688,696,17116.00,31.35,-1.00,-1.0,2374
6144,311144,16976,-752,468,16999.09,31.40,-1.00,-1.0,2426
6147,311147,16972,-668,556,16994.24,31.35,-1.00,-1.0,2368
6152,311152,17000,-612,584,17021.03,31.35,-1.00,-1.0,2430
6154,311154,17024,-624,864,17057.33,31.45,-1.00,-1.0,2376
6157,311157,17032,-604,560,17051.90,31.40,-1.00,-1.0,2440
6160,311160,17064,-576,744,17089.92,31.35,-1.00,-1.0,2384
6163,311163,17052,-560,648,17073.49,31.40,-1.00,-1.0,2422
6166,311166,17060,-564,728,17084.84,31.45,-1.00,-1.0,2368
6168,311168,17104,-656,560,17125.73,31.40,-1.00,-1.0,2428
6171,311171,17156,-632,636,17179.41,31.35,-1.00,-1.0,2376
6174,311174,17068,-632,608,17090.52,31.40,-1.00,-1.0,2366
6178,311178,17052,-576,700,17076.08,31.45,-1.00,-1.0,2409
6181,311181,17060,-592,564,17079.58,31.40,-1.00,-1.0,2376
6184,311184,17012,-588,632,17033.89,31.40,-1.00,-1.0,2430
6187,311187,17016,-620,644,17039.46,31.49,-1.00,-1.0,2369
6189,311189,17056,-656,608,17079.44,31.45,-1.00,-1.0,2420
6192,311192,17004,-576,684,17027.50,31.45,-1.00,-1.0,2368
6195,311195,17076,-704,624,17101.89,31.45,-1.00,-1.0,2421
6198,311198,17128,-692,620,17153.18,31.45,-1.00,-1.0,2369
6202,311202,17112,-612,732,17138.58,31.40,-1.00,-1.0,2432
6205,311205,17108,-716,788,17141.10,31.40,-1.00,-1.0,2390
6208,311208,17036,-656,740,17064.68,31.54,-1.00,-1.0,2371
6210,311210,17044,-700,652,17070.82,31.45,-1.00,-1.0,2429
6213,311213,17052,-644,612,17075.13,31.45,-1.00,-1.0,2368
6216,311216,17044,-664,656,17069.54,31.45,-1.00,-1.0,2421
6219,311219,17044,-656,660,17069.38,31.45,-1.00,-1.0,2375
6221,311221,16996,-640,596,17018.48,31.45,-1.00,-1.0,2421
6224,311224,17056,-652,676,17081.84,31.45,-1.00,-1.0,2368
