timestamp_ms,global_ms,accel_x,accel_y,accel_z,accel_mag,temp_c,voltage,soc,loop_us
3,915003,17072,-608,800,17101.54,31.73,-1.00,-1.0,2497
9,915009,17040,-488,972,17074.68,31.87,-1.00,-1.0,2450
12,915012,17000,-600,856,17032.11,31.78,-1.00,-1.0,2383
14,915014,16980,-676,824,17013.42,31.82,-1.00,-1.0,2370
17,915017,17004,-576,700,17028.15,31.78,-1.00,-1.0,2417
20,915020,17088,-560,896,17120.63,31.82,-1.00,-1.0,2372
23,915023,17096,-652,776,17126.02,31.87,-1.00,-1.0,2420
25,915025,17132,-588,852,17163.25,31.73,-1.00,-1.0,2373
28,915028,17012,-640,912,17048.45,31.87,-1.00,-1.0,2417
31,915031,17072,-584,772,17099.42,31.82,-1.00,-1.0,2355
36,915036,17060,-592,724,17085.62,31.82,-1.00,-1.0,2439
38,915038,17036,-616,772,17064.61,31.78,-1.00,-1.0,2366
41,915041,17048,-648,912,17084.67,31.82,-1.00,-1.0,2366
44,915044,16996,-644,860,17029.93,31.87,-1.00,-1.0,2419
46,915046,17112,-552,876,17143.30,31.73,-1.00,-1.0,2373
49,915049,17024,-576,740,17049.81,31.87,-1.00,-1.0,2417
52,915052,17008,-648,916,17044.97,31.92,-1.00,-1.0,2371
55,915055,17044,-596,912,17078.79,31.87,-1.00,-1.0,2419
57,915057,17060,-528,824,17088.05,31.73,-1.00,-1.0,2373
60,915060,17128,-716,860,17164.52,31.78,-1.00,-1.0,2366
65,915065,17000,-612,900,17034.80,31.87,-1.00,-1.0,2442
68,915068,17084,-672,852,17118.43,31.82,-1.00,-1.0,2370
71,915071,16964,-568,876,16996.10,31.78,-1.00,-1.0,2418
73,915073,17088,-644,804,17119.02,31.87,-1.00,-1.0,2375
76,915076,17008,-608,776,17036.55,31.78,-1.00,-1.0,2419
79,915079,17028,-540,764,17053.68,31.78,-1.00,-1.0,2372
82,915082,17092,-664,744,17121.07,31.87,-1.00,-1.0,2417
84,915084,16980,-616,808,17010.37,31.87,-1.00,-1.0,2372
87,915087,17020,-676,812,17052.76,31.82,-1.00,-1.0,2375
92,915092,17000,-680,876,17036.13,31.78,-1.00,-1.0,2444
95,915095,17084,-596,736,17110.23,31.78,-1.00,-1.0,2368
97,915097,17048,-564,884,17080.22,31.78,-1.00,-1.0,2420
100,915100,17096,-676,800,17128.05,31.87,-1.00,-1.0,2373
103,915103,16884,-500,904,16915.57,31.92,-1.00,-1.0,2425
106,915106,17136,-612,780,17164.66,31.87,-1.00,-1.0,2370
108,915108,17084,-632,836,17116.12,31.82,-1.00,-1.0,2374
111,915111,17052,-640,756,17080.74,31.78,-1.00,-1.0,2420
114,915114,17028,-660,880,17063.49,31.78,-1.00,-1.0,2372
119,915119,17084,-616,872,17117.33,31.78,-1.00,-1.0,2445
121,915121,17020,-624,664,17044.37,31.73,-1.00,-1.0,2376
124,915124,17068,-568,808,17096.55,31.87,-1.00,-1.0,2418
127,915127,17012,-516,788,17038.06,31.82,-1.00,-1.0,2361
130,915130,17048,-632,884,17082.60,31.78,-1.00,-1.0,2426
132,915132,17080,-616,832,17111.34,31.78,-1.00,-1.0,2384
135,915135,16980,-628,904,17015.64,31.78,-1.00,-1.0,2366
138,915138,17108,-548,780,17134.54,31.73,-1.00,-1.0,2420
141,915141,17128,-628,876,17161.88,31.87,-1.00,-1.0,2372
146,915146,17112,-612,800,17141.62,31.78,-1.00,-1.0,2442
148,915148,17056,-720,896,17094.69,31.87,-1.00,-1.0,2378
151,915151,17060,-560,904,17093.11,31.68,-1.00,-1.0,2417
154,915154,17052,-596,732,17078.11,31.87,-1.00,-1.0,2372
157,915157,17028,-616,772,17056.62,31.78,-1.00,-1.0,2419
159,915159,17040,-620,724,17066.64,31.87,-1.00,-1.0,2376
162,915162,17004,-644,860,17037.91,31.78,-1.00,-1.0,2418
165,915165,17128,-748,852,17165.48,31.87,-1.00,-1.0,2361
168,915168,17060,-648,680,17085.84,31.78,-1.00,-1.0,2367
173,915173,17144,-668,772,17174.37,31.78,-1.00,-1.0,2441
175,915175,17096,-668,872,17131.25,31.78,-1.00,-1.0,2374
178,915178,17080,-584,920,17114.73,31.78,-1.00,-1.0,2417
181,915181,17072,-652,784,17102.43,31.87,-1.00,-1.0,2372
184,915184,16932,-528,720,16955.52,31.82,-1.00,-1.0,2419
186,915186,16976,-632,736,17003.70,31.87,-1.00,-1.0,2377
189,915189,17080,-536,912,17112.73,31.78,-1.00,-1.0,2417
192,915192,17068,-636,860,17101.48,31.87,-1.00,-1.0,2375
195,915195,17140,-696,756,17170.78,31.73,-1.00,-1.0,2367
200,915200,17140,-676,840,17173.88,31.82,-1.00,-1.0,2439
202,915202,17072,-668,792,17103.41,31.68,-1.00,-1.0,2376
205,915205,17048,-604,704,17073.22,31.87,-1.00,-1.0,2417
208,915208,17120,-640,704,17146.42,31.87,-1.00,-1.0,2376
211,915211,16980,-632,908,17016.00,31.64,-1.00,-1.0,2419
214,915214,17076,-592,992,17115.03,31.87,-1.00,-1.0,2371
216,915216,17056,-644,808,17087.27,31.82,-1.00,-1.0,2417
219,915219,17016,-596,720,17041.65,31.78,-1.00,-1.0,2375
222,915222,16992,-580,720,17017.13,31.82,-1.00,-1.0,2367
227,915227,17056,-572,772,17083.04,31.78,-1.00,-1.0,2439
229,915229,17056,-564,884,17088.20,31.82,-1.00,-1.0,2370
232,915232,17092,-628,652,17115.96,31.78,-1.00,-1.0,2431
235,915235,16988,-656,832,17021.01,31.87,-1.00,-1.0,2375
238,915238,16952,-636,836,16984.51,31.87,-1.00,-1.0,2428
240,915240,17080,-696,832,17114.41,31.87,-1.00,-1.0,2375
243,915243,17064,-556,936,17098.69,31.78,-1.00,-1.0,2431
246,915246,17076,-632,808,17106.78,31.87,-1.00,-1.0,2381
249,915249,17020,-616,776,17048.81,31.82,-1.00,-1.0,2374
254,915254,17004,-656,984,17045.08,31.82,-1.00,-1.0,2440
256,915256,17096,-704,852,17131.69,31.78,-1.00,-1.0,2368
259,915259,17088,-672,812,17120.47,31.82,-1.00,-1.0,2418
262,915262,17024,-604,900,17058.47,31.82,-1.00,-1.0,2372
265,915265,17028,-728,840,17064.24,31.82,-1.00,-1.0,2418
267,915267,17032,-556,924,17066.11,31.87,-1.00,-1.0,2372
270,915270,17084,-568,708,17108.10,31.82,-1.00,-1.0,2417
273,915273,17032,-624,732,17059.14,31.87,-1.00,-1.0,2371
276,915276,17092,-692,748,17122.35,31.78,-1.00,-1.0,2370
281,915281,17000,-644,764,17029.34,31.78,-1.00,-1.0,2446
284,915284,17020,-596,888,17053.57,31.92,-1.00,-1.0,2369
286,915286,17108,-540,844,17137.32,31.87,-1.00,-1.0,2417
289,915289,17096,-616,756,17123.79,31.82,-1.00,-1.0,2373
292,915292,17052,-612,776,17080.62,31.78,-1.00,-1.0,2428
295,915295,17040,-568,728,17065.00,31.87,-1.00,-1.0,2370
297,915297,17036,-688,864,17071.76,31.78,-1.00,-1.0,2418
300,915300,17072,-532,792,17098.64,31.87,-1.00,-1.0,2372
303,915303,17084,-580,900,17117.52,31.78,-1.00,-1.0,2374
308,915308,17012,-596,908,17046.64,31.78,-1.00,-1.0,2440
311,915311,17064,-536,844,17093.27,31.82,-1.00,-1.0,2369
314,915314,17004,-512,588,17021.87,31.78,-1.00,-1.0,2417
316,915316,17012,-600,660,17035.37,31.82,-1.00,-1.0,2372
319,915319,17036,-608,920,17071.65,31.78,-1.00,-1.0,2417
322,915322,16960,-644,848,16993.39,31.82,-1.00,-1.0,2372
325,915325,17084,-580,716,17108.83,31.78,-1.00,-1.0,2418
327,915327,17052,-616,700,17077.47,31.82,-1.00,-1.0,2373
330,915330,17020,-560,788,17047.43,31.82,-1.00,-1.0,2375
335,915335,17156,-656,956,17195.13,31.78,-1.00,-1.0,2446
338,915338,17076,-580,892,17109.12,31.87,-1.00,-1.0,2371
340,915340,17100,-620,836,17131.65,31.82,-1.00,-1.0,2432
343,915343,17028,-668,848,17062.18,31.78,-1.00,-1.0,2372
346,915346,17148,-576,904,17181.47,31.73,-1.00,-1.0,2428
349,915349,16960,-580,816,16989.52,31.78,-1.00,-1.0,2372
351,915351,17044,-644,828,17076.25,31.82,-1.00,-1.0,2427
354,915354,17040,-576,792,17068.12,31.87,-1.00,-1.0,2372
357,915357,17120,-612,864,17152.71,31.82,-1.00,-1.0,2367
362,915362,17060,-588,760,17087.04,31.82,-1.00,-1.0,2447
365,915365,17072,-652,804,17103.35,31.78,-1.00,-1.0,2367
367,915367,17108,-632,756,17136.35,31.73,-1.00,-1.0,2428
370,915370,17064,-612,844,17095.82,31.87,-1.00,-1.0,2372
373,915373,17028,-596,868,17060.52,31.82,-1.00,-1.0,2420
376,915376,17104,-692,848,17138.98,31.78,-1.00,-1.0,2372
378,915378,17132,-624,880,17165.93,31.82,-1.00,-1.0,2428
381,915381,17108,-692,856,17143.37,31.78,-1.00,-1.0,2372
384,915384,17004,-660,740,17032.89,31.82,-1.00,-1.0,2369
389,915389,16992,-656,916,17029.31,31.82,-1.00,-1.0,2442
392,915392,17040,-652,792,17070.85,31.82,-1.00,-1.0,2373
394,915394,17060,-660,796,17091.31,31.92,-1.00,-1.0,2426
397,915397,17028,-524,844,17056.96,31.82,-1.00,-1.0,2386
400,915400,17088,-632,708,17114.33,31.87,-1.00,-1.0,2418
403,915403,17064,-652,720,17091.62,31.73,-1.00,-1.0,2372
406,915406,17104,-584,772,17131.37,31.97,-1.00,-1.0,2420
408,915408,17028,-728,772,17061.03,31.92,-1.00,-1.0,2388
411,915411,17052,-592,704,17076.79,31.78,-1.00,-1.0,2367
416,915416,17016,-680,716,17044.63,31.82,-1.00,-1.0,2427
419,915419,17112,-604,876,17145.05,31.82,-1.00,-1.0,2376
422,915422,16992,-544,840,17021.45,31.78,-1.00,-1.0,2425
424,915424,17108,-552,816,17136.34,31.82,-1.00,-1.0,2386
427,915427,16940,-728,880,16978.46,31.87,-1.00,-1.0,2420
430,915430,17028,-608,720,17054.06,31.82,-1.00,-1.0,2374
433,915433,17020,-600,800,17049.35,31.87,-1.00,-1.0,2420
435,915435,17012,-532,908,17044.52,31.82,-1.00,-1.0,2388
438,915438,16956,-552,940,16991.00,31.87,-1.00,-1.0,2367
443,915443,17076,-532,928,17109.47,31.82,-1.00,-1.0,2446
446,915446,17000,-700,764,17031.55,31.87,-1.00,-1.0,2368
448,915448,17016,-648,796,17046.93,31.82,-1.00,-1.0,2419
451,915451,17016,-628,756,17044.36,31.87,-1.00,-1.0,2372
454,915454,17068,-592,828,17098.32,31.82,-1.00,-1.0,2425
457,915457,17004,-500,764,17028.50,31.78,-1.00,-1.0,2370
459,915459,16968,-692,764,16999.28,31.82,-1.00,-1.0,2421
462,915462,17088,-660,760,17117.62,31.87,-1.00,-1.0,2372
465,915465,17112,-620,888,17146.24,31.87,-1.00,-1.0,2367
470,915470,17052,-616,808,17082.24,31.87,-1.00,-1.0,2445
472,915472,17060,-616,844,17091.97,31.78,-1.00,-1.0,2378
475,915475,17072,-576,860,17103.35,31.78,-1.00,-1.0,2417
478,915478,17040,-640,736,17067.89,31.87,-1.00,-1.0,2376
481,915481,17104,-604,984,17142.93,31.87,-1.00,-1.0,2419
483,915483,17128,-616,792,17157.36,31.78,-1.00,-1.0,2376
486,915486,17028,-632,948,17066.07,31.78,-1.00,-1.0,2417
489,915489,17148,-556,800,17175.65,31.78,-1.00,-1.0,2372
492,915492,17136,-676,772,17166.70,31.87,-1.00,-1.0,2367
497,915497,17008,-652,876,17043.02,31.78,-1.00,-1.0,2426
500,915500,17024,-556,852,17054.37,31.87,-1.00,-1.0,2369
503,915503,17056,-588,928,17091.34,31.82,-1.00,-1.0,2417
505,915505,17040,-676,760,17070.33,31.78,-1.00,-1.0,2372
508,915508,17036,-684,808,17068.86,31.87,-1.00,-1.0,2417
511,915511,17048,-672,764,17078.34,31.87,-1.00,-1.0,2372
514,915514,17036,-560,812,17064.53,31.82,-1.00,-1.0,2417
516,915516,17044,-680,748,17073.95,31.78,-1.00,-1.0,2371
519,915519,17020,-576,808,17048.90,31.82,-1.00,-1.0,2367
524,915524,17024,-788,808,17061.37,31.73,-1.00,-1.0,2441
527,915527,17112,-684,804,17144.53,31.82,-1.00,-1.0,2370
530,915530,17052,-652,916,17089.03,31.82,-1.00,-1.0,2421
532,915532,17160,-556,760,17185.82,31.82,-1.00,-1.0,2358
535,915535,16956,-632,840,16988.55,31.73,-1.00,-1.0,2418
538,915538,16984,-628,724,17011.02,31.82,-1.00,-1.0,2372
541,915541,17084,-548,664,17105.68,31.82,-1.00,-1.0,2418
543,915543,17032,-604,896,17066.24,31.82,-1.00,-1.0,2372
548,915548,17072,-600,828,17102.60,31.73,-1.00,-1.0,2440
551,915551,17068,-676,692,17095.39,31.87,-1.00,-1.0,2375
554,915554,17052,-644,844,17085.02,31.82,-1.00,-1.0,2365
556,915556,17064,-644,780,17093.95,31.87,-1.00,-1.0,2435
559,915559,17084,-608,772,17112.24,31.87,-1.00,-1.0,2372
562,915562,17088,-692,776,17119.60,31.87,-1.00,-1.0,2428
565,915565,17016,-564,728,17040.90,31.78,-1.00,-1.0,2372
567,915567,17048,-580,892,17081.17,31.87,-1.00,-1.0,2428
570,915570,17044,-620,948,17081.60,31.87,-1.00,-1.0,2387
575,915575,16928,-536,776,16954.25,31.87,-1.00,-1.0,2455
578,915578,17000,-556,840,17029.82,31.87,-1.00,-1.0,2377
581,915581,17000,-664,824,17032.91,31.82,-1.00,-1.0,2364
583,915583,17052,-604,916,17087.26,31.82,-1.00,-1.0,2417
586,915586,17116,-652,740,17144.39,31.87,-1.00,-1.0,2373
589,915589,16996,-564,904,17029.37,31.82,-1.00,-1.0,2420
592,915592,17068,-628,764,17096.63,31.82,-1.00,-1.0,2371
594,915594,17052,-644,764,17081.25,31.82,-1.00,-1.0,2417
597,915597,16984,-616,888,17018.35,31.87,-1.00,-1.0,2379
602,915602,17044,-540,880,17075.24,31.73,-1.00,-1.0,2449
605,915605,17116,-704,696,17144.61,31.78,-1.00,-1.0,2376
608,915608,17028,-716,796,17061.62,31.82,-1.00,-1.0,2365
610,915610,16992,-568,772,17019.01,31.82,-1.00,-1.0,2472
613,915613,17064,-668,764,17094.15,31.82,-1.00,-1.0,2354
616,915616,17076,-640,704,17102.48,31.92,-1.00,-1.0,2422
619,915619,17016,-600,868,17048.69,31.82,-1.00,-1.0,2369
622,915622,17004,-652,772,17034.00,31.82,-1.00,-1.0,2423
624,915624,17080,-560,864,17111.01,31.82,-1.00,-1.0,2369
629,915629,17040,-640,832,17072.30,31.82,-1.00,-1.0,2441
632,915632,16976,-556,804,17004.12,31.78,-1.00,-1.0,2368
635,915635,17032,-588,764,17059.26,31.73,-1.00,-1.0,2365
637,915637,17052,-632,872,17085.97,31.87,-1.00,-1.0,2429
640,915640,17040,-636,888,17074.97,31.82,-1.00,-1.0,2369
643,915643,17028,-568,780,17055.32,31.87,-1.00,-1.0,2428
646,915646,16964,-604,760,16991.75,31.78,-1.00,-1.0,2367
648,915648,16952,-576,780,16979.71,31.87,-1.00,-1.0,2422
651,915651,17148,-684,720,17176.73,31.73,-1.00,-1.0,2369
656,915656,16984,-620,872,17017.67,31.87,-1.00,-1.0,2431
659,915659,17044,-580,776,17071.51,31.82,-1.00,-1.0,2366
661,915661,17124,-588,728,17149.55,31.87,-1.00,-1.0,2368
664,915664,17028,-624,884,17062.35,31.82,-1.00,-1.0,2443
667,915667,17032,-564,860,17063.02,31.78,-1.00,-1.0,2375
670,915670,17048,-652,832,17080.74,31.82,-1.00,-1.0,2434
672,915672,16972,-688,860,17007.70,31.82,-1.00,-1.0,2378
675,915675,17052,-588,884,17085.02,31.78,-1.00,-1.0,2418
678,915678,17048,-628,952,17086.11,31.82,-1.00,-1.0,2369
683,915683,17144,-628,820,17175.08,31.82,-1.00,-1.0,2434
686,915686,17044,-620,772,17072.74,31.82,-1.00,-1.0,2365
688,915688,17056,-576,808,17084.84,31.73,-1.00,-1.0,2365
691,915691,17108,-656,640,17132.53,31.87,-1.00,-1.0,2428
694,915694,17080,-700,804,17113.23,31.82,-1.00,-1.0,2368
697,915697,16976,-704,772,17008.12,31.87,-1.00,-1.0,2419
699,915699,17104,-560,948,17139.40,31.78,-1.00,-1.0,2369
702,915702,17112,-692,912,17150.25,31.78,-1.00,-1.0,2418
705,915705,17072,-556,780,17098.85,31.78,-1.00,-1.0,2368
710,915710,16992,-676,844,17026.37,31.87,-1.00,-1.0,2431
713,915713,16964,-704,720,16993.86,31.82,-1.00,-1.0,2366
716,915716,17032,-584,816,17061.53,31.78,-1.00,-1.0,2365
718,915718,16932,-452,908,16962.35,31.82,-1.00,-1.0,2436
721,915721,17100,-668,672,17126.23,31.92,-1.00,-1.0,2369
724,915724,17028,-592,800,17057.06,31.82,-1.00,-1.0,2426
727,915727,17104,-684,864,17139.46,31.82,-1.00,-1.0,2368
729,915729,17124,-696,900,17161.75,31.82,-1.00,-1.0,2434
732,915732,17028,-544,848,17057.78,31.87,-1.00,-1.0,2368
738,915738,17072,-580,728,17097.36,31.78,-1.00,-1.0,2434
740,915740,17024,-588,944,17060.29,31.82,-1.00,-1.0,2367
743,915743,17096,-708,844,17131.46,31.78,-1.00,-1.0,2365
746,915746,17048,-588,808,17077.26,31.82,-1.00,-1.0,2429
748,915748,17148,-692,876,17184.30,31.78,-1.00,-1.0,2368
751,915751,17052,-660,720,17079.95,31.73,-1.00,-1.0,2420
754,915754,17104,-616,912,17139.37,31.87,-1.00,-1.0,2375
757,915757,17060,-656,792,17090.97,31.73,-1.00,-1.0,2419
759,915759,17088,-580,824,17117.68,31.82,-1.00,-1.0,2372
764,915764,17100,-660,956,17139.41,31.87,-1.00,-1.0,2430
767,915767,17036,-556,720,17060.27,31.78,-1.00,-1.0,2351
770,915770,17072,-716,724,17102.34,31.82,-1.00,-1.0,2367
772,915772,16972,-704,880,17009.37,31.82,-1.00,-1.0,2446
775,915775,17132,-612,768,17160.12,31.82,-1.00,-1.0,2375
778,915778,17052,-664,656,17077.53,31.87,-1.00,-1.0,2423
781,915781,17052,-484,680,17072.42,31.82,-1.00,-1.0,2369
783,915783,17044,-692,832,17078.32,31.78,-1.00,-1.0,2429
786,915786,17076,-548,812,17104.08,31.82,-1.00,-1.0,2372
791,915791,16944,-600,816,16974.24,31.73,-1.00,-1.0,2433
794,915794,17104,-628,808,17134.59,31.87,-1.00,-1.0,2364
797,915797,17000,-620,892,17034.67,31.82,-1.00,-1.0,2366
799,915799,17052,-660,816,17084.27,31.78,-1.00,-1.0,2435
802,915802,17044,-628,792,17073.95,31.78,-1.00,-1.0,2384
805,915805,17020,-688,712,17048.77,31.78,-1.00,-1.0,2421
808,915808,17076,-656,776,17106.21,31.78,-1.00,-1.0,2370
811,915811,16952,-616,888,16986.42,31.78,-1.00,-1.0,2422
813,915813,17020,-616,896,17054.70,31.82,-1.00,-1.0,2371
818,915818,17028,-604,824,17058.62,31.82,-1.00,-1.0,2434
821,915821,17084,-664,872,17119.12,31.82,-1.00,-1.0,2367
824,915824,17084,-616,784,17113.07,31.78,-1.00,-1.0,2371
827,915827,17000,-616,764,17028.30,31.87,-1.00,-1.0,2415
829,915829,17032,-556,896,17064.61,31.97,-1.00,-1.0,2376
832,915832,17024,-660,816,17056.32,31.78,-1.00,-1.0,2421
835,915835,17072,-604,916,17107.22,31.78,-1.00,-1.0,2369
838,915838,17088,-648,888,17123.32,31.78,-1.00,-1.0,2420
840,915840,17052,-620,828,17083.35,31.78,-1.00,-1.0,2376
845,915845,16960,-564,788,16987.66,31.78,-1.00,-1.0,2434
848,915848,17020,-592,844,17051.19,31.82,-1.00,-1.0,2365
851,915851,17088,-676,780,17119.14,31.78,-1.00,-1.0,2369
854,915854,17080,-624,920,17116.14,31.82,-1.00,-1.0,2428
856,915856,17124,-632,748,17151.98,31.87,-1.00,-1.0,2368
859,915859,17040,-612,756,17067.74,31.92,-1.00,-1.0,2407
862,915862,16972,-564,688,16995.30,31.87,-1.00,-1.0,2369
865,915865,16968,-564,868,16999.54,31.82,-1.00,-1.0,2419
867,915867,17096,-588,736,17121.94,31.87,-1.00,-1.0,2376
872,915872,17032,-672,792,17063.64,31.82,-1.00,-1.0,2431
875,915875,17092,-568,840,17122.05,31.78,-1.00,-1.0,2365
878,915878,17120,-652,752,17148.91,31.82,-1.00,-1.0,2364
880,915880,17104,-560,848,17134.16,31.78,-1.00,-1.0,2436
883,915883,17060,-656,832,17092.87,31.73,-1.00,-1.0,2369
886,915886,17096,-616,872,17129.30,31.78,-1.00,-1.0,2426
889,915889,17096,-600,796,17125.04,31.87,-1.00,-1.0,2369
892,915892,17152,-604,920,17187.27,31.92,-1.00,-1.0,2419
894,915894,17032,-608,780,17060.69,31.82,-1.00,-1.0,2372
899,915899,17168,-608,772,17196.10,31.87,-1.00,-1.0,2431
902,915902,17020,-616,852,17052.44,31.87,-1.00,-1.0,2377
904,915904,16940,-704,800,16973.49,31.82,-1.00,-1.0,2372
907,915907,17120,-580,700,17144.12,31.82,-1.00,-1.0,2428
910,915910,17104,-632,896,17139.11,31.82,-1.00,-1.0,2370
913,915913,17020,-632,884,17054.66,31.82,-1.00,-1.0,2421
916,915916,17176,-676,812,17208.47,31.92,-1.00,-1.0,2368
919,915919,17156,-588,892,17189.23,31.82,-1.00,-1.0,2420
922,915922,17028,-600,772,17056.05,31.73,-1.00,-1.0,2370
927,915927,17068,-624,812,17098.69,31.73,-1.00,-1.0,2438
929,915929,16996,-604,1052,17039.23,31.82,-1.00,-1.0,2372
932,915932,17036,-720,788,17069.41,31.92,-1.00,-1.0,2428
935,915935,17076,-536,800,17103.13,31.78,-1.00,-1.0,2369
937,915937,17016,-616,812,17046.50,31.87,-1.00,-1.0,2365
940,915940,16928,-676,908,16965.81,31.78,-1.00,-1.0,2419
943,915943,17056,-688,772,17087.32,31.73,-1.00,-1.0,2369
946,915946,17116,-748,708,17146.96,31.78,-1.00,-1.0,2419
949,915949,17008,-632,804,17038.72,31.73,-1.00,-1.0,2369
954,915954,17020,-624,692,17045.49,31.82,-1.00,-1.0,2433
956,915956,17144,-552,748,17169.19,31.82,-1.00,-1.0,2354
959,915959,16976,-580,732,17001.67,31.92,-1.00,-1.0,2428
962,915962,17008,-664,876,17043.48,31.78,-1.00,-1.0,2370
964,915964,17032,-584,760,17058.95,31.78,-1.00,-1.0,2365
967,915967,17056,-496,868,17085.27,31.78,-1.00,-1.0,2419
970,915970,17156,-648,888,17191.18,31.87,-1.00,-1.0,2376
973,915973,17052,-604,860,17084.35,31.87,-1.00,-1.0,2419
976,915976,16992,-668,724,17020.53,31.78,-1.00,-1.0,2368
981,915981,17056,-572,848,17086.64,31.87,-1.00,-1.0,2431
983,915983,17176,-668,952,17215.33,31.92,-1.00,-1.0,2365
986,915986,17004,-636,708,17030.61,31.78,-1.00,-1.0,2429
989,915989,17092,-704,856,17127.90,31.82,-1.00,-1.0,2369
991,915991,17084,-632,960,17122.62,31.78,-1.00,-1.0,2371
994,915994,17128,-636,816,17159.22,31.82,-1.00,-1.0,2434
997,915997,16980,-616,780,17009.06,31.78,-1.00,-1.0,2376
1000,916000,17076,-668,796,17107.59,31.82,-1.00,-1.0,2433
1003,916003,17136,-564,788,17163.38,31.78,-1.00,-1.0,2367
1008,916008,17104,-548,664,17125.65,31.78,-1.00,-1.0,2431
1010,916010,17036,-548,784,17062.83,31.78,-1.00,-1.0,2361
1013,916013,16968,-644,740,16996.33,31.87,-1.00,-1.0,2428
1016,916016,17108,-532,1004,17145.69,31.78,-1.00,-1.0,2368
1018,916018,17160,-704,812,17193.62,31.82,-1.00,-1.0,2367
1021,916021,16964,-600,844,16995.58,31.82,-1.00,-1.0,2429
1024,916024,17012,-580,808,17041.05,31.73,-1.00,-1.0,2375
1027,916027,17012,-664,832,17045.27,31.82,-1.00,-1.0,2428
1030,916030,17028,-544,1000,17066.01,31.87,-1.00,-1.0,2368
1035,916035,17020,-556,844,17049.98,31.78,-1.00,-1.0,2431
1037,916037,17052,-600,864,17084.41,31.87,-1.00,-1.0,2348
1040,916040,17092,-584,792,17120.30,31.78,-1.00,-1.0,2429
1043,916043,17044,-608,816,17074.35,31.78,-1.00,-1.0,2368
1046,916046,17020,-644,780,17050.03,31.78,-1.00,-1.0,2419
1048,916048,17056,-580,880,17088.53,31.87,-1.00,-1.0,2368
1051,916051,17068,-620,904,17103.16,31.92,-1.00,-1.0,2373
1054,916054,17008,-604,800,17037.51,31.78,-1.00,-1.0,2431
1057,916057,17116,-636,748,17144.14,31.97,-1.00,-1.0,2366
1062,916062,17060,-632,692,17085.72,31.78,-1.00,-1.0,2430
1064,916064,17024,-716,812,17058.39,31.78,-1.00,-1.0,2361
1067,916067,17040,-640,864,17073.89,31.82,-1.00,-1.0,2428
1070,916070,17036,-516,748,17060.22,31.87,-1.00,-1.0,2376
1073,916073,17052,-604,920,17087.48,31.82,-1.00,-1.0,2419
1075,916075,17024,-604,916,17059.32,31.82,-1.00,-1.0,2370
1078,916078,17068,-656,744,17096.80,31.82,-1.00,-1.0,2427
1081,916081,17060,-592,748,17086.65,31.82,-1.00,-1.0,2375
1084,916084,17008,-704,860,17044.27,31.82,-1.00,-1.0,2367
1089,916089,17036,-692,756,17066.80,31.78,-1.00,-1.0,2434
1091,916091,16996,-640,816,17027.61,31.78,-1.00,-1.0,2372
1094,916094,17092,-584,864,17123.79,31.68,-1.00,-1.0,2428
1097,916097,17020,-576,868,17051.85,31.78,-1.00,-1.0,2370
1100,916100,16992,-660,804,17023.81,31.87,-1.00,-1.0,2419
1102,916102,17020,-624,872,17053.74,31.78,-1.00,-1.0,2371
1105,916105,17044,-592,756,17071.03,31.78,-1.00,-1.0,2419
1108,916108,17028,-540,844,17057.45,31.87,-1.00,-1.0,2370
1112,916112,17132,-592,748,17158.54,31.73,-1.00,-1.0,2431
1115,916115,16992,-704,836,17027.11,31.73,-1.00,-1.0,2366
1118,916118,17112,-656,820,17144.19,31.78,-1.00,-1.0,2368
1121,916121,17124,-560,928,17158.27,31.87,-1.00,-1.0,2428
1123,916123,17152,-624,832,17183.50,31.78,-1.00,-1.0,2371
1126,916126,17120,-636,812,17151.04,31.87,-1.00,-1.0,2419
1129,916129,17140,-536,812,17167.59,31.78,-1.00,-1.0,2370
1132,916132,17064,-612,848,17096.02,31.78,-1.00,-1.0,2420
1135,916135,16996,-660,820,17028.56,31.87,-1.00,-1.0,2367
1140,916140,17080,-592,860,17111.88,31.78,-1.00,-1.0,2436
1142,916142,16980,-568,876,17012.07,31.78,-1.00,-1.0,2374
1145,916145,17060,-632,996,17100.73,31.78,-1.00,-1.0,2428
1148,916148,17028,-688,712,17056.76,31.78,-1.00,-1.0,2371
1151,916151,17072,-664,868,17106.94,31.87,-1.00,-1.0,2366
1153,916153,17120,-600,884,17153.30,31.82,-1.00,-1.0,2420
1156,916156,16964,-640,732,16991.84,31.92,-1.00,-1.0,2369
1159,916159,17068,-604,864,17100.53,31.82,-1.00,-1.0,2426
1162,916162,17104,-568,816,17132.87,31.87,-1.00,-1.0,2369
1167,916167,17020,-684,756,17050.51,31.78,-1.00,-1.0,2438
1170,916170,17144,-560,912,17177.37,31.82,-1.00,-1.0,2365
1172,916172,17028,-672,624,17052.68,31.87,-1.00,-1.0,2436
1175,916175,17048,-668,876,17083.56,31.97,-1.00,-1.0,2383
1178,916178,17088,-608,852,17120.03,31.78,-1.00,-1.0,2419
1181,916181,17020,-656,900,17056.40,31.78,-1.00,-1.0,2369
1183,916183,17052,-636,912,17088.21,31.82,-1.00,-1.0,2370
1186,916186,16964,-664,840,16997.76,31.92,-1.00,-1.0,2419
1189,916189,17020,-656,720,17047.85,31.82,-1.00,-1.0,2369
1194,916194,17020,-660,816,17052.33,31.82,-1.00,-1.0,2432
1196,916196,17076,-580,868,17107.88,31.87,-1.00,-1.0,2373
1199,916199,17124,-604,848,17155.62,31.82,-1.00,-1.0,2428
1202,916202,17148,-628,884,17182.25,31.78,-1.00,-1.0,2370
1205,916205,17008,-572,764,17034.76,31.82,-1.00,-1.0,2421
1208,916208,17064,-620,792,17093.62,31.78,-1.00,-1.0,2368
1210,916210,17028,-616,932,17064.61,31.82,-1.00,-1.0,2365
1213,916213,17052,-584,916,17086.57,31.78,-1.00,-1.0,2426
1216,916216,17012,-680,932,17051.08,31.82,-1.00,-1.0,2369
1221,916221,17020,-620,832,17051.60,31.82,-1.00,-1.0,2431
1223,916223,17080,-596,860,17112.02,31.78,-1.00,-1.0,2371
1226,916226,17028,-612,724,17054.37,31.82,-1.00,-1.0,2428
1229,916229,17008,-468,800,17033.23,31.82,-1.00,-1.0,2368
1232,916232,17088,-592,832,17118.48,31.82,-1.00,-1.0,2426
1235,916235,17016,-660,840,17049.50,31.73,-1.00,-1.0,2368
1237,916237,17080,-560,776,17106.79,31.82,-1.00,-1.0,2419
1240,916240,17076,-640,860,17109.62,31.82,-1.00,-1.0,2369
1243,916243,16972,-632,720,16999.02,31.82,-1.00,-1.0,2372
1248,916248,17064,-620,784,17093.25,31.82,-1.00,-1.0,2431
1251,916251,17036,-580,868,17067.96,31.87,-1.00,-1.0,2368
1253,916253,17104,-624,604,17126.03,31.82,-1.00,-1.0,2428
1256,916256,17044,-564,880,17076.02,31.82,-1.00,-1.0,2358
1259,916259,17076,-660,836,17109.19,31.73,-1.00,-1.0,2427
1262,916262,17048,-624,760,17076.34,31.82,-1.00,-1.0,2368
1264,916264,17024,-600,892,17057.91,31.87,-1.00,-1.0,2422
1267,916267,17024,-556,884,17056.00,31.82,-1.00,-1.0,2369
1272,916272,17112,-672,784,17143.13,31.82,-1.00,-1.0,2435
1275,916275,17164,-508,732,17187.11,31.82,-1.00,-1.0,2372
1277,916277,17072,-608,792,17101.17,31.82,-1.00,-1.0,2364
1280,916280,17096,-648,736,17124.10,31.78,-1.00,-1.0,2428
1283,916283,17000,-612,732,17026.75,31.78,-1.00,-1.0,2380
1286,916286,16984,-656,912,17021.12,31.78,-1.00,-1.0,2419
1288,916288,17036,-652,776,17066.12,31.87,-1.00,-1.0,2369
1291,916291,16964,-592,720,16989.59,31.78,-1.00,-1.0,2419
1294,916294,17020,-528,892,17051.54,31.87,-1.00,-1.0,2378
1299,916299,16912,-656,720,16940.03,31.82,-1.00,-1.0,2438
1301,916301,17076,-600,916,17111.07,31.87,-1.00,-1.0,2375
1304,916304,17064,-536,824,17092.29,31.82,-1.00,-1.0,2428
1307,916307,17140,-596,892,17173.54,31.82,-1.00,-1.0,2371
1310,916310,17112,-684,876,17148.05,31.87,-1.00,-1.0,2366
1312,916312,16960,-712,968,17002.52,31.78,-1.00,-1.0,2420
1315,916315,17016,-612,860,17048.71,31.78,-1.00,-1.0,2369
1318,916318,17088,-648,816,17119.74,31.82,-1.00,-1.0,2409
1321,916321,17040,-656,772,17070.09,31.82,-1.00,-1.0,2376
1328,916328,17048,-676,780,17079.22,31.73,-1.00,-1.0,2420
1330,916330,16996,-640,976,17036.03,31.82,-1.00,-1.0,2373
1333,916333,17000,-580,704,17024.45,31.78,-1.00,-1.0,2428
1336,916336,17016,-736,856,17053.41,31.82,-1.00,-1.0,2369
1339,916339,17124,-628,704,17149.97,31.78,-1.00,-1.0,2419
1341,916341,17044,-648,848,17077.38,31.82,-1.00,-1.0,2356
1344,916344,17036,-712,704,17065.40,31.87,-1.00,-1.0,2366
1347,916347,17152,-584,936,17187.45,31.78,-1.00,-1.0,2419
1349,916349,16992,-644,776,17021.90,31.78,-1.00,-1.0,2369
1354,916354,16972,-640,772,17001.60,31.87,-1.00,-1.0,2431
1357,916357,17112,-572,908,17145.62,31.78,-1.00,-1.0,2371
1360,916360,17148,-600,928,17183.57,31.78,-1.00,-1.0,2437
1363,916363,17068,-712,816,17102.32,31.87,-1.00,-1.0,2365
1365,916365,17008,-548,736,17032.73,31.87,-1.00,-1.0,2419
1368,916368,17040,-628,952,17078.12,31.78,-1.00,-1.0,2356
1371,916371,17132,-612,916,17167.38,31.78,-1.00,-1.0,2427
1374,916374,16932,-632,864,16965.80,31.78,-1.00,-1.0,2368
1376,916376,17156,-668,1048,17200.96,31.82,-1.00,-1.0,2364
1381,916381,17100,-704,812,17133.74,31.78,-1.00,-1.0,2430
1384,916384,17076,-580,904,17109.75,31.87,-1.00,-1.0,2366
1387,916387,17088,-656,796,17119.10,31.87,-1.00,-1.0,2429
1389,916389,17048,-580,812,17077.18,31.87,-1.00,-1.0,2369
1392,916392,16996,-580,836,17026.43,31.82,-1.00,-1.0,2419
1395,916395,17008,-680,860,17043.30,31.97,-1.00,-1.0,2368
1398,916398,17036,-588,776,17063.80,31.82,-1.00,-1.0,2420
1400,916400,17020,-584,784,17048.05,31.87,-1.00,-1.0,2372
1403,916403,16968,-600,904,17002.65,31.82,-1.00,-1.0,2369
1408,916408,17104,-576,876,17136.10,31.92,-1.00,-1.0,2439
1411,916411,16988,-608,800,17017.69,31.82,-1.00,-1.0,2365
1413,916413,16980,-664,868,17015.13,31.82,-1.00,-1.0,2443
1416,916416,17076,-616,948,17113.38,31.82,-1.00,-1.0,2376
1419,916419,17028,-552,836,17057.44,31.73,-1.00,-1.0,2407
1422,916422,17020,-704,824,17054.47,31.73,-1.00,-1.0,2368
1424,916424,17044,-704,788,17076.72,31.78,-1.00,-1.0,2427
1427,916427,17072,-580,764,17098.93,31.92,-1.00,-1.0,2375
1432,916432,17008,-788,724,17041.63,31.92,-1.00,-1.0,2431
1435,916435,17040,-636,928,17077.10,31.92,-1.00,-1.0,2373
1437,916437,17224,-640,920,17260.42,31.78,-1.00,-1.0,2379
1440,916440,17044,-648,932,17081.76,31.87,-1.00,-1.0,2428
1443,916443,17100,-620,888,17134.26,31.87,-1.00,-1.0,2371
1446,916446,17040,-616,756,17067.88,31.78,-1.00,-1.0,2424
1448,916448,17072,-648,740,17100.31,31.87,-1.00,-1.0,2368
1451,916451,17076,-640,992,17116.76,31.87,-1.00,-1.0,2419
1454,916454,17032,-564,832,17061.63,31.87,-1.00,-1.0,2369
1459,916459,17080,-656,704,17107.08,31.87,-1.00,-1.0,2434
1462,916462,16980,-660,808,17012.02,31.78,-1.00,-1.0,2372
1465,916465,16968,-628,660,16992.44,31.87,-1.00,-1.0,2430
1467,916467,17036,-592,756,17063.04,31.87,-1.00,-1.0,2377
1470,916470,17068,-644,816,17099.63,31.82,-1.00,-1.0,2367
1473,916473,17076,-680,832,17109.78,31.82,-1.00,-1.0,2419
1475,916475,17016,-604,808,17045.88,31.78,-1.00,-1.0,2368
1478,916478,17028,-648,764,17057.44,31.73,-1.00,-1.0,2419
1481,916481,16964,-640,780,16993.98,31.82,-1.00,-1.0,2369
1486,916486,16968,-692,828,17002.28,31.73,-1.00,-1.0,2431
1488,916488,16928,-640,812,16959.54,31.78,-1.00,-1.0,2352
1491,916491,17140,-632,768,17168.83,31.78,-1.00,-1.0,2428
1494,916494,17092,-596,824,17122.23,31.78,-1.00,-1.0,2369
1497,916497,16996,-620,720,17022.54,31.92,-1.00,-1.0,2421
1500,916500,17116,-600,708,17141.14,31.87,-1.00,-1.0,2367
1502,916502,17048,-500,1000,17084.62,31.73,-1.00,-1.0,2365
1505,916505,17100,-604,936,17136.25,31.87,-1.00,-1.0,2427
1508,916508,17020,-604,992,17059.58,31.82,-1.00,-1.0,2369
1512,916512,17052,-588,848,17083.20,31.87,-1.00,-1.0,2440
1515,916515,17044,-580,920,17078.66,31.87,-1.00,-1.0,2376
1518,916518,17028,-604,852,17060.00,31.87,-1.00,-1.0,2431
1521,916521,17004,-592,860,17036.02,31.87,-1.00,-1.0,2373
1524,916524,17176,-636,868,17209.67,31.82,-1.00,-1.0,2422
1526,916526,17116,-576,852,17146.87,31.87,-1.00,-1.0,2376
1529,916529,17108,-612,828,17138.96,31.82,-1.00,-1.0,2420
1532,916532,17076,-576,796,17104.24,31.78,-1.00,-1.0,2370
1534,916534,17016,-564,780,17043.20,31.82,-1.00,-1.0,2367
1539,916539,17028,-596,836,17058.92,31.78,-1.00,-1.0,2435
1542,916542,17060,-688,792,17092.23,31.78,-1.00,-1.0,2367
1545,916545,16988,-644,660,17013.01,31.82,-1.00,-1.0,2431
1547,916547,17000,-700,912,17038.83,31.87,-1.00,-1.0,2371
1550,916550,17032,-552,704,17055.48,31.82,-1.00,-1.0,2419
1553,916553,17076,-604,808,17105.77,31.78,-1.00,-1.0,2368
1556,916556,17096,-636,780,17125.60,31.82,-1.00,-1.0,2421
1558,916558,17104,-660,788,17134.86,31.78,-1.00,-1.0,2375
1563,916563,17052,-660,836,17085.23,31.78,-1.00,-1.0,2441
1566,916566,17056,-580,808,17084.98,31.78,-1.00,-1.0,2367
1569,916569,17088,-604,968,17126.05,31.92,-1.00,-1.0,2365
1571,916571,17124,-576,884,17156.47,31.87,-1.00,-1.0,2428
1574,916574,17144,-572,828,17173.51,31.73,-1.00,-1.0,2369
1577,916577,17116,-684,832,17149.86,31.78,-1.00,-1.0,2427
1580,916580,17000,-656,832,17032.98,31.82,-1.00,-1.0,2368
1582,916582,17076,-612,756,17103.68,31.78,-1.00,-1.0,2422
1585,916585,17092,-692,744,17122.17,31.78,-1.00,-1.0,2384
1590,916590,17108,-616,872,17141.28,31.78,-1.00,-1.0,2432
1593,916593,17040,-644,840,17072.84,31.82,-1.00,-1.0,2365
1596,916596,17072,-608,720,17097.99,31.78,-1.00,-1.0,2439
1599,916599,17096,-604,868,17128.67,31.87,-1.00,-1.0,2367
1601,916601,17040,-572,816,17069.11,31.87,-1.00,-1.0,2372
1604,916604,17052,-628,840,17084.22,31.82,-1.00,-1.0,2421
1607,916607,16940,-592,856,16971.94,31.82,-1.00,-1.0,2368
1610,916610,17028,-660,612,17051.77,31.82,-1.00,-1.0,2422
1612,916612,17048,-600,936,17084.21,31.78,-1.00,-1.0,2370
1617,916617,17152,-700,832,17186.43,31.87,-1.00,-1.0,2447
1620,916620,17120,-612,720,17146.06,31.87,-1.00,-1.0,2374
1623,916623,17092,-560,744,17117.35,31.82,-1.00,-1.0,2440
1625,916625,17060,-552,844,17089.78,31.82,-1.00,-1.0,2376
1628,916628,17020,-604,860,17052.41,31.82,-1.00,-1.0,2366
1631,916631,16972,-712,704,17001.51,31.87,-1.00,-1.0,2427
1634,916634,17060,-572,984,17097.93,31.87,-1.00,-1.0,2368
1636,916636,17008,-580,768,17035.21,31.78,-1.00,-1.0,2421
1639,916639,16972,-668,840,17005.90,31.73,-1.00,-1.0,2370
1644,916644,17096,-624,824,17127.22,31.82,-1.00,-1.0,2441
1647,916647,17000,-584,836,17030.56,31.73,-1.00,-1.0,2373
1650,916650,17000,-660,764,17029.95,31.92,-1.00,-1.0,2439
1652,916652,17016,-612,800,17045.79,31.92,-1.00,-1.0,2376
1655,916655,17088,-600,760,17115.41,31.73,-1.00,-1.0,2420
1658,916658,17020,-632,956,17058.54,31.82,-1.00,-1.0,2369
1661,916661,17028,-576,876,17060.24,31.87,-1.00,-1.0,2366
1663,916663,17032,-668,732,17060.80,31.87,-1.00,-1.0,2420
1666,916666,17040,-580,628,17061.43,31.92,-1.00,-1.0,2369
1671,916671,17156,-604,928,17191.69,31.82,-1.00,-1.0,2441
1674,916674,17056,-644,808,17087.27,31.82,-1.00,-1.0,2368
1677,916677,16944,-712,776,16976.70,31.82,-1.00,-1.0,2435
1679,916679,16996,-680,872,17031.94,31.82,-1.00,-1.0,2378
1682,916682,17060,-560,768,17086.46,31.78,-1.00,-1.0,2418
1685,916685,17032,-612,836,17063.48,31.92,-1.00,-1.0,2369
1688,916688,17008,-636,756,17036.67,31.87,-1.00,-1.0,2420
1690,916690,16996,-644,1032,17039.48,31.73,-1.00,-1.0,2373
1693,916693,17096,-564,740,17121.30,31.87,-1.00,-1.0,2365
1698,916698,17140,-600,780,17168.23,31.78,-1.00,-1.0,2438
1701,916701,17012,-676,872,17047.74,31.82,-1.00,-1.0,2368
1704,916704,17044,-520,644,17064.09,31.97,-1.00,-1.0,2429
1706,916706,17088,-676,888,17124.41,31.78,-1.00,-1.0,2373
1709,916709,17068,-588,776,17095.75,31.78,-1.00,-1.0,2419
1712,916712,17176,-676,696,17203.38,31.87,-1.00,-1.0,2370
1715,916715,17016,-608,796,17045.46,31.78,-1.00,-1.0,2422
1717,916717,17060,-612,904,17094.89,31.78,-1.00,-1.0,2367
1722,916722,17068,-592,804,17097.18,31.78,-1.00,-1.0,2440
1725,916725,17056,-584,764,17083.09,31.87,-1.00,-1.0,2368
1728,916728,17008,-532,740,17032.40,31.82,-1.00,-1.0,2367
1730,916730,17036,-712,856,17072.35,31.87,-1.00,-1.0,2436
1733,916733,17116,-580,908,17149.88,31.82,-1.00,-1.0,2385
1736,916736,17072,-692,936,17111.64,31.87,-1.00,-1.0,2422
1739,916739,17164,-564,752,17189.72,31.82,-1.00,-1.0,2372
1742,916742,17076,-592,832,17106.50,31.78,-1.00,-1.0,2423
1744,916744,17068,-544,748,17093.04,31.82,-1.00,-1.0,2370
1749,916749,16976,-600,868,17008.76,31.78,-1.00,-1.0,2432
1752,916752,17056,-656,692,17082.63,31.87,-1.00,-1.0,2367
1755,916755,17108,-652,944,17146.43,31.78,-1.00,-1.0,2429
1757,916757,17028,-616,832,17059.44,31.87,-1.00,-1.0,2370
1760,916760,17148,-612,776,17176.46,31.82,-1.00,-1.0,2377
1763,916763,16996,-592,780,17024.19,31.87,-1.00,-1.0,2438
1765,916765,17052,-560,680,17074.74,31.82,-1.00,-1.0,2374
1768,916768,17064,-628,780,17093.36,31.82,-1.00,-1.0,2428
1771,916771,16964,-624,728,16991.08,31.82,-1.00,-1.0,2371
1776,916776,17092,-712,860,17128.43,31.92,-1.00,-1.0,2431
1779,916779,17012,-656,776,17042.32,31.87,-1.00,-1.0,2365
1782,916782,16988,-636,856,17021.44,31.82,-1.00,-1.0,2435
1785,916785,17060,-568,748,17085.83,31.92,-1.00,-1.0,2368
1787,916787,17152,-600,808,17181.50,31.82,-1.00,-1.0,2420
1790,916790,16976,-572,928,17010.96,31.87,-1.00,-1.0,2370
1793,916793,17104,-556,652,17125.45,31.78,-1.00,-1.0,2370
1795,916795,17024,-640,968,17063.51,31.97,-1.00,-1.0,2426
1798,916798,17112,-496,836,17139.59,31.82,-1.00,-1.0,2371
1803,916803,16996,-632,796,17026.36,31.92,-1.00,-1.0,2432
1806,916806,17064,-656,856,17098.04,31.87,-1.00,-1.0,2366
1809,916809,17092,-604,916,17127.18,31.82,-1.00,-1.0,2439
1812,916812,17060,-632,816,17091.19,31.82,-1.00,-1.0,2355
1814,916814,17136,-660,872,17170.86,31.82,-1.00,-1.0,2420
1817,916817,17028,-664,756,17057.70,31.82,-1.00,-1.0,2370
1820,916820,17104,-500,796,17129.81,31.78,-1.00,-1.0,2366
1823,916823,17056,-736,808,17090.98,31.87,-1.00,-1.0,2427
1825,916825,17144,-704,796,17176.90,31.87,-1.00,-1.0,2381
1830,916830,17016,-592,776,17043.97,31.87,-1.00,-1.0,2434
1833,916833,17028,-640,784,17058.05,31.82,-1.00,-1.0,2365
1836,916836,17088,-564,924,17122.26,31.87,-1.00,-1.0,2437
1839,916839,17012,-632,864,17045.65,31.78,-1.00,-1.0,2368
1841,916841,17156,-580,804,17184.62,31.87,-1.00,-1.0,2429
1844,916844,17064,-632,1048,17107.83,31.78,-1.00,-1.0,2377
1847,916847,17076,-740,660,17104.77,31.87,-1.00,-1.0,2422
1850,916850,17108,-580,788,17135.96,31.87,-1.00,-1.0,2369
1852,916852,17020,-668,796,17051.69,31.87,-1.00,-1.0,2374
1857,916857,16984,-600,876,17017.16,31.87,-1.00,-1.0,2443
1860,916860,17088,-604,716,17113.66,31.87,-1.00,-1.0,2374
1863,916863,17052,-532,780,17078.12,31.87,-1.00,-1.0,2416
1866,916866,17164,-624,860,17196.86,31.78,-1.00,-1.0,2368
1868,916868,17136,-692,712,17164.74,31.87,-1.00,-1.0,2427
1871,916871,17036,-604,940,17072.60,31.78,-1.00,-1.0,2376
1874,916874,17020,-568,800,17048.26,31.78,-1.00,-1.0,2408
1877,916877,17080,-672,772,17110.64,31.87,-1.00,-1.0,2370
1882,916882,17032,-652,888,17067.59,31.78,-1.00,-1.0,2431
1884,916884,17032,-632,800,17062.49,31.92,-1.00,-1.0,2366
1887,916887,17104,-684,856,17139.06,31.78,-1.00,-1.0,2352
1890,916890,17088,-624,760,17116.27,31.82,-1.00,-1.0,2439
1892,916892,17168,-592,932,17203.47,31.78,-1.00,-1.0,2378
1895,916895,17080,-656,740,17108.60,31.82,-1.00,-1.0,2419
1898,916898,17008,-596,752,17035.04,31.87,-1.00,-1.0,2369
1901,916901,17032,-672,836,17065.74,31.73,-1.00,-1.0,2422
1904,916904,17004,-616,800,17033.95,31.82,-1.00,-1.0,2369
1908,916908,17072,-740,748,17104.39,31.73,-1.00,-1.0,2442
1911,916911,16952,-680,804,16984.67,31.78,-1.00,-1.0,2381
1914,916914,16912,-620,932,16949.01,31.92,-1.00,-1.0,2429
1917,916917,17060,-540,908,17092.68,31.73,-1.00,-1.0,2372
1919,916919,17080,-644,760,17109.03,31.78,-1.00,-1.0,2367
1922,916922,17076,-748,900,17116.05,31.78,-1.00,-1.0,2419
1925,916925,17092,-640,804,17122.86,31.78,-1.00,-1.0,2369
1928,916928,17032,-604,1004,17072.25,31.87,-1.00,-1.0,2419
1931,916931,17032,-640,844,17064.90,31.82,-1.00,-1.0,2369
1935,916935,17064,-548,780,17090.61,31.87,-1.00,-1.0,2433
1938,916938,17072,-548,756,17097.52,31.87,-1.00,-1.0,2366
1941,916941,17120,-672,820,17152.79,31.87,-1.00,-1.0,2431
1944,916944,17080,-668,832,17113.29,31.87,-1.00,-1.0,2367
1946,916946,17136,-668,764,17166.03,31.87,-1.00,-1.0,2423
1949,916949,17068,-796,796,17105.08,31.87,-1.00,-1.0,2369
1952,916952,17088,-596,804,17117.28,31.82,-1.00,-1.0,2366
1955,916955,17072,-680,712,17100.37,31.78,-1.00,-1.0,2406
1958,916958,17044,-560,708,17067.89,31.87,-1.00,-1.0,2370
1962,916962,17068,-560,672,17090.40,31.82,-1.00,-1.0,2439
1965,916965,16996,-660,848,17029.94,31.78,-1.00,-1.0,2368
1968,916968,17060,-692,728,17089.54,31.82,-1.00,-1.0,2437
1970,916970,17000,-684,708,17028.48,31.82,-1.00,-1.0,2376
1973,916973,17152,-584,752,17178.41,31.87,-1.00,-1.0,2419
1976,916976,17040,-708,832,17074.98,31.82,-1.00,-1.0,2369
1979,916979,16984,-572,776,17011.34,31.78,-1.00,-1.0,2420
1982,916982,17088,-708,820,17122.31,31.78,-1.00,-1.0,2365
1985,916985,17176,-692,700,17204.18,31.87,-1.00,-1.0,2366
1990,916990,17080,-628,836,17111.97,31.78,-1.00,-1.0,2431
1992,916992,16992,-640,772,17021.56,31.87,-1.00,-1.0,2366
1995,916995,17104,-528,908,17136.22,31.87,-1.00,-1.0,2428
1998,916998,17096,-624,828,17127.41,31.87,-1.00,-1.0,2371
2001,917001,17156,-696,784,17188.00,31.87,-1.00,-1.0,2419
2003,917003,17068,-628,816,17099.03,31.78,-1.00,-1.0,2369
2006,917006,17100,-656,708,17127.22,31.87,-1.00,-1.0,2419
2009,917009,17092,-624,856,17124.79,31.87,-1.00,-1.0,2370
2014,917014,17056,-648,716,17083.32,31.82,-1.00,-1.0,2419
2017,917017,17092,-684,680,17119.19,31.82,-1.00,-1.0,2369
2019,917019,17128,-596,776,17155.93,31.87,-1.00,-1.0,2365
2022,917022,17056,-580,780,17083.67,31.78,-1.00,-1.0,2428
2025,917025,17044,-688,800,17076.63,31.87,-1.00,-1.0,2369
2028,917028,17088,-548,884,17119.62,31.87,-1.00,-1.0,2419
2030,917030,17008,-624,812,17038.80,31.87,-1.00,-1.0,2369
2033,917033,17048,-612,828,17079.06,31.87,-1.00,-1.0,2420
2036,917036,17048,-536,812,17075.74,31.87,-1.00,-1.0,2370
2041,917041,17092,-688,676,17119.19,31.68,-1.00,-1.0,2435
2043,917043,17068,-652,752,17096.99,31.73,-1.00,-1.0,2376
2046,917046,16996,-756,820,17032.55,31.78,-1.00,-1.0,2365
2049,917049,17008,-612,940,17044.95,31.78,-1.00,-1.0,2431
2052,917052,17044,-544,772,17070.14,31.78,-1.00,-1.0,2368
2054,917054,16984,-656,748,17013.12,31.92,-1.00,-1.0,2420
2057,917057,17124,-660,856,17158.08,31.78,-1.00,-1.0,2370
2060,917060,17028,-692,800,17060.82,31.78,-1.00,-1.0,2421
2063,917063,17052,-520,852,17081.19,31.82,-1.00,-1.0,2372
2068,917068,17212,-580,772,17239.06,31.82,-1.00,-1.0,2431
2070,917070,16904,-556,736,16929.15,31.82,-1.00,-1.0,2367
2073,917073,17124,-644,656,17148.66,31.92,-1.00,-1.0,2428
2076,917076,17152,-560,800,17179.78,31.87,-1.00,-1.0,2377
2078,917078,16988,-712,792,17021.35,31.87,-1.00,-1.0,2374
2081,917081,17088,-600,884,17121.37,31.87,-1.00,-1.0,2419
2084,917084,17096,-540,816,17123.98,31.87,-1.00,-1.0,2369
2087,917087,17068,-536,780,17094.22,31.78,-1.00,-1.0,2420
2090,917090,17092,-516,968,17127.16,31.82,-1.00,-1.0,2369
2095,917095,17076,-628,832,17107.79,31.82,-1.00,-1.0,2431
2097,917097,16992,-572,696,17015.87,31.82,-1.00,-1.0,2368
2100,917100,17124,-656,816,17155.98,31.87,-1.00,-1.0,2444
2103,917103,17056,-640,868,17090.06,31.82,-1.00,-1.0,2377
2106,917106,17052,-644,800,17082.90,31.78,-1.00,-1.0,2432
2108,917108,17104,-672,824,17137.02,31.92,-1.00,-1.0,2378
2111,917111,17084,-656,788,17114.74,31.78,-1.00,-1.0,2355
2114,917114,17024,-620,776,17052.95,31.87,-1.00,-1.0,2420
2117,917117,17104,-640,780,17133.73,31.78,-1.00,-1.0,2368
2122,917122,16984,-648,728,17011.94,31.87,-1.00,-1.0,2433
2124,917124,17060,-644,796,17090.70,31.82,-1.00,-1.0,2369
2127,917127,17116,-768,812,17152.45,31.87,-1.00,-1.0,2443
2130,917130,17032,-568,956,17068.26,31.78,-1.00,-1.0,2377
2133,917133,17052,-616,812,17082.43,31.97,-1.00,-1.0,2432
2135,917135,16960,-636,792,16990.39,31.87,-1.00,-1.0,2377
2138,917138,17008,-620,876,17041.83,31.97,-1.00,-1.0,2419
2141,917141,17044,-636,896,17079.38,31.87,-1.00,-1.0,2358
2144,917144,16992,-584,772,17019.55,31.87,-1.00,-1.0,2368
2149,917149,17012,-584,744,17038.27,31.82,-1.00,-1.0,2431
2151,917151,17068,-632,764,17096.78,31.87,-1.00,-1.0,2365
2154,917154,17048,-584,780,17075.82,31.82,-1.00,-1.0,2428
2157,917157,16964,-608,896,16998.52,31.87,-1.00,-1.0,2369
2160,917160,17008,-716,844,17043.97,31.92,-1.00,-1.0,2419
2162,917162,17076,-616,904,17111.00,31.82,-1.00,-1.0,2370
2165,917165,17060,-680,828,17093.61,31.82,-1.00,-1.0,2420
2168,917168,17060,-624,764,17088.50,31.87,-1.00,-1.0,2370
2172,917172,17100,-628,912,17135.81,31.78,-1.00,-1.0,2441
2175,917175,17056,-680,932,17094.97,31.78,-1.00,-1.0,2374
2178,917178,17080,-568,844,17110.27,31.78,-1.00,-1.0,2365
2181,917181,17128,-604,880,17161.22,31.82,-1.00,-1.0,2428
2183,917183,17088,-608,748,17115.17,31.82,-1.00,-1.0,2370
2186,917186,16976,-668,912,17013.60,31.82,-1.00,-1.0,2419
2189,917189,17144,-652,856,17177.73,31.82,-1.00,-1.0,2373
2192,917192,17024,-676,864,17059.31,31.82,-1.00,-1.0,2428
2195,917195,17176,-580,916,17210.18,31.82,-1.00,-1.0,2367
2200,917200,16940,-552,828,16969.21,31.87,-1.00,-1.0,2432
2202,917202,17020,-524,816,17047.61,31.87,-1.00,-1.0,2373
2205,917205,17020,-628,916,17056.20,31.82,-1.00,-1.0,2428
2208,917208,17096,-580,572,17115.40,31.82,-1.00,-1.0,2376
2211,917211,17112,-612,620,17134.16,31.87,-1.00,-1.0,2370
2213,917213,17116,-648,832,17148.46,31.78,-1.00,-1.0,2432
2216,917216,17060,-740,876,17098.50,31.87,-1.00,-1.0,2369
2219,917219,16956,-600,832,16987.00,31.78,-1.00,-1.0,2427
2222,917222,17124,-612,868,17156.90,31.92,-1.00,-1.0,2370
2227,917227,17000,-656,812,17032.02,31.82,-1.00,-1.0,2431
2229,917229,17040,-580,852,17071.14,31.92,-1.00,-1.0,2353
2232,917232,16996,-604,936,17032.47,31.92,-1.00,-1.0,2429
2235,917235,17052,-472,688,17072.40,31.82,-1.00,-1.0,2370
2238,917238,17116,-556,816,17144.46,31.78,-1.00,-1.0,2366
2240,917240,17116,-592,716,17141.20,31.78,-1.00,-1.0,2432
2243,917243,17028,-676,852,17062.70,31.78,-1.00,-1.0,2373
2246,917246,17044,-704,792,17076.91,31.97,-1.00,-1.0,2426
2249,917249,16980,-612,856,17012.57,31.78,-1.00,-1.0,2377
2254,917254,17080,-660,848,17113.77,31.68,-1.00,-1.0,2438
2257,917257,17056,-568,788,17083.64,31.73,-1.00,-1.0,2366
2259,917259,16940,-644,832,16972.64,31.87,-1.00,-1.0,2431
2262,917262,17076,-640,820,17107.65,31.82,-1.00,-1.0,2369
2265,917265,16992,-644,760,17021.18,31.87,-1.00,-1.0,2422
2268,917268,16968,-640,776,16997.79,31.78,-1.00,-1.0,2368
2270,917270,17060,-632,696,17085.88,31.87,-1.00,-1.0,2372
2273,917273,17084,-636,716,17110.82,31.82,-1.00,-1.0,2409
2276,917276,17088,-656,712,17115.40,31.87,-1.00,-1.0,2372
2281,917281,17048,-588,872,17080.41,31.78,-1.00,-1.0,2438
2284,917284,17044,-664,816,17076.44,31.87,-1.00,-1.0,2366
2286,917286,16988,-644,848,17021.34,31.87,-1.00,-1.0,2429
2289,917289,17096,-640,856,17129.38,31.78,-1.00,-1.0,2372
2292,917292,16976,-632,812,17007.16,31.87,-1.00,-1.0,2429
2295,917295,17028,-696,864,17064.11,31.87,-1.00,-1.0,2368
2297,917297,17008,-588,904,17042.15,31.87,-1.00,-1.0,2421
2300,917300,17044,-680,764,17074.66,31.78,-1.00,-1.0,2369
2303,917303,17160,-624,792,17189.60,31.73,-1.00,-1.0,2374
2308,917308,17084,-632,716,17110.67,31.87,-1.00,-1.0,2439
2311,917311,17036,-624,752,17064.00,31.87,-1.00,-1.0,2366
2313,917313,17084,-588,772,17111.54,31.92,-1.00,-1.0,2437
2316,917316,17104,-672,692,17131.18,31.78,-1.00,-1.0,2369
2319,917319,17060,-652,800,17091.19,31.82,-1.00,-1.0,2427
2322,917322,17044,-564,944,17079.44,31.87,-1.00,-1.0,2370
2324,917324,16976,-708,732,17006.52,31.92,-1.00,-1.0,2436
2327,917327,17064,-492,712,17085.93,31.73,-1.00,-1.0,2370
2332,917332,17184,-560,844,17213.83,31.78,-1.00,-1.0,2431
2335,917335,17048,-656,772,17078.07,31.78,-1.00,-1.0,2367
2337,917337,17056,-552,900,17088.65,31.82,-1.00,-1.0,2375
2340,917340,16992,-656,804,17023.65,31.87,-1.00,-1.0,2428
2343,917343,17052,-612,796,17081.54,31.82,-1.00,-1.0,2371
2346,917346,17112,-684,772,17143.06,31.87,-1.00,-1.0,2421
2348,917348,17020,-676,780,17051.27,31.82,-1.00,-1.0,2374
2351,917351,17076,-592,764,17103.33,31.87,-1.00,-1.0,2419
2354,917354,17088,-588,876,17120.54,31.73,-1.00,-1.0,2369
2359,917359,17040,-616,936,17076.80,31.87,-1.00,-1.0,2432
2361,917361,16992,-568,752,17018.11,31.78,-1.00,-1.0,2354
2364,917364,17096,-656,752,17125.10,31.78,-1.00,-1.0,2428
2367,917367,17092,-532,776,17117.88,31.78,-1.00,-1.0,2375
2370,917370,17104,-628,760,17132.39,31.78,-1.00,-1.0,2410
2373,917373,17036,-524,780,17061.89,31.87,-1.00,-1.0,2437
2375,917375,17020,-652,856,17053.98,31.82,-1.00,-1.0,2368
2378,917378,17016,-616,812,17046.50,31.82,-1.00,-1.0,2422
2381,917381,17040,-644,816,17071.68,31.87,-1.00,-1.0,2374
2386,917386,16964,-596,772,16992.01,31.73,-1.00,-1.0,2432
2388,917388,17044,-616,912,17079.49,31.92,-1.00,-1.0,2368
2391,917391,17060,-632,804,17090.62,31.82,-1.00,-1.0,2444
2394,917394,17084,-724,888,17122.38,31.87,-1.00,-1.0,2416
2397,917397,17064,-632,860,17097.34,31.82,-1.00,-1.0,2435
2400,917400,17040,-604,764,17067.81,31.87,-1.00,-1.0,2374
2402,917402,17000,-612,860,17032.74,31.78,-1.00,-1.0,2367
2405,917405,17080,-596,792,17108.74,31.78,-1.00,-1.0,2411
2408,917408,17056,-648,900,17092.02,31.87,-1.00,-1.0,2378
2413,917413,17076,-696,948,17116.45,31.68,-1.00,-1.0,2432
2416,917416,17040,-592,800,17069.04,31.87,-1.00,-1.0,2371
2419,917419,16956,-640,860,16989.85,31.87,-1.00,-1.0,2427
2421,917421,16992,-596,884,17025.41,31.87,-1.00,-1.0,2373
2424,917424,16948,-576,844,16978.78,31.87,-1.00,-1.0,2405
2427,917427,16968,-676,784,16999.55,31.87,-1.00,-1.0,2370
2429,917429,17080,-708,852,17115.89,31.73,-1.00,-1.0,2367
2432,917432,17132,-556,716,17155.97,31.82,-1.00,-1.0,2419
2435,917435,17064,-544,720,17087.84,31.87,-1.00,-1.0,2371
2440,917440,17028,-620,780,17057.13,31.78,-1.00,-1.0,2438
2443,917443,16984,-652,824,17016.47,31.78,-1.00,-1.0,2373
2446,917446,17100,-628,880,17134.14,31.87,-1.00,-1.0,2434
2448,917448,17044,-664,768,17074.21,31.87,-1.00,-1.0,2379
2451,917451,17108,-560,836,17137.57,31.87,-1.00,-1.0,2418
2454,917454,17052,-648,816,17083.81,31.87,-1.00,-1.0,2371
2457,917457,17080,-668,764,17110.12,31.78,-1.00,-1.0,2418
2459,917459,17044,-760,800,17079.68,31.78,-1.00,-1.0,2376
2462,917462,17000,-660,692,17026.88,31.82,-1.00,-1.0,2365
2467,917467,17108,-612,860,17140.53,31.73,-1.00,-1.0,2454
2470,917470,17028,-592,788,17056.50,31.82,-1.00,-1.0,2367
2473,917473,17108,-616,940,17144.88,31.87,-1.00,-1.0,2431
2476,917476,17000,-648,668,17025.46,31.87,-1.00,-1.0,2420
2478,917478,17076,-652,808,17107.54,31.87,-1.00,-1.0,2429
2481,917481,17096,-612,656,17119.52,31.92,-1.00,-1.0,2376
2484,917484,17000,-524,684,17021.82,31.78,-1.00,-1.0,2422
2487,917487,16984,-668,956,17024.00,31.73,-1.00,-1.0,2376
2492,917492,17052,-692,720,17081.22,31.82,-1.00,-1.0,2431
2494,917494,17044,-544,888,17075.79,31.82,-1.00,-1.0,2375
2497,917497,16952,-640,812,16983.50,31.78,-1.00,-1.0,2368
2500,917500,17020,-520,756,17044.71,31.78,-1.00,-1.0,2424
2502,917502,17036,-560,696,17059.41,31.87,-1.00,-1.0,2377
2505,917505,17068,-584,728,17093.50,31.82,-1.00,-1.0,2418
2508,917508,17024,-640,848,17057.12,31.78,-1.00,-1.0,2378
2511,917511,17108,-544,856,17138.04,31.82,-1.00,-1.0,2418
2513,917513,17112,-672,680,17138.69,31.78,-1.00,-1.0,2378
2518,917518,17160,-532,924,17193.09,31.87,-1.00,-1.0,2442
2521,917521,17060,-668,712,17087.91,31.78,-1.00,-1.0,2378
2524,917524,17104,-620,816,17134.67,31.82,-1.00,-1.0,2425
2527,917527,17116,-668,744,17145.18,31.87,-1.00,-1.0,2376
2529,917529,17056,-660,704,17083.28,31.82,-1.00,-1.0,2365
2532,917532,17000,-672,784,17031.33,31.92,-1.00,-1.0,2418
2535,917535,17108,-624,852,17140.56,31.73,-1.00,-1.0,2372
2538,917538,17072,-640,892,17107.26,31.92,-1.00,-1.0,2405
2540,917540,17088,-596,792,17116.72,31.73,-1.00,-1.0,2371
2545,917545,17104,-532,752,17128.79,31.82,-1.00,-1.0,2432
2548,917548,17052,-652,816,17083.96,31.82,-1.00,-1.0,2374
2551,917551,17040,-568,816,17068.98,31.92,-1.00,-1.0,2422
2553,917553,17056,-696,704,17084.71,31.87,-1.00,-1.0,2372
2556,917556,17052,-616,800,17081.87,31.73,-1.00,-1.0,2418
2559,917559,17044,-668,856,17078.55,31.82,-1.00,-1.0,2375
2562,917562,17056,-636,772,17085.30,31.78,-1.00,-1.0,2366
2564,917564,17032,-636,828,17063.97,31.87,-1.00,-1.0,2423
2567,917567,16972,-592,824,17002.30,31.78,-1.00,-1.0,2378
2573,917573,17084,-556,680,17106.57,31.82,-1.00,-1.0,2437
2575,917575,17084,-648,836,17116.71,31.78,-1.00,-1.0,2385
2578,917578,17028,-656,892,17063.96,31.82,-1.00,-1.0,2418
2581,917581,17200,-620,748,17227.42,31.82,-1.00,-1.0,2372
2584,917584,17016,-688,752,17046.50,31.82,-1.00,-1.0,2418
2586,917586,17084,-640,880,17118.62,31.87,-1.00,-1.0,2380
2589,917589,17036,-744,664,17065.16,31.82,-1.00,-1.0,2418
2592,917592,16964,-640,860,16997.84,31.73,-1.00,-1.0,2372
2595,917595,17004,-692,808,17037.25,31.78,-1.00,-1.0,2353
2599,917599,17088,-668,872,17123.27,31.73,-1.00,-1.0,2432
2602,917602,17016,-496,688,17037.12,31.82,-1.00,-1.0,2378
2605,917605,17100,-696,772,17131.56,31.82,-1.00,-1.0,2460
2608,917608,17060,-664,864,17094.77,31.82,-1.00,-1.0,2375
2611,917611,17080,-644,704,17106.63,31.92,-1.00,-1.0,2429
2613,917613,16952,-652,724,16979.98,31.82,-1.00,-1.0,2376
2616,917616,17092,-588,852,17123.32,31.82,-1.00,-1.0,2424
2619,917619,17080,-608,880,17113.46,31.73,-1.00,-1.0,2369
2621,917621,17176,-580,644,17197.85,31.78,-1.00,-1.0,2353
2626,917626,16972,-644,784,17002.30,31.82,-1.00,-1.0,2432
2629,917629,17012,-636,812,17043.24,31.92,-1.00,-1.0,2358
2632,917632,17060,-596,764,17087.50,31.78,-1.00,-1.0,2425
2634,917634,17060,-600,696,17084.73,31.92,-1.00,-1.0,2379
2637,917637,17012,-576,960,17048.80,31.78,-1.00,-1.0,2421
2640,917640,17148,-608,912,17182.99,31.73,-1.00,-1.0,2376
2643,917643,17036,-592,744,17062.51,31.87,-1.00,-1.0,2421
2646,917646,17084,-576,848,17114.73,31.82,-1.00,-1.0,2370
2651,917651,17140,-532,844,17169.01,31.92,-1.00,-1.0,2439
2653,917653,17096,-620,912,17131.53,31.92,-1.00,-1.0,2374
2656,917656,17040,-564,876,17071.82,31.78,-1.00,-1.0,2366
2659,917659,17136,-648,876,17170.61,31.87,-1.00,-1.0,2424
2661,917661,17072,-644,764,17101.22,31.87,-1.00,-1.0,2374
2664,917664,17004,-704,756,17035.35,31.73,-1.00,-1.0,2421
2667,917667,17028,-636,964,17067.12,31.87,-1.00,-1.0,2376
2670,917670,17064,-640,852,17097.24,31.82,-1.00,-1.0,2421
2672,917672,17140,-596,852,17171.51,31.78,-1.00,-1.0,2368
2677,917677,17032,-648,792,17062.71,31.87,-1.00,-1.0,2431
2680,917680,17092,-604,824,17122.51,31.87,-1.00,-1.0,2368
2683,917683,16952,-552,904,16985.06,31.78,-1.00,-1.0,2430
2686,917686,17140,-616,848,17172.02,31.78,-1.00,-1.0,2372
2688,917688,17108,-500,824,17135.13,31.82,-1.00,-1.0,2365
2691,917691,17064,-612,1008,17104.70,31.82,-1.00,-1.0,2429
2694,917694,16940,-740,960,16983.31,31.82,-1.00,-1.0,2371
2696,917696,17124,-552,884,17155.69,31.82,-1.00,-1.0,2431
2699,917699,17052,-676,828,17085.47,31.78,-1.00,-1.0,2368
2704,917704,17060,-600,700,17084.89,31.87,-1.00,-1.0,2431
2707,917707,17148,-632,852,17180.78,31.87,-1.00,-1.0,2367
2710,917710,17096,-652,696,17122.58,31.87,-1.00,-1.0,2426
2712,917712,17176,-628,940,17213.16,31.87,-1.00,-1.0,2356
2715,917715,17060,-572,840,17090.24,31.87,-1.00,-1.0,2421
2718,917718,17088,-592,748,17114.61,31.87,-1.00,-1.0,2368
2721,917721,17004,-604,888,17037.88,31.92,-1.00,-1.0,2373
2723,917723,17100,-604,848,17131.66,31.73,-1.00,-1.0,2424
2726,917726,17016,-600,812,17045.93,31.78,-1.00,-1.0,2368
2731,917731,17068,-596,844,17099.24,31.78,-1.00,-1.0,2417
2734,917734,17084,-572,808,17112.66,31.78,-1.00,-1.0,2367
2737,917737,16976,-652,860,17010.27,31.97,-1.00,-1.0,2423
2740,917740,17040,-644,876,17074.65,31.87,-1.00,-1.0,2377
2742,917742,17052,-524,832,17080.32,31.87,-1.00,-1.0,2419
2745,917745,17048,-624,924,17084.42,31.87,-1.00,-1.0,2369
2748,917748,17104,-548,580,17122.60,31.82,-1.00,-1.0,2429
2751,917751,17052,-664,876,17087.39,31.87,-1.00,-1.0,2367
2753,917753,17052,-564,840,17081.99,31.87,-1.00,-1.0,2365
2758,917758,17008,-624,880,17042.18,31.87,-1.00,-1.0,2431
2761,917761,17124,-508,704,17145.99,31.87,-1.00,-1.0,2354
2764,917764,16984,-616,860,17016.91,31.82,-1.00,-1.0,2431
2767,917767,17064,-632,832,17095.96,31.87,-1.00,-1.0,2367
2769,917769,17056,-588,716,17081.15,31.82,-1.00,-1.0,2427
2772,917772,17068,-508,816,17095.04,31.73,-1.00,-1.0,2368
2775,917775,17064,-560,676,17086.56,31.82,-1.00,-1.0,2428
2778,917778,17096,-580,880,17128.46,31.82,-1.00,-1.0,2368
2782,917782,17004,-484,808,17030.07,31.82,-1.00,-1.0,2432
2785,917785,17184,-548,744,17208.83,31.92,-1.00,-1.0,2367
2788,917788,17060,-656,816,17092.10,31.87,-1.00,-1.0,2366
2791,917791,17012,-644,848,17045.29,31.78,-1.00,-1.0,2431
2793,917793,17112,-572,836,17141.96,31.87,-1.00,-1.0,2381
2796,917796,17008,-644,896,17043.76,31.87,-1.00,-1.0,2421
2799,917799,17080,-632,928,17116.86,31.87,-1.00,-1.0,2367
2802,917802,16984,-740,740,17016.21,31.78,-1.00,-1.0,2408
2804,917804,17044,-616,836,17075.61,31.78,-1.00,-1.0,2372
2809,917809,17132,-628,860,17165.06,31.73,-1.00,-1.0,2433
2812,917812,17072,-544,816,17100.14,31.92,-1.00,-1.0,2368
2815,917815,17020,-676,896,17056.97,31.92,-1.00,-1.0,2410
2817,917817,17064,-556,944,17099.13,31.78,-1.00,-1.0,2374
2820,917820,17048,-692,788,17080.23,31.87,-1.00,-1.0,2373
2823,917823,17052,-668,796,17083.63,31.87,-1.00,-1.0,2432
2825,917825,17024,-556,756,17049.85,31.87,-1.00,-1.0,2371
2828,917828,17012,-700,868,17048.51,31.87,-1.00,-1.0,2429
2831,917831,17076,-588,816,17105.60,31.78,-1.00,-1.0,2378
2836,917836,17072,-684,764,17102.77,31.87,-1.00,-1.0,2444
2839,917839,17160,-556,816,17188.38,31.68,-1.00,-1.0,2367
2842,917842,17068,-628,904,17103.46,31.78,-1.00,-1.0,2431
2845,917845,17032,-668,784,17063.12,31.87,-1.00,-1.0,2374
2847,917847,17100,-576,980,17137.74,31.78,-1.00,-1.0,2364
2850,917850,17000,-712,780,17032.77,31.82,-1.00,-1.0,2421
2853,917853,17012,-556,772,17038.58,31.82,-1.00,-1.0,2367
2856,917856,17128,-596,844,17159.13,31.92,-1.00,-1.0,2421
2858,917858,17080,-688,760,17110.74,31.87,-1.00,-1.0,2376
2863,917863,17008,-620,756,17036.08,31.87,-1.00,-1.0,2440
2866,917866,16944,-524,892,16975.55,31.87,-1.00,-1.0,2375
2869,917869,16992,-628,856,17025.13,31.82,-1.00,-1.0,2424
2872,917872,17024,-696,860,17059.91,31.78,-1.00,-1.0,2373
2875,917875,17096,-620,860,17128.84,31.92,-1.00,-1.0,2429
2877,917877,17020,-688,836,17054.40,31.97,-1.00,-1.0,2375
2880,917880,17076,-696,824,17110.03,31.82,-1.00,-1.0,2366
2883,917883,16984,-692,916,17022.75,31.87,-1.00,-1.0,2422
2885,917885,17036,-608,792,17065.23,31.92,-1.00,-1.0,2376
2891,917891,17056,-604,828,17086.77,31.87,-1.00,-1.0,2431
2893,917893,17052,-588,732,17077.83,31.87,-1.00,-1.0,2368
2896,917896,17028,-688,828,17062.00,31.78,-1.00,-1.0,2437
2899,917899,17004,-532,776,17030.01,31.87,-1.00,-1.0,2385
2902,917902,17172,-776,756,17206.14,31.82,-1.00,-1.0,2432
2904,917904,17084,-552,728,17108.41,31.82,-1.00,-1.0,2376
2907,917907,17092,-632,824,17123.52,31.82,-1.00,-1.0,2421
2910,917910,16948,-576,744,16974.10,31.92,-1.00,-1.0,2372
2913,917913,17020,-560,824,17049.13,31.82,-1.00,-1.0,2370
2918,917918,17076,-620,756,17103.97,31.92,-1.00,-1.0,2434
2920,917920,17080,-592,928,17115.43,31.82,-1.00,-1.0,2370
2923,917923,16996,-652,952,17035.12,31.82,-1.00,-1.0,2424
2926,917926,17048,-572,812,17076.91,31.82,-1.00,-1.0,2367
2929,917929,17132,-604,892,17165.84,31.87,-1.00,-1.0,2421
2931,917931,16956,-632,900,16991.63,31.82,-1.00,-1.0,2374
2934,917934,16992,-592,696,17016.55,31.87,-1.00,-1.0,2421
2937,917937,17068,-616,812,17098.40,31.92,-1.00,-1.0,2367
2942,917942,17072,-600,748,17098.91,31.82,-1.00,-1.0,2438
2944,917944,17104,-556,912,17137.32,31.82,-1.00,-1.0,2376
2947,917947,17008,-692,872,17044.39,31.87,-1.00,-1.0,2364
2950,917950,17028,-580,808,17057.02,31.87,-1.00,-1.0,2432
2953,917953,16952,-656,684,16978.47,31.87,-1.00,-1.0,2366
2955,917955,17012,-628,872,17045.91,31.87,-1.00,-1.0,2422
2958,917958,17084,-568,852,17114.66,31.87,-1.00,-1.0,2374
2961,917961,17128,-552,908,17160.93,31.87,-1.00,-1.0,2423
2964,917964,17096,-632,788,17125.82,31.87,-1.00,-1.0,2367
2969,917969,17128,-520,796,17154.37,31.87,-1.00,-1.0,2431
2971,917971,16984,-632,708,17010.49,31.82,-1.00,-1.0,2368
2974,917974,17000,-592,812,17029.67,31.68,-1.00,-1.0,2423
2977,917977,17112,-584,828,17141.97,31.82,-1.00,-1.0,2367
2979,917979,17028,-584,776,17055.67,31.78,-1.00,-1.0,2368
2982,917982,17060,-532,868,17090.35,31.82,-1.00,-1.0,2443
2985,917985,17080,-588,940,17115.95,31.82,-1.00,-1.0,2379
2988,917988,17064,-624,804,17094.32,31.82,-1.00,-1.0,2435
2991,917991,17076,-616,888,17110.17,31.97,-1.00,-1.0,2368
2995,917995,17068,-548,824,17096.66,31.82,-1.00,-1.0,2432
2998,917998,17052,-616,824,17083.01,31.78,-1.00,-1.0,2367
3001,918001,17024,-632,764,17052.85,31.82,-1.00,-1.0,2431
3004,918004,16952,-668,764,16982.35,31.82,-1.00,-1.0,2373
3006,918006,17060,-688,744,17090.07,31.73,-1.00,-1.0,2434
3009,918009,17016,-672,744,17045.51,31.78,-1.00,-1.0,2376
3012,918012,17008,-604,832,17039.05,31.78,-1.00,-1.0,2366
3015,918015,17080,-680,848,17114.55,31.82,-1.00,-1.0,2421
3018,918018,17024,-632,920,17060.55,31.82,-1.00,-1.0,2369
3022,918022,17092,-584,928,17127.13,31.87,-1.00,-1.0,2432
3025,918025,17132,-648,884,17167.03,31.78,-1.00,-1.0,2371
3028,918028,17048,-640,760,17076.93,31.87,-1.00,-1.0,2424
3031,918031,17004,-516,780,17029.70,31.87,-1.00,-1.0,2372
3033,918033,17008,-616,812,17038.51,31.87,-1.00,-1.0,2421
3036,918036,17076,-564,872,17107.55,31.87,-1.00,-1.0,2368
3039,918039,17088,-544,876,17119.08,31.82,-1.00,-1.0,2366
3042,918042,17080,-620,888,17114.30,31.82,-1.00,-1.0,2430
3045,918045,16992,-616,856,17024.70,31.82,-1.00,-1.0,2369
3050,918050,17104,-672,868,17139.19,31.92,-1.00,-1.0,2431
3052,918052,17128,-580,800,17156.48,31.87,-1.00,-1.0,2367
3055,918055,17000,-644,784,17030.25,31.82,-1.00,-1.0,2423
3058,918058,17116,-592,928,17151.36,31.82,-1.00,-1.0,2376
3061,918061,17068,-596,884,17101.27,31.92,-1.00,-1.0,2427
3063,918063,17036,-724,988,17079.98,31.82,-1.00,-1.0,2369
3066,918066,17044,-624,740,17071.46,31.82,-1.00,-1.0,2421
3069,918069,16988,-604,832,17019.08,31.92,-1.00,-1.0,2376
3072,918072,17176,-636,820,17207.32,31.73,-1.00,-1.0,2369
3077,918077,17100,-588,832,17130.32,31.92,-1.00,-1.0,2431
3079,918079,17072,-612,776,17100.58,31.82,-1.00,-1.0,2368
3082,918082,17076,-636,828,17107.89,31.92,-1.00,-1.0,2423
3085,918085,17048,-640,812,17079.32,31.82,-1.00,-1.0,2381
3088,918088,16972,-644,764,17001.39,31.82,-1.00,-1.0,2422
3090,918090,17056,-644,816,17087.65,31.92,-1.00,-1.0,2370
3093,918093,17044,-644,888,17079.26,31.87,-1.00,-1.0,2434
3096,918096,17008,-676,772,17038.93,31.82,-1.00,-1.0,2364
3101,918101,17004,-636,872,17038.22,31.92,-1.00,-1.0,2438
3104,918104,17084,-680,956,17124.23,31.92,-1.00,-1.0,2367
3106,918106,17004,-624,740,17031.53,31.92,-1.00,-1.0,2374
3109,918109,17096,-712,840,17131.43,31.78,-1.00,-1.0,2427
3112,918112,17052,-676,880,17088.07,31.78,-1.00,-1.0,2377
3114,918114,17088,-628,688,17113.37,31.97,-1.00,-1.0,2428
3117,918117,16964,-668,768,16994.51,31.78,-1.00,-1.0,2383
3120,918120,17000,-496,840,17027.96,31.87,-1.00,-1.0,2423
3123,918123,17032,-504,636,17051.32,31.87,-1.00,-1.0,2370
3128,918128,17052,-628,916,17088.13,31.87,-1.00,-1.0,2439
3130,918130,17152,-616,800,17181.69,31.78,-1.00,-1.0,2370
3133,918133,17000,-624,860,17033.17,31.78,-1.00,-1.0,2433
3136,918136,17132,-656,784,17162.47,31.78,-1.00,-1.0,2377
3139,918139,17060,-672,852,17094.47,31.82,-1.00,-1.0,2366
3141,918141,17132,-656,816,17163.96,31.82,-1.00,-1.0,2423
3144,918144,17144,-604,604,17165.27,31.82,-1.00,-1.0,2369
3147,918147,17020,-684,696,17047.95,31.92,-1.00,-1.0,2428
3150,918150,17020,-552,740,17045.02,31.87,-1.00,-1.0,2367
3155,918155,16980,-616,780,17009.06,31.87,-1.00,-1.0,2441
3157,918157,17036,-592,752,17062.86,31.87,-1.00,-1.0,2375
3160,918160,16972,-604,848,17003.90,31.82,-1.00,-1.0,2424
3163,918163,17080,-604,864,17112.50,31.87,-1.00,-1.0,2358
3166,918166,16976,-664,768,17006.33,31.82,-1.00,-1.0,2421
3168,918168,17092,-564,732,17116.96,31.78,-1.00,-1.0,2375
3171,918171,17052,-548,772,17078.26,31.82,-1.00,-1.0,2371
3174,918174,17108,-600,804,17137.39,31.78,-1.00,-1.0,2409
3177,918177,17072,-576,688,17095.56,31.92,-1.00,-1.0,2367
3182,918182,17036,-660,932,17074.24,31.92,-1.00,-1.0,2432
3184,918184,16988,-684,728,17017.34,31.82,-1.00,-1.0,2374
3187,918187,17016,-592,920,17051.13,31.92,-1.00,-1.0,2424
3190,918190,17016,-664,796,17047.54,31.87,-1.00,-1.0,2375
3193,918193,17080,-576,880,17112.35,31.82,-1.00,-1.0,2420
3195,918195,17052,-508,792,17077.94,31.82,-1.00,-1.0,2356
3198,918198,17016,-620,800,17046.07,31.82,-1.00,-1.0,2421
3201,918201,17072,-548,772,17098.23,31.78,-1.00,-1.0,2368
3204,918204,16992,-684,904,17029.77,31.92,-1.00,-1.0,2366
3209,918209,17080,-568,848,17110.47,31.87,-1.00,-1.0,2431
3211,918211,17052,-608,844,17083.70,31.87,-1.00,-1.0,2366
3214,918214,17132,-524,776,17157.57,31.87,-1.00,-1.0,2424
3217,918217,16992,-612,728,17018.60,31.87,-1.00,-1.0,2382
3220,918220,17040,-648,732,17068.02,31.87,-1.00,-1.0,2421
3222,918222,17104,-584,728,17129.44,31.87,-1.00,-1.0,2371
3225,918225,17036,-684,792,17068.11,31.87,-1.00,-1.0,2428
3228,918228,16976,-624,844,17008.42,31.87,-1.00,-1.0,2376
3231,918231,17140,-612,936,17176.44,31.78,-1.00,-1.0,2373
3236,918236,17156,-612,784,17184.80,31.82,-1.00,-1.0,2438
3238,918238,17044,-636,868,17077.94,31.82,-1.00,-1.0,2374
3241,918241,17124,-608,888,17157.79,31.82,-1.00,-1.0,2424
3244,918244,17108,-696,856,17143.54,31.92,-1.00,-1.0,2375
3247,918247,17012,-592,856,17043.81,31.82,-1.00,-1.0,2421
3249,918249,17124,-548,932,17158.10,31.82,-1.00,-1.0,2368
3252,918252,16984,-684,804,17016.77,31.82,-1.00,-1.0,2407
3255,918255,17120,-596,584,17140.32,31.87,-1.00,-1.0,2375
3260,918260,17100,-680,824,17133.34,31.97,-1.00,-1.0,2437
3263,918263,17008,-616,956,17045.98,31.97,-1.00,-1.0,2367
3265,918265,17088,-568,924,17122.39,31.78,-1.00,-1.0,2373
3268,918268,17024,-508,748,17048.00,31.92,-1.00,-1.0,2427
3271,918271,17092,-764,696,17123.22,31.82,-1.00,-1.0,2379
3274,918274,16916,-588,816,16945.88,31.73,-1.00,-1.0,2428
3276,918276,17048,-684,988,17090.30,31.87,-1.00,-1.0,2412
3279,918279,16976,-540,864,17006.55,31.82,-1.00,-1.0,2438
3282,918282,16960,-724,832,16995.82,31.87,-1.00,-1.0,2390
3287,918287,17052,-592,936,17087.93,31.78,-1.00,-1.0,2437
3290,918290,17092,-684,808,17124.75,31.78,-1.00,-1.0,2369
3292,918292,17068,-632,740,17095.72,31.82,-1.00,-1.0,2434
3295,918295,17044,-660,832,17077.05,31.82,-1.00,-1.0,2379
3298,918298,17016,-600,772,17044.07,31.87,-1.00,-1.0,2366
3301,918301,17020,-652,560,17041.69,31.78,-1.00,-1.0,2426
3303,918303,16984,-656,848,17017.80,31.87,-1.00,-1.0,2370
3306,918306,17060,-708,832,17094.94,31.87,-1.00,-1.0,2421
3309,918309,17104,-620,720,17130.37,31.87,-1.00,-1.0,2375
3314,918314,17072,-696,740,17102.20,31.87,-1.00,-1.0,2429
3317,918317,17152,-628,720,17178.59,31.87,-1.00,-1.0,2374
3320,918320,16976,-672,936,17015.06,31.82,-1.00,-1.0,2422
3322,918322,16980,-504,908,17011.73,31.87,-1.00,-1.0,2370
3325,918325,17084,-704,888,17121.54,31.82,-1.00,-1.0,2425
3328,918328,17104,-556,780,17130.80,31.87,-1.00,-1.0,2378
3330,918330,17060,-612,900,17094.68,31.92,-1.00,-1.0,2375
3333,918333,17044,-624,928,17080.65,31.87,-1.00,-1.0,2418
3336,918336,17140,-584,720,17165.05,31.82,-1.00,-1.0,2374
3341,918341,17044,-568,836,17073.94,31.73,-1.00,-1.0,2436
3344,918344,17080,-688,820,17113.51,31.82,-1.00,-1.0,2370
3346,918346,16984,-476,808,17009.87,31.82,-1.00,-1.0,2431
3349,918349,17072,-608,824,17102.69,31.82,-1.00,-1.0,2378
3352,918352,17020,-720,768,17052.53,31.82,-1.00,-1.0,2427
3355,918355,17064,-640,872,17098.25,31.82,-1.00,-1.0,2376
3357,918357,17052,-556,708,17075.75,31.87,-1.00,-1.0,2426
3360,918360,17032,-548,780,17058.66,31.73,-1.00,-1.0,2385
3363,918363,17008,-668,776,17038.79,31.82,-1.00,-1.0,2368
3368,918368,17068,-660,824,17100.62,31.82,-1.00,-1.0,2436
3371,918371,17144,-588,772,17171.44,31.92,-1.00,-1.0,2370
3373,918373,17012,-668,848,17046.21,31.87,-1.00,-1.0,2431
3376,918376,17032,-656,856,17066.11,31.92,-1.00,-1.0,2378
3379,918379,16976,-588,740,17002.29,31.78,-1.00,-1.0,2414
3382,918382,17092,-704,712,17121.30,31.92,-1.00,-1.0,2371
3384,918384,17036,-572,872,17067.89,31.87,-1.00,-1.0,2427
3387,918387,17052,-636,860,17085.51,31.92,-1.00,-1.0,2378
3392,918392,17048,-736,988,17092.46,31.82,-1.00,-1.0,2429
3395,918395,16996,-576,872,17028.10,31.87,-1.00,-1.0,2378
3397,918397,17052,-540,732,17076.24,31.87,-1.00,-1.0,2376
3400,918400,17108,-516,884,17138.59,31.87,-1.00,-1.0,2421
3403,918403,17004,-624,736,17031.36,31.87,-1.00,-1.0,2373
3406,918406,17012,-536,768,17037.76,31.87,-1.00,-1.0,2427
3408,918408,17024,-692,904,17062.02,31.78,-1.00,-1.0,2373
3411,918411,17084,-688,944,17123.89,31.92,-1.00,-1.0,2419
3414,918414,17060,-616,928,17096.32,31.87,-1.00,-1.0,2373
3420,918420,17088,-656,836,17121.01,31.92,-1.00,-1.0,2437
3422,918422,17072,-672,856,17106.65,31.92,-1.00,-1.0,2371
3425,918425,17084,-676,840,17117.99,31.97,-1.00,-1.0,2372
3428,918428,17104,-632,752,17132.18,31.87,-1.00,-1.0,2434
3430,918430,17064,-680,872,17099.79,31.87,-1.00,-1.0,2378
3433,918433,17084,-532,812,17111.56,31.97,-1.00,-1.0,2418
3436,918436,17100,-632,688,17125.50,31.87,-1.00,-1.0,2377
3439,918439,17104,-532,920,17136.98,31.87,-1.00,-1.0,2419
3441,918441,17020,-660,892,17056.13,31.87,-1.00,-1.0,2376
3446,918446,17104,-632,768,17132.89,31.87,-1.00,-1.0,2444
3449,918449,17068,-692,748,17098.39,31.87,-1.00,-1.0,2378
3452,918452,16948,-572,792,16976.13,31.87,-1.00,-1.0,2437
3454,918454,17008,-620,740,17035.38,31.78,-1.00,-1.0,2378
3457,918457,17012,-680,872,17047.90,31.82,-1.00,-1.0,2374
3460,918460,17016,-616,796,17045.74,31.82,-1.00,-1.0,2427
3463,918463,17080,-580,844,17110.67,31.82,-1.00,-1.0,2369
3465,918465,17048,-648,748,17076.70,31.82,-1.00,-1.0,2421
3468,918468,17068,-740,784,17102.01,31.82,-1.00,-1.0,2371
3473,918473,17068,-644,632,17091.83,31.73,-1.00,-1.0,2428
3476,918476,17080,-628,748,17107.90,31.87,-1.00,-1.0,2373
3479,918479,17080,-676,832,17113.61,31.82,-1.00,-1.0,2421
3481,918481,17172,-620,928,17208.23,31.82,-1.00,-1.0,2377
3484,918484,17080,-636,912,17116.15,31.82,-1.00,-1.0,2418
3487,918487,17008,-692,800,17040.86,31.87,-1.00,-1.0,2369
3489,918489,17092,-576,872,17123.92,31.87,-1.00,-1.0,2366
3492,918492,17108,-692,820,17141.61,31.97,-1.00,-1.0,2434
3495,918495,16988,-656,920,17025.54,31.82,-1.00,-1.0,2371
3500,918500,17180,-644,768,17209.21,31.82,-1.00,-1.0,2428
3503,918503,17136,-580,824,17165.60,31.87,-1.00,-1.0,2370
3506,918506,17124,-580,832,17154.01,31.82,-1.00,-1.0,2422
3508,918508,17188,-672,888,17224.04,31.73,-1.00,-1.0,2377
3511,918511,17032,-640,804,17062.97,31.82,-1.00,-1.0,2419
3514,918514,17080,-616,728,17106.60,31.82,-1.00,-1.0,2372
3517,918517,17028,-588,800,17056.92,31.82,-1.00,-1.0,2406
3519,918519,17076,-596,776,17104.01,31.92,-1.00,-1.0,2371
3522,918522,17096,-612,888,17129.98,31.87,-1.00,-1.0,2366
3527,918527,17108,-604,640,17130.62,31.92,-1.00,-1.0,2428
3530,918530,17080,-588,872,17112.35,31.82,-1.00,-1.0,2370
3533,918533,17016,-584,788,17044.24,31.87,-1.00,-1.0,2408
3535,918535,16948,-668,912,16985.66,31.92,-1.00,-1.0,2371
3538,918538,16968,-656,740,16996.79,31.87,-1.00,-1.0,2425
3541,918541,17088,-684,880,17124.31,31.92,-1.00,-1.0,2370
3544,918544,17052,-572,772,17079.05,31.78,-1.00,-1.0,2418
3546,918546,17072,-644,836,17104.58,31.82,-1.00,-1.0,2371
3551,918551,17076,-608,724,17102.15,31.82,-1.00,-1.0,2428
3554,918554,17088,-604,780,17116.45,31.92,-1.00,-1.0,2357
3557,918557,16908,-604,820,16938.64,31.92,-1.00,-1.0,2364
3559,918559,17044,-688,896,17081.40,31.87,-1.00,-1.0,2422
3562,918562,17088,-664,876,17123.32,31.97,-1.00,-1.0,2381
3565,918565,17044,-536,808,17071.56,31.87,-1.00,-1.0,2426
3568,918568,17108,-608,928,17143.94,31.97,-1.00,-1.0,2370
3570,918570,17100,-556,820,17128.68,31.87,-1.00,-1.0,2421
3573,918573,16996,-584,868,17028.17,31.82,-1.00,-1.0,2385
3578,918578,17092,-648,816,17123.73,31.78,-1.00,-1.0,2436
3581,918581,17052,-620,928,17088.48,31.78,-1.00,-1.0,2373
3584,918584,17136,-660,768,17165.89,31.78,-1.00,-1.0,2437
3586,918586,17096,-672,756,17125.90,31.82,-1.00,-1.0,2380
3589,918589,17004,-612,924,17040.08,31.73,-1.00,-1.0,2370
3592,918592,17040,-660,728,17068.31,31.87,-1.00,-1.0,2424
3595,918595,16996,-624,708,17022.18,31.92,-1.00,-1.0,2369
3597,918597,17032,-652,808,17063.62,31.87,-1.00,-1.0,2418
3600,918600,17140,-604,848,17171.59,31.82,-1.00,-1.0,2378
3605,918605,17128,-644,784,17158.02,31.82,-1.00,-1.0,2444
3608,918608,16996,-644,960,17035.27,31.82,-1.00,-1.0,2378
3611,918611,17092,-584,716,17116.96,31.82,-1.00,-1.0,2434
3613,918613,17024,-564,860,17055.04,31.82,-1.00,-1.0,2386
3616,918616,17112,-644,876,17146.51,31.87,-1.00,-1.0,2365
3619,918619,17036,-612,868,17069.07,31.97,-1.00,-1.0,2425
3622,918622,17084,-536,636,17104.23,31.87,-1.00,-1.0,2369
3624,918624,17048,-620,832,17079.55,31.87,-1.00,-1.0,2418
3627,918627,17108,-568,808,17136.49,31.82,-1.00,-1.0,2360
3632,918632,16988,-652,844,17021.45,31.87,-1.00,-1.0,2429
3635,918635,17020,-592,904,17054.27,31.82,-1.00,-1.0,2373
3638,918638,17012,-632,808,17042.90,31.87,-1.00,-1.0,2421
3640,918640,17016,-600,720,17041.79,31.87,-1.00,-1.0,2371
3643,918643,17036,-592,644,17058.44,31.87,-1.00,-1.0,2418
3646,918646,17072,-588,820,17101.79,31.78,-1.00,-1.0,2369
3648,918648,17048,-568,848,17078.53,31.82,-1.00,-1.0,2375
3651,918651,17068,-584,812,17097.28,31.78,-1.00,-1.0,2419
3654,918654,17128,-652,776,17157.96,31.87,-1.00,-1.0,2371
3659,918659,17060,-672,860,17094.88,31.82,-1.00,-1.0,2437
3662,918662,17036,-604,756,17063.46,31.87,-1.00,-1.0,2417
3665,918665,17024,-660,740,17052.85,31.87,-1.00,-1.0,2429
3667,918667,16948,-676,768,16978.86,31.87,-1.00,-1.0,2373
3670,918670,17044,-616,852,17076.40,31.92,-1.00,-1.0,2417
3673,918673,17088,-600,840,17119.15,31.87,-1.00,-1.0,2385
3676,918676,17048,-588,832,17078.42,31.92,-1.00,-1.0,2417
3678,918678,17052,-544,708,17075.36,31.92,-1.00,-1.0,2375
3681,918681,17096,-620,928,17132.39,31.78,-1.00,-1.0,2366
3686,918686,16992,-660,704,17019.38,31.87,-1.00,-1.0,2422
3689,918689,17056,-652,896,17091.96,31.82,-1.00,-1.0,2375
3692,918692,17000,-652,800,17031.30,31.78,-1.00,-1.0,2433
3695,918695,17120,-688,704,17148.28,31.78,-1.00,-1.0,2373
3697,918697,17012,-704,860,17048.27,31.87,-1.00,-1.0,2421
3700,918700,17068,-632,788,17097.87,31.87,-1.00,-1.0,2369
3703,918703,17192,-612,848,17223.78,31.87,-1.00,-1.0,2420
3706,918706,17088,-616,912,17123.40,31.78,-1.00,-1.0,2369
3710,918710,17048,-540,800,17075.30,31.87,-1.00,-1.0,2430
3713,918713,17048,-668,712,17075.93,31.87,-1.00,-1.0,2387
3716,918716,16980,-632,932,17017.30,31.87,-1.00,-1.0,2366
3719,918719,17024,-604,988,17063.34,31.82,-1.00,-1.0,2433
3721,918721,17008,-528,840,17036.91,31.82,-1.00,-1.0,2368
3724,918724,16924,-656,772,16954.29,31.82,-1.00,-1.0,2421
3727,918727,17068,-656,824,17100.47,31.82,-1.00,-1.0,2375
3730,918730,16956,-616,680,16980.81,31.73,-1.00,-1.0,2421
3732,918732,17064,-492,616,17082.20,31.82,-1.00,-1.0,2369
3737,918737,17000,-732,728,17031.32,31.82,-1.00,-1.0,2423
3740,918740,17096,-552,872,17127.12,31.87,-1.00,-1.0,2372
3743,918743,17136,-532,936,17169.79,31.82,-1.00,-1.0,2441
3746,918746,17148,-600,812,17177.70,31.97,-1.00,-1.0,2367
3748,918748,17088,-676,956,17128.07,31.78,-1.00,-1.0,2376
3751,918751,17036,-680,852,17070.84,31.87,-1.00,-1.0,2421
3754,918754,17016,-608,724,17042.24,31.87,-1.00,-1.0,2371
3756,918756,16948,-560,952,16983.95,31.78,-1.00,-1.0,2428
3759,918759,17088,-572,836,17118.00,31.82,-1.00,-1.0,2368
3765,918765,17116,-656,812,17147.80,31.78,-1.00,-1.0,2424
3767,918767,17080,-532,756,17105.00,31.87,-1.00,-1.0,2374
3770,918770,17008,-584,916,17042.66,31.82,-1.00,-1.0,2433
3773,918773,17048,-604,684,17072.40,31.78,-1.00,-1.0,2366
3776,918776,17020,-608,912,17055.26,31.82,-1.00,-1.0,2421
3778,918778,16996,-596,848,17027.58,31.73,-1.00,-1.0,2368
3781,918781,17144,-644,868,17178.04,31.92,-1.00,-1.0,2368
3784,918784,17104,-612,832,17135.16,31.87,-1.00,-1.0,2424
3786,918786,17092,-672,804,17124.09,31.92,-1.00,-1.0,2369
3791,918791,17048,-660,884,17083.66,31.82,-1.00,-1.0,2423
3794,918794,17096,-688,800,17128.53,31.82,-1.00,-1.0,2371
3797,918797,17052,-616,740,17079.16,31.82,-1.00,-1.0,2436
3800,918800,17052,-564,888,17084.42,31.82,-1.00,-1.0,2366
3802,918802,16968,-612,928,17004.38,31.78,-1.00,-1.0,2421
3805,918805,17084,-672,876,17119.64,31.87,-1.00,-1.0,2428
3808,918808,17080,-704,860,17116.12,31.82,-1.00,-1.0,2374
3811,918811,17080,-588,788,17108.28,31.78,-1.00,-1.0,2439
3813,918813,17032,-632,748,17060.13,31.87,-1.00,-1.0,2378
3818,918818,17112,-588,740,17138.08,31.87,-1.00,-1.0,2421
3821,918821,17076,-648,700,17102.62,31.82,-1.00,-1.0,2374
3824,918824,17112,-568,780,17139.18,31.87,-1.00,-1.0,2433
3827,918827,17012,-664,892,17048.30,31.87,-1.00,-1.0,2368
3829,918829,17060,-688,804,17092.79,31.87,-1.00,-1.0,2434
3832,918832,16940,-712,972,16982.79,31.97,-1.00,-1.0,2370
3835,918835,17000,-624,764,17028.60,31.87,-1.00,-1.0,2431
3838,918838,17068,-604,860,17100.32,31.87,-1.00,-1.0,2375
3840,918840,17020,-592,744,17046.54,31.87,-1.00,-1.0,2376
3845,918845,17072,-616,968,17110.51,31.82,-1.00,-1.0,2429
3848,918848,17020,-620,836,17051.79,31.87,-1.00,-1.0,2362
3851,918851,17020,-568,744,17045.72,31.92,-1.00,-1.0,2424
3853,918853,17084,-492,788,17109.24,31.87,-1.00,-1.0,2377
3856,918856,17128,-752,896,17167.90,31.92,-1.00,-1.0,2425
3859,918859,17072,-672,848,17106.25,31.92,-1.00,-1.0,2379
3862,918862,17024,-604,788,17052.93,31.92,-1.00,-1.0,2418
3864,918864,17112,-732,872,17149.83,31.82,-1.00,-1.0,2372
3869,918869,17052,-680,940,17091.42,31.87,-1.00,-1.0,2420
3872,918872,17060,-644,936,17097.79,31.87,-1.00,-1.0,2383
3874,918874,17084,-656,876,17119.02,31.87,-1.00,-1.0,2373
3877,918877,17080,-648,1032,17123.41,31.82,-1.00,-1.0,2430
3880,918880,17016,-680,852,17050.88,31.92,-1.00,-1.0,2372
3883,918883,17052,-568,896,17084.97,31.87,-1.00,-1.0,2419
3886,918886,17096,-688,832,17130.05,31.82,-1.00,-1.0,2372
3889,918889,17044,-572,748,17069.99,31.92,-1.00,-1.0,2418
3891,918891,17012,-744,928,17053.53,31.92,-1.00,-1.0,2374
3896,918896,17128,-596,876,17160.74,31.87,-1.00,-1.0,2431
3899,918899,17028,-620,788,17057.49,31.87,-1.00,-1.0,2382
3902,918902,17088,-636,900,17123.50,31.92,-1.00,-1.0,2426
3905,918905,17108,-596,808,17137.44,31.82,-1.00,-1.0,2377
3907,918907,17116,-676,800,17148.02,31.87,-1.00,-1.0,2365
3910,918910,16984,-544,956,17019.58,31.87,-1.00,-1.0,2424
3913,918913,17088,-740,812,17123.28,31.87,-1.00,-1.0,2369
3916,918916,17072,-656,912,17108.92,31.97,-1.00,-1.0,2421
3919,918919,17028,-516,840,17056.51,31.82,-1.00,-1.0,2374
3923,918923,17060,-732,728,17091.21,31.82,-1.00,-1.0,2427
3926,918926,17024,-704,828,17058.66,31.82,-1.00,-1.0,2389
3929,918929,16960,-632,888,16994.99,31.87,-1.00,-1.0,2431
3932,918932,17008,-548,736,17032.73,31.82,-1.00,-1.0,2371
3935,918935,17152,-644,852,17185.22,31.78,-1.00,-1.0,2418
3937,918937,17116,-712,824,17150.61,31.82,-1.00,-1.0,2374
3940,918940,17044,-516,848,17072.88,31.87,-1.00,-1.0,2373
3943,918943,17076,-572,852,17106.81,31.92,-1.00,-1.0,2418
3946,918946,17056,-628,708,17082.24,31.78,-1.00,-1.0,2371
3951,918951,17008,-604,836,17039.24,31.92,-1.00,-1.0,2424
3953,918953,16976,-612,696,17001.28,31.82,-1.00,-1.0,2377
3956,918956,16944,-744,828,16980.53,31.78,-1.00,-1.0,2430
3959,918959,17088,-556,800,17115.75,31.92,-1.00,-1.0,2370
3962,918962,17004,-576,780,17031.62,31.78,-1.00,-1.0,2418
3964,918964,17048,-520,780,17073.75,31.87,-1.00,-1.0,2371
3967,918967,17068,-568,908,17101.57,31.78,-1.00,-1.0,2418
3970,918970,17064,-652,760,17093.36,31.87,-1.00,-1.0,2370
3973,918973,17060,-620,744,17087.47,31.87,-1.00,-1.0,2367
3978,918978,17048,-596,772,17075.88,31.87,-1.00,-1.0,2423
3980,918980,17100,-680,808,17132.58,31.87,-1.00,-1.0,2416
3983,918983,17036,-640,760,17064.95,31.82,-1.00,-1.0,2418
3986,918986,16988,-660,932,17026.34,31.82,-1.00,-1.0,2377
3989,918989,16996,-556,828,17025.24,31.78,-1.00,-1.0,2425
3991,918991,16988,-648,900,17024.16,31.82,-1.00,-1.0,2382
3994,918994,16976,-504,852,17004.84,31.97,-1.00,-1.0,2416
3997,918997,17012,-700,840,17047.10,31.92,-1.00,-1.0,2376
4000,919000,17036,-624,848,17068.50,31.87,-1.00,-1.0,2353
4005,919005,17056,-664,808,17088.03,31.87,-1.00,-1.0,2423
4007,919007,17048,-636,736,17075.73,31.87,-1.00,-1.0,2376
4010,919010,17064,-716,928,17104.21,31.87,-1.00,-1.0,2431
4013,919013,17096,-560,868,17127.18,31.87,-1.00,-1.0,2368
4016,919016,16936,-584,844,16967.07,31.82,-1.00,-1.0,2408
4018,919018,17072,-664,828,17104.96,31.78,-1.00,-1.0,2368
4021,919021,17140,-584,848,17170.90,31.92,-1.00,-1.0,2421
4024,919024,17068,-704,732,17098.19,31.97,-1.00,-1.0,2372
4029,919029,17152,-656,724,17179.80,31.78,-1.00,-1.0,2422
4031,919031,16992,-576,744,17018.03,31.87,-1.00,-1.0,2382
4034,919034,17088,-572,872,17119.79,31.82,-1.00,-1.0,2366
4037,919037,17052,-716,896,17090.53,31.82,-1.00,-1.0,2436
4040,919040,17100,-632,880,17134.29,31.82,-1.00,-1.0,2372
4042,919042,17088,-644,624,17111.51,31.87,-1.00,-1.0,2434
4045,919045,17020,-664,928,17058.21,31.82,-1.00,-1.0,2368
4048,919048,17168,-616,756,17195.67,31.78,-1.00,-1.0,2428
4051,919051,17064,-676,748,17093.76,31.82,-1.00,-1.0,2368
4055,919055,17048,-704,860,17084.19,31.97,-1.00,-1.0,2430
4058,919058,17012,-564,868,17043.46,31.78,-1.00,-1.0,2391
4061,919061,16992,-568,816,17021.06,31.78,-1.00,-1.0,2431
4064,919064,17068,-672,696,17095.40,31.87,-1.00,-1.0,2366
4066,919066,17020,-592,888,17053.43,31.78,-1.00,-1.0,2369
4069,919069,17124,-556,740,17149.00,31.82,-1.00,-1.0,2421
4072,919072,16944,-536,740,16968.62,31.82,-1.00,-1.0,2380
4075,919075,17112,-496,832,17139.39,31.87,-1.00,-1.0,2434
4078,919078,17036,-596,784,17064.44,31.97,-1.00,-1.0,2374
4082,919082,17064,-620,816,17094.75,31.92,-1.00,-1.0,2423
4085,919085,17016,-716,668,17044.15,31.82,-1.00,-1.0,2373
4088,919088,16956,-656,860,16990.46,31.82,-1.00,-1.0,2436
4091,919091,16996,-596,924,17031.53,31.92,-1.00,-1.0,2364
4093,919093,17060,-560,884,17092.06,31.82,-1.00,-1.0,2422
4096,919096,17088,-660,852,17121.95,31.92,-1.00,-1.0,2365
4099,919099,17088,-704,772,17119.91,31.87,-1.00,-1.0,2367
4102,919102,16988,-616,836,17019.71,31.78,-1.00,-1.0,2425
4105,919105,16984,-556,752,17009.73,31.87,-1.00,-1.0,2377
4110,919110,16976,-612,1008,17016.91,31.87,-1.00,-1.0,2426
4112,919112,17056,-656,876,17091.07,31.78,-1.00,-1.0,2375
4115,919115,17104,-628,844,17136.32,31.87,-1.00,-1.0,2437
4118,919118,17040,-592,772,17067.75,31.87,-1.00,-1.0,2370
4121,919121,17000,-656,892,17036.02,31.78,-1.00,-1.0,2427
4123,919123,16952,-668,904,16989.22,31.87,-1.00,-1.0,2375
4126,919126,17104,-600,824,17134.35,31.78,-1.00,-1.0,2429
4129,919129,17020,-684,692,17047.79,31.87,-1.00,-1.0,2368
4132,919132,17064,-664,872,17099.16,31.87,-1.00,-1.0,2367
4137,919137,17136,-596,716,17161.30,31.87,-1.00,-1.0,2428
4139,919139,16992,-572,768,17018.96,31.87,-1.00,-1.0,2376
4142,919142,17112,-648,792,17142.57,31.87,-1.00,-1.0,2429
4145,919145,17104,-604,912,17138.94,31.87,-1.00,-1.0,2368
4148,919148,17104,-552,652,17125.32,31.92,-1.00,-1.0,2430
4150,919150,17008,-748,656,17037.07,31.87,-1.00,-1.0,2374
4153,919153,17140,-540,992,17177.17,31.87,-1.00,-1.0,2427
4156,919156,16980,-612,844,17011.97,31.87,-1.00,-1.0,2369
4161,919161,16972,-612,948,17009.47,31.87,-1.00,-1.0,2427
4164,919164,17076,-536,876,17106.85,31.87,-1.00,-1.0,2372
4166,919166,17072,-592,656,17094.85,31.97,-1.00,-1.0,2366
4169,919169,17108,-652,860,17142.01,31.82,-1.00,-1.0,2428
4172,919172,17136,-632,808,17166.68,31.82,-1.00,-1.0,2367
4175,919175,17000,-620,880,17034.05,31.73,-1.00,-1.0,2421
4177,919177,17028,-588,744,17054.38,31.92,-1.00,-1.0,2369
4180,919180,17140,-696,864,17175.87,31.92,-1.00,-1.0,2421
4183,919183,17096,-668,864,17130.85,31.82,-1.00,-1.0,2367
4188,919188,16980,-676,908,17017.69,31.92,-1.00,-1.0,2430
4191,919191,16976,-708,956,17017.63,31.78,-1.00,-1.0,2380
4194,919194,17052,-628,848,17084.62,31.92,-1.00,-1.0,2436
4196,919196,17056,-648,824,17088.18,31.87,-1.00,-1.0,2377
4199,919199,17108,-644,760,17136.98,31.78,-1.00,-1.0,2366
4202,919202,17028,-664,956,17067.74,31.87,-1.00,-1.0,2421
4204,919204,17132,-664,800,17163.52,31.97,-1.00,-1.0,2368
4207,919207,17108,-704,832,17142.68,31.87,-1.00,-1.0,2421
4210,919210,17076,-556,800,17103.77,31.87,-1.00,-1.0,2368
4215,919215,17032,-664,816,17064.46,31.82,-1.00,-1.0,2422
4217,919217,17100,-664,824,17132.71,31.92,-1.00,-1.0,2384
4220,919220,17128,-716,752,17159.45,31.78,-1.00,-1.0,2429
4223,919223,16976,-632,884,17010.75,31.92,-1.00,-1.0,2369
4226,919226,17032,-536,784,17058.46,31.87,-1.00,-1.0,2367
4228,919228,16972,-592,732,16998.09,31.82,-1.00,-1.0,2435
4231,919231,17024,-548,852,17054.11,31.87,-1.00,-1.0,2376
4234,919234,17020,-604,720,17045.93,31.92,-1.00,-1.0,2424
4237,919237,17084,-576,816,17113.17,31.87,-1.00,-1.0,2375
4242,919242,17176,-612,812,17206.07,31.87,-1.00,-1.0,2422
4245,919245,17024,-620,876,17057.79,31.92,-1.00,-1.0,2378
4247,919247,17076,-568,940,17111.28,31.78,-1.00,-1.0,2430
4250,919250,17044,-572,764,17070.70,31.87,-1.00,-1.0,2370
4253,919253,17072,-628,896,17107.03,31.78,-1.00,-1.0,2427
4256,919256,17076,-680,996,17118.53,31.87,-1.00,-1.0,2367
4258,919258,17076,-592,932,17111.66,31.87,-1.00,-1.0,2364
4261,919261,17020,-596,740,17046.50,31.82,-1.00,-1.0,2431
4264,919264,17048,-604,860,17080.36,31.87,-1.00,-1.0,2374
4269,919269,17088,-624,644,17111.51,31.92,-1.00,-1.0,2430
4272,919272,17044,-584,868,17076.08,31.97,-1.00,-1.0,2375
4275,919275,17076,-688,648,17102.13,31.82,-1.00,-1.0,2436
4278,919278,17104,-632,784,17133.62,31.92,-1.00,-1.0,2372
4280,919280,17104,-640,772,17133.37,31.92,-1.00,-1.0,2431
4283,919283,17056,-720,804,17090.11,31.82,-1.00,-1.0,2384
4286,919286,17084,-620,872,17117.47,31.82,-1.00,-1.0,2422
4289,919289,17136,-608,700,17161.06,31.92,-1.00,-1.0,2372
4291,919291,16992,-700,832,17026.75,31.78,-1.00,-1.0,2366
4296,919296,17060,-660,796,17091.31,31.73,-1.00,-1.0,2422
4299,919299,17048,-616,816,17078.63,31.82,-1.00,-1.0,2383
4302,919302,17072,-668,856,17106.49,31.87,-1.00,-1.0,2433
4304,919304,17100,-572,748,17125.91,31.82,-1.00,-1.0,2372
4307,919307,17084,-620,900,17118.92,31.87,-1.00,-1.0,2420
4310,919310,17148,-744,860,17185.66,31.87,-1.00,-1.0,2369
4313,919313,17016,-536,780,17042.30,31.87,-1.00,-1.0,2420
4315,919315,17084,-492,836,17111.52,31.97,-1.00,-1.0,2372
4320,919320,17080,-552,888,17111.97,31.92,-1.00,-1.0,2436
4323,919323,17020,-580,820,17049.61,31.92,-1.00,-1.0,2383
4326,919326,17012,-620,900,17047.07,31.87,-1.00,-1.0,2365
4328,919328,17040,-692,692,17068.08,31.82,-1.00,-1.0,2429
4331,919331,17056,-640,884,17090.88,31.87,-1.00,-1.0,2369
4334,919334,17012,-636,704,17038.44,31.92,-1.00,-1.0,2428
4337,919337,17044,-596,840,17075.09,31.87,-1.00,-1.0,2367
4339,919339,17008,-696,848,17043.34,31.82,-1.00,-1.0,2421
4342,919342,17060,-632,900,17095.41,31.78,-1.00,-1.0,2369
4347,919347,17000,-584,792,17028.46,31.78,-1.00,-1.0,2424
4350,919350,17004,-676,764,17034.57,31.87,-1.00,-1.0,2377
4353,919353,16896,-564,780,16923.39,31.78,-1.00,-1.0,2428
4355,919355,16968,-648,912,17004.84,31.97,-1.00,-1.0,2369
4358,919358,17132,-644,904,17167.92,31.82,-1.00,-1.0,2369
4361,919361,17028,-656,900,17064.38,31.82,-1.00,-1.0,2425
4363,919363,17096,-592,912,17130.54,31.92,-1.00,-1.0,2370
4366,919366,17080,-608,960,17117.76,31.87,-1.00,-1.0,2437
4369,919369,17100,-616,756,17127.79,31.78,-1.00,-1.0,2369
4374,919374,17112,-656,872,17146.76,31.92,-1.00,-1.0,2428
4377,919377,16924,-644,728,16951.89,31.82,-1.00,-1.0,2376
4379,919379,17056,-564,864,17087.18,31.87,-1.00,-1.0,2438
4382,919382,17088,-552,700,17111.24,31.73,-1.00,-1.0,2377
4385,919385,17048,-600,692,17072.59,31.87,-1.00,-1.0,2423
4388,919388,17120,-724,808,17154.34,31.92,-1.00,-1.0,2370
4390,919390,17028,-692,856,17063.54,31.87,-1.00,-1.0,2366
4393,919393,16976,-544,796,17003.36,31.87,-1.00,-1.0,2421
4396,919396,17096,-668,864,17130.85,31.87,-1.00,-1.0,2368
4401,919401,17108,-604,792,17136.97,31.78,-1.00,-1.0,2429
4404,919404,17004,-740,816,17039.64,31.82,-1.00,-1.0,2379
4407,919407,17000,-708,772,17032.24,31.78,-1.00,-1.0,2435
4409,919409,17032,-744,864,17070.12,31.87,-1.00,-1.0,2377
4412,919412,17080,-532,1016,17118.46,31.87,-1.00,-1.0,2421
4415,919415,17024,-584,864,17055.91,31.78,-1.00,-1.0,2365
4417,919417,17088,-668,900,17124.72,31.82,-1.00,-1.0,2353
4420,919420,17044,-616,884,17078.02,31.82,-1.00,-1.0,2421
4423,919423,17028,-616,912,17063.53,31.87,-1.00,-1.0,2367
4428,919428,17136,-628,776,17165.05,31.87,-1.00,-1.0,2409
4431,919431,16992,-544,808,17019.90,31.87,-1.00,-1.0,2378
4434,919434,17020,-648,908,17056.52,31.87,-1.00,-1.0,2435
4436,919436,17028,-612,888,17062.12,31.87,-1.00,-1.0,2377
4439,919439,16900,-548,820,16928.75,31.97,-1.00,-1.0,2423
4442,919442,16960,-568,908,16993.78,31.78,-1.00,-1.0,2368
4445,919445,17012,-648,732,17040.07,31.82,-1.00,-1.0,2424
4447,919447,17072,-592,968,17109.67,31.87,-1.00,-1.0,2371
4450,919450,17020,-608,840,17051.56,31.78,-1.00,-1.0,2366
4455,919455,17152,-580,848,17182.74,31.87,-1.00,-1.0,2422
4458,919458,16956,-676,728,16985.08,31.87,-1.00,-1.0,2378
4461,919461,17008,-552,832,17037.28,31.92,-1.00,-1.0,2429
4463,919463,17008,-628,796,17038.19,31.82,-1.00,-1.0,2369
4466,919466,17036,-572,764,17062.71,31.82,-1.00,-1.0,2420
4469,919469,17108,-560,1012,17147.05,31.82,-1.00,-1.0,2367
4472,919472,16988,-640,868,17022.20,31.82,-1.00,-1.0,2420
4474,919474,17008,-616,816,17038.70,31.92,-1.00,-1.0,2372
4479,919479,17124,-596,792,17152.66,31.82,-1.00,-1.0,2422
4482,919482,17076,-668,756,17105.78,31.82,-1.00,-1.0,2376
4484,919484,17108,-540,780,17134.28,31.87,-1.00,-1.0,2366
4487,919487,17024,-632,904,17059.70,31.87,-1.00,-1.0,2425
4490,919490,17088,-660,820,17120.39,31.87,-1.00,-1.0,2377
4493,919493,17028,-632,792,17058.12,31.82,-1.00,-1.0,2430
4495,919495,16992,-688,700,17020.32,31.87,-1.00,-1.0,2378
4498,919498,17036,-624,720,17062.62,31.92,-1.00,-1.0,2420
4501,919501,17072,-760,880,17111.55,31.87,-1.00,-1.0,2368
4506,919506,16996,-620,764,17024.46,31.92,-1.00,-1.0,2422
4508,919508,17024,-432,848,17050.58,31.82,-1.00,-1.0,2384
4511,919511,17068,-624,764,17096.48,31.92,-1.00,-1.0,2429
4514,919514,16916,-580,936,16951.80,31.92,-1.00,-1.0,2373
4517,919517,16996,-552,816,17024.53,31.87,-1.00,-1.0,2369
4519,919519,16948,-684,744,16978.11,31.87,-1.00,-1.0,2438
4522,919522,17060,-596,1056,17103.04,31.78,-1.00,-1.0,2368
4525,919525,17052,-572,764,17078.69,31.78,-1.00,-1.0,2429
4528,919528,16992,-624,860,17025.19,31.87,-1.00,-1.0,2369
4533,919533,17092,-712,684,17120.49,31.78,-1.00,-1.0,2421
4536,919536,17096,-696,800,17128.85,31.82,-1.00,-1.0,2376
4539,919539,16992,-692,592,17016.39,31.78,-1.00,-1.0,2428
4541,919541,17108,-688,712,17136.63,31.87,-1.00,-1.0,2368
4544,919544,17040,-656,760,17069.55,31.87,-1.00,-1.0,2421
4547,919547,17072,-760,800,17107.62,31.87,-1.00,-1.0,2377
4549,919549,17012,-676,948,17051.80,31.82,-1.00,-1.0,2374
4552,919552,17020,-636,788,17050.10,31.92,-1.00,-1.0,2421
4555,919555,16948,-548,808,16976.10,31.87,-1.00,-1.0,2379
4560,919560,17052,-640,776,17081.64,31.87,-1.00,-1.0,2422
4563,919563,17032,-624,840,17064.12,31.78,-1.00,-1.0,2384
4566,919566,17104,-604,784,17132.61,31.82,-1.00,-1.0,2433
4568,919568,17152,-572,804,17180.36,31.87,-1.00,-1.0,2370
4571,919571,17020,-588,852,17051.45,31.82,-1.00,-1.0,2434
4574,919574,17020,-544,844,17049.59,31.87,-1.00,-1.0,2375
4577,919577,17104,-632,904,17139.53,31.73,-1.00,-1.0,2433
4579,919579,16976,-656,776,17006.38,31.92,-1.00,-1.0,2371
4582,919582,17056,-592,664,17079.18,31.82,-1.00,-1.0,2379
4587,919587,17144,-600,820,17174.08,31.82,-1.00,-1.0,2422
4590,919590,17060,-672,816,17092.72,31.87,-1.00,-1.0,2381
4593,919593,17060,-692,768,17091.29,31.82,-1.00,-1.0,2441
4595,919595,17020,-612,792,17049.40,31.82,-1.00,-1.0,2370
4598,919598,17052,-584,756,17078.74,31.82,-1.00,-1.0,2430
4601,919601,17116,-600,836,17146.90,31.97,-1.00,-1.0,2373
4604,919604,17044,-568,712,17068.32,31.82,-1.00,-1.0,2432
4606,919606,17076,-648,776,17105.90,31.82,-1.00,-1.0,2367
4611,919611,16952,-564,720,16976.65,31.92,-1.00,-1.0,2422
4614,919614,17024,-636,788,17054.09,31.87,-1.00,-1.0,2372
4617,919617,17020,-704,756,17051.32,31.82,-1.00,-1.0,2368
4620,919620,17044,-624,844,17076.29,31.87,-1.00,-1.0,2429
4622,919622,17104,-720,816,17138.58,31.82,-1.00,-1.0,2370
4625,919625,17092,-532,668,17113.32,31.87,-1.00,-1.0,2421
4628,919628,17000,-684,868,17035.88,31.87,-1.00,-1.0,2370
4631,919631,17136,-616,660,17159.77,31.78,-1.00,-1.0,2421
4633,919633,17096,-640,848,17128.98,31.78,-1.00,-1.0,2368
4638,919638,17064,-596,824,17094.28,31.82,-1.00,-1.0,2427
4641,919641,17028,-676,808,17060.56,31.82,-1.00,-1.0,2376
4644,919644,17164,-608,888,17197.71,31.78,-1.00,-1.0,2368
4647,919647,17132,-744,728,17163.59,31.87,-1.00,-1.0,2429
4649,919649,17088,-620,680,17112.76,31.87,-1.00,-1.0,2369
4652,919652,16988,-628,920,17024.48,31.78,-1.00,-1.0,2424
4655,919655,17072,-640,884,17106.85,31.87,-1.00,-1.0,2367
4658,919658,17036,-752,908,17076.75,31.78,-1.00,-1.0,2421
4660,919660,17132,-612,936,17168.46,31.87,-1.00,-1.0,2368
4665,919665,17040,-616,892,17074.45,31.87,-1.00,-1.0,2422
4668,919668,16920,-716,820,16954.98,31.82,-1.00,-1.0,2383
4671,919671,16980,-540,868,17010.74,31.87,-1.00,-1.0,2436
4673,919673,17084,-620,864,17117.07,31.78,-1.00,-1.0,2375
4676,919676,17100,-632,684,17125.34,31.82,-1.00,-1.0,2365
4679,919679,17132,-588,912,17166.33,31.82,-1.00,-1.0,2431
4682,919682,17060,-632,784,17089.70,31.92,-1.00,-1.0,2367
4684,919684,16996,-620,748,17023.75,31.82,-1.00,-1.0,2422
4687,919687,17076,-568,832,17105.69,31.97,-1.00,-1.0,2368
4692,919692,17044,-672,652,17069.70,31.82,-1.00,-1.0,2421
4695,919695,17112,-704,812,17145.71,31.87,-1.00,-1.0,2379
4698,919698,17020,-628,904,17055.56,31.82,-1.00,-1.0,2433
4700,919700,17064,-688,1076,17111.73,31.82,-1.00,-1.0,2370
4703,919703,17104,-624,772,17132.78,31.92,-1.00,-1.0,2421
4706,919706,17044,-572,744,17069.82,31.78,-1.00,-1.0,2376
4708,919708,17080,-636,668,17104.89,31.78,-1.00,-1.0,2375
4711,919711,17132,-552,816,17160.30,31.92,-1.00,-1.0,2421
4714,919714,17072,-648,836,17104.74,31.82,-1.00,-1.0,2368
4719,919719,17060,-480,968,17094.18,31.97,-1.00,-1.0,2425
4722,919722,17060,-704,800,17093.25,31.87,-1.00,-1.0,2382
4725,919725,17084,-652,852,17117.65,31.78,-1.00,-1.0,2431
4727,919727,17000,-600,836,17031.12,31.87,-1.00,-1.0,2377
4730,919730,16984,-564,896,17016.97,31.87,-1.00,-1.0,2421
4733,919733,17064,-568,788,17091.62,31.87,-1.00,-1.0,2367
4736,919736,17036,-652,760,17065.40,31.82,-1.00,-1.0,2452
4738,919738,17028,-560,776,17054.87,31.82,-1.00,-1.0,2371
4741,919741,16956,-596,856,16988.05,31.82,-1.00,-1.0,2366
4746,919746,17120,-692,812,17153.21,31.92,-1.00,-1.0,2429
4749,919749,17108,-612,764,17135.98,31.87,-1.00,-1.0,2378
4752,919752,17016,-660,728,17044.35,31.82,-1.00,-1.0,2434
4755,919755,16992,-496,876,17021.79,31.73,-1.00,-1.0,2368
4757,919757,17096,-644,932,17133.49,31.92,-1.00,-1.0,2426
4760,919760,17136,-600,912,17170.74,31.82,-1.00,-1.0,2370
4763,919763,17108,-620,788,17137.36,31.82,-1.00,-1.0,2431
4766,919766,17044,-720,656,17071.81,31.92,-1.00,-1.0,2368
4771,919771,17136,-660,720,17163.81,31.78,-1.00,-1.0,2418
4773,919773,17084,-608,740,17110.82,31.87,-1.00,-1.0,2380
4776,919776,16960,-608,632,16982.66,31.82,-1.00,-1.0,2375
4779,919779,17092,-644,768,17121.36,31.87,-1.00,-1.0,2426
4781,919781,17088,-704,768,17119.73,31.92,-1.00,-1.0,2369
4784,919784,17072,-512,784,17097.66,31.87,-1.00,-1.0,2422
4787,919787,17136,-568,808,17164.44,31.82,-1.00,-1.0,2377
4790,919790,17080,-532,768,17105.53,31.87,-1.00,-1.0,2422
4792,919792,16996,-620,872,17029.64,31.87,-1.00,-1.0,2371
4797,919797,17032,-580,764,17058.99,31.92,-1.00,-1.0,2429
4800,919800,17068,-576,776,17095.34,31.82,-1.00,-1.0,2377
4803,919803,17132,-676,812,17164.55,31.97,-1.00,-1.0,2420
4806,919806,17056,-612,780,17084.79,31.82,-1.00,-1.0,2368
4808,919808,16948,-632,832,16980.18,31.97,-1.00,-1.0,2381
4811,919811,17064,-636,632,17087.54,31.92,-1.00,-1.0,2429
4814,919814,17024,-668,956,17063.90,31.87,-1.00,-1.0,2372
4817,919817,17076,-600,656,17099.13,31.92,-1.00,-1.0,2424
4819,919819,17024,-548,900,17056.58,31.87,-1.00,-1.0,2372
4824,919824,17148,-652,836,17180.74,31.78,-1.00,-1.0,2429
4827,919827,17080,-716,888,17118.05,31.87,-1.00,-1.0,2376
4830,919830,17080,-720,804,17114.06,31.87,-1.00,-1.0,2431
4833,919833,17088,-632,796,17118.20,31.87,-1.00,-1.0,2367
4835,919835,16988,-644,764,17017.36,31.78,-1.00,-1.0,2435
4838,919838,17052,-644,812,17083.46,31.87,-1.00,-1.0,2369
4841,919841,17112,-540,800,17139.20,31.78,-1.00,-1.0,2367
4844,919844,17004,-612,940,17040.96,31.92,-1.00,-1.0,2422
4846,919846,16956,-688,916,16994.66,31.82,-1.00,-1.0,2377
4851,919851,17096,-668,752,17125.56,31.78,-1.00,-1.0,2433
4854,919854,17060,-608,884,17093.71,31.78,-1.00,-1.0,2376
4857,919857,17084,-540,852,17113.75,31.92,-1.00,-1.0,2434
4860,919860,17052,-592,792,17080.64,31.87,-1.00,-1.0,2369
4862,919862,17112,-680,740,17141.49,31.92,-1.00,-1.0,2431
4865,919865,17020,-612,808,17050.16,31.78,-1.00,-1.0,2376
4868,919868,17068,-628,792,17097.90,31.92,-1.00,-1.0,2367
4871,919871,17004,-544,892,17036.07,31.87,-1.00,-1.0,2421
4873,919873,16980,-620,884,17014.29,31.82,-1.00,-1.0,2377
4878,919878,17100,-616,692,17125.08,31.82,-1.00,-1.0,2439
4881,919881,17132,-644,844,17164.86,31.82,-1.00,-1.0,2392
4884,919884,17056,-660,956,17095.52,31.82,-1.00,-1.0,2426
4887,919887,17064,-576,884,17096.59,31.87,-1.00,-1.0,2366
4890,919890,17084,-504,744,17107.62,31.82,-1.00,-1.0,2424
4892,919892,17224,-612,740,17250.75,31.92,-1.00,-1.0,2377
4895,919895,17072,-544,964,17107.85,31.73,-1.00,-1.0,2422
4898,919898,17088,-688,716,17116.83,31.82,-1.00,-1.0,2368
4900,919900,17100,-604,852,17131.86,31.82,-1.00,-1.0,2370
4905,919905,17080,-560,812,17108.46,31.97,-1.00,-1.0,2429
4908,919908,17116,-624,768,17144.58,31.87,-1.00,-1.0,2377
4911,919911,17044,-684,804,17076.66,31.97,-1.00,-1.0,2433
4914,919914,17048,-644,768,17077.44,31.78,-1.00,-1.0,2368
4916,919916,17032,-700,836,17066.87,31.87,-1.00,-1.0,2424
4919,919919,17012,-612,808,17042.17,31.87,-1.00,-1.0,2369
4922,919922,17028,-556,844,17057.97,31.87,-1.00,-1.0,2425
4925,919925,17024,-592,852,17055.58,31.87,-1.00,-1.0,2368
4929,919929,17084,-600,928,17119.70,31.92,-1.00,-1.0,2423
4932,919932,17028,-556,740,17053.14,31.92,-1.00,-1.0,2385
4935,919935,17084,-592,792,17112.59,31.87,-1.00,-1.0,2366
4937,919937,17012,-684,972,17053.47,31.87,-1.00,-1.0,2428
4940,919940,17088,-580,808,17116.92,31.87,-1.00,-1.0,2369
4943,919943,17052,-788,832,17090.46,31.78,-1.00,-1.0,2430
4946,919946,17076,-560,780,17102.98,31.87,-1.00,-1.0,2368
4949,919949,17120,-636,816,17151.23,31.87,-1.00,-1.0,2422
4952,919952,17012,-732,828,17047.86,31.78,-1.00,-1.0,2369
4957,919957,17068,-532,800,17095.02,31.87,-1.00,-1.0,2428
4959,919959,17068,-560,912,17101.52,31.87,-1.00,-1.0,2376
4962,919962,16996,-636,820,17027.65,31.78,-1.00,-1.0,2425
4965,919965,17100,-560,1008,17138.84,31.78,-1.00,-1.0,2368
4967,919967,17020,-668,904,17057.08,31.92,-1.00,-1.0,2368
4970,919970,17052,-648,800,17083.05,31.82,-1.00,-1.0,2421
4973,919973,17004,-624,704,17030.00,31.82,-1.00,-1.0,2377
4976,919976,17004,-648,808,17035.52,31.92,-1.00,-1.0,2422
4979,919979,17024,-660,844,17057.68,31.87,-1.00,-1.0,2369
4984,919984,17084,-704,848,17119.51,31.78,-1.00,-1.0,2429
4986,919986,17156,-600,696,17180.59,31.87,-1.00,-1.0,2377
4989,919989,17060,-640,892,17095.29,31.82,-1.00,-1.0,2425
4992,919992,17044,-640,772,17073.47,31.87,-1.00,-1.0,2368
4995,919995,17024,-692,832,17058.36,31.87,-1.00,-1.0,2422
4997,919997,17104,-656,892,17139.80,31.87,-1.00,-1.0,2369
5000,920000,17156,-620,860,17188.73,31.82,-1.00,-1.0,2375
5003,920003,17108,-484,748,17131.18,31.87,-1.00,-1.0,2434
5006,920006,17072,-588,828,17102.18,31.87,-1.00,-1.0,2369
5011,920011,17052,-544,768,17077.95,31.97,-1.00,-1.0,2429
5013,920013,17084,-652,764,17113.50,31.87,-1.00,-1.0,2376
5016,920016,17132,-664,768,17162.05,31.82,-1.00,-1.0,2426
5019,920019,16992,-532,848,17021.46,31.87,-1.00,-1.0,2368
5022,920022,17020,-576,716,17044.79,31.82,-1.00,-1.0,2424
5024,920024,17108,-612,764,17135.98,31.82,-1.00,-1.0,2369
5027,920027,17052,-544,776,17078.31,31.82,-1.00,-1.0,2422
5030,920030,17028,-628,816,17059.10,31.82,-1.00,-1.0,2368
5033,920033,17148,-588,672,17171.23,31.82,-1.00,-1.0,2367
5038,920038,17060,-684,752,17090.26,31.92,-1.00,-1.0,2428
5040,920040,17028,-532,1020,17066.82,31.82,-1.00,-1.0,2377
5043,920043,16996,-544,776,17022.40,31.92,-1.00,-1.0,2424
5046,920046,17132,-540,840,17161.08,31.82,-1.00,-1.0,2376
5049,920049,17080,-604,836,17111.11,31.82,-1.00,-1.0,2422
5051,920051,17060,-592,648,17082.56,31.82,-1.00,-1.0,2370
5054,920054,17084,-680,772,17114.95,31.82,-1.00,-1.0,2422
5057,920057,17068,-660,860,17102.39,31.92,-1.00,-1.0,2376
5062,920062,17104,-564,832,17133.51,31.87,-1.00,-1.0,2432
5065,920065,17036,-576,940,17071.63,31.78,-1.00,-1.0,2379
5067,920067,17104,-564,868,17135.29,31.82,-1.00,-1.0,2366
5070,920070,17116,-704,764,17147.50,31.87,-1.00,-1.0,2425
5073,920073,17024,-556,808,17052.23,31.82,-1.00,-1.0,2381
5076,920076,17008,-560,972,17044.95,31.87,-1.00,-1.0,2423
5078,920078,17168,-580,836,17198.12,31.92,-1.00,-1.0,2370
5081,920081,17072,-652,832,17104.69,31.92,-1.00,-1.0,2458
5084,920084,17044,-508,660,17064.34,31.82,-1.00,-1.0,2357
5089,920089,16940,-548,804,16967.92,31.87,-1.00,-1.0,2430
5092,920092,16980,-592,896,17013.93,31.78,-1.00,-1.0,2380
5094,920094,17060,-548,908,17092.93,31.82,-1.00,-1.0,2365
5097,920097,17036,-640,792,17066.40,31.87,-1.00,-1.0,2425
5100,920100,17184,-664,728,17212.23,31.92,-1.00,-1.0,2376
5103,920103,16992,-520,920,17024.83,31.87,-1.00,-1.0,2422
5105,920105,16964,-628,896,16999.25,31.82,-1.00,-1.0,2369
5108,920108,16984,-488,832,17011.37,31.87,-1.00,-1.0,2421
5111,920111,17016,-668,824,17049.03,31.92,-1.00,-1.0,2376
5116,920116,17024,-712,896,17062.42,31.97,-1.00,-1.0,2452
5119,920119,17152,-524,836,17180.35,31.78,-1.00,-1.0,2388
5122,920122,17056,-580,640,17077.86,31.82,-1.00,-1.0,2427
5125,920125,16996,-636,716,17022.96,31.78,-1.00,-1.0,2368
5127,920127,17036,-688,880,17072.58,31.92,-1.00,-1.0,2366
5130,920130,17048,-520,868,17078.00,31.87,-1.00,-1.0,2422
5133,920133,16968,-664,992,17009.94,31.92,-1.00,-1.0,2375
5136,920136,17036,-632,760,17064.65,31.87,-1.00,-1.0,2422
5138,920138,17092,-656,840,17125.20,31.82,-1.00,-1.0,2368
5143,920143,17028,-696,856,17063.70,31.82,-1.00,-1.0,2431
5146,920146,17056,-648,976,17096.19,31.82,-1.00,-1.0,2374
5149,920149,17080,-628,860,17113.16,31.82,-1.00,-1.0,2424
5151,920151,17124,-608,796,17153.27,31.82,-1.00,-1.0,2368
5154,920154,17096,-656,768,17125.81,31.82,-1.00,-1.0,2422
5157,920157,17056,-552,828,17085.01,31.82,-1.00,-1.0,2367
5159,920159,17024,-700,780,17056.23,31.87,-1.00,-1.0,2369
5162,920162,17028,-592,788,17056.50,31.87,-1.00,-1.0,2437
5165,920165,17036,-576,796,17064.31,31.87,-1.00,-1.0,2364
5170,920170,17088,-728,916,17128.01,31.78,-1.00,-1.0,2440
5173,920173,17060,-716,932,17100.44,31.82,-1.00,-1.0,2372
5175,920175,17088,-664,844,17121.71,31.87,-1.00,-1.0,2424
5178,920178,17048,-528,852,17077.44,31.78,-1.00,-1.0,2369
5181,920181,16944,-700,808,16977.69,31.78,-1.00,-1.0,2424
5184,920184,17036,-584,812,17065.34,31.87,-1.00,-1.0,2367
5186,920186,16928,-604,836,16959.39,31.87,-1.00,-1.0,2422
5189,920189,16992,-568,752,17018.11,31.87,-1.00,-1.0,2368
5192,920192,17124,-668,840,17157.60,31.82,-1.00,-1.0,2366
5197,920197,17084,-640,844,17116.80,31.82,-1.00,-1.0,2435
5199,920199,17088,-712,1008,17132.51,31.92,-1.00,-1.0,2379
5202,920202,17016,-612,832,17047.32,31.78,-1.00,-1.0,2424
5205,920205,17064,-652,776,17094.07,31.82,-1.00,-1.0,2370
5208,920208,17112,-564,928,17146.42,31.87,-1.00,-1.0,2420
5211,920211,17072,-640,828,17104.04,31.82,-1.00,-1.0,2370
5213,920213,16984,-568,980,17021.73,31.87,-1.00,-1.0,2421
5216,920216,17052,-544,816,17080.18,31.92,-1.00,-1.0,2370
5221,920221,17100,-616,812,17130.35,31.82,-1.00,-1.0,2436
5224,920224,17056,-600,684,17080.25,31.82,-1.00,-1.0,2374
5226,920226,17148,-600,776,17176.03,31.87,-1.00,-1.0,2365
5229,920229,16928,-508,964,16963.04,31.87,-1.00,-1.0,2423
5232,920232,17024,-628,916,17060.19,31.97,-1.00,-1.0,2366
5235,920235,17048,-620,832,17079.55,31.87,-1.00,-1.0,2407
5237,920237,17080,-668,984,17121.36,31.87,-1.00,-1.0,2368
5240,920240,17128,-684,792,17159.94,31.87,-1.00,-1.0,2421
5243,920243,17076,-592,896,17109.74,31.87,-1.00,-1.0,2374
5248,920248,17032,-612,920,17067.80,31.87,-1.00,-1.0,2431
5251,920251,17004,-672,740,17033.36,31.78,-1.00,-1.0,2374
5253,920253,17080,-652,856,17113.86,31.87,-1.00,-1.0,2423
5256,920256,17044,-656,832,17076.90,31.97,-1.00,-1.0,2368
5259,920259,17044,-612,792,17073.36,31.82,-1.00,-1.0,2366
5261,920261,17044,-660,860,17078.44,31.82,-1.00,-1.0,2432
5264,920264,16976,-676,800,17008.28,31.82,-1.00,-1.0,2377
5267,920267,17072,-680,784,17103.52,31.82,-1.00,-1.0,2424
5270,920270,17056,-632,804,17086.63,31.87,-1.00,-1.0,2375
5275,920275,17064,-720,836,17099.63,31.87,-1.00,-1.0,2441
5278,920278,17040,-604,1040,17082.39,31.87,-1.00,-1.0,2371
5280,920280,17072,-568,916,17105.99,31.97,-1.00,-1.0,2423
5283,920283,17036,-652,884,17071.38,31.87,-1.00,-1.0,2368
5286,920286,17016,-620,776,17044.96,31.87,-1.00,-1.0,2462
5289,920289,17076,-692,680,17103.54,31.82,-1.00,-1.0,2369
5291,920291,17076,-520,952,17110.42,31.87,-1.00,-1.0,2365
5294,920294,17160,-580,880,17192.34,31.82,-1.00,-1.0,2421
5297,920297,17056,-580,848,17086.91,31.82,-1.00,-1.0,2375
5302,920302,17092,-632,720,17118.83,31.82,-1.00,-1.0,2439
5305,920305,16936,-700,860,16972.26,31.87,-1.00,-1.0,2372
5307,920307,17028,-568,896,17061.02,31.82,-1.00,-1.0,2425
5310,920310,17076,-620,920,17112.00,31.82,-1.00,-1.0,2368
5313,920313,17008,-616,916,17043.78,31.92,-1.00,-1.0,2429
5316,920316,16992,-656,832,17025.00,31.92,-1.00,-1.0,2369
5318,920318,17108,-736,804,17142.69,31.87,-1.00,-1.0,2377
5321,920321,17044,-596,844,17075.29,31.87,-1.00,-1.0,2425
5324,920324,17072,-692,816,17105.49,31.82,-1.00,-1.0,2374
5329,920329,17084,-708,784,17116.63,31.87,-1.00,-1.0,2440
5331,920331,16964,-556,744,16989.41,31.87,-1.00,-1.0,2379
5334,920334,17040,-648,876,17074.80,31.87,-1.00,-1.0,2424
5337,920337,16980,-668,532,17001.46,31.87,-1.00,-1.0,2371
5340,920340,16948,-544,892,16980.17,31.87,-1.00,-1.0,2424
5342,920342,16984,-612,768,17012.37,31.87,-1.00,-1.0,2370
5345,920345,17064,-616,868,17097.16,31.87,-1.00,-1.0,2421
5348,920348,17056,-652,772,17085.91,31.87,-1.00,-1.0,2371
5351,920351,17040,-660,740,17068.83,31.92,-1.00,-1.0,2354
5356,920356,17112,-680,796,17143.99,31.82,-1.00,-1.0,2432
5358,920358,17100,-584,856,17131.37,31.87,-1.00,-1.0,2371
5361,920361,17072,-492,928,17104.28,31.82,-1.00,-1.0,2424
5364,920364,16992,-612,916,17027.67,31.92,-1.00,-1.0,2369
5367,920367,17060,-544,844,17089.53,31.82,-1.00,-1.0,2421
5369,920369,16988,-704,856,17024.12,31.87,-1.00,-1.0,2368
5372,920372,17060,-688,780,17091.67,31.82,-1.00,-1.0,2421
5375,920375,16972,-644,788,17002.48,31.87,-1.00,-1.0,2369
5380,920380,17140,-572,784,17167.45,31.87,-1.00,-1.0,2441
5383,920383,17080,-620,916,17115.78,31.87,-1.00,-1.0,2378
5385,920385,16996,-672,780,17027.15,31.78,-1.00,-1.0,2365
5388,920388,16992,-624,796,17022.08,31.92,-1.00,-1.0,2422
5391,920391,17036,-704,828,17070.63,31.82,-1.00,-1.0,2367
5394,920394,16972,-512,768,16997.08,31.73,-1.00,-1.0,2408
5396,920396,17040,-596,824,17070.32,31.87,-1.00,-1.0,2368
5399,920399,17132,-672,968,17172.48,31.82,-1.00,-1.0,2421
5402,920402,17108,-596,820,17138.01,31.78,-1.00,-1.0,2370
5407,920407,16968,-628,836,17000.19,31.87,-1.00,-1.0,2435
5410,920410,17100,-560,892,17132.40,31.87,-1.00,-1.0,2381
5413,920413,17080,-604,888,17113.73,31.82,-1.00,-1.0,2426
5415,920415,17060,-588,816,17089.62,31.87,-1.00,-1.0,2370
5418,920418,17080,-588,736,17105.96,31.92,-1.00,-1.0,2374
5421,920421,16996,-564,780,17023.23,31.87,-1.00,-1.0,2421
5423,920423,16980,-664,936,17018.74,31.82,-1.00,-1.0,2369
5426,920426,17048,-652,808,17079.59,31.78,-1.00,-1.0,2421
5429,920429,17024,-620,856,17056.78,31.82,-1.00,-1.0,2368
5434,920434,16980,-612,888,17014.21,31.92,-1.00,-1.0,2434
5437,920437,17132,-724,800,17165.94,31.87,-1.00,-1.0,2369
5440,920440,17072,-612,876,17105.41,31.92,-1.00,-1.0,2422
5442,920442,17056,-692,796,17088.58,31.78,-1.00,-1.0,2371
5445,920445,17076,-712,880,17113.48,31.92,-1.00,-1.0,2421
5448,920448,17076,-644,892,17111.40,31.87,-1.00,-1.0,2370
5450,920450,17032,-632,780,17061.56,31.92,-1.00,-1.0,2366
5453,920453,16984,-668,904,17021.15,31.87,-1.00,-1.0,2421
5456,920456,17060,-604,840,17091.34,31.92,-1.00,-1.0,2370
5461,920461,17104,-592,720,17129.38,31.92,-1.00,-1.0,2432
5464,920464,16940,-648,812,16971.82,31.82,-1.00,-1.0,2372
5467,920467,17076,-552,800,17103.64,31.82,-1.00,-1.0,2425
5469,920469,17064,-592,836,17094.72,31.82,-1.00,-1.0,2369
5472,920472,17040,-600,748,17066.96,31.82,-1.00,-1.0,2421
5475,920475,16960,-592,740,16986.46,31.92,-1.00,-1.0,2367
5478,920478,17080,-640,992,17120.75,31.82,-1.00,-1.0,2421
5480,920480,17020,-560,808,17048.37,31.82,-1.00,-1.0,2369
5483,920483,17068,-560,768,17094.45,31.82,-1.00,-1.0,2366
5488,920488,17060,-576,660,17082.48,31.82,-1.00,-1.0,2420
5491,920491,17096,-676,864,17131.16,31.82,-1.00,-1.0,2371
5494,920494,17020,-672,780,17051.11,31.87,-1.00,-1.0,2422
5496,920496,17016,-616,728,17042.70,31.92,-1.00,-1.0,2369
5499,920499,17132,-656,816,17163.96,31.87,-1.00,-1.0,2420
5502,920502,17064,-712,900,17102.54,31.82,-1.00,-1.0,2367
5505,920505,17036,-636,820,17067.58,31.87,-1.00,-1.0,2421
5507,920507,17088,-588,800,17116.82,31.82,-1.00,-1.0,2369
5510,920510,17128,-728,780,17161.20,31.87,-1.00,-1.0,2366
5515,920515,17052,-608,752,17079.40,31.92,-1.00,-1.0,2432
5518,920518,17060,-668,884,17095.94,31.82,-1.00,-1.0,2376
5521,920521,17124,-620,860,17156.79,31.87,-1.00,-1.0,2431
5524,920524,16924,-636,792,16954.46,31.82,-1.00,-1.0,2367
5526,920526,17008,-668,692,17035.17,31.87,-1.00,-1.0,2421
5529,920529,17020,-624,664,17044.37,31.82,-1.00,-1.0,2368
5532,920532,17192,-648,832,17224.31,31.87,-1.00,-1.0,2427
5535,920535,17080,-588,716,17105.11,31.92,-1.00,-1.0,2367
5539,920539,17020,-700,860,17056.08,31.87,-1.00,-1.0,2434
5542,920542,17136,-648,796,17166.71,31.87,-1.00,-1.0,2371
5545,920545,17036,-656,916,17073.21,31.87,-1.00,-1.0,2365
5547,920547,17052,-728,820,17087.22,31.82,-1.00,-1.0,2433
5550,920550,17028,-668,704,17055.63,31.97,-1.00,-1.0,2384
5553,920553,16912,-700,772,16944.08,31.82,-1.00,-1.0,2427
5556,920556,17052,-636,704,17078.37,31.82,-1.00,-1.0,2367
5559,920559,17080,-632,792,17110.03,31.82,-1.00,-1.0,2428
5561,920561,17040,-548,764,17065.92,31.92,-1.00,-1.0,2376
5566,920566,17012,-624,760,17040.40,31.87,-1.00,-1.0,2439
5569,920569,17180,-588,652,17202.42,31.78,-1.00,-1.0,2375
5571,920571,17052,-612,764,17080.07,31.92,-1.00,-1.0,2427
5574,920574,17136,-712,676,17164.10,31.87,-1.00,-1.0,2368
5577,920577,17024,-572,908,17057.79,31.92,-1.00,-1.0,2368
5580,920580,17088,-628,792,17117.87,31.78,-1.00,-1.0,2423
5582,920582,17040,-640,876,17074.50,31.82,-1.00,-1.0,2371
5585,920585,17060,-628,876,17094.02,31.82,-1.00,-1.0,2429
5588,920588,17064,-696,844,17099.03,31.92,-1.00,-1.0,2383
5593,920593,17012,-628,688,17037.48,31.87,-1.00,-1.0,2433
5596,920596,17120,-644,908,17156.15,31.87,-1.00,-1.0,2380
5599,920599,17048,-736,772,17081.33,31.82,-1.00,-1.0,2432
5601,920601,17056,-748,792,17090.76,31.82,-1.00,-1.0,2371
5604,920604,17004,-592,728,17029.87,31.92,-1.00,-1.0,2435
5607,920607,17036,-544,728,17060.22,31.82,-1.00,-1.0,2376
5610,920610,17176,-572,716,17200.43,31.87,-1.00,-1.0,2369
5612,920612,16976,-556,816,17004.69,31.87,-1.00,-1.0,2420
5615,920615,17000,-672,948,17039.67,31.82,-1.00,-1.0,2376
5620,920620,17196,-632,740,17223.51,31.92,-1.00,-1.0,2446
5623,920623,17012,-612,860,17044.71,31.92,-1.00,-1.0,2380
5626,920626,17000,-660,916,17037.45,31.87,-1.00,-1.0,2438
5628,920628,16988,-716,784,17021.15,31.92,-1.00,-1.0,2378
5631,920631,16952,-600,784,16980.72,31.78,-1.00,-1.0,2420
5634,920634,17056,-680,852,17090.80,31.82,-1.00,-1.0,2356
5637,920637,16944,-488,896,16974.69,31.78,-1.00,-1.0,2431
5639,920639,17084,-524,800,17110.75,31.92,-1.00,-1.0,2375
5642,920642,16992,-648,704,17018.92,31.87,-1.00,-1.0,2367
5647,920647,16996,-636,716,17022.96,31.87,-1.00,-1.0,2447
5650,920650,17116,-608,940,17152.57,31.82,-1.00,-1.0,2377
5653,920653,17048,-668,804,17080.02,31.97,-1.00,-1.0,2435
5655,920655,17008,-640,892,17043.39,31.82,-1.00,-1.0,2372
5658,920658,17012,-640,824,17043.96,31.87,-1.00,-1.0,2421
5661,920661,17088,-668,752,17117.58,31.92,-1.00,-1.0,2353
5664,920664,17060,-568,880,17092.12,31.87,-1.00,-1.0,2432
5666,920666,17012,-588,888,17045.30,31.82,-1.00,-1.0,2372
5671,920671,16948,-632,780,16977.71,31.92,-1.00,-1.0,2433
5674,920674,17044,-628,832,17075.85,31.87,-1.00,-1.0,2368
5677,920677,17040,-496,832,17067.51,31.87,-1.00,-1.0,2370
5680,920680,16984,-720,880,17022.02,31.87,-1.00,-1.0,2424
5682,920682,17016,-604,1056,17059.43,31.87,-1.00,-1.0,2357
5685,920685,17100,-616,844,17131.89,31.87,-1.00,-1.0,2422
5688,920688,17000,-556,908,17033.31,31.87,-1.00,-1.0,2365
5691,920691,17044,-584,840,17074.68,31.87,-1.00,-1.0,2410
5693,920693,17056,-648,904,17092.23,31.87,-1.00,-1.0,2368
5698,920698,17076,-604,784,17104.66,31.87,-1.00,-1.0,2441
5701,920701,17084,-576,968,17121.09,31.87,-1.00,-1.0,2371
5704,920704,17112,-652,844,17145.20,31.92,-1.00,-1.0,2365
5706,920706,17064,-644,720,17091.32,31.92,-1.00,-1.0,2425
5709,920709,17044,-740,832,17080.33,31.92,-1.00,-1.0,2371
5712,920712,17052,-576,980,17089.85,31.92,-1.00,-1.0,2428
5715,920715,17052,-692,896,17089.54,31.92,-1.00,-1.0,2368
5717,920717,17004,-656,816,17036.20,31.73,-1.00,-1.0,2424
5720,920720,17008,-632,824,17039.67,31.92,-1.00,-1.0,2356
5725,920725,16992,-576,852,17023.09,31.92,-1.00,-1.0,2431
5728,920728,17088,-612,792,17117.29,31.87,-1.00,-1.0,2372
5731,920731,17052,-612,880,17085.66,31.92,-1.00,-1.0,2425
5734,920734,17132,-688,844,17166.57,31.87,-1.00,-1.0,2370
5736,920736,17024,-680,888,17060.70,31.82,-1.00,-1.0,2365
5739,920739,17088,-736,676,17117.20,31.87,-1.00,-1.0,2428
5742,920742,17032,-544,880,17063.39,31.82,-1.00,-1.0,2371
5744,920744,17016,-652,828,17048.61,31.78,-1.00,-1.0,2434
5747,920747,17108,-632,788,17137.79,31.82,-1.00,-1.0,2368
5752,920752,17088,-648,932,17125.66,31.97,-1.00,-1.0,2433
5755,920755,17032,-668,844,17065.98,31.82,-1.00,-1.0,2380
5758,920758,17072,-652,868,17106.48,31.78,-1.00,-1.0,2430
5760,920760,16932,-696,780,16964.24,31.87,-1.00,-1.0,2372
5763,920763,17040,-604,712,17065.56,31.78,-1.00,-1.0,2434
5766,920766,17032,-664,896,17068.47,31.78,-1.00,-1.0,2375
5769,920769,17036,-668,876,17071.58,31.82,-1.00,-1.0,2369
5771,920771,16936,-592,928,16971.73,31.97,-1.00,-1.0,2428
5774,920774,17112,-608,812,17142.04,31.87,-1.00,-1.0,2372
5779,920779,17176,-564,752,17201.70,31.82,-1.00,-1.0,2432
5782,920782,17116,-688,808,17148.87,31.82,-1.00,-1.0,2372
5785,920785,17000,-636,880,17034.64,31.82,-1.00,-1.0,2424
5787,920787,16924,-692,728,16953.78,31.92,-1.00,-1.0,2368
5790,920790,16968,-512,684,16989.50,31.92,-1.00,-1.0,2423
5793,920793,17108,-776,776,17143.16,31.82,-1.00,-1.0,2371
5796,920796,17012,-576,876,17044.28,31.82,-1.00,-1.0,2421
5798,920798,17112,-712,808,17145.86,31.87,-1.00,-1.0,2373
5801,920801,17028,-656,844,17061.52,31.78,-1.00,-1.0,2370
5806,920806,17044,-664,816,17076.44,31.78,-1.00,-1.0,2434
5809,920809,16984,-628,872,17017.96,31.87,-1.00,-1.0,2372
5812,920812,17112,-708,876,17149.03,31.87,-1.00,-1.0,2429
5815,920815,17016,-632,912,17052.14,31.78,-1.00,-1.0,2366
5817,920817,17016,-636,844,17048.79,31.87,-1.00,-1.0,2429
5820,920820,16988,-616,768,17016.50,31.87,-1.00,-1.0,2368
5823,920823,17080,-644,716,17107.13,31.87,-1.00,-1.0,2428
5826,920826,17060,-568,748,17085.83,31.87,-1.00,-1.0,2368
5831,920831,17040,-616,696,17065.33,31.97,-1.00,-1.0,2419
5833,920833,16988,-608,796,17017.50,31.92,-1.00,-1.0,2371
5836,920836,16984,-628,800,17014.42,31.78,-1.00,-1.0,2373
5839,920839,17052,-636,912,17088.21,31.82,-1.00,-1.0,2441
5841,920841,17048,-580,636,17069.72,31.73,-1.00,-1.0,2377
5844,920844,16944,-636,916,16980.66,31.92,-1.00,-1.0,2421
5847,920847,17064,-524,748,17088.42,31.78,-1.00,-1.0,2371
5850,920850,17096,-660,896,17132.18,31.82,-1.00,-1.0,2421
5852,920852,17096,-648,760,17125.15,31.82,-1.00,-1.0,2375
5857,920857,17096,-660,780,17126.51,31.82,-1.00,-1.0,2442
5860,920860,17100,-548,896,17132.22,31.82,-1.00,-1.0,2379
5863,920863,17056,-556,784,17083.06,31.82,-1.00,-1.0,2422
5866,920866,17048,-596,788,17076.61,31.82,-1.00,-1.0,2370
5868,920868,17088,-604,808,17117.75,31.87,-1.00,-1.0,2365
5871,920871,17004,-604,720,17029.95,31.97,-1.00,-1.0,2421
5874,920874,17032,-580,792,17060.27,31.97,-1.00,-1.0,2366
5877,920877,17164,-664,764,17193.82,31.87,-1.00,-1.0,2420
5879,920879,17084,-660,876,17119.17,31.82,-1.00,-1.0,2376
5884,920884,17060,-616,872,17093.38,31.82,-1.00,-1.0,2440
5887,920887,17044,-696,872,17080.48,31.87,-1.00,-1.0,2413
5890,920890,17000,-612,764,17028.16,31.82,-1.00,-1.0,2442
5893,920893,17092,-584,912,17126.27,31.87,-1.00,-1.0,2384
5896,920896,17004,-604,948,17041.11,31.82,-1.00,-1.0,2367
5898,920898,17056,-568,768,17082.73,31.78,-1.00,-1.0,2414
5901,920901,17128,-592,796,17156.70,31.82,-1.00,-1.0,2376
5904,920904,17096,-556,844,17125.85,31.87,-1.00,-1.0,2413
5907,920907,17024,-656,872,17058.94,31.87,-1.00,-1.0,2378
5912,920912,17124,-656,760,17153.40,31.87,-1.00,-1.0,2423
5914,920914,17020,-664,780,17050.80,31.82,-1.00,-1.0,2381
5917,920917,17160,-648,764,17189.22,31.87,-1.00,-1.0,2417
5920,920920,17016,-648,968,17055.83,31.82,-1.00,-1.0,2371
5923,920923,17004,-620,928,17040.59,31.97,-1.00,-1.0,2418
5925,920925,17040,-604,816,17070.22,31.78,-1.00,-1.0,2370
5928,920928,17092,-604,860,17124.28,31.87,-1.00,-1.0,2374
5931,920931,17016,-672,908,17053.46,31.82,-1.00,-1.0,2418
5934,920934,17088,-636,728,17115.32,31.87,-1.00,-1.0,2371
5939,920939,17116,-512,856,17145.04,31.82,-1.00,-1.0,2428
5941,920941,17016,-696,832,17050.54,31.82,-1.00,-1.0,2377
5944,920944,17012,-636,844,17044.79,31.87,-1.00,-1.0,2430
5947,920947,17008,-616,916,17043.78,31.82,-1.00,-1.0,2374
5950,920950,17056,-580,896,17089.36,31.87,-1.00,-1.0,2418
5952,920952,17064,-632,860,17097.34,31.87,-1.00,-1.0,2377
5955,920955,17036,-680,892,17072.88,31.87,-1.00,-1.0,2418
5958,920958,17096,-584,832,17126.19,31.87,-1.00,-1.0,2358
5961,920961,17040,-580,880,17072.56,31.87,-1.00,-1.0,2366
5967,920967,17080,-568,748,17105.80,31.78,-1.00,-1.0,2419
5970,920970,17032,-672,900,17069.00,31.97,-1.00,-1.0,2374
5973,920973,16992,-664,896,17028.56,31.97,-1.00,-1.0,2437
5976,920976,17024,-564,816,17052.88,31.87,-1.00,-1.0,2370
5978,920978,17052,-672,648,17077.54,31.78,-1.00,-1.0,2460
5981,920981,17080,-644,872,17114.37,31.87,-1.00,-1.0,2358
5984,920984,17028,-648,772,17057.80,31.87,-1.00,-1.0,2428
5987,920987,17032,-644,828,17064.27,31.87,-1.00,-1.0,2371
5991,920991,17020,-588,868,17052.26,31.97,-1.00,-1.0,2435
5994,920994,17080,-612,708,17105.62,31.92,-1.00,-1.0,2380
5997,920997,17092,-576,744,17117.88,31.97,-1.00,-1.0,2367
6000,921000,17044,-556,804,17072.01,31.82,-1.00,-1.0,2436
6002,921002,17012,-624,968,17050.94,31.97,-1.00,-1.0,2369
6005,921005,17080,-680,760,17110.42,31.92,-1.00,-1.0,2422
6008,921008,17092,-640,876,17126.40,31.97,-1.00,-1.0,2367
6011,921011,17100,-644,928,17137.27,31.92,-1.00,-1.0,2423
6013,921013,17104,-680,640,17129.47,31.87,-1.00,-1.0,2369
6018,921018,17076,-616,760,17104.00,31.87,-1.00,-1.0,2430
6021,921021,16996,-708,772,17028.25,31.78,-1.00,-1.0,2364
6024,921024,17000,-620,840,17032.03,31.87,-1.00,-1.0,2445
6026,921026,16956,-620,828,16987.52,31.78,-1.00,-1.0,2376
6029,921029,17064,-568,860,17095.10,31.92,-1.00,-1.0,2368
6032,921032,17072,-612,876,17105.41,31.82,-1.00,-1.0,2433
6035,921035,17008,-612,844,17039.92,31.82,-1.00,-1.0,2354
6037,921037,17052,-652,876,17086.93,31.82,-1.00,-1.0,2423
6040,921040,16956,-696,772,16987.83,31.82,-1.00,-1.0,2369
6045,921045,17088,-560,740,17113.18,31.87,-1.00,-1.0,2423
6048,921048,16960,-668,924,16998.28,31.87,-1.00,-1.0,2375
6051,921051,17056,-512,840,17084.35,31.82,-1.00,-1.0,2435
6053,921053,17004,-680,636,17029.47,31.92,-1.00,-1.0,2370
6056,921056,17032,-628,828,17063.67,31.92,-1.00,-1.0,2422
6059,921059,17088,-568,728,17112.93,31.87,-1.00,-1.0,2368
6061,921061,17156,-652,860,17189.91,31.82,-1.00,-1.0,2368
6064,921064,17092,-592,772,17119.66,31.87,-1.00,-1.0,2436
6067,921067,17032,-624,932,17068.89,31.78,-1.00,-1.0,2364
6072,921072,17028,-664,820,17060.66,31.92,-1.00,-1.0,2423
6075,921075,17044,-664,988,17085.52,31.92,-1.00,-1.0,2372
6077,921077,17096,-624,872,17129.59,31.82,-1.00,-1.0,2435
6080,921080,17004,-620,684,17029.04,31.92,-1.00,-1.0,2369
6083,921083,17052,-596,836,17082.88,31.92,-1.00,-1.0,2430
6086,921086,17012,-668,848,17046.21,31.82,-1.00,-1.0,2368
6088,921088,16984,-620,852,17016.66,31.87,-1.00,-1.0,2373
6091,921091,17120,-588,788,17148.21,31.87,-1.00,-1.0,2424
6094,921094,17044,-752,840,17081.25,31.78,-1.00,-1.0,2369
6099,921099,17148,-624,792,17177.62,31.92,-1.00,-1.0,2410
6101,921101,17060,-704,776,17092.14,31.92,-1.00,-1.0,2372
6104,921104,17040,-572,748,17066.00,31.87,-1.00,-1.0,2435
6107,921107,17000,-684,712,17028.65,31.92,-1.00,-1.0,2381
6110,921110,17076,-560,760,17102.08,31.97,-1.00,-1.0,2421
6112,921112,17136,-640,792,17166.23,31.82,-1.00,-1.0,2369
6115,921115,17104,-576,860,17135.29,31.78,-1.00,-1.0,2421
6118,921118,17064,-684,908,17101.82,31.92,-1.00,-1.0,2378
6120,921120,16984,-732,912,17024.21,31.97,-1.00,-1.0,2375
6125,921125,17036,-612,668,17060.07,31.97,-1.00,-1.0,2425
6128,921128,17104,-608,952,17141.26,31.97,-1.00,-1.0,2372
6131,921131,16984,-620,888,17018.50,31.97,-1.00,-1.0,2442
6134,921134,17048,-636,836,17080.33,31.87,-1.00,-1.0,2372
6136,921136,17024,-648,804,17055.29,31.92,-1.00,-1.0,2433
6139,921139,16980,-604,876,17013.31,31.87,-1.00,-1.0,2376
6142,921142,17104,-588,888,17137.13,31.92,-1.00,-1.0,2425
6145,921145,17036,-648,812,17067.65,31.97,-1.00,-1.0,2371
6150,921150,17040,-672,836,17073.72,31.87,-1.00,-1.0,2410
6152,921152,17000,-672,824,17033.22,31.82,-1.00,-1.0,2372
6155,921155,17104,-628,824,17135.35,31.87,-1.00,-1.0,2372
6158,921158,17040,-592,760,17067.21,31.82,-1.00,-1.0,2449
6160,921160,17036,-548,756,17061.57,31.92,-1.00,-1.0,2376
6163,921163,16980,-676,892,17016.85,31.82,-1.00,-1.0,2422
6166,921166,17052,-644,932,17089.59,31.82,-1.00,-1.0,2371
6169,921169,16980,-672,840,17014.04,31.92,-1.00,-1.0,2422
6171,921171,17048,-628,756,17076.31,31.92,-1.00,-1.0,2375
6176,921176,17128,-604,868,17160.61,31.82,-1.00,-1.0,2423
6179,921179,17040,-564,696,17063.53,31.82,-1.00,-1.0,2372
6182,921182,17140,-616,748,17167.37,31.92,-1.00,-1.0,2429
6185,921185,17068,-644,824,17100.01,31.92,-1.00,-1.0,2371
6187,921187,17092,-624,724,17118.70,31.87,-1.00,-1.0,2366
6190,921190,17084,-672,844,17118.03,31.97,-1.00,-1.0,2435
6193,921193,17064,-604,1016,17104.89,31.87,-1.00,-1.0,2369
6195,921195,17096,-688,976,17137.65,31.92,-1.00,-1.0,2428
6198,921198,17084,-580,840,17114.47,31.87,-1.00,-1.0,2369
6203,921203,17052,-616,832,17083.39,31.82,-1.00,-1.0,2423
6205,921205,17148,-564,812,17176.48,31.92,-1.00,-1.0,2379
6208,921208,17048,-592,916,17082.85,31.97,-1.00,-1.0,2434
6211,921211,17000,-688,824,17033.86,31.82,-1.00,-1.0,2370
6214,921214,17116,-548,1008,17154.41,31.87,-1.00,-1.0,2422
6217,921217,17108,-656,852,17141.76,31.82,-1.00,-1.0,2371
6219,921219,17052,-532,800,17079.04,31.87,-1.00,-1.0,2366
6222,921222,16984,-632,928,17021.07,31.82,-1.00,-1.0,2429
6225,921225,17044,-624,836,17075.90,31.87,-1.00,-1.0,2368
