timestamp_ms,global_ms,accel_x,accel_y,accel_z,accel_mag,temp_c,voltage,soc,loop_us
3,305003,17156,-640,804,17186.75,31.49,-1.00,-1.0,2488
9,305009,17052,-584,576,17071.72,31.40,-1.00,-1.0,2457
12,305012,17072,-592,716,17097.26,31.49,-1.00,-1.0,2370
15,305015,17080,-624,768,17108.64,31.54,-1.00,-1.0,2374
18,305018,17012,-620,608,17034.15,31.45,-1.00,-1.0,2438
20,305020,17148,-648,688,17174.03,31.54,-1.00,-1.0,2373
23,305023,17088,-648,640,17112.25,31.45,-1.00,-1.0,2431
26,305026,17060,-560,580,17079.04,31.54,-1.00,-1.0,2377
29,305029,17008,-680,508,17029.17,31.45,-1.00,-1.0,2436
31,305031,16984,-628,644,17007.80,31.45,-1.00,-1.0,2371
36,305036,17064,-720,584,17089.16,31.45,-1.00,-1.0,2441
39,305039,17100,-640,704,17126.45,31.49,-1.00,-1.0,2373
41,305041,17060,-628,568,17081.00,31.64,-1.00,-1.0,2376
44,305044,17104,-528,652,17124.56,31.40,-1.00,-1.0,2422
47,305047,17008,-572,580,17027.50,31.54,-1.00,-1.0,2371
50,305050,17060,-692,708,17088.70,31.40,-1.00,-1.0,2422
52,305052,17084,-516,636,17103.62,31.49,-1.00,-1.0,2376
55,305055,17088,-640,648,17112.25,31.49,-1.00,-1.0,2421
58,305058,16996,-580,728,17021.47,31.49,-1.00,-1.0,2370
60,305060,17000,-508,656,17020.23,31.49,-1.00,-1.0,2367
66,305066,17112,-508,724,17134.84,31.49,-1.00,-1.0,2445
68,305068,17008,-640,628,17031.62,31.49,-1.00,-1.0,2377
71,305071,16948,-580,800,16976.78,31.59,-1.00,-1.0,2421
74,305074,17080,-584,708,17104.64,31.49,-1.00,-1.0,2373
77,305077,17052,-560,676,17074.58,31.49,-1.00,-1.0,2422
79,305079,17056,-484,632,17074.57,31.40,-1.00,-1.0,2376
82,305082,17036,-552,772,17062.41,31.49,-1.00,-1.0,2421
85,305085,17136,-604,624,17157.99,31.59,-1.00,-1.0,2371
87,305087,17084,-644,808,17115.22,31.49,-1.00,-1.0,2353
92,305092,17028,-588,704,17052.69,31.49,-1.00,-1.0,2441
95,305095,17060,-624,608,17082.23,31.59,-1.00,-1.0,2368
98,305098,17056,-616,720,17082.30,31.54,-1.00,-1.0,2420
101,305101,17056,-664,636,17080.77,31.49,-1.00,-1.0,2368
103,305103,17016,-644,668,17041.28,31.49,-1.00,-1.0,2422
106,305106,17104,-660,572,17126.28,31.59,-1.00,-1.0,2370
109,305109,17028,-600,764,17055.69,31.45,-1.00,-1.0,2370
111,305111,17088,-592,664,17111.14,31.54,-1.00,-1.0,2422
114,305114,17100,-684,528,17121.82,31.54,-1.00,-1.0,2371
119,305119,17040,-656,696,17066.82,31.45,-1.00,-1.0,2440
122,305122,17104,-564,628,17124.81,31.54,-1.00,-1.0,2369
125,305125,17076,-604,564,17095.98,31.54,-1.00,-1.0,2430
127,305127,17024,-680,724,17052.95,31.49,-1.00,-1.0,2368
130,305130,17064,-684,636,17089.54,31.54,-1.00,-1.0,2423
133,305133,17020,-596,588,17040.58,31.54,-1.00,-1.0,2371
135,305135,17148,-656,664,17173.38,31.59,-1.00,-1.0,2371
138,305138,17056,-680,680,17083.09,31.49,-1.00,-1.0,2429
141,305141,17096,-768,648,17125.51,31.49,-1.00,-1.0,2377
146,305146,16956,-584,712,16980.99,31.49,-1.00,-1.0,2440
149,305149,17000,-704,652,17027.06,31.54,-1.00,-1.0,2378
152,305152,17168,-632,736,17195.39,31.59,-1.00,-1.0,2422
154,305154,17084,-660,780,17114.53,31.45,-1.00,-1.0,2371
157,305157,16956,-624,744,16983.78,31.49,-1.00,-1.0,2436
160,305160,17040,-612,696,17065.19,31.54,-1.00,-1.0,2373
163,305163,17092,-572,744,17117.74,31.49,-1.00,-1.0,2425
165,305165,16984,-628,616,17006.77,31.49,-1.00,-1.0,2373
168,305168,17032,-624,716,17058.46,31.49,-1.00,-1.0,2374
173,305173,17016,-604,696,17040.94,31.59,-1.00,-1.0,2441
176,305176,16976,-640,620,16999.37,31.45,-1.00,-1.0,2377
178,305178,17020,-556,600,17039.65,31.59,-1.00,-1.0,2421
181,305181,17104,-620,628,17126.75,31.54,-1.00,-1.0,2370
184,305184,17092,-652,712,17119.24,31.49,-1.00,-1.0,2420
187,305187,17036,-644,724,17063.54,31.45,-1.00,-1.0,2377
189,305189,17028,-656,716,17055.67,31.59,-1.00,-1.0,2421
192,305192,17040,-680,636,17065.42,31.45,-1.00,-1.0,2370
195,305195,17080,-572,628,17101.11,31.49,-1.00,-1.0,2381
200,305200,17096,-676,520,17117.26,31.49,-1.00,-1.0,2441
203,305203,17052,-652,532,17072.75,31.49,-1.00,-1.0,2377
206,305206,17140,-692,648,17166.20,31.49,-1.00,-1.0,2436
208,305208,17008,-688,700,17036.30,31.59,-1.00,-1.0,2378
211,305211,17000,-604,600,17021.30,31.45,-1.00,-1.0,2430
214,305214,17084,-648,652,17108.71,31.49,-1.00,-1.0,2377
217,305217,17096,-644,692,17122.12,31.54,-1.00,-1.0,2435
219,305219,17028,-584,704,17052.55,31.49,-1.00,-1.0,2377
222,305222,17000,-572,652,17022.11,31.45,-1.00,-1.0,2373
227,305227,17008,-708,564,17032.07,31.54,-1.00,-1.0,2443
230,305230,17156,-668,620,17180.19,31.45,-1.00,-1.0,2368
232,305232,17032,-616,748,17059.54,31.54,-1.00,-1.0,2421
235,305235,17068,-544,660,17089.42,31.54,-1.00,-1.0,2370
238,305238,17140,-628,456,17157.56,31.54,-1.00,-1.0,2421
241,305241,17060,-656,632,17084.30,31.45,-1.00,-1.0,2369
243,305243,17024,-556,756,17049.85,31.54,-1.00,-1.0,2421
246,305246,17044,-628,672,17068.80,31.45,-1.00,-1.0,2370
249,305249,17068,-584,644,17090.13,31.45,-1.00,-1.0,2373
254,305254,16932,-656,660,16957.55,31.49,-1.00,-1.0,2448
256,305256,17036,-556,784,17063.09,31.59,-1.00,-1.0,2369
259,305259,17012,-536,796,17039.04,31.49,-1.00,-1.0,2432
262,305262,17052,-556,696,17075.25,31.49,-1.00,-1.0,2378
265,305265,17052,-708,700,17081.04,31.54,-1.00,-1.0,2424
267,305267,17076,-600,692,17100.54,31.40,-1.00,-1.0,2370
270,305270,17128,-604,652,17151.04,31.49,-1.00,-1.0,2429
273,305273,17072,-644,708,17098.81,31.54,-1.00,-1.0,2370
276,305276,17112,-504,692,17133.40,31.54,-1.00,-1.0,2367
281,305281,17132,-620,480,17149.93,31.35,-1.00,-1.0,2450
284,305284,17008,-568,740,17033.56,31.45,-1.00,-1.0,2373
287,305287,17024,-708,496,17045.93,31.54,-1.00,-1.0,2422
289,305289,17204,-728,764,17236.34,31.45,-1.00,-1.0,2376
292,305292,17028,-668,636,17052.96,31.49,-1.00,-1.0,2421
295,305295,17048,-660,608,17071.60,31.45,-1.00,-1.0,2370
298,305298,17072,-652,692,17098.46,31.49,-1.00,-1.0,2421
300,305300,17124,-604,568,17144.06,31.54,-1.00,-1.0,2377
303,305303,17004,-656,648,17028.98,31.49,-1.00,-1.0,2365
308,305308,16924,-644,548,16945.11,31.59,-1.00,-1.0,2441
311,305311,17112,-672,652,17137.60,31.45,-1.00,-1.0,2371
314,305314,17004,-544,720,17027.93,31.49,-1.00,-1.0,2421
316,305316,17100,-632,676,17125.02,31.45,-1.00,-1.0,2371
319,305319,17104,-636,528,17123.96,31.40,-1.00,-1.0,2420
322,305322,17192,-572,620,17212.68,31.45,-1.00,-1.0,2373
325,305325,16948,-600,668,16971.77,31.49,-1.00,-1.0,2420
327,305327,17072,-576,632,17093.40,31.49,-1.00,-1.0,2371
330,305330,16980,-624,640,17003.51,31.49,-1.00,-1.0,2353
335,305335,17112,-568,888,17144.44,31.49,-1.00,-1.0,2441
338,305338,17140,-680,672,17166.64,31.40,-1.00,-1.0,2369
341,305341,17048,-600,584,17068.55,31.49,-1.00,-1.0,2420
343,305343,17144,-632,716,17170.58,31.49,-1.00,-1.0,2372
346,305346,17096,-628,788,17125.67,31.49,-1.00,-1.0,2421
349,305349,16988,-568,804,17016.50,31.49,-1.00,-1.0,2370
352,305352,16984,-560,732,17008.99,31.49,-1.00,-1.0,2421
354,305354,17012,-620,760,17040.25,31.49,-1.00,-1.0,2356
357,305357,16992,-576,652,17014.26,31.49,-1.00,-1.0,2366
362,305362,17036,-700,660,17063.14,31.49,-1.00,-1.0,2441
365,305365,17028,-576,700,17052.11,31.59,-1.00,-1.0,2368
368,305368,17056,-600,760,17083.46,31.45,-1.00,-1.0,2428
370,305370,17116,-508,584,17133.49,31.49,-1.00,-1.0,2368
373,305373,17084,-632,740,17111.69,31.40,-1.00,-1.0,2423
376,305376,17020,-528,704,17042.73,31.49,-1.00,-1.0,2370
379,305379,17052,-588,556,17071.19,31.45,-1.00,-1.0,2429
381,305381,17040,-668,684,17066.80,31.49,-1.00,-1.0,2369
384,305384,17068,-548,684,17090.49,31.49,-1.00,-1.0,2367
389,305389,17076,-660,640,17100.73,31.49,-1.00,-1.0,2440
392,305392,17056,-592,536,17074.69,31.49,-1.00,-1.0,2368
395,305395,17056,-644,760,17085.07,31.45,-1.00,-1.0,2423
397,305397,16936,-556,540,16953.73,31.49,-1.00,-1.0,2369
400,305400,17180,-552,580,17198.65,31.54,-1.00,-1.0,2422
403,305403,16996,-632,676,17021.18,31.54,-1.00,-1.0,2370
406,305406,17008,-600,600,17029.15,31.54,-1.00,-1.0,2429
408,305408,17076,-732,844,17112.51,31.45,-1.00,-1.0,2368
411,305411,17132,-636,712,17158.58,31.54,-1.00,-1.0,2369
416,305416,16976,-632,652,17000.27,31.35,-1.00,-1.0,2442
419,305419,17044,-624,704,17069.94,31.45,-1.00,-1.0,2369
422,305422,17032,-636,640,17055.88,31.54,-1.00,-1.0,2428
424,305424,17028,-616,692,17053.19,31.54,-1.00,-1.0,2371
427,305427,16960,-624,672,16984.77,31.59,-1.00,-1.0,2434
430,305430,17064,-592,856,17095.71,31.54,-1.00,-1.0,2371
433,305433,17060,-556,784,17087.05,31.49,-1.00,-1.0,2428
435,305435,17068,-576,696,17091.89,31.54,-1.00,-1.0,2370
438,305438,17100,-584,764,17127.02,31.59,-1.00,-1.0,2370
443,305443,17004,-612,612,17026.01,31.49,-1.00,-1.0,2441
446,305446,17072,-612,520,17090.88,31.59,-1.00,-1.0,2358
449,305449,16976,-704,756,17007.40,31.49,-1.00,-1.0,2420
451,305451,17120,-704,644,17146.57,31.49,-1.00,-1.0,2377
454,305454,17040,-576,616,17060.86,31.49,-1.00,-1.0,2421
457,305457,17120,-544,652,17141.04,31.40,-1.00,-1.0,2370
460,305460,17104,-588,728,17129.58,31.45,-1.00,-1.0,2421
462,305462,17008,-644,804,17039.17,31.40,-1.00,-1.0,2376
465,305465,17124,-616,716,17150.03,31.40,-1.00,-1.0,2374
470,305470,17012,-624,508,17031.02,31.54,-1.00,-1.0,2442
473,305473,17032,-628,568,17053.04,31.45,-1.00,-1.0,2377
475,305475,17012,-712,664,17039.84,31.49,-1.00,-1.0,2421
478,305478,17080,-608,540,17099.35,31.45,-1.00,-1.0,2372
481,305481,17092,-592,692,17116.24,31.40,-1.00,-1.0,2428
484,305484,17036,-648,656,17060.94,31.54,-1.00,-1.0,2378
486,305486,16940,-732,588,16966.00,31.59,-1.00,-1.0,2421
489,305489,17020,-592,608,17041.14,31.49,-1.00,-1.0,2377
492,305492,17064,-560,756,17089.92,31.49,-1.00,-1.0,2374
498,305498,17112,-704,584,17136.43,31.49,-1.00,-1.0,2440
500,305500,17032,-604,828,17062.81,31.49,-1.00,-1.0,2369
503,305503,17024,-576,596,17044.17,31.40,-1.00,-1.0,2433
506,305506,17140,-516,672,17160.93,31.49,-1.00,-1.0,2376
509,305509,17004,-640,660,17028.83,31.59,-1.00,-1.0,2435
511,305511,17036,-696,552,17059.14,31.49,-1.00,-1.0,2372
514,305514,17112,-680,676,17138.84,31.49,-1.00,-1.0,2415
517,305517,17052,-560,660,17073.95,31.49,-1.00,-1.0,2377
519,305519,17080,-692,728,17109.51,31.64,-1.00,-1.0,2370
524,305524,17068,-692,752,17098.57,31.54,-1.00,-1.0,2452
527,305527,17064,-664,616,17088.02,31.59,-1.00,-1.0,2376
530,305530,17028,-644,832,17060.47,31.45,-1.00,-1.0,2420
533,305533,16944,-632,748,16972.27,31.45,-1.00,-1.0,2370
535,305535,17036,-532,580,17054.17,31.45,-1.00,-1.0,2422
538,305538,17052,-716,728,17082.54,31.49,-1.00,-1.0,2372
541,305541,17116,-548,584,17134.72,31.45,-1.00,-1.0,2421
544,305544,17072,-596,624,17093.79,31.45,-1.00,-1.0,2372
549,305549,17020,-644,760,17049.13,31.54,-1.00,-1.0,2449
551,305551,17020,-648,624,17043.76,31.40,-1.00,-1.0,2379
554,305554,17000,-488,684,17020.75,31.54,-1.00,-1.0,2366
557,305557,17120,-552,760,17145.75,31.49,-1.00,-1.0,2428
559,305559,17064,-560,616,17084.29,31.54,-1.00,-1.0,2369
562,305562,17020,-524,696,17042.28,31.59,-1.00,-1.0,2421
565,305565,17112,-576,668,17134.72,31.54,-1.00,-1.0,2370
568,305568,17120,-700,604,17144.95,31.49,-1.00,-1.0,2428
570,305570,17048,-636,524,17067.90,31.54,-1.00,-1.0,2369
575,305575,17124,-528,524,17140.15,31.54,-1.00,-1.0,2442
578,305578,17000,-680,736,17029.51,31.45,-1.00,-1.0,2369
581,305581,16984,-596,752,17011.08,31.49,-1.00,-1.0,2373
583,305583,17136,-576,760,17162.51,31.49,-1.00,-1.0,2421
586,305586,17040,-640,772,17069.48,31.49,-1.00,-1.0,2372
589,305589,17084,-604,716,17109.66,31.49,-1.00,-1.0,2428
592,305592,17032,-628,736,17059.46,31.59,-1.00,-1.0,2377
595,305595,17028,-692,704,17056.59,31.45,-1.00,-1.0,2421
597,305597,17152,-504,688,17173.19,31.49,-1.00,-1.0,2370
602,305602,17072,-588,640,17094.11,31.49,-1.00,-1.0,2440
605,305605,17072,-584,556,17091.03,31.59,-1.00,-1.0,2369
608,305608,16928,-580,652,16950.48,31.49,-1.00,-1.0,2376
611,305611,17024,-620,624,17046.71,31.45,-1.00,-1.0,2432
613,305613,17032,-672,648,17057.56,31.54,-1.00,-1.0,2373
616,305616,17020,-632,676,17045.14,31.54,-1.00,-1.0,2432
619,305619,17188,-544,748,17212.87,31.54,-1.00,-1.0,2378
622,305622,17072,-600,568,17091.98,31.54,-1.00,-1.0,2433
624,305624,17148,-692,580,17171.76,31.49,-1.00,-1.0,2369
629,305629,17048,-572,536,17066.01,31.49,-1.00,-1.0,2441
632,305632,17080,-572,756,17106.29,31.49,-1.00,-1.0,2365
635,305635,17072,-668,576,17094.77,31.54,-1.00,-1.0,2374
638,305638,17064,-628,680,17089.09,31.45,-1.00,-1.0,2434
640,305640,17108,-660,476,17127.34,31.45,-1.00,-1.0,2373
643,305643,17128,-536,664,17149.24,31.54,-1.00,-1.0,2415
646,305646,17156,-676,620,17180.50,31.54,-1.00,-1.0,2379
649,305649,17080,-620,636,17103.08,31.54,-1.00,-1.0,2437
651,305651,17024,-684,776,17055.40,31.64,-1.00,-1.0,2368
656,305656,17048,-668,660,17073.84,31.45,-1.00,-1.0,2448
659,305659,17060,-668,860,17094.72,31.45,-1.00,-1.0,2379
662,305662,17060,-672,668,17086.29,31.40,-1.00,-1.0,2366
664,305664,17104,-564,648,17125.56,31.49,-1.00,-1.0,2408
667,305667,17072,-616,648,17095.39,31.49,-1.00,-1.0,2370
670,305670,17056,-692,616,17081.14,31.40,-1.00,-1.0,2420
673,305673,16948,-620,644,16971.56,31.49,-1.00,-1.0,2368
676,305676,17108,-668,716,17136.00,31.64,-1.00,-1.0,2434
678,305678,17080,-612,572,17100.53,31.54,-1.00,-1.0,2377
683,305683,17060,-684,788,17091.88,31.49,-1.00,-1.0,2440
686,305686,17032,-560,648,17053.52,31.59,-1.00,-1.0,2369
688,305688,16996,-596,648,17018.79,31.54,-1.00,-1.0,2368
691,305691,17080,-764,664,17109.97,31.40,-1.00,-1.0,2430
694,305694,16992,-592,652,17014.81,31.54,-1.00,-1.0,2385
697,305697,17068,-620,688,17093.11,31.49,-1.00,-1.0,2427
700,305700,17072,-612,740,17098.99,31.54,-1.00,-1.0,2372
703,305703,17004,-548,720,17028.06,31.59,-1.00,-1.0,2432
706,305706,17068,-552,544,17085.59,31.45,-1.00,-1.0,2379
711,305711,17140,-720,520,17162.99,31.45,-1.00,-1.0,2442
713,305713,17112,-540,744,17136.68,31.54,-1.00,-1.0,2369
716,305716,17208,-652,728,17235.73,31.49,-1.00,-1.0,2368
719,305719,17096,-628,752,17124.05,31.40,-1.00,-1.0,2421
721,305721,16904,-612,656,16927.79,31.49,-1.00,-1.0,2367
724,305724,17116,-724,620,17142.52,31.59,-1.00,-1.0,2422
727,305727,16992,-488,652,17011.51,31.49,-1.00,-1.0,2368
730,305730,17044,-692,704,17072.56,31.59,-1.00,-1.0,2422
733,305733,17108,-712,568,17132.23,31.49,-1.00,-1.0,2366
738,305738,17092,-608,548,17111.59,31.49,-1.00,-1.0,2447
740,305740,17056,-580,620,17077.12,31.54,-1.00,-1.0,2369
743,305743,17140,-652,728,17167.84,31.49,-1.00,-1.0,2366
746,305746,17008,-620,728,17034.86,31.45,-1.00,-1.0,2427
748,305748,17132,-636,816,17163.21,31.49,-1.00,-1.0,2365
751,305751,16960,-616,740,16987.31,31.54,-1.00,-1.0,2422
754,305754,17088,-668,640,17113.02,31.59,-1.00,-1.0,2369
757,305757,17004,-684,756,17034.54,31.54,-1.00,-1.0,2421
760,305760,17008,-632,636,17031.62,31.49,-1.00,-1.0,2365
765,305765,17100,-632,628,17123.20,31.40,-1.00,-1.0,2446
767,305767,17152,-584,756,17178.58,31.59,-1.00,-1.0,2377
770,305770,16964,-612,628,16986.65,31.49,-1.00,-1.0,2365
773,305773,17108,-588,632,17129.76,31.45,-1.00,-1.0,2423
775,305775,17008,-600,728,17034.14,31.54,-1.00,-1.0,2365
778,305778,16948,-612,628,16970.67,31.54,-1.00,-1.0,2424
781,305781,17092,-576,548,17110.48,31.49,-1.00,-1.0,2366
784,305784,17072,-576,764,17098.79,31.54,-1.00,-1.0,2429
787,305787,17040,-648,660,17065.08,31.54,-1.00,-1.0,2365
792,305792,17144,-628,764,17172.50,31.59,-1.00,-1.0,2442
794,305794,17124,-572,656,17146.10,31.49,-1.00,-1.0,2373
797,305797,17044,-544,628,17064.24,31.54,-1.00,-1.0,2366
800,305800,17096,-636,740,17123.82,31.59,-1.00,-1.0,2432
802,305802,17044,-704,624,17069.94,31.45,-1.00,-1.0,2365
805,305805,16996,-648,624,17019.79,31.59,-1.00,-1.0,2422
808,305808,17052,-668,596,17075.48,31.45,-1.00,-1.0,2366
811,305811,17156,-568,588,17175.47,31.40,-1.00,-1.0,2423
814,305814,17064,-600,592,17084.80,31.64,-1.00,-1.0,2365
819,305819,17016,-608,744,17043.11,31.54,-1.00,-1.0,2441
821,305821,17028,-636,520,17047.81,31.45,-1.00,-1.0,2368
824,305824,17132,-544,608,17151.41,31.54,-1.00,-1.0,2366
827,305827,17124,-548,716,17147.72,31.59,-1.00,-1.0,2426
829,305829,17152,-576,752,17178.14,31.54,-1.00,-1.0,2366
832,305832,17132,-596,616,17153.43,31.59,-1.00,-1.0,2422
835,305835,17148,-700,688,17176.07,31.54,-1.00,-1.0,2367
838,305838,17124,-612,712,17149.72,31.49,-1.00,-1.0,2429
841,305841,17008,-628,712,17034.48,31.54,-1.00,-1.0,2365
846,305846,17104,-712,636,17130.62,31.54,-1.00,-1.0,2442
848,305848,17096,-692,708,17124.64,31.54,-1.00,-1.0,2366
851,305851,17104,-544,724,17127.96,31.59,-1.00,-1.0,2366
854,305854,17084,-672,620,17108.45,31.59,-1.00,-1.0,2430
856,305856,17068,-700,628,17093.89,31.40,-1.00,-1.0,2365
859,305859,17044,-644,748,17072.56,31.59,-1.00,-1.0,2434
862,305862,17088,-544,752,17113.19,31.49,-1.00,-1.0,2366
865,305865,17084,-608,712,17109.64,31.59,-1.00,-1.0,2428
868,305868,17072,-580,644,17093.98,31.59,-1.00,-1.0,2373
873,305873,16992,-624,564,17012.80,31.49,-1.00,-1.0,2446
875,305875,16952,-520,708,16974.74,31.59,-1.00,-1.0,2370
878,305878,17028,-640,820,17059.74,31.54,-1.00,-1.0,2367
881,305881,17076,-620,676,17100.62,31.54,-1.00,-1.0,2428
883,305883,17040,-588,688,17064.02,31.45,-1.00,-1.0,2367
886,305886,17088,-668,704,17115.54,31.54,-1.00,-1.0,2421
889,305889,17104,-748,844,17141.14,31.54,-1.00,-1.0,2370
892,305892,17088,-660,648,17113.01,31.49,-1.00,-1.0,2427
895,305895,17104,-584,596,17124.34,31.49,-1.00,-1.0,2368
899,305899,17032,-576,652,17054.21,31.54,-1.00,-1.0,2442
902,305902,17036,-676,636,17061.27,31.54,-1.00,-1.0,2365
905,305905,17100,-612,668,17123.98,31.59,-1.00,-1.0,2373
908,305908,17060,-700,616,17085.46,31.54,-1.00,-1.0,2425
910,305910,17032,-596,748,17058.83,31.49,-1.00,-1.0,2372
913,305913,17088,-580,612,17108.79,31.54,-1.00,-1.0,2436
916,305916,17068,-596,660,17091.15,31.49,-1.00,-1.0,2377
919,305919,17020,-528,572,17037.79,31.59,-1.00,-1.0,2425
922,305922,17100,-540,572,17118.08,31.49,-1.00,-1.0,2376
927,305927,17028,-680,672,17054.82,31.49,-1.00,-1.0,2440
930,305930,17044,-688,600,17068.43,31.49,-1.00,-1.0,2369
932,305932,17080,-608,700,17105.15,31.49,-1.00,-1.0,2420
935,305935,17112,-572,548,17130.32,31.49,-1.00,-1.0,2369
938,305938,17048,-644,536,17068.58,31.49,-1.00,-1.0,2369
941,305941,17140,-496,616,17158.24,31.45,-1.00,-1.0,2433
943,305943,17092,-700,760,17123.20,31.54,-1.00,-1.0,2379
946,305946,17044,-608,712,17069.70,31.45,-1.00,-1.0,2421
949,305949,17000,-592,736,17026.22,31.54,-1.00,-1.0,2377
954,305954,16968,-624,720,16994.73,31.49,-1.00,-1.0,2448
956,305956,17128,-572,528,17145.68,31.45,-1.00,-1.0,2369
959,305959,17000,-644,524,17020.26,31.54,-1.00,-1.0,2430
962,305962,17004,-576,692,17027.82,31.54,-1.00,-1.0,2378
965,305965,17096,-648,600,17118.79,31.49,-1.00,-1.0,2366
967,305967,17040,-612,684,17064.70,31.59,-1.00,-1.0,2421
970,305970,17000,-612,668,17024.12,31.49,-1.00,-1.0,2370
973,305973,17004,-624,728,17031.01,31.49,-1.00,-1.0,2424
976,305976,17096,-556,732,17120.70,31.54,-1.00,-1.0,2369
981,305981,17048,-588,708,17072.82,31.45,-1.00,-1.0,2448
983,305983,17048,-600,672,17071.79,31.54,-1.00,-1.0,2369
986,305986,17104,-632,728,17131.15,31.45,-1.00,-1.0,2430
989,305989,17048,-648,640,17072.31,31.45,-1.00,-1.0,2377
992,305992,17068,-560,676,17090.56,31.49,-1.00,-1.0,2366
994,305994,17056,-632,664,17080.62,31.49,-1.00,-1.0,2421
997,305997,17020,-584,648,17042.34,31.49,-1.00,-1.0,2370
1000,306000,17024,-668,504,17044.55,31.49,-1.00,-1.0,2421
1003,306003,17116,-644,628,17139.62,31.49,-1.00,-1.0,2371
1008,306008,17060,-732,720,17090.87,31.45,-1.00,-1.0,2444
1011,306011,17024,-664,756,17053.71,31.54,-1.00,-1.0,2376
1013,306013,17028,-640,724,17055.40,31.49,-1.00,-1.0,2424
1016,306016,17004,-596,732,17030.18,31.49,-1.00,-1.0,2382
1019,306019,17124,-624,684,17149.01,31.49,-1.00,-1.0,2375
1021,306021,17148,-576,708,17172.27,31.54,-1.00,-1.0,2421
1024,306024,17092,-700,652,17118.75,31.54,-1.00,-1.0,2372
1027,306027,17084,-680,676,17110.89,31.45,-1.00,-1.0,2421
1030,306030,17020,-644,640,17044.20,31.49,-1.00,-1.0,2370
1035,306035,17076,-712,612,17101.79,31.49,-1.00,-1.0,2444
1038,306038,17000,-520,624,17019.39,31.49,-1.00,-1.0,2375
1040,306040,17080,-632,792,17110.03,31.49,-1.00,-1.0,2422
1043,306043,17120,-640,512,17139.61,31.49,-1.00,-1.0,2372
1046,306046,17024,-676,532,17045.72,31.49,-1.00,-1.0,2420
1049,306049,16980,-596,784,17008.54,31.49,-1.00,-1.0,2369
1051,306051,17040,-604,736,17066.58,31.64,-1.00,-1.0,2366
1054,306054,17080,-608,700,17105.15,31.54,-1.00,-1.0,2421
1057,306057,17048,-592,672,17071.51,31.59,-1.00,-1.0,2370
1062,306062,17112,-620,796,17141.72,31.59,-1.00,-1.0,2441
1065,306065,17072,-568,832,17101.70,31.59,-1.00,-1.0,2372
1067,306067,17144,-608,712,17169.55,31.45,-1.00,-1.0,2421
1070,306070,17056,-632,608,17078.53,31.49,-1.00,-1.0,2370
1073,306073,17072,-628,612,17094.51,31.45,-1.00,-1.0,2421
1076,306076,17052,-696,696,17080.38,31.49,-1.00,-1.0,2372
1078,306078,17124,-728,704,17153.92,31.54,-1.00,-1.0,2421
1081,306081,17056,-668,712,17083.92,31.49,-1.00,-1.0,2369
1084,306084,17116,-600,708,17141.14,31.54,-1.00,-1.0,2367
1089,306089,17052,-560,668,17074.27,31.54,-1.00,-1.0,2429
1091,306091,17076,-572,588,17095.69,31.45,-1.00,-1.0,2355
1094,306094,17136,-652,668,17161.40,31.45,-1.00,-1.0,2421
1097,306097,17104,-716,608,17129.77,31.45,-1.00,-1.0,2371
1100,306100,17108,-688,576,17131.51,31.54,-1.00,-1.0,2431
1102,306102,17000,-532,704,17022.89,31.45,-1.00,-1.0,2369
1105,306105,17000,-720,748,17031.67,31.54,-1.00,-1.0,2424
1108,306108,17072,-588,728,17097.63,31.45,-1.00,-1.0,2369
1113,306113,17092,-584,592,17112.22,31.59,-1.00,-1.0,2443
1115,306115,16988,-532,748,17012.78,31.49,-1.00,-1.0,2376
1118,306118,17060,-636,664,17084.76,31.45,-1.00,-1.0,2365
1121,306121,16984,-556,720,17008.35,31.59,-1.00,-1.0,2428
1123,306123,17184,-656,744,17212.60,31.64,-1.00,-1.0,2365
1126,306126,17168,-680,792,17199.71,31.49,-1.00,-1.0,2423
1129,306129,17136,-516,652,17156.16,31.45,-1.00,-1.0,2367
1132,306132,17028,-608,548,17047.66,31.49,-1.00,-1.0,2428
1135,306135,17040,-628,584,17061.57,31.54,-1.00,-1.0,2370
1140,306140,17052,-632,676,17077.09,31.35,-1.00,-1.0,2441
1143,306143,17112,-668,708,17139.66,31.54,-1.00,-1.0,2369
1145,306145,17044,-636,696,17070.06,31.59,-1.00,-1.0,2370
1148,306148,17080,-632,628,17103.22,31.54,-1.00,-1.0,2430
1151,306151,17120,-616,600,17141.58,31.49,-1.00,-1.0,2373
1154,306154,16988,-604,680,17012.33,31.49,-1.00,-1.0,2433
1156,306156,17064,-656,752,17093.15,31.49,-1.00,-1.0,2377
1159,306159,17080,-588,612,17101.07,31.54,-1.00,-1.0,2421
1162,306162,17028,-584,712,17052.88,31.49,-1.00,-1.0,2377
1167,306167,17132,-588,812,17161.31,31.59,-1.00,-1.0,2441
1170,306170,17008,-600,692,17032.64,31.59,-1.00,-1.0,2378
1173,306173,17072,-704,760,17103.40,31.49,-1.00,-1.0,2423
1175,306175,17096,-504,500,17110.73,31.49,-1.00,-1.0,2370
1178,306178,17056,-532,608,17075.12,31.54,-1.00,-1.0,2368
1181,306181,17088,-596,656,17110.97,31.45,-1.00,-1.0,2421
1183,306183,17052,-664,592,17075.19,31.54,-1.00,-1.0,2376
1186,306186,17000,-680,696,17027.82,31.45,-1.00,-1.0,2421
1189,306189,17060,-580,772,17087.30,31.49,-1.00,-1.0,2384
1194,306194,17124,-644,652,17148.50,31.49,-1.00,-1.0,2454
1197,306197,17068,-644,676,17093.52,31.59,-1.00,-1.0,2377
1200,306200,17008,-616,648,17031.48,31.49,-1.00,-1.0,2437
1202,306202,17008,-696,528,17030.42,31.49,-1.00,-1.0,2377
1205,306205,17052,-652,596,17074.87,31.54,-1.00,-1.0,2421
1208,306208,17088,-752,456,17110.62,31.54,-1.00,-1.0,2374
1210,306210,17116,-576,720,17140.82,31.45,-1.00,-1.0,2367
1213,306213,17084,-484,600,17101.38,31.59,-1.00,-1.0,2421
1216,306216,17016,-668,588,17039.26,31.45,-1.00,-1.0,2377
1221,306221,16980,-604,552,16999.70,31.45,-1.00,-1.0,2455
1224,306224,17128,-628,708,17154.12,31.49,-1.00,-1.0,2371
1227,306227,17024,-680,808,17056.72,31.59,-1.00,-1.0,2470
1229,306229,17088,-668,640,17113.02,31.49,-1.00,-1.0,2369
1232,306232,17000,-584,772,17027.54,31.45,-1.00,-1.0,2432
1235,306235,17012,-608,736,17038.77,31.49,-1.00,-1.0,2369
1238,306238,17132,-556,660,17153.72,31.54,-1.00,-1.0,2431
1240,306240,17072,-692,664,17098.92,31.49,-1.00,-1.0,2369
1243,306243,17120,-576,728,17145.15,31.54,-1.00,-1.0,2366
1248,306248,17080,-616,676,17104.47,31.54,-1.00,-1.0,2441
1251,306251,16988,-576,632,17009.51,31.45,-1.00,-1.0,2362
1254,306254,17124,-556,608,17143.81,31.45,-1.00,-1.0,2439
1256,306256,17044,-632,692,17069.75,31.54,-1.00,-1.0,2376
1259,306259,17028,-672,752,17057.84,31.49,-1.00,-1.0,2421
1262,306262,17080,-572,744,17105.76,31.54,-1.00,-1.0,2360
1265,306265,16984,-652,544,17005.21,31.54,-1.00,-1.0,2422
1267,306267,17000,-728,756,17032.37,31.45,-1.00,-1.0,2375
1272,306272,17116,-652,648,17140.67,31.45,-1.00,-1.0,2439
1275,306275,16960,-680,712,16988.55,31.54,-1.00,-1.0,2376
1278,306278,17140,-532,740,17164.21,31.59,-1.00,-1.0,2366
1280,306280,17148,-620,660,17171.89,31.59,-1.00,-1.0,2430
1283,306283,17196,-656,744,17224.58,31.49,-1.00,-1.0,2369
1286,306286,17080,-628,528,17099.70,31.49,-1.00,-1.0,2421
1289,306289,17016,-624,780,17045.29,31.49,-1.00,-1.0,2371
1291,306291,17036,-576,772,17063.21,31.59,-1.00,-1.0,2422
1294,306294,17008,-624,728,17035.01,31.49,-1.00,-1.0,2356
1299,306299,17060,-624,524,17079.45,31.64,-1.00,-1.0,2431
1302,306302,17104,-540,716,17127.49,31.59,-1.00,-1.0,2374
1304,306304,17008,-648,552,17029.29,31.59,-1.00,-1.0,2430
1307,306307,16964,-644,704,16990.81,31.59,-1.00,-1.0,2370
1310,306310,16956,-620,724,16982.77,31.54,-1.00,-1.0,2367
1313,306313,17032,-592,720,17057.49,31.49,-1.00,-1.0,2420
1315,306315,17072,-676,620,17096.62,31.54,-1.00,-1.0,2376
1318,306318,17072,-592,692,17096.27,31.64,-1.00,-1.0,2461
1321,306321,17052,-648,752,17080.87,31.59,-1.00,-1.0,2370
1326,306326,17100,-568,612,17120.37,31.49,-1.00,-1.0,2432
1329,306329,17004,-600,604,17025.30,31.54,-1.00,-1.0,2374
1331,306331,17008,-704,740,17038.64,31.49,-1.00,-1.0,2431
1334,306334,16984,-652,772,17014.03,31.49,-1.00,-1.0,2371
1337,306337,17028,-636,472,17046.41,31.64,-1.00,-1.0,2373
1339,306339,17056,-604,660,17079.45,31.54,-1.00,-1.0,2422
1342,306342,17064,-680,484,17084.40,31.54,-1.00,-1.0,2369
1345,306345,17104,-612,776,17132.53,31.64,-1.00,-1.0,2423
1348,306348,17048,-620,780,17077.09,31.45,-1.00,-1.0,2373
1353,306353,17008,-692,600,17032.64,31.59,-1.00,-1.0,2434
1356,306356,17000,-592,668,17023.42,31.49,-1.00,-1.0,2370
1359,306359,17052,-596,592,17072.68,31.49,-1.00,-1.0,2430
1362,306362,17092,-704,608,17117.29,31.59,-1.00,-1.0,2368
1364,306364,17032,-716,656,17059.66,31.59,-1.00,-1.0,2421
1367,306367,17104,-616,792,17133.40,31.40,-1.00,-1.0,2369
1370,306370,16976,-644,716,17003.29,31.64,-1.00,-1.0,2374
1372,306372,17024,-600,624,17046.00,31.45,-1.00,-1.0,2421
1375,306375,17012,-596,620,17033.72,31.45,-1.00,-1.0,2375
1380,306380,17144,-632,652,17168.03,31.54,-1.00,-1.0,2430
1383,306383,17112,-572,836,17141.96,31.49,-1.00,-1.0,2367
1386,306386,17144,-680,676,17170.79,31.54,-1.00,-1.0,2437
1388,306388,17132,-600,720,17157.62,31.49,-1.00,-1.0,2368
1391,306391,17076,-656,776,17106.21,31.54,-1.00,-1.0,2423
1394,306394,17068,-692,804,17100.93,31.64,-1.00,-1.0,2369
1397,306397,16960,-684,724,16989.22,31.54,-1.00,-1.0,2423
1399,306399,17052,-604,736,17078.56,31.49,-1.00,-1.0,2367
1402,306402,16988,-712,716,17017.98,31.54,-1.00,-1.0,2365
1407,306407,17004,-640,768,17033.36,31.54,-1.00,-1.0,2431
1410,306410,16964,-664,720,16992.25,31.54,-1.00,-1.0,2372
1413,306413,16952,-588,768,16979.57,31.45,-1.00,-1.0,2436
1415,306415,17020,-616,712,17046.02,31.54,-1.00,-1.0,2368
1418,306418,17020,-664,592,17043.23,31.45,-1.00,-1.0,2422
1421,306421,17060,-616,756,17087.85,31.54,-1.00,-1.0,2369
1424,306424,17020,-552,684,17042.68,31.45,-1.00,-1.0,2423
1426,306426,17084,-624,592,17105.64,31.45,-1.00,-1.0,2368
1431,306431,17032,-580,708,17056.57,31.59,-1.00,-1.0,2431
1434,306434,17012,-564,608,17032.20,31.49,-1.00,-1.0,2368
1437,306437,17080,-576,544,17098.37,31.54,-1.00,-1.0,2373
1440,306440,17076,-684,616,17100.79,31.49,-1.00,-1.0,2429
1442,306442,17136,-664,636,17160.65,31.45,-1.00,-1.0,2372
1445,306445,17036,-640,680,17061.57,31.49,-1.00,-1.0,2435
1448,306448,17032,-512,640,17051.71,31.49,-1.00,-1.0,2380
1451,306451,17104,-584,744,17130.13,31.49,-1.00,-1.0,2432
1453,306453,17084,-668,712,17111.87,31.59,-1.00,-1.0,2377
1458,306458,17124,-572,696,17147.68,31.40,-1.00,-1.0,2432
1461,306461,17040,-660,728,17068.31,31.54,-1.00,-1.0,2369
1464,306464,17000,-612,736,17026.93,31.49,-1.00,-1.0,2434
1466,306466,17056,-576,636,17077.57,31.49,-1.00,-1.0,2367
1469,306469,17128,-604,752,17155.14,31.45,-1.00,-1.0,2365
1472,306472,17076,-592,600,17096.79,31.54,-1.00,-1.0,2421
1475,306475,17032,-676,676,17058.81,31.54,-1.00,-1.0,2371
1477,306477,17148,-592,584,17168.15,31.45,-1.00,-1.0,2420
1480,306480,17152,-660,584,17174.62,31.49,-1.00,-1.0,2377
1485,306485,17016,-664,652,17041.43,31.54,-1.00,-1.0,2462
1488,306488,17080,-636,684,17105.52,31.45,-1.00,-1.0,2366
1491,306491,17072,-636,640,17095.83,31.59,-1.00,-1.0,2421
1494,306494,17060,-592,828,17090.34,31.45,-1.00,-1.0,2368
1496,306496,17204,-632,668,17228.56,31.49,-1.00,-1.0,2421
1499,306499,17052,-632,604,17074.39,31.64,-1.00,-1.0,2370
1502,306502,16996,-600,844,17027.52,31.40,-1.00,-1.0,2374
1505,306505,17128,-656,644,17152.65,31.54,-1.00,-1.0,2438
1507,306507,17028,-628,648,17051.89,31.49,-1.00,-1.0,2371
1512,306512,16992,-772,580,17019.41,31.54,-1.00,-1.0,2442
1515,306515,17052,-712,748,17083.24,31.54,-1.00,-1.0,2356
1518,306518,17104,-660,744,17132.89,31.40,-1.00,-1.0,2428
1520,306520,16964,-604,632,16986.51,31.45,-1.00,-1.0,2369
1523,306523,17064,-688,624,17089.26,31.49,-1.00,-1.0,2423
1526,306526,17048,-752,684,17078.28,31.45,-1.00,-1.0,2370
1528,306528,17016,-708,736,17046.62,31.49,-1.00,-1.0,2367
1531,306531,17060,-616,708,17085.79,31.49,-1.00,-1.0,2422
1534,306534,16976,-624,604,16998.20,31.54,-1.00,-1.0,2370
1539,306539,17016,-652,652,17040.96,31.45,-1.00,-1.0,2456
1542,306542,16996,-576,648,17018.10,31.54,-1.00,-1.0,2377
1545,306545,17096,-604,620,17117.90,31.54,-1.00,-1.0,2431
1547,306547,17004,-664,708,17031.68,31.59,-1.00,-1.0,2381
1550,306550,17120,-640,760,17148.81,31.54,-1.00,-1.0,2421
1553,306553,17020,-716,772,17052.54,31.54,-1.00,-1.0,2358
1556,306556,17024,-588,820,17053.88,31.45,-1.00,-1.0,2421
1558,306558,17084,-560,564,17102.48,31.49,-1.00,-1.0,2369
1561,306561,17072,-676,696,17099.55,31.59,-1.00,-1.0,2366
1566,306566,17140,-656,760,17169.38,31.54,-1.00,-1.0,2444
1569,306569,17080,-640,752,17108.52,31.54,-1.00,-1.0,2371
1572,306572,17048,-588,648,17070.44,31.49,-1.00,-1.0,2420
1575,306575,17052,-636,720,17079.04,31.54,-1.00,-1.0,2369
1577,306577,17036,-584,716,17061.04,31.49,-1.00,-1.0,2421
1580,306580,16992,-540,636,17012.47,31.54,-1.00,-1.0,2370
1583,306583,17180,-592,708,17204.77,31.59,-1.00,-1.0,2408
1586,306586,17048,-684,688,17075.58,31.54,-1.00,-1.0,2371
1591,306591,17072,-612,708,17097.63,31.45,-1.00,-1.0,2450
1593,306593,17156,-600,676,17179.79,31.45,-1.00,-1.0,2376
1596,306596,17044,-620,696,17069.47,31.49,-1.00,-1.0,2365
1599,306599,17012,-628,528,17031.77,31.49,-1.00,-1.0,2428
1601,306601,17088,-688,744,17118.02,31.49,-1.00,-1.0,2368
1604,306604,17096,-700,668,17123.36,31.59,-1.00,-1.0,2422
1607,306607,17072,-616,596,17093.50,31.49,-1.00,-1.0,2370
1610,306610,17104,-672,668,17130.22,31.40,-1.00,-1.0,2423
1612,306612,17004,-616,668,17028.26,31.49,-1.00,-1.0,2368
1617,306617,17092,-656,676,17117.94,31.49,-1.00,-1.0,2440
1620,306620,17112,-584,828,17141.97,31.49,-1.00,-1.0,2369
1623,306623,17072,-632,668,17096.75,31.64,-1.00,-1.0,2421
1626,306626,17056,-512,728,17079.21,31.49,-1.00,-1.0,2368
1628,306628,17036,-628,712,17062.43,31.45,-1.00,-1.0,2368
1631,306631,17056,-604,632,17078.39,31.45,-1.00,-1.0,2422
1634,306634,17000,-580,716,17024.95,31.54,-1.00,-1.0,2378
1637,306637,17104,-652,648,17128.68,31.49,-1.00,-1.0,2436
1639,306639,16992,-568,760,17018.47,31.45,-1.00,-1.0,2368
1644,306644,17072,-524,696,17094.21,31.54,-1.00,-1.0,2441
1647,306647,17048,-568,792,17075.84,31.49,-1.00,-1.0,2371
1650,306650,17112,-592,596,17132.61,31.54,-1.00,-1.0,2421
1653,306653,16996,-532,640,17016.36,31.59,-1.00,-1.0,2377
1655,306655,17140,-672,648,17165.40,31.54,-1.00,-1.0,2421
1658,306658,17020,-696,684,17047.95,31.49,-1.00,-1.0,2369
1661,306661,17064,-608,608,17085.65,31.54,-1.00,-1.0,2370
1664,306664,17076,-556,660,17097.79,31.59,-1.00,-1.0,2424
1666,306666,17120,-596,776,17147.94,31.54,-1.00,-1.0,2369
1671,306671,17084,-544,720,17107.82,31.54,-1.00,-1.0,2441
1674,306674,17028,-568,636,17049.34,31.49,-1.00,-1.0,2371
1677,306677,17044,-716,768,17076.31,31.54,-1.00,-1.0,2437
1680,306680,17196,-608,604,17217.34,31.54,-1.00,-1.0,2381
1683,306683,16980,-548,704,17003.42,31.49,-1.00,-1.0,2434
1685,306685,17012,-624,596,17033.87,31.54,-1.00,-1.0,2374
1688,306688,17040,-628,836,17072.05,31.49,-1.00,-1.0,2431
1691,306691,17044,-784,764,17079.12,31.54,-1.00,-1.0,2377
1694,306694,17036,-604,652,17059.17,31.54,-1.00,-1.0,2371
1699,306699,17076,-532,756,17101.00,31.45,-1.00,-1.0,2441
1701,306701,17064,-608,688,17088.68,31.54,-1.00,-1.0,2371
1704,306704,17128,-652,640,17152.35,31.59,-1.00,-1.0,2436
1707,306707,17104,-740,664,17132.87,31.54,-1.00,-1.0,2378
1710,306710,17008,-580,808,17037.06,31.59,-1.00,-1.0,2436
1712,306712,17124,-596,588,17144.46,31.49,-1.00,-1.0,2378
1715,306715,17048,-664,688,17074.79,31.59,-1.00,-1.0,2429
1718,306718,17092,-692,756,17122.70,31.49,-1.00,-1.0,2375
1721,306721,17020,-676,572,17043.02,31.49,-1.00,-1.0,2370
1725,306725,17072,-620,664,17096.15,31.45,-1.00,-1.0,2451
1728,306728,17164,-580,768,17190.96,31.49,-1.00,-1.0,2370
1731,306731,17108,-680,780,17139.27,31.54,-1.00,-1.0,2420
1734,306734,17120,-736,468,17142.20,31.54,-1.00,-1.0,2369
1736,306736,17060,-792,584,17088.36,31.45,-1.00,-1.0,2420
1739,306739,17068,-604,632,17090.37,31.45,-1.00,-1.0,2369
1742,306742,17176,-624,648,17199.54,31.54,-1.00,-1.0,2421
1745,306745,17148,-596,640,17170.29,31.35,-1.00,-1.0,2370
1749,306749,16984,-668,788,17015.39,31.54,-1.00,-1.0,2440
1752,306752,17040,-524,608,17058.89,31.49,-1.00,-1.0,2368
1755,306755,17144,-668,660,17169.70,31.54,-1.00,-1.0,2368
1758,306758,17088,-616,780,17116.88,31.49,-1.00,-1.0,2425
1760,306760,16964,-636,640,16987.98,31.64,-1.00,-1.0,2369
1763,306763,17000,-548,644,17021.02,31.49,-1.00,-1.0,2436
1766,306766,17052,-712,720,17082.04,31.49,-1.00,-1.0,2376
1769,306769,17068,-616,692,17093.12,31.64,-1.00,-1.0,2421
1772,306772,17020,-556,680,17042.65,31.54,-1.00,-1.0,2428
1777,306777,17160,-596,604,17180.97,31.54,-1.00,-1.0,2433
1780,306780,17084,-608,668,17107.86,31.54,-1.00,-1.0,2370
1782,306782,17048,-552,784,17074.94,31.45,-1.00,-1.0,2426
1785,306785,17056,-648,628,17079.85,31.54,-1.00,-1.0,2356
1788,306788,17016,-696,704,17044.77,31.49,-1.00,-1.0,2374
1791,306791,16996,-704,628,17022.16,31.49,-1.00,-1.0,2436
1793,306793,17176,-608,568,17196.14,31.40,-1.00,-1.0,2377
1796,306796,17112,-708,680,17140.13,31.49,-1.00,-1.0,2420
1799,306799,17012,-604,748,17039.14,31.49,-1.00,-1.0,2372
1804,306804,17028,-604,624,17050.13,31.40,-1.00,-1.0,2440
1806,306806,17084,-680,704,17112.02,31.59,-1.00,-1.0,2368
1809,306809,17208,-516,648,17227.93,31.49,-1.00,-1.0,2441
1812,306812,17068,-616,672,17092.33,31.49,-1.00,-1.0,2376
1815,306815,17064,-556,648,17085.35,31.59,-1.00,-1.0,2423
1817,306817,17144,-708,756,17175.26,31.40,-1.00,-1.0,2369
1820,306820,16916,-604,644,16939.03,31.49,-1.00,-1.0,2366
1823,306823,17000,-608,588,17021.03,31.54,-1.00,-1.0,2420
1826,306826,16964,-552,720,16988.24,31.54,-1.00,-1.0,2368
1831,306831,17004,-552,552,17021.91,31.45,-1.00,-1.0,2432
1833,306833,17048,-528,608,17067.01,31.54,-1.00,-1.0,2372
1836,306836,17016,-620,812,17046.64,31.54,-1.00,-1.0,2427
1839,306839,16960,-680,668,16986.77,31.54,-1.00,-1.0,2370
1842,306842,17132,-704,772,17163.83,31.54,-1.00,-1.0,2421
1844,306844,17032,-656,672,17057.87,31.54,-1.00,-1.0,2371
1847,306847,17036,-696,740,17066.26,31.59,-1.00,-1.0,2420
1850,306850,16984,-544,620,17004.02,31.54,-1.00,-1.0,2372
1853,306853,17024,-564,740,17049.41,31.59,-1.00,-1.0,2374
1858,306858,17040,-552,604,17059.63,31.54,-1.00,-1.0,2432
1860,306860,17104,-784,824,17141.78,31.54,-1.00,-1.0,2371
1863,306863,17068,-584,744,17094.19,31.49,-1.00,-1.0,2427
1866,306866,17040,-656,696,17066.82,31.45,-1.00,-1.0,2369
1869,306869,17052,-612,720,17078.16,31.59,-1.00,-1.0,2425
1871,306871,17032,-696,628,17057.78,31.54,-1.00,-1.0,2368
1874,306874,17064,-640,692,17090.01,31.49,-1.00,-1.0,2420
1877,306877,17072,-676,720,17100.54,31.45,-1.00,-1.0,2369
1882,306882,17088,-644,452,17106.10,31.45,-1.00,-1.0,2432
1885,306885,17088,-584,816,17117.44,31.54,-1.00,-1.0,2377
1887,306887,17180,-696,780,17211.78,31.40,-1.00,-1.0,2365
1890,306890,17036,-576,540,17054.29,31.59,-1.00,-1.0,2426
1893,306893,16992,-700,756,17023.21,31.49,-1.00,-1.0,2375
1895,306895,17096,-544,860,17126.26,31.59,-1.00,-1.0,2421
1898,306898,17052,-492,520,17067.02,31.49,-1.00,-1.0,2372
1901,306901,17052,-604,608,17073.52,31.49,-1.00,-1.0,2420
1904,306904,16992,-624,628,17015.05,31.40,-1.00,-1.0,2377
1909,306909,17152,-584,720,17177.04,31.59,-1.00,-1.0,2439
1911,306911,17056,-520,720,17079.11,31.49,-1.00,-1.0,2368
1914,306914,17004,-604,788,17032.96,31.59,-1.00,-1.0,2379
1917,306917,16988,-652,792,17018.95,31.54,-1.00,-1.0,2427
1920,306920,17168,-656,700,17194.78,31.54,-1.00,-1.0,2370
1922,306922,17088,-652,704,17114.92,31.54,-1.00,-1.0,2409
1925,306925,17080,-604,648,17102.96,31.54,-1.00,-1.0,2384
1928,306928,17048,-656,616,17071.73,31.40,-1.00,-1.0,2421
1931,306931,17108,-572,540,17126.07,31.54,-1.00,-1.0,2376
1936,306936,17096,-656,624,17119.96,31.54,-1.00,-1.0,2439
1938,306938,17112,-744,632,17139.82,31.64,-1.00,-1.0,2379
1941,306941,17036,-656,508,17056.19,31.49,-1.00,-1.0,2426
1944,306944,17116,-608,556,17135.82,31.45,-1.00,-1.0,2369
1946,306946,17068,-636,704,17094.35,31.59,-1.00,-1.0,2353
1949,306949,17060,-680,712,17088.39,31.45,-1.00,-1.0,2420
1952,306952,17052,-644,600,17074.70,31.40,-1.00,-1.0,2369
1955,306955,17088,-580,724,17113.16,31.49,-1.00,-1.0,2420
1958,306958,17068,-616,668,17092.17,31.45,-1.00,-1.0,2357
1962,306962,17060,-508,668,17080.63,31.49,-1.00,-1.0,2432
1965,306965,17104,-632,584,17125.63,31.49,-1.00,-1.0,2368
1968,306968,17132,-688,680,17159.29,31.49,-1.00,-1.0,2426
1971,306971,17064,-644,660,17088.90,31.59,-1.00,-1.0,2369
1973,306973,17104,-572,648,17125.83,31.54,-1.00,-1.0,2421
1976,306976,17056,-760,604,17083.61,31.49,-1.00,-1.0,2369
1979,306979,17124,-672,860,17158.75,31.54,-1.00,-1.0,2367
1982,306982,17008,-676,720,17036.65,31.49,-1.00,-1.0,2422
1985,306985,17088,-588,692,17112.11,31.59,-1.00,-1.0,2368
1990,306990,17080,-656,708,17107.25,31.45,-1.00,-1.0,2444
1992,306992,16952,-552,784,16979.10,31.45,-1.00,-1.0,2368
1995,306995,17068,-664,724,17096.25,31.49,-1.00,-1.0,2436
1998,306998,17056,-636,676,17081.24,31.54,-1.00,-1.0,2383
2001,307001,17088,-524,568,17105.46,31.49,-1.00,-1.0,2420
2004,307004,17140,-596,540,17158.86,31.54,-1.00,-1.0,2371
2006,307006,16928,-636,724,16955.41,31.49,-1.00,-1.0,2422
2009,307009,17132,-748,724,17163.60,31.49,-1.00,-1.0,2377
2012,307012,17020,-660,640,17044.81,31.49,-1.00,-1.0,2370
2017,307017,17072,-640,604,17094.67,31.49,-1.00,-1.0,2436
2020,307020,17036,-592,712,17061.15,31.49,-1.00,-1.0,2372
2022,307022,17052,-628,644,17075.71,31.59,-1.00,-1.0,2429
2025,307025,17044,-680,728,17073.09,31.49,-1.00,-1.0,2371
2028,307028,17080,-724,740,17111.35,31.49,-1.00,-1.0,2419
2031,307031,17160,-540,764,17185.48,31.49,-1.00,-1.0,2371
2033,307033,17088,-600,668,17111.57,31.59,-1.00,-1.0,2420
2036,307036,17000,-576,616,17020.91,31.59,-1.00,-1.0,2358
2041,307041,17040,-624,724,17066.79,31.59,-1.00,-1.0,2446
2044,307044,17080,-564,676,17102.67,31.59,-1.00,-1.0,2377
2046,307046,17164,-584,608,17184.69,31.59,-1.00,-1.0,2364
2049,307049,17104,-608,704,17129.28,31.45,-1.00,-1.0,2426
2052,307052,17020,-708,688,17048.61,31.49,-1.00,-1.0,2369
2055,307055,17060,-568,772,17086.90,31.45,-1.00,-1.0,2428
2057,307057,17052,-728,528,17075.70,31.54,-1.00,-1.0,2369
2060,307060,17168,-688,544,17190.39,31.54,-1.00,-1.0,2425
2063,307063,17052,-684,656,17078.32,31.49,-1.00,-1.0,2370
2068,307068,17120,-656,724,17147.85,31.49,-1.00,-1.0,2432
2071,307071,17020,-592,584,17040.30,31.59,-1.00,-1.0,2368
2073,307073,17080,-660,712,17107.57,31.54,-1.00,-1.0,2428
2076,307076,17060,-620,648,17083.56,31.54,-1.00,-1.0,2370
2079,307079,17116,-528,764,17141.18,31.54,-1.00,-1.0,2369
2082,307082,17032,-672,592,17055.53,31.59,-1.00,-1.0,2425
2084,307084,17176,-656,660,17201.19,31.54,-1.00,-1.0,2370
2087,307087,17044,-620,712,17070.13,31.59,-1.00,-1.0,2436
2090,307090,17024,-684,800,17056.51,31.35,-1.00,-1.0,2369
2095,307095,17184,-644,788,17214.11,31.49,-1.00,-1.0,2419
2098,307098,17076,-648,716,17103.29,31.45,-1.00,-1.0,2369
2100,307100,17080,-644,744,17108.32,31.54,-1.00,-1.0,2426
2103,307103,17052,-636,648,17076.16,31.45,-1.00,-1.0,2369
2106,307106,17144,-592,624,17165.56,31.49,-1.00,-1.0,2361
2109,307109,17084,-672,828,17117.25,31.49,-1.00,-1.0,2423
2111,307111,17100,-556,664,17121.92,31.59,-1.00,-1.0,2371
2114,307114,17112,-596,648,17134.63,31.40,-1.00,-1.0,2434
2117,307117,17120,-636,576,17141.49,31.64,-1.00,-1.0,2369
2122,307122,17080,-692,640,17105.99,31.45,-1.00,-1.0,2433
2125,307125,17036,-572,764,17062.71,31.54,-1.00,-1.0,2369
2127,307127,17036,-552,556,17054.01,31.49,-1.00,-1.0,2427
2130,307130,17020,-680,756,17050.35,31.45,-1.00,-1.0,2356
2133,307133,17080,-720,600,17105.70,31.49,-1.00,-1.0,2420
2136,307136,17136,-656,676,17161.87,31.45,-1.00,-1.0,2371
2138,307138,16992,-592,652,17014.81,31.59,-1.00,-1.0,2369
2141,307141,16964,-544,576,16982.49,31.59,-1.00,-1.0,2416
2144,307144,17076,-616,756,17103.82,31.49,-1.00,-1.0,2369
2149,307149,17052,-640,768,17081.28,31.49,-1.00,-1.0,2439
2151,307151,17060,-524,668,17081.11,31.49,-1.00,-1.0,2371
2154,307154,17080,-632,616,17102.79,31.45,-1.00,-1.0,2433
2157,307157,17104,-564,780,17131.06,31.54,-1.00,-1.0,2377
2160,307160,17012,-580,668,17034.99,31.54,-1.00,-1.0,2422
2163,307163,17036,-536,708,17059.13,31.54,-1.00,-1.0,2371
2165,307165,17080,-640,748,17108.35,31.54,-1.00,-1.0,2423
2168,307168,16996,-520,792,17022.39,31.54,-1.00,-1.0,2371
2171,307171,17044,-580,632,17065.57,31.59,-1.00,-1.0,2373
2176,307176,17056,-632,628,17079.25,31.49,-1.00,-1.0,2439
2178,307178,17064,-644,672,17089.37,31.54,-1.00,-1.0,2368
2181,307181,17092,-608,492,17109.89,31.49,-1.00,-1.0,2430
2184,307184,17080,-588,616,17101.22,31.59,-1.00,-1.0,2369
2187,307187,16988,-608,732,17014.63,31.49,-1.00,-1.0,2427
2189,307189,17024,-612,660,17047.78,31.49,-1.00,-1.0,2368
2192,307192,16996,-564,564,17014.71,31.59,-1.00,-1.0,2421
2195,307195,17024,-588,764,17051.28,31.54,-1.00,-1.0,2384
2200,307200,16964,-616,756,16992.01,31.59,-1.00,-1.0,2435
2203,307203,16940,-656,560,16961.94,31.59,-1.00,-1.0,2369
2206,307206,17084,-632,696,17109.85,31.45,-1.00,-1.0,2370
2208,307208,17088,-620,664,17112.13,31.45,-1.00,-1.0,2429
2211,307211,17060,-520,784,17085.92,31.54,-1.00,-1.0,2377
2214,307214,17024,-572,752,17050.20,31.54,-1.00,-1.0,2421
2217,307217,17016,-592,760,17043.25,31.54,-1.00,-1.0,2374
2219,307219,17024,-648,632,17048.05,31.59,-1.00,-1.0,2420
2222,307222,17012,-668,588,17035.26,31.54,-1.00,-1.0,2372
2227,307227,16980,-660,800,17011.64,31.54,-1.00,-1.0,2447
2230,307230,17032,-592,576,17052.02,31.49,-1.00,-1.0,2375
2233,307233,17020,-724,696,17049.60,31.54,-1.00,-1.0,2440
2235,307235,17024,-740,624,17051.50,31.54,-1.00,-1.0,2376
2238,307238,16972,-632,628,16995.37,31.49,-1.00,-1.0,2368
2241,307241,17068,-544,560,17085.85,31.49,-1.00,-1.0,2422
2243,307243,17080,-644,796,17110.66,31.49,-1.00,-1.0,2367
2246,307246,17152,-664,616,17175.90,31.49,-1.00,-1.0,2422
2249,307249,17096,-632,604,17118.34,31.54,-1.00,-1.0,2375
2254,307254,16996,-560,720,17020.46,31.54,-1.00,-1.0,2443
2257,307257,17032,-536,740,17056.49,31.45,-1.00,-1.0,2377
2260,307260,17184,-608,716,17209.65,31.59,-1.00,-1.0,2435
2262,307262,17024,-736,788,17058.11,31.54,-1.00,-1.0,2376
2265,307265,16992,-604,496,17009.96,31.49,-1.00,-1.0,2420
2268,307268,17012,-680,800,17044.37,31.45,-1.00,-1.0,2357
2270,307270,17096,-716,664,17123.87,31.49,-1.00,-1.0,2366
2273,307273,17108,-692,576,17131.68,31.54,-1.00,-1.0,2421
2276,307276,17080,-680,668,17106.58,31.59,-1.00,-1.0,2369
2281,307281,17000,-528,520,17016.14,31.45,-1.00,-1.0,2427
2284,307284,17056,-740,676,17085.42,31.54,-1.00,-1.0,2372
2287,307287,17020,-732,664,17048.67,31.49,-1.00,-1.0,2437
2289,307289,17084,-668,728,17112.55,31.54,-1.00,-1.0,2378
2292,307292,17044,-584,660,17066.77,31.40,-1.00,-1.0,2420
2295,307295,17028,-664,608,17051.79,31.54,-1.00,-1.0,2370
2297,307297,17040,-648,692,17066.35,31.49,-1.00,-1.0,2366
2300,307300,17000,-624,656,17024.09,31.54,-1.00,-1.0,2422
2303,307303,17056,-616,604,17077.80,31.49,-1.00,-1.0,2369
2308,307308,17104,-560,688,17126.99,31.49,-1.00,-1.0,2438
2311,307311,17012,-592,708,17037.02,31.49,-1.00,-1.0,2369
2314,307314,17008,-612,688,17032.91,31.49,-1.00,-1.0,2426
2316,307316,17044,-672,688,17071.11,31.40,-1.00,-1.0,2371
2319,307319,17052,-608,724,17078.19,31.49,-1.00,-1.0,2420
2322,307322,17108,-604,544,17127.30,31.59,-1.00,-1.0,2370
2325,307325,17060,-592,680,17083.81,31.49,-1.00,-1.0,2420
2327,307327,17008,-488,700,17029.39,31.40,-1.00,-1.0,2370
2330,307330,17060,-620,688,17085.12,31.59,-1.00,-1.0,2365
2335,307335,17140,-544,696,17162.75,31.49,-1.00,-1.0,2432
2338,307338,17016,-580,680,17039.46,31.59,-1.00,-1.0,2371
2341,307341,17028,-636,684,17053.60,31.49,-1.00,-1.0,2427
2343,307343,17100,-704,664,17127.36,31.49,-1.00,-1.0,2374
2346,307346,17004,-612,512,17022.71,31.54,-1.00,-1.0,2423
2349,307349,17088,-548,616,17107.88,31.59,-1.00,-1.0,2359
2352,307352,17068,-472,620,17085.78,31.49,-1.00,-1.0,2428
2354,307354,17116,-600,724,17141.81,31.59,-1.00,-1.0,2371
2359,307359,17108,-600,756,17135.20,31.54,-1.00,-1.0,2432
2362,307362,17008,-668,616,17032.26,31.59,-1.00,-1.0,2368
2364,307364,17052,-576,632,17073.43,31.54,-1.00,-1.0,2367
2367,307367,17092,-608,628,17114.34,31.49,-1.00,-1.0,2434
2370,307370,17092,-580,624,17113.22,31.49,-1.00,-1.0,2384
2373,307373,17080,-664,724,17108.23,31.49,-1.00,-1.0,2424
2376,307376,17132,-572,660,17154.25,31.49,-1.00,-1.0,2371
2378,307378,17048,-544,648,17068.98,31.59,-1.00,-1.0,2427
2381,307381,17080,-592,756,17106.97,31.45,-1.00,-1.0,2370
2386,307386,16976,-700,704,17005.01,31.45,-1.00,-1.0,2432
2389,307389,17120,-632,732,17147.29,31.59,-1.00,-1.0,2370
2391,307391,17048,-684,696,17075.91,31.54,-1.00,-1.0,2427
2394,307394,17084,-652,744,17112.62,31.49,-1.00,-1.0,2368
2397,307397,17076,-664,784,17106.88,31.45,-1.00,-1.0,2373
2400,307400,17028,-628,732,17055.29,31.59,-1.00,-1.0,2426
2402,307402,17064,-584,600,17084.53,31.45,-1.00,-1.0,2372
2405,307405,17112,-596,700,17136.68,31.49,-1.00,-1.0,2435
2408,307408,17040,-540,688,17062.43,31.49,-1.00,-1.0,2373
2413,307413,17080,-576,624,17101.10,31.45,-1.00,-1.0,2433
2416,307416,17052,-620,688,17077.13,31.54,-1.00,-1.0,2373
2419,307419,17048,-644,664,17073.08,31.59,-1.00,-1.0,2433
2421,307421,17052,-612,504,17070.42,31.54,-1.00,-1.0,2367
2424,307424,16996,-632,856,17029.27,31.49,-1.00,-1.0,2436
2427,307427,17068,-664,684,17094.60,31.49,-1.00,-1.0,2368
2430,307430,17076,-608,800,17105.54,31.59,-1.00,-1.0,2367
2432,307432,17024,-612,680,17048.56,31.54,-1.00,-1.0,2420
2435,307435,17012,-624,724,17038.83,31.49,-1.00,-1.0,2373
2440,307440,17148,-636,660,17172.48,31.59,-1.00,-1.0,2433
2443,307443,17060,-676,704,17087.90,31.59,-1.00,-1.0,2369
2446,307446,17112,-592,700,17136.54,31.49,-1.00,-1.0,2433
2448,307448,17028,-620,672,17052.53,31.59,-1.00,-1.0,2368
2451,307451,17096,-676,720,17124.50,31.49,-1.00,-1.0,2431
2454,307454,17124,-648,608,17147.04,31.59,-1.00,-1.0,2377
2457,307457,17004,-592,592,17024.60,31.59,-1.00,-1.0,2423
2459,307459,17076,-660,572,17098.32,31.49,-1.00,-1.0,2373
2462,307462,17132,-756,656,17161.21,31.59,-1.00,-1.0,2376
2467,307467,17092,-644,664,17117.01,31.49,-1.00,-1.0,2442
2470,307470,17092,-580,728,17117.33,31.49,-1.00,-1.0,2373
2473,307473,17100,-676,660,17126.08,31.54,-1.00,-1.0,2431
2476,307476,17104,-616,712,17129.89,31.59,-1.00,-1.0,2374
2478,307478,17076,-708,580,17100.51,31.64,-1.00,-1.0,2428
2481,307481,17040,-600,564,17059.88,31.54,-1.00,-1.0,2385
2484,307484,16948,-636,704,16974.54,31.54,-1.00,-1.0,2423
2487,307487,16972,-664,716,17000.07,31.49,-1.00,-1.0,2369
2489,307489,17104,-592,656,17126.81,31.45,-1.00,-1.0,2372
2494,307494,17068,-536,664,17089.32,31.45,-1.00,-1.0,2440
2497,307497,17184,-772,608,17212.07,31.54,-1.00,-1.0,2384
2500,307500,17064,-556,628,17084.60,31.54,-1.00,-1.0,2429
2503,307503,16976,-640,752,17004.70,31.59,-1.00,-1.0,2367
2505,307505,17132,-536,712,17155.16,31.54,-1.00,-1.0,2423
2508,307508,17180,-636,812,17210.93,31.54,-1.00,-1.0,2372
2511,307511,17084,-568,732,17109.11,31.54,-1.00,-1.0,2422
2514,307514,17092,-696,792,17124.49,31.49,-1.00,-1.0,2365
2519,307519,16992,-740,668,17021.22,31.49,-1.00,-1.0,2436
2521,307521,17072,-708,608,17097.49,31.59,-1.00,-1.0,2373
2524,307524,17096,-600,648,17118.79,31.54,-1.00,-1.0,2366
2527,307527,17112,-516,776,17137.36,31.49,-1.00,-1.0,2433
2529,307529,17104,-604,676,17128.01,31.54,-1.00,-1.0,2368
2532,307532,17064,-716,748,17095.39,31.59,-1.00,-1.0,2421
2535,307535,17076,-596,660,17099.14,31.54,-1.00,-1.0,2369
2538,307538,17052,-604,840,17083.36,31.49,-1.00,-1.0,2427
2540,307540,16984,-544,712,17007.62,31.49,-1.00,-1.0,2368
2545,307545,17076,-728,536,17099.91,31.54,-1.00,-1.0,2435
2548,307548,17112,-684,704,17140.13,31.64,-1.00,-1.0,2371
2551,307551,17132,-604,784,17160.56,31.49,-1.00,-1.0,2428
2554,307554,17032,-716,684,17060.76,31.54,-1.00,-1.0,2368
2556,307556,16976,-580,628,16997.51,31.49,-1.00,-1.0,2366
2559,307559,17008,-664,720,17036.18,31.54,-1.00,-1.0,2428
2562,307562,17068,-708,600,17093.21,31.49,-1.00,-1.0,2377
2565,307565,17100,-584,868,17131.97,31.59,-1.00,-1.0,2420
2567,307567,17040,-648,844,17073.19,31.49,-1.00,-1.0,2368
2573,307573,17060,-632,628,17083.25,31.49,-1.00,-1.0,2432
2576,307576,17104,-556,740,17129.03,31.49,-1.00,-1.0,2368
2578,307578,17052,-732,660,17080.46,31.49,-1.00,-1.0,2428
2581,307581,17012,-632,600,17034.30,31.49,-1.00,-1.0,2368
2584,307584,17120,-648,624,17143.62,31.54,-1.00,-1.0,2420
2587,307587,17136,-604,656,17159.19,31.49,-1.00,-1.0,2375
2589,307589,17088,-656,576,17110.29,31.64,-1.00,-1.0,2376
2592,307592,17032,-672,740,17061.31,31.49,-1.00,-1.0,2420
2595,307595,17060,-636,792,17090.21,31.54,-1.00,-1.0,2358
2599,307599,17068,-664,592,17091.17,31.59,-1.00,-1.0,2432
2602,307602,17084,-544,608,17103.47,31.49,-1.00,-1.0,2369
2605,307605,17084,-648,736,17112.12,31.45,-1.00,-1.0,2426
2608,307608,17004,-568,684,17027.23,31.54,-1.00,-1.0,2377
2610,307610,17088,-644,644,17112.25,31.45,-1.00,-1.0,2420
2613,307613,17016,-680,792,17047.99,31.54,-1.00,-1.0,2371
2616,307616,17116,-672,664,17142.05,31.54,-1.00,-1.0,2437
2619,307619,17108,-616,700,17133.39,31.54,-1.00,-1.0,2366
2621,307621,16992,-632,748,17020.19,31.49,-1.00,-1.0,2366
2626,307626,17092,-532,536,17108.68,31.59,-1.00,-1.0,2432
2629,307629,17008,-544,780,17034.56,31.59,-1.00,-1.0,2369
2632,307632,17052,-584,692,17076.03,31.54,-1.00,-1.0,2426
2635,307635,17060,-532,680,17081.83,31.40,-1.00,-1.0,2367
2637,307637,17024,-588,644,17046.32,31.45,-1.00,-1.0,2420
2640,307640,17092,-684,660,17118.41,31.49,-1.00,-1.0,2368
2643,307643,17020,-736,644,17048.07,31.54,-1.00,-1.0,2421
2646,307646,17056,-724,780,17089.17,31.49,-1.00,-1.0,2369
2651,307651,17088,-584,644,17110.10,31.59,-1.00,-1.0,2434
2654,307654,17116,-632,800,17146.34,31.49,-1.00,-1.0,2374
2656,307656,17008,-676,652,17033.91,31.45,-1.00,-1.0,2365
2659,307659,17024,-528,620,17043.47,31.54,-1.00,-1.0,2427
2662,307662,17044,-532,748,17068.70,31.45,-1.00,-1.0,2376
2664,307664,17044,-604,696,17068.89,31.45,-1.00,-1.0,2420
2667,307667,17120,-716,652,17147.37,31.54,-1.00,-1.0,2370
2670,307670,17076,-604,572,17096.25,31.54,-1.00,-1.0,2420
2673,307673,17088,-620,532,17107.52,31.54,-1.00,-1.0,2376
2678,307678,17032,-660,620,17056.05,31.45,-1.00,-1.0,2432
2680,307680,17048,-712,628,17074.41,31.49,-1.00,-1.0,2372
2683,307683,17032,-696,672,17059.46,31.64,-1.00,-1.0,2365
2686,307686,17008,-736,660,17036.71,31.49,-1.00,-1.0,2436
2688,307688,17128,-656,560,17149.70,31.54,-1.00,-1.0,2368
2691,307691,17044,-600,556,17063.62,31.59,-1.00,-1.0,2431
2694,307694,17088,-632,752,17116.21,31.54,-1.00,-1.0,2376
2697,307697,17076,-636,712,17102.67,31.49,-1.00,-1.0,2407
2700,307700,17112,-552,592,17131.13,31.40,-1.00,-1.0,2371
2704,307704,17084,-604,792,17113.01,31.54,-1.00,-1.0,2433
2707,307707,17092,-632,612,17114.63,31.54,-1.00,-1.0,2370
2710,307710,17168,-624,720,17194.42,31.59,-1.00,-1.0,2442
2713,307713,17028,-628,524,17047.63,31.49,-1.00,-1.0,2377
2715,307715,17044,-636,724,17071.22,31.59,-1.00,-1.0,2354
2718,307718,17028,-680,636,17053.44,31.45,-1.00,-1.0,2420
2721,307721,17080,-716,680,17108.52,31.49,-1.00,-1.0,2372
2724,307724,17060,-560,504,17076.63,31.64,-1.00,-1.0,2420
2727,307727,16976,-604,784,17004.82,31.49,-1.00,-1.0,2368
2732,307732,16924,-616,648,16947.60,31.49,-1.00,-1.0,2433
2734,307734,17124,-688,620,17149.03,31.49,-1.00,-1.0,2374
2737,307737,17156,-624,560,17176.47,31.49,-1.00,-1.0,2421
2740,307740,17068,-624,724,17094.74,31.49,-1.00,-1.0,2376
2743,307743,17056,-632,800,17086.44,31.49,-1.00,-1.0,2436
2745,307745,16996,-716,664,17024.03,31.59,-1.00,-1.0,2377
2748,307748,17068,-568,636,17089.29,31.45,-1.00,-1.0,2364
2751,307751,16972,-608,628,16994.49,31.54,-1.00,-1.0,2428
2754,307754,17060,-680,556,17082.60,31.59,-1.00,-1.0,2370
2759,307759,16980,-580,652,17002.41,31.49,-1.00,-1.0,2437
2761,307761,17052,-572,704,17076.11,31.59,-1.00,-1.0,2382
2764,307764,17064,-660,824,17096.63,31.45,-1.00,-1.0,2426
2767,307767,16992,-596,788,17020.70,31.49,-1.00,-1.0,2369
2770,307770,16992,-640,668,17017.16,31.45,-1.00,-1.0,2420
2772,307772,17144,-660,688,17170.49,31.49,-1.00,-1.0,2376
2775,307775,17100,-636,672,17125.01,31.45,-1.00,-1.0,2420
2778,307778,17028,-588,732,17053.87,31.49,-1.00,-1.0,2370
2781,307781,17116,-568,736,17141.23,31.54,-1.00,-1.0,2367
2785,307785,17136,-532,672,17157.42,31.45,-1.00,-1.0,2433
2788,307788,17156,-568,620,17176.59,31.54,-1.00,-1.0,2370
2791,307791,17020,-600,736,17046.47,31.49,-1.00,-1.0,2426
2794,307794,17100,-716,668,17128.01,31.54,-1.00,-1.0,2368
2796,307796,17068,-628,652,17091.99,31.49,-1.00,-1.0,2421
2799,307799,17156,-600,720,17181.58,31.54,-1.00,-1.0,2357
2802,307802,17040,-588,696,17064.34,31.59,-1.00,-1.0,2420
2805,307805,17028,-644,648,17052.49,31.64,-1.00,-1.0,2367
2809,307809,17176,-612,652,17199.26,31.59,-1.00,-1.0,2442
2812,307812,17044,-612,716,17070.01,31.49,-1.00,-1.0,2384
2815,307815,17128,-664,676,17154.19,31.45,-1.00,-1.0,2366
2817,307817,17072,-648,724,17099.63,31.59,-1.00,-1.0,2427
2820,307820,17076,-608,704,17101.32,31.49,-1.00,-1.0,2369
2823,307823,17092,-528,696,17114.31,31.49,-1.00,-1.0,2420
2826,307826,17140,-616,724,17166.34,31.49,-1.00,-1.0,2368
2829,307829,17056,-620,668,17080.33,31.59,-1.00,-1.0,2427
2832,307832,17072,-688,780,17103.65,31.59,-1.00,-1.0,2368
2837,307837,17004,-648,512,17024.04,31.54,-1.00,-1.0,2432
2839,307839,17116,-704,792,17148.77,31.64,-1.00,-1.0,2370
2842,307842,17076,-608,608,17097.63,31.59,-1.00,-1.0,2427
2845,307845,17084,-588,616,17105.21,31.54,-1.00,-1.0,2370
2847,307847,17168,-580,628,17189.27,31.59,-1.00,-1.0,2366
2850,307850,17104,-612,668,17127.98,31.49,-1.00,-1.0,2435
2853,307853,17056,-720,712,17086.03,31.49,-1.00,-1.0,2368
2856,307856,16964,-716,516,16986.94,31.54,-1.00,-1.0,2428
2859,307859,17080,-728,664,17108.40,31.49,-1.00,-1.0,2374
2866,307866,16924,-620,564,16944.74,31.54,-1.00,-1.0,2438
2868,307868,17096,-672,700,17123.52,31.40,-1.00,-1.0,2377
2871,307871,17080,-624,512,17099.06,31.54,-1.00,-1.0,2428
2874,307874,17056,-672,604,17079.92,31.54,-1.00,-1.0,2370
2876,307876,16936,-660,656,16961.54,31.49,-1.00,-1.0,2366
2879,307879,17052,-584,592,17072.27,31.49,-1.00,-1.0,2421
2882,307882,17076,-644,668,17101.19,31.49,-1.00,-1.0,2369
2885,307885,17128,-692,604,17152.61,31.59,-1.00,-1.0,2428
2887,307887,17016,-612,672,17040.26,31.49,-1.00,-1.0,2368
2892,307892,17008,-716,668,17036.17,31.49,-1.00,-1.0,2432
2895,307895,17132,-592,552,17151.11,31.49,-1.00,-1.0,2368
2898,307898,17060,-688,560,17083.05,31.49,-1.00,-1.0,2426
2901,307901,17000,-588,688,17024.07,31.59,-1.00,-1.0,2368
2903,307903,17120,-624,544,17140.00,31.59,-1.00,-1.0,2421
2906,307906,17096,-560,520,17113.07,31.49,-1.00,-1.0,2369
2909,307909,17068,-604,712,17093.52,31.54,-1.00,-1.0,2377
2912,307912,17172,-684,668,17198.60,31.54,-1.00,-1.0,2436
2914,307914,17064,-668,644,17089.21,31.45,-1.00,-1.0,2376
2919,307919,17124,-652,668,17149.42,31.59,-1.00,-1.0,2432
2922,307922,17040,-676,596,17063.81,31.54,-1.00,-1.0,2369
2925,307925,17092,-660,648,17117.01,31.45,-1.00,-1.0,2433
2927,307927,17028,-656,748,17057.04,31.54,-1.00,-1.0,2368
2930,307930,17072,-636,704,17098.34,31.54,-1.00,-1.0,2431
2933,307933,17052,-592,696,17076.46,31.54,-1.00,-1.0,2377
2936,307936,17032,-644,672,17057.41,31.45,-1.00,-1.0,2423
2938,307938,17004,-576,596,17024.19,31.54,-1.00,-1.0,2370
2941,307941,17052,-676,764,17082.49,31.59,-1.00,-1.0,2366
2946,307946,17052,-552,552,17069.86,31.49,-1.00,-1.0,2439
2949,307949,17108,-652,780,17138.18,31.54,-1.00,-1.0,2372
2952,307952,16976,-684,752,17006.41,31.49,-1.00,-1.0,2426
2954,307954,17016,-648,792,17046.74,31.59,-1.00,-1.0,2376
2957,307957,17004,-584,652,17026.51,31.49,-1.00,-1.0,2420
2960,307960,17044,-576,652,17066.19,31.49,-1.00,-1.0,2372
2963,307963,17060,-608,592,17081.09,31.59,-1.00,-1.0,2421
2965,307965,17124,-716,672,17152.13,31.49,-1.00,-1.0,2371
2970,307970,17032,-528,676,17053.59,31.49,-1.00,-1.0,2440
2973,307973,17124,-516,548,17140.54,31.40,-1.00,-1.0,2376
2976,307976,17120,-580,608,17140.61,31.49,-1.00,-1.0,2366
2978,307978,17052,-544,716,17075.69,31.45,-1.00,-1.0,2426
2981,307981,17012,-576,668,17034.85,31.49,-1.00,-1.0,2372
2984,307984,17056,-752,520,17080.49,31.54,-1.00,-1.0,2421
2987,307987,17088,-624,704,17113.88,31.54,-1.00,-1.0,2376
2990,307990,17076,-548,660,17097.54,31.49,-1.00,-1.0,2470
2992,307992,17120,-624,600,17141.87,31.59,-1.00,-1.0,2371
2997,307997,17032,-660,572,17054.38,31.54,-1.00,-1.0,2442
3000,308000,17120,-640,556,17140.98,31.54,-1.00,-1.0,2366
3003,308003,17088,-556,680,17110.56,31.54,-1.00,-1.0,2425
3005,308005,17168,-644,820,17199.63,31.54,-1.00,-1.0,2365
3008,308008,17044,-572,704,17068.12,31.49,-1.00,-1.0,2373
3011,308011,17032,-624,616,17054.55,31.59,-1.00,-1.0,2425
3013,308013,17132,-668,604,17155.65,31.49,-1.00,-1.0,2371
3016,308016,17088,-648,700,17114.60,31.49,-1.00,-1.0,2428
3019,308019,17024,-580,672,17047.13,31.49,-1.00,-1.0,2385
3024,308024,17040,-624,624,17062.84,31.54,-1.00,-1.0,2448
3026,308026,17152,-584,668,17174.94,31.54,-1.00,-1.0,2370
3029,308029,17152,-604,660,17175.32,31.49,-1.00,-1.0,2422
3032,308032,17020,-628,588,17041.73,31.54,-1.00,-1.0,2370
3035,308035,16996,-672,732,17025.02,31.59,-1.00,-1.0,2431
3037,308037,16964,-660,620,16988.15,31.54,-1.00,-1.0,2371
3040,308040,17052,-620,636,17075.12,31.49,-1.00,-1.0,2374
3043,308043,17032,-548,552,17049.75,31.59,-1.00,-1.0,2424
3046,308046,16988,-544,720,17011.95,31.49,-1.00,-1.0,2371
3051,308051,17180,-564,720,17204.33,31.59,-1.00,-1.0,2443
3053,308053,17000,-600,564,17019.93,31.59,-1.00,-1.0,2380
3056,308056,17192,-672,588,17215.17,31.49,-1.00,-1.0,2421
3059,308059,17220,-572,628,17240.94,31.59,-1.00,-1.0,2373
3062,308062,17080,-624,704,17105.89,31.54,-1.00,-1.0,2425
3064,308064,17116,-688,612,17140.75,31.59,-1.00,-1.0,2377
3067,308067,16972,-608,652,16995.40,31.64,-1.00,-1.0,2366
3070,308070,17048,-620,660,17072.03,31.54,-1.00,-1.0,2428
3072,308072,17052,-732,560,17076.89,31.45,-1.00,-1.0,2369
3078,308078,17060,-628,832,17091.82,31.54,-1.00,-1.0,2444
3080,308080,17036,-648,660,17061.09,31.59,-1.00,-1.0,2378
3083,308083,16972,-556,616,16992.27,31.54,-1.00,-1.0,2421
3086,308086,16984,-584,788,17012.30,31.54,-1.00,-1.0,2375
3089,308089,17096,-456,580,17111.91,31.64,-1.00,-1.0,2421
3091,308091,17092,-700,660,17119.05,31.54,-1.00,-1.0,2372
3094,308094,16972,-588,740,16998.30,31.54,-1.00,-1.0,2422
3097,308097,17044,-668,628,17068.64,31.54,-1.00,-1.0,2376
3099,308099,17096,-580,624,17117.21,31.59,-1.00,-1.0,2368
3104,308104,17016,-620,652,17039.77,31.54,-1.00,-1.0,2440
3107,308107,17136,-664,704,17163.30,31.64,-1.00,-1.0,2370
3110,308110,17032,-536,648,17052.75,31.59,-1.00,-1.0,2422
3113,308113,17124,-628,868,17157.48,31.45,-1.00,-1.0,2368
3115,308115,17060,-580,556,17078.91,31.49,-1.00,-1.0,2420
3118,308118,17060,-696,672,17087.41,31.45,-1.00,-1.0,2369
3121,308121,17000,-644,684,17025.94,31.49,-1.00,-1.0,2421
3124,308124,17120,-596,780,17148.12,31.54,-1.00,-1.0,2369
3129,308129,17068,-696,716,17097.18,31.54,-1.00,-1.0,2440
3131,308131,17020,-668,740,17049.17,31.64,-1.00,-1.0,2373
3134,308134,17012,-604,664,17035.66,31.59,-1.00,-1.0,2366
3137,308137,17012,-592,736,17038.20,31.40,-1.00,-1.0,2428
3139,308139,17060,-600,644,17082.69,31.59,-1.00,-1.0,2366
3142,308142,17036,-664,544,17057.61,31.49,-1.00,-1.0,2422
3145,308145,17088,-600,764,17115.59,31.49,-1.00,-1.0,2366
3148,308148,17140,-628,644,17163.59,31.59,-1.00,-1.0,2429
3150,308150,17056,-624,620,17078.67,31.59,-1.00,-1.0,2365
3155,308155,17048,-596,720,17073.60,31.54,-1.00,-1.0,2441
3158,308158,17168,-696,756,17198.73,31.54,-1.00,-1.0,2367
3161,308161,17008,-620,688,17033.20,31.59,-1.00,-1.0,2421
3164,308164,17004,-500,628,17022.94,31.54,-1.00,-1.0,2373
3166,308166,16892,-608,744,16919.30,31.49,-1.00,-1.0,2364
3169,308169,17020,-724,644,17047.56,31.49,-1.00,-1.0,2436
3172,308172,17092,-684,688,17119.51,31.59,-1.00,-1.0,2380
3175,308175,17004,-604,792,17033.15,31.54,-1.00,-1.0,2433
3177,308177,16972,-516,820,16999.63,31.59,-1.00,-1.0,2374
3182,308182,17104,-624,808,17134.44,31.59,-1.00,-1.0,2440
3185,308185,17056,-608,608,17077.66,31.49,-1.00,-1.0,2370
3188,308188,16988,-644,640,17012.24,31.54,-1.00,-1.0,2430
3190,308190,17016,-624,632,17039.16,31.49,-1.00,-1.0,2368
3193,308193,17088,-604,592,17108.92,31.54,-1.00,-1.0,2429
3196,308196,17060,-668,604,17083.75,31.59,-1.00,-1.0,2370
3199,308199,16980,-584,676,17003.48,31.54,-1.00,-1.0,2367
3201,308201,17028,-584,564,17047.34,31.49,-1.00,-1.0,2421
3204,308204,17168,-516,872,17197.87,31.54,-1.00,-1.0,2373
3209,308209,17152,-616,740,17179.00,31.59,-1.00,-1.0,2440
3212,308212,16992,-544,804,17019.71,31.54,-1.00,-1.0,2370
3214,308214,17044,-568,680,17067.01,31.59,-1.00,-1.0,2421
3217,308217,17116,-584,600,17136.47,31.59,-1.00,-1.0,2370
3220,308220,17036,-472,684,17056.26,31.59,-1.00,-1.0,2422
3223,308223,16980,-632,596,17002.21,31.59,-1.00,-1.0,2369
3225,308225,17092,-644,784,17122.09,31.49,-1.00,-1.0,2420
3228,308228,17020,-688,672,17047.15,31.59,-1.00,-1.0,2370
3231,308231,17036,-580,780,17063.71,31.45,-1.00,-1.0,2374
3236,308236,17076,-624,780,17105.19,31.54,-1.00,-1.0,2434
3238,308238,17036,-728,648,17063.86,31.49,-1.00,-1.0,2369
3241,308241,17164,-584,592,17184.13,31.54,-1.00,-1.0,2427
3244,308244,17088,-632,616,17110.78,31.49,-1.00,-1.0,2370
3247,308247,17052,-636,752,17080.42,31.54,-1.00,-1.0,2428
3249,308249,17020,-584,688,17043.91,31.49,-1.00,-1.0,2370
3252,308252,17028,-632,596,17050.14,31.64,-1.00,-1.0,2427
3255,308255,16952,-680,708,16980.40,31.49,-1.00,-1.0,2370
3258,308258,17100,-600,716,17125.50,31.49,-1.00,-1.0,2367
3263,308263,17028,-652,700,17054.85,31.45,-1.00,-1.0,2453
3266,308266,17040,-608,668,17063.92,31.64,-1.00,-1.0,2373
3269,308269,16956,-632,608,16978.66,31.40,-1.00,-1.0,2430
3271,308271,17248,-616,764,17275.90,31.64,-1.00,-1.0,2377
3274,308274,17040,-572,696,17063.80,31.49,-1.00,-1.0,2421
3277,308277,17136,-692,652,17162.36,31.59,-1.00,-1.0,2374
3280,308280,17080,-628,624,17102.93,31.49,-1.00,-1.0,2420
3282,308282,16992,-580,572,17011.52,31.49,-1.00,-1.0,2375
3287,308287,17188,-656,712,17215.24,31.49,-1.00,-1.0,2449
3290,308290,16980,-640,780,17009.95,31.54,-1.00,-1.0,2384
3293,308293,17000,-564,664,17022.31,31.49,-1.00,-1.0,2366
3295,308295,17020,-612,524,17039.06,31.54,-1.00,-1.0,2421
3298,308298,17108,-620,652,17131.64,31.49,-1.00,-1.0,2370
3301,308301,17108,-564,648,17129.55,31.49,-1.00,-1.0,2421
3304,308304,17100,-608,760,17127.68,31.59,-1.00,-1.0,2368
3306,308306,16992,-632,712,17018.65,31.54,-1.00,-1.0,2422
3309,308309,17084,-740,748,17116.37,31.49,-1.00,-1.0,2370
3314,308314,17088,-732,588,17113.78,31.49,-1.00,-1.0,2440
3317,308317,16996,-620,704,17021.87,31.59,-1.00,-1.0,2370
3320,308320,17072,-556,580,17090.90,31.64,-1.00,-1.0,2421
3322,308322,17088,-636,648,17112.11,31.49,-1.00,-1.0,2372
3325,308325,17084,-680,720,17112.68,31.54,-1.00,-1.0,2366
3328,308328,17052,-628,712,17078.41,31.49,-1.00,-1.0,2428
3330,308330,16996,-668,792,17027.55,31.54,-1.00,-1.0,2368
3333,308333,17140,-608,556,17159.79,31.49,-1.00,-1.0,2434
3336,308336,17044,-600,820,17074.26,31.54,-1.00,-1.0,2370
3341,308341,16932,-680,432,16951.15,31.54,-1.00,-1.0,2440
3344,308344,17116,-584,628,17137.47,31.68,-1.00,-1.0,2370
3347,308347,16976,-580,676,16999.35,31.54,-1.00,-1.0,2428
3349,308349,17132,-572,688,17155.35,31.54,-1.00,-1.0,2369
3352,308352,17032,-728,620,17058.82,31.45,-1.00,-1.0,2422
3355,308355,17192,-660,620,17215.83,31.49,-1.00,-1.0,2370
3357,308357,17084,-600,580,17104.37,31.45,-1.00,-1.0,2367
3360,308360,17048,-656,680,17074.16,31.49,-1.00,-1.0,2432
3363,308363,17084,-688,712,17112.67,31.54,-1.00,-1.0,2370
3368,308368,17028,-628,720,17054.78,31.54,-1.00,-1.0,2440
3371,308371,17020,-540,604,17039.27,31.49,-1.00,-1.0,2370
3374,308374,17048,-632,720,17074.90,31.54,-1.00,-1.0,2428
3376,308376,17012,-632,720,17038.96,31.54,-1.00,-1.0,2373
3379,308379,17164,-708,676,17191.89,31.49,-1.00,-1.0,2421
3382,308382,17036,-616,712,17062.00,31.64,-1.00,-1.0,2370
3385,308385,17144,-564,688,17167.07,31.54,-1.00,-1.0,2424
3387,308387,17088,-616,708,17113.75,31.54,-1.00,-1.0,2369
3390,308390,17164,-580,672,17186.94,31.54,-1.00,-1.0,2368
3395,308395,16988,-612,764,17016.18,31.54,-1.00,-1.0,2440
3398,308398,17092,-584,704,17116.46,31.54,-1.00,-1.0,2370
3401,308401,17056,-652,764,17085.55,31.49,-1.00,-1.0,2423
3403,308403,17096,-764,668,17126.10,31.45,-1.00,-1.0,2369
3406,308406,17000,-616,764,17028.30,31.49,-1.00,-1.0,2422
3409,308409,17092,-604,488,17109.63,31.45,-1.00,-1.0,2370
3412,308412,16964,-616,652,16987.70,31.59,-1.00,-1.0,2424
3414,308414,17148,-648,684,17173.87,31.64,-1.00,-1.0,2372
3420,308420,17040,-572,652,17062.06,31.59,-1.00,-1.0,2466
3423,308423,17060,-684,640,17085.70,31.59,-1.00,-1.0,2379
3425,308425,17060,-628,632,17083.25,31.54,-1.00,-1.0,2369
3428,308428,17136,-604,604,17157.28,31.59,-1.00,-1.0,2424
3431,308431,17092,-632,728,17119.17,31.54,-1.00,-1.0,2370
3434,308434,17100,-604,768,17127.89,31.49,-1.00,-1.0,2422
3436,308436,17100,-612,752,17127.46,31.54,-1.00,-1.0,2368
3439,308439,17044,-584,720,17069.19,31.49,-1.00,-1.0,2422
3442,308442,17072,-680,776,17103.15,31.54,-1.00,-1.0,2369
3447,308447,17056,-616,740,17083.15,31.54,-1.00,-1.0,2439
3449,308449,17064,-660,616,17087.87,31.45,-1.00,-1.0,2376
3452,308452,17156,-660,760,17185.50,31.59,-1.00,-1.0,2365
3455,308455,17088,-676,500,17108.67,31.49,-1.00,-1.0,2428
3457,308457,17176,-616,644,17199.10,31.49,-1.00,-1.0,2368
3460,308460,17040,-608,780,17068.68,31.68,-1.00,-1.0,2437
3463,308463,17020,-632,700,17046.11,31.49,-1.00,-1.0,2369
3466,308466,17124,-576,544,17142.32,31.49,-1.00,-1.0,2428
3468,308468,17064,-632,740,17091.73,31.49,-1.00,-1.0,2369
3473,308473,17004,-592,552,17023.25,31.49,-1.00,-1.0,2441
3476,308476,17076,-692,696,17104.18,31.49,-1.00,-1.0,2369
3479,308479,17088,-644,736,17115.96,31.49,-1.00,-1.0,2420
3482,308482,17084,-540,816,17112.00,31.49,-1.00,-1.0,2376
3484,308484,17144,-616,760,17171.89,31.54,-1.00,-1.0,2375
3487,308487,17084,-636,604,17106.50,31.54,-1.00,-1.0,2420
3490,308490,16944,-640,616,16967.27,31.59,-1.00,-1.0,2370
3493,308493,17072,-568,716,17096.45,31.45,-1.00,-1.0,2420
3495,308495,16988,-656,556,17009.75,31.54,-1.00,-1.0,2376
3500,308500,17032,-660,712,17059.65,31.54,-1.00,-1.0,2447
3503,308503,17108,-604,696,17132.80,31.64,-1.00,-1.0,2377
3506,308506,17072,-620,712,17098.09,31.49,-1.00,-1.0,2420
3509,308509,17112,-648,764,17141.30,31.45,-1.00,-1.0,2367
3511,308511,17060,-616,724,17086.46,31.59,-1.00,-1.0,2420
3514,308514,17016,-612,748,17043.42,31.54,-1.00,-1.0,2372
3517,308517,17008,-656,740,17036.72,31.49,-1.00,-1.0,2372
3519,308519,17008,-608,784,17036.91,31.49,-1.00,-1.0,2419
3522,308522,17052,-604,764,17079.79,31.45,-1.00,-1.0,2356
3528,308528,17132,-632,676,17156.98,31.54,-1.00,-1.0,2443
3530,308530,17160,-636,636,17183.56,31.64,-1.00,-1.0,2373
3533,308533,16980,-592,696,17004.57,31.54,-1.00,-1.0,2415
3536,308536,17040,-640,724,17067.38,31.40,-1.00,-1.0,2375
3539,308539,17120,-652,564,17141.69,31.45,-1.00,-1.0,2434
3541,308541,17124,-640,600,17146.46,31.54,-1.00,-1.0,2380
3544,308544,17072,-536,668,17093.47,31.45,-1.00,-1.0,2429
3547,308547,17116,-648,672,17141.44,31.45,-1.00,-1.0,2372
3549,308549,17028,-664,624,17052.36,31.40,-1.00,-1.0,2366
3554,308554,17040,-632,652,17064.18,31.49,-1.00,-1.0,2441
3557,308557,17124,-648,660,17148.96,31.54,-1.00,-1.0,2372
3560,308560,16976,-624,480,16994.24,31.49,-1.00,-1.0,2420
3563,308563,17092,-660,812,17124.00,31.54,-1.00,-1.0,2369
3565,308565,17028,-692,680,17055.62,31.49,-1.00,-1.0,2419
3568,308568,17092,-628,660,17116.26,31.49,-1.00,-1.0,2368
3571,308571,17000,-608,752,17027.48,31.49,-1.00,-1.0,2420
3574,308574,17192,-576,704,17216.05,31.49,-1.00,-1.0,2370
3579,308579,16944,-628,660,16968.47,31.54,-1.00,-1.0,2444
3581,308581,17032,-676,580,17055.28,31.54,-1.00,-1.0,2380
3584,308584,17016,-648,820,17048.07,31.49,-1.00,-1.0,2365
3587,308587,17176,-532,628,17195.71,31.59,-1.00,-1.0,2422
3589,308589,17008,-616,548,17027.97,31.49,-1.00,-1.0,2367
3592,308592,16996,-680,700,17024.00,31.54,-1.00,-1.0,2422
3595,308595,17024,-600,632,17046.29,31.59,-1.00,-1.0,2373
3598,308598,17084,-544,752,17109.19,31.59,-1.00,-1.0,2423
3600,308600,17128,-504,752,17151.91,31.59,-1.00,-1.0,2368
3605,308605,17016,-632,860,17049.44,31.49,-1.00,-1.0,2438
3608,308608,17008,-608,792,17037.28,31.59,-1.00,-1.0,2369
3611,308611,17052,-700,740,17082.40,31.45,-1.00,-1.0,2421
3614,308614,16968,-580,760,16994.91,31.59,-1.00,-1.0,2373
3616,308616,17068,-600,648,17090.83,31.54,-1.00,-1.0,2371
3619,308619,17140,-600,740,17166.46,31.59,-1.00,-1.0,2434
3622,308622,17056,-600,588,17076.68,31.54,-1.00,-1.0,2378
3625,308625,17160,-624,584,17181.27,31.49,-1.00,-1.0,2436
3627,308627,17176,-664,580,17198.61,31.45,-1.00,-1.0,2368
3632,308632,17112,-604,696,17136.80,31.49,-1.00,-1.0,2450
3635,308635,16996,-652,600,17019.08,31.54,-1.00,-1.0,2381
3638,308638,17044,-608,616,17065.96,31.49,-1.00,-1.0,2420
3640,308640,17104,-584,756,17130.66,31.45,-1.00,-1.0,2372
3643,308643,17108,-608,632,17130.46,31.59,-1.00,-1.0,2365
3646,308646,17016,-660,636,17040.67,31.45,-1.00,-1.0,2421
3649,308649,17072,-732,676,17101.05,31.59,-1.00,-1.0,2367
3652,308652,17036,-540,560,17053.75,31.49,-1.00,-1.0,2426
3654,308654,17072,-560,696,17095.36,31.54,-1.00,-1.0,2369
3659,308659,17124,-552,504,17140.31,31.64,-1.00,-1.0,2439
3662,308662,17108,-580,664,17130.70,31.59,-1.00,-1.0,2356
3665,308665,17044,-560,620,17064.46,31.64,-1.00,-1.0,2427
3667,308667,17080,-540,756,17105.25,31.54,-1.00,-1.0,2368
3670,308670,17148,-632,672,17172.79,31.54,-1.00,-1.0,2422
3673,308673,17060,-552,596,17079.33,31.64,-1.00,-1.0,2369
3675,308675,17056,-620,756,17084.00,31.49,-1.00,-1.0,2368
3679,308679,17024,-620,820,17055.01,31.59,-1.00,-1.0,2430
3681,308681,17024,-664,608,17047.79,31.59,-1.00,-1.0,2379
3686,308686,17080,-672,668,17106.26,31.49,-1.00,-1.0,2438
3689,308689,17072,-556,764,17098.13,31.45,-1.00,-1.0,2371
3692,308692,17060,-652,644,17084.60,31.49,-1.00,-1.0,2434
3695,308695,17108,-564,656,17129.86,31.49,-1.00,-1.0,2379
3698,308698,17080,-552,580,17098.76,31.59,-1.00,-1.0,2431
3700,308700,17068,-536,724,17091.76,31.59,-1.00,-1.0,2372
3703,308703,17008,-580,628,17029.47,31.49,-1.00,-1.0,2430
3706,308706,17060,-576,768,17086.99,31.49,-1.00,-1.0,2377
3709,308709,17052,-744,656,17080.82,31.49,-1.00,-1.0,2370
3713,308713,17104,-572,656,17126.13,31.49,-1.00,-1.0,2437
3716,308716,17072,-596,688,17096.25,31.49,-1.00,-1.0,2369
3719,308719,17060,-580,764,17086.95,31.49,-1.00,-1.0,2435
3722,308722,17040,-648,664,17065.24,31.59,-1.00,-1.0,2377
3725,308725,17008,-652,732,17036.23,31.59,-1.00,-1.0,2433
3727,308727,17028,-600,768,17055.87,31.49,-1.00,-1.0,2369
3730,308730,17004,-580,648,17026.22,31.49,-1.00,-1.0,2414
3733,308733,17100,-652,484,17119.27,31.49,-1.00,-1.0,2376
3738,308738,17064,-548,768,17090.06,31.49,-1.00,-1.0,2448
3740,308740,17044,-632,732,17071.41,31.49,-1.00,-1.0,2369
3743,308743,17064,-516,668,17084.86,31.49,-1.00,-1.0,2368
3746,308746,17092,-640,776,17121.57,31.54,-1.00,-1.0,2423
3749,308749,17084,-684,692,17111.69,31.59,-1.00,-1.0,2367
3751,308751,17088,-592,772,17115.67,31.54,-1.00,-1.0,2422
3754,308754,17100,-700,548,17123.09,31.54,-1.00,-1.0,2372
3757,308757,17088,-548,668,17109.83,31.54,-1.00,-1.0,2420
3760,308760,17180,-564,688,17203.02,31.59,-1.00,-1.0,2368
3765,308765,17040,-580,624,17061.28,31.49,-1.00,-1.0,2445
3767,308767,17012,-612,556,17032.08,31.54,-1.00,-1.0,2377
3770,308770,17092,-672,660,17117.93,31.54,-1.00,-1.0,2421
3773,308773,17008,-672,664,17034.22,31.54,-1.00,-1.0,2370
3775,308775,17080,-640,680,17105.51,31.49,-1.00,-1.0,2366
3778,308778,17036,-520,728,17059.47,31.59,-1.00,-1.0,2421
3781,308781,17200,-600,672,17223.58,31.59,-1.00,-1.0,2369
3784,308784,17016,-604,444,17032.50,31.49,-1.00,-1.0,2422
3787,308787,17064,-636,692,17089.86,31.54,-1.00,-1.0,2368
3792,308792,17076,-600,672,17099.75,31.54,-1.00,-1.0,2440
3794,308794,17044,-500,652,17063.79,31.54,-1.00,-1.0,2377
3797,308797,17064,-612,536,17083.38,31.54,-1.00,-1.0,2421
3800,308800,17128,-636,664,17152.66,31.64,-1.00,-1.0,2372
3803,308803,17028,-536,644,17048.60,31.59,-1.00,-1.0,2420
3805,308805,17080,-560,600,17099.71,31.54,-1.00,-1.0,2371
3808,308808,16952,-648,688,16978.33,31.49,-1.00,-1.0,2365
3811,308811,17072,-656,688,17098.45,31.49,-1.00,-1.0,2427
3814,308814,16972,-552,688,16994.91,31.59,-1.00,-1.0,2367
3819,308819,17100,-564,784,17127.25,31.54,-1.00,-1.0,2439
3821,308821,17208,-664,608,17231.54,31.54,-1.00,-1.0,2357
3824,308824,16952,-660,660,16977.68,31.49,-1.00,-1.0,2420
3827,308827,17072,-668,592,17095.32,31.54,-1.00,-1.0,2370
3830,308830,17040,-644,712,17067.02,31.59,-1.00,-1.0,2420
3832,308832,17028,-624,808,17058.58,31.54,-1.00,-1.0,2371
3835,308835,17124,-604,836,17155.03,31.59,-1.00,-1.0,2365
3838,308838,17096,-620,616,17118.33,31.54,-1.00,-1.0,2428
3841,308841,17040,-592,644,17062.44,31.49,-1.00,-1.0,2368
3845,308845,17028,-632,596,17050.14,31.49,-1.00,-1.0,2438
3848,308848,17020,-632,608,17042.58,31.49,-1.00,-1.0,2372
3851,308851,16940,-660,684,16966.64,31.54,-1.00,-1.0,2436
3854,308854,17048,-544,744,17072.90,31.45,-1.00,-1.0,2377
3857,308857,17124,-660,764,17153.74,31.54,-1.00,-1.0,2430
3859,308859,17112,-616,552,17131.98,31.45,-1.00,-1.0,2371
3862,308862,17056,-644,672,17081.38,31.54,-1.00,-1.0,2431
3865,308865,16984,-632,732,17011.51,31.45,-1.00,-1.0,2376
3868,308868,17112,-660,688,17138.54,31.49,-1.00,-1.0,2373
3872,308872,17012,-700,644,17038.57,31.49,-1.00,-1.0,2439
3875,308875,17048,-684,808,17080.84,31.54,-1.00,-1.0,2374
3878,308878,17128,-672,724,17156.46,31.49,-1.00,-1.0,2420
3881,308881,17104,-648,644,17128.38,31.40,-1.00,-1.0,2367
3883,308883,17004,-560,624,17024.66,31.59,-1.00,-1.0,2420
3886,308886,17080,-596,640,17102.38,31.49,-1.00,-1.0,2369
3889,308889,17116,-640,672,17141.14,31.54,-1.00,-1.0,2459
3892,308892,17112,-708,620,17137.86,31.45,-1.00,-1.0,2376
3897,308897,17044,-584,780,17071.83,31.45,-1.00,-1.0,2447
3899,308899,17108,-588,736,17133.92,31.59,-1.00,-1.0,2368
3902,308902,17004,-588,608,17025.02,31.59,-1.00,-1.0,2365
3905,308905,17056,-604,624,17078.10,31.59,-1.00,-1.0,2421
3908,308908,17064,-604,804,17093.61,31.59,-1.00,-1.0,2372
3910,308910,17024,-600,576,17044.30,31.49,-1.00,-1.0,2421
3913,308913,17068,-640,604,17090.67,31.59,-1.00,-1.0,2369
3916,308916,17116,-644,564,17137.39,31.49,-1.00,-1.0,2421
3919,308919,16972,-604,772,17000.28,31.45,-1.00,-1.0,2374
3924,308924,17016,-556,644,17037.26,31.54,-1.00,-1.0,2448
3926,308926,17148,-692,652,17174.34,31.54,-1.00,-1.0,2368
3929,308929,17116,-676,740,17145.32,31.59,-1.00,-1.0,2428
3932,308932,17020,-556,648,17041.40,31.54,-1.00,-1.0,2376
3935,308935,17164,-664,704,17191.26,31.59,-1.00,-1.0,2367
3937,308937,17020,-556,616,17040.22,31.59,-1.00,-1.0,2421
3940,308940,17032,-620,752,17059.86,31.59,-1.00,-1.0,2369
3943,308943,17156,-600,740,17182.43,31.64,-1.00,-1.0,2422
3946,308946,17088,-624,580,17109.22,31.54,-1.00,-1.0,2376
3968,308968,17048,-608,724,17074.20,31.59,-1.00,-1.0,2440
3971,308971,16972,-692,736,17002.04,31.49,-1.00,-1.0,2371
3974,308974,17016,-592,576,17036.04,31.54,-1.00,-1.0,2420
3977,308977,17064,-608,612,17085.79,31.59,-1.00,-1.0,2368
3979,308979,17144,-564,728,17168.72,31.64,-1.00,-1.0,2407
3982,308982,17128,-640,680,17153.44,31.49,-1.00,-1.0,2369
3985,308985,17096,-652,752,17124.95,31.54,-1.00,-1.0,2377
3988,308988,16984,-596,684,17008.21,31.59,-1.00,-1.0,2435
3990,308990,17076,-664,704,17103.40,31.49,-1.00,-1.0,2371
4000,309000,17004,-704,620,17029.86,31.54,-1.00,-1.0,2440
4002,309002,17072,-496,748,17095.58,31.49,-1.00,-1.0,2354
4005,309005,16996,-668,656,17021.77,31.54,-1.00,-1.0,2421
4008,309008,16976,-596,652,16998.97,31.40,-1.00,-1.0,2372
4011,309011,17088,-612,672,17112.16,31.54,-1.00,-1.0,2421
4013,309013,17020,-740,736,17051.97,31.59,-1.00,-1.0,2370
4016,309016,17096,-752,624,17123.90,31.64,-1.00,-1.0,2420
4019,309019,17032,-588,724,17057.52,31.59,-1.00,-1.0,2372
4021,309021,17068,-548,644,17088.93,31.54,-1.00,-1.0,2367
4026,309026,17164,-660,784,17194.57,31.54,-1.00,-1.0,2440
4029,309029,17020,-700,700,17048.77,31.54,-1.00,-1.0,2369
4032,309032,17044,-712,644,17071.02,31.54,-1.00,-1.0,2420
4035,309035,17172,-552,620,17192.05,31.54,-1.00,-1.0,2368
4037,309037,17076,-628,736,17103.39,31.54,-1.00,-1.0,2408
4040,309040,17028,-752,616,17055.72,31.45,-1.00,-1.0,2370
4043,309043,17096,-648,760,17125.15,31.54,-1.00,-1.0,2424
4046,309046,17072,-604,632,17094.37,31.45,-1.00,-1.0,2368
4048,309048,17088,-580,656,17110.42,31.59,-1.00,-1.0,2368
4053,309053,17064,-616,784,17093.10,31.49,-1.00,-1.0,2442
4056,309056,17108,-688,524,17129.85,31.45,-1.00,-1.0,2368
4059,309059,17100,-600,744,17126.69,31.49,-1.00,-1.0,2428
4061,309061,17104,-612,608,17125.74,31.54,-1.00,-1.0,2368
4064,309064,17000,-648,660,17025.14,31.59,-1.00,-1.0,2423
4067,309067,16984,-676,768,17014.79,31.54,-1.00,-1.0,2369
4070,309070,17032,-608,588,17052.99,31.59,-1.00,-1.0,2431
4072,309072,17144,-628,672,17168.65,31.54,-1.00,-1.0,2355
4077,309077,17068,-540,772,17093.98,31.49,-1.00,-1.0,2440
4080,309080,17052,-580,660,17074.62,31.49,-1.00,-1.0,2367
4083,309083,17008,-556,468,17023.52,31.59,-1.00,-1.0,2369
4085,309085,16920,-668,604,16943.95,31.54,-1.00,-1.0,2423
4088,309088,17088,-504,772,17112.85,31.54,-1.00,-1.0,2371
4091,309091,17080,-668,580,17102.89,31.45,-1.00,-1.0,2420
4094,309094,17136,-556,636,17156.81,31.45,-1.00,-1.0,2369
4096,309096,17044,-640,676,17069.40,31.54,-1.00,-1.0,2421
4099,309099,17176,-648,696,17202.30,31.54,-1.00,-1.0,2356
4104,309104,17056,-564,732,17081.01,31.49,-1.00,-1.0,2441
4106,309106,17016,-640,692,17042.09,31.49,-1.00,-1.0,2354
4109,309109,17064,-680,632,17089.23,31.49,-1.00,-1.0,2424
4112,309112,17020,-700,692,17048.44,31.59,-1.00,-1.0,2369
4115,309115,17092,-568,652,17113.86,31.54,-1.00,-1.0,2367
4117,309117,17068,-576,616,17088.82,31.45,-1.00,-1.0,2422
4120,309120,17228,-600,768,17255.54,31.54,-1.00,-1.0,2385
4123,309123,17168,-612,696,17193.00,31.45,-1.00,-1.0,2424
4126,309126,17032,-664,720,17060.14,31.45,-1.00,-1.0,2374
4131,309131,16992,-620,652,17015.80,31.54,-1.00,-1.0,2449
4133,309133,17088,-656,732,17116.25,31.49,-1.00,-1.0,2371
4136,309136,17080,-616,484,17097.96,31.45,-1.00,-1.0,2427
4139,309139,16976,-528,592,16994.52,31.54,-1.00,-1.0,2373
4142,309142,17088,-688,844,17122.66,31.54,-1.00,-1.0,2431
4144,309144,17052,-572,556,17070.65,31.49,-1.00,-1.0,2378
4147,309147,17056,-612,576,17076.69,31.59,-1.00,-1.0,2365
4150,309150,17060,-652,612,17083.42,31.59,-1.00,-1.0,2427
4152,309152,17084,-672,608,17108.02,31.59,-1.00,-1.0,2365
4157,309157,17148,-692,684,17175.58,31.64,-1.00,-1.0,2442
4160,309160,17096,-508,632,17115.22,31.64,-1.00,-1.0,2365
4163,309163,16992,-500,648,17011.70,31.49,-1.00,-1.0,2420
4166,309166,17028,-616,704,17053.68,31.54,-1.00,-1.0,2368
4168,309168,17088,-664,840,17121.51,31.49,-1.00,-1.0,2420
4171,309171,17128,-664,856,17162.23,31.64,-1.00,-1.0,2369
4174,309174,17104,-704,704,17132.95,31.68,-1.00,-1.0,2420
4177,309177,17156,-628,564,17176.75,31.54,-1.00,-1.0,2371
4179,309179,17128,-636,796,17158.28,31.49,-1.00,-1.0,2366
4184,309184,17016,-672,760,17046.21,31.49,-1.00,-1.0,2440
4187,309187,16992,-608,588,17013.04,31.49,-1.00,-1.0,2355
4190,309190,17084,-624,732,17111.06,31.59,-1.00,-1.0,2427
4192,309192,17052,-516,648,17072.11,31.49,-1.00,-1.0,2368
4195,309195,17096,-676,652,17121.78,31.59,-1.00,-1.0,2421
4198,309198,17004,-588,684,17027.91,31.49,-1.00,-1.0,2356
4201,309201,17068,-592,612,17089.23,31.49,-1.00,-1.0,2426
4203,309203,17004,-632,740,17031.82,31.59,-1.00,-1.0,2367
4208,309208,17068,-576,656,17090.31,31.59,-1.00,-1.0,2442
4211,309211,17052,-632,820,17083.40,31.54,-1.00,-1.0,2371
4214,309214,17016,-524,724,17039.46,31.49,-1.00,-1.0,2377
4216,309216,17044,-624,616,17066.54,31.54,-1.00,-1.0,2421
4219,309219,16944,-588,740,16970.34,31.59,-1.00,-1.0,2369
4222,309222,17008,-740,668,17037.19,31.54,-1.00,-1.0,2420
4225,309225,17080,-608,788,17108.97,31.59,-1.00,-1.0,2377
4227,309227,17024,-580,732,17049.60,31.54,-1.00,-1.0,2420
4230,309230,17056,-624,684,17081.11,31.49,-1.00,-1.0,2373
4235,309235,17000,-532,764,17025.47,31.49,-1.00,-1.0,2439
4238,309238,17032,-700,772,17063.85,31.49,-1.00,-1.0,2369
4240,309240,17076,-592,620,17097.50,31.54,-1.00,-1.0,2366
4243,309243,17088,-668,760,17117.93,31.49,-1.00,-1.0,2427
4246,309246,17132,-652,652,17156.79,31.54,-1.00,-1.0,2376
4249,309249,17000,-568,624,17020.93,31.49,-1.00,-1.0,2420
4251,309251,17148,-584,720,17173.04,31.45,-1.00,-1.0,2371
4254,309254,17060,-604,760,17087.60,31.59,-1.00,-1.0,2428
4257,309257,17068,-564,532,17085.60,31.49,-1.00,-1.0,2387
4262,309262,17028,-692,752,17058.64,31.59,-1.00,-1.0,2454
4265,309265,17096,-648,712,17123.09,31.54,-1.00,-1.0,2376
4268,309268,17104,-592,684,17127.90,31.49,-1.00,-1.0,2433
4270,309270,17132,-668,684,17158.66,31.40,-1.00,-1.0,2376
4273,309273,17060,-592,844,17091.12,31.59,-1.00,-1.0,2364
4276,309276,17056,-632,552,17076.63,31.45,-1.00,-1.0,2428
4278,309278,17152,-524,580,17169.80,31.49,-1.00,-1.0,2367
4281,309281,17172,-596,728,17197.76,31.54,-1.00,-1.0,2422
4284,309284,16984,-716,572,17008.71,31.49,-1.00,-1.0,2369
4292,309292,17148,-580,816,17177.20,31.59,-1.00,-1.0,2440
4295,309295,16980,-616,720,17006.42,31.59,-1.00,-1.0,2372
4297,309297,17040,-548,708,17063.50,31.45,-1.00,-1.0,2419
4300,309300,16860,-568,708,16884.42,31.59,-1.00,-1.0,2370
4303,309303,17080,-704,668,17107.55,31.64,-1.00,-1.0,2421
4306,309306,17096,-700,748,17126.67,31.49,-1.00,-1.0,2368
4308,309308,16980,-636,752,17008.54,31.64,-1.00,-1.0,2366
4311,309311,17000,-608,628,17022.46,31.54,-1.00,-1.0,2420
4314,309314,17112,-584,668,17134.99,31.54,-1.00,-1.0,2377
4318,309318,17032,-596,624,17053.84,31.45,-1.00,-1.0,2440
4321,309321,17080,-580,648,17102.12,31.49,-1.00,-1.0,2368
4324,309324,17084,-624,728,17110.89,31.49,-1.00,-1.0,2475
4327,309327,17052,-720,556,17076.25,31.59,-1.00,-1.0,2379
4330,309330,17040,-596,640,17062.43,31.59,-1.00,-1.0,2425
4332,309332,17060,-592,596,17080.67,31.49,-1.00,-1.0,2376
4335,309335,17108,-580,668,17130.86,31.59,-1.00,-1.0,2422
4338,309338,17080,-604,752,17107.21,31.49,-1.00,-1.0,2370
4340,309340,17044,-620,556,17064.33,31.54,-1.00,-1.0,2368
4345,309345,17104,-648,756,17132.96,31.45,-1.00,-1.0,2432
4348,309348,17016,-580,784,17043.92,31.49,-1.00,-1.0,2368
4351,309351,17156,-644,660,17180.76,31.54,-1.00,-1.0,2432
4354,309354,17028,-632,684,17053.45,31.54,-1.00,-1.0,2369
4356,309356,17096,-572,676,17118.92,31.64,-1.00,-1.0,2422
4359,309359,16992,-716,644,17019.27,31.59,-1.00,-1.0,2370
4362,309362,17032,-672,620,17056.52,31.64,-1.00,-1.0,2422
4365,309365,17128,-656,612,17151.48,31.45,-1.00,-1.0,2368
4370,309370,17048,-664,684,17074.63,31.64,-1.00,-1.0,2434
4372,309372,17140,-708,780,17172.34,31.49,-1.00,-1.0,2376
4375,309375,17004,-592,848,17035.42,31.54,-1.00,-1.0,2366
4378,309378,17112,-492,764,17136.11,31.49,-1.00,-1.0,2420
4380,309380,17092,-604,624,17114.05,31.54,-1.00,-1.0,2369
4383,309383,17084,-600,628,17106.06,31.40,-1.00,-1.0,2421
4386,309386,17072,-572,712,17096.41,31.54,-1.00,-1.0,2370
4389,309389,17048,-728,700,17077.89,31.49,-1.00,-1.0,2424
4391,309391,17092,-588,632,17113.79,31.54,-1.00,-1.0,2369
4396,309396,17156,-508,724,17178.78,31.54,-1.00,-1.0,2431
4399,309399,17052,-600,780,17080.37,31.54,-1.00,-1.0,2369
4402,309402,16996,-620,648,17019.64,31.54,-1.00,-1.0,2431
4405,309405,17084,-612,592,17105.21,31.54,-1.00,-1.0,2368
4407,309407,16996,-616,748,17023.60,31.59,-1.00,-1.0,2371
4410,309410,17008,-720,724,17038.62,31.49,-1.00,-1.0,2435
4413,309413,17136,-556,620,17156.22,31.49,-1.00,-1.0,2378
4416,309416,17044,-628,640,17067.57,31.54,-1.00,-1.0,2434
4418,309418,17060,-664,708,17087.59,31.49,-1.00,-1.0,2372
4423,309423,17132,-568,712,17156.19,31.59,-1.00,-1.0,2434
4426,309426,17052,-680,800,17084.29,31.49,-1.00,-1.0,2365
4429,309429,17112,-624,568,17132.79,31.59,-1.00,-1.0,2438
4431,309431,17004,-604,592,17025.02,31.49,-1.00,-1.0,2364
4434,309434,17060,-644,728,17087.67,31.49,-1.00,-1.0,2368
4437,309437,16988,-732,684,17017.52,31.54,-1.00,-1.0,2424
4440,309440,17108,-644,592,17130.35,31.54,-1.00,-1.0,2366
4442,309442,17176,-612,612,17197.79,31.54,-1.00,-1.0,2409
4445,309445,17028,-684,800,17060.50,31.49,-1.00,-1.0,2385
4450,309450,17112,-664,576,17134.56,31.59,-1.00,-1.0,2431
4453,309453,17216,-600,824,17246.15,31.59,-1.00,-1.0,2378
4456,309456,17052,-592,696,17076.46,31.45,-1.00,-1.0,2435
4458,309458,17092,-644,644,17116.25,31.49,-1.00,-1.0,2373
4461,309461,17120,-556,660,17141.74,31.49,-1.00,-1.0,2431
4464,309464,17072,-652,636,17096.28,31.49,-1.00,-1.0,2376
4466,309466,17088,-660,604,17111.40,31.54,-1.00,-1.0,2370
4469,309469,17008,-644,564,17029.53,31.59,-1.00,-1.0,2421
4472,309472,17104,-632,672,17128.86,31.54,-1.00,-1.0,2371
4477,309477,16996,-568,696,17019.72,31.54,-1.00,-1.0,2434
4479,309479,17080,-612,720,17106.12,31.54,-1.00,-1.0,2376
4482,309482,17096,-592,484,17113.09,31.45,-1.00,-1.0,2439
4485,309485,17068,-636,632,17091.54,31.45,-1.00,-1.0,2377
4488,309488,17064,-584,684,17087.69,31.64,-1.00,-1.0,2421
4491,309491,17080,-676,648,17105.65,31.64,-1.00,-1.0,2367
4493,309493,17096,-564,784,17123.26,31.54,-1.00,-1.0,2410
4496,309496,17124,-568,796,17151.90,31.54,-1.00,-1.0,2385
4499,309499,17068,-748,528,17092.54,31.59,-1.00,-1.0,2371
4503,309503,17232,-628,644,17255.46,31.59,-1.00,-1.0,2431
4506,309506,17072,-660,704,17099.25,31.59,-1.00,-1.0,2368
4509,309509,17028,-600,664,17051.50,31.40,-1.00,-1.0,2430
4512,309512,17028,-520,792,17054.34,31.59,-1.00,-1.0,2381
4514,309514,17008,-628,740,17035.67,31.64,-1.00,-1.0,2421
4517,309517,17108,-676,692,17135.33,31.59,-1.00,-1.0,2372
4520,309520,17052,-700,696,17080.55,31.54,-1.00,-1.0,2429
4523,309523,17104,-668,592,17127.27,31.59,-1.00,-1.0,2378
4527,309527,17104,-612,756,17131.63,31.59,-1.00,-1.0,2434
4530,309530,17100,-656,624,17123.95,31.54,-1.00,-1.0,2371
4533,309533,17112,-592,720,17137.37,31.59,-1.00,-1.0,2374
4535,309535,17088,-656,860,17122.20,31.64,-1.00,-1.0,2430
4538,309538,17000,-692,596,17024.51,31.54,-1.00,-1.0,2377
4541,309541,16952,-536,748,16976.96,31.64,-1.00,-1.0,2436
4544,309544,17072,-676,652,17097.81,31.54,-1.00,-1.0,2380
4547,309547,17100,-664,600,17123.40,31.54,-1.00,-1.0,2433
4549,309549,17044,-736,812,17079.20,31.45,-1.00,-1.0,2372
4554,309554,16996,-632,684,17021.49,31.54,-1.00,-1.0,2434
4557,309557,17012,-580,580,17031.76,31.59,-1.00,-1.0,2368
4560,309560,17136,-564,672,17158.44,31.64,-1.00,-1.0,2437
4562,309562,17080,-636,788,17109.99,31.54,-1.00,-1.0,2368
4565,309565,17112,-636,700,17138.12,31.59,-1.00,-1.0,2368
4568,309568,16964,-596,520,16982.43,31.49,-1.00,-1.0,2421
4571,309571,16940,-612,564,16960.43,31.49,-1.00,-1.0,2368
4573,309573,16968,-656,608,16991.56,31.59,-1.00,-1.0,2408
4576,309576,16960,-696,688,16988.21,31.59,-1.00,-1.0,2384
4581,309581,16988,-624,704,17014.03,31.54,-1.00,-1.0,2432
4584,309584,17088,-660,684,17114.41,31.54,-1.00,-1.0,2372
4587,309587,17048,-736,632,17075.58,31.64,-1.00,-1.0,2436
4589,309589,17104,-676,684,17131.01,31.45,-1.00,-1.0,2371
4592,309592,17044,-600,768,17071.84,31.49,-1.00,-1.0,2430
4595,309595,17024,-632,812,17055.07,31.64,-1.00,-1.0,2377
4597,309597,17184,-648,748,17212.47,31.49,-1.00,-1.0,2369
4600,309600,17124,-580,752,17150.31,31.54,-1.00,-1.0,2421
4603,309603,17124,-596,696,17148.50,31.49,-1.00,-1.0,2370
4608,309608,17020,-556,756,17045.85,31.59,-1.00,-1.0,2419
4610,309610,16996,-576,580,17015.64,31.54,-1.00,-1.0,2372
4613,309613,17080,-476,652,17099.07,31.59,-1.00,-1.0,2439
4616,309616,16980,-616,584,17001.20,31.49,-1.00,-1.0,2378
4619,309619,17004,-648,600,17026.92,31.49,-1.00,-1.0,2421
4622,309622,17176,-616,752,17203.49,31.49,-1.00,-1.0,2371
4624,309624,17080,-600,808,17109.62,31.45,-1.00,-1.0,2367
4627,309627,17072,-664,548,17093.69,31.59,-1.00,-1.0,2469
4630,309630,17036,-648,680,17061.88,31.59,-1.00,-1.0,2357
4635,309635,17012,-560,700,17035.60,31.59,-1.00,-1.0,2449
4638,309638,17064,-580,712,17088.69,31.59,-1.00,-1.0,2368
4640,309640,17016,-704,640,17042.58,31.54,-1.00,-1.0,2421
4643,309643,17068,-572,724,17092.92,31.59,-1.00,-1.0,2369
4646,309646,16956,-708,592,16981.10,31.64,-1.00,-1.0,2424
4649,309649,16976,-664,692,17003.07,31.49,-1.00,-1.0,2372
4651,309651,17068,-584,752,17094.54,31.54,-1.00,-1.0,2421
4654,309654,17132,-672,692,17159.13,31.54,-1.00,-1.0,2369
4657,309657,17044,-632,808,17074.84,31.49,-1.00,-1.0,2376
4662,309662,17104,-488,732,17126.61,31.54,-1.00,-1.0,2442
4664,309664,17040,-576,608,17060.57,31.54,-1.00,-1.0,2354
4667,309667,17036,-700,624,17061.79,31.59,-1.00,-1.0,2421
4670,309670,17024,-688,728,17053.44,31.54,-1.00,-1.0,2371
4673,309673,16956,-564,632,16977.14,31.59,-1.00,-1.0,2431
4675,309675,17068,-556,652,17089.50,31.54,-1.00,-1.0,2355
4678,309678,17008,-572,728,17033.18,31.59,-1.00,-1.0,2421
4681,309681,17152,-712,672,17179.92,31.54,-1.00,-1.0,2369
4686,309686,17080,-660,624,17104.13,31.45,-1.00,-1.0,2439
4689,309689,17104,-600,624,17125.89,31.54,-1.00,-1.0,2368
4691,309691,16976,-620,656,16999.98,31.59,-1.00,-1.0,2368
4694,309694,17100,-592,616,17121.33,31.59,-1.00,-1.0,2434
4697,309697,17012,-708,744,17042.97,31.49,-1.00,-1.0,2376
4700,309700,17032,-620,716,17058.31,31.59,-1.00,-1.0,2432
4702,309702,17104,-720,652,17131.56,31.49,-1.00,-1.0,2371
4705,309705,17052,-544,684,17074.38,31.54,-1.00,-1.0,2430
4708,309708,17088,-668,616,17112.14,31.59,-1.00,-1.0,2376
4713,309713,17112,-668,580,17134.85,31.45,-1.00,-1.0,2441
4715,309715,17048,-644,868,17082.23,31.54,-1.00,-1.0,2376
4718,309718,17060,-592,612,17081.24,31.54,-1.00,-1.0,2421
4721,309721,17076,-620,656,17099.84,31.49,-1.00,-1.0,2373
4723,309723,16948,-584,800,16976.92,31.49,-1.00,-1.0,2366
4726,309726,17116,-732,616,17142.72,31.49,-1.00,-1.0,2422
4729,309729,17140,-696,632,17165.76,31.49,-1.00,-1.0,2369
4732,309732,17112,-676,720,17140.48,31.49,-1.00,-1.0,2427
4734,309734,17004,-604,728,17030.29,31.59,-1.00,-1.0,2369
4739,309739,17080,-636,744,17108.02,31.54,-1.00,-1.0,2440
4742,309742,17028,-696,616,17053.35,31.49,-1.00,-1.0,2372
4745,309745,17036,-604,696,17060.91,31.54,-1.00,-1.0,2420
4747,309747,16996,-568,584,17015.51,31.54,-1.00,-1.0,2371
4750,309750,17180,-632,700,17205.87,31.54,-1.00,-1.0,2407
4753,309753,17208,-568,644,17229.41,31.54,-1.00,-1.0,2373
4755,309755,17056,-656,684,17082.31,31.59,-1.00,-1.0,2367
4758,309758,17028,-528,692,17050.23,31.59,-1.00,-1.0,2422
4761,309761,17020,-716,720,17050.26,31.59,-1.00,-1.0,2370
4766,309766,17100,-600,764,17127.57,31.59,-1.00,-1.0,2440
4769,309769,17060,-656,720,17087.78,31.54,-1.00,-1.0,2368
4771,309771,17044,-612,696,17069.18,31.49,-1.00,-1.0,2420
4774,309774,16996,-536,512,17012.16,31.49,-1.00,-1.0,2369
4777,309777,17060,-588,632,17081.83,31.59,-1.00,-1.0,2421
4780,309780,17124,-628,740,17151.48,31.59,-1.00,-1.0,2368
4782,309782,17148,-564,612,17168.18,31.49,-1.00,-1.0,2420
4785,309785,17084,-592,656,17106.84,31.59,-1.00,-1.0,2369
4788,309788,17084,-604,732,17110.34,31.49,-1.00,-1.0,2372
4793,309793,16992,-596,592,17012.75,31.59,-1.00,-1.0,2448
4795,309795,17036,-532,776,17061.96,31.49,-1.00,-1.0,2370
4798,309798,17052,-600,504,17069.99,31.54,-1.00,-1.0,2436
4801,309801,17132,-580,720,17156.93,31.59,-1.00,-1.0,2369
4804,309804,17064,-644,820,17095.82,31.45,-1.00,-1.0,2430
4806,309806,17008,-584,760,17034.98,31.49,-1.00,-1.0,2369
4809,309809,17088,-624,696,17113.55,31.64,-1.00,-1.0,2431
4812,309812,17088,-652,508,17107.98,31.54,-1.00,-1.0,2377
4815,309815,17048,-640,720,17075.20,31.54,-1.00,-1.0,2366
4820,309820,17084,-652,612,17107.39,31.54,-1.00,-1.0,2442
4822,309822,17100,-632,728,17127.15,31.54,-1.00,-1.0,2375
4825,309825,17108,-636,728,17135.29,31.49,-1.00,-1.0,2420
4828,309828,17112,-632,792,17141.97,31.54,-1.00,-1.0,2374
4831,309831,17056,-644,644,17080.30,31.59,-1.00,-1.0,2420
4833,309833,17028,-596,652,17050.90,31.45,-1.00,-1.0,2361
4836,309836,17052,-660,728,17080.29,31.59,-1.00,-1.0,2420
4839,309839,17060,-632,692,17085.72,31.54,-1.00,-1.0,2373
4844,309844,17072,-604,616,17093.78,31.54,-1.00,-1.0,2446
4847,309847,17060,-600,612,17081.52,31.45,-1.00,-1.0,2374
4849,309849,17036,-640,676,17061.41,31.49,-1.00,-1.0,2364
4852,309852,17048,-564,564,17066.65,31.54,-1.00,-1.0,2421
4855,309855,17004,-588,672,17027.43,31.49,-1.00,-1.0,2367
4857,309857,17080,-616,868,17113.13,31.64,-1.00,-1.0,2422
4860,309860,17008,-644,752,17036.79,31.49,-1.00,-1.0,2368
4863,309863,16948,-600,556,16967.73,31.54,-1.00,-1.0,2421
4866,309866,17020,-568,536,17037.91,31.49,-1.00,-1.0,2368
4871,309871,17012,-576,636,17033.63,31.49,-1.00,-1.0,2439
4873,309873,17076,-552,504,17092.35,31.59,-1.00,-1.0,2370
4876,309876,17004,-688,664,17030.86,31.49,-1.00,-1.0,2420
4879,309879,16976,-544,660,16997.53,31.59,-1.00,-1.0,2370
4881,309881,17040,-652,780,17070.30,31.54,-1.00,-1.0,2370
4884,309884,17116,-648,716,17143.22,31.54,-1.00,-1.0,2434
4887,309887,17056,-656,652,17081.06,31.54,-1.00,-1.0,2369
4890,309890,17192,-612,648,17215.09,31.64,-1.00,-1.0,2428
4892,309892,17136,-604,696,17160.76,31.54,-1.00,-1.0,2370
4897,309897,17060,-604,792,17089.05,31.54,-1.00,-1.0,2426
4900,309900,17084,-704,644,17110.62,31.59,-1.00,-1.0,2367
4903,309903,17032,-628,596,17053.99,31.54,-1.00,-1.0,2421
4906,309906,17028,-592,676,17051.69,31.49,-1.00,-1.0,2367
4908,309908,17040,-612,572,17060.58,31.54,-1.00,-1.0,2420
4911,309911,17068,-636,628,17091.39,31.49,-1.00,-1.0,2355
4914,309914,17120,-688,784,17151.75,31.64,-1.00,-1.0,2373
4917,309917,17164,-640,660,17188.60,31.49,-1.00,-1.0,2432
4919,309919,17084,-544,548,17101.44,31.64,-1.00,-1.0,2374
4924,309924,17088,-592,728,17113.74,31.49,-1.00,-1.0,2447
4927,309927,17120,-644,700,17146.40,31.59,-1.00,-1.0,2368
4930,309930,17028,-656,696,17054.84,31.59,-1.00,-1.0,2420
4932,309932,17076,-528,768,17101.41,31.49,-1.00,-1.0,2375
4935,309935,17152,-520,720,17174.98,31.59,-1.00,-1.0,2420
4938,309938,17140,-612,616,17161.98,31.59,-1.00,-1.0,2356
4941,309941,16980,-640,608,17002.93,31.68,-1.00,-1.0,2421
4943,309943,17020,-628,636,17043.45,31.59,-1.00,-1.0,2376
4946,309946,17044,-640,804,17074.95,31.54,-1.00,-1.0,2365
4951,309951,17168,-632,688,17193.40,31.59,-1.00,-1.0,2444
4953,309953,16964,-740,608,16991.01,31.59,-1.00,-1.0,2376
4956,309956,17008,-624,704,17034.00,31.54,-1.00,-1.0,2421
4959,309959,16988,-668,764,17018.29,31.49,-1.00,-1.0,2375
4962,309962,17048,-588,412,17063.11,31.59,-1.00,-1.0,2421
4964,309964,17084,-724,652,17111.76,31.59,-1.00,-1.0,2371
4967,309967,17120,-732,624,17147.00,31.54,-1.00,-1.0,2421
4970,309970,16972,-688,648,16998.29,31.49,-1.00,-1.0,2375
4975,309975,17092,-700,784,17124.29,31.49,-1.00,-1.0,2427
4977,309977,17012,-644,668,17037.29,31.59,-1.00,-1.0,2371
4980,309980,17052,-704,752,17083.09,31.45,-1.00,-1.0,2365
4983,309983,17060,-564,728,17084.84,31.54,-1.00,-1.0,2421
4986,309986,17100,-648,608,17123.07,31.59,-1.00,-1.0,2368
4988,309988,17068,-680,660,17094.29,31.45,-1.00,-1.0,2420
4991,309991,17072,-624,652,17095.84,31.54,-1.00,-1.0,2370
4994,309994,17096,-664,616,17119.98,31.54,-1.00,-1.0,2420
4997,309997,16956,-568,808,16984.74,31.49,-1.00,-1.0,2367
5002,310002,17108,-640,664,17132.84,31.59,-1.00,-1.0,2444
5004,310004,17092,-676,696,17119.52,31.49,-1.00,-1.0,2375
5007,310007,17076,-752,720,17107.71,31.64,-1.00,-1.0,2365
5010,310010,17088,-636,716,17114.81,31.59,-1.00,-1.0,2431
5012,310012,17012,-640,592,17034.32,31.64,-1.00,-1.0,2355
5015,310015,17032,-620,544,17051.96,31.59,-1.00,-1.0,2424
5018,310018,17060,-572,792,17087.95,31.54,-1.00,-1.0,2370
5021,310021,17028,-696,672,17055.46,31.49,-1.00,-1.0,2408
5023,310023,17012,-680,760,17042.54,31.54,-1.00,-1.0,2368
5028,310028,17092,-612,556,17111.99,31.64,-1.00,-1.0,2439
5031,310031,17000,-636,784,17029.95,31.54,-1.00,-1.0,2368
5034,310034,17060,-600,552,17079.47,31.54,-1.00,-1.0,2420
5037,310037,17036,-628,624,17058.99,31.49,-1.00,-1.0,2367
5039,310039,16964,-608,840,16995.66,31.59,-1.00,-1.0,2367
5042,310042,17084,-660,764,17113.81,31.59,-1.00,-1.0,2429
5045,310045,17092,-596,704,17116.87,31.49,-1.00,-1.0,2371
5047,310047,17176,-588,684,17199.67,31.49,-1.00,-1.0,2420
5050,310050,17104,-612,652,17127.36,31.49,-1.00,-1.0,2369
5055,310055,17044,-604,704,17069.22,31.49,-1.00,-1.0,2440
5058,310058,17012,-592,844,17043.21,31.54,-1.00,-1.0,2370
5061,310061,16992,-676,600,17016.02,31.49,-1.00,-1.0,2427
5063,310063,17060,-720,592,17085.45,31.54,-1.00,-1.0,2368
5066,310066,17044,-692,676,17071.43,31.59,-1.00,-1.0,2422
5069,310069,17032,-564,548,17050.14,31.54,-1.00,-1.0,2370
5071,310071,17128,-620,656,17151.77,31.59,-1.00,-1.0,2369
5074,310074,17000,-740,628,17027.68,31.54,-1.00,-1.0,2431
5077,310077,17096,-544,544,17113.30,31.54,-1.00,-1.0,2384
5082,310082,17168,-692,648,17194.16,31.49,-1.00,-1.0,2454
5085,310085,17148,-628,736,17175.27,31.59,-1.00,-1.0,2377
5088,310088,17080,-652,800,17111.15,31.54,-1.00,-1.0,2436
5090,310090,17060,-592,740,17086.30,31.64,-1.00,-1.0,2377
5093,310093,17044,-576,628,17065.29,31.54,-1.00,-1.0,2420
5096,310096,17012,-632,832,17044.05,31.54,-1.00,-1.0,2373
5099,310099,16980,-556,660,17001.92,31.54,-1.00,-1.0,2428
5101,310101,17156,-672,704,17183.58,31.54,-1.00,-1.0,2376
5104,310104,17020,-668,764,17050.23,31.68,-1.00,-1.0,2365
5109,310109,17048,-480,660,17067.52,31.49,-1.00,-1.0,2439
5112,310112,17088,-640,628,17111.51,31.54,-1.00,-1.0,2368
5114,310114,17076,-592,704,17100.76,31.49,-1.00,-1.0,2420
5117,310117,17056,-572,592,17075.85,31.54,-1.00,-1.0,2370
5120,310120,17064,-484,836,17091.32,31.49,-1.00,-1.0,2420
5123,310123,17064,-604,756,17091.41,31.54,-1.00,-1.0,2368
5125,310125,17132,-656,576,17154.23,31.59,-1.00,-1.0,2421
5128,310128,17088,-668,748,17117.40,31.54,-1.00,-1.0,2370
5135,310135,17044,-568,632,17065.17,31.59,-1.00,-1.0,2450
5138,310138,17036,-612,564,17056.32,31.49,-1.00,-1.0,2369
5140,310140,17084,-496,624,17102.59,31.64,-1.00,-1.0,2368
5143,310143,17060,-668,720,17088.25,31.54,-1.00,-1.0,2429
5146,310146,17088,-652,740,17116.44,31.54,-1.00,-1.0,2372
5149,310149,17048,-584,556,17067.06,31.54,-1.00,-1.0,2433
5151,310151,16936,-668,652,16961.71,31.54,-1.00,-1.0,2375
5154,310154,16992,-628,732,17019.35,31.49,-1.00,-1.0,2421
5157,310157,17064,-660,596,17087.16,31.54,-1.00,-1.0,2372
5161,310161,17144,-680,560,17166.62,31.59,-1.00,-1.0,2440
5164,310164,16964,-604,596,16985.21,31.54,-1.00,-1.0,2370
5167,310167,17048,-724,652,17075.82,31.54,-1.00,-1.0,2436
5170,310170,16956,-644,616,16979.40,31.64,-1.00,-1.0,2377
5172,310172,17144,-672,596,17167.51,31.49,-1.00,-1.0,2368
5175,310175,17028,-700,616,17053.51,31.49,-1.00,-1.0,2421
5178,310178,17128,-668,700,17155.31,31.49,-1.00,-1.0,2369
5181,310181,16976,-660,660,17001.64,31.49,-1.00,-1.0,2421
5183,310183,17100,-604,732,17126.31,31.59,-1.00,-1.0,2355
5188,310188,16996,-644,740,17024.29,31.59,-1.00,-1.0,2450
5191,310191,17012,-560,680,17034.79,31.45,-1.00,-1.0,2376
5194,310194,17024,-660,588,17046.93,31.59,-1.00,-1.0,2421
5197,310197,17160,-644,548,17180.82,31.54,-1.00,-1.0,2370
5199,310199,17028,-568,644,17049.64,31.49,-1.00,-1.0,2365
5202,310202,17044,-636,772,17073.32,31.54,-1.00,-1.0,2421
5205,310205,17004,-552,696,17027.19,31.49,-1.00,-1.0,2368
5207,310207,17180,-596,508,17197.84,31.59,-1.00,-1.0,2420
5210,310210,17104,-600,660,17127.24,31.49,-1.00,-1.0,2369
5215,310215,17060,-596,592,17080.67,31.59,-1.00,-1.0,2440
5218,310218,16964,-636,524,16984.00,31.59,-1.00,-1.0,2369
5221,310221,17080,-612,728,17106.46,31.45,-1.00,-1.0,2427
5223,310223,17060,-692,600,17084.57,31.59,-1.00,-1.0,2368
5226,310226,17040,-608,708,17065.54,31.54,-1.00,-1.0,2422
5229,310229,17148,-608,632,17170.41,31.59,-1.00,-1.0,2369
5231,310231,17112,-600,684,17136.17,31.64,-1.00,-1.0,2366
5234,310234,17064,-608,668,17087.89,31.59,-1.00,-1.0,2431
5237,310237,17120,-724,640,17147.25,31.54,-1.00,-1.0,2377
5242,310242,17156,-512,708,17178.23,31.54,-1.00,-1.0,2440
5245,310245,17040,-608,624,17062.26,31.54,-1.00,-1.0,2376
5247,310247,17104,-660,760,17133.59,31.54,-1.00,-1.0,2420
5250,310250,17080,-640,668,17105.04,31.54,-1.00,-1.0,2373
5253,310253,17100,-692,700,17128.31,31.45,-1.00,-1.0,2420
5256,310256,17076,-648,612,17099.25,31.54,-1.00,-1.0,2377
5258,310258,16984,-588,772,17011.70,31.45,-1.00,-1.0,2420
5261,310261,16996,-628,844,17028.53,31.54,-1.00,-1.0,2373
5264,310264,17132,-680,700,17159.77,31.49,-1.00,-1.0,2367
5269,310269,17032,-664,628,17056.50,31.49,-1.00,-1.0,2450
5271,310271,16964,-592,724,16989.76,31.54,-1.00,-1.0,2371
5274,310274,17032,-676,508,17052.98,31.49,-1.00,-1.0,2427
5277,310277,17040,-584,780,17067.84,31.49,-1.00,-1.0,2385
5280,310280,17124,-600,696,17148.64,31.59,-1.00,-1.0,2423
5283,310283,17016,-552,796,17043.55,31.59,-1.00,-1.0,2368
5285,310285,17068,-596,636,17090.24,31.49,-1.00,-1.0,2427
5288,310288,17096,-660,692,17122.72,31.59,-1.00,-1.0,2384
5293,310293,16988,-596,660,17011.26,31.49,-1.00,-1.0,2453
5296,310296,17104,-652,664,17129.30,31.59,-1.00,-1.0,2375
5298,310298,17076,-644,692,17102.14,31.59,-1.00,-1.0,2369
5301,310301,17052,-708,728,17082.21,31.54,-1.00,-1.0,2421
5304,310304,17012,-588,708,17036.88,31.54,-1.00,-1.0,2369
5307,310307,17124,-700,668,17151.31,31.54,-1.00,-1.0,2427
5309,310309,17148,-616,652,17171.44,31.59,-1.00,-1.0,2368
5312,310312,17128,-608,740,17154.76,31.54,-1.00,-1.0,2422
5315,310315,17080,-556,668,17102.10,31.45,-1.00,-1.0,2369
5320,310320,17068,-632,632,17091.39,31.59,-1.00,-1.0,2444
5323,310323,17028,-672,796,17059.84,31.49,-1.00,-1.0,2374
5325,310325,17144,-648,612,17167.15,31.49,-1.00,-1.0,2423
5328,310328,17104,-652,592,17126.66,31.59,-1.00,-1.0,2372
5331,310331,17040,-668,688,17066.96,31.54,-1.00,-1.0,2366
5333,310333,17004,-500,604,17022.07,31.49,-1.00,-1.0,2420
5336,310336,17104,-656,608,17127.37,31.54,-1.00,-1.0,2369
5339,310339,17144,-644,696,17170.20,31.59,-1.00,-1.0,2420
5342,310342,17072,-564,640,17093.30,31.54,-1.00,-1.0,2370
5346,310346,17108,-652,652,17132.83,31.59,-1.00,-1.0,2440
5349,310349,17084,-652,548,17105.22,31.54,-1.00,-1.0,2368
5352,310352,17108,-664,624,17132.25,31.68,-1.00,-1.0,2420
5355,310355,17096,-628,812,17126.79,31.45,-1.00,-1.0,2377
5357,310357,16940,-600,668,16963.78,31.59,-1.00,-1.0,2421
5360,310360,17052,-568,616,17072.57,31.59,-1.00,-1.0,2370
5363,310363,17104,-656,656,17129.14,31.49,-1.00,-1.0,2368
5366,310366,17088,-656,644,17112.71,31.45,-1.00,-1.0,2420
5368,310368,17156,-552,688,17178.66,31.49,-1.00,-1.0,2375
5373,310373,17012,-636,668,17036.98,31.59,-1.00,-1.0,2440
5376,310376,17084,-600,616,17105.63,31.59,-1.00,-1.0,2376
5378,310378,17172,-628,600,17193.95,31.49,-1.00,-1.0,2420
5381,310381,16952,-624,700,16977.92,31.59,-1.00,-1.0,2370
5384,310384,17108,-680,704,17135.98,31.59,-1.00,-1.0,2420
5387,310387,16968,-560,800,16996.08,31.59,-1.00,-1.0,2376
5389,310389,17140,-720,668,17168.12,31.49,-1.00,-1.0,2376
5392,310392,17072,-696,620,17097.43,31.64,-1.00,-1.0,2420
5395,310395,16984,-580,592,17004.21,31.45,-1.00,-1.0,2372
5400,310400,16992,-572,688,17015.54,31.49,-1.00,-1.0,2446
5402,310402,17048,-584,644,17070.15,31.49,-1.00,-1.0,2367
5405,310405,16984,-716,748,17015.54,31.59,-1.00,-1.0,2431
5408,310408,17156,-632,772,17184.99,31.59,-1.00,-1.0,2377
5411,310411,17108,-696,820,17141.78,31.54,-1.00,-1.0,2424
5413,310413,17136,-600,440,17152.15,31.59,-1.00,-1.0,2369
5416,310416,17104,-608,756,17131.49,31.59,-1.00,-1.0,2429
5419,310419,17112,-704,612,17137.41,31.59,-1.00,-1.0,2375
5422,310422,17072,-580,696,17096.02,31.54,-1.00,-1.0,2367
5427,310427,17056,-680,744,17085.76,31.54,-1.00,-1.0,2447
5429,310429,17156,-572,700,17179.80,31.59,-1.00,-1.0,2375
5432,310432,17064,-632,688,17089.55,31.54,-1.00,-1.0,2421
5435,310435,17060,-592,720,17085.45,31.54,-1.00,-1.0,2356
5438,310438,17072,-572,580,17091.42,31.54,-1.00,-1.0,2421
5440,310440,17120,-628,724,17146.81,31.64,-1.00,-1.0,2375
5443,310443,17032,-656,608,17055.47,31.54,-1.00,-1.0,2420
5446,310446,16976,-604,680,17000.35,31.64,-1.00,-1.0,2370
5451,310451,17096,-648,752,17124.79,31.54,-1.00,-1.0,2448
5453,310453,17020,-672,604,17043.97,31.59,-1.00,-1.0,2368
5456,310456,17160,-716,692,17188.87,31.54,-1.00,-1.0,2365
5459,310459,17020,-668,624,17044.53,31.59,-1.00,-1.0,2421
5462,310462,17052,-688,652,17078.32,31.54,-1.00,-1.0,2368
5464,310464,17116,-636,640,17139.77,31.49,-1.00,-1.0,2420
5467,310467,17044,-684,756,17074.46,31.45,-1.00,-1.0,2369
5470,310470,17044,-600,684,17068.27,31.59,-1.00,-1.0,2407
5473,310473,17000,-524,556,17017.16,31.54,-1.00,-1.0,2371
5478,310478,17184,-580,476,17200.37,31.64,-1.00,-1.0,2448
5480,310480,17140,-576,604,17160.31,31.54,-1.00,-1.0,2372
5483,310483,17056,-644,760,17085.07,31.54,-1.00,-1.0,2429
5486,310486,17076,-612,668,17100.02,31.54,-1.00,-1.0,2373
5488,310488,16996,-552,612,17015.97,31.59,-1.00,-1.0,2367
5491,310491,17052,-648,656,17076.91,31.59,-1.00,-1.0,2420
5494,310494,17056,-596,712,17081.26,31.59,-1.00,-1.0,2369
5497,310497,17008,-628,672,17032.85,31.49,-1.00,-1.0,2427
5499,310499,17004,-632,592,17026.04,31.49,-1.00,-1.0,2368
5504,310504,17084,-600,744,17110.71,31.59,-1.00,-1.0,2447
5507,310507,17012,-568,740,17037.56,31.45,-1.00,-1.0,2370
5510,310510,17092,-616,696,17117.25,31.59,-1.00,-1.0,2421
5513,310513,17052,-600,720,17077.74,31.54,-1.00,-1.0,2368
5515,310515,17008,-672,652,17033.75,31.59,-1.00,-1.0,2421
5518,310518,17132,-568,612,17152.33,31.45,-1.00,-1.0,2357
5521,310521,16984,-712,748,17015.37,31.49,-1.00,-1.0,2366
5523,310523,17088,-604,408,17103.54,31.54,-1.00,-1.0,2420
5526,310526,17096,-700,756,17127.02,31.59,-1.00,-1.0,2369
5531,310531,17104,-664,792,17135.20,31.59,-1.00,-1.0,2440
5534,310534,17076,-548,660,17097.54,31.59,-1.00,-1.0,2372
5537,310537,17072,-592,728,17097.77,31.54,-1.00,-1.0,2427
5539,310539,17132,-672,704,17159.62,31.59,-1.00,-1.0,2367
5542,310542,17048,-604,708,17073.38,31.59,-1.00,-1.0,2421
5545,310545,17092,-632,616,17114.77,31.59,-1.00,-1.0,2369
5548,310548,17048,-604,684,17072.40,31.54,-1.00,-1.0,2427
5550,310550,17068,-592,660,17091.01,31.49,-1.00,-1.0,2368
5553,310553,17000,-628,704,17026.16,31.64,-1.00,-1.0,2365
5558,310558,17120,-592,612,17141.16,31.49,-1.00,-1.0,2446
5560,310560,17192,-628,732,17219.03,31.54,-1.00,-1.0,2375
5563,310563,17116,-648,664,17141.13,31.49,-1.00,-1.0,2427
5566,310566,17100,-632,676,17125.02,31.59,-1.00,-1.0,2385
5569,310569,17108,-692,688,17135.81,31.59,-1.00,-1.0,2421
5572,310572,17248,-636,844,17280.35,31.59,-1.00,-1.0,2372
5574,310574,17016,-660,772,17046.29,31.59,-1.00,-1.0,2423
5577,310577,17056,-620,656,17079.87,31.59,-1.00,-1.0,2372
5580,310580,16932,-632,688,16957.75,31.64,-1.00,-1.0,2366
5584,310584,17248,-660,712,17275.30,31.59,-1.00,-1.0,2448
5587,310587,17052,-516,664,17072.72,31.49,-1.00,-1.0,2382
5590,310590,17068,-616,576,17088.82,31.59,-1.00,-1.0,2421
5593,310593,17116,-680,676,17142.84,31.59,-1.00,-1.0,2368
5595,310595,17104,-612,808,17134.01,31.59,-1.00,-1.0,2422
5598,310598,17064,-572,612,17084.55,31.49,-1.00,-1.0,2371
5601,310601,17120,-608,580,17140.61,31.49,-1.00,-1.0,2420
5604,310604,17004,-680,612,17028.59,31.59,-1.00,-1.0,2370
5609,310609,17156,-652,632,17180.01,31.59,-1.00,-1.0,2444
5611,310611,17024,-560,628,17044.78,31.40,-1.00,-1.0,2370
5614,310614,17000,-632,712,17026.64,31.49,-1.00,-1.0,2367
5617,310617,17048,-524,728,17071.58,31.45,-1.00,-1.0,2428
5619,310619,17068,-620,628,17090.80,31.54,-1.00,-1.0,2368
5622,310622,17080,-716,620,17106.24,31.64,-1.00,-1.0,2421
5625,310625,17068,-604,632,17090.37,31.54,-1.00,-1.0,2370
5628,310628,16964,-600,592,16984.93,31.54,-1.00,-1.0,2427
5630,310630,17056,-676,716,17084.40,31.54,-1.00,-1.0,2368
5635,310635,17032,-468,696,17052.64,31.64,-1.00,-1.0,2442
5638,310638,17112,-648,740,17140.25,31.59,-1.00,-1.0,2370
5641,310641,17220,-688,740,17249.62,31.54,-1.00,-1.0,2420
5644,310644,17080,-612,632,17102.64,31.59,-1.00,-1.0,2368
5646,310646,17024,-652,564,17045.81,31.54,-1.00,-1.0,2365
5649,310649,17016,-656,768,17045.95,31.49,-1.00,-1.0,2420
5652,310652,17084,-496,780,17108.99,31.54,-1.00,-1.0,2377
5654,310654,17064,-460,740,17086.23,31.59,-1.00,-1.0,2420
5657,310657,17044,-656,732,17072.32,31.64,-1.00,-1.0,2370
5662,310662,17080,-580,704,17104.34,31.54,-1.00,-1.0,2440
5665,310665,17052,-680,780,17083.37,31.54,-1.00,-1.0,2355
5668,310668,17060,-536,692,17082.44,31.54,-1.00,-1.0,2427
5670,310670,17056,-680,636,17081.39,31.54,-1.00,-1.0,2367
5673,310673,17044,-684,696,17071.91,31.54,-1.00,-1.0,2422
5676,310676,17160,-620,836,17191.54,31.64,-1.00,-1.0,2369
5678,310678,17040,-544,576,17058.41,31.59,-1.00,-1.0,2366
5681,310681,17032,-572,656,17054.22,31.59,-1.00,-1.0,2431
5684,310684,17100,-576,656,17122.27,31.59,-1.00,-1.0,2377
5689,310689,17124,-512,400,17136.32,31.59,-1.00,-1.0,2439
5692,310692,17028,-568,736,17053.36,31.59,-1.00,-1.0,2375
5694,310694,17092,-640,616,17115.07,31.59,-1.00,-1.0,2420
5697,310697,17060,-612,660,17083.73,31.59,-1.00,-1.0,2373
5700,310700,17052,-604,644,17074.84,31.49,-1.00,-1.0,2419
5703,310703,16980,-620,732,17007.08,31.59,-1.00,-1.0,2377
5705,310705,17076,-632,732,17103.36,31.49,-1.00,-1.0,2420
5708,310708,17044,-628,640,17067.57,31.59,-1.00,-1.0,2369
5711,310711,17120,-612,772,17148.32,31.64,-1.00,-1.0,2368
5716,310716,17044,-708,656,17071.31,31.49,-1.00,-1.0,2446
5718,310718,17072,-632,696,17097.87,31.59,-1.00,-1.0,2368
5721,310721,16988,-660,620,17012.12,31.54,-1.00,-1.0,2430
5724,310724,17108,-572,664,17130.43,31.59,-1.00,-1.0,2376
5727,310727,17088,-644,712,17114.95,31.54,-1.00,-1.0,2424
5729,310729,17140,-632,672,17164.81,31.59,-1.00,-1.0,2372
5732,310732,17032,-608,612,17053.83,31.64,-1.00,-1.0,2429
5735,310735,17060,-628,800,17090.29,31.59,-1.00,-1.0,2384
5740,310740,16992,-596,656,17015.10,31.59,-1.00,-1.0,2440
5743,310743,17128,-576,644,17149.78,31.49,-1.00,-1.0,2380
5745,310745,17084,-656,624,17107.97,31.54,-1.00,-1.0,2372
5748,310748,17112,-712,744,17142.96,31.59,-1.00,-1.0,2421
5751,310751,17004,-576,728,17029.32,31.54,-1.00,-1.0,2371
5754,310754,17040,-632,520,17059.64,31.49,-1.00,-1.0,2420
5756,310756,17072,-620,868,17105.29,31.54,-1.00,-1.0,2371
5759,310759,16956,-564,576,16975.15,31.59,-1.00,-1.0,2420
5762,310762,17060,-700,724,17089.70,31.64,-1.00,-1.0,2372
5767,310767,17036,-692,776,17067.70,31.49,-1.00,-1.0,2439
5769,310769,17064,-632,768,17092.96,31.49,-1.00,-1.0,2371
5772,310772,17064,-628,696,17089.73,31.49,-1.00,-1.0,2365
5775,310775,17200,-620,700,17225.40,31.54,-1.00,-1.0,2428
5777,310777,17088,-560,768,17114.41,31.49,-1.00,-1.0,2368
5780,310780,17068,-708,644,17094.81,31.64,-1.00,-1.0,2428
5783,310783,17112,-560,708,17135.79,31.59,-1.00,-1.0,2376
5786,310786,17056,-632,616,17078.82,31.54,-1.00,-1.0,2423
5788,310788,17084,-588,752,17110.65,31.54,-1.00,-1.0,2370
5793,310793,17044,-628,632,17067.27,31.59,-1.00,-1.0,2439
5796,310796,17016,-656,764,17045.77,31.49,-1.00,-1.0,2355
5799,310799,17148,-664,672,17174.00,31.59,-1.00,-1.0,2427
5801,310801,17080,-656,632,17104.27,31.49,-1.00,-1.0,2368
5804,310804,17140,-580,736,17165.60,31.49,-1.00,-1.0,2364
5807,310807,16996,-592,712,17021.21,31.54,-1.00,-1.0,2428
5809,310809,16992,-632,732,17019.50,31.45,-1.00,-1.0,2368
5812,310812,17020,-628,576,17041.32,31.73,-1.00,-1.0,2433
5815,310815,17020,-640,580,17041.90,31.59,-1.00,-1.0,2377
5820,310820,17068,-608,564,17088.14,31.49,-1.00,-1.0,2439
5823,310823,17204,-616,520,17222.88,31.49,-1.00,-1.0,2368
5825,310825,17056,-700,732,17086.04,31.54,-1.00,-1.0,2421
5828,310828,17076,-680,624,17100.92,31.59,-1.00,-1.0,2371
5831,310831,17036,-624,884,17070.33,31.49,-1.00,-1.0,2420
5834,310834,17120,-672,840,17153.76,31.59,-1.00,-1.0,2377
5836,310836,17008,-720,688,17037.13,31.45,-1.00,-1.0,2374
5839,310839,17028,-636,856,17061.36,31.49,-1.00,-1.0,2420
5842,310842,17040,-600,604,17061.25,31.54,-1.00,-1.0,2357
5847,310847,16976,-660,776,17006.54,31.54,-1.00,-1.0,2448
5849,310849,17040,-608,640,17062.85,31.54,-1.00,-1.0,2370
5852,310852,17052,-704,588,17076.65,31.54,-1.00,-1.0,2434
5855,310855,17104,-584,632,17125.63,31.54,-1.00,-1.0,2369
5858,310858,17144,-656,696,17170.66,31.64,-1.00,-1.0,2428
5860,310860,17024,-616,684,17048.87,31.54,-1.00,-1.0,2369
5863,310863,17124,-636,640,17147.75,31.54,-1.00,-1.0,2431
5866,310866,17060,-672,720,17088.40,31.54,-1.00,-1.0,2378
5869,310869,17052,-580,712,17076.71,31.59,-1.00,-1.0,2366
5874,310874,17124,-620,820,17154.83,31.49,-1.00,-1.0,2445
5876,310876,17036,-648,632,17060.03,31.49,-1.00,-1.0,2376
5879,310879,17052,-648,748,17080.69,31.59,-1.00,-1.0,2421
5882,310882,17012,-520,548,17028.77,31.49,-1.00,-1.0,2369
5885,310885,17016,-652,708,17043.20,31.68,-1.00,-1.0,2420
5887,310887,17036,-652,616,17059.60,31.59,-1.00,-1.0,2379
5890,310890,17112,-572,728,17137.03,31.49,-1.00,-1.0,2420
5893,310893,17096,-576,724,17121.02,31.59,-1.00,-1.0,2370
5898,310898,17092,-692,696,17120.16,31.59,-1.00,-1.0,2442
5900,310900,16996,-568,752,17022.11,31.54,-1.00,-1.0,2374
5903,310903,17132,-532,508,17147.79,31.49,-1.00,-1.0,2366
5906,310906,17028,-680,628,17053.14,31.59,-1.00,-1.0,2421
5909,310909,17068,-740,564,17093.34,31.59,-1.00,-1.0,2368
5911,310911,17132,-612,508,17150.45,31.54,-1.00,-1.0,2421
5914,310914,17060,-636,700,17086.20,31.59,-1.00,-1.0,2369
5917,310917,17080,-676,704,17107.86,31.45,-1.00,-1.0,2420
5920,310920,16968,-652,804,16999.54,31.49,-1.00,-1.0,2368
5925,310925,17096,-736,680,17125.34,31.59,-1.00,-1.0,2443
5927,310927,17172,-604,644,17194.68,31.49,-1.00,-1.0,2376
5930,310930,17124,-560,712,17147.94,31.54,-1.00,-1.0,2421
5933,310933,17088,-600,700,17112.85,31.59,-1.00,-1.0,2370
5935,310935,17052,-644,704,17078.67,31.54,-1.00,-1.0,2354
5938,310938,17048,-592,644,17070.43,31.45,-1.00,-1.0,2421
5941,310941,17068,-540,784,17094.53,31.54,-1.00,-1.0,2370
5944,310944,17116,-608,672,17139.97,31.64,-1.00,-1.0,2423
5946,310946,17064,-684,616,17088.81,31.45,-1.00,-1.0,2368
5951,310951,17044,-520,628,17063.49,31.54,-1.00,-1.0,2440
5954,310954,17016,-612,644,17039.18,31.59,-1.00,-1.0,2368
5957,310957,17088,-604,696,17112.83,31.64,-1.00,-1.0,2422
5960,310960,17080,-720,680,17108.69,31.54,-1.00,-1.0,2368
5962,310962,16992,-644,696,17018.44,31.54,-1.00,-1.0,2368
5965,310965,17024,-592,568,17043.76,31.49,-1.00,-1.0,2436
5968,310968,16976,-592,668,16999.45,31.59,-1.00,-1.0,2372
5971,310971,17016,-720,724,17046.61,31.49,-1.00,-1.0,2424
5973,310973,17020,-632,688,17045.62,31.59,-1.00,-1.0,2371
5980,310980,17036,-644,700,17062.53,31.49,-1.00,-1.0,2455
5983,310983,17120,-596,744,17146.52,31.49,-1.00,-1.0,2374
5986,310986,17012,-660,756,17041.57,31.64,-1.00,-1.0,2431
5988,310988,17008,-716,644,17035.24,31.59,-1.00,-1.0,2377
5991,310991,17076,-600,632,17098.22,31.54,-1.00,-1.0,2421
5994,310994,17168,-652,668,17193.36,31.59,-1.00,-1.0,2372
5996,310996,17116,-600,776,17144.08,31.54,-1.00,-1.0,2366
5999,310999,16944,-580,712,16968.87,31.59,-1.00,-1.0,2422
6002,311002,16992,-620,664,17016.27,31.54,-1.00,-1.0,2371
6007,311007,16968,-504,592,16985.80,31.64,-1.00,-1.0,2440
6009,311009,17132,-656,708,17159.17,31.54,-1.00,-1.0,2377
6012,311012,16980,-560,696,17003.48,31.54,-1.00,-1.0,2421
6015,311015,17084,-664,712,17111.72,31.59,-1.00,-1.0,2371
6018,311018,17096,-732,648,17123.93,31.54,-1.00,-1.0,2420
6020,311020,17136,-596,536,17154.74,31.54,-1.00,-1.0,2371
6023,311023,17020,-496,532,17035.54,31.54,-1.00,-1.0,2420
6026,311026,17088,-648,644,17112.40,31.49,-1.00,-1.0,2372
6028,311028,17060,-692,728,17089.54,31.59,-1.00,-1.0,2366
6033,311033,17148,-672,772,17178.52,31.59,-1.00,-1.0,2440
6036,311036,17124,-596,824,17154.17,31.54,-1.00,-1.0,2368
6039,311039,17072,-712,740,17102.86,31.49,-1.00,-1.0,2420
6042,311042,17212,-604,644,17234.63,31.54,-1.00,-1.0,2368
6044,311044,17044,-560,644,17065.35,31.59,-1.00,-1.0,2420
6047,311047,17044,-560,764,17070.30,31.54,-1.00,-1.0,2369
6050,311050,16988,-656,736,17016.59,31.59,-1.00,-1.0,2421
6053,311053,17112,-724,684,17140.96,31.64,-1.00,-1.0,2368
6058,311058,17068,-712,580,17092.69,31.64,-1.00,-1.0,2440
6060,311060,17088,-652,616,17111.53,31.64,-1.00,-1.0,2370
6063,311063,17008,-628,612,17030.59,31.59,-1.00,-1.0,2365
6066,311066,16952,-560,644,16973.47,31.49,-1.00,-1.0,2427
6068,311068,17136,-564,684,17158.92,31.59,-1.00,-1.0,2368
6071,311071,17072,-624,856,17104.83,31.49,-1.00,-1.0,2426
6074,311074,17216,-656,660,17241.13,31.59,-1.00,-1.0,2369
6077,311077,17072,-524,768,17097.30,31.59,-1.00,-1.0,2428
6079,311079,16880,-732,572,16905.54,31.49,-1.00,-1.0,2372
6084,311084,17028,-644,620,17051.45,31.59,-1.00,-1.0,2439
6087,311087,17016,-572,684,17039.35,31.59,-1.00,-1.0,2355
6090,311090,17036,-632,640,17059.73,31.59,-1.00,-1.0,2421
6093,311093,17036,-572,752,17062.18,31.68,-1.00,-1.0,2368
6095,311095,16928,-576,716,16952.92,31.54,-1.00,-1.0,2369
6098,311098,17100,-660,616,17123.82,31.54,-1.00,-1.0,2429
6101,311101,17052,-632,716,17078.72,31.59,-1.00,-1.0,2377
6104,311104,17060,-636,616,17082.96,31.54,-1.00,-1.0,2434
6106,311106,17036,-676,668,17062.49,31.54,-1.00,-1.0,2378
6111,311111,17060,-656,604,17083.29,31.54,-1.00,-1.0,2453
6114,311114,17100,-624,720,17126.52,31.54,-1.00,-1.0,2375
6117,311117,17084,-616,728,17110.60,31.64,-1.00,-1.0,2410
6119,311119,17124,-588,732,17149.72,31.54,-1.00,-1.0,2373
6122,311122,17028,-604,780,17056.55,31.64,-1.00,-1.0,2428
6125,311125,17072,-572,564,17090.89,31.54,-1.00,-1.0,2384
6128,311128,17004,-660,572,17026.41,31.49,-1.00,-1.0,2368
6130,311130,17020,-700,664,17047.32,31.59,-1.00,-1.0,2420
6133,311133,17112,-604,652,17135.06,31.59,-1.00,-1.0,2369
6138,311138,17140,-584,620,17161.15,31.59,-1.00,-1.0,2440
6141,311141,17088,-588,592,17108.36,31.54,-1.00,-1.0,2368
6144,311144,17052,-656,696,17078.80,31.59,-1.00,-1.0,2420
6146,311146,17056,-652,628,17080.01,31.59,-1.00,-1.0,2357
6149,311149,17208,-632,552,17228.45,31.59,-1.00,-1.0,2420
6152,311152,17068,-556,680,17090.59,31.68,-1.00,-1.0,2371
6154,311154,17096,-616,724,17122.41,31.59,-1.00,-1.0,2353
6157,311157,17108,-656,708,17135.21,31.54,-1.00,-1.0,2421
6160,311160,17004,-548,660,17025.62,31.59,-1.00,-1.0,2369
6165,311165,17096,-644,676,17121.48,31.45,-1.00,-1.0,2461
6168,311168,16992,-632,816,17023.32,31.59,-1.00,-1.0,2368
6171,311171,17148,-616,616,17170.11,31.54,-1.00,-1.0,2431
6173,311173,17032,-700,632,17058.09,31.54,-1.00,-1.0,2369
6176,311176,17084,-652,660,17109.17,31.59,-1.00,-1.0,2432
6179,311179,17012,-556,736,17036.99,31.54,-1.00,-1.0,2375
6182,311182,17052,-684,668,17078.78,31.59,-1.00,-1.0,2435
6184,311184,16984,-584,504,17001.51,31.64,-1.00,-1.0,2370
6187,311187,16964,-564,660,16986.20,31.49,-1.00,-1.0,2369
6192,311192,17036,-568,720,17060.67,31.49,-1.00,-1.0,2441
6194,311194,17052,-732,636,17079.55,31.59,-1.00,-1.0,2364
6197,311197,16980,-572,544,16998.34,31.45,-1.00,-1.0,2422
6200,311200,17080,-544,692,17102.67,31.49,-1.00,-1.0,2353
6203,311203,17004,-700,756,17035.19,31.59,-1.00,-1.0,2421
6205,311205,17120,-656,696,17146.70,31.49,-1.00,-1.0,2352
6208,311208,17036,-656,776,17066.28,31.68,-1.00,-1.0,2422
6211,311211,16932,-704,704,16961.25,31.59,-1.00,-1.0,2367
6215,311215,17044,-556,756,17069.82,31.54,-1.00,-1.0,2442
6218,311218,17056,-612,800,17085.71,31.64,-1.00,-1.0,2368
6221,311221,17088,-648,624,17111.66,31.49,-1.00,-1.0,2367
6224,311224,17072,-640,564,17093.30,31.59,-1.00,-1.0,2421
6226,311226,16992,-556,588,17011.26,31.49,-1.00,-1.0,2376
6229,311229,17080,-636,664,17104.73,31.49,-1.00,-1.0,2421
6232,311232,17004,-720,752,17035.84,31.59,-1.00,-1.0,2367
6235,311235,17072,-612,520,17090.88,31.59,-1.00,-1.0,2421
6237,311237,17004,-608,664,17027.82,31.59,-1.00,-1.0,2373
