timestamp_ms,global_ms,accel_x,accel_y,accel_z,accel_mag,temp_c,voltage,soc,loop_us
2,1830002,16968,-592,912,17002.80,27.59,-1.00,-1.0,2500
9,1830009,17012,-524,976,17048.03,27.54,-1.00,-1.0,2456
12,1830012,17024,-604,912,17059.11,27.49,-1.00,-1.0,2368
14,1830014,17068,-592,912,17102.60,27.54,-1.00,-1.0,2369
17,1830017,17120,-588,788,17148.21,27.54,-1.00,-1.0,2421
20,1830020,17044,-592,884,17077.17,27.54,-1.00,-1.0,2372
23,1830023,16996,-540,1020,17035.14,27.64,-1.00,-1.0,2420
25,1830025,17064,-608,884,17097.70,27.45,-1.00,-1.0,2372
28,1830028,16988,-544,896,17020.31,27.45,-1.00,-1.0,2420
31,1830031,17036,-520,892,17067.26,27.54,-1.00,-1.0,2371
35,1830035,17060,-596,860,17092.06,27.45,-1.00,-1.0,2454
38,1830038,16952,-556,928,16986.48,27.49,-1.00,-1.0,2374
41,1830041,17072,-640,872,17106.23,27.54,-1.00,-1.0,2424
44,1830044,17088,-532,964,17123.44,27.49,-1.00,-1.0,2371
46,1830046,17032,-568,1000,17070.78,27.54,-1.00,-1.0,2366
49,1830049,16956,-544,900,16988.58,27.59,-1.00,-1.0,2420
52,1830052,16948,-544,808,16975.97,27.54,-1.00,-1.0,2370
55,1830055,16984,-576,1008,17023.63,27.49,-1.00,-1.0,2420
57,1830057,16988,-560,916,17021.89,27.64,-1.00,-1.0,2369
62,1830062,17108,-560,892,17140.39,27.64,-1.00,-1.0,2449
65,1830065,17096,-572,928,17130.72,27.54,-1.00,-1.0,2370
68,1830068,16956,-532,840,16985.13,27.45,-1.00,-1.0,2422
70,1830070,17072,-472,868,17100.57,27.54,-1.00,-1.0,2372
73,1830073,17000,-608,896,17034.45,27.59,-1.00,-1.0,2366
76,1830076,17028,-500,912,17059.73,27.59,-1.00,-1.0,2423
79,1830079,17044,-560,948,17079.53,27.49,-1.00,-1.0,2368
81,1830081,16976,-596,1024,17017.30,27.49,-1.00,-1.0,2421
84,1830084,17056,-664,956,17095.67,27.59,-1.00,-1.0,2374
89,1830089,17056,-580,1092,17100.76,27.59,-1.00,-1.0,2442
92,1830092,17040,-616,892,17074.45,27.54,-1.00,-1.0,2368
95,1830095,17032,-700,996,17075.45,27.49,-1.00,-1.0,2420
97,1830097,17000,-504,912,17031.90,27.59,-1.00,-1.0,2370
100,1830100,16960,-648,904,16996.43,27.49,-1.00,-1.0,2370
103,1830103,16992,-608,816,17022.44,27.45,-1.00,-1.0,2424
105,1830105,17072,-576,1084,17116.07,27.49,-1.00,-1.0,2372
108,1830108,17064,-504,880,17094.11,27.54,-1.00,-1.0,2437
111,1830111,17132,-556,868,17162.98,27.54,-1.00,-1.0,2379
116,1830116,17148,-536,856,17177.72,27.49,-1.00,-1.0,2444
119,1830119,17084,-712,820,17118.48,27.49,-1.00,-1.0,2366
121,1830121,17036,-496,928,17068.46,27.54,-1.00,-1.0,2424
124,1830124,17068,-556,920,17101.82,27.59,-1.00,-1.0,2370
127,1830127,17028,-588,1004,17067.71,27.54,-1.00,-1.0,2428
130,1830130,16984,-584,888,17017.22,27.59,-1.00,-1.0,2370
132,1830132,17032,-624,956,17070.22,27.54,-1.00,-1.0,2375
135,1830135,17004,-544,864,17034.62,27.59,-1.00,-1.0,2421
138,1830138,16996,-544,928,17030.01,27.59,-1.00,-1.0,2438
143,1830143,16968,-592,960,17005.44,27.54,-1.00,-1.0,2448
146,1830146,17016,-544,844,17045.60,27.54,-1.00,-1.0,2367
148,1830148,16996,-592,936,17032.04,27.54,-1.00,-1.0,2429
151,1830151,17044,-604,980,17082.83,27.54,-1.00,-1.0,2378
154,1830154,17084,-592,972,17121.87,27.54,-1.00,-1.0,2409
157,1830157,17080,-648,920,17117.03,27.64,-1.00,-1.0,2370
159,1830159,17020,-548,972,17056.54,27.49,-1.00,-1.0,2428
162,1830162,17036,-592,976,17074.20,27.54,-1.00,-1.0,2377
165,1830165,17124,-612,1008,17164.56,27.49,-1.00,-1.0,2367
170,1830170,17084,-548,924,17117.74,27.49,-1.00,-1.0,2445
172,1830172,17092,-648,980,17132.33,27.59,-1.00,-1.0,2373
175,1830175,16952,-544,872,16983.13,27.59,-1.00,-1.0,2420
178,1830178,17008,-668,816,17040.66,27.49,-1.00,-1.0,2370
181,1830181,16996,-636,924,17032.98,27.59,-1.00,-1.0,2423
183,1830183,17084,-620,960,17122.18,27.59,-1.00,-1.0,2369
186,1830186,17040,-616,920,17075.93,27.49,-1.00,-1.0,2420
189,1830189,16964,-552,920,16997.89,27.59,-1.00,-1.0,2370
194,1830194,17080,-584,976,17117.83,27.59,-1.00,-1.0,2443
197,1830197,16964,-592,992,17003.29,27.54,-1.00,-1.0,2373
199,1830199,16956,-696,848,16991.45,27.54,-1.00,-1.0,2366
202,1830202,17036,-604,904,17070.66,27.45,-1.00,-1.0,2420
205,1830205,16992,-548,896,17024.43,27.54,-1.00,-1.0,2370
208,1830208,17000,-640,992,17040.94,27.45,-1.00,-1.0,2419
210,1830210,17088,-576,828,17117.74,27.64,-1.00,-1.0,2357
213,1830213,17024,-624,1000,17064.76,27.54,-1.00,-1.0,2420
216,1830216,17012,-544,1012,17050.75,27.54,-1.00,-1.0,2370
221,1830221,17068,-592,972,17105.90,27.54,-1.00,-1.0,2442
223,1830223,17000,-668,904,17037.12,27.45,-1.00,-1.0,2366
226,1830226,17048,-588,1072,17091.79,27.49,-1.00,-1.0,2426
229,1830229,16964,-536,912,16996.95,27.54,-1.00,-1.0,2378
231,1830231,17056,-504,968,17090.88,27.49,-1.00,-1.0,2374
234,1830234,17028,-668,932,17066.56,27.54,-1.00,-1.0,2420
237,1830237,17052,-584,928,17087.21,27.49,-1.00,-1.0,2371
240,1830240,17124,-576,1028,17164.50,27.54,-1.00,-1.0,2422
243,1830243,17072,-544,916,17105.21,27.54,-1.00,-1.0,2371
247,1830247,17028,-680,1128,17078.86,27.64,-1.00,-1.0,2441
250,1830250,17024,-560,840,17053.91,27.59,-1.00,-1.0,2369
253,1830253,17044,-628,932,17081.01,27.54,-1.00,-1.0,2421
255,1830255,16976,-520,828,17004.13,27.59,-1.00,-1.0,2369
258,1830258,16916,-560,844,16946.30,27.54,-1.00,-1.0,2419
261,1830261,17016,-520,932,17049.44,27.54,-1.00,-1.0,2377
264,1830264,17176,-652,904,17212.13,27.54,-1.00,-1.0,2371
267,1830267,16956,-544,968,16992.32,27.45,-1.00,-1.0,2419
270,1830270,17032,-584,920,17066.82,27.54,-1.00,-1.0,2370
275,1830275,17028,-660,852,17062.07,27.54,-1.00,-1.0,2428
277,1830277,16992,-568,1008,17031.35,27.54,-1.00,-1.0,2366
280,1830280,17072,-644,808,17103.24,27.59,-1.00,-1.0,2419
283,1830283,17060,-508,992,17096.37,27.54,-1.00,-1.0,2371
286,1830286,17116,-552,948,17151.12,27.54,-1.00,-1.0,2421
288,1830288,16964,-508,984,17000.11,27.54,-1.00,-1.0,2358
291,1830291,16980,-556,944,17015.31,27.59,-1.00,-1.0,2420
294,1830294,16912,-552,788,16939.34,27.54,-1.00,-1.0,2370
297,1830297,17004,-552,864,17034.88,27.54,-1.00,-1.0,2367
302,1830302,17044,-532,916,17076.88,27.45,-1.00,-1.0,2442
304,1830304,16980,-644,856,17013.76,27.59,-1.00,-1.0,2366
307,1830307,16984,-552,984,17021.43,27.59,-1.00,-1.0,2419
310,1830310,17000,-560,868,17031.35,27.49,-1.00,-1.0,2377
313,1830313,16980,-592,964,17017.64,27.49,-1.00,-1.0,2420
315,1830315,17052,-696,988,17094.77,27.68,-1.00,-1.0,2370
318,1830318,17028,-688,976,17069.82,27.49,-1.00,-1.0,2419
321,1830321,17008,-556,848,17038.20,27.49,-1.00,-1.0,2377
324,1830324,17112,-588,1020,17152.46,27.49,-1.00,-1.0,2369
329,1830329,17048,-724,844,17084.23,27.49,-1.00,-1.0,2440
331,1830331,17044,-564,1060,17086.24,27.59,-1.00,-1.0,2370
334,1830334,16976,-568,920,17010.40,27.54,-1.00,-1.0,2435
337,1830337,17080,-508,832,17107.80,27.49,-1.00,-1.0,2382
340,1830340,17096,-548,1044,17136.61,27.45,-1.00,-1.0,2434
342,1830342,17008,-568,908,17041.69,27.54,-1.00,-1.0,2379
345,1830345,17060,-472,964,17093.73,27.54,-1.00,-1.0,2420
348,1830348,16968,-568,976,17005.54,27.54,-1.00,-1.0,2377
353,1830353,17112,-588,952,17148.54,27.54,-1.00,-1.0,2448
356,1830356,16960,-528,916,16992.92,27.54,-1.00,-1.0,2371
358,1830358,16992,-564,936,17027.10,27.54,-1.00,-1.0,2428
361,1830361,17016,-692,952,17056.65,27.54,-1.00,-1.0,2386
364,1830364,16948,-544,876,16979.34,27.59,-1.00,-1.0,2366
367,1830367,17064,-504,828,17091.51,27.59,-1.00,-1.0,2420
369,1830369,17096,-528,900,17127.81,27.59,-1.00,-1.0,2370
372,1830372,17104,-492,952,17137.54,27.59,-1.00,-1.0,2420
375,1830375,17128,-496,868,17157.15,27.49,-1.00,-1.0,2369
380,1830380,16932,-592,896,16966.02,27.45,-1.00,-1.0,2443
383,1830383,17076,-556,1020,17115.47,27.54,-1.00,-1.0,2370
386,1830386,17036,-520,1016,17074.19,27.54,-1.00,-1.0,2419
388,1830388,17076,-564,848,17106.34,27.54,-1.00,-1.0,2373
391,1830391,17064,-560,888,17096.26,27.49,-1.00,-1.0,2419
394,1830394,16988,-608,1000,17028.27,27.64,-1.00,-1.0,2371
396,1830396,16984,-536,1008,17022.33,27.49,-1.00,-1.0,2367
399,1830399,16992,-568,1036,17033.03,27.45,-1.00,-1.0,2420
402,1830402,17084,-584,888,17117.03,27.49,-1.00,-1.0,2377
407,1830407,16940,-532,960,16975.52,27.49,-1.00,-1.0,2440
410,1830410,17032,-580,796,17060.45,27.64,-1.00,-1.0,2367
412,1830412,17032,-608,968,17070.32,27.59,-1.00,-1.0,2420
415,1830415,17000,-516,868,17029.96,27.59,-1.00,-1.0,2370
418,1830418,17000,-600,1000,17039.95,27.49,-1.00,-1.0,2426
421,1830421,17064,-632,936,17101.33,27.54,-1.00,-1.0,2369
423,1830423,17012,-624,884,17046.38,27.59,-1.00,-1.0,2420
426,1830426,17032,-540,936,17066.24,27.49,-1.00,-1.0,2358
429,1830429,17004,-520,836,17032.48,27.49,-1.00,-1.0,2366
434,1830434,17008,-544,1060,17049.68,27.59,-1.00,-1.0,2441
436,1830436,17052,-616,976,17091.01,27.49,-1.00,-1.0,2366
439,1830439,17056,-504,956,17090.21,27.54,-1.00,-1.0,2420
442,1830442,17068,-512,792,17094.04,27.49,-1.00,-1.0,2370
445,1830445,17028,-560,772,17054.69,27.54,-1.00,-1.0,2420
447,1830447,17040,-564,852,17070.61,27.59,-1.00,-1.0,2370
450,1830450,17068,-548,956,17103.53,27.54,-1.00,-1.0,2420
453,1830453,17092,-608,788,17120.96,27.59,-1.00,-1.0,2370
457,1830457,17032,-604,964,17069.95,27.54,-1.00,-1.0,2450
460,1830460,17056,-532,952,17090.83,27.49,-1.00,-1.0,2373
463,1830463,17012,-664,796,17043.55,27.40,-1.00,-1.0,2367
466,1830466,17016,-628,808,17046.74,27.64,-1.00,-1.0,2420
468,1830468,17040,-536,884,17071.33,27.54,-1.00,-1.0,2370
471,1830471,17064,-504,1020,17101.89,27.54,-1.00,-1.0,2420
474,1830474,16944,-664,1036,16988.62,27.54,-1.00,-1.0,2377
477,1830477,17072,-656,844,17105.43,27.45,-1.00,-1.0,2428
480,1830480,17132,-548,1000,17169.91,27.54,-1.00,-1.0,2368
485,1830485,17104,-504,876,17133.83,27.49,-1.00,-1.0,2440
487,1830487,16988,-516,896,17019.44,27.49,-1.00,-1.0,2353
490,1830490,17012,-480,944,17044.93,27.64,-1.00,-1.0,2420
493,1830493,17052,-556,952,17087.60,27.59,-1.00,-1.0,2372
496,1830496,16980,-592,916,17014.99,27.54,-1.00,-1.0,2367
498,1830498,17028,-504,964,17062.71,27.54,-1.00,-1.0,2427
501,1830501,17060,-484,912,17091.21,27.54,-1.00,-1.0,2370
504,1830504,16984,-620,1084,17029.85,27.49,-1.00,-1.0,2426
507,1830507,17000,-536,820,17028.20,27.45,-1.00,-1.0,2377
512,1830512,17056,-588,1060,17099.02,27.54,-1.00,-1.0,2448
515,1830515,17128,-520,868,17157.86,27.54,-1.00,-1.0,2367
517,1830517,16984,-544,940,17018.69,27.54,-1.00,-1.0,2422
520,1830520,17056,-640,984,17096.34,27.64,-1.00,-1.0,2370
523,1830523,17004,-492,884,17034.07,27.64,-1.00,-1.0,2428
526,1830526,17012,-540,872,17042.89,27.54,-1.00,-1.0,2369
528,1830528,16980,-536,988,17017.16,27.59,-1.00,-1.0,2372
531,1830531,17116,-540,920,17149.21,27.49,-1.00,-1.0,2406
534,1830534,17044,-628,880,17078.25,27.54,-1.00,-1.0,2373
539,1830539,16992,-564,1012,17031.45,27.64,-1.00,-1.0,2448
542,1830542,17008,-672,1048,17053.50,27.54,-1.00,-1.0,2367
544,1830544,17036,-560,916,17069.80,27.54,-1.00,-1.0,2423
547,1830547,16980,-528,1068,17021.75,27.64,-1.00,-1.0,2374
550,1830550,16960,-568,948,16995.97,27.49,-1.00,-1.0,2427
553,1830553,17072,-628,1000,17112.79,27.54,-1.00,-1.0,2369
555,1830555,17004,-532,944,17038.49,27.64,-1.00,-1.0,2421
558,1830558,17036,-560,956,17071.99,27.54,-1.00,-1.0,2370
561,1830561,16904,-528,992,16941.31,27.40,-1.00,-1.0,2374
566,1830566,17040,-508,1008,17077.35,27.59,-1.00,-1.0,2443
569,1830569,17004,-540,940,17038.52,27.54,-1.00,-1.0,2353
571,1830571,16948,-612,1032,16990.42,27.54,-1.00,-1.0,2424
574,1830574,17008,-552,1052,17049.44,27.64,-1.00,-1.0,2370
577,1830577,16988,-652,1008,17030.37,27.59,-1.00,-1.0,2426
580,1830580,17076,-560,864,17107.01,27.54,-1.00,-1.0,2356
582,1830582,17068,-384,904,17096.24,27.49,-1.00,-1.0,2421
585,1830585,17112,-568,956,17148.09,27.54,-1.00,-1.0,2370
590,1830590,16996,-524,1044,17036.10,27.54,-1.00,-1.0,2427
593,1830593,17024,-572,872,17055.91,27.54,-1.00,-1.0,2372
595,1830595,17088,-536,996,17125.39,27.59,-1.00,-1.0,2367
598,1830598,16980,-592,812,17009.71,27.54,-1.00,-1.0,2435
601,1830601,16932,-628,1004,16973.36,27.49,-1.00,-1.0,2377
604,1830604,16940,-568,940,16975.57,27.54,-1.00,-1.0,2434
606,1830606,16996,-616,928,17032.46,27.49,-1.00,-1.0,2374
609,1830609,17052,-636,992,17092.67,27.54,-1.00,-1.0,2429
612,1830612,17104,-552,1000,17142.10,27.54,-1.00,-1.0,2373
617,1830617,17080,-556,960,17115.99,27.45,-1.00,-1.0,2450
620,1830620,17104,-532,860,17133.87,27.59,-1.00,-1.0,2371
622,1830622,17100,-576,912,17133.99,27.54,-1.00,-1.0,2428
625,1830625,17124,-568,932,17158.75,27.54,-1.00,-1.0,2385
628,1830628,16940,-484,972,16974.77,27.45,-1.00,-1.0,2366
631,1830631,17048,-604,916,17083.27,27.49,-1.00,-1.0,2419
633,1830633,16984,-584,816,17013.62,27.54,-1.00,-1.0,2370
636,1830636,17028,-596,1156,17077.60,27.49,-1.00,-1.0,2419
639,1830639,17016,-604,912,17051.12,27.54,-1.00,-1.0,2376
644,1830644,17000,-624,900,17035.24,27.68,-1.00,-1.0,2449
647,1830647,17012,-532,904,17044.31,27.59,-1.00,-1.0,2367
649,1830649,16956,-548,892,16988.29,27.59,-1.00,-1.0,2422
652,1830652,17124,-568,832,17153.61,27.59,-1.00,-1.0,2370
655,1830655,17080,-544,812,17107.94,27.59,-1.00,-1.0,2427
658,1830658,17060,-504,932,17092.87,27.59,-1.00,-1.0,2368
660,1830660,16960,-644,1084,17006.80,27.54,-1.00,-1.0,2372
663,1830663,17064,-608,1048,17106.96,27.49,-1.00,-1.0,2420
666,1830666,16980,-668,800,17011.96,27.64,-1.00,-1.0,2370
671,1830671,17040,-472,948,17072.88,27.54,-1.00,-1.0,2441
673,1830673,17084,-592,968,17121.64,27.54,-1.00,-1.0,2401
676,1830676,16972,-580,848,17003.07,27.49,-1.00,-1.0,2432
679,1830679,17056,-676,940,17095.25,27.59,-1.00,-1.0,2374
682,1830682,17028,-536,840,17057.13,27.64,-1.00,-1.0,2424
685,1830685,16900,-580,868,16932.21,27.59,-1.00,-1.0,2374
687,1830687,17060,-540,860,17090.20,27.45,-1.00,-1.0,2424
690,1830690,16996,-568,988,17034.17,27.49,-1.00,-1.0,2378
693,1830693,17004,-628,1108,17051.63,27.59,-1.00,-1.0,2356
698,1830698,16992,-520,736,17015.88,27.54,-1.00,-1.0,2423
701,1830701,16996,-564,956,17032.21,27.64,-1.00,-1.0,2384
704,1830704,17004,-544,864,17034.62,27.59,-1.00,-1.0,2435
706,1830706,17000,-572,844,17030.55,27.59,-1.00,-1.0,2413
709,1830709,17016,-544,964,17051.96,27.64,-1.00,-1.0,2439
712,1830712,17056,-588,980,17094.25,27.54,-1.00,-1.0,2378
715,1830715,16944,-592,932,16979.94,27.49,-1.00,-1.0,2415
717,1830717,16936,-656,844,16969.70,27.54,-1.00,-1.0,2380
722,1830722,17000,-644,868,17034.32,27.54,-1.00,-1.0,2435
725,1830725,16956,-556,1092,17000.22,27.54,-1.00,-1.0,2380
728,1830728,17012,-508,948,17045.96,27.59,-1.00,-1.0,2367
731,1830731,17020,-568,984,17057.88,27.54,-1.00,-1.0,2436
733,1830733,16956,-572,1024,16996.52,27.59,-1.00,-1.0,2369
736,1830736,17132,-552,868,17162.85,27.45,-1.00,-1.0,2422
739,1830739,17048,-440,964,17080.90,27.59,-1.00,-1.0,2368
742,1830742,17012,-556,1048,17053.32,27.54,-1.00,-1.0,2422
744,1830744,16928,-576,868,16960.02,27.49,-1.00,-1.0,2369
749,1830749,17100,-548,932,17134.14,27.49,-1.00,-1.0,2422
752,1830752,16988,-536,840,17017.20,27.59,-1.00,-1.0,2375
755,1830755,17024,-620,924,17060.33,27.54,-1.00,-1.0,2442
758,1830758,17096,-508,872,17125.76,27.59,-1.00,-1.0,2368
760,1830760,17028,-560,832,17057.51,27.45,-1.00,-1.0,2373
763,1830763,17096,-536,980,17132.45,27.49,-1.00,-1.0,2424
766,1830766,17056,-552,804,17083.86,27.54,-1.00,-1.0,2369
768,1830768,17064,-520,808,17091.03,27.59,-1.00,-1.0,2430
771,1830771,17036,-664,916,17073.53,27.54,-1.00,-1.0,2375
776,1830776,16964,-520,916,16996.67,27.54,-1.00,-1.0,2423
779,1830779,17012,-652,868,17046.60,27.54,-1.00,-1.0,2381
782,1830782,17016,-616,872,17049.46,27.59,-1.00,-1.0,2446
784,1830784,17116,-500,964,17150.42,27.45,-1.00,-1.0,2373
787,1830787,17056,-536,940,17090.29,27.59,-1.00,-1.0,2430
790,1830790,16980,-612,1044,17023.07,27.49,-1.00,-1.0,2376
793,1830793,17012,-556,904,17045.07,27.59,-1.00,-1.0,2367
795,1830795,17020,-628,868,17053.69,27.64,-1.00,-1.0,2422
798,1830798,17080,-592,880,17112.90,27.54,-1.00,-1.0,2369
803,1830803,16996,-544,936,17030.45,27.54,-1.00,-1.0,2423
806,1830806,16976,-540,952,17011.25,27.59,-1.00,-1.0,2373
809,1830809,17040,-624,1060,17084.34,27.54,-1.00,-1.0,2442
812,1830812,17080,-628,924,17116.50,27.54,-1.00,-1.0,2368
814,1830814,17112,-524,836,17140.42,27.64,-1.00,-1.0,2425
817,1830817,17124,-480,924,17155.63,27.54,-1.00,-1.0,2369
820,1830820,16992,-628,896,17027.19,27.54,-1.00,-1.0,2429
823,1830823,16996,-576,988,17034.43,27.54,-1.00,-1.0,2368
825,1830825,16996,-480,872,17025.12,27.45,-1.00,-1.0,2374
830,1830830,17036,-536,992,17073.27,27.54,-1.00,-1.0,2423
833,1830833,17012,-568,924,17046.54,27.45,-1.00,-1.0,2371
836,1830836,17064,-528,876,17094.63,27.49,-1.00,-1.0,2435
838,1830838,17012,-708,876,17049.25,27.54,-1.00,-1.0,2371
841,1830841,16992,-508,984,17028.05,27.59,-1.00,-1.0,2438
844,1830844,16964,-608,800,16993.73,27.59,-1.00,-1.0,2366
847,1830847,16952,-520,888,16983.21,27.49,-1.00,-1.0,2424
849,1830849,17080,-588,948,17116.39,27.49,-1.00,-1.0,2370
854,1830854,16988,-628,784,17017.67,27.49,-1.00,-1.0,2437
857,1830857,16968,-504,884,16998.48,27.49,-1.00,-1.0,2380
859,1830859,16996,-556,968,17032.62,27.54,-1.00,-1.0,2350
862,1830862,17112,-516,836,17140.18,27.54,-1.00,-1.0,2428
865,1830865,17016,-548,928,17050.10,27.54,-1.00,-1.0,2368
868,1830868,16988,-616,1040,17030.95,27.54,-1.00,-1.0,2436
871,1830871,17036,-612,876,17069.48,27.54,-1.00,-1.0,2368
873,1830873,17004,-484,996,17040.02,27.64,-1.00,-1.0,2421
876,1830876,17032,-564,996,17070.42,27.54,-1.00,-1.0,2376
881,1830881,17076,-656,860,17110.22,27.49,-1.00,-1.0,2430
884,1830884,16904,-560,936,16939.15,27.54,-1.00,-1.0,2373
886,1830886,17044,-528,968,17079.63,27.68,-1.00,-1.0,2428
889,1830889,17028,-568,1028,17068.46,27.64,-1.00,-1.0,2369
892,1830892,17016,-556,804,17044.05,27.54,-1.00,-1.0,2369
895,1830895,17040,-580,892,17073.19,27.45,-1.00,-1.0,2431
897,1830897,17060,-556,928,17094.27,27.64,-1.00,-1.0,2371
900,1830900,16964,-528,900,16996.06,27.54,-1.00,-1.0,2422
903,1830903,17044,-536,932,17077.88,27.64,-1.00,-1.0,2369
908,1830908,17104,-544,1016,17142.78,27.54,-1.00,-1.0,2438
911,1830911,17024,-656,924,17061.67,27.49,-1.00,-1.0,2381
914,1830914,17048,-556,1032,17088.26,27.54,-1.00,-1.0,2438
916,1830916,17048,-496,1024,17085.93,27.54,-1.00,-1.0,2376
919,1830919,17056,-552,1044,17096.84,27.64,-1.00,-1.0,2428
922,1830922,16932,-612,816,16962.70,27.54,-1.00,-1.0,2369
925,1830925,16996,-708,852,17032.06,27.49,-1.00,-1.0,2370
927,1830927,16980,-556,944,17015.31,27.49,-1.00,-1.0,2424
930,1830930,17072,-580,864,17103.69,27.64,-1.00,-1.0,2369
935,1830935,17100,-624,1008,17141.04,27.54,-1.00,-1.0,2433
938,1830938,16980,-532,1020,17018.93,27.64,-1.00,-1.0,2380
941,1830941,16976,-456,1016,17012.49,27.54,-1.00,-1.0,2438
943,1830943,17008,-692,964,17049.35,27.54,-1.00,-1.0,2375
946,1830946,16992,-496,924,17024.33,27.59,-1.00,-1.0,2421
949,1830949,17040,-572,876,17072.09,27.54,-1.00,-1.0,2371
952,1830952,17040,-540,852,17069.83,27.59,-1.00,-1.0,2423
954,1830954,16952,-508,1124,16996.82,27.54,-1.00,-1.0,2371
957,1830957,16968,-644,864,17002.18,27.59,-1.00,-1.0,2366
962,1830962,17088,-468,852,17115.63,27.54,-1.00,-1.0,2428
965,1830965,16980,-660,828,17012.98,27.64,-1.00,-1.0,2374
968,1830968,17048,-536,1048,17088.59,27.49,-1.00,-1.0,2434
970,1830970,17024,-588,1012,17064.19,27.54,-1.00,-1.0,2370
973,1830973,17136,-568,1040,17176.92,27.49,-1.00,-1.0,2421
976,1830976,17044,-632,980,17083.85,27.54,-1.00,-1.0,2371
979,1830979,17048,-576,956,17084.50,27.59,-1.00,-1.0,2421
981,1830981,17072,-584,988,17110.54,27.54,-1.00,-1.0,2359
986,1830986,17028,-664,804,17059.90,27.54,-1.00,-1.0,2432
989,1830989,16968,-544,1068,17010.28,27.54,-1.00,-1.0,2392
992,1830992,17060,-660,904,17096.68,27.59,-1.00,-1.0,2367
995,1830995,17040,-464,1012,17076.33,27.54,-1.00,-1.0,2436
997,1830997,17072,-556,860,17102.69,27.59,-1.00,-1.0,2368
1000,1831000,16924,-620,1104,16971.30,27.54,-1.00,-1.0,2421
1003,1831003,17088,-504,980,17123.50,27.59,-1.00,-1.0,2380
1006,1831006,16992,-620,860,17025.04,27.54,-1.00,-1.0,2422
1008,1831008,17000,-584,908,17034.25,27.54,-1.00,-1.0,2371
1013,1831013,17076,-588,940,17111.96,27.49,-1.00,-1.0,2422
1016,1831016,16964,-732,1024,17010.63,27.49,-1.00,-1.0,2371
1019,1831019,16992,-500,1056,17032.12,27.54,-1.00,-1.0,2442
1022,1831022,17064,-592,936,17099.90,27.49,-1.00,-1.0,2367
1024,1831024,17080,-612,860,17112.58,27.54,-1.00,-1.0,2422
1027,1831027,17100,-600,980,17138.56,27.59,-1.00,-1.0,2369
1030,1831030,17016,-604,768,17044.03,27.54,-1.00,-1.0,2370
1032,1831032,17032,-564,1064,17074.52,27.49,-1.00,-1.0,2423
1035,1831035,17028,-568,1072,17071.16,27.54,-1.00,-1.0,2370
1040,1831040,17024,-608,1068,17068.30,27.45,-1.00,-1.0,2423
1043,1831043,17132,-548,920,17165.43,27.49,-1.00,-1.0,2371
1046,1831046,17048,-572,920,17082.38,27.54,-1.00,-1.0,2429
1049,1831049,16892,-604,956,16929.81,27.54,-1.00,-1.0,2368
1051,1831051,17088,-544,764,17113.72,27.54,-1.00,-1.0,2422
1054,1831054,17048,-580,860,17079.53,27.54,-1.00,-1.0,2370
1057,1831057,17036,-640,788,17066.22,27.45,-1.00,-1.0,2430
1060,1831060,17092,-644,860,17125.73,27.54,-1.00,-1.0,2368
1064,1831064,17060,-640,1000,17101.26,27.54,-1.00,-1.0,2425
1067,1831067,17068,-532,1040,17107.93,27.54,-1.00,-1.0,2373
1070,1831070,17024,-596,1004,17063.99,27.54,-1.00,-1.0,2443
1073,1831073,17072,-488,1048,17111.10,27.54,-1.00,-1.0,2370
1075,1831075,16980,-552,956,17015.85,27.49,-1.00,-1.0,2369
1078,1831078,17124,-604,916,17159.12,27.64,-1.00,-1.0,2421
1081,1831081,17012,-508,996,17048.70,27.59,-1.00,-1.0,2368
1084,1831084,16988,-580,812,17017.28,27.54,-1.00,-1.0,2421
1086,1831086,17072,-568,1024,17112.11,27.59,-1.00,-1.0,2380
1091,1831091,16984,-580,988,17022.60,27.54,-1.00,-1.0,2423
1094,1831094,17056,-536,896,17087.93,27.54,-1.00,-1.0,2376
1097,1831097,16988,-588,948,17024.59,27.54,-1.00,-1.0,2436
1099,1831099,16984,-548,748,17009.29,27.45,-1.00,-1.0,2368
1102,1831102,17016,-528,904,17048.17,27.49,-1.00,-1.0,2421
1105,1831105,17032,-548,888,17063.94,27.54,-1.00,-1.0,2376
1108,1831108,16980,-572,944,17015.84,27.49,-1.00,-1.0,2421
1110,1831110,17076,-536,928,17109.60,27.59,-1.00,-1.0,2377
1113,1831113,17084,-496,900,17114.88,27.59,-1.00,-1.0,2379
1118,1831118,17032,-496,924,17064.26,27.59,-1.00,-1.0,2435
1121,1831121,16980,-480,800,17005.61,27.49,-1.00,-1.0,2380
1124,1831124,17012,-492,980,17047.30,27.59,-1.00,-1.0,2435
1127,1831127,16964,-560,1068,17006.81,27.49,-1.00,-1.0,2374
1129,1831129,17092,-568,964,17128.58,27.45,-1.00,-1.0,2411
1132,1831132,17036,-580,1064,17079.04,27.49,-1.00,-1.0,2384
1135,1831135,16948,-564,948,16983.86,27.54,-1.00,-1.0,2424
1138,1831138,17000,-620,940,17037.25,27.49,-1.00,-1.0,2369
1143,1831143,17036,-548,920,17069.62,27.49,-1.00,-1.0,2431
1145,1831145,17000,-604,964,17038.02,27.68,-1.00,-1.0,2375
1148,1831148,17032,-496,876,17061.72,27.64,-1.00,-1.0,2444
1151,1831151,17020,-568,928,17054.74,27.59,-1.00,-1.0,2372
1154,1831154,17052,-556,900,17084.78,27.45,-1.00,-1.0,2367
1156,1831156,17072,-552,904,17104.83,27.59,-1.00,-1.0,2424
1159,1831159,17028,-668,968,17068.57,27.64,-1.00,-1.0,2369
1162,1831162,17092,-632,1032,17134.79,27.45,-1.00,-1.0,2429
1165,1831165,17052,-496,940,17085.09,27.45,-1.00,-1.0,2368
1170,1831170,17024,-548,960,17059.85,27.64,-1.00,-1.0,2422
1172,1831172,17124,-520,920,17156.58,27.64,-1.00,-1.0,2372
1175,1831175,16976,-528,1012,17014.33,27.54,-1.00,-1.0,2439
1178,1831178,17052,-584,920,17086.78,27.64,-1.00,-1.0,2369
1181,1831181,17040,-628,852,17072.84,27.59,-1.00,-1.0,2421
1183,1831183,17172,-580,932,17207.05,27.54,-1.00,-1.0,2369
1186,1831186,16976,-628,936,17013.38,27.59,-1.00,-1.0,2421
1189,1831189,17020,-600,820,17050.30,27.54,-1.00,-1.0,2368
1192,1831192,17116,-588,920,17150.79,27.45,-1.00,-1.0,2367
1197,1831197,17048,-660,980,17088.89,27.54,-1.00,-1.0,2425
1199,1831199,17088,-624,1044,17131.23,27.54,-1.00,-1.0,2375
1202,1831202,17068,-556,1024,17107.73,27.54,-1.00,-1.0,2428
1205,1831205,17044,-540,920,17077.35,27.54,-1.00,-1.0,2368
1208,1831208,16944,-536,1008,16982.42,27.49,-1.00,-1.0,2429
1210,1831210,16944,-536,940,16978.52,27.64,-1.00,-1.0,2369
1213,1831213,17048,-544,852,17077.94,27.49,-1.00,-1.0,2421
1216,1831216,17116,-532,1004,17153.67,27.54,-1.00,-1.0,2367
1221,1831221,17048,-568,980,17085.59,27.54,-1.00,-1.0,2430
1224,1831224,16984,-588,952,17020.82,27.59,-1.00,-1.0,2374
1226,1831226,16956,-532,952,16991.04,27.64,-1.00,-1.0,2443
1229,1831229,16968,-492,796,16993.79,27.54,-1.00,-1.0,2377
1232,1831232,17000,-640,1096,17047.31,27.64,-1.00,-1.0,2367
1235,1831235,16960,-576,912,16994.27,27.59,-1.00,-1.0,2422
1237,1831237,17104,-528,832,17132.36,27.49,-1.00,-1.0,2368
1240,1831240,17032,-644,904,17068.13,27.59,-1.00,-1.0,2421
1243,1831243,17032,-468,888,17061.55,27.49,-1.00,-1.0,2376
1248,1831248,17044,-528,940,17078.07,27.45,-1.00,-1.0,2422
1250,1831250,16968,-548,908,17001.11,27.45,-1.00,-1.0,2375
1253,1831253,17112,-540,812,17139.76,27.59,-1.00,-1.0,2436
1256,1831256,17040,-576,808,17068.87,27.59,-1.00,-1.0,2359
1259,1831259,17024,-492,912,17055.51,27.49,-1.00,-1.0,2428
1262,1831262,16988,-608,884,17021.85,27.59,-1.00,-1.0,2370
1264,1831264,16984,-600,912,17019.05,27.59,-1.00,-1.0,2420
1267,1831267,17004,-588,956,17041.00,27.59,-1.00,-1.0,2369
1270,1831270,17104,-568,1076,17147.22,27.64,-1.00,-1.0,2371
1274,1831274,16928,-636,976,16968.04,27.64,-1.00,-1.0,2437
1277,1831277,16956,-596,980,16994.75,27.54,-1.00,-1.0,2378
1280,1831280,16972,-592,856,17003.88,27.54,-1.00,-1.0,2435
1283,1831283,17028,-436,836,17054.08,27.54,-1.00,-1.0,2374
1285,1831285,16956,-620,936,16993.13,27.49,-1.00,-1.0,2408
1288,1831288,17036,-616,960,17074.14,27.54,-1.00,-1.0,2384
1291,1831291,16976,-612,1040,17018.83,27.49,-1.00,-1.0,2421
1294,1831294,16984,-568,956,17020.37,27.54,-1.00,-1.0,2370
1298,1831298,17064,-592,780,17092.07,27.64,-1.00,-1.0,2424
1301,1831301,17064,-652,924,17101.43,27.49,-1.00,-1.0,2372
1304,1831304,17064,-536,892,17095.70,27.45,-1.00,-1.0,2441
1307,1831307,17080,-632,1080,17125.78,27.54,-1.00,-1.0,2369
1309,1831309,17104,-564,912,17137.58,27.59,-1.00,-1.0,2368
1312,1831312,17100,-556,984,17137.31,27.59,-1.00,-1.0,2421
1315,1831315,16956,-492,948,16989.61,27.54,-1.00,-1.0,2368
1318,1831318,17132,-568,1052,17173.66,27.54,-1.00,-1.0,2432
1321,1831321,17088,-624,888,17122.43,27.54,-1.00,-1.0,2371
1326,1831326,17044,-548,944,17078.92,27.64,-1.00,-1.0,2422
1328,1831328,17052,-520,972,17087.59,27.49,-1.00,-1.0,2371
1331,1831331,17036,-520,980,17072.09,27.54,-1.00,-1.0,2435
1334,1831334,17012,-564,936,17047.06,27.54,-1.00,-1.0,2377
1337,1831337,16992,-616,884,17026.13,27.54,-1.00,-1.0,2422
1339,1831339,16972,-556,972,17008.90,27.64,-1.00,-1.0,2369
1342,1831342,17028,-620,816,17058.81,27.64,-1.00,-1.0,2438
1345,1831345,17024,-580,1040,17065.60,27.54,-1.00,-1.0,2364
1350,1831350,16960,-528,956,16995.13,27.64,-1.00,-1.0,2429
1353,1831353,17056,-580,988,17094.43,27.59,-1.00,-1.0,2372
1355,1831355,16996,-552,920,17029.83,27.64,-1.00,-1.0,2366
1358,1831358,17080,-536,796,17106.94,27.59,-1.00,-1.0,2430
1361,1831361,17004,-592,836,17034.83,27.54,-1.00,-1.0,2375
1363,1831363,16992,-608,1000,17032.26,27.59,-1.00,-1.0,2429
1366,1831366,16992,-648,848,17025.48,27.59,-1.00,-1.0,2383
1369,1831369,17028,-592,992,17067.14,27.40,-1.00,-1.0,2422
1372,1831372,17012,-552,772,17038.45,27.54,-1.00,-1.0,2370
1377,1831377,17056,-520,1060,17096.82,27.54,-1.00,-1.0,2423
1379,1831379,17024,-564,924,17058.38,27.64,-1.00,-1.0,2372
1382,1831382,17008,-568,952,17044.09,27.59,-1.00,-1.0,2445
1385,1831385,17128,-636,872,17161.97,27.49,-1.00,-1.0,2376
1388,1831388,17084,-580,796,17112.37,27.59,-1.00,-1.0,2430
1390,1831390,17112,-544,944,17146.65,27.59,-1.00,-1.0,2375
1393,1831393,16932,-644,880,16967.08,27.54,-1.00,-1.0,2368
1396,1831396,16968,-612,896,17002.66,27.54,-1.00,-1.0,2429
1399,1831399,17008,-580,796,17036.49,27.49,-1.00,-1.0,2366
1404,1831404,17156,-640,896,17191.30,27.49,-1.00,-1.0,2429
1406,1831406,17044,-552,912,17077.31,27.40,-1.00,-1.0,2375
1409,1831409,17036,-588,952,17072.71,27.49,-1.00,-1.0,2443
1412,1831412,16976,-516,944,17010.05,27.59,-1.00,-1.0,2368
1415,1831415,16924,-532,1016,16962.81,27.54,-1.00,-1.0,2427
1417,1831417,17024,-560,1012,17063.24,27.59,-1.00,-1.0,2372
1420,1831420,17016,-532,920,17049.15,27.54,-1.00,-1.0,2422
1423,1831423,17048,-444,880,17076.47,27.49,-1.00,-1.0,2369
1428,1831428,17144,-592,1060,17186.94,27.59,-1.00,-1.0,2431
1431,1831431,16944,-556,928,16978.50,27.64,-1.00,-1.0,2369
1433,1831433,16980,-552,828,17009.13,27.49,-1.00,-1.0,2354
1436,1831436,17060,-504,1056,17100.08,27.54,-1.00,-1.0,2436
1439,1831439,16960,-640,964,16999.43,27.54,-1.00,-1.0,2368
1442,1831442,17024,-580,872,17056.18,27.54,-1.00,-1.0,2421
1444,1831444,17172,-624,884,17206.06,27.54,-1.00,-1.0,2370
1447,1831447,17060,-508,1008,17097.30,27.54,-1.00,-1.0,2421
1450,1831450,17048,-580,800,17076.61,27.54,-1.00,-1.0,2368
1455,1831455,16964,-560,860,16995.01,27.64,-1.00,-1.0,2422
1457,1831457,16944,-536,1104,16988.38,27.54,-1.00,-1.0,2380
1460,1831460,17008,-464,976,17042.30,27.64,-1.00,-1.0,2436
1463,1831463,17028,-604,840,17059.40,27.64,-1.00,-1.0,2372
1466,1831466,16984,-544,880,17015.48,27.49,-1.00,-1.0,2429
1469,1831469,17008,-624,820,17039.19,27.54,-1.00,-1.0,2368
1471,1831471,17016,-612,1016,17057.29,27.49,-1.00,-1.0,2365
1474,1831474,17068,-424,944,17099.34,27.59,-1.00,-1.0,2433
1477,1831477,17064,-620,940,17101.11,27.54,-1.00,-1.0,2368
1482,1831482,17028,-588,916,17062.75,27.49,-1.00,-1.0,2423
1484,1831484,17048,-616,944,17085.22,27.49,-1.00,-1.0,2373
1487,1831487,17012,-600,984,17050.99,27.59,-1.00,-1.0,2428
1490,1831490,17036,-580,992,17074.71,27.49,-1.00,-1.0,2376
1493,1831493,17020,-584,828,17050.13,27.59,-1.00,-1.0,2431
1495,1831495,16916,-536,928,16949.91,27.49,-1.00,-1.0,2372
1498,1831498,17080,-564,928,17114.49,27.54,-1.00,-1.0,2438
1501,1831501,17052,-628,916,17088.13,27.49,-1.00,-1.0,2376
1506,1831506,17104,-640,780,17133.73,27.54,-1.00,-1.0,2423
1508,1831508,17044,-548,868,17074.88,27.59,-1.00,-1.0,2372
1511,1831511,16964,-564,896,16997.01,27.49,-1.00,-1.0,2373
1514,1831514,16972,-636,856,17005.47,27.54,-1.00,-1.0,2443
1516,1831516,16908,-568,912,16942.10,27.45,-1.00,-1.0,2376
1519,1831519,17100,-580,868,17131.84,27.54,-1.00,-1.0,2422
1522,1831522,17128,-576,948,17163.88,27.54,-1.00,-1.0,2356
1525,1831525,17112,-544,992,17149.36,27.54,-1.00,-1.0,2428
1528,1831528,17044,-592,860,17075.95,27.59,-1.00,-1.0,2375
1533,1831533,17040,-592,992,17079.11,27.59,-1.00,-1.0,2430
1536,1831536,16984,-612,944,17021.22,27.64,-1.00,-1.0,2373
1538,1831538,17060,-560,928,17094.40,27.68,-1.00,-1.0,2436
1541,1831541,17012,-568,1044,17053.47,27.59,-1.00,-1.0,2372
1544,1831544,17088,-528,940,17121.98,27.45,-1.00,-1.0,2428
1547,1831547,16972,-488,972,17006.81,27.59,-1.00,-1.0,2368
1549,1831549,16912,-644,1036,16955.94,27.54,-1.00,-1.0,2370
1552,1831552,16928,-588,908,16962.53,27.59,-1.00,-1.0,2422
1555,1831555,17016,-604,984,17055.13,27.54,-1.00,-1.0,2376
1560,1831560,17072,-536,924,17105.39,27.54,-1.00,-1.0,2426
1563,1831563,16992,-600,880,17025.35,27.49,-1.00,-1.0,2372
1565,1831565,17012,-584,908,17046.22,27.64,-1.00,-1.0,2451
1568,1831568,17108,-664,824,17140.70,27.54,-1.00,-1.0,2369
1571,1831571,16996,-576,1100,17041.30,27.64,-1.00,-1.0,2429
1574,1831574,17060,-556,936,17094.70,27.54,-1.00,-1.0,2373
1576,1831576,17072,-632,860,17105.33,27.54,-1.00,-1.0,2432
1579,1831579,17008,-592,976,17046.26,27.64,-1.00,-1.0,2376
1584,1831584,17112,-508,932,17144.89,27.64,-1.00,-1.0,2422
1587,1831587,17096,-608,952,17133.28,27.54,-1.00,-1.0,2381
1589,1831589,17072,-536,1000,17109.66,27.54,-1.00,-1.0,2373
1592,1831592,17072,-604,1052,17115.04,27.49,-1.00,-1.0,2434
1595,1831595,17064,-636,980,17103.95,27.49,-1.00,-1.0,2369
1598,1831598,17004,-680,992,17046.48,27.59,-1.00,-1.0,2428
1601,1831601,16940,-576,864,16971.80,27.49,-1.00,-1.0,2368
1603,1831603,17084,-616,920,17119.84,27.54,-1.00,-1.0,2422
1606,1831606,17092,-568,848,17122.45,27.59,-1.00,-1.0,2369
1611,1831611,17044,-588,1092,17089.06,27.49,-1.00,-1.0,2424
1614,1831614,17140,-584,1012,17179.78,27.49,-1.00,-1.0,2372
1617,1831617,17096,-644,936,17133.71,27.49,-1.00,-1.0,2435
1619,1831619,16844,-560,996,16882.71,27.49,-1.00,-1.0,2369
1622,1831622,17084,-532,1052,17124.62,27.64,-1.00,-1.0,2422
1625,1831625,17016,-552,908,17049.15,27.45,-1.00,-1.0,2420
1628,1831628,16964,-512,888,16994.94,27.59,-1.00,-1.0,2431
1631,1831631,17008,-676,920,17046.27,27.59,-1.00,-1.0,2375
1633,1831633,17060,-596,940,17096.27,27.54,-1.00,-1.0,2366
1638,1831638,17012,-580,912,17046.30,27.49,-1.00,-1.0,2424
1641,1831641,17016,-624,840,17048.14,27.59,-1.00,-1.0,2379
1644,1831644,17028,-500,940,17061.25,27.54,-1.00,-1.0,2441
1647,1831647,17032,-532,828,17060.41,27.45,-1.00,-1.0,2369
1649,1831649,16960,-624,892,16994.90,27.54,-1.00,-1.0,2424
1652,1831652,17008,-604,968,17046.23,27.64,-1.00,-1.0,2369
1655,1831655,17056,-560,1048,17097.34,27.54,-1.00,-1.0,2425
1658,1831658,17044,-600,848,17075.63,27.54,-1.00,-1.0,2368
1663,1831663,16984,-480,900,17014.60,27.59,-1.00,-1.0,2423
1665,1831665,17020,-648,964,17059.59,27.59,-1.00,-1.0,2375
1668,1831668,17200,-556,824,17228.70,27.54,-1.00,-1.0,2435
1671,1831671,17076,-568,924,17110.41,27.49,-1.00,-1.0,2367
1673,1831673,17008,-592,940,17044.24,27.54,-1.00,-1.0,2370
1676,1831676,16992,-568,900,17025.29,27.49,-1.00,-1.0,2437
1679,1831679,17008,-508,980,17043.78,27.59,-1.00,-1.0,2375
1682,1831682,17000,-592,948,17036.70,27.59,-1.00,-1.0,2436
1684,1831684,16976,-540,992,17013.53,27.54,-1.00,-1.0,2379
1689,1831689,16980,-572,936,17015.39,27.64,-1.00,-1.0,2437
1692,1831692,16948,-448,964,16981.30,27.49,-1.00,-1.0,2371
1695,1831695,17032,-540,920,17065.38,27.64,-1.00,-1.0,2437
1698,1831698,17004,-600,868,17036.71,27.59,-1.00,-1.0,2413
1701,1831701,16984,-552,920,17017.85,27.64,-1.00,-1.0,2431
1703,1831703,17040,-504,1036,17078.90,27.54,-1.00,-1.0,2374
1706,1831706,16912,-588,880,16945.08,27.54,-1.00,-1.0,2417
1709,1831709,17044,-668,992,17085.91,27.45,-1.00,-1.0,2372
1711,1831711,17088,-676,1000,17130.58,27.54,-1.00,-1.0,2369
1716,1831716,17124,-552,692,17146.86,27.64,-1.00,-1.0,2415
1719,1831719,17036,-512,912,17068.07,27.54,-1.00,-1.0,2372
1722,1831722,16908,-620,924,16944.58,27.54,-1.00,-1.0,2432
1724,1831724,17128,-572,792,17155.84,27.54,-1.00,-1.0,2369
1727,1831727,17012,-636,876,17046.41,27.54,-1.00,-1.0,2422
1730,1831730,17104,-580,1000,17143.02,27.54,-1.00,-1.0,2370
1733,1831733,17000,-676,1048,17045.68,27.54,-1.00,-1.0,2409
1735,1831735,17000,-616,900,17034.95,27.54,-1.00,-1.0,2369
1740,1831740,17056,-556,972,17092.72,27.54,-1.00,-1.0,2436
1743,1831743,16992,-580,876,17024.45,27.59,-1.00,-1.0,2375
1746,1831746,17004,-600,908,17038.79,27.45,-1.00,-1.0,2430
1748,1831748,17036,-484,1068,17076.30,27.54,-1.00,-1.0,2376
1751,1831751,17124,-612,844,17155.71,27.59,-1.00,-1.0,2365
1754,1831754,17136,-692,1092,17184.70,27.59,-1.00,-1.0,2429
1757,1831757,16992,-568,1024,17032.30,27.59,-1.00,-1.0,2372
1759,1831759,17152,-552,892,17184.05,27.59,-1.00,-1.0,2433
1762,1831762,17028,-572,968,17065.08,27.49,-1.00,-1.0,2368
1767,1831767,17060,-616,1008,17100.85,27.59,-1.00,-1.0,2429
1770,1831770,16980,-580,1040,17021.70,27.54,-1.00,-1.0,2372
1773,1831773,17056,-672,924,17094.22,27.59,-1.00,-1.0,2431
1775,1831775,17076,-640,1020,17118.40,27.54,-1.00,-1.0,2369
1778,1831778,16852,-580,988,16890.90,27.59,-1.00,-1.0,2421
1781,1831781,17020,-660,868,17054.89,27.59,-1.00,-1.0,2379
1784,1831784,16984,-464,876,17012.90,27.59,-1.00,-1.0,2421
1786,1831786,17132,-528,928,17165.24,27.64,-1.00,-1.0,2369
1789,1831789,16968,-504,960,17002.61,27.49,-1.00,-1.0,2366
1794,1831794,16920,-608,792,16949.43,27.59,-1.00,-1.0,2428
1797,1831797,16940,-568,1008,16979.47,27.54,-1.00,-1.0,2372
1800,1831800,16980,-568,904,17013.53,27.59,-1.00,-1.0,2431
1802,1831802,17036,-524,872,17066.35,27.54,-1.00,-1.0,2369
1805,1831805,17024,-520,1044,17063.91,27.59,-1.00,-1.0,2421
1808,1831808,17044,-528,896,17075.70,27.49,-1.00,-1.0,2369
1811,1831811,17068,-568,1024,17108.12,27.49,-1.00,-1.0,2421
1813,1831813,17008,-600,948,17044.96,27.59,-1.00,-1.0,2370
1818,1831818,17056,-572,984,17093.93,27.54,-1.00,-1.0,2427
1821,1831821,17072,-572,932,17106.99,27.54,-1.00,-1.0,2375
1824,1831824,17016,-604,960,17053.76,27.59,-1.00,-1.0,2436
1827,1831827,17044,-640,948,17082.34,27.59,-1.00,-1.0,2368
1829,1831829,16976,-568,924,17010.61,27.54,-1.00,-1.0,2373
1832,1831832,17036,-544,1060,17077.61,27.54,-1.00,-1.0,2424
1835,1831835,17036,-636,840,17068.55,27.45,-1.00,-1.0,2368
1837,1831837,17032,-536,1000,17069.75,27.54,-1.00,-1.0,2431
1840,1831840,17020,-504,992,17056.33,27.54,-1.00,-1.0,2383
1845,1831845,17012,-608,820,17042.60,27.54,-1.00,-1.0,2427
1848,1831848,17000,-580,932,17035.40,27.49,-1.00,-1.0,2384
1851,1831851,17000,-508,960,17034.66,27.54,-1.00,-1.0,2444
1853,1831853,17040,-584,888,17073.11,27.54,-1.00,-1.0,2371
1856,1831856,17112,-600,968,17149.86,27.54,-1.00,-1.0,2415
1859,1831859,16992,-616,784,17021.23,27.54,-1.00,-1.0,2377
1862,1831862,17028,-508,908,17059.76,27.54,-1.00,-1.0,2432
1864,1831864,17096,-504,888,17126.46,27.54,-1.00,-1.0,2377
1869,1831869,17060,-652,912,17096.80,27.54,-1.00,-1.0,2428
1872,1831872,16984,-520,932,17017.50,27.54,-1.00,-1.0,2373
1875,1831875,17096,-564,892,17128.54,27.54,-1.00,-1.0,2368
1878,1831878,16992,-420,1112,17033.53,27.59,-1.00,-1.0,2431
1880,1831880,17028,-576,868,17059.84,27.64,-1.00,-1.0,2369
1883,1831883,17028,-544,984,17065.08,27.59,-1.00,-1.0,2421
1886,1831886,17008,-748,972,17052.17,27.59,-1.00,-1.0,2368
1889,1831889,16944,-564,1024,16984.28,27.59,-1.00,-1.0,2422
1891,1831891,17008,-576,992,17046.64,27.59,-1.00,-1.0,2369
1896,1831896,17132,-600,1040,17174.02,27.68,-1.00,-1.0,2431
1899,1831899,16988,-520,956,17022.82,27.49,-1.00,-1.0,2371
1902,1831902,16956,-600,888,16989.83,27.54,-1.00,-1.0,2423
1904,1831904,17080,-612,772,17108.39,27.59,-1.00,-1.0,2369
1907,1831907,17104,-532,960,17139.18,27.54,-1.00,-1.0,2429
1910,1831910,17048,-544,900,17080.40,27.49,-1.00,-1.0,2369
1912,1831912,16960,-516,940,16993.87,27.54,-1.00,-1.0,2376
1915,1831915,16896,-520,1088,16938.98,27.59,-1.00,-1.0,2422
1918,1831918,17084,-576,1072,17127.29,27.59,-1.00,-1.0,2369
1923,1831923,16920,-476,840,16947.52,27.54,-1.00,-1.0,2434
1926,1831926,17048,-560,872,17079.47,27.64,-1.00,-1.0,2372
1928,1831928,17064,-520,892,17095.21,27.59,-1.00,-1.0,2439
1931,1831931,17032,-592,888,17065.40,27.54,-1.00,-1.0,2377
1934,1831934,17020,-600,904,17054.55,27.49,-1.00,-1.0,2424
1937,1831937,17052,-616,848,17084.18,27.49,-1.00,-1.0,2370
1939,1831939,16952,-544,880,16983.54,27.59,-1.00,-1.0,2429
1942,1831942,17008,-580,952,17044.49,27.59,-1.00,-1.0,2369
1947,1831947,17112,-616,956,17149.75,27.49,-1.00,-1.0,2427
1950,1831950,16952,-448,872,16980.32,27.59,-1.00,-1.0,2372
1953,1831953,17080,-504,944,17113.49,27.54,-1.00,-1.0,2365
1955,1831955,17128,-528,912,17160.39,27.45,-1.00,-1.0,2433
1958,1831958,17036,-516,1040,17075.51,27.54,-1.00,-1.0,2369
1961,1831961,16956,-556,912,16989.61,27.59,-1.00,-1.0,2428
1964,1831964,16916,-668,748,16945.70,27.54,-1.00,-1.0,2369
1966,1831966,17088,-540,1000,17125.75,27.59,-1.00,-1.0,2429
1969,1831969,17116,-528,672,17137.32,27.54,-1.00,-1.0,2369
1974,1831974,16960,-640,972,16999.88,27.54,-1.00,-1.0,2428
1977,1831977,17052,-432,796,17076.04,27.59,-1.00,-1.0,2377
1980,1831980,17028,-544,1076,17070.63,27.54,-1.00,-1.0,2438
1983,1831983,17172,-532,916,17204.64,27.54,-1.00,-1.0,2367
1985,1831985,17000,-656,1040,17044.41,27.54,-1.00,-1.0,2423
1988,1831988,17032,-572,944,17067.73,27.54,-1.00,-1.0,2369
1991,1831991,17000,-516,1016,17038.15,27.59,-1.00,-1.0,2367
1993,1831993,16940,-556,1016,16979.55,27.49,-1.00,-1.0,2432
1996,1831996,17108,-604,992,17147.38,27.54,-1.00,-1.0,2369
2001,1832001,17000,-696,936,17039.97,27.45,-1.00,-1.0,2414
2004,1832004,17040,-568,900,17073.20,27.54,-1.00,-1.0,2373
2007,1832007,17040,-644,912,17076.54,27.54,-1.00,-1.0,2438
2010,1832010,17140,-508,852,17168.68,27.54,-1.00,-1.0,2367
2012,1832012,16964,-636,780,16993.83,27.54,-1.00,-1.0,2423
2015,1832015,17000,-652,1036,17044.01,27.45,-1.00,-1.0,2369
2018,1832018,17044,-616,936,17080.79,27.54,-1.00,-1.0,2430
2021,1832021,17128,-528,852,17157.30,27.54,-1.00,-1.0,2368
2026,1832026,16924,-500,896,16955.08,27.54,-1.00,-1.0,2428
2028,1832028,17088,-592,948,17124.51,27.54,-1.00,-1.0,2374
2031,1832031,17060,-636,920,17096.62,27.49,-1.00,-1.0,2372
2034,1832034,17012,-544,832,17041.02,27.49,-1.00,-1.0,2432
2036,1832036,17012,-508,972,17047.32,27.59,-1.00,-1.0,2372
2039,1832039,17048,-592,892,17081.58,27.59,-1.00,-1.0,2436
2042,1832042,17148,-572,720,17172.64,27.59,-1.00,-1.0,2377
2045,1832045,16980,-588,792,17008.63,27.54,-1.00,-1.0,2434
2047,1832047,17036,-504,1012,17073.47,27.49,-1.00,-1.0,2372
2053,1832053,16996,-544,888,17027.88,27.68,-1.00,-1.0,2414
2055,1832055,17060,-568,964,17096.65,27.59,-1.00,-1.0,2414
2058,1832058,17144,-520,904,17175.69,27.54,-1.00,-1.0,2431
2061,1832061,16968,-604,980,17007.01,27.54,-1.00,-1.0,2375
2064,1832064,17004,-624,924,17040.52,27.54,-1.00,-1.0,2416
2067,1832067,17044,-544,772,17070.14,27.54,-1.00,-1.0,2375
2069,1832069,17020,-668,904,17057.08,27.59,-1.00,-1.0,2365
2072,1832072,17072,-532,896,17103.77,27.68,-1.00,-1.0,2425
2075,1832075,16976,-612,884,17010.01,27.59,-1.00,-1.0,2373
2080,1832080,17056,-616,816,17086.62,27.49,-1.00,-1.0,2423
2082,1832082,16920,-520,868,16950.23,27.64,-1.00,-1.0,2372
2085,1832085,16940,-496,1060,16980.38,27.59,-1.00,-1.0,2436
2088,1832088,17012,-596,996,17051.55,27.49,-1.00,-1.0,2369
2091,1832091,17024,-600,792,17052.97,27.40,-1.00,-1.0,2422
2093,1832093,17068,-568,960,17104.41,27.49,-1.00,-1.0,2369
2096,1832096,17000,-536,900,17032.24,27.59,-1.00,-1.0,2422
2099,1832099,16992,-660,964,17032.12,27.49,-1.00,-1.0,2375
2104,1832104,16988,-520,920,17020.84,27.59,-1.00,-1.0,2423
2106,1832106,17088,-596,904,17122.27,27.49,-1.00,-1.0,2372
2109,1832109,17032,-604,896,17066.24,27.54,-1.00,-1.0,2353
2112,1832112,16956,-612,964,16994.40,27.54,-1.00,-1.0,2443
2114,1832114,17064,-560,932,17098.61,27.64,-1.00,-1.0,2373
2117,1832117,16952,-556,944,16987.37,27.59,-1.00,-1.0,2421
2120,1832120,16976,-644,960,17015.31,27.54,-1.00,-1.0,2370
2123,1832123,17104,-580,788,17131.96,27.59,-1.00,-1.0,2421
2125,1832125,17028,-580,1004,17067.43,27.54,-1.00,-1.0,2370
2130,1832130,17028,-568,1048,17069.67,27.54,-1.00,-1.0,2423
2133,1832133,16948,-460,1012,16984.42,27.59,-1.00,-1.0,2381
2136,1832136,17076,-572,1028,17116.48,27.54,-1.00,-1.0,2449
2138,1832138,16932,-556,924,16966.31,27.54,-1.00,-1.0,2380
2141,1832141,17052,-500,896,17082.84,27.54,-1.00,-1.0,2421
2144,1832144,17116,-572,880,17148.15,27.54,-1.00,-1.0,2358
2147,1832147,16996,-544,832,17025.04,27.59,-1.00,-1.0,2433
2149,1832149,17028,-552,952,17063.52,27.64,-1.00,-1.0,2375
2152,1832152,17052,-488,1028,17089.93,27.49,-1.00,-1.0,2373
2157,1832157,17016,-524,896,17047.63,27.54,-1.00,-1.0,2433
2160,1832160,17200,-536,1116,17244.50,27.54,-1.00,-1.0,2377
2163,1832163,16988,-572,932,17023.16,27.54,-1.00,-1.0,2436
2166,1832166,16996,-548,904,17028.84,27.54,-1.00,-1.0,2369
2169,1832169,16976,-656,832,17009.03,27.59,-1.00,-1.0,2424
2171,1832171,17008,-596,892,17041.80,27.45,-1.00,-1.0,2372
2174,1832174,16988,-536,896,17020.05,27.54,-1.00,-1.0,2424
2177,1832177,17020,-644,972,17059.89,27.54,-1.00,-1.0,2367
2182,1832182,17060,-600,900,17094.26,27.45,-1.00,-1.0,2422
2184,1832184,17096,-588,876,17128.52,27.64,-1.00,-1.0,2371
2187,1832187,16948,-552,1000,16986.45,27.49,-1.00,-1.0,2448
2190,1832190,17016,-628,992,17056.46,27.64,-1.00,-1.0,2372
2193,1832193,17008,-496,900,17039.02,27.49,-1.00,-1.0,2369
2195,1832195,17048,-432,912,17077.84,27.59,-1.00,-1.0,2421
2198,1832198,17080,-488,992,17115.74,27.49,-1.00,-1.0,2368
2201,1832201,17032,-560,1000,17070.52,27.54,-1.00,-1.0,2430
2204,1832204,16952,-520,956,16986.90,27.59,-1.00,-1.0,2368
2208,1832208,17016,-580,1036,17057.37,27.59,-1.00,-1.0,2430
2211,1832211,17036,-460,932,17067.67,27.59,-1.00,-1.0,2374
2214,1832214,17028,-596,928,17063.68,27.59,-1.00,-1.0,2435
2217,1832217,17012,-568,872,17043.80,27.49,-1.00,-1.0,2367
2220,1832220,16908,-588,940,16944.31,27.54,-1.00,-1.0,2422
2222,1832222,17084,-640,816,17115.45,27.49,-1.00,-1.0,2369
2225,1832225,16932,-580,864,16963.95,27.54,-1.00,-1.0,2421
2228,1832228,17052,-484,1088,17093.53,27.59,-1.00,-1.0,2368
2231,1832231,17000,-588,916,17034.81,27.54,-1.00,-1.0,2368
2236,1832236,17064,-512,940,17097.54,27.59,-1.00,-1.0,2422
2238,1832238,17028,-520,984,17064.33,27.49,-1.00,-1.0,2375
2241,1832241,16996,-532,852,17025.66,27.54,-1.00,-1.0,2435
2244,1832244,17056,-572,884,17088.47,27.59,-1.00,-1.0,2368
2247,1832247,17056,-588,916,17090.70,27.54,-1.00,-1.0,2422
2249,1832249,17036,-536,1044,17076.37,27.54,-1.00,-1.0,2373
2252,1832252,17048,-596,1016,17088.64,27.64,-1.00,-1.0,2421
2255,1832255,16964,-576,1024,17004.64,27.54,-1.00,-1.0,2371
2260,1832260,17032,-568,932,17066.94,27.59,-1.00,-1.0,2423
2262,1832262,17032,-580,1064,17075.05,27.59,-1.00,-1.0,2380
2265,1832265,17072,-520,964,17107.10,27.54,-1.00,-1.0,2436
2268,1832268,17020,-496,988,17055.87,27.54,-1.00,-1.0,2373
2271,1832271,17012,-540,1016,17050.87,27.54,-1.00,-1.0,2368
2273,1832273,17008,-632,912,17044.16,27.49,-1.00,-1.0,2436
2276,1832276,17032,-456,1032,17069.33,27.59,-1.00,-1.0,2376
2279,1832279,17080,-576,884,17112.56,27.59,-1.00,-1.0,2424
2282,1832282,17012,-596,932,17047.93,27.59,-1.00,-1.0,2369
2287,1832287,16904,-552,944,16939.33,27.64,-1.00,-1.0,2423
2289,1832289,16936,-476,1056,16975.56,27.54,-1.00,-1.0,2373
2292,1832292,16972,-556,832,17001.47,27.49,-1.00,-1.0,2435
2295,1832295,16896,-572,896,16929.41,27.54,-1.00,-1.0,2377
2298,1832298,17108,-556,896,17140.47,27.49,-1.00,-1.0,2422
2300,1832300,17060,-620,928,17096.47,27.49,-1.00,-1.0,2369
2303,1832303,17008,-632,880,17042.47,27.59,-1.00,-1.0,2438
2306,1832306,16976,-676,904,17013.49,27.64,-1.00,-1.0,2380
2311,1832311,16972,-552,1016,17011.34,27.59,-1.00,-1.0,2429
2313,1832313,17140,-556,1008,17178.62,27.59,-1.00,-1.0,2383
2316,1832316,17016,-532,936,17050.03,27.54,-1.00,-1.0,2365
2319,1832319,17008,-556,884,17040.03,27.54,-1.00,-1.0,2438
2322,1832322,17020,-536,1036,17059.92,27.54,-1.00,-1.0,2368
2324,1832324,17024,-616,868,17057.24,27.59,-1.00,-1.0,2423
2327,1832327,17152,-608,940,17188.50,27.64,-1.00,-1.0,2369
2330,1832330,17040,-548,1016,17079.06,27.49,-1.00,-1.0,2431
2333,1832333,17036,-608,920,17071.65,27.49,-1.00,-1.0,2374
2337,1832337,17024,-624,1068,17068.88,27.59,-1.00,-1.0,2423
2340,1832340,17060,-576,840,17090.38,27.54,-1.00,-1.0,2374
2343,1832343,17036,-516,908,17067.98,27.59,-1.00,-1.0,2438
2346,1832346,17100,-580,964,17136.97,27.49,-1.00,-1.0,2367
2348,1832348,17092,-556,792,17119.37,27.59,-1.00,-1.0,2423
2351,1832351,17044,-548,1032,17084.01,27.49,-1.00,-1.0,2372
2354,1832354,17012,-540,996,17049.69,27.45,-1.00,-1.0,2370
2357,1832357,17088,-624,824,17119.23,27.54,-1.00,-1.0,2427
2360,1832360,17024,-592,904,17058.26,27.64,-1.00,-1.0,2376
2365,1832365,17044,-628,952,17082.11,27.59,-1.00,-1.0,2423
2367,1832367,17076,-520,960,17110.87,27.49,-1.00,-1.0,2371
2370,1832370,17000,-616,804,17030.15,27.54,-1.00,-1.0,2445
2373,1832373,17072,-608,856,17104.26,27.54,-1.00,-1.0,2374
2376,1832376,16992,-576,944,17027.95,27.64,-1.00,-1.0,2430
2378,1832378,17084,-640,980,17124.05,27.54,-1.00,-1.0,2375
2381,1832381,17060,-496,936,17092.86,27.64,-1.00,-1.0,2430
2384,1832384,17040,-600,928,17075.79,27.45,-1.00,-1.0,2368
2389,1832389,16952,-548,908,16985.14,27.54,-1.00,-1.0,2430
2392,1832392,16988,-572,932,17023.16,27.49,-1.00,-1.0,2368
2394,1832394,17056,-544,964,17091.88,27.64,-1.00,-1.0,2368
2397,1832397,17004,-640,1016,17046.35,27.59,-1.00,-1.0,2435
2400,1832400,17024,-568,852,17054.77,27.54,-1.00,-1.0,2368
2403,1832403,17136,-492,1064,17176.05,27.59,-1.00,-1.0,2421
2405,1832405,17000,-512,928,17033.01,27.45,-1.00,-1.0,2369
2408,1832408,17072,-580,920,17106.61,27.49,-1.00,-1.0,2422
2411,1832411,17064,-604,892,17097.97,27.45,-1.00,-1.0,2368
2416,1832416,17008,-512,944,17041.87,27.54,-1.00,-1.0,2427
2418,1832418,17072,-552,756,17097.64,27.54,-1.00,-1.0,2383
2421,1832421,17024,-540,1000,17061.89,27.49,-1.00,-1.0,2428
2424,1832424,17060,-528,792,17086.53,27.45,-1.00,-1.0,2371
2427,1832427,17016,-588,956,17052.97,27.49,-1.00,-1.0,2429
2429,1832429,17048,-636,920,17084.65,27.40,-1.00,-1.0,2370
2432,1832432,17052,-560,920,17085.98,27.59,-1.00,-1.0,2366
2435,1832435,17032,-504,808,17058.60,27.54,-1.00,-1.0,2428
2438,1832438,17088,-604,956,17125.38,27.45,-1.00,-1.0,2367
2443,1832443,16992,-584,948,17028.44,27.54,-1.00,-1.0,2468
2446,1832446,17024,-624,1024,17066.18,27.54,-1.00,-1.0,2366
2448,1832448,17040,-636,916,17076.45,27.54,-1.00,-1.0,2434
2451,1832451,16976,-528,876,17006.79,27.54,-1.00,-1.0,2374
2454,1832454,17020,-472,872,17048.86,27.54,-1.00,-1.0,2427
2457,1832457,17084,-532,1000,17121.51,27.54,-1.00,-1.0,2368
2459,1832459,17168,-560,784,17195.01,27.54,-1.00,-1.0,2431
2462,1832462,17056,-524,1016,17094.27,27.45,-1.00,-1.0,2373
2467,1832467,17012,-480,880,17041.51,27.49,-1.00,-1.0,2444
2470,1832470,17076,-632,1020,17118.11,27.49,-1.00,-1.0,2369
2473,1832473,17012,-500,916,17043.98,27.45,-1.00,-1.0,2366
2475,1832475,17212,-632,852,17244.66,27.49,-1.00,-1.0,2433
2478,1832478,17024,-520,884,17054.87,27.54,-1.00,-1.0,2385
2481,1832481,17016,-516,940,17049.75,27.49,-1.00,-1.0,2425
2484,1832484,17036,-544,968,17072.15,27.64,-1.00,-1.0,2373
2486,1832486,17064,-604,956,17101.43,27.59,-1.00,-1.0,2426
2489,1832489,17088,-516,892,17119.04,27.49,-1.00,-1.0,2385
2494,1832494,17140,-540,956,17175.13,27.54,-1.00,-1.0,2442
2497,1832497,17004,-640,928,17041.33,27.64,-1.00,-1.0,2380
2500,1832500,16976,-520,992,17012.91,27.45,-1.00,-1.0,2436
2502,1832502,17036,-616,796,17065.71,27.54,-1.00,-1.0,2374
2505,1832505,17080,-584,956,17116.70,27.49,-1.00,-1.0,2432
2508,1832508,17096,-472,972,17130.11,27.49,-1.00,-1.0,2376
2511,1832511,16996,-480,1052,17035.29,27.49,-1.00,-1.0,2367
2513,1832513,17008,-484,1028,17045.91,27.54,-1.00,-1.0,2422
2516,1832516,17076,-600,876,17108.98,27.49,-1.00,-1.0,2369
2522,1832522,16984,-484,892,17014.29,27.54,-1.00,-1.0,2443
2524,1832524,16992,-588,992,17031.09,27.54,-1.00,-1.0,2368
2527,1832527,16928,-604,1008,16968.74,27.54,-1.00,-1.0,2422
2530,1832530,16972,-588,920,17007.08,27.45,-1.00,-1.0,2370
2533,1832533,17144,-604,920,17179.29,27.64,-1.00,-1.0,2422
2535,1832535,17020,-508,924,17052.63,27.45,-1.00,-1.0,2369
2538,1832538,17004,-600,1016,17044.89,27.45,-1.00,-1.0,2422
2541,1832541,17060,-696,1024,17104.87,27.54,-1.00,-1.0,2370
2546,1832546,17032,-504,936,17065.14,27.64,-1.00,-1.0,2442
2548,1832548,16976,-564,1044,17017.42,27.45,-1.00,-1.0,2368
2551,1832551,16944,-556,1044,16985.23,27.54,-1.00,-1.0,2422
2554,1832554,17108,-612,760,17135.80,27.54,-1.00,-1.0,2370
2556,1832556,17040,-636,828,17071.96,27.59,-1.00,-1.0,2368
2559,1832559,17056,-532,1044,17096.20,27.49,-1.00,-1.0,2436
2562,1832562,17096,-656,1104,17144.16,27.49,-1.00,-1.0,2377
2565,1832565,17088,-544,1092,17131.50,27.49,-1.00,-1.0,2436
2567,1832567,16948,-540,916,16981.32,27.59,-1.00,-1.0,2382
2572,1832572,16984,-624,896,17019.06,27.59,-1.00,-1.0,2445
2575,1832575,17032,-596,912,17066.81,27.49,-1.00,-1.0,2365
2578,1832578,17028,-604,1032,17069.93,27.59,-1.00,-1.0,2432
2581,1832581,16964,-620,916,17000.02,27.54,-1.00,-1.0,2365
2583,1832583,16992,-568,1084,17036.01,27.59,-1.00,-1.0,2433
2586,1832586,17000,-544,1128,17046.06,27.59,-1.00,-1.0,2374
2589,1832589,16888,-552,916,16921.83,27.49,-1.00,-1.0,2430
2592,1832592,17028,-676,944,17067.54,27.45,-1.00,-1.0,2366
2594,1832594,16900,-568,1024,16940.52,27.54,-1.00,-1.0,2368
2599,1832599,17068,-552,888,17100.00,27.49,-1.00,-1.0,2451
2602,1832602,17060,-548,980,17096.91,27.49,-1.00,-1.0,2356
2605,1832605,17084,-552,980,17120.99,27.54,-1.00,-1.0,2430
2607,1832607,17040,-540,868,17070.64,27.49,-1.00,-1.0,2373
2610,1832610,16968,-580,920,17002.82,27.54,-1.00,-1.0,2423
2613,1832613,17024,-636,936,17061.57,27.49,-1.00,-1.0,2368
2616,1832616,17008,-616,748,17035.58,27.54,-1.00,-1.0,2430
2618,1832618,16996,-496,908,17027.46,27.49,-1.00,-1.0,2372
2623,1832623,17092,-624,856,17124.79,27.59,-1.00,-1.0,2452
2626,1832626,17012,-644,1128,17061.51,27.59,-1.00,-1.0,2372
2629,1832629,17036,-532,1008,17074.09,27.54,-1.00,-1.0,2410
2632,1832632,17136,-560,888,17168.13,27.59,-1.00,-1.0,2366
2634,1832634,16952,-508,904,16983.69,27.45,-1.00,-1.0,2434
2637,1832637,17048,-592,964,17085.49,27.49,-1.00,-1.0,2374
2640,1832640,17000,-604,1052,17043.22,27.54,-1.00,-1.0,2368
2643,1832643,17040,-604,944,17076.81,27.64,-1.00,-1.0,2422
2645,1832645,17024,-616,1044,17067.10,27.54,-1.00,-1.0,2370
2650,1832650,17036,-592,888,17069.40,27.64,-1.00,-1.0,2452
2653,1832653,17044,-624,772,17072.88,27.54,-1.00,-1.0,2373
2656,1832656,16976,-556,912,17009.57,27.54,-1.00,-1.0,2424
2658,1832658,17052,-544,940,17086.55,27.54,-1.00,-1.0,2371
2661,1832661,17108,-668,924,17145.95,27.59,-1.00,-1.0,2422
2664,1832664,16968,-544,888,16999.93,27.54,-1.00,-1.0,2372
2667,1832667,17052,-536,892,17083.72,27.59,-1.00,-1.0,2422
2669,1832669,17092,-600,976,17130.35,27.45,-1.00,-1.0,2371
2674,1832674,17048,-544,908,17080.83,27.64,-1.00,-1.0,2451
2677,1832677,17060,-588,880,17092.80,27.45,-1.00,-1.0,2376
2680,1832680,16976,-508,832,17003.97,27.49,-1.00,-1.0,2371
2683,1832683,17080,-560,916,17113.71,27.49,-1.00,-1.0,2422
2685,1832685,17016,-520,1060,17056.91,27.59,-1.00,-1.0,2370
2688,1832688,16976,-708,872,17013.12,27.49,-1.00,-1.0,2422
2691,1832691,17080,-492,868,17109.12,27.59,-1.00,-1.0,2376
2694,1832694,17020,-384,928,17049.61,27.59,-1.00,-1.0,2423
2696,1832696,17036,-596,844,17067.30,27.59,-1.00,-1.0,2370
2701,1832701,17064,-508,844,17092.41,27.59,-1.00,-1.0,2442
2704,1832704,17044,-560,992,17082.03,27.49,-1.00,-1.0,2355
2707,1832707,16964,-604,896,16998.38,27.59,-1.00,-1.0,2427
2710,1832710,16980,-556,888,17012.29,27.64,-1.00,-1.0,2368
2712,1832712,17016,-516,944,17049.97,27.59,-1.00,-1.0,2423
2715,1832715,17140,-660,952,17179.10,27.49,-1.00,-1.0,2369
2718,1832718,17036,-588,852,17067.42,27.54,-1.00,-1.0,2368
2720,1832720,16924,-496,876,16953.91,27.54,-1.00,-1.0,2432
2723,1832723,16992,-544,984,17029.16,27.64,-1.00,-1.0,2377
2728,1832728,16944,-668,920,16982.10,27.54,-1.00,-1.0,2445
2731,1832731,17100,-600,960,17137.43,27.64,-1.00,-1.0,2375
2734,1832734,17104,-528,772,17129.55,27.54,-1.00,-1.0,2424
2736,1832736,16984,-556,760,17010.09,27.45,-1.00,-1.0,2357
2739,1832739,17024,-552,800,17051.72,27.49,-1.00,-1.0,2423
2742,1832742,16992,-560,956,17028.08,27.54,-1.00,-1.0,2367
2744,1832744,17048,-624,968,17086.86,27.54,-1.00,-1.0,2410
2747,1832747,17088,-572,812,17116.84,27.64,-1.00,-1.0,2377
2752,1832752,17076,-608,924,17111.79,27.54,-1.00,-1.0,2431
2755,1832755,17044,-600,832,17074.84,27.59,-1.00,-1.0,2355
2757,1832757,16996,-664,980,17037.17,27.54,-1.00,-1.0,2382
2760,1832760,16964,-580,1080,17008.24,27.49,-1.00,-1.0,2424
2763,1832763,17052,-632,940,17089.58,27.64,-1.00,-1.0,2375
2765,1832765,17020,-528,932,17053.67,27.54,-1.00,-1.0,2409
2768,1832768,17116,-580,920,17150.52,27.68,-1.00,-1.0,2377
2771,1832771,17104,-580,940,17139.63,27.54,-1.00,-1.0,2423
2774,1832774,17048,-644,1148,17098.74,27.54,-1.00,-1.0,2370
2779,1832779,17076,-604,904,17110.58,27.54,-1.00,-1.0,2443
2782,1832782,17000,-636,920,17036.75,27.54,-1.00,-1.0,2377
2785,1832785,17100,-556,912,17133.33,27.54,-1.00,-1.0,2422
2787,1832787,17044,-696,892,17081.51,27.54,-1.00,-1.0,2370
2790,1832790,17016,-596,1016,17056.72,27.64,-1.00,-1.0,2422
2793,1832793,17060,-520,1056,17100.56,27.45,-1.00,-1.0,2377
2795,1832795,17036,-632,808,17066.86,27.54,-1.00,-1.0,2375
2798,1832798,17120,-580,832,17150.02,27.59,-1.00,-1.0,2422
2801,1832801,17076,-500,904,17107.22,27.54,-1.00,-1.0,2370
2806,1832806,17032,-440,856,17059.17,27.54,-1.00,-1.0,2442
2809,1832809,17060,-464,860,17087.96,27.64,-1.00,-1.0,2375
2812,1832812,17112,-592,832,17142.44,27.54,-1.00,-1.0,2422
2814,1832814,17044,-536,956,17079.20,27.45,-1.00,-1.0,2372
2817,1832817,16892,-576,888,16925.13,27.54,-1.00,-1.0,2423
2820,1832820,17100,-556,948,17135.28,27.54,-1.00,-1.0,2376
2823,1832823,17072,-600,876,17104.99,27.59,-1.00,-1.0,2422
2825,1832825,16996,-556,820,17024.85,27.64,-1.00,-1.0,2372
2830,1832830,17040,-488,968,17074.45,27.64,-1.00,-1.0,2442
2833,1832833,17000,-660,892,17036.18,27.54,-1.00,-1.0,2369
2836,1832836,17072,-592,876,17104.71,27.49,-1.00,-1.0,2368
2838,1832838,16992,-596,880,17025.21,27.49,-1.00,-1.0,2429
2841,1832841,17036,-644,876,17070.66,27.49,-1.00,-1.0,2383
2844,1832844,17020,-588,920,17054.99,27.49,-1.00,-1.0,2423
2847,1832847,17176,-504,944,17209.30,27.49,-1.00,-1.0,2371
2849,1832849,17020,-444,836,17046.30,27.59,-1.00,-1.0,2411
2852,1832852,17052,-508,888,17082.66,27.59,-1.00,-1.0,2385
2857,1832857,17076,-600,940,17112.38,27.49,-1.00,-1.0,2458
2860,1832860,17020,-632,980,17059.90,27.54,-1.00,-1.0,2413
2863,1832863,17008,-572,948,17044.00,27.59,-1.00,-1.0,2433
2866,1832866,17088,-512,884,17118.51,27.49,-1.00,-1.0,2382
2868,1832868,16928,-604,992,16967.79,27.49,-1.00,-1.0,2424
2871,1832871,17028,-660,900,17064.54,27.59,-1.00,-1.0,2380
2874,1832874,16960,-524,836,16988.68,27.54,-1.00,-1.0,2367
2877,1832877,17100,-568,928,17134.58,27.54,-1.00,-1.0,2417
2879,1832879,17124,-580,820,17153.43,27.54,-1.00,-1.0,2374
2884,1832884,17052,-572,908,17085.73,27.54,-1.00,-1.0,2422
2887,1832887,17056,-604,1064,17099.83,27.49,-1.00,-1.0,2371
2890,1832890,17000,-568,1000,17038.86,27.45,-1.00,-1.0,2428
2892,1832892,17116,-620,864,17149.00,27.54,-1.00,-1.0,2375
2895,1832895,17032,-524,836,17060.55,27.54,-1.00,-1.0,2421
2898,1832898,16988,-588,876,17020.73,27.54,-1.00,-1.0,2369
2901,1832901,16968,-588,1072,17011.99,27.54,-1.00,-1.0,2421
2903,1832903,17044,-528,876,17074.66,27.54,-1.00,-1.0,2370
2909,1832909,17000,-528,908,17032.42,27.49,-1.00,-1.0,2422
2911,1832911,17168,-588,956,17204.65,27.49,-1.00,-1.0,2372
2914,1832914,16976,-504,888,17006.68,27.54,-1.00,-1.0,2367
2917,1832917,17008,-520,1060,17048.93,27.45,-1.00,-1.0,2428
2920,1832920,17080,-528,928,17113.34,27.54,-1.00,-1.0,2373
2922,1832922,16960,-512,860,16989.51,27.54,-1.00,-1.0,2421
2925,1832925,17008,-568,1000,17046.84,27.54,-1.00,-1.0,2369
2928,1832928,17032,-540,924,17065.59,27.49,-1.00,-1.0,2428
2931,1832931,17044,-544,1016,17082.92,27.45,-1.00,-1.0,2367
2935,1832935,17060,-576,964,17096.92,27.54,-1.00,-1.0,2423
2938,1832938,16956,-684,992,16998.76,27.54,-1.00,-1.0,2373
2941,1832941,16992,-660,924,17029.90,27.49,-1.00,-1.0,2436
2944,1832944,16912,-580,1000,16951.46,27.59,-1.00,-1.0,2376
2946,1832946,16944,-624,796,16974.16,27.59,-1.00,-1.0,2421
2949,1832949,17064,-500,1100,17106.73,27.59,-1.00,-1.0,2369
2952,1832952,17048,-548,856,17078.27,27.54,-1.00,-1.0,2371
2954,1832954,17008,-576,920,17042.60,27.54,-1.00,-1.0,2423
2957,1832957,17088,-536,980,17124.47,27.54,-1.00,-1.0,2368
2962,1832962,17028,-672,932,17066.72,27.54,-1.00,-1.0,2426
2965,1832965,16976,-532,952,17010.99,27.49,-1.00,-1.0,2371
2967,1832967,17056,-588,936,17091.78,27.54,-1.00,-1.0,2435
2970,1832970,16996,-500,980,17031.57,27.54,-1.00,-1.0,2383
2973,1832973,17072,-576,880,17104.37,27.45,-1.00,-1.0,2422
2976,1832976,16992,-488,764,17016.17,27.64,-1.00,-1.0,2379
2979,1832979,17032,-616,900,17066.88,27.54,-1.00,-1.0,2423
2981,1832981,17004,-552,876,17035.50,27.54,-1.00,-1.0,2355
2986,1832986,16988,-540,868,17018.73,27.45,-1.00,-1.0,2422
2989,1832989,16984,-632,996,17024.91,27.45,-1.00,-1.0,2372
2992,1832992,16940,-612,1032,16982.44,27.49,-1.00,-1.0,2365
2994,1832994,17064,-524,1096,17107.19,27.54,-1.00,-1.0,2429
2997,1832997,17000,-524,948,17034.47,27.49,-1.00,-1.0,2374
3000,1833000,16980,-580,916,17014.58,27.54,-1.00,-1.0,2429
3003,1833003,16976,-548,992,17013.79,27.59,-1.00,-1.0,2369
3005,1833005,17048,-568,916,17082.04,27.54,-1.00,-1.0,2428
3008,1833008,16984,-628,872,17017.96,27.49,-1.00,-1.0,2368
3013,1833013,16956,-576,1000,16995.23,27.49,-1.00,-1.0,2422
3016,1833016,16940,-596,912,16975.00,27.49,-1.00,-1.0,2375
3019,1833019,17012,-508,904,17043.57,27.49,-1.00,-1.0,2434
3022,1833022,16992,-580,860,17023.63,27.59,-1.00,-1.0,2368
3024,1833024,17028,-592,928,17063.54,27.49,-1.00,-1.0,2428
3027,1833027,17100,-564,904,17133.16,27.40,-1.00,-1.0,2369
3030,1833030,17100,-536,944,17134.42,27.54,-1.00,-1.0,2367
3032,1833032,16968,-564,932,17002.93,27.54,-1.00,-1.0,2430
3035,1833035,17036,-596,852,17067.70,27.64,-1.00,-1.0,2368
3040,1833040,17056,-564,976,17093.21,27.49,-1.00,-1.0,2422
3043,1833043,17036,-528,1088,17078.87,27.49,-1.00,-1.0,2372
3046,1833046,17020,-608,792,17049.26,27.54,-1.00,-1.0,2437
3049,1833049,17100,-556,828,17129.06,27.59,-1.00,-1.0,2366
3051,1833051,17060,-524,852,17089.30,27.54,-1.00,-1.0,2431
3054,1833054,17040,-624,924,17076.44,27.59,-1.00,-1.0,2373
3057,1833057,17008,-564,928,17042.63,27.54,-1.00,-1.0,2410
3060,1833060,17064,-636,1056,17108.47,27.59,-1.00,-1.0,2367
3065,1833065,17080,-612,836,17111.39,27.59,-1.00,-1.0,2426
3067,1833067,17088,-508,940,17121.37,27.54,-1.00,-1.0,2375
3070,1833070,17008,-612,860,17040.72,27.49,-1.00,-1.0,2428
3073,1833073,17072,-596,936,17108.02,27.68,-1.00,-1.0,2366
3075,1833075,17044,-528,892,17075.49,27.54,-1.00,-1.0,2369
3078,1833078,17108,-528,844,17136.94,27.54,-1.00,-1.0,2437
3081,1833081,17120,-632,1000,17160.82,27.45,-1.00,-1.0,2364
3084,1833084,17016,-496,840,17043.94,27.49,-1.00,-1.0,2435
3086,1833086,17028,-656,920,17065.45,27.54,-1.00,-1.0,2370
3091,1833091,17064,-672,752,17093.78,27.45,-1.00,-1.0,2423
3094,1833094,17068,-652,988,17109.00,27.54,-1.00,-1.0,2372
3097,1833097,17064,-540,1036,17103.95,27.49,-1.00,-1.0,2437
3100,1833100,17000,-552,876,17031.50,27.54,-1.00,-1.0,2374
3102,1833102,17044,-532,956,17079.08,27.49,-1.00,-1.0,2432
3105,1833105,17000,-588,852,17031.49,27.45,-1.00,-1.0,2367
3108,1833108,16976,-620,880,17010.10,27.59,-1.00,-1.0,2430
3111,1833111,17040,-560,900,17072.94,27.45,-1.00,-1.0,2372
3113,1833113,17064,-612,1012,17104.93,27.59,-1.00,-1.0,2376
3118,1833118,16880,-592,992,16919.48,27.59,-1.00,-1.0,2427
3121,1833121,17040,-604,940,17076.59,27.54,-1.00,-1.0,2372
3124,1833124,16956,-568,844,16986.49,27.59,-1.00,-1.0,2436
3127,1833127,16900,-576,984,16938.42,27.49,-1.00,-1.0,2373
3129,1833129,17052,-632,1000,17092.98,27.59,-1.00,-1.0,2429
3132,1833132,16980,-512,868,17009.88,27.54,-1.00,-1.0,2384
3135,1833135,17092,-560,884,17124.00,27.49,-1.00,-1.0,2421
3138,1833138,16996,-512,884,17026.67,27.49,-1.00,-1.0,2371
3142,1833142,17028,-552,852,17058.23,27.59,-1.00,-1.0,2430
3145,1833145,16956,-516,836,16984.44,27.59,-1.00,-1.0,2380
3148,1833148,17008,-640,960,17047.09,27.64,-1.00,-1.0,2429
3151,1833151,17080,-612,896,17114.43,27.59,-1.00,-1.0,2373
3153,1833153,17044,-600,872,17076.84,27.54,-1.00,-1.0,2369
3156,1833156,16932,-644,760,16961.28,27.59,-1.00,-1.0,2429
3159,1833159,17036,-576,852,17067.01,27.54,-1.00,-1.0,2372
3162,1833162,16948,-660,840,16981.63,27.59,-1.00,-1.0,2420
3164,1833164,17060,-504,1000,17096.71,27.54,-1.00,-1.0,2371
3169,1833169,17044,-624,788,17073.61,27.49,-1.00,-1.0,2423
3172,1833172,16988,-564,888,17020.54,27.59,-1.00,-1.0,2380
3175,1833175,17128,-660,980,17168.70,27.59,-1.00,-1.0,2440
3177,1833177,17048,-612,964,17086.20,27.49,-1.00,-1.0,2376
3180,1833180,17028,-544,912,17061.08,27.54,-1.00,-1.0,2431
3183,1833183,16972,-568,924,17006.62,27.49,-1.00,-1.0,2376
3186,1833186,16956,-536,936,16990.27,27.54,-1.00,-1.0,2429
3189,1833189,17008,-596,996,17047.56,27.54,-1.00,-1.0,2370
3192,1833192,17136,-536,864,17166.14,27.54,-1.00,-1.0,2367
3196,1833196,16980,-596,960,17017.56,27.54,-1.00,-1.0,2426
3199,1833199,16960,-516,1004,16997.53,27.64,-1.00,-1.0,2376
3202,1833202,17052,-508,916,17084.14,27.54,-1.00,-1.0,2429
3205,1833205,17044,-536,908,17076.58,27.54,-1.00,-1.0,2373
3208,1833208,17016,-616,908,17051.34,27.45,-1.00,-1.0,2421
3210,1833210,16868,-552,936,16902.96,27.54,-1.00,-1.0,2369
3213,1833213,17184,-600,868,17216.37,27.54,-1.00,-1.0,2420
3216,1833216,17072,-448,928,17103.07,27.64,-1.00,-1.0,2367
3221,1833221,17016,-616,1020,17057.67,27.64,-1.00,-1.0,2431
3223,1833223,17028,-524,1068,17069.50,27.54,-1.00,-1.0,2381
3226,1833226,17036,-592,748,17062.69,27.45,-1.00,-1.0,2428
3229,1833229,17044,-472,952,17077.09,27.54,-1.00,-1.0,2376
3232,1833232,17104,-556,908,17137.11,27.68,-1.00,-1.0,2367
3234,1833234,17004,-632,1064,17048.97,27.59,-1.00,-1.0,2424
3237,1833237,16972,-528,920,17005.12,27.64,-1.00,-1.0,2369
3240,1833240,17072,-684,916,17110.23,27.49,-1.00,-1.0,2428
3243,1833243,17096,-580,792,17124.16,27.59,-1.00,-1.0,2355
3248,1833248,17056,-600,992,17095.36,27.49,-1.00,-1.0,2422
3250,1833250,16988,-520,964,17023.27,27.54,-1.00,-1.0,2372
3253,1833253,17052,-584,908,17086.14,27.49,-1.00,-1.0,2430
3256,1833256,16932,-484,928,16964.32,27.54,-1.00,-1.0,2367
3259,1833259,17036,-560,924,17070.23,27.59,-1.00,-1.0,2413
3261,1833261,16984,-560,828,17013.39,27.49,-1.00,-1.0,2369
3264,1833264,17056,-532,1008,17094.04,27.59,-1.00,-1.0,2422
3267,1833267,17024,-568,896,17057.02,27.54,-1.00,-1.0,2367
3270,1833270,17120,-544,952,17155.08,27.59,-1.00,-1.0,2366
3275,1833275,16996,-468,1012,17032.53,27.49,-1.00,-1.0,2422
3277,1833277,17020,-596,1008,17060.24,27.49,-1.00,-1.0,2372
3280,1833280,17044,-616,924,17080.14,27.49,-1.00,-1.0,2428
3283,1833283,17096,-536,988,17132.91,27.59,-1.00,-1.0,2372
3286,1833286,17020,-608,812,17050.20,27.49,-1.00,-1.0,2423
3288,1833288,16992,-516,864,17021.78,27.49,-1.00,-1.0,2368
3291,1833291,17088,-488,948,17121.23,27.59,-1.00,-1.0,2421
3294,1833294,17044,-448,888,17073.00,27.49,-1.00,-1.0,2366
3299,1833299,17056,-608,936,17092.48,27.59,-1.00,-1.0,2426
3301,1833301,17140,-572,868,17171.49,27.45,-1.00,-1.0,2359
3304,1833304,17056,-508,1008,17093.31,27.40,-1.00,-1.0,2415
3307,1833307,16992,-556,896,17024.69,27.54,-1.00,-1.0,2371
3310,1833310,17112,-524,944,17146.03,27.49,-1.00,-1.0,2372
3312,1833312,17068,-520,980,17104.02,27.54,-1.00,-1.0,2436
3315,1833315,17000,-576,904,17033.76,27.64,-1.00,-1.0,2369
3318,1833318,17108,-548,896,17140.21,27.54,-1.00,-1.0,2427
3321,1833321,16956,-664,980,16997.27,27.54,-1.00,-1.0,2370
3326,1833326,16912,-584,1092,16957.28,27.59,-1.00,-1.0,2430
3329,1833329,17036,-548,872,17067.10,27.59,-1.00,-1.0,2373
3331,1833331,16948,-604,944,16985.01,27.54,-1.00,-1.0,2430
3334,1833334,17144,-580,936,17179.33,27.59,-1.00,-1.0,2367
3337,1833337,17072,-496,956,17105.94,27.54,-1.00,-1.0,2430
3340,1833340,16996,-616,920,17032.03,27.59,-1.00,-1.0,2367
3342,1833342,17000,-564,912,17033.79,27.64,-1.00,-1.0,2422
3345,1833345,17104,-520,1012,17141.80,27.49,-1.00,-1.0,2367
3348,1833348,17032,-460,924,17063.25,27.54,-1.00,-1.0,2370
3353,1833353,17020,-664,920,17057.78,27.59,-1.00,-1.0,2444
3356,1833356,17052,-528,836,17080.64,27.54,-1.00,-1.0,2361
3359,1833359,17012,-560,1012,17051.27,27.49,-1.00,-1.0,2424
3361,1833361,17052,-608,984,17091.19,27.59,-1.00,-1.0,2375
3364,1833364,17116,-532,920,17148.96,27.59,-1.00,-1.0,2428
3367,1833367,17140,-508,956,17174.15,27.49,-1.00,-1.0,2369
3370,1833370,16972,-584,968,17009.61,27.54,-1.00,-1.0,2422
3373,1833373,17020,-592,980,17058.47,27.49,-1.00,-1.0,2370
3377,1833377,17008,-536,1000,17045.80,27.49,-1.00,-1.0,2437
3380,1833380,16964,-600,896,16998.24,27.54,-1.00,-1.0,2375
3383,1833383,17032,-520,980,17068.09,27.59,-1.00,-1.0,2425
3385,1833385,17004,-576,908,17037.96,27.59,-1.00,-1.0,2381
3388,1833388,16976,-580,976,17013.92,27.54,-1.00,-1.0,2365
3391,1833391,17088,-608,984,17127.10,27.54,-1.00,-1.0,2429
3394,1833394,17136,-464,936,17167.82,27.45,-1.00,-1.0,2368
3396,1833396,17036,-564,940,17071.23,27.59,-1.00,-1.0,2428
3399,1833399,17032,-528,824,17060.09,27.54,-1.00,-1.0,2369
3404,1833404,17012,-656,932,17050.13,27.54,-1.00,-1.0,2427
3407,1833407,16940,-584,952,16976.78,27.59,-1.00,-1.0,2372
3410,1833410,16984,-536,940,17018.44,27.54,-1.00,-1.0,2425
3412,1833412,17084,-548,1016,17122.96,27.54,-1.00,-1.0,2375
3415,1833415,17068,-632,844,17100.54,27.64,-1.00,-1.0,2421
3418,1833418,17120,-536,964,17155.49,27.54,-1.00,-1.0,2368
3421,1833421,17020,-700,920,17059.21,27.54,-1.00,-1.0,2422
3423,1833423,17112,-592,964,17149.35,27.54,-1.00,-1.0,2356
3426,1833426,16968,-532,920,17001.25,27.64,-1.00,-1.0,2374
3431,1833431,16992,-552,988,17029.65,27.54,-1.00,-1.0,2430
3434,1833434,16988,-616,892,17022.55,27.54,-1.00,-1.0,2372
3436,1833436,17064,-572,928,17098.79,27.59,-1.00,-1.0,2425
3439,1833439,17080,-516,972,17115.42,27.64,-1.00,-1.0,2375
3442,1833442,17000,-560,1016,17039.54,27.49,-1.00,-1.0,2429
3445,1833445,16940,-560,896,16972.92,27.64,-1.00,-1.0,2369
3447,1833447,16972,-600,876,17005.18,27.49,-1.00,-1.0,2434
3450,1833450,16892,-528,972,16928.18,27.59,-1.00,-1.0,2369
3455,1833455,17104,-548,1000,17141.97,27.45,-1.00,-1.0,2429
3458,1833458,17024,-572,996,17062.70,27.45,-1.00,-1.0,2372
3461,1833461,17056,-560,952,17091.72,27.49,-1.00,-1.0,2423
3463,1833463,17000,-728,820,17035.33,27.45,-1.00,-1.0,2369
3466,1833466,16984,-576,816,17013.34,27.59,-1.00,-1.0,2428
3469,1833469,17008,-604,976,17046.69,27.54,-1.00,-1.0,2376
3471,1833471,17020,-616,908,17055.33,27.59,-1.00,-1.0,2378
3474,1833474,16960,-636,860,16993.70,27.54,-1.00,-1.0,2421
3477,1833477,17000,-588,984,17038.60,27.59,-1.00,-1.0,2375
3482,1833482,17048,-644,1012,17090.15,27.59,-1.00,-1.0,2435
3485,1833485,17060,-540,1012,17098.52,27.59,-1.00,-1.0,2372
3487,1833487,17060,-480,980,17094.87,27.54,-1.00,-1.0,2434
3490,1833490,17044,-600,944,17080.66,27.59,-1.00,-1.0,2390
3493,1833493,16952,-644,940,16990.25,27.64,-1.00,-1.0,2423
3496,1833496,17012,-528,888,17043.34,27.49,-1.00,-1.0,2368
3498,1833498,17016,-684,852,17051.04,27.64,-1.00,-1.0,2424
3501,1833501,17020,-544,932,17054.18,27.54,-1.00,-1.0,2376
3506,1833506,17084,-588,1168,17133.97,27.59,-1.00,-1.0,2435
3509,1833509,17032,-588,940,17068.05,27.59,-1.00,-1.0,2383
3511,1833511,17076,-580,964,17113.02,27.54,-1.00,-1.0,2368
3514,1833514,17028,-456,964,17061.36,27.54,-1.00,-1.0,2412
3517,1833517,17056,-552,828,17085.01,27.54,-1.00,-1.0,2376
3520,1833520,17044,-556,864,17074.94,27.54,-1.00,-1.0,2421
3523,1833523,17020,-488,960,17054.04,27.54,-1.00,-1.0,2371
3525,1833525,17044,-640,960,17083.01,27.59,-1.00,-1.0,2421
3528,1833528,17128,-680,1088,17175.99,27.64,-1.00,-1.0,2369
3533,1833533,17032,-584,940,17067.91,27.54,-1.00,-1.0,2430
3536,1833536,17088,-624,968,17126.77,27.64,-1.00,-1.0,2379
3539,1833539,17060,-652,980,17100.56,27.54,-1.00,-1.0,2428
3541,1833541,16992,-520,816,17019.53,27.64,-1.00,-1.0,2377
3544,1833544,16992,-560,1096,17036.52,27.49,-1.00,-1.0,2421
3547,1833547,16976,-584,748,17002.50,27.64,-1.00,-1.0,2368
3549,1833549,17100,-552,1060,17141.71,27.49,-1.00,-1.0,2366
3552,1833552,17032,-536,860,17062.12,27.59,-1.00,-1.0,2421
3555,1833555,16980,-536,1056,17021.25,27.49,-1.00,-1.0,2378
3560,1833560,17020,-600,896,17054.13,27.54,-1.00,-1.0,2435
3562,1833562,17020,-520,984,17056.35,27.54,-1.00,-1.0,2382
3565,1833565,17028,-624,972,17067.13,27.54,-1.00,-1.0,2425
3568,1833568,17108,-552,984,17145.16,27.54,-1.00,-1.0,2372
3571,1833571,16984,-544,892,17016.11,27.54,-1.00,-1.0,2422
3573,1833573,17060,-612,916,17095.53,27.45,-1.00,-1.0,2381
3576,1833576,17068,-612,872,17101.21,27.59,-1.00,-1.0,2421
3579,1833579,17064,-632,984,17104.03,27.64,-1.00,-1.0,2373
3584,1833584,17008,-552,852,17038.27,27.64,-1.00,-1.0,2427
3586,1833586,16952,-568,1096,16996.89,27.49,-1.00,-1.0,2372
3589,1833589,16976,-648,940,17014.35,27.54,-1.00,-1.0,2366
3592,1833592,17096,-584,892,17129.21,27.59,-1.00,-1.0,2424
3595,1833595,17020,-548,924,17053.87,27.49,-1.00,-1.0,2375
3597,1833597,16996,-532,924,17029.41,27.59,-1.00,-1.0,2422
3600,1833600,17008,-564,1008,17047.18,27.49,-1.00,-1.0,2369
3603,1833603,16952,-568,976,16989.57,27.64,-1.00,-1.0,2421
3606,1833606,17076,-668,860,17110.69,27.64,-1.00,-1.0,2371
3611,1833611,17024,-596,912,17058.83,27.54,-1.00,-1.0,2435
3614,1833614,16932,-532,960,16967.54,27.54,-1.00,-1.0,2373
3616,1833616,17052,-568,956,17088.22,27.54,-1.00,-1.0,2434
3619,1833619,17056,-624,912,17091.76,27.54,-1.00,-1.0,2377
3622,1833622,17124,-580,1004,17163.21,27.59,-1.00,-1.0,2430
3625,1833625,17056,-584,876,17088.46,27.64,-1.00,-1.0,2373
3627,1833627,16924,-604,984,16963.34,27.49,-1.00,-1.0,2366
3630,1833630,17112,-576,936,17147.26,27.64,-1.00,-1.0,2421
3633,1833633,17012,-528,872,17042.52,27.59,-1.00,-1.0,2367
3638,1833638,17060,-544,1016,17098.88,27.54,-1.00,-1.0,2435
3641,1833641,16992,-432,824,17017.45,27.54,-1.00,-1.0,2375
3643,1833643,16960,-588,840,16990.97,27.59,-1.00,-1.0,2432
3646,1833646,17080,-520,900,17111.60,27.59,-1.00,-1.0,2382
3649,1833649,17004,-496,888,17034.39,27.49,-1.00,-1.0,2423
3652,1833652,16940,-600,900,16974.50,27.54,-1.00,-1.0,2371
3655,1833655,17080,-604,880,17113.32,27.59,-1.00,-1.0,2421
3657,1833657,16972,-456,840,16998.89,27.49,-1.00,-1.0,2356
3662,1833662,16988,-620,1004,17028.93,27.49,-1.00,-1.0,2441
3665,1833665,17020,-608,956,17057.67,27.54,-1.00,-1.0,2379
3668,1833668,16992,-540,964,17027.89,27.59,-1.00,-1.0,2365
3670,1833670,17056,-572,916,17090.15,27.54,-1.00,-1.0,2424
3673,1833673,17048,-648,916,17084.88,27.59,-1.00,-1.0,2369
3676,1833676,17056,-568,816,17084.95,27.45,-1.00,-1.0,2435
3679,1833679,16992,-448,908,17022.14,27.54,-1.00,-1.0,2368
3681,1833681,17056,-564,908,17089.46,27.54,-1.00,-1.0,2424
3684,1833684,17048,-656,944,17086.71,27.54,-1.00,-1.0,2369
3689,1833689,17140,-536,920,17173.04,27.54,-1.00,-1.0,2427
3692,1833692,16988,-592,1012,17028.41,27.49,-1.00,-1.0,2372
3695,1833695,16948,-552,968,16984.59,27.45,-1.00,-1.0,2424
3697,1833697,16968,-508,1004,17005.27,27.54,-1.00,-1.0,2374
3700,1833700,17032,-628,1008,17073.36,27.54,-1.00,-1.0,2421
3703,1833703,17116,-540,924,17149.43,27.54,-1.00,-1.0,2368
3705,1833705,17172,-596,944,17208.25,27.49,-1.00,-1.0,2369
3708,1833708,17056,-612,1012,17096.95,27.59,-1.00,-1.0,2436
3711,1833711,17020,-564,908,17053.53,27.54,-1.00,-1.0,2369
3716,1833716,17068,-604,1088,17113.30,27.54,-1.00,-1.0,2428
3719,1833719,16980,-544,944,17014.92,27.59,-1.00,-1.0,2372
3722,1833722,17072,-604,1016,17112.87,27.54,-1.00,-1.0,2424
3724,1833724,17008,-532,924,17041.39,27.54,-1.00,-1.0,2374
3727,1833727,17044,-680,948,17083.88,27.54,-1.00,-1.0,2422
3730,1833730,17056,-492,960,17090.08,27.45,-1.00,-1.0,2367
3733,1833733,16956,-592,876,16988.93,27.54,-1.00,-1.0,2421
3735,1833735,16992,-624,956,17030.31,27.64,-1.00,-1.0,2369
3740,1833740,17020,-552,964,17056.21,27.54,-1.00,-1.0,2428
3743,1833743,17052,-576,996,17090.77,27.59,-1.00,-1.0,2359
3746,1833746,17056,-608,936,17092.48,27.54,-1.00,-1.0,2424
3748,1833748,17024,-628,800,17054.35,27.54,-1.00,-1.0,2371
3751,1833751,16976,-552,856,17006.53,27.54,-1.00,-1.0,2367
3754,1833754,17004,-584,1072,17047.76,27.59,-1.00,-1.0,2433
3757,1833757,17060,-700,868,17096.40,27.54,-1.00,-1.0,2368
3759,1833759,17000,-624,984,17039.88,27.59,-1.00,-1.0,2428
3762,1833762,17036,-600,880,17069.26,27.40,-1.00,-1.0,2368
3767,1833767,16992,-676,976,17033.43,27.49,-1.00,-1.0,2427
3770,1833770,17020,-556,908,17053.27,27.64,-1.00,-1.0,2380
3773,1833773,17080,-564,956,17116.03,27.59,-1.00,-1.0,2424
3775,1833775,17088,-640,964,17127.13,27.59,-1.00,-1.0,2376
3778,1833778,16972,-520,960,17007.08,27.49,-1.00,-1.0,2436
3781,1833781,16952,-628,956,16990.54,27.49,-1.00,-1.0,2378
3784,1833784,16980,-548,868,17011.00,27.45,-1.00,-1.0,2431
3786,1833786,17048,-524,904,17079.99,27.49,-1.00,-1.0,2373
3789,1833789,17028,-616,892,17062.47,27.49,-1.00,-1.0,2366
3794,1833794,16952,-636,852,16985.31,27.45,-1.00,-1.0,2427
3796,1833796,16936,-596,880,16969.32,27.54,-1.00,-1.0,2380
3799,1833799,17100,-532,840,17128.88,27.54,-1.00,-1.0,2412
3802,1833802,17076,-592,1028,17117.16,27.54,-1.00,-1.0,2371
3805,1833805,17080,-556,908,17113.15,27.49,-1.00,-1.0,2427
3808,1833808,16968,-584,900,17001.88,27.54,-1.00,-1.0,2368
3810,1833810,17012,-580,1012,17051.94,27.49,-1.00,-1.0,2421
3813,1833813,17056,-612,928,17092.19,27.59,-1.00,-1.0,2376
3818,1833818,17028,-548,888,17059.94,27.49,-1.00,-1.0,2427
3821,1833821,17028,-512,844,17056.59,27.59,-1.00,-1.0,2371
3824,1833824,17084,-556,968,17120.43,27.49,-1.00,-1.0,2424
3826,1833826,16888,-604,1076,16933.02,27.49,-1.00,-1.0,2369
3829,1833829,17068,-524,920,17100.81,27.54,-1.00,-1.0,2373
3832,1833832,17068,-492,1028,17106.01,27.54,-1.00,-1.0,2422
3834,1833834,17064,-468,908,17094.55,27.45,-1.00,-1.0,2375
3837,1833837,17028,-644,964,17067.42,27.45,-1.00,-1.0,2422
3840,1833840,17056,-596,876,17088.88,27.54,-1.00,-1.0,2384
3845,1833845,17068,-524,1016,17106.24,27.49,-1.00,-1.0,2427
3848,1833848,17100,-552,884,17131.73,27.59,-1.00,-1.0,2381
3851,1833851,16996,-584,872,17028.37,27.45,-1.00,-1.0,2427
3853,1833853,17096,-676,1040,17140.94,27.59,-1.00,-1.0,2376
3856,1833856,17036,-480,904,17066.72,27.73,-1.00,-1.0,2436
3859,1833859,17028,-664,876,17063.44,27.54,-1.00,-1.0,2376
3862,1833862,17008,-496,1048,17047.47,27.54,-1.00,-1.0,2437
3864,1833864,16952,-544,912,16985.23,27.54,-1.00,-1.0,2377
3867,1833867,16964,-556,772,16990.66,27.45,-1.00,-1.0,2373
3872,1833872,17100,-580,884,17132.65,27.54,-1.00,-1.0,2427
3875,1833875,17096,-488,888,17126.00,27.59,-1.00,-1.0,2372
3878,1833878,17076,-440,936,17107.29,27.54,-1.00,-1.0,2428
3880,1833880,17108,-660,928,17145.86,27.45,-1.00,-1.0,2368
3883,1833883,16960,-532,840,16989.12,27.45,-1.00,-1.0,2441
3886,1833886,17064,-588,928,17099.33,27.54,-1.00,-1.0,2373
3889,1833889,17008,-592,972,17046.04,27.54,-1.00,-1.0,2430
3891,1833891,17012,-576,844,17042.66,27.45,-1.00,-1.0,2370
3896,1833896,17028,-568,796,17056.05,27.54,-1.00,-1.0,2430
3899,1833899,17076,-508,1004,17113.03,27.49,-1.00,-1.0,2368
3902,1833902,17008,-584,960,17045.08,27.64,-1.00,-1.0,2432
3905,1833905,16944,-520,1020,16982.64,27.54,-1.00,-1.0,2369
3907,1833907,16940,-576,1108,16985.97,27.54,-1.00,-1.0,2369
3910,1833910,17004,-464,868,17032.46,27.49,-1.00,-1.0,2421
3913,1833913,17004,-544,872,17035.03,27.54,-1.00,-1.0,2367
3916,1833916,17052,-556,980,17089.19,27.59,-1.00,-1.0,2424
3918,1833918,16948,-584,820,16977.87,27.59,-1.00,-1.0,2369
3923,1833923,17048,-668,960,17088.07,27.49,-1.00,-1.0,2437
3926,1833926,16976,-608,992,17015.82,27.64,-1.00,-1.0,2380
3929,1833929,17132,-532,888,17163.25,27.59,-1.00,-1.0,2434
3931,1833931,17032,-576,912,17066.12,27.54,-1.00,-1.0,2380
3934,1833934,17068,-680,1032,17112.69,27.49,-1.00,-1.0,2421
3937,1833937,17000,-616,936,17036.89,27.59,-1.00,-1.0,2370
3940,1833940,17068,-584,1056,17110.61,27.40,-1.00,-1.0,2420
3942,1833942,17056,-540,828,17084.62,27.49,-1.00,-1.0,2370
3945,1833945,16988,-524,952,17022.72,27.49,-1.00,-1.0,2365
3950,1833950,17000,-540,912,17033.01,27.59,-1.00,-1.0,2434
3953,1833953,16992,-560,1044,17033.25,27.64,-1.00,-1.0,2361
3956,1833956,17004,-620,832,17035.63,27.59,-1.00,-1.0,2432
3958,1833958,16960,-680,984,17002.12,27.45,-1.00,-1.0,2380
3961,1833961,16996,-568,832,17025.83,27.54,-1.00,-1.0,2452
3964,1833964,17008,-500,808,17034.52,27.64,-1.00,-1.0,2369
3967,1833967,17120,-532,836,17148.65,27.49,-1.00,-1.0,2430
3970,1833970,17100,-544,992,17137.39,27.64,-1.00,-1.0,2373
3974,1833974,17080,-588,804,17109.02,27.49,-1.00,-1.0,2436
3977,1833977,17028,-636,952,17066.45,27.59,-1.00,-1.0,2387
3980,1833980,17092,-584,876,17124.39,27.59,-1.00,-1.0,2426
3983,1833983,17036,-492,944,17069.23,27.68,-1.00,-1.0,2376
3985,1833985,17072,-612,984,17111.28,27.54,-1.00,-1.0,2366
3988,1833988,17088,-480,940,17120.56,27.45,-1.00,-1.0,2422
3991,1833991,17092,-528,964,17127.30,27.54,-1.00,-1.0,2377
3994,1833994,17068,-556,816,17096.54,27.54,-1.00,-1.0,2422
3996,1833996,16912,-524,876,16942.78,27.54,-1.00,-1.0,2370
4001,1834001,16956,-612,928,16992.40,27.40,-1.00,-1.0,2428
4004,1834004,17040,-560,1016,17079.45,27.59,-1.00,-1.0,2371
4007,1834007,17128,-572,892,17160.75,27.54,-1.00,-1.0,2425
4009,1834009,17060,-508,956,17094.31,27.49,-1.00,-1.0,2377
4012,1834012,17064,-540,968,17099.96,27.54,-1.00,-1.0,2409
4015,1834015,17044,-448,932,17075.34,27.49,-1.00,-1.0,2368
4018,1834018,17116,-600,904,17150.36,27.45,-1.00,-1.0,2422
4020,1834020,17032,-544,948,17067.04,27.64,-1.00,-1.0,2369
4023,1834023,16964,-588,884,16997.19,27.54,-1.00,-1.0,2367
4028,1834028,17060,-588,964,17097.33,27.54,-1.00,-1.0,2428
4031,1834031,17028,-604,964,17065.96,27.54,-1.00,-1.0,2359
4034,1834034,17068,-628,876,17102.00,27.54,-1.00,-1.0,2431
4037,1834037,17012,-564,948,17047.72,27.45,-1.00,-1.0,2376
4039,1834039,17000,-628,800,17030.40,27.54,-1.00,-1.0,2422
4042,1834042,17056,-564,932,17090.75,27.45,-1.00,-1.0,2372
4045,1834045,17104,-640,1000,17145.16,27.59,-1.00,-1.0,2424
4048,1834048,17052,-568,1040,17093.12,27.54,-1.00,-1.0,2368
4053,1834053,17036,-568,1056,17078.15,27.59,-1.00,-1.0,2460
4055,1834055,17008,-624,920,17044.29,27.49,-1.00,-1.0,2372
4058,1834058,17064,-632,1096,17110.84,27.54,-1.00,-1.0,2423
4061,1834061,16960,-592,888,16993.55,27.49,-1.00,-1.0,2353
4064,1834064,17028,-640,892,17063.35,27.45,-1.00,-1.0,2433
4066,1834066,16956,-472,980,16990.85,27.59,-1.00,-1.0,2374
4069,1834069,17044,-548,920,17077.61,27.64,-1.00,-1.0,2366
4072,1834072,17036,-612,848,17068.07,27.49,-1.00,-1.0,2430
4075,1834075,16976,-564,892,17008.77,27.64,-1.00,-1.0,2364
4080,1834080,17028,-612,932,17064.46,27.54,-1.00,-1.0,2445
4082,1834082,17088,-568,896,17120.90,27.54,-1.00,-1.0,2367
4085,1834085,16952,-528,988,16988.97,27.54,-1.00,-1.0,2423
4088,1834088,17000,-572,1008,17039.46,27.45,-1.00,-1.0,2368
4091,1834091,17060,-628,1016,17101.76,27.54,-1.00,-1.0,2423
4093,1834093,17000,-556,1036,17040.61,27.54,-1.00,-1.0,2370
4096,1834096,17016,-492,888,17046.26,27.54,-1.00,-1.0,2423
4099,1834099,16872,-556,900,16905.13,27.54,-1.00,-1.0,2369
4104,1834104,17072,-716,952,17113.51,27.64,-1.00,-1.0,2444
4106,1834106,17088,-524,1036,17127.39,27.64,-1.00,-1.0,2376
4109,1834109,17092,-596,912,17126.69,27.59,-1.00,-1.0,2367
4112,1834112,17052,-460,840,17078.87,27.59,-1.00,-1.0,2433
4115,1834115,17056,-516,928,17089.02,27.49,-1.00,-1.0,2356
4117,1834117,17048,-624,944,17085.52,27.49,-1.00,-1.0,2422
4120,1834120,16940,-600,1060,16983.73,27.49,-1.00,-1.0,2370
4123,1834123,17036,-504,932,17068.92,27.59,-1.00,-1.0,2424
4126,1834126,17012,-504,1048,17051.70,27.59,-1.00,-1.0,2368
4131,1834131,17000,-592,940,17036.26,27.49,-1.00,-1.0,2440
4133,1834133,17036,-568,828,17065.56,27.54,-1.00,-1.0,2369
4136,1834136,17072,-496,888,17102.27,27.59,-1.00,-1.0,2422
4139,1834139,17080,-640,932,17117.38,27.49,-1.00,-1.0,2368
4142,1834142,16984,-604,912,17019.19,27.59,-1.00,-1.0,2409
4144,1834144,16980,-672,748,17009.75,27.54,-1.00,-1.0,2369
4147,1834147,17024,-520,896,17055.49,27.54,-1.00,-1.0,2376
4150,1834150,17004,-580,892,17037.26,27.54,-1.00,-1.0,2438
4152,1834152,17052,-488,944,17085.08,27.45,-1.00,-1.0,2377
4157,1834157,17028,-588,932,17063.62,27.54,-1.00,-1.0,2449
4160,1834160,16996,-592,1016,17036.63,27.54,-1.00,-1.0,2371
4163,1834163,17120,-592,932,17155.57,27.59,-1.00,-1.0,2422
4166,1834166,17148,-488,896,17178.33,27.54,-1.00,-1.0,2369
4169,1834169,17028,-580,896,17061.42,27.49,-1.00,-1.0,2421
4171,1834171,16988,-588,864,17020.12,27.64,-1.00,-1.0,2357
4174,1834174,17108,-592,972,17145.81,27.68,-1.00,-1.0,2423
4177,1834177,16968,-424,944,16999.53,27.64,-1.00,-1.0,2372
4182,1834182,16980,-516,876,17010.41,27.49,-1.00,-1.0,2448
4185,1834185,16960,-528,1000,16997.66,27.64,-1.00,-1.0,2376
4188,1834188,16896,-540,960,16931.86,27.49,-1.00,-1.0,2374
4191,1834191,17096,-544,916,17129.16,27.45,-1.00,-1.0,2422
4193,1834193,17100,-640,964,17139.10,27.49,-1.00,-1.0,2370
4196,1834196,17040,-588,892,17073.46,27.54,-1.00,-1.0,2422
4199,1834199,16956,-652,816,16988.14,27.49,-1.00,-1.0,2376
4202,1834202,17096,-584,884,17128.80,27.54,-1.00,-1.0,2423
4204,1834204,17032,-508,1000,17068.89,27.54,-1.00,-1.0,2374
4209,1834209,17088,-572,1028,17128.45,27.59,-1.00,-1.0,2440
4212,1834212,17072,-568,844,17102.29,27.59,-1.00,-1.0,2370
4215,1834215,17036,-624,944,17073.54,27.54,-1.00,-1.0,2423
4217,1834217,17088,-536,956,17123.11,27.49,-1.00,-1.0,2369
4220,1834220,17012,-576,948,17048.13,27.45,-1.00,-1.0,2422
4223,1834223,17028,-592,1080,17072.48,27.49,-1.00,-1.0,2368
4225,1834225,17104,-600,904,17138.38,27.54,-1.00,-1.0,2370
4228,1834228,16984,-656,968,17024.21,27.45,-1.00,-1.0,2432
4231,1834231,16960,-644,912,16996.71,27.54,-1.00,-1.0,2378
4236,1834236,17016,-652,1044,17060.46,27.45,-1.00,-1.0,2443
4239,1834239,17064,-636,912,17100.19,27.45,-1.00,-1.0,2368
4241,1834241,17132,-524,992,17168.69,27.54,-1.00,-1.0,2430
4244,1834244,17000,-512,984,17036.15,27.54,-1.00,-1.0,2370
4247,1834247,17048,-580,996,17086.92,27.54,-1.00,-1.0,2429
4250,1834250,16972,-448,948,17004.36,27.45,-1.00,-1.0,2369
4252,1834252,16984,-600,788,17012.85,27.59,-1.00,-1.0,2435
4255,1834255,17076,-644,916,17112.67,27.45,-1.00,-1.0,2370
4260,1834260,17048,-556,816,17076.57,27.45,-1.00,-1.0,2440
4263,1834263,16964,-508,912,16996.09,27.45,-1.00,-1.0,2368
4265,1834265,17088,-540,780,17114.31,27.49,-1.00,-1.0,2370
4268,1834268,17072,-636,932,17109.25,27.49,-1.00,-1.0,2432
4271,1834271,17036,-560,880,17067.90,27.49,-1.00,-1.0,2372
4274,1834274,17068,-616,896,17102.60,27.49,-1.00,-1.0,2434
4276,1834276,17068,-612,1032,17110.12,27.59,-1.00,-1.0,2380
4279,1834279,17000,-504,996,17036.61,27.49,-1.00,-1.0,2422
4282,1834282,16880,-616,896,16914.98,27.59,-1.00,-1.0,2370
4287,1834287,17000,-648,896,17035.92,27.59,-1.00,-1.0,2450
4290,1834290,17048,-540,904,17080.49,27.59,-1.00,-1.0,2369
4292,1834292,17016,-616,832,17047.46,27.59,-1.00,-1.0,2430
4295,1834295,16988,-644,948,17026.61,27.59,-1.00,-1.0,2384
4298,1834298,17040,-576,844,17070.61,27.49,-1.00,-1.0,2427
4301,1834301,17004,-556,996,17042.22,27.49,-1.00,-1.0,2370
4303,1834303,16968,-624,884,17002.47,27.54,-1.00,-1.0,2368
4306,1834306,17048,-608,948,17085.16,27.54,-1.00,-1.0,2422
4309,1834309,17004,-480,1036,17042.29,27.64,-1.00,-1.0,2368
4314,1834314,17056,-544,864,17086.53,27.54,-1.00,-1.0,2444
4316,1834316,17028,-584,1104,17073.74,27.59,-1.00,-1.0,2376
4319,1834319,17048,-552,756,17073.68,27.54,-1.00,-1.0,2423
4322,1834322,17012,-524,992,17048.95,27.54,-1.00,-1.0,2371
4325,1834325,16980,-460,952,17012.89,27.64,-1.00,-1.0,2422
4327,1834327,16988,-572,928,17022.94,27.54,-1.00,-1.0,2371
4330,1834330,17048,-592,960,17085.27,27.45,-1.00,-1.0,2423
4333,1834333,17072,-616,1036,17114.49,27.54,-1.00,-1.0,2372
4338,1834338,16976,-676,896,17013.06,27.49,-1.00,-1.0,2444
4341,1834341,17040,-632,1008,17081.48,27.49,-1.00,-1.0,2375
4343,1834343,17120,-564,920,17153.98,27.54,-1.00,-1.0,2425
4346,1834346,17028,-468,892,17057.77,27.59,-1.00,-1.0,2372
4349,1834349,16988,-556,904,17021.12,27.45,-1.00,-1.0,2368
4352,1834352,16964,-528,1016,17002.60,27.59,-1.00,-1.0,2426
4354,1834354,17072,-676,852,17106.61,27.54,-1.00,-1.0,2374
4357,1834357,17036,-596,976,17074.34,27.59,-1.00,-1.0,2422
4360,1834360,17036,-640,968,17075.48,27.54,-1.00,-1.0,2377
4365,1834365,17080,-508,924,17112.52,27.54,-1.00,-1.0,2441
4368,1834368,17116,-568,940,17151.20,27.54,-1.00,-1.0,2369
4370,1834370,16952,-588,896,16985.84,27.49,-1.00,-1.0,2422
4373,1834373,17036,-576,964,17072.97,27.54,-1.00,-1.0,2357
4376,1834376,17052,-616,996,17092.17,27.49,-1.00,-1.0,2429
4379,1834379,16964,-604,936,17000.54,27.54,-1.00,-1.0,2369
4381,1834381,17068,-612,980,17107.06,27.59,-1.00,-1.0,2424
4384,1834384,16904,-656,1052,16949.40,27.54,-1.00,-1.0,2370
4387,1834387,16952,-512,948,16986.21,27.54,-1.00,-1.0,2368
4392,1834392,16928,-536,1032,16967.90,27.64,-1.00,-1.0,2441
4394,1834394,17072,-604,888,17105.75,27.54,-1.00,-1.0,2373
4397,1834397,17020,-568,1008,17059.28,27.54,-1.00,-1.0,2423
4400,1834400,17044,-480,876,17073.25,27.54,-1.00,-1.0,2370
4403,1834403,16932,-508,1000,16969.11,27.49,-1.00,-1.0,2422
4405,1834405,16956,-500,972,16991.20,27.54,-1.00,-1.0,2370
4408,1834408,17040,-476,956,17073.43,27.59,-1.00,-1.0,2422
4411,1834411,17060,-644,972,17099.80,27.49,-1.00,-1.0,2371
4415,1834415,17012,-540,972,17048.30,27.54,-1.00,-1.0,2450
4418,1834418,17108,-584,952,17144.42,27.54,-1.00,-1.0,2383
4421,1834421,17140,-592,904,17174.03,27.54,-1.00,-1.0,2424
4424,1834424,17092,-600,912,17126.83,27.54,-1.00,-1.0,2371
4426,1834426,17056,-452,924,17086.99,27.59,-1.00,-1.0,2366
4429,1834429,16980,-616,1052,17023.71,27.59,-1.00,-1.0,2422
4432,1834432,17092,-520,1000,17129.12,27.49,-1.00,-1.0,2368
4435,1834435,17136,-612,1040,17178.44,27.59,-1.00,-1.0,2422
4438,1834438,16948,-560,852,16978.64,27.49,-1.00,-1.0,2368
4443,1834443,17048,-652,1048,17092.62,27.54,-1.00,-1.0,2444
4445,1834445,16980,-556,1092,17024.16,27.54,-1.00,-1.0,2376
4448,1834448,16992,-580,872,17024.24,27.49,-1.00,-1.0,2422
4451,1834451,17020,-540,864,17050.47,27.45,-1.00,-1.0,2372
4454,1834454,16888,-540,948,16923.21,27.59,-1.00,-1.0,2422
4456,1834456,16968,-604,888,17001.95,27.59,-1.00,-1.0,2371
4459,1834459,17096,-460,932,17127.56,27.59,-1.00,-1.0,2423
4462,1834462,17128,-472,956,17161.15,27.54,-1.00,-1.0,2373
4465,1834465,16956,-572,932,16991.22,27.59,-1.00,-1.0,2368
4470,1834470,17044,-616,816,17074.64,27.49,-1.00,-1.0,2441
4473,1834473,17040,-496,1064,17080.39,27.49,-1.00,-1.0,2370
4475,1834475,17108,-556,840,17137.63,27.59,-1.00,-1.0,2422
4478,1834478,17040,-736,904,17079.83,27.54,-1.00,-1.0,2370
4481,1834481,17004,-536,912,17036.87,27.49,-1.00,-1.0,2429
4484,1834484,16968,-560,972,17005.04,27.49,-1.00,-1.0,2368
4486,1834486,17004,-560,916,17037.86,27.59,-1.00,-1.0,2423
4489,1834489,17036,-588,1040,17077.84,27.59,-1.00,-1.0,2369
4494,1834494,17020,-584,900,17053.78,27.49,-1.00,-1.0,2440
4497,1834497,16972,-500,964,17006.71,27.59,-1.00,-1.0,2369
4500,1834500,17132,-520,908,17163.92,27.49,-1.00,-1.0,2422
4502,1834502,17020,-556,936,17054.78,27.49,-1.00,-1.0,2369
4505,1834505,17060,-580,872,17092.12,27.59,-1.00,-1.0,2409
4508,1834508,17108,-636,952,17146.27,27.49,-1.00,-1.0,2371
4510,1834510,16940,-536,888,16971.72,27.64,-1.00,-1.0,2368
4513,1834513,17088,-632,988,17128.20,27.54,-1.00,-1.0,2422
4516,1834516,17080,-676,872,17115.60,27.54,-1.00,-1.0,2377
4521,1834521,17080,-528,832,17108.40,27.54,-1.00,-1.0,2449
4524,1834524,17080,-592,936,17115.87,27.59,-1.00,-1.0,2369
4526,1834526,17044,-576,1020,17084.21,27.64,-1.00,-1.0,2422
4529,1834529,17028,-608,1060,17071.79,27.64,-1.00,-1.0,2370
4532,1834532,17020,-544,952,17055.28,27.54,-1.00,-1.0,2424
4535,1834535,17024,-556,908,17057.26,27.45,-1.00,-1.0,2368
4537,1834537,16960,-608,888,16994.11,27.54,-1.00,-1.0,2425
4540,1834540,17028,-580,1076,17071.82,27.54,-1.00,-1.0,2372
4545,1834545,16984,-596,840,17015.20,27.54,-1.00,-1.0,2441
4548,1834548,17096,-624,872,17129.59,27.59,-1.00,-1.0,2369
4550,1834550,17052,-536,976,17088.32,27.54,-1.00,-1.0,2371
4553,1834553,17152,-532,1000,17189.36,27.49,-1.00,-1.0,2437
4556,1834556,16992,-612,976,17031.01,27.54,-1.00,-1.0,2377
4559,1834559,17016,-572,936,17051.32,27.49,-1.00,-1.0,2437
4561,1834561,17048,-588,1008,17087.89,27.59,-1.00,-1.0,2378
4564,1834564,17036,-548,912,17069.19,27.49,-1.00,-1.0,2422
4567,1834567,17004,-560,928,17038.51,27.49,-1.00,-1.0,2372
4572,1834572,16932,-652,980,16972.87,27.54,-1.00,-1.0,2450
4575,1834575,16960,-476,888,16989.90,27.49,-1.00,-1.0,2371
4577,1834577,16968,-552,880,16999.77,27.49,-1.00,-1.0,2430
4580,1834580,16936,-444,920,16966.78,27.59,-1.00,-1.0,2385
4583,1834583,17004,-564,996,17042.48,27.59,-1.00,-1.0,2425
4586,1834586,16972,-624,836,17004.03,27.49,-1.00,-1.0,2374
4588,1834588,17084,-628,1036,17126.90,27.64,-1.00,-1.0,2368
4591,1834591,17016,-568,1060,17058.44,27.45,-1.00,-1.0,2422
4594,1834594,17052,-616,884,17086.01,27.59,-1.00,-1.0,2376
4599,1834599,16996,-560,972,17032.98,27.64,-1.00,-1.0,2443
4601,1834601,17116,-592,1056,17158.76,27.59,-1.00,-1.0,2376
4604,1834604,17016,-628,896,17051.14,27.54,-1.00,-1.0,2422
4607,1834607,17008,-568,824,17037.42,27.54,-1.00,-1.0,2372
4610,1834610,17036,-588,932,17071.60,27.54,-1.00,-1.0,2422
4612,1834612,17036,-584,728,17061.54,27.54,-1.00,-1.0,2371
4615,1834615,17004,-616,952,17041.77,27.54,-1.00,-1.0,2423
4618,1834618,17016,-632,932,17053.22,27.54,-1.00,-1.0,2371
4623,1834623,16872,-484,844,16900.03,27.64,-1.00,-1.0,2448
4626,1834626,17080,-556,908,17113.15,27.54,-1.00,-1.0,2368
4628,1834628,16956,-636,996,16997.13,27.59,-1.00,-1.0,2382
4631,1834631,16888,-532,1016,16926.90,27.54,-1.00,-1.0,2423
4634,1834634,17056,-560,876,17087.66,27.49,-1.00,-1.0,2372
4637,1834637,17016,-648,976,17056.28,27.54,-1.00,-1.0,2426
4639,1834639,16992,-532,832,17020.67,27.64,-1.00,-1.0,2357
4642,1834642,16944,-588,916,16978.93,27.45,-1.00,-1.0,2424
4645,1834645,17100,-512,868,17129.67,27.54,-1.00,-1.0,2369
4650,1834650,17032,-492,792,17057.50,27.59,-1.00,-1.0,2451
4653,1834653,16992,-588,936,17027.92,27.49,-1.00,-1.0,2373
4655,1834655,17020,-572,920,17054.44,27.64,-1.00,-1.0,2429
4658,1834658,17036,-524,1128,17081.34,27.59,-1.00,-1.0,2384
4661,1834661,16924,-544,876,16955.38,27.64,-1.00,-1.0,2423
4664,1834664,16988,-588,844,17019.11,27.54,-1.00,-1.0,2374
4666,1834666,16996,-624,948,17033.85,27.64,-1.00,-1.0,2368
4669,1834669,16928,-568,1068,16971.16,27.49,-1.00,-1.0,2422
4672,1834672,17084,-560,1012,17123.11,27.54,-1.00,-1.0,2372
4677,1834677,17020,-532,828,17048.43,27.54,-1.00,-1.0,2435
4680,1834680,16960,-516,1180,17008.83,27.68,-1.00,-1.0,2373
4682,1834682,17032,-604,916,17067.30,27.54,-1.00,-1.0,2430
4685,1834685,17052,-588,900,17085.86,27.54,-1.00,-1.0,2377
4688,1834688,16976,-596,832,17006.82,27.54,-1.00,-1.0,2424
4691,1834691,17008,-620,972,17047.03,27.45,-1.00,-1.0,2367
4693,1834693,17008,-604,836,17039.24,27.54,-1.00,-1.0,2417
4696,1834696,17140,-644,920,17176.75,27.64,-1.00,-1.0,2377
4701,1834701,17036,-564,852,17066.61,27.64,-1.00,-1.0,2457
4704,1834704,16932,-628,896,16967.32,27.64,-1.00,-1.0,2376
4706,1834706,17104,-624,832,17135.59,27.54,-1.00,-1.0,2366
4709,1834709,17048,-656,1028,17091.56,27.59,-1.00,-1.0,2423
4712,1834712,17096,-556,948,17131.29,27.45,-1.00,-1.0,2371
4715,1834715,17104,-612,908,17139.02,27.54,-1.00,-1.0,2423
4718,1834718,17000,-488,988,17035.68,27.64,-1.00,-1.0,2368
4720,1834720,17028,-600,1016,17068.83,27.49,-1.00,-1.0,2422
4723,1834723,17004,-464,872,17032.67,27.49,-1.00,-1.0,2369
4728,1834728,17076,-604,896,17110.15,27.49,-1.00,-1.0,2441
4731,1834731,17052,-552,936,17086.59,27.54,-1.00,-1.0,2372
4734,1834734,17084,-480,968,17118.13,27.49,-1.00,-1.0,2422
4736,1834736,16948,-440,824,16973.72,27.59,-1.00,-1.0,2369
4739,1834739,16968,-556,852,16998.47,27.59,-1.00,-1.0,2422
4742,1834742,17096,-572,904,17129.44,27.54,-1.00,-1.0,2368
4744,1834744,17088,-616,960,17126.03,27.49,-1.00,-1.0,2371
4747,1834747,17012,-556,876,17043.61,27.54,-1.00,-1.0,2430
4750,1834750,17008,-692,1000,17051.42,27.49,-1.00,-1.0,2369
4755,1834755,16952,-596,1004,16992.16,27.49,-1.00,-1.0,2440
4758,1834758,17020,-596,896,17053.99,27.64,-1.00,-1.0,2369
4761,1834761,17036,-600,888,17069.68,27.59,-1.00,-1.0,2422
4763,1834763,17036,-660,924,17073.80,27.49,-1.00,-1.0,2370
4766,1834766,17060,-480,892,17090.04,27.59,-1.00,-1.0,2422
4769,1834769,16992,-556,872,17023.44,27.54,-1.00,-1.0,2368
4772,1834772,17048,-548,1012,17086.80,27.59,-1.00,-1.0,2423
4774,1834774,17040,-512,948,17074.03,27.49,-1.00,-1.0,2370
4779,1834779,17076,-620,812,17106.54,27.49,-1.00,-1.0,2447
4782,1834782,16956,-588,1104,17002.07,27.59,-1.00,-1.0,2368
4785,1834785,17096,-524,940,17129.84,27.59,-1.00,-1.0,2422
4787,1834787,16984,-544,908,17016.95,27.49,-1.00,-1.0,2375
4790,1834790,17116,-556,840,17145.62,27.54,-1.00,-1.0,2367
4793,1834793,17068,-576,1068,17111.08,27.45,-1.00,-1.0,2430
4796,1834796,17004,-524,896,17035.65,27.59,-1.00,-1.0,2355
4798,1834798,16944,-524,940,16978.14,27.64,-1.00,-1.0,2425
4801,1834801,16916,-540,896,16948.32,27.45,-1.00,-1.0,2370
4806,1834806,17044,-564,1052,17085.75,27.59,-1.00,-1.0,2448
4809,1834809,17072,-548,928,17105.98,27.54,-1.00,-1.0,2374
4811,1834811,17052,-568,928,17086.68,27.59,-1.00,-1.0,2425
4814,1834814,17056,-700,912,17094.70,27.49,-1.00,-1.0,2385
4817,1834817,17008,-540,980,17044.77,27.59,-1.00,-1.0,2425
4820,1834820,16952,-564,808,16980.62,27.54,-1.00,-1.0,2373
4823,1834823,17076,-644,940,17113.97,27.49,-1.00,-1.0,2424
4825,1834825,17060,-548,988,17097.37,27.59,-1.00,-1.0,2377
4828,1834828,17048,-568,872,17079.73,27.54,-1.00,-1.0,2376
4833,1834833,17008,-596,1024,17049.22,27.54,-1.00,-1.0,2448
4836,1834836,17052,-560,868,17083.26,27.54,-1.00,-1.0,2368
4838,1834838,17104,-612,868,17136.94,27.54,-1.00,-1.0,2424
4841,1834841,17024,-508,992,17060.44,27.64,-1.00,-1.0,2370
4844,1834844,17044,-472,880,17073.23,27.54,-1.00,-1.0,2430
4847,1834847,17028,-548,1020,17067.32,27.54,-1.00,-1.0,2369
4849,1834849,16948,-528,928,16981.60,27.54,-1.00,-1.0,2422
4852,1834852,16980,-532,904,17012.37,27.49,-1.00,-1.0,2387
4857,1834857,17068,-600,980,17106.64,27.49,-1.00,-1.0,2456
4860,1834860,16956,-636,988,16996.66,27.59,-1.00,-1.0,2377
4863,1834863,17064,-552,1024,17103.61,27.49,-1.00,-1.0,2431
4865,1834865,16988,-596,940,17024.42,27.49,-1.00,-1.0,2376
4868,1834868,17184,-600,876,17216.77,27.54,-1.00,-1.0,2366
4871,1834871,16980,-560,956,17016.11,27.54,-1.00,-1.0,2430
4874,1834874,17012,-472,948,17044.93,27.54,-1.00,-1.0,2368
4876,1834876,17020,-436,876,17048.11,27.54,-1.00,-1.0,2426
4879,1834879,16984,-596,880,17017.22,27.59,-1.00,-1.0,2377
4884,1834884,17116,-616,928,17152.20,27.59,-1.00,-1.0,2450
4887,1834887,16968,-608,896,17002.51,27.59,-1.00,-1.0,2376
4890,1834890,17080,-612,960,17117.90,27.45,-1.00,-1.0,2431
4892,1834892,16976,-588,980,17014.43,27.49,-1.00,-1.0,2376
4895,1834895,16964,-616,908,16999.45,27.54,-1.00,-1.0,2422
4898,1834898,17052,-548,880,17083.48,27.59,-1.00,-1.0,2371
4901,1834901,17016,-512,884,17046.64,27.64,-1.00,-1.0,2422
4903,1834903,17076,-580,928,17111.03,27.59,-1.00,-1.0,2376
4906,1834906,17064,-552,944,17099.00,27.54,-1.00,-1.0,2369
4911,1834911,16940,-572,896,16973.32,27.59,-1.00,-1.0,2435
4914,1834914,16960,-512,1044,16999.81,27.59,-1.00,-1.0,2373
4917,1834917,16976,-580,936,17011.67,27.54,-1.00,-1.0,2430
4919,1834919,17128,-636,776,17157.36,27.59,-1.00,-1.0,2376
4922,1834922,16912,-612,884,16946.14,27.54,-1.00,-1.0,2422
4925,1834925,17056,-572,896,17089.09,27.59,-1.00,-1.0,2370
4928,1834928,16984,-604,984,17023.20,27.54,-1.00,-1.0,2423
4930,1834930,17112,-684,844,17146.45,27.54,-1.00,-1.0,2380
4935,1834935,16984,-540,888,17015.77,27.54,-1.00,-1.0,2450
4938,1834938,17084,-556,924,17118.00,27.54,-1.00,-1.0,2376
4941,1834941,17028,-572,856,17059.09,27.54,-1.00,-1.0,2424
4944,1834944,17020,-736,1044,17067.87,27.64,-1.00,-1.0,2370
4946,1834946,16976,-668,908,17013.38,27.49,-1.00,-1.0,2366
4949,1834949,17028,-656,924,17065.66,27.68,-1.00,-1.0,2422
4952,1834952,17080,-600,932,17115.93,27.59,-1.00,-1.0,2377
4955,1834955,17100,-540,932,17133.89,27.68,-1.00,-1.0,2422
4957,1834957,16968,-588,876,17000.77,27.59,-1.00,-1.0,2371
4962,1834962,17040,-608,880,17073.54,27.59,-1.00,-1.0,2441
4965,1834965,16936,-548,932,16970.47,27.54,-1.00,-1.0,2356
4968,1834968,16956,-624,756,16984.31,27.59,-1.00,-1.0,2429
4971,1834971,17092,-572,904,17125.45,27.54,-1.00,-1.0,2368
4973,1834973,17024,-472,892,17053.89,27.59,-1.00,-1.0,2423
4976,1834976,17116,-548,972,17152.33,27.54,-1.00,-1.0,2370
4979,1834979,17024,-592,856,17055.79,27.49,-1.00,-1.0,2429
4982,1834982,16988,-592,864,17020.26,27.64,-1.00,-1.0,2369
4984,1834984,17048,-516,1024,17086.52,27.59,-1.00,-1.0,2353
4989,1834989,17124,-440,972,17157.21,27.59,-1.00,-1.0,2441
4992,1834992,17060,-548,852,17090.05,27.54,-1.00,-1.0,2371
4995,1834995,17020,-532,868,17050.42,27.59,-1.00,-1.0,2422
4998,1834998,17148,-516,892,17178.94,27.54,-1.00,-1.0,2370
5000,1835000,17008,-568,984,17045.91,27.49,-1.00,-1.0,2421
5003,1835003,17072,-608,872,17105.06,27.54,-1.00,-1.0,2372
5006,1835006,17080,-644,996,17121.13,27.59,-1.00,-1.0,2429
5009,1835009,17060,-568,888,17092.54,27.64,-1.00,-1.0,2370
5016,1835016,17080,-504,808,17106.53,27.59,-1.00,-1.0,2456
5019,1835019,16968,-480,1028,17005.89,27.59,-1.00,-1.0,2370
5021,1835021,17056,-536,880,17087.10,27.54,-1.00,-1.0,2430
5024,1835024,17032,-628,932,17069.04,27.59,-1.00,-1.0,2373
5027,1835027,17012,-568,980,17049.67,27.64,-1.00,-1.0,2369
5030,1835030,17140,-508,904,17171.34,27.54,-1.00,-1.0,2421
5032,1835032,16984,-504,996,17020.64,27.54,-1.00,-1.0,2372
5035,1835035,17060,-472,1048,17098.68,27.59,-1.00,-1.0,2423
5038,1835038,17024,-612,956,17061.80,27.54,-1.00,-1.0,2368
5042,1835042,16996,-612,904,17031.02,27.45,-1.00,-1.0,2448
5045,1835045,17104,-572,836,17133.97,27.45,-1.00,-1.0,2375
5048,1835048,16956,-560,868,16987.44,27.59,-1.00,-1.0,2423
5051,1835051,16984,-528,996,17021.37,27.54,-1.00,-1.0,2370
5054,1835054,16888,-584,1052,16930.81,27.54,-1.00,-1.0,2425
5056,1835056,17176,-572,940,17211.21,27.54,-1.00,-1.0,2372
5059,1835059,17068,-584,1020,17108.42,27.59,-1.00,-1.0,2422
5062,1835062,17096,-492,960,17130.00,27.54,-1.00,-1.0,2368
5064,1835064,17008,-624,940,17045.38,27.49,-1.00,-1.0,2370
5069,1835069,17124,-580,1004,17163.21,27.64,-1.00,-1.0,2427
5072,1835072,17028,-632,848,17060.81,27.59,-1.00,-1.0,2370
5075,1835075,17028,-484,864,17056.77,27.49,-1.00,-1.0,2421
5078,1835078,17004,-560,992,17042.12,27.59,-1.00,-1.0,2368
5081,1835081,16952,-624,824,16983.48,27.59,-1.00,-1.0,2421
5083,1835083,16992,-668,960,17032.20,27.59,-1.00,-1.0,2372
5086,1835086,16888,-580,924,16923.20,27.49,-1.00,-1.0,2421
5089,1835089,17040,-524,928,17073.29,27.49,-1.00,-1.0,2368
5094,1835094,17040,-580,916,17074.46,27.59,-1.00,-1.0,2444
5096,1835096,16956,-528,1044,16996.31,27.54,-1.00,-1.0,2377
5099,1835099,17056,-544,1040,17096.34,27.49,-1.00,-1.0,2421
5102,1835102,16996,-516,856,17025.36,27.49,-1.00,-1.0,2372
5105,1835105,17056,-540,972,17092.21,27.49,-1.00,-1.0,2367
5107,1835107,17092,-508,976,17127.38,27.54,-1.00,-1.0,2425
5110,1835110,17060,-556,896,17092.56,27.54,-1.00,-1.0,2369
5113,1835113,17076,-632,960,17114.64,27.54,-1.00,-1.0,2429
5116,1835116,16992,-628,912,17028.04,27.45,-1.00,-1.0,2368
5121,1835121,16932,-600,880,16965.46,27.59,-1.00,-1.0,2440
5123,1835123,17036,-516,980,17071.96,27.59,-1.00,-1.0,2368
5126,1835126,17016,-556,824,17045.01,27.45,-1.00,-1.0,2422
5129,1835129,17128,-520,804,17154.74,27.59,-1.00,-1.0,2368
5132,1835132,16988,-612,964,17026.33,27.54,-1.00,-1.0,2422
5134,1835134,17040,-520,936,17073.61,27.59,-1.00,-1.0,2369
5137,1835137,17016,-692,864,17051.97,27.45,-1.00,-1.0,2421
5140,1835140,16932,-560,828,16961.48,27.49,-1.00,-1.0,2368
5142,1835142,17052,-544,1008,17090.43,27.54,-1.00,-1.0,2370
5147,1835147,16980,-604,1064,17024.02,27.54,-1.00,-1.0,2440
5150,1835150,17032,-548,972,17068.51,27.54,-1.00,-1.0,2368
5153,1835153,16956,-640,924,16993.21,27.64,-1.00,-1.0,2424
5156,1835156,17032,-632,924,17068.75,27.54,-1.00,-1.0,2368
5158,1835158,16984,-556,852,17014.44,27.54,-1.00,-1.0,2422
5161,1835161,17020,-540,928,17053.83,27.54,-1.00,-1.0,2369
5164,1835164,17076,-608,900,17110.51,27.45,-1.00,-1.0,2424
5167,1835167,17088,-568,864,17119.25,27.64,-1.00,-1.0,2368
5172,1835172,17056,-640,976,17095.89,27.64,-1.00,-1.0,2440
5174,1835174,17028,-544,772,17054.17,27.64,-1.00,-1.0,2368
5177,1835177,17000,-580,828,17030.03,27.64,-1.00,-1.0,2421
5180,1835180,17016,-552,964,17052.22,27.54,-1.00,-1.0,2368
5182,1835182,17004,-604,920,17039.58,27.54,-1.00,-1.0,2370
5185,1835185,17124,-548,888,17155.76,27.49,-1.00,-1.0,2437
5188,1835188,17036,-508,1012,17073.59,27.49,-1.00,-1.0,2379
5191,1835191,17020,-512,1080,17061.91,27.49,-1.00,-1.0,2435
5193,1835193,17072,-564,896,17104.80,27.59,-1.00,-1.0,2371
5198,1835198,17044,-624,804,17074.36,27.54,-1.00,-1.0,2440
5201,1835201,17044,-556,936,17078.73,27.45,-1.00,-1.0,2367
5204,1835204,16976,-692,1020,17020.69,27.59,-1.00,-1.0,2429
5207,1835207,17112,-656,1092,17159.35,27.59,-1.00,-1.0,2368
5209,1835209,17100,-532,904,17132.14,27.49,-1.00,-1.0,2435
5212,1835212,17088,-576,964,17124.86,27.59,-1.00,-1.0,2369
5215,1835215,17048,-552,892,17080.24,27.49,-1.00,-1.0,2427
5218,1835218,17112,-556,908,17145.09,27.49,-1.00,-1.0,2369
5222,1835222,16944,-644,808,16975.47,27.49,-1.00,-1.0,2450
5225,1835225,16984,-600,956,17021.46,27.59,-1.00,-1.0,2376
5228,1835228,16992,-512,784,17017.78,27.64,-1.00,-1.0,2367
5231,1835231,17032,-524,1020,17070.56,27.49,-1.00,-1.0,2421
5233,1835233,16888,-640,948,16926.69,27.54,-1.00,-1.0,2369
5236,1835236,17020,-524,920,17052.90,27.49,-1.00,-1.0,2421
5239,1835239,17112,-528,904,17143.99,27.54,-1.00,-1.0,2371
5242,1835242,17064,-496,848,17092.26,27.59,-1.00,-1.0,2421
5244,1835244,17032,-416,816,17056.61,27.54,-1.00,-1.0,2369
5249,1835249,17008,-596,860,17040.15,27.54,-1.00,-1.0,2443
5252,1835252,17020,-580,852,17051.18,27.54,-1.00,-1.0,2376
5255,1835255,17048,-592,992,17087.10,27.54,-1.00,-1.0,2424
5257,1835257,17056,-540,912,17088.90,27.64,-1.00,-1.0,2360
5260,1835260,16976,-520,960,17011.07,27.54,-1.00,-1.0,2422
5263,1835263,17012,-524,960,17047.12,27.45,-1.00,-1.0,2370
5265,1835265,17024,-592,860,17055.99,27.45,-1.00,-1.0,2366
5268,1835268,16944,-536,1068,16986.08,27.59,-1.00,-1.0,2421
5271,1835271,17104,-592,988,17142.74,27.59,-1.00,-1.0,2369
5276,1835276,17028,-676,1008,17071.20,27.59,-1.00,-1.0,2443
5279,1835279,17044,-588,940,17080.03,27.54,-1.00,-1.0,2372
5281,1835281,16996,-512,836,17024.25,27.59,-1.00,-1.0,2421
5284,1835284,16984,-532,844,17013.28,27.40,-1.00,-1.0,2369
5287,1835287,17032,-568,1112,17077.71,27.59,-1.00,-1.0,2428
5290,1835290,16988,-600,956,17025.45,27.59,-1.00,-1.0,2368
5292,1835292,17156,-576,1016,17195.71,27.49,-1.00,-1.0,2421
5295,1835295,17056,-508,852,17084.82,27.68,-1.00,-1.0,2369
5300,1835300,17032,-548,908,17064.99,27.59,-1.00,-1.0,2442
5303,1835303,16984,-516,856,17013.38,27.54,-1.00,-1.0,2368
5305,1835305,17016,-504,1024,17054.23,27.59,-1.00,-1.0,2366
5308,1835308,16992,-624,928,17028.76,27.54,-1.00,-1.0,2429
5311,1835311,16976,-492,972,17010.92,27.49,-1.00,-1.0,2372
5314,1835314,17060,-604,856,17092.14,27.54,-1.00,-1.0,2422
5316,1835316,17048,-612,1000,17088.27,27.49,-1.00,-1.0,2371
5319,1835319,17048,-576,908,17081.88,27.54,-1.00,-1.0,2438
5322,1835322,16992,-556,860,17022.83,27.54,-1.00,-1.0,2380
5327,1835327,17016,-588,808,17045.32,27.54,-1.00,-1.0,2443
5330,1835330,16936,-632,760,16964.82,27.59,-1.00,-1.0,2355
5332,1835332,16956,-528,928,16989.58,27.54,-1.00,-1.0,2423
5335,1835335,17044,-468,1004,17079.96,27.59,-1.00,-1.0,2369
5338,1835338,17052,-472,980,17086.66,27.64,-1.00,-1.0,2429
5341,1835341,17156,-544,824,17184.39,27.49,-1.00,-1.0,2367
5343,1835343,16992,-520,912,17024.40,27.54,-1.00,-1.0,2373
5346,1835346,17044,-456,928,17075.33,27.59,-1.00,-1.0,2424
5349,1835349,16976,-528,976,17012.23,27.64,-1.00,-1.0,2370
5354,1835354,17024,-588,868,17056.25,27.54,-1.00,-1.0,2449
5356,1835356,16988,-632,868,17021.90,27.45,-1.00,-1.0,2377
5359,1835359,17048,-568,896,17080.98,27.45,-1.00,-1.0,2421
5362,1835362,17088,-556,872,17119.27,27.54,-1.00,-1.0,2371
5365,1835365,17088,-568,1016,17127.60,27.49,-1.00,-1.0,2421
5367,1835367,17048,-648,940,17086.19,27.59,-1.00,-1.0,2379
5370,1835370,17016,-480,1016,17053.06,27.49,-1.00,-1.0,2421
5373,1835373,17072,-604,824,17102.54,27.49,-1.00,-1.0,2370
5378,1835378,17020,-544,1024,17059.45,27.59,-1.00,-1.0,2427
5381,1835381,16972,-568,1112,17017.87,27.54,-1.00,-1.0,2371
5383,1835383,17004,-584,996,17043.15,27.49,-1.00,-1.0,2429
5386,1835386,16960,-604,992,16999.72,27.45,-1.00,-1.0,2376
5389,1835389,16996,-576,952,17032.38,27.59,-1.00,-1.0,2366
5392,1835392,17020,-664,828,17053.06,27.54,-1.00,-1.0,2425
5394,1835394,17104,-532,1008,17141.93,27.54,-1.00,-1.0,2370
5397,1835397,16944,-668,892,16980.61,27.64,-1.00,-1.0,2421
5400,1835400,16948,-564,1020,16988.03,27.54,-1.00,-1.0,2369
5405,1835405,17108,-532,968,17143.62,27.54,-1.00,-1.0,2440
5408,1835408,17104,-596,968,17141.73,27.59,-1.00,-1.0,2368
5410,1835410,17000,-604,972,17038.47,27.64,-1.00,-1.0,2421
5413,1835413,16996,-660,1044,17040.82,27.59,-1.00,-1.0,2369
5416,1835416,16976,-632,948,17014.19,27.64,-1.00,-1.0,2429
5419,1835419,16992,-600,944,17028.78,27.45,-1.00,-1.0,2368
5421,1835421,17000,-508,892,17030.96,27.54,-1.00,-1.0,2421
5424,1835424,16944,-636,740,16972.07,27.54,-1.00,-1.0,2370
5427,1835427,17084,-512,952,17118.16,27.54,-1.00,-1.0,2368
5431,1835431,17024,-464,880,17053.04,27.49,-1.00,-1.0,2447
5434,1835434,16980,-656,940,17018.65,27.59,-1.00,-1.0,2375
5437,1835437,17064,-504,904,17095.36,27.54,-1.00,-1.0,2422
5440,1835440,17056,-536,916,17088.99,27.68,-1.00,-1.0,2369
5443,1835443,17056,-500,880,17086.00,27.54,-1.00,-1.0,2422
5445,1835445,17004,-612,992,17043.90,27.49,-1.00,-1.0,2369
5448,1835448,16984,-568,964,17020.82,27.45,-1.00,-1.0,2421
5451,1835451,17056,-532,852,17085.55,27.49,-1.00,-1.0,2367
5455,1835455,17016,-676,916,17054.04,27.59,-1.00,-1.0,2444
5458,1835458,17100,-560,796,17127.67,27.54,-1.00,-1.0,2368
5461,1835461,17008,-544,912,17041.12,27.59,-1.00,-1.0,2428
5464,1835464,16988,-620,868,17021.46,27.59,-1.00,-1.0,2368
5466,1835466,16988,-576,868,17019.91,27.59,-1.00,-1.0,2365
5469,1835469,16976,-508,908,17007.85,27.54,-1.00,-1.0,2409
5472,1835472,16940,-596,884,16973.52,27.49,-1.00,-1.0,2368
5475,1835475,16932,-536,876,16963.12,27.54,-1.00,-1.0,2422
5477,1835477,17000,-548,888,17031.99,27.54,-1.00,-1.0,2372
5482,1835482,17028,-672,880,17063.96,27.59,-1.00,-1.0,2452
5485,1835485,17096,-552,1024,17135.53,27.59,-1.00,-1.0,2376
5488,1835488,16992,-484,960,17025.98,27.49,-1.00,-1.0,2424
5491,1835491,16988,-508,888,17018.78,27.49,-1.00,-1.0,2371
5493,1835493,17084,-592,848,17115.28,27.54,-1.00,-1.0,2429
5496,1835496,17012,-572,1036,17053.11,27.59,-1.00,-1.0,2383
5499,1835499,17056,-648,860,17089.96,27.45,-1.00,-1.0,2422
5502,1835502,17028,-480,972,17062.47,27.59,-1.00,-1.0,2373
5504,1835504,17024,-556,964,17060.33,27.64,-1.00,-1.0,2367
5509,1835509,16988,-568,904,17021.52,27.54,-1.00,-1.0,2440
5512,1835512,17072,-628,912,17107.87,27.45,-1.00,-1.0,2369
5515,1835515,17084,-608,936,17120.42,27.54,-1.00,-1.0,2422
5517,1835517,17036,-540,888,17067.67,27.54,-1.00,-1.0,2355
5520,1835520,17044,-588,1008,17083.90,27.54,-1.00,-1.0,2422
5523,1835523,17068,-624,788,17097.57,27.54,-1.00,-1.0,2372
5526,1835526,16988,-484,892,17018.29,27.64,-1.00,-1.0,2421
5528,1835528,17060,-536,916,17092.98,27.54,-1.00,-1.0,2356
5533,1835533,17140,-532,936,17173.78,27.64,-1.00,-1.0,2450
5536,1835536,17016,-572,872,17047.93,27.54,-1.00,-1.0,2383
5539,1835539,17072,-584,676,17095.36,27.54,-1.00,-1.0,2422
5542,1835542,16928,-556,948,16963.64,27.64,-1.00,-1.0,2371
5544,1835544,16980,-580,1016,17020.25,27.54,-1.00,-1.0,2353
5547,1835547,16948,-616,868,16981.39,27.49,-1.00,-1.0,2421
5550,1835550,17068,-520,852,17097.16,27.45,-1.00,-1.0,2367
5553,1835553,17088,-532,780,17114.06,27.59,-1.00,-1.0,2421
5555,1835555,16996,-528,856,17025.73,27.49,-1.00,-1.0,2369
5560,1835560,17092,-624,924,17128.33,27.54,-1.00,-1.0,2440
5563,1835563,17064,-592,936,17099.90,27.54,-1.00,-1.0,2373
5566,1835566,16976,-424,980,17009.55,27.49,-1.00,-1.0,2421
5568,1835568,17116,-608,876,17149.18,27.54,-1.00,-1.0,2355
5571,1835571,17084,-632,988,17124.21,27.59,-1.00,-1.0,2421
5574,1835574,17092,-524,952,17126.51,27.54,-1.00,-1.0,2371
5577,1835577,17056,-560,760,17082.11,27.59,-1.00,-1.0,2421
5579,1835579,17052,-516,900,17083.53,27.45,-1.00,-1.0,2370
5582,1835582,16960,-644,948,16998.68,27.59,-1.00,-1.0,2365
5587,1835587,17084,-604,876,17117.10,27.49,-1.00,-1.0,2439
5590,1835590,17036,-604,1068,17080.13,27.59,-1.00,-1.0,2367
5593,1835593,17064,-628,928,17100.75,27.49,-1.00,-1.0,2408
5595,1835595,17000,-500,904,17031.36,27.49,-1.00,-1.0,2368
5598,1835598,17044,-548,1052,17085.23,27.59,-1.00,-1.0,2423
5601,1835601,17028,-576,972,17065.44,27.49,-1.00,-1.0,2367
5604,1835604,17024,-664,960,17063.97,27.59,-1.00,-1.0,2421
5606,1835606,17008,-616,1008,17048.98,27.59,-1.00,-1.0,2369
5611,1835611,17124,-476,1088,17165.13,27.49,-1.00,-1.0,2445
5614,1835614,17028,-540,792,17054.96,27.54,-1.00,-1.0,2355
5617,1835617,17080,-496,996,17116.20,27.59,-1.00,-1.0,2421
5619,1835619,17092,-664,916,17129.40,27.64,-1.00,-1.0,2375
5622,1835622,17012,-552,996,17050.07,27.59,-1.00,-1.0,2367
5625,1835625,17000,-600,992,17039.49,27.64,-1.00,-1.0,2432
5628,1835628,17040,-476,1060,17079.57,27.59,-1.00,-1.0,2354
5630,1835630,17056,-544,1024,17095.37,27.54,-1.00,-1.0,2422
5633,1835633,17028,-628,908,17063.75,27.59,-1.00,-1.0,2369
5638,1835638,17000,-572,1036,17041.14,27.64,-1.00,-1.0,2451
5641,1835641,16956,-504,888,16986.71,27.54,-1.00,-1.0,2369
5643,1835643,17004,-548,1020,17043.38,27.54,-1.00,-1.0,2437
5646,1835646,17044,-564,840,17074.00,27.54,-1.00,-1.0,2377
5649,1835649,17072,-532,948,17106.57,27.54,-1.00,-1.0,2424
5652,1835652,17080,-684,972,17121.30,27.54,-1.00,-1.0,2370
5654,1835654,17000,-548,1060,17041.83,27.49,-1.00,-1.0,2432
5657,1835657,17108,-516,992,17144.50,27.54,-1.00,-1.0,2376
5660,1835660,17028,-584,1076,17071.95,27.64,-1.00,-1.0,2368
5665,1835665,17084,-484,1012,17120.79,27.54,-1.00,-1.0,2439
5667,1835667,16960,-560,776,16986.98,27.54,-1.00,-1.0,2372
5670,1835670,16972,-580,828,17002.08,27.59,-1.00,-1.0,2435
5673,1835673,17040,-564,1048,17081.51,27.54,-1.00,-1.0,2377
5676,1835676,17036,-572,884,17068.51,27.59,-1.00,-1.0,2436
5678,1835678,17084,-588,1032,17125.24,27.54,-1.00,-1.0,2377
5681,1835681,17000,-492,1012,17037.20,27.59,-1.00,-1.0,2422
5684,1835684,17012,-564,912,17045.76,27.49,-1.00,-1.0,2371
5689,1835689,17052,-660,988,17093.35,27.59,-1.00,-1.0,2439
5692,1835692,17036,-508,904,17067.53,27.49,-1.00,-1.0,2375
5695,1835695,17028,-604,972,17066.41,27.59,-1.00,-1.0,2421
5697,1835697,16948,-592,876,16980.95,27.59,-1.00,-1.0,2371
5700,1835700,17060,-568,908,17093.59,27.49,-1.00,-1.0,2421
5703,1835703,17024,-644,980,17064.34,27.59,-1.00,-1.0,2368
5705,1835705,17132,-616,940,17168.82,27.54,-1.00,-1.0,2366
5708,1835708,17048,-580,948,17084.19,27.54,-1.00,-1.0,2422
5711,1835711,17016,-632,1012,17057.78,27.54,-1.00,-1.0,2369
5716,1835716,17060,-596,900,17094.12,27.59,-1.00,-1.0,2441
5719,1835719,17080,-568,1000,17118.67,27.59,-1.00,-1.0,2367
5722,1835722,17096,-592,948,17132.49,27.54,-1.00,-1.0,2422
5724,1835724,16928,-500,928,16960.79,27.49,-1.00,-1.0,2368
5727,1835727,16980,-520,868,17010.12,27.45,-1.00,-1.0,2420
5730,1835730,16976,-572,992,17014.58,27.59,-1.00,-1.0,2367
5733,1835733,16996,-612,924,17032.10,27.54,-1.00,-1.0,2422
5735,1835735,16996,-512,968,17031.24,27.64,-1.00,-1.0,2373
5740,1835740,17200,-560,872,17231.19,27.54,-1.00,-1.0,2439
5743,1835743,16940,-448,936,16971.75,27.49,-1.00,-1.0,2368
5746,1835746,16996,-584,868,17028.17,27.45,-1.00,-1.0,2366
5748,1835748,17088,-692,944,17128.04,27.59,-1.00,-1.0,2424
5751,1835751,16996,-600,980,17034.80,27.54,-1.00,-1.0,2370
5754,1835754,17136,-616,948,17173.25,27.54,-1.00,-1.0,2429
5757,1835757,16884,-564,920,16918.45,27.64,-1.00,-1.0,2367
5759,1835759,17052,-556,788,17079.25,27.59,-1.00,-1.0,2424
5762,1835762,16972,-528,960,17007.33,27.54,-1.00,-1.0,2369
5767,1835767,16956,-632,888,16990.99,27.64,-1.00,-1.0,2440
5770,1835770,17028,-524,820,17055.78,27.54,-1.00,-1.0,2368
5773,1835773,16984,-620,872,17017.67,27.59,-1.00,-1.0,2421
5775,1835775,17016,-528,920,17049.03,27.54,-1.00,-1.0,2356
5778,1835778,17052,-524,864,17081.91,27.45,-1.00,-1.0,2421
5781,1835781,17024,-556,912,17057.47,27.54,-1.00,-1.0,2367
5783,1835783,17024,-560,912,17057.61,27.59,-1.00,-1.0,2371
5786,1835786,17044,-584,1040,17085.68,27.49,-1.00,-1.0,2429
5789,1835789,17040,-620,1068,17084.69,27.59,-1.00,-1.0,2369
5794,1835794,16920,-604,1028,16961.96,27.49,-1.00,-1.0,2439
5797,1835797,17024,-640,968,17063.51,27.64,-1.00,-1.0,2367
5800,1835800,17008,-604,920,17043.57,27.59,-1.00,-1.0,2422
5802,1835802,17060,-608,800,17089.57,27.49,-1.00,-1.0,2369
5805,1835805,17004,-576,924,17038.83,27.59,-1.00,-1.0,2421
5808,1835808,17044,-652,1120,17093.20,27.54,-1.00,-1.0,2377
5811,1835811,17068,-616,1036,17110.50,27.59,-1.00,-1.0,2421
5813,1835813,16944,-532,940,16978.39,27.49,-1.00,-1.0,2368
5818,1835818,17004,-588,848,17035.28,27.59,-1.00,-1.0,2443
5821,1835821,17004,-588,996,17043.29,27.54,-1.00,-1.0,2371
5824,1835824,17028,-592,1032,17069.51,27.49,-1.00,-1.0,2365
5826,1835826,17020,-632,968,17059.22,27.54,-1.00,-1.0,2430
5829,1835829,17092,-672,916,17129.71,27.64,-1.00,-1.0,2384
5832,1835832,16992,-560,1000,17030.61,27.54,-1.00,-1.0,2425
5835,1835835,16968,-572,1008,17007.54,27.45,-1.00,-1.0,2372
5837,1835837,17008,-532,880,17039.06,27.54,-1.00,-1.0,2424
5840,1835840,17028,-620,904,17063.25,27.54,-1.00,-1.0,2377
5847,1835847,17024,-564,776,17051.01,27.54,-1.00,-1.0,2435
5850,1835850,17116,-584,1008,17155.60,27.54,-1.00,-1.0,2370
5852,1835852,17084,-524,912,17116.35,27.54,-1.00,-1.0,2429
5855,1835855,17020,-492,1008,17056.92,27.45,-1.00,-1.0,2376
5858,1835858,17092,-668,912,17129.34,27.54,-1.00,-1.0,2423
5861,1835861,17076,-620,992,17116.02,27.54,-1.00,-1.0,2370
5864,1835864,16996,-596,904,17030.46,27.64,-1.00,-1.0,2424
5866,1835866,17004,-648,904,17040.34,27.54,-1.00,-1.0,2371
5869,1835869,16948,-608,728,16974.52,27.59,-1.00,-1.0,2373
5874,1835874,17092,-492,852,17120.29,27.59,-1.00,-1.0,2440
5876,1835876,16976,-564,1020,17015.96,27.49,-1.00,-1.0,2368
5879,1835879,17120,-540,956,17155.17,27.49,-1.00,-1.0,2421
5882,1835882,17128,-508,984,17163.76,27.54,-1.00,-1.0,2368
5885,1835885,17004,-604,1068,17048.21,27.59,-1.00,-1.0,2409
5887,1835887,16956,-552,952,16991.67,27.49,-1.00,-1.0,2368
5890,1835890,17032,-632,908,17067.89,27.59,-1.00,-1.0,2421
5893,1835893,17072,-592,868,17104.30,27.54,-1.00,-1.0,2369
5898,1835898,17008,-568,1016,17047.78,27.54,-1.00,-1.0,2441
5900,1835900,17044,-436,988,17078.18,27.54,-1.00,-1.0,2376
5903,1835903,17044,-640,928,17081.24,27.49,-1.00,-1.0,2421
5906,1835906,17092,-508,996,17128.53,27.59,-1.00,-1.0,2370
5909,1835909,17012,-480,780,17036.63,27.59,-1.00,-1.0,2366
5911,1835911,16848,-456,872,16876.71,27.54,-1.00,-1.0,2426
5914,1835914,16980,-648,1028,17023.43,27.49,-1.00,-1.0,2369
5917,1835917,17020,-716,1060,17068.00,27.54,-1.00,-1.0,2428
5920,1835920,16928,-572,784,16955.80,27.54,-1.00,-1.0,2373
5925,1835925,17048,-448,896,17077.41,27.59,-1.00,-1.0,2446
5928,1835928,17116,-584,1000,17155.13,27.59,-1.00,-1.0,2371
5930,1835930,17072,-520,900,17103.61,27.45,-1.00,-1.0,2422
5933,1835933,17016,-572,904,17049.59,27.59,-1.00,-1.0,2371
5936,1835936,17008,-600,972,17046.31,27.54,-1.00,-1.0,2430
5939,1835939,16996,-596,880,17029.20,27.40,-1.00,-1.0,2368
5941,1835941,17060,-524,856,17089.50,27.45,-1.00,-1.0,2423
5944,1835944,17060,-568,924,17094.44,27.59,-1.00,-1.0,2373
5947,1835947,17052,-604,904,17086.62,27.54,-1.00,-1.0,2371
5952,1835952,17000,-608,704,17025.43,27.54,-1.00,-1.0,2465
5954,1835954,17052,-520,864,17081.79,27.49,-1.00,-1.0,2367
5957,1835957,17004,-668,884,17040.06,27.59,-1.00,-1.0,2421
5960,1835960,17060,-560,940,17095.05,27.59,-1.00,-1.0,2366
5963,1835963,17004,-572,968,17041.13,27.59,-1.00,-1.0,2422
5965,1835965,17040,-508,1040,17079.26,27.59,-1.00,-1.0,2367
5968,1835968,16920,-580,808,16949.21,27.59,-1.00,-1.0,2423
5971,1835971,17072,-476,924,17103.61,27.59,-1.00,-1.0,2367
5976,1835976,16932,-564,980,16969.71,27.59,-1.00,-1.0,2449
5979,1835979,17028,-488,876,17057.50,27.54,-1.00,-1.0,2370
5981,1835981,17004,-592,852,17035.62,27.68,-1.00,-1.0,2430
5984,1835984,17072,-640,980,17112.08,27.49,-1.00,-1.0,2381
5987,1835987,17008,-628,1044,17051.58,27.59,-1.00,-1.0,2366
5990,1835990,17048,-524,908,17080.20,27.54,-1.00,-1.0,2423
5992,1835992,17032,-524,920,17064.88,27.54,-1.00,-1.0,2370
5995,1835995,17052,-640,864,17085.87,27.54,-1.00,-1.0,2422
5998,1835998,16952,-580,896,16985.57,27.54,-1.00,-1.0,2368
6003,1836003,17064,-596,1104,17110.06,27.49,-1.00,-1.0,2442
6005,1836005,17092,-580,980,17129.89,27.59,-1.00,-1.0,2375
6008,1836008,17040,-604,912,17075.07,27.64,-1.00,-1.0,2408
6011,1836011,17068,-580,940,17103.70,27.59,-1.00,-1.0,2372
6014,1836014,16996,-568,908,17029.71,27.54,-1.00,-1.0,2422
6016,1836016,17024,-568,896,17057.02,27.49,-1.00,-1.0,2361
6019,1836019,16904,-624,972,16943.42,27.54,-1.00,-1.0,2422
6022,1836022,16960,-664,780,16990.91,27.59,-1.00,-1.0,2370
6025,1836025,17008,-652,968,17048.00,27.54,-1.00,-1.0,2367
6030,1836030,17004,-592,1008,17044.13,27.64,-1.00,-1.0,2440
6032,1836032,17036,-592,1076,17080.21,27.54,-1.00,-1.0,2368
6035,1836035,17064,-604,908,17098.81,27.54,-1.00,-1.0,2421
6038,1836038,16996,-592,944,17032.49,27.54,-1.00,-1.0,2368
6041,1836041,17036,-516,1108,17079.79,27.45,-1.00,-1.0,2408
6043,1836043,17048,-612,832,17079.26,27.54,-1.00,-1.0,2369
6046,1836046,16944,-520,928,16977.36,27.54,-1.00,-1.0,2422
6049,1836049,16984,-524,920,17016.97,27.54,-1.00,-1.0,2367
6054,1836054,17056,-512,916,17088.25,27.54,-1.00,-1.0,2441
6056,1836056,16996,-496,1004,17032.85,27.54,-1.00,-1.0,2368
6059,1836059,17060,-552,848,17089.98,27.59,-1.00,-1.0,2421
6062,1836062,17024,-548,936,17058.52,27.54,-1.00,-1.0,2368
6064,1836064,17080,-560,844,17110.01,27.59,-1.00,-1.0,2377
6067,1836067,17032,-548,908,17064.99,27.54,-1.00,-1.0,2429
6070,1836070,16996,-624,800,17026.26,27.49,-1.00,-1.0,2372
6073,1836073,17072,-560,932,17106.59,27.54,-1.00,-1.0,2431
6075,1836075,17044,-524,896,17075.58,27.49,-1.00,-1.0,2376
6080,1836080,17020,-608,900,17054.62,27.59,-1.00,-1.0,2440
6083,1836083,17036,-584,1060,17078.93,27.59,-1.00,-1.0,2377
6086,1836086,17156,-528,1012,17193.93,27.59,-1.00,-1.0,2422
6088,1836088,16988,-508,932,17021.13,27.59,-1.00,-1.0,2370
6091,1836091,17068,-652,972,17108.08,27.49,-1.00,-1.0,2437
6094,1836094,17112,-580,1048,17153.87,27.49,-1.00,-1.0,2379
6097,1836097,17076,-616,928,17112.29,27.45,-1.00,-1.0,2437
6099,1836099,16992,-456,920,17023.00,27.49,-1.00,-1.0,2372
6104,1836104,17032,-600,968,17070.03,27.59,-1.00,-1.0,2441
