timestamp_ms,global_ms,accel_x,accel_y,accel_z,accel_mag,temp_c,voltage,soc,loop_us
2,1220002,17148,-736,972,17191.29,30.18,-1.00,-1.0,2485
9,1220009,17084,-636,880,17118.47,30.22,-1.00,-1.0,2452
12,1220012,17124,-604,832,17154.84,30.13,-1.00,-1.0,2381
14,1220014,17100,-528,1004,17137.58,30.27,-1.00,-1.0,2352
17,1220017,17044,-552,944,17079.04,30.18,-1.00,-1.0,2418
20,1220020,17044,-592,820,17073.98,30.27,-1.00,-1.0,2372
23,1220023,17096,-604,816,17126.12,30.18,-1.00,-1.0,2418
25,1220025,17172,-592,956,17208.78,30.27,-1.00,-1.0,2372
28,1220028,17000,-612,924,17036.09,30.18,-1.00,-1.0,2419
31,1220031,17112,-544,1044,17152.45,30.27,-1.00,-1.0,2372
36,1220036,17064,-576,860,17095.36,30.27,-1.00,-1.0,2442
38,1220038,17016,-600,956,17053.39,30.22,-1.00,-1.0,2371
41,1220041,17028,-660,844,17061.67,30.27,-1.00,-1.0,2419
44,1220044,17020,-640,672,17045.28,30.22,-1.00,-1.0,2375
46,1220046,17100,-564,836,17129.71,30.18,-1.00,-1.0,2366
49,1220049,17076,-556,848,17106.08,30.22,-1.00,-1.0,2418
52,1220052,17076,-620,864,17109.08,30.18,-1.00,-1.0,2379
55,1220055,17032,-612,832,17063.29,30.22,-1.00,-1.0,2418
57,1220057,17104,-572,908,17137.63,30.18,-1.00,-1.0,2372
62,1220062,17108,-616,980,17147.11,30.27,-1.00,-1.0,2439
65,1220065,17164,-608,1076,17208.44,30.27,-1.00,-1.0,2369
68,1220068,17036,-600,908,17070.73,30.27,-1.00,-1.0,2425
71,1220071,16932,-688,868,16968.19,30.18,-1.00,-1.0,2371
73,1220073,17104,-676,992,17146.07,30.22,-1.00,-1.0,2366
76,1220076,17024,-628,996,17064.67,30.13,-1.00,-1.0,2425
79,1220079,17112,-564,896,17144.72,30.22,-1.00,-1.0,2371
81,1220081,16888,-504,960,16922.77,30.27,-1.00,-1.0,2433
84,1220084,17024,-588,976,17062.09,30.13,-1.00,-1.0,2373
89,1220089,16984,-516,844,17012.79,30.22,-1.00,-1.0,2439
92,1220092,17000,-568,856,17031.01,30.18,-1.00,-1.0,2370
95,1220095,17032,-572,936,17067.29,30.13,-1.00,-1.0,2417
97,1220097,17048,-652,1068,17093.86,30.13,-1.00,-1.0,2372
100,1220100,17036,-580,964,17073.11,30.18,-1.00,-1.0,2370
103,1220103,17060,-532,956,17095.04,30.18,-1.00,-1.0,2429
105,1220105,17056,-608,772,17084.29,30.27,-1.00,-1.0,2379
108,1220108,17148,-400,1016,17182.73,30.18,-1.00,-1.0,2417
111,1220111,17048,-716,968,17090.46,30.27,-1.00,-1.0,2376
116,1220116,17040,-600,808,17069.69,30.18,-1.00,-1.0,2446
119,1220119,16992,-640,832,17024.39,30.13,-1.00,-1.0,2369
121,1220121,16988,-524,948,17022.50,30.27,-1.00,-1.0,2428
124,1220124,17068,-692,888,17105.09,30.32,-1.00,-1.0,2384
127,1220127,16948,-568,860,16979.31,30.18,-1.00,-1.0,2421
130,1220130,17012,-688,860,17047.61,30.18,-1.00,-1.0,2375
132,1220132,16996,-584,960,17033.11,30.27,-1.00,-1.0,2367
135,1220135,17008,-580,752,17034.49,30.22,-1.00,-1.0,2417
138,1220138,17032,-664,848,17066.02,30.27,-1.00,-1.0,2372
143,1220143,17032,-628,820,17063.29,30.37,-1.00,-1.0,2443
145,1220145,17000,-728,876,17038.12,30.18,-1.00,-1.0,2377
148,1220148,17020,-620,948,17057.65,30.22,-1.00,-1.0,2418
151,1220151,17100,-572,800,17128.26,30.18,-1.00,-1.0,2360
154,1220154,17052,-664,800,17083.66,30.18,-1.00,-1.0,2419
156,1220156,17044,-636,732,17071.56,30.18,-1.00,-1.0,2377
159,1220159,17120,-764,860,17158.60,30.13,-1.00,-1.0,2417
162,1220162,16960,-592,872,16992.72,30.27,-1.00,-1.0,2372
165,1220165,17156,-572,912,17189.74,30.22,-1.00,-1.0,2367
170,1220170,17052,-668,800,17083.82,30.22,-1.00,-1.0,2440
172,1220172,17052,-620,816,17082.77,30.22,-1.00,-1.0,2369
175,1220175,17088,-600,800,17117.23,30.32,-1.00,-1.0,2417
178,1220178,16988,-540,864,17018.53,30.18,-1.00,-1.0,2372
181,1220181,17024,-680,832,17057.88,30.22,-1.00,-1.0,2418
183,1220183,17040,-612,756,17067.74,30.22,-1.00,-1.0,2372
186,1220186,17076,-656,780,17106.39,30.13,-1.00,-1.0,2417
189,1220189,17068,-668,976,17108.93,30.08,-1.00,-1.0,2372
191,1220191,17068,-632,756,17096.42,30.18,-1.00,-1.0,2378
196,1220196,16984,-548,996,17022.00,30.18,-1.00,-1.0,2451
199,1220199,17140,-732,972,17183.14,30.27,-1.00,-1.0,2376
202,1220202,17008,-632,1052,17052.22,30.22,-1.00,-1.0,2419
205,1220205,16956,-624,756,16984.31,30.27,-1.00,-1.0,2375
207,1220207,17004,-644,888,17039.35,30.22,-1.00,-1.0,2426
210,1220210,17004,-672,980,17045.47,30.18,-1.00,-1.0,2386
213,1220213,17020,-676,820,17053.15,30.22,-1.00,-1.0,2422
216,1220216,17068,-520,832,17096.18,30.18,-1.00,-1.0,2377
221,1220221,17040,-572,980,17077.74,30.32,-1.00,-1.0,2426
223,1220223,17028,-556,1016,17067.34,30.22,-1.00,-1.0,2371
226,1220226,16980,-520,928,17013.29,30.18,-1.00,-1.0,2374
229,1220229,17048,-556,904,17081.00,30.27,-1.00,-1.0,2417
231,1220231,17156,-588,808,17185.08,30.27,-1.00,-1.0,2373
234,1220234,17028,-500,912,17059.73,30.27,-1.00,-1.0,2417
237,1220237,17148,-604,912,17182.85,30.18,-1.00,-1.0,2380
240,1220240,17100,-684,888,17136.70,30.18,-1.00,-1.0,2417
243,1220243,17016,-588,852,17047.46,30.22,-1.00,-1.0,2378
247,1220247,17112,-532,812,17139.51,30.13,-1.00,-1.0,2454
250,1220250,17144,-640,804,17174.77,30.22,-1.00,-1.0,2376
253,1220253,17088,-596,960,17125.32,30.22,-1.00,-1.0,2423
255,1220255,16972,-576,764,16998.95,30.22,-1.00,-1.0,2377
258,1220258,17120,-640,876,17154.34,30.18,-1.00,-1.0,2365
261,1220261,17016,-620,816,17046.83,30.18,-1.00,-1.0,2425
264,1220264,17152,-636,932,17189.07,30.18,-1.00,-1.0,2370
267,1220267,17012,-604,1024,17053.49,30.18,-1.00,-1.0,2418
270,1220270,17052,-604,916,17087.26,30.13,-1.00,-1.0,2372
275,1220275,17120,-648,840,17152.84,30.13,-1.00,-1.0,2439
277,1220277,17060,-704,1024,17105.20,30.22,-1.00,-1.0,2368
280,1220280,17132,-668,844,17165.78,30.18,-1.00,-1.0,2421
283,1220283,16960,-668,948,16999.60,30.22,-1.00,-1.0,2372
286,1220286,17048,-724,832,17083.64,30.18,-1.00,-1.0,2418
288,1220288,17048,-540,896,17080.07,30.22,-1.00,-1.0,2372
291,1220291,17008,-664,940,17046.89,30.18,-1.00,-1.0,2370
294,1220294,17088,-660,968,17128.12,30.18,-1.00,-1.0,2421
297,1220297,17028,-624,1008,17069.22,30.18,-1.00,-1.0,2372
302,1220302,17068,-640,1160,17119.34,30.27,-1.00,-1.0,2439
304,1220304,16992,-604,1052,17035.25,30.27,-1.00,-1.0,2368
307,1220307,17080,-604,960,17117.62,30.27,-1.00,-1.0,2418
310,1220310,16976,-724,1004,17021.07,30.18,-1.00,-1.0,2372
313,1220313,17080,-620,1016,17121.42,30.27,-1.00,-1.0,2418
315,1220315,16992,-556,924,17026.19,30.18,-1.00,-1.0,2372
318,1220318,17060,-696,1048,17106.32,30.27,-1.00,-1.0,2419
321,1220321,17060,-520,768,17085.19,30.18,-1.00,-1.0,2372
326,1220326,16988,-532,940,17022.30,30.18,-1.00,-1.0,2439
328,1220328,17192,-556,848,17221.88,30.13,-1.00,-1.0,2372
331,1220331,17088,-528,816,17115.62,30.27,-1.00,-1.0,2365
334,1220334,17068,-644,1072,17113.75,30.22,-1.00,-1.0,2425
337,1220337,16948,-624,800,16978.34,30.27,-1.00,-1.0,2354
339,1220339,17060,-560,960,17096.16,30.22,-1.00,-1.0,2420
342,1220342,16928,-460,940,16960.32,30.27,-1.00,-1.0,2368
345,1220345,17028,-548,860,17058.51,30.32,-1.00,-1.0,2420
348,1220348,17036,-536,880,17067.13,30.27,-1.00,-1.0,2367
353,1220353,17008,-628,924,17044.65,30.27,-1.00,-1.0,2426
355,1220355,17124,-628,920,17160.19,30.08,-1.00,-1.0,2365
358,1220358,16924,-520,840,16952.81,30.32,-1.00,-1.0,2373
361,1220361,17020,-512,832,17048.01,30.27,-1.00,-1.0,2433
363,1220363,17008,-648,800,17039.13,30.22,-1.00,-1.0,2381
366,1220366,16948,-496,860,16977.05,30.18,-1.00,-1.0,2418
369,1220369,16992,-708,800,17025.55,30.32,-1.00,-1.0,2375
372,1220372,17028,-492,1088,17069.81,30.27,-1.00,-1.0,2423
375,1220375,17052,-508,688,17073.43,30.22,-1.00,-1.0,2371
380,1220380,17120,-532,860,17149.84,30.22,-1.00,-1.0,2439
382,1220382,17000,-580,936,17035.62,30.22,-1.00,-1.0,2365
385,1220385,17104,-560,1096,17148.22,30.27,-1.00,-1.0,2462
388,1220388,17096,-584,868,17127.98,30.18,-1.00,-1.0,2351
391,1220391,17016,-564,964,17052.61,30.13,-1.00,-1.0,2366
393,1220393,17104,-620,980,17143.27,30.18,-1.00,-1.0,2433
396,1220396,17064,-612,864,17096.82,30.22,-1.00,-1.0,2374
399,1220399,17028,-624,952,17066.00,30.18,-1.00,-1.0,2426
402,1220402,17044,-512,996,17080.75,30.22,-1.00,-1.0,2371
407,1220407,17080,-572,1008,17119.28,30.22,-1.00,-1.0,2439
410,1220410,17084,-680,976,17125.36,30.27,-1.00,-1.0,2365
412,1220412,17136,-596,1044,17178.12,30.22,-1.00,-1.0,2430
415,1220415,16940,-700,888,16977.70,30.22,-1.00,-1.0,2369
418,1220418,17080,-628,1004,17121.00,30.22,-1.00,-1.0,2431
421,1220421,17032,-700,1104,17082.09,30.27,-1.00,-1.0,2367
423,1220423,17036,-568,984,17073.85,30.13,-1.00,-1.0,2423
426,1220426,17096,-712,1044,17142.64,30.22,-1.00,-1.0,2371
429,1220429,17020,-644,968,17059.66,30.18,-1.00,-1.0,2366
434,1220434,17020,-580,1012,17059.92,30.18,-1.00,-1.0,2434
436,1220436,16960,-660,968,17000.42,30.27,-1.00,-1.0,2367
439,1220439,17080,-604,1068,17124.01,30.18,-1.00,-1.0,2428
442,1220442,16948,-652,776,16978.28,30.18,-1.00,-1.0,2370
445,1220445,17056,-604,920,17091.47,30.27,-1.00,-1.0,2419
447,1220447,17020,-672,884,17056.19,30.18,-1.00,-1.0,2371
450,1220450,17052,-524,860,17081.71,30.22,-1.00,-1.0,2419
453,1220453,17068,-568,776,17095.07,30.18,-1.00,-1.0,2370
457,1220457,17112,-604,716,17137.62,30.18,-1.00,-1.0,2431
460,1220460,17120,-548,912,17153.03,30.22,-1.00,-1.0,2365
463,1220463,17036,-592,964,17073.52,30.18,-1.00,-1.0,2370
466,1220466,17012,-616,780,17041.01,30.18,-1.00,-1.0,2432
468,1220468,17040,-580,1016,17080.11,30.27,-1.00,-1.0,2371
471,1220471,17044,-588,852,17075.41,30.13,-1.00,-1.0,2419
474,1220474,17148,-508,956,17182.14,30.18,-1.00,-1.0,2371
477,1220477,17000,-580,896,17033.47,30.22,-1.00,-1.0,2421
480,1220480,17120,-576,928,17154.81,30.27,-1.00,-1.0,2366
485,1220485,17036,-580,780,17063.71,30.18,-1.00,-1.0,2437
487,1220487,17092,-656,892,17127.83,30.18,-1.00,-1.0,2369
490,1220490,17028,-608,932,17064.32,30.27,-1.00,-1.0,2437
493,1220493,17064,-640,1008,17105.72,30.18,-1.00,-1.0,2374
496,1220496,16948,-648,840,16981.17,30.22,-1.00,-1.0,2366
498,1220498,17052,-640,916,17088.57,30.22,-1.00,-1.0,2422
501,1220501,17088,-616,964,17126.25,30.13,-1.00,-1.0,2368
504,1220504,17068,-628,816,17099.03,30.13,-1.00,-1.0,2427
507,1220507,17012,-636,1004,17053.46,30.22,-1.00,-1.0,2369
512,1220512,17008,-580,884,17040.83,30.13,-1.00,-1.0,2435
514,1220514,17068,-576,904,17101.63,30.18,-1.00,-1.0,2374
517,1220517,17044,-676,920,17082.19,30.22,-1.00,-1.0,2428
520,1220520,17024,-628,932,17061.05,30.22,-1.00,-1.0,2369
523,1220523,17008,-584,996,17047.14,30.22,-1.00,-1.0,2422
525,1220525,17048,-616,928,17084.35,30.18,-1.00,-1.0,2373
528,1220528,17040,-684,940,17079.61,30.18,-1.00,-1.0,2365
531,1220531,17040,-540,744,17064.78,30.27,-1.00,-1.0,2426
534,1220534,16964,-680,984,17006.12,30.22,-1.00,-1.0,2369
539,1220539,17032,-612,920,17067.80,30.22,-1.00,-1.0,2432
541,1220541,16900,-424,1024,16936.30,30.18,-1.00,-1.0,2371
544,1220544,16936,-608,976,16974.99,30.22,-1.00,-1.0,2428
547,1220547,17068,-672,840,17101.87,30.22,-1.00,-1.0,2371
550,1220550,17052,-552,912,17085.29,30.13,-1.00,-1.0,2421
552,1220552,17080,-564,788,17107.47,30.22,-1.00,-1.0,2352
555,1220555,17060,-624,1008,17101.14,30.22,-1.00,-1.0,2419
558,1220558,17076,-596,896,17109.88,30.22,-1.00,-1.0,2370
561,1220561,17028,-516,828,17055.93,30.27,-1.00,-1.0,2419
566,1220566,17028,-624,812,17058.77,30.08,-1.00,-1.0,2449
569,1220569,17052,-504,1036,17090.88,30.18,-1.00,-1.0,2366
572,1220572,17068,-452,956,17100.73,30.18,-1.00,-1.0,2460
574,1220574,17128,-628,788,17157.61,30.27,-1.00,-1.0,2367
577,1220577,17052,-604,816,17082.20,30.18,-1.00,-1.0,2424
580,1220580,17032,-416,792,17055.48,30.27,-1.00,-1.0,2372
583,1220583,17064,-532,960,17099.26,30.27,-1.00,-1.0,2424
585,1220585,17156,-504,844,17184.14,30.18,-1.00,-1.0,2368
590,1220590,16952,-428,920,16982.34,30.18,-1.00,-1.0,2433
593,1220593,16940,-624,844,16972.49,30.13,-1.00,-1.0,2369
596,1220596,17052,-476,980,17086.77,30.18,-1.00,-1.0,2366
598,1220598,17052,-624,920,17088.20,30.27,-1.00,-1.0,2439
601,1220601,17060,-556,892,17092.35,30.18,-1.00,-1.0,2374
604,1220604,17032,-452,904,17061.96,30.13,-1.00,-1.0,2428
607,1220607,16964,-616,848,16996.35,30.18,-1.00,-1.0,2370
609,1220609,17020,-592,924,17055.34,30.22,-1.00,-1.0,2431
612,1220612,17020,-660,1068,17066.24,30.18,-1.00,-1.0,2370
617,1220617,17104,-640,924,17140.89,30.27,-1.00,-1.0,2432
620,1220620,17056,-664,868,17090.98,30.18,-1.00,-1.0,2368
622,1220622,16964,-564,1032,17004.72,30.27,-1.00,-1.0,2369
625,1220625,17036,-676,840,17070.09,30.32,-1.00,-1.0,2424
628,1220628,17084,-684,668,17110.73,30.22,-1.00,-1.0,2378
631,1220631,17040,-632,972,17079.40,30.22,-1.00,-1.0,2429
633,1220633,17024,-604,804,17053.67,30.22,-1.00,-1.0,2383
636,1220636,17152,-660,1024,17195.21,30.27,-1.00,-1.0,2420
639,1220639,17056,-576,968,17093.15,30.22,-1.00,-1.0,2370
644,1220644,16916,-548,908,16949.21,30.27,-1.00,-1.0,2432
646,1220646,17076,-664,940,17114.74,30.22,-1.00,-1.0,2369
649,1220649,17032,-640,984,17072.40,30.18,-1.00,-1.0,2430
652,1220652,17028,-612,904,17062.96,30.18,-1.00,-1.0,2373
655,1220655,17052,-668,936,17090.73,30.13,-1.00,-1.0,2371
657,1220657,17116,-456,996,17151.02,30.13,-1.00,-1.0,2428
660,1220660,16992,-524,944,17026.27,30.22,-1.00,-1.0,2370
663,1220663,17108,-568,964,17144.55,30.22,-1.00,-1.0,2410
666,1220666,17012,-664,912,17049.36,30.22,-1.00,-1.0,2373
671,1220671,17084,-492,740,17107.10,30.18,-1.00,-1.0,2420
673,1220673,16944,-536,952,16979.19,30.18,-1.00,-1.0,2371
676,1220676,17032,-620,868,17065.37,30.22,-1.00,-1.0,2430
679,1220679,17024,-508,928,17056.84,30.27,-1.00,-1.0,2369
682,1220682,17032,-580,932,17067.34,30.22,-1.00,-1.0,2420
684,1220684,16952,-664,948,16991.46,30.18,-1.00,-1.0,2370
687,1220687,17044,-648,936,17081.98,30.22,-1.00,-1.0,2370
690,1220690,17120,-548,992,17157.47,30.18,-1.00,-1.0,2421
693,1220693,17012,-536,992,17049.33,30.22,-1.00,-1.0,2368
698,1220698,16956,-644,900,16992.08,30.22,-1.00,-1.0,2439
701,1220701,16992,-496,1056,17032.01,30.13,-1.00,-1.0,2367
703,1220703,17048,-580,952,17084.41,30.18,-1.00,-1.0,2440
706,1220706,17052,-572,904,17085.52,30.13,-1.00,-1.0,2377
709,1220709,17076,-592,1072,17119.86,30.27,-1.00,-1.0,2407
712,1220712,17140,-676,996,17182.22,30.22,-1.00,-1.0,2371
714,1220714,17124,-604,880,17157.23,30.08,-1.00,-1.0,2428
717,1220717,16928,-616,864,16961.22,30.22,-1.00,-1.0,2377
720,1220720,17084,-644,932,17121.52,30.18,-1.00,-1.0,2369
725,1220725,17140,-580,900,17173.41,30.18,-1.00,-1.0,2419
728,1220728,17028,-656,908,17064.80,30.22,-1.00,-1.0,2367
730,1220730,17032,-664,920,17069.75,30.18,-1.00,-1.0,2439
733,1220733,17100,-580,916,17134.34,30.18,-1.00,-1.0,2386
736,1220736,16980,-556,856,17010.65,30.27,-1.00,-1.0,2422
739,1220739,17008,-580,868,17040.01,30.18,-1.00,-1.0,2371
742,1220742,17028,-552,808,17056.09,30.18,-1.00,-1.0,2422
744,1220744,16940,-612,684,16964.85,30.27,-1.00,-1.0,2384
749,1220749,17088,-428,876,17115.79,30.27,-1.00,-1.0,2447
752,1220752,16988,-612,832,17019.37,30.18,-1.00,-1.0,2375
754,1220754,17016,-520,896,17047.51,30.18,-1.00,-1.0,2351
757,1220757,17076,-652,904,17112.34,30.27,-1.00,-1.0,2429
760,1220760,17028,-468,908,17058.61,30.27,-1.00,-1.0,2372
763,1220763,16996,-548,768,17022.17,30.22,-1.00,-1.0,2419
765,1220765,16992,-556,800,17019.91,30.18,-1.00,-1.0,2363
768,1220768,17088,-564,884,17120.14,30.18,-1.00,-1.0,2417
771,1220771,17052,-600,888,17085.64,30.13,-1.00,-1.0,2370
776,1220776,17072,-756,852,17109.96,30.18,-1.00,-1.0,2429
779,1220779,17076,-612,856,17108.39,30.18,-1.00,-1.0,2367
782,1220782,17072,-584,964,17109.17,30.22,-1.00,-1.0,2431
784,1220784,17020,-624,1140,17069.54,30.18,-1.00,-1.0,2373
787,1220787,17060,-616,960,17098.09,30.32,-1.00,-1.0,2374
790,1220790,16996,-472,768,17019.89,30.27,-1.00,-1.0,2420
792,1220792,17100,-560,928,17134.32,30.13,-1.00,-1.0,2371
795,1220795,17004,-572,792,17032.04,30.18,-1.00,-1.0,2420
798,1220798,17076,-556,888,17108.11,30.22,-1.00,-1.0,2371
803,1220803,17016,-616,956,17053.96,30.13,-1.00,-1.0,2432
806,1220806,17104,-668,1064,17150.08,30.22,-1.00,-1.0,2368
809,1220809,16996,-596,968,17033.97,30.13,-1.00,-1.0,2430
811,1220811,17100,-600,912,17134.81,30.18,-1.00,-1.0,2370
814,1220814,17076,-656,892,17111.86,30.13,-1.00,-1.0,2421
817,1220817,17080,-644,988,17120.67,30.13,-1.00,-1.0,2370
819,1220819,16864,-688,860,16899.92,30.18,-1.00,-1.0,2370
822,1220822,17012,-616,812,17042.50,30.27,-1.00,-1.0,2435
825,1220825,17020,-540,1024,17059.32,30.22,-1.00,-1.0,2370
830,1220830,16980,-748,888,17019.65,30.22,-1.00,-1.0,2432
833,1220833,17064,-632,1060,17108.57,30.22,-1.00,-1.0,2357
836,1220836,17072,-544,772,17098.10,30.22,-1.00,-1.0,2431
838,1220838,17160,-656,952,17198.90,30.13,-1.00,-1.0,2370
841,1220841,17164,-660,868,17198.60,30.22,-1.00,-1.0,2420
844,1220844,17064,-540,940,17098.40,30.13,-1.00,-1.0,2373
847,1220847,17048,-600,724,17073.91,30.22,-1.00,-1.0,2425
849,1220849,16988,-552,800,17015.78,30.22,-1.00,-1.0,2370
852,1220852,17056,-656,896,17092.11,30.27,-1.00,-1.0,2366
857,1220857,16988,-612,900,17022.83,30.18,-1.00,-1.0,2439
860,1220860,17076,-608,780,17104.62,30.18,-1.00,-1.0,2367
862,1220862,17012,-620,748,17039.72,30.04,-1.00,-1.0,2441
865,1220865,17032,-548,864,17062.70,30.18,-1.00,-1.0,2379
868,1220868,17028,-516,916,17060.43,30.22,-1.00,-1.0,2410
871,1220871,17040,-568,664,17062.39,30.27,-1.00,-1.0,2371
873,1220873,17060,-484,860,17088.52,30.13,-1.00,-1.0,2429
876,1220876,17016,-676,888,17052.56,30.08,-1.00,-1.0,2376
881,1220881,16984,-668,872,17019.48,30.27,-1.00,-1.0,2439
884,1220884,17108,-548,892,17140.00,30.22,-1.00,-1.0,2366
886,1220886,17076,-556,928,17110.23,30.18,-1.00,-1.0,2370
889,1220889,17012,-644,940,17050.12,30.22,-1.00,-1.0,2437
892,1220892,17108,-532,820,17135.90,30.18,-1.00,-1.0,2372
894,1220894,17104,-556,912,17137.32,30.22,-1.00,-1.0,2428
897,1220897,17028,-680,836,17062.07,30.18,-1.00,-1.0,2377
900,1220900,16988,-600,944,17024.79,30.13,-1.00,-1.0,2428
903,1220903,17020,-516,1160,17067.29,30.27,-1.00,-1.0,2376
908,1220908,17036,-508,800,17062.34,30.18,-1.00,-1.0,2431
911,1220911,16868,-544,820,16896.68,30.27,-1.00,-1.0,2374
914,1220914,17012,-632,956,17050.56,30.22,-1.00,-1.0,2429
916,1220916,17036,-648,1056,17080.99,30.18,-1.00,-1.0,2372
919,1220919,17140,-520,932,17173.20,30.22,-1.00,-1.0,2354
922,1220922,17084,-580,976,17121.68,30.22,-1.00,-1.0,2422
924,1220924,16984,-560,1056,17026.01,30.13,-1.00,-1.0,2374
927,1220927,17080,-636,868,17113.86,30.18,-1.00,-1.0,2420
930,1220930,17092,-544,980,17128.71,30.22,-1.00,-1.0,2386
935,1220935,17108,-560,880,17139.77,30.22,-1.00,-1.0,2448
938,1220938,16996,-512,1048,17035.97,30.22,-1.00,-1.0,2378
941,1220941,17092,-564,876,17123.72,30.22,-1.00,-1.0,2443
943,1220943,17152,-556,796,17179.46,30.22,-1.00,-1.0,2380
946,1220946,17060,-656,860,17094.25,30.27,-1.00,-1.0,2420
949,1220949,16960,-484,744,16983.21,30.22,-1.00,-1.0,2373
952,1220952,16988,-560,688,17011.15,30.18,-1.00,-1.0,2367
954,1220954,16948,-592,936,16984.15,30.18,-1.00,-1.0,2420
957,1220957,17020,-628,1040,17063.30,30.22,-1.00,-1.0,2373
962,1220962,17136,-636,724,17163.08,30.22,-1.00,-1.0,2447
965,1220965,17028,-644,920,17064.99,30.22,-1.00,-1.0,2375
968,1220968,17120,-620,900,17154.85,30.18,-1.00,-1.0,2444
970,1220970,17096,-608,896,17130.26,30.22,-1.00,-1.0,2377
973,1220973,17056,-576,1008,17095.47,30.18,-1.00,-1.0,2420
976,1220976,17072,-716,972,17114.63,30.22,-1.00,-1.0,2373
979,1220979,17032,-548,872,17063.11,30.18,-1.00,-1.0,2422
981,1220981,17048,-608,884,17081.73,30.13,-1.00,-1.0,2375
984,1220984,17076,-668,896,17112.53,30.18,-1.00,-1.0,2366
989,1220989,16984,-664,980,17025.20,30.27,-1.00,-1.0,2441
992,1220992,17024,-688,836,17058.39,30.22,-1.00,-1.0,2374
995,1220995,17060,-652,936,17098.09,30.18,-1.00,-1.0,2440
997,1220997,17092,-636,928,17128.99,30.27,-1.00,-1.0,2379
1000,1221000,17036,-580,916,17070.46,30.18,-1.00,-1.0,2420
1003,1221003,17156,-632,924,17192.48,30.27,-1.00,-1.0,2370
1006,1221006,16980,-608,780,17008.78,30.27,-1.00,-1.0,2421
1008,1221008,17032,-656,820,17064.34,30.37,-1.00,-1.0,2372
1013,1221013,17100,-656,1036,17143.91,30.18,-1.00,-1.0,2441
1016,1221016,17076,-592,932,17111.66,30.13,-1.00,-1.0,2373
1019,1221019,16972,-644,812,17003.61,30.18,-1.00,-1.0,2367
1022,1221022,17064,-520,864,17093.77,30.13,-1.00,-1.0,2430
1024,1221024,17028,-516,680,17049.38,30.18,-1.00,-1.0,2370
1027,1221027,17124,-600,1040,17166.04,30.27,-1.00,-1.0,2420
1030,1221030,16984,-652,720,17011.75,30.18,-1.00,-1.0,2370
1033,1221033,17116,-624,896,17150.79,30.22,-1.00,-1.0,2407
1035,1221035,17072,-616,908,17107.22,30.27,-1.00,-1.0,2370
1040,1221040,16996,-500,924,17028.44,30.18,-1.00,-1.0,2432
1043,1221043,17028,-716,656,17055.67,30.27,-1.00,-1.0,2353
1046,1221046,17052,-656,796,17083.17,30.18,-1.00,-1.0,2432
1048,1221048,17056,-632,940,17093.57,30.18,-1.00,-1.0,2373
1051,1221051,17156,-552,900,17188.46,30.13,-1.00,-1.0,2420
1054,1221054,17048,-556,988,17085.65,30.27,-1.00,-1.0,2372
1057,1221057,17064,-568,764,17090.54,30.22,-1.00,-1.0,2368
1059,1221059,16992,-580,808,17021.08,30.22,-1.00,-1.0,2421
1062,1221062,17128,-520,968,17163.21,30.22,-1.00,-1.0,2371
1067,1221067,17048,-636,908,17084.01,30.18,-1.00,-1.0,2432
1070,1221070,16976,-668,932,17014.68,30.22,-1.00,-1.0,2376
1073,1221073,17044,-576,1076,17087.64,30.18,-1.00,-1.0,2433
1075,1221075,17036,-624,824,17067.33,30.22,-1.00,-1.0,2372
1078,1221078,17148,-596,980,17186.32,30.27,-1.00,-1.0,2434
1081,1221081,17044,-604,800,17073.45,30.27,-1.00,-1.0,2377
1084,1221084,17084,-620,912,17119.56,30.27,-1.00,-1.0,2431
1086,1221086,16876,-596,916,16911.35,30.18,-1.00,-1.0,2373
1091,1221091,17012,-576,996,17050.86,30.22,-1.00,-1.0,2433
1094,1221094,17016,-600,904,17050.56,30.22,-1.00,-1.0,2368
1096,1221096,17044,-584,924,17079.02,30.27,-1.00,-1.0,2367
1099,1221099,17060,-556,776,17086.69,30.27,-1.00,-1.0,2440
1102,1221102,17036,-632,820,17067.43,30.27,-1.00,-1.0,2373
1105,1221105,17068,-508,932,17100.97,30.27,-1.00,-1.0,2432
1107,1221107,17096,-684,800,17128.37,30.18,-1.00,-1.0,2381
1110,1221110,17112,-660,868,17146.71,30.37,-1.00,-1.0,2435
1113,1221113,17064,-636,816,17095.33,30.27,-1.00,-1.0,2373
1118,1221118,17004,-520,1040,17043.71,30.18,-1.00,-1.0,2433
1121,1221121,17048,-592,820,17077.97,30.22,-1.00,-1.0,2367
1124,1221124,16932,-588,808,16961.46,30.18,-1.00,-1.0,2432
1127,1221127,17020,-576,888,17052.88,30.13,-1.00,-1.0,2369
1129,1221129,17176,-620,1000,17216.25,30.27,-1.00,-1.0,2423
1132,1221132,17028,-588,892,17061.48,30.13,-1.00,-1.0,2370
1135,1221135,17052,-612,1060,17095.87,30.18,-1.00,-1.0,2367
1138,1221138,17044,-616,928,17080.36,30.22,-1.00,-1.0,2423
1140,1221140,16984,-596,844,17015.40,30.27,-1.00,-1.0,2373
1145,1221145,16956,-568,1016,16995.91,30.27,-1.00,-1.0,2434
1148,1221148,17104,-560,924,17138.09,30.18,-1.00,-1.0,2367
1151,1221151,17000,-712,820,17034.65,30.18,-1.00,-1.0,2438
1154,1221154,17060,-584,696,17084.18,30.27,-1.00,-1.0,2369
1156,1221156,17000,-532,816,17027.88,30.27,-1.00,-1.0,2437
1159,1221159,16944,-488,860,16972.83,30.27,-1.00,-1.0,2370
1162,1221162,17008,-572,960,17044.67,30.27,-1.00,-1.0,2428
1165,1221165,17012,-628,992,17052.47,30.37,-1.00,-1.0,2370
1170,1221170,17008,-632,988,17048.39,30.27,-1.00,-1.0,2431
1172,1221172,17068,-600,800,17097.27,30.27,-1.00,-1.0,2367
1175,1221175,17024,-684,952,17064.31,30.18,-1.00,-1.0,2368
1178,1221178,17060,-660,812,17092.06,30.13,-1.00,-1.0,2441
1180,1221180,16964,-628,996,17004.81,30.32,-1.00,-1.0,2376
1183,1221183,17028,-520,868,17058.04,30.22,-1.00,-1.0,2420
1186,1221186,16968,-556,912,17001.59,30.18,-1.00,-1.0,2360
1189,1221189,17032,-556,936,17066.76,30.22,-1.00,-1.0,2422
1191,1221191,17072,-560,792,17099.53,30.22,-1.00,-1.0,2373
1196,1221196,17108,-568,916,17141.92,30.13,-1.00,-1.0,2440
1199,1221199,17068,-512,888,17098.75,30.22,-1.00,-1.0,2382
1202,1221202,17028,-624,808,17058.58,30.22,-1.00,-1.0,2431
1205,1221205,17028,-448,740,17049.96,30.13,-1.00,-1.0,2372
1208,1221208,17104,-552,888,17135.93,30.22,-1.00,-1.0,2423
1210,1221210,16956,-568,808,16984.74,30.22,-1.00,-1.0,2373
1213,1221213,17024,-568,992,17062.33,30.18,-1.00,-1.0,2374
1216,1221216,17064,-556,760,17089.96,30.18,-1.00,-1.0,2420
1218,1221218,17012,-480,960,17045.82,30.13,-1.00,-1.0,2378
1223,1221223,17088,-656,832,17120.81,30.13,-1.00,-1.0,2439
1226,1221226,17128,-592,884,17161.01,30.32,-1.00,-1.0,2382
1229,1221229,17040,-504,984,17075.83,30.22,-1.00,-1.0,2431
1232,1221232,17028,-488,932,17060.47,30.32,-1.00,-1.0,2371
1235,1221235,17076,-580,768,17103.10,30.27,-1.00,-1.0,2420
1237,1221237,17000,-604,1004,17040.33,30.22,-1.00,-1.0,2377
1240,1221240,17068,-616,732,17094.79,30.18,-1.00,-1.0,2419
1243,1221243,17064,-688,972,17105.50,30.22,-1.00,-1.0,2370
1248,1221248,17028,-648,828,17060.43,30.27,-1.00,-1.0,2438
1251,1221251,17004,-580,1072,17047.63,30.18,-1.00,-1.0,2367
1253,1221253,16968,-608,920,17003.80,30.13,-1.00,-1.0,2353
1256,1221256,17028,-684,992,17070.58,30.18,-1.00,-1.0,2430
1259,1221259,17040,-548,876,17071.30,30.22,-1.00,-1.0,2372
1262,1221262,17064,-640,1036,17107.40,30.27,-1.00,-1.0,2420
1264,1221264,17084,-592,972,17121.87,30.18,-1.00,-1.0,2374
1267,1221267,17076,-696,872,17112.41,30.27,-1.00,-1.0,2420
1270,1221270,17072,-632,1068,17117.04,30.08,-1.00,-1.0,2371
1275,1221275,16948,-596,1000,16987.93,30.27,-1.00,-1.0,2432
1277,1221277,17076,-612,948,17113.24,30.18,-1.00,-1.0,2354
1280,1221280,17104,-560,812,17132.42,30.22,-1.00,-1.0,2430
1283,1221283,17016,-576,876,17048.27,30.27,-1.00,-1.0,2371
1286,1221286,17064,-552,1000,17102.19,30.32,-1.00,-1.0,2420
1288,1221288,17068,-600,912,17102.88,30.18,-1.00,-1.0,2370
1291,1221291,17120,-676,920,17158.02,30.13,-1.00,-1.0,2421
1294,1221294,17012,-564,884,17044.29,30.18,-1.00,-1.0,2371
1297,1221297,16992,-460,924,17023.32,30.18,-1.00,-1.0,2367
1301,1221301,17048,-672,804,17080.17,30.18,-1.00,-1.0,2427
1304,1221304,17040,-600,1008,17080.33,30.32,-1.00,-1.0,2375
1307,1221307,17100,-580,944,17135.86,30.18,-1.00,-1.0,2441
1309,1221309,16992,-600,928,17027.90,30.18,-1.00,-1.0,2377
1312,1221312,17112,-544,968,17147.99,30.08,-1.00,-1.0,2419
1315,1221315,16896,-712,816,16930.67,30.18,-1.00,-1.0,2371
1318,1221318,17004,-728,964,17046.86,30.27,-1.00,-1.0,2421
1321,1221321,17008,-612,900,17042.79,30.22,-1.00,-1.0,2367
1326,1221326,17012,-684,1076,17059.71,30.18,-1.00,-1.0,2432
1328,1221328,17088,-684,872,17123.90,30.18,-1.00,-1.0,2367
1331,1221331,17072,-596,976,17110.26,30.27,-1.00,-1.0,2429
1334,1221334,17112,-660,980,17152.74,30.27,-1.00,-1.0,2370
1336,1221336,17044,-656,876,17079.10,30.22,-1.00,-1.0,2368
1339,1221339,17092,-544,1068,17133.97,30.18,-1.00,-1.0,2434
1342,1221342,17044,-604,904,17078.64,30.32,-1.00,-1.0,2381
1345,1221345,17020,-624,888,17054.57,30.18,-1.00,-1.0,2433
1348,1221348,17132,-804,832,17171.02,30.22,-1.00,-1.0,2371
1353,1221353,17000,-560,948,17035.62,30.22,-1.00,-1.0,2432
1355,1221355,17132,-560,948,17167.35,30.18,-1.00,-1.0,2366
1358,1221358,17064,-604,1028,17105.60,30.22,-1.00,-1.0,2429
1361,1221361,17088,-708,896,17126.12,30.27,-1.00,-1.0,2371
1364,1221364,17024,-556,928,17058.34,30.13,-1.00,-1.0,2420
1366,1221366,17120,-676,896,17156.75,30.32,-1.00,-1.0,2370
1369,1221369,17068,-516,964,17102.99,30.22,-1.00,-1.0,2420
1372,1221372,17072,-556,856,17102.49,30.18,-1.00,-1.0,2371
1375,1221375,16924,-596,912,16959.03,30.22,-1.00,-1.0,2367
1380,1221380,17060,-588,1060,17103.01,30.22,-1.00,-1.0,2419
1382,1221382,17024,-656,964,17063.89,30.22,-1.00,-1.0,2366
1385,1221385,17000,-500,952,17033.97,30.22,-1.00,-1.0,2429
1388,1221388,17012,-592,964,17049.57,30.18,-1.00,-1.0,2371
1391,1221391,17136,-496,988,17171.62,30.22,-1.00,-1.0,2422
1393,1221393,17132,-464,980,17166.28,30.32,-1.00,-1.0,2357
1396,1221396,17060,-432,932,17090.90,30.13,-1.00,-1.0,2420
1399,1221399,17080,-680,1032,17124.66,30.18,-1.00,-1.0,2370
1406,1221406,17040,-536,804,17067.38,30.18,-1.00,-1.0,2441
1409,1221409,17076,-568,816,17104.92,30.18,-1.00,-1.0,2418
1412,1221412,17092,-688,988,17134.35,30.27,-1.00,-1.0,2422
1414,1221414,17020,-576,804,17048.71,30.13,-1.00,-1.0,2376
1417,1221417,17012,-532,900,17044.10,30.27,-1.00,-1.0,2354
1420,1221420,17080,-612,884,17113.81,30.18,-1.00,-1.0,2415
1422,1221422,16900,-632,904,16935.96,30.18,-1.00,-1.0,2382
1425,1221425,17036,-576,964,17072.97,30.13,-1.00,-1.0,2415
1428,1221428,17108,-696,916,17146.64,30.18,-1.00,-1.0,2376
1433,1221433,17076,-688,896,17113.33,30.27,-1.00,-1.0,2434
1436,1221436,17112,-692,888,17148.99,30.27,-1.00,-1.0,2373
1438,1221438,16944,-648,904,16980.47,30.22,-1.00,-1.0,2430
1441,1221441,17068,-668,932,17106.47,30.27,-1.00,-1.0,2387
1444,1221444,17036,-648,620,17059.59,30.32,-1.00,-1.0,2418
1447,1221447,17004,-588,976,17042.13,30.27,-1.00,-1.0,2375
1450,1221450,17104,-628,972,17143.10,30.22,-1.00,-1.0,2419
1452,1221452,17052,-560,892,17084.49,30.18,-1.00,-1.0,2387
1455,1221455,17008,-572,880,17040.35,30.22,-1.00,-1.0,2367
1460,1221460,17048,-608,816,17078.34,30.22,-1.00,-1.0,2427
1462,1221462,17108,-580,924,17142.75,30.32,-1.00,-1.0,2375
1465,1221465,17156,-604,988,17195.04,30.13,-1.00,-1.0,2423
1468,1221468,17168,-528,916,17200.53,30.22,-1.00,-1.0,2374
1471,1221471,17060,-632,864,17093.55,30.18,-1.00,-1.0,2423
1474,1221474,16996,-652,856,17030.03,30.22,-1.00,-1.0,2372
1476,1221476,17056,-464,1044,17094.22,30.18,-1.00,-1.0,2419
1479,1221479,17036,-588,764,17063.26,30.22,-1.00,-1.0,2372
1484,1221484,17128,-628,956,17166.15,30.18,-1.00,-1.0,2434
1487,1221487,17112,-556,856,17142.42,30.22,-1.00,-1.0,2372
1489,1221489,17024,-552,972,17060.66,30.18,-1.00,-1.0,2426
1492,1221492,16996,-608,916,17031.52,30.27,-1.00,-1.0,2372
1495,1221495,17068,-624,868,17101.45,30.18,-1.00,-1.0,2369
1498,1221498,16940,-584,748,16966.56,30.22,-1.00,-1.0,2419
1500,1221500,17076,-568,1040,17117.07,30.13,-1.00,-1.0,2387
1503,1221503,17028,-752,920,17069.41,30.13,-1.00,-1.0,2420
1506,1221506,17052,-712,880,17089.53,30.18,-1.00,-1.0,2376
1510,1221510,17104,-700,1004,17147.74,30.18,-1.00,-1.0,2429
1513,1221513,17172,-740,892,17211.07,30.27,-1.00,-1.0,2373
1516,1221516,17128,-684,1020,17171.97,30.22,-1.00,-1.0,2432
1519,1221519,17100,-644,944,17138.14,30.27,-1.00,-1.0,2371
1521,1221521,17036,-568,832,17065.76,30.22,-1.00,-1.0,2426
1524,1221524,17068,-664,880,17103.56,30.37,-1.00,-1.0,2378
1527,1221527,17020,-532,876,17050.83,30.13,-1.00,-1.0,2419
1530,1221530,17004,-584,844,17034.95,30.18,-1.00,-1.0,2373
1532,1221532,17004,-584,936,17039.75,30.22,-1.00,-1.0,2366
1537,1221537,17020,-680,816,17053.11,30.22,-1.00,-1.0,2427
1540,1221540,17080,-660,920,17117.49,30.22,-1.00,-1.0,2373
1543,1221543,17068,-640,1000,17109.24,30.18,-1.00,-1.0,2424
1546,1221546,17036,-480,984,17071.14,30.13,-1.00,-1.0,2371
1548,1221548,17016,-548,756,17041.60,30.27,-1.00,-1.0,2417
1551,1221551,16956,-628,812,16987.04,30.22,-1.00,-1.0,2377
1554,1221554,17028,-588,936,17063.84,30.18,-1.00,-1.0,2419
1557,1221557,16956,-620,872,16989.72,30.18,-1.00,-1.0,2371
1562,1221562,17032,-600,956,17069.36,30.18,-1.00,-1.0,2430
1564,1221564,17028,-480,972,17062.47,30.22,-1.00,-1.0,2376
1567,1221567,17020,-520,964,17055.21,30.27,-1.00,-1.0,2423
1570,1221570,17000,-704,1000,17043.93,30.22,-1.00,-1.0,2375
1572,1221572,17028,-672,1052,17073.70,30.27,-1.00,-1.0,2367
1575,1221575,17012,-612,904,17046.99,30.13,-1.00,-1.0,2423
1578,1221578,17008,-528,1008,17046.02,30.18,-1.00,-1.0,2379
1581,1221581,17128,-564,1028,17168.09,30.22,-1.00,-1.0,2418
1583,1221583,16996,-596,980,17034.66,30.13,-1.00,-1.0,2374
1588,1221588,17032,-624,980,17071.58,30.22,-1.00,-1.0,2429
1591,1221591,17084,-604,756,17111.38,30.18,-1.00,-1.0,2373
1594,1221594,17096,-540,892,17127.77,30.13,-1.00,-1.0,2431
1597,1221597,17040,-596,904,17074.37,30.27,-1.00,-1.0,2370
1599,1221599,16888,-524,976,16924.29,30.22,-1.00,-1.0,2424
1602,1221602,17088,-608,788,17116.96,30.22,-1.00,-1.0,2372
1605,1221605,17120,-672,848,17154.16,30.22,-1.00,-1.0,2424
1608,1221608,17020,-632,1160,17071.19,30.27,-1.00,-1.0,2372
1610,1221610,17100,-528,1000,17137.35,30.37,-1.00,-1.0,2355
1615,1221615,17096,-628,916,17132.04,30.27,-1.00,-1.0,2441
1618,1221618,16992,-644,892,17027.58,30.22,-1.00,-1.0,2376
1621,1221621,17104,-680,836,17137.91,30.18,-1.00,-1.0,2429
1623,1221623,17072,-576,868,17103.75,30.18,-1.00,-1.0,2379
1626,1221626,17080,-556,892,17112.31,30.18,-1.00,-1.0,2417
1629,1221629,16984,-564,948,17019.79,30.27,-1.00,-1.0,2374
1632,1221632,17044,-584,836,17074.48,30.27,-1.00,-1.0,2417
1634,1221634,17024,-420,964,17056.44,30.18,-1.00,-1.0,2375
1639,1221639,17084,-652,884,17119.28,30.18,-1.00,-1.0,2436
1642,1221642,17036,-632,864,17069.60,30.18,-1.00,-1.0,2387
1645,1221645,17104,-648,860,17137.86,30.27,-1.00,-1.0,2423
1648,1221648,16996,-684,928,17035.05,30.37,-1.00,-1.0,2372
1650,1221650,17064,-648,920,17101.06,30.22,-1.00,-1.0,2365
1653,1221653,17016,-596,900,17050.21,30.13,-1.00,-1.0,2416
1656,1221656,17176,-592,880,17208.71,30.22,-1.00,-1.0,2379
1659,1221659,17108,-736,1044,17155.62,30.32,-1.00,-1.0,2416
1661,1221661,16936,-508,864,16965.63,30.22,-1.00,-1.0,2374
1667,1221667,17016,-616,868,17049.26,30.18,-1.00,-1.0,2429
1669,1221669,17076,-488,1036,17114.36,30.18,-1.00,-1.0,2373
1672,1221672,17104,-632,868,17137.67,30.22,-1.00,-1.0,2422
1675,1221675,17032,-656,912,17069.01,30.18,-1.00,-1.0,2372
1678,1221678,17060,-704,820,17094.20,30.27,-1.00,-1.0,2416
1680,1221680,16996,-644,904,17032.20,30.27,-1.00,-1.0,2375
1683,1221683,17088,-644,952,17126.61,30.22,-1.00,-1.0,2418
1686,1221686,17096,-576,944,17131.73,30.18,-1.00,-1.0,2372
1691,1221691,17112,-580,912,17146.10,30.22,-1.00,-1.0,2441
1693,1221693,17052,-640,912,17088.36,30.22,-1.00,-1.0,2382
1696,1221696,17012,-584,920,17046.87,30.27,-1.00,-1.0,2366
1699,1221699,16984,-572,1044,17025.67,30.13,-1.00,-1.0,2420
1702,1221702,17048,-708,964,17089.91,30.18,-1.00,-1.0,2371
1704,1221704,16976,-592,912,17010.79,30.22,-1.00,-1.0,2416
1707,1221707,16932,-452,800,16956.91,30.18,-1.00,-1.0,2376
1710,1221710,17048,-480,936,17080.42,30.22,-1.00,-1.0,2418
1713,1221713,17080,-612,880,17113.60,30.37,-1.00,-1.0,2371
1717,1221717,17140,-628,1024,17182.04,30.18,-1.00,-1.0,2448
1720,1221720,16932,-644,888,16967.50,30.27,-1.00,-1.0,2380
1723,1221723,17080,-636,920,17116.58,30.18,-1.00,-1.0,2431
1725,1221725,17032,-548,1016,17071.07,30.18,-1.00,-1.0,2378
1728,1221728,17088,-620,840,17119.86,30.22,-1.00,-1.0,2417
1731,1221731,17076,-676,968,17116.77,30.18,-1.00,-1.0,2361
1734,1221734,16964,-488,884,16994.03,30.32,-1.00,-1.0,2367
1736,1221736,16952,-640,1068,16997.66,30.22,-1.00,-1.0,2418
1739,1221739,16920,-696,852,16955.73,30.22,-1.00,-1.0,2372
1744,1221744,17048,-780,948,17092.14,30.22,-1.00,-1.0,2433
1747,1221747,17096,-632,896,17131.12,30.27,-1.00,-1.0,2373
1750,1221750,16984,-628,928,17020.92,30.08,-1.00,-1.0,2453
1752,1221752,17064,-600,1016,17104.75,30.27,-1.00,-1.0,2367
1755,1221755,17048,-608,736,17074.71,30.18,-1.00,-1.0,2439
1758,1221758,17064,-720,928,17104.38,30.27,-1.00,-1.0,2375
1761,1221761,16980,-700,1020,17025.01,30.22,-1.00,-1.0,2435
1763,1221763,17052,-680,844,17086.41,30.27,-1.00,-1.0,2375
1768,1221768,17096,-644,872,17130.33,30.27,-1.00,-1.0,2431
1771,1221771,17072,-668,852,17106.29,30.27,-1.00,-1.0,2362
1774,1221774,17088,-708,804,17121.55,30.22,-1.00,-1.0,2369
1777,1221777,16980,-736,932,17021.48,30.22,-1.00,-1.0,2428
1779,1221779,16992,-560,868,17023.37,30.32,-1.00,-1.0,2378
1782,1221782,17020,-700,808,17053.54,30.13,-1.00,-1.0,2407
1785,1221785,17028,-544,960,17063.71,30.22,-1.00,-1.0,2370
1788,1221788,17052,-656,872,17086.88,30.22,-1.00,-1.0,2420
1790,1221790,16956,-608,728,16982.51,30.22,-1.00,-1.0,2372
1795,1221795,16960,-632,912,16996.26,30.22,-1.00,-1.0,2435
1798,1221798,17080,-552,812,17108.20,30.08,-1.00,-1.0,2373
1801,1221801,17088,-564,928,17122.47,30.22,-1.00,-1.0,2437
1803,1221803,17064,-632,920,17100.46,30.27,-1.00,-1.0,2379
1806,1221806,17004,-504,1044,17043.47,30.22,-1.00,-1.0,2419
1809,1221809,17064,-596,764,17091.49,30.22,-1.00,-1.0,2369
1812,1221812,17012,-616,868,17045.26,30.18,-1.00,-1.0,2366
1814,1221814,17124,-572,1008,17163.18,30.18,-1.00,-1.0,2426
1817,1221817,16908,-556,956,16944.13,30.18,-1.00,-1.0,2369
1822,1221822,17060,-664,832,17093.18,30.22,-1.00,-1.0,2427
1825,1221825,17008,-556,956,17043.92,30.22,-1.00,-1.0,2368
1828,1221828,17040,-560,824,17069.10,30.18,-1.00,-1.0,2427
1830,1221830,17036,-624,896,17070.96,30.22,-1.00,-1.0,2379
1833,1221833,17064,-668,1008,17106.79,30.18,-1.00,-1.0,2420
1836,1221836,16980,-632,828,17011.92,30.22,-1.00,-1.0,2370
1839,1221839,17016,-592,812,17045.65,30.27,-1.00,-1.0,2419
1841,1221841,16948,-660,832,16981.24,30.27,-1.00,-1.0,2369
1846,1221846,17104,-604,808,17133.72,30.22,-1.00,-1.0,2433
1849,1221849,17036,-528,1004,17073.72,30.22,-1.00,-1.0,2368
1852,1221852,16948,-524,940,16982.13,30.27,-1.00,-1.0,2364
1854,1221854,16948,-536,856,16978.07,30.27,-1.00,-1.0,2427
1857,1221857,17044,-604,1120,17091.44,30.27,-1.00,-1.0,2376
1860,1221860,17112,-704,864,17148.26,30.22,-1.00,-1.0,2427
1863,1221863,16968,-556,852,16998.47,30.18,-1.00,-1.0,2368
1865,1221865,17084,-616,792,17113.44,30.18,-1.00,-1.0,2424
1868,1221868,16916,-608,724,16942.40,30.27,-1.00,-1.0,2370
1873,1221873,17060,-556,800,17087.79,30.18,-1.00,-1.0,2414
1876,1221876,17088,-524,1012,17125.96,30.22,-1.00,-1.0,2368
1879,1221879,17124,-612,828,17154.93,30.18,-1.00,-1.0,2427
1881,1221881,17152,-648,816,17183.62,30.37,-1.00,-1.0,2376
1884,1221884,17032,-608,992,17071.70,30.18,-1.00,-1.0,2421
1887,1221887,17016,-624,780,17045.29,30.18,-1.00,-1.0,2373
1889,1221889,17072,-620,940,17109.10,30.18,-1.00,-1.0,2370
1892,1221892,17000,-588,928,17035.46,30.32,-1.00,-1.0,2433
1895,1221895,17008,-544,816,17036.25,30.22,-1.00,-1.0,2377
1900,1221900,17056,-608,808,17085.95,30.18,-1.00,-1.0,2435
1902,1221902,16944,-500,940,16977.42,30.13,-1.00,-1.0,2374
1905,1221905,16956,-604,1016,16997.15,30.18,-1.00,-1.0,2427
1908,1221908,17072,-580,900,17105.54,30.22,-1.00,-1.0,2363
1911,1221911,17068,-640,1000,17109.24,30.27,-1.00,-1.0,2421
1913,1221913,17040,-596,904,17074.37,30.27,-1.00,-1.0,2373
1916,1221916,17136,-672,916,17173.62,30.27,-1.00,-1.0,2419
1919,1221919,17008,-668,868,17043.23,30.18,-1.00,-1.0,2358
1924,1221924,16944,-580,964,16981.31,30.13,-1.00,-1.0,2427
1926,1221926,17052,-620,952,17089.80,30.18,-1.00,-1.0,2366
1929,1221929,17044,-540,1020,17083.03,30.22,-1.00,-1.0,2359
1932,1221932,17028,-488,1048,17067.20,30.18,-1.00,-1.0,2435
1934,1221934,17016,-524,856,17045.57,30.27,-1.00,-1.0,2384
1937,1221937,17024,-472,892,17053.89,30.18,-1.00,-1.0,2419
1940,1221940,16984,-600,880,17017.36,30.18,-1.00,-1.0,2370
1943,1221943,17020,-468,924,17051.49,30.27,-1.00,-1.0,2420
1945,1221945,17200,-528,984,17236.21,30.27,-1.00,-1.0,2369
1950,1221950,17064,-552,952,17099.45,30.18,-1.00,-1.0,2436
1953,1221953,17060,-672,972,17100.88,30.27,-1.00,-1.0,2381
1956,1221956,16996,-524,948,17030.48,30.18,-1.00,-1.0,2428
1959,1221959,17024,-668,884,17060.02,30.18,-1.00,-1.0,2376
1962,1221962,17036,-556,984,17073.45,30.18,-1.00,-1.0,2419
1964,1221964,16936,-568,936,16971.35,30.18,-1.00,-1.0,2357
1967,1221967,17020,-540,816,17048.10,30.22,-1.00,-1.0,2366
1970,1221970,17028,-492,912,17059.50,30.32,-1.00,-1.0,2419
1972,1221972,17092,-588,992,17130.86,30.27,-1.00,-1.0,2369
1977,1221977,16960,-620,920,16996.25,30.18,-1.00,-1.0,2427
1980,1221980,17036,-616,1028,17078.10,30.27,-1.00,-1.0,2367
1983,1221983,17028,-628,1044,17071.53,30.32,-1.00,-1.0,2435
1986,1221986,16980,-624,872,17013.82,30.18,-1.00,-1.0,2371
1988,1221988,17048,-496,996,17084.27,30.32,-1.00,-1.0,2421
1991,1221991,16940,-592,996,16979.58,30.22,-1.00,-1.0,2370
1994,1221994,17060,-592,904,17094.19,30.13,-1.00,-1.0,2427
1997,1221997,17100,-652,944,17138.44,30.22,-1.00,-1.0,2369
2002,1222002,17092,-608,864,17124.62,30.32,-1.00,-1.0,2430
2004,1222004,17000,-656,936,17038.38,30.18,-1.00,-1.0,2368
2007,1222007,17092,-612,1000,17132.16,30.22,-1.00,-1.0,2414
2010,1222010,17052,-672,808,17084.35,30.27,-1.00,-1.0,2370
2012,1222012,16932,-632,1020,16974.46,30.22,-1.00,-1.0,2366
2015,1222015,17128,-636,924,17164.69,30.18,-1.00,-1.0,2419
2018,1222018,17052,-688,876,17088.34,30.22,-1.00,-1.0,2383
2021,1222021,17040,-560,952,17075.76,30.27,-1.00,-1.0,2420
2023,1222023,17080,-716,900,17118.68,30.22,-1.00,-1.0,2370
2028,1222028,17000,-584,684,17023.78,30.32,-1.00,-1.0,2428
2031,1222031,17028,-600,872,17060.87,30.22,-1.00,-1.0,2366
2034,1222034,17084,-532,824,17112.13,30.22,-1.00,-1.0,2435
2037,1222037,17132,-684,932,17170.96,30.13,-1.00,-1.0,2368
2039,1222039,17104,-680,844,17138.31,30.08,-1.00,-1.0,2426
2042,1222042,17068,-644,812,17099.44,30.22,-1.00,-1.0,2370
2045,1222045,17092,-616,880,17125.72,30.18,-1.00,-1.0,2422
2048,1222048,17080,-672,780,17111.00,30.22,-1.00,-1.0,2368
2050,1222050,17096,-456,944,17128.11,30.22,-1.00,-1.0,2365
2055,1222055,16996,-596,832,17026.79,30.22,-1.00,-1.0,2426
2058,1222058,17004,-576,800,17032.55,30.13,-1.00,-1.0,2369
2061,1222061,17032,-584,936,17067.69,30.32,-1.00,-1.0,2429
2064,1222064,17080,-608,984,17119.12,30.13,-1.00,-1.0,2372
2066,1222066,17036,-604,948,17073.04,30.22,-1.00,-1.0,2422
2069,1222069,16968,-596,1032,17009.80,30.22,-1.00,-1.0,2358
2072,1222072,17040,-632,880,17074.41,30.22,-1.00,-1.0,2426
2075,1222075,16980,-656,896,17016.27,30.22,-1.00,-1.0,2369
2080,1222080,17088,-620,768,17116.48,30.18,-1.00,-1.0,2433
2082,1222082,17092,-576,1052,17134.03,30.27,-1.00,-1.0,2370
2085,1222085,17096,-688,928,17134.99,30.27,-1.00,-1.0,2434
2088,1222088,16984,-620,892,17018.71,30.18,-1.00,-1.0,2371
2091,1222091,17120,-596,868,17152.35,30.22,-1.00,-1.0,2366
2093,1222093,16944,-644,840,16977.03,30.18,-1.00,-1.0,2419
2096,1222096,17088,-632,932,17125.06,30.13,-1.00,-1.0,2370
2099,1222099,17048,-640,872,17082.28,30.18,-1.00,-1.0,2427
2102,1222102,16940,-516,880,16970.69,30.22,-1.00,-1.0,2369
2106,1222106,16916,-672,892,16952.83,30.27,-1.00,-1.0,2426
2109,1222109,17156,-652,948,17194.54,30.22,-1.00,-1.0,2370
2112,1222112,17060,-592,908,17094.40,30.27,-1.00,-1.0,2434
2115,1222115,17056,-648,960,17095.28,30.18,-1.00,-1.0,2368
2117,1222117,17040,-656,908,17076.78,30.18,-1.00,-1.0,2428
2120,1222120,17060,-696,948,17100.49,30.18,-1.00,-1.0,2370
2123,1222123,17004,-620,760,17032.26,30.27,-1.00,-1.0,2428
2126,1222126,17012,-540,708,17035.29,30.18,-1.00,-1.0,2368
2128,1222128,17128,-616,972,17166.61,30.18,-1.00,-1.0,2368
2133,1222133,17052,-644,1068,17097.54,30.27,-1.00,-1.0,2414
2136,1222136,16948,-620,900,16983.20,30.22,-1.00,-1.0,2367
2139,1222139,17028,-600,960,17065.59,30.18,-1.00,-1.0,2427
2141,1222141,17144,-564,940,17179.01,30.22,-1.00,-1.0,2376
2144,1222144,17020,-644,788,17050.40,30.27,-1.00,-1.0,2419
2147,1222147,16928,-620,1036,16971.00,30.18,-1.00,-1.0,2375
2150,1222150,17100,-732,868,17137.66,30.18,-1.00,-1.0,2419
2152,1222152,17044,-604,792,17073.08,30.32,-1.00,-1.0,2373
2157,1222157,17052,-584,884,17084.88,30.18,-1.00,-1.0,2428
2160,1222160,17112,-580,988,17150.31,30.18,-1.00,-1.0,2367
2163,1222163,17016,-680,912,17053.98,30.22,-1.00,-1.0,2434
2166,1222166,17004,-664,888,17040.11,30.18,-1.00,-1.0,2368
2168,1222168,17116,-684,860,17151.24,30.22,-1.00,-1.0,2373
2171,1222171,17212,-512,848,17240.48,30.18,-1.00,-1.0,2419
2174,1222174,16964,-616,964,17002.53,30.22,-1.00,-1.0,2371
2177,1222177,17120,-576,736,17145.49,30.18,-1.00,-1.0,2420
2179,1222179,17000,-576,748,17026.19,30.22,-1.00,-1.0,2377
2184,1222184,17036,-612,884,17069.89,30.22,-1.00,-1.0,2438
2187,1222187,17068,-672,1068,17114.58,30.18,-1.00,-1.0,2366
2190,1222190,16980,-544,808,17007.92,30.22,-1.00,-1.0,2430
2193,1222193,17032,-544,816,17060.21,30.22,-1.00,-1.0,2375
2195,1222195,16992,-632,648,17016.09,30.22,-1.00,-1.0,2428
2198,1222198,17020,-568,880,17052.20,30.22,-1.00,-1.0,2385
2201,1222201,17004,-524,800,17030.87,30.27,-1.00,-1.0,2423
2204,1222204,17056,-724,856,17092.81,30.22,-1.00,-1.0,2373
2206,1222206,17008,-524,1052,17048.56,30.32,-1.00,-1.0,2374
2211,1222211,17004,-544,888,17035.86,30.22,-1.00,-1.0,2438
2214,1222214,17076,-724,904,17115.23,30.22,-1.00,-1.0,2373
2217,1222217,17052,-720,852,17088.45,30.22,-1.00,-1.0,2414
2220,1222220,16992,-548,848,17021.97,30.22,-1.00,-1.0,2376
2222,1222222,17076,-620,680,17100.78,30.18,-1.00,-1.0,2429
2225,1222225,16968,-656,972,17008.47,30.22,-1.00,-1.0,2385
2228,1222228,16964,-604,916,16999.45,30.27,-1.00,-1.0,2424
2231,1222231,17104,-624,960,17142.28,30.22,-1.00,-1.0,2374
2236,1222236,17040,-608,996,17079.91,30.22,-1.00,-1.0,2427
2238,1222238,17012,-584,844,17042.93,30.22,-1.00,-1.0,2368
2241,1222241,17104,-584,872,17136.17,30.13,-1.00,-1.0,2441
2244,1222244,17004,-656,940,17042.59,30.32,-1.00,-1.0,2384
2247,1222247,17056,-588,1044,17098.04,30.18,-1.00,-1.0,2368
2249,1222249,17136,-596,788,17164.46,30.13,-1.00,-1.0,2420
2252,1222252,16904,-492,988,16939.99,30.18,-1.00,-1.0,2373
2255,1222255,17116,-604,792,17144.96,30.22,-1.00,-1.0,2427
2258,1222258,17068,-656,960,17107.56,30.18,-1.00,-1.0,2369
2263,1222263,17028,-640,972,17067.72,30.27,-1.00,-1.0,2434
2265,1222265,16996,-588,1008,17036.02,30.27,-1.00,-1.0,2374
2268,1222268,16896,-672,980,16937.73,30.18,-1.00,-1.0,2428
2271,1222271,17020,-616,1024,17061.90,30.27,-1.00,-1.0,2378
2274,1222274,17120,-596,888,17153.37,30.18,-1.00,-1.0,2420
2276,1222276,17036,-604,948,17073.04,30.18,-1.00,-1.0,2371
2279,1222279,17080,-524,940,17113.87,30.18,-1.00,-1.0,2407
2282,1222282,16980,-664,948,17019.40,30.37,-1.00,-1.0,2370
2285,1222285,17060,-532,924,17093.29,30.18,-1.00,-1.0,2366
2290,1222290,17024,-648,1044,17068.29,30.37,-1.00,-1.0,2429
2292,1222292,16940,-528,904,16972.32,30.18,-1.00,-1.0,2368
2295,1222295,17044,-572,940,17079.48,30.27,-1.00,-1.0,2426
2298,1222298,17040,-468,1008,17076.20,30.27,-1.00,-1.0,2372
2301,1222301,17008,-648,852,17041.65,30.32,-1.00,-1.0,2419
2303,1222303,16996,-472,1088,17037.33,30.18,-1.00,-1.0,2377
2306,1222306,17064,-600,688,17088.40,30.18,-1.00,-1.0,2420
2309,1222309,17072,-592,932,17107.67,30.27,-1.00,-1.0,2369
2314,1222314,17092,-592,752,17118.77,30.22,-1.00,-1.0,2427
2316,1222316,17076,-624,868,17109.43,30.22,-1.00,-1.0,2366
2319,1222319,17000,-564,868,17031.49,30.22,-1.00,-1.0,2427
2322,1222322,17040,-604,932,17076.15,30.22,-1.00,-1.0,2376
2324,1222324,16940,-652,904,16976.63,30.18,-1.00,-1.0,2369
2327,1222327,16880,-532,852,16909.86,30.18,-1.00,-1.0,2428
2330,1222330,17060,-700,976,17102.23,30.18,-1.00,-1.0,2376
2333,1222333,17072,-608,856,17104.26,30.27,-1.00,-1.0,2434
2336,1222336,17064,-604,976,17102.56,30.32,-1.00,-1.0,2368
2340,1222340,17028,-608,868,17060.95,30.22,-1.00,-1.0,2427
2343,1222343,17064,-584,824,17093.86,30.27,-1.00,-1.0,2365
2346,1222346,17100,-684,888,17136.70,30.13,-1.00,-1.0,2429
2349,1222349,16976,-616,964,17014.50,30.22,-1.00,-1.0,2373
2351,1222351,17088,-616,780,17116.88,30.22,-1.00,-1.0,2419
2354,1222354,17108,-656,952,17147.02,30.27,-1.00,-1.0,2368
2357,1222357,17104,-536,868,17134.40,30.22,-1.00,-1.0,2421
2360,1222360,17020,-552,876,17051.46,30.18,-1.00,-1.0,2366
2363,1222363,17036,-548,924,17069.84,30.27,-1.00,-1.0,2365
2368,1222368,16972,-604,924,17007.86,30.27,-1.00,-1.0,2427
2370,1222370,17044,-568,836,17073.94,30.32,-1.00,-1.0,2362
2373,1222373,17112,-704,960,17153.36,30.27,-1.00,-1.0,2426
2376,1222376,16980,-604,952,17017.39,30.22,-1.00,-1.0,2376
2379,1222379,17072,-628,772,17100.98,30.27,-1.00,-1.0,2418
2381,1222381,17072,-540,756,17097.26,30.22,-1.00,-1.0,2370
2384,1222384,17088,-616,800,17117.80,30.18,-1.00,-1.0,2419
2387,1222387,17036,-608,1004,17076.39,30.22,-1.00,-1.0,2370
2392,1222392,17104,-604,780,17132.43,30.22,-1.00,-1.0,2427
2395,1222395,16988,-732,904,17027.78,30.13,-1.00,-1.0,2370
2397,1222397,16976,-620,892,17010.72,30.18,-1.00,-1.0,2427
2400,1222400,17056,-580,852,17087.11,30.22,-1.00,-1.0,2377
2403,1222403,17080,-588,824,17109.97,30.27,-1.00,-1.0,2367
2405,1222405,17000,-600,912,17035.02,30.32,-1.00,-1.0,2427
2408,1222408,17112,-692,868,17147.97,30.18,-1.00,-1.0,2377
2411,1222411,17080,-624,868,17113.42,30.27,-1.00,-1.0,2407
2414,1222414,17052,-580,796,17080.42,30.27,-1.00,-1.0,2374
2419,1222419,17144,-612,936,17180.44,30.18,-1.00,-1.0,2427
2421,1222421,17016,-644,872,17050.49,30.18,-1.00,-1.0,2367
2424,1222424,17008,-580,956,17044.72,30.22,-1.00,-1.0,2441
2427,1222427,17028,-640,908,17064.20,30.18,-1.00,-1.0,2382
2430,1222430,17092,-588,676,17115.47,30.22,-1.00,-1.0,2432
2432,1222432,17076,-640,840,17108.62,30.22,-1.00,-1.0,2377
2435,1222435,17008,-620,964,17046.58,30.22,-1.00,-1.0,2420
2438,1222438,17052,-592,836,17082.74,30.18,-1.00,-1.0,2374
2441,1222441,17036,-636,788,17066.07,30.13,-1.00,-1.0,2370
2446,1222446,17088,-576,1012,17127.63,30.22,-1.00,-1.0,2434
2448,1222448,16988,-608,856,17020.42,30.18,-1.00,-1.0,2367
2451,1222451,16964,-628,772,16993.17,30.32,-1.00,-1.0,2436
2454,1222454,17112,-564,984,17149.54,30.18,-1.00,-1.0,2379
2457,1222457,17036,-476,756,17059.41,30.22,-1.00,-1.0,2429
2459,1222459,16952,-620,896,16986.98,30.22,-1.00,-1.0,2378
2462,1222462,17112,-572,740,17137.54,30.22,-1.00,-1.0,2420
2465,1222465,17024,-612,1008,17064.79,30.22,-1.00,-1.0,2372
2470,1222470,17044,-488,828,17071.08,30.22,-1.00,-1.0,2434
2473,1222473,17096,-692,1012,17139.90,30.22,-1.00,-1.0,2366
2475,1222475,17060,-576,764,17086.81,30.22,-1.00,-1.0,2437
2478,1222478,17092,-584,868,17123.99,30.22,-1.00,-1.0,2384
2481,1222481,17112,-644,860,17145.70,30.18,-1.00,-1.0,2372
2484,1222484,16948,-556,980,16985.41,30.27,-1.00,-1.0,2419
2486,1222486,17084,-752,792,17118.87,30.18,-1.00,-1.0,2357
2489,1222489,16932,-568,864,16963.54,30.27,-1.00,-1.0,2419
2492,1222492,17124,-636,1016,17165.90,30.18,-1.00,-1.0,2369
2497,1222497,17088,-632,800,17118.39,30.22,-1.00,-1.0,2429
2500,1222500,17092,-544,812,17119.92,30.13,-1.00,-1.0,2371
2503,1222503,16960,-584,868,16992.24,30.18,-1.00,-1.0,2429
2505,1222505,17080,-536,732,17104.08,30.13,-1.00,-1.0,2383
2508,1222508,17080,-612,912,17115.28,30.18,-1.00,-1.0,2419
2511,1222511,17072,-564,908,17105.43,30.32,-1.00,-1.0,2370
2514,1222514,17072,-552,1004,17110.40,30.27,-1.00,-1.0,2418
2516,1222516,17064,-656,868,17098.65,30.22,-1.00,-1.0,2372
2519,1222519,17068,-656,788,17098.77,30.18,-1.00,-1.0,2374
2524,1222524,17016,-616,956,17053.96,30.22,-1.00,-1.0,2430
2527,1222527,16984,-532,952,17018.98,30.18,-1.00,-1.0,2366
2530,1222530,17016,-444,912,17046.21,30.27,-1.00,-1.0,2429
2533,1222533,16960,-604,968,16998.34,30.18,-1.00,-1.0,2374
2535,1222535,17016,-628,828,17047.71,30.22,-1.00,-1.0,2422
2538,1222538,16948,-532,804,16975.40,30.27,-1.00,-1.0,2370
2541,1222541,17088,-568,892,17120.69,30.22,-1.00,-1.0,2428
2544,1222544,16988,-516,908,17020.07,30.18,-1.00,-1.0,2356
2548,1222548,17052,-628,868,17085.62,30.27,-1.00,-1.0,2427
2551,1222551,16940,-496,924,16972.43,30.18,-1.00,-1.0,2368
2554,1222554,17080,-536,808,17107.50,30.18,-1.00,-1.0,2436
2557,1222557,17036,-512,976,17071.62,30.27,-1.00,-1.0,2376
2559,1222559,17120,-720,788,17153.24,30.13,-1.00,-1.0,2373
2562,1222562,16888,-472,784,16912.78,30.18,-1.00,-1.0,2423
2565,1222565,17004,-604,832,17035.05,30.22,-1.00,-1.0,2368
2567,1222567,17040,-568,904,17073.41,30.18,-1.00,-1.0,2428
2570,1222570,17056,-520,976,17091.81,30.22,-1.00,-1.0,2376
2575,1222575,16988,-480,868,17016.93,30.22,-1.00,-1.0,2426
2578,1222578,17012,-624,824,17043.37,30.18,-1.00,-1.0,2367
2581,1222581,17008,-600,856,17040.09,30.32,-1.00,-1.0,2427
2583,1222583,17076,-692,860,17111.64,30.22,-1.00,-1.0,2376
2586,1222586,17000,-568,796,17028.10,30.13,-1.00,-1.0,2420
2589,1222589,17008,-628,1108,17055.62,30.13,-1.00,-1.0,2377
2592,1222592,17004,-624,944,17041.61,30.32,-1.00,-1.0,2420
2594,1222594,17060,-668,932,17098.49,30.22,-1.00,-1.0,2370
2597,1222597,17008,-620,1092,17054.29,30.18,-1.00,-1.0,2367
2602,1222602,17000,-712,980,17043.10,30.18,-1.00,-1.0,2434
2605,1222605,17004,-520,868,17034.08,30.22,-1.00,-1.0,2365
2607,1222607,17152,-652,980,17192.34,30.18,-1.00,-1.0,2440
2610,1222610,16948,-656,916,16985.41,30.18,-1.00,-1.0,2383
2613,1222613,16948,-508,956,16982.54,30.18,-1.00,-1.0,2409
2616,1222616,16992,-568,876,17024.04,30.22,-1.00,-1.0,2369
2618,1222618,16996,-608,808,17026.05,30.18,-1.00,-1.0,2427
2621,1222621,17044,-592,1024,17084.99,30.27,-1.00,-1.0,2375
2626,1222626,16980,-568,1036,17021.05,30.22,-1.00,-1.0,2426
2629,1222629,17056,-492,964,17090.30,30.22,-1.00,-1.0,2367
2632,1222632,17064,-540,948,17098.84,30.18,-1.00,-1.0,2427
2634,1222634,17080,-596,916,17114.93,30.22,-1.00,-1.0,2376
2637,1222637,17112,-532,972,17147.84,30.18,-1.00,-1.0,2367
2640,1222640,16960,-536,852,16989.84,30.27,-1.00,-1.0,2420
2642,1222642,17028,-656,968,17068.10,30.18,-1.00,-1.0,2373
2645,1222645,17088,-708,1056,17135.23,30.32,-1.00,-1.0,2419
2648,1222648,17020,-588,972,17057.87,30.18,-1.00,-1.0,2370
2653,1222653,16988,-556,936,17022.85,30.18,-1.00,-1.0,2437
2656,1222656,17120,-532,1020,17158.61,30.18,-1.00,-1.0,2366
2658,1222658,17012,-556,912,17045.50,30.18,-1.00,-1.0,2437
2661,1222661,16916,-620,880,16950.22,30.27,-1.00,-1.0,2394
2664,1222664,17000,-608,1000,17040.24,30.22,-1.00,-1.0,2420
2667,1222667,17080,-488,968,17114.37,30.27,-1.00,-1.0,2370
2670,1222670,17040,-640,948,17078.35,30.22,-1.00,-1.0,2421
2672,1222672,17024,-544,896,17056.24,30.18,-1.00,-1.0,2377
2677,1222677,17100,-592,836,17130.66,30.27,-1.00,-1.0,2442
2680,1222680,17020,-688,856,17055.39,30.27,-1.00,-1.0,2377
2683,1222683,17076,-620,1008,17116.96,30.22,-1.00,-1.0,2367
2685,1222685,17032,-576,916,17066.34,30.22,-1.00,-1.0,2413
2688,1222688,17028,-584,928,17063.27,30.22,-1.00,-1.0,2376
2691,1222691,17056,-652,868,17090.51,30.22,-1.00,-1.0,2421
2694,1222694,17048,-616,840,17079.79,30.32,-1.00,-1.0,2368
2696,1222696,17148,-508,936,17181.04,30.32,-1.00,-1.0,2420
2699,1222699,17120,-620,864,17153.00,30.32,-1.00,-1.0,2370
2704,1222704,16968,-552,808,16996.19,30.13,-1.00,-1.0,2429
2707,1222707,17148,-660,916,17185.13,30.27,-1.00,-1.0,2372
2710,1222710,17100,-604,900,17134.32,30.22,-1.00,-1.0,2429
2712,1222712,16968,-640,804,16999.09,30.22,-1.00,-1.0,2384
2715,1222715,16980,-540,944,17014.79,30.22,-1.00,-1.0,2419
2718,1222718,17076,-628,876,17109.98,30.27,-1.00,-1.0,2371
2720,1222720,17108,-672,884,17144.00,30.27,-1.00,-1.0,2369
2723,1222723,17076,-604,952,17113.18,30.18,-1.00,-1.0,2419
2726,1222726,17120,-608,964,17157.89,30.22,-1.00,-1.0,2372
2731,1222731,17048,-512,800,17074.44,30.22,-1.00,-1.0,2426
2734,1222734,17080,-580,972,17117.46,30.13,-1.00,-1.0,2369
2736,1222736,17036,-604,972,17074.39,30.18,-1.00,-1.0,2427
2739,1222739,17052,-600,952,17089.09,30.22,-1.00,-1.0,2376
2742,1222742,16976,-680,888,17012.80,30.27,-1.00,-1.0,2427
2745,1222745,17020,-680,1056,17066.28,30.32,-1.00,-1.0,2369
2747,1222747,17108,-560,880,17139.77,30.18,-1.00,-1.0,2419
2750,1222750,17076,-484,896,17106.34,30.27,-1.00,-1.0,2369
2755,1222755,17012,-528,824,17040.13,30.22,-1.00,-1.0,2434
2757,1222757,16956,-568,856,16987.09,30.22,-1.00,-1.0,2376
2760,1222760,17012,-600,960,17049.62,30.18,-1.00,-1.0,2365
2763,1222763,16928,-524,800,16954.99,30.22,-1.00,-1.0,2469
2766,1222766,17072,-652,956,17111.17,30.22,-1.00,-1.0,2371
2769,1222769,17032,-576,816,17061.26,30.27,-1.00,-1.0,2422
2771,1222771,17000,-536,964,17035.74,30.22,-1.00,-1.0,2370
2774,1222774,17068,-584,824,17097.86,30.37,-1.00,-1.0,2424
2777,1222777,17148,-592,908,17182.22,30.18,-1.00,-1.0,2368
2782,1222782,17052,-676,980,17093.51,30.22,-1.00,-1.0,2436
2785,1222785,16908,-456,964,16941.60,30.22,-1.00,-1.0,2371
2788,1222788,17112,-608,832,17143.00,30.27,-1.00,-1.0,2430
2790,1222790,17116,-624,824,17147.18,30.18,-1.00,-1.0,2374
2793,1222793,16908,-704,980,16951.00,30.18,-1.00,-1.0,2370
2796,1222796,16980,-584,900,17013.86,30.22,-1.00,-1.0,2426
2798,1222798,17080,-564,1008,17119.01,30.18,-1.00,-1.0,2374
2801,1222801,17160,-580,740,17185.74,30.22,-1.00,-1.0,2436
2804,1222804,17084,-648,808,17115.37,30.18,-1.00,-1.0,2371
2809,1222809,17048,-660,904,17084.71,30.18,-1.00,-1.0,2432
2812,1222812,17024,-600,956,17061.38,30.18,-1.00,-1.0,2368
2815,1222815,17128,-580,1000,17166.97,30.13,-1.00,-1.0,2459
2817,1222817,17160,-564,868,17191.19,30.22,-1.00,-1.0,2377
2820,1222820,17068,-640,844,17100.84,30.18,-1.00,-1.0,2422
2823,1222823,17000,-564,968,17036.88,30.13,-1.00,-1.0,2367
2826,1222826,16992,-548,764,17017.99,30.04,-1.00,-1.0,2462
2829,1222829,17148,-584,960,17184.78,30.27,-1.00,-1.0,2366
2834,1222834,17000,-532,804,17027.31,30.27,-1.00,-1.0,2431
2836,1222836,17108,-456,936,17139.65,30.27,-1.00,-1.0,2366
2839,1222839,17068,-516,892,17099.08,30.32,-1.00,-1.0,2373
2842,1222842,17008,-596,912,17042.86,30.27,-1.00,-1.0,2439
2844,1222844,17020,-624,804,17050.40,30.27,-1.00,-1.0,2376
2847,1222847,17104,-588,972,17141.68,30.27,-1.00,-1.0,2420
2850,1222850,16924,-664,924,16962.21,30.18,-1.00,-1.0,2369
2853,1222853,17016,-612,908,17051.20,30.18,-1.00,-1.0,2421
2855,1222855,17056,-612,1028,17097.91,30.27,-1.00,-1.0,2378
2860,1222860,17036,-588,968,17073.61,30.18,-1.00,-1.0,2438
2863,1222863,17056,-632,772,17085.16,30.32,-1.00,-1.0,2382
2866,1222866,16960,-664,824,16992.98,30.27,-1.00,-1.0,2428
2869,1222869,17032,-588,844,17063.03,30.27,-1.00,-1.0,2371
2872,1222872,17040,-496,924,17072.24,30.27,-1.00,-1.0,2418
2874,1222874,17120,-588,964,17157.20,30.18,-1.00,-1.0,2373
2877,1222877,17028,-516,936,17061.51,30.13,-1.00,-1.0,2378
2880,1222880,17084,-576,940,17119.53,30.32,-1.00,-1.0,2419
2882,1222882,16928,-608,796,16957.61,30.22,-1.00,-1.0,2369
2887,1222887,16972,-532,972,17008.13,30.22,-1.00,-1.0,2430
2890,1222890,16940,-572,888,16972.90,30.27,-1.00,-1.0,2355
2893,1222893,17088,-576,1000,17126.92,30.22,-1.00,-1.0,2437
2896,1222896,16984,-680,948,17024.02,30.18,-1.00,-1.0,2366
2898,1222898,16948,-656,804,16979.74,30.22,-1.00,-1.0,2420
2901,1222901,17044,-520,980,17080.07,30.27,-1.00,-1.0,2369
2904,1222904,17044,-504,840,17072.13,30.22,-1.00,-1.0,2427
2907,1222907,17060,-552,956,17095.68,30.18,-1.00,-1.0,2369
2912,1222912,17080,-632,920,17116.43,30.27,-1.00,-1.0,2431
2914,1222914,17004,-600,868,17036.71,30.18,-1.00,-1.0,2366
2917,1222917,17012,-524,792,17038.49,30.22,-1.00,-1.0,2372
2920,1222920,17044,-592,856,17075.75,30.27,-1.00,-1.0,2428
2922,1222922,17040,-628,848,17072.64,30.32,-1.00,-1.0,2371
2925,1222925,17028,-612,964,17066.24,30.18,-1.00,-1.0,2435
2928,1222928,17064,-448,836,17090.34,30.22,-1.00,-1.0,2365
2931,1222931,16976,-548,932,17010.39,30.27,-1.00,-1.0,2424
2933,1222933,17080,-540,932,17113.93,30.22,-1.00,-1.0,2372
2938,1222938,16996,-672,812,17028.65,30.27,-1.00,-1.0,2431
2941,1222941,17004,-584,808,17033.20,30.22,-1.00,-1.0,2366
2944,1222944,17020,-608,984,17059.26,30.27,-1.00,-1.0,2436
2947,1222947,17112,-544,808,17139.70,30.22,-1.00,-1.0,2368
2949,1222949,17028,-564,968,17064.81,30.27,-1.00,-1.0,2368
2952,1222952,17116,-636,920,17152.50,30.22,-1.00,-1.0,2419
2955,1222955,17064,-640,1048,17108.13,30.18,-1.00,-1.0,2373
2958,1222958,17020,-572,880,17052.33,30.32,-1.00,-1.0,2419
2960,1222960,17052,-524,908,17084.20,30.27,-1.00,-1.0,2369
2965,1222965,17012,-568,812,17040.84,30.27,-1.00,-1.0,2439
2968,1222968,17020,-524,772,17045.55,30.27,-1.00,-1.0,2365
2970,1222970,17100,-616,828,17131.11,30.27,-1.00,-1.0,2440
2973,1222973,17128,-668,748,17157.33,30.18,-1.00,-1.0,2376
2976,1222976,17000,-516,920,17032.69,30.18,-1.00,-1.0,2407
2979,1222979,16988,-704,804,17021.58,30.18,-1.00,-1.0,2370
2981,1222981,17004,-556,764,17030.23,30.27,-1.00,-1.0,2428
2984,1222984,17032,-576,772,17059.21,30.22,-1.00,-1.0,2369
2987,1222987,17004,-644,828,17036.32,30.13,-1.00,-1.0,2366
2992,1222992,17000,-616,948,17037.55,30.27,-1.00,-1.0,2440
2995,1222995,17052,-624,788,17081.60,30.18,-1.00,-1.0,2373
2998,1222998,17096,-544,900,17128.31,30.13,-1.00,-1.0,2441
3000,1223000,16948,-612,920,16983.98,30.18,-1.00,-1.0,2376
3003,1223003,17096,-652,792,17126.75,30.22,-1.00,-1.0,2419
3006,1223006,17020,-628,916,17056.20,30.22,-1.00,-1.0,2370
3009,1223009,17124,-568,1008,17163.04,30.22,-1.00,-1.0,2420
3011,1223011,16924,-728,868,16961.88,30.18,-1.00,-1.0,2374
3017,1223017,17068,-540,828,17096.60,30.32,-1.00,-1.0,2460
3019,1223019,17044,-652,892,17079.78,30.13,-1.00,-1.0,2363
3022,1223022,17088,-668,708,17115.70,30.27,-1.00,-1.0,2420
3025,1223025,17052,-732,860,17089.36,30.13,-1.00,-1.0,2370
3027,1223027,16944,-624,896,16979.14,30.27,-1.00,-1.0,2375
3030,1223030,16972,-688,824,17005.91,30.22,-1.00,-1.0,2430
3033,1223033,17032,-636,920,17068.68,30.27,-1.00,-1.0,2378
3036,1223036,17016,-536,952,17051.04,30.22,-1.00,-1.0,2429
3038,1223038,17008,-644,788,17038.42,30.18,-1.00,-1.0,2377
3043,1223043,17008,-576,792,17036.17,30.27,-1.00,-1.0,2446
3046,1223046,17056,-552,912,17089.28,30.27,-1.00,-1.0,2362
3049,1223049,17052,-596,908,17086.55,30.32,-1.00,-1.0,2432
3052,1223052,17052,-672,816,17084.73,30.18,-1.00,-1.0,2365
3054,1223054,17052,-616,860,17084.78,30.37,-1.00,-1.0,2434
3057,1223057,17164,-664,972,17204.32,30.18,-1.00,-1.0,2367
3060,1223060,16944,-496,756,16968.11,30.22,-1.00,-1.0,2429
3063,1223063,16872,-624,908,16907.93,30.37,-1.00,-1.0,2367
3065,1223065,16964,-552,948,16999.43,30.37,-1.00,-1.0,2367
3070,1223070,17084,-668,852,17118.27,30.18,-1.00,-1.0,2442
3073,1223073,17044,-688,940,17083.76,30.22,-1.00,-1.0,2363
3076,1223076,17032,-632,836,17064.21,30.27,-1.00,-1.0,2421
3079,1223079,16972,-564,1100,17016.96,30.22,-1.00,-1.0,2366
3081,1223081,17072,-704,864,17108.34,30.27,-1.00,-1.0,2406
3084,1223084,17092,-540,948,17126.79,30.22,-1.00,-1.0,2368
3087,1223087,16988,-604,876,17021.29,30.27,-1.00,-1.0,2424
3089,1223089,17156,-596,808,17185.36,30.32,-1.00,-1.0,2371
3094,1223094,17068,-604,1044,17110.56,30.22,-1.00,-1.0,2451
3097,1223097,16988,-596,988,17027.14,30.22,-1.00,-1.0,2381
3100,1223100,17064,-656,912,17100.94,30.13,-1.00,-1.0,2420
3103,1223103,16984,-748,912,17024.91,30.22,-1.00,-1.0,2375
3105,1223105,17112,-616,972,17150.65,30.18,-1.00,-1.0,2353
3108,1223108,17004,-684,732,17033.49,30.18,-1.00,-1.0,2420
3111,1223111,16984,-660,944,17023.01,30.18,-1.00,-1.0,2371
3114,1223114,16996,-680,960,17036.67,30.18,-1.00,-1.0,2421
3116,1223116,17104,-608,1036,17146.13,30.18,-1.00,-1.0,2372
3121,1223121,17016,-604,780,17044.57,30.27,-1.00,-1.0,2443
3124,1223124,16980,-644,796,17010.84,30.18,-1.00,-1.0,2367
3127,1223127,17040,-628,832,17071.85,30.22,-1.00,-1.0,2427
3130,1223130,17108,-608,920,17143.50,30.27,-1.00,-1.0,2369
3132,1223132,16984,-636,912,17020.36,30.18,-1.00,-1.0,2423
3135,1223135,16924,-596,824,16954.53,30.18,-1.00,-1.0,2369
3138,1223138,17112,-544,892,17143.87,30.13,-1.00,-1.0,2430
3141,1223141,17104,-572,948,17139.80,30.18,-1.00,-1.0,2369
3143,1223143,17008,-592,864,17040.22,30.22,-1.00,-1.0,2375
3148,1223148,17196,-616,832,17227.13,30.18,-1.00,-1.0,2449
3151,1223151,17000,-560,1064,17042.47,30.22,-1.00,-1.0,2368
3154,1223154,17020,-508,912,17051.99,30.18,-1.00,-1.0,2421
3156,1223156,16972,-536,1028,17011.55,30.27,-1.00,-1.0,2374
3159,1223159,17104,-536,764,17129.44,30.18,-1.00,-1.0,2420
3162,1223162,17104,-608,876,17137.21,30.18,-1.00,-1.0,2371
3165,1223165,17168,-536,996,17205.22,30.18,-1.00,-1.0,2422
3167,1223167,17044,-592,1004,17083.81,30.18,-1.00,-1.0,2374
3172,1223172,16948,-616,752,16975.86,30.13,-1.00,-1.0,2442
3175,1223175,17044,-580,912,17078.23,30.22,-1.00,-1.0,2371
3178,1223178,17064,-540,988,17101.11,30.27,-1.00,-1.0,2434
3180,1223180,17088,-580,780,17115.62,30.13,-1.00,-1.0,2373
3183,1223183,17016,-644,956,17055.00,30.18,-1.00,-1.0,2435
3186,1223186,17120,-612,860,17152.51,30.22,-1.00,-1.0,2382
3189,1223189,16984,-632,860,17017.50,30.18,-1.00,-1.0,2367
3192,1223192,16992,-560,772,17018.74,30.27,-1.00,-1.0,2422
3194,1223194,16980,-604,896,17014.35,30.27,-1.00,-1.0,2379
3199,1223199,17072,-596,912,17106.73,30.27,-1.00,-1.0,2453
3202,1223202,17012,-652,820,17044.23,30.18,-1.00,-1.0,2381
3205,1223205,17092,-548,852,17121.99,30.27,-1.00,-1.0,2420
3208,1223208,17096,-708,848,17131.65,30.18,-1.00,-1.0,2371
3211,1223211,17028,-576,932,17063.21,30.18,-1.00,-1.0,2414
3213,1223213,17080,-524,1000,17117.27,30.18,-1.00,-1.0,2385
3216,1223216,16944,-528,808,16971.47,30.27,-1.00,-1.0,2420
3219,1223219,17084,-556,952,17119.54,30.27,-1.00,-1.0,2372
3224,1223224,17064,-648,940,17102.15,30.27,-1.00,-1.0,2451
3226,1223226,17000,-564,992,17038.26,30.27,-1.00,-1.0,2376
3229,1223229,17056,-588,1012,17096.11,30.22,-1.00,-1.0,2366
3232,1223232,17004,-620,856,17036.82,30.22,-1.00,-1.0,2428
3235,1223235,17000,-696,780,17032.11,30.22,-1.00,-1.0,2369
3237,1223237,17008,-556,936,17042.81,30.22,-1.00,-1.0,2424
3240,1223240,17092,-588,916,17126.62,30.22,-1.00,-1.0,2374
3243,1223243,17020,-580,972,17057.60,30.27,-1.00,-1.0,2462
3246,1223246,17048,-540,864,17078.42,30.18,-1.00,-1.0,2371
3251,1223251,16996,-676,756,17026.23,30.27,-1.00,-1.0,2447
3253,1223253,17184,-544,1028,17223.31,30.18,-1.00,-1.0,2376
3256,1223256,17000,-576,840,17030.48,30.27,-1.00,-1.0,2420
3259,1223259,17116,-564,984,17153.54,30.18,-1.00,-1.0,2358
3262,1223262,17020,-492,1136,17064.96,30.22,-1.00,-1.0,2422
3264,1223264,17108,-584,892,17141.19,30.27,-1.00,-1.0,2373
3267,1223267,17100,-656,692,17126.56,30.22,-1.00,-1.0,2365
3270,1223270,17008,-600,920,17043.43,30.18,-1.00,-1.0,2431
3273,1223273,16984,-508,964,17018.92,30.32,-1.00,-1.0,2368
3278,1223278,16952,-704,892,16990.04,30.22,-1.00,-1.0,2440
3280,1223280,16996,-512,940,17029.67,30.22,-1.00,-1.0,2366
3283,1223283,17084,-680,880,17120.16,30.22,-1.00,-1.0,2420
3286,1223286,17044,-604,912,17079.07,30.22,-1.00,-1.0,2369
3289,1223289,17064,-572,804,17092.50,30.27,-1.00,-1.0,2420
3291,1223291,17036,-620,1040,17078.97,30.22,-1.00,-1.0,2369
3294,1223294,17040,-660,836,17073.26,30.27,-1.00,-1.0,2420
3297,1223297,17020,-640,796,17050.62,30.22,-1.00,-1.0,2369
3302,1223302,17060,-596,880,17093.07,30.22,-1.00,-1.0,2439
3305,1223305,17092,-692,1044,17137.83,30.22,-1.00,-1.0,2367
3307,1223307,17088,-632,880,17122.31,30.18,-1.00,-1.0,2366
3310,1223310,17092,-652,1032,17135.54,30.18,-1.00,-1.0,2430
3313,1223313,17112,-616,1036,17154.40,30.18,-1.00,-1.0,2368
3315,1223315,16980,-604,840,17011.49,30.18,-1.00,-1.0,2429
3318,1223318,17012,-692,928,17051.34,30.18,-1.00,-1.0,2377
3321,1223321,17128,-568,976,17165.19,30.18,-1.00,-1.0,2422
3324,1223324,17120,-668,988,17161.49,30.27,-1.00,-1.0,2370
3329,1223329,17068,-576,816,17097.20,30.18,-1.00,-1.0,2441
3331,1223331,17072,-652,1044,17116.31,30.18,-1.00,-1.0,2369
3334,1223334,17028,-532,808,17055.46,30.18,-1.00,-1.0,2435
3337,1223337,17080,-564,988,17117.85,30.27,-1.00,-1.0,2365
3340,1223340,16968,-480,904,16998.84,30.27,-1.00,-1.0,2424
3342,1223342,17096,-692,972,17137.59,30.27,-1.00,-1.0,2371
3345,1223345,17020,-624,984,17059.84,30.22,-1.00,-1.0,2369
3348,1223348,16996,-604,864,17028.66,30.22,-1.00,-1.0,2421
3351,1223351,17112,-644,920,17148.81,30.27,-1.00,-1.0,2365
3356,1223356,17088,-496,808,17114.28,30.27,-1.00,-1.0,2450
3359,1223359,17060,-524,864,17089.90,30.08,-1.00,-1.0,2368
3362,1223362,17096,-652,776,17126.02,30.22,-1.00,-1.0,2425
3365,1223365,17120,-672,840,17153.76,30.18,-1.00,-1.0,2368
3367,1223367,17052,-640,920,17088.79,30.22,-1.00,-1.0,2434
3370,1223370,17000,-728,936,17041.30,30.18,-1.00,-1.0,2370
3373,1223373,17016,-568,1000,17054.82,30.22,-1.00,-1.0,2425
3376,1223376,16928,-632,832,16960.21,30.27,-1.00,-1.0,2369
3380,1223380,17112,-560,892,17144.38,30.18,-1.00,-1.0,2444
3383,1223383,17044,-648,980,17084.45,30.18,-1.00,-1.0,2369
3386,1223386,16924,-612,832,16955.49,30.32,-1.00,-1.0,2370
3389,1223389,17012,-568,840,17042.19,30.22,-1.00,-1.0,2409
3391,1223391,17016,-556,876,17047.60,30.13,-1.00,-1.0,2385
3394,1223394,17160,-560,820,17188.71,30.32,-1.00,-1.0,2421
3397,1223397,16972,-652,912,17008.99,30.22,-1.00,-1.0,2371
3400,1223400,17100,-612,1020,17141.32,30.22,-1.00,-1.0,2409
3402,1223402,16968,-568,920,17002.41,30.22,-1.00,-1.0,2385
3407,1223407,17096,-512,812,17122.93,30.27,-1.00,-1.0,2441
3410,1223410,16984,-512,888,17014.90,30.22,-1.00,-1.0,2378
3413,1223413,17052,-636,860,17085.51,30.32,-1.00,-1.0,2431
3415,1223415,17000,-540,920,17033.44,30.22,-1.00,-1.0,2371
3418,1223418,17072,-556,868,17103.09,30.22,-1.00,-1.0,2428
3421,1223421,17012,-588,896,17045.72,30.22,-1.00,-1.0,2378
3424,1223424,17024,-532,936,17058.01,30.27,-1.00,-1.0,2366
3426,1223426,17020,-720,904,17059.19,30.27,-1.00,-1.0,2421
3429,1223429,17020,-584,792,17048.42,30.27,-1.00,-1.0,2370
3434,1223434,17008,-624,788,17037.68,30.27,-1.00,-1.0,2443
3437,1223437,16920,-580,824,16949.98,30.13,-1.00,-1.0,2371
3440,1223440,17072,-588,868,17104.16,30.18,-1.00,-1.0,2419
3442,1223442,17056,-592,908,17090.41,30.27,-1.00,-1.0,2372
3445,1223445,17132,-640,900,17167.56,30.18,-1.00,-1.0,2420
3448,1223448,16996,-544,740,17020.80,30.27,-1.00,-1.0,2371
3451,1223451,17020,-528,960,17055.23,30.27,-1.00,-1.0,2419
3453,1223453,17052,-592,980,17090.39,30.18,-1.00,-1.0,2372
3458,1223458,17008,-788,824,17046.17,30.27,-1.00,-1.0,2449
3461,1223461,16916,-488,928,16948.46,30.22,-1.00,-1.0,2369
3464,1223464,17008,-556,832,17037.41,30.27,-1.00,-1.0,2364
3466,1223466,17020,-604,760,17047.66,30.22,-1.00,-1.0,2420
3469,1223469,17012,-652,872,17046.81,30.27,-1.00,-1.0,2369
3472,1223472,16984,-652,948,17022.93,30.32,-1.00,-1.0,2427
3475,1223475,17160,-556,812,17188.20,30.27,-1.00,-1.0,2368
3477,1223477,16992,-496,840,17019.98,30.22,-1.00,-1.0,2422
3480,1223480,17028,-508,920,17060.40,30.27,-1.00,-1.0,2370
3485,1223485,17088,-556,1040,17128.64,30.18,-1.00,-1.0,2440
3488,1223488,16940,-492,812,16966.59,30.18,-1.00,-1.0,2368
3491,1223491,17028,-580,956,17064.67,30.27,-1.00,-1.0,2418
3493,1223493,16936,-616,844,16968.20,30.18,-1.00,-1.0,2370
3496,1223496,17048,-592,912,17082.64,30.27,-1.00,-1.0,2418
3499,1223499,17052,-468,860,17080.09,30.27,-1.00,-1.0,2369
3501,1223501,17056,-372,988,17088.64,30.13,-1.00,-1.0,2367
3504,1223504,17052,-348,952,17082.10,30.32,-1.00,-1.0,2419
3507,1223507,17132,-600,868,17164.46,30.22,-1.00,-1.0,2381
3512,1223512,17064,-592,880,17096.93,30.22,-1.00,-1.0,2446
3515,1223515,16960,-524,920,16993.02,30.22,-1.00,-1.0,2366
3517,1223517,17000,-556,908,17033.31,30.22,-1.00,-1.0,2422
3520,1223520,17112,-476,964,17145.74,30.18,-1.00,-1.0,2370
3523,1223523,16880,-552,936,16914.94,30.22,-1.00,-1.0,2427
3526,1223526,17056,-592,976,17094.16,30.13,-1.00,-1.0,2369
3528,1223528,16968,-636,876,17002.50,30.22,-1.00,-1.0,2420
3531,1223531,17112,-716,932,17152.31,30.27,-1.00,-1.0,2373
3536,1223536,17092,-596,920,17127.12,30.27,-1.00,-1.0,2440
3539,1223539,17020,-640,820,17051.76,30.27,-1.00,-1.0,2367
3541,1223541,17012,-560,960,17048.27,30.22,-1.00,-1.0,2368
3544,1223544,17044,-604,936,17080.37,30.27,-1.00,-1.0,2434
3547,1223547,17032,-572,864,17063.49,30.32,-1.00,-1.0,2376
3550,1223550,17052,-592,908,17086.42,30.18,-1.00,-1.0,2432
3552,1223552,16912,-496,924,16944.48,30.27,-1.00,-1.0,2372
3555,1223555,17088,-556,764,17114.11,30.27,-1.00,-1.0,2427
3558,1223558,17020,-664,888,17056.08,30.27,-1.00,-1.0,2376
3563,1223563,16964,-692,1044,17010.18,30.27,-1.00,-1.0,2443
3565,1223565,16972,-568,904,17005.55,30.27,-1.00,-1.0,2373
3568,1223568,17056,-652,892,17091.75,30.22,-1.00,-1.0,2420
3571,1223571,17004,-656,804,17035.63,30.18,-1.00,-1.0,2372
3574,1223574,16988,-596,928,17023.76,30.22,-1.00,-1.0,2420
3576,1223576,17000,-560,840,17029.95,30.27,-1.00,-1.0,2369
3579,1223579,17120,-624,868,17153.34,30.22,-1.00,-1.0,2365
3582,1223582,17028,-428,836,17053.88,30.27,-1.00,-1.0,2426
3585,1223585,17160,-664,784,17190.73,30.22,-1.00,-1.0,2378
3590,1223590,17016,-480,856,17044.28,30.13,-1.00,-1.0,2440
3592,1223592,16964,-584,968,17001.63,30.22,-1.00,-1.0,2366
3595,1223595,16916,-512,976,16951.87,30.22,-1.00,-1.0,2419
3598,1223598,16972,-532,1052,17012.89,30.22,-1.00,-1.0,2369
3601,1223601,17028,-516,904,17059.79,30.22,-1.00,-1.0,2420
3603,1223603,17044,-592,836,17074.76,30.22,-1.00,-1.0,2369
3606,1223606,16920,-656,972,16960.59,30.13,-1.00,-1.0,2423
3609,1223609,17088,-544,984,17124.95,30.27,-1.00,-1.0,2376
3614,1223614,17064,-524,864,17093.89,30.27,-1.00,-1.0,2448
3617,1223617,17036,-608,916,17071.44,30.22,-1.00,-1.0,2366
3619,1223619,17004,-668,1032,17048.38,30.18,-1.00,-1.0,2379
3622,1223622,16992,-660,796,17023.43,30.18,-1.00,-1.0,2419
3625,1223625,17032,-536,884,17063.35,30.27,-1.00,-1.0,2375
3628,1223628,17100,-604,948,17136.90,30.22,-1.00,-1.0,2421
3630,1223630,17096,-584,748,17122.32,30.32,-1.00,-1.0,2377
3633,1223633,17152,-648,1040,17195.71,30.22,-1.00,-1.0,2419
3636,1223636,16936,-636,912,16972.46,30.27,-1.00,-1.0,2377
3641,1223641,17080,-604,956,17117.39,30.27,-1.00,-1.0,2448
3644,1223644,17052,-696,980,17094.31,30.27,-1.00,-1.0,2365
3646,1223646,16980,-628,812,17011.00,30.18,-1.00,-1.0,2433
3649,1223649,17084,-668,840,17117.68,30.27,-1.00,-1.0,2370
3652,1223652,16992,-588,796,17020.79,30.27,-1.00,-1.0,2429
3655,1223655,17000,-724,884,17038.36,30.18,-1.00,-1.0,2369
3657,1223657,17072,-644,836,17104.58,30.32,-1.00,-1.0,2367
3660,1223660,17000,-600,840,17031.31,30.22,-1.00,-1.0,2406
3663,1223663,17060,-500,800,17086.06,30.37,-1.00,-1.0,2372
3668,1223668,17016,-576,1052,17058.22,30.18,-1.00,-1.0,2448
3671,1223671,16948,-656,920,16985.62,30.18,-1.00,-1.0,2366
3674,1223674,17132,-696,908,17170.16,30.27,-1.00,-1.0,2458
3676,1223676,17008,-708,788,17040.96,30.27,-1.00,-1.0,2368
3679,1223679,17068,-664,772,17098.35,30.27,-1.00,-1.0,2422
3682,1223682,16956,-576,1020,16996.41,30.27,-1.00,-1.0,2366
3685,1223685,17008,-684,856,17043.26,30.27,-1.00,-1.0,2422
3687,1223687,17080,-632,896,17115.16,30.18,-1.00,-1.0,2367
3692,1223692,17020,-776,748,17054.09,30.27,-1.00,-1.0,2419
3695,1223695,17036,-640,940,17073.91,30.22,-1.00,-1.0,2368
3698,1223698,17076,-648,820,17107.95,30.18,-1.00,-1.0,2364
3700,1223700,17056,-664,920,17093.70,30.22,-1.00,-1.0,2444
3703,1223703,17080,-720,816,17114.63,30.13,-1.00,-1.0,2380
3706,1223706,17144,-640,884,17178.70,30.22,-1.00,-1.0,2410
3709,1223709,17092,-596,772,17119.80,30.27,-1.00,-1.0,2369
3711,1223711,17152,-568,748,17177.70,30.22,-1.00,-1.0,2428
3714,1223714,16956,-536,896,16988.12,30.22,-1.00,-1.0,2381
3719,1223719,17096,-624,780,17125.16,30.22,-1.00,-1.0,2432
3722,1223722,17028,-644,868,17062.27,30.08,-1.00,-1.0,2375
3725,1223725,16888,-676,856,16923.19,30.32,-1.00,-1.0,2431
3727,1223727,17064,-600,916,17099.10,30.22,-1.00,-1.0,2371
3730,1223730,17000,-716,832,17035.40,30.22,-1.00,-1.0,2433
3733,1223733,17144,-720,832,17179.27,30.18,-1.00,-1.0,2377
3736,1223736,17036,-700,872,17072.66,30.27,-1.00,-1.0,2369
3738,1223738,17128,-684,888,17164.64,30.18,-1.00,-1.0,2420
3741,1223741,17160,-640,840,17192.46,30.27,-1.00,-1.0,2370
3746,1223746,16932,-644,784,16962.37,30.18,-1.00,-1.0,2433
3749,1223749,16960,-628,900,16995.47,30.32,-1.00,-1.0,2373
3752,1223752,17044,-612,912,17079.35,30.27,-1.00,-1.0,2430
3754,1223754,17088,-588,892,17121.37,30.13,-1.00,-1.0,2357
3757,1223757,16976,-668,772,17006.67,30.18,-1.00,-1.0,2419
3760,1223760,17064,-548,876,17095.26,30.13,-1.00,-1.0,2372
3763,1223763,17092,-612,924,17127.89,30.27,-1.00,-1.0,2421
3765,1223765,17036,-484,1004,17072.42,30.18,-1.00,-1.0,2372
3770,1223770,17008,-576,964,17045.03,30.27,-1.00,-1.0,2431
3773,1223773,17088,-512,884,17118.51,30.18,-1.00,-1.0,2367
3775,1223775,16988,-532,948,17022.75,30.22,-1.00,-1.0,2365
3778,1223778,17128,-576,884,17160.47,30.32,-1.00,-1.0,2437
3781,1223781,17032,-548,1108,17076.80,30.22,-1.00,-1.0,2365
3784,1223784,17020,-628,856,17053.08,30.32,-1.00,-1.0,2426
3786,1223786,16972,-580,868,17004.08,30.32,-1.00,-1.0,2370
3789,1223789,17056,-484,904,17086.80,30.13,-1.00,-1.0,2434
3792,1223792,17028,-592,948,17064.64,30.37,-1.00,-1.0,2373
3797,1223797,16984,-628,1004,17025.24,30.22,-1.00,-1.0,2438
3800,1223800,17024,-512,776,17049.37,30.22,-1.00,-1.0,2367
3802,1223802,17088,-604,764,17115.73,30.18,-1.00,-1.0,2436
3805,1223805,17060,-552,800,17087.67,30.32,-1.00,-1.0,2376
3808,1223808,16996,-572,876,17028.17,30.18,-1.00,-1.0,2407
3811,1223811,16996,-664,920,17033.83,30.22,-1.00,-1.0,2369
3813,1223813,17092,-592,856,17123.66,30.18,-1.00,-1.0,2366
3816,1223816,16980,-540,852,17009.94,30.22,-1.00,-1.0,2419
3819,1223819,17112,-576,924,17146.61,30.32,-1.00,-1.0,2370
3824,1223824,17012,-580,908,17046.08,30.18,-1.00,-1.0,2431
3827,1223827,17044,-624,1008,17085.18,30.27,-1.00,-1.0,2367
3830,1223830,17084,-552,1028,17123.80,30.22,-1.00,-1.0,2429
3832,1223832,17128,-644,772,17157.48,30.18,-1.00,-1.0,2369
3835,1223835,17068,-604,820,17098.36,30.22,-1.00,-1.0,2419
3838,1223838,17088,-652,824,17120.28,30.18,-1.00,-1.0,2370
3841,1223841,17060,-536,920,17093.20,30.22,-1.00,-1.0,2419
3843,1223843,17140,-720,896,17178.50,30.27,-1.00,-1.0,2373
3848,1223848,17012,-552,940,17046.89,30.18,-1.00,-1.0,2431
3851,1223851,16916,-568,768,16942.95,30.27,-1.00,-1.0,2369
3854,1223854,17080,-536,756,17105.12,30.22,-1.00,-1.0,2364
3856,1223856,17100,-592,948,17136.49,30.22,-1.00,-1.0,2431
3859,1223859,17072,-608,1088,17117.44,30.32,-1.00,-1.0,2369
3862,1223862,17108,-592,948,17144.47,30.18,-1.00,-1.0,2428
3865,1223865,17044,-720,912,17083.56,30.22,-1.00,-1.0,2368
3867,1223867,17064,-640,932,17101.41,30.27,-1.00,-1.0,2424
3870,1223870,17036,-704,804,17069.48,30.13,-1.00,-1.0,2370
3875,1223875,16980,-616,948,17017.60,30.22,-1.00,-1.0,2431
3878,1223878,17072,-664,884,17107.76,30.18,-1.00,-1.0,2371
3881,1223881,17096,-508,852,17124.75,30.22,-1.00,-1.0,2428
3883,1223883,17104,-628,912,17139.81,30.22,-1.00,-1.0,2370
3886,1223886,17092,-588,880,17124.74,30.27,-1.00,-1.0,2419
3889,1223889,17056,-660,828,17088.84,30.22,-1.00,-1.0,2377
3891,1223891,17000,-560,868,17031.35,30.27,-1.00,-1.0,2376
3894,1223894,17156,-556,1016,17195.05,30.22,-1.00,-1.0,2419
3897,1223897,17020,-620,996,17060.39,30.27,-1.00,-1.0,2376
3902,1223902,17052,-704,892,17089.82,30.18,-1.00,-1.0,2431
3905,1223905,17064,-656,924,17101.58,30.22,-1.00,-1.0,2374
3908,1223908,17084,-640,932,17121.37,30.18,-1.00,-1.0,2428
3910,1223910,17080,-664,892,17116.16,30.22,-1.00,-1.0,2370
3913,1223913,17008,-684,920,17046.59,30.27,-1.00,-1.0,2427
3916,1223916,17016,-624,964,17054.70,30.18,-1.00,-1.0,2378
3919,1223919,17064,-576,900,17097.42,30.27,-1.00,-1.0,2419
3921,1223921,17012,-664,1008,17054.77,30.18,-1.00,-1.0,2371
3926,1223926,17124,-712,868,17160.76,30.32,-1.00,-1.0,2432
3929,1223929,16992,-700,928,17031.71,30.13,-1.00,-1.0,2353
3932,1223932,17068,-656,824,17100.47,30.27,-1.00,-1.0,2364
3934,1223934,16944,-612,1024,16985.94,30.18,-1.00,-1.0,2444
3937,1223937,16944,-636,856,16977.53,30.18,-1.00,-1.0,2378
3940,1223940,17080,-568,944,17115.49,30.18,-1.00,-1.0,2407
3943,1223943,16992,-736,808,17027.12,30.18,-1.00,-1.0,2369
3945,1223945,17068,-692,872,17104.27,30.32,-1.00,-1.0,2427
3948,1223948,17048,-608,884,17081.73,30.22,-1.00,-1.0,2372
3953,1223953,17032,-712,812,17066.20,30.27,-1.00,-1.0,2447
3956,1223956,17000,-668,924,17038.19,30.18,-1.00,-1.0,2377
3959,1223959,17000,-700,872,17036.74,30.18,-1.00,-1.0,2441
3961,1223961,17068,-768,816,17104.74,30.22,-1.00,-1.0,2380
3964,1223964,17004,-632,1084,17050.23,30.32,-1.00,-1.0,2419
3967,1223967,16984,-648,780,17014.25,30.18,-1.00,-1.0,2358
3970,1223970,17020,-552,896,17052.50,30.22,-1.00,-1.0,2367
3972,1223972,17080,-696,872,17116.40,30.18,-1.00,-1.0,2420
3975,1223975,17004,-656,920,17041.50,30.22,-1.00,-1.0,2372
3980,1223980,17052,-568,936,17087.11,30.22,-1.00,-1.0,2418
3983,1223983,17116,-564,780,17143.04,30.32,-1.00,-1.0,2367
3986,1223986,17104,-560,888,17136.19,30.18,-1.00,-1.0,2428
3988,1223988,16976,-532,868,17006.50,30.22,-1.00,-1.0,2369
3991,1223991,17096,-500,832,17123.54,30.27,-1.00,-1.0,2418
3994,1223994,16992,-600,880,17025.35,30.22,-1.00,-1.0,2369
3997,1223997,17024,-608,976,17062.79,30.27,-1.00,-1.0,2419
3999,1223999,17120,-636,940,17157.58,30.32,-1.00,-1.0,2369
4004,1224004,17036,-692,708,17064.74,30.22,-1.00,-1.0,2439
4007,1224007,17052,-648,776,17081.94,30.27,-1.00,-1.0,2366
4009,1224009,16996,-660,964,17036.11,30.22,-1.00,-1.0,2365
4012,1224012,17052,-620,876,17085.74,30.27,-1.00,-1.0,2431
4015,1224015,17036,-600,1084,17080.99,30.08,-1.00,-1.0,2370
4018,1224018,17104,-564,764,17130.34,30.27,-1.00,-1.0,2419
4020,1224020,17012,-628,1052,17056.06,30.18,-1.00,-1.0,2369
4023,1224023,16964,-668,984,17005.64,30.27,-1.00,-1.0,2420
4026,1224026,16968,-552,776,16994.70,30.18,-1.00,-1.0,2369
4031,1224031,17056,-544,876,17087.14,30.18,-1.00,-1.0,2431
4034,1224034,17048,-648,936,17085.97,30.22,-1.00,-1.0,2353
4037,1224037,17004,-624,1024,17046.23,30.18,-1.00,-1.0,2430
4039,1224039,16984,-592,840,17015.06,30.22,-1.00,-1.0,2373
4042,1224042,17008,-668,928,17046.39,30.18,-1.00,-1.0,2419
4045,1224045,17036,-592,900,17070.03,30.22,-1.00,-1.0,2371
4048,1224048,16988,-696,964,17029.56,30.18,-1.00,-1.0,2421
4051,1224051,17044,-612,964,17082.21,30.18,-1.00,-1.0,2369
4053,1224053,17112,-652,868,17146.40,30.18,-1.00,-1.0,2365
4058,1224058,17020,-544,796,17047.29,30.18,-1.00,-1.0,2431
4061,1224061,16976,-528,812,17003.61,30.27,-1.00,-1.0,2370
4064,1224064,17100,-632,908,17135.75,30.27,-1.00,-1.0,2430
4067,1224067,16996,-604,944,17032.91,30.27,-1.00,-1.0,2366
4069,1224069,17068,-608,924,17103.80,30.18,-1.00,-1.0,2419
4072,1224072,17028,-656,796,17059.21,30.27,-1.00,-1.0,2371
4075,1224075,17104,-596,948,17140.62,30.18,-1.00,-1.0,2426
4078,1224078,16976,-592,868,17008.48,30.27,-1.00,-1.0,2369
4083,1224083,16984,-560,976,17021.23,30.18,-1.00,-1.0,2434
4085,1224085,16964,-500,852,16992.74,30.27,-1.00,-1.0,2368
4088,1224088,17112,-668,920,17149.73,30.27,-1.00,-1.0,2374
4091,1224091,17104,-592,812,17133.49,30.22,-1.00,-1.0,2428
4093,1224093,17028,-668,788,17059.31,30.32,-1.00,-1.0,2370
4096,1224096,17052,-556,880,17083.74,30.22,-1.00,-1.0,2419
4099,1224099,17056,-660,824,17088.64,30.32,-1.00,-1.0,2377
4102,1224102,17040,-592,840,17070.96,30.13,-1.00,-1.0,2419
4104,1224104,16972,-524,900,17003.92,30.22,-1.00,-1.0,2371
4109,1224109,17076,-576,876,17108.15,30.13,-1.00,-1.0,2431
4112,1224112,17060,-588,916,17094.69,30.27,-1.00,-1.0,2365
4115,1224115,17044,-532,748,17068.70,30.22,-1.00,-1.0,2436
4118,1224118,17052,-616,932,17088.56,30.27,-1.00,-1.0,2372
4120,1224120,16976,-596,928,17011.79,30.13,-1.00,-1.0,2420
4123,1224123,17172,-540,956,17207.07,30.22,-1.00,-1.0,2370
4126,1224126,17048,-564,900,17081.05,30.18,-1.00,-1.0,2367
4129,1224129,17120,-604,912,17154.91,30.27,-1.00,-1.0,2421
4131,1224131,17116,-604,1024,17157.24,30.22,-1.00,-1.0,2376
4136,1224136,17088,-580,832,17118.07,30.32,-1.00,-1.0,2433
4139,1224139,17032,-668,776,17062.75,30.22,-1.00,-1.0,2366
4142,1224142,17100,-524,876,17130.44,30.13,-1.00,-1.0,2435
4145,1224145,17144,-664,992,17185.51,30.22,-1.00,-1.0,2371
4147,1224147,17108,-632,912,17143.95,30.18,-1.00,-1.0,2431
4150,1224150,17108,-584,880,17140.57,30.22,-1.00,-1.0,2370
4153,1224153,17048,-696,844,17083.06,30.27,-1.00,-1.0,2428
4156,1224156,16976,-632,840,17008.52,30.22,-1.00,-1.0,2370
4161,1224161,17064,-484,1036,17102.27,30.22,-1.00,-1.0,2433
4163,1224163,17124,-628,876,17157.89,30.13,-1.00,-1.0,2365
4166,1224166,17076,-556,928,17110.23,30.18,-1.00,-1.0,2368
4169,1224169,17104,-536,1004,17141.82,30.27,-1.00,-1.0,2438
4171,1224171,17028,-592,972,17065.99,30.18,-1.00,-1.0,2378
4174,1224174,17068,-568,932,17102.86,30.22,-1.00,-1.0,2419
4177,1224177,17116,-612,956,17153.60,30.27,-1.00,-1.0,2370
4180,1224180,16904,-520,896,16935.71,30.22,-1.00,-1.0,2422
4182,1224182,17016,-648,840,17049.04,30.27,-1.00,-1.0,2373
4188,1224188,17128,-548,924,17161.66,30.22,-1.00,-1.0,2431
4191,1224191,16980,-588,884,17013.16,30.27,-1.00,-1.0,2367
4194,1224194,16976,-668,808,17008.34,30.13,-1.00,-1.0,2428
4196,1224196,17040,-612,896,17074.51,30.22,-1.00,-1.0,2369
4199,1224199,17112,-684,1012,17155.54,30.22,-1.00,-1.0,2422
4202,1224202,16984,-644,968,17023.75,30.32,-1.00,-1.0,2370
4205,1224205,17056,-668,772,17086.53,30.22,-1.00,-1.0,2419
4207,1224207,16960,-616,884,16994.19,30.22,-1.00,-1.0,2369
4210,1224210,17004,-636,888,17039.04,30.08,-1.00,-1.0,2375
4215,1224215,17084,-588,920,17118.86,30.18,-1.00,-1.0,2432
4217,1224217,17024,-664,1024,17067.69,30.22,-1.00,-1.0,2366
4220,1224220,17100,-668,972,17140.62,30.27,-1.00,-1.0,2428
4223,1224223,17084,-676,860,17118.98,30.18,-1.00,-1.0,2416
4226,1224226,17028,-624,952,17066.00,30.22,-1.00,-1.0,2436
4229,1224229,17148,-644,932,17185.38,30.22,-1.00,-1.0,2374
4231,1224231,16936,-596,980,16974.80,30.27,-1.00,-1.0,2413
4234,1224234,16992,-580,912,17026.34,30.22,-1.00,-1.0,2379
4239,1224239,17020,-560,996,17058.31,30.22,-1.00,-1.0,2430
4242,1224242,17148,-576,932,17182.96,30.27,-1.00,-1.0,2375
4245,1224245,17036,-580,980,17074.02,30.22,-1.00,-1.0,2420
4247,1224247,16992,-572,800,17020.44,30.18,-1.00,-1.0,2378
4250,1224250,16984,-612,952,17021.67,30.27,-1.00,-1.0,2368
4253,1224253,17008,-592,864,17040.22,30.27,-1.00,-1.0,2433
4256,1224256,17044,-640,884,17078.90,30.27,-1.00,-1.0,2369
4258,1224258,17096,-536,816,17123.85,30.18,-1.00,-1.0,2426
4261,1224261,17000,-680,984,17042.03,30.08,-1.00,-1.0,2371
4266,1224266,17088,-628,920,17124.27,30.27,-1.00,-1.0,2429
4269,1224269,17068,-608,840,17099.47,30.22,-1.00,-1.0,2370
4272,1224272,17020,-600,972,17058.29,30.18,-1.00,-1.0,2428
4274,1224274,16984,-632,912,17020.21,30.22,-1.00,-1.0,2371
4277,1224277,17036,-580,844,17066.75,30.27,-1.00,-1.0,2418
4280,1224280,17012,-644,820,17043.92,30.22,-1.00,-1.0,2369
4282,1224282,17124,-520,808,17150.94,30.18,-1.00,-1.0,2369
4285,1224285,16984,-732,896,17023.36,30.32,-1.00,-1.0,2413
4288,1224288,17112,-640,764,17141.00,30.18,-1.00,-1.0,2377
4293,1224293,17128,-520,1104,17171.42,30.18,-1.00,-1.0,2431
4296,1224296,17016,-608,916,17051.48,30.18,-1.00,-1.0,2370
4298,1224298,17124,-640,924,17160.85,30.18,-1.00,-1.0,2429
4301,1224301,17008,-612,1076,17052.99,30.27,-1.00,-1.0,2371
4304,1224304,17012,-692,908,17050.26,30.32,-1.00,-1.0,2425
4307,1224307,17156,-640,800,17186.56,30.27,-1.00,-1.0,2371
4309,1224309,17136,-612,924,17171.80,30.18,-1.00,-1.0,2433
4312,1224312,17120,-544,948,17154.86,30.27,-1.00,-1.0,2370
4317,1224317,16996,-648,1040,17040.12,30.27,-1.00,-1.0,2428
4320,1224320,17068,-640,904,17103.90,30.18,-1.00,-1.0,2370
4323,1224323,17044,-716,824,17078.92,30.27,-1.00,-1.0,2427
4325,1224325,16940,-624,864,16973.49,30.08,-1.00,-1.0,2371
4328,1224328,17072,-640,972,17111.62,30.22,-1.00,-1.0,2369
4331,1224331,17020,-704,820,17054.28,30.13,-1.00,-1.0,2430
4333,1224333,17032,-600,876,17065.06,30.13,-1.00,-1.0,2378
4336,1224336,17048,-652,860,17082.12,30.22,-1.00,-1.0,2419
4339,1224339,17092,-636,860,17125.44,30.18,-1.00,-1.0,2415
4344,1224344,16992,-604,948,17029.14,30.18,-1.00,-1.0,2441
4347,1224347,17032,-668,852,17066.38,30.18,-1.00,-1.0,2374
4350,1224350,17052,-656,864,17086.47,30.18,-1.00,-1.0,2475
4352,1224352,17028,-632,904,17063.69,30.32,-1.00,-1.0,2356
4355,1224355,17064,-656,876,17099.06,30.27,-1.00,-1.0,2422
4358,1224358,17016,-676,852,17050.72,30.27,-1.00,-1.0,2370
4361,1224361,17036,-560,816,17064.72,30.18,-1.00,-1.0,2423
4364,1224364,17032,-620,884,17066.19,30.27,-1.00,-1.0,2371
4366,1224366,17056,-544,808,17083.79,30.27,-1.00,-1.0,2365
4371,1224371,17052,-592,940,17088.15,30.27,-1.00,-1.0,2432
4374,1224374,16996,-540,852,17025.91,30.18,-1.00,-1.0,2368
4377,1224377,17064,-680,776,17095.17,30.27,-1.00,-1.0,2431
4379,1224379,16944,-536,908,16976.78,30.18,-1.00,-1.0,2370
4382,1224382,16988,-680,956,17028.46,30.27,-1.00,-1.0,2421
4385,1224385,17000,-528,712,17023.09,30.18,-1.00,-1.0,2369
4388,1224388,17044,-708,864,17080.56,30.27,-1.00,-1.0,2422
4390,1224390,17092,-608,764,17119.87,30.27,-1.00,-1.0,2369
4395,1224395,16976,-716,740,17007.20,30.22,-1.00,-1.0,2432
4398,1224398,17100,-644,796,17130.63,30.18,-1.00,-1.0,2371
4400,1224400,17144,-644,688,17169.88,30.32,-1.00,-1.0,2377
4403,1224403,17108,-580,868,17139.82,30.18,-1.00,-1.0,2431
4406,1224406,17084,-628,944,17121.58,30.27,-1.00,-1.0,2370
4409,1224409,17012,-612,896,17046.57,30.27,-1.00,-1.0,2421
4411,1224411,17032,-524,964,17067.30,30.27,-1.00,-1.0,2375
4414,1224414,16960,-652,832,16992.91,30.27,-1.00,-1.0,2422
4417,1224417,17012,-728,872,17049.88,30.27,-1.00,-1.0,2358
4422,1224422,17032,-632,908,17067.89,30.22,-1.00,-1.0,2432
4424,1224424,17032,-536,1036,17071.89,30.27,-1.00,-1.0,2369
4427,1224427,17008,-604,1096,17053.98,30.32,-1.00,-1.0,2429
4430,1224430,16976,-588,900,17010.01,30.32,-1.00,-1.0,2377
4433,1224433,17096,-492,1156,17142.10,30.22,-1.00,-1.0,2423
4435,1224435,16980,-564,1008,17019.24,30.22,-1.00,-1.0,2371
4438,1224438,17056,-524,1008,17093.79,30.22,-1.00,-1.0,2430
4441,1224441,16988,-584,968,17025.58,30.22,-1.00,-1.0,2377
4444,1224444,16940,-636,928,16977.32,30.27,-1.00,-1.0,2369
4449,1224449,17004,-536,992,17041.34,30.18,-1.00,-1.0,2432
4451,1224451,17096,-520,924,17128.85,30.22,-1.00,-1.0,2370
4454,1224454,16932,-544,752,16957.42,30.27,-1.00,-1.0,2444
4457,1224457,17108,-520,856,17137.29,30.37,-1.00,-1.0,2377
4460,1224460,16960,-556,792,16987.58,30.18,-1.00,-1.0,2437
4462,1224462,17112,-612,1004,17152.35,30.27,-1.00,-1.0,2376
4465,1224465,17024,-532,748,17048.73,30.27,-1.00,-1.0,2422
4468,1224468,16980,-552,984,17017.44,30.27,-1.00,-1.0,2363
4473,1224473,17092,-624,780,17121.16,30.27,-1.00,-1.0,2439
4476,1224476,17068,-620,1044,17111.13,30.22,-1.00,-1.0,2368
4478,1224478,16992,-604,844,17023.67,30.27,-1.00,-1.0,2443
4481,1224481,17112,-708,868,17148.62,30.18,-1.00,-1.0,2375
4484,1224484,16984,-532,1064,17025.61,30.27,-1.00,-1.0,2366
4487,1224487,16960,-568,940,16995.52,30.22,-1.00,-1.0,2423
4489,1224489,16984,-548,876,17015.40,30.27,-1.00,-1.0,2369
4492,1224492,17060,-628,764,17088.64,30.13,-1.00,-1.0,2422
4495,1224495,17044,-640,980,17084.14,30.22,-1.00,-1.0,2368
4500,1224500,17044,-628,956,17082.34,30.18,-1.00,-1.0,2434
4502,1224502,17008,-572,904,17041.61,30.27,-1.00,-1.0,2375
4505,1224505,17076,-636,916,17112.37,30.18,-1.00,-1.0,2431
4508,1224508,17036,-592,872,17068.57,30.18,-1.00,-1.0,2370
4511,1224511,16984,-588,952,17020.82,30.22,-1.00,-1.0,2423
4513,1224513,16972,-632,1060,17016.81,30.18,-1.00,-1.0,2371
4516,1224516,17044,-456,788,17068.30,30.22,-1.00,-1.0,2422
4519,1224519,17008,-624,952,17046.05,30.22,-1.00,-1.0,2374
4522,1224522,16992,-556,1000,17030.48,30.22,-1.00,-1.0,2367
4527,1224527,17084,-564,980,17121.38,30.22,-1.00,-1.0,2432
4529,1224529,17084,-604,836,17115.10,30.18,-1.00,-1.0,2375
4532,1224532,17028,-584,964,17065.26,30.32,-1.00,-1.0,2432
4535,1224535,17104,-604,996,17143.62,30.22,-1.00,-1.0,2370
4538,1224538,17056,-624,796,17085.96,30.32,-1.00,-1.0,2422
4540,1224540,17068,-544,972,17104.31,30.22,-1.00,-1.0,2355
4543,1224543,17068,-600,892,17101.82,30.22,-1.00,-1.0,2422
4546,1224546,17028,-664,1044,17072.89,30.32,-1.00,-1.0,2372
4551,1224551,16988,-600,1020,17029.17,30.22,-1.00,-1.0,2435
4554,1224554,17036,-572,792,17063.99,30.27,-1.00,-1.0,2374
4557,1224557,17012,-608,928,17048.14,30.13,-1.00,-1.0,2432
4559,1224559,17028,-636,868,17061.97,30.18,-1.00,-1.0,2372
4562,1224562,16956,-572,904,16989.71,30.22,-1.00,-1.0,2367
4565,1224565,17048,-664,948,17087.24,30.18,-1.00,-1.0,2423
4567,1224567,16940,-632,988,16980.55,30.27,-1.00,-1.0,2368
4570,1224570,17072,-648,920,17109.05,30.18,-1.00,-1.0,2422
4573,1224573,16996,-616,1120,17044.00,30.27,-1.00,-1.0,2377
4578,1224578,16976,-632,940,17013.75,30.32,-1.00,-1.0,2433
4581,1224581,16996,-608,712,17021.77,30.22,-1.00,-1.0,2368
4583,1224583,17024,-552,900,17056.71,30.27,-1.00,-1.0,2431
4586,1224586,17092,-584,928,17127.13,30.22,-1.00,-1.0,2369
4589,1224589,17120,-684,980,17161.66,30.18,-1.00,-1.0,2429
4592,1224592,17076,-596,860,17108.03,30.32,-1.00,-1.0,2368
4594,1224594,17000,-636,896,17035.47,30.18,-1.00,-1.0,2421
4597,1224597,17036,-580,824,17065.78,30.32,-1.00,-1.0,2371
4600,1224600,16968,-632,884,17002.76,30.27,-1.00,-1.0,2374
4605,1224605,17052,-544,888,17083.77,30.32,-1.00,-1.0,2433
4607,1224607,17008,-748,956,17051.26,30.18,-1.00,-1.0,2370
4610,1224610,17076,-632,888,17110.75,30.22,-1.00,-1.0,2447
4613,1224613,17004,-608,916,17039.51,30.32,-1.00,-1.0,2377
4616,1224616,17008,-592,804,17037.28,30.22,-1.00,-1.0,2434
4618,1224618,17084,-552,904,17116.80,30.22,-1.00,-1.0,2375
4621,1224621,17068,-556,808,17096.16,30.22,-1.00,-1.0,2422
4624,1224624,17040,-688,808,17073.01,30.22,-1.00,-1.0,2373
4629,1224629,17080,-532,856,17109.71,30.27,-1.00,-1.0,2433
4631,1224631,16992,-632,872,17026.09,30.18,-1.00,-1.0,2369
4634,1224634,16980,-528,960,17015.31,30.27,-1.00,-1.0,2431
4637,1224637,17044,-504,856,17072.92,30.27,-1.00,-1.0,2377
4639,1224639,17128,-652,900,17164.02,30.22,-1.00,-1.0,2374
4642,1224642,17052,-588,956,17088.90,30.27,-1.00,-1.0,2421
4645,1224645,17048,-584,1056,17090.65,30.22,-1.00,-1.0,2363
4648,1224648,17044,-548,684,17066.52,30.22,-1.00,-1.0,2424
4651,1224651,16996,-480,808,17021.96,30.22,-1.00,-1.0,2375
4656,1224656,17172,-564,904,17205.03,30.27,-1.00,-1.0,2432
4659,1224659,17136,-504,856,17164.77,30.27,-1.00,-1.0,2368
4662,1224662,17036,-536,908,17068.60,30.27,-1.00,-1.0,2431
4664,1224664,16932,-552,872,16963.42,30.18,-1.00,-1.0,2373
4667,1224667,17028,-668,772,17058.58,30.27,-1.00,-1.0,2421
4670,1224670,17068,-548,912,17101.13,30.18,-1.00,-1.0,2377
4673,1224673,17044,-644,1004,17085.69,30.22,-1.00,-1.0,2422
4675,1224675,17028,-632,936,17065.41,30.18,-1.00,-1.0,2373
4678,1224678,17100,-548,1016,17138.92,30.32,-1.00,-1.0,2361
4683,1224683,17080,-596,940,17116.23,30.32,-1.00,-1.0,2443
4686,1224686,17076,-572,824,17105.44,30.18,-1.00,-1.0,2367
4688,1224688,17112,-700,860,17147.89,30.22,-1.00,-1.0,2449
4691,1224691,17036,-616,852,17068.41,30.22,-1.00,-1.0,2377
4694,1224694,16932,-676,840,16966.30,30.32,-1.00,-1.0,2424
4697,1224697,17072,-624,976,17111.26,30.22,-1.00,-1.0,2374
4699,1224699,17020,-736,816,17055.44,30.18,-1.00,-1.0,2429
4702,1224702,17036,-592,816,17065.80,30.13,-1.00,-1.0,2377
4707,1224707,17020,-596,928,17055.70,30.18,-1.00,-1.0,2432
4710,1224710,17056,-580,952,17092.39,30.32,-1.00,-1.0,2380
4713,1224713,17112,-676,852,17146.53,30.22,-1.00,-1.0,2432
4715,1224715,17076,-536,856,17105.84,30.32,-1.00,-1.0,2371
4718,1224718,17028,-692,972,17069.75,30.18,-1.00,-1.0,2369
4721,1224721,17000,-616,844,17032.08,30.27,-1.00,-1.0,2424
4723,1224723,17020,-532,756,17045.09,30.37,-1.00,-1.0,2370
4726,1224726,17000,-604,976,17038.70,30.18,-1.00,-1.0,2422
4729,1224729,17060,-424,952,17091.80,30.27,-1.00,-1.0,2370
4734,1224734,17124,-680,876,17159.87,30.18,-1.00,-1.0,2435
4737,1224737,17008,-544,928,17041.98,30.32,-1.00,-1.0,2374
4740,1224740,16972,-636,776,17001.63,30.27,-1.00,-1.0,2438
4742,1224742,17000,-660,864,17034.73,30.27,-1.00,-1.0,2377
4745,1224745,17020,-580,940,17055.80,30.27,-1.00,-1.0,2422
4748,1224748,17052,-604,864,17084.55,30.27,-1.00,-1.0,2367
4751,1224751,17124,-616,948,17161.28,30.18,-1.00,-1.0,2424
4753,1224753,17012,-668,944,17051.26,30.18,-1.00,-1.0,2376
4756,1224756,16968,-532,976,17004.37,30.27,-1.00,-1.0,2367
4761,1224761,17012,-636,748,17040.31,30.27,-1.00,-1.0,2419
4764,1224764,17064,-588,944,17100.20,30.22,-1.00,-1.0,2368
4766,1224766,16940,-608,884,16973.94,30.27,-1.00,-1.0,2437
4769,1224769,17076,-612,904,17110.86,30.37,-1.00,-1.0,2384
4772,1224772,17036,-612,836,17067.48,30.27,-1.00,-1.0,2423
4775,1224775,17104,-612,928,17140.09,30.18,-1.00,-1.0,2369
4778,1224778,17044,-572,872,17075.88,30.27,-1.00,-1.0,2425
4780,1224780,17060,-516,840,17088.46,30.22,-1.00,-1.0,2400
4785,1224785,17036,-636,836,17068.35,30.22,-1.00,-1.0,2440
4788,1224788,16984,-628,700,17010.02,30.27,-1.00,-1.0,2373
4791,1224791,17036,-580,912,17070.25,30.32,-1.00,-1.0,2423
4794,1224794,17112,-632,724,17138.96,30.32,-1.00,-1.0,2370
4796,1224796,17092,-520,912,17124.21,30.27,-1.00,-1.0,2379
4799,1224799,17156,-692,840,17190.49,30.27,-1.00,-1.0,2421
4802,1224802,17040,-636,940,17077.75,30.27,-1.00,-1.0,2375
4805,1224805,17056,-528,736,17080.04,30.27,-1.00,-1.0,2421
4807,1224807,17000,-700,844,17035.33,30.27,-1.00,-1.0,2379
4812,1224812,17036,-556,980,17073.22,30.27,-1.00,-1.0,2439
4815,1224815,17060,-572,976,17097.47,30.18,-1.00,-1.0,2372
4818,1224818,17088,-620,864,17121.06,30.22,-1.00,-1.0,2420
4820,1224820,17052,-636,756,17080.60,30.22,-1.00,-1.0,2371
4823,1224823,17036,-544,884,17067.59,30.22,-1.00,-1.0,2419
4826,1224826,17012,-620,940,17049.23,30.13,-1.00,-1.0,2370
4829,1224829,17108,-676,716,17136.31,30.32,-1.00,-1.0,2420
4831,1224831,17096,-632,1032,17138.78,30.22,-1.00,-1.0,2371
4834,1224834,16908,-592,944,16944.68,30.22,-1.00,-1.0,2366
4839,1224839,17036,-504,844,17064.34,30.32,-1.00,-1.0,2438
4841,1224841,17016,-672,756,17046.04,30.27,-1.00,-1.0,2376
4844,1224844,17076,-592,948,17112.54,30.13,-1.00,-1.0,2419
4847,1224847,17092,-632,1008,17133.36,30.27,-1.00,-1.0,2372
4850,1224850,16992,-500,860,17021.09,30.32,-1.00,-1.0,2419
4853,1224853,17064,-708,976,17106.55,30.22,-1.00,-1.0,2373
4855,1224855,17084,-552,768,17110.16,30.22,-1.00,-1.0,2418
4858,1224858,17052,-708,924,17091.69,30.27,-1.00,-1.0,2371
4863,1224863,17068,-676,720,17096.55,30.22,-1.00,-1.0,2440
4866,1224866,17160,-704,960,17201.24,30.22,-1.00,-1.0,2370
4869,1224869,17060,-604,948,17096.99,30.27,-1.00,-1.0,2419
4871,1224871,17112,-672,900,17148.82,30.13,-1.00,-1.0,2371
4874,1224874,17144,-608,1008,17184.37,30.18,-1.00,-1.0,2369
4877,1224877,17028,-616,884,17062.05,30.22,-1.00,-1.0,2430
4879,1224879,17060,-492,824,17086.97,30.22,-1.00,-1.0,2380
4882,1224882,17052,-480,692,17072.79,30.22,-1.00,-1.0,2418
4885,1224885,17060,-600,744,17086.75,30.18,-1.00,-1.0,2380
4890,1224890,16940,-624,892,16974.94,30.27,-1.00,-1.0,2436
4893,1224893,17044,-572,900,17077.33,30.18,-1.00,-1.0,2379
4896,1224896,17080,-584,900,17113.66,30.27,-1.00,-1.0,2420
4898,1224898,17076,-608,764,17103.89,30.18,-1.00,-1.0,2372
4901,1224901,17116,-644,876,17150.50,30.32,-1.00,-1.0,2433
4904,1224904,17080,-612,988,17119.49,30.27,-1.00,-1.0,2383
4907,1224907,17044,-600,880,17077.25,30.22,-1.00,-1.0,2433
4909,1224909,16924,-632,812,16955.25,30.18,-1.00,-1.0,2374
4912,1224912,17012,-596,640,17034.46,30.22,-1.00,-1.0,2372
4917,1224917,17108,-564,856,17138.68,30.27,-1.00,-1.0,2436
4920,1224920,17148,-668,920,17185.65,30.18,-1.00,-1.0,2376
4923,1224923,17092,-588,860,17123.72,30.22,-1.00,-1.0,2424
4925,1224925,17084,-580,956,17120.55,30.27,-1.00,-1.0,2367
4928,1224928,17052,-596,808,17081.53,30.22,-1.00,-1.0,2434
4931,1224931,17072,-568,948,17107.73,30.27,-1.00,-1.0,2377
4934,1224934,17080,-564,912,17113.63,30.32,-1.00,-1.0,2432
4936,1224936,17032,-588,928,17067.39,30.22,-1.00,-1.0,2373
4941,1224941,17104,-580,832,17134.04,30.22,-1.00,-1.0,2437
4944,1224944,16968,-728,816,17003.20,30.27,-1.00,-1.0,2366
4947,1224947,17076,-580,1096,17120.96,30.27,-1.00,-1.0,2425
4950,1224950,17012,-596,964,17049.71,30.18,-1.00,-1.0,2367
4952,1224952,17120,-676,956,17159.99,30.13,-1.00,-1.0,2367
4955,1224955,17008,-544,888,17039.85,30.27,-1.00,-1.0,2420
4958,1224958,17084,-620,772,17112.67,30.22,-1.00,-1.0,2373
4961,1224961,17108,-732,816,17143.08,30.27,-1.00,-1.0,2418
4963,1224963,17004,-604,920,17039.58,30.22,-1.00,-1.0,2373
4968,1224968,17044,-568,740,17069.51,30.22,-1.00,-1.0,2432
4971,1224971,17080,-552,1008,17118.62,30.32,-1.00,-1.0,2372
4974,1224974,17052,-556,980,17089.19,30.18,-1.00,-1.0,2429
4976,1224976,17084,-652,1020,17126.84,30.22,-1.00,-1.0,2378
4979,1224979,17128,-628,980,17167.50,30.18,-1.00,-1.0,2418
4982,1224982,17072,-580,876,17104.30,30.22,-1.00,-1.0,2371
4985,1224985,17084,-532,1020,17122.69,30.18,-1.00,-1.0,2418
4987,1224987,16964,-584,864,16996.03,30.32,-1.00,-1.0,2377
4990,1224990,17000,-608,860,17032.59,30.27,-1.00,-1.0,2364
4995,1224995,17060,-572,764,17086.68,30.18,-1.00,-1.0,2446
4998,1224998,16984,-704,948,17025.00,30.13,-1.00,-1.0,2357
5001,1225001,17028,-604,880,17061.42,30.27,-1.00,-1.0,2426
5003,1225003,17028,-572,876,17060.11,30.22,-1.00,-1.0,2380
5006,1225006,17052,-560,792,17079.57,30.27,-1.00,-1.0,2418
5009,1225009,16996,-708,916,17035.38,30.22,-1.00,-1.0,2372
5012,1225012,16996,-484,888,17026.06,30.27,-1.00,-1.0,2418
5014,1225014,16948,-608,952,16985.60,30.18,-1.00,-1.0,2376
5020,1225020,17048,-612,972,17086.65,30.22,-1.00,-1.0,2446
5023,1225023,17052,-504,904,17083.38,30.27,-1.00,-1.0,2378
5026,1225026,17108,-688,952,17148.27,30.22,-1.00,-1.0,2418
5028,1225028,17096,-676,832,17129.58,30.22,-1.00,-1.0,2371
5031,1225031,16992,-560,1012,17031.32,30.18,-1.00,-1.0,2367
5034,1225034,17088,-572,764,17114.63,30.27,-1.00,-1.0,2419
5036,1225036,17104,-516,876,17134.19,30.18,-1.00,-1.0,2376
5039,1225039,17060,-656,872,17094.86,30.18,-1.00,-1.0,2419
5042,1225042,17012,-564,1028,17052.36,30.27,-1.00,-1.0,2371
5047,1225047,16988,-700,872,17024.76,30.27,-1.00,-1.0,2444
5049,1225049,17116,-664,936,17154.43,30.27,-1.00,-1.0,2379
5052,1225052,17036,-676,920,17074.21,30.18,-1.00,-1.0,2420
5055,1225055,17028,-608,916,17063.46,30.18,-1.00,-1.0,2372
5058,1225058,17088,-564,704,17111.79,30.27,-1.00,-1.0,2419
5060,1225060,17080,-656,900,17116.27,30.18,-1.00,-1.0,2378
5063,1225063,17060,-572,860,17091.24,30.27,-1.00,-1.0,2419
5066,1225066,17020,-528,852,17049.49,30.18,-1.00,-1.0,2372
5069,1225069,17120,-564,764,17146.32,30.22,-1.00,-1.0,2367
5074,1225074,16964,-604,904,16998.80,30.22,-1.00,-1.0,2437
5076,1225076,17100,-592,836,17130.66,30.27,-1.00,-1.0,2370
5079,1225079,16976,-732,940,17017.76,30.22,-1.00,-1.0,2420
5082,1225082,17116,-572,736,17141.36,30.27,-1.00,-1.0,2369
5085,1225085,16964,-692,912,17002.59,30.13,-1.00,-1.0,2418
5087,1225087,17100,-624,936,17136.96,30.22,-1.00,-1.0,2371
5090,1225090,17076,-544,864,17106.50,30.22,-1.00,-1.0,2418
5093,1225093,17080,-604,788,17108.83,30.27,-1.00,-1.0,2373
5098,1225098,16952,-540,796,16979.27,30.27,-1.00,-1.0,2437
5101,1225101,16992,-568,912,17025.93,30.27,-1.00,-1.0,2372
5104,1225104,17024,-616,904,17059.11,30.22,-1.00,-1.0,2420
5106,1225106,17000,-572,820,17029.38,30.08,-1.00,-1.0,2373
5109,1225109,17096,-584,948,17132.22,30.27,-1.00,-1.0,2426
5112,1225112,17056,-648,824,17088.18,30.32,-1.00,-1.0,2428
5115,1225115,17008,-548,876,17039.36,30.22,-1.00,-1.0,2369
5117,1225117,17084,-628,864,17117.36,30.22,-1.00,-1.0,2417
5120,1225120,17020,-632,928,17056.99,30.22,-1.00,-1.0,2371
5125,1225125,16976,-492,936,17008.90,30.13,-1.00,-1.0,2438
5128,1225128,17120,-580,928,17154.94,30.27,-1.00,-1.0,2370
5131,1225131,17048,-664,828,17081.01,30.22,-1.00,-1.0,2419
5133,1225133,17060,-648,752,17088.86,30.22,-1.00,-1.0,2370
5136,1225136,17052,-516,1032,17090.99,30.22,-1.00,-1.0,2419
5139,1225139,17132,-648,824,17164.04,30.27,-1.00,-1.0,2369
5142,1225142,16968,-676,836,17002.03,30.22,-1.00,-1.0,2418
5144,1225144,17076,-524,860,17105.67,30.22,-1.00,-1.0,2371
5147,1225147,17020,-572,756,17046.38,30.32,-1.00,-1.0,2374
5152,1225152,17048,-532,956,17083.07,30.22,-1.00,-1.0,2445
5155,1225155,16956,-616,976,16995.23,30.22,-1.00,-1.0,2370
5157,1225157,17036,-548,808,17063.95,30.18,-1.00,-1.0,2420
5160,1225160,17164,-668,896,17200.35,30.22,-1.00,-1.0,2371
5163,1225163,17024,-580,960,17060.91,30.27,-1.00,-1.0,2426
5166,1225166,17016,-736,824,17051.83,30.22,-1.00,-1.0,2371
5168,1225168,17080,-584,1044,17121.84,30.27,-1.00,-1.0,2419
5171,1225171,17040,-560,924,17074.22,30.22,-1.00,-1.0,2370
5176,1225176,17052,-584,912,17086.35,30.13,-1.00,-1.0,2440
5179,1225179,17028,-580,1076,17071.82,30.27,-1.00,-1.0,2372
5182,1225182,16940,-592,832,16970.75,30.32,-1.00,-1.0,2419
5184,1225184,17076,-488,948,17109.26,30.22,-1.00,-1.0,2372
5187,1225187,17004,-616,912,17039.58,30.27,-1.00,-1.0,2374
5190,1225190,17008,-640,912,17044.45,30.27,-1.00,-1.0,2418
5192,1225192,16944,-628,896,16979.29,30.27,-1.00,-1.0,2371
5195,1225195,17076,-672,992,17117.99,30.27,-1.00,-1.0,2417
5198,1225198,17024,-604,968,17062.19,30.27,-1.00,-1.0,2377
5203,1225203,17140,-632,844,17172.40,30.32,-1.00,-1.0,2437
5206,1225206,16972,-588,940,17008.18,30.13,-1.00,-1.0,2372
5208,1225208,16992,-488,968,17026.54,30.27,-1.00,-1.0,2418
5211,1225211,17048,-628,712,17074.41,30.22,-1.00,-1.0,2370
5214,1225214,17104,-556,1044,17144.85,30.18,-1.00,-1.0,2425
5217,1225217,17032,-784,744,17066.26,30.13,-1.00,-1.0,2370
5219,1225219,17012,-724,832,17047.71,30.18,-1.00,-1.0,2418
5222,1225222,17080,-548,760,17105.68,30.22,-1.00,-1.0,2371
5225,1225225,17060,-616,836,17091.58,30.18,-1.00,-1.0,2366
5229,1225229,17184,-692,860,17219.42,30.22,-1.00,-1.0,2447
5232,1225232,17132,-644,764,17161.12,30.32,-1.00,-1.0,2378
5235,1225235,16940,-560,984,16977.79,30.32,-1.00,-1.0,2421
5238,1225238,17020,-520,740,17044.01,30.27,-1.00,-1.0,2373
5240,1225240,16944,-572,868,16975.86,30.32,-1.00,-1.0,2426
5243,1225243,17028,-568,924,17062.51,30.32,-1.00,-1.0,2387
5246,1225246,17024,-640,928,17061.28,30.22,-1.00,-1.0,2419
5249,1225249,17124,-568,792,17151.71,30.27,-1.00,-1.0,2373
5253,1225253,16896,-544,876,16927.44,30.27,-1.00,-1.0,2438
5256,1225256,17052,-476,984,17087.00,30.18,-1.00,-1.0,2370
5259,1225259,17088,-708,800,17121.36,30.22,-1.00,-1.0,2426
5262,1225262,17028,-512,932,17061.17,30.27,-1.00,-1.0,2356
5264,1225264,17080,-472,976,17114.37,30.22,-1.00,-1.0,2379
5267,1225267,16984,-604,876,17017.30,30.32,-1.00,-1.0,2420
5270,1225270,16952,-604,896,16986.40,30.22,-1.00,-1.0,2381
5273,1225273,17128,-636,940,17165.56,30.18,-1.00,-1.0,2418
5276,1225276,17072,-636,892,17107.11,30.27,-1.00,-1.0,2371
5281,1225281,16984,-536,956,17019.33,30.18,-1.00,-1.0,2430
5283,1225283,16984,-488,1000,17020.41,30.41,-1.00,-1.0,2372
5286,1225286,17008,-624,940,17045.38,30.27,-1.00,-1.0,2418
5289,1225289,17016,-500,844,17044.25,30.22,-1.00,-1.0,2370
5292,1225292,17032,-576,980,17069.89,30.27,-1.00,-1.0,2418
5294,1225294,17124,-664,832,17157.05,30.22,-1.00,-1.0,2358
5297,1225297,17044,-540,912,17076.92,30.18,-1.00,-1.0,2420
5300,1225300,16964,-536,1036,17004.05,30.22,-1.00,-1.0,2371
5303,1225303,17100,-548,924,17133.71,30.18,-1.00,-1.0,2366
5308,1225308,17000,-568,784,17027.54,30.27,-1.00,-1.0,2437
5310,1225310,17044,-560,816,17072.71,30.37,-1.00,-1.0,2370
5313,1225313,17020,-688,864,17055.80,30.18,-1.00,-1.0,2419
5316,1225316,16992,-712,1048,17039.17,30.27,-1.00,-1.0,2373
5319,1225319,17032,-564,916,17065.94,30.27,-1.00,-1.0,2418
5321,1225321,17168,-552,764,17193.85,30.18,-1.00,-1.0,2371
5324,1225324,17088,-680,828,17121.56,30.27,-1.00,-1.0,2420
5327,1225327,17028,-560,884,17060.12,30.18,-1.00,-1.0,2369
5332,1225332,16968,-516,916,17000.54,30.27,-1.00,-1.0,2467
5335,1225335,17036,-484,824,17062.78,30.27,-1.00,-1.0,2365
5337,1225337,17124,-572,852,17154.72,30.32,-1.00,-1.0,2427
5340,1225340,17008,-632,868,17041.86,30.22,-1.00,-1.0,2366
5343,1225343,17052,-516,992,17088.62,30.18,-1.00,-1.0,2368
5346,1225346,17028,-604,840,17059.40,30.27,-1.00,-1.0,2410
5348,1225348,16996,-608,992,17035.78,30.27,-1.00,-1.0,2377
5351,1225351,17112,-616,748,17139.41,30.27,-1.00,-1.0,2424
5354,1225354,16928,-636,860,16961.76,30.27,-1.00,-1.0,2370
5359,1225359,17060,-588,768,17087.40,30.18,-1.00,-1.0,2448
5361,1225361,17020,-596,872,17052.74,30.22,-1.00,-1.0,2375
5364,1225364,17016,-532,912,17048.72,30.27,-1.00,-1.0,2423
5367,1225367,16988,-656,860,17022.40,30.13,-1.00,-1.0,2359
5370,1225370,17104,-560,856,17134.56,30.27,-1.00,-1.0,2433
5372,1225372,17156,-672,904,17192.94,30.18,-1.00,-1.0,2375
5375,1225375,16952,-644,820,16984.04,30.27,-1.00,-1.0,2422
5378,1225378,17036,-576,896,17069.27,30.37,-1.00,-1.0,2372
5381,1225381,17064,-572,952,17100.11,30.13,-1.00,-1.0,2367
5386,1225386,17040,-640,840,17072.69,30.32,-1.00,-1.0,2445
5388,1225388,17056,-608,944,17092.92,30.32,-1.00,-1.0,2368
5391,1225391,17008,-636,720,17035.11,30.22,-1.00,-1.0,2422
5394,1225394,17020,-524,1024,17058.83,30.22,-1.00,-1.0,2377
5397,1225397,16944,-580,996,16983.15,30.18,-1.00,-1.0,2421
5399,1225399,16976,-496,876,17005.82,30.13,-1.00,-1.0,2369
5402,1225402,17076,-488,876,17105.42,30.18,-1.00,-1.0,2421
5405,1225405,17068,-680,884,17104.40,30.22,-1.00,-1.0,2377
5410,1225410,17040,-596,896,17073.95,30.22,-1.00,-1.0,2448
5413,1225413,17128,-640,896,17163.36,30.27,-1.00,-1.0,2368
5415,1225415,17112,-628,940,17149.30,30.22,-1.00,-1.0,2424
5418,1225418,17148,-552,968,17184.17,30.32,-1.00,-1.0,2369
5421,1225421,17044,-532,804,17071.24,30.27,-1.00,-1.0,2371
5424,1225424,16956,-624,1000,16996.92,30.27,-1.00,-1.0,2428
5426,1225426,17032,-612,928,17068.24,30.18,-1.00,-1.0,2386
5429,1225429,17052,-672,764,17082.33,30.27,-1.00,-1.0,2421
5432,1225432,17088,-716,816,17122.45,30.27,-1.00,-1.0,2370
5437,1225437,17056,-596,988,17094.98,30.27,-1.00,-1.0,2443
5439,1225439,17044,-684,876,17080.20,30.18,-1.00,-1.0,2372
5442,1225442,17088,-652,800,17119.14,30.22,-1.00,-1.0,2422
5445,1225445,16984,-664,904,17021.00,30.22,-1.00,-1.0,2368
5448,1225448,17012,-704,976,17054.51,30.22,-1.00,-1.0,2422
5450,1225450,17092,-720,856,17128.56,30.32,-1.00,-1.0,2369
5453,1225453,17096,-632,856,17129.08,30.22,-1.00,-1.0,2422
5456,1225456,17004,-652,908,17040.70,30.13,-1.00,-1.0,2368
5459,1225459,16936,-592,852,16967.75,30.27,-1.00,-1.0,2368
5463,1225463,17052,-624,920,17088.20,30.18,-1.00,-1.0,2443
5466,1225466,17028,-632,920,17064.54,30.27,-1.00,-1.0,2372
5469,1225469,17116,-644,924,17153.02,30.08,-1.00,-1.0,2432
5472,1225472,17104,-516,980,17139.82,30.27,-1.00,-1.0,2368
5474,1225474,17104,-704,756,17135.17,30.27,-1.00,-1.0,2432
5477,1225477,17124,-644,920,17160.78,30.27,-1.00,-1.0,2377
5480,1225480,16932,-580,888,16965.19,30.27,-1.00,-1.0,2425
5483,1225483,17080,-572,740,17105.59,30.22,-1.00,-1.0,2370
5488,1225488,17180,-556,812,17208.16,30.22,-1.00,-1.0,2450
5490,1225490,17044,-608,776,17072.49,30.27,-1.00,-1.0,2375
5493,1225493,17120,-636,796,17150.29,30.32,-1.00,-1.0,2422
5496,1225496,16920,-564,812,16948.86,30.22,-1.00,-1.0,2371
5499,1225499,17100,-600,836,17130.93,30.18,-1.00,-1.0,2368
5501,1225501,17084,-564,800,17112.02,30.18,-1.00,-1.0,2423
5504,1225504,17020,-540,804,17047.53,30.27,-1.00,-1.0,2368
5507,1225507,17028,-576,1008,17067.53,30.18,-1.00,-1.0,2424
5510,1225510,17100,-624,776,17128.97,30.22,-1.00,-1.0,2368
5515,1225515,16924,-528,888,16955.50,30.22,-1.00,-1.0,2444
5518,1225518,17040,-616,944,17077.24,30.27,-1.00,-1.0,2374
5521,1225521,17104,-608,1084,17149.10,30.22,-1.00,-1.0,2430
5523,1225523,17056,-580,620,17077.12,30.22,-1.00,-1.0,2389
5526,1225526,17040,-548,944,17074.92,30.22,-1.00,-1.0,2422
5529,1225529,17052,-588,884,17085.02,30.22,-1.00,-1.0,2370
5532,1225532,16988,-612,900,17022.83,30.22,-1.00,-1.0,2424
5534,1225534,17004,-580,944,17040.06,30.22,-1.00,-1.0,2372
5537,1225537,16976,-616,936,17012.94,30.27,-1.00,-1.0,2375
5542,1225542,17064,-644,972,17103.79,30.22,-1.00,-1.0,2442
5545,1225545,16992,-560,888,17024.40,30.22,-1.00,-1.0,2370
5547,1225547,17128,-708,972,17170.16,30.27,-1.00,-1.0,2421
5550,1225550,16932,-608,812,16962.36,30.22,-1.00,-1.0,2369
5553,1225553,17040,-636,860,17073.54,30.18,-1.00,-1.0,2428
5556,1225556,16932,-592,920,16967.31,30.22,-1.00,-1.0,2369
5558,1225558,17076,-760,728,17108.40,30.27,-1.00,-1.0,2425
5561,1225561,17116,-696,804,17149.00,30.13,-1.00,-1.0,2356
5566,1225566,17132,-644,852,17165.26,30.22,-1.00,-1.0,2445
5569,1225569,16972,-528,940,17006.21,30.22,-1.00,-1.0,2371
5572,1225572,17048,-792,760,17083.30,30.18,-1.00,-1.0,2423
5574,1225574,17020,-676,984,17061.82,30.22,-1.00,-1.0,2364
5577,1225577,16940,-624,928,16976.87,30.27,-1.00,-1.0,2367
5580,1225580,17092,-704,948,17132.74,30.27,-1.00,-1.0,2421
5582,1225582,17088,-728,864,17125.31,30.18,-1.00,-1.0,2369
5585,1225585,17032,-704,1048,17078.73,30.27,-1.00,-1.0,2421
5588,1225588,16940,-692,800,16972.99,30.27,-1.00,-1.0,2376
5593,1225593,17072,-596,796,17100.94,30.37,-1.00,-1.0,2448
5596,1225596,17044,-588,880,17076.83,30.18,-1.00,-1.0,2368
5598,1225598,17040,-592,956,17077.06,30.18,-1.00,-1.0,2424
5601,1225601,16948,-656,904,16984.77,30.18,-1.00,-1.0,2370
5604,1225604,17120,-600,880,17153.10,30.27,-1.00,-1.0,2430
5607,1225607,16984,-664,756,17013.78,30.18,-1.00,-1.0,2372
5609,1225609,17012,-680,976,17053.54,30.18,-1.00,-1.0,2422
5612,1225612,17024,-644,816,17055.71,30.18,-1.00,-1.0,2370
5615,1225615,16988,-724,740,17019.52,30.22,-1.00,-1.0,2374
5620,1225620,17040,-616,840,17071.81,30.18,-1.00,-1.0,2449
5623,1225623,17096,-604,912,17130.96,30.27,-1.00,-1.0,2368
5625,1225625,16972,-624,888,17006.67,30.27,-1.00,-1.0,2424
5628,1225628,17000,-660,924,17037.88,30.27,-1.00,-1.0,2369
5631,1225631,16964,-528,784,16990.31,30.22,-1.00,-1.0,2424
5634,1225634,17020,-708,984,17063.12,30.27,-1.00,-1.0,2368
5636,1225636,17028,-700,828,17062.48,30.18,-1.00,-1.0,2423
5639,1225639,16976,-572,956,17012.52,30.37,-1.00,-1.0,2369
5644,1225644,17100,-688,876,17136.24,30.22,-1.00,-1.0,2444
5647,1225647,17028,-700,896,17065.92,30.18,-1.00,-1.0,2355
5649,1225649,17068,-696,824,17102.05,30.22,-1.00,-1.0,2425
5652,1225652,17008,-632,800,17038.53,30.22,-1.00,-1.0,2369
5655,1225655,17112,-660,800,17143.40,30.22,-1.00,-1.0,2370
5658,1225658,17132,-736,844,17168.56,30.27,-1.00,-1.0,2424
5660,1225660,17056,-660,884,17091.64,30.18,-1.00,-1.0,2377
5663,1225663,16988,-548,800,17015.65,30.27,-1.00,-1.0,2424
5666,1225666,17060,-576,996,17098.75,30.32,-1.00,-1.0,2370
5671,1225671,17052,-616,784,17081.12,30.22,-1.00,-1.0,2442
5673,1225673,17068,-528,940,17102.02,30.27,-1.00,-1.0,2424
5676,1225676,17032,-628,968,17071.04,30.27,-1.00,-1.0,2428
5679,1225679,17120,-560,720,17144.28,30.18,-1.00,-1.0,2363
5682,1225682,17040,-664,840,17073.61,30.22,-1.00,-1.0,2420
5685,1225685,17048,-588,744,17074.36,30.18,-1.00,-1.0,2375
5687,1225687,17008,-612,1000,17048.36,30.18,-1.00,-1.0,2415
5690,1225690,17016,-524,964,17051.34,30.27,-1.00,-1.0,2376
5693,1225693,17104,-516,992,17140.51,30.27,-1.00,-1.0,2369
5698,1225698,17056,-596,956,17093.16,30.18,-1.00,-1.0,2427
5701,1225701,17000,-552,888,17032.12,30.22,-1.00,-1.0,2375
5703,1225703,16988,-584,908,17022.27,30.27,-1.00,-1.0,2441
5706,1225706,16968,-548,896,17000.47,30.18,-1.00,-1.0,2379
5709,1225709,16996,-552,888,17028.13,30.18,-1.00,-1.0,2423
5712,1225712,17016,-528,888,17047.33,30.18,-1.00,-1.0,2376
5715,1225715,16964,-492,992,17000.10,30.27,-1.00,-1.0,2426
5717,1225717,17028,-560,900,17060.96,30.18,-1.00,-1.0,2386
5722,1225722,17004,-564,860,17035.07,30.18,-1.00,-1.0,2420
5725,1225725,17048,-612,852,17080.24,30.32,-1.00,-1.0,2382
5728,1225728,17020,-488,976,17054.94,30.18,-1.00,-1.0,2444
5730,1225730,17116,-516,752,17140.28,30.18,-1.00,-1.0,2375
5733,1225733,17048,-552,1052,17089.35,30.22,-1.00,-1.0,2355
5736,1225736,17056,-620,924,17092.26,30.13,-1.00,-1.0,2418
5739,1225739,17128,-572,1068,17170.79,30.41,-1.00,-1.0,2372
5741,1225741,16956,-572,764,16982.84,30.22,-1.00,-1.0,2417
5744,1225744,17024,-552,928,17058.21,30.22,-1.00,-1.0,2372
5749,1225749,16928,-536,840,16957.30,30.27,-1.00,-1.0,2422
5752,1225752,17028,-628,980,17067.73,30.27,-1.00,-1.0,2382
5755,1225755,17064,-616,956,17101.86,30.32,-1.00,-1.0,2425
5757,1225757,17100,-584,824,17129.80,30.27,-1.00,-1.0,2373
5760,1225760,17076,-552,892,17108.19,30.22,-1.00,-1.0,2413
5763,1225763,17012,-680,860,17047.29,30.27,-1.00,-1.0,2369
5766,1225766,17036,-568,920,17070.28,30.22,-1.00,-1.0,2419
5768,1225768,17100,-508,796,17126.05,30.18,-1.00,-1.0,2372
5771,1225771,16956,-544,892,16988.16,30.22,-1.00,-1.0,2353
5776,1225776,17052,-672,768,17082.51,30.22,-1.00,-1.0,2422
5779,1225779,17032,-596,1008,17072.21,30.27,-1.00,-1.0,2383
5782,1225782,17076,-572,948,17111.86,30.22,-1.00,-1.0,2434
5784,1225784,16932,-628,880,16966.48,30.27,-1.00,-1.0,2373
5787,1225787,16968,-664,788,16999.26,30.22,-1.00,-1.0,2419
5790,1225790,17028,-568,932,17062.94,30.13,-1.00,-1.0,2370
5793,1225793,16996,-556,856,17026.62,30.22,-1.00,-1.0,2419
5795,1225795,17100,-536,928,17133.55,30.27,-1.00,-1.0,2371
5800,1225800,17140,-608,804,17169.62,30.27,-1.00,-1.0,2419
5803,1225803,17100,-624,988,17139.88,30.27,-1.00,-1.0,2382
5806,1225806,17024,-588,880,17056.87,30.22,-1.00,-1.0,2439
5808,1225808,17008,-668,716,17036.17,30.32,-1.00,-1.0,2375
5811,1225811,17016,-636,812,17047.23,30.27,-1.00,-1.0,2364
5814,1225814,17084,-584,908,17118.08,30.18,-1.00,-1.0,2429
5817,1225817,16928,-612,920,16964.03,30.18,-1.00,-1.0,2369
5819,1225819,17008,-588,1020,17048.70,30.18,-1.00,-1.0,2422
5822,1225822,17100,-608,1096,17145.87,30.27,-1.00,-1.0,2370
5827,1225827,17084,-568,968,17120.83,30.22,-1.00,-1.0,2420
5830,1225830,17148,-700,864,17184.02,30.13,-1.00,-1.0,2373
5833,1225833,17028,-572,860,17059.29,30.18,-1.00,-1.0,2432
5835,1225835,16988,-580,804,17016.90,30.18,-1.00,-1.0,2371
5838,1225838,17044,-660,748,17073.17,30.18,-1.00,-1.0,2418
5841,1225841,17036,-604,956,17073.49,30.22,-1.00,-1.0,2370
5844,1225844,17164,-640,892,17199.07,30.27,-1.00,-1.0,2418
5846,1225846,17084,-704,1044,17130.34,30.18,-1.00,-1.0,2371
5849,1225849,17128,-600,876,17160.88,30.18,-1.00,-1.0,2366
5856,1225856,16976,-676,912,17013.91,30.27,-1.00,-1.0,2407
5859,1225859,17084,-576,956,17120.42,30.18,-1.00,-1.0,2373
5861,1225861,17000,-572,752,17026.23,30.22,-1.00,-1.0,2434
5864,1225864,17064,-704,900,17102.21,30.18,-1.00,-1.0,2371
5867,1225867,17088,-628,888,17122.58,30.22,-1.00,-1.0,2425
5870,1225870,17032,-544,1052,17073.13,30.18,-1.00,-1.0,2373
5872,1225872,17020,-664,832,17053.26,30.22,-1.00,-1.0,2430
5875,1225875,16984,-584,1000,17023.43,30.27,-1.00,-1.0,2371
5880,1225880,17120,-680,844,17154.28,30.37,-1.00,-1.0,2427
5883,1225883,16952,-496,772,16976.82,30.18,-1.00,-1.0,2374
5885,1225885,17140,-640,760,17168.77,30.32,-1.00,-1.0,2434
5888,1225888,17044,-620,852,17076.54,30.37,-1.00,-1.0,2371
5891,1225891,17092,-608,864,17124.62,30.32,-1.00,-1.0,2369
5894,1225894,17028,-592,700,17052.66,30.27,-1.00,-1.0,2420
5896,1225896,17200,-536,856,17229.63,30.22,-1.00,-1.0,2373
5899,1225899,16992,-644,824,17024.15,30.27,-1.00,-1.0,2421
5902,1225902,17004,-632,816,17035.29,30.22,-1.00,-1.0,2367
5907,1225907,17072,-580,824,17101.71,30.22,-1.00,-1.0,2421
5909,1225909,17000,-616,928,17036.45,30.22,-1.00,-1.0,2375
5912,1225912,17020,-608,996,17059.96,30.22,-1.00,-1.0,2439
5915,1225915,16968,-548,792,16995.31,30.32,-1.00,-1.0,2378
5918,1225918,17080,-604,888,17113.73,30.27,-1.00,-1.0,2436
5920,1225920,17036,-660,712,17063.64,30.32,-1.00,-1.0,2378
5923,1225923,17040,-612,1056,17083.66,30.18,-1.00,-1.0,2418
5926,1225926,17096,-640,1016,17138.12,30.22,-1.00,-1.0,2371
5929,1225929,17072,-604,780,17100.48,30.18,-1.00,-1.0,2366
5934,1225934,16980,-604,812,17010.13,30.27,-1.00,-1.0,2419
5936,1225936,17084,-612,896,17118.42,30.27,-1.00,-1.0,2378
5939,1225939,17008,-560,980,17045.41,30.27,-1.00,-1.0,2425
5942,1225942,16972,-520,740,16996.08,30.27,-1.00,-1.0,2369
5945,1225945,17084,-604,824,17114.52,30.18,-1.00,-1.0,2418
5947,1225947,17064,-652,780,17094.26,30.27,-1.00,-1.0,2371
5950,1225950,17040,-688,1020,17084.36,30.27,-1.00,-1.0,2426
5953,1225953,17104,-656,700,17130.88,30.18,-1.00,-1.0,2370
5958,1225958,16980,-592,904,17014.35,30.22,-1.00,-1.0,2425
5961,1225961,17100,-612,736,17126.77,30.32,-1.00,-1.0,2375
5964,1225964,16928,-620,1128,16976.87,30.18,-1.00,-1.0,2440
5966,1225966,17124,-612,760,17151.78,30.27,-1.00,-1.0,2378
5969,1225969,17012,-604,876,17045.24,30.18,-1.00,-1.0,2366
5972,1225972,16992,-584,840,17022.77,30.22,-1.00,-1.0,2418
5974,1225974,16940,-556,876,16971.74,30.22,-1.00,-1.0,2371
5977,1225977,17088,-740,856,17125.42,30.22,-1.00,-1.0,2418
5980,1225980,17088,-504,1008,17125.12,30.32,-1.00,-1.0,2370
5985,1225985,17080,-616,924,17116.06,30.27,-1.00,-1.0,2419
5987,1225987,16992,-568,988,17030.17,30.18,-1.00,-1.0,2382
5990,1225990,16968,-624,976,17007.50,30.18,-1.00,-1.0,2419
5993,1225993,16968,-496,988,17003.97,30.27,-1.00,-1.0,2377
5996,1225996,17124,-592,900,17157.85,30.22,-1.00,-1.0,2426
5999,1225999,17028,-564,976,17065.27,30.18,-1.00,-1.0,2372
6001,1226001,17060,-604,976,17098.57,30.22,-1.00,-1.0,2420
6004,1226004,16964,-528,864,16994.19,30.18,-1.00,-1.0,2371
6007,1226007,16980,-472,892,17009.96,30.22,-1.00,-1.0,2366
6012,1226012,17064,-480,964,17097.95,30.22,-1.00,-1.0,2420
6014,1226014,17008,-548,844,17037.74,30.27,-1.00,-1.0,2374
6017,1226017,17028,-600,904,17062.53,30.32,-1.00,-1.0,2432
6020,1226020,16956,-592,936,16992.13,30.32,-1.00,-1.0,2369
6023,1226023,17152,-528,716,17175.06,30.22,-1.00,-1.0,2418
6025,1226025,17000,-636,772,17029.40,30.22,-1.00,-1.0,2371
6028,1226028,17096,-668,868,17131.05,30.32,-1.00,-1.0,2418
6031,1226031,17116,-576,824,17145.50,30.32,-1.00,-1.0,2371
6036,1226036,16980,-576,916,17014.44,30.22,-1.00,-1.0,2420
6038,1226038,16992,-524,756,17016.88,30.27,-1.00,-1.0,2381
6041,1226041,16968,-664,884,17003.98,30.32,-1.00,-1.0,2419
6044,1226044,17036,-640,860,17069.70,30.37,-1.00,-1.0,2374
6047,1226047,17064,-648,968,17103.71,30.22,-1.00,-1.0,2370
6049,1226049,17004,-616,928,17040.44,30.18,-1.00,-1.0,2434
6052,1226052,17164,-560,964,17200.17,30.27,-1.00,-1.0,2371
6055,1226055,17028,-680,1020,17072.07,30.27,-1.00,-1.0,2426
6058,1226058,17016,-540,868,17046.68,30.18,-1.00,-1.0,2371
6062,1226062,17060,-580,1044,17101.75,30.27,-1.00,-1.0,2431
6065,1226065,17040,-672,936,17078.91,30.27,-1.00,-1.0,2374
6068,1226068,16916,-588,848,16947.45,30.18,-1.00,-1.0,2412
6071,1226071,16996,-688,876,17032.46,30.27,-1.00,-1.0,2370
6073,1226073,17136,-580,996,17174.72,30.27,-1.00,-1.0,2434
6076,1226076,17032,-648,920,17069.13,30.18,-1.00,-1.0,2386
6079,1226079,17096,-724,920,17136.04,30.18,-1.00,-1.0,2422
6082,1226082,16992,-568,944,17027.68,30.27,-1.00,-1.0,2379
6084,1226084,17020,-652,840,17053.19,30.22,-1.00,-1.0,2366
6089,1226089,17108,-648,1012,17150.15,30.37,-1.00,-1.0,2427
6092,1226092,17100,-668,812,17132.30,30.27,-1.00,-1.0,2375
6095,1226095,17036,-624,764,17064.54,30.22,-1.00,-1.0,2434
6097,1226097,17008,-588,924,17043.23,30.27,-1.00,-1.0,2378
6100,1226100,17048,-512,684,17069.40,30.32,-1.00,-1.0,2419
6103,1226103,17004,-668,876,17039.65,30.22,-1.00,-1.0,2375
6106,1226106,17008,-512,836,17036.23,30.22,-1.00,-1.0,2418
6108,1226108,17064,-680,868,17099.59,30.32,-1.00,-1.0,2360
