timestamp_ms,global_ms,accel_x,accel_y,accel_z,accel_mag,temp_c,voltage,soc,loop_us
3,1525003,17008,-640,872,17042.36,29.42,-1.00,-1.0,2486
9,1525009,17152,-628,1088,17197.94,29.42,-1.00,-1.0,2466
12,1525012,17064,-568,924,17098.44,29.42,-1.00,-1.0,2384
15,1525015,17056,-648,808,17087.42,29.38,-1.00,-1.0,2367
18,1525018,17088,-504,932,17120.82,29.47,-1.00,-1.0,2422
20,1525020,16980,-592,824,17010.29,29.38,-1.00,-1.0,2369
23,1525023,17056,-676,884,17092.27,29.47,-1.00,-1.0,2422
26,1525026,16996,-616,948,17033.56,29.47,-1.00,-1.0,2369
29,1525029,17104,-640,948,17142.20,29.38,-1.00,-1.0,2422
31,1525031,16980,-552,1044,17021.02,29.38,-1.00,-1.0,2369
36,1525036,16992,-596,780,17020.33,29.52,-1.00,-1.0,2445
39,1525039,17096,-532,960,17131.20,29.42,-1.00,-1.0,2370
42,1525042,17104,-540,836,17132.93,29.38,-1.00,-1.0,2422
44,1525044,17072,-540,904,17104.44,29.38,-1.00,-1.0,2369
47,1525047,17052,-508,968,17087.01,29.38,-1.00,-1.0,2374
50,1525050,16976,-520,836,17004.53,29.42,-1.00,-1.0,2422
52,1525052,17064,-556,848,17094.10,29.38,-1.00,-1.0,2372
55,1525055,17008,-588,992,17047.05,29.52,-1.00,-1.0,2430
58,1525058,17104,-656,996,17145.53,29.38,-1.00,-1.0,2378
63,1525063,17036,-632,940,17073.62,29.38,-1.00,-1.0,2447
66,1525066,17012,-548,816,17040.37,29.38,-1.00,-1.0,2366
68,1525068,17108,-676,772,17138.75,29.42,-1.00,-1.0,2423
71,1525071,16996,-592,956,17033.16,29.38,-1.00,-1.0,2370
74,1525074,17100,-604,844,17131.47,29.42,-1.00,-1.0,2370
76,1525076,17036,-484,876,17065.37,29.33,-1.00,-1.0,2428
79,1525079,17188,-632,888,17222.52,29.42,-1.00,-1.0,2378
82,1525082,17104,-688,696,17131.97,29.42,-1.00,-1.0,2407
85,1525085,17060,-564,836,17089.78,29.52,-1.00,-1.0,2370
90,1525090,16980,-592,864,17012.27,29.42,-1.00,-1.0,2442
92,1525092,16992,-556,844,17022.03,29.42,-1.00,-1.0,2365
95,1525095,16924,-576,960,16960.99,29.52,-1.00,-1.0,2421
98,1525098,17104,-616,988,17143.58,29.42,-1.00,-1.0,2376
100,1525100,16976,-532,928,17009.67,29.38,-1.00,-1.0,2376
103,1525103,16952,-660,828,16985.04,29.38,-1.00,-1.0,2421
106,1525106,16936,-544,836,16965.35,29.42,-1.00,-1.0,2369
109,1525109,17052,-556,900,17084.78,29.47,-1.00,-1.0,2423
111,1525111,17100,-648,936,17137.85,29.47,-1.00,-1.0,2374
116,1525116,16960,-592,780,16988.24,29.38,-1.00,-1.0,2454
119,1525119,17008,-604,936,17044.44,29.52,-1.00,-1.0,2373
122,1525122,17040,-592,904,17074.23,29.42,-1.00,-1.0,2421
125,1525125,17076,-564,996,17114.32,29.42,-1.00,-1.0,2372
127,1525127,17020,-492,772,17044.60,29.47,-1.00,-1.0,2366
130,1525130,16968,-600,940,17004.61,29.42,-1.00,-1.0,2421
133,1525133,17052,-652,728,17079.98,29.47,-1.00,-1.0,2370
136,1525136,16976,-540,740,17000.70,29.42,-1.00,-1.0,2421
138,1525138,17076,-544,960,17111.61,29.38,-1.00,-1.0,2374
143,1525143,16960,-500,900,16991.22,29.47,-1.00,-1.0,2441
146,1525146,17080,-660,1012,17122.68,29.38,-1.00,-1.0,2368
149,1525149,17092,-616,960,17130.02,29.42,-1.00,-1.0,2423
151,1525151,16992,-640,804,17023.04,29.47,-1.00,-1.0,2368
154,1525154,17100,-592,900,17133.90,29.42,-1.00,-1.0,2421
157,1525157,17080,-648,852,17113.51,29.38,-1.00,-1.0,2375
160,1525160,17008,-644,936,17045.91,29.42,-1.00,-1.0,2367
162,1525162,16984,-612,768,17012.37,29.38,-1.00,-1.0,2429
165,1525165,16920,-632,912,16956.34,29.42,-1.00,-1.0,2370
170,1525170,17200,-580,876,17232.06,29.42,-1.00,-1.0,2441
173,1525173,17004,-548,884,17035.78,29.42,-1.00,-1.0,2367
176,1525176,17076,-544,808,17103.76,29.52,-1.00,-1.0,2421
178,1525178,17044,-520,936,17077.60,29.33,-1.00,-1.0,2356
181,1525181,16956,-572,940,16991.67,29.42,-1.00,-1.0,2421
184,1525184,17048,-572,992,17086.41,29.42,-1.00,-1.0,2369
187,1525187,16984,-612,996,17024.18,29.42,-1.00,-1.0,2421
189,1525189,17048,-564,864,17079.20,29.42,-1.00,-1.0,2369
192,1525192,17076,-620,856,17108.68,29.33,-1.00,-1.0,2379
197,1525197,17120,-648,836,17152.64,29.42,-1.00,-1.0,2448
200,1525200,17012,-620,740,17039.37,29.42,-1.00,-1.0,2366
202,1525202,17060,-592,948,17096.57,29.38,-1.00,-1.0,2437
205,1525205,17076,-644,804,17107.04,29.38,-1.00,-1.0,2369
208,1525208,16972,-608,720,16998.14,29.38,-1.00,-1.0,2428
211,1525211,17020,-656,808,17051.79,29.38,-1.00,-1.0,2370
213,1525213,17044,-632,960,17082.71,29.47,-1.00,-1.0,2432
216,1525216,17020,-664,916,17057.56,29.38,-1.00,-1.0,2377
221,1525221,17076,-504,876,17105.88,29.33,-1.00,-1.0,2447
224,1525224,17072,-632,772,17101.13,29.38,-1.00,-1.0,2372
226,1525226,17084,-660,988,17125.27,29.42,-1.00,-1.0,2366
229,1525229,16976,-656,924,17013.78,29.38,-1.00,-1.0,2421
232,1525232,17056,-684,924,17094.70,29.42,-1.00,-1.0,2369
235,1525235,17036,-536,992,17073.27,29.57,-1.00,-1.0,2424
237,1525237,16964,-548,928,16998.20,29.42,-1.00,-1.0,2356
240,1525240,16996,-588,992,17035.08,29.28,-1.00,-1.0,2421
243,1525243,16956,-560,768,16982.62,29.42,-1.00,-1.0,2369
247,1525247,17124,-468,872,17152.57,29.42,-1.00,-1.0,2449
250,1525250,16968,-492,900,16998.97,29.52,-1.00,-1.0,2368
253,1525253,16920,-588,996,16959.49,29.42,-1.00,-1.0,2421
256,1525256,17044,-616,756,17071.88,29.33,-1.00,-1.0,2368
258,1525258,17132,-524,932,17165.33,29.42,-1.00,-1.0,2437
261,1525261,17068,-596,876,17100.85,29.47,-1.00,-1.0,2426
264,1525264,17056,-580,792,17084.23,29.33,-1.00,-1.0,2366
267,1525267,17048,-640,904,17083.94,29.47,-1.00,-1.0,2425
270,1525270,17092,-660,900,17128.40,29.42,-1.00,-1.0,2374
275,1525275,17000,-556,864,17031.02,29.42,-1.00,-1.0,2448
278,1525278,17056,-688,816,17089.36,29.42,-1.00,-1.0,2365
280,1525280,17056,-496,864,17085.07,29.38,-1.00,-1.0,2420
283,1525283,17092,-608,964,17129.96,29.42,-1.00,-1.0,2369
286,1525286,17072,-572,980,17109.67,29.38,-1.00,-1.0,2428
289,1525289,17052,-556,860,17082.72,29.42,-1.00,-1.0,2368
291,1525291,17168,-504,892,17198.54,29.47,-1.00,-1.0,2373
294,1525294,17040,-648,956,17079.09,29.42,-1.00,-1.0,2414
297,1525297,17028,-684,852,17063.02,29.38,-1.00,-1.0,2376
302,1525302,17000,-676,652,17025.92,29.38,-1.00,-1.0,2448
305,1525305,16992,-560,944,17027.41,29.38,-1.00,-1.0,2365
307,1525307,17068,-596,832,17098.66,29.47,-1.00,-1.0,2421
310,1525310,17132,-672,948,17171.36,29.47,-1.00,-1.0,2369
313,1525313,17012,-544,1008,17050.52,29.47,-1.00,-1.0,2431
316,1525316,16992,-632,880,17026.51,29.47,-1.00,-1.0,2367
318,1525318,17124,-528,904,17155.97,29.38,-1.00,-1.0,2424
321,1525321,17116,-680,920,17154.19,29.47,-1.00,-1.0,2368
324,1525324,17056,-720,996,17100.22,29.47,-1.00,-1.0,2362
329,1525329,16992,-604,984,17031.18,29.38,-1.00,-1.0,2447
332,1525332,16992,-628,856,17025.13,29.47,-1.00,-1.0,2365
334,1525334,17020,-592,944,17056.44,29.42,-1.00,-1.0,2421
337,1525337,16952,-596,932,16988.06,29.38,-1.00,-1.0,2369
340,1525340,17000,-544,764,17025.85,29.42,-1.00,-1.0,2426
343,1525343,17088,-616,780,17116.88,29.47,-1.00,-1.0,2354
345,1525345,17116,-512,844,17144.44,29.42,-1.00,-1.0,2420
348,1525348,16996,-624,1024,17038.25,29.47,-1.00,-1.0,2368
353,1525353,17052,-504,800,17078.19,29.47,-1.00,-1.0,2440
356,1525356,16992,-536,968,17027.99,29.33,-1.00,-1.0,2368
358,1525358,17000,-640,848,17033.16,29.52,-1.00,-1.0,2367
361,1525361,17020,-688,948,17060.26,29.42,-1.00,-1.0,2434
364,1525364,17020,-728,772,17053.04,29.42,-1.00,-1.0,2375
367,1525367,17024,-596,936,17060.12,29.42,-1.00,-1.0,2435
370,1525370,17092,-508,996,17128.53,29.38,-1.00,-1.0,2426
372,1525372,17008,-608,704,17033.42,29.52,-1.00,-1.0,2426
375,1525375,17028,-592,940,17064.20,29.42,-1.00,-1.0,2382
380,1525380,17140,-604,856,17171.99,29.42,-1.00,-1.0,2442
383,1525383,17032,-568,908,17065.64,29.42,-1.00,-1.0,2369
385,1525385,17088,-604,856,17120.08,29.47,-1.00,-1.0,2373
388,1525388,17096,-632,1020,17138.06,29.38,-1.00,-1.0,2420
391,1525391,16976,-536,876,17007.04,29.38,-1.00,-1.0,2370
394,1525394,17064,-560,944,17099.26,29.38,-1.00,-1.0,2422
396,1525396,17004,-604,892,17038.09,29.38,-1.00,-1.0,2369
399,1525399,17088,-616,920,17123.83,29.38,-1.00,-1.0,2420
402,1525402,17000,-556,1000,17038.46,29.38,-1.00,-1.0,2372
407,1525407,17100,-424,784,17123.21,29.38,-1.00,-1.0,2442
410,1525410,17004,-500,884,17034.30,29.42,-1.00,-1.0,2369
413,1525413,17000,-508,808,17026.77,29.38,-1.00,-1.0,2419
415,1525415,17072,-580,744,17098.04,29.47,-1.00,-1.0,2372
418,1525418,17048,-544,876,17079.16,29.42,-1.00,-1.0,2373
421,1525421,17064,-476,784,17088.63,29.42,-1.00,-1.0,2420
423,1525423,17028,-540,808,17055.71,29.42,-1.00,-1.0,2371
426,1525426,17040,-560,848,17070.28,29.33,-1.00,-1.0,2419
429,1525429,17044,-624,732,17071.12,29.47,-1.00,-1.0,2372
434,1525434,17072,-648,952,17110.80,29.47,-1.00,-1.0,2442
437,1525437,17028,-656,872,17062.93,29.38,-1.00,-1.0,2373
440,1525440,17008,-632,860,17041.45,29.33,-1.00,-1.0,2420
442,1525442,17152,-584,916,17186.37,29.47,-1.00,-1.0,2370
445,1525445,17008,-692,804,17041.05,29.42,-1.00,-1.0,2419
448,1525448,17060,-556,812,17088.36,29.38,-1.00,-1.0,2370
450,1525450,17000,-612,764,17028.16,29.33,-1.00,-1.0,2368
453,1525453,17024,-532,1028,17063.30,29.38,-1.00,-1.0,2427
456,1525456,17104,-600,900,17138.17,29.38,-1.00,-1.0,2372
461,1525461,16956,-568,864,16987.50,29.33,-1.00,-1.0,2449
463,1525463,17088,-592,936,17123.85,29.47,-1.00,-1.0,2380
466,1525466,17028,-564,860,17059.03,29.38,-1.00,-1.0,2420
469,1525469,16956,-572,940,16991.67,29.38,-1.00,-1.0,2357
472,1525472,17028,-680,804,17060.53,29.47,-1.00,-1.0,2428
474,1525474,16932,-696,956,16973.24,29.38,-1.00,-1.0,2378
477,1525477,17172,-596,940,17208.03,29.47,-1.00,-1.0,2419
480,1525480,17016,-704,984,17058.96,29.42,-1.00,-1.0,2370
483,1525483,17004,-564,888,17036.51,29.42,-1.00,-1.0,2366
488,1525488,17072,-644,912,17108.47,29.28,-1.00,-1.0,2441
491,1525491,17040,-624,912,17075.79,29.47,-1.00,-1.0,2371
494,1525494,17060,-548,988,17097.37,29.33,-1.00,-1.0,2419
496,1525496,17100,-540,712,17123.33,29.38,-1.00,-1.0,2372
499,1525499,17100,-580,848,17130.83,29.42,-1.00,-1.0,2419
502,1525502,17084,-588,848,17115.14,29.47,-1.00,-1.0,2372
505,1525505,17168,-664,812,17200.01,29.42,-1.00,-1.0,2419
507,1525507,17080,-616,884,17113.95,29.38,-1.00,-1.0,2371
512,1525512,16992,-544,908,17024.94,29.47,-1.00,-1.0,2449
515,1525515,17108,-476,956,17141.30,29.38,-1.00,-1.0,2368
518,1525518,16984,-656,776,17014.37,29.42,-1.00,-1.0,2364
520,1525520,17104,-580,780,17131.60,29.33,-1.00,-1.0,2419
523,1525523,16984,-512,1008,17021.59,29.33,-1.00,-1.0,2373
526,1525526,17112,-544,888,17143.66,29.28,-1.00,-1.0,2427
529,1525529,17020,-668,824,17053.02,29.42,-1.00,-1.0,2369
531,1525531,17096,-636,880,17130.44,29.38,-1.00,-1.0,2421
534,1525534,17000,-608,884,17033.82,29.42,-1.00,-1.0,2369
539,1525539,17036,-556,984,17073.45,29.42,-1.00,-1.0,2440
542,1525542,17028,-608,844,17059.74,29.42,-1.00,-1.0,2367
545,1525545,17016,-536,792,17042.85,29.42,-1.00,-1.0,2419
547,1525547,17040,-568,796,17068.04,29.42,-1.00,-1.0,2370
550,1525550,17040,-604,868,17072.78,29.38,-1.00,-1.0,2374
553,1525553,17040,-600,952,17077.12,29.42,-1.00,-1.0,2432
555,1525555,17000,-656,832,17032.98,29.38,-1.00,-1.0,2373
558,1525558,16976,-596,988,17015.17,29.42,-1.00,-1.0,2428
561,1525561,16932,-560,852,16962.67,29.38,-1.00,-1.0,2370
566,1525566,17012,-508,860,17041.30,29.47,-1.00,-1.0,2440
569,1525569,16944,-640,876,16978.70,29.42,-1.00,-1.0,2371
572,1525572,17036,-508,884,17066.48,29.38,-1.00,-1.0,2420
574,1525574,17112,-560,732,17136.80,29.38,-1.00,-1.0,2370
577,1525577,17000,-600,868,17032.72,29.47,-1.00,-1.0,2420
580,1525580,17028,-536,996,17065.52,29.47,-1.00,-1.0,2369
582,1525582,17000,-520,804,17026.94,29.42,-1.00,-1.0,2377
585,1525585,17092,-636,848,17124.84,29.52,-1.00,-1.0,2419
588,1525588,17044,-532,824,17072.20,29.38,-1.00,-1.0,2377
593,1525593,17028,-700,868,17064.47,29.38,-1.00,-1.0,2441
596,1525596,17152,-580,812,17181.00,29.38,-1.00,-1.0,2374
599,1525599,17056,-600,920,17091.33,29.47,-1.00,-1.0,2419
601,1525601,17008,-632,900,17043.52,29.38,-1.00,-1.0,2370
604,1525604,17016,-536,824,17044.37,29.38,-1.00,-1.0,2419
607,1525607,16952,-620,976,16991.39,29.47,-1.00,-1.0,2377
610,1525610,17096,-556,924,17129.98,29.38,-1.00,-1.0,2419
612,1525612,17016,-488,796,17041.60,29.38,-1.00,-1.0,2369
615,1525615,17036,-556,880,17067.77,29.42,-1.00,-1.0,2384
620,1525620,16968,-588,852,16999.55,29.33,-1.00,-1.0,2440
623,1525623,17048,-656,808,17079.74,29.38,-1.00,-1.0,2370
626,1525626,17120,-620,860,17152.79,29.42,-1.00,-1.0,2438
628,1525628,17064,-632,868,17097.75,29.42,-1.00,-1.0,2374
631,1525631,17092,-612,876,17125.37,29.33,-1.00,-1.0,2430
634,1525634,17068,-624,996,17108.42,29.33,-1.00,-1.0,2378
637,1525637,17028,-624,932,17064.90,29.42,-1.00,-1.0,2433
639,1525639,16940,-596,880,16973.31,29.42,-1.00,-1.0,2381
642,1525642,17048,-620,704,17073.79,29.33,-1.00,-1.0,2372
647,1525647,16988,-672,784,17019.35,29.28,-1.00,-1.0,2443
650,1525650,16944,-616,808,16974.44,29.42,-1.00,-1.0,2369
653,1525653,16992,-592,904,17026.32,29.38,-1.00,-1.0,2420
655,1525655,17056,-596,968,17093.84,29.47,-1.00,-1.0,2369
658,1525658,17104,-544,852,17133.85,29.38,-1.00,-1.0,2419
661,1525661,17040,-452,980,17074.14,29.38,-1.00,-1.0,2369
664,1525664,17036,-624,904,17071.38,29.38,-1.00,-1.0,2419
666,1525666,16976,-556,808,17004.31,29.38,-1.00,-1.0,2370
671,1525671,16992,-604,880,17025.49,29.42,-1.00,-1.0,2447
674,1525674,16972,-588,792,17000.64,29.42,-1.00,-1.0,2365
676,1525676,16988,-608,932,17024.41,29.47,-1.00,-1.0,2365
679,1525679,17036,-640,856,17069.49,29.38,-1.00,-1.0,2419
682,1525682,17052,-624,924,17088.41,29.38,-1.00,-1.0,2370
685,1525685,17068,-572,836,17098.03,29.38,-1.00,-1.0,2420
687,1525687,17168,-676,1004,17210.61,29.38,-1.00,-1.0,2370
690,1525690,17192,-648,920,17228.79,29.38,-1.00,-1.0,2420
693,1525693,17080,-552,832,17109.16,29.38,-1.00,-1.0,2370
698,1525698,17120,-612,956,17157.59,29.38,-1.00,-1.0,2448
701,1525701,16988,-660,996,17029.97,29.42,-1.00,-1.0,2366
704,1525704,17164,-592,984,17202.37,29.47,-1.00,-1.0,2420
706,1525706,16996,-548,948,17031.24,29.42,-1.00,-1.0,2374
709,1525709,16984,-484,888,17014.08,29.38,-1.00,-1.0,2365
712,1525712,17064,-604,800,17093.42,29.42,-1.00,-1.0,2430
715,1525715,16968,-752,820,17004.44,29.33,-1.00,-1.0,2369
717,1525717,16976,-632,884,17010.75,29.42,-1.00,-1.0,2423
720,1525720,17072,-636,748,17100.21,29.47,-1.00,-1.0,2369
725,1525725,17028,-504,752,17052.05,29.38,-1.00,-1.0,2440
728,1525728,17048,-484,852,17076.14,29.38,-1.00,-1.0,2367
731,1525731,17052,-552,988,17089.52,29.38,-1.00,-1.0,2421
733,1525733,17088,-620,948,17125.50,29.38,-1.00,-1.0,2355
736,1525736,17000,-612,872,17033.35,29.38,-1.00,-1.0,2420
739,1525739,16992,-572,912,17026.07,29.38,-1.00,-1.0,2370
742,1525742,17024,-536,924,17057.48,29.33,-1.00,-1.0,2353
744,1525744,17036,-592,828,17066.38,29.33,-1.00,-1.0,2422
747,1525747,17028,-432,852,17054.77,29.42,-1.00,-1.0,2369
752,1525752,16960,-612,908,16995.31,29.42,-1.00,-1.0,2441
755,1525755,16976,-644,936,17013.98,29.47,-1.00,-1.0,2366
758,1525758,16992,-556,896,17024.69,29.42,-1.00,-1.0,2427
761,1525761,17016,-608,952,17053.45,29.47,-1.00,-1.0,2366
763,1525763,17108,-508,884,17138.35,29.42,-1.00,-1.0,2420
766,1525766,17064,-464,904,17094.23,29.38,-1.00,-1.0,2370
769,1525769,17044,-652,896,17079.98,29.33,-1.00,-1.0,2426
772,1525772,16968,-576,968,17005.35,29.38,-1.00,-1.0,2368
774,1525774,16968,-636,872,17002.29,29.42,-1.00,-1.0,2365
779,1525779,17068,-512,848,17096.72,29.42,-1.00,-1.0,2440
782,1525782,16960,-652,888,16995.74,29.47,-1.00,-1.0,2355
785,1525785,16976,-548,748,17001.30,29.42,-1.00,-1.0,2427
788,1525788,17008,-552,904,17040.95,29.42,-1.00,-1.0,2366
790,1525790,17008,-620,936,17045.02,29.42,-1.00,-1.0,2421
793,1525793,16936,-580,936,16971.76,29.33,-1.00,-1.0,2358
796,1525796,17128,-612,936,17164.47,29.33,-1.00,-1.0,2426
799,1525799,17088,-636,816,17119.29,29.33,-1.00,-1.0,2368
804,1525804,16984,-484,844,17011.84,29.42,-1.00,-1.0,2443
806,1525806,17072,-604,924,17107.65,29.38,-1.00,-1.0,2366
809,1525809,17028,-660,876,17063.29,29.42,-1.00,-1.0,2371
812,1525812,17060,-564,820,17089.01,29.47,-1.00,-1.0,2419
814,1525814,17044,-496,936,17076.89,29.42,-1.00,-1.0,2369
817,1525817,17060,-632,964,17098.90,29.28,-1.00,-1.0,2420
820,1525820,17024,-564,864,17055.24,29.42,-1.00,-1.0,2381
823,1525823,17060,-560,848,17090.24,29.47,-1.00,-1.0,2419
825,1525825,17036,-556,800,17063.83,29.42,-1.00,-1.0,2373
830,1525830,17036,-652,948,17074.81,29.42,-1.00,-1.0,2442
833,1525833,17028,-488,964,17062.25,29.42,-1.00,-1.0,2366
836,1525836,17008,-640,864,17041.95,29.38,-1.00,-1.0,2368
839,1525839,17004,-580,668,17027.00,29.42,-1.00,-1.0,2421
841,1525841,17000,-548,972,17036.58,29.42,-1.00,-1.0,2376
844,1525844,17084,-624,804,17114.29,29.42,-1.00,-1.0,2419
847,1525847,17084,-552,924,17117.87,29.33,-1.00,-1.0,2371
850,1525850,17044,-544,928,17077.91,29.33,-1.00,-1.0,2419
852,1525852,16968,-556,836,16997.68,29.47,-1.00,-1.0,2372
857,1525857,17072,-600,944,17108.60,29.38,-1.00,-1.0,2450
860,1525860,17152,-644,824,17183.85,29.47,-1.00,-1.0,2373
863,1525863,16984,-676,800,17016.26,29.42,-1.00,-1.0,2419
866,1525866,17112,-544,976,17148.44,29.47,-1.00,-1.0,2371
868,1525868,16980,-636,864,17013.86,29.33,-1.00,-1.0,2366
871,1525871,17032,-556,888,17064.19,29.38,-1.00,-1.0,2420
874,1525874,17060,-528,924,17093.16,29.42,-1.00,-1.0,2370
877,1525877,16976,-608,804,17005.90,29.38,-1.00,-1.0,2419
879,1525879,17020,-692,748,17050.48,29.42,-1.00,-1.0,2378
884,1525884,17092,-532,960,17127.20,29.38,-1.00,-1.0,2440
887,1525887,17116,-652,1024,17159.00,29.38,-1.00,-1.0,2374
890,1525890,17092,-588,896,17125.57,29.38,-1.00,-1.0,2419
892,1525892,16960,-580,972,16997.73,29.42,-1.00,-1.0,2370
895,1525895,17092,-500,908,17123.40,29.38,-1.00,-1.0,2420
898,1525898,17120,-604,752,17147.15,29.47,-1.00,-1.0,2376
900,1525900,17032,-652,920,17069.29,29.33,-1.00,-1.0,2374
903,1525903,17108,-580,844,17138.62,29.42,-1.00,-1.0,2413
906,1525906,17024,-524,968,17059.55,29.33,-1.00,-1.0,2377
911,1525911,17100,-616,808,17130.16,29.33,-1.00,-1.0,2449
914,1525914,17080,-576,804,17108.61,29.33,-1.00,-1.0,2372
917,1525917,17012,-536,928,17045.72,29.42,-1.00,-1.0,2420
920,1525920,17060,-632,812,17091.00,29.42,-1.00,-1.0,2374
922,1525922,16992,-600,1016,17032.92,29.33,-1.00,-1.0,2427
925,1525925,17112,-696,992,17154.85,29.42,-1.00,-1.0,2384
928,1525928,16956,-604,896,16990.40,29.42,-1.00,-1.0,2419
931,1525931,17044,-592,876,17076.76,29.42,-1.00,-1.0,2376
933,1525933,17024,-564,992,17062.20,29.42,-1.00,-1.0,2369
938,1525938,17116,-552,896,17148.32,29.42,-1.00,-1.0,2449
941,1525941,17036,-556,852,17066.35,29.42,-1.00,-1.0,2380
944,1525944,17132,-564,880,17163.86,29.52,-1.00,-1.0,2422
947,1525947,16948,-600,912,16983.12,29.42,-1.00,-1.0,2373
950,1525950,17028,-608,852,17060.14,29.38,-1.00,-1.0,2423
952,1525952,17108,-636,960,17146.71,29.52,-1.00,-1.0,2372
955,1525955,16992,-580,856,17023.43,29.38,-1.00,-1.0,2419
958,1525958,17024,-560,980,17061.38,29.42,-1.00,-1.0,2370
963,1525963,16964,-564,1064,17006.69,29.42,-1.00,-1.0,2447
965,1525965,16972,-692,880,17008.88,29.33,-1.00,-1.0,2370
968,1525968,16932,-552,884,16964.04,29.47,-1.00,-1.0,2365
971,1525971,17060,-604,776,17088.32,29.47,-1.00,-1.0,2427
974,1525974,16972,-492,920,17004.04,29.38,-1.00,-1.0,2368
976,1525976,16920,-592,924,16955.55,29.38,-1.00,-1.0,2420
979,1525979,17020,-564,764,17046.47,29.38,-1.00,-1.0,2370
982,1525982,17004,-632,940,17041.69,29.38,-1.00,-1.0,2426
985,1525985,17088,-612,844,17119.77,29.47,-1.00,-1.0,2369
990,1525990,17108,-580,944,17143.84,29.38,-1.00,-1.0,2443
992,1525992,17060,-584,876,17092.46,29.42,-1.00,-1.0,2366
995,1525995,17020,-684,856,17055.23,29.47,-1.00,-1.0,2406
998,1525998,17020,-652,1032,17063.72,29.38,-1.00,-1.0,2369
1000,1526000,16972,-556,924,17006.22,29.38,-1.00,-1.0,2366
1003,1526003,17004,-696,888,17041.39,29.42,-1.00,-1.0,2419
1006,1526006,16996,-584,868,17028.17,29.38,-1.00,-1.0,2378
1009,1526009,17032,-596,944,17068.55,29.52,-1.00,-1.0,2418
1012,1526012,17096,-460,976,17130.01,29.47,-1.00,-1.0,2370
1017,1526017,17140,-640,836,17172.31,29.47,-1.00,-1.0,2440
1019,1526019,17112,-716,868,17148.95,29.47,-1.00,-1.0,2366
1022,1526022,17112,-532,988,17148.75,29.42,-1.00,-1.0,2420
1025,1526025,17004,-488,888,17034.16,29.38,-1.00,-1.0,2370
1028,1526028,17084,-580,880,17116.48,29.42,-1.00,-1.0,2420
1030,1526030,17064,-540,968,17099.96,29.38,-1.00,-1.0,2370
1033,1526033,17028,-604,936,17064.40,29.42,-1.00,-1.0,2419
1036,1526036,16972,-580,892,17005.32,29.47,-1.00,-1.0,2375
1039,1526039,17104,-620,880,17137.84,29.42,-1.00,-1.0,2367
1044,1526044,17088,-516,808,17114.87,29.42,-1.00,-1.0,2440
1046,1526046,17140,-604,860,17172.19,29.38,-1.00,-1.0,2365
1049,1526049,17044,-552,840,17073.61,29.42,-1.00,-1.0,2419
1052,1526052,16940,-604,916,16975.50,29.38,-1.00,-1.0,2369
1055,1526055,17112,-632,888,17146.68,29.33,-1.00,-1.0,2419
1057,1526057,17072,-472,928,17103.72,29.42,-1.00,-1.0,2369
1060,1526060,17040,-640,936,17077.68,29.42,-1.00,-1.0,2419
1063,1526063,17112,-692,748,17142.31,29.42,-1.00,-1.0,2369
1068,1526068,17016,-604,876,17049.24,29.42,-1.00,-1.0,2440
1070,1526070,17104,-512,848,17132.66,29.42,-1.00,-1.0,2365
1073,1526073,16956,-648,776,16986.11,29.42,-1.00,-1.0,2419
1076,1526076,17032,-548,968,17068.29,29.42,-1.00,-1.0,2377
1078,1526078,17052,-540,948,17086.87,29.38,-1.00,-1.0,2374
1081,1526081,17060,-596,812,17089.71,29.33,-1.00,-1.0,2419
1084,1526084,17008,-592,984,17046.72,29.47,-1.00,-1.0,2370
1087,1526087,17144,-652,1004,17185.75,29.42,-1.00,-1.0,2421
1090,1526090,16968,-592,872,17000.70,29.38,-1.00,-1.0,2366
1094,1526094,17040,-544,948,17075.02,29.33,-1.00,-1.0,2440
1097,1526097,17040,-552,888,17072.05,29.52,-1.00,-1.0,2353
1100,1526100,16908,-548,964,16944.32,29.42,-1.00,-1.0,2426
1103,1526103,16960,-568,788,16987.79,29.42,-1.00,-1.0,2368
1105,1526105,16904,-568,840,16934.39,29.42,-1.00,-1.0,2421
1108,1526108,17020,-652,868,17054.59,29.42,-1.00,-1.0,2370
1111,1526111,17008,-508,700,17029.98,29.42,-1.00,-1.0,2427
1114,1526114,17036,-616,1008,17076.91,29.47,-1.00,-1.0,2370
1117,1526117,17040,-520,944,17074.05,29.47,-1.00,-1.0,2370
1122,1526122,16996,-568,908,17029.71,29.47,-1.00,-1.0,2440
1124,1526124,17096,-536,860,17126.01,29.47,-1.00,-1.0,2366
1127,1526127,16948,-584,856,16979.65,29.38,-1.00,-1.0,2433
1130,1526130,17080,-700,912,17118.65,29.38,-1.00,-1.0,2377
1133,1526133,17040,-572,892,17072.92,29.38,-1.00,-1.0,2431
1135,1526135,16900,-644,940,16938.37,29.38,-1.00,-1.0,2373
1138,1526138,17088,-636,928,17124.99,29.52,-1.00,-1.0,2429
1141,1526141,17112,-536,860,17141.98,29.47,-1.00,-1.0,2377
1146,1526146,17064,-704,816,17098.00,29.38,-1.00,-1.0,2448
1149,1526149,17064,-692,932,17103.44,29.47,-1.00,-1.0,2370
1151,1526151,17060,-600,988,17099.12,29.42,-1.00,-1.0,2426
1154,1526154,16992,-644,768,17021.53,29.47,-1.00,-1.0,2385
1157,1526157,17016,-568,988,17054.12,29.33,-1.00,-1.0,2366
1160,1526160,17024,-612,960,17062.03,29.38,-1.00,-1.0,2419
1162,1526162,17032,-608,920,17067.66,29.52,-1.00,-1.0,2369
1165,1526165,17000,-552,768,17026.29,29.42,-1.00,-1.0,2419
1168,1526168,17044,-544,948,17079.01,29.42,-1.00,-1.0,2369
1173,1526173,17044,-640,832,17076.29,29.42,-1.00,-1.0,2441
1175,1526175,17036,-568,856,17066.95,29.42,-1.00,-1.0,2353
1178,1526178,17008,-600,908,17042.79,29.42,-1.00,-1.0,2419
1181,1526181,17008,-488,736,17030.91,29.42,-1.00,-1.0,2372
1184,1526184,17056,-636,924,17092.85,29.42,-1.00,-1.0,2421
1186,1526186,17060,-656,852,17093.85,29.42,-1.00,-1.0,2368
1189,1526189,17008,-564,1000,17046.71,29.33,-1.00,-1.0,2419
1192,1526192,17012,-604,972,17050.45,29.42,-1.00,-1.0,2371
1195,1526195,16996,-560,840,17025.96,29.33,-1.00,-1.0,2366
1200,1526200,17080,-552,820,17108.58,29.42,-1.00,-1.0,2444
1202,1526202,17088,-580,940,17123.66,29.42,-1.00,-1.0,2373
1205,1526205,17108,-568,944,17143.44,29.42,-1.00,-1.0,2420
1208,1526208,17044,-612,852,17076.25,29.42,-1.00,-1.0,2372
1211,1526211,16932,-580,880,16964.77,29.47,-1.00,-1.0,2421
1213,1526213,17080,-592,980,17118.33,29.42,-1.00,-1.0,2369
1216,1526216,17032,-548,932,17066.28,29.38,-1.00,-1.0,2420
1219,1526219,17096,-588,1000,17135.31,29.52,-1.00,-1.0,2373
1224,1526224,17072,-512,760,17096.58,29.33,-1.00,-1.0,2442
1227,1526227,17032,-536,884,17063.35,29.42,-1.00,-1.0,2369
1230,1526230,17060,-604,908,17094.82,29.33,-1.00,-1.0,2419
1232,1526232,16932,-600,840,16963.44,29.52,-1.00,-1.0,2372
1235,1526235,17048,-532,948,17082.62,29.47,-1.00,-1.0,2374
1238,1526238,16996,-520,912,17028.39,29.47,-1.00,-1.0,2419
1240,1526240,16992,-624,700,17017.86,29.47,-1.00,-1.0,2370
1243,1526243,17016,-596,976,17054.38,29.42,-1.00,-1.0,2419
1246,1526246,16956,-620,868,16989.52,29.47,-1.00,-1.0,2377
1251,1526251,16984,-620,824,17015.28,29.38,-1.00,-1.0,2447
1254,1526254,17084,-560,920,17117.92,29.38,-1.00,-1.0,2366
1256,1526256,17084,-616,904,17118.99,29.47,-1.00,-1.0,2419
1259,1526259,17004,-572,872,17035.95,29.38,-1.00,-1.0,2370
1262,1526262,17032,-624,912,17067.81,29.38,-1.00,-1.0,2426
1265,1526265,17040,-632,1048,17083.89,29.38,-1.00,-1.0,2368
1267,1526267,16984,-444,892,17013.20,29.42,-1.00,-1.0,2422
1270,1526270,16972,-612,792,17001.49,29.38,-1.00,-1.0,2369
1273,1526273,17024,-560,868,17055.31,29.47,-1.00,-1.0,2374
1278,1526278,17080,-600,952,17117.03,29.38,-1.00,-1.0,2448
1281,1526281,16936,-716,932,16976.73,29.38,-1.00,-1.0,2366
1283,1526283,17096,-576,972,17133.29,29.42,-1.00,-1.0,2420
1286,1526286,17004,-572,932,17039.13,29.38,-1.00,-1.0,2369
1289,1526289,17064,-680,916,17102.09,29.52,-1.00,-1.0,2426
1292,1526292,17004,-584,976,17042.00,29.38,-1.00,-1.0,2369
1294,1526294,17048,-496,828,17075.30,29.42,-1.00,-1.0,2421
1297,1526297,16996,-624,960,17034.52,29.38,-1.00,-1.0,2369
1303,1526303,17084,-568,948,17119.71,29.47,-1.00,-1.0,2443
1306,1526306,17096,-616,720,17122.24,29.38,-1.00,-1.0,2368
1309,1526309,17016,-700,804,17049.36,29.47,-1.00,-1.0,2420
1312,1526312,17044,-488,1072,17084.65,29.38,-1.00,-1.0,2371
1314,1526314,16976,-520,892,17007.37,29.42,-1.00,-1.0,2368
1317,1526317,17044,-544,872,17074.96,29.42,-1.00,-1.0,2419
1320,1526320,16980,-608,884,17013.86,29.38,-1.00,-1.0,2377
1323,1526323,17028,-604,856,17060.20,29.52,-1.00,-1.0,2419
1325,1526325,17016,-656,776,17046.31,29.42,-1.00,-1.0,2374
1330,1526330,17080,-640,948,17118.26,29.38,-1.00,-1.0,2440
1333,1526333,17080,-504,864,17109.26,29.47,-1.00,-1.0,2356
1336,1526336,17100,-688,924,17138.76,29.42,-1.00,-1.0,2426
1339,1526339,16976,-624,780,17005.36,29.38,-1.00,-1.0,2367
1341,1526341,16920,-548,852,16950.30,29.42,-1.00,-1.0,2420
1344,1526344,17092,-560,776,17118.77,29.38,-1.00,-1.0,2373
1347,1526347,17000,-544,768,17026.03,29.42,-1.00,-1.0,2427
1350,1526350,17036,-684,852,17071.00,29.38,-1.00,-1.0,2368
1352,1526352,17036,-640,784,17066.04,29.42,-1.00,-1.0,2372
1357,1526357,17112,-588,832,17142.30,29.42,-1.00,-1.0,2440
1360,1526360,17028,-552,780,17054.79,29.33,-1.00,-1.0,2374
1363,1526363,17044,-664,796,17075.49,29.52,-1.00,-1.0,2419
1365,1526365,16940,-540,1028,16979.75,29.42,-1.00,-1.0,2371
1368,1526368,16988,-616,904,17023.19,29.47,-1.00,-1.0,2427
1371,1526371,17040,-532,896,17071.83,29.52,-1.00,-1.0,2372
1374,1526374,17036,-536,876,17066.93,29.47,-1.00,-1.0,2422
1376,1526376,17076,-564,940,17111.15,29.42,-1.00,-1.0,2370
1381,1526381,16960,-580,972,16997.73,29.52,-1.00,-1.0,2440
1384,1526384,17052,-592,848,17083.33,29.33,-1.00,-1.0,2366
1387,1526387,17096,-612,944,17132.98,29.33,-1.00,-1.0,2422
1390,1526390,16964,-648,884,16999.37,29.42,-1.00,-1.0,2367
1392,1526392,17000,-576,928,17035.05,29.38,-1.00,-1.0,2380
1395,1526395,17076,-652,796,17106.97,29.28,-1.00,-1.0,2424
1398,1526398,17012,-644,964,17051.46,29.47,-1.00,-1.0,2373
1400,1526400,17040,-508,672,17060.81,29.47,-1.00,-1.0,2422
1403,1526403,16996,-692,760,17027.05,29.47,-1.00,-1.0,2384
1408,1526408,17004,-512,948,17038.10,29.38,-1.00,-1.0,2455
1411,1526411,17120,-592,876,17152.62,29.42,-1.00,-1.0,2379
1414,1526414,17016,-628,788,17045.81,29.38,-1.00,-1.0,2430
1416,1526416,17148,-532,744,17172.38,29.47,-1.00,-1.0,2379
1419,1526419,17016,-568,820,17045.21,29.42,-1.00,-1.0,2461
1422,1526422,16960,-620,804,16990.36,29.42,-1.00,-1.0,2369
1425,1526425,17032,-544,828,17060.79,29.38,-1.00,-1.0,2368
1428,1526428,17052,-584,808,17081.12,29.33,-1.00,-1.0,2424
1430,1526430,16904,-604,896,16938.50,29.42,-1.00,-1.0,2368
1435,1526435,17060,-464,1020,17096.76,29.47,-1.00,-1.0,2439
1438,1526438,17124,-552,780,17150.64,29.47,-1.00,-1.0,2374
1441,1526441,17000,-540,876,17031.12,29.42,-1.00,-1.0,2430
1443,1526443,16960,-504,752,16984.14,29.47,-1.00,-1.0,2379
1446,1526446,16996,-624,1004,17037.06,29.33,-1.00,-1.0,2421
1449,1526449,16968,-528,1016,17006.59,29.47,-1.00,-1.0,2371
1452,1526452,16964,-664,904,17001.04,29.42,-1.00,-1.0,2423
1454,1526454,17008,-580,848,17039.00,29.42,-1.00,-1.0,2373
1459,1526459,17044,-636,852,17077.13,29.42,-1.00,-1.0,2452
1462,1526462,17004,-600,824,17034.52,29.47,-1.00,-1.0,2381
1465,1526465,17108,-652,936,17145.99,29.33,-1.00,-1.0,2423
1468,1526468,17132,-560,788,17159.25,29.38,-1.00,-1.0,2371
1470,1526470,17048,-564,844,17078.20,29.42,-1.00,-1.0,2366
1473,1526473,17060,-580,732,17085.54,29.47,-1.00,-1.0,2421
1476,1526476,16972,-648,892,17007.77,29.42,-1.00,-1.0,2370
1479,1526479,17008,-532,856,17037.84,29.47,-1.00,-1.0,2421
1481,1526481,16968,-624,980,17007.73,29.33,-1.00,-1.0,2370
1486,1526486,16928,-596,812,16957.94,29.47,-1.00,-1.0,2442
1489,1526489,17076,-684,764,17106.76,29.42,-1.00,-1.0,2375
1492,1526492,16944,-668,872,16979.57,29.28,-1.00,-1.0,2420
1494,1526494,17024,-616,884,17058.06,29.38,-1.00,-1.0,2370
1497,1526497,17028,-672,944,17067.38,29.47,-1.00,-1.0,2428
1500,1526500,17052,-512,964,17086.90,29.47,-1.00,-1.0,2378
1503,1526503,17020,-472,808,17045.71,29.38,-1.00,-1.0,2421
1505,1526505,17112,-572,864,17143.34,29.47,-1.00,-1.0,2371
1508,1526508,17076,-632,884,17110.54,29.42,-1.00,-1.0,2369
1513,1526513,17024,-608,908,17059.04,29.38,-1.00,-1.0,2442
1515,1526515,17028,-608,904,17062.81,29.38,-1.00,-1.0,2368
1518,1526518,17056,-568,864,17087.31,29.42,-1.00,-1.0,2434
1521,1526521,17048,-584,948,17084.32,29.38,-1.00,-1.0,2381
1524,1526524,17080,-660,940,17118.57,29.42,-1.00,-1.0,2435
1526,1526526,17028,-596,900,17062.18,29.52,-1.00,-1.0,2373
1529,1526529,16992,-600,800,17021.40,29.52,-1.00,-1.0,2429
1532,1526532,16936,-576,984,16974.34,29.42,-1.00,-1.0,2378
1537,1526537,16992,-552,996,17030.11,29.52,-1.00,-1.0,2449
1540,1526540,17024,-560,980,17061.38,29.38,-1.00,-1.0,2367
1542,1526542,17100,-496,816,17126.64,29.42,-1.00,-1.0,2366
1545,1526545,17024,-688,912,17062.29,29.47,-1.00,-1.0,2420
1548,1526548,17060,-624,736,17087.27,29.33,-1.00,-1.0,2370
1551,1526551,17128,-652,912,17164.65,29.47,-1.00,-1.0,2420
1553,1526553,16948,-628,812,16979.06,29.52,-1.00,-1.0,2369
1556,1526556,17016,-600,944,17052.72,29.47,-1.00,-1.0,2420
1559,1526559,17004,-568,964,17040.77,29.52,-1.00,-1.0,2371
1564,1526564,17052,-668,912,17089.43,29.42,-1.00,-1.0,2444
1566,1526566,17096,-548,884,17127.61,29.42,-1.00,-1.0,2374
1569,1526569,17000,-460,796,17024.84,29.38,-1.00,-1.0,2420
1572,1526572,16980,-592,964,17017.64,29.42,-1.00,-1.0,2371
1575,1526575,17092,-592,860,17123.86,29.47,-1.00,-1.0,2423
1577,1526577,17128,-544,1020,17166.97,29.47,-1.00,-1.0,2374
1580,1526580,17024,-640,968,17063.51,29.38,-1.00,-1.0,2366
1583,1526583,16996,-660,836,17029.34,29.42,-1.00,-1.0,2427
1586,1526586,17060,-516,756,17084.54,29.47,-1.00,-1.0,2357
1591,1526591,16988,-580,908,17022.13,29.38,-1.00,-1.0,2441
1593,1526593,16976,-632,812,17007.16,29.47,-1.00,-1.0,2367
1596,1526596,16992,-676,916,17030.09,29.42,-1.00,-1.0,2420
1599,1526599,17032,-628,844,17064.46,29.47,-1.00,-1.0,2371
1602,1526602,17112,-592,908,17146.30,29.42,-1.00,-1.0,2420
1604,1526604,17048,-476,968,17082.09,29.47,-1.00,-1.0,2374
1607,1526607,16952,-540,980,16988.89,29.52,-1.00,-1.0,2420
1610,1526610,17000,-664,868,17035.09,29.47,-1.00,-1.0,2371
1615,1526615,17056,-616,888,17090.21,29.47,-1.00,-1.0,2444
1618,1526618,17028,-608,908,17063.03,29.38,-1.00,-1.0,2367
1620,1526620,17020,-640,784,17050.06,29.52,-1.00,-1.0,2365
1623,1526623,17060,-584,832,17090.26,29.42,-1.00,-1.0,2427
1626,1526626,17000,-568,808,17028.67,29.42,-1.00,-1.0,2370
1628,1526628,17068,-612,928,17104.16,29.47,-1.00,-1.0,2435
1631,1526631,17076,-604,888,17109.74,29.42,-1.00,-1.0,2370
1634,1526634,17084,-568,964,17120.60,29.47,-1.00,-1.0,2428
1637,1526637,17032,-500,980,17067.50,29.42,-1.00,-1.0,2371
1642,1526642,17068,-508,852,17096.80,29.42,-1.00,-1.0,2442
1644,1526644,16956,-516,780,16981.77,29.42,-1.00,-1.0,2370
1647,1526647,16924,-612,864,16957.09,29.47,-1.00,-1.0,2436
1650,1526650,17056,-568,812,17084.76,29.42,-1.00,-1.0,2365
1653,1526653,17020,-612,952,17057.59,29.42,-1.00,-1.0,2427
1655,1526655,17056,-600,828,17086.62,29.42,-1.00,-1.0,2373
1658,1526658,17120,-628,872,17153.69,29.47,-1.00,-1.0,2371
1661,1526661,17036,-596,800,17065.18,29.42,-1.00,-1.0,2422
1663,1526663,16996,-640,684,17021.79,29.38,-1.00,-1.0,2353
1668,1526668,17160,-572,824,17189.29,29.47,-1.00,-1.0,2449
1671,1526671,17052,-616,872,17085.39,29.38,-1.00,-1.0,2369
1674,1526674,16948,-644,860,16982.02,29.38,-1.00,-1.0,2420
1677,1526677,16996,-660,980,17037.02,29.38,-1.00,-1.0,2371
1680,1526680,17036,-576,928,17070.98,29.33,-1.00,-1.0,2420
1682,1526682,17104,-604,836,17135.07,29.38,-1.00,-1.0,2358
1685,1526685,17104,-532,808,17131.34,29.47,-1.00,-1.0,2422
1688,1526688,17044,-568,744,17069.68,29.47,-1.00,-1.0,2372
1693,1526693,16996,-668,912,17033.55,29.42,-1.00,-1.0,2449
1696,1526696,16952,-688,964,16993.32,29.38,-1.00,-1.0,2370
1698,1526698,16964,-656,1000,17006.11,29.42,-1.00,-1.0,2365
1701,1526701,16996,-608,872,17029.21,29.47,-1.00,-1.0,2427
1704,1526704,17084,-656,932,17121.97,29.33,-1.00,-1.0,2368
1706,1526706,17108,-592,884,17141.05,29.38,-1.00,-1.0,2431
1709,1526709,17184,-516,900,17215.29,29.38,-1.00,-1.0,2378
1712,1526712,17064,-616,920,17099.88,29.38,-1.00,-1.0,2423
1715,1526715,17004,-632,804,17034.72,29.33,-1.00,-1.0,2370
1719,1526719,17120,-600,916,17154.98,29.42,-1.00,-1.0,2442
1722,1526722,16988,-612,912,17023.47,29.52,-1.00,-1.0,2365
1725,1526725,17064,-584,852,17095.23,29.47,-1.00,-1.0,2429
1728,1526728,16984,-612,904,17019.05,29.42,-1.00,-1.0,2355
1730,1526730,17080,-612,1052,17123.31,29.38,-1.00,-1.0,2423
1733,1526733,16944,-608,780,16972.84,29.42,-1.00,-1.0,2370
1736,1526736,16984,-496,796,17009.88,29.38,-1.00,-1.0,2367
1738,1526738,17004,-616,956,17041.99,29.42,-1.00,-1.0,2427
1741,1526741,16952,-636,972,16991.75,29.52,-1.00,-1.0,2369
1746,1526746,17044,-508,972,17079.25,29.42,-1.00,-1.0,2440
1749,1526749,17036,-728,780,17069.38,29.42,-1.00,-1.0,2366
1752,1526752,17124,-616,932,17160.40,29.33,-1.00,-1.0,2421
1754,1526754,17016,-644,948,17054.55,29.52,-1.00,-1.0,2368
1757,1526757,17052,-608,832,17083.11,29.42,-1.00,-1.0,2419
1760,1526760,17068,-612,968,17106.38,29.33,-1.00,-1.0,2373
1763,1526763,16992,-564,940,17027.32,29.42,-1.00,-1.0,2421
1765,1526765,17128,-588,840,17158.66,29.42,-1.00,-1.0,2355
1770,1526770,16940,-532,820,16968.18,29.42,-1.00,-1.0,2449
1773,1526773,17040,-472,988,17075.14,29.38,-1.00,-1.0,2381
1776,1526776,16984,-576,764,17010.93,29.33,-1.00,-1.0,2367
1779,1526779,16976,-628,832,17007.97,29.52,-1.00,-1.0,2419
1781,1526781,16936,-628,864,16969.65,29.52,-1.00,-1.0,2369
1784,1526784,17080,-588,804,17109.02,29.47,-1.00,-1.0,2419
1787,1526787,17036,-516,808,17062.96,29.42,-1.00,-1.0,2370
1790,1526790,17040,-560,1076,17083.12,29.38,-1.00,-1.0,2420
1792,1526792,16956,-568,928,16990.87,29.38,-1.00,-1.0,2370
1797,1526797,16924,-600,932,16960.26,29.47,-1.00,-1.0,2440
1800,1526800,17136,-624,968,17174.66,29.42,-1.00,-1.0,2365
1803,1526803,17028,-656,868,17062.72,29.47,-1.00,-1.0,2427
1806,1526806,17116,-592,976,17154.02,29.52,-1.00,-1.0,2368
1808,1526808,17036,-568,892,17068.79,29.47,-1.00,-1.0,2419
1811,1526811,16984,-548,800,17011.66,29.33,-1.00,-1.0,2370
1814,1526814,17028,-584,952,17064.59,29.38,-1.00,-1.0,2368
1816,1526816,16948,-568,940,16983.55,29.42,-1.00,-1.0,2431
1819,1526819,17000,-664,892,17036.33,29.38,-1.00,-1.0,2372
1824,1526824,16988,-712,988,17031.60,29.38,-1.00,-1.0,2441
1827,1526827,17048,-620,920,17084.06,29.47,-1.00,-1.0,2370
1830,1526830,17044,-640,968,17083.46,29.38,-1.00,-1.0,2431
1833,1526833,17016,-540,980,17052.75,29.42,-1.00,-1.0,2354
1835,1526835,17028,-592,936,17063.98,29.28,-1.00,-1.0,2423
1838,1526838,17040,-640,876,17074.50,29.47,-1.00,-1.0,2370
1841,1526841,17088,-604,944,17124.71,29.38,-1.00,-1.0,2430
1844,1526844,17040,-560,928,17074.44,29.38,-1.00,-1.0,2369
1849,1526849,17120,-592,892,17153.44,29.42,-1.00,-1.0,2440
1851,1526851,17024,-656,904,17060.60,29.47,-1.00,-1.0,2366
1854,1526854,16940,-568,764,16966.73,29.52,-1.00,-1.0,2375
1857,1526857,16928,-468,940,16960.54,29.42,-1.00,-1.0,2430
1859,1526859,17028,-652,868,17062.57,29.42,-1.00,-1.0,2373
1862,1526862,17096,-648,1076,17142.08,29.42,-1.00,-1.0,2414
1865,1526865,17088,-700,908,17126.42,29.52,-1.00,-1.0,2377
1868,1526868,17060,-644,884,17095.02,29.42,-1.00,-1.0,2435
1870,1526870,17012,-684,940,17051.67,29.42,-1.00,-1.0,2377
1875,1526875,17024,-572,816,17053.14,29.52,-1.00,-1.0,2442
1878,1526878,17044,-568,792,17071.84,29.42,-1.00,-1.0,2363
1881,1526881,17096,-560,892,17128.41,29.33,-1.00,-1.0,2426
1884,1526884,16960,-556,936,16994.91,29.42,-1.00,-1.0,2364
1886,1526886,17128,-532,868,17158.23,29.42,-1.00,-1.0,2434
1889,1526889,16992,-544,964,17028.02,29.42,-1.00,-1.0,2366
1892,1526892,17040,-572,920,17074.40,29.38,-1.00,-1.0,2367
1895,1526895,17064,-588,980,17102.23,29.47,-1.00,-1.0,2419
1897,1526897,17036,-524,972,17071.75,29.42,-1.00,-1.0,2379
1902,1526902,17048,-616,1000,17088.41,29.47,-1.00,-1.0,2440
1905,1526905,17004,-624,832,17035.78,29.47,-1.00,-1.0,2369
1908,1526908,17016,-480,876,17045.29,29.38,-1.00,-1.0,2428
1911,1526911,16988,-556,888,17020.28,29.38,-1.00,-1.0,2366
1913,1526913,17020,-632,888,17054.86,29.47,-1.00,-1.0,2419
1916,1526916,17028,-632,872,17062.02,29.38,-1.00,-1.0,2370
1919,1526919,17044,-580,952,17080.42,29.47,-1.00,-1.0,2427
1922,1526922,17024,-620,840,17055.98,29.47,-1.00,-1.0,2368
1926,1526926,16996,-496,952,17029.87,29.57,-1.00,-1.0,2451
1929,1526929,16984,-604,992,17023.66,29.42,-1.00,-1.0,2374
1932,1526932,17104,-632,792,17133.99,29.47,-1.00,-1.0,2365
1934,1526934,16952,-500,956,16986.29,29.42,-1.00,-1.0,2419
1937,1526937,17036,-584,844,17066.89,29.38,-1.00,-1.0,2370
1940,1526940,17100,-520,964,17135.04,29.42,-1.00,-1.0,2427
1943,1526943,17036,-616,920,17071.94,29.38,-1.00,-1.0,2368
1946,1526946,17032,-540,888,17063.68,29.38,-1.00,-1.0,2419
1948,1526948,16968,-672,1004,17010.96,29.47,-1.00,-1.0,2357
1953,1526953,17044,-652,772,17073.93,29.38,-1.00,-1.0,2447
1956,1526956,16964,-544,908,16996.99,29.47,-1.00,-1.0,2373
1959,1526959,17096,-504,928,17128.58,29.38,-1.00,-1.0,2419
1962,1526962,17064,-744,832,17100.46,29.47,-1.00,-1.0,2370
1965,1526965,17036,-608,980,17074.99,29.47,-1.00,-1.0,2419
1967,1526967,16980,-736,952,17022.59,29.38,-1.00,-1.0,2372
1970,1526970,17028,-496,956,17062.03,29.42,-1.00,-1.0,2373
1973,1526973,17064,-604,832,17094.95,29.42,-1.00,-1.0,2419
1976,1526976,17056,-572,892,17088.88,29.38,-1.00,-1.0,2369
1981,1526981,16924,-544,872,16955.18,29.38,-1.00,-1.0,2444
1983,1526983,16980,-664,912,17017.43,29.47,-1.00,-1.0,2365
1986,1526986,16892,-520,908,16924.38,29.42,-1.00,-1.0,2419
1989,1526989,16976,-648,912,17012.83,29.38,-1.00,-1.0,2369
1992,1526992,17080,-580,880,17112.49,29.33,-1.00,-1.0,2420
1994,1526994,17080,-536,792,17106.75,29.47,-1.00,-1.0,2370
1997,1526997,17068,-596,844,17099.24,29.52,-1.00,-1.0,2420
2000,1527000,16984,-588,868,17016.33,29.47,-1.00,-1.0,2369
2005,1527005,16968,-624,820,16999.26,29.38,-1.00,-1.0,2445
2007,1527007,17000,-652,780,17030.37,29.38,-1.00,-1.0,2373
2010,1527010,17068,-664,964,17108.09,29.42,-1.00,-1.0,2365
2013,1527013,17028,-584,928,17063.27,29.38,-1.00,-1.0,2427
2016,1527016,17016,-632,820,17047.46,29.42,-1.00,-1.0,2355
2018,1527018,17012,-492,760,17036.07,29.42,-1.00,-1.0,2420
2021,1527021,17004,-604,764,17031.87,29.52,-1.00,-1.0,2370
2024,1527024,16868,-664,924,16906.33,29.38,-1.00,-1.0,2428
2027,1527027,17020,-496,936,17052.93,29.42,-1.00,-1.0,2369
2032,1527032,17032,-520,888,17063.06,29.42,-1.00,-1.0,2440
2034,1527034,17008,-592,956,17045.13,29.33,-1.00,-1.0,2366
2037,1527037,17052,-704,960,17093.51,29.47,-1.00,-1.0,2419
2040,1527040,16860,-536,852,16890.02,29.52,-1.00,-1.0,2370
2043,1527043,17080,-552,920,17113.66,29.47,-1.00,-1.0,2419
2045,1527045,17088,-632,908,17123.77,29.42,-1.00,-1.0,2356
2048,1527048,17044,-624,948,17081.74,29.47,-1.00,-1.0,2375
2051,1527051,17052,-504,920,17084.24,29.52,-1.00,-1.0,2435
2054,1527054,17004,-560,916,17037.86,29.38,-1.00,-1.0,2370
2059,1527059,16984,-676,1040,17029.23,29.57,-1.00,-1.0,2440
2061,1527061,16920,-568,964,16956.96,29.52,-1.00,-1.0,2362
2064,1527064,17104,-668,736,17132.86,29.38,-1.00,-1.0,2419
2067,1527067,17020,-612,928,17056.26,29.42,-1.00,-1.0,2369
2070,1527070,16988,-720,932,17028.78,29.47,-1.00,-1.0,2420
2072,1527072,17000,-588,892,17033.54,29.52,-1.00,-1.0,2369
2075,1527075,17088,-624,940,17125.21,29.38,-1.00,-1.0,2419
2078,1527078,17140,-584,752,17166.43,29.42,-1.00,-1.0,2377
2083,1527083,17088,-664,964,17128.04,29.42,-1.00,-1.0,2447
2086,1527086,17132,-580,720,17156.93,29.42,-1.00,-1.0,2366
2088,1527088,17032,-572,876,17064.10,29.47,-1.00,-1.0,2373
2091,1527091,16984,-544,828,17012.87,29.42,-1.00,-1.0,2408
2094,1527094,17128,-560,868,17159.12,29.47,-1.00,-1.0,2368
2096,1527096,17060,-620,792,17089.62,29.42,-1.00,-1.0,2428
2099,1527099,17092,-540,900,17124.20,29.42,-1.00,-1.0,2426
2102,1527102,16940,-584,896,16973.73,29.42,-1.00,-1.0,2432
2105,1527105,16936,-592,748,16962.84,29.47,-1.00,-1.0,2385
2110,1527110,16984,-596,912,17018.91,29.42,-1.00,-1.0,2449
2113,1527113,17016,-568,896,17049.04,29.47,-1.00,-1.0,2366
2115,1527115,16984,-632,896,17019.36,29.42,-1.00,-1.0,2428
2118,1527118,17096,-516,744,17119.96,29.47,-1.00,-1.0,2378
2121,1527121,17028,-532,824,17056.22,29.42,-1.00,-1.0,2409
2124,1527124,17044,-552,1028,17083.89,29.47,-1.00,-1.0,2369
2126,1527126,17072,-624,1052,17115.76,29.33,-1.00,-1.0,2367
2129,1527129,17036,-628,868,17069.65,29.38,-1.00,-1.0,2420
2132,1527132,17156,-612,824,17186.68,29.42,-1.00,-1.0,2370
2136,1527136,17024,-624,860,17057.13,29.42,-1.00,-1.0,2453
2139,1527139,17048,-604,916,17083.27,29.42,-1.00,-1.0,2373
2142,1527142,17056,-532,844,17085.15,29.42,-1.00,-1.0,2420
2145,1527145,16952,-556,888,16984.35,29.42,-1.00,-1.0,2370
2147,1527147,17036,-624,976,17075.34,29.42,-1.00,-1.0,2428
2150,1527150,17016,-580,948,17052.25,29.42,-1.00,-1.0,2384
2153,1527153,16948,-572,932,16983.24,29.33,-1.00,-1.0,2423
2156,1527156,17052,-588,808,17081.26,29.42,-1.00,-1.0,2371
2161,1527161,16928,-576,784,16955.93,29.42,-1.00,-1.0,2448
2163,1527163,17044,-532,852,17073.57,29.52,-1.00,-1.0,2370
2166,1527166,17092,-600,816,17121.98,29.47,-1.00,-1.0,2365
2169,1527169,17112,-588,872,17144.29,29.38,-1.00,-1.0,2426
2172,1527172,16944,-560,872,16975.66,29.38,-1.00,-1.0,2368
2174,1527174,17032,-616,916,17067.73,29.57,-1.00,-1.0,2420
2177,1527177,17080,-536,924,17113.37,29.47,-1.00,-1.0,2370
2180,1527180,17024,-532,888,17055.44,29.38,-1.00,-1.0,2428
2183,1527183,16980,-576,780,17007.66,29.33,-1.00,-1.0,2370
2188,1527188,17036,-596,920,17071.23,29.33,-1.00,-1.0,2447
2190,1527190,17068,-552,832,17097.18,29.42,-1.00,-1.0,2377
2193,1527193,17076,-652,924,17113.41,29.42,-1.00,-1.0,2419
2196,1527196,17052,-680,860,17087.21,29.42,-1.00,-1.0,2370
2199,1527199,16996,-624,896,17031.04,29.47,-1.00,-1.0,2421
2201,1527201,17032,-600,884,17065.48,29.42,-1.00,-1.0,2374
2204,1527204,17212,-548,928,17245.71,29.38,-1.00,-1.0,2365
2207,1527207,17056,-668,972,17096.73,29.42,-1.00,-1.0,2421
2210,1527210,17084,-556,856,17114.46,29.38,-1.00,-1.0,2369
2215,1527215,17104,-644,980,17144.15,29.47,-1.00,-1.0,2443
2217,1527217,16952,-596,796,16981.14,29.47,-1.00,-1.0,2374
2220,1527220,17084,-624,836,17115.82,29.47,-1.00,-1.0,2420
2223,1527223,17080,-544,884,17111.51,29.38,-1.00,-1.0,2370
2226,1527226,17104,-588,904,17137.96,29.47,-1.00,-1.0,2423
2228,1527228,16972,-528,936,17005.99,29.38,-1.00,-1.0,2368
2231,1527231,17048,-644,772,17077.62,29.38,-1.00,-1.0,2419
2234,1527234,16960,-624,888,16994.69,29.38,-1.00,-1.0,2375
2239,1527239,16976,-484,916,17007.58,29.38,-1.00,-1.0,2443
2242,1527242,17068,-644,744,17096.34,29.42,-1.00,-1.0,2374
2244,1527244,17044,-572,888,17076.70,29.47,-1.00,-1.0,2365
2247,1527247,17064,-568,716,17088.46,29.42,-1.00,-1.0,2419
2250,1527250,16960,-608,980,16999.17,29.47,-1.00,-1.0,2369
2253,1527253,17020,-536,884,17051.37,29.42,-1.00,-1.0,2419
2255,1527255,17040,-596,864,17072.30,29.38,-1.00,-1.0,2369
2258,1527258,17084,-564,848,17114.33,29.42,-1.00,-1.0,2419
2261,1527261,17072,-532,824,17100.15,29.42,-1.00,-1.0,2369
2266,1527266,17056,-636,888,17090.94,29.47,-1.00,-1.0,2440
2269,1527269,16964,-640,1032,17007.41,29.47,-1.00,-1.0,2367
2271,1527271,17040,-580,820,17069.58,29.42,-1.00,-1.0,2419
2274,1527274,17064,-608,804,17093.75,29.38,-1.00,-1.0,2370
2277,1527277,17008,-596,884,17041.38,29.42,-1.00,-1.0,2426
2280,1527280,16996,-544,876,17027.25,29.47,-1.00,-1.0,2368
2282,1527282,17108,-596,792,17136.69,29.52,-1.00,-1.0,2364
2285,1527285,17080,-604,924,17115.64,29.47,-1.00,-1.0,2427
2288,1527288,17028,-472,1012,17064.57,29.52,-1.00,-1.0,2377
2293,1527293,16968,-532,932,17001.90,29.52,-1.00,-1.0,2446
2296,1527296,17036,-652,920,17073.28,29.42,-1.00,-1.0,2366
2298,1527298,17000,-508,764,17024.74,29.42,-1.00,-1.0,2422
2301,1527301,17064,-552,972,17100.57,29.52,-1.00,-1.0,2369
2304,1527304,17052,-576,1044,17093.64,29.42,-1.00,-1.0,2427
2307,1527307,17060,-624,852,17092.66,29.42,-1.00,-1.0,2368
2309,1527309,17012,-636,872,17046.20,29.42,-1.00,-1.0,2422
2312,1527312,17088,-596,948,17124.65,29.61,-1.00,-1.0,2369
2317,1527317,16976,-608,816,17006.47,29.42,-1.00,-1.0,2429
2320,1527320,16916,-572,820,16945.52,29.33,-1.00,-1.0,2366
2322,1527322,17060,-656,880,17095.27,29.47,-1.00,-1.0,2379
2325,1527325,17096,-620,964,17134.38,29.52,-1.00,-1.0,2421
2328,1527328,17076,-572,896,17109.05,29.38,-1.00,-1.0,2372
2331,1527331,16996,-592,832,17026.65,29.42,-1.00,-1.0,2422
2333,1527333,17000,-604,876,17033.27,29.47,-1.00,-1.0,2372
2336,1527336,17028,-612,868,17061.09,29.42,-1.00,-1.0,2419
2339,1527339,17044,-600,844,17075.43,29.47,-1.00,-1.0,2375
2344,1527344,17040,-596,880,17073.11,29.42,-1.00,-1.0,2440
2346,1527346,17008,-572,848,17038.73,29.42,-1.00,-1.0,2366
2349,1527349,17092,-648,924,17129.22,29.33,-1.00,-1.0,2419
2352,1527352,17068,-548,1000,17106.05,29.42,-1.00,-1.0,2370
2355,1527355,17040,-628,892,17074.88,29.47,-1.00,-1.0,2419
2357,1527357,16980,-576,880,17012.54,29.52,-1.00,-1.0,2370
2360,1527360,17076,-528,900,17107.85,29.38,-1.00,-1.0,2374
2363,1527363,17024,-612,808,17054.15,29.47,-1.00,-1.0,2408
2366,1527366,17044,-608,920,17079.64,29.47,-1.00,-1.0,2370
2371,1527371,16992,-636,876,17026.45,29.47,-1.00,-1.0,2447
2374,1527374,17040,-588,804,17069.09,29.47,-1.00,-1.0,2366
2376,1527376,17148,-512,852,17176.79,29.38,-1.00,-1.0,2431
2379,1527379,16948,-532,824,16976.36,29.38,-1.00,-1.0,2377
2382,1527382,17020,-588,876,17052.67,29.47,-1.00,-1.0,2413
2385,1527385,16984,-648,780,17014.25,29.38,-1.00,-1.0,2370
2387,1527387,17004,-680,876,17040.12,29.33,-1.00,-1.0,2430
2390,1527390,16960,-532,800,16987.19,29.47,-1.00,-1.0,2376
2395,1527395,17052,-548,780,17078.62,29.38,-1.00,-1.0,2440
2398,1527398,17040,-576,784,17067.75,29.42,-1.00,-1.0,2412
2401,1527401,17168,-516,868,17197.67,29.47,-1.00,-1.0,2365
2403,1527403,17024,-584,1052,17066.47,29.33,-1.00,-1.0,2440
2406,1527406,17144,-500,908,17175.31,29.42,-1.00,-1.0,2388
2409,1527409,16940,-644,988,16981.00,29.33,-1.00,-1.0,2418
2412,1527412,16988,-636,968,17027.44,29.42,-1.00,-1.0,2377
2414,1527414,17044,-480,800,17069.52,29.42,-1.00,-1.0,2405
2417,1527417,16996,-608,832,17027.21,29.42,-1.00,-1.0,2387
2422,1527422,17048,-640,720,17075.20,29.52,-1.00,-1.0,2437
2425,1527425,17000,-636,948,17038.29,29.47,-1.00,-1.0,2383
2428,1527428,17004,-544,932,17038.21,29.42,-1.00,-1.0,2442
2430,1527430,16984,-620,808,17014.51,29.42,-1.00,-1.0,2378
2433,1527433,16924,-612,956,16962.02,29.52,-1.00,-1.0,2418
2436,1527436,16940,-564,936,16975.21,29.42,-1.00,-1.0,2369
2439,1527439,17052,-552,972,17088.60,29.38,-1.00,-1.0,2366
2441,1527441,17044,-628,900,17079.29,29.57,-1.00,-1.0,2420
2444,1527444,17060,-552,852,17090.18,29.42,-1.00,-1.0,2369
2449,1527449,17084,-556,728,17108.54,29.42,-1.00,-1.0,2422
2452,1527452,17076,-532,964,17111.46,29.33,-1.00,-1.0,2371
2455,1527455,17072,-588,876,17104.57,29.47,-1.00,-1.0,2433
2457,1527457,17068,-656,812,17099.89,29.38,-1.00,-1.0,2369
2460,1527460,17032,-524,848,17061.15,29.38,-1.00,-1.0,2419
2463,1527463,17008,-652,820,17040.23,29.47,-1.00,-1.0,2370
2466,1527466,17040,-488,888,17070.10,29.38,-1.00,-1.0,2419
2468,1527468,17080,-584,840,17110.61,29.38,-1.00,-1.0,2374
2473,1527473,17016,-556,736,17040.98,29.47,-1.00,-1.0,2422
2476,1527476,16992,-576,892,17025.14,29.42,-1.00,-1.0,2373
2479,1527479,17064,-624,948,17101.70,29.47,-1.00,-1.0,2364
2481,1527481,16984,-608,664,17007.85,29.42,-1.00,-1.0,2442
2484,1527484,16988,-548,992,17025.76,29.42,-1.00,-1.0,2370
2487,1527487,17048,-624,888,17082.51,29.52,-1.00,-1.0,2434
2490,1527490,17044,-628,1008,17085.33,29.42,-1.00,-1.0,2370
2492,1527492,17076,-568,916,17109.98,29.52,-1.00,-1.0,2429
2495,1527495,16984,-600,896,17018.20,29.52,-1.00,-1.0,2377
2500,1527500,17096,-596,892,17129.63,29.42,-1.00,-1.0,2422
2503,1527503,16976,-560,1008,17015.12,29.47,-1.00,-1.0,2379
2506,1527506,16968,-632,952,17006.43,29.42,-1.00,-1.0,2441
2508,1527508,16968,-492,860,16996.90,29.42,-1.00,-1.0,2371
2511,1527511,17008,-664,864,17042.87,29.42,-1.00,-1.0,2429
2514,1527514,17008,-548,884,17039.77,29.42,-1.00,-1.0,2376
2517,1527517,17108,-552,956,17143.58,29.38,-1.00,-1.0,2367
2519,1527519,17028,-636,912,17064.26,29.38,-1.00,-1.0,2419
2522,1527522,17004,-580,1020,17044.44,29.47,-1.00,-1.0,2370
2528,1527528,16928,-628,856,16961.26,29.47,-1.00,-1.0,2422
2531,1527531,17052,-620,848,17084.33,29.38,-1.00,-1.0,2370
2533,1527533,16940,-640,860,16973.89,29.42,-1.00,-1.0,2435
2536,1527536,17004,-552,860,17034.68,29.38,-1.00,-1.0,2369
2539,1527539,16992,-624,916,17028.11,29.52,-1.00,-1.0,2427
2542,1527542,17124,-628,912,17159.76,29.47,-1.00,-1.0,2369
2544,1527544,17056,-548,888,17087.89,29.33,-1.00,-1.0,2422
2547,1527547,16976,-548,888,17008.04,29.42,-1.00,-1.0,2369
2552,1527552,17052,-664,788,17083.11,29.38,-1.00,-1.0,2422
2554,1527554,17152,-588,812,17181.28,29.38,-1.00,-1.0,2378
2557,1527557,16988,-624,992,17028.38,29.42,-1.00,-1.0,2365
2560,1527560,17028,-596,832,17058.73,29.38,-1.00,-1.0,2462
2563,1527563,16988,-536,772,17013.98,29.38,-1.00,-1.0,2369
2566,1527566,17148,-744,772,17181.48,29.42,-1.00,-1.0,2425
2568,1527568,17044,-660,864,17078.64,29.38,-1.00,-1.0,2368
2571,1527571,17060,-520,892,17091.22,29.42,-1.00,-1.0,2426
2574,1527574,17024,-568,828,17053.59,29.38,-1.00,-1.0,2369
2579,1527579,16984,-620,816,17014.89,29.47,-1.00,-1.0,2436
2581,1527581,16976,-644,944,17014.42,29.47,-1.00,-1.0,2376
2584,1527584,17024,-668,928,17062.36,29.38,-1.00,-1.0,2435
2587,1527587,17008,-532,948,17042.71,29.38,-1.00,-1.0,2371
2590,1527590,17016,-660,848,17049.90,29.47,-1.00,-1.0,2422
2592,1527592,17012,-572,916,17046.24,29.38,-1.00,-1.0,2379
2595,1527595,17052,-684,940,17091.58,29.42,-1.00,-1.0,2366
2598,1527598,17040,-608,900,17074.58,29.33,-1.00,-1.0,2430
2601,1527601,16960,-640,860,16993.85,29.52,-1.00,-1.0,2356
2606,1527606,17032,-608,996,17071.93,29.42,-1.00,-1.0,2428
2608,1527608,17104,-560,940,17138.96,29.47,-1.00,-1.0,2366
2611,1527611,16996,-648,832,17028.69,29.42,-1.00,-1.0,2434
2614,1527614,17052,-552,924,17085.94,29.42,-1.00,-1.0,2371
2617,1527617,17000,-544,808,17027.88,29.42,-1.00,-1.0,2420
2619,1527619,17068,-612,912,17103.30,29.42,-1.00,-1.0,2370
2622,1527622,17104,-500,1116,17147.66,29.42,-1.00,-1.0,2422
2625,1527625,17092,-592,976,17130.08,29.42,-1.00,-1.0,2370
2630,1527630,17048,-564,860,17078.99,29.47,-1.00,-1.0,2430
2632,1527632,16984,-576,956,17020.63,29.38,-1.00,-1.0,2377
2635,1527635,17048,-544,1008,17086.44,29.52,-1.00,-1.0,2365
2638,1527638,16984,-540,876,17015.15,29.42,-1.00,-1.0,2444
2641,1527641,17112,-580,912,17146.10,29.42,-1.00,-1.0,2365
2643,1527643,17032,-596,848,17063.51,29.47,-1.00,-1.0,2422
2646,1527646,17072,-508,896,17103.04,29.52,-1.00,-1.0,2367
2649,1527649,16980,-596,788,17008.72,29.42,-1.00,-1.0,2431
2652,1527652,16956,-656,936,16994.48,29.42,-1.00,-1.0,2365
2657,1527657,17028,-592,860,17059.98,29.42,-1.00,-1.0,2428
2659,1527659,16940,-672,1056,16986.18,29.42,-1.00,-1.0,2362
2662,1527662,16964,-564,984,17001.87,29.52,-1.00,-1.0,2434
2665,1527665,16952,-540,980,16988.89,29.42,-1.00,-1.0,2370
2668,1527668,16996,-556,828,17025.24,29.42,-1.00,-1.0,2420
2670,1527670,17016,-552,884,17047.89,29.33,-1.00,-1.0,2370
2673,1527673,17020,-444,900,17049.56,29.47,-1.00,-1.0,2378
2676,1527676,17104,-612,888,17137.97,29.47,-1.00,-1.0,2434
2678,1527678,16992,-632,940,17029.71,29.47,-1.00,-1.0,2375
2683,1527683,17000,-608,924,17035.95,29.38,-1.00,-1.0,2428
2686,1527686,17044,-556,940,17078.95,29.42,-1.00,-1.0,2367
2689,1527689,17008,-544,840,17037.42,29.38,-1.00,-1.0,2442
2692,1527692,17036,-556,928,17070.31,29.47,-1.00,-1.0,2369
2694,1527694,17020,-620,832,17051.60,29.38,-1.00,-1.0,2426
2697,1527697,17052,-572,808,17080.71,29.38,-1.00,-1.0,2374
2700,1527700,17028,-552,816,17056.47,29.38,-1.00,-1.0,2426
2703,1527703,16984,-600,972,17022.37,29.47,-1.00,-1.0,2371
2708,1527708,17112,-584,884,17144.77,29.47,-1.00,-1.0,2427
2710,1527710,17012,-520,932,17045.44,29.42,-1.00,-1.0,2367
2713,1527713,17044,-604,900,17078.43,29.47,-1.00,-1.0,2375
2716,1527716,17068,-660,844,17101.60,29.42,-1.00,-1.0,2446
2718,1527718,17024,-608,788,17053.07,29.42,-1.00,-1.0,2382
2721,1527721,17040,-548,912,17073.19,29.42,-1.00,-1.0,2420
2724,1527724,16904,-560,828,16933.53,29.42,-1.00,-1.0,2371
2727,1527727,17068,-632,788,17097.87,29.52,-1.00,-1.0,2422
2729,1527729,17000,-684,864,17035.68,29.42,-1.00,-1.0,2374
2734,1527734,16972,-612,972,17010.82,29.47,-1.00,-1.0,2427
2737,1527737,16956,-656,832,16989.07,29.42,-1.00,-1.0,2371
2740,1527740,17096,-604,776,17124.26,29.52,-1.00,-1.0,2443
2743,1527743,16936,-592,964,16973.74,29.42,-1.00,-1.0,2367
2745,1527745,17096,-664,888,17131.92,29.47,-1.00,-1.0,2366
2748,1527748,17076,-560,944,17111.24,29.42,-1.00,-1.0,2431
2751,1527751,17104,-584,856,17135.36,29.38,-1.00,-1.0,2370
2753,1527753,17056,-564,844,17086.18,29.42,-1.00,-1.0,2429
2756,1527756,17068,-592,856,17099.70,29.47,-1.00,-1.0,2358
2761,1527761,17068,-588,908,17102.25,29.52,-1.00,-1.0,2430
2764,1527764,17128,-592,840,17158.80,29.52,-1.00,-1.0,2368
2766,1527766,17100,-704,756,17131.18,29.52,-1.00,-1.0,2442
2769,1527769,16980,-620,932,17016.86,29.42,-1.00,-1.0,2377
2772,1527772,17128,-596,872,17160.54,29.47,-1.00,-1.0,2423
2775,1527775,17008,-564,844,17038.27,29.42,-1.00,-1.0,2374
2778,1527778,17024,-568,872,17055.78,29.47,-1.00,-1.0,2423
2780,1527780,17088,-564,756,17114.01,29.47,-1.00,-1.0,2372
2783,1527783,16976,-572,996,17014.81,29.47,-1.00,-1.0,2368
2788,1527788,17036,-608,904,17070.80,29.57,-1.00,-1.0,2428
2791,1527791,17024,-632,892,17059.06,29.38,-1.00,-1.0,2371
2794,1527794,17012,-616,912,17047.56,29.47,-1.00,-1.0,2444
2797,1527797,17068,-644,792,17098.50,29.38,-1.00,-1.0,2366
2799,1527799,17052,-572,924,17086.59,29.42,-1.00,-1.0,2422
2802,1527802,17136,-668,904,17172.83,29.47,-1.00,-1.0,2370
2805,1527805,17040,-608,884,17073.74,29.52,-1.00,-1.0,2428
2808,1527808,16956,-636,916,16992.63,29.47,-1.00,-1.0,2369
2813,1527813,17072,-588,812,17101.41,29.38,-1.00,-1.0,2427
2815,1527815,17008,-616,876,17041.68,29.47,-1.00,-1.0,2366
2818,1527818,17072,-552,848,17101.96,29.38,-1.00,-1.0,2435
2821,1527821,17032,-588,996,17071.23,29.47,-1.00,-1.0,2370
2823,1527823,17028,-672,972,17068.95,29.52,-1.00,-1.0,2367
2826,1527826,17072,-632,848,17104.73,29.42,-1.00,-1.0,2435
2829,1527829,16976,-560,820,17005.02,29.42,-1.00,-1.0,2379
2832,1527832,17056,-592,852,17087.53,29.42,-1.00,-1.0,2431
2834,1527834,17016,-616,896,17050.71,29.42,-1.00,-1.0,2375
2839,1527839,16996,-584,920,17030.90,29.42,-1.00,-1.0,2430
2842,1527842,17036,-604,964,17073.94,29.42,-1.00,-1.0,2370
2845,1527845,17072,-660,976,17112.61,29.42,-1.00,-1.0,2442
2848,1527848,17124,-624,1004,17164.75,29.52,-1.00,-1.0,2368
2850,1527850,17024,-612,876,17057.51,29.47,-1.00,-1.0,2430
2853,1527853,17004,-596,1000,17043.80,29.52,-1.00,-1.0,2377
2856,1527856,17044,-628,964,17082.79,29.38,-1.00,-1.0,2423
2859,1527859,17020,-504,992,17056.33,29.42,-1.00,-1.0,2370
2861,1527861,17020,-660,996,17061.89,29.42,-1.00,-1.0,2368
2866,1527866,16964,-700,844,16999.40,29.42,-1.00,-1.0,2431
2869,1527869,17080,-548,940,17114.62,29.42,-1.00,-1.0,2367
2872,1527872,17008,-532,868,17038.44,29.42,-1.00,-1.0,2443
2875,1527875,17140,-472,916,17170.95,29.42,-1.00,-1.0,2369
2877,1527877,17036,-600,776,17064.22,29.47,-1.00,-1.0,2429
2880,1527880,17096,-572,836,17125.98,29.42,-1.00,-1.0,2370
2883,1527883,17076,-632,864,17109.52,29.47,-1.00,-1.0,2427
2886,1527886,16912,-548,800,16939.78,29.42,-1.00,-1.0,2371
2891,1527891,17052,-556,996,17090.11,29.42,-1.00,-1.0,2427
2893,1527893,17104,-600,860,17136.12,29.42,-1.00,-1.0,2367
2896,1527896,17000,-624,900,17035.24,29.52,-1.00,-1.0,2434
2899,1527899,17036,-468,972,17070.12,29.42,-1.00,-1.0,2378
2901,1527901,17048,-600,860,17080.22,29.38,-1.00,-1.0,2375
2904,1527904,17084,-544,876,17115.09,29.42,-1.00,-1.0,2420
2907,1527907,17132,-636,828,17163.79,29.47,-1.00,-1.0,2371
2910,1527910,17004,-552,840,17033.68,29.52,-1.00,-1.0,2422
2912,1527912,17020,-600,892,17053.92,29.47,-1.00,-1.0,2374
2917,1527917,17044,-568,984,17081.83,29.38,-1.00,-1.0,2436
2920,1527920,17024,-612,848,17056.09,29.47,-1.00,-1.0,2381
2923,1527923,17032,-520,984,17068.32,29.38,-1.00,-1.0,2436
2926,1527926,17128,-636,936,17165.34,29.38,-1.00,-1.0,2371
2929,1527929,17016,-692,884,17052.99,29.42,-1.00,-1.0,2419
2931,1527931,17048,-524,1028,17087.00,29.47,-1.00,-1.0,2373
2934,1527934,17080,-536,960,17115.35,29.42,-1.00,-1.0,2420
2937,1527937,17068,-512,832,17095.94,29.47,-1.00,-1.0,2371
2939,1527939,17088,-644,896,17123.59,29.38,-1.00,-1.0,2370
2944,1527944,17084,-616,1020,17125.50,29.52,-1.00,-1.0,2427
2947,1527947,16936,-532,928,16969.75,29.52,-1.00,-1.0,2366
2950,1527950,17028,-628,668,17052.67,29.42,-1.00,-1.0,2442
2953,1527953,17064,-548,852,17094.04,29.42,-1.00,-1.0,2369
2955,1527955,17096,-580,964,17132.98,29.38,-1.00,-1.0,2420
2958,1527958,16904,-540,724,16928.11,29.42,-1.00,-1.0,2371
2961,1527961,17092,-616,908,17127.18,29.47,-1.00,-1.0,2422
2964,1527964,17000,-616,824,17031.10,29.42,-1.00,-1.0,2369
2968,1527968,17076,-556,828,17105.10,29.47,-1.00,-1.0,2432
2971,1527971,17096,-576,956,17132.39,29.47,-1.00,-1.0,2366
2974,1527974,16952,-584,924,16987.21,29.47,-1.00,-1.0,2442
2977,1527977,17068,-640,956,17106.73,29.47,-1.00,-1.0,2369
2979,1527979,16916,-560,912,16949.82,29.33,-1.00,-1.0,2366
2982,1527982,17108,-564,964,17144.42,29.42,-1.00,-1.0,2422
2985,1527985,17088,-652,976,17128.26,29.42,-1.00,-1.0,2370
2988,1527988,17080,-564,808,17108.40,29.42,-1.00,-1.0,2420
2991,1527991,17004,-612,948,17041.40,29.52,-1.00,-1.0,2370
2996,1527996,16992,-568,956,17028.35,29.52,-1.00,-1.0,2430
2998,1527998,17068,-584,836,17098.44,29.42,-1.00,-1.0,2374
3001,1528001,17012,-636,876,17046.41,29.52,-1.00,-1.0,2434
3004,1528004,16968,-632,1004,17009.42,29.42,-1.00,-1.0,2370
3007,1528007,17072,-536,832,17100.66,29.52,-1.00,-1.0,2420
3009,1528009,17004,-644,912,17040.61,29.42,-1.00,-1.0,2370
3012,1528012,17008,-568,832,17037.81,29.42,-1.00,-1.0,2420
3015,1528015,17052,-616,912,17087.48,29.52,-1.00,-1.0,2370
3018,1528018,17112,-600,860,17144.10,29.42,-1.00,-1.0,2367
3023,1528023,17008,-660,836,17041.32,29.42,-1.00,-1.0,2427
3025,1528025,17064,-560,840,17093.84,29.42,-1.00,-1.0,2369
3028,1528028,17124,-588,832,17154.28,29.38,-1.00,-1.0,2434
3031,1528031,17000,-536,752,17025.06,29.42,-1.00,-1.0,2370
3034,1528034,16980,-520,804,17006.97,29.33,-1.00,-1.0,2420
3036,1528036,17028,-680,920,17066.39,29.52,-1.00,-1.0,2370
3039,1528039,17036,-564,1052,17077.77,29.38,-1.00,-1.0,2420
3042,1528042,17068,-604,1048,17110.81,29.42,-1.00,-1.0,2371
3047,1528047,17032,-540,840,17061.25,29.52,-1.00,-1.0,2431
3049,1528049,17076,-608,756,17103.54,29.33,-1.00,-1.0,2375
3052,1528052,16936,-616,876,16969.82,29.42,-1.00,-1.0,2435
3055,1528055,16964,-648,964,17003.72,29.42,-1.00,-1.0,2371
3058,1528058,16996,-564,940,17031.32,29.38,-1.00,-1.0,2367
3060,1528060,17104,-584,972,17141.55,29.38,-1.00,-1.0,2421
3063,1528063,16972,-584,872,17004.42,29.47,-1.00,-1.0,2371
3066,1528066,17000,-584,972,17037.78,29.38,-1.00,-1.0,2423
3069,1528069,17028,-548,860,17058.51,29.38,-1.00,-1.0,2370
3074,1528074,16944,-588,920,16979.14,29.47,-1.00,-1.0,2427
3076,1528076,17028,-544,812,17056.03,29.38,-1.00,-1.0,2367
3079,1528079,17012,-720,900,17051.00,29.38,-1.00,-1.0,2435
3082,1528082,17024,-608,1004,17064.41,29.38,-1.00,-1.0,2374
3085,1528085,17084,-548,768,17110.03,29.42,-1.00,-1.0,2419
3087,1528087,17152,-612,944,17188.86,29.47,-1.00,-1.0,2373
3090,1528090,17040,-620,944,17077.39,29.42,-1.00,-1.0,2420
3093,1528093,17044,-628,888,17078.67,29.38,-1.00,-1.0,2378
3096,1528096,17176,-588,896,17209.40,29.52,-1.00,-1.0,2367
3101,1528101,17032,-684,712,17060.59,29.38,-1.00,-1.0,2427
3103,1528103,17016,-508,784,17041.62,29.38,-1.00,-1.0,2354
3106,1528106,17048,-556,1004,17086.59,29.33,-1.00,-1.0,2458
3109,1528109,17060,-520,836,17088.38,29.42,-1.00,-1.0,2369
3112,1528112,17036,-596,1028,17077.39,29.38,-1.00,-1.0,2424
3114,1528114,17036,-616,976,17075.05,29.42,-1.00,-1.0,2369
3117,1528117,17068,-600,924,17103.52,29.28,-1.00,-1.0,2423
3120,1528120,17044,-608,952,17081.39,29.38,-1.00,-1.0,2369
3125,1528125,17012,-628,856,17045.10,29.42,-1.00,-1.0,2439
3128,1528128,16932,-624,796,16962.18,29.42,-1.00,-1.0,2373
3130,1528130,17048,-612,824,17078.87,29.42,-1.00,-1.0,2436
3133,1528133,17020,-656,824,17052.56,29.38,-1.00,-1.0,2377
3136,1528136,17004,-520,892,17035.32,29.47,-1.00,-1.0,2374
3139,1528139,17072,-536,896,17103.90,29.42,-1.00,-1.0,2420
3141,1528141,16964,-604,932,17000.32,29.33,-1.00,-1.0,2377
3144,1528144,17084,-564,792,17111.65,29.52,-1.00,-1.0,2420
3147,1528147,17104,-588,808,17133.17,29.42,-1.00,-1.0,2376
3152,1528152,17012,-620,860,17045.00,29.33,-1.00,-1.0,2432
3154,1528154,16964,-588,728,16989.79,29.42,-1.00,-1.0,2369
3157,1528157,17012,-580,904,17045.87,29.57,-1.00,-1.0,2442
3160,1528160,17168,-624,1032,17210.31,29.42,-1.00,-1.0,2377
3163,1528163,17100,-540,908,17132.60,29.47,-1.00,-1.0,2431
3165,1528165,16980,-620,856,17012.86,29.42,-1.00,-1.0,2371
3168,1528168,17120,-596,864,17152.15,29.47,-1.00,-1.0,2430
3171,1528171,17060,-580,956,17096.61,29.38,-1.00,-1.0,2378
3174,1528174,17020,-592,820,17050.02,29.47,-1.00,-1.0,2369
3178,1528178,17036,-548,948,17071.15,29.42,-1.00,-1.0,2434
3181,1528181,16952,-636,864,16985.91,29.42,-1.00,-1.0,2366
3184,1528184,16996,-560,892,17028.60,29.33,-1.00,-1.0,2435
3187,1528187,16960,-624,892,16994.90,29.42,-1.00,-1.0,2368
3189,1528189,17068,-668,948,17107.35,29.42,-1.00,-1.0,2433
3192,1528192,17008,-544,912,17041.12,29.42,-1.00,-1.0,2370
3195,1528195,16992,-664,876,17027.52,29.47,-1.00,-1.0,2423
3198,1528198,17040,-588,944,17076.25,29.38,-1.00,-1.0,2370
3203,1528203,17072,-544,980,17108.76,29.47,-1.00,-1.0,2435
3205,1528205,17004,-552,1036,17044.47,29.38,-1.00,-1.0,2374
3208,1528208,17132,-612,972,17170.46,29.42,-1.00,-1.0,2428
3211,1528211,17060,-664,964,17100.11,29.47,-1.00,-1.0,2371
3214,1528214,17084,-568,844,17114.26,29.42,-1.00,-1.0,2353
3216,1528216,17088,-592,872,17120.47,29.52,-1.00,-1.0,2419
3219,1528219,17012,-604,804,17041.70,29.42,-1.00,-1.0,2369
3222,1528222,17064,-500,904,17095.24,29.42,-1.00,-1.0,2421
3225,1528225,16996,-612,800,17025.82,29.42,-1.00,-1.0,2369
3230,1528230,17060,-680,864,17095.39,29.42,-1.00,-1.0,2431
3232,1528232,17052,-616,892,17086.42,29.38,-1.00,-1.0,2374
3235,1528235,17180,-648,848,17213.12,29.42,-1.00,-1.0,2428
3238,1528238,17020,-520,884,17050.87,29.52,-1.00,-1.0,2370
3241,1528241,17040,-624,772,17068.89,29.42,-1.00,-1.0,2421
3244,1528244,17076,-640,956,17114.71,29.42,-1.00,-1.0,2368
3246,1528246,17000,-584,864,17031.96,29.42,-1.00,-1.0,2419
3249,1528249,17048,-552,1016,17087.17,29.42,-1.00,-1.0,2372
3252,1528252,16948,-684,808,16981.03,29.42,-1.00,-1.0,2366
3257,1528257,16968,-612,944,17005.26,29.42,-1.00,-1.0,2431
3259,1528259,17096,-556,956,17131.73,29.42,-1.00,-1.0,2368
3262,1528262,17124,-484,884,17153.63,29.42,-1.00,-1.0,2415
3265,1528265,17024,-512,832,17052.01,29.33,-1.00,-1.0,2370
3268,1528268,17012,-608,852,17044.17,29.42,-1.00,-1.0,2421
3270,1528270,17044,-516,980,17079.95,29.33,-1.00,-1.0,2369
3273,1528273,16956,-604,948,16993.22,29.42,-1.00,-1.0,2406
3276,1528276,17032,-556,908,17065.25,29.42,-1.00,-1.0,2374
3281,1528281,17088,-660,828,17120.78,29.52,-1.00,-1.0,2435
3284,1528284,17064,-576,992,17102.51,29.47,-1.00,-1.0,2371
3287,1528287,17104,-672,740,17133.18,29.52,-1.00,-1.0,2431
3289,1528289,17024,-668,912,17061.49,29.33,-1.00,-1.0,2372
3292,1528292,17040,-620,824,17071.17,29.42,-1.00,-1.0,2374
3295,1528295,17024,-604,924,17059.75,29.47,-1.00,-1.0,2419
3297,1528297,17056,-632,764,17084.80,29.42,-1.00,-1.0,2371
3300,1528300,17036,-500,956,17070.13,29.47,-1.00,-1.0,2419
3303,1528303,17096,-612,896,17130.40,29.47,-1.00,-1.0,2377
3308,1528308,17016,-560,876,17047.73,29.38,-1.00,-1.0,2439
3311,1528311,17008,-560,880,17039.96,29.42,-1.00,-1.0,2365
3313,1528313,16984,-556,888,17016.29,29.47,-1.00,-1.0,2431
3316,1528316,17012,-556,832,17041.41,29.47,-1.00,-1.0,2371
3319,1528319,17092,-588,828,17122.14,29.47,-1.00,-1.0,2429
3322,1528322,17036,-552,912,17069.32,29.47,-1.00,-1.0,2369
3324,1528324,17024,-596,896,17057.98,29.47,-1.00,-1.0,2420
3327,1528327,17052,-584,836,17082.47,29.38,-1.00,-1.0,2369
3330,1528330,17108,-556,816,17136.47,29.47,-1.00,-1.0,2377
3335,1528335,17084,-496,1076,17125.04,29.47,-1.00,-1.0,2434
3338,1528338,16888,-520,880,16918.90,29.47,-1.00,-1.0,2366
3340,1528340,17104,-464,888,17133.32,29.47,-1.00,-1.0,2430
3343,1528343,16968,-528,936,17002.00,29.38,-1.00,-1.0,2369
3346,1528346,17048,-552,808,17076.06,29.42,-1.00,-1.0,2426
3349,1528349,17048,-644,880,17082.84,29.47,-1.00,-1.0,2371
3351,1528351,17020,-528,800,17046.97,29.52,-1.00,-1.0,2434
3354,1528354,17084,-604,972,17122.29,29.47,-1.00,-1.0,2369
3360,1528360,17100,-608,832,17131.02,29.42,-1.00,-1.0,2446
3362,1528362,16996,-536,824,17024.40,29.42,-1.00,-1.0,2380
3365,1528365,17088,-540,824,17116.38,29.42,-1.00,-1.0,2429
3368,1528368,16988,-656,944,17026.85,29.47,-1.00,-1.0,2413
3371,1528371,17004,-600,864,17036.51,29.42,-1.00,-1.0,2367
3374,1528374,16952,-504,808,16978.73,29.47,-1.00,-1.0,2431
3376,1528376,16936,-716,804,16970.19,29.42,-1.00,-1.0,2375
3379,1528379,17008,-616,940,17045.09,29.38,-1.00,-1.0,2415
3382,1528382,17096,-580,928,17130.99,29.38,-1.00,-1.0,2375
3386,1528386,17028,-564,836,17057.84,29.42,-1.00,-1.0,2434
3389,1528389,17040,-584,940,17075.90,29.42,-1.00,-1.0,2373
3392,1528392,17000,-564,924,17034.43,29.47,-1.00,-1.0,2429
3395,1528395,17088,-656,796,17119.10,29.42,-1.00,-1.0,2372
3398,1528398,17040,-580,888,17072.98,29.38,-1.00,-1.0,2420
3400,1528400,17076,-568,764,17102.52,29.42,-1.00,-1.0,2370
3403,1528403,17044,-648,748,17072.71,29.47,-1.00,-1.0,2420
3406,1528406,17072,-584,920,17106.74,29.47,-1.00,-1.0,2369
3408,1528408,17040,-608,988,17079.44,29.38,-1.00,-1.0,2367
3414,1528414,17012,-624,840,17044.15,29.47,-1.00,-1.0,2434
3416,1528416,17064,-552,928,17098.13,29.42,-1.00,-1.0,2368
3419,1528419,17068,-616,752,17095.66,29.47,-1.00,-1.0,2428
3422,1528422,17000,-656,976,17040.62,29.47,-1.00,-1.0,2370
3425,1528425,17160,-552,832,17189.02,29.42,-1.00,-1.0,2453
3427,1528427,16956,-616,908,16991.46,29.52,-1.00,-1.0,2373
3430,1528430,17024,-648,864,17058.22,29.42,-1.00,-1.0,2430
3433,1528433,17036,-500,704,17057.87,29.52,-1.00,-1.0,2368
3438,1528438,17036,-612,780,17064.82,29.42,-1.00,-1.0,2440
3441,1528441,17004,-612,1016,17045.32,29.42,-1.00,-1.0,2367
3443,1528443,17044,-612,772,17072.45,29.33,-1.00,-1.0,2440
3446,1528446,17036,-564,912,17069.71,29.33,-1.00,-1.0,2379
3449,1528449,17128,-668,920,17165.69,29.47,-1.00,-1.0,2367
3452,1528452,17020,-592,860,17051.99,29.38,-1.00,-1.0,2421
3454,1528454,17132,-624,844,17164.12,29.38,-1.00,-1.0,2370
3457,1528457,17108,-572,960,17144.46,29.33,-1.00,-1.0,2421
3460,1528460,17096,-524,956,17130.72,29.47,-1.00,-1.0,2370
3465,1528465,16936,-624,732,16963.29,29.47,-1.00,-1.0,2437
3467,1528467,17080,-544,792,17107.00,29.38,-1.00,-1.0,2375
3470,1528470,17184,-536,928,17217.38,29.38,-1.00,-1.0,2429
3473,1528473,17048,-456,872,17076.38,29.47,-1.00,-1.0,2359
3476,1528476,17104,-688,872,17140.03,29.38,-1.00,-1.0,2422
3478,1528478,16992,-628,956,17030.46,29.47,-1.00,-1.0,2373
3481,1528481,17020,-612,836,17051.51,29.47,-1.00,-1.0,2421
3484,1528484,17048,-580,928,17083.09,29.47,-1.00,-1.0,2358
3487,1528487,17024,-532,816,17051.85,29.42,-1.00,-1.0,2367
3492,1528492,17076,-636,916,17112.37,29.47,-1.00,-1.0,2434
3494,1528494,17100,-604,916,17135.16,29.47,-1.00,-1.0,2369
3497,1528497,17000,-688,852,17035.24,29.38,-1.00,-1.0,2411
3500,1528500,16956,-536,816,16984.08,29.47,-1.00,-1.0,2371
3503,1528503,17152,-512,884,17182.39,29.42,-1.00,-1.0,2426
3505,1528505,17052,-548,944,17086.90,29.57,-1.00,-1.0,2371
3508,1528508,17100,-580,804,17128.71,29.42,-1.00,-1.0,2421
3511,1528511,17084,-672,828,17117.25,29.47,-1.00,-1.0,2370
3516,1528516,17028,-568,816,17057.00,29.47,-1.00,-1.0,2440
3518,1528518,17092,-456,788,17116.23,29.47,-1.00,-1.0,2375
3521,1528521,17020,-520,704,17042.49,29.38,-1.00,-1.0,2423
3524,1528524,16896,-580,940,16932.06,29.38,-1.00,-1.0,2373
3527,1528527,17052,-556,972,17088.73,29.42,-1.00,-1.0,2367
3529,1528529,17060,-612,920,17095.75,29.42,-1.00,-1.0,2427
3532,1528532,17016,-512,908,17047.90,29.42,-1.00,-1.0,2370
3535,1528535,17008,-612,824,17038.94,29.42,-1.00,-1.0,2423
3538,1528538,17004,-668,952,17043.72,29.42,-1.00,-1.0,2370
3543,1528543,17024,-548,812,17052.16,29.33,-1.00,-1.0,2432
3545,1528545,17076,-536,992,17113.19,29.47,-1.00,-1.0,2367
3548,1528548,17000,-528,756,17024.99,29.42,-1.00,-1.0,2429
3551,1528551,16964,-628,780,16993.53,29.42,-1.00,-1.0,2370
3554,1528554,17124,-620,820,17154.83,29.42,-1.00,-1.0,2420
3556,1528556,17008,-556,796,17035.69,29.42,-1.00,-1.0,2371
3559,1528559,17104,-636,888,17138.84,29.42,-1.00,-1.0,2419
3562,1528562,16960,-592,956,16997.23,29.42,-1.00,-1.0,2370
3564,1528564,17036,-632,672,17060.96,29.47,-1.00,-1.0,2369
3569,1528569,17060,-640,860,17093.65,29.47,-1.00,-1.0,2448
3572,1528572,16940,-616,832,16971.60,29.38,-1.00,-1.0,2375
3575,1528575,17072,-656,868,17106.63,29.42,-1.00,-1.0,2441
3577,1528577,17040,-608,920,17075.64,29.38,-1.00,-1.0,2376
3580,1528580,17044,-560,884,17076.09,29.52,-1.00,-1.0,2420
3583,1528583,16920,-572,952,16956.41,29.38,-1.00,-1.0,2374
3586,1528586,16976,-712,884,17013.91,29.42,-1.00,-1.0,2422
3588,1528588,16988,-584,892,17021.42,29.52,-1.00,-1.0,2374
3593,1528593,17032,-628,800,17062.34,29.38,-1.00,-1.0,2431
3596,1528596,17004,-564,880,17036.09,29.47,-1.00,-1.0,2375
3599,1528599,17028,-492,916,17059.72,29.47,-1.00,-1.0,2429
3601,1528601,17084,-596,868,17116.42,29.47,-1.00,-1.0,2373
3604,1528604,17052,-596,988,17090.99,29.42,-1.00,-1.0,2370
3607,1528607,16980,-604,720,17005.99,29.52,-1.00,-1.0,2421
3609,1528609,17100,-612,904,17134.81,29.42,-1.00,-1.0,2374
3612,1528612,17032,-540,960,17067.58,29.52,-1.00,-1.0,2420
3615,1528615,17080,-508,984,17115.86,29.47,-1.00,-1.0,2386
3620,1528620,17020,-628,900,17055.35,29.47,-1.00,-1.0,2432
3623,1528623,17032,-532,900,17064.06,29.47,-1.00,-1.0,2376
3626,1528626,17108,-652,1016,17150.54,29.38,-1.00,-1.0,2432
3628,1528628,16964,-588,952,17000.86,29.38,-1.00,-1.0,2371
3631,1528631,17152,-668,884,17187.75,29.42,-1.00,-1.0,2435
3634,1528634,17096,-584,872,17128.18,29.47,-1.00,-1.0,2380
3637,1528637,17080,-508,912,17111.87,29.52,-1.00,-1.0,2431
3639,1528639,17020,-612,1000,17060.33,29.47,-1.00,-1.0,2374
3642,1528642,17080,-508,868,17109.58,29.42,-1.00,-1.0,2375
3647,1528647,17116,-576,864,17147.47,29.42,-1.00,-1.0,2448
3650,1528650,17048,-468,964,17081.65,29.47,-1.00,-1.0,2375
3653,1528653,17104,-676,948,17143.58,29.42,-1.00,-1.0,2446
3655,1528655,17088,-552,864,17118.73,29.42,-1.00,-1.0,2377
3658,1528658,17088,-480,888,17117.79,29.42,-1.00,-1.0,2420
3661,1528661,17000,-676,824,17033.38,29.42,-1.00,-1.0,2373
3664,1528664,17160,-556,764,17186.00,29.52,-1.00,-1.0,2421
3666,1528666,17096,-632,956,17134.37,29.52,-1.00,-1.0,2377
3671,1528671,17072,-564,784,17099.30,29.52,-1.00,-1.0,2440
3674,1528674,16972,-568,948,17007.94,29.52,-1.00,-1.0,2385
3677,1528677,17080,-580,916,17114.38,29.42,-1.00,-1.0,2429
3680,1528680,17144,-644,892,17179.27,29.47,-1.00,-1.0,2419
3682,1528682,16980,-532,860,17010.09,29.52,-1.00,-1.0,2368
3685,1528685,17156,-668,972,17196.49,29.47,-1.00,-1.0,2431
3688,1528688,17056,-608,916,17091.40,29.42,-1.00,-1.0,2375
3691,1528691,17052,-580,1056,17094.51,29.47,-1.00,-1.0,2423
3694,1528694,16952,-612,924,16988.19,29.47,-1.00,-1.0,2374
3699,1528699,17052,-568,864,17083.32,29.38,-1.00,-1.0,2432
3701,1528701,17024,-680,904,17061.54,29.38,-1.00,-1.0,2366
3704,1528704,17116,-604,868,17148.63,29.57,-1.00,-1.0,2429
3707,1528707,17056,-556,940,17090.93,29.47,-1.00,-1.0,2369
3710,1528710,17036,-656,868,17070.71,29.47,-1.00,-1.0,2422
3712,1528712,17016,-556,808,17044.24,29.47,-1.00,-1.0,2369
3715,1528715,17048,-512,784,17073.70,29.47,-1.00,-1.0,2423
3718,1528718,17096,-624,932,17132.75,29.47,-1.00,-1.0,2375
3720,1528720,16940,-656,844,16973.69,29.42,-1.00,-1.0,2369
3725,1528725,17052,-620,872,17085.54,29.42,-1.00,-1.0,2434
3728,1528728,17028,-516,900,17059.57,29.47,-1.00,-1.0,2366
3731,1528731,17008,-644,852,17041.50,29.42,-1.00,-1.0,2434
3734,1528734,17056,-612,1000,17096.25,29.52,-1.00,-1.0,2369
3736,1528736,17048,-640,844,17080.87,29.52,-1.00,-1.0,2437
3739,1528739,17016,-644,984,17056.59,29.42,-1.00,-1.0,2370
3742,1528742,17048,-596,900,17082.14,29.42,-1.00,-1.0,2427
3745,1528745,16940,-536,892,16971.93,29.52,-1.00,-1.0,2369
3750,1528750,17104,-556,648,17125.30,29.42,-1.00,-1.0,2431
3752,1528752,16952,-616,860,16984.97,29.42,-1.00,-1.0,2370
3755,1528755,16952,-548,940,16986.88,29.42,-1.00,-1.0,2433
3758,1528758,17004,-488,824,17030.95,29.42,-1.00,-1.0,2377
3760,1528760,17028,-600,880,17061.28,29.38,-1.00,-1.0,2374
3763,1528763,17044,-616,828,17075.21,29.47,-1.00,-1.0,2421
3766,1528766,17032,-508,948,17065.93,29.47,-1.00,-1.0,2374
3769,1528769,17052,-556,832,17081.34,29.47,-1.00,-1.0,2420
3771,1528771,17064,-568,832,17093.71,29.57,-1.00,-1.0,2353
3776,1528776,17044,-520,908,17076.09,29.52,-1.00,-1.0,2431
3779,1528779,17112,-592,808,17141.29,29.28,-1.00,-1.0,2354
3782,1528782,17068,-552,980,17105.02,29.42,-1.00,-1.0,2435
3785,1528785,17044,-568,804,17072.40,29.47,-1.00,-1.0,2366
3787,1528787,17072,-580,836,17102.29,29.52,-1.00,-1.0,2421
3790,1528790,17032,-580,840,17062.56,29.47,-1.00,-1.0,2370
3793,1528793,16944,-520,884,16975.01,29.52,-1.00,-1.0,2427
3796,1528796,17068,-604,924,17103.66,29.42,-1.00,-1.0,2369
3798,1528798,17060,-632,872,17093.96,29.52,-1.00,-1.0,2365
3803,1528803,17084,-548,792,17111.12,29.38,-1.00,-1.0,2434
3806,1528806,16940,-612,880,16973.88,29.42,-1.00,-1.0,2423
3809,1528809,16988,-620,880,17022.07,29.38,-1.00,-1.0,2441
3811,1528811,17012,-568,1004,17051.06,29.47,-1.00,-1.0,2379
3814,1528814,17052,-440,724,17073.03,29.47,-1.00,-1.0,2418
3817,1528817,17024,-636,904,17059.84,29.38,-1.00,-1.0,2373
3820,1528820,17012,-580,676,17035.30,29.47,-1.00,-1.0,2418
3822,1528822,16992,-572,876,17024.18,29.38,-1.00,-1.0,2377
3828,1528828,16980,-640,960,17019.15,29.47,-1.00,-1.0,2422
3830,1528830,17052,-512,768,17076.96,29.42,-1.00,-1.0,2373
3833,1528833,17092,-604,868,17124.68,29.38,-1.00,-1.0,2441
3836,1528836,17032,-500,924,17064.37,29.42,-1.00,-1.0,2387
3839,1528839,17068,-484,792,17093.22,29.52,-1.00,-1.0,2369
3841,1528841,17040,-556,868,17071.15,29.52,-1.00,-1.0,2420
3844,1528844,17004,-604,816,17034.28,29.42,-1.00,-1.0,2370
3847,1528847,17060,-560,912,17093.54,29.42,-1.00,-1.0,2426
3850,1528850,17108,-640,1024,17150.56,29.42,-1.00,-1.0,2368
3854,1528854,16980,-572,892,17013.03,29.47,-1.00,-1.0,2430
3857,1528857,17060,-520,868,17089.98,29.38,-1.00,-1.0,2385
3860,1528860,17060,-668,1000,17102.33,29.42,-1.00,-1.0,2432
3863,1528863,16976,-544,916,17009.40,29.47,-1.00,-1.0,2371
3866,1528866,17000,-484,836,17027.42,29.42,-1.00,-1.0,2420
3868,1528868,17016,-508,864,17045.49,29.52,-1.00,-1.0,2370
3871,1528871,16956,-540,852,16985.98,29.33,-1.00,-1.0,2406
3874,1528874,17040,-600,992,17079.39,29.42,-1.00,-1.0,2372
3876,1528876,17048,-512,844,17076.56,29.38,-1.00,-1.0,2376
3881,1528881,17068,-516,880,17098.46,29.38,-1.00,-1.0,2423
3884,1528884,16996,-616,916,17031.81,29.42,-1.00,-1.0,2377
3887,1528887,17056,-576,840,17086.38,29.47,-1.00,-1.0,2434
3890,1528890,17168,-568,944,17203.31,29.38,-1.00,-1.0,2368
3892,1528892,17132,-676,908,17169.36,29.38,-1.00,-1.0,2432
3895,1528895,17052,-556,784,17079.07,29.38,-1.00,-1.0,2370
3898,1528898,16968,-552,824,16996.96,29.47,-1.00,-1.0,2427
3901,1528901,17052,-616,816,17082.62,29.38,-1.00,-1.0,2370
3906,1528906,17060,-580,824,17089.73,29.47,-1.00,-1.0,2422
3908,1528908,17048,-568,852,17078.72,29.42,-1.00,-1.0,2358
3911,1528911,17056,-564,936,17090.97,29.38,-1.00,-1.0,2426
3914,1528914,16992,-644,928,17029.50,29.42,-1.00,-1.0,2376
3916,1528916,17012,-556,820,17040.82,29.42,-1.00,-1.0,2377
3919,1528919,17124,-580,904,17157.65,29.42,-1.00,-1.0,2420
3922,1528922,17024,-560,980,17061.38,29.42,-1.00,-1.0,2371
3925,1528925,17028,-640,824,17059.93,29.33,-1.00,-1.0,2420
3927,1528927,17016,-516,920,17048.66,29.42,-1.00,-1.0,2374
3932,1528932,17020,-584,1036,17061.50,29.52,-1.00,-1.0,2428
3935,1528935,17044,-608,980,17082.97,29.47,-1.00,-1.0,2383
3938,1528938,17068,-600,920,17103.30,29.52,-1.00,-1.0,2431
3941,1528941,17112,-644,824,17143.93,29.42,-1.00,-1.0,2374
3943,1528943,17024,-596,824,17054.35,29.42,-1.00,-1.0,2409
3946,1528946,17032,-628,820,17063.29,29.52,-1.00,-1.0,2385
3949,1528949,17156,-696,948,17196.26,29.42,-1.00,-1.0,2419
3952,1528952,17068,-524,848,17097.08,29.33,-1.00,-1.0,2372
3954,1528954,17112,-640,812,17143.21,29.42,-1.00,-1.0,2353
3959,1528959,17004,-580,1000,17043.25,29.42,-1.00,-1.0,2431
3962,1528962,17072,-640,780,17101.79,29.42,-1.00,-1.0,2378
3965,1528965,17060,-468,804,17085.35,29.42,-1.00,-1.0,2435
3968,1528968,17040,-612,888,17074.09,29.42,-1.00,-1.0,2373
3970,1528970,17100,-672,816,17132.64,29.52,-1.00,-1.0,2408
3973,1528973,16988,-592,1000,17027.70,29.52,-1.00,-1.0,2385
3976,1528976,16984,-568,904,17017.52,29.52,-1.00,-1.0,2420
3979,1528979,17144,-684,768,17174.82,29.42,-1.00,-1.0,2373
3984,1528984,17036,-584,816,17065.53,29.47,-1.00,-1.0,2425
3986,1528986,16980,-580,892,17013.30,29.42,-1.00,-1.0,2364
3989,1528989,17160,-680,816,17192.84,29.57,-1.00,-1.0,2427
3992,1528992,17048,-688,940,17087.75,29.42,-1.00,-1.0,2371
3994,1528994,17128,-500,984,17163.53,29.47,-1.00,-1.0,2366
3997,1528997,16972,-588,968,17009.75,29.42,-1.00,-1.0,2419
4000,1529000,17044,-716,936,17084.69,29.38,-1.00,-1.0,2377
4003,1529003,17080,-608,900,17114.50,29.33,-1.00,-1.0,2419
4006,1529006,17024,-532,924,17057.36,29.47,-1.00,-1.0,2373
4010,1529010,16908,-708,824,16942.87,29.42,-1.00,-1.0,2428
4013,1529013,17040,-588,912,17074.52,29.52,-1.00,-1.0,2363
4016,1529016,17076,-604,956,17113.40,29.52,-1.00,-1.0,2432
4018,1529018,17028,-584,856,17059.50,29.33,-1.00,-1.0,2375
4021,1529021,17160,-664,896,17196.20,29.38,-1.00,-1.0,2420
4024,1529024,16988,-624,972,17027.22,29.42,-1.00,-1.0,2369
4027,1529027,17040,-592,824,17070.18,29.47,-1.00,-1.0,2424
4030,1529030,17092,-672,956,17131.90,29.38,-1.00,-1.0,2366
4033,1529033,17120,-652,816,17151.83,29.47,-1.00,-1.0,2365
4038,1529038,16980,-604,948,17017.17,29.47,-1.00,-1.0,2422
4040,1529040,17016,-584,884,17048.95,29.38,-1.00,-1.0,2377
4043,1529043,17040,-640,896,17075.54,29.38,-1.00,-1.0,2430
4046,1529046,16960,-580,872,16992.30,29.38,-1.00,-1.0,2371
4049,1529049,17120,-552,924,17153.80,29.47,-1.00,-1.0,2407
4051,1529051,16980,-592,1036,17021.87,29.38,-1.00,-1.0,2370
4054,1529054,16940,-572,840,16970.46,29.33,-1.00,-1.0,2420
4057,1529057,17008,-564,964,17044.63,29.38,-1.00,-1.0,2369
4062,1529062,17032,-568,916,17066.07,29.38,-1.00,-1.0,2423
4064,1529064,17024,-536,860,17054.13,29.47,-1.00,-1.0,2384
4067,1529067,17064,-608,844,17095.67,29.47,-1.00,-1.0,2427
4070,1529070,17008,-528,816,17035.75,29.47,-1.00,-1.0,2372
4073,1529073,16984,-552,900,17016.79,29.42,-1.00,-1.0,2366
4075,1529075,17092,-596,856,17123.80,29.42,-1.00,-1.0,2435
4078,1529078,16932,-512,1036,16971.39,29.42,-1.00,-1.0,2373
4081,1529081,17092,-540,800,17119.23,29.47,-1.00,-1.0,2425
4084,1529084,17036,-592,1072,17079.96,29.42,-1.00,-1.0,2370
4089,1529089,16984,-684,768,17015.11,29.33,-1.00,-1.0,2425
4091,1529091,17060,-580,804,17088.78,29.42,-1.00,-1.0,2379
4094,1529094,17036,-556,944,17071.19,29.42,-1.00,-1.0,2427
4097,1529097,16988,-596,820,17018.22,29.52,-1.00,-1.0,2377
4100,1529100,17040,-564,724,17064.70,29.42,-1.00,-1.0,2420
4102,1529102,17132,-592,920,17166.89,29.42,-1.00,-1.0,2374
4105,1529105,17012,-628,808,17042.75,29.38,-1.00,-1.0,2433
4108,1529108,17076,-596,1000,17115.64,29.42,-1.00,-1.0,2381
4111,1529111,17060,-648,828,17092.37,29.52,-1.00,-1.0,2369
4116,1529116,17040,-656,868,17074.70,29.42,-1.00,-1.0,2422
4118,1529118,17040,-572,968,17077.05,29.42,-1.00,-1.0,2380
4121,1529121,17080,-632,976,17119.53,29.47,-1.00,-1.0,2443
4124,1529124,17076,-684,836,17110.13,29.47,-1.00,-1.0,2376
4127,1529127,16992,-640,832,17024.39,29.47,-1.00,-1.0,2435
4129,1529129,17008,-616,928,17044.43,29.47,-1.00,-1.0,2379
4132,1529132,17008,-632,972,17047.47,29.47,-1.00,-1.0,2419
4135,1529135,16984,-604,960,17021.83,29.38,-1.00,-1.0,2373
4140,1529140,17016,-524,944,17050.22,29.47,-1.00,-1.0,2429
4143,1529143,17064,-576,864,17095.57,29.42,-1.00,-1.0,2376
4145,1529145,17060,-620,888,17094.34,29.47,-1.00,-1.0,2437
4148,1529148,17028,-600,920,17063.39,29.47,-1.00,-1.0,2377
4151,1529151,16976,-596,740,17002.57,29.42,-1.00,-1.0,2366
4154,1529154,16912,-612,968,16950.73,29.42,-1.00,-1.0,2419
4156,1529156,17000,-528,904,17032.21,29.42,-1.00,-1.0,2369
4159,1529159,17048,-508,800,17074.32,29.42,-1.00,-1.0,2419
4162,1529162,17112,-516,920,17144.48,29.42,-1.00,-1.0,2370
4167,1529167,17084,-504,976,17119.28,29.42,-1.00,-1.0,2423
4169,1529169,17072,-596,900,17106.09,29.38,-1.00,-1.0,2381
4172,1529172,16996,-532,912,17028.76,29.52,-1.00,-1.0,2426
4175,1529175,16980,-668,888,17016.32,29.42,-1.00,-1.0,2370
4178,1529178,17032,-648,900,17068.07,29.42,-1.00,-1.0,2421
4180,1529180,17028,-484,812,17054.22,29.42,-1.00,-1.0,2368
4183,1529183,16976,-572,836,17006.20,29.61,-1.00,-1.0,2406
4186,1529186,17000,-548,908,17033.05,29.52,-1.00,-1.0,2375
4189,1529189,17088,-656,892,17123.84,29.52,-1.00,-1.0,2366
4194,1529194,16992,-648,960,17031.43,29.42,-1.00,-1.0,2422
4197,1529197,17068,-520,824,17095.79,29.52,-1.00,-1.0,2377
4200,1529200,17008,-572,876,17040.15,29.47,-1.00,-1.0,2434
4203,1529203,17084,-624,980,17123.46,29.42,-1.00,-1.0,2368
4205,1529205,16996,-560,816,17024.79,29.38,-1.00,-1.0,2421
4208,1529208,17120,-704,868,17156.44,29.52,-1.00,-1.0,2368
4211,1529211,17028,-756,836,17065.26,29.47,-1.00,-1.0,2426
4214,1529214,17072,-520,864,17101.76,29.42,-1.00,-1.0,2369
4218,1529218,17028,-564,832,17057.64,29.42,-1.00,-1.0,2422
4221,1529221,17000,-456,896,17029.70,29.42,-1.00,-1.0,2373
4224,1529224,17064,-504,848,17092.49,29.42,-1.00,-1.0,2427
4226,1529226,17060,-600,784,17088.54,29.42,-1.00,-1.0,2369
4229,1529229,16976,-504,764,17000.66,29.47,-1.00,-1.0,2365
4232,1529232,17060,-580,968,17097.28,29.38,-1.00,-1.0,2432
4235,1529235,17052,-508,752,17076.13,29.42,-1.00,-1.0,2356
4237,1529237,17012,-604,836,17043.23,29.47,-1.00,-1.0,2422
4240,1529240,17124,-644,916,17160.57,29.38,-1.00,-1.0,2370
4245,1529245,17120,-592,892,17153.44,29.47,-1.00,-1.0,2423
4248,1529248,17100,-544,900,17132.31,29.42,-1.00,-1.0,2372
4251,1529251,17060,-576,888,17092.80,29.38,-1.00,-1.0,2431
4253,1529253,17060,-652,848,17093.50,29.47,-1.00,-1.0,2370
4256,1529256,17076,-556,768,17102.30,29.47,-1.00,-1.0,2420
4259,1529259,16964,-608,852,16996.26,29.47,-1.00,-1.0,2370
4261,1529261,16976,-552,856,17006.53,29.42,-1.00,-1.0,2377
4264,1529264,16968,-560,860,16999.01,29.42,-1.00,-1.0,2419
4267,1529267,16956,-580,984,16994.43,29.42,-1.00,-1.0,2372
4272,1529272,17008,-616,840,17039.87,29.47,-1.00,-1.0,2422
4275,1529275,17036,-640,912,17072.39,29.38,-1.00,-1.0,2378
4278,1529278,17060,-524,772,17085.50,29.57,-1.00,-1.0,2428
4280,1529280,17012,-716,924,17052.11,29.38,-1.00,-1.0,2373
4283,1529283,17108,-592,904,17142.09,29.52,-1.00,-1.0,2427
4286,1529286,16956,-588,824,16986.19,29.47,-1.00,-1.0,2376
4289,1529289,17052,-440,872,17079.95,29.42,-1.00,-1.0,2423
4291,1529291,17044,-588,940,17080.03,29.38,-1.00,-1.0,2372
4296,1529296,17004,-556,804,17032.07,29.47,-1.00,-1.0,2424
4299,1529299,17068,-652,952,17106.96,29.47,-1.00,-1.0,2370
4302,1529302,17056,-604,788,17084.87,29.42,-1.00,-1.0,2370
4304,1529304,17008,-604,892,17042.08,29.52,-1.00,-1.0,2435
4307,1529307,17112,-588,816,17141.53,29.42,-1.00,-1.0,2384
4310,1529310,17120,-484,860,17148.42,29.47,-1.00,-1.0,2420
4313,1529313,16924,-644,796,16954.94,29.52,-1.00,-1.0,2369
4315,1529315,17056,-624,928,17092.62,29.52,-1.00,-1.0,2408
4318,1529318,17016,-644,764,17045.31,29.42,-1.00,-1.0,2385
4323,1529323,17072,-592,764,17099.34,29.42,-1.00,-1.0,2422
4326,1529326,17076,-568,848,17106.47,29.52,-1.00,-1.0,2384
4329,1529329,17040,-608,836,17071.33,29.42,-1.00,-1.0,2445
4331,1529331,17020,-564,1008,17059.15,29.42,-1.00,-1.0,2373
4334,1529334,17024,-576,992,17062.60,29.57,-1.00,-1.0,2430
4337,1529337,17060,-608,980,17098.94,29.42,-1.00,-1.0,2377
4340,1529340,17032,-576,936,17067.42,29.47,-1.00,-1.0,2366
4342,1529342,17104,-604,912,17138.94,29.42,-1.00,-1.0,2420
4345,1529345,16996,-604,884,17029.69,29.47,-1.00,-1.0,2370
4350,1529350,17044,-544,880,17075.37,29.47,-1.00,-1.0,2424
4353,1529353,16988,-636,832,17020.25,29.42,-1.00,-1.0,2377
4356,1529356,17004,-568,820,17033.23,29.47,-1.00,-1.0,2432
4358,1529358,17056,-472,712,17077.38,29.38,-1.00,-1.0,2372
4361,1529361,17028,-568,840,17058.17,29.47,-1.00,-1.0,2408
4364,1529364,17044,-624,864,17077.29,29.38,-1.00,-1.0,2372
4367,1529367,17048,-604,884,17081.59,29.47,-1.00,-1.0,2419
4369,1529369,17072,-596,780,17100.20,29.38,-1.00,-1.0,2372
4374,1529374,17120,-564,940,17155.06,29.47,-1.00,-1.0,2435
4377,1529377,16916,-508,956,16950.61,29.42,-1.00,-1.0,2377
4380,1529380,17104,-528,928,17137.29,29.47,-1.00,-1.0,2370
4382,1529382,16976,-476,972,17010.46,29.42,-1.00,-1.0,2427
4385,1529385,17100,-516,940,17133.59,29.38,-1.00,-1.0,2370
4388,1529388,17120,-508,852,17148.71,29.42,-1.00,-1.0,2427
4391,1529391,17072,-548,988,17109.34,29.42,-1.00,-1.0,2368
4393,1529393,17056,-552,948,17091.24,29.52,-1.00,-1.0,2420
4396,1529396,17020,-568,864,17051.38,29.42,-1.00,-1.0,2370
4401,1529401,16964,-684,932,17003.35,29.42,-1.00,-1.0,2425
4404,1529404,17044,-616,888,17078.23,29.42,-1.00,-1.0,2376
4406,1529406,17048,-588,980,17086.27,29.33,-1.00,-1.0,2428
4409,1529409,17112,-588,924,17147.01,29.42,-1.00,-1.0,2370
4412,1529412,17040,-592,1000,17079.58,29.38,-1.00,-1.0,2426
4415,1529415,17064,-584,1012,17103.96,29.33,-1.00,-1.0,2370
4417,1529417,17060,-584,828,17090.06,29.38,-1.00,-1.0,2369
4420,1529420,17044,-624,908,17079.57,29.47,-1.00,-1.0,2420
4423,1529423,17104,-604,848,17135.66,29.47,-1.00,-1.0,2372
4428,1529428,17084,-680,832,17117.76,29.42,-1.00,-1.0,2422
4430,1529430,17052,-492,860,17080.76,29.52,-1.00,-1.0,2376
4433,1529433,16948,-584,888,16981.29,29.47,-1.00,-1.0,2443
4436,1529436,17000,-668,920,17037.98,29.38,-1.00,-1.0,2376
4439,1529439,16932,-668,800,16964.04,29.38,-1.00,-1.0,2431
4441,1529441,16988,-604,888,17021.91,29.52,-1.00,-1.0,2373
4444,1529444,16984,-628,880,17018.37,29.47,-1.00,-1.0,2416
4447,1529447,17060,-564,880,17091.99,29.47,-1.00,-1.0,2370
4452,1529452,17100,-696,784,17132.11,29.47,-1.00,-1.0,2425
4455,1529455,16968,-616,844,17000.14,29.38,-1.00,-1.0,2380
4457,1529457,17016,-456,948,17048.49,29.42,-1.00,-1.0,2365
4460,1529460,17024,-676,888,17060.54,29.42,-1.00,-1.0,2427
4463,1529463,16932,-620,852,16964.76,29.42,-1.00,-1.0,2369
4466,1529466,17028,-620,812,17058.62,29.42,-1.00,-1.0,2419
4468,1529468,17048,-596,896,17081.93,29.42,-1.00,-1.0,2370
4471,1529471,17072,-560,896,17104.67,29.57,-1.00,-1.0,2420
4474,1529474,16920,-568,896,16953.22,29.42,-1.00,-1.0,2358
4479,1529479,17136,-616,768,17164.26,29.52,-1.00,-1.0,2422
4482,1529482,17016,-644,888,17051.32,29.38,-1.00,-1.0,2383
4485,1529485,16964,-652,816,16996.12,29.42,-1.00,-1.0,2428
4487,1529487,17052,-540,860,17082.21,29.42,-1.00,-1.0,2413
4490,1529490,17012,-608,960,17049.91,29.47,-1.00,-1.0,2419
4493,1529493,17016,-720,820,17050.96,29.47,-1.00,-1.0,2382
4496,1529496,17064,-552,864,17094.77,29.33,-1.00,-1.0,2372
4498,1529498,16976,-560,888,17008.43,29.42,-1.00,-1.0,2416
4501,1529501,17112,-576,896,17145.12,29.42,-1.00,-1.0,2375
4506,1529506,16964,-664,740,16993.11,29.52,-1.00,-1.0,2423
4509,1529509,17096,-592,944,17132.27,29.42,-1.00,-1.0,2378
4512,1529512,17028,-568,876,17059.98,29.42,-1.00,-1.0,2428
4514,1529514,16976,-572,876,17008.21,29.42,-1.00,-1.0,2370
4517,1529517,17044,-552,852,17074.21,29.38,-1.00,-1.0,2420
4520,1529520,16956,-644,1132,17005.94,29.42,-1.00,-1.0,2370
4523,1529523,17020,-576,864,17051.65,29.47,-1.00,-1.0,2420
4525,1529525,16996,-572,772,17023.14,29.42,-1.00,-1.0,2370
4530,1529530,17036,-608,808,17065.98,29.42,-1.00,-1.0,2422
4533,1529533,17100,-632,936,17137.26,29.42,-1.00,-1.0,2370
4536,1529536,17060,-532,792,17086.66,29.47,-1.00,-1.0,2370
4538,1529538,16968,-676,868,17003.63,29.47,-1.00,-1.0,2429
4541,1529541,17092,-584,868,17123.99,29.38,-1.00,-1.0,2370
4544,1529544,16984,-604,944,17020.93,29.47,-1.00,-1.0,2426
4547,1529547,17052,-608,812,17082.15,29.47,-1.00,-1.0,2369
4549,1529549,17048,-576,980,17085.86,29.52,-1.00,-1.0,2428
4552,1529552,17100,-592,656,17122.81,29.38,-1.00,-1.0,2369
4557,1529557,17040,-556,1004,17078.61,29.47,-1.00,-1.0,2422
4560,1529560,16976,-508,936,17009.37,29.38,-1.00,-1.0,2377
4563,1529563,16956,-612,892,16990.47,29.47,-1.00,-1.0,2427
4565,1529565,17072,-616,760,17100.01,29.47,-1.00,-1.0,2370
4568,1529568,16984,-640,824,17016.02,29.47,-1.00,-1.0,2419
4571,1529571,17032,-576,920,17066.55,29.47,-1.00,-1.0,2377
4573,1529573,17108,-484,824,17134.67,29.42,-1.00,-1.0,2375
4576,1529576,17060,-680,908,17097.67,29.52,-1.00,-1.0,2419
4579,1529579,17008,-544,836,17037.22,29.38,-1.00,-1.0,2370
4584,1529584,16960,-596,892,16993.89,29.38,-1.00,-1.0,2422
4587,1529587,17028,-620,928,17064.54,29.47,-1.00,-1.0,2377
4590,1529590,16960,-488,1000,16996.46,29.33,-1.00,-1.0,2427
4592,1529592,17096,-604,840,17127.28,29.47,-1.00,-1.0,2370
4595,1529595,17060,-648,888,17095.38,29.52,-1.00,-1.0,2418
4598,1529598,17012,-592,944,17048.45,29.38,-1.00,-1.0,2377
4601,1529601,16996,-588,768,17023.50,29.52,-1.00,-1.0,2419
4603,1529603,17072,-544,824,17100.53,29.47,-1.00,-1.0,2370
4608,1529608,17064,-512,936,17097.32,29.42,-1.00,-1.0,2430
4611,1529611,16964,-584,784,16992.14,29.42,-1.00,-1.0,2366
4613,1529613,17028,-592,1020,17068.79,29.52,-1.00,-1.0,2372
4616,1529616,17032,-664,832,17065.23,29.47,-1.00,-1.0,2419
4619,1529619,17080,-644,884,17114.98,29.47,-1.00,-1.0,2372
4622,1529622,16964,-572,920,16998.55,29.38,-1.00,-1.0,2423
4625,1529625,17060,-604,872,17092.95,29.47,-1.00,-1.0,2368
4627,1529627,17136,-520,924,17168.77,29.47,-1.00,-1.0,2420
4630,1529630,17076,-584,872,17108.22,29.42,-1.00,-1.0,2385
4635,1529635,16976,-612,776,17004.74,29.52,-1.00,-1.0,2429
4638,1529638,16928,-624,968,16967.13,29.47,-1.00,-1.0,2376
4640,1529640,17096,-636,948,17134.07,29.42,-1.00,-1.0,2429
4643,1529643,17040,-564,800,17068.09,29.42,-1.00,-1.0,2369
4646,1529646,17020,-568,864,17051.38,29.42,-1.00,-1.0,2426
4649,1529649,16972,-584,800,17000.88,29.42,-1.00,-1.0,2370
4651,1529651,17052,-572,888,17084.68,29.42,-1.00,-1.0,2369
4654,1529654,17100,-548,904,17132.64,29.52,-1.00,-1.0,2419
4657,1529657,17068,-616,800,17097.84,29.42,-1.00,-1.0,2377
4662,1529662,16968,-564,856,16998.94,29.52,-1.00,-1.0,2437
4665,1529665,17012,-668,892,17048.46,29.42,-1.00,-1.0,2384
4668,1529668,16964,-496,872,16993.64,29.38,-1.00,-1.0,2434
4670,1529670,17004,-572,860,17035.34,29.47,-1.00,-1.0,2376
4673,1529673,17100,-580,964,17136.97,29.47,-1.00,-1.0,2420
4676,1529676,16980,-664,844,17013.92,29.47,-1.00,-1.0,2370
4679,1529679,17060,-620,944,17097.34,29.47,-1.00,-1.0,2421
4681,1529681,17092,-532,852,17121.49,29.47,-1.00,-1.0,2374
4687,1529687,17008,-700,780,17040.26,29.42,-1.00,-1.0,2422
4689,1529689,16992,-548,880,17023.59,29.52,-1.00,-1.0,2376
4692,1529692,17112,-524,796,17138.52,29.47,-1.00,-1.0,2365
4695,1529695,17092,-568,768,17118.67,29.42,-1.00,-1.0,2428
4697,1529697,17008,-664,840,17041.67,29.47,-1.00,-1.0,2368
4700,1529700,17108,-532,772,17133.67,29.52,-1.00,-1.0,2419
4703,1529703,17020,-544,896,17052.25,29.47,-1.00,-1.0,2372
4706,1529706,17028,-584,780,17055.86,29.42,-1.00,-1.0,2421
4709,1529709,16992,-632,932,17029.27,29.38,-1.00,-1.0,2368
4713,1529713,17080,-628,812,17110.82,29.47,-1.00,-1.0,2430
4716,1529716,17100,-568,852,17130.63,29.42,-1.00,-1.0,2391
4719,1529719,17024,-552,928,17058.21,29.47,-1.00,-1.0,2427
4722,1529722,17020,-592,1012,17060.33,29.47,-1.00,-1.0,2371
4725,1529725,16980,-560,924,17014.34,29.52,-1.00,-1.0,2419
4727,1529727,17068,-524,776,17093.66,29.47,-1.00,-1.0,2372
4730,1529730,17012,-584,856,17043.53,29.42,-1.00,-1.0,2373
4733,1529733,16984,-604,880,17017.50,29.57,-1.00,-1.0,2420
4735,1529735,16984,-616,980,17023.40,29.42,-1.00,-1.0,2369
4740,1529740,17032,-632,972,17071.42,29.52,-1.00,-1.0,2422
4743,1529743,17044,-540,832,17072.84,29.38,-1.00,-1.0,2377
4746,1529746,17116,-564,1008,17154.93,29.52,-1.00,-1.0,2436
4749,1529749,17028,-608,964,17066.10,29.52,-1.00,-1.0,2365
4751,1529751,16968,-564,832,16997.75,29.52,-1.00,-1.0,2420
4754,1529754,17032,-580,868,17063.96,29.52,-1.00,-1.0,2369
4757,1529757,17088,-624,924,17124.34,29.42,-1.00,-1.0,2427
4760,1529760,17028,-524,980,17064.22,29.42,-1.00,-1.0,2369
4764,1529764,16996,-628,880,17030.35,29.42,-1.00,-1.0,2409
4767,1529767,17020,-656,868,17054.74,29.47,-1.00,-1.0,2383
4770,1529770,17084,-628,760,17112.42,29.33,-1.00,-1.0,2374
4773,1529773,17076,-612,1012,17116.91,29.47,-1.00,-1.0,2427
4775,1529775,16940,-648,936,16978.21,29.52,-1.00,-1.0,2372
4778,1529778,17072,-588,1024,17112.79,29.47,-1.00,-1.0,2427
4781,1529781,16984,-596,808,17013.65,29.38,-1.00,-1.0,2372
4784,1529784,17080,-572,824,17109.43,29.47,-1.00,-1.0,2422
4786,1529786,17000,-588,872,17032.50,29.47,-1.00,-1.0,2371
4791,1529791,17048,-656,928,17085.84,29.42,-1.00,-1.0,2422
4794,1529794,16992,-492,920,17024.00,29.42,-1.00,-1.0,2375
4797,1529797,17068,-592,824,17098.13,29.47,-1.00,-1.0,2429
4800,1529800,16976,-612,1000,17016.44,29.42,-1.00,-1.0,2368
4802,1529802,17112,-528,988,17148.63,29.38,-1.00,-1.0,2421
4805,1529805,17052,-616,1136,17100.90,29.52,-1.00,-1.0,2370
4808,1529808,16912,-544,1024,16951.70,29.38,-1.00,-1.0,2372
4810,1529810,16952,-480,756,16975.64,29.42,-1.00,-1.0,2422
4813,1529813,16956,-584,940,16992.07,29.47,-1.00,-1.0,2373
4818,1529818,17120,-576,960,17156.57,29.38,-1.00,-1.0,2438
4821,1529821,16956,-596,868,16988.66,29.38,-1.00,-1.0,2384
4824,1529824,17088,-620,932,17124.62,29.52,-1.00,-1.0,2436
4827,1529827,17104,-444,908,17133.84,29.42,-1.00,-1.0,2419
4829,1529829,17028,-556,816,17056.61,29.42,-1.00,-1.0,2435
4832,1529832,16968,-508,792,16994.07,29.38,-1.00,-1.0,2389
4835,1529835,17056,-652,892,17091.75,29.42,-1.00,-1.0,2416
4838,1529838,17060,-644,956,17098.90,29.47,-1.00,-1.0,2379
4842,1529842,17044,-556,844,17073.94,29.47,-1.00,-1.0,2423
4845,1529845,17096,-688,972,17137.43,29.42,-1.00,-1.0,2376
4848,1529848,16956,-556,912,16989.61,29.47,-1.00,-1.0,2369
4850,1529850,17080,-624,856,17112.82,29.33,-1.00,-1.0,2435
4853,1529853,17008,-592,968,17045.81,29.52,-1.00,-1.0,2377
4856,1529856,17164,-612,972,17202.39,29.42,-1.00,-1.0,2421
4859,1529859,16984,-568,920,17018.38,29.42,-1.00,-1.0,2372
4862,1529862,17024,-556,828,17053.19,29.42,-1.00,-1.0,2424
4864,1529864,16908,-620,992,16948.42,29.42,-1.00,-1.0,2372
4869,1529869,17076,-580,700,17100.18,29.57,-1.00,-1.0,2425
4872,1529872,17052,-628,800,17082.30,29.38,-1.00,-1.0,2376
4875,1529875,17056,-596,924,17091.40,29.52,-1.00,-1.0,2434
4878,1529878,17028,-608,964,17066.10,29.38,-1.00,-1.0,2368
4880,1529880,16964,-612,864,16997.01,29.42,-1.00,-1.0,2430
4883,1529883,17060,-568,908,17093.59,29.38,-1.00,-1.0,2369
4886,1529886,16956,-468,944,16988.71,29.42,-1.00,-1.0,2366
4889,1529889,17000,-520,756,17024.74,29.47,-1.00,-1.0,2419
4891,1529891,17012,-556,884,17044.02,29.42,-1.00,-1.0,2378
4896,1529896,17028,-508,756,17052.34,29.42,-1.00,-1.0,2436
4899,1529899,16924,-600,936,16960.48,29.52,-1.00,-1.0,2370
4902,1529902,17072,-532,892,17103.56,29.42,-1.00,-1.0,2434
4905,1529905,17004,-556,964,17040.38,29.42,-1.00,-1.0,2370
4907,1529907,17012,-572,848,17042.72,29.42,-1.00,-1.0,2429
4910,1529910,17056,-592,916,17090.84,29.42,-1.00,-1.0,2385
4913,1529913,17040,-576,972,17077.42,29.52,-1.00,-1.0,2422
4916,1529916,16928,-552,948,16963.51,29.52,-1.00,-1.0,2373
4921,1529921,17080,-596,992,17119.16,29.42,-1.00,-1.0,2422
4923,1529923,17024,-644,808,17055.33,29.42,-1.00,-1.0,2373
4926,1529926,17036,-552,992,17073.78,29.42,-1.00,-1.0,2374
4929,1529929,17008,-680,972,17049.32,29.47,-1.00,-1.0,2435
4932,1529932,16980,-568,980,17017.74,29.38,-1.00,-1.0,2366
4934,1529934,17084,-644,980,17124.20,29.38,-1.00,-1.0,2418
4937,1529937,17056,-572,928,17090.80,29.42,-1.00,-1.0,2374
4940,1529940,17016,-580,808,17045.04,29.47,-1.00,-1.0,2425
4943,1529943,17028,-608,896,17062.39,29.47,-1.00,-1.0,2368
4947,1529947,17104,-640,772,17133.37,29.38,-1.00,-1.0,2411
4950,1529950,17056,-620,924,17092.26,29.42,-1.00,-1.0,2383
4953,1529953,17004,-592,928,17039.59,29.57,-1.00,-1.0,2428
4956,1529956,16980,-628,852,17012.96,29.47,-1.00,-1.0,2369
4959,1529959,16988,-512,804,17014.72,29.47,-1.00,-1.0,2419
4961,1529961,17088,-520,892,17119.16,29.47,-1.00,-1.0,2370
4964,1529964,17000,-636,876,17034.43,29.42,-1.00,-1.0,2374
4967,1529967,17020,-592,768,17047.60,29.42,-1.00,-1.0,2420
4970,1529970,16980,-652,780,17010.41,29.38,-1.00,-1.0,2370
4975,1529975,17032,-560,992,17070.05,29.47,-1.00,-1.0,2424
4977,1529977,17028,-536,992,17065.29,29.47,-1.00,-1.0,2377
4980,1529980,17036,-596,936,17072.10,29.57,-1.00,-1.0,2426
4983,1529983,17032,-596,960,17069.44,29.47,-1.00,-1.0,2380
4986,1529986,17116,-644,688,17141.92,29.42,-1.00,-1.0,2421
4988,1529988,16968,-620,916,17004.01,29.38,-1.00,-1.0,2370
4991,1529991,17052,-664,892,17088.22,29.42,-1.00,-1.0,2419
4994,1529994,16984,-620,816,17014.89,29.47,-1.00,-1.0,2370
4999,1529999,16952,-544,680,16974.35,29.38,-1.00,-1.0,2424
5001,1530001,17128,-744,808,17163.18,29.38,-1.00,-1.0,2383
5004,1530004,16976,-572,892,17009.04,29.42,-1.00,-1.0,2365
5007,1530007,17076,-564,940,17111.15,29.42,-1.00,-1.0,2433
5010,1530010,16940,-636,892,16975.39,29.52,-1.00,-1.0,2364
5012,1530012,17040,-640,880,17074.71,29.52,-1.00,-1.0,2423
5015,1530015,17080,-716,948,17121.27,29.52,-1.00,-1.0,2366
5018,1530018,17028,-540,800,17055.33,29.33,-1.00,-1.0,2427
5021,1530021,17016,-660,816,17048.33,29.42,-1.00,-1.0,2367
5026,1530026,16944,-648,944,16982.64,29.47,-1.00,-1.0,2449
5029,1530029,16976,-620,952,17013.97,29.42,-1.00,-1.0,2375
5032,1530032,16920,-640,852,16953.52,29.47,-1.00,-1.0,2423
5034,1530034,16880,-604,748,16907.36,29.38,-1.00,-1.0,2379
5037,1530037,17036,-600,860,17068.24,29.52,-1.00,-1.0,2421
5040,1530040,17112,-608,912,17147.07,29.38,-1.00,-1.0,2370
5043,1530043,17048,-596,940,17084.29,29.42,-1.00,-1.0,2363
5045,1530045,16992,-572,824,17021.58,29.42,-1.00,-1.0,2423
5048,1530048,16940,-560,868,16971.46,29.42,-1.00,-1.0,2369
5053,1530053,17008,-604,952,17045.33,29.42,-1.00,-1.0,2427
5055,1530055,17156,-624,1004,17196.68,29.47,-1.00,-1.0,2384
5058,1530058,16980,-536,740,17004.57,29.42,-1.00,-1.0,2423
5061,1530061,17152,-628,968,17190.77,29.47,-1.00,-1.0,2370
5064,1530064,16980,-596,792,17008.91,29.42,-1.00,-1.0,2422
5066,1530066,17096,-624,928,17132.54,29.47,-1.00,-1.0,2354
5069,1530069,17012,-556,940,17047.02,29.42,-1.00,-1.0,2420
5072,1530072,17080,-596,840,17111.03,29.47,-1.00,-1.0,2373
5077,1530077,17088,-656,832,17120.81,29.38,-1.00,-1.0,2429
5080,1530080,17080,-708,792,17113.00,29.38,-1.00,-1.0,2383
5082,1530082,17108,-600,1068,17151.80,29.52,-1.00,-1.0,2365
5085,1530085,17052,-612,940,17088.85,29.38,-1.00,-1.0,2422
5088,1530088,17012,-560,1092,17056.21,29.42,-1.00,-1.0,2369
5091,1530091,16984,-464,824,17010.31,29.47,-1.00,-1.0,2420
5093,1530093,17052,-636,848,17084.91,29.42,-1.00,-1.0,2370
5096,1530096,16940,-656,1108,16988.87,29.47,-1.00,-1.0,2419
5099,1530099,17084,-588,932,17119.50,29.42,-1.00,-1.0,2369
5104,1530104,17076,-596,900,17110.08,29.42,-1.00,-1.0,2427
5107,1530107,17020,-600,960,17057.61,29.42,-1.00,-1.0,2372
5109,1530109,17068,-668,792,17099.42,29.38,-1.00,-1.0,2426
5112,1530112,17020,-536,880,17051.16,29.42,-1.00,-1.0,2369
5115,1530115,17104,-608,820,17134.44,29.52,-1.00,-1.0,2427
5118,1530118,17168,-660,912,17204.87,29.42,-1.00,-1.0,2368
5120,1530120,17024,-540,804,17051.53,29.57,-1.00,-1.0,2373
5123,1530123,17060,-564,1000,17098.59,29.42,-1.00,-1.0,2422
5126,1530126,17040,-604,888,17073.81,29.38,-1.00,-1.0,2373
5131,1530131,17052,-684,956,17092.47,29.42,-1.00,-1.0,2429
5134,1530134,17000,-624,816,17031.01,29.38,-1.00,-1.0,2376
5136,1530136,16996,-592,900,17030.11,29.47,-1.00,-1.0,2425
5139,1530139,17004,-608,908,17039.08,29.47,-1.00,-1.0,2370
5142,1530142,16972,-576,840,17002.53,29.47,-1.00,-1.0,2427
5145,1530145,17064,-548,888,17095.88,29.38,-1.00,-1.0,2369
5148,1530148,17028,-628,912,17063.96,29.42,-1.00,-1.0,2460
5150,1530150,16948,-548,920,16981.80,29.42,-1.00,-1.0,2369
5155,1530155,17056,-700,868,17092.41,29.52,-1.00,-1.0,2435
5158,1530158,17092,-512,780,17117.45,29.52,-1.00,-1.0,2375
5161,1530161,16988,-596,876,17021.01,29.47,-1.00,-1.0,2365
5163,1530163,17152,-636,884,17186.54,29.57,-1.00,-1.0,2426
5166,1530166,16992,-560,856,17022.76,29.47,-1.00,-1.0,2370
5169,1530169,17000,-656,856,17034.17,29.47,-1.00,-1.0,2424
5172,1530172,17108,-588,844,17138.90,29.47,-1.00,-1.0,2370
5174,1530174,17064,-600,980,17102.65,29.38,-1.00,-1.0,2422
5177,1530177,16996,-600,808,17025.77,29.47,-1.00,-1.0,2370
5182,1530182,16944,-612,876,16977.66,29.38,-1.00,-1.0,2428
5185,1530185,17000,-500,952,17033.97,29.42,-1.00,-1.0,2379
5188,1530188,17072,-556,984,17109.37,29.38,-1.00,-1.0,2423
5190,1530190,17008,-648,928,17045.62,29.42,-1.00,-1.0,2370
5193,1530193,16956,-564,784,16983.48,29.47,-1.00,-1.0,2420
5196,1530196,17116,-716,948,17157.18,29.42,-1.00,-1.0,2370
5198,1530198,17008,-624,992,17048.33,29.38,-1.00,-1.0,2369
5201,1530201,17012,-548,824,17040.76,29.42,-1.00,-1.0,2435
5204,1530204,17028,-620,1104,17075.01,29.42,-1.00,-1.0,2381
5209,1530209,16984,-576,920,17018.65,29.38,-1.00,-1.0,2436
5212,1530212,17044,-520,956,17078.71,29.47,-1.00,-1.0,2376
5214,1530214,17120,-628,780,17149.26,29.52,-1.00,-1.0,2424
5217,1530217,17060,-544,836,17089.13,29.47,-1.00,-1.0,2373
5220,1530220,16984,-588,772,17011.70,29.52,-1.00,-1.0,2429
5223,1530223,17068,-624,952,17105.91,29.57,-1.00,-1.0,2357
5225,1530225,17048,-632,848,17080.77,29.42,-1.00,-1.0,2421
5228,1530228,17024,-528,800,17050.96,29.47,-1.00,-1.0,2370
5233,1530233,17032,-632,844,17064.61,29.52,-1.00,-1.0,2437
5236,1530236,16972,-628,936,17009.39,29.47,-1.00,-1.0,2377
5238,1530238,16960,-552,888,16992.20,29.52,-1.00,-1.0,2368
5241,1530241,17140,-664,964,17179.92,29.38,-1.00,-1.0,2422
5244,1530244,17116,-652,816,17147.84,29.52,-1.00,-1.0,2371
5247,1530247,17116,-520,768,17141.11,29.47,-1.00,-1.0,2420
5249,1530249,17088,-580,776,17115.44,29.52,-1.00,-1.0,2358
5252,1530252,17140,-600,980,17178.47,29.38,-1.00,-1.0,2421
5255,1530255,16944,-628,904,16979.71,29.47,-1.00,-1.0,2370
5259,1530259,17096,-636,956,17134.52,29.38,-1.00,-1.0,2436
5262,1530262,17092,-644,928,17129.29,29.33,-1.00,-1.0,2390
5265,1530265,16968,-592,912,17002.80,29.38,-1.00,-1.0,2427
5268,1530268,17028,-632,932,17065.19,29.52,-1.00,-1.0,2373
5271,1530271,17068,-616,888,17102.18,29.57,-1.00,-1.0,2420
5273,1530273,17096,-576,940,17131.51,29.38,-1.00,-1.0,2357
5276,1530276,17068,-704,964,17109.69,29.47,-1.00,-1.0,2374
5279,1530279,16980,-516,884,17010.82,29.52,-1.00,-1.0,2424
5282,1530282,17028,-596,800,17057.20,29.52,-1.00,-1.0,2374
5287,1530287,17028,-612,880,17061.70,29.38,-1.00,-1.0,2428
5290,1530290,17100,-556,984,17137.31,29.47,-1.00,-1.0,2379
5292,1530292,17088,-528,876,17118.58,29.33,-1.00,-1.0,2422
5295,1530295,17040,-636,828,17071.96,29.47,-1.00,-1.0,2358
5298,1530298,16980,-568,916,17014.17,29.42,-1.00,-1.0,2428
5301,1530301,17052,-480,1048,17090.92,29.57,-1.00,-1.0,2370
5303,1530303,16992,-508,996,17028.74,29.42,-1.00,-1.0,2424
5306,1530306,16944,-420,944,16975.47,29.47,-1.00,-1.0,2370
5311,1530311,17008,-536,812,17035.81,29.47,-1.00,-1.0,2432
5314,1530314,17068,-668,888,17104.13,29.42,-1.00,-1.0,2380
5316,1530316,16992,-652,856,17026.04,29.42,-1.00,-1.0,2366
5319,1530319,16940,-560,868,16971.46,29.52,-1.00,-1.0,2423
5322,1530322,17116,-692,1036,17161.28,29.42,-1.00,-1.0,2378
5325,1530325,16964,-608,840,16995.66,29.42,-1.00,-1.0,2420
5327,1530327,17108,-632,800,17138.35,29.52,-1.00,-1.0,2372
5330,1530330,17124,-640,1024,17166.52,29.52,-1.00,-1.0,2420
5333,1530333,17048,-616,756,17075.87,29.42,-1.00,-1.0,2380
5338,1530338,17048,-532,832,17076.58,29.52,-1.00,-1.0,2435
5341,1530341,17080,-528,928,17113.34,29.52,-1.00,-1.0,2376
5343,1530343,17004,-588,932,17039.67,29.47,-1.00,-1.0,2426
5346,1530346,16984,-516,888,17015.03,29.52,-1.00,-1.0,2370
5349,1530349,16980,-516,804,17006.85,29.57,-1.00,-1.0,2428
5352,1530352,17060,-640,936,17097.64,29.52,-1.00,-1.0,2358
5354,1530354,17032,-516,760,17056.75,29.47,-1.00,-1.0,2382
5357,1530357,16996,-636,928,17033.19,29.38,-1.00,-1.0,2423
5360,1530360,16996,-636,876,17030.44,29.47,-1.00,-1.0,2377
5365,1530365,16956,-532,876,16986.95,29.47,-1.00,-1.0,2434
5368,1530368,16960,-640,856,16993.64,29.42,-1.00,-1.0,2377
5370,1530370,17024,-632,932,17061.20,29.47,-1.00,-1.0,2435
5373,1530373,17016,-488,896,17046.56,29.47,-1.00,-1.0,2378
5376,1530376,16944,-500,860,16973.18,29.38,-1.00,-1.0,2422
5379,1530379,17040,-620,900,17075.01,29.42,-1.00,-1.0,2371
5381,1530381,16964,-568,888,16996.72,29.38,-1.00,-1.0,2428
5384,1530384,17088,-620,772,17116.66,29.47,-1.00,-1.0,2377
5389,1530389,17060,-556,864,17090.91,29.38,-1.00,-1.0,2428
5392,1530392,16980,-524,992,17017.02,29.42,-1.00,-1.0,2385
5394,1530394,17056,-668,840,17089.73,29.47,-1.00,-1.0,2372
5397,1530397,16956,-596,908,16990.75,29.33,-1.00,-1.0,2422
5400,1530400,16996,-656,808,17027.84,29.42,-1.00,-1.0,2374
5403,1530403,17024,-448,844,17050.79,29.52,-1.00,-1.0,2423
5405,1530405,17052,-500,892,17082.63,29.52,-1.00,-1.0,2369
5408,1530408,17028,-596,888,17061.55,29.42,-1.00,-1.0,2420
5411,1530411,16940,-568,884,16972.56,29.42,-1.00,-1.0,2374
5416,1530416,16940,-540,800,16967.47,29.42,-1.00,-1.0,2431
5419,1530419,17004,-552,824,17032.90,29.57,-1.00,-1.0,2379
5422,1530422,17144,-588,992,17182.74,29.42,-1.00,-1.0,2432
5424,1530424,17072,-600,896,17106.02,29.42,-1.00,-1.0,2373
5427,1530427,16980,-516,848,17008.99,29.52,-1.00,-1.0,2420
5430,1530430,17112,-500,668,17132.33,29.52,-1.00,-1.0,2372
5432,1530432,17036,-632,884,17070.62,29.47,-1.00,-1.0,2367
5435,1530435,17012,-544,1048,17052.93,29.57,-1.00,-1.0,2421
5438,1530438,17052,-532,868,17082.36,29.42,-1.00,-1.0,2373
5443,1530443,17104,-568,860,17135.02,29.47,-1.00,-1.0,2428
5446,1530446,17036,-504,840,17064.14,29.42,-1.00,-1.0,2370
5448,1530448,17088,-652,944,17126.47,29.38,-1.00,-1.0,2422
5451,1530451,16948,-592,880,16981.15,29.52,-1.00,-1.0,2375
5454,1530454,17080,-644,808,17111.22,29.57,-1.00,-1.0,2429
5457,1530457,17128,-624,828,17159.35,29.42,-1.00,-1.0,2369
5459,1530459,16912,-620,860,16945.20,29.47,-1.00,-1.0,2422
5462,1530462,16904,-624,748,16932.04,29.47,-1.00,-1.0,2374
5467,1530467,17080,-576,896,17113.18,29.52,-1.00,-1.0,2432
5469,1530469,17044,-536,916,17077.01,29.42,-1.00,-1.0,2385
5472,1530472,16976,-584,972,17013.83,29.47,-1.00,-1.0,2366
5475,1530475,16992,-512,836,17020.26,29.38,-1.00,-1.0,2425
5478,1530478,17056,-604,888,17089.78,29.52,-1.00,-1.0,2368
5480,1530480,16860,-636,932,16897.71,29.38,-1.00,-1.0,2422
5483,1530483,17068,-612,912,17103.30,29.47,-1.00,-1.0,2370
5486,1530486,17008,-612,868,17041.13,29.47,-1.00,-1.0,2423
5489,1530489,16984,-568,932,17019.03,29.47,-1.00,-1.0,2371
5494,1530494,17020,-600,928,17055.84,29.47,-1.00,-1.0,2428
5497,1530497,17068,-700,852,17103.58,29.33,-1.00,-1.0,2377
5500,1530500,16964,-584,872,16996.43,29.52,-1.00,-1.0,2424
5502,1530502,17048,-660,920,17085.56,29.42,-1.00,-1.0,2371
5505,1530505,17016,-512,844,17044.61,29.47,-1.00,-1.0,2423
5508,1530508,16996,-596,940,17032.41,29.42,-1.00,-1.0,2370
5510,1530510,17060,-664,904,17096.83,29.47,-1.00,-1.0,2368
5513,1530513,16992,-568,920,17026.37,29.52,-1.00,-1.0,2436
5516,1530516,17000,-592,776,17028.00,29.47,-1.00,-1.0,2370
5521,1530521,16996,-592,932,17031.83,29.47,-1.00,-1.0,2428
5524,1530524,17096,-592,852,17127.45,29.38,-1.00,-1.0,2378
5527,1530527,17004,-608,828,17035.00,29.47,-1.00,-1.0,2422
5529,1530529,17000,-556,940,17035.04,29.47,-1.00,-1.0,2370
5532,1530532,16972,-680,896,17009.23,29.38,-1.00,-1.0,2420
5535,1530535,16944,-600,824,16974.63,29.47,-1.00,-1.0,2374
5538,1530538,16992,-632,928,17029.05,29.47,-1.00,-1.0,2420
5540,1530540,17044,-600,984,17082.92,29.47,-1.00,-1.0,2371
5545,1530545,17052,-628,924,17088.56,29.52,-1.00,-1.0,2437
5548,1530548,17032,-556,776,17058.73,29.42,-1.00,-1.0,2389
5551,1530551,16972,-620,868,17005.49,29.47,-1.00,-1.0,2367
5554,1530554,16952,-640,960,16991.22,29.42,-1.00,-1.0,2423
5556,1530556,17148,-700,960,17189.11,29.47,-1.00,-1.0,2370
5559,1530559,17036,-540,972,17072.25,29.42,-1.00,-1.0,2421
5562,1530562,16916,-644,876,16950.90,29.38,-1.00,-1.0,2370
5565,1530565,16944,-680,1004,16987.34,29.52,-1.00,-1.0,2419
5567,1530567,17008,-504,924,17040.54,29.47,-1.00,-1.0,2370
5572,1530572,17068,-632,832,17099.95,29.47,-1.00,-1.0,2428
5575,1530575,17012,-544,900,17044.47,29.47,-1.00,-1.0,2379
5578,1530578,16960,-704,948,17001.06,29.47,-1.00,-1.0,2431
5581,1530581,17020,-560,948,17055.58,29.47,-1.00,-1.0,2366
5583,1530583,17048,-568,868,17079.53,29.52,-1.00,-1.0,2420
5586,1530586,16992,-596,800,17021.26,29.47,-1.00,-1.0,2370
5589,1530589,17016,-588,860,17047.86,29.52,-1.00,-1.0,2367
5591,1530591,17080,-592,772,17107.68,29.52,-1.00,-1.0,2434
5594,1530594,17048,-600,964,17085.77,29.33,-1.00,-1.0,2377
5599,1530599,16972,-704,884,17009.58,29.52,-1.00,-1.0,2427
5602,1530602,17068,-608,776,17096.45,29.42,-1.00,-1.0,2383
5605,1530605,16972,-544,868,17002.89,29.52,-1.00,-1.0,2423
5607,1530607,16972,-716,888,17010.29,29.42,-1.00,-1.0,2371
5610,1530610,17092,-560,948,17127.43,29.42,-1.00,-1.0,2420
5613,1530613,16980,-656,920,17017.55,29.42,-1.00,-1.0,2377
5616,1530616,16964,-564,940,16999.38,29.61,-1.00,-1.0,2420
5618,1530618,17084,-648,608,17107.09,29.42,-1.00,-1.0,2370
5621,1530621,17096,-656,860,17130.18,29.47,-1.00,-1.0,2382
5626,1530626,17072,-680,868,17107.57,29.42,-1.00,-1.0,2427
5629,1530629,17060,-608,828,17090.90,29.52,-1.00,-1.0,2380
5632,1530632,17068,-604,920,17103.45,29.47,-1.00,-1.0,2429
5634,1530634,17024,-556,976,17061.02,29.52,-1.00,-1.0,2373
5637,1530637,17044,-572,932,17079.04,29.47,-1.00,-1.0,2435
5640,1530640,17056,-592,808,17085.39,29.52,-1.00,-1.0,2380
5643,1530643,17012,-520,832,17040.27,29.38,-1.00,-1.0,2434
5645,1530645,17040,-624,868,17073.50,29.52,-1.00,-1.0,2372
5650,1530650,16952,-700,792,16984.92,29.47,-1.00,-1.0,2421
5653,1530653,17036,-636,784,17065.88,29.38,-1.00,-1.0,2378
5656,1530656,17104,-668,860,17138.63,29.57,-1.00,-1.0,2441
5658,1530658,17032,-592,904,17066.24,29.47,-1.00,-1.0,2377
5661,1530661,17052,-592,892,17085.57,29.42,-1.00,-1.0,2366
5664,1530664,17060,-556,840,17089.71,29.42,-1.00,-1.0,2423
5667,1530667,16948,-580,856,16979.51,29.42,-1.00,-1.0,2369
5669,1530669,16996,-552,1020,17035.53,29.42,-1.00,-1.0,2422
5672,1530672,17052,-516,904,17083.74,29.47,-1.00,-1.0,2360
5677,1530677,17024,-624,884,17058.35,29.47,-1.00,-1.0,2430
5680,1530680,17120,-604,828,17150.65,29.61,-1.00,-1.0,2371
5682,1530682,17036,-648,984,17076.69,29.52,-1.00,-1.0,2426
5685,1530685,17024,-600,964,17061.82,29.52,-1.00,-1.0,2375
5688,1530688,17064,-608,884,17097.70,29.57,-1.00,-1.0,2428
5691,1530691,17172,-596,908,17206.31,29.52,-1.00,-1.0,2375
5693,1530693,16976,-492,940,17009.12,29.57,-1.00,-1.0,2433
5696,1530696,17020,-508,920,17052.42,29.52,-1.00,-1.0,2369
5699,1530699,17080,-568,868,17111.47,29.42,-1.00,-1.0,2367
5704,1530704,17020,-608,728,17046.41,29.47,-1.00,-1.0,2436
5707,1530707,17080,-508,904,17111.45,29.47,-1.00,-1.0,2379
5710,1530710,17068,-556,848,17098.10,29.42,-1.00,-1.0,2433
5712,1530712,17140,-616,924,17175.94,29.47,-1.00,-1.0,2380
5715,1530715,17076,-600,896,17110.01,29.52,-1.00,-1.0,2420
5718,1530718,16980,-608,892,17014.28,29.52,-1.00,-1.0,2371
5721,1530721,16932,-616,852,16964.61,29.42,-1.00,-1.0,2421
5723,1530723,17028,-688,832,17062.19,29.52,-1.00,-1.0,2373
5728,1530728,17096,-572,900,17129.23,29.47,-1.00,-1.0,2439
5731,1530731,17048,-588,900,17081.86,29.57,-1.00,-1.0,2383
5734,1530734,17060,-616,984,17099.45,29.42,-1.00,-1.0,2426
5737,1530737,17084,-488,808,17110.06,29.47,-1.00,-1.0,2374
5739,1530739,17068,-652,920,17105.21,29.42,-1.00,-1.0,2366
5742,1530742,17052,-536,860,17082.08,29.38,-1.00,-1.0,2420
5745,1530745,17036,-644,940,17074.06,29.52,-1.00,-1.0,2373
5748,1530748,17004,-584,872,17036.36,29.38,-1.00,-1.0,2407
5750,1530750,17216,-468,860,17243.82,29.52,-1.00,-1.0,2370
5755,1530755,17052,-624,904,17087.34,29.42,-1.00,-1.0,2428
5758,1530758,16976,-568,976,17013.52,29.52,-1.00,-1.0,2374
5761,1530761,17160,-520,1020,17198.15,29.42,-1.00,-1.0,2430
5763,1530763,17060,-604,816,17090.18,29.52,-1.00,-1.0,2354
5766,1530766,17172,-592,976,17209.90,29.42,-1.00,-1.0,2420
5769,1530769,16988,-624,852,17020.79,29.42,-1.00,-1.0,2377
5772,1530772,17148,-560,1008,17186.73,29.47,-1.00,-1.0,2422
5775,1530775,17024,-656,920,17061.46,29.42,-1.00,-1.0,2369
5777,1530777,16924,-640,836,16956.72,29.52,-1.00,-1.0,2365
5782,1530782,16980,-660,860,17014.57,29.52,-1.00,-1.0,2427
5785,1530785,16924,-636,900,16959.84,29.42,-1.00,-1.0,2378
5788,1530788,17144,-680,956,17184.09,29.38,-1.00,-1.0,2430
5791,1530791,17080,-528,896,17111.63,29.38,-1.00,-1.0,2369
5793,1530793,16976,-692,780,17007.99,29.47,-1.00,-1.0,2421
5796,1530796,16940,-564,896,16973.05,29.38,-1.00,-1.0,2370
5799,1530799,17020,-620,1044,17063.26,29.47,-1.00,-1.0,2427
5802,1530802,17112,-608,988,17151.28,29.38,-1.00,-1.0,2369
5807,1530807,17052,-560,876,17083.67,29.47,-1.00,-1.0,2428
5809,1530809,17048,-548,804,17075.74,29.52,-1.00,-1.0,2378
5812,1530812,17016,-568,940,17051.41,29.47,-1.00,-1.0,2422
5815,1530815,17092,-632,740,17119.68,29.42,-1.00,-1.0,2371
5817,1530817,17024,-588,852,17055.45,29.47,-1.00,-1.0,2369
5820,1530820,17060,-516,956,17094.55,29.33,-1.00,-1.0,2428
5823,1530823,16952,-564,924,16986.53,29.47,-1.00,-1.0,2373
5826,1530826,17096,-648,768,17125.51,29.52,-1.00,-1.0,2420
5828,1530828,17040,-596,892,17073.74,29.52,-1.00,-1.0,2371
5833,1530833,17056,-520,828,17084.00,29.42,-1.00,-1.0,2429
5836,1530836,16956,-524,872,16986.49,29.57,-1.00,-1.0,2371
5839,1530839,17008,-584,756,17034.81,29.42,-1.00,-1.0,2436
5842,1530842,17048,-640,820,17079.71,29.47,-1.00,-1.0,2369
5844,1530844,17024,-556,876,17055.59,29.42,-1.00,-1.0,2427
5847,1530847,16992,-644,884,17027.16,29.47,-1.00,-1.0,2370
5850,1530850,16996,-632,912,17032.18,29.42,-1.00,-1.0,2427
5853,1530853,17000,-600,824,17030.53,29.42,-1.00,-1.0,2371
5855,1530855,17100,-628,844,17132.33,29.42,-1.00,-1.0,2368
5862,1530862,17080,-628,816,17111.01,29.52,-1.00,-1.0,2437
5865,1530865,16984,-604,1012,17024.84,29.52,-1.00,-1.0,2381
5868,1530868,17096,-612,804,17125.83,29.57,-1.00,-1.0,2426
5870,1530870,17072,-596,780,17100.20,29.47,-1.00,-1.0,2375
5873,1530873,17080,-616,784,17109.08,29.47,-1.00,-1.0,2420
5876,1530876,17008,-636,1068,17053.36,29.47,-1.00,-1.0,2371
5879,1530879,16980,-584,960,17017.14,29.47,-1.00,-1.0,2421
5881,1530881,17096,-548,988,17133.29,29.47,-1.00,-1.0,2374
5886,1530886,16992,-512,864,17021.65,29.52,-1.00,-1.0,2442
5889,1530889,17020,-644,788,17050.40,29.52,-1.00,-1.0,2384
5892,1530892,17068,-580,864,17099.69,29.47,-1.00,-1.0,2435
5894,1530894,16988,-560,1000,17026.62,29.47,-1.00,-1.0,2378
5897,1530897,16964,-656,804,16995.71,29.47,-1.00,-1.0,2366
5900,1530900,17008,-592,980,17046.49,29.42,-1.00,-1.0,2428
5903,1530903,17052,-612,888,17086.07,29.42,-1.00,-1.0,2369
5905,1530905,17040,-560,712,17064.06,29.42,-1.00,-1.0,2420
5908,1530908,17048,-480,968,17082.21,29.42,-1.00,-1.0,2370
5913,1530913,17020,-576,948,17056.11,29.47,-1.00,-1.0,2428
5916,1530916,17040,-672,1020,17083.72,29.47,-1.00,-1.0,2377
5919,1530919,17084,-488,772,17108.39,29.42,-1.00,-1.0,2424
5921,1530921,17036,-484,728,17058.42,29.38,-1.00,-1.0,2370
5924,1530924,16944,-704,920,16983.55,29.42,-1.00,-1.0,2422
5927,1530927,17060,-540,844,17089.40,29.38,-1.00,-1.0,2371
5930,1530930,17112,-652,908,17148.47,29.42,-1.00,-1.0,2420
5932,1530932,17076,-660,944,17114.80,29.47,-1.00,-1.0,2371
5935,1530935,16968,-532,788,16994.62,29.52,-1.00,-1.0,2362
5940,1530940,17012,-616,748,17039.57,29.52,-1.00,-1.0,2433
5943,1530943,17036,-592,884,17069.19,29.42,-1.00,-1.0,2376
5945,1530945,17096,-504,768,17120.66,29.52,-1.00,-1.0,2425
5948,1530948,16928,-552,892,16960.47,29.42,-1.00,-1.0,2370
5951,1530951,16956,-472,972,16990.39,29.52,-1.00,-1.0,2422
5954,1530954,17056,-640,980,17096.12,29.42,-1.00,-1.0,2369
5956,1530956,17036,-580,868,17067.96,29.52,-1.00,-1.0,2421
5959,1530959,17028,-560,940,17063.12,29.42,-1.00,-1.0,2371
5964,1530964,17000,-588,872,17032.50,29.52,-1.00,-1.0,2427
5967,1530967,16872,-580,892,16905.52,29.47,-1.00,-1.0,2377
5970,1530970,17036,-584,864,17067.89,29.42,-1.00,-1.0,2424
5972,1530972,17008,-520,1084,17050.44,29.42,-1.00,-1.0,2370
5975,1530975,17032,-640,760,17060.96,29.47,-1.00,-1.0,2375
5978,1530978,17016,-616,828,17047.27,29.47,-1.00,-1.0,2434
5980,1530980,17152,-604,816,17182.02,29.47,-1.00,-1.0,2375
5983,1530983,16984,-568,976,17021.50,29.38,-1.00,-1.0,2429
5986,1530986,17080,-660,1008,17122.44,29.38,-1.00,-1.0,2379
5991,1530991,17080,-560,992,17117.95,29.42,-1.00,-1.0,2428
5994,1530994,17088,-616,976,17126.93,29.42,-1.00,-1.0,2378
5997,1530997,17024,-536,908,17056.62,29.47,-1.00,-1.0,2423
5999,1530999,17052,-632,1016,17093.93,29.42,-1.00,-1.0,2370
6002,1531002,16992,-632,984,17032.20,29.33,-1.00,-1.0,2420
6005,1531005,16972,-484,848,17000.06,29.42,-1.00,-1.0,2374
6008,1531008,17084,-616,880,17117.74,29.38,-1.00,-1.0,2420
6010,1531010,17016,-604,816,17046.26,29.42,-1.00,-1.0,2370
6015,1531015,17056,-628,1008,17097.30,29.42,-1.00,-1.0,2428
6018,1531018,17044,-648,844,17077.18,29.52,-1.00,-1.0,2381
6021,1531021,17072,-612,832,17103.21,29.47,-1.00,-1.0,2369
6023,1531023,17004,-608,876,17037.40,29.38,-1.00,-1.0,2439
6026,1531026,17036,-616,1008,17076.91,29.57,-1.00,-1.0,2371
6029,1531029,17096,-556,896,17128.49,29.28,-1.00,-1.0,2428
6032,1531032,17052,-524,876,17082.53,29.47,-1.00,-1.0,2371
6034,1531034,17068,-608,1016,17109.02,29.42,-1.00,-1.0,2431
6037,1531037,17060,-508,860,17089.21,29.57,-1.00,-1.0,2377
6042,1531042,17076,-532,820,17103.95,29.42,-1.00,-1.0,2427
6045,1531045,16944,-508,940,16977.66,29.52,-1.00,-1.0,2372
6048,1531048,16992,-552,972,17028.73,29.47,-1.00,-1.0,2428
6050,1531050,16976,-616,900,17011.00,29.47,-1.00,-1.0,2371
6053,1531053,17060,-584,856,17091.44,29.38,-1.00,-1.0,2419
6056,1531056,17012,-508,912,17044.00,29.47,-1.00,-1.0,2377
6058,1531058,17068,-556,896,17100.54,29.42,-1.00,-1.0,2381
6061,1531061,16992,-572,848,17022.76,29.42,-1.00,-1.0,2420
6064,1531064,17120,-616,868,17153.05,29.42,-1.00,-1.0,2370
6069,1531069,16992,-648,776,17022.05,29.42,-1.00,-1.0,2428
6071,1531071,16944,-548,888,16976.10,29.42,-1.00,-1.0,2383
6074,1531074,17012,-516,920,17044.67,29.47,-1.00,-1.0,2423
6077,1531077,16980,-580,772,17007.43,29.52,-1.00,-1.0,2372
6080,1531080,16956,-560,976,16993.30,29.38,-1.00,-1.0,2422
6083,1531083,17056,-656,984,17096.95,29.52,-1.00,-1.0,2373
6085,1531085,16956,-640,972,16995.89,29.47,-1.00,-1.0,2420
6088,1531088,16988,-580,792,17016.34,29.42,-1.00,-1.0,2371
6093,1531093,17020,-548,800,17047.60,29.61,-1.00,-1.0,2428
6095,1531095,17044,-492,964,17078.33,29.47,-1.00,-1.0,2372
6098,1531098,17024,-556,756,17049.85,29.42,-1.00,-1.0,2374
6101,1531101,17012,-556,848,17042.19,29.47,-1.00,-1.0,2424
6103,1531103,17032,-588,784,17060.17,29.42,-1.00,-1.0,2360
6106,1531106,17032,-580,812,17061.21,29.47,-1.00,-1.0,2421
6109,1531109,16988,-580,996,17027.05,29.42,-1.00,-1.0,2374
6112,1531112,17056,-652,780,17086.27,29.47,-1.00,-1.0,2422
6114,1531114,16980,-628,860,17013.36,29.42,-1.00,-1.0,2369
