timestamp_ms,global_ms,accel_x,accel_y,accel_z,accel_mag,temp_c,voltage,soc,loop_us
2,305002,17032,-568,656,17054.09,30.27,-1.00,-1.0,2501
9,305009,17136,-524,676,17157.33,30.22,-1.00,-1.0,2458
11,305011,17020,-608,596,17041.28,30.22,-1.00,-1.0,2371
14,305014,17080,-684,644,17105.82,30.22,-1.00,-1.0,2366
17,305017,17040,-624,776,17069.07,30.18,-1.00,-1.0,2430
19,305019,17064,-656,668,17089.67,30.27,-1.00,-1.0,2364
22,305022,17104,-664,604,17127.54,30.18,-1.00,-1.0,2435
25,305025,17084,-624,608,17106.20,30.27,-1.00,-1.0,2365
28,305028,17084,-676,608,17108.18,30.27,-1.00,-1.0,2429
30,305030,17080,-556,724,17104.38,30.27,-1.00,-1.0,2365
35,305035,17060,-612,740,17087.01,30.32,-1.00,-1.0,2443
38,305038,17136,-612,696,17161.04,30.32,-1.00,-1.0,2362
40,305040,17060,-544,708,17083.35,30.18,-1.00,-1.0,2366
43,305043,17068,-488,660,17087.73,30.27,-1.00,-1.0,2434
46,305046,17060,-620,660,17084.02,30.18,-1.00,-1.0,2369
49,305049,17172,-612,592,17193.10,30.27,-1.00,-1.0,2429
51,305051,17148,-680,600,17171.96,30.18,-1.00,-1.0,2373
54,305054,17120,-636,676,17145.14,30.18,-1.00,-1.0,2432
57,305057,16992,-584,636,17013.92,30.27,-1.00,-1.0,2370
60,305060,17044,-708,676,17072.09,30.22,-1.00,-1.0,2368
65,305065,17128,-532,708,17150.88,30.22,-1.00,-1.0,2448
67,305067,17100,-676,684,17127.02,30.22,-1.00,-1.0,2374
70,305070,17132,-688,628,17157.31,30.22,-1.00,-1.0,2420
73,305073,17028,-668,612,17052.08,30.27,-1.00,-1.0,2356
76,305076,17008,-568,624,17028.92,30.22,-1.00,-1.0,2433
78,305078,17132,-712,676,17160.11,30.22,-1.00,-1.0,2378
81,305081,17068,-540,624,17087.94,30.32,-1.00,-1.0,2421
84,305084,17012,-652,636,17036.37,30.18,-1.00,-1.0,2357
86,305086,17004,-548,724,17028.23,30.22,-1.00,-1.0,2367
91,305091,17072,-628,672,17096.76,30.32,-1.00,-1.0,2445
94,305094,16968,-592,684,16992.10,30.22,-1.00,-1.0,2353
97,305097,17060,-520,784,17085.92,30.32,-1.00,-1.0,2420
100,305100,17068,-604,680,17092.21,30.22,-1.00,-1.0,2368
102,305102,17080,-628,756,17108.25,30.13,-1.00,-1.0,2423
105,305105,16996,-548,652,17017.33,30.22,-1.00,-1.0,2377
108,305108,17140,-456,732,17161.68,30.27,-1.00,-1.0,2367
110,305110,17104,-676,652,17129.77,30.27,-1.00,-1.0,2420
113,305113,17140,-660,668,17165.71,30.27,-1.00,-1.0,2370
118,305118,17060,-776,656,17090.23,30.18,-1.00,-1.0,2442
121,305121,17076,-584,732,17101.66,30.13,-1.00,-1.0,2355
124,305124,17028,-660,568,17050.25,30.37,-1.00,-1.0,2429
126,305126,17172,-560,840,17201.65,30.27,-1.00,-1.0,2365
129,305129,16984,-712,640,17010.96,30.27,-1.00,-1.0,2425
132,305132,16996,-640,656,17020.69,30.18,-1.00,-1.0,2369
134,305134,17080,-612,712,17105.79,30.27,-1.00,-1.0,2366
137,305137,17068,-628,716,17094.55,30.32,-1.00,-1.0,2437
140,305140,17088,-580,628,17109.37,30.22,-1.00,-1.0,2372
145,305145,17116,-692,684,17143.63,30.13,-1.00,-1.0,2452
148,305148,17100,-596,712,17125.19,30.32,-1.00,-1.0,2369
151,305151,17052,-704,624,17077.93,30.22,-1.00,-1.0,2429
153,305153,17076,-548,724,17100.12,30.32,-1.00,-1.0,2376
156,305156,17120,-544,732,17144.28,30.22,-1.00,-1.0,2464
159,305159,16952,-608,680,16976.52,30.22,-1.00,-1.0,2368
162,305162,17044,-680,728,17073.09,30.22,-1.00,-1.0,2426
164,305164,17012,-680,448,17031.48,30.13,-1.00,-1.0,2367
167,305167,17044,-532,684,17066.01,30.27,-1.00,-1.0,2366
172,305172,16980,-532,820,17008.11,30.27,-1.00,-1.0,2449
175,305175,17036,-640,628,17059.58,30.22,-1.00,-1.0,2365
178,305178,17032,-604,608,17053.55,30.18,-1.00,-1.0,2422
180,305180,17076,-612,748,17103.33,30.13,-1.00,-1.0,2373
183,305183,17020,-532,896,17051.87,30.27,-1.00,-1.0,2420
186,305186,17076,-732,576,17101.38,30.22,-1.00,-1.0,2356
189,305189,17052,-532,588,17070.43,30.27,-1.00,-1.0,2422
191,305191,17032,-496,704,17053.76,30.22,-1.00,-1.0,2373
194,305194,17032,-684,600,17056.29,30.27,-1.00,-1.0,2365
199,305199,17008,-620,932,17044.80,30.27,-1.00,-1.0,2441
202,305202,17024,-660,484,17043.66,30.18,-1.00,-1.0,2371
205,305205,17012,-524,752,17036.67,30.27,-1.00,-1.0,2422
207,305207,17124,-540,700,17146.81,30.27,-1.00,-1.0,2368
210,305210,17016,-632,704,17042.28,30.18,-1.00,-1.0,2421
213,305213,17132,-624,636,17155.15,30.27,-1.00,-1.0,2369
216,305216,17024,-508,592,17041.86,30.18,-1.00,-1.0,2423
218,305218,17072,-528,760,17097.06,30.18,-1.00,-1.0,2368
221,305221,17132,-520,648,17152.13,30.27,-1.00,-1.0,2365
226,305226,17056,-636,772,17085.30,30.13,-1.00,-1.0,2441
229,305229,17016,-608,652,17039.34,30.27,-1.00,-1.0,2373
231,305231,17088,-528,588,17106.26,30.32,-1.00,-1.0,2420
234,305234,17084,-548,720,17107.95,30.22,-1.00,-1.0,2368
237,305237,17100,-592,696,17124.39,30.22,-1.00,-1.0,2420
240,305240,17104,-576,600,17124.21,30.27,-1.00,-1.0,2375
242,305242,16988,-692,704,17016.66,30.32,-1.00,-1.0,2420
245,305245,17088,-652,724,17115.75,30.22,-1.00,-1.0,2369
248,305248,17084,-572,796,17112.10,30.32,-1.00,-1.0,2366
253,305253,17052,-592,640,17074.27,30.27,-1.00,-1.0,2443
256,305256,17036,-716,704,17065.57,30.27,-1.00,-1.0,2366
258,305258,17112,-652,800,17143.09,30.18,-1.00,-1.0,2421
261,305261,17032,-568,684,17055.19,30.18,-1.00,-1.0,2371
264,305264,16992,-588,692,17016.25,30.27,-1.00,-1.0,2420
267,305267,16992,-644,724,17019.61,30.27,-1.00,-1.0,2368
269,305269,17096,-640,668,17121.01,30.22,-1.00,-1.0,2420
272,305272,16964,-624,744,16991.77,30.22,-1.00,-1.0,2369
275,305275,17076,-600,652,17098.97,30.32,-1.00,-1.0,2366
280,305280,17052,-612,540,17071.52,30.22,-1.00,-1.0,2442
283,305283,17140,-628,640,17163.44,30.13,-1.00,-1.0,2365
286,305286,17028,-644,604,17050.88,30.22,-1.00,-1.0,2423
289,305289,17044,-564,688,17067.20,30.27,-1.00,-1.0,2433
291,305291,17064,-592,672,17087.48,30.32,-1.00,-1.0,2417
294,305294,17088,-548,676,17110.14,30.22,-1.00,-1.0,2374
297,305297,17004,-648,752,17032.95,30.22,-1.00,-1.0,2416
300,305300,17184,-568,644,17205.44,30.27,-1.00,-1.0,2375
302,305302,17064,-684,640,17089.69,30.27,-1.00,-1.0,2368
307,305307,17004,-596,748,17030.88,30.22,-1.00,-1.0,2443
310,305310,17128,-588,748,17154.41,30.27,-1.00,-1.0,2417
313,305313,17028,-692,684,17055.78,30.32,-1.00,-1.0,2420
316,305316,17060,-680,668,17086.61,30.22,-1.00,-1.0,2374
319,305319,17028,-564,772,17054.82,30.32,-1.00,-1.0,2418
321,305321,17100,-640,780,17129.74,30.18,-1.00,-1.0,2357
324,305324,16988,-696,636,17014.14,30.22,-1.00,-1.0,2417
327,305327,17056,-632,692,17081.73,30.22,-1.00,-1.0,2375
329,305329,17108,-592,764,17135.28,30.13,-1.00,-1.0,2366
334,305334,17100,-544,684,17122.32,30.13,-1.00,-1.0,2423
337,305337,17088,-624,704,17113.88,30.22,-1.00,-1.0,2369
340,305340,16952,-572,764,16978.85,30.27,-1.00,-1.0,2475
343,305343,17100,-656,696,17126.73,30.27,-1.00,-1.0,2371
346,305346,17016,-372,540,17028.63,30.27,-1.00,-1.0,2431
348,305348,17028,-632,716,17054.76,30.27,-1.00,-1.0,2373
351,305351,17000,-520,640,17019.99,30.22,-1.00,-1.0,2425
354,305354,17040,-652,672,17065.71,30.27,-1.00,-1.0,2368
356,305356,17020,-496,672,17040.48,30.32,-1.00,-1.0,2367
361,305361,17104,-608,500,17122.11,30.22,-1.00,-1.0,2432
364,305364,17132,-636,576,17153.47,30.32,-1.00,-1.0,2368
367,305367,17080,-632,632,17103.37,30.22,-1.00,-1.0,2436
370,305370,16976,-692,684,17003.86,30.32,-1.00,-1.0,2370
372,305372,16964,-572,668,16986.78,30.22,-1.00,-1.0,2422
375,305375,17044,-592,720,17069.47,30.22,-1.00,-1.0,2370
378,305378,17068,-572,696,17091.76,30.22,-1.00,-1.0,2421
381,305381,17112,-644,608,17134.90,30.22,-1.00,-1.0,2370
383,305383,17024,-584,720,17049.22,30.32,-1.00,-1.0,2375
388,305388,17012,-596,780,17040.30,30.13,-1.00,-1.0,2442
391,305391,17064,-632,668,17088.76,30.27,-1.00,-1.0,2377
394,305394,17072,-624,592,17093.65,30.13,-1.00,-1.0,2440
397,305397,17040,-672,652,17065.71,30.27,-1.00,-1.0,2370
399,305399,17056,-652,832,17088.72,30.32,-1.00,-1.0,2423
402,305402,17048,-620,728,17074.80,30.22,-1.00,-1.0,2385
405,305405,17028,-616,672,17052.38,30.32,-1.00,-1.0,2422
408,305408,17028,-636,900,17063.62,30.18,-1.00,-1.0,2370
410,305410,17096,-608,460,17112.99,30.22,-1.00,-1.0,2409
415,305415,17044,-624,476,17062.06,30.27,-1.00,-1.0,2438
418,305418,17132,-596,804,17161.21,30.27,-1.00,-1.0,2369
421,305421,17036,-620,708,17061.97,30.18,-1.00,-1.0,2420
424,305424,17076,-660,680,17102.27,30.18,-1.00,-1.0,2369
426,305426,17080,-640,640,17103.96,30.27,-1.00,-1.0,2421
429,305429,17084,-592,636,17106.08,30.18,-1.00,-1.0,2369
432,305432,17016,-660,844,17049.70,30.27,-1.00,-1.0,2421
435,305435,17100,-568,644,17121.55,30.18,-1.00,-1.0,2373
437,305437,17112,-564,596,17131.66,30.22,-1.00,-1.0,2367
442,305442,17120,-596,904,17154.21,30.27,-1.00,-1.0,2438
445,305445,17128,-536,740,17152.36,30.37,-1.00,-1.0,2372
448,305448,17096,-612,600,17117.47,30.27,-1.00,-1.0,2428
450,305450,17096,-616,468,17113.49,30.18,-1.00,-1.0,2368
453,305453,17032,-688,656,17058.51,30.27,-1.00,-1.0,2421
456,305456,17080,-536,808,17107.50,30.27,-1.00,-1.0,2369
459,305459,17028,-624,680,17052.99,30.18,-1.00,-1.0,2424
461,305461,17068,-640,608,17090.81,30.18,-1.00,-1.0,2367
464,305464,17028,-652,704,17055.01,30.27,-1.00,-1.0,2365
469,305469,17096,-640,652,17120.39,30.22,-1.00,-1.0,2445
472,305472,17044,-560,668,17066.28,30.22,-1.00,-1.0,2372
475,305475,17060,-508,608,17078.39,30.27,-1.00,-1.0,2427
477,305477,17084,-592,632,17105.93,30.22,-1.00,-1.0,2376
480,305480,17008,-560,648,17029.55,30.27,-1.00,-1.0,2419
483,305483,17184,-512,724,17206.86,30.22,-1.00,-1.0,2369
486,305486,17088,-580,680,17111.36,30.27,-1.00,-1.0,2421
488,305488,17096,-560,708,17119.81,30.27,-1.00,-1.0,2365
491,305491,17008,-588,704,17032.72,30.27,-1.00,-1.0,2365
496,305496,17148,-548,708,17171.36,30.18,-1.00,-1.0,2436
499,305499,17000,-560,672,17022.49,30.18,-1.00,-1.0,2369
502,305502,17092,-680,740,17121.52,30.18,-1.00,-1.0,2420
505,305505,16976,-600,804,17005.62,30.27,-1.00,-1.0,2369
507,305507,17080,-588,816,17109.59,30.27,-1.00,-1.0,2420
510,305510,17088,-716,784,17120.95,30.18,-1.00,-1.0,2368
513,305513,17060,-616,672,17084.34,30.08,-1.00,-1.0,2420
516,305516,17072,-688,688,17099.70,30.18,-1.00,-1.0,2369
518,305518,17064,-724,716,17094.35,30.18,-1.00,-1.0,2367
523,305523,17016,-576,656,17038.38,30.27,-1.00,-1.0,2436
526,305526,17020,-664,792,17051.35,30.27,-1.00,-1.0,2369
529,305529,17076,-684,696,17103.86,30.32,-1.00,-1.0,2420
532,305532,17108,-568,676,17130.77,30.27,-1.00,-1.0,2370
534,305534,17032,-684,700,17060.10,30.27,-1.00,-1.0,2407
537,305537,17052,-652,764,17081.55,30.27,-1.00,-1.0,2372
540,305540,16988,-572,572,17007.25,30.22,-1.00,-1.0,2420
543,305543,17072,-652,656,17097.04,30.27,-1.00,-1.0,2370
548,305548,17064,-652,784,17094.44,30.18,-1.00,-1.0,2436
550,305550,17080,-652,636,17104.27,30.27,-1.00,-1.0,2377
553,305553,17072,-416,660,17089.82,30.32,-1.00,-1.0,2365
556,305556,16988,-668,752,17017.75,30.32,-1.00,-1.0,2427
558,305558,17000,-564,648,17021.69,30.22,-1.00,-1.0,2364
561,305561,17200,-592,636,17221.93,30.13,-1.00,-1.0,2422
564,305564,17124,-508,708,17146.16,30.22,-1.00,-1.0,2365
567,305567,17048,-632,748,17076.10,30.22,-1.00,-1.0,2432
569,305569,17124,-608,632,17146.44,30.22,-1.00,-1.0,2364
574,305574,17052,-564,816,17080.83,30.32,-1.00,-1.0,2436
577,305577,17080,-720,640,17107.14,30.32,-1.00,-1.0,2366
580,305580,17004,-700,684,17032.14,30.27,-1.00,-1.0,2368
583,305583,17012,-492,692,17033.18,30.27,-1.00,-1.0,2421
585,305585,16980,-584,652,17002.54,30.18,-1.00,-1.0,2372
588,305588,17068,-592,660,17091.01,30.22,-1.00,-1.0,2420
591,305591,17044,-584,644,17066.16,30.27,-1.00,-1.0,2368
594,305594,17064,-652,528,17084.61,30.32,-1.00,-1.0,2422
597,305597,17068,-568,588,17087.57,30.27,-1.00,-1.0,2373
602,305602,17048,-660,656,17073.38,30.37,-1.00,-1.0,2436
604,305604,16996,-520,556,17013.04,30.18,-1.00,-1.0,2371
607,305607,17104,-644,664,17128.99,30.27,-1.00,-1.0,2368
610,305610,17124,-680,728,17152.95,30.22,-1.00,-1.0,2422
612,305612,17080,-660,668,17105.79,30.18,-1.00,-1.0,2352
615,305615,17156,-604,752,17183.09,30.22,-1.00,-1.0,2420
618,305618,17116,-640,712,17142.75,30.27,-1.00,-1.0,2370
621,305621,17052,-684,808,17084.83,30.22,-1.00,-1.0,2424
624,305624,17004,-560,780,17031.09,30.27,-1.00,-1.0,2369
629,305629,17132,-640,748,17160.26,30.18,-1.00,-1.0,2446
631,305631,17096,-616,644,17119.21,30.27,-1.00,-1.0,2380
634,305634,17028,-632,496,17046.94,30.22,-1.00,-1.0,2365
637,305637,17108,-656,632,17132.23,30.32,-1.00,-1.0,2428
639,305639,17036,-648,684,17062.04,30.22,-1.00,-1.0,2367
642,305642,17052,-540,636,17072.40,30.22,-1.00,-1.0,2422
645,305645,17052,-580,736,17077.73,30.22,-1.00,-1.0,2371
648,305648,17044,-564,652,17065.79,30.18,-1.00,-1.0,2428
651,305651,17112,-544,676,17133.99,30.22,-1.00,-1.0,2369
655,305655,17008,-604,788,17036.96,30.13,-1.00,-1.0,2436
658,305658,17168,-544,688,17190.39,30.22,-1.00,-1.0,2369
661,305661,17020,-652,712,17047.36,30.18,-1.00,-1.0,2374
664,305664,17120,-588,828,17150.09,30.27,-1.00,-1.0,2430
666,305666,17036,-616,740,17063.19,30.18,-1.00,-1.0,2373
669,305669,16972,-588,616,16993.35,30.22,-1.00,-1.0,2431
672,305672,17024,-680,748,17053.99,30.18,-1.00,-1.0,2375
675,305675,17048,-568,728,17072.99,30.22,-1.00,-1.0,2422
678,305678,17036,-492,660,17055.88,30.32,-1.00,-1.0,2366
682,305682,17048,-684,800,17080.46,30.27,-1.00,-1.0,2445
685,305685,17052,-604,696,17076.88,30.18,-1.00,-1.0,2377
688,305688,17092,-660,520,17112.64,30.22,-1.00,-1.0,2366
690,305690,17064,-652,720,17091.62,30.27,-1.00,-1.0,2420
693,305693,17000,-656,848,17033.77,30.22,-1.00,-1.0,2368
696,305696,17024,-684,640,17049.75,30.18,-1.00,-1.0,2421
699,305699,17044,-580,668,17066.94,30.22,-1.00,-1.0,2368
702,305702,17000,-584,676,17023.46,30.27,-1.00,-1.0,2428
705,305705,16972,-628,748,17000.08,30.32,-1.00,-1.0,2368
710,305710,16972,-508,676,16993.05,30.32,-1.00,-1.0,2436
712,305712,17060,-604,732,17086.38,30.22,-1.00,-1.0,2372
715,305715,17020,-592,684,17044.02,30.22,-1.00,-1.0,2419
718,305718,17068,-656,656,17093.20,30.27,-1.00,-1.0,2438
721,305721,17072,-564,632,17093.00,30.27,-1.00,-1.0,2378
723,305723,17112,-636,708,17138.45,30.18,-1.00,-1.0,2423
726,305726,17052,-528,812,17079.49,30.27,-1.00,-1.0,2366
729,305729,16948,-680,748,16978.12,30.37,-1.00,-1.0,2424
732,305732,17052,-660,792,17083.14,30.18,-1.00,-1.0,2373
737,305737,17076,-612,788,17105.12,30.22,-1.00,-1.0,2428
740,305740,17080,-548,724,17104.12,30.22,-1.00,-1.0,2372
742,305742,17000,-528,680,17021.79,30.37,-1.00,-1.0,2364
745,305745,17008,-592,744,17034.55,30.27,-1.00,-1.0,2430
748,305748,17008,-608,700,17033.25,30.18,-1.00,-1.0,2377
750,305750,17124,-656,620,17147.77,30.27,-1.00,-1.0,2421
753,305753,17048,-640,620,17071.27,30.27,-1.00,-1.0,2368
756,305756,17068,-556,752,17093.60,30.27,-1.00,-1.0,2420
759,305759,17088,-584,588,17108.08,30.18,-1.00,-1.0,2375
764,305764,17132,-604,732,17158.27,30.18,-1.00,-1.0,2426
766,305766,17048,-520,748,17072.32,30.27,-1.00,-1.0,2371
769,305769,17044,-564,856,17074.80,30.18,-1.00,-1.0,2365
772,305772,16936,-652,644,16960.78,30.22,-1.00,-1.0,2436
774,305774,16980,-592,600,17000.91,30.22,-1.00,-1.0,2367
777,305777,17092,-596,656,17114.96,30.32,-1.00,-1.0,2430
780,305780,17080,-624,724,17106.72,30.22,-1.00,-1.0,2377
783,305783,17036,-628,668,17060.65,30.22,-1.00,-1.0,2423
786,305786,17104,-632,764,17132.71,30.32,-1.00,-1.0,2376
791,305791,17076,-544,740,17100.68,30.18,-1.00,-1.0,2434
793,305793,17124,-652,644,17148.50,30.18,-1.00,-1.0,2369
796,305796,17080,-628,848,17112.56,30.22,-1.00,-1.0,2373
799,305799,17088,-544,784,17114.62,30.22,-1.00,-1.0,2417
801,305801,17080,-652,772,17109.87,30.22,-1.00,-1.0,2368
804,305804,17076,-548,776,17102.40,30.22,-1.00,-1.0,2427
807,305807,17148,-528,620,17167.33,30.22,-1.00,-1.0,2376
810,305810,17036,-604,796,17065.28,30.27,-1.00,-1.0,2408
813,305813,17072,-596,632,17094.09,30.22,-1.00,-1.0,2377
818,305818,17096,-528,592,17114.39,30.13,-1.00,-1.0,2435
820,305820,17072,-616,768,17100.37,30.18,-1.00,-1.0,2369
823,305823,16936,-508,624,16955.10,30.22,-1.00,-1.0,2380
826,305826,17100,-576,640,17121.66,30.37,-1.00,-1.0,2430
829,305829,17048,-552,876,17079.41,30.18,-1.00,-1.0,2370
831,305831,17036,-636,720,17063.06,30.18,-1.00,-1.0,2421
834,305834,17076,-712,704,17105.33,30.18,-1.00,-1.0,2376
837,305837,17104,-596,652,17126.79,30.18,-1.00,-1.0,2421
840,305840,17076,-644,736,17103.98,30.13,-1.00,-1.0,2373
845,305845,17172,-576,584,17191.58,30.22,-1.00,-1.0,2437
847,305847,17096,-704,644,17122.60,30.22,-1.00,-1.0,2369
850,305850,17080,-548,820,17108.45,30.27,-1.00,-1.0,2372
853,305853,17084,-636,616,17106.93,30.27,-1.00,-1.0,2430
856,305856,17048,-580,688,17071.73,30.27,-1.00,-1.0,2369
858,305858,17220,-600,768,17247.56,30.27,-1.00,-1.0,2420
861,305861,17080,-556,704,17103.54,30.18,-1.00,-1.0,2372
864,305864,17044,-616,692,17069.16,30.27,-1.00,-1.0,2419
867,305867,17132,-616,608,17153.85,30.27,-1.00,-1.0,2371
872,305872,17008,-676,676,17034.85,30.27,-1.00,-1.0,2426
874,305874,17072,-612,728,17098.47,30.27,-1.00,-1.0,2376
877,305877,17100,-552,748,17125.25,30.22,-1.00,-1.0,2365
880,305880,17104,-592,748,17130.58,30.13,-1.00,-1.0,2436
882,305882,17064,-564,632,17085.01,30.22,-1.00,-1.0,2364
885,305885,16984,-560,700,17007.64,30.22,-1.00,-1.0,2422
888,305888,17048,-560,764,17074.30,30.32,-1.00,-1.0,2365
891,305891,17052,-584,628,17073.55,30.37,-1.00,-1.0,2422
894,305894,17060,-560,604,17079.87,30.18,-1.00,-1.0,2354
898,305898,17012,-552,608,17031.81,30.22,-1.00,-1.0,2426
901,305901,17068,-616,716,17094.11,30.27,-1.00,-1.0,2365
904,305904,17116,-648,596,17138.63,30.18,-1.00,-1.0,2372
907,305907,17032,-592,816,17061.81,30.27,-1.00,-1.0,2436
909,305909,16980,-588,640,17002.23,30.37,-1.00,-1.0,2376
912,305912,16988,-544,612,17007.72,30.27,-1.00,-1.0,2420
915,305915,17000,-540,692,17022.65,30.18,-1.00,-1.0,2372
918,305918,16996,-728,688,17025.49,30.22,-1.00,-1.0,2408
921,305921,17104,-604,748,17131.00,30.27,-1.00,-1.0,2366
926,305926,17036,-636,652,17060.33,30.27,-1.00,-1.0,2429
928,305928,17012,-516,692,17033.89,30.27,-1.00,-1.0,2375
931,305931,17068,-636,460,17086.04,30.27,-1.00,-1.0,2431
934,305934,16988,-548,684,17010.59,30.27,-1.00,-1.0,2376
937,305937,17084,-652,600,17106.96,30.22,-1.00,-1.0,2367
939,305939,17080,-592,676,17103.62,30.27,-1.00,-1.0,2421
942,305942,17092,-624,628,17114.91,30.32,-1.00,-1.0,2356
945,305945,17044,-644,564,17065.48,30.22,-1.00,-1.0,2420
948,305948,17008,-592,632,17030.03,30.22,-1.00,-1.0,2356
953,305953,17112,-580,600,17132.34,30.32,-1.00,-1.0,2432
956,305956,17140,-652,764,17169.40,30.27,-1.00,-1.0,2380
958,305958,17028,-612,740,17055.06,30.32,-1.00,-1.0,2429
961,305961,17040,-624,660,17064.19,30.27,-1.00,-1.0,2371
964,305964,17000,-640,684,17025.79,30.22,-1.00,-1.0,2372
966,305966,17104,-676,788,17135.48,30.27,-1.00,-1.0,2420
969,305969,17116,-692,696,17144.12,30.22,-1.00,-1.0,2369
972,305972,16972,-608,724,16998.31,30.27,-1.00,-1.0,2420
975,305975,17076,-628,644,17099.68,30.22,-1.00,-1.0,2369
980,305980,17040,-628,716,17066.59,30.22,-1.00,-1.0,2427
983,305983,17124,-564,900,17156.91,30.22,-1.00,-1.0,2371
985,305985,17104,-644,556,17125.15,30.22,-1.00,-1.0,2429
988,305988,17068,-632,756,17096.42,30.22,-1.00,-1.0,2368
991,305991,16992,-704,800,17025.38,30.18,-1.00,-1.0,2361
994,305994,17096,-672,660,17121.93,30.27,-1.00,-1.0,2421
996,305996,17036,-604,684,17060.42,30.18,-1.00,-1.0,2371
999,305999,17076,-568,712,17100.27,30.27,-1.00,-1.0,2435
1002,306002,17120,-604,684,17144.30,30.27,-1.00,-1.0,2372
1007,306007,17004,-580,668,17027.00,30.27,-1.00,-1.0,2428
1010,306010,17072,-608,772,17100.26,30.22,-1.00,-1.0,2375
1012,306012,16980,-492,716,17002.21,30.27,-1.00,-1.0,2429
1015,306015,17036,-564,632,17057.05,30.22,-1.00,-1.0,2355
1018,306018,17088,-624,724,17114.71,30.37,-1.00,-1.0,2374
1021,306021,17088,-628,604,17110.20,30.22,-1.00,-1.0,2432
1023,306023,16980,-692,736,17010.03,30.22,-1.00,-1.0,2382
1026,306026,17072,-592,652,17094.70,30.22,-1.00,-1.0,2420
1029,306029,17004,-492,628,17022.71,30.27,-1.00,-1.0,2373
1034,306034,17004,-656,684,17030.39,30.27,-1.00,-1.0,2427
1037,306037,17132,-636,668,17156.81,30.27,-1.00,-1.0,2370
1039,306039,17036,-484,716,17057.91,30.18,-1.00,-1.0,2429
1042,306042,17084,-556,748,17109.40,30.27,-1.00,-1.0,2373
1045,306045,17104,-468,660,17123.12,30.27,-1.00,-1.0,2420
1048,306048,17080,-580,740,17105.86,30.22,-1.00,-1.0,2421
1050,306050,17172,-552,696,17194.96,30.18,-1.00,-1.0,2367
1053,306053,17076,-640,720,17103.15,30.22,-1.00,-1.0,2439
1056,306056,17092,-504,736,17115.26,30.18,-1.00,-1.0,2380
1061,306061,17068,-700,904,17106.25,30.27,-1.00,-1.0,2427
1064,306064,17016,-596,648,17038.76,30.27,-1.00,-1.0,2378
1067,306067,17000,-556,684,17022.84,30.22,-1.00,-1.0,2435
1069,306069,17080,-604,576,17100.38,30.13,-1.00,-1.0,2372
1072,306072,17072,-492,780,17096.89,30.32,-1.00,-1.0,2435
1075,306075,17104,-660,684,17130.39,30.32,-1.00,-1.0,2375
1078,306078,17132,-604,780,17160.38,30.22,-1.00,-1.0,2434
1080,306080,16908,-612,620,16930.43,30.22,-1.00,-1.0,2378
1083,306083,17024,-656,544,17045.32,30.18,-1.00,-1.0,2373
1088,306088,17096,-608,652,17119.23,30.22,-1.00,-1.0,2427
1091,306091,17096,-592,792,17124.57,30.22,-1.00,-1.0,2372
1093,306093,16960,-648,712,16987.30,30.27,-1.00,-1.0,2431
1096,306096,16940,-640,704,16966.70,30.22,-1.00,-1.0,2373
1099,306099,17076,-616,664,17100.00,30.27,-1.00,-1.0,2419
1102,306102,17036,-656,728,17064.16,30.22,-1.00,-1.0,2370
1104,306104,17156,-644,720,17183.17,30.18,-1.00,-1.0,2419
1107,306107,17084,-608,656,17107.40,30.22,-1.00,-1.0,2371
1112,306112,17100,-604,748,17127.01,30.22,-1.00,-1.0,2434
1114,306114,17028,-604,812,17058.05,30.27,-1.00,-1.0,2368
1117,306117,17044,-668,752,17073.65,30.32,-1.00,-1.0,2368
1120,306120,17064,-580,560,17083.04,30.27,-1.00,-1.0,2428
1123,306123,17160,-656,720,17187.62,30.27,-1.00,-1.0,2371
1125,306125,17052,-520,652,17072.38,30.18,-1.00,-1.0,2419
1128,306128,17076,-668,716,17104.05,30.18,-1.00,-1.0,2371
1131,306131,17072,-584,572,17091.56,30.37,-1.00,-1.0,2419
1134,306134,17052,-648,700,17078.66,30.27,-1.00,-1.0,2371
1139,306139,17080,-680,672,17106.73,30.27,-1.00,-1.0,2440
1142,306142,16896,-636,740,16924.15,30.13,-1.00,-1.0,2377
1144,306144,17072,-640,724,17099.33,30.27,-1.00,-1.0,2364
1147,306147,17032,-632,716,17058.75,30.32,-1.00,-1.0,2429
1150,306150,17084,-568,780,17111.23,30.27,-1.00,-1.0,2372
1153,306153,17044,-568,652,17065.92,30.22,-1.00,-1.0,2427
1155,306155,17068,-516,652,17088.24,30.27,-1.00,-1.0,2368
1158,306158,17028,-564,636,17049.21,30.22,-1.00,-1.0,2420
1161,306161,17048,-700,672,17075.59,30.18,-1.00,-1.0,2369
1166,306166,17040,-672,672,17066.48,30.22,-1.00,-1.0,2441
1169,306169,17108,-704,704,17136.95,30.32,-1.00,-1.0,2369
1172,306172,16992,-656,604,17015.38,30.27,-1.00,-1.0,2430
1174,306174,17064,-616,744,17091.32,30.22,-1.00,-1.0,2367
1177,306177,16984,-580,620,17005.21,30.27,-1.00,-1.0,2365
1180,306180,17120,-700,688,17148.11,30.37,-1.00,-1.0,2420
1183,306183,17068,-568,848,17098.49,30.18,-1.00,-1.0,2369
1185,306185,17116,-676,740,17145.32,30.22,-1.00,-1.0,2419
1188,306188,17072,-688,676,17099.22,30.18,-1.00,-1.0,2368
1193,306193,17108,-600,820,17138.15,30.27,-1.00,-1.0,2437
1196,306196,16992,-604,676,17016.16,30.27,-1.00,-1.0,2375
1199,306199,17016,-588,700,17040.54,30.27,-1.00,-1.0,2432
1201,306201,17032,-628,608,17054.41,30.27,-1.00,-1.0,2372
1204,306204,17080,-520,728,17103.41,30.32,-1.00,-1.0,2419
1207,306207,17052,-576,740,17077.77,30.27,-1.00,-1.0,2371
1209,306209,17096,-656,836,17128.99,30.13,-1.00,-1.0,2366
1212,306212,16968,-536,572,16986.10,30.22,-1.00,-1.0,2423
1215,306215,17076,-600,600,17097.07,30.22,-1.00,-1.0,2372
1220,306220,17052,-580,656,17074.47,30.22,-1.00,-1.0,2427
1223,306223,17064,-604,592,17084.95,30.18,-1.00,-1.0,2371
1226,306226,17028,-576,716,17052.78,30.22,-1.00,-1.0,2430
1228,306228,17052,-568,804,17080.39,30.27,-1.00,-1.0,2367
1231,306231,17124,-688,704,17152.27,30.32,-1.00,-1.0,2419
1234,306234,17060,-576,684,17083.42,30.27,-1.00,-1.0,2372
1237,306237,17088,-624,644,17111.51,30.22,-1.00,-1.0,2421
1239,306239,17064,-556,832,17093.32,30.22,-1.00,-1.0,2367
1242,306242,17088,-684,576,17111.38,30.22,-1.00,-1.0,2365
1247,306247,17132,-584,428,17147.29,30.22,-1.00,-1.0,2427
1250,306250,17096,-628,728,17123.01,30.18,-1.00,-1.0,2370
1253,306253,17056,-564,616,17076.44,30.32,-1.00,-1.0,2438
1255,306255,17148,-592,688,17172.00,30.22,-1.00,-1.0,2365
1258,306258,16920,-652,588,16942.76,30.22,-1.00,-1.0,2421
1261,306261,16988,-540,660,17009.39,30.18,-1.00,-1.0,2368
1264,306264,16996,-592,740,17022.40,30.32,-1.00,-1.0,2426
1266,306266,17168,-572,660,17190.20,30.22,-1.00,-1.0,2371
1271,306271,16992,-608,640,17014.91,30.32,-1.00,-1.0,2430
1274,306274,17032,-604,688,17056.59,30.18,-1.00,-1.0,2376
1277,306277,17072,-620,636,17095.09,30.22,-1.00,-1.0,2367
1279,306279,17044,-640,688,17069.88,30.27,-1.00,-1.0,2428
1282,306282,16996,-592,712,17021.21,30.27,-1.00,-1.0,2369
1285,306285,17064,-580,572,17083.43,30.27,-1.00,-1.0,2418
1288,306288,17072,-528,720,17095.33,30.27,-1.00,-1.0,2376
1290,306290,17060,-636,760,17088.76,30.18,-1.00,-1.0,2419
1293,306293,17120,-612,804,17149.79,30.27,-1.00,-1.0,2371
1298,306298,16976,-636,652,17000.42,30.32,-1.00,-1.0,2441
1301,306301,17156,-680,720,17184.56,30.27,-1.00,-1.0,2375
1304,306304,17008,-524,688,17029.97,30.32,-1.00,-1.0,2439
1306,306306,17020,-536,744,17044.68,30.13,-1.00,-1.0,2377
1309,306309,16996,-624,708,17022.18,30.32,-1.00,-1.0,2365
1312,306312,17064,-624,772,17092.85,30.27,-1.00,-1.0,2426
1314,306314,17000,-544,764,17025.85,30.22,-1.00,-1.0,2367
1317,306317,16952,-600,660,16975.45,30.32,-1.00,-1.0,2429
1320,306320,17112,-592,604,17132.89,30.27,-1.00,-1.0,2372
1325,306325,17132,-604,616,17153.71,30.18,-1.00,-1.0,2427
1328,306328,17008,-556,748,17033.52,30.22,-1.00,-1.0,2370
1330,306330,17008,-640,668,17033.14,30.27,-1.00,-1.0,2428
1333,306333,17008,-588,860,17039.88,30.27,-1.00,-1.0,2368
1336,306336,17116,-644,708,17142.74,30.27,-1.00,-1.0,2374
1339,306339,17136,-652,680,17161.88,30.32,-1.00,-1.0,2430
1341,306341,17104,-628,692,17129.51,30.22,-1.00,-1.0,2378
1344,306344,17024,-636,768,17053.18,30.22,-1.00,-1.0,2428
1347,306347,16984,-548,720,17008.09,30.13,-1.00,-1.0,2378
1352,306352,16940,-632,720,16967.07,30.32,-1.00,-1.0,2430
1355,306355,17072,-688,720,17101.02,30.18,-1.00,-1.0,2369
1358,306358,17148,-540,660,17169.19,30.27,-1.00,-1.0,2438
1360,306360,17108,-680,732,17137.15,30.27,-1.00,-1.0,2367
1363,306363,17016,-492,740,17039.19,30.32,-1.00,-1.0,2430
1366,306366,17044,-604,680,17068.25,30.32,-1.00,-1.0,2377
1369,306369,17004,-592,724,17029.70,30.32,-1.00,-1.0,2367
1371,306371,17016,-624,632,17039.16,30.27,-1.00,-1.0,2419
1374,306374,17132,-596,588,17152.45,30.32,-1.00,-1.0,2376
1379,306379,17108,-664,780,17138.64,30.22,-1.00,-1.0,2441
1382,306382,17004,-636,756,17032.68,30.32,-1.00,-1.0,2377
1385,306385,16964,-596,740,16990.59,30.32,-1.00,-1.0,2430
1388,306388,17044,-676,604,17068.09,30.22,-1.00,-1.0,2374
1390,306390,17040,-532,596,17058.72,30.22,-1.00,-1.0,2421
1393,306393,17092,-664,864,17126.70,30.22,-1.00,-1.0,2384
1396,306396,16960,-572,528,16977.86,30.27,-1.00,-1.0,2422
1399,306399,17004,-648,744,17032.60,30.22,-1.00,-1.0,2371
1401,306401,17072,-600,732,17098.22,30.32,-1.00,-1.0,2377
1406,306406,17088,-620,516,17107.03,30.32,-1.00,-1.0,2434
1409,306409,17052,-676,648,17077.69,30.22,-1.00,-1.0,2384
1412,306412,17036,-572,788,17063.80,30.37,-1.00,-1.0,2429
1415,306415,17012,-660,628,17036.38,30.22,-1.00,-1.0,2369
1417,306417,17112,-456,800,17136.76,30.27,-1.00,-1.0,2419
1420,306420,17088,-584,728,17113.47,30.22,-1.00,-1.0,2371
1423,306423,17104,-628,612,17126.46,30.18,-1.00,-1.0,2420
1426,306426,17084,-612,816,17114.42,30.22,-1.00,-1.0,2371
1432,306432,17000,-560,860,17030.95,30.32,-1.00,-1.0,2427
1435,306435,17096,-544,624,17116.03,30.27,-1.00,-1.0,2369
1438,306438,17032,-624,596,17053.84,30.22,-1.00,-1.0,2372
1441,306441,17008,-656,668,17033.75,30.27,-1.00,-1.0,2437
1443,306443,17088,-600,756,17115.23,30.22,-1.00,-1.0,2377
1446,306446,17100,-676,668,17126.39,30.27,-1.00,-1.0,2418
1449,306449,17076,-532,660,17097.03,30.37,-1.00,-1.0,2369
1452,306452,17116,-548,544,17133.41,30.18,-1.00,-1.0,2421
1454,306454,17084,-500,824,17111.17,30.18,-1.00,-1.0,2373
1459,306459,17132,-532,792,17158.55,30.27,-1.00,-1.0,2437
1462,306462,17060,-532,772,17085.74,30.22,-1.00,-1.0,2375
1465,306465,17040,-580,740,17065.92,30.18,-1.00,-1.0,2430
1468,306468,17148,-616,580,17168.86,30.18,-1.00,-1.0,2372
1470,306470,17044,-668,632,17068.79,30.27,-1.00,-1.0,2365
1473,306473,17024,-548,776,17050.49,30.22,-1.00,-1.0,2420
1476,306476,16940,-540,668,16961.76,30.37,-1.00,-1.0,2368
1478,306478,17072,-644,564,17093.45,30.22,-1.00,-1.0,2419
1481,306481,17040,-520,632,17059.64,30.18,-1.00,-1.0,2368
1486,306486,17004,-592,732,17030.04,30.27,-1.00,-1.0,2426
1489,306489,17080,-676,668,17106.42,30.37,-1.00,-1.0,2372
1492,306492,17044,-640,708,17070.70,30.27,-1.00,-1.0,2430
1494,306494,17020,-700,756,17051.16,30.18,-1.00,-1.0,2368
1497,306497,17112,-588,596,17132.47,30.22,-1.00,-1.0,2421
1500,306500,17068,-556,636,17088.89,30.18,-1.00,-1.0,2369
1502,306502,17008,-588,740,17034.24,30.22,-1.00,-1.0,2366
1505,306505,17048,-640,624,17071.42,30.18,-1.00,-1.0,2429
1508,306508,17104,-572,816,17133.00,30.22,-1.00,-1.0,2369
1513,306513,17048,-628,644,17071.71,30.27,-1.00,-1.0,2429
1515,306515,17080,-564,628,17100.84,30.37,-1.00,-1.0,2373
1518,306518,17056,-616,684,17080.82,30.27,-1.00,-1.0,2436
1521,306521,17080,-608,660,17103.56,30.27,-1.00,-1.0,2376
1524,306524,17012,-740,600,17038.65,30.18,-1.00,-1.0,2422
1527,306527,17128,-588,676,17151.42,30.27,-1.00,-1.0,2371
1529,306529,17004,-608,840,17035.59,30.32,-1.00,-1.0,2366
1532,306532,17044,-644,796,17074.73,30.13,-1.00,-1.0,2419
1535,306535,17000,-524,800,17026.88,30.18,-1.00,-1.0,2369
1539,306539,17132,-612,580,17152.74,30.37,-1.00,-1.0,2432
1542,306542,17096,-580,708,17120.48,30.27,-1.00,-1.0,2385
1545,306545,16992,-632,692,17017.82,30.22,-1.00,-1.0,2431
1548,306548,17072,-560,584,17091.16,30.27,-1.00,-1.0,2370
1550,306550,16992,-604,592,17013.04,30.22,-1.00,-1.0,2420
1553,306553,17000,-640,692,17026.11,30.18,-1.00,-1.0,2371
1556,306556,17184,-600,796,17212.89,30.22,-1.00,-1.0,2419
1559,306559,17056,-632,528,17075.87,30.27,-1.00,-1.0,2370
1561,306561,16996,-568,728,17021.06,30.22,-1.00,-1.0,2366
1566,306566,17040,-460,660,17058.98,30.22,-1.00,-1.0,2427
1569,306569,17132,-640,580,17153.76,30.22,-1.00,-1.0,2370
1572,306572,17100,-520,676,17121.26,30.22,-1.00,-1.0,2435
1574,306574,17064,-756,644,17092.88,30.22,-1.00,-1.0,2367
1577,306577,17028,-504,780,17053.30,30.22,-1.00,-1.0,2466
1580,306580,17080,-664,636,17104.73,30.27,-1.00,-1.0,2356
1583,306583,17072,-668,668,17098.12,30.32,-1.00,-1.0,2424
1586,306586,17116,-652,516,17136.18,30.27,-1.00,-1.0,2367
1591,306591,16984,-604,680,17008.34,30.18,-1.00,-1.0,2434
1593,306593,17000,-580,636,17021.78,30.27,-1.00,-1.0,2370
1596,306596,17116,-604,692,17140.63,30.18,-1.00,-1.0,2355
1599,306599,17040,-536,744,17064.65,30.22,-1.00,-1.0,2431
1602,306602,17084,-576,608,17104.52,30.27,-1.00,-1.0,2372
1604,306604,17024,-676,608,17048.26,30.22,-1.00,-1.0,2421
1607,306607,17016,-592,764,17043.43,30.22,-1.00,-1.0,2370
1610,306610,17056,-664,596,17079.32,30.13,-1.00,-1.0,2421
1613,306613,17092,-548,720,17115.93,30.18,-1.00,-1.0,2370
1618,306618,17124,-512,800,17150.32,30.18,-1.00,-1.0,2440
1620,306620,17128,-652,740,17156.37,30.27,-1.00,-1.0,2374
1623,306623,17072,-600,752,17099.08,30.22,-1.00,-1.0,2439
1626,306626,16992,-640,812,17023.43,30.27,-1.00,-1.0,2357
1628,306628,17120,-636,784,17149.74,30.32,-1.00,-1.0,2367
1631,306631,17060,-556,560,17078.24,30.27,-1.00,-1.0,2421
1634,306634,17040,-620,724,17066.64,30.13,-1.00,-1.0,2357
1637,306637,17096,-596,564,17115.68,30.27,-1.00,-1.0,2428
1639,306639,16956,-644,752,16984.88,30.32,-1.00,-1.0,2368
1644,306644,17104,-628,740,17131.52,30.32,-1.00,-1.0,2430
1647,306647,17068,-492,748,17091.46,30.32,-1.00,-1.0,2378
1650,306650,17096,-572,644,17117.69,30.22,-1.00,-1.0,2430
1653,306653,17176,-580,676,17199.08,30.32,-1.00,-1.0,2371
1655,306655,17060,-548,580,17078.65,30.32,-1.00,-1.0,2420
1658,306658,17016,-584,684,17039.75,30.32,-1.00,-1.0,2372
1661,306661,17124,-728,572,17149.01,30.27,-1.00,-1.0,2374
1663,306663,17048,-612,692,17073.01,30.27,-1.00,-1.0,2420
1666,306666,17004,-576,740,17029.84,30.27,-1.00,-1.0,2369
1671,306671,16988,-524,824,17016.04,30.27,-1.00,-1.0,2428
1674,306674,16928,-520,796,16954.68,30.32,-1.00,-1.0,2372
1677,306677,16976,-592,576,16996.08,30.18,-1.00,-1.0,2439
1679,306679,17016,-460,692,17036.28,30.18,-1.00,-1.0,2365
1682,306682,17124,-616,660,17147.78,30.27,-1.00,-1.0,2421
1685,306685,17020,-540,724,17043.95,30.18,-1.00,-1.0,2356
1688,306688,17080,-648,672,17105.49,30.27,-1.00,-1.0,2427
1690,306690,16972,-600,696,16996.86,30.18,-1.00,-1.0,2370
1693,306693,17136,-632,500,17154.94,30.37,-1.00,-1.0,2366
1698,306698,17068,-644,656,17092.74,30.18,-1.00,-1.0,2427
1701,306701,17008,-616,680,17032.73,30.27,-1.00,-1.0,2371
1703,306703,17028,-556,608,17047.92,30.18,-1.00,-1.0,2430
1706,306706,17028,-596,676,17051.83,30.27,-1.00,-1.0,2369
1709,306709,17092,-580,744,17118.01,30.27,-1.00,-1.0,2420
1712,306712,17052,-596,676,17075.80,30.27,-1.00,-1.0,2369
1714,306714,17048,-660,752,17077.34,30.27,-1.00,-1.0,2420
1717,306717,17108,-616,504,17126.50,30.18,-1.00,-1.0,2370
1720,306720,17108,-580,720,17132.96,30.22,-1.00,-1.0,2375
1725,306725,17068,-584,864,17099.83,30.27,-1.00,-1.0,2435
1727,306727,16992,-604,668,17015.85,30.18,-1.00,-1.0,2379
1730,306730,17056,-636,700,17082.20,30.27,-1.00,-1.0,2416
1733,306733,17084,-716,632,17110.67,30.27,-1.00,-1.0,2370
1736,306736,17064,-548,668,17085.86,30.18,-1.00,-1.0,2421
1738,306738,17000,-528,804,17027.19,30.27,-1.00,-1.0,2353
1741,306741,17000,-600,556,17019.67,30.37,-1.00,-1.0,2420
1744,306744,17092,-532,684,17113.95,30.18,-1.00,-1.0,2370
1749,306749,17060,-576,592,17079.98,30.22,-1.00,-1.0,2436
1751,306751,17068,-672,712,17096.06,30.32,-1.00,-1.0,2377
1754,306754,17140,-560,532,17157.40,30.27,-1.00,-1.0,2367
1757,306757,17040,-632,680,17065.27,30.32,-1.00,-1.0,2438
1759,306759,17072,-612,712,17097.80,30.27,-1.00,-1.0,2365
1762,306762,17168,-612,780,17196.60,30.22,-1.00,-1.0,2421
1765,306765,16964,-612,688,16988.97,30.18,-1.00,-1.0,2369
1768,306768,16992,-472,816,17018.13,30.22,-1.00,-1.0,2428
1771,306771,17080,-604,604,17101.35,30.13,-1.00,-1.0,2377
1776,306776,17040,-532,748,17064.71,30.27,-1.00,-1.0,2434
1778,306778,17028,-616,656,17051.76,30.27,-1.00,-1.0,2370
1781,306781,17036,-600,740,17062.62,30.22,-1.00,-1.0,2428
1784,306784,17040,-656,720,17067.82,30.27,-1.00,-1.0,2369
1786,306786,17116,-484,684,17136.50,30.22,-1.00,-1.0,2370
1789,306789,17060,-632,700,17086.05,30.27,-1.00,-1.0,2427
1792,306792,17124,-620,776,17152.78,30.22,-1.00,-1.0,2376
1795,306795,16988,-568,844,17018.43,30.27,-1.00,-1.0,2423
1798,306798,17096,-588,680,17119.62,30.22,-1.00,-1.0,2365
1803,306803,16972,-636,596,16994.37,30.22,-1.00,-1.0,2432
1805,306805,17092,-656,716,17119.56,30.27,-1.00,-1.0,2369
1808,306808,16944,-608,672,16968.22,30.32,-1.00,-1.0,2431
1811,306811,17092,-612,756,17119.65,30.32,-1.00,-1.0,2370
1814,306814,17084,-688,696,17112.01,30.22,-1.00,-1.0,2421
1816,306816,17108,-556,720,17132.17,30.27,-1.00,-1.0,2368
1819,306819,17040,-632,632,17063.42,30.27,-1.00,-1.0,2381
1822,306822,17120,-536,744,17144.54,30.27,-1.00,-1.0,2421
1825,306825,16968,-648,760,16997.37,30.27,-1.00,-1.0,2377
1830,306830,17136,-656,620,17159.76,30.22,-1.00,-1.0,2436
1832,306832,17068,-572,728,17093.09,30.22,-1.00,-1.0,2371
1835,306835,17104,-620,772,17132.63,30.27,-1.00,-1.0,2441
1838,306838,16956,-628,780,16985.54,30.22,-1.00,-1.0,2369
1841,306841,17052,-600,740,17078.59,30.18,-1.00,-1.0,2425
1843,306843,17100,-544,704,17123.13,30.22,-1.00,-1.0,2370
1846,306846,17124,-564,784,17151.21,30.27,-1.00,-1.0,2429
1849,306849,17052,-612,768,17080.25,30.27,-1.00,-1.0,2378
1852,306852,17120,-620,712,17146.01,30.27,-1.00,-1.0,2369
1857,306857,16972,-668,696,16999.39,30.27,-1.00,-1.0,2432
1859,306859,17052,-604,692,17076.72,30.22,-1.00,-1.0,2369
1862,306862,16976,-544,704,16999.30,30.27,-1.00,-1.0,2439
1865,306865,17044,-592,472,17060.81,30.27,-1.00,-1.0,2381
1868,306868,16988,-616,676,17012.60,30.37,-1.00,-1.0,2406
1870,306870,16976,-580,604,16996.64,30.27,-1.00,-1.0,2374
1873,306873,17060,-616,756,17087.85,30.27,-1.00,-1.0,2429
1876,306876,17076,-620,852,17108.48,30.27,-1.00,-1.0,2384
1881,306881,17096,-596,764,17123.44,30.27,-1.00,-1.0,2435
1884,306884,17116,-648,748,17144.59,30.27,-1.00,-1.0,2374
1886,306886,17128,-592,700,17152.52,30.27,-1.00,-1.0,2372
1889,306889,17112,-608,580,17132.62,30.22,-1.00,-1.0,2428
1892,306892,17020,-592,600,17040.86,30.22,-1.00,-1.0,2371
1895,306895,17060,-680,668,17086.61,30.32,-1.00,-1.0,2421
1897,306897,17092,-660,636,17116.56,30.27,-1.00,-1.0,2368
1900,306900,17124,-580,744,17149.96,30.22,-1.00,-1.0,2419
1903,306903,17100,-572,748,17125.91,30.22,-1.00,-1.0,2370
1908,306908,17084,-748,736,17116.20,30.32,-1.00,-1.0,2428
1911,306911,16980,-652,620,17003.82,30.37,-1.00,-1.0,2381
1913,306913,17048,-620,588,17069.40,30.22,-1.00,-1.0,2352
1916,306916,17068,-684,644,17093.84,30.27,-1.00,-1.0,2428
1919,306919,17088,-592,740,17114.26,30.13,-1.00,-1.0,2370
1921,306921,17032,-736,760,17064.83,30.27,-1.00,-1.0,2419
1924,306924,17116,-624,668,17140.39,30.22,-1.00,-1.0,2369
1927,306927,17060,-660,668,17085.83,30.27,-1.00,-1.0,2419
1930,306930,17052,-648,676,17077.69,30.32,-1.00,-1.0,2372
1935,306935,17008,-660,792,17039.22,30.27,-1.00,-1.0,2433
1937,306937,17028,-700,716,17057.42,30.32,-1.00,-1.0,2370
1940,306940,17108,-612,768,17136.16,30.27,-1.00,-1.0,2431
1943,306943,17020,-600,680,17044.14,30.18,-1.00,-1.0,2369
1945,306945,17124,-580,796,17152.30,30.27,-1.00,-1.0,2370
1948,306948,17000,-692,680,17027.66,30.22,-1.00,-1.0,2427
1951,306951,17120,-576,552,17138.58,30.22,-1.00,-1.0,2384
1954,306954,17088,-604,720,17113.82,30.27,-1.00,-1.0,2419
1957,306957,17036,-560,744,17061.43,30.22,-1.00,-1.0,2369
1962,306962,17064,-544,724,17088.01,30.32,-1.00,-1.0,2432
1964,306964,17068,-688,676,17095.23,30.37,-1.00,-1.0,2381
1967,306967,17092,-524,740,17116.04,30.32,-1.00,-1.0,2428
1970,306970,17052,-608,672,17076.06,30.22,-1.00,-1.0,2370
1973,306973,17064,-692,596,17088.42,30.32,-1.00,-1.0,2421
1975,306975,17096,-548,660,17117.51,30.32,-1.00,-1.0,2374
1978,306978,16944,-604,624,16966.24,30.18,-1.00,-1.0,2365
1981,306981,16992,-724,768,17024.75,30.18,-1.00,-1.0,2419
1984,306984,17136,-688,716,17164.75,30.18,-1.00,-1.0,2370
1989,306989,16996,-576,728,17021.33,30.27,-1.00,-1.0,2427
1992,306992,17080,-568,696,17103.61,30.22,-1.00,-1.0,2372
1994,306994,17000,-640,744,17028.30,30.18,-1.00,-1.0,2429
1997,306997,17048,-628,724,17074.92,30.27,-1.00,-1.0,2369
2000,307000,17060,-524,640,17080.04,30.27,-1.00,-1.0,2418
2003,307003,17128,-732,704,17158.08,30.27,-1.00,-1.0,2369
2005,307005,17024,-580,632,17045.60,30.37,-1.00,-1.0,2419
2008,307008,17016,-620,652,17039.77,30.18,-1.00,-1.0,2373
2011,307011,17016,-636,632,17039.61,30.27,-1.00,-1.0,2366
2016,307016,17104,-572,748,17129.90,30.37,-1.00,-1.0,2427
2019,307019,17144,-544,584,17162.57,30.22,-1.00,-1.0,2359
2022,307022,17032,-612,652,17055.46,30.37,-1.00,-1.0,2429
2024,307024,17036,-604,600,17057.26,30.13,-1.00,-1.0,2373
2027,307027,17044,-612,596,17065.39,30.27,-1.00,-1.0,2419
2030,307030,17112,-692,724,17141.28,30.22,-1.00,-1.0,2375
2033,307033,17024,-624,644,17047.60,30.18,-1.00,-1.0,2421
2035,307035,17028,-644,744,17056.41,30.18,-1.00,-1.0,2369
2040,307040,17084,-556,720,17108.20,30.22,-1.00,-1.0,2436
2043,307043,17084,-656,604,17107.26,30.22,-1.00,-1.0,2377
2046,307046,17060,-640,660,17084.75,30.18,-1.00,-1.0,2367
2048,307048,17068,-556,796,17095.60,30.18,-1.00,-1.0,2428
2051,307051,17060,-532,696,17082.48,30.27,-1.00,-1.0,2373
2054,307054,17124,-588,628,17145.60,30.32,-1.00,-1.0,2420
2057,307057,17120,-584,468,17136.35,30.27,-1.00,-1.0,2373
2059,307059,17024,-584,692,17048.06,30.22,-1.00,-1.0,2419
2062,307062,17088,-712,740,17118.83,30.27,-1.00,-1.0,2369
2067,307067,16928,-572,672,16950.99,30.27,-1.00,-1.0,2427
2070,307070,17024,-608,764,17051.98,30.18,-1.00,-1.0,2371
2073,307073,17040,-544,788,17066.88,30.27,-1.00,-1.0,2430
2075,307075,17040,-604,856,17072.17,30.37,-1.00,-1.0,2366
2078,307078,17080,-568,780,17107.23,30.32,-1.00,-1.0,2365
2081,307081,17060,-604,664,17083.60,30.22,-1.00,-1.0,2426
2083,307083,17136,-580,740,17161.77,30.32,-1.00,-1.0,2371
2086,307086,17000,-580,668,17023.00,30.27,-1.00,-1.0,2431
2089,307089,16992,-640,696,17018.29,30.32,-1.00,-1.0,2384
2094,307094,17088,-588,592,17108.36,30.32,-1.00,-1.0,2427
2097,307097,17176,-592,688,17199.96,30.22,-1.00,-1.0,2378
2100,307100,17024,-700,580,17048.25,30.22,-1.00,-1.0,2431
2102,307102,17060,-676,800,17092.12,30.32,-1.00,-1.0,2373
2105,307105,17032,-612,728,17058.53,30.27,-1.00,-1.0,2368
2108,307108,17144,-624,592,17165.56,30.22,-1.00,-1.0,2421
2110,307110,17076,-512,648,17095.96,30.27,-1.00,-1.0,2360
2113,307113,17084,-604,612,17105.62,30.27,-1.00,-1.0,2419
2116,307116,17036,-648,744,17064.55,30.27,-1.00,-1.0,2412
2121,307121,17096,-560,584,17115.14,30.27,-1.00,-1.0,2438
2124,307124,17036,-624,608,17058.26,30.18,-1.00,-1.0,2371
2127,307127,17108,-520,856,17137.29,30.22,-1.00,-1.0,2429
2129,307129,17168,-536,700,17190.62,30.27,-1.00,-1.0,2366
2132,307132,17012,-624,660,17036.23,30.22,-1.00,-1.0,2423
2135,307135,17160,-648,696,17186.33,30.27,-1.00,-1.0,2370
2137,307137,17036,-604,852,17067.98,30.32,-1.00,-1.0,2366
2140,307140,16984,-640,536,17004.50,30.27,-1.00,-1.0,2431
2143,307143,17104,-584,752,17130.48,30.27,-1.00,-1.0,2363
2148,307148,16984,-624,724,17010.87,30.32,-1.00,-1.0,2437
2151,307151,16960,-652,704,16987.12,30.27,-1.00,-1.0,2371
2153,307153,17020,-652,812,17051.83,30.22,-1.00,-1.0,2420
2156,307156,17008,-592,712,17033.19,30.27,-1.00,-1.0,2369
2159,307159,17004,-632,600,17026.32,30.32,-1.00,-1.0,2423
2162,307162,17120,-532,724,17143.56,30.37,-1.00,-1.0,2369
2164,307164,17084,-740,660,17112.75,30.32,-1.00,-1.0,2420
2167,307167,17060,-672,652,17085.68,30.18,-1.00,-1.0,2369
2170,307170,17116,-540,724,17139.81,30.27,-1.00,-1.0,2366
2175,307175,17068,-592,604,17088.94,30.27,-1.00,-1.0,2442
2177,307177,17136,-544,668,17157.64,30.27,-1.00,-1.0,2370
2180,307180,17016,-660,760,17045.75,30.27,-1.00,-1.0,2430
2183,307183,17004,-612,688,17028.91,30.18,-1.00,-1.0,2376
2186,307186,17064,-652,660,17089.20,30.37,-1.00,-1.0,2407
2188,307188,17096,-496,668,17116.23,30.27,-1.00,-1.0,2369
2191,307191,17084,-620,652,17107.68,30.18,-1.00,-1.0,2429
2194,307194,17076,-440,652,17094.11,30.27,-1.00,-1.0,2369
2199,307199,17056,-620,544,17075.93,30.18,-1.00,-1.0,2442
2202,307202,17108,-656,684,17134.23,30.37,-1.00,-1.0,2370
2204,307204,17056,-576,672,17078.95,30.32,-1.00,-1.0,2365
2207,307207,17104,-660,564,17126.02,30.27,-1.00,-1.0,2421
2210,307210,17060,-660,652,17085.21,30.32,-1.00,-1.0,2370
2213,307213,17092,-572,668,17114.61,30.37,-1.00,-1.0,2421
2215,307215,17112,-608,612,17133.73,30.22,-1.00,-1.0,2368
2218,307218,17032,-676,676,17058.81,30.27,-1.00,-1.0,2419
2221,307221,17152,-680,568,17174.87,30.22,-1.00,-1.0,2369
2226,307226,16992,-588,668,17015.29,30.22,-1.00,-1.0,2436
2229,307229,17032,-540,704,17055.09,30.22,-1.00,-1.0,2372
2232,307232,17040,-588,784,17068.16,30.32,-1.00,-1.0,2421
2234,307234,17048,-640,684,17073.71,30.22,-1.00,-1.0,2369
2237,307237,17044,-548,768,17070.09,30.27,-1.00,-1.0,2365
2240,307240,17092,-588,668,17115.15,30.18,-1.00,-1.0,2426
2242,307242,16984,-568,600,17004.08,30.27,-1.00,-1.0,2368
2245,307245,17104,-612,808,17134.01,30.18,-1.00,-1.0,2433
2248,307248,17112,-692,688,17139.80,30.18,-1.00,-1.0,2369
2253,307253,17020,-668,656,17045.73,30.27,-1.00,-1.0,2436
2256,307256,17096,-528,716,17119.13,30.22,-1.00,-1.0,2360
2259,307259,17028,-496,660,17048.00,30.27,-1.00,-1.0,2426
2261,307261,16956,-608,712,16981.83,30.32,-1.00,-1.0,2368
2264,307264,17112,-560,724,17136.46,30.27,-1.00,-1.0,2420
2267,307267,17168,-620,656,17191.71,30.22,-1.00,-1.0,2370
2269,307269,17120,-620,744,17147.37,30.27,-1.00,-1.0,2367
2272,307272,16972,-636,760,17000.91,30.32,-1.00,-1.0,2429
2275,307275,17184,-524,792,17210.22,30.18,-1.00,-1.0,2372
2280,307280,17088,-728,692,17117.49,30.27,-1.00,-1.0,2435
2283,307283,17144,-596,660,17167.05,30.27,-1.00,-1.0,2370
2286,307286,17024,-604,740,17050.78,30.27,-1.00,-1.0,2422
2288,307288,17012,-652,728,17040.05,30.27,-1.00,-1.0,2367
2291,307291,17124,-544,788,17150.75,30.27,-1.00,-1.0,2422
2294,307294,17012,-624,712,17038.32,30.27,-1.00,-1.0,2370
2297,307297,17108,-680,688,17135.33,30.22,-1.00,-1.0,2370
2299,307299,17160,-772,596,17187.69,30.22,-1.00,-1.0,2427
2302,307302,17064,-652,664,17089.36,30.27,-1.00,-1.0,2372
2307,307307,17136,-568,664,17158.26,30.27,-1.00,-1.0,2437
2310,307310,17072,-544,776,17098.28,30.18,-1.00,-1.0,2370
2313,307313,17064,-692,808,17097.13,30.22,-1.00,-1.0,2427
2315,307315,17076,-612,720,17102.13,30.27,-1.00,-1.0,2367
2318,307318,17044,-620,624,17066.68,30.32,-1.00,-1.0,2437
2321,307321,17156,-620,816,17186.58,30.27,-1.00,-1.0,2369
2324,307324,17048,-660,708,17075.46,30.32,-1.00,-1.0,2426
2326,307326,17044,-636,652,17068.32,30.27,-1.00,-1.0,2369
2329,307329,17016,-684,564,17039.08,30.41,-1.00,-1.0,2368
2334,307334,17100,-520,752,17124.42,30.22,-1.00,-1.0,2438
2337,307337,17048,-600,780,17076.38,30.37,-1.00,-1.0,2370
2340,307340,16908,-556,728,16932.80,30.22,-1.00,-1.0,2424
2342,307342,17076,-512,592,17093.93,30.32,-1.00,-1.0,2373
2345,307345,17032,-564,760,17058.27,30.22,-1.00,-1.0,2430
2348,307348,17004,-584,676,17027.45,30.27,-1.00,-1.0,2369
2351,307351,17096,-604,644,17118.78,30.32,-1.00,-1.0,2424
2353,307353,17100,-648,696,17126.42,30.32,-1.00,-1.0,2370
2358,307358,17056,-620,592,17077.53,30.18,-1.00,-1.0,2447
2361,307361,17000,-644,732,17027.94,30.32,-1.00,-1.0,2386
2364,307364,17048,-736,660,17076.64,30.18,-1.00,-1.0,2366
2366,307366,17128,-632,688,17153.46,30.32,-1.00,-1.0,2420
2369,307369,17040,-556,784,17067.09,30.18,-1.00,-1.0,2370
2372,307372,16924,-600,712,16949.59,30.27,-1.00,-1.0,2419
2375,307375,17040,-580,656,17062.48,30.27,-1.00,-1.0,2369
2377,307377,17084,-596,812,17113.67,30.22,-1.00,-1.0,2419
2380,307380,17128,-608,816,17158.20,30.27,-1.00,-1.0,2377
2385,307385,16980,-600,748,17007.05,30.22,-1.00,-1.0,2436
2388,307388,17068,-644,696,17094.32,30.22,-1.00,-1.0,2374
2391,307391,17068,-636,692,17093.86,30.32,-1.00,-1.0,2423
2393,307393,17084,-500,720,17106.47,30.22,-1.00,-1.0,2372
2396,307396,17084,-616,612,17106.05,30.27,-1.00,-1.0,2369
2399,307399,17036,-540,764,17061.67,30.18,-1.00,-1.0,2421
2401,307401,16996,-560,816,17024.79,30.27,-1.00,-1.0,2367
2404,307404,17072,-644,644,17096.28,30.27,-1.00,-1.0,2419
2407,307407,16996,-564,576,17015.11,30.27,-1.00,-1.0,2377
2412,307412,17036,-532,760,17061.24,30.27,-1.00,-1.0,2442
2415,307415,16972,-632,812,17003.16,30.27,-1.00,-1.0,2377
2418,307418,17024,-552,692,17047.00,30.37,-1.00,-1.0,2419
2421,307421,17008,-600,824,17038.52,30.18,-1.00,-1.0,2377
2423,307423,17016,-536,816,17043.98,30.27,-1.00,-1.0,2419
2426,307426,16952,-668,708,16979.92,30.27,-1.00,-1.0,2370
2429,307429,17032,-564,612,17052.32,30.32,-1.00,-1.0,2374
2431,307431,17132,-568,712,17156.19,30.22,-1.00,-1.0,2419
2434,307434,17148,-648,624,17171.58,30.27,-1.00,-1.0,2373
2440,307440,16984,-604,772,17012.26,30.18,-1.00,-1.0,2442
2442,307442,17044,-532,720,17067.49,30.37,-1.00,-1.0,2381
2445,307445,17056,-536,704,17078.94,30.18,-1.00,-1.0,2420
2448,307448,17056,-660,592,17079.03,30.37,-1.00,-1.0,2372
2451,307451,17064,-540,688,17086.40,30.27,-1.00,-1.0,2421
2453,307453,17084,-688,792,17116.18,30.37,-1.00,-1.0,2377
2456,307456,17128,-644,792,17158.39,30.22,-1.00,-1.0,2419
2459,307459,17120,-564,708,17143.91,30.18,-1.00,-1.0,2359
2461,307461,17004,-544,692,17026.77,30.22,-1.00,-1.0,2366
2466,307466,17008,-548,628,17028.41,30.32,-1.00,-1.0,2437
2469,307469,17012,-576,816,17041.30,30.18,-1.00,-1.0,2370
2472,307472,17000,-680,660,17026.39,30.22,-1.00,-1.0,2419
2475,307475,17096,-656,648,17120.85,30.27,-1.00,-1.0,2369
2477,307477,17064,-548,780,17090.61,30.22,-1.00,-1.0,2419
2480,307480,17096,-612,732,17122.60,30.32,-1.00,-1.0,2370
2483,307483,17036,-592,660,17059.05,30.22,-1.00,-1.0,2419
2486,307486,17072,-608,784,17100.80,30.32,-1.00,-1.0,2369
2488,307488,17012,-652,696,17038.71,30.22,-1.00,-1.0,2366
2493,307493,17104,-656,788,17134.71,30.22,-1.00,-1.0,2436
2496,307496,17052,-644,732,17079.85,30.22,-1.00,-1.0,2370
2499,307499,17112,-564,744,17137.45,30.22,-1.00,-1.0,2419
2502,307502,17100,-604,656,17123.23,30.22,-1.00,-1.0,2370
2504,307504,16984,-688,676,17011.37,30.22,-1.00,-1.0,2419
2507,307507,16956,-528,628,16975.84,30.22,-1.00,-1.0,2370
2510,307510,17080,-624,732,17107.06,30.32,-1.00,-1.0,2420
2513,307513,17060,-608,708,17085.51,30.22,-1.00,-1.0,2370
2518,307518,17040,-672,672,17066.48,30.22,-1.00,-1.0,2447
2520,307520,17004,-644,600,17026.77,30.27,-1.00,-1.0,2378
2523,307523,17016,-692,844,17050.97,30.32,-1.00,-1.0,2365
2526,307526,17076,-652,648,17100.72,30.27,-1.00,-1.0,2430
2528,307528,16980,-540,572,16998.21,30.22,-1.00,-1.0,2368
2531,307531,16948,-644,680,16973.86,30.37,-1.00,-1.0,2420
2534,307534,17096,-552,696,17119.06,30.32,-1.00,-1.0,2369
2537,307537,17112,-572,604,17132.21,30.27,-1.00,-1.0,2430
2539,307539,17016,-616,820,17046.88,30.27,-1.00,-1.0,2368
2544,307544,17004,-640,696,17030.27,30.37,-1.00,-1.0,2435
2547,307547,17024,-596,684,17048.16,30.32,-1.00,-1.0,2357
2550,307550,17064,-596,708,17089.08,30.27,-1.00,-1.0,2419
2553,307553,17048,-624,504,17066.86,30.32,-1.00,-1.0,2370
2555,307555,17132,-624,804,17162.20,30.27,-1.00,-1.0,2370
2558,307558,16960,-628,564,16980.99,30.22,-1.00,-1.0,2428
2561,307561,17136,-704,684,17164.09,30.27,-1.00,-1.0,2376
2564,307564,17052,-568,716,17076.47,30.22,-1.00,-1.0,2435
2566,307566,17076,-604,688,17100.53,30.27,-1.00,-1.0,2368
2572,307572,17044,-568,712,17068.32,30.22,-1.00,-1.0,2451
2575,307575,17072,-520,720,17095.09,30.27,-1.00,-1.0,2374
2578,307578,16956,-544,696,16979.00,30.22,-1.00,-1.0,2433
2580,307580,17028,-488,852,17056.29,30.32,-1.00,-1.0,2376
2583,307583,17132,-524,668,17153.02,30.32,-1.00,-1.0,2419
2586,307586,17020,-752,708,17051.31,30.18,-1.00,-1.0,2354
2588,307588,17008,-672,768,17038.59,30.22,-1.00,-1.0,2367
2591,307591,16960,-720,704,16989.87,30.18,-1.00,-1.0,2419
2594,307594,17092,-580,660,17114.57,30.22,-1.00,-1.0,2359
2599,307599,17036,-616,548,17055.94,30.32,-1.00,-1.0,2443
2601,307601,17084,-616,708,17109.76,30.32,-1.00,-1.0,2380
2604,307604,17020,-496,620,17038.51,30.22,-1.00,-1.0,2419
2607,307607,17124,-668,684,17150.67,30.32,-1.00,-1.0,2370
2610,307610,17076,-548,576,17094.50,30.32,-1.00,-1.0,2421
2612,307612,17104,-620,608,17126.03,30.32,-1.00,-1.0,2376
2615,307615,16908,-592,600,16929.00,30.27,-1.00,-1.0,2419
2618,307618,17044,-596,820,17074.12,30.32,-1.00,-1.0,2376
2621,307621,17044,-628,664,17068.49,30.32,-1.00,-1.0,2370
2626,307626,17096,-552,772,17122.32,30.32,-1.00,-1.0,2436
2628,307628,17020,-568,764,17046.60,30.22,-1.00,-1.0,2375
2631,307631,17024,-604,676,17048.12,30.22,-1.00,-1.0,2429
2634,307634,17128,-660,720,17155.83,30.18,-1.00,-1.0,2377
2637,307637,17028,-676,740,17057.47,30.32,-1.00,-1.0,2438
2639,307639,17036,-568,756,17062.22,30.32,-1.00,-1.0,2377
2642,307642,17108,-656,712,17135.37,30.27,-1.00,-1.0,2419
2645,307645,17008,-588,816,17037.71,30.32,-1.00,-1.0,2372
2650,307650,17036,-532,756,17061.06,30.32,-1.00,-1.0,2444
2652,307652,16992,-600,704,17017.16,30.22,-1.00,-1.0,2370
2655,307655,17096,-632,664,17120.56,30.18,-1.00,-1.0,2365
2658,307658,17068,-544,676,17090.04,30.37,-1.00,-1.0,2406
2661,307661,16944,-628,764,16972.84,30.22,-1.00,-1.0,2372
2663,307663,17092,-636,564,17113.12,30.27,-1.00,-1.0,2419
2666,307666,17032,-556,652,17053.54,30.22,-1.00,-1.0,2429
2669,307669,17064,-632,644,17087.84,30.27,-1.00,-1.0,2415
2672,307672,17140,-672,776,17170.71,30.32,-1.00,-1.0,2378
2677,307677,16968,-708,660,16995.58,30.32,-1.00,-1.0,2444
2679,307679,17064,-524,680,17085.58,30.22,-1.00,-1.0,2372
2682,307682,17120,-596,600,17140.88,30.18,-1.00,-1.0,2365
2685,307685,16972,-508,704,16994.19,30.32,-1.00,-1.0,2476
2688,307688,17044,-604,852,17075.97,30.32,-1.00,-1.0,2371
2691,307691,17024,-604,528,17042.89,30.27,-1.00,-1.0,2427
2693,307693,17064,-628,712,17090.39,30.27,-1.00,-1.0,2374
2696,307696,17008,-620,712,17034.18,30.18,-1.00,-1.0,2424
2699,307699,16992,-724,564,17016.77,30.27,-1.00,-1.0,2368
2704,307704,17008,-572,692,17031.68,30.22,-1.00,-1.0,2435
2706,307706,16972,-640,720,16999.32,30.22,-1.00,-1.0,2367
2709,307709,17068,-592,712,17093.10,30.27,-1.00,-1.0,2442
2712,307712,17092,-492,668,17112.12,30.27,-1.00,-1.0,2389
2715,307715,17084,-576,872,17115.93,30.27,-1.00,-1.0,2367
2717,307717,17076,-620,736,17103.10,30.22,-1.00,-1.0,2420
2720,307720,17040,-608,596,17061.26,30.27,-1.00,-1.0,2374
2723,307723,17100,-620,636,17123.05,30.32,-1.00,-1.0,2420
2726,307726,17116,-576,760,17142.54,30.27,-1.00,-1.0,2370
2731,307731,17112,-596,740,17138.36,30.27,-1.00,-1.0,2430
2733,307733,16976,-688,532,16998.26,30.18,-1.00,-1.0,2369
2736,307736,17104,-576,668,17126.73,30.32,-1.00,-1.0,2435
2739,307739,17104,-616,656,17127.66,30.18,-1.00,-1.0,2358
2742,307742,17088,-600,676,17111.89,30.18,-1.00,-1.0,2427
2744,307744,17096,-576,704,17120.18,30.27,-1.00,-1.0,2371
2747,307747,16960,-608,720,16986.16,30.32,-1.00,-1.0,2366
2750,307750,16996,-552,684,17018.71,30.27,-1.00,-1.0,2426
2753,307753,17052,-520,716,17074.95,30.32,-1.00,-1.0,2377
2758,307758,17024,-724,560,17048.59,30.27,-1.00,-1.0,2435
2760,307760,17032,-628,804,17062.53,30.18,-1.00,-1.0,2367
2763,307763,17108,-584,660,17130.68,30.32,-1.00,-1.0,2434
2766,307766,17060,-588,744,17086.34,30.32,-1.00,-1.0,2370
2769,307769,17028,-652,836,17060.97,30.32,-1.00,-1.0,2428
2771,307771,16992,-628,636,17015.49,30.22,-1.00,-1.0,2370
2774,307774,17040,-624,656,17064.04,30.22,-1.00,-1.0,2421
2777,307777,17068,-676,776,17099.00,30.32,-1.00,-1.0,2371
2780,307780,17108,-668,644,17133.14,30.32,-1.00,-1.0,2375
2785,307785,17012,-732,724,17043.13,30.27,-1.00,-1.0,2429
2787,307787,17116,-620,616,17138.30,30.27,-1.00,-1.0,2366
2790,307790,17020,-600,748,17046.99,30.27,-1.00,-1.0,2449
2793,307793,16984,-580,632,17005.65,30.27,-1.00,-1.0,2377
2796,307796,17076,-600,708,17101.20,30.27,-1.00,-1.0,2430
2798,307798,17052,-632,588,17073.84,30.27,-1.00,-1.0,2382
2801,307801,16992,-600,676,17016.02,30.22,-1.00,-1.0,2420
2804,307804,17088,-564,636,17109.13,30.27,-1.00,-1.0,2372
2808,307808,17108,-576,720,17132.83,30.27,-1.00,-1.0,2428
2811,307811,16960,-608,624,16982.36,30.32,-1.00,-1.0,2366
2814,307814,17116,-624,600,17137.88,30.27,-1.00,-1.0,2373
2817,307817,17068,-604,852,17099.92,30.27,-1.00,-1.0,2444
2819,307819,17072,-608,656,17095.41,30.27,-1.00,-1.0,2376
2822,307822,17040,-612,660,17063.76,30.22,-1.00,-1.0,2421
2825,307825,17108,-632,684,17133.33,30.32,-1.00,-1.0,2373
2828,307828,17000,-604,904,17034.73,30.27,-1.00,-1.0,2424
2831,307831,17080,-596,736,17106.24,30.18,-1.00,-1.0,2376
2836,307836,16984,-564,696,17007.61,30.27,-1.00,-1.0,2435
2838,307838,17080,-624,764,17108.46,30.27,-1.00,-1.0,2366
2841,307841,17052,-676,624,17076.80,30.27,-1.00,-1.0,2448
2844,307844,17060,-628,720,17086.73,30.27,-1.00,-1.0,2374
2847,307847,17012,-668,656,17037.74,30.18,-1.00,-1.0,2367
2849,307849,17056,-552,800,17083.67,30.22,-1.00,-1.0,2422
2852,307852,17072,-580,640,17093.83,30.22,-1.00,-1.0,2371
2855,307855,17080,-608,564,17100.12,30.32,-1.00,-1.0,2420
2858,307858,17040,-600,768,17067.85,30.27,-1.00,-1.0,2373
2863,307863,17036,-536,740,17060.49,30.27,-1.00,-1.0,2434
2865,307865,17044,-544,720,17067.87,30.18,-1.00,-1.0,2366
2868,307868,16976,-680,792,17008.06,30.22,-1.00,-1.0,2443
2871,307871,17060,-648,756,17089.03,30.27,-1.00,-1.0,2377
2874,307874,17016,-612,732,17042.73,30.22,-1.00,-1.0,2367
2876,307876,17008,-580,908,17042.09,30.18,-1.00,-1.0,2421
2879,307879,17060,-716,692,17089.04,30.13,-1.00,-1.0,2370
2882,307882,17028,-596,788,17056.64,30.18,-1.00,-1.0,2421
2885,307885,17048,-604,684,17072.40,30.22,-1.00,-1.0,2371
2890,307890,17144,-620,620,17166.41,30.27,-1.00,-1.0,2427
2893,307893,16996,-604,636,17018.62,30.37,-1.00,-1.0,2375
2896,307896,17080,-660,768,17109.99,30.27,-1.00,-1.0,2434
2898,307898,17140,-540,568,17157.91,30.27,-1.00,-1.0,2373
2901,307901,17052,-572,608,17072.42,30.32,-1.00,-1.0,2436
2904,307904,17056,-580,712,17080.71,30.27,-1.00,-1.0,2380
2906,307906,16992,-564,672,17014.63,30.32,-1.00,-1.0,2361
2909,307909,17056,-556,856,17086.52,30.27,-1.00,-1.0,2420
2912,307912,16972,-540,708,16995.34,30.32,-1.00,-1.0,2371
2917,307917,17020,-492,712,17041.99,30.32,-1.00,-1.0,2430
2919,307919,17044,-692,620,17069.31,30.27,-1.00,-1.0,2368
2922,307922,17044,-572,652,17066.05,30.22,-1.00,-1.0,2442
2925,307925,17024,-488,776,17048.66,30.22,-1.00,-1.0,2384
2928,307928,17028,-680,676,17054.97,30.32,-1.00,-1.0,2421
2931,307931,17084,-648,636,17108.11,30.32,-1.00,-1.0,2373
2933,307933,17112,-656,620,17135.79,30.13,-1.00,-1.0,2408
2936,307936,17028,-604,692,17052.76,30.22,-1.00,-1.0,2385
2939,307939,17060,-668,768,17090.34,30.27,-1.00,-1.0,2367
2944,307944,17140,-636,780,17169.52,30.22,-1.00,-1.0,2415
2946,307946,17000,-684,680,17027.34,30.27,-1.00,-1.0,2367
2949,307949,17052,-600,768,17079.83,30.32,-1.00,-1.0,2442
2952,307952,17096,-640,612,17118.92,30.32,-1.00,-1.0,2384
2955,307955,17072,-552,740,17096.94,30.27,-1.00,-1.0,2420
2958,307958,17100,-624,576,17121.07,30.22,-1.00,-1.0,2371
2960,307960,17104,-608,708,17129.44,30.27,-1.00,-1.0,2423
2963,307963,17028,-584,700,17052.38,30.32,-1.00,-1.0,2378
2968,307968,16976,-588,884,17009.17,30.22,-1.00,-1.0,2442
2971,307971,17068,-624,676,17092.78,30.32,-1.00,-1.0,2378
2973,307973,17052,-640,672,17077.23,30.27,-1.00,-1.0,2368
2976,307976,17008,-604,680,17032.30,30.27,-1.00,-1.0,2421
2979,307979,17136,-692,592,17160.18,30.37,-1.00,-1.0,2373
2982,307982,17080,-612,632,17102.64,30.27,-1.00,-1.0,2421
2984,307984,17064,-568,772,17090.89,30.37,-1.00,-1.0,2369
2987,307987,17020,-600,648,17042.90,30.27,-1.00,-1.0,2419
2990,307990,17116,-608,760,17143.65,30.18,-1.00,-1.0,2374
2995,307995,17056,-580,736,17081.72,30.22,-1.00,-1.0,2439
2997,307997,17008,-612,620,17030.30,30.27,-1.00,-1.0,2367
3000,308000,16988,-660,716,17015.89,30.32,-1.00,-1.0,2451
3003,308003,17072,-592,720,17097.43,30.22,-1.00,-1.0,2378
3006,308006,17084,-588,804,17113.01,30.27,-1.00,-1.0,2367
3008,308008,17132,-632,748,17159.96,30.27,-1.00,-1.0,2421
3011,308011,17156,-676,616,17180.36,30.18,-1.00,-1.0,2370
3014,308014,17064,-620,832,17095.52,30.22,-1.00,-1.0,2420
3017,308017,17000,-540,788,17026.82,30.32,-1.00,-1.0,2371
3022,308022,16988,-664,584,17011.00,30.27,-1.00,-1.0,2428
3024,308024,17072,-580,732,17097.53,30.27,-1.00,-1.0,2373
3027,308027,17096,-608,748,17123.15,30.27,-1.00,-1.0,2434
3030,308030,17008,-640,768,17037.36,30.18,-1.00,-1.0,2373
3033,308033,17124,-604,712,17149.44,30.18,-1.00,-1.0,2422
3035,308035,17040,-588,768,17067.43,30.27,-1.00,-1.0,2355
3038,308038,17092,-664,724,17120.21,30.13,-1.00,-1.0,2366
3041,308041,17088,-600,728,17114.02,30.32,-1.00,-1.0,2427
3044,308044,17132,-576,728,17157.13,30.32,-1.00,-1.0,2370
3049,308049,17140,-592,680,17163.70,30.32,-1.00,-1.0,2429
3052,308052,17044,-624,608,17066.25,30.27,-1.00,-1.0,2372
3054,308054,17012,-596,712,17037.32,30.32,-1.00,-1.0,2437
3057,308057,17012,-540,728,17036.13,30.32,-1.00,-1.0,2373
3060,308060,16988,-572,640,17009.67,30.13,-1.00,-1.0,2420
3063,308063,16976,-652,612,16999.54,30.32,-1.00,-1.0,2378
3065,308065,17144,-564,532,17161.52,30.08,-1.00,-1.0,2378
3068,308068,17044,-676,728,17072.93,30.27,-1.00,-1.0,2420
3071,308071,17076,-712,676,17104.20,30.37,-1.00,-1.0,2378
3076,308076,17028,-672,544,17049.94,30.22,-1.00,-1.0,2428
3079,308079,17060,-560,808,17088.30,30.22,-1.00,-1.0,2376
3081,308081,17040,-556,628,17060.63,30.27,-1.00,-1.0,2431
3084,308084,17068,-680,712,17096.37,30.22,-1.00,-1.0,2370
3087,308087,17044,-576,780,17071.56,30.18,-1.00,-1.0,2420
3090,308090,17020,-600,852,17051.87,30.32,-1.00,-1.0,2378
3092,308092,17072,-624,788,17101.56,30.27,-1.00,-1.0,2421
3095,308095,17096,-592,776,17123.84,30.22,-1.00,-1.0,2371
3098,308098,17044,-648,728,17071.84,30.37,-1.00,-1.0,2383
3103,308103,17012,-584,616,17033.16,30.37,-1.00,-1.0,2427
3106,308106,16988,-532,624,17007.78,30.22,-1.00,-1.0,2376
3109,308109,17036,-580,616,17057.00,30.27,-1.00,-1.0,2433
3111,308111,17016,-440,836,17042.21,30.37,-1.00,-1.0,2376
3114,308114,17068,-580,708,17092.52,30.27,-1.00,-1.0,2435
3117,308117,17056,-632,908,17091.84,30.27,-1.00,-1.0,2377
3120,308120,17104,-676,668,17130.38,30.27,-1.00,-1.0,2434
3122,308122,17004,-636,604,17026.61,30.27,-1.00,-1.0,2373
3127,308127,17108,-604,624,17130.03,30.27,-1.00,-1.0,2428
3130,308130,17100,-656,684,17126.24,30.22,-1.00,-1.0,2363
3133,308133,16972,-576,608,16992.65,30.18,-1.00,-1.0,2368
3135,308135,16960,-648,792,16990.84,30.27,-1.00,-1.0,2437
3138,308138,17044,-588,556,17063.20,30.27,-1.00,-1.0,2357
3141,308141,16964,-624,796,16994.12,30.32,-1.00,-1.0,2423
3144,308144,17060,-536,728,17083.94,30.22,-1.00,-1.0,2420
3147,308147,17036,-596,640,17058.43,30.22,-1.00,-1.0,2442
3149,308149,17028,-660,660,17053.56,30.27,-1.00,-1.0,2382
3154,308154,17080,-628,704,17106.03,30.27,-1.00,-1.0,2437
3157,308157,17060,-648,752,17088.86,30.37,-1.00,-1.0,2377
3160,308160,17068,-632,664,17092.60,30.22,-1.00,-1.0,2430
3163,308163,17000,-508,600,17018.17,30.37,-1.00,-1.0,2375
3165,308165,17020,-608,656,17043.49,30.22,-1.00,-1.0,2365
3168,308168,17012,-756,672,17042.04,30.18,-1.00,-1.0,2420
3171,308171,17008,-584,720,17033.25,30.32,-1.00,-1.0,2370
3173,308173,16964,-632,728,16991.37,30.27,-1.00,-1.0,2420
3176,308176,17036,-580,648,17058.18,30.22,-1.00,-1.0,2369
3181,308181,17132,-604,648,17154.89,30.22,-1.00,-1.0,2428
3184,308184,17160,-660,720,17187.78,30.13,-1.00,-1.0,2373
3187,308187,17016,-712,716,17045.93,30.27,-1.00,-1.0,2430
3189,308189,17008,-644,772,17037.69,30.32,-1.00,-1.0,2365
3192,308192,17036,-540,668,17057.64,30.27,-1.00,-1.0,2419
3195,308195,17028,-692,676,17055.46,30.32,-1.00,-1.0,2370
3197,308197,16984,-580,660,17006.71,30.27,-1.00,-1.0,2366
3200,308200,16992,-528,600,17010.79,30.27,-1.00,-1.0,2435
3203,308203,17112,-616,612,17134.02,30.32,-1.00,-1.0,2370
3208,308208,17036,-688,680,17063.44,30.27,-1.00,-1.0,2426
3211,308211,16912,-548,536,16929.36,30.18,-1.00,-1.0,2371
3213,308213,17084,-644,732,17111.80,30.18,-1.00,-1.0,2428
3216,308216,16992,-684,504,17013.23,30.37,-1.00,-1.0,2373
3219,308219,17004,-420,704,17023.75,30.27,-1.00,-1.0,2419
3222,308222,17036,-576,684,17059.45,30.27,-1.00,-1.0,2376
3224,308224,17032,-572,832,17061.90,30.18,-1.00,-1.0,2420
3227,308227,17112,-660,748,17141.05,30.27,-1.00,-1.0,2369
3230,308230,17032,-620,556,17052.35,30.18,-1.00,-1.0,2366
3235,308235,17032,-660,656,17057.40,30.32,-1.00,-1.0,2422
3237,308237,17056,-640,624,17079.41,30.32,-1.00,-1.0,2374
3240,308240,17212,-616,720,17238.06,30.22,-1.00,-1.0,2436
3243,308243,17044,-700,696,17072.56,30.22,-1.00,-1.0,2377
3246,308246,17188,-704,712,17217.14,30.27,-1.00,-1.0,2419
3249,308249,17020,-584,808,17049.17,30.22,-1.00,-1.0,2373
3251,308251,17104,-588,748,17130.44,30.27,-1.00,-1.0,2420
3254,308254,17132,-536,752,17156.87,30.27,-1.00,-1.0,2372
3257,308257,17072,-592,668,17095.32,30.27,-1.00,-1.0,2368
3262,308262,17084,-664,748,17113.25,30.27,-1.00,-1.0,2426
3265,308265,17108,-692,752,17138.50,30.27,-1.00,-1.0,2369
3268,308268,17044,-664,884,17079.82,30.27,-1.00,-1.0,2435
3270,308270,17048,-560,680,17070.74,30.27,-1.00,-1.0,2367
3273,308273,17028,-576,812,17057.08,30.27,-1.00,-1.0,2420
3276,308276,17100,-580,868,17131.84,30.27,-1.00,-1.0,2370
3279,308279,17044,-632,672,17068.95,30.32,-1.00,-1.0,2427
3281,308281,17076,-568,664,17098.34,30.27,-1.00,-1.0,2368
3286,308286,17008,-560,804,17036.20,30.27,-1.00,-1.0,2427
3289,308289,16952,-672,732,16981.10,30.27,-1.00,-1.0,2373
3292,308292,16984,-636,792,17014.35,30.32,-1.00,-1.0,2364
3295,308295,17040,-584,580,17059.87,30.22,-1.00,-1.0,2442
3297,308297,17144,-544,736,17168.41,30.32,-1.00,-1.0,2372
3300,308300,16992,-676,752,17022.06,30.22,-1.00,-1.0,2412
3303,308303,17020,-600,556,17039.65,30.22,-1.00,-1.0,2377
3306,308306,17048,-640,748,17076.40,30.27,-1.00,-1.0,2433
3308,308308,16964,-596,768,16991.83,30.32,-1.00,-1.0,2382
3313,308313,17032,-600,640,17054.58,30.41,-1.00,-1.0,2427
3316,308316,17108,-592,616,17129.32,30.37,-1.00,-1.0,2366
3319,308319,17000,-656,648,17024.99,30.22,-1.00,-1.0,2429
3322,308322,17112,-572,480,17128.29,30.22,-1.00,-1.0,2377
3324,308324,17084,-632,616,17106.78,30.27,-1.00,-1.0,2370
3327,308327,17036,-644,744,17064.39,30.37,-1.00,-1.0,2419
3330,308330,17012,-700,756,17043.17,30.27,-1.00,-1.0,2369
3333,308333,16996,-564,676,17018.79,30.27,-1.00,-1.0,2418
3335,308335,17112,-548,688,17134.59,30.18,-1.00,-1.0,2375
3340,308340,17020,-616,748,17047.56,30.32,-1.00,-1.0,2438
3343,308343,17148,-528,664,17168.97,30.32,-1.00,-1.0,2367
3346,308346,17124,-604,704,17149.11,30.27,-1.00,-1.0,2436
3348,308348,17100,-544,624,17120.03,30.22,-1.00,-1.0,2365
3351,308351,17064,-624,692,17089.42,30.27,-1.00,-1.0,2430
3354,308354,17036,-592,712,17061.15,30.32,-1.00,-1.0,2374
3357,308357,16968,-604,740,16994.87,30.37,-1.00,-1.0,2366
3359,308359,17052,-596,736,17078.28,30.32,-1.00,-1.0,2419
3362,308362,17128,-548,680,17150.25,30.27,-1.00,-1.0,2380
3367,308367,17080,-648,876,17114.72,30.27,-1.00,-1.0,2440
3370,308370,17052,-568,696,17075.65,30.22,-1.00,-1.0,2370
3373,308373,17060,-648,628,17083.85,30.37,-1.00,-1.0,2431
3375,308375,17056,-592,716,17081.28,30.27,-1.00,-1.0,2371
3378,308378,17004,-636,680,17029.47,30.37,-1.00,-1.0,2428
3381,308381,17092,-592,744,17118.42,30.37,-1.00,-1.0,2377
3384,308384,17008,-640,752,17036.64,30.27,-1.00,-1.0,2419
3386,308386,17060,-588,748,17086.51,30.18,-1.00,-1.0,2372
3389,308389,17068,-612,712,17093.80,30.18,-1.00,-1.0,2374
3394,308394,17008,-616,776,17036.83,30.27,-1.00,-1.0,2438
3397,308397,17080,-536,608,17099.22,30.27,-1.00,-1.0,2377
3400,308400,17116,-600,580,17136.33,30.27,-1.00,-1.0,2408
3402,308402,16980,-604,708,17005.48,30.27,-1.00,-1.0,2368
3405,308405,17004,-536,828,17032.58,30.37,-1.00,-1.0,2429
3408,308408,17016,-508,784,17041.62,30.27,-1.00,-1.0,2376
3411,308411,17036,-524,640,17056.07,30.22,-1.00,-1.0,2460
3414,308414,17060,-668,632,17084.77,30.22,-1.00,-1.0,2368
3419,308419,17044,-588,724,17069.50,30.27,-1.00,-1.0,2450
3422,308422,17092,-632,900,17127.34,30.27,-1.00,-1.0,2390
3425,308425,17096,-612,704,17121.43,30.32,-1.00,-1.0,2366
3427,308427,16940,-512,728,16963.37,30.37,-1.00,-1.0,2429
3430,308430,17060,-584,648,17082.29,30.32,-1.00,-1.0,2369
3433,308433,16916,-620,668,16940.53,30.18,-1.00,-1.0,2420
3436,308436,17144,-588,612,17164.99,30.32,-1.00,-1.0,2369
3438,308438,17036,-464,616,17053.45,30.37,-1.00,-1.0,2419
3441,308441,16964,-552,616,16984.15,30.22,-1.00,-1.0,2370
3446,308446,17092,-648,632,17115.95,30.22,-1.00,-1.0,2430
3449,308449,16996,-672,772,17026.79,30.22,-1.00,-1.0,2374
3451,308451,16968,-680,724,16997.05,30.32,-1.00,-1.0,2366
3454,308454,17016,-644,720,17043.40,30.27,-1.00,-1.0,2429
3457,308457,16992,-512,636,17011.61,30.37,-1.00,-1.0,2382
3460,308460,17104,-644,640,17128.08,30.18,-1.00,-1.0,2423
3462,308462,17200,-684,736,17229.32,30.27,-1.00,-1.0,2370
3465,308465,17080,-600,704,17105.03,30.27,-1.00,-1.0,2435
3468,308468,16992,-632,600,17014.33,30.37,-1.00,-1.0,2365
3473,308473,17080,-576,812,17108.99,30.27,-1.00,-1.0,2433
3475,308475,17108,-680,708,17136.14,30.32,-1.00,-1.0,2370
3478,308478,17048,-616,792,17077.50,30.37,-1.00,-1.0,2431
3481,308481,16972,-620,800,17002.15,30.32,-1.00,-1.0,2369
3483,308483,17124,-512,704,17146.11,30.27,-1.00,-1.0,2368
3486,308486,17036,-612,608,17057.83,30.32,-1.00,-1.0,2428
3489,308489,17052,-656,644,17076.76,30.27,-1.00,-1.0,2385
3492,308492,17048,-500,716,17070.35,30.32,-1.00,-1.0,2421
3495,308495,17016,-556,648,17037.41,30.37,-1.00,-1.0,2371
3499,308499,17080,-580,784,17107.82,30.37,-1.00,-1.0,2427
3502,308502,17132,-668,676,17158.34,30.27,-1.00,-1.0,2373
3505,308505,17060,-616,652,17083.56,30.27,-1.00,-1.0,2443
3508,308508,17012,-548,656,17033.46,30.18,-1.00,-1.0,2379
3511,308511,17016,-668,500,17036.45,30.22,-1.00,-1.0,2433
3513,308513,17000,-536,476,17015.11,30.18,-1.00,-1.0,2374
3516,308516,17096,-632,628,17119.20,30.32,-1.00,-1.0,2366
3519,308519,17040,-656,768,17069.91,30.27,-1.00,-1.0,2425
3521,308521,17008,-656,676,17034.06,30.27,-1.00,-1.0,2367
3526,308526,16936,-664,544,16957.74,30.18,-1.00,-1.0,2426
3529,308529,17108,-684,756,17138.35,30.22,-1.00,-1.0,2370
3532,308532,17060,-584,604,17080.68,30.27,-1.00,-1.0,2428
3535,308535,17064,-624,848,17096.45,30.27,-1.00,-1.0,2369
3537,308537,17012,-604,744,17038.97,30.37,-1.00,-1.0,2419
3540,308540,17096,-536,780,17122.18,30.18,-1.00,-1.0,2369
3543,308543,17136,-588,916,17170.54,30.27,-1.00,-1.0,2419
3546,308546,17084,-668,696,17111.21,30.27,-1.00,-1.0,2369
3548,308548,17104,-592,576,17123.93,30.27,-1.00,-1.0,2366
3553,308553,17140,-656,676,17165.87,30.27,-1.00,-1.0,2427
3556,308556,16928,-544,712,16951.70,30.27,-1.00,-1.0,2370
3559,308559,17032,-724,696,17061.58,30.27,-1.00,-1.0,2429
3562,308562,17080,-504,572,17097.01,30.27,-1.00,-1.0,2369
3564,308564,17100,-692,752,17130.51,30.27,-1.00,-1.0,2418
3567,308567,17116,-632,792,17145.97,30.37,-1.00,-1.0,2370
3570,308570,17052,-688,728,17081.39,30.27,-1.00,-1.0,2419
3573,308573,17016,-580,760,17042.84,30.27,-1.00,-1.0,2369
3578,308578,17036,-576,744,17061.96,30.27,-1.00,-1.0,2426
3580,308580,17040,-488,600,17057.54,30.27,-1.00,-1.0,2372
3583,308583,17100,-500,760,17124.18,30.27,-1.00,-1.0,2365
3586,308586,17076,-620,648,17099.54,30.41,-1.00,-1.0,2435
3588,308588,17028,-660,628,17052.35,30.32,-1.00,-1.0,2368
3591,308591,17072,-600,468,17088.95,30.22,-1.00,-1.0,2431
3594,308594,17052,-580,556,17070.92,30.27,-1.00,-1.0,2369
3597,308597,17056,-616,468,17073.54,30.32,-1.00,-1.0,2427
3600,308600,16952,-568,784,16979.62,30.22,-1.00,-1.0,2371
3604,308604,17088,-460,764,17111.25,30.32,-1.00,-1.0,2427
3607,308607,17076,-668,672,17102.27,30.22,-1.00,-1.0,2373
3610,308610,17012,-616,680,17036.72,30.32,-1.00,-1.0,2443
3613,308613,17048,-656,712,17075.47,30.22,-1.00,-1.0,2377
3615,308615,17076,-596,808,17105.49,30.27,-1.00,-1.0,2366
3618,308618,17012,-664,564,17034.29,30.27,-1.00,-1.0,2419
3621,308621,17076,-616,600,17097.64,30.27,-1.00,-1.0,2369
3624,308624,16956,-604,636,16978.67,30.27,-1.00,-1.0,2426
3627,308627,16988,-636,804,17018.90,30.27,-1.00,-1.0,2371
3631,308631,17092,-616,744,17119.27,30.18,-1.00,-1.0,2427
3634,308634,17088,-688,628,17113.37,30.27,-1.00,-1.0,2369
3637,308637,17080,-668,700,17107.38,30.37,-1.00,-1.0,2428
3640,308640,17060,-704,828,17094.58,30.27,-1.00,-1.0,2369
3642,308642,17076,-644,616,17099.24,30.32,-1.00,-1.0,2367
3645,308645,16980,-548,592,16999.15,30.22,-1.00,-1.0,2434
3648,308648,17028,-496,708,17049.93,30.22,-1.00,-1.0,2380
3651,308651,17072,-576,716,17096.71,30.27,-1.00,-1.0,2420
3654,308654,17052,-624,704,17077.93,30.27,-1.00,-1.0,2368
3658,308658,16952,-520,724,16975.42,30.22,-1.00,-1.0,2430
3661,308661,17084,-652,688,17110.28,30.27,-1.00,-1.0,2370
3664,308664,17084,-604,852,17115.89,30.32,-1.00,-1.0,2435
3666,308666,16956,-596,632,16978.24,30.32,-1.00,-1.0,2368
3669,308669,17044,-600,684,17068.27,30.27,-1.00,-1.0,2434
3672,308672,17032,-660,776,17062.44,30.22,-1.00,-1.0,2370
3675,308675,17024,-660,704,17051.33,30.27,-1.00,-1.0,2365
3678,308678,17160,-544,728,17184.05,30.32,-1.00,-1.0,2421
3681,308681,17084,-544,716,17107.65,30.27,-1.00,-1.0,2367
3686,308686,17036,-624,548,17056.23,30.27,-1.00,-1.0,2432
3688,308688,17072,-676,740,17101.40,30.37,-1.00,-1.0,2378
3691,308691,17056,-692,580,17079.88,30.32,-1.00,-1.0,2428
3694,308694,17000,-660,760,17029.77,30.27,-1.00,-1.0,2372
3697,308697,17052,-688,632,17077.57,30.32,-1.00,-1.0,2421
3699,308699,17064,-684,564,17087.01,30.27,-1.00,-1.0,2368
3702,308702,17052,-596,760,17079.33,30.22,-1.00,-1.0,2419
3705,308705,17092,-624,696,17117.54,30.37,-1.00,-1.0,2371
3708,308708,17040,-616,732,17066.84,30.32,-1.00,-1.0,2369
3713,308713,17100,-556,696,17123.19,30.22,-1.00,-1.0,2427
3715,308715,17124,-672,748,17153.50,30.27,-1.00,-1.0,2377
3718,308718,17036,-580,660,17058.64,30.22,-1.00,-1.0,2429
3721,308721,17080,-664,684,17106.58,30.27,-1.00,-1.0,2370
3724,308724,17056,-660,624,17080.17,30.22,-1.00,-1.0,2421
3726,308726,17156,-580,760,17182.62,30.22,-1.00,-1.0,2367
3729,308729,17044,-560,640,17065.20,30.32,-1.00,-1.0,2420
3732,308732,17004,-756,736,17036.70,30.27,-1.00,-1.0,2370
3737,308737,17076,-668,812,17108.34,30.18,-1.00,-1.0,2429
3740,308740,17004,-496,784,17029.29,30.37,-1.00,-1.0,2377
3742,308742,17092,-592,740,17118.25,30.22,-1.00,-1.0,2351
3745,308745,17036,-640,700,17062.38,30.32,-1.00,-1.0,2429
3748,308748,17060,-572,792,17087.95,30.32,-1.00,-1.0,2370
3750,308750,17004,-676,664,17030.38,30.27,-1.00,-1.0,2419
3753,308753,16944,-544,724,16968.18,30.32,-1.00,-1.0,2356
3756,308756,17052,-564,632,17073.03,30.27,-1.00,-1.0,2419
3759,308759,17080,-540,736,17104.38,30.32,-1.00,-1.0,2377
3764,308764,16988,-540,816,17016.16,30.32,-1.00,-1.0,2427
3767,308767,17044,-728,664,17072.46,30.22,-1.00,-1.0,2372
3769,308769,17132,-640,636,17155.74,30.22,-1.00,-1.0,2428
3772,308772,17088,-604,660,17111.40,30.32,-1.00,-1.0,2369
3775,308775,16980,-672,668,17006.42,30.27,-1.00,-1.0,2368
3777,308777,17024,-628,772,17053.06,30.27,-1.00,-1.0,2419
3780,308780,17004,-728,720,17034.80,30.27,-1.00,-1.0,2371
3783,308783,16988,-668,756,17017.93,30.27,-1.00,-1.0,2433
3786,308786,17100,-576,704,17124.18,30.18,-1.00,-1.0,2373
3791,308791,17020,-656,592,17042.92,30.37,-1.00,-1.0,2434
3793,308793,17084,-548,596,17103.17,30.22,-1.00,-1.0,2370
3796,308796,17084,-680,560,17106.70,30.27,-1.00,-1.0,2430
3799,308799,17072,-600,768,17099.79,30.27,-1.00,-1.0,2373
3802,308802,17012,-652,668,17037.59,30.27,-1.00,-1.0,2429
3804,308804,17076,-628,800,17106.26,30.27,-1.00,-1.0,2368
3807,308807,17052,-580,696,17076.05,30.22,-1.00,-1.0,2379
3810,308810,17068,-568,776,17095.07,30.32,-1.00,-1.0,2420
3813,308813,17040,-584,624,17061.42,30.27,-1.00,-1.0,2377
3818,308818,17076,-544,664,17097.56,30.27,-1.00,-1.0,2434
3820,308820,17112,-584,624,17133.33,30.18,-1.00,-1.0,2370
3823,308823,17000,-636,520,17019.84,30.27,-1.00,-1.0,2428
3826,308826,17108,-588,592,17128.34,30.27,-1.00,-1.0,2369
3829,308829,17064,-592,692,17088.28,30.37,-1.00,-1.0,2426
3831,308831,17024,-668,672,17050.35,30.37,-1.00,-1.0,2356
3834,308834,17052,-656,788,17082.80,30.32,-1.00,-1.0,2382
3837,308837,17124,-608,532,17143.05,30.32,-1.00,-1.0,2423
3840,308840,17008,-536,688,17030.35,30.27,-1.00,-1.0,2377
3845,308845,16960,-680,720,16988.89,30.22,-1.00,-1.0,2433
3847,308847,17024,-568,708,17048.18,30.32,-1.00,-1.0,2380
3850,308850,17060,-528,680,17081.71,30.37,-1.00,-1.0,2429
3853,308853,17112,-496,728,17134.66,30.22,-1.00,-1.0,2375
3856,308856,17076,-588,648,17098.40,30.27,-1.00,-1.0,2421
3858,308858,17020,-552,752,17045.54,30.32,-1.00,-1.0,2368
3861,308861,16992,-616,724,17018.57,30.27,-1.00,-1.0,2420
3864,308864,16996,-600,640,17018.62,30.22,-1.00,-1.0,2372
3867,308867,16944,-628,780,16973.56,30.13,-1.00,-1.0,2414
3872,308872,17036,-716,704,17065.57,30.32,-1.00,-1.0,2444
3874,308874,17108,-648,656,17132.83,30.22,-1.00,-1.0,2377
3877,308877,17072,-628,528,17091.71,30.27,-1.00,-1.0,2420
3880,308880,17000,-692,700,17028.47,30.22,-1.00,-1.0,2370
3883,308883,17084,-488,768,17108.21,30.27,-1.00,-1.0,2423
3885,308885,17088,-572,664,17110.46,30.22,-1.00,-1.0,2370
3888,308888,17148,-576,684,17171.30,30.37,-1.00,-1.0,2420
3891,308891,17000,-672,580,17023.16,30.32,-1.00,-1.0,2373
3896,308896,17112,-676,788,17143.47,30.22,-1.00,-1.0,2440
3899,308899,17044,-640,700,17070.37,30.22,-1.00,-1.0,2381
3901,308901,16968,-620,712,16994.25,30.37,-1.00,-1.0,2365
3904,308904,16964,-652,708,16991.28,30.27,-1.00,-1.0,2420
3907,308907,16980,-616,728,17006.76,30.37,-1.00,-1.0,2366
3909,308909,17008,-712,644,17035.07,30.18,-1.00,-1.0,2409
3912,308912,17040,-528,756,17064.93,30.27,-1.00,-1.0,2368
3915,308915,17108,-532,776,17133.85,30.27,-1.00,-1.0,2421
3918,308918,17008,-556,584,17027.10,30.18,-1.00,-1.0,2367
3923,308923,17120,-592,648,17142.48,30.32,-1.00,-1.0,2439
3926,308926,17012,-524,716,17035.12,30.32,-1.00,-1.0,2378
3928,308928,17140,-544,680,17162.11,30.18,-1.00,-1.0,2423
3931,308931,17064,-580,824,17093.73,30.32,-1.00,-1.0,2375
3934,308934,17012,-540,728,17036.13,30.27,-1.00,-1.0,2366
3936,308936,17160,-644,640,17184.00,30.22,-1.00,-1.0,2421
3939,308939,17052,-688,712,17080.72,30.18,-1.00,-1.0,2355
3942,308942,17112,-604,756,17139.34,30.32,-1.00,-1.0,2421
3945,308945,16972,-692,596,16996.55,30.27,-1.00,-1.0,2366
3950,308950,17004,-556,632,17024.82,30.27,-1.00,-1.0,2437
3953,308953,17048,-612,696,17073.17,30.27,-1.00,-1.0,2374
3955,308955,17068,-664,616,17092.02,30.37,-1.00,-1.0,2421
3958,308958,17168,-532,644,17188.31,30.27,-1.00,-1.0,2369
3961,308961,17028,-596,648,17050.74,30.18,-1.00,-1.0,2421
3964,308964,16976,-616,796,17005.81,30.27,-1.00,-1.0,2369
3966,308966,17072,-620,692,17097.26,30.22,-1.00,-1.0,2367
3969,308969,17036,-616,896,17070.66,30.32,-1.00,-1.0,2420
3972,308972,17024,-640,764,17053.15,30.27,-1.00,-1.0,2368
3977,308977,16944,-608,644,16967.13,30.27,-1.00,-1.0,2436
3980,308980,17136,-580,728,17161.26,30.27,-1.00,-1.0,2371
3982,308982,17084,-664,588,17107.01,30.32,-1.00,-1.0,2421
3985,308985,17072,-656,656,17097.19,30.37,-1.00,-1.0,2367
3988,308988,17112,-556,556,17130.06,30.22,-1.00,-1.0,2421
3991,308991,17088,-564,652,17109.73,30.37,-1.00,-1.0,2369
3993,308993,17080,-636,568,17101.27,30.32,-1.00,-1.0,2420
3996,308996,16924,-692,736,16954.12,30.27,-1.00,-1.0,2370
3999,308999,16972,-548,740,16996.96,30.32,-1.00,-1.0,2424
4004,309004,17084,-632,556,17104.72,30.27,-1.00,-1.0,2446
4007,309007,17016,-648,668,17041.43,30.27,-1.00,-1.0,2379
4010,309010,17024,-532,680,17045.88,30.37,-1.00,-1.0,2432
4012,309012,17024,-496,644,17043.39,30.27,-1.00,-1.0,2375
4015,309015,17012,-640,832,17044.35,30.27,-1.00,-1.0,2420
4018,309018,17084,-544,692,17106.66,30.27,-1.00,-1.0,2367
4021,309021,17068,-676,672,17094.60,30.27,-1.00,-1.0,2424
4023,309023,16976,-652,784,17006.60,30.27,-1.00,-1.0,2379
4026,309026,17016,-616,608,17038.00,30.32,-1.00,-1.0,2370
4031,309031,16992,-536,688,17014.37,30.32,-1.00,-1.0,2435
4034,309034,16964,-632,648,16988.13,30.22,-1.00,-1.0,2370
4036,309036,17116,-636,800,17146.48,30.32,-1.00,-1.0,2421
4039,309039,17064,-680,724,17092.88,30.22,-1.00,-1.0,2368
4042,309042,17092,-568,744,17117.61,30.22,-1.00,-1.0,2421
4045,309045,17048,-620,608,17070.10,30.41,-1.00,-1.0,2366
4047,309047,17016,-576,652,17038.23,30.32,-1.00,-1.0,2422
4050,309050,16928,-508,544,16944.36,30.32,-1.00,-1.0,2355
4055,309055,17032,-616,756,17059.89,30.27,-1.00,-1.0,2435
4058,309058,17120,-568,644,17141.52,30.32,-1.00,-1.0,2379
4060,309060,17072,-524,760,17096.94,30.27,-1.00,-1.0,2372
4063,309063,17080,-676,740,17109.38,30.22,-1.00,-1.0,2421
4066,309066,17076,-568,724,17100.78,30.37,-1.00,-1.0,2370
4069,309069,17072,-548,560,17089.97,30.27,-1.00,-1.0,2421
4071,309071,16908,-644,664,16933.28,30.27,-1.00,-1.0,2376
4074,309074,17088,-484,632,17106.53,30.32,-1.00,-1.0,2421
4077,309077,17112,-524,848,17141.01,30.27,-1.00,-1.0,2376
4082,309082,17012,-596,532,17030.75,30.32,-1.00,-1.0,2443
4084,309084,17020,-616,792,17049.55,30.22,-1.00,-1.0,2371
4087,309087,17092,-760,600,17119.41,30.37,-1.00,-1.0,2424
4090,309090,17064,-684,668,17090.76,30.32,-1.00,-1.0,2368
4092,309092,17032,-552,476,17047.59,30.27,-1.00,-1.0,2368
4095,309095,17092,-580,764,17118.89,30.22,-1.00,-1.0,2428
4098,309098,17032,-632,712,17058.59,30.37,-1.00,-1.0,2383
4101,309101,17096,-500,672,17116.51,30.32,-1.00,-1.0,2432
4104,309104,17072,-540,672,17093.75,30.18,-1.00,-1.0,2383
4109,309109,17108,-568,616,17128.51,30.27,-1.00,-1.0,2451
4112,309112,17120,-608,592,17141.02,30.37,-1.00,-1.0,2378
4115,309115,17088,-656,748,17116.94,30.27,-1.00,-1.0,2436
4117,309117,17004,-652,676,17029.92,30.32,-1.00,-1.0,2375
4120,309120,17088,-520,612,17106.86,30.41,-1.00,-1.0,2427
4123,309123,17144,-532,572,17161.79,30.22,-1.00,-1.0,2370
4125,309125,17048,-544,564,17066.00,30.22,-1.00,-1.0,2367
4128,309128,16980,-564,656,17002.02,30.18,-1.00,-1.0,2421
4131,309131,16984,-624,696,17009.71,30.32,-1.00,-1.0,2375
4136,309136,17104,-552,656,17125.47,30.32,-1.00,-1.0,2450
4139,309139,17032,-660,720,17059.98,30.22,-1.00,-1.0,2378
4142,309142,16964,-580,772,16991.46,30.41,-1.00,-1.0,2430
4144,309144,17060,-680,688,17087.40,30.22,-1.00,-1.0,2375
4147,309147,17192,-560,608,17211.86,30.41,-1.00,-1.0,2420
4150,309150,17068,-620,700,17093.60,30.32,-1.00,-1.0,2370
4153,309153,17148,-580,632,17169.44,30.32,-1.00,-1.0,2423
4155,309155,17068,-568,764,17094.53,30.32,-1.00,-1.0,2376
4158,309158,17132,-636,744,17159.94,30.22,-1.00,-1.0,2367
4163,309163,17116,-580,728,17141.29,30.32,-1.00,-1.0,2429
4166,309166,16956,-632,612,16978.81,30.32,-1.00,-1.0,2379
4169,309169,17040,-592,764,17067.39,30.32,-1.00,-1.0,2431
4171,309171,17096,-524,612,17114.97,30.32,-1.00,-1.0,2376
4174,309174,17036,-620,708,17061.97,30.22,-1.00,-1.0,2420
4177,309177,17092,-616,688,17116.93,30.32,-1.00,-1.0,2371
4180,309180,17112,-632,660,17136.38,30.32,-1.00,-1.0,2423
4182,309182,17064,-560,792,17091.55,30.32,-1.00,-1.0,2375
4187,309187,17124,-580,800,17152.49,30.18,-1.00,-1.0,2435
4190,309190,17072,-608,720,17097.99,30.27,-1.00,-1.0,2372
4193,309193,17112,-644,896,17147.54,30.32,-1.00,-1.0,2365
4196,309196,17072,-524,712,17094.87,30.27,-1.00,-1.0,2421
4198,309198,17052,-484,796,17077.43,30.32,-1.00,-1.0,2374
4201,309201,17052,-628,804,17082.49,30.27,-1.00,-1.0,2420
4204,309204,17064,-696,556,17087.24,30.32,-1.00,-1.0,2357
4207,309207,16948,-616,688,16973.14,30.27,-1.00,-1.0,2420
4209,309209,17060,-660,572,17082.34,30.32,-1.00,-1.0,2375
4214,309214,17072,-524,708,17094.71,30.22,-1.00,-1.0,2447
4217,309217,17116,-608,600,17137.30,30.22,-1.00,-1.0,2378
4220,309220,17064,-592,676,17087.64,30.27,-1.00,-1.0,2366
4222,309222,17092,-524,668,17113.07,30.27,-1.00,-1.0,2421
4225,309225,17060,-596,712,17085.25,30.27,-1.00,-1.0,2368
4228,309228,17020,-628,728,17047.13,30.27,-1.00,-1.0,2420
4231,309231,17044,-584,684,17067.71,30.37,-1.00,-1.0,2366
4233,309233,16944,-648,548,16965.24,30.27,-1.00,-1.0,2421
4236,309236,17104,-556,652,17125.45,30.27,-1.00,-1.0,2355
4241,309241,17088,-612,692,17112.95,30.37,-1.00,-1.0,2435
4244,309244,17060,-576,644,17081.87,30.27,-1.00,-1.0,2370
4247,309247,17004,-664,616,17028.11,30.27,-1.00,-1.0,2422
4249,309249,16952,-648,564,16973.75,30.27,-1.00,-1.0,2370
4252,309252,17088,-632,736,17115.52,30.32,-1.00,-1.0,2365
4255,309255,17036,-656,736,17064.51,30.32,-1.00,-1.0,2427
4257,309257,17064,-576,668,17086.78,30.27,-1.00,-1.0,2353
4260,309260,17176,-584,612,17196.82,30.32,-1.00,-1.0,2423
4263,309263,16996,-644,592,17018.50,30.32,-1.00,-1.0,2369
4269,309269,17072,-508,640,17091.54,30.22,-1.00,-1.0,2441
4271,309271,17064,-620,652,17087.70,30.32,-1.00,-1.0,2371
4274,309274,16984,-604,652,17007.24,30.27,-1.00,-1.0,2431
4277,309277,17004,-584,768,17031.35,30.32,-1.00,-1.0,2374
4280,309280,16948,-676,712,16976.41,30.37,-1.00,-1.0,2410
4282,309282,17036,-568,708,17060.16,30.22,-1.00,-1.0,2368
4285,309285,17132,-628,716,17158.45,30.27,-1.00,-1.0,2366
4288,309288,17040,-604,600,17061.25,30.37,-1.00,-1.0,2407
4291,309291,17120,-512,672,17140.83,30.37,-1.00,-1.0,2367
4295,309295,17056,-600,484,17073.41,30.27,-1.00,-1.0,2445
4298,309298,16960,-756,756,16993.67,30.22,-1.00,-1.0,2378
4301,309301,17076,-672,572,17098.79,30.27,-1.00,-1.0,2410
4303,309303,17028,-592,728,17053.83,30.32,-1.00,-1.0,2367
4306,309306,17080,-556,772,17106.48,30.37,-1.00,-1.0,2430
4309,309309,17100,-648,680,17125.78,30.22,-1.00,-1.0,2374
4312,309312,17000,-608,556,17019.95,30.27,-1.00,-1.0,2424
4314,309314,17048,-740,652,17076.50,30.32,-1.00,-1.0,2369
4317,309317,17048,-604,668,17071.77,30.32,-1.00,-1.0,2370
4322,309322,17072,-644,848,17105.18,30.32,-1.00,-1.0,2437
4325,309325,17160,-552,632,17180.50,30.41,-1.00,-1.0,2371
4328,309328,17024,-644,732,17051.89,30.27,-1.00,-1.0,2431
4330,309330,17168,-580,564,17187.05,30.32,-1.00,-1.0,2354
4333,309333,17072,-692,748,17102.38,30.32,-1.00,-1.0,2423
4336,309336,17008,-672,820,17041.01,30.13,-1.00,-1.0,2367
4339,309339,17028,-700,864,17064.27,30.41,-1.00,-1.0,2428
4341,309341,17096,-604,608,17117.47,30.32,-1.00,-1.0,2368
4346,309346,17056,-580,648,17078.16,30.37,-1.00,-1.0,2435
4349,309349,16940,-560,700,16963.70,30.27,-1.00,-1.0,2370
4352,309352,17016,-588,700,17040.54,30.32,-1.00,-1.0,2373
4354,309354,16960,-656,748,16989.16,30.37,-1.00,-1.0,2421
4357,309357,17084,-544,688,17106.50,30.32,-1.00,-1.0,2370
4360,309360,16968,-604,704,16993.34,30.27,-1.00,-1.0,2419
4363,309363,17124,-580,700,17148.11,30.32,-1.00,-1.0,2376
4365,309365,16976,-540,840,17005.35,30.37,-1.00,-1.0,2420
4368,309368,17140,-572,720,17164.65,30.27,-1.00,-1.0,2377
4373,309373,17112,-664,712,17139.67,30.27,-1.00,-1.0,2444
4376,309376,17036,-592,652,17058.75,30.27,-1.00,-1.0,2378
4379,309379,17084,-608,692,17108.82,30.27,-1.00,-1.0,2411
4381,309381,17044,-596,636,17066.27,30.27,-1.00,-1.0,2367
4384,309384,17088,-668,724,17116.37,30.32,-1.00,-1.0,2365
4387,309387,17068,-628,652,17091.99,30.32,-1.00,-1.0,2407
4390,309390,17064,-532,696,17086.47,30.32,-1.00,-1.0,2369
4392,309392,17080,-612,676,17104.32,30.32,-1.00,-1.0,2420
4395,309395,17056,-656,760,17085.52,30.27,-1.00,-1.0,2376
4400,309400,16992,-684,568,17015.24,30.27,-1.00,-1.0,2444
4403,309403,17112,-636,688,17137.63,30.18,-1.00,-1.0,2386
4406,309406,17060,-592,740,17086.30,30.32,-1.00,-1.0,2422
4409,309409,16964,-544,676,16986.18,30.27,-1.00,-1.0,2371
4411,309411,17112,-560,844,17141.95,30.22,-1.00,-1.0,2365
4414,309414,17124,-556,744,17149.17,30.37,-1.00,-1.0,2420
4417,309417,17068,-588,768,17095.38,30.32,-1.00,-1.0,2366
4419,309419,17008,-556,820,17036.83,30.27,-1.00,-1.0,2421
4422,309422,17136,-604,684,17160.28,30.32,-1.00,-1.0,2357
4427,309427,17132,-544,748,17156.95,30.27,-1.00,-1.0,2445
4430,309430,17064,-740,624,17091.43,30.41,-1.00,-1.0,2385
4433,309433,17148,-580,748,17174.10,30.41,-1.00,-1.0,2421
4436,309436,17056,-692,652,17082.48,30.32,-1.00,-1.0,2369
4438,309438,17128,-624,796,17157.84,30.22,-1.00,-1.0,2407
4441,309441,17156,-564,716,17180.20,30.32,-1.00,-1.0,2383
4444,309444,17144,-596,736,17170.14,30.37,-1.00,-1.0,2370
4446,309446,17056,-544,804,17083.60,30.27,-1.00,-1.0,2422
4449,309449,17100,-584,656,17122.54,30.32,-1.00,-1.0,2369
4454,309454,17064,-644,624,17087.54,30.32,-1.00,-1.0,2425
4457,309457,16988,-576,604,17008.49,30.22,-1.00,-1.0,2373
4460,309460,17060,-624,632,17083.10,30.41,-1.00,-1.0,2421
4463,309463,17068,-632,876,17102.15,30.22,-1.00,-1.0,2367
4465,309465,16952,-596,740,16978.61,30.32,-1.00,-1.0,2420
4468,309468,17096,-648,728,17123.76,30.22,-1.00,-1.0,2370
4471,309471,17080,-632,704,17106.18,30.32,-1.00,-1.0,2422
4474,309474,17024,-640,676,17049.43,30.32,-1.00,-1.0,2367
4476,309476,17052,-684,668,17078.78,30.37,-1.00,-1.0,2366
4481,309481,17004,-588,772,17031.67,30.27,-1.00,-1.0,2438
4484,309484,17096,-680,712,17124.33,30.27,-1.00,-1.0,2371
4487,309487,17084,-644,752,17112.66,30.32,-1.00,-1.0,2428
4489,309489,17044,-580,700,17068.23,30.37,-1.00,-1.0,2367
4492,309492,17056,-536,720,17079.60,30.37,-1.00,-1.0,2423
4495,309495,16980,-612,608,17001.90,30.27,-1.00,-1.0,2368
4498,309498,16964,-620,776,16993.05,30.32,-1.00,-1.0,2429
4500,309500,17068,-632,588,17089.82,30.18,-1.00,-1.0,2369
4505,309505,17200,-612,744,17226.96,30.37,-1.00,-1.0,2435
4508,309508,17088,-580,756,17114.54,30.32,-1.00,-1.0,2372
4510,309510,17060,-684,676,17087.08,30.37,-1.00,-1.0,2365
4513,309513,17080,-592,684,17103.94,30.27,-1.00,-1.0,2421
4516,309516,17044,-556,848,17074.14,30.18,-1.00,-1.0,2369
4519,309519,16964,-700,708,16993.19,30.13,-1.00,-1.0,2431
4521,309521,16964,-552,660,16985.81,30.27,-1.00,-1.0,2366
4524,309524,17028,-488,672,17048.24,30.32,-1.00,-1.0,2420
4527,309527,16992,-640,752,17020.67,30.27,-1.00,-1.0,2368
4532,309532,17008,-636,664,17032.83,30.18,-1.00,-1.0,2435
4535,309535,17092,-660,752,17121.26,30.27,-1.00,-1.0,2370
4538,309538,17080,-580,724,17105.17,30.22,-1.00,-1.0,2421
4541,309541,17080,-568,764,17106.51,30.27,-1.00,-1.0,2366
4543,309543,17048,-536,660,17069.19,30.32,-1.00,-1.0,2370
4546,309546,17080,-688,584,17103.82,30.32,-1.00,-1.0,2415
4549,309549,17064,-600,784,17092.54,30.32,-1.00,-1.0,2375
4552,309552,17124,-652,548,17145.17,30.18,-1.00,-1.0,2431
4554,309554,17056,-544,756,17081.41,30.32,-1.00,-1.0,2368
4559,309559,17100,-644,748,17128.46,30.22,-1.00,-1.0,2439
4562,309562,17044,-536,708,17067.12,30.27,-1.00,-1.0,2371
4565,309565,17008,-612,632,17030.74,30.32,-1.00,-1.0,2421
4568,309568,17124,-564,716,17148.24,30.32,-1.00,-1.0,2376
4570,309570,17096,-628,744,17123.70,30.22,-1.00,-1.0,2420
4573,309573,16980,-588,668,17003.30,30.27,-1.00,-1.0,2367
4576,309576,17080,-628,832,17111.78,30.22,-1.00,-1.0,2354
4579,309579,17004,-648,644,17028.53,30.27,-1.00,-1.0,2431
4581,309581,17164,-552,728,17188.30,30.32,-1.00,-1.0,2370
4586,309586,17104,-648,604,17126.92,30.32,-1.00,-1.0,2436
4589,309589,17172,-588,784,17199.94,30.22,-1.00,-1.0,2370
4592,309592,17024,-648,656,17048.95,30.27,-1.00,-1.0,2435
4595,309595,17044,-620,692,17069.31,30.32,-1.00,-1.0,2379
4598,309598,17116,-576,648,17137.94,30.27,-1.00,-1.0,2436
4600,309600,16956,-608,648,16979.27,30.32,-1.00,-1.0,2371
4603,309603,16980,-572,696,17003.88,30.27,-1.00,-1.0,2369
4606,309606,17056,-528,644,17076.32,30.22,-1.00,-1.0,2421
4609,309609,17148,-632,744,17175.76,30.37,-1.00,-1.0,2370
4614,309614,17036,-552,724,17060.31,30.27,-1.00,-1.0,2438
4616,309616,17028,-592,744,17054.52,30.22,-1.00,-1.0,2372
4619,309619,17104,-656,548,17125.35,30.27,-1.00,-1.0,2435
4622,309622,16980,-640,700,17006.47,30.27,-1.00,-1.0,2376
4625,309625,17076,-704,576,17100.21,30.27,-1.00,-1.0,2433
4627,309627,17016,-400,668,17033.80,30.27,-1.00,-1.0,2377
4630,309630,17092,-576,692,17115.70,30.27,-1.00,-1.0,2429
4633,309633,17048,-580,724,17073.22,30.27,-1.00,-1.0,2367
4636,309636,17044,-632,720,17070.90,30.37,-1.00,-1.0,2367
4641,309641,17196,-628,740,17223.37,30.37,-1.00,-1.0,2443
4643,309643,16968,-568,688,16991.44,30.32,-1.00,-1.0,2374
4646,309646,17044,-604,668,17067.78,30.37,-1.00,-1.0,2434
4649,309649,17048,-500,676,17068.72,30.37,-1.00,-1.0,2368
4652,309652,17044,-664,692,17070.96,30.27,-1.00,-1.0,2431
4654,309654,16980,-604,724,17006.16,30.37,-1.00,-1.0,2368
4657,309657,17004,-592,788,17032.54,30.27,-1.00,-1.0,2434
4660,309660,17048,-568,644,17069.61,30.37,-1.00,-1.0,2377
4665,309665,16960,-580,748,16986.39,30.32,-1.00,-1.0,2435
4668,309668,17020,-592,556,17039.37,30.32,-1.00,-1.0,2371
4670,309670,17076,-604,656,17099.27,30.27,-1.00,-1.0,2374
4673,309673,17072,-600,680,17096.07,30.27,-1.00,-1.0,2421
4676,309676,17100,-684,608,17124.47,30.46,-1.00,-1.0,2356
4679,309679,17028,-632,760,17056.66,30.32,-1.00,-1.0,2433
4681,309681,17068,-668,648,17093.35,30.37,-1.00,-1.0,2375
4684,309684,17016,-600,708,17041.29,30.27,-1.00,-1.0,2421
4687,309687,17064,-664,596,17087.31,30.27,-1.00,-1.0,2372
4692,309692,17100,-624,584,17121.34,30.32,-1.00,-1.0,2438
4694,309694,17016,-600,740,17042.65,30.32,-1.00,-1.0,2378
4697,309697,17068,-624,692,17093.42,30.22,-1.00,-1.0,2421
4700,309700,17112,-612,876,17145.33,30.22,-1.00,-1.0,2369
4702,309702,17072,-676,664,17098.28,30.32,-1.00,-1.0,2367
4705,309705,17060,-624,720,17086.58,30.27,-1.00,-1.0,2421
4708,309708,17020,-560,724,17044.59,30.32,-1.00,-1.0,2368
4711,309711,17112,-588,652,17134.51,30.27,-1.00,-1.0,2423
4714,309714,17060,-668,612,17084.04,30.22,-1.00,-1.0,2367
4718,309718,16964,-600,532,16982.94,30.32,-1.00,-1.0,2443
4721,309721,17028,-580,636,17049.74,30.27,-1.00,-1.0,2386
4724,309724,17004,-644,724,17031.59,30.32,-1.00,-1.0,2421
4727,309727,17096,-620,572,17116.80,30.27,-1.00,-1.0,2371
4729,309729,16996,-704,668,17023.69,30.32,-1.00,-1.0,2423
4732,309732,17124,-668,620,17148.24,30.27,-1.00,-1.0,2382
4735,309735,17088,-588,752,17114.64,30.32,-1.00,-1.0,2366
4738,309738,17048,-628,804,17078.50,30.27,-1.00,-1.0,2423
4741,309741,17072,-628,668,17096.60,30.18,-1.00,-1.0,2370
4746,309746,17080,-668,600,17103.59,30.32,-1.00,-1.0,2435
4748,309748,17032,-604,752,17059.29,30.22,-1.00,-1.0,2373
4751,309751,17088,-656,756,17117.29,30.27,-1.00,-1.0,2421
4754,309754,17036,-636,684,17061.58,30.32,-1.00,-1.0,2369
4757,309757,16988,-564,596,17007.81,30.37,-1.00,-1.0,2428
4759,309759,17088,-524,636,17107.86,30.22,-1.00,-1.0,2366
4762,309762,17096,-588,652,17118.53,30.27,-1.00,-1.0,2421
4765,309765,17072,-576,740,17097.74,30.22,-1.00,-1.0,2370
4768,309768,16988,-620,620,17010.61,30.37,-1.00,-1.0,2374
4773,309773,16972,-632,828,17003.94,30.27,-1.00,-1.0,2435
4775,309775,17096,-672,652,17121.62,30.22,-1.00,-1.0,2371
4778,309778,17048,-636,776,17077.50,30.18,-1.00,-1.0,2421
4781,309781,17036,-572,672,17058.84,30.37,-1.00,-1.0,2368
4784,309784,17020,-568,628,17041.05,30.37,-1.00,-1.0,2427
4786,309786,17072,-620,812,17102.54,30.27,-1.00,-1.0,2366
4789,309789,16992,-544,812,17020.09,30.37,-1.00,-1.0,2423
4792,309792,17104,-616,800,17133.78,30.32,-1.00,-1.0,2357
4795,309795,17048,-588,720,17073.33,30.27,-1.00,-1.0,2369
4800,309800,17104,-620,664,17128.11,30.27,-1.00,-1.0,2443
4802,309802,17040,-684,808,17072.85,30.37,-1.00,-1.0,2371
4805,309805,17112,-632,608,17134.46,30.37,-1.00,-1.0,2423
4808,309808,17124,-720,528,17147.26,30.37,-1.00,-1.0,2368
4811,309811,17108,-520,756,17132.59,30.27,-1.00,-1.0,2428
4813,309813,17080,-588,688,17103.96,30.37,-1.00,-1.0,2366
4816,309816,17152,-544,800,17179.26,30.27,-1.00,-1.0,2422
4819,309819,17096,-592,604,17116.91,30.27,-1.00,-1.0,2368
4824,309824,17032,-664,624,17056.36,30.27,-1.00,-1.0,2437
4827,309827,17108,-608,688,17132.62,30.32,-1.00,-1.0,2371
4829,309829,17140,-580,728,17165.26,30.27,-1.00,-1.0,2365
4832,309832,17048,-660,764,17077.87,30.27,-1.00,-1.0,2421
4835,309835,16928,-612,748,16955.57,30.27,-1.00,-1.0,2376
4837,309837,17104,-628,680,17129.03,30.32,-1.00,-1.0,2420
4840,309840,17020,-576,756,17046.52,30.37,-1.00,-1.0,2367
4843,309843,17156,-652,744,17184.50,30.37,-1.00,-1.0,2421
4846,309846,17076,-672,752,17105.76,30.22,-1.00,-1.0,2375
4851,309851,17020,-564,660,17042.13,30.22,-1.00,-1.0,2441
4853,309853,17008,-672,684,17035.01,30.32,-1.00,-1.0,2371
4856,309856,17080,-584,648,17102.26,30.22,-1.00,-1.0,2435
4859,309859,17008,-584,648,17030.36,30.22,-1.00,-1.0,2377
4862,309862,16984,-748,644,17012.66,30.27,-1.00,-1.0,2365
4864,309864,17060,-596,664,17083.32,30.27,-1.00,-1.0,2419
4867,309867,17016,-676,760,17046.37,30.37,-1.00,-1.0,2367
4870,309870,17076,-728,660,17104.25,30.27,-1.00,-1.0,2420
4873,309873,17140,-644,784,17170.00,30.22,-1.00,-1.0,2370
4878,309878,16988,-628,748,17016.05,30.22,-1.00,-1.0,2444
4880,309880,17056,-592,728,17081.79,30.32,-1.00,-1.0,2371
4883,309883,17096,-620,612,17118.18,30.27,-1.00,-1.0,2429
4886,309886,17036,-544,636,17056.54,30.22,-1.00,-1.0,2375
4889,309889,16988,-628,648,17011.95,30.27,-1.00,-1.0,2421
4891,309891,16996,-596,768,17023.78,30.32,-1.00,-1.0,2371
4894,309894,17012,-588,760,17039.12,30.27,-1.00,-1.0,2366
4897,309897,17116,-628,712,17142.31,30.27,-1.00,-1.0,2420
4900,309900,17048,-660,704,17075.29,30.37,-1.00,-1.0,2367
4905,309905,17068,-632,752,17096.24,30.27,-1.00,-1.0,2435
4907,309907,17068,-576,564,17087.03,30.27,-1.00,-1.0,2371
4910,309910,17032,-716,748,17063.45,30.32,-1.00,-1.0,2423
4913,309913,17076,-624,704,17101.89,30.27,-1.00,-1.0,2357
4916,309916,17084,-588,828,17114.16,30.32,-1.00,-1.0,2420
4918,309918,17016,-708,668,17043.82,30.27,-1.00,-1.0,2353
4921,309921,16924,-616,660,16948.06,30.32,-1.00,-1.0,2421
4924,309924,17064,-684,832,17097.96,30.27,-1.00,-1.0,2371
4927,309927,17056,-504,548,17072.24,30.27,-1.00,-1.0,2368
4932,309932,17072,-580,764,17098.93,30.27,-1.00,-1.0,2435
4934,309934,17040,-544,544,17057.36,30.32,-1.00,-1.0,2371
4937,309937,17048,-484,712,17069.72,30.18,-1.00,-1.0,2434
4940,309940,17120,-596,564,17139.65,30.27,-1.00,-1.0,2375
4943,309943,17056,-576,520,17073.64,30.27,-1.00,-1.0,2432
4945,309945,17052,-604,744,17078.91,30.27,-1.00,-1.0,2371
4948,309948,17056,-556,700,17079.41,30.27,-1.00,-1.0,2430
4951,309951,17064,-684,656,17090.30,30.27,-1.00,-1.0,2355
4956,309956,16968,-580,648,16990.27,30.27,-1.00,-1.0,2438
4959,309959,16948,-604,872,16981.16,30.37,-1.00,-1.0,2373
4961,309961,17024,-512,676,17045.11,30.22,-1.00,-1.0,2365
4964,309964,17096,-680,656,17122.09,30.32,-1.00,-1.0,2421
4967,309967,17040,-660,764,17069.88,30.32,-1.00,-1.0,2369
4969,309969,17084,-596,728,17109.89,30.27,-1.00,-1.0,2420
4972,309972,17112,-652,820,17144.04,30.32,-1.00,-1.0,2368
4975,309975,17120,-620,660,17143.93,30.41,-1.00,-1.0,2421
4978,309978,16976,-632,652,17000.27,30.32,-1.00,-1.0,2367
4983,309983,17068,-584,752,17094.54,30.27,-1.00,-1.0,2434
4986,309986,17016,-580,776,17043.56,30.32,-1.00,-1.0,2370
4988,309988,17004,-584,596,17024.46,30.41,-1.00,-1.0,2365
4991,309991,16960,-576,800,16988.62,30.37,-1.00,-1.0,2427
4994,309994,17036,-632,768,17065.01,30.37,-1.00,-1.0,2429
4997,309997,17112,-520,608,17130.69,30.27,-1.00,-1.0,2418
4999,309999,17116,-600,660,17139.23,30.32,-1.00,-1.0,2372
5002,310002,17052,-592,808,17081.39,30.18,-1.00,-1.0,2417
5005,310005,17100,-568,864,17131.23,30.32,-1.00,-1.0,2373
5010,310010,17120,-564,692,17143.26,30.32,-1.00,-1.0,2436
5013,310013,17120,-672,724,17148.47,30.22,-1.00,-1.0,2372
5015,310015,17076,-608,680,17100.35,30.27,-1.00,-1.0,2422
5018,310018,17116,-616,772,17144.47,30.32,-1.00,-1.0,2356
5021,310021,17044,-584,648,17066.31,30.37,-1.00,-1.0,2374
5024,310024,17028,-592,540,17046.84,30.41,-1.00,-1.0,2435
5026,310026,16992,-524,780,17017.96,30.37,-1.00,-1.0,2378
5029,310029,17012,-640,636,17035.91,30.32,-1.00,-1.0,2430
5032,310032,17008,-512,780,17033.57,30.27,-1.00,-1.0,2368
5037,310037,17016,-616,532,17035.46,30.37,-1.00,-1.0,2435
5040,310040,17156,-512,724,17178.90,30.37,-1.00,-1.0,2379
5042,310042,17064,-616,684,17088.81,30.37,-1.00,-1.0,2421
5045,310045,17080,-576,688,17103.55,30.27,-1.00,-1.0,2368
5048,310048,16996,-680,632,17021.33,30.37,-1.00,-1.0,2421
5051,310051,17100,-668,620,17124.27,30.37,-1.00,-1.0,2374
5053,310053,17076,-548,816,17104.27,30.41,-1.00,-1.0,2374
5056,310056,17096,-692,492,17117.07,30.32,-1.00,-1.0,2421
5059,310059,16956,-568,552,16974.49,30.37,-1.00,-1.0,2368
5064,310064,17080,-464,788,17104.46,30.27,-1.00,-1.0,2423
5067,310067,17148,-624,672,17172.50,30.32,-1.00,-1.0,2373
5070,310070,17048,-596,704,17072.94,30.37,-1.00,-1.0,2427
5072,310072,17108,-540,544,17125.16,30.22,-1.00,-1.0,2367
5075,310075,17124,-676,680,17150.82,30.27,-1.00,-1.0,2422
5078,310078,17096,-684,704,17124.15,30.22,-1.00,-1.0,2368
5081,310081,17092,-576,564,17111.00,30.27,-1.00,-1.0,2427
5083,310083,17112,-620,656,17135.79,30.27,-1.00,-1.0,2367
5086,310086,17036,-672,792,17067.63,30.32,-1.00,-1.0,2373
5091,310091,17092,-604,692,17116.66,30.27,-1.00,-1.0,2435
5094,310094,17088,-536,724,17111.73,30.37,-1.00,-1.0,2380
5096,310096,17084,-700,652,17110.76,30.22,-1.00,-1.0,2421
5099,310099,17160,-556,704,17183.43,30.37,-1.00,-1.0,2369
5102,310102,17100,-576,656,17122.27,30.41,-1.00,-1.0,2437
5105,310105,17016,-536,748,17040.87,30.18,-1.00,-1.0,2364
5108,310108,17132,-508,800,17158.19,30.22,-1.00,-1.0,2422
5110,310110,17056,-588,728,17081.65,30.27,-1.00,-1.0,2369
5117,310117,17020,-616,804,17050.11,30.27,-1.00,-1.0,2444
5120,310120,17124,-628,712,17150.30,30.27,-1.00,-1.0,2382
5122,310122,17044,-604,544,17063.37,30.22,-1.00,-1.0,2376
5125,310125,17032,-616,676,17056.54,30.27,-1.00,-1.0,2421
5128,310128,17052,-584,660,17074.76,30.32,-1.00,-1.0,2370
5131,310131,17028,-692,740,17058.11,30.37,-1.00,-1.0,2421
5133,310133,17060,-660,608,17083.58,30.27,-1.00,-1.0,2370
5136,310136,17088,-484,760,17111.74,30.37,-1.00,-1.0,2422
5139,310139,17144,-632,656,17168.18,30.27,-1.00,-1.0,2370
5144,310144,17056,-560,816,17084.69,30.32,-1.00,-1.0,2442
5146,310146,16960,-576,628,16981.39,30.41,-1.00,-1.0,2380
5149,310149,17012,-548,780,17038.69,30.27,-1.00,-1.0,2422
5152,310152,17092,-592,776,17119.85,30.32,-1.00,-1.0,2372
5154,310154,17060,-604,704,17085.20,30.27,-1.00,-1.0,2366
5157,310157,17060,-592,764,17087.36,30.22,-1.00,-1.0,2422
5160,310160,17036,-556,700,17059.44,30.37,-1.00,-1.0,2369
5163,310163,17040,-592,684,17063.99,30.18,-1.00,-1.0,2429
5165,310165,17040,-592,736,17066.16,30.27,-1.00,-1.0,2367
5170,310170,16956,-608,600,16977.50,30.27,-1.00,-1.0,2423
5173,310173,17056,-644,676,17081.54,30.27,-1.00,-1.0,2374
5176,310176,16988,-588,676,17011.61,30.27,-1.00,-1.0,2420
5179,310179,17076,-588,780,17103.92,30.27,-1.00,-1.0,2368
5181,310181,17124,-668,616,17148.09,30.32,-1.00,-1.0,2367
5184,310184,17012,-592,484,17029.18,30.22,-1.00,-1.0,2421
5187,310187,17096,-652,748,17124.77,30.27,-1.00,-1.0,2376
5189,310189,17092,-584,812,17121.24,30.32,-1.00,-1.0,2421
5192,310192,16984,-564,716,17008.44,30.41,-1.00,-1.0,2368
5197,310197,17080,-652,780,17110.23,30.37,-1.00,-1.0,2436
5200,310200,17008,-604,592,17029.02,30.27,-1.00,-1.0,2372
5203,310203,17096,-572,692,17119.56,30.27,-1.00,-1.0,2428
5205,310205,17024,-532,768,17049.62,30.37,-1.00,-1.0,2367
5208,310208,17004,-588,584,17024.18,30.32,-1.00,-1.0,2422
5211,310211,17120,-632,660,17144.37,30.27,-1.00,-1.0,2356
5213,310213,16996,-736,584,17021.95,30.32,-1.00,-1.0,2366
5216,310216,17104,-752,704,17134.99,30.37,-1.00,-1.0,2438
5219,310219,16952,-556,696,16975.39,30.32,-1.00,-1.0,2369
5224,310224,17068,-624,640,17091.39,30.32,-1.00,-1.0,2440
5227,310227,16952,-520,688,16973.92,30.37,-1.00,-1.0,2372
5229,310229,17076,-704,636,17102.34,30.32,-1.00,-1.0,2421
5232,310232,17104,-692,632,17129.66,30.32,-1.00,-1.0,2369
5235,310235,17028,-592,792,17056.69,30.22,-1.00,-1.0,2421
5238,310238,17104,-556,692,17127.02,30.37,-1.00,-1.0,2368
5240,310240,17112,-616,840,17143.68,30.32,-1.00,-1.0,2421
5243,310243,17008,-620,864,17041.21,30.22,-1.00,-1.0,2368
5246,310246,17020,-680,784,17051.61,30.27,-1.00,-1.0,2373
5251,310251,16988,-568,672,17010.77,30.32,-1.00,-1.0,2448
5253,310253,17072,-700,592,17096.60,30.32,-1.00,-1.0,2373
5256,310256,17064,-624,652,17087.85,30.27,-1.00,-1.0,2434
5259,310259,16972,-668,692,16999.23,30.37,-1.00,-1.0,2376
5262,310262,17084,-584,724,17109.30,30.27,-1.00,-1.0,2423
5264,310264,17048,-580,668,17070.94,30.27,-1.00,-1.0,2368
5267,310267,16936,-532,548,16953.21,30.37,-1.00,-1.0,2430
5270,310270,17008,-568,752,17034.09,30.37,-1.00,-1.0,2375
5275,310275,17056,-548,668,17077.87,30.32,-1.00,-1.0,2436
5278,310278,17072,-580,604,17092.53,30.32,-1.00,-1.0,2379
5280,310280,17164,-600,696,17188.58,30.37,-1.00,-1.0,2375
5283,310283,17104,-640,672,17129.16,30.22,-1.00,-1.0,2421
5286,310286,17068,-692,852,17103.26,30.27,-1.00,-1.0,2368
5289,310289,17048,-604,576,17068.42,30.27,-1.00,-1.0,2421
5291,310291,17096,-676,672,17122.55,30.27,-1.00,-1.0,2374
5294,310294,17036,-552,796,17063.52,30.22,-1.00,-1.0,2421
5297,310297,17008,-644,700,17034.58,30.37,-1.00,-1.0,2356
5302,310302,17060,-596,736,17086.27,30.27,-1.00,-1.0,2442
5304,310304,17020,-536,588,17038.59,30.37,-1.00,-1.0,2372
5307,310307,17040,-576,736,17065.61,30.27,-1.00,-1.0,2430
5310,310310,17124,-676,684,17150.98,30.27,-1.00,-1.0,2376
5313,310313,17060,-548,696,17082.98,30.37,-1.00,-1.0,2366
5315,310315,17008,-648,700,17034.73,30.41,-1.00,-1.0,2421
5318,310318,17096,-552,728,17120.39,30.41,-1.00,-1.0,2368
5321,310321,17104,-584,708,17128.61,30.22,-1.00,-1.0,2421
5324,310324,17120,-644,828,17152.11,30.22,-1.00,-1.0,2367
5328,310328,17088,-596,752,17114.92,30.32,-1.00,-1.0,2436
5331,310331,17048,-600,616,17069.67,30.32,-1.00,-1.0,2372
5334,310334,17044,-576,664,17066.65,30.27,-1.00,-1.0,2421
5337,310337,17044,-636,784,17073.87,30.32,-1.00,-1.0,2367
5339,310339,17012,-632,784,17041.78,30.27,-1.00,-1.0,2423
5342,310342,17056,-688,668,17082.94,30.32,-1.00,-1.0,2369
5345,310345,17140,-624,632,17162.99,30.37,-1.00,-1.0,2374
5348,310348,17120,-644,816,17151.53,30.27,-1.00,-1.0,2433
5350,310350,17100,-532,636,17120.09,30.22,-1.00,-1.0,2378
5355,310355,17040,-580,576,17059.60,30.37,-1.00,-1.0,2436
5358,310358,16980,-624,668,17004.59,30.27,-1.00,-1.0,2382
5360,310360,16964,-500,740,16987.49,30.27,-1.00,-1.0,2421
5363,310363,17088,-788,704,17120.64,30.27,-1.00,-1.0,2371
5366,310366,17060,-568,644,17081.60,30.27,-1.00,-1.0,2428
5369,310369,17096,-516,784,17121.74,30.37,-1.00,-1.0,2375
5371,310371,16988,-636,812,17019.28,30.41,-1.00,-1.0,2374
5374,310374,17088,-592,756,17114.96,30.22,-1.00,-1.0,2424
5377,310377,16976,-672,728,17004.89,30.32,-1.00,-1.0,2376
5382,310382,17064,-568,592,17083.71,30.22,-1.00,-1.0,2446
5385,310385,17104,-548,644,17124.89,30.32,-1.00,-1.0,2379
5388,310388,17084,-668,676,17110.41,30.32,-1.00,-1.0,2424
5391,310391,17108,-584,672,17131.15,30.37,-1.00,-1.0,2370
5393,310393,17044,-592,588,17064.41,30.41,-1.00,-1.0,2424
5396,310396,17048,-576,616,17068.85,30.32,-1.00,-1.0,2383
5399,310399,16920,-628,528,16939.88,30.22,-1.00,-1.0,2423
5402,310402,17064,-680,672,17090.76,30.22,-1.00,-1.0,2373
5404,310404,17020,-524,668,17041.16,30.32,-1.00,-1.0,2374
5409,310409,17080,-552,648,17101.20,30.41,-1.00,-1.0,2446
5412,310412,17076,-608,780,17104.62,30.22,-1.00,-1.0,2383
5415,310415,17148,-632,704,17174.08,30.18,-1.00,-1.0,2420
5418,310418,17064,-672,700,17091.57,30.32,-1.00,-1.0,2368
5420,310420,17052,-680,672,17078.78,30.37,-1.00,-1.0,2421
5423,310423,17116,-668,912,17153.29,30.32,-1.00,-1.0,2356
5426,310426,17148,-568,772,17174.76,30.27,-1.00,-1.0,2421
5429,310429,17128,-656,520,17148.44,30.32,-1.00,-1.0,2369
5434,310434,16976,-656,612,16999.69,30.32,-1.00,-1.0,2441
5436,310436,17072,-620,540,17091.79,30.32,-1.00,-1.0,2376
5439,310439,17020,-608,652,17043.33,30.37,-1.00,-1.0,2365
5442,310442,17104,-644,736,17131.94,30.27,-1.00,-1.0,2426
5444,310444,17056,-588,676,17079.52,30.27,-1.00,-1.0,2367
5447,310447,16972,-624,584,16993.51,30.37,-1.00,-1.0,2422
5450,310450,17164,-608,724,17190.02,30.27,-1.00,-1.0,2368
5453,310453,17052,-564,688,17075.19,30.37,-1.00,-1.0,2428
5455,310455,16936,-656,576,16958.48,30.27,-1.00,-1.0,2367
5460,310460,17084,-740,780,17117.80,30.37,-1.00,-1.0,2423
5463,310463,17100,-648,780,17130.04,30.32,-1.00,-1.0,2363
5466,310466,16992,-552,624,17012.41,30.27,-1.00,-1.0,2420
5469,310469,17016,-612,688,17040.90,30.37,-1.00,-1.0,2368
5471,310471,17076,-548,724,17100.12,30.27,-1.00,-1.0,2369
5474,310474,16996,-592,676,17019.74,30.27,-1.00,-1.0,2465
5477,310477,17016,-628,796,17046.18,30.37,-1.00,-1.0,2371
5480,310480,17080,-580,792,17108.19,30.27,-1.00,-1.0,2429
5482,310482,17072,-568,740,17097.47,30.37,-1.00,-1.0,2368
5487,310487,17076,-608,708,17101.48,30.37,-1.00,-1.0,2438
5490,310490,17084,-584,692,17107.98,30.27,-1.00,-1.0,2372
5493,310493,17140,-592,728,17165.66,30.27,-1.00,-1.0,2422
5496,310496,16984,-660,664,17009.78,30.37,-1.00,-1.0,2367
5498,310498,17020,-564,496,17036.56,30.37,-1.00,-1.0,2422
5501,310501,17032,-580,636,17053.74,30.37,-1.00,-1.0,2369
5504,310504,17060,-636,676,17085.23,30.32,-1.00,-1.0,2370
5507,310507,17088,-528,616,17107.25,30.41,-1.00,-1.0,2426
5509,310509,17016,-660,720,17044.01,30.37,-1.00,-1.0,2356
5515,310515,17080,-568,660,17102.18,30.37,-1.00,-1.0,2441
5517,310517,17020,-668,616,17044.24,30.27,-1.00,-1.0,2377
5520,310520,17084,-612,772,17112.38,30.37,-1.00,-1.0,2422
5523,310523,17052,-596,696,17076.60,30.27,-1.00,-1.0,2370
5526,310526,17060,-608,616,17081.94,30.18,-1.00,-1.0,2426
5528,310528,17012,-604,676,17036.14,30.37,-1.00,-1.0,2371
5531,310531,17092,-572,700,17115.89,30.32,-1.00,-1.0,2423
5534,310534,17052,-696,524,17074.24,30.27,-1.00,-1.0,2373
5536,310536,17012,-572,608,17032.47,30.32,-1.00,-1.0,2369
5541,310541,17032,-544,660,17053.46,30.32,-1.00,-1.0,2441
5544,310544,17000,-480,740,17022.87,30.32,-1.00,-1.0,2373
5547,310547,17076,-560,776,17102.79,30.37,-1.00,-1.0,2426
5549,310549,17032,-684,776,17063.38,30.22,-1.00,-1.0,2368
5552,310552,16988,-652,696,17014.75,30.37,-1.00,-1.0,2434
5555,310555,17016,-612,736,17042.90,30.27,-1.00,-1.0,2376
5558,310558,17088,-684,672,17114.88,30.18,-1.00,-1.0,2425
5560,310560,17120,-600,736,17146.31,30.32,-1.00,-1.0,2370
5563,310563,17048,-596,712,17073.27,30.22,-1.00,-1.0,2368
5568,310568,17008,-592,704,17032.86,30.32,-1.00,-1.0,2437
5571,310571,17084,-604,708,17109.33,30.32,-1.00,-1.0,2372
5574,310574,17044,-660,696,17070.97,30.22,-1.00,-1.0,2428
5576,310576,17028,-540,736,17052.45,30.37,-1.00,-1.0,2368
5579,310579,17044,-564,636,17065.19,30.32,-1.00,-1.0,2423
5582,310582,17040,-660,716,17067.80,30.32,-1.00,-1.0,2369
5585,310585,17004,-672,648,17029.61,30.22,-1.00,-1.0,2428
5587,310587,17036,-600,524,17054.62,30.37,-1.00,-1.0,2376
5592,310592,16992,-584,772,17019.55,30.37,-1.00,-1.0,2437
5595,310595,17164,-592,732,17189.80,30.32,-1.00,-1.0,2372
5598,310598,17124,-512,740,17147.63,30.37,-1.00,-1.0,2370
5601,310601,17064,-664,652,17089.36,30.32,-1.00,-1.0,2422
5603,310603,17080,-644,760,17109.03,30.27,-1.00,-1.0,2375
5606,310606,17160,-736,728,17191.20,30.32,-1.00,-1.0,2422
5609,310609,17064,-580,596,17084.25,30.27,-1.00,-1.0,2373
5612,310612,17104,-548,680,17126.28,30.41,-1.00,-1.0,2422
5615,310615,17064,-632,676,17089.08,30.37,-1.00,-1.0,2377
5619,310619,17060,-632,816,17091.19,30.37,-1.00,-1.0,2438
5622,310622,17020,-620,772,17048.78,30.37,-1.00,-1.0,2373
5625,310625,17000,-560,732,17024.96,30.27,-1.00,-1.0,2436
5628,310628,17036,-616,800,17065.89,30.37,-1.00,-1.0,2376
5630,310630,17184,-596,752,17210.77,30.27,-1.00,-1.0,2369
5633,310633,17036,-552,676,17058.34,30.22,-1.00,-1.0,2409
5636,310636,16964,-580,588,16984.09,30.32,-1.00,-1.0,2370
5639,310639,17080,-556,744,17105.23,30.32,-1.00,-1.0,2422
5642,310642,17052,-580,612,17072.83,30.32,-1.00,-1.0,2371
5647,310647,17144,-672,720,17172.27,30.27,-1.00,-1.0,2442
5649,310649,17004,-668,660,17029.91,30.37,-1.00,-1.0,2375
5652,310652,16984,-656,712,17011.57,30.32,-1.00,-1.0,2430
5655,310655,17088,-596,700,17112.71,30.27,-1.00,-1.0,2372
5658,310658,16944,-584,584,16964.12,30.41,-1.00,-1.0,2431
5660,310660,17012,-620,632,17035.02,30.37,-1.00,-1.0,2376
5663,310663,17008,-688,636,17033.79,30.32,-1.00,-1.0,2365
5666,310666,17140,-664,792,17171.13,30.27,-1.00,-1.0,2429
5669,310669,17020,-716,696,17049.27,30.32,-1.00,-1.0,2364
5674,310674,17044,-596,536,17062.84,30.32,-1.00,-1.0,2444
5676,310676,17120,-584,708,17144.58,30.37,-1.00,-1.0,2381
5679,310679,17100,-532,844,17129.08,30.41,-1.00,-1.0,2422
5682,310682,17120,-572,752,17146.05,30.27,-1.00,-1.0,2354
5685,310685,17020,-592,676,17043.70,30.32,-1.00,-1.0,2431
5687,310687,17148,-716,768,17180.12,30.37,-1.00,-1.0,2374
5690,310690,17120,-652,608,17143.20,30.32,-1.00,-1.0,2429
5693,310693,17052,-540,800,17079.29,30.32,-1.00,-1.0,2372
5696,310696,17124,-656,864,17158.33,30.32,-1.00,-1.0,2367
5701,310701,17104,-600,632,17126.19,30.32,-1.00,-1.0,2442
5703,310703,17092,-616,684,17116.77,30.32,-1.00,-1.0,2377
5706,310706,17068,-712,676,17096.21,30.41,-1.00,-1.0,2421
5709,310709,16984,-620,736,17011.24,30.32,-1.00,-1.0,2353
5712,310712,17036,-660,624,17060.20,30.32,-1.00,-1.0,2424
5714,310714,17184,-460,728,17205.56,30.32,-1.00,-1.0,2376
5717,310717,17072,-652,628,17095.98,30.32,-1.00,-1.0,2422
5720,310720,17100,-668,772,17130.45,30.32,-1.00,-1.0,2366
5725,310725,17076,-600,588,17096.65,30.32,-1.00,-1.0,2444
5727,310727,17176,-660,684,17202.28,30.37,-1.00,-1.0,2369
5730,310730,17088,-632,704,17114.17,30.32,-1.00,-1.0,2368
5733,310733,17008,-580,668,17030.99,30.37,-1.00,-1.0,2421
5736,310736,17084,-656,660,17109.32,30.32,-1.00,-1.0,2367
5738,310738,17068,-648,592,17090.55,30.37,-1.00,-1.0,2421
5741,310741,17236,-644,668,17260.96,30.41,-1.00,-1.0,2369
5744,310744,17032,-652,628,17056.04,30.27,-1.00,-1.0,2421
5747,310747,17064,-576,628,17085.26,30.27,-1.00,-1.0,2368
5751,310751,17096,-628,648,17119.80,30.22,-1.00,-1.0,2437
5754,310754,17040,-640,608,17062.85,30.27,-1.00,-1.0,2379
5757,310757,16884,-656,604,16907.53,30.32,-1.00,-1.0,2366
5760,310760,17096,-540,672,17117.72,30.27,-1.00,-1.0,2426
5762,310762,17044,-548,892,17076.12,30.27,-1.00,-1.0,2370
5765,310765,17172,-736,836,17208.08,30.37,-1.00,-1.0,2421
5768,310768,17152,-652,804,17183.21,30.27,-1.00,-1.0,2371
5771,310771,17076,-620,792,17105.60,30.32,-1.00,-1.0,2428
5774,310774,16976,-540,740,17000.70,30.37,-1.00,-1.0,2379
5778,310778,17072,-612,648,17095.25,30.37,-1.00,-1.0,2440
5781,310781,17124,-620,700,17149.51,30.37,-1.00,-1.0,2372
5784,310784,17072,-500,604,17090.00,30.37,-1.00,-1.0,2421
5787,310787,17028,-704,728,17058.09,30.27,-1.00,-1.0,2372
5789,310789,17076,-716,496,17098.20,30.37,-1.00,-1.0,2369
5792,310792,17048,-576,712,17072.58,30.41,-1.00,-1.0,2429
5795,310795,16940,-628,768,16969.03,30.41,-1.00,-1.0,2372
5798,310798,17076,-600,756,17103.25,30.32,-1.00,-1.0,2428
5801,310801,17136,-664,616,17159.92,30.41,-1.00,-1.0,2363
5806,310806,17072,-688,836,17106.30,30.22,-1.00,-1.0,2444
5808,310808,17024,-508,784,17049.61,30.27,-1.00,-1.0,2376
5811,310811,17044,-616,796,17073.69,30.32,-1.00,-1.0,2423
5814,310814,17044,-616,748,17071.52,30.32,-1.00,-1.0,2369
5817,310817,17148,-720,612,17174.02,30.22,-1.00,-1.0,2431
5819,310819,17004,-728,736,17035.48,30.32,-1.00,-1.0,2369
5822,310822,17084,-576,608,17104.52,30.27,-1.00,-1.0,2374
5825,310825,17020,-644,660,17044.96,30.37,-1.00,-1.0,2422
5828,310828,17040,-648,608,17063.15,30.32,-1.00,-1.0,2374
5833,310833,17052,-700,624,17077.77,30.32,-1.00,-1.0,2425
5835,310835,16948,-556,756,16973.96,30.32,-1.00,-1.0,2373
5838,310838,17068,-736,744,17100.05,30.32,-1.00,-1.0,2425
5841,310841,17048,-592,788,17076.47,30.32,-1.00,-1.0,2369
5844,310844,17060,-612,744,17087.18,30.41,-1.00,-1.0,2429
5846,310846,17032,-600,724,17057.94,30.32,-1.00,-1.0,2369
5849,310849,16988,-608,564,17008.23,30.32,-1.00,-1.0,2425
5852,310852,17052,-576,600,17072.27,30.32,-1.00,-1.0,2369
5855,310855,16960,-536,692,16982.57,30.37,-1.00,-1.0,2370
5860,310860,17028,-592,720,17053.49,30.37,-1.00,-1.0,2444
5862,310862,17100,-600,668,17123.56,30.41,-1.00,-1.0,2373
5865,310865,17084,-556,744,17109.23,30.37,-1.00,-1.0,2431
5868,310868,17236,-556,780,17262.60,30.27,-1.00,-1.0,2376
5871,310871,17012,-632,724,17039.12,30.27,-1.00,-1.0,2424
5873,310873,17084,-604,780,17112.46,30.37,-1.00,-1.0,2370
5876,310876,17004,-592,572,17023.91,30.27,-1.00,-1.0,2430
5879,310879,17000,-548,728,17024.40,30.27,-1.00,-1.0,2376
5884,310884,17040,-660,716,17067.80,30.27,-1.00,-1.0,2437
5887,310887,17004,-512,792,17030.13,30.32,-1.00,-1.0,2381
5889,310889,17088,-560,764,17114.23,30.27,-1.00,-1.0,2373
5892,310892,17072,-524,636,17091.88,30.37,-1.00,-1.0,2421
5895,310895,16972,-628,600,16994.21,30.27,-1.00,-1.0,2370
5898,310898,17056,-636,720,17083.03,30.32,-1.00,-1.0,2422
5900,310900,16912,-720,752,16944.02,30.37,-1.00,-1.0,2375
5903,310903,17072,-516,804,17098.71,30.32,-1.00,-1.0,2422
5906,310906,17000,-616,696,17025.39,30.37,-1.00,-1.0,2372
5911,310911,17120,-636,672,17144.98,30.27,-1.00,-1.0,2442
5914,310914,16976,-752,676,17006.09,30.37,-1.00,-1.0,2382
5916,310916,17012,-596,652,17034.92,30.22,-1.00,-1.0,2424
5919,310919,17088,-572,648,17109.85,30.37,-1.00,-1.0,2363
5922,310922,17080,-568,616,17100.54,30.32,-1.00,-1.0,2367
5924,310924,17112,-600,768,17139.73,30.27,-1.00,-1.0,2421
5927,310927,16932,-552,772,16958.58,30.22,-1.00,-1.0,2369
5930,310930,17112,-672,600,17135.70,30.37,-1.00,-1.0,2422
5933,310933,17140,-624,616,17162.41,30.32,-1.00,-1.0,2376
5938,310938,17068,-664,656,17093.50,30.37,-1.00,-1.0,2452
5941,310941,17088,-628,752,17116.06,30.27,-1.00,-1.0,2375
5944,310944,17036,-624,572,17057.02,30.32,-1.00,-1.0,2429
5946,310946,17060,-688,644,17086.01,30.27,-1.00,-1.0,2376
5949,310949,17080,-540,676,17101.90,30.41,-1.00,-1.0,2366
5952,310952,17044,-652,740,17072.51,30.27,-1.00,-1.0,2428
5954,310954,17088,-592,756,17114.96,30.22,-1.00,-1.0,2365
5957,310957,17124,-516,752,17148.27,30.27,-1.00,-1.0,2421
5960,310960,17048,-588,684,17071.85,30.32,-1.00,-1.0,2366
5967,310967,17112,-616,700,17137.39,30.32,-1.00,-1.0,2437
5969,310969,17040,-584,624,17061.42,30.32,-1.00,-1.0,2369
5972,310972,17008,-624,844,17040.36,30.27,-1.00,-1.0,2424
5975,310975,17036,-532,552,17053.24,30.32,-1.00,-1.0,2366
5978,310978,17000,-544,676,17022.13,30.37,-1.00,-1.0,2428
5980,310980,17140,-548,644,17160.85,30.32,-1.00,-1.0,2366
5983,310983,17120,-600,612,17141.44,30.37,-1.00,-1.0,2366
5986,310986,16992,-508,696,17013.83,30.37,-1.00,-1.0,2428
5988,310988,17112,-588,736,17137.91,30.37,-1.00,-1.0,2365
5993,310993,17004,-592,744,17030.56,30.22,-1.00,-1.0,2424
5996,310996,17100,-620,876,17133.64,30.32,-1.00,-1.0,2371
5999,310999,17068,-720,788,17101.34,30.27,-1.00,-1.0,2428
6001,311001,17020,-592,652,17042.77,30.32,-1.00,-1.0,2365
6004,311004,17076,-556,776,17102.66,30.27,-1.00,-1.0,2421
6007,311007,16952,-612,684,16976.83,30.32,-1.00,-1.0,2366
6010,311010,17156,-676,792,17187.57,30.27,-1.00,-1.0,2422
6012,311012,17088,-620,668,17112.29,30.41,-1.00,-1.0,2352
6015,311015,17128,-648,788,17158.36,30.37,-1.00,-1.0,2367
6020,311020,17128,-680,840,17162.06,30.37,-1.00,-1.0,2437
6023,311023,17068,-644,676,17093.52,30.32,-1.00,-1.0,2372
6025,311025,17064,-524,636,17083.89,30.27,-1.00,-1.0,2422
6028,311028,17088,-592,752,17114.78,30.37,-1.00,-1.0,2369
6031,311031,17124,-632,584,17145.61,30.27,-1.00,-1.0,2421
6034,311034,16996,-600,712,17021.48,30.32,-1.00,-1.0,2368
6036,311036,17076,-600,608,17097.35,30.27,-1.00,-1.0,2422
6039,311039,17004,-632,792,17034.16,30.18,-1.00,-1.0,2370
6044,311044,17028,-528,624,17047.61,30.32,-1.00,-1.0,2448
6047,311047,17112,-744,744,17144.32,30.22,-1.00,-1.0,2375
6049,311049,17040,-520,892,17071.25,30.27,-1.00,-1.0,2365
6052,311052,17004,-560,700,17027.61,30.27,-1.00,-1.0,2423
6055,311055,17024,-600,668,17047.66,30.37,-1.00,-1.0,2370
6058,311058,17068,-576,680,17091.25,30.27,-1.00,-1.0,2429
6060,311060,17092,-592,768,17119.48,30.27,-1.00,-1.0,2368
6063,311063,17124,-604,720,17149.77,30.27,-1.00,-1.0,2422
6066,311066,17104,-540,604,17123.18,30.27,-1.00,-1.0,2370
6071,311071,17092,-632,608,17114.48,30.37,-1.00,-1.0,2438
6074,311074,17032,-612,656,17055.61,30.32,-1.00,-1.0,2375
6076,311076,16992,-736,812,17027.30,30.27,-1.00,-1.0,2421
6079,311079,16980,-628,740,17007.71,30.37,-1.00,-1.0,2369
6082,311082,16992,-560,652,17013.72,30.27,-1.00,-1.0,2374
6084,311084,17040,-560,780,17067.03,30.32,-1.00,-1.0,2422
6087,311087,17044,-604,788,17072.89,30.32,-1.00,-1.0,2372
6090,311090,17112,-500,748,17135.64,30.32,-1.00,-1.0,2428
6093,311093,17104,-676,844,17138.15,30.32,-1.00,-1.0,2377
6098,311098,17044,-576,652,17066.19,30.37,-1.00,-1.0,2445
6100,311100,17000,-616,768,17028.48,30.37,-1.00,-1.0,2373
6103,311103,17044,-572,708,17068.29,30.32,-1.00,-1.0,2423
6106,311106,17084,-620,612,17106.20,30.27,-1.00,-1.0,2369
6109,311109,17184,-612,672,17208.02,30.32,-1.00,-1.0,2429
6111,311111,17068,-612,756,17095.69,30.37,-1.00,-1.0,2368
6114,311114,16972,-684,764,17002.95,30.32,-1.00,-1.0,2374
6117,311117,17088,-636,680,17113.35,30.41,-1.00,-1.0,2409
6119,311119,17076,-676,712,17104.20,30.32,-1.00,-1.0,2368
6124,311124,17024,-664,708,17051.65,30.32,-1.00,-1.0,2437
6127,311127,17036,-708,676,17064.10,30.32,-1.00,-1.0,2372
6130,311130,17080,-568,516,17097.23,30.32,-1.00,-1.0,2422
6133,311133,17124,-636,764,17152.83,30.32,-1.00,-1.0,2377
6135,311135,17020,-620,584,17041.30,30.32,-1.00,-1.0,2421
6138,311138,17032,-680,684,17059.29,30.32,-1.00,-1.0,2373
6141,311141,17076,-556,624,17096.44,30.32,-1.00,-1.0,2355
6144,311144,17092,-596,772,17119.80,30.27,-1.00,-1.0,2432
6146,311146,16992,-592,668,17015.43,30.27,-1.00,-1.0,2375
6151,311151,17052,-612,760,17079.90,30.41,-1.00,-1.0,2440
6154,311154,17040,-564,744,17065.56,30.32,-1.00,-1.0,2372
6157,311157,17072,-592,704,17096.76,30.37,-1.00,-1.0,2429
6159,311159,17064,-672,572,17086.80,30.32,-1.00,-1.0,2364
6162,311162,17032,-572,668,17054.69,30.37,-1.00,-1.0,2433
6165,311165,17064,-584,544,17082.65,30.32,-1.00,-1.0,2366
6168,311168,16996,-592,788,17024.55,30.37,-1.00,-1.0,2429
6170,311170,17080,-684,624,17105.08,30.32,-1.00,-1.0,2366
6173,311173,17076,-536,624,17095.80,30.37,-1.00,-1.0,2367
6178,311178,16996,-588,684,17019.92,30.37,-1.00,-1.0,2424
6181,311181,16972,-536,768,16997.82,30.37,-1.00,-1.0,2372
6183,311183,16960,-580,824,16989.91,30.32,-1.00,-1.0,2422
6186,311186,17064,-548,796,17091.34,30.22,-1.00,-1.0,2370
6189,311189,17052,-592,728,17077.80,30.32,-1.00,-1.0,2422
6192,311192,17036,-584,704,17060.54,30.32,-1.00,-1.0,2372
6194,311194,17100,-624,736,17127.20,30.32,-1.00,-1.0,2421
6197,311197,17072,-672,744,17101.41,30.32,-1.00,-1.0,2369
6202,311202,17012,-640,752,17040.63,30.27,-1.00,-1.0,2446
6204,311204,17028,-616,624,17050.56,30.37,-1.00,-1.0,2377
6207,311207,16976,-584,712,17000.96,30.32,-1.00,-1.0,2366
6210,311210,17024,-672,696,17051.47,30.32,-1.00,-1.0,2424
6213,311213,17024,-488,620,17042.28,30.32,-1.00,-1.0,2368
6215,311215,17008,-408,704,17027.45,30.32,-1.00,-1.0,2422
6218,311218,17176,-608,712,17201.50,30.32,-1.00,-1.0,2370
6221,311221,17104,-584,756,17130.66,30.32,-1.00,-1.0,2421
6224,311224,17124,-528,716,17147.09,30.22,-1.00,-1.0,2369
