timestamp_ms,global_ms,accel_x,accel_y,accel_z,accel_mag,temp_c,voltage,soc,loop_us
2,305002,17012,-672,688,17039.16,31.64,-1.00,-1.0,2474
9,305009,17104,-568,696,17127.58,31.64,-1.00,-1.0,2460
11,305011,17020,-604,728,17046.27,31.64,-1.00,-1.0,2372
14,305014,16968,-608,696,16993.15,31.59,-1.00,-1.0,2366
17,305017,17116,-624,592,17137.60,31.59,-1.00,-1.0,2421
20,305020,17004,-580,808,17033.06,31.59,-1.00,-1.0,2376
22,305022,16988,-636,740,17016.00,31.59,-1.00,-1.0,2406
25,305025,17140,-652,760,17169.22,31.49,-1.00,-1.0,2372
28,305028,17008,-484,644,17027.07,31.59,-1.00,-1.0,2419
31,305031,16968,-600,608,16989.49,31.49,-1.00,-1.0,2372
35,305035,17028,-648,672,17053.57,31.54,-1.00,-1.0,2450
38,305038,17088,-680,732,17117.18,31.64,-1.00,-1.0,2383
41,305041,17116,-664,704,17143.34,31.59,-1.00,-1.0,2367
43,305043,17044,-636,660,17068.63,31.64,-1.00,-1.0,2421
46,305046,17132,-616,592,17153.29,31.59,-1.00,-1.0,2372
49,305049,17136,-564,564,17154.55,31.73,-1.00,-1.0,2420
52,305052,17036,-672,632,17060.96,31.59,-1.00,-1.0,2373
54,305054,17088,-568,716,17112.42,31.54,-1.00,-1.0,2419
57,305057,17048,-592,640,17070.28,31.59,-1.00,-1.0,2372
60,305060,16984,-684,616,17008.93,31.64,-1.00,-1.0,2375
65,305065,16972,-584,520,16990.00,31.54,-1.00,-1.0,2442
67,305067,17108,-620,716,17134.20,31.59,-1.00,-1.0,2368
70,305070,17008,-668,640,17033.14,31.73,-1.00,-1.0,2422
73,305073,17076,-592,500,17093.57,31.64,-1.00,-1.0,2372
76,305076,16984,-652,640,17008.55,31.64,-1.00,-1.0,2426
78,305078,17008,-636,748,17036.32,31.59,-1.00,-1.0,2359
81,305081,17036,-656,644,17060.79,31.54,-1.00,-1.0,2420
84,305084,17036,-740,580,17061.93,31.68,-1.00,-1.0,2372
87,305087,17080,-624,760,17108.28,31.54,-1.00,-1.0,2370
91,305091,16992,-692,728,17021.66,31.64,-1.00,-1.0,2439
94,305094,17080,-688,616,17104.95,31.59,-1.00,-1.0,2369
97,305097,17132,-624,792,17161.64,31.54,-1.00,-1.0,2434
100,305100,16996,-612,652,17019.51,31.64,-1.00,-1.0,2367
103,305103,17112,-612,784,17140.88,31.64,-1.00,-1.0,2426
105,305105,17044,-580,648,17066.17,31.64,-1.00,-1.0,2375
108,305108,17088,-636,680,17113.35,31.59,-1.00,-1.0,2369
111,305111,17080,-592,624,17101.64,31.68,-1.00,-1.0,2421
113,305113,17088,-584,572,17107.54,31.59,-1.00,-1.0,2369
118,305118,17088,-632,728,17115.17,31.59,-1.00,-1.0,2447
121,305121,17140,-616,668,17164.07,31.59,-1.00,-1.0,2371
124,305124,17096,-644,712,17122.94,31.68,-1.00,-1.0,2418
127,305127,17096,-624,712,17122.19,31.59,-1.00,-1.0,2372
129,305129,17064,-568,564,17082.76,31.59,-1.00,-1.0,2418
132,305132,17048,-680,628,17073.11,31.59,-1.00,-1.0,2359
135,305135,17036,-648,676,17061.72,31.64,-1.00,-1.0,2374
137,305137,17008,-696,616,17033.38,31.64,-1.00,-1.0,2418
140,305140,16984,-616,668,17008.29,31.64,-1.00,-1.0,2372
145,305145,17028,-568,692,17051.52,31.59,-1.00,-1.0,2439
148,305148,17028,-644,528,17048.35,31.59,-1.00,-1.0,2368
151,305151,17012,-600,676,17035.99,31.73,-1.00,-1.0,2419
154,305154,17092,-600,744,17118.70,31.68,-1.00,-1.0,2372
156,305156,17100,-564,704,17123.78,31.45,-1.00,-1.0,2418
159,305159,17100,-652,648,17124.69,31.49,-1.00,-1.0,2372
162,305162,17072,-552,660,17093.67,31.54,-1.00,-1.0,2419
165,305165,17092,-616,608,17113.90,31.59,-1.00,-1.0,2375
167,305167,17060,-648,728,17087.82,31.54,-1.00,-1.0,2367
172,305172,17052,-692,672,17079.26,31.54,-1.00,-1.0,2440
175,305175,17068,-668,744,17097.26,31.59,-1.00,-1.0,2369
178,305178,17136,-532,660,17156.96,31.64,-1.00,-1.0,2419
181,305181,17176,-668,600,17199.45,31.64,-1.00,-1.0,2373
183,305183,17148,-604,804,17177.46,31.64,-1.00,-1.0,2418
186,305186,17124,-568,600,17143.92,31.59,-1.00,-1.0,2372
189,305189,17076,-740,608,17102.84,31.64,-1.00,-1.0,2418
192,305192,17064,-540,764,17089.63,31.54,-1.00,-1.0,2372
194,305194,17092,-564,792,17119.63,31.64,-1.00,-1.0,2367
199,305199,17136,-568,656,17157.96,31.64,-1.00,-1.0,2439
202,305202,17148,-440,760,17170.47,31.54,-1.00,-1.0,2369
205,305205,17136,-716,712,17165.72,31.59,-1.00,-1.0,2418
208,305208,17012,-600,696,17036.80,31.64,-1.00,-1.0,2373
210,305210,17044,-560,624,17064.61,31.59,-1.00,-1.0,2417
213,305213,17036,-632,684,17061.44,31.64,-1.00,-1.0,2372
216,305216,17080,-700,804,17113.23,31.59,-1.00,-1.0,2418
219,305219,17048,-612,700,17073.34,31.64,-1.00,-1.0,2372
221,305221,17104,-604,640,17126.62,31.59,-1.00,-1.0,2367
226,305226,17052,-644,764,17081.25,31.59,-1.00,-1.0,2449
229,305229,17004,-532,732,17028.06,31.68,-1.00,-1.0,2383
232,305232,17056,-592,600,17076.81,31.64,-1.00,-1.0,2420
235,305235,17064,-708,684,17092.37,31.59,-1.00,-1.0,2375
237,305237,16992,-624,708,17018.19,31.64,-1.00,-1.0,2408
240,305240,17056,-720,740,17087.22,31.68,-1.00,-1.0,2387
243,305243,16972,-668,756,17001.96,31.64,-1.00,-1.0,2422
246,305246,17060,-612,836,17091.43,31.68,-1.00,-1.0,2372
248,305248,17060,-540,624,17079.95,31.59,-1.00,-1.0,2367
253,305253,17076,-524,508,17091.59,31.59,-1.00,-1.0,2440
256,305256,16984,-564,712,17008.27,31.64,-1.00,-1.0,2369
259,305259,16976,-716,668,17004.22,31.59,-1.00,-1.0,2426
261,305261,17012,-620,684,17037.03,31.64,-1.00,-1.0,2371
264,305264,17052,-504,564,17068.77,31.59,-1.00,-1.0,2420
267,305267,16992,-644,720,17019.44,31.54,-1.00,-1.0,2373
270,305270,17036,-636,736,17063.75,31.59,-1.00,-1.0,2426
273,305273,17068,-564,632,17089.01,31.59,-1.00,-1.0,2375
276,305276,17024,-676,752,17054.00,31.64,-1.00,-1.0,2372
281,305281,16920,-536,676,16941.98,31.68,-1.00,-1.0,2440
283,305283,16976,-704,780,17008.49,31.59,-1.00,-1.0,2370
286,305286,17008,-632,800,17038.53,31.59,-1.00,-1.0,2433
289,305289,17076,-668,616,17100.16,31.59,-1.00,-1.0,2380
292,305292,17080,-536,696,17102.58,31.64,-1.00,-1.0,2435
294,305294,17036,-556,852,17066.35,31.54,-1.00,-1.0,2384
297,305297,17088,-676,684,17115.04,31.64,-1.00,-1.0,2419
300,305300,17024,-532,684,17046.04,31.64,-1.00,-1.0,2375
303,305303,17076,-628,656,17100.13,31.73,-1.00,-1.0,2368
308,305308,17120,-624,596,17141.73,31.73,-1.00,-1.0,2447
310,305310,17112,-620,600,17133.74,31.64,-1.00,-1.0,2379
313,305313,17072,-580,668,17094.91,31.64,-1.00,-1.0,2418
316,305316,17040,-664,684,17066.64,31.54,-1.00,-1.0,2377
319,305319,17044,-632,652,17068.17,31.64,-1.00,-1.0,2420
321,305321,17112,-660,668,17137.75,31.64,-1.00,-1.0,2379
324,305324,17000,-680,656,17026.24,31.64,-1.00,-1.0,2418
327,305327,16956,-716,652,16983.63,31.54,-1.00,-1.0,2361
330,305330,17036,-644,728,17063.71,31.54,-1.00,-1.0,2370
335,305335,17060,-500,664,17080.24,31.73,-1.00,-1.0,2448
337,305337,17028,-620,740,17055.35,31.64,-1.00,-1.0,2376
340,305340,17044,-652,692,17070.50,31.59,-1.00,-1.0,2418
343,305343,17172,-660,616,17195.71,31.64,-1.00,-1.0,2376
346,305346,17084,-652,724,17111.76,31.68,-1.00,-1.0,2420
348,305348,17012,-564,508,17028.93,31.64,-1.00,-1.0,2371
351,305351,17112,-676,804,17144.21,31.59,-1.00,-1.0,2418
354,305354,17072,-592,620,17093.51,31.64,-1.00,-1.0,2372
357,305357,17076,-652,724,17103.77,31.59,-1.00,-1.0,2368
362,305362,17148,-660,672,17173.85,31.49,-1.00,-1.0,2442
364,305364,17036,-612,500,17054.32,31.64,-1.00,-1.0,2376
367,305367,17092,-588,632,17113.79,31.59,-1.00,-1.0,2418
370,305370,17176,-592,740,17202.12,31.64,-1.00,-1.0,2360
373,305373,17152,-564,708,17175.87,31.68,-1.00,-1.0,2419
375,305375,17096,-600,752,17123.05,31.64,-1.00,-1.0,2376
378,305378,17068,-720,684,17096.87,31.59,-1.00,-1.0,2418
381,305381,17132,-576,800,17160.34,31.64,-1.00,-1.0,2373
384,305384,17112,-644,636,17135.92,31.68,-1.00,-1.0,2367
389,305389,17052,-692,664,17078.95,31.59,-1.00,-1.0,2442
391,305391,17040,-668,772,17070.55,31.49,-1.00,-1.0,2374
394,305394,17068,-664,836,17101.36,31.59,-1.00,-1.0,2418
397,305397,17128,-684,588,17151.73,31.59,-1.00,-1.0,2374
400,305400,17112,-636,664,17136.68,31.68,-1.00,-1.0,2422
402,305402,17084,-572,656,17106.16,31.59,-1.00,-1.0,2376
405,305405,17016,-684,644,17041.91,31.59,-1.00,-1.0,2418
408,305408,17064,-632,692,17089.71,31.59,-1.00,-1.0,2374
411,305411,17056,-612,708,17081.65,31.68,-1.00,-1.0,2367
416,305416,17060,-688,580,17083.71,31.68,-1.00,-1.0,2440
418,305418,17108,-652,460,17126.60,31.59,-1.00,-1.0,2371
421,305421,17140,-676,848,17174.27,31.54,-1.00,-1.0,2418
424,305424,17124,-632,852,17156.83,31.59,-1.00,-1.0,2373
427,305427,17044,-632,640,17067.72,31.68,-1.00,-1.0,2427
429,305429,17088,-648,624,17111.66,31.59,-1.00,-1.0,2371
432,305432,17108,-648,688,17134.09,31.64,-1.00,-1.0,2418
435,305435,17012,-736,544,17036.60,31.59,-1.00,-1.0,2374
438,305438,17052,-636,592,17074.12,31.64,-1.00,-1.0,2375
442,305442,16956,-568,688,16979.46,31.54,-1.00,-1.0,2440
445,305445,17080,-580,636,17101.68,31.64,-1.00,-1.0,2371
448,305448,17152,-504,740,17175.35,31.59,-1.00,-1.0,2434
451,305451,16972,-604,660,16995.56,31.54,-1.00,-1.0,2380
454,305454,17068,-580,572,17087.43,31.59,-1.00,-1.0,2429
456,305456,17136,-704,684,17164.09,31.64,-1.00,-1.0,2377
459,305459,17020,-600,696,17044.79,31.59,-1.00,-1.0,2419
462,305462,17040,-696,696,17068.40,31.64,-1.00,-1.0,2379
465,305465,17060,-732,712,17090.54,31.64,-1.00,-1.0,2374
469,305469,17008,-668,752,17037.72,31.64,-1.00,-1.0,2439
472,305472,17116,-692,656,17142.54,31.68,-1.00,-1.0,2369
475,305475,17060,-684,484,17080.56,31.59,-1.00,-1.0,2419
478,305478,17100,-652,692,17126.41,31.68,-1.00,-1.0,2372
480,305480,17096,-592,672,17119.44,31.64,-1.00,-1.0,2419
483,305483,17208,-636,860,17241.21,31.59,-1.00,-1.0,2372
486,305486,17096,-540,692,17118.52,31.68,-1.00,-1.0,2418
489,305489,17024,-588,748,17050.57,31.59,-1.00,-1.0,2380
492,305492,17080,-644,656,17104.72,31.59,-1.00,-1.0,2375
497,305497,17040,-592,728,17065.81,31.54,-1.00,-1.0,2446
499,305499,17160,-672,688,17186.93,31.64,-1.00,-1.0,2369
502,305502,17044,-572,728,17069.13,31.59,-1.00,-1.0,2421
505,305505,17016,-584,676,17039.43,31.64,-1.00,-1.0,2373
508,305508,17080,-704,748,17110.86,31.78,-1.00,-1.0,2425
510,305510,17132,-644,740,17160.06,31.64,-1.00,-1.0,2372
513,305513,17000,-712,828,17035.04,31.59,-1.00,-1.0,2419
516,305516,17036,-600,636,17058.42,31.64,-1.00,-1.0,2376
519,305519,17096,-624,512,17115.04,31.68,-1.00,-1.0,2374
524,305524,17096,-728,692,17125.48,31.68,-1.00,-1.0,2448
526,305526,17048,-644,668,17073.23,31.54,-1.00,-1.0,2372
529,305529,17052,-620,660,17076.03,31.59,-1.00,-1.0,2433
532,305532,16968,-612,772,16996.57,31.59,-1.00,-1.0,2372
535,305535,17036,-628,612,17058.55,31.59,-1.00,-1.0,2426
537,305537,17092,-668,648,17117.32,31.68,-1.00,-1.0,2372
540,305540,17088,-728,800,17122.20,31.59,-1.00,-1.0,2428
543,305543,17084,-556,648,17105.32,31.59,-1.00,-1.0,2383
548,305548,17120,-568,704,17143.88,31.68,-1.00,-1.0,2439
551,305551,17032,-620,728,17058.82,31.54,-1.00,-1.0,2377
553,305553,17036,-612,740,17063.04,31.68,-1.00,-1.0,2374
556,305556,17032,-588,572,17051.74,31.73,-1.00,-1.0,2419
559,305559,17036,-532,688,17058.19,31.59,-1.00,-1.0,2376
562,305562,17088,-568,764,17114.50,31.64,-1.00,-1.0,2420
564,305564,17072,-636,616,17094.95,31.64,-1.00,-1.0,2380
567,305567,17072,-588,712,17096.96,31.54,-1.00,-1.0,2419
570,305570,16992,-700,660,17019.21,31.59,-1.00,-1.0,2372
575,305575,17060,-648,676,17085.68,31.68,-1.00,-1.0,2442
577,305577,17028,-716,728,17058.59,31.59,-1.00,-1.0,2371
580,305580,17052,-512,632,17071.39,31.54,-1.00,-1.0,2367
583,305583,17076,-548,672,17098.00,31.59,-1.00,-1.0,2418
586,305586,17028,-668,688,17054.98,31.64,-1.00,-1.0,2372
588,305588,17064,-716,708,17093.68,31.68,-1.00,-1.0,2418
591,305591,17092,-644,760,17121.00,31.54,-1.00,-1.0,2372
594,305594,17136,-636,808,17166.82,31.68,-1.00,-1.0,2419
597,305597,16984,-612,668,17008.15,31.64,-1.00,-1.0,2373
602,305602,17008,-604,804,17037.70,31.64,-1.00,-1.0,2441
605,305605,17132,-584,672,17155.12,31.54,-1.00,-1.0,2371
607,305607,17068,-656,560,17089.78,31.68,-1.00,-1.0,2366
610,305610,17024,-676,704,17051.96,31.59,-1.00,-1.0,2418
613,305613,16996,-664,668,17022.08,31.59,-1.00,-1.0,2372
615,305615,17060,-632,712,17086.54,31.59,-1.00,-1.0,2418
618,305618,17100,-620,600,17121.75,31.59,-1.00,-1.0,2359
621,305621,17044,-676,704,17071.92,31.68,-1.00,-1.0,2419
624,305624,17028,-608,552,17047.79,31.64,-1.00,-1.0,2359
629,305629,17128,-556,640,17148.97,31.54,-1.00,-1.0,2443
632,305632,17048,-684,672,17074.95,31.54,-1.00,-1.0,2371
634,305634,17016,-688,708,17044.61,31.59,-1.00,-1.0,2366
637,305637,17104,-680,720,17132.65,31.68,-1.00,-1.0,2418
640,305640,17028,-632,728,17055.27,31.59,-1.00,-1.0,2380
642,305642,17044,-728,708,17074.23,31.59,-1.00,-1.0,2418
645,305645,17044,-592,572,17063.87,31.68,-1.00,-1.0,2373
648,305648,17132,-704,580,17156.27,31.49,-1.00,-1.0,2418
651,305651,17004,-652,664,17029.45,31.59,-1.00,-1.0,2372
656,305656,17052,-640,672,17077.23,31.59,-1.00,-1.0,2447
658,305658,16948,-664,612,16972.04,31.68,-1.00,-1.0,2369
661,305661,16996,-672,864,17031.21,31.64,-1.00,-1.0,2369
664,305664,17116,-664,660,17141.59,31.59,-1.00,-1.0,2418
667,305667,17008,-652,680,17034.07,31.64,-1.00,-1.0,2373
669,305669,17080,-520,704,17102.41,31.59,-1.00,-1.0,2419
672,305672,17012,-584,692,17036.08,31.54,-1.00,-1.0,2375
675,305675,17052,-676,752,17081.96,31.64,-1.00,-1.0,2418
678,305678,16964,-636,744,16992.21,31.59,-1.00,-1.0,2372
683,305683,16988,-640,824,17020.01,31.49,-1.00,-1.0,2441
685,305685,16968,-648,748,16996.84,31.64,-1.00,-1.0,2376
688,305688,17000,-676,612,17024.44,31.68,-1.00,-1.0,2366
691,305691,17140,-572,720,17164.65,31.59,-1.00,-1.0,2425
693,305693,17028,-584,744,17054.25,31.49,-1.00,-1.0,2367
696,305696,17064,-680,740,17093.57,31.64,-1.00,-1.0,2420
699,305699,17124,-656,572,17146.10,31.59,-1.00,-1.0,2370
702,305702,17016,-628,652,17040.06,31.54,-1.00,-1.0,2418
705,305705,17068,-576,792,17096.07,31.54,-1.00,-1.0,2373
710,305710,17096,-672,700,17123.52,31.64,-1.00,-1.0,2439
713,305713,17120,-632,668,17144.68,31.59,-1.00,-1.0,2369
715,305715,17012,-632,696,17037.96,31.54,-1.00,-1.0,2376
718,305718,17096,-596,684,17120.05,31.49,-1.00,-1.0,2418
721,305721,17088,-560,756,17113.88,31.64,-1.00,-1.0,2375
724,305724,17024,-680,700,17051.95,31.59,-1.00,-1.0,2425
726,305726,17084,-656,664,17109.48,31.54,-1.00,-1.0,2381
729,305729,17036,-568,736,17061.35,31.49,-1.00,-1.0,2418
732,305732,17092,-624,576,17113.08,31.64,-1.00,-1.0,2373
737,305737,17104,-568,608,17124.23,31.64,-1.00,-1.0,2439
740,305740,17008,-616,696,17033.38,31.59,-1.00,-1.0,2377
742,305742,17140,-596,740,17166.32,31.59,-1.00,-1.0,2374
745,305745,16980,-684,684,17007.53,31.59,-1.00,-1.0,2418
748,305748,17036,-528,552,17053.12,31.59,-1.00,-1.0,2373
751,305751,17088,-612,672,17112.16,31.49,-1.00,-1.0,2420
753,305753,17052,-680,696,17079.74,31.59,-1.00,-1.0,2377
756,305756,17016,-616,592,17037.43,31.59,-1.00,-1.0,2418
759,305759,17192,-604,632,17214.21,31.64,-1.00,-1.0,2388
764,305764,17028,-556,720,17052.28,31.59,-1.00,-1.0,2454
767,305767,17076,-580,616,17096.95,31.54,-1.00,-1.0,2378
769,305769,17044,-600,764,17071.66,31.59,-1.00,-1.0,2367
772,305772,17012,-736,632,17039.64,31.64,-1.00,-1.0,2419
775,305775,17092,-692,616,17117.09,31.59,-1.00,-1.0,2373
778,305778,17028,-580,608,17048.72,31.59,-1.00,-1.0,2420
780,305780,17084,-596,660,17107.13,31.59,-1.00,-1.0,2356
783,305783,17064,-564,600,17083.86,31.64,-1.00,-1.0,2418
786,305786,17144,-680,780,17175.20,31.78,-1.00,-1.0,2379
791,305791,17028,-672,712,17056.12,31.59,-1.00,-1.0,2454
794,305794,16992,-640,580,17013.94,31.68,-1.00,-1.0,2376
796,305796,17052,-648,580,17074.16,31.59,-1.00,-1.0,2366
799,305799,17072,-652,668,17097.50,31.64,-1.00,-1.0,2418
802,305802,16896,-676,648,16921.93,31.68,-1.00,-1.0,2373
805,305805,17072,-664,904,17108.81,31.54,-1.00,-1.0,2425
807,305807,17128,-740,648,17156.22,31.54,-1.00,-1.0,2372
810,305810,17032,-676,868,17067.50,31.64,-1.00,-1.0,2418
813,305813,17180,-748,604,17206.88,31.59,-1.00,-1.0,2363
818,305818,16992,-684,788,17024.01,31.59,-1.00,-1.0,2453
821,305821,17108,-640,548,17128.73,31.59,-1.00,-1.0,2375
823,305823,17012,-688,572,17035.51,31.73,-1.00,-1.0,2368
826,305826,17080,-572,668,17102.62,31.64,-1.00,-1.0,2421
829,305829,17056,-584,748,17082.38,31.68,-1.00,-1.0,2429
832,305832,17056,-604,736,17082.55,31.54,-1.00,-1.0,2402
835,305835,17124,-584,692,17147.92,31.59,-1.00,-1.0,2377
837,305837,17112,-580,596,17132.20,31.54,-1.00,-1.0,2415
840,305840,17084,-588,672,17107.32,31.64,-1.00,-1.0,2378
845,305845,17092,-564,608,17112.11,31.68,-1.00,-1.0,2447
848,305848,17064,-604,708,17089.36,31.68,-1.00,-1.0,2368
850,305850,17012,-620,620,17034.58,31.73,-1.00,-1.0,2365
853,305853,17008,-540,576,17026.32,31.59,-1.00,-1.0,2424
856,305856,17068,-584,744,17094.19,31.64,-1.00,-1.0,2369
859,305859,17080,-552,660,17101.66,31.68,-1.00,-1.0,2423
861,305861,17088,-712,812,17122.09,31.64,-1.00,-1.0,2368
864,305864,17028,-544,624,17048.11,31.68,-1.00,-1.0,2422
867,305867,17056,-616,640,17079.12,31.64,-1.00,-1.0,2369
872,305872,17008,-544,700,17031.09,31.64,-1.00,-1.0,2440
875,305875,17080,-628,704,17106.03,31.54,-1.00,-1.0,2366
877,305877,17036,-668,816,17068.61,31.68,-1.00,-1.0,2368
880,305880,17072,-524,740,17096.06,31.64,-1.00,-1.0,2430
883,305883,17092,-708,680,17120.17,31.59,-1.00,-1.0,2372
886,305886,17028,-552,684,17050.67,31.59,-1.00,-1.0,2429
888,305888,17068,-552,668,17089.98,31.59,-1.00,-1.0,2376
891,305891,17032,-580,652,17054.34,31.78,-1.00,-1.0,2419
894,305894,17080,-656,652,17105.02,31.54,-1.00,-1.0,2369
899,305899,17036,-612,696,17061.19,31.54,-1.00,-1.0,2428
901,305901,17104,-676,772,17134.75,31.59,-1.00,-1.0,2367
904,305904,17036,-660,784,17066.80,31.54,-1.00,-1.0,2365
907,305907,17096,-644,648,17120.39,31.59,-1.00,-1.0,2420
910,305910,16976,-680,548,16998.45,31.64,-1.00,-1.0,2369
912,305912,16980,-668,800,17011.96,31.59,-1.00,-1.0,2419
915,305915,16996,-672,684,17023.03,31.59,-1.00,-1.0,2369
918,305918,17104,-640,644,17128.08,31.68,-1.00,-1.0,2420
921,305921,17092,-720,652,17119.58,31.68,-1.00,-1.0,2369
926,305926,17108,-660,740,17136.71,31.54,-1.00,-1.0,2428
929,305929,17092,-620,732,17118.90,31.64,-1.00,-1.0,2365
932,305932,17056,-584,688,17079.86,31.59,-1.00,-1.0,2429
934,305934,17028,-696,688,17056.10,31.64,-1.00,-1.0,2365
937,305937,17024,-724,744,17055.62,31.59,-1.00,-1.0,2369
940,305940,17180,-640,636,17203.68,31.54,-1.00,-1.0,2428
942,305942,17204,-640,676,17229.17,31.59,-1.00,-1.0,2368
945,305945,16944,-560,684,16967.04,31.64,-1.00,-1.0,2429
948,305948,17004,-628,824,17035.53,31.59,-1.00,-1.0,2369
953,305953,17080,-684,616,17104.79,31.59,-1.00,-1.0,2443
956,305956,17156,-648,732,17183.83,31.68,-1.00,-1.0,2367
959,305959,17060,-644,740,17088.18,31.68,-1.00,-1.0,2422
961,305961,16956,-660,660,16981.67,31.59,-1.00,-1.0,2368
964,305964,17052,-600,672,17075.78,31.54,-1.00,-1.0,2373
967,305967,17016,-648,760,17045.29,31.64,-1.00,-1.0,2407
969,305969,16916,-604,604,16937.55,31.59,-1.00,-1.0,2368
972,305972,17020,-612,624,17042.43,31.54,-1.00,-1.0,2430
975,305975,17028,-616,668,17052.23,31.59,-1.00,-1.0,2369
980,305980,17048,-668,592,17071.35,31.68,-1.00,-1.0,2444
983,305983,17152,-656,768,17181.71,31.59,-1.00,-1.0,2366
986,305986,17076,-640,684,17101.67,31.54,-1.00,-1.0,2429
988,305988,17148,-644,624,17171.43,31.59,-1.00,-1.0,2367
991,305991,17036,-732,668,17064.80,31.64,-1.00,-1.0,2373
994,305994,17164,-592,764,17191.19,31.59,-1.00,-1.0,2419
997,305997,17124,-728,660,17152.17,31.64,-1.00,-1.0,2370
999,305999,17044,-668,684,17070.79,31.64,-1.00,-1.0,2407
1002,306002,17052,-568,616,17072.57,31.64,-1.00,-1.0,2371
1007,306007,17080,-620,516,17099.04,31.64,-1.00,-1.0,2443
1010,306010,17044,-612,592,17065.26,31.59,-1.00,-1.0,2365
1013,306013,17096,-632,724,17122.99,31.54,-1.00,-1.0,2427
1015,306015,17080,-632,524,17099.72,31.59,-1.00,-1.0,2370
1018,306018,17000,-664,668,17026.07,31.64,-1.00,-1.0,2359
1021,306021,17044,-680,700,17071.92,31.59,-1.00,-1.0,2420
1024,306024,17120,-636,712,17146.60,31.54,-1.00,-1.0,2368
1026,306026,17004,-688,720,17033.14,31.59,-1.00,-1.0,2420
1029,306029,17068,-600,688,17092.39,31.64,-1.00,-1.0,2379
1034,306034,17056,-576,728,17081.24,31.64,-1.00,-1.0,2452
1037,306037,17004,-528,704,17026.76,31.64,-1.00,-1.0,2373
1040,306040,17032,-640,616,17055.15,31.59,-1.00,-1.0,2422
1042,306042,17124,-648,588,17146.34,31.54,-1.00,-1.0,2373
1045,306045,17120,-604,820,17150.27,31.59,-1.00,-1.0,2426
1048,306048,17088,-656,656,17113.16,31.64,-1.00,-1.0,2384
1051,306051,17064,-652,540,17084.99,31.59,-1.00,-1.0,2366
1053,306053,17028,-656,716,17055.67,31.59,-1.00,-1.0,2419
1056,306056,17088,-640,604,17110.64,31.59,-1.00,-1.0,2376
1061,306061,17084,-616,588,17105.21,31.59,-1.00,-1.0,2448
1064,306064,17096,-592,616,17117.33,31.68,-1.00,-1.0,2380
1067,306067,17088,-612,632,17110.63,31.59,-1.00,-1.0,2420
1070,306070,17024,-664,792,17055.34,31.59,-1.00,-1.0,2371
1072,306072,16984,-580,668,17007.03,31.59,-1.00,-1.0,2422
1075,306075,17028,-544,632,17048.41,31.59,-1.00,-1.0,2375
1078,306078,17100,-620,608,17122.04,31.59,-1.00,-1.0,2419
1081,306081,16992,-540,708,17015.31,31.68,-1.00,-1.0,2367
1083,306083,17148,-612,612,17169.83,31.49,-1.00,-1.0,2374
1088,306088,17096,-624,680,17120.89,31.64,-1.00,-1.0,2442
1091,306091,17080,-524,668,17101.09,31.68,-1.00,-1.0,2365
1094,306094,17048,-668,680,17074.63,31.73,-1.00,-1.0,2427
1096,306096,16956,-564,464,16971.72,31.59,-1.00,-1.0,2368
1099,306099,17032,-600,560,17051.76,31.64,-1.00,-1.0,2420
1102,306102,17048,-608,684,17072.55,31.54,-1.00,-1.0,2369
1105,306105,17096,-676,664,17122.24,31.64,-1.00,-1.0,2422
1107,306107,17096,-672,612,17120.14,31.68,-1.00,-1.0,2368
1112,306112,17088,-640,724,17115.30,31.59,-1.00,-1.0,2448
1115,306115,17028,-620,676,17052.69,31.68,-1.00,-1.0,2367
1117,306117,17120,-516,728,17143.24,31.68,-1.00,-1.0,2365
1120,306120,17080,-564,692,17103.31,31.64,-1.00,-1.0,2423
1123,306123,17080,-660,704,17107.24,31.54,-1.00,-1.0,2369
1126,306126,17096,-580,832,17126.06,31.64,-1.00,-1.0,2426
1128,306128,17100,-592,564,17119.54,31.68,-1.00,-1.0,2367
1131,306131,17040,-704,648,17066.84,31.54,-1.00,-1.0,2420
1134,306134,17096,-556,580,17114.87,31.59,-1.00,-1.0,2368
1139,306139,17024,-592,752,17050.88,31.59,-1.00,-1.0,2440
1142,306142,17032,-636,504,17051.32,31.68,-1.00,-1.0,2365
1145,306145,16972,-624,632,16995.22,31.64,-1.00,-1.0,2373
1148,306148,17128,-556,792,17155.31,31.59,-1.00,-1.0,2422
1150,306150,17044,-568,712,17068.32,31.64,-1.00,-1.0,2371
1153,306153,17120,-604,768,17147.86,31.59,-1.00,-1.0,2433
1156,306156,17128,-620,620,17150.43,31.68,-1.00,-1.0,2364
1159,306159,16932,-624,524,16951.60,31.59,-1.00,-1.0,2425
1161,306161,17080,-628,668,17104.59,31.64,-1.00,-1.0,2372
1166,306166,17116,-628,708,17142.14,31.64,-1.00,-1.0,2441
1169,306169,17140,-572,752,17166.02,31.64,-1.00,-1.0,2365
1172,306172,17004,-636,868,17038.01,31.64,-1.00,-1.0,2419
1175,306175,17060,-532,716,17083.30,31.64,-1.00,-1.0,2369
1177,306177,16904,-620,556,16924.50,31.59,-1.00,-1.0,2368
1180,306180,17136,-600,636,17158.29,31.78,-1.00,-1.0,2429
1183,306183,17096,-560,660,17117.90,31.68,-1.00,-1.0,2376
1186,306186,17052,-620,772,17080.72,31.64,-1.00,-1.0,2433
1188,306188,17136,-668,584,17158.96,31.64,-1.00,-1.0,2368
1193,306193,17060,-620,744,17087.47,31.64,-1.00,-1.0,2440
1196,306196,17072,-684,556,17094.74,31.64,-1.00,-1.0,2362
1199,306199,16988,-568,608,17008.36,31.59,-1.00,-1.0,2420
1202,306202,17020,-676,644,17045.59,31.64,-1.00,-1.0,2368
1204,306204,17104,-616,632,17126.75,31.68,-1.00,-1.0,2422
1207,306207,17120,-604,624,17142.01,31.64,-1.00,-1.0,2356
1210,306210,16988,-532,704,17010.90,31.68,-1.00,-1.0,2374
1213,306213,17016,-592,652,17038.77,31.54,-1.00,-1.0,2434
1215,306215,17088,-660,600,17111.26,31.59,-1.00,-1.0,2367
1220,306220,17144,-676,664,17170.17,31.59,-1.00,-1.0,2440
1223,306223,17088,-616,616,17110.19,31.68,-1.00,-1.0,2365
1226,306226,17084,-612,644,17107.08,31.59,-1.00,-1.0,2420
1229,306229,17184,-568,632,17205.00,31.59,-1.00,-1.0,2376
1231,306231,17020,-680,740,17049.64,31.59,-1.00,-1.0,2419
1234,306234,17080,-624,660,17104.13,31.68,-1.00,-1.0,2369
1237,306237,17112,-692,616,17137.06,31.59,-1.00,-1.0,2419
1240,306240,17064,-632,688,17089.55,31.68,-1.00,-1.0,2376
1242,306242,17028,-636,768,17057.17,31.68,-1.00,-1.0,2366
1247,306247,17004,-632,696,17029.97,31.59,-1.00,-1.0,2440
1250,306250,17072,-684,720,17100.86,31.68,-1.00,-1.0,2363
1253,306253,16924,-604,704,16949.40,31.59,-1.00,-1.0,2419
1256,306256,17048,-700,564,17071.68,31.68,-1.00,-1.0,2376
1258,306258,16980,-500,740,17003.47,31.68,-1.00,-1.0,2420
1261,306261,17024,-604,748,17051.12,31.59,-1.00,-1.0,2368
1264,306264,17076,-532,704,17098.78,31.64,-1.00,-1.0,2465
1267,306267,17016,-600,632,17038.30,31.64,-1.00,-1.0,2368
1272,306272,16984,-580,540,17002.48,31.64,-1.00,-1.0,2440
1275,306275,17020,-480,712,17041.65,31.64,-1.00,-1.0,2369
1277,306277,17152,-572,536,17169.90,31.68,-1.00,-1.0,2352
1280,306280,17112,-624,644,17135.48,31.49,-1.00,-1.0,2420
1283,306283,17140,-616,560,17160.21,31.59,-1.00,-1.0,2368
1285,306285,17084,-608,636,17106.64,31.59,-1.00,-1.0,2420
1288,306288,17136,-576,608,17156.46,31.68,-1.00,-1.0,2368
1291,306291,17108,-512,764,17132.70,31.59,-1.00,-1.0,2420
1294,306294,16960,-584,624,16981.52,31.59,-1.00,-1.0,2369
1298,306298,17072,-564,656,17093.91,31.68,-1.00,-1.0,2442
1301,306301,17048,-556,676,17070.46,31.59,-1.00,-1.0,2367
1304,306304,17072,-520,704,17094.42,31.73,-1.00,-1.0,2420
1307,306307,16980,-620,728,17006.90,31.59,-1.00,-1.0,2377
1309,306309,17052,-612,704,17077.50,31.64,-1.00,-1.0,2375
1312,306312,16976,-632,524,16995.84,31.49,-1.00,-1.0,2419
1315,306315,17068,-644,704,17094.65,31.54,-1.00,-1.0,2372
1318,306318,17040,-600,628,17062.12,31.59,-1.00,-1.0,2422
1321,306321,17060,-724,592,17085.62,31.54,-1.00,-1.0,2367
1325,306325,17196,-684,776,17227.08,31.59,-1.00,-1.0,2443
1328,306328,17104,-576,736,17129.52,31.59,-1.00,-1.0,2365
1331,306331,17188,-580,636,17209.54,31.54,-1.00,-1.0,2426
1333,306333,17096,-568,740,17121.43,31.59,-1.00,-1.0,2369
1336,306336,17060,-680,652,17085.99,31.64,-1.00,-1.0,2368
1339,306339,17068,-624,688,17093.25,31.68,-1.00,-1.0,2420
1342,306342,17104,-644,596,17126.49,31.59,-1.00,-1.0,2369
1345,306345,17080,-736,552,17104.76,31.68,-1.00,-1.0,2421
1348,306348,17028,-568,640,17049.49,31.59,-1.00,-1.0,2366
1353,306353,17132,-664,688,17158.66,31.68,-1.00,-1.0,2448
1355,306355,17056,-496,660,17075.97,31.64,-1.00,-1.0,2374
1358,306358,16964,-712,588,16989.11,31.49,-1.00,-1.0,2420
1361,306361,17128,-584,652,17150.35,31.64,-1.00,-1.0,2369
1364,306364,17028,-716,656,17055.67,31.59,-1.00,-1.0,2422
1366,306366,17140,-700,608,17165.06,31.68,-1.00,-1.0,2372
1369,306369,16996,-660,656,17021.46,31.68,-1.00,-1.0,2365
1372,306372,17068,-672,672,17094.44,31.54,-1.00,-1.0,2424
1375,306375,17076,-672,640,17101.20,31.59,-1.00,-1.0,2368
1380,306380,17080,-584,676,17103.35,31.59,-1.00,-1.0,2442
1382,306382,17096,-664,568,17118.32,31.59,-1.00,-1.0,2373
1385,306385,17036,-692,640,17062.06,31.68,-1.00,-1.0,2419
1388,306388,17068,-516,512,17083.47,31.68,-1.00,-1.0,2369
1391,306391,17076,-564,644,17097.45,31.59,-1.00,-1.0,2421
1393,306393,17184,-580,744,17209.88,31.59,-1.00,-1.0,2368
1396,306396,17100,-616,748,17127.43,31.54,-1.00,-1.0,2464
1399,306399,17004,-576,700,17028.15,31.64,-1.00,-1.0,2376
1402,306402,16992,-516,680,17013.43,31.49,-1.00,-1.0,2367
1407,306407,17060,-576,572,17079.30,31.68,-1.00,-1.0,2441
1409,306409,17024,-620,716,17050.33,31.68,-1.00,-1.0,2366
1412,306412,17064,-488,704,17085.49,31.68,-1.00,-1.0,2421
1415,306415,17076,-584,772,17103.42,31.59,-1.00,-1.0,2356
1418,306418,17028,-616,712,17054.01,31.73,-1.00,-1.0,2428
1420,306420,17108,-640,668,17132.99,31.59,-1.00,-1.0,2372
1423,306423,17044,-620,768,17072.56,31.68,-1.00,-1.0,2425
1426,306426,17028,-596,580,17048.30,31.59,-1.00,-1.0,2370
1431,306431,17116,-596,608,17137.16,31.59,-1.00,-1.0,2443
1434,306434,17096,-668,696,17123.20,31.59,-1.00,-1.0,2370
1436,306436,17072,-644,648,17096.43,31.59,-1.00,-1.0,2370
1439,306439,17016,-676,792,17047.83,31.54,-1.00,-1.0,2422
1442,306442,17068,-624,704,17093.91,31.54,-1.00,-1.0,2377
1444,306444,17024,-600,616,17045.71,31.64,-1.00,-1.0,2421
1447,306447,16904,-644,672,16929.61,31.54,-1.00,-1.0,2370
1450,306450,16996,-580,744,17022.16,31.64,-1.00,-1.0,2421
1453,306453,16984,-604,752,17011.37,31.54,-1.00,-1.0,2377
1458,306458,17008,-672,724,17036.66,31.64,-1.00,-1.0,2449
1460,306460,17080,-580,652,17102.28,31.64,-1.00,-1.0,2366
1463,306463,17020,-700,544,17043.07,31.73,-1.00,-1.0,2422
1466,306466,17080,-664,676,17106.26,31.54,-1.00,-1.0,2370
1469,306469,17000,-600,772,17028.09,31.68,-1.00,-1.0,2369
1471,306471,17040,-604,684,17064.42,31.59,-1.00,-1.0,2427
1474,306474,17152,-640,724,17179.20,31.68,-1.00,-1.0,2385
1477,306477,17104,-488,604,17121.62,31.64,-1.00,-1.0,2420
1480,306480,17000,-700,616,17025.55,31.68,-1.00,-1.0,2379
1485,306485,17104,-644,628,17127.64,31.68,-1.00,-1.0,2451
1487,306487,17032,-716,696,17061.25,31.54,-1.00,-1.0,2367
1490,306490,17128,-612,676,17152.26,31.59,-1.00,-1.0,2434
1493,306493,17040,-652,812,17071.79,31.68,-1.00,-1.0,2370
1496,306496,17060,-584,720,17085.17,31.68,-1.00,-1.0,2428
1498,306498,17108,-596,600,17128.89,31.59,-1.00,-1.0,2370
1501,306501,17188,-568,744,17213.47,31.59,-1.00,-1.0,2367
1504,306504,17100,-616,624,17122.46,31.54,-1.00,-1.0,2420
1507,306507,17044,-680,776,17075.20,31.59,-1.00,-1.0,2376
1512,306512,17120,-616,660,17143.79,31.64,-1.00,-1.0,2444
1514,306514,16992,-628,560,17012.82,31.64,-1.00,-1.0,2373
1517,306517,17164,-568,584,17183.32,31.64,-1.00,-1.0,2420
1520,306520,17148,-560,688,17170.93,31.64,-1.00,-1.0,2370
1523,306523,17044,-656,732,17072.32,31.64,-1.00,-1.0,2422
1525,306525,17132,-712,676,17160.11,31.64,-1.00,-1.0,2368
1528,306528,17152,-644,796,17182.53,31.59,-1.00,-1.0,2366
1531,306531,17012,-572,668,17034.72,31.64,-1.00,-1.0,2422
1534,306534,17080,-660,716,17107.74,31.59,-1.00,-1.0,2364
1538,306538,17096,-648,668,17121.31,31.59,-1.00,-1.0,2442
1541,306541,17028,-628,668,17052.67,31.73,-1.00,-1.0,2366
1544,306544,17172,-596,608,17193.09,31.59,-1.00,-1.0,2421
1547,306547,17092,-756,688,17122.54,31.64,-1.00,-1.0,2369
1549,306549,17088,-552,604,17107.58,31.59,-1.00,-1.0,2420
1552,306552,16980,-584,628,17001.64,31.59,-1.00,-1.0,2370
1555,306555,17084,-672,644,17109.34,31.68,-1.00,-1.0,2421
1558,306558,17112,-500,680,17132.80,31.64,-1.00,-1.0,2370
1561,306561,17128,-632,624,17151.01,31.64,-1.00,-1.0,2368
1566,306566,17016,-596,860,17048.14,31.64,-1.00,-1.0,2444
1568,306568,17088,-580,568,17107.27,31.68,-1.00,-1.0,2369
1571,306571,17112,-540,572,17130.07,31.64,-1.00,-1.0,2423
1574,306574,17064,-604,640,17086.68,31.59,-1.00,-1.0,2384
1577,306577,17132,-608,740,17158.75,31.64,-1.00,-1.0,2421
1580,306580,17072,-624,636,17095.23,31.64,-1.00,-1.0,2370
1582,306582,17048,-672,764,17078.34,31.64,-1.00,-1.0,2422
1585,306585,17116,-688,636,17141.62,31.59,-1.00,-1.0,2384
1590,306590,17088,-696,496,17109.36,31.64,-1.00,-1.0,2459
1593,306593,17076,-596,716,17101.39,31.64,-1.00,-1.0,2352
1595,306595,17044,-632,652,17068.17,31.59,-1.00,-1.0,2365
1598,306598,16972,-636,644,16996.12,31.64,-1.00,-1.0,2432
1601,306601,17028,-620,700,17053.66,31.68,-1.00,-1.0,2376
1604,306604,17084,-668,708,17111.71,31.54,-1.00,-1.0,2423
1606,306606,16932,-696,648,16958.68,31.68,-1.00,-1.0,2368
1609,306609,17168,-632,620,17190.81,31.54,-1.00,-1.0,2432
1612,306612,17048,-572,700,17071.95,31.68,-1.00,-1.0,2377
1617,306617,17132,-652,732,17160.02,31.59,-1.00,-1.0,2441
1620,306620,17068,-756,660,17097.48,31.59,-1.00,-1.0,2369
1623,306623,17136,-636,644,17159.89,31.64,-1.00,-1.0,2436
1625,306625,16988,-572,500,17004.98,31.54,-1.00,-1.0,2371
1628,306628,17028,-616,712,17054.01,31.64,-1.00,-1.0,2367
1631,306631,16988,-676,640,17013.49,31.59,-1.00,-1.0,2421
1633,306633,17104,-620,752,17131.75,31.64,-1.00,-1.0,2354
1636,306636,16992,-596,592,17012.75,31.68,-1.00,-1.0,2420
1639,306639,17132,-616,820,17162.67,31.68,-1.00,-1.0,2371
1644,306644,17056,-624,620,17078.67,31.59,-1.00,-1.0,2440
1647,306647,17132,-588,556,17151.10,31.64,-1.00,-1.0,2366
1649,306649,17020,-592,736,17046.19,31.59,-1.00,-1.0,2420
1652,306652,17108,-580,764,17134.87,31.59,-1.00,-1.0,2369
1655,306655,17040,-636,684,17065.58,31.59,-1.00,-1.0,2420
1658,306658,17004,-672,708,17032.00,31.68,-1.00,-1.0,2368
1660,306660,16920,-580,692,16944.07,31.64,-1.00,-1.0,2373
1663,306663,16960,-580,592,16980.24,31.64,-1.00,-1.0,2435
1666,306666,17072,-600,688,17096.39,31.68,-1.00,-1.0,2368
1671,306671,17104,-632,644,17127.78,31.59,-1.00,-1.0,2441
1674,306674,17124,-696,496,17145.31,31.59,-1.00,-1.0,2366
1676,306676,17004,-564,696,17027.58,31.68,-1.00,-1.0,2419
1679,306679,17112,-652,648,17136.67,31.68,-1.00,-1.0,2368
1682,306682,16992,-576,632,17013.50,31.68,-1.00,-1.0,2419
1685,306685,17120,-644,680,17145.60,31.49,-1.00,-1.0,2368
1687,306687,16976,-668,656,17001.80,31.59,-1.00,-1.0,2419
1690,306690,17076,-548,628,17096.33,31.59,-1.00,-1.0,2373
1693,306693,17036,-620,652,17059.74,31.59,-1.00,-1.0,2366
1698,306698,17112,-616,684,17136.74,31.59,-1.00,-1.0,2440
1701,306701,17080,-668,616,17104.15,31.59,-1.00,-1.0,2366
1703,306703,17148,-572,676,17170.85,31.73,-1.00,-1.0,2419
1706,306706,17052,-564,708,17076.01,31.68,-1.00,-1.0,2369
1709,306709,17112,-536,672,17133.58,31.49,-1.00,-1.0,2419
1712,306712,17084,-664,568,17106.33,31.59,-1.00,-1.0,2368
1714,306714,17112,-644,680,17137.61,31.54,-1.00,-1.0,2419
1717,306717,17088,-636,448,17105.70,31.59,-1.00,-1.0,2369
1720,306720,17000,-660,640,17024.84,31.54,-1.00,-1.0,2371
1725,306725,17068,-508,732,17091.24,31.68,-1.00,-1.0,2453
1728,306728,17092,-612,784,17120.91,31.59,-1.00,-1.0,2372
1730,306730,17080,-560,708,17103.84,31.68,-1.00,-1.0,2420
1733,306733,17088,-608,536,17107.21,31.68,-1.00,-1.0,2372
1736,306736,17052,-668,632,17076.78,31.59,-1.00,-1.0,2419
1739,306739,17116,-592,624,17137.60,31.68,-1.00,-1.0,2372
1741,306741,17028,-504,732,17051.18,31.59,-1.00,-1.0,2420
1744,306744,17068,-708,720,17097.84,31.59,-1.00,-1.0,2371
1749,306749,17140,-656,616,17163.61,31.54,-1.00,-1.0,2442
1752,306752,17088,-728,780,17121.28,31.64,-1.00,-1.0,2375
1754,306754,17140,-720,552,17163.99,31.59,-1.00,-1.0,2372
1757,306757,17160,-584,620,17181.12,31.68,-1.00,-1.0,2420
1760,306760,17084,-592,604,17104.92,31.54,-1.00,-1.0,2428
1763,306763,17072,-592,660,17095.01,31.59,-1.00,-1.0,2412
1766,306766,17176,-668,812,17208.15,31.59,-1.00,-1.0,2379
1768,306768,17060,-604,664,17083.60,31.59,-1.00,-1.0,2419
1771,306771,17088,-608,672,17112.01,31.68,-1.00,-1.0,2397
1776,306776,17044,-548,696,17067.01,31.68,-1.00,-1.0,2453
1779,306779,16992,-544,624,17012.15,31.68,-1.00,-1.0,2376
1782,306782,17052,-616,740,17079.16,31.59,-1.00,-1.0,2428
1784,306784,17116,-644,676,17141.45,31.68,-1.00,-1.0,2381
1787,306787,17024,-656,744,17052.87,31.59,-1.00,-1.0,2368
1790,306790,17140,-556,716,17163.96,31.64,-1.00,-1.0,2424
1792,306792,17056,-616,724,17082.47,31.64,-1.00,-1.0,2367
1795,306795,17084,-552,752,17109.45,31.54,-1.00,-1.0,2417
1798,306798,17060,-628,588,17081.68,31.59,-1.00,-1.0,2376
1803,306803,17156,-632,572,17177.16,31.68,-1.00,-1.0,2453
1806,306806,17000,-612,712,17025.91,31.59,-1.00,-1.0,2376
1809,306809,17116,-540,720,17139.65,31.59,-1.00,-1.0,2431
1811,306811,16972,-664,612,16996.01,31.68,-1.00,-1.0,2383
1814,306814,16940,-608,860,16972.71,31.73,-1.00,-1.0,2417
1817,306817,16984,-612,536,17003.47,31.59,-1.00,-1.0,2378
1819,306819,17060,-712,724,17090.19,31.64,-1.00,-1.0,2367
1822,306822,17104,-576,680,17127.20,31.73,-1.00,-1.0,2417
1825,306825,17000,-652,704,17027.06,31.64,-1.00,-1.0,2375
1830,306830,17096,-548,732,17120.44,31.59,-1.00,-1.0,2449
1833,306833,17096,-696,684,17123.83,31.68,-1.00,-1.0,2372
1836,306836,17100,-716,700,17129.29,31.54,-1.00,-1.0,2419
1838,306838,17220,-648,588,17242.22,31.59,-1.00,-1.0,2382
1841,306841,16936,-548,628,16956.50,31.64,-1.00,-1.0,2416
1844,306844,17128,-616,684,17152.72,31.59,-1.00,-1.0,2377
1847,306847,17096,-632,720,17122.82,31.54,-1.00,-1.0,2418
1849,306849,16984,-604,664,17007.70,31.64,-1.00,-1.0,2376
1852,306852,17080,-568,692,17103.45,31.64,-1.00,-1.0,2365
1857,306857,17052,-612,648,17075.28,31.64,-1.00,-1.0,2447
1860,306860,17028,-628,608,17050.42,31.59,-1.00,-1.0,2372
1863,306863,17096,-644,584,17118.09,31.54,-1.00,-1.0,2422
1865,306865,17052,-616,688,17076.99,31.59,-1.00,-1.0,2379
1868,306868,17008,-672,624,17032.71,31.64,-1.00,-1.0,2416
1871,306871,16960,-652,688,16986.47,31.59,-1.00,-1.0,2375
1874,306874,17044,-640,604,17066.70,31.64,-1.00,-1.0,2418
1876,306876,17064,-656,624,17088.00,31.64,-1.00,-1.0,2377
1881,306881,17020,-676,808,17052.57,31.64,-1.00,-1.0,2447
1884,306884,17000,-592,624,17021.75,31.59,-1.00,-1.0,2375
1887,306887,17156,-464,816,17181.66,31.64,-1.00,-1.0,2366
1889,306889,17092,-544,688,17114.49,31.59,-1.00,-1.0,2403
1892,306892,17052,-632,644,17075.86,31.64,-1.00,-1.0,2372
1895,306895,17080,-700,736,17110.18,31.59,-1.00,-1.0,2417
1898,306898,17016,-584,688,17039.91,31.54,-1.00,-1.0,2373
1900,306900,17020,-652,612,17043.47,31.59,-1.00,-1.0,2416
1903,306903,17120,-588,580,17139.91,31.64,-1.00,-1.0,2359
1908,306908,16924,-532,636,16944.30,31.64,-1.00,-1.0,2438
1911,306911,17024,-560,756,17049.98,31.54,-1.00,-1.0,2370
1913,306913,17124,-712,668,17151.81,31.49,-1.00,-1.0,2364
1916,306916,17000,-628,680,17025.18,31.64,-1.00,-1.0,2428
1919,306919,17080,-544,660,17101.40,31.59,-1.00,-1.0,2372
1922,306922,17088,-496,808,17114.28,31.59,-1.00,-1.0,2424
1924,306924,17088,-576,872,17119.93,31.59,-1.00,-1.0,2372
1927,306927,17080,-632,580,17101.53,31.64,-1.00,-1.0,2431
1930,306930,17128,-572,832,17157.73,31.59,-1.00,-1.0,2372
1935,306935,17064,-640,536,17084.41,31.64,-1.00,-1.0,2444
1938,306938,17112,-612,592,17133.17,31.59,-1.00,-1.0,2381
1941,306941,17088,-592,664,17111.14,31.64,-1.00,-1.0,2431
1943,306943,17108,-660,728,17136.20,31.64,-1.00,-1.0,2375
1946,306946,17080,-648,720,17107.45,31.59,-1.00,-1.0,2356
1949,306949,17060,-540,616,17079.66,31.59,-1.00,-1.0,2426
1951,306951,16972,-608,696,16997.14,31.59,-1.00,-1.0,2368
1954,306954,16988,-688,652,17014.42,31.64,-1.00,-1.0,2419
1957,306957,17024,-616,628,17046.71,31.68,-1.00,-1.0,2373
1962,306962,17052,-624,588,17073.54,31.59,-1.00,-1.0,2438
1965,306965,17000,-636,612,17022.90,31.59,-1.00,-1.0,2370
1967,306967,16924,-668,788,16955.50,31.59,-1.00,-1.0,2416
1970,306970,16940,-504,636,16959.43,31.49,-1.00,-1.0,2376
1973,306973,17128,-572,524,17145.56,31.68,-1.00,-1.0,2417
1976,306976,17120,-532,684,17141.92,31.59,-1.00,-1.0,2372
1978,306978,16984,-568,592,17003.80,31.73,-1.00,-1.0,2370
1981,306981,17056,-672,620,17080.49,31.64,-1.00,-1.0,2432
1984,306984,17012,-624,628,17035.02,31.64,-1.00,-1.0,2376
1989,306989,17112,-564,532,17129.55,31.64,-1.00,-1.0,2438
1992,306992,17092,-596,596,17112.77,31.68,-1.00,-1.0,2368
1995,306995,17076,-508,664,17096.45,31.64,-1.00,-1.0,2423
1997,306997,17048,-644,696,17074.35,31.54,-1.00,-1.0,2371
2000,307000,17144,-624,644,17167.44,31.64,-1.00,-1.0,2429
2003,307003,16984,-572,692,17007.71,31.54,-1.00,-1.0,2372
2006,307006,17044,-660,708,17071.46,31.73,-1.00,-1.0,2423
2008,307008,17080,-632,572,17101.26,31.54,-1.00,-1.0,2373
2011,307011,16932,-524,736,16956.09,31.64,-1.00,-1.0,2369
2016,307016,17072,-784,668,17103.04,31.64,-1.00,-1.0,2438
2019,307019,17024,-588,656,17046.78,31.54,-1.00,-1.0,2369
2022,307022,17032,-532,700,17054.68,31.64,-1.00,-1.0,2424
2024,307024,17096,-612,596,17117.33,31.64,-1.00,-1.0,2371
2027,307027,17048,-544,664,17069.60,31.64,-1.00,-1.0,2431
2030,307030,17136,-644,528,17156.22,31.64,-1.00,-1.0,2376
2033,307033,17036,-508,484,17050.44,31.68,-1.00,-1.0,2420
2035,307035,17028,-708,712,17057.58,31.64,-1.00,-1.0,2372
2040,307040,17072,-664,584,17094.89,31.64,-1.00,-1.0,2438
2043,307043,17012,-656,752,17041.24,31.64,-1.00,-1.0,2368
2046,307046,17100,-588,696,17124.26,31.68,-1.00,-1.0,2368
2049,307049,17128,-596,756,17155.03,31.59,-1.00,-1.0,2418
2051,307051,17036,-560,684,17058.92,31.59,-1.00,-1.0,2376
2054,307054,17100,-656,672,17125.77,31.59,-1.00,-1.0,2417
2057,307057,16980,-644,676,17005.65,31.59,-1.00,-1.0,2372
2060,307060,16960,-604,608,16981.64,31.68,-1.00,-1.0,2418
2062,307062,17180,-544,836,17208.93,31.59,-1.00,-1.0,2376
2067,307067,17064,-532,756,17089.02,31.68,-1.00,-1.0,2448
2070,307070,17020,-688,528,17042.08,31.59,-1.00,-1.0,2385
2073,307073,17076,-624,604,17098.07,31.59,-1.00,-1.0,2417
2076,307076,17084,-616,632,17106.78,31.59,-1.00,-1.0,2376
2078,307078,16984,-688,708,17012.67,31.64,-1.00,-1.0,2365
2081,307081,17124,-656,680,17150.05,31.73,-1.00,-1.0,2416
2084,307084,17040,-604,632,17062.41,31.68,-1.00,-1.0,2372
2086,307086,17056,-600,664,17079.46,31.64,-1.00,-1.0,2420
2089,307089,17096,-564,624,17116.68,31.59,-1.00,-1.0,2375
2094,307094,17044,-680,608,17068.39,31.59,-1.00,-1.0,2447
2097,307097,17028,-540,736,17052.45,31.68,-1.00,-1.0,2383
2100,307100,17116,-672,700,17143.48,31.59,-1.00,-1.0,2419
2103,307103,17008,-668,572,17030.72,31.59,-1.00,-1.0,2375
2105,307105,17084,-604,564,17103.97,31.54,-1.00,-1.0,2366
2108,307108,16996,-660,728,17024.38,31.64,-1.00,-1.0,2417
2111,307111,17020,-592,608,17041.14,31.54,-1.00,-1.0,2372
2113,307113,17104,-604,640,17126.62,31.73,-1.00,-1.0,2416
2116,307116,17096,-620,760,17124.11,31.64,-1.00,-1.0,2373
2121,307121,16956,-620,628,16978.95,31.68,-1.00,-1.0,2441
2124,307124,16988,-624,588,17009.62,31.59,-1.00,-1.0,2371
2127,307127,17112,-588,496,17129.28,31.64,-1.00,-1.0,2417
2130,307130,17012,-580,608,17032.74,31.59,-1.00,-1.0,2372
2132,307132,17060,-636,644,17083.99,31.64,-1.00,-1.0,2417
2135,307135,17036,-644,664,17061.09,31.59,-1.00,-1.0,2360
2138,307138,17140,-564,652,17161.67,31.64,-1.00,-1.0,2374
2140,307140,16936,-620,704,16961.96,31.68,-1.00,-1.0,2416
2143,307143,17092,-556,668,17114.08,31.54,-1.00,-1.0,2373
2148,307148,17084,-532,692,17106.28,31.68,-1.00,-1.0,2441
2151,307151,17060,-564,708,17084.00,31.64,-1.00,-1.0,2368
2154,307154,17048,-616,672,17072.36,31.68,-1.00,-1.0,2424
2156,307156,17096,-508,640,17115.52,31.64,-1.00,-1.0,2371
2159,307159,17064,-652,604,17087.13,31.68,-1.00,-1.0,2424
2162,307162,17152,-604,668,17175.63,31.59,-1.00,-1.0,2372
2165,307165,17008,-664,644,17033.13,31.59,-1.00,-1.0,2425
2167,307167,17052,-664,684,17078.62,31.59,-1.00,-1.0,2372
2170,307170,17112,-584,672,17135.14,31.68,-1.00,-1.0,2424
2175,307175,17140,-636,596,17162.15,31.68,-1.00,-1.0,2432
2178,307178,17064,-568,536,17081.86,31.64,-1.00,-1.0,2369
2181,307181,17016,-628,772,17045.08,31.68,-1.00,-1.0,2431
2183,307183,17040,-596,696,17064.62,31.59,-1.00,-1.0,2371
2186,307186,17036,-580,700,17060.24,31.68,-1.00,-1.0,2424
2189,307189,17032,-568,564,17050.80,31.59,-1.00,-1.0,2372
2192,307192,17004,-624,704,17030.00,31.59,-1.00,-1.0,2424
2194,307194,17188,-700,716,17217.14,31.59,-1.00,-1.0,2374
2199,307199,17104,-720,716,17134.12,31.68,-1.00,-1.0,2431
2202,307202,17008,-532,848,17037.44,31.73,-1.00,-1.0,2369
2205,307205,17072,-568,660,17094.19,31.59,-1.00,-1.0,2373
2208,307208,16980,-656,660,17005.48,31.68,-1.00,-1.0,2440
2210,307210,17144,-620,764,17172.21,31.73,-1.00,-1.0,2382
2213,307213,17108,-576,676,17131.04,31.64,-1.00,-1.0,2417
2216,307216,17112,-668,760,17141.89,31.64,-1.00,-1.0,2378
2219,307219,17064,-552,548,17081.72,31.64,-1.00,-1.0,2419
2221,307221,17076,-644,660,17100.88,31.68,-1.00,-1.0,2368
2226,307226,17108,-536,656,17128.96,31.59,-1.00,-1.0,2431
2229,307229,17112,-628,604,17134.17,31.68,-1.00,-1.0,2370
2232,307232,17104,-572,632,17125.23,31.59,-1.00,-1.0,2424
2235,307235,17088,-616,748,17115.45,31.59,-1.00,-1.0,2372
2237,307237,16984,-612,640,17007.07,31.64,-1.00,-1.0,2376
2240,307240,17156,-688,580,17179.58,31.64,-1.00,-1.0,2417
2243,307243,17104,-736,716,17134.79,31.54,-1.00,-1.0,2383
2246,307246,17108,-692,556,17131.02,31.64,-1.00,-1.0,2423
2248,307248,17124,-672,672,17150.35,31.59,-1.00,-1.0,2369
2253,307253,17080,-704,748,17110.86,31.68,-1.00,-1.0,2430
2256,307256,17080,-736,704,17110.34,31.68,-1.00,-1.0,2370
2259,307259,17044,-656,580,17066.48,31.64,-1.00,-1.0,2423
2262,307262,17104,-604,852,17135.86,31.59,-1.00,-1.0,2379
2264,307264,17052,-580,728,17077.38,31.59,-1.00,-1.0,2417
2267,307267,17068,-604,732,17094.36,31.68,-1.00,-1.0,2372
2270,307270,16980,-600,628,17002.20,31.54,-1.00,-1.0,2367
2273,307273,17020,-620,736,17047.18,31.59,-1.00,-1.0,2419
2276,307276,17040,-716,592,17065.31,31.64,-1.00,-1.0,2379
2280,307280,17076,-692,832,17110.26,31.68,-1.00,-1.0,2430
2283,307283,17056,-620,732,17082.96,31.59,-1.00,-1.0,2371
2286,307286,17096,-688,544,17118.48,31.64,-1.00,-1.0,2439
2289,307289,17080,-684,720,17108.85,31.64,-1.00,-1.0,2382
2292,307292,17112,-652,796,17142.91,31.64,-1.00,-1.0,2431
2294,307294,17036,-576,888,17068.85,31.64,-1.00,-1.0,2374
2297,307297,17040,-572,700,17063.96,31.59,-1.00,-1.0,2364
2300,307300,17044,-484,756,17067.62,31.68,-1.00,-1.0,2424
2303,307303,16996,-648,656,17020.99,31.64,-1.00,-1.0,2373
2308,307308,17044,-620,704,17069.80,31.64,-1.00,-1.0,2434
2310,307310,16928,-620,628,16950.99,31.64,-1.00,-1.0,2379
2313,307313,17076,-704,784,17108.48,31.59,-1.00,-1.0,2423
2316,307316,17060,-664,660,17085.67,31.64,-1.00,-1.0,2361
2319,307319,17080,-724,612,17106.29,31.59,-1.00,-1.0,2425
2321,307321,17044,-776,596,17072.06,31.64,-1.00,-1.0,2380
2324,307324,17004,-668,644,17029.30,31.59,-1.00,-1.0,2416
2327,307327,17076,-600,764,17103.61,31.64,-1.00,-1.0,2377
2330,307330,17132,-632,660,17156.35,31.68,-1.00,-1.0,2367
2335,307335,17056,-668,656,17081.68,31.59,-1.00,-1.0,2438
2337,307337,17060,-556,600,17079.60,31.64,-1.00,-1.0,2378
2340,307340,17072,-636,608,17094.66,31.68,-1.00,-1.0,2423
2343,307343,16944,-568,536,16961.99,31.68,-1.00,-1.0,2375
2346,307346,17044,-628,696,17069.76,31.68,-1.00,-1.0,2418
2348,307348,16960,-640,592,16982.39,31.78,-1.00,-1.0,2376
2351,307351,17076,-620,700,17101.58,31.59,-1.00,-1.0,2416
2354,307354,17168,-672,676,17194.44,31.68,-1.00,-1.0,2372
2359,307359,17032,-656,636,17056.49,31.68,-1.00,-1.0,2431
2361,307361,17120,-560,752,17145.66,31.68,-1.00,-1.0,2372
2364,307364,17088,-500,684,17108.99,31.64,-1.00,-1.0,2366
2367,307367,17048,-596,756,17075.16,31.64,-1.00,-1.0,2431
2369,307369,17028,-724,788,17061.59,31.64,-1.00,-1.0,2371
2372,307372,17020,-648,636,17044.20,31.59,-1.00,-1.0,2425
2375,307375,17008,-664,592,17031.25,31.64,-1.00,-1.0,2372
2378,307378,17040,-576,780,17067.56,31.68,-1.00,-1.0,2420
2381,307381,17108,-532,620,17127.49,31.59,-1.00,-1.0,2373
2385,307385,17020,-664,648,17045.27,31.68,-1.00,-1.0,2438
2388,307388,17128,-604,584,17148.59,31.59,-1.00,-1.0,2384
2391,307391,17084,-484,704,17105.35,31.59,-1.00,-1.0,2426
2394,307394,17004,-700,756,17035.19,31.59,-1.00,-1.0,2377
2396,307396,17044,-692,740,17074.09,31.64,-1.00,-1.0,2365
2399,307399,17024,-536,444,17038.22,31.64,-1.00,-1.0,2417
2402,307402,17020,-636,692,17045.93,31.73,-1.00,-1.0,2373
2405,307405,17064,-604,608,17085.51,31.64,-1.00,-1.0,2427
2408,307408,16956,-628,744,16983.93,31.64,-1.00,-1.0,2370
2413,307413,17100,-672,744,17129.37,31.54,-1.00,-1.0,2431
2415,307415,17012,-760,592,17039.26,31.59,-1.00,-1.0,2372
2418,307418,17008,-588,604,17028.88,31.64,-1.00,-1.0,2426
2421,307421,17156,-592,696,17180.31,31.64,-1.00,-1.0,2373
2424,307424,17052,-596,560,17071.60,31.73,-1.00,-1.0,2424
2426,307426,17088,-696,808,17121.24,31.68,-1.00,-1.0,2374
2429,307429,17004,-628,532,17023.91,31.68,-1.00,-1.0,2371
2432,307432,17092,-608,672,17116.01,31.68,-1.00,-1.0,2419
2435,307435,17040,-660,624,17064.19,31.64,-1.00,-1.0,2379
2440,307440,17112,-524,788,17138.15,31.64,-1.00,-1.0,2436
2442,307442,17020,-612,716,17046.04,31.59,-1.00,-1.0,2370
2445,307445,17144,-632,828,17175.62,31.73,-1.00,-1.0,2424
2448,307448,17124,-580,544,17142.45,31.64,-1.00,-1.0,2372
2451,307451,17080,-716,660,17107.74,31.73,-1.00,-1.0,2419
2453,307453,17028,-640,792,17058.42,31.64,-1.00,-1.0,2371
2456,307456,17004,-684,804,17036.73,31.68,-1.00,-1.0,2419
2459,307459,17040,-640,800,17070.77,31.64,-1.00,-1.0,2372
2462,307462,17096,-580,692,17119.83,31.64,-1.00,-1.0,2369
2467,307467,17080,-552,736,17104.76,31.73,-1.00,-1.0,2438
2469,307469,17004,-664,716,17032.02,31.64,-1.00,-1.0,2369
2472,307472,17044,-576,532,17062.03,31.59,-1.00,-1.0,2426
2475,307475,17068,-696,712,17097.02,31.64,-1.00,-1.0,2372
2478,307478,17064,-600,572,17084.12,31.68,-1.00,-1.0,2419
2480,307480,17012,-656,676,17038.06,31.73,-1.00,-1.0,2371
2483,307483,17072,-704,628,17098.05,31.68,-1.00,-1.0,2418
2486,307486,17116,-672,720,17144.31,31.64,-1.00,-1.0,2373
2489,307489,17044,-688,580,17067.74,31.68,-1.00,-1.0,2375
2494,307494,17104,-488,764,17128.01,31.68,-1.00,-1.0,2433
2496,307496,17104,-588,660,17126.83,31.64,-1.00,-1.0,2370
2499,307499,17024,-656,660,17049.41,31.59,-1.00,-1.0,2423
2502,307502,17060,-668,748,17089.45,31.59,-1.00,-1.0,2372
2505,307505,17092,-604,560,17111.83,31.68,-1.00,-1.0,2423
2507,307507,17096,-704,544,17119.13,31.68,-1.00,-1.0,2372
2510,307510,17060,-640,644,17084.14,31.49,-1.00,-1.0,2424
2513,307513,17132,-512,676,17152.97,31.68,-1.00,-1.0,2372
2518,307518,17104,-660,696,17130.87,31.64,-1.00,-1.0,2430
2521,307521,17048,-528,652,17068.63,31.64,-1.00,-1.0,2371
2523,307523,17052,-584,564,17071.32,31.59,-1.00,-1.0,2367
2526,307526,17048,-636,652,17072.31,31.54,-1.00,-1.0,2437
2529,307529,17000,-712,748,17031.34,31.59,-1.00,-1.0,2378
2532,307532,16972,-712,572,16996.56,31.64,-1.00,-1.0,2431
2534,307534,17000,-632,636,17023.63,31.59,-1.00,-1.0,2382
2537,307537,17036,-672,660,17062.02,31.64,-1.00,-1.0,2417
2540,307540,17024,-604,712,17049.58,31.64,-1.00,-1.0,2375
2545,307545,17068,-620,668,17092.32,31.68,-1.00,-1.0,2438
2547,307547,17060,-620,756,17087.99,31.59,-1.00,-1.0,2370
2550,307550,17028,-688,672,17055.14,31.68,-1.00,-1.0,2433
2553,307553,16944,-532,824,16972.36,31.59,-1.00,-1.0,2380
2556,307556,17052,-608,660,17075.60,31.64,-1.00,-1.0,2366
2558,307558,17104,-628,660,17128.25,31.59,-1.00,-1.0,2417
2561,307561,17172,-616,764,17200.02,31.64,-1.00,-1.0,2372
2564,307564,17064,-576,604,17084.40,31.59,-1.00,-1.0,2416
2567,307567,16980,-612,752,17007.66,31.54,-1.00,-1.0,2377
2572,307572,17000,-628,752,17028.21,31.68,-1.00,-1.0,2430
2575,307575,16952,-680,732,16981.42,31.64,-1.00,-1.0,2370
2578,307578,16936,-680,608,16960.55,31.59,-1.00,-1.0,2422
2581,307581,17052,-580,744,17078.07,31.64,-1.00,-1.0,2372
2583,307583,17064,-564,528,17081.48,31.68,-1.00,-1.0,2417
2586,307586,17008,-584,656,17030.66,31.64,-1.00,-1.0,2373
2589,307589,17128,-568,728,17152.87,31.59,-1.00,-1.0,2374
2592,307592,17056,-632,800,17086.44,31.64,-1.00,-1.0,2420
2594,307594,17000,-540,636,17020.46,31.68,-1.00,-1.0,2373
2599,307599,16984,-624,720,17010.70,31.68,-1.00,-1.0,2432
2602,307602,17096,-512,736,17119.49,31.59,-1.00,-1.0,2369
2604,307604,17116,-560,644,17137.26,31.68,-1.00,-1.0,2424
2607,307607,17088,-668,812,17120.32,31.59,-1.00,-1.0,2372
2610,307610,17108,-624,752,17135.88,31.59,-1.00,-1.0,2417
2613,307613,17080,-592,672,17103.46,31.59,-1.00,-1.0,2372
2615,307615,17036,-644,840,17068.85,31.68,-1.00,-1.0,2416
2618,307618,17040,-612,684,17064.70,31.59,-1.00,-1.0,2372
2621,307621,17052,-620,712,17078.12,31.59,-1.00,-1.0,2366
2626,307626,17064,-712,608,17089.67,31.64,-1.00,-1.0,2431
2629,307629,17056,-556,700,17079.41,31.54,-1.00,-1.0,2378
2631,307631,17116,-704,548,17139.23,31.68,-1.00,-1.0,2410
2634,307634,17012,-616,628,17034.73,31.64,-1.00,-1.0,2387
2637,307637,17112,-600,608,17133.31,31.59,-1.00,-1.0,2418
2640,307640,16980,-540,676,17002.03,31.64,-1.00,-1.0,2374
2642,307642,17036,-672,712,17064.11,31.59,-1.00,-1.0,2420
2645,307645,17072,-676,508,17092.93,31.64,-1.00,-1.0,2380
2650,307650,17108,-660,584,17130.68,31.64,-1.00,-1.0,2445
2653,307653,17056,-696,580,17080.04,31.64,-1.00,-1.0,2377
2655,307655,17108,-640,628,17131.48,31.68,-1.00,-1.0,2365
2658,307658,16964,-568,708,16988.27,31.68,-1.00,-1.0,2423
2661,307661,17068,-592,644,17090.40,31.68,-1.00,-1.0,2373
2664,307664,17064,-572,564,17082.90,31.59,-1.00,-1.0,2423
2666,307666,17096,-576,632,17117.37,31.59,-1.00,-1.0,2375
2669,307669,17088,-640,712,17114.80,31.59,-1.00,-1.0,2417
2672,307672,17072,-596,836,17102.84,31.64,-1.00,-1.0,2380
2677,307677,17136,-716,676,17164.27,31.59,-1.00,-1.0,2430
2680,307680,17084,-608,652,17107.24,31.68,-1.00,-1.0,2372
2682,307682,17080,-656,572,17102.16,31.64,-1.00,-1.0,2368
2685,307685,17064,-628,596,17085.95,31.68,-1.00,-1.0,2436
2688,307688,17036,-596,656,17059.04,31.64,-1.00,-1.0,2380
2691,307691,17092,-688,588,17115.95,31.68,-1.00,-1.0,2434
2693,307693,17068,-740,692,17098.04,31.64,-1.00,-1.0,2381
2696,307696,17136,-560,644,17157.24,31.59,-1.00,-1.0,2417
2699,307699,17112,-648,580,17134.08,31.64,-1.00,-1.0,2373
2704,307704,16984,-580,596,17004.35,31.64,-1.00,-1.0,2431
2707,307707,17032,-576,720,17056.94,31.59,-1.00,-1.0,2373
2709,307709,17096,-732,664,17124.54,31.64,-1.00,-1.0,2423
2712,307712,17048,-580,604,17068.55,31.68,-1.00,-1.0,2372
2715,307715,17104,-600,620,17125.75,31.59,-1.00,-1.0,2374
2718,307718,17004,-644,660,17028.99,31.68,-1.00,-1.0,2431
2720,307720,17016,-620,724,17042.68,31.59,-1.00,-1.0,2381
2723,307723,17064,-660,620,17088.01,31.59,-1.00,-1.0,2417
2726,307726,17040,-544,668,17061.76,31.64,-1.00,-1.0,2372
2731,307731,17104,-648,624,17127.64,31.64,-1.00,-1.0,2430
2734,307734,17096,-668,616,17120.13,31.54,-1.00,-1.0,2371
2736,307736,17080,-556,628,17100.58,31.54,-1.00,-1.0,2423
2739,307739,17072,-568,540,17089.98,31.64,-1.00,-1.0,2376
2742,307742,16944,-596,476,16961.16,31.54,-1.00,-1.0,2417
2745,307745,17088,-640,740,17115.98,31.64,-1.00,-1.0,2380
2747,307747,17016,-636,788,17046.11,31.68,-1.00,-1.0,2376
2750,307750,17080,-704,724,17109.83,31.68,-1.00,-1.0,2417
2753,307753,17156,-752,760,17189.28,31.59,-1.00,-1.0,2380
2758,307758,17108,-556,580,17126.86,31.59,-1.00,-1.0,2430
2761,307761,17036,-596,472,17052.96,31.64,-1.00,-1.0,2378
2764,307764,17044,-572,736,17069.47,31.59,-1.00,-1.0,2431
2766,307766,17028,-700,824,17062.29,31.59,-1.00,-1.0,2374
2769,307769,17088,-672,780,17118.99,31.59,-1.00,-1.0,2430
2772,307772,17032,-644,824,17064.08,31.59,-1.00,-1.0,2380
2775,307775,17068,-724,704,17097.85,31.68,-1.00,-1.0,2430
2777,307777,17052,-556,696,17075.25,31.68,-1.00,-1.0,2377
2780,307780,16992,-668,544,17013.82,31.59,-1.00,-1.0,2380
2785,307785,17088,-592,700,17112.57,31.54,-1.00,-1.0,2431
2788,307788,17080,-584,808,17109.07,31.68,-1.00,-1.0,2368
2790,307790,17048,-660,616,17071.89,31.73,-1.00,-1.0,2416
2793,307793,17048,-632,704,17074.23,31.59,-1.00,-1.0,2373
2796,307796,17064,-680,652,17089.99,31.54,-1.00,-1.0,2424
2799,307799,16952,-592,624,16973.81,31.68,-1.00,-1.0,2375
2801,307801,17008,-556,684,17030.83,31.64,-1.00,-1.0,2417
2804,307804,17060,-536,592,17078.68,31.59,-1.00,-1.0,2360
2809,307809,17020,-644,736,17048.07,31.59,-1.00,-1.0,2443
2811,307811,17072,-604,776,17100.30,31.59,-1.00,-1.0,2369
2814,307814,17124,-656,576,17146.24,31.68,-1.00,-1.0,2371
2817,307817,17032,-664,716,17059.97,31.54,-1.00,-1.0,2423
2820,307820,17040,-640,756,17068.77,31.54,-1.00,-1.0,2373
2822,307822,17056,-604,640,17078.69,31.54,-1.00,-1.0,2417
2825,307825,17048,-604,748,17075.09,31.68,-1.00,-1.0,2371
2828,307828,17028,-656,572,17050.23,31.54,-1.00,-1.0,2417
2831,307831,17084,-604,688,17108.51,31.59,-1.00,-1.0,2375
2836,307836,17036,-636,696,17062.07,31.59,-1.00,-1.0,2440
2839,307839,17120,-668,728,17148.49,31.68,-1.00,-1.0,2373
2842,307842,17020,-560,784,17047.25,31.64,-1.00,-1.0,2426
2844,307844,17076,-748,772,17109.80,31.64,-1.00,-1.0,2377
2847,307847,17148,-576,780,17175.39,31.68,-1.00,-1.0,2365
2850,307850,17080,-672,760,17110.10,31.68,-1.00,-1.0,2411
2852,307852,17152,-552,652,17173.26,31.64,-1.00,-1.0,2372
2855,307855,17096,-604,672,17119.86,31.59,-1.00,-1.0,2419
2858,307858,17088,-576,724,17113.03,31.64,-1.00,-1.0,2372
2863,307863,17168,-604,760,17195.43,31.64,-1.00,-1.0,2430
2866,307866,17000,-552,648,17021.30,31.64,-1.00,-1.0,2370
2869,307869,17056,-580,764,17082.95,31.54,-1.00,-1.0,2425
2871,307871,16980,-636,720,17007.15,31.64,-1.00,-1.0,2376
2874,307874,17080,-568,712,17104.27,31.49,-1.00,-1.0,2365
2877,307877,16940,-632,704,16966.40,31.59,-1.00,-1.0,2424
2879,307879,17172,-592,708,17196.78,31.49,-1.00,-1.0,2375
2882,307882,16996,-628,696,17021.83,31.64,-1.00,-1.0,2423
2885,307885,17060,-604,668,17083.75,31.59,-1.00,-1.0,2372
2890,307890,17072,-616,632,17094.80,31.64,-1.00,-1.0,2430
2893,307893,17056,-580,684,17079.56,31.64,-1.00,-1.0,2373
2896,307896,17016,-612,760,17043.96,31.59,-1.00,-1.0,2432
2898,307898,17008,-576,620,17029.04,31.64,-1.00,-1.0,2370
2901,307901,17108,-592,740,17134.23,31.68,-1.00,-1.0,2417
2904,307904,17028,-616,588,17049.28,31.64,-1.00,-1.0,2373
2906,307906,17128,-604,708,17153.26,31.68,-1.00,-1.0,2366
2909,307909,17172,-660,688,17198.45,31.64,-1.00,-1.0,2430
2912,307912,17120,-620,684,17144.87,31.68,-1.00,-1.0,2372
2917,307917,17044,-672,572,17066.83,31.68,-1.00,-1.0,2417
2920,307920,17148,-580,668,17170.80,31.64,-1.00,-1.0,2369
2923,307923,17120,-620,664,17144.09,31.78,-1.00,-1.0,2433
2925,307925,17036,-596,656,17059.04,31.59,-1.00,-1.0,2368
2928,307928,16984,-684,596,17008.21,31.59,-1.00,-1.0,2421
2931,307931,17092,-620,772,17120.66,31.68,-1.00,-1.0,2372
2934,307934,17008,-692,560,17031.28,31.59,-1.00,-1.0,2424
2936,307936,17112,-644,684,17137.77,31.68,-1.00,-1.0,2371
2939,307939,17132,-664,616,17155.93,31.59,-1.00,-1.0,2365
2944,307944,17024,-604,692,17048.76,31.68,-1.00,-1.0,2417
2947,307947,17016,-632,680,17041.30,31.59,-1.00,-1.0,2369
2950,307950,17192,-628,652,17215.82,31.68,-1.00,-1.0,2433
2952,307952,17120,-616,800,17149.75,31.59,-1.00,-1.0,2369
2955,307955,17160,-596,648,17182.57,31.68,-1.00,-1.0,2417
2958,307958,17000,-640,616,17023.19,31.59,-1.00,-1.0,2372
2961,307961,17064,-560,576,17082.90,31.68,-1.00,-1.0,2424
2963,307963,17088,-540,688,17110.37,31.59,-1.00,-1.0,2372
2968,307968,17088,-548,680,17110.30,31.49,-1.00,-1.0,2437
2971,307971,17068,-492,720,17090.26,31.64,-1.00,-1.0,2376
2974,307974,17064,-620,668,17088.32,31.68,-1.00,-1.0,2368
2976,307976,17028,-680,648,17053.89,31.64,-1.00,-1.0,2422
2979,307979,17104,-688,532,17126.10,31.59,-1.00,-1.0,2373
2982,307982,17124,-600,544,17143.14,31.64,-1.00,-1.0,2417
2985,307985,17020,-512,556,17036.77,31.68,-1.00,-1.0,2380
2987,307987,17080,-608,488,17097.78,31.64,-1.00,-1.0,2417
2990,307990,17044,-664,620,17068.19,31.54,-1.00,-1.0,2374
2995,307995,17060,-608,716,17085.84,31.68,-1.00,-1.0,2426
2998,307998,17044,-604,564,17064.02,31.54,-1.00,-1.0,2378
3001,308001,17044,-636,620,17067.13,31.68,-1.00,-1.0,2431
3003,308003,17044,-556,600,17063.62,31.59,-1.00,-1.0,2381
3006,308006,17052,-608,708,17077.52,31.68,-1.00,-1.0,2365
3009,308009,17112,-636,672,17137.00,31.64,-1.00,-1.0,2420
3011,308011,17076,-600,552,17095.45,31.59,-1.00,-1.0,2374
3014,308014,17004,-608,640,17026.90,31.68,-1.00,-1.0,2426
3017,308017,17144,-612,748,17171.22,31.59,-1.00,-1.0,2387
3022,308022,17112,-564,596,17131.66,31.54,-1.00,-1.0,2431
3025,308025,17028,-660,684,17054.51,31.64,-1.00,-1.0,2378
3027,308027,17140,-648,688,17166.04,31.64,-1.00,-1.0,2424
3030,308030,17108,-632,720,17134.80,31.64,-1.00,-1.0,2373
3033,308033,17040,-652,720,17067.66,31.73,-1.00,-1.0,2423
3036,308036,17132,-632,604,17154.29,31.73,-1.00,-1.0,2380
3038,308038,17028,-704,732,17058.26,31.68,-1.00,-1.0,2374
3041,308041,16956,-652,672,16981.83,31.49,-1.00,-1.0,2424
3044,308044,17132,-616,752,17159.56,31.59,-1.00,-1.0,2380
3049,308049,17076,-624,548,17096.18,31.59,-1.00,-1.0,2439
3052,308052,17132,-604,676,17155.97,31.64,-1.00,-1.0,2369
3055,308055,17076,-516,704,17098.29,31.68,-1.00,-1.0,2425
3057,308057,17116,-644,604,17138.76,31.64,-1.00,-1.0,2371
3060,308060,17124,-640,548,17144.71,31.68,-1.00,-1.0,2425
3063,308063,17024,-640,716,17051.06,31.59,-1.00,-1.0,2379
3066,308066,17092,-600,584,17112.50,31.68,-1.00,-1.0,2366
3068,308068,17080,-632,708,17106.35,31.64,-1.00,-1.0,2416
3071,308071,17072,-632,824,17103.55,31.59,-1.00,-1.0,2380
3076,308076,16984,-588,756,17010.98,31.68,-1.00,-1.0,2441
3079,308079,17032,-576,528,17049.91,31.59,-1.00,-1.0,2383
3082,308082,17136,-604,608,17157.42,31.59,-1.00,-1.0,2427
3085,308085,16984,-708,704,17013.32,31.68,-1.00,-1.0,2375
3087,308087,17132,-620,640,17155.16,31.54,-1.00,-1.0,2419
3090,308090,17092,-644,724,17119.45,31.68,-1.00,-1.0,2380
3093,308093,17060,-656,768,17089.87,31.59,-1.00,-1.0,2417
3096,308096,17028,-664,744,17057.18,31.68,-1.00,-1.0,2372
3098,308098,17064,-656,600,17087.14,31.68,-1.00,-1.0,2355
3103,308103,16976,-632,584,16997.79,31.59,-1.00,-1.0,2440
3106,308106,17116,-604,692,17140.63,31.59,-1.00,-1.0,2384
3109,308109,17020,-676,696,17047.63,31.59,-1.00,-1.0,2426
3112,308112,17212,-596,576,17231.95,31.59,-1.00,-1.0,2375
3114,308114,17032,-628,720,17058.78,31.64,-1.00,-1.0,2419
3117,308117,17072,-656,588,17094.71,31.68,-1.00,-1.0,2379
3120,308120,17132,-560,548,17149.91,31.59,-1.00,-1.0,2417
3123,308123,17024,-668,600,17047.66,31.68,-1.00,-1.0,2375
3128,308128,17024,-556,696,17047.29,31.59,-1.00,-1.0,2440
3130,308130,17144,-620,668,17168.21,31.59,-1.00,-1.0,2372
3133,308133,17036,-580,512,17053.56,31.59,-1.00,-1.0,2367
3136,308136,17140,-680,656,17166.02,31.64,-1.00,-1.0,2431
3138,308138,16948,-616,528,16967.41,31.64,-1.00,-1.0,2368
3141,308141,17112,-612,708,17137.57,31.64,-1.00,-1.0,2418
3144,308144,17152,-636,608,17174.55,31.54,-1.00,-1.0,2372
3147,308147,17124,-660,656,17149.27,31.64,-1.00,-1.0,2423
3149,308149,17128,-660,732,17156.33,31.64,-1.00,-1.0,2371
3154,308154,17104,-624,660,17128.10,31.64,-1.00,-1.0,2430
3157,308157,16960,-644,764,16989.41,31.64,-1.00,-1.0,2374
3160,308160,17068,-524,616,17087.15,31.73,-1.00,-1.0,2424
3163,308163,17084,-636,524,17103.86,31.64,-1.00,-1.0,2372
3165,308165,17044,-500,676,17064.73,31.59,-1.00,-1.0,2367
3168,308168,17032,-580,652,17054.34,31.68,-1.00,-1.0,2432
3171,308171,17080,-628,632,17103.22,31.59,-1.00,-1.0,2383
3174,308174,17040,-616,584,17061.13,31.73,-1.00,-1.0,2427
3176,308176,17044,-620,552,17064.20,31.59,-1.00,-1.0,2372
3181,308181,17040,-592,624,17061.70,31.68,-1.00,-1.0,2431
3184,308184,17152,-564,864,17183.01,31.64,-1.00,-1.0,2374
3187,308187,17104,-648,684,17129.93,31.68,-1.00,-1.0,2423
3190,308190,17168,-632,728,17195.05,31.64,-1.00,-1.0,2372
3192,308192,17052,-596,784,17080.41,31.68,-1.00,-1.0,2420
3195,308195,17020,-668,816,17052.64,31.64,-1.00,-1.0,2359
3198,308198,17016,-696,768,17047.54,31.59,-1.00,-1.0,2375
3201,308201,17020,-612,728,17046.55,31.64,-1.00,-1.0,2434
3203,308203,17080,-668,540,17101.59,31.59,-1.00,-1.0,2371
3208,308208,17076,-652,596,17098.83,31.54,-1.00,-1.0,2440
3211,308211,17020,-612,628,17042.57,31.59,-1.00,-1.0,2373
3214,308214,17004,-744,728,17035.83,31.64,-1.00,-1.0,2414
3216,308216,17044,-524,624,17063.47,31.59,-1.00,-1.0,2367
3219,308219,17112,-560,752,17137.67,31.64,-1.00,-1.0,2425
3222,308222,16992,-652,656,17017.15,31.59,-1.00,-1.0,2377
3225,308225,17172,-660,624,17196.00,31.64,-1.00,-1.0,2419
3227,308227,17128,-556,832,17157.21,31.68,-1.00,-1.0,2368
3230,308230,17084,-604,684,17108.35,31.59,-1.00,-1.0,2366
3235,308235,17088,-584,544,17106.63,31.68,-1.00,-1.0,2430
3238,308238,17044,-660,792,17075.15,31.73,-1.00,-1.0,2369
3241,308241,17020,-544,624,17040.12,31.68,-1.00,-1.0,2431
3243,308243,17088,-588,704,17112.60,31.59,-1.00,-1.0,2368
3246,308246,17048,-676,672,17074.63,31.59,-1.00,-1.0,2417
3249,308249,17048,-560,844,17078.06,31.59,-1.00,-1.0,2370
3252,308252,17080,-724,656,17107.92,31.59,-1.00,-1.0,2419
3254,308254,17012,-660,704,17039.35,31.64,-1.00,-1.0,2366
3257,308257,17056,-660,592,17079.03,31.64,-1.00,-1.0,2369
3262,308262,17180,-528,636,17199.88,31.64,-1.00,-1.0,2430
3265,308265,17116,-580,616,17136.90,31.64,-1.00,-1.0,2426
3268,308268,17112,-680,580,17135.32,31.59,-1.00,-1.0,2425
3271,308271,17004,-660,644,17028.99,31.68,-1.00,-1.0,2372
3274,308274,16988,-592,608,17009.18,31.59,-1.00,-1.0,2421
3276,308276,17028,-644,652,17052.64,31.68,-1.00,-1.0,2370
3279,308279,16996,-604,608,17017.59,31.64,-1.00,-1.0,2418
3282,308282,17012,-572,536,17030.05,31.59,-1.00,-1.0,2373
3287,308287,17100,-592,696,17124.39,31.59,-1.00,-1.0,2422
3290,308290,17024,-584,748,17050.43,31.59,-1.00,-1.0,2379
3292,308292,17112,-604,680,17136.15,31.73,-1.00,-1.0,2367
3295,308295,17040,-620,728,17066.81,31.64,-1.00,-1.0,2440
3298,308298,17052,-668,692,17079.10,31.73,-1.00,-1.0,2380
3301,308301,17088,-564,680,17110.82,31.64,-1.00,-1.0,2431
3303,308303,17020,-516,648,17040.15,31.73,-1.00,-1.0,2374
3306,308306,17104,-700,716,17133.29,31.68,-1.00,-1.0,2428
3309,308309,17160,-684,684,17187.24,31.64,-1.00,-1.0,2376
3314,308314,17080,-636,756,17108.55,31.64,-1.00,-1.0,2429
3316,308316,17044,-576,828,17073.82,31.64,-1.00,-1.0,2377
3319,308319,17112,-476,696,17132.76,31.64,-1.00,-1.0,2438
3322,308322,17044,-528,680,17065.73,31.64,-1.00,-1.0,2378
3325,308325,17000,-468,552,17015.40,31.59,-1.00,-1.0,2366
3327,308327,17056,-604,688,17080.55,31.59,-1.00,-1.0,2419
3330,308330,17048,-700,652,17074.82,31.68,-1.00,-1.0,2370
3333,308333,16956,-484,728,16978.52,31.59,-1.00,-1.0,2420
3336,308336,16976,-676,660,17002.27,31.59,-1.00,-1.0,2370
3341,308341,17088,-704,708,17117.14,31.68,-1.00,-1.0,2425
3343,308343,17052,-684,492,17072.80,31.59,-1.00,-1.0,2379
3346,308346,17000,-652,764,17029.64,31.59,-1.00,-1.0,2434
3349,308349,16988,-644,528,17008.40,31.68,-1.00,-1.0,2371
3352,308352,16980,-724,600,17006.02,31.59,-1.00,-1.0,2421
3354,308354,17140,-592,592,17160.44,31.68,-1.00,-1.0,2368
3357,308357,17052,-656,708,17079.29,31.54,-1.00,-1.0,2365
3360,308360,17112,-660,500,17132.02,31.64,-1.00,-1.0,2425
3363,308363,16952,-616,696,16977.46,31.59,-1.00,-1.0,2370
3368,308368,17024,-644,756,17052.94,31.59,-1.00,-1.0,2425
3370,308370,17012,-672,720,17040.48,31.59,-1.00,-1.0,2386
3373,308373,16988,-608,844,17019.82,31.64,-1.00,-1.0,2426
3376,308376,17028,-652,760,17057.42,31.49,-1.00,-1.0,2371
3379,308379,16956,-580,676,16979.38,31.59,-1.00,-1.0,2421
3381,308381,17080,-716,716,17109.99,31.59,-1.00,-1.0,2369
3384,308384,17100,-668,688,17126.87,31.54,-1.00,-1.0,2420
3387,308387,17096,-640,764,17125.03,31.68,-1.00,-1.0,2370
3390,308390,17188,-636,748,17216.02,31.59,-1.00,-1.0,2366
3395,308395,17044,-616,764,17072.23,31.59,-1.00,-1.0,2424
3397,308397,17104,-560,712,17127.97,31.68,-1.00,-1.0,2387
3400,308400,17100,-628,664,17124.41,31.54,-1.00,-1.0,2426
3403,308403,16916,-584,652,16938.63,31.68,-1.00,-1.0,2370
3406,308406,17072,-496,640,17091.19,31.68,-1.00,-1.0,2421
3408,308408,17148,-536,748,17172.67,31.59,-1.00,-1.0,2368
3411,308411,17084,-720,652,17111.59,31.64,-1.00,-1.0,2420
3414,308414,17020,-660,760,17049.74,31.59,-1.00,-1.0,2371
3419,308419,17112,-620,668,17136.25,31.64,-1.00,-1.0,2436
3422,308422,17036,-608,688,17060.72,31.73,-1.00,-1.0,2381
3425,308425,17168,-492,716,17189.97,31.68,-1.00,-1.0,2368
3428,308428,17024,-568,648,17045.79,31.68,-1.00,-1.0,2430
3430,308430,17064,-676,708,17092.05,31.68,-1.00,-1.0,2378
3433,308433,17092,-672,772,17122.62,31.64,-1.00,-1.0,2420
3436,308436,17088,-640,616,17111.07,31.68,-1.00,-1.0,2368
3439,308439,17024,-724,724,17054.76,31.68,-1.00,-1.0,2420
3441,308441,17108,-708,752,17139.15,31.59,-1.00,-1.0,2375
3446,308446,17020,-600,760,17047.52,31.68,-1.00,-1.0,2433
3449,308449,17044,-584,572,17063.59,31.68,-1.00,-1.0,2383
3451,308451,17100,-616,632,17122.76,31.64,-1.00,-1.0,2368
3454,308454,17104,-604,688,17128.48,31.64,-1.00,-1.0,2418
3457,308457,17112,-656,768,17141.78,31.73,-1.00,-1.0,2368
3460,308460,17040,-640,564,17061.34,31.64,-1.00,-1.0,2422
3462,308462,17112,-664,736,17140.69,31.64,-1.00,-1.0,2355
3465,308465,17048,-768,700,17079.64,31.54,-1.00,-1.0,2422
3468,308468,17072,-688,772,17103.29,31.64,-1.00,-1.0,2371
3473,308473,17036,-632,712,17062.58,31.59,-1.00,-1.0,2435
3476,308476,16968,-604,808,16997.96,31.59,-1.00,-1.0,2386
3478,308478,17128,-600,660,17151.21,31.64,-1.00,-1.0,2425
3481,308481,17008,-680,684,17035.33,31.64,-1.00,-1.0,2376
3484,308484,17092,-668,580,17114.88,31.64,-1.00,-1.0,2366
3486,308486,17060,-696,748,17090.57,31.59,-1.00,-1.0,2423
3489,308489,17084,-572,720,17108.73,31.64,-1.00,-1.0,2369
3492,308492,17120,-644,684,17145.76,31.68,-1.00,-1.0,2421
3495,308495,17008,-624,680,17033.02,31.68,-1.00,-1.0,2375
3500,308500,17108,-680,704,17135.98,31.68,-1.00,-1.0,2435
3502,308502,17116,-592,516,17134.01,31.59,-1.00,-1.0,2379
3505,308505,17124,-664,672,17150.04,31.68,-1.00,-1.0,2424
3508,308508,17080,-568,668,17102.49,31.59,-1.00,-1.0,2369
3511,308511,17084,-600,840,17115.16,31.68,-1.00,-1.0,2428
3513,308513,17080,-640,572,17101.55,31.68,-1.00,-1.0,2369
3516,308516,17028,-596,656,17051.05,31.54,-1.00,-1.0,2369
3519,308519,17148,-644,720,17175.19,31.64,-1.00,-1.0,2424
3522,308522,17020,-680,616,17044.71,31.64,-1.00,-1.0,2375
3527,308527,17060,-724,688,17089.21,31.59,-1.00,-1.0,2436
3529,308529,17024,-632,636,17047.60,31.59,-1.00,-1.0,2378
3532,308532,17076,-672,656,17101.80,31.64,-1.00,-1.0,2440
3535,308535,17012,-708,684,17040.46,31.68,-1.00,-1.0,2376
3538,308538,17024,-700,672,17051.63,31.64,-1.00,-1.0,2424
3540,308540,17028,-664,588,17051.08,31.68,-1.00,-1.0,2369
3543,308543,17108,-632,592,17129.90,31.64,-1.00,-1.0,2430
3546,308546,17112,-688,536,17134.21,31.64,-1.00,-1.0,2376
3549,308549,17060,-556,752,17085.62,31.64,-1.00,-1.0,2368
3554,308554,17044,-604,600,17065.25,31.73,-1.00,-1.0,2433
3556,308556,17148,-640,656,17172.47,31.59,-1.00,-1.0,2378
3559,308559,16940,-640,792,16970.58,31.64,-1.00,-1.0,2433
3562,308562,17020,-580,848,17050.98,31.64,-1.00,-1.0,2375
3565,308565,17044,-660,644,17068.93,31.64,-1.00,-1.0,2415
3567,308567,17124,-548,892,17155.97,31.59,-1.00,-1.0,2368
3570,308570,17148,-668,564,17170.27,31.64,-1.00,-1.0,2430
3573,308573,17000,-628,520,17019.54,31.64,-1.00,-1.0,2375
3578,308578,17160,-660,672,17185.83,31.59,-1.00,-1.0,2427
3581,308581,17116,-604,696,17140.79,31.68,-1.00,-1.0,2385
3583,308583,17088,-604,616,17109.76,31.64,-1.00,-1.0,2373
3586,308586,17024,-628,720,17050.79,31.59,-1.00,-1.0,2422
3589,308589,17200,-608,732,17226.30,31.64,-1.00,-1.0,2355
3592,308592,17020,-644,684,17045.91,31.68,-1.00,-1.0,2421
3594,308594,17040,-580,668,17062.95,31.64,-1.00,-1.0,2375
3597,308597,17028,-588,732,17053.87,31.68,-1.00,-1.0,2421
3600,308600,17064,-696,668,17091.25,31.59,-1.00,-1.0,2371
3605,308605,17044,-800,772,17080.22,31.73,-1.00,-1.0,2430
3608,308608,17092,-500,596,17109.70,31.64,-1.00,-1.0,2383
3610,308610,17060,-668,660,17085.83,31.59,-1.00,-1.0,2425
3613,308613,16960,-652,672,16985.83,31.54,-1.00,-1.0,2376
3616,308616,17072,-776,712,17104.45,31.68,-1.00,-1.0,2367
3618,308618,17016,-668,732,17044.83,31.59,-1.00,-1.0,2421
3621,308621,17032,-600,580,17052.43,31.68,-1.00,-1.0,2369
3624,308624,16988,-616,740,17015.26,31.64,-1.00,-1.0,2421
3627,308627,17052,-644,756,17080.89,31.59,-1.00,-1.0,2355
3632,308632,17080,-584,640,17101.96,31.68,-1.00,-1.0,2434
3634,308634,17000,-576,812,17029.12,31.68,-1.00,-1.0,2371
3637,308637,16992,-548,564,17010.19,31.59,-1.00,-1.0,2469
3640,308640,17000,-552,720,17024.19,31.59,-1.00,-1.0,2372
3643,308643,17120,-548,548,17137.53,31.68,-1.00,-1.0,2373
3645,308645,17084,-672,704,17111.70,31.73,-1.00,-1.0,2421
3648,308648,17048,-668,632,17072.78,31.64,-1.00,-1.0,2374
3651,308651,16964,-684,732,16993.56,31.54,-1.00,-1.0,2423
3654,308654,17140,-568,696,17163.53,31.68,-1.00,-1.0,2370
3659,308659,17040,-656,636,17064.48,31.78,-1.00,-1.0,2439
3661,308661,17020,-516,552,17036.77,31.68,-1.00,-1.0,2379
3664,308664,17032,-592,560,17051.48,31.59,-1.00,-1.0,2430
3667,308667,17080,-500,788,17105.48,31.59,-1.00,-1.0,2370
3670,308670,17076,-684,596,17100.08,31.59,-1.00,-1.0,2423
3672,308672,17028,-616,580,17049.01,31.59,-1.00,-1.0,2376
3675,308675,16972,-596,720,16997.72,31.64,-1.00,-1.0,2366
3678,308678,17032,-652,652,17056.94,31.64,-1.00,-1.0,2423
3681,308681,16984,-560,752,17009.86,31.64,-1.00,-1.0,2371
3686,308686,17020,-640,636,17043.90,31.54,-1.00,-1.0,2434
3689,308689,17052,-660,576,17074.49,31.68,-1.00,-1.0,2372
3691,308691,17024,-596,732,17050.15,31.64,-1.00,-1.0,2429
3694,308694,17028,-672,664,17054.19,31.64,-1.00,-1.0,2369
3697,308697,17068,-604,700,17093.02,31.64,-1.00,-1.0,2422
3700,308700,17052,-640,568,17073.46,31.64,-1.00,-1.0,2368
3702,308702,17100,-676,720,17128.50,31.73,-1.00,-1.0,2422
3705,308705,17056,-668,764,17086.17,31.64,-1.00,-1.0,2360
3708,308708,17192,-628,804,17222.24,31.64,-1.00,-1.0,2367
3713,308713,17104,-608,716,17129.77,31.64,-1.00,-1.0,2433
3716,308716,16956,-664,888,16992.21,31.64,-1.00,-1.0,2369
3718,308718,17016,-692,716,17045.11,31.64,-1.00,-1.0,2429
3721,308721,17136,-640,696,17162.07,31.73,-1.00,-1.0,2370
3724,308724,17100,-568,788,17127.57,31.64,-1.00,-1.0,2422
3727,308727,17024,-608,708,17049.56,31.64,-1.00,-1.0,2370
3729,308729,17060,-680,536,17081.96,31.64,-1.00,-1.0,2422
3732,308732,16972,-540,736,16996.53,31.54,-1.00,-1.0,2370
3737,308737,17068,-624,756,17096.13,31.82,-1.00,-1.0,2434
3740,308740,17020,-620,772,17048.78,31.64,-1.00,-1.0,2370
3742,308742,17076,-596,720,17101.56,31.73,-1.00,-1.0,2366
3745,308745,17048,-536,728,17071.95,31.59,-1.00,-1.0,2443
3748,308748,17056,-580,592,17076.12,31.59,-1.00,-1.0,2378
3751,308751,17068,-604,712,17093.52,31.68,-1.00,-1.0,2425
3753,308753,17048,-556,616,17068.18,31.68,-1.00,-1.0,2370
3756,308756,17068,-664,732,17096.59,31.68,-1.00,-1.0,2430
3759,308759,17064,-576,768,17090.98,31.68,-1.00,-1.0,2377
3764,308764,17108,-648,584,17130.22,31.68,-1.00,-1.0,2433
3767,308767,17044,-580,680,17067.42,31.64,-1.00,-1.0,2379
3770,308770,17004,-656,724,17032.04,31.68,-1.00,-1.0,2430
3772,308772,17056,-624,740,17083.45,31.68,-1.00,-1.0,2370
3775,308775,17076,-620,752,17103.79,31.64,-1.00,-1.0,2369
3778,308778,17012,-596,668,17035.54,31.64,-1.00,-1.0,2422
3780,308780,17068,-632,632,17091.39,31.68,-1.00,-1.0,2375
3783,308783,17124,-644,692,17150.07,31.64,-1.00,-1.0,2422
3786,308786,17124,-648,616,17147.32,31.68,-1.00,-1.0,2384
3791,308791,17120,-672,740,17149.16,31.68,-1.00,-1.0,2448
3794,308794,17084,-680,476,17104.15,31.68,-1.00,-1.0,2376
3797,308797,17044,-660,748,17073.17,31.64,-1.00,-1.0,2441
3799,308799,17028,-720,652,17055.68,31.68,-1.00,-1.0,2378
3802,308802,17040,-580,716,17064.89,31.64,-1.00,-1.0,2422
3805,308805,16988,-592,632,17010.06,31.59,-1.00,-1.0,2369
3807,308807,17104,-600,788,17132.65,31.64,-1.00,-1.0,2367
3810,308810,17120,-640,568,17141.37,31.59,-1.00,-1.0,2423
3813,308813,16972,-548,652,16993.36,31.64,-1.00,-1.0,2372
3818,308818,17036,-528,452,17050.17,31.64,-1.00,-1.0,2448
3821,308821,16964,-592,604,16985.07,31.59,-1.00,-1.0,2376
3824,308824,17052,-668,764,17082.17,31.64,-1.00,-1.0,2443
3826,308826,17056,-612,704,17081.49,31.68,-1.00,-1.0,2377
3829,308829,17120,-592,684,17143.88,31.64,-1.00,-1.0,2422
3832,308832,17104,-580,552,17122.73,31.73,-1.00,-1.0,2374
3834,308834,17060,-608,624,17082.23,31.68,-1.00,-1.0,2367
3837,308837,17060,-660,676,17086.14,31.59,-1.00,-1.0,2423
3840,308840,17072,-640,664,17096.89,31.73,-1.00,-1.0,2370
3845,308845,17104,-608,664,17127.68,31.64,-1.00,-1.0,2421
3848,308848,17080,-568,584,17099.42,31.73,-1.00,-1.0,2368
3850,308850,17152,-652,772,17181.74,31.59,-1.00,-1.0,2429
3853,308853,17148,-536,636,17168.16,31.54,-1.00,-1.0,2370
3856,308856,17064,-632,716,17090.71,31.68,-1.00,-1.0,2422
3859,308859,17076,-692,748,17106.38,31.64,-1.00,-1.0,2367
3861,308861,17020,-564,716,17044.39,31.68,-1.00,-1.0,2421
3864,308864,17080,-680,760,17110.42,31.64,-1.00,-1.0,2369
3867,308867,16960,-604,640,16982.81,31.64,-1.00,-1.0,2367
3872,308872,16944,-608,776,16972.65,31.64,-1.00,-1.0,2440
3874,308874,17068,-544,564,17085.98,31.59,-1.00,-1.0,2369
3877,308877,16984,-668,648,17009.48,31.64,-1.00,-1.0,2440
3880,308880,16992,-660,632,17016.55,31.64,-1.00,-1.0,2376
3883,308883,17108,-516,800,17134.47,31.73,-1.00,-1.0,2411
3885,308885,17032,-676,644,17057.57,31.64,-1.00,-1.0,2370
3888,308888,17044,-624,704,17069.94,31.64,-1.00,-1.0,2429
3891,308891,17024,-640,704,17050.57,31.68,-1.00,-1.0,2370
3896,308896,17076,-600,760,17103.43,31.64,-1.00,-1.0,2440
3899,308899,16944,-596,640,16966.55,31.73,-1.00,-1.0,2368
3901,308901,17112,-652,644,17136.52,31.59,-1.00,-1.0,2365
3904,308904,16964,-712,792,16997.40,31.68,-1.00,-1.0,2430
3907,308907,17012,-580,664,17034.83,31.68,-1.00,-1.0,2376
3910,308910,17164,-640,656,17188.45,31.64,-1.00,-1.0,2429
3912,308912,16960,-696,772,16991.82,31.68,-1.00,-1.0,2369
3915,308915,17100,-588,592,17120.35,31.59,-1.00,-1.0,2423
3918,308918,17096,-652,668,17121.46,31.59,-1.00,-1.0,2370
3923,308923,17040,-680,644,17065.72,31.68,-1.00,-1.0,2433
3926,308926,17080,-616,668,17104.15,31.68,-1.00,-1.0,2372
3929,308929,17096,-720,612,17122.10,31.68,-1.00,-1.0,2429
3931,308931,17100,-632,720,17126.82,31.59,-1.00,-1.0,2372
3934,308934,17020,-668,804,17052.07,31.73,-1.00,-1.0,2366
3937,308937,17064,-592,672,17087.48,31.64,-1.00,-1.0,2428
3939,308939,17004,-608,728,17030.43,31.64,-1.00,-1.0,2368
3942,308942,16948,-592,668,16971.49,31.64,-1.00,-1.0,2435
3945,308945,16976,-704,716,17005.67,31.59,-1.00,-1.0,2369
3950,308950,17048,-684,720,17076.90,31.59,-1.00,-1.0,2434
3953,308953,17032,-696,656,17058.83,31.68,-1.00,-1.0,2370
3956,308956,17120,-652,688,17146.22,31.68,-1.00,-1.0,2434
3958,308958,17064,-548,744,17089.00,31.59,-1.00,-1.0,2368
3961,308961,17072,-532,648,17092.57,31.68,-1.00,-1.0,2423
3964,308964,17084,-692,632,17109.69,31.59,-1.00,-1.0,2369
3966,308966,17052,-592,640,17074.27,31.73,-1.00,-1.0,2367
3969,308969,16972,-568,688,16995.43,31.59,-1.00,-1.0,2434
3972,308972,17184,-716,632,17210.52,31.64,-1.00,-1.0,2371
3977,308977,16928,-636,832,16960.36,31.59,-1.00,-1.0,2432
3980,308980,17052,-568,564,17070.78,31.59,-1.00,-1.0,2370
3983,308983,17080,-624,608,17102.21,31.64,-1.00,-1.0,2436
3985,308985,17068,-592,880,17100.92,31.68,-1.00,-1.0,2367
3988,308988,17048,-668,668,17074.15,31.64,-1.00,-1.0,2423
3991,308991,17016,-640,648,17040.36,31.64,-1.00,-1.0,2369
3994,308994,17036,-548,572,17054.41,31.64,-1.00,-1.0,2424
3996,308996,17092,-604,728,17118.16,31.59,-1.00,-1.0,2368
3999,308999,17036,-580,824,17065.78,31.64,-1.00,-1.0,2370
4004,309004,16964,-532,680,16985.96,31.64,-1.00,-1.0,2434
4007,309007,17040,-628,800,17070.32,31.54,-1.00,-1.0,2368
4010,309010,17096,-688,624,17121.21,31.64,-1.00,-1.0,2436
4012,309012,17024,-672,660,17050.04,31.64,-1.00,-1.0,2368
4015,309015,17188,-604,704,17213.01,31.64,-1.00,-1.0,2426
4018,309018,16988,-568,608,17008.36,31.64,-1.00,-1.0,2370
4021,309021,17220,-724,728,17250.58,31.64,-1.00,-1.0,2429
4023,309023,17060,-608,808,17089.94,31.64,-1.00,-1.0,2369
4026,309026,17028,-616,692,17053.19,31.68,-1.00,-1.0,2376
4031,309031,16980,-520,716,17003.04,31.73,-1.00,-1.0,2434
4034,309034,16996,-716,612,17022.08,31.73,-1.00,-1.0,2369
4037,309037,17060,-668,628,17084.62,31.68,-1.00,-1.0,2436
4039,309039,17088,-656,512,17108.25,31.73,-1.00,-1.0,2368
4042,309042,16984,-724,808,17018.62,31.68,-1.00,-1.0,2436
4045,309045,17052,-616,564,17072.44,31.64,-1.00,-1.0,2369
4048,309048,17000,-564,680,17022.94,31.59,-1.00,-1.0,2432
4050,309050,17100,-708,672,17127.84,31.64,-1.00,-1.0,2369
4055,309055,17052,-604,648,17074.99,31.68,-1.00,-1.0,2445
4058,309058,17020,-592,716,17045.34,31.68,-1.00,-1.0,2383
4061,309061,16984,-572,592,17003.94,31.64,-1.00,-1.0,2367
4063,309063,17036,-696,776,17067.86,31.54,-1.00,-1.0,2429
4066,309066,17016,-608,736,17042.76,31.64,-1.00,-1.0,2370
4069,309069,17008,-648,672,17033.60,31.64,-1.00,-1.0,2422
4072,309072,17068,-540,604,17087.22,31.64,-1.00,-1.0,2368
4074,309074,17060,-560,680,17082.73,31.64,-1.00,-1.0,2422
4077,309077,16976,-640,604,16998.79,31.59,-1.00,-1.0,2372
4082,309082,17072,-660,652,17097.19,31.59,-1.00,-1.0,2432
4085,309085,17080,-544,784,17106.64,31.54,-1.00,-1.0,2378
4088,309088,17152,-632,712,17178.40,31.59,-1.00,-1.0,2434
4090,309090,17048,-684,572,17071.30,31.68,-1.00,-1.0,2375
4093,309093,16948,-628,640,16971.70,31.64,-1.00,-1.0,2370
4096,309096,17072,-644,580,17093.98,31.82,-1.00,-1.0,2422
4098,309098,16976,-620,760,17004.31,31.73,-1.00,-1.0,2357
4101,309101,16992,-660,732,17020.56,31.54,-1.00,-1.0,2422
4104,309104,17028,-596,640,17050.44,31.64,-1.00,-1.0,2372
4109,309109,17020,-572,600,17040.18,31.64,-1.00,-1.0,2441
4112,309112,16968,-584,640,16990.11,31.59,-1.00,-1.0,2376
4115,309115,17028,-604,532,17047.01,31.64,-1.00,-1.0,2429
4118,309118,17000,-656,696,17026.88,31.54,-1.00,-1.0,2369
4120,309120,17016,-656,780,17046.49,31.64,-1.00,-1.0,2421
4123,309123,16964,-668,680,16990.76,31.68,-1.00,-1.0,2371
4126,309126,17020,-712,728,17050.44,31.59,-1.00,-1.0,2374
4128,309128,16980,-616,636,17003.07,31.68,-1.00,-1.0,2422
4131,309131,17048,-636,772,17077.32,31.54,-1.00,-1.0,2370
4136,309136,16920,-632,724,16947.27,31.64,-1.00,-1.0,2420
4139,309139,17204,-640,792,17234.11,31.68,-1.00,-1.0,2372
4142,309142,17084,-572,664,17106.46,31.73,-1.00,-1.0,2429
4145,309145,17068,-656,640,17092.59,31.73,-1.00,-1.0,2370
4147,309147,17096,-672,720,17124.35,31.64,-1.00,-1.0,2422
4150,309150,17048,-640,632,17071.71,31.64,-1.00,-1.0,2371
4153,309153,17024,-608,680,17048.42,31.73,-1.00,-1.0,2422
4156,309156,17060,-636,580,17081.70,31.64,-1.00,-1.0,2370
4158,309158,17140,-616,688,17164.86,31.68,-1.00,-1.0,2367
4163,309163,17104,-624,660,17128.10,31.64,-1.00,-1.0,2434
4166,309166,17068,-616,632,17090.80,31.64,-1.00,-1.0,2372
4169,309169,17040,-664,656,17065.54,31.68,-1.00,-1.0,2428
4172,309172,16956,-584,780,16983.97,31.64,-1.00,-1.0,2368
4174,309174,17000,-572,796,17028.24,31.59,-1.00,-1.0,2422
4177,309177,17128,-592,700,17152.52,31.54,-1.00,-1.0,2369
4180,309180,17000,-676,592,17023.73,31.68,-1.00,-1.0,2422
4183,309183,17068,-668,564,17090.38,31.64,-1.00,-1.0,2368
4188,309188,17076,-736,636,17103.68,31.68,-1.00,-1.0,2466
4190,309190,17028,-620,616,17050.41,31.78,-1.00,-1.0,2364
4193,309193,17072,-568,616,17092.55,31.73,-1.00,-1.0,2367
4196,309196,17120,-624,744,17147.52,31.59,-1.00,-1.0,2420
4199,309199,17064,-536,596,17082.82,31.64,-1.00,-1.0,2369
4201,309201,17008,-672,716,17036.32,31.59,-1.00,-1.0,2421
4204,309204,17048,-660,644,17072.92,31.64,-1.00,-1.0,2368
4207,309207,17072,-704,632,17098.19,31.68,-1.00,-1.0,2422
4210,309210,17044,-548,708,17067.50,31.64,-1.00,-1.0,2369
4215,309215,17052,-716,516,17074.82,31.64,-1.00,-1.0,2448
4217,309217,17128,-644,616,17151.17,31.64,-1.00,-1.0,2374
4220,309220,17020,-668,656,17045.73,31.68,-1.00,-1.0,2364
4223,309223,17032,-600,716,17057.60,31.68,-1.00,-1.0,2424
4225,309225,17016,-608,656,17039.49,31.59,-1.00,-1.0,2371
4228,309228,17060,-612,560,17080.16,31.64,-1.00,-1.0,2425
4231,309231,17172,-560,640,17193.04,31.68,-1.00,-1.0,2368
4234,309234,17136,-684,508,17157.17,31.73,-1.00,-1.0,2432
4236,309236,16988,-664,664,17013.93,31.64,-1.00,-1.0,2367
4241,309241,17152,-704,692,17180.38,31.64,-1.00,-1.0,2440
4244,309244,16984,-644,684,17009.96,31.68,-1.00,-1.0,2367
4247,309247,17060,-580,636,17081.70,31.68,-1.00,-1.0,2421
4250,309250,16960,-680,724,16989.06,31.59,-1.00,-1.0,2376
4252,309252,17012,-700,664,17039.34,31.73,-1.00,-1.0,2374
4255,309255,17096,-624,668,17120.42,31.68,-1.00,-1.0,2421
4258,309258,17064,-576,592,17083.98,31.64,-1.00,-1.0,2368
4261,309261,17008,-620,632,17031.03,31.68,-1.00,-1.0,2421
4263,309263,17092,-564,660,17114.03,31.73,-1.00,-1.0,2372
4269,309269,17060,-576,596,17080.12,31.68,-1.00,-1.0,2441
4272,309272,17072,-592,564,17091.57,31.59,-1.00,-1.0,2369
4275,309275,17044,-624,700,17069.78,31.68,-1.00,-1.0,2421
4277,309277,17112,-656,640,17136.53,31.59,-1.00,-1.0,2357
4280,309280,17060,-644,664,17085.06,31.59,-1.00,-1.0,2420
4283,309283,17156,-660,816,17188.07,31.68,-1.00,-1.0,2373
4285,309285,17076,-596,688,17100.24,31.64,-1.00,-1.0,2366
4288,309288,17016,-672,696,17043.48,31.73,-1.00,-1.0,2422
4291,309291,17092,-692,660,17118.73,31.68,-1.00,-1.0,2368
4296,309296,17024,-580,728,17049.43,31.68,-1.00,-1.0,2440
4298,309298,17020,-640,616,17043.16,31.59,-1.00,-1.0,2370
4301,309301,17056,-628,588,17077.68,31.64,-1.00,-1.0,2421
4304,309304,16996,-720,532,17019.56,31.68,-1.00,-1.0,2369
4307,309307,17044,-668,636,17068.94,31.64,-1.00,-1.0,2428
4309,309309,17080,-696,676,17107.54,31.68,-1.00,-1.0,2368
4312,309312,17056,-528,656,17076.78,31.73,-1.00,-1.0,2422
4315,309315,17088,-652,784,17118.40,31.59,-1.00,-1.0,2356
4318,309318,16960,-668,752,16989.80,31.78,-1.00,-1.0,2371
4323,309323,17004,-668,744,17033.37,31.59,-1.00,-1.0,2449
4325,309325,17068,-508,636,17087.40,31.68,-1.00,-1.0,2379
4328,309328,17076,-616,552,17096.02,31.59,-1.00,-1.0,2420
4331,309331,17016,-636,748,17044.30,31.59,-1.00,-1.0,2371
4334,309334,17028,-680,584,17051.58,31.68,-1.00,-1.0,2423
4336,309336,16972,-604,736,16998.69,31.59,-1.00,-1.0,2374
4339,309339,17168,-628,724,17194.73,31.59,-1.00,-1.0,2421
4342,309342,17136,-596,496,17153.53,31.68,-1.00,-1.0,2368
4347,309347,17100,-636,660,17124.55,31.59,-1.00,-1.0,2449
4349,309349,17052,-592,704,17076.79,31.73,-1.00,-1.0,2369
4352,309352,17124,-608,596,17145.15,31.68,-1.00,-1.0,2365
4355,309355,17052,-532,724,17075.65,31.59,-1.00,-1.0,2421
4358,309358,16956,-600,684,16980.39,31.68,-1.00,-1.0,2367
4360,309360,17116,-636,660,17140.52,31.64,-1.00,-1.0,2421
4363,309363,17088,-596,728,17113.88,31.64,-1.00,-1.0,2369
4366,309366,17196,-544,744,17220.68,31.64,-1.00,-1.0,2421
4369,309369,17036,-668,592,17059.37,31.64,-1.00,-1.0,2367
4374,309374,17104,-548,696,17126.92,31.59,-1.00,-1.0,2444
4376,309376,16984,-620,668,17008.44,31.68,-1.00,-1.0,2375
4379,309379,16964,-584,736,16990.00,31.64,-1.00,-1.0,2421
4382,309382,17076,-636,608,17098.65,31.68,-1.00,-1.0,2376
4384,309384,17016,-572,612,17036.61,31.73,-1.00,-1.0,2367
4387,309387,17128,-616,824,17158.87,31.59,-1.00,-1.0,2422
4390,309390,17052,-592,788,17080.46,31.64,-1.00,-1.0,2369
4393,309393,17000,-632,612,17022.75,31.59,-1.00,-1.0,2428
4396,309396,17056,-664,632,17080.62,31.64,-1.00,-1.0,2368
4401,309401,17092,-644,452,17110.10,31.73,-1.00,-1.0,2442
4403,309403,17056,-672,532,17077.52,31.73,-1.00,-1.0,2378
4406,309406,17144,-572,656,17166.08,31.54,-1.00,-1.0,2422
4409,309409,17120,-596,696,17144.50,31.68,-1.00,-1.0,2369
4411,309411,17092,-624,720,17118.54,31.68,-1.00,-1.0,2366
4414,309414,17140,-596,740,17166.32,31.68,-1.00,-1.0,2436
4417,309417,17036,-580,764,17062.98,31.59,-1.00,-1.0,2368
4420,309420,17072,-588,672,17095.34,31.68,-1.00,-1.0,2428
4423,309423,17032,-684,864,17067.61,31.64,-1.00,-1.0,2373
4428,309428,16956,-640,592,16978.40,31.73,-1.00,-1.0,2441
4430,309430,16960,-644,720,16987.49,31.73,-1.00,-1.0,2371
4433,309433,17024,-656,868,17058.73,31.64,-1.00,-1.0,2421
4436,309436,17028,-632,708,17054.43,31.64,-1.00,-1.0,2368
4439,309439,17060,-584,584,17079.98,31.73,-1.00,-1.0,2427
4441,309441,17032,-584,752,17058.59,31.64,-1.00,-1.0,2367
4444,309444,17072,-640,724,17099.33,31.68,-1.00,-1.0,2365
4447,309447,16984,-508,724,17007.01,31.68,-1.00,-1.0,2428
4450,309450,17048,-768,652,17077.74,31.68,-1.00,-1.0,2375
4455,309455,17048,-592,664,17071.19,31.64,-1.00,-1.0,2448
4457,309457,16964,-640,728,16991.67,31.64,-1.00,-1.0,2367
4460,309460,17024,-632,704,17050.27,31.59,-1.00,-1.0,2423
4463,309463,17096,-656,532,17116.85,31.64,-1.00,-1.0,2369
4466,309466,17084,-632,688,17109.52,31.68,-1.00,-1.0,2428
4468,309468,17184,-704,616,17209.44,31.73,-1.00,-1.0,2367
4471,309471,17132,-628,736,17159.30,31.59,-1.00,-1.0,2423
4474,309474,17072,-576,728,17097.22,31.68,-1.00,-1.0,2373
4477,309477,17080,-548,624,17100.18,31.59,-1.00,-1.0,2362
4482,309482,17104,-584,700,17128.28,31.73,-1.00,-1.0,2448
4484,309484,17076,-600,872,17108.77,31.68,-1.00,-1.0,2372
4487,309487,16988,-652,636,17012.40,31.54,-1.00,-1.0,2431
4490,309490,17024,-648,728,17051.88,31.68,-1.00,-1.0,2372
4493,309493,17000,-520,568,17017.43,31.68,-1.00,-1.0,2463
4495,309495,17084,-580,688,17107.68,31.59,-1.00,-1.0,2368
4498,309498,16992,-660,696,17019.05,31.64,-1.00,-1.0,2429
4501,309501,17080,-604,616,17101.77,31.68,-1.00,-1.0,2368
4506,309506,17112,-648,676,17137.60,31.64,-1.00,-1.0,2441
4508,309508,17072,-588,776,17099.74,31.73,-1.00,-1.0,2354
4511,309511,17088,-572,648,17109.85,31.78,-1.00,-1.0,2364
4514,309514,17064,-616,556,17084.16,31.68,-1.00,-1.0,2429
4516,309516,17096,-620,556,17116.27,31.68,-1.00,-1.0,2366
4519,309519,17100,-668,740,17129.04,31.73,-1.00,-1.0,2430
4522,309522,17088,-580,628,17109.37,31.68,-1.00,-1.0,2368
4525,309525,17068,-572,728,17093.09,31.64,-1.00,-1.0,2422
4528,309528,17024,-532,720,17047.52,31.68,-1.00,-1.0,2370
4533,309533,17144,-608,576,17164.45,31.68,-1.00,-1.0,2449
4535,309535,17040,-628,588,17061.70,31.68,-1.00,-1.0,2367
4538,309538,16968,-632,752,16996.41,31.73,-1.00,-1.0,2433
4541,309541,16984,-668,684,17010.89,31.64,-1.00,-1.0,2376
4544,309544,17028,-644,816,17059.70,31.59,-1.00,-1.0,2366
4546,309546,17176,-572,616,17196.56,31.68,-1.00,-1.0,2421
4549,309549,17096,-660,660,17121.46,31.59,-1.00,-1.0,2369
4552,309552,17112,-572,784,17139.50,31.59,-1.00,-1.0,2422
4555,309555,17072,-660,704,17099.25,31.64,-1.00,-1.0,2372
4560,309560,17064,-672,708,17091.90,31.64,-1.00,-1.0,2447
4563,309563,17020,-672,688,17047.15,31.64,-1.00,-1.0,2378
4565,309565,17120,-612,636,17142.74,31.68,-1.00,-1.0,2410
4568,309568,17028,-628,660,17052.35,31.64,-1.00,-1.0,2384
4571,309571,17068,-680,628,17093.08,31.59,-1.00,-1.0,2421
4574,309574,17128,-692,620,17153.18,31.64,-1.00,-1.0,2371
4576,309576,17100,-508,600,17118.06,31.68,-1.00,-1.0,2353
4579,309579,17000,-608,696,17025.10,31.59,-1.00,-1.0,2421
4582,309582,17000,-592,792,17028.73,31.59,-1.00,-1.0,2369
4587,309587,17088,-576,724,17113.03,31.64,-1.00,-1.0,2427
4589,309589,17136,-624,700,17161.64,31.64,-1.00,-1.0,2370
4592,309592,17084,-676,484,17104.22,31.68,-1.00,-1.0,2424
4595,309595,17060,-616,676,17084.50,31.64,-1.00,-1.0,2383
4598,309598,17020,-664,764,17050.07,31.59,-1.00,-1.0,2424
4601,309601,17012,-636,708,17038.60,31.64,-1.00,-1.0,2371
4603,309603,17120,-628,548,17140.28,31.78,-1.00,-1.0,2357
4606,309606,17088,-608,592,17109.06,31.73,-1.00,-1.0,2421
4609,309609,17120,-696,644,17146.24,31.59,-1.00,-1.0,2370
4614,309614,17020,-548,580,17038.69,31.68,-1.00,-1.0,2441
4617,309617,17008,-628,796,17038.19,31.68,-1.00,-1.0,2365
4619,309619,17096,-616,596,17117.47,31.59,-1.00,-1.0,2424
4622,309622,17060,-568,756,17086.19,31.68,-1.00,-1.0,2371
4625,309625,17060,-568,628,17081.00,31.68,-1.00,-1.0,2420
4628,309628,17032,-536,672,17053.68,31.59,-1.00,-1.0,2368
4630,309630,17124,-632,684,17149.30,31.68,-1.00,-1.0,2421
4633,309633,17128,-636,812,17159.03,31.68,-1.00,-1.0,2356
4636,309636,16996,-660,756,17025.60,31.59,-1.00,-1.0,2366
4641,309641,16996,-740,712,17026.99,31.59,-1.00,-1.0,2440
4644,309644,16972,-720,660,17000.08,31.68,-1.00,-1.0,2367
4646,309646,16980,-620,640,17003.37,31.64,-1.00,-1.0,2421
4649,309649,17040,-668,728,17068.62,31.68,-1.00,-1.0,2369
4652,309652,17024,-620,644,17047.46,31.54,-1.00,-1.0,2421
4655,309655,17116,-540,640,17136.47,31.68,-1.00,-1.0,2367
4657,309657,16984,-676,592,17007.75,31.64,-1.00,-1.0,2420
4660,309660,17020,-544,764,17045.82,31.68,-1.00,-1.0,2368
4665,309665,17076,-548,676,17098.16,31.68,-1.00,-1.0,2448
4668,309668,17036,-564,760,17062.27,31.59,-1.00,-1.0,2367
4670,309670,17020,-588,788,17048.38,31.64,-1.00,-1.0,2365
4673,309673,17120,-592,648,17142.48,31.68,-1.00,-1.0,2467
4676,309676,17016,-628,720,17042.80,31.68,-1.00,-1.0,2370
4679,309679,17052,-584,600,17072.54,31.64,-1.00,-1.0,2422
4682,309682,17072,-648,620,17095.54,31.59,-1.00,-1.0,2368
4684,309684,17008,-776,500,17033.03,31.54,-1.00,-1.0,2422
4687,309687,17088,-624,656,17111.97,31.68,-1.00,-1.0,2370
4692,309692,17088,-552,608,17107.72,31.64,-1.00,-1.0,2433
4695,309695,17060,-544,696,17082.86,31.68,-1.00,-1.0,2368
4697,309697,17096,-692,600,17120.52,31.73,-1.00,-1.0,2432
4700,309700,17052,-688,868,17087.93,31.64,-1.00,-1.0,2370
4703,309703,17112,-648,664,17137.13,31.59,-1.00,-1.0,2375
4706,309706,17084,-556,776,17110.65,31.68,-1.00,-1.0,2435
4708,309708,17052,-668,772,17082.53,31.68,-1.00,-1.0,2372
4711,309711,17092,-676,792,17123.69,31.68,-1.00,-1.0,2432
4714,309714,17056,-632,800,17086.44,31.73,-1.00,-1.0,2369
4719,309719,17068,-624,824,17099.27,31.68,-1.00,-1.0,2432
4721,309721,17020,-648,556,17041.40,31.59,-1.00,-1.0,2375
4724,309724,17108,-636,764,17136.86,31.73,-1.00,-1.0,2432
4727,309727,17044,-608,684,17068.55,31.73,-1.00,-1.0,2372
4730,309730,17212,-636,816,17243.06,31.64,-1.00,-1.0,2422
4732,309732,17136,-620,744,17163.35,31.64,-1.00,-1.0,2368
4735,309735,17096,-600,612,17117.47,31.59,-1.00,-1.0,2366
4738,309738,17072,-584,772,17099.42,31.68,-1.00,-1.0,2436
4741,309741,17124,-644,540,17144.61,31.68,-1.00,-1.0,2377
4746,309746,17036,-692,756,17066.80,31.68,-1.00,-1.0,2432
4749,309749,17052,-664,568,17074.37,31.54,-1.00,-1.0,2368
4751,309751,17024,-516,628,17043.39,31.68,-1.00,-1.0,2431
4754,309754,17076,-548,644,17096.92,31.64,-1.00,-1.0,2369
4757,309757,16996,-700,852,17031.73,31.68,-1.00,-1.0,2422
4760,309760,17044,-664,652,17069.39,31.64,-1.00,-1.0,2376
4762,309762,17072,-624,652,17095.84,31.68,-1.00,-1.0,2422
4765,309765,17140,-524,688,17161.80,31.68,-1.00,-1.0,2369
4768,309768,17124,-628,720,17150.63,31.59,-1.00,-1.0,2382
4773,309773,17168,-564,612,17188.16,31.68,-1.00,-1.0,2432
4776,309776,17140,-616,720,17166.17,31.68,-1.00,-1.0,2377
4779,309779,17016,-612,640,17039.03,31.68,-1.00,-1.0,2432
4781,309781,17136,-692,548,17158.72,31.68,-1.00,-1.0,2371
4784,309784,17076,-640,736,17103.83,31.59,-1.00,-1.0,2435
4787,309787,17016,-600,832,17046.89,31.68,-1.00,-1.0,2378
4790,309790,16984,-644,712,17011.11,31.68,-1.00,-1.0,2434
4792,309792,17096,-648,648,17120.54,31.49,-1.00,-1.0,2372
4795,309795,17084,-616,604,17105.77,31.64,-1.00,-1.0,2375
4800,309800,17072,-660,728,17100.26,31.68,-1.00,-1.0,2432
4803,309803,17112,-656,708,17139.20,31.68,-1.00,-1.0,2377
4806,309806,17108,-776,696,17139.73,31.78,-1.00,-1.0,2444
4808,309808,17004,-684,700,17032.14,31.59,-1.00,-1.0,2371
4811,309811,17008,-680,880,17044.32,31.64,-1.00,-1.0,2432
4814,309814,16988,-644,780,17018.09,31.68,-1.00,-1.0,2377
4817,309817,17096,-660,628,17120.26,31.54,-1.00,-1.0,2436
4819,309819,17168,-604,788,17196.69,31.64,-1.00,-1.0,2378
4824,309824,17120,-672,916,17157.65,31.68,-1.00,-1.0,2436
4827,309827,17096,-556,544,17113.69,31.68,-1.00,-1.0,2364
4830,309830,17156,-492,816,17182.44,31.68,-1.00,-1.0,2366
4832,309832,17020,-656,760,17049.58,31.64,-1.00,-1.0,2434
4835,309835,17120,-688,676,17147.15,31.73,-1.00,-1.0,2354
4838,309838,17080,-484,732,17102.53,31.54,-1.00,-1.0,2424
4841,309841,16964,-624,532,16983.81,31.64,-1.00,-1.0,2368
4843,309843,17204,-636,600,17226.21,31.73,-1.00,-1.0,2424
4846,309846,17168,-644,624,17191.40,31.73,-1.00,-1.0,2366
4851,309851,17152,-604,624,17173.97,31.64,-1.00,-1.0,2441
4854,309854,17000,-668,784,17031.17,31.64,-1.00,-1.0,2376
4857,309857,17104,-692,800,17136.68,31.73,-1.00,-1.0,2438
4859,309859,17056,-544,636,17076.52,31.64,-1.00,-1.0,2377
4862,309862,17068,-568,612,17088.41,31.59,-1.00,-1.0,2363
4865,309865,17200,-636,660,17224.40,31.68,-1.00,-1.0,2429
4867,309867,17120,-648,588,17142.35,31.59,-1.00,-1.0,2368
4870,309870,17092,-608,572,17112.37,31.59,-1.00,-1.0,2424
4873,309873,17080,-644,716,17107.13,31.68,-1.00,-1.0,2370
4878,309878,17080,-612,732,17106.63,31.73,-1.00,-1.0,2439
4881,309881,17088,-644,644,17112.25,31.64,-1.00,-1.0,2371
4884,309884,17112,-580,684,17135.48,31.68,-1.00,-1.0,2434
4886,309886,17040,-600,880,17073.25,31.54,-1.00,-1.0,2376
4889,309889,17092,-572,764,17118.62,31.68,-1.00,-1.0,2422
4892,309892,17032,-636,792,17062.26,31.59,-1.00,-1.0,2413
4895,309895,17160,-640,768,17189.10,31.68,-1.00,-1.0,2367
4897,309897,17048,-572,620,17068.86,31.68,-1.00,-1.0,2427
4900,309900,17080,-628,644,17103.67,31.68,-1.00,-1.0,2376
4905,309905,17008,-556,636,17028.97,31.64,-1.00,-1.0,2430
4908,309908,16956,-664,676,16982.46,31.68,-1.00,-1.0,2377
4910,309910,17104,-600,564,17123.81,31.64,-1.00,-1.0,2428
4913,309913,17048,-676,624,17072.80,31.73,-1.00,-1.0,2374
4916,309916,17092,-668,748,17121.40,31.64,-1.00,-1.0,2435
4919,309919,17068,-568,772,17094.89,31.64,-1.00,-1.0,2370
4922,309922,17036,-580,608,17056.71,31.73,-1.00,-1.0,2429
4924,309924,17112,-724,740,17143.29,31.64,-1.00,-1.0,2373
4927,309927,17060,-728,688,17089.38,31.68,-1.00,-1.0,2366
4932,309932,17120,-628,840,17152.10,31.59,-1.00,-1.0,2432
4935,309935,17032,-600,688,17056.45,31.73,-1.00,-1.0,2379
4937,309937,17068,-692,644,17094.16,31.68,-1.00,-1.0,2428
4940,309940,17072,-524,644,17092.18,31.68,-1.00,-1.0,2372
4943,309943,17052,-604,688,17076.56,31.68,-1.00,-1.0,2406
4946,309946,17060,-548,604,17079.48,31.68,-1.00,-1.0,2370
4948,309948,17120,-496,676,17140.52,31.68,-1.00,-1.0,2420
4951,309951,17108,-572,800,17136.24,31.73,-1.00,-1.0,2375
4956,309956,17048,-656,676,17074.00,31.64,-1.00,-1.0,2429
4959,309959,17056,-700,628,17081.91,31.68,-1.00,-1.0,2370
4961,309961,16932,-620,824,16963.37,31.64,-1.00,-1.0,2365
4964,309964,17036,-668,600,17059.65,31.59,-1.00,-1.0,2436
4967,309967,17068,-640,700,17094.33,31.68,-1.00,-1.0,2386
4970,309970,17040,-660,748,17069.17,31.68,-1.00,-1.0,2420
4973,309973,17068,-656,676,17093.97,31.68,-1.00,-1.0,2373
4975,309975,17068,-604,696,17092.86,31.68,-1.00,-1.0,2421
4978,309978,16956,-692,680,16983.73,31.64,-1.00,-1.0,2374
4983,309983,17064,-648,612,17087.26,31.73,-1.00,-1.0,2429
4986,309986,17124,-604,772,17152.03,31.64,-1.00,-1.0,2370
4989,309989,17028,-668,736,17056.98,31.68,-1.00,-1.0,2370
4991,309991,17052,-604,748,17079.08,31.59,-1.00,-1.0,2431
4994,309994,17096,-628,740,17123.53,31.59,-1.00,-1.0,2373
4997,309997,17028,-580,656,17050.50,31.68,-1.00,-1.0,2421
5000,310000,17008,-600,688,17032.48,31.68,-1.00,-1.0,2374
5002,310002,17048,-644,680,17073.71,31.68,-1.00,-1.0,2418
5005,310005,17076,-608,588,17096.94,31.59,-1.00,-1.0,2374
5010,310010,17032,-580,724,17057.24,31.59,-1.00,-1.0,2432
5013,310013,17008,-672,600,17031.84,31.64,-1.00,-1.0,2370
5016,310016,17012,-564,564,17030.69,31.59,-1.00,-1.0,2433
5018,310018,17040,-632,668,17064.79,31.73,-1.00,-1.0,2370
5021,310021,17072,-596,660,17095.15,31.59,-1.00,-1.0,2364
5024,310024,17120,-612,600,17141.44,31.64,-1.00,-1.0,2418
5027,310027,17056,-576,728,17081.24,31.68,-1.00,-1.0,2370
5029,310029,17088,-640,736,17115.81,31.59,-1.00,-1.0,2418
5032,310032,17028,-632,728,17055.27,31.68,-1.00,-1.0,2382
5037,310037,17052,-648,444,17070.08,31.68,-1.00,-1.0,2440
5040,310040,17072,-596,780,17100.20,31.59,-1.00,-1.0,2377
5043,310043,17104,-628,676,17128.87,31.68,-1.00,-1.0,2415
5045,310045,17000,-520,736,17023.87,31.59,-1.00,-1.0,2374
5048,310048,17052,-592,552,17071.20,31.68,-1.00,-1.0,2424
5051,310051,16964,-644,604,16986.96,31.68,-1.00,-1.0,2390
5054,310054,16984,-652,740,17012.61,31.64,-1.00,-1.0,2367
5056,310056,16948,-600,604,16969.37,31.64,-1.00,-1.0,2419
5059,310059,17068,-728,624,17094.91,31.68,-1.00,-1.0,2379
5064,310064,17024,-580,660,17046.66,31.68,-1.00,-1.0,2436
5067,310067,17076,-648,704,17102.79,31.68,-1.00,-1.0,2385
5070,310070,17164,-568,744,17189.50,31.64,-1.00,-1.0,2428
5073,310073,17108,-544,652,17129.06,31.78,-1.00,-1.0,2370
5075,310075,17032,-588,652,17054.62,31.64,-1.00,-1.0,2420
5078,310078,17100,-616,740,17127.09,31.68,-1.00,-1.0,2374
5081,310081,17052,-660,760,17081.68,31.64,-1.00,-1.0,2418
5084,310084,17020,-612,624,17042.43,31.68,-1.00,-1.0,2367
5086,310086,17104,-628,592,17125.76,31.68,-1.00,-1.0,2374
5091,310091,17020,-656,656,17045.27,31.59,-1.00,-1.0,2436
5094,310094,17080,-668,688,17106.90,31.68,-1.00,-1.0,2385
5097,310097,17044,-692,780,17075.87,31.73,-1.00,-1.0,2429
5100,310100,17092,-600,740,17118.53,31.64,-1.00,-1.0,2370
5102,310102,17116,-552,768,17142.11,31.64,-1.00,-1.0,2418
5105,310105,17132,-588,684,17155.73,31.64,-1.00,-1.0,2373
5108,310108,17060,-648,640,17084.29,31.64,-1.00,-1.0,2419
5111,310111,17084,-628,600,17106.06,31.64,-1.00,-1.0,2373
5117,310117,17008,-600,728,17034.14,31.64,-1.00,-1.0,2441
5120,310120,17180,-720,628,17206.54,31.64,-1.00,-1.0,2359
5123,310123,17080,-608,704,17105.31,31.68,-1.00,-1.0,2374
5125,310125,17060,-672,616,17084.34,31.68,-1.00,-1.0,2427
5128,310128,17124,-640,696,17150.08,31.68,-1.00,-1.0,2373
5131,310131,17004,-672,540,17025.84,31.68,-1.00,-1.0,2426
5134,310134,17096,-604,500,17113.97,31.68,-1.00,-1.0,2380
5137,310137,17040,-552,696,17063.14,31.73,-1.00,-1.0,2425
5139,310139,17052,-628,636,17075.41,31.68,-1.00,-1.0,2373
5144,310144,17116,-632,632,17139.32,31.68,-1.00,-1.0,2429
5147,310147,17140,-624,736,17167.14,31.64,-1.00,-1.0,2371
5149,310149,17084,-600,496,17101.73,31.68,-1.00,-1.0,2427
5152,310152,16912,-636,712,16938.93,31.68,-1.00,-1.0,2371
5155,310155,17008,-728,656,17036.21,31.54,-1.00,-1.0,2369
5158,310158,17104,-652,708,17131.06,31.64,-1.00,-1.0,2434
5160,310160,16972,-572,700,16996.06,31.59,-1.00,-1.0,2378
5163,310163,17088,-564,724,17112.63,31.64,-1.00,-1.0,2419
5166,310166,17044,-616,636,17066.98,31.64,-1.00,-1.0,2374
5171,310171,17108,-556,640,17128.99,31.64,-1.00,-1.0,2436
5173,310173,17084,-604,548,17103.46,31.68,-1.00,-1.0,2370
5176,310176,17076,-564,680,17098.84,31.64,-1.00,-1.0,2441
5179,310179,17136,-556,580,17154.83,31.59,-1.00,-1.0,2370
5182,310182,17060,-612,672,17084.20,31.64,-1.00,-1.0,2366
5184,310184,17028,-532,608,17047.15,31.59,-1.00,-1.0,2418
5187,310187,17160,-584,692,17183.87,31.64,-1.00,-1.0,2371
5190,310190,17116,-648,636,17140.07,31.59,-1.00,-1.0,2419
5193,310193,17056,-536,716,17079.44,31.64,-1.00,-1.0,2369
5198,310198,17064,-548,752,17089.35,31.64,-1.00,-1.0,2436
5200,310200,17012,-688,656,17038.54,31.68,-1.00,-1.0,2375
5203,310203,17192,-596,548,17211.05,31.64,-1.00,-1.0,2434
5206,310206,17108,-656,740,17136.56,31.73,-1.00,-1.0,2359
5209,310209,17092,-688,740,17121.84,31.59,-1.00,-1.0,2429
5211,310211,17096,-668,824,17128.88,31.64,-1.00,-1.0,2379
5214,310214,17168,-708,712,17197.34,31.59,-1.00,-1.0,2365
5217,310217,16996,-620,568,17016.79,31.68,-1.00,-1.0,2425
5219,310219,17028,-632,672,17052.97,31.59,-1.00,-1.0,2366
5224,310224,17044,-688,756,17074.62,31.59,-1.00,-1.0,2431
5227,310227,17036,-584,616,17057.13,31.68,-1.00,-1.0,2420
5230,310230,16932,-524,656,16952.80,31.73,-1.00,-1.0,2433
5233,310233,17140,-652,652,17164.78,31.64,-1.00,-1.0,2382
5236,310236,17152,-544,644,17172.71,31.68,-1.00,-1.0,2423
5238,310238,17096,-596,708,17121.03,31.64,-1.00,-1.0,2381
5241,310241,17024,-680,624,17049.00,31.59,-1.00,-1.0,2416
5244,310244,17032,-664,704,17059.47,31.64,-1.00,-1.0,2378
5246,310246,17036,-588,584,17056.14,31.68,-1.00,-1.0,2366
5251,310251,17076,-604,716,17101.67,31.59,-1.00,-1.0,2425
5254,310254,17068,-616,788,17097.28,31.68,-1.00,-1.0,2381
5257,310257,16992,-652,752,17021.12,31.68,-1.00,-1.0,2415
5260,310260,17088,-644,660,17112.86,31.73,-1.00,-1.0,2421
5263,310263,17136,-596,580,17156.17,31.59,-1.00,-1.0,2438
5265,310265,17128,-740,544,17152.61,31.68,-1.00,-1.0,2382
5268,310268,17100,-644,672,17125.31,31.68,-1.00,-1.0,2413
5271,310271,17124,-648,692,17150.22,31.68,-1.00,-1.0,2376
5276,310276,16944,-692,688,16972.08,31.64,-1.00,-1.0,2428
5278,310278,17140,-532,740,17164.21,31.64,-1.00,-1.0,2379
5281,310281,17036,-676,796,17067.98,31.68,-1.00,-1.0,2365
5284,310284,17048,-600,572,17068.14,31.64,-1.00,-1.0,2426
5287,310287,17000,-608,724,17026.27,31.59,-1.00,-1.0,2370
5289,310289,17088,-720,588,17113.27,31.73,-1.00,-1.0,2419
5292,310292,17096,-612,600,17117.47,31.68,-1.00,-1.0,2371
5295,310295,17024,-712,736,17054.77,31.64,-1.00,-1.0,2419
5298,310298,16996,-560,704,17019.79,31.59,-1.00,-1.0,2369
5303,310303,17040,-560,692,17063.24,31.78,-1.00,-1.0,2426
5305,310305,17172,-608,584,17192.68,31.59,-1.00,-1.0,2392
5308,310308,17112,-612,644,17135.05,31.68,-1.00,-1.0,2425
5311,310311,17004,-692,808,17037.25,31.68,-1.00,-1.0,2371
5313,310313,17060,-472,676,17079.91,31.64,-1.00,-1.0,2367
5316,310316,17072,-620,588,17093.37,31.73,-1.00,-1.0,2420
5319,310319,17080,-680,704,17108.02,31.64,-1.00,-1.0,2371
5322,310322,17064,-656,500,17083.92,31.64,-1.00,-1.0,2420
5324,310324,17056,-712,600,17081.40,31.64,-1.00,-1.0,2370
5329,310329,16988,-688,652,17014.42,31.64,-1.00,-1.0,2423
5332,310332,17104,-648,628,17127.79,31.73,-1.00,-1.0,2380
5335,310335,17164,-624,572,17184.86,31.68,-1.00,-1.0,2431
5337,310337,17116,-592,676,17139.57,31.64,-1.00,-1.0,2370
5340,310340,17028,-720,636,17055.08,31.59,-1.00,-1.0,2426
5343,310343,17024,-644,596,17046.60,31.54,-1.00,-1.0,2372
5346,310346,17164,-720,688,17192.87,31.59,-1.00,-1.0,2373
5348,310348,17004,-640,696,17030.27,31.64,-1.00,-1.0,2418
5351,310351,17004,-744,644,17032.45,31.59,-1.00,-1.0,2365
5356,310356,16964,-588,576,16983.96,31.73,-1.00,-1.0,2427
5358,310358,17048,-664,688,17074.79,31.64,-1.00,-1.0,2379
5361,310361,17080,-644,744,17108.32,31.59,-1.00,-1.0,2426
5364,310364,16928,-644,720,16955.54,31.64,-1.00,-1.0,2371
5367,310367,17052,-664,644,17077.07,31.59,-1.00,-1.0,2426
5369,310369,17112,-640,792,17142.27,31.64,-1.00,-1.0,2371
5372,310372,17084,-744,632,17111.87,31.68,-1.00,-1.0,2373
5375,310375,17072,-648,644,17096.43,31.64,-1.00,-1.0,2419
5378,310378,17032,-696,592,17056.49,31.64,-1.00,-1.0,2371
5383,310383,17064,-524,716,17087.05,31.64,-1.00,-1.0,2422
5385,310385,17040,-568,660,17062.23,31.78,-1.00,-1.0,2386
5388,310388,17200,-688,580,17223.52,31.73,-1.00,-1.0,2425
5391,310391,17060,-604,836,17091.15,31.64,-1.00,-1.0,2375
5394,310394,17096,-636,544,17116.47,31.64,-1.00,-1.0,2419
5396,310396,17152,-556,652,17173.39,31.64,-1.00,-1.0,2373
5399,310399,17032,-580,644,17054.04,31.64,-1.00,-1.0,2419
5402,310402,17072,-612,756,17099.69,31.73,-1.00,-1.0,2374
5405,310405,17100,-644,748,17128.46,31.64,-1.00,-1.0,2366
5410,310410,17036,-660,696,17062.98,31.64,-1.00,-1.0,2420
5412,310412,16960,-564,720,16984.64,31.64,-1.00,-1.0,2388
5415,310415,17120,-640,860,17153.53,31.64,-1.00,-1.0,2412
5418,310418,17104,-588,712,17128.91,31.64,-1.00,-1.0,2374
5421,310421,17132,-544,728,17156.09,31.64,-1.00,-1.0,2419
5423,310423,17184,-552,756,17209.48,31.64,-1.00,-1.0,2372
5426,310426,17052,-688,628,17077.42,31.64,-1.00,-1.0,2418
5429,310429,17136,-584,704,17160.39,31.64,-1.00,-1.0,2374
5434,310434,17160,-476,692,17180.54,31.64,-1.00,-1.0,2424
5436,310436,16992,-608,636,17014.77,31.59,-1.00,-1.0,2385
5439,310439,17136,-540,624,17155.86,31.64,-1.00,-1.0,2365
5442,310442,17068,-700,612,17093.31,31.68,-1.00,-1.0,2424
5445,310445,17068,-652,640,17092.44,31.64,-1.00,-1.0,2369
5447,310447,16924,-632,504,16943.29,31.68,-1.00,-1.0,2405
5450,310450,17096,-580,620,17117.07,31.64,-1.00,-1.0,2371
5453,310453,16976,-632,676,17001.21,31.59,-1.00,-1.0,2418
5456,310456,17068,-668,612,17092.03,31.68,-1.00,-1.0,2377
5461,310461,17092,-624,672,17116.58,31.68,-1.00,-1.0,2428
5463,310463,17080,-564,600,17099.84,31.64,-1.00,-1.0,2375
5466,310466,16996,-600,616,17017.74,31.68,-1.00,-1.0,2433
5469,310469,17168,-660,884,17203.41,31.59,-1.00,-1.0,2371
5471,310471,17068,-544,648,17088.96,31.73,-1.00,-1.0,2367
5474,310474,17052,-640,692,17078.03,31.64,-1.00,-1.0,2425
5477,310477,17060,-568,740,17085.49,31.68,-1.00,-1.0,2385
5480,310480,17028,-524,604,17046.76,31.64,-1.00,-1.0,2424
5483,310483,17032,-616,812,17062.47,31.68,-1.00,-1.0,2379
5488,310488,17116,-708,840,17151.22,31.59,-1.00,-1.0,2428
5490,310490,17088,-636,628,17111.36,31.68,-1.00,-1.0,2379
5493,310493,17124,-712,600,17149.29,31.64,-1.00,-1.0,2426
5496,310496,17096,-604,700,17120.98,31.68,-1.00,-1.0,2371
5499,310499,17148,-544,580,17166.43,31.64,-1.00,-1.0,2426
5501,310501,17112,-584,612,17132.90,31.68,-1.00,-1.0,2371
5504,310504,17048,-568,640,17069.46,31.64,-1.00,-1.0,2373
5507,310507,17028,-576,628,17049.31,31.59,-1.00,-1.0,2418
5510,310510,17016,-720,640,17043.25,31.64,-1.00,-1.0,2374
5515,310515,17028,-608,712,17053.72,31.68,-1.00,-1.0,2422
5517,310517,17096,-632,716,17122.65,31.68,-1.00,-1.0,2374
5520,310520,17072,-660,536,17093.16,31.64,-1.00,-1.0,2426
5523,310523,17056,-600,720,17081.73,31.59,-1.00,-1.0,2377
5526,310526,17032,-592,708,17056.99,31.64,-1.00,-1.0,2426
5528,310528,17124,-524,684,17145.66,31.68,-1.00,-1.0,2373
5531,310531,17004,-672,732,17033.01,31.64,-1.00,-1.0,2432
5534,310534,17116,-636,676,17141.15,31.68,-1.00,-1.0,2371
5537,310537,17096,-616,776,17124.69,31.64,-1.00,-1.0,2371
5542,310542,16956,-540,816,16984.21,31.59,-1.00,-1.0,2423
5544,310544,17052,-664,736,17080.79,31.64,-1.00,-1.0,2387
5547,310547,17076,-612,752,17103.50,31.68,-1.00,-1.0,2425
5550,310550,17056,-640,728,17083.52,31.68,-1.00,-1.0,2374
5553,310553,17172,-600,664,17195.30,31.59,-1.00,-1.0,2419
5555,310555,17068,-652,716,17095.45,31.59,-1.00,-1.0,2372
5558,310558,17168,-604,608,17189.38,31.68,-1.00,-1.0,2418
5561,310561,17008,-680,480,17028.36,31.78,-1.00,-1.0,2375
5564,310564,17044,-708,564,17068.02,31.64,-1.00,-1.0,2367
5568,310568,17016,-756,624,17044.21,31.64,-1.00,-1.0,2420
5571,310571,17072,-552,680,17094.45,31.59,-1.00,-1.0,2380
5574,310574,17124,-640,808,17154.99,31.59,-1.00,-1.0,2425
5577,310577,17004,-556,764,17030.23,31.68,-1.00,-1.0,2379
5579,310579,17132,-640,692,17157.91,31.64,-1.00,-1.0,2419
5582,310582,17128,-692,692,17155.94,31.64,-1.00,-1.0,2374
5585,310585,17156,-720,588,17181.17,31.73,-1.00,-1.0,2419
5588,310588,17020,-624,692,17045.49,31.68,-1.00,-1.0,2374
5593,310593,17076,-712,660,17103.58,31.64,-1.00,-1.0,2429
5595,310595,17088,-624,628,17110.92,31.73,-1.00,-1.0,2379
5598,310598,17040,-600,872,17072.84,31.78,-1.00,-1.0,2364
5601,310601,17040,-608,668,17063.92,31.68,-1.00,-1.0,2425
5604,310604,17000,-588,616,17021.32,31.59,-1.00,-1.0,2369
5606,310606,17008,-604,660,17031.51,31.73,-1.00,-1.0,2418
5609,310609,17052,-532,644,17072.45,31.68,-1.00,-1.0,2371
5612,310612,17104,-592,608,17125.04,31.59,-1.00,-1.0,2422
5615,310615,16984,-528,632,17003.96,31.59,-1.00,-1.0,2370
5620,310620,17116,-516,748,17140.11,31.68,-1.00,-1.0,2407
5622,310622,17140,-600,864,17172.25,31.64,-1.00,-1.0,2383
5625,310625,17008,-656,700,17035.04,31.68,-1.00,-1.0,2433
5628,310628,17064,-556,680,17086.59,31.59,-1.00,-1.0,2386
5631,310631,17008,-576,764,17034.89,31.64,-1.00,-1.0,2366
5633,310633,17096,-544,604,17115.31,31.73,-1.00,-1.0,2418
5636,310636,17096,-660,696,17122.89,31.64,-1.00,-1.0,2371
5639,310639,17108,-576,736,17133.51,31.64,-1.00,-1.0,2418
5642,310642,17020,-628,800,17050.36,31.68,-1.00,-1.0,2370
5647,310647,16976,-656,544,16997.38,31.68,-1.00,-1.0,2425
5650,310650,16968,-680,632,16993.38,31.59,-1.00,-1.0,2386
5652,310652,17084,-644,792,17114.47,31.64,-1.00,-1.0,2425
5655,310655,17080,-656,684,17106.27,31.59,-1.00,-1.0,2371
5658,310658,17064,-648,544,17084.96,31.68,-1.00,-1.0,2418
5661,310661,17072,-572,656,17094.17,31.68,-1.00,-1.0,2371
5663,310663,16976,-568,780,17003.40,31.64,-1.00,-1.0,2366
5666,310666,17072,-720,772,17104.61,31.68,-1.00,-1.0,2418
5669,310669,16980,-580,696,17004.15,31.54,-1.00,-1.0,2372
5674,310674,16972,-592,684,16996.09,31.68,-1.00,-1.0,2420
5677,310677,16976,-692,676,17003.54,31.68,-1.00,-1.0,2372
5679,310679,17068,-756,800,17103.46,31.73,-1.00,-1.0,2425
5682,310682,16992,-596,604,17013.17,31.68,-1.00,-1.0,2377
5685,310685,17104,-616,728,17130.56,31.64,-1.00,-1.0,2418
5688,310688,17092,-616,728,17118.58,31.68,-1.00,-1.0,2370
5690,310690,17020,-648,668,17045.43,31.54,-1.00,-1.0,2419
5693,310693,17140,-648,620,17163.45,31.64,-1.00,-1.0,2371
5696,310696,17176,-684,760,17206.41,31.64,-1.00,-1.0,2366
5701,310701,16932,-640,612,16955.14,31.68,-1.00,-1.0,2421
5704,310704,17084,-656,736,17112.43,31.59,-1.00,-1.0,2374
5706,310706,17088,-556,712,17111.86,31.64,-1.00,-1.0,2431
5709,310709,17096,-636,700,17122.14,31.64,-1.00,-1.0,2372
5712,310712,17096,-620,544,17115.89,31.73,-1.00,-1.0,2421
5715,310715,17124,-616,708,17149.70,31.64,-1.00,-1.0,2370
5717,310717,17096,-652,692,17122.42,31.73,-1.00,-1.0,2418
5720,310720,17152,-596,768,17179.53,31.64,-1.00,-1.0,2371
5725,310725,17012,-608,692,17036.92,31.73,-1.00,-1.0,2428
5728,310728,17168,-648,656,17192.74,31.68,-1.00,-1.0,2372
5730,310730,17044,-560,604,17063.89,31.64,-1.00,-1.0,2364
5733,310733,17160,-652,660,17185.06,31.78,-1.00,-1.0,2426
5736,310736,17116,-576,720,17140.82,31.64,-1.00,-1.0,2371
5739,310739,17068,-648,708,17094.96,31.68,-1.00,-1.0,2426
5741,310741,17120,-696,684,17147.79,31.73,-1.00,-1.0,2370
5744,310744,16912,-564,696,16935.71,31.68,-1.00,-1.0,2420
5747,310747,17056,-652,824,17088.34,31.59,-1.00,-1.0,2379
5752,310752,17100,-552,696,17123.06,31.68,-1.00,-1.0,2422
5754,310754,17072,-604,628,17094.22,31.59,-1.00,-1.0,2382
5757,310757,17068,-568,688,17091.30,31.73,-1.00,-1.0,2366
5760,310760,17068,-616,564,17088.42,31.59,-1.00,-1.0,2425
5763,310763,17092,-636,772,17121.24,31.64,-1.00,-1.0,2371
5765,310765,17072,-632,656,17096.29,31.68,-1.00,-1.0,2405
5768,310768,17124,-716,684,17152.61,31.73,-1.00,-1.0,2371
5771,310771,17120,-604,636,17142.45,31.64,-1.00,-1.0,2419
5774,310774,17076,-584,712,17100.81,31.64,-1.00,-1.0,2387
5779,310779,17112,-684,548,17134.43,31.68,-1.00,-1.0,2427
5781,310781,17000,-660,676,17026.23,31.73,-1.00,-1.0,2379
5784,310784,17096,-724,560,17120.48,31.68,-1.00,-1.0,2425
5787,310787,16992,-652,716,17019.57,31.68,-1.00,-1.0,2371
5790,310790,17060,-652,608,17083.28,31.64,-1.00,-1.0,2368
5792,310792,17116,-600,652,17138.92,31.64,-1.00,-1.0,2421
5795,310795,17032,-684,740,17061.79,31.54,-1.00,-1.0,2378
5798,310798,17140,-664,788,17170.95,31.64,-1.00,-1.0,2418
5801,310801,17040,-612,664,17063.91,31.64,-1.00,-1.0,2374
5806,310806,17152,-572,752,17178.00,31.64,-1.00,-1.0,2427
5809,310809,17060,-668,564,17082.39,31.59,-1.00,-1.0,2377
5812,310812,17036,-644,676,17061.56,31.64,-1.00,-1.0,2438
5814,310814,17080,-588,828,17110.16,31.73,-1.00,-1.0,2376
5817,310817,17056,-660,764,17085.86,31.64,-1.00,-1.0,2428
5820,310820,17028,-616,592,17049.42,31.68,-1.00,-1.0,2379
5822,310822,17068,-572,828,17097.64,31.59,-1.00,-1.0,2366
5825,310825,17112,-688,632,17137.48,31.68,-1.00,-1.0,2418
5828,310828,17132,-672,504,17152.58,31.64,-1.00,-1.0,2374
5833,310833,17020,-668,668,17046.20,31.64,-1.00,-1.0,2435
5836,310836,17096,-620,740,17123.24,31.68,-1.00,-1.0,2390
5839,310839,17116,-608,672,17139.97,31.68,-1.00,-1.0,2425
5841,310841,16984,-724,608,17010.29,31.73,-1.00,-1.0,2378
5844,310844,17148,-604,704,17173.07,31.68,-1.00,-1.0,2419
5847,310847,17104,-568,648,17125.69,31.73,-1.00,-1.0,2362
5850,310850,17048,-536,648,17068.73,31.68,-1.00,-1.0,2418
5852,310852,17160,-668,772,17190.34,31.73,-1.00,-1.0,2378
5855,310855,17044,-580,824,17073.76,31.68,-1.00,-1.0,2365
5860,310860,17108,-684,716,17136.63,31.64,-1.00,-1.0,2430
5863,310863,17012,-584,572,17031.63,31.73,-1.00,-1.0,2388
5866,310866,17100,-736,760,17132.70,31.68,-1.00,-1.0,2425
5868,310868,17136,-484,648,17155.08,31.64,-1.00,-1.0,2381
5871,310871,17072,-500,744,17095.52,31.68,-1.00,-1.0,2418
5874,310874,16924,-568,592,16943.87,31.59,-1.00,-1.0,2373
5877,310877,17016,-624,764,17044.57,31.68,-1.00,-1.0,2422
5879,310879,17052,-644,652,17076.61,31.59,-1.00,-1.0,2372
5884,310884,17060,-628,748,17087.93,31.64,-1.00,-1.0,2430
5887,310887,17052,-540,664,17073.46,31.73,-1.00,-1.0,2394
5890,310890,17116,-652,704,17142.88,31.59,-1.00,-1.0,2366
5893,310893,17148,-616,788,17177.14,31.68,-1.00,-1.0,2465
5895,310895,16980,-628,788,17009.87,31.68,-1.00,-1.0,2379
5898,310898,17056,-604,544,17075.36,31.59,-1.00,-1.0,2422
5901,310901,17072,-664,712,17099.74,31.59,-1.00,-1.0,2376
5904,310904,17048,-628,644,17071.71,31.59,-1.00,-1.0,2423
5906,310906,17076,-556,696,17099.22,31.59,-1.00,-1.0,2370
5911,310911,17088,-696,580,17112.00,31.59,-1.00,-1.0,2435
5914,310914,17092,-588,564,17111.41,31.64,-1.00,-1.0,2383
5917,310917,17044,-608,760,17071.77,31.68,-1.00,-1.0,2432
5920,310920,17040,-648,664,17065.24,31.68,-1.00,-1.0,2376
5922,310922,17084,-644,652,17108.56,31.73,-1.00,-1.0,2366
5925,310925,17072,-628,744,17099.74,31.64,-1.00,-1.0,2422
5928,310928,17024,-628,692,17049.63,31.78,-1.00,-1.0,2376
5930,310930,17060,-620,616,17082.37,31.64,-1.00,-1.0,2423
5933,310933,17144,-620,696,17169.32,31.73,-1.00,-1.0,2370
5938,310938,17056,-620,768,17084.54,31.68,-1.00,-1.0,2427
5941,310941,17156,-640,604,17178.55,31.68,-1.00,-1.0,2368
5944,310944,17044,-644,720,17071.35,31.68,-1.00,-1.0,2429
5946,310946,17076,-676,512,17097.04,31.68,-1.00,-1.0,2367
5949,310949,17060,-556,824,17088.94,31.73,-1.00,-1.0,2366
5952,310952,17040,-624,740,17067.47,31.68,-1.00,-1.0,2434
5954,310954,17108,-728,660,17136.20,31.73,-1.00,-1.0,2368
5957,310957,17056,-532,696,17078.48,31.68,-1.00,-1.0,2437
5960,310960,16996,-528,732,17019.95,31.73,-1.00,-1.0,2372
5967,310967,17060,-584,644,17082.14,31.64,-1.00,-1.0,2428
5970,310970,17076,-564,780,17103.11,31.64,-1.00,-1.0,2376
5972,310972,16960,-640,676,16985.53,31.73,-1.00,-1.0,2429
5975,310975,17072,-696,644,17098.31,31.73,-1.00,-1.0,2377
5978,310978,17024,-656,560,17045.84,31.59,-1.00,-1.0,2438
5981,310981,17028,-728,684,17057.28,31.73,-1.00,-1.0,2364
5983,310983,17060,-592,656,17082.87,31.59,-1.00,-1.0,2375
5986,310986,17192,-664,764,17221.77,31.64,-1.00,-1.0,2422
5989,310989,17020,-592,824,17050.21,31.68,-1.00,-1.0,2371
5994,310994,17232,-608,728,17258.08,31.68,-1.00,-1.0,2437
5996,310996,17036,-592,712,17061.15,31.68,-1.00,-1.0,2374
5999,310999,17048,-728,620,17074.80,31.78,-1.00,-1.0,2438
6002,311002,17088,-584,640,17109.95,31.68,-1.00,-1.0,2366
6005,311005,17052,-544,732,17076.37,31.68,-1.00,-1.0,2431
6007,311007,17088,-608,660,17111.55,31.68,-1.00,-1.0,2376
6010,311010,17140,-600,668,17163.50,31.64,-1.00,-1.0,2422
6013,311013,17064,-572,748,17089.96,31.68,-1.00,-1.0,2373
6015,311015,17088,-624,636,17111.21,31.64,-1.00,-1.0,2367
6020,311020,17124,-564,608,17144.07,31.73,-1.00,-1.0,2430
6023,311023,17060,-500,668,17080.39,31.59,-1.00,-1.0,2355
6026,311026,17080,-680,632,17105.21,31.64,-1.00,-1.0,2429
6029,311029,17084,-524,580,17101.87,31.59,-1.00,-1.0,2376
6031,311031,17008,-632,688,17033.64,31.64,-1.00,-1.0,2421
6034,311034,17032,-612,752,17059.57,31.73,-1.00,-1.0,2370
6037,311037,17176,-644,652,17200.43,31.64,-1.00,-1.0,2409
6040,311040,17012,-608,676,17036.28,31.78,-1.00,-1.0,2369
6045,311045,17124,-648,596,17146.62,31.59,-1.00,-1.0,2428
6047,311047,17064,-588,604,17084.81,31.68,-1.00,-1.0,2369
6050,311050,17060,-680,720,17088.72,31.73,-1.00,-1.0,2368
6053,311053,17112,-560,676,17134.50,31.73,-1.00,-1.0,2429
6055,311055,16988,-660,720,17016.05,31.64,-1.00,-1.0,2379
6058,311058,17108,-564,588,17127.39,31.64,-1.00,-1.0,2425
6061,311061,17100,-568,748,17125.77,31.64,-1.00,-1.0,2357
6064,311064,17092,-548,624,17112.16,31.73,-1.00,-1.0,2429
6066,311066,17020,-604,656,17043.34,31.73,-1.00,-1.0,2372
6071,311071,17064,-528,652,17084.61,31.64,-1.00,-1.0,2436
6074,311074,17028,-604,780,17056.55,31.68,-1.00,-1.0,2384
6077,311077,17052,-632,632,17075.41,31.73,-1.00,-1.0,2430
6080,311080,16956,-652,632,16980.30,31.68,-1.00,-1.0,2372
6082,311082,17124,-508,704,17145.99,31.68,-1.00,-1.0,2369
6085,311085,17124,-692,604,17148.62,31.68,-1.00,-1.0,2422
6088,311088,17076,-676,668,17102.43,31.68,-1.00,-1.0,2375
6090,311090,17080,-620,748,17107.61,31.68,-1.00,-1.0,2422
6093,311093,17112,-656,592,17134.80,31.68,-1.00,-1.0,2370
6098,311098,17160,-588,572,17179.60,31.64,-1.00,-1.0,2428
6101,311101,17036,-684,728,17065.26,31.64,-1.00,-1.0,2372
6104,311104,16960,-576,736,16985.73,31.78,-1.00,-1.0,2429
6106,311106,16992,-612,716,17018.09,31.64,-1.00,-1.0,2375
6109,311109,17008,-664,620,17032.24,31.68,-1.00,-1.0,2422
6112,311112,17176,-592,568,17195.58,31.64,-1.00,-1.0,2369
6114,311114,17008,-552,788,17035.19,31.68,-1.00,-1.0,2367
6117,311117,16996,-560,672,17018.50,31.64,-1.00,-1.0,2435
6120,311120,17064,-536,548,17081.21,31.68,-1.00,-1.0,2373
6125,311125,17088,-648,752,17116.81,31.78,-1.00,-1.0,2431
6128,311128,17040,-692,564,17063.37,31.68,-1.00,-1.0,2372
6130,311130,17036,-700,676,17063.77,31.59,-1.00,-1.0,2429
6133,311133,17100,-672,640,17125.16,31.68,-1.00,-1.0,2376
6136,311136,17108,-596,608,17129.17,31.68,-1.00,-1.0,2422
6139,311139,17080,-584,816,17109.45,31.68,-1.00,-1.0,2370
6141,311141,16988,-692,532,17010.41,31.73,-1.00,-1.0,2376
6144,311144,17084,-484,548,17099.64,31.54,-1.00,-1.0,2428
6147,311147,17100,-660,636,17124.55,31.64,-1.00,-1.0,2374
6152,311152,17012,-628,688,17037.48,31.68,-1.00,-1.0,2430
6154,311154,17048,-560,712,17072.05,31.68,-1.00,-1.0,2369
6157,311157,16988,-628,592,17009.91,31.64,-1.00,-1.0,2432
6160,311160,16968,-632,660,16992.59,31.68,-1.00,-1.0,2375
6163,311163,17036,-712,732,17066.58,31.64,-1.00,-1.0,2428
6165,311165,17072,-636,732,17099.52,31.68,-1.00,-1.0,2369
6168,311168,16992,-556,664,17014.06,31.73,-1.00,-1.0,2430
6171,311171,17000,-580,632,17021.63,31.68,-1.00,-1.0,2369
6174,311174,17064,-656,660,17089.35,31.54,-1.00,-1.0,2368
6178,311178,17084,-608,652,17107.24,31.68,-1.00,-1.0,2430
6181,311181,17136,-596,684,17160.00,31.64,-1.00,-1.0,2355
6184,311184,17000,-616,712,17026.05,31.68,-1.00,-1.0,2428
6187,311187,17044,-572,700,17067.96,31.64,-1.00,-1.0,2369
6189,311189,16936,-616,692,16961.32,31.68,-1.00,-1.0,2428
6192,311192,17080,-636,576,17101.54,31.78,-1.00,-1.0,2369
6195,311195,17052,-616,652,17075.57,31.59,-1.00,-1.0,2409
6198,311198,17052,-640,484,17070.87,31.64,-1.00,-1.0,2368
6202,311202,17144,-632,576,17165.31,31.64,-1.00,-1.0,2430
6205,311205,17092,-632,724,17119.00,31.68,-1.00,-1.0,2368
6208,311208,17064,-640,600,17086.54,31.73,-1.00,-1.0,2372
6210,311210,17036,-592,752,17062.86,31.59,-1.00,-1.0,2417
6213,311213,17096,-672,752,17125.72,31.64,-1.00,-1.0,2377
6216,311216,17012,-688,696,17040.13,31.68,-1.00,-1.0,2423
6219,311219,17128,-708,668,17155.64,31.68,-1.00,-1.0,2369
6222,311222,17040,-584,608,17060.84,31.73,-1.00,-1.0,2422
6224,311224,17080,-672,736,17109.05,31.59,-1.00,-1.0,2370
