timestamp_ms,global_ms,accel_x,accel_y,accel_z,accel_mag,temp_c,voltage,soc,loop_us
3,1525003,17052,-592,916,17086.84,28.48,-1.00,-1.0,2498
9,1525009,17012,-604,820,17042.46,28.48,-1.00,-1.0,2446
12,1525012,17008,-580,1016,17048.19,28.48,-1.00,-1.0,2387
14,1525014,17104,-648,988,17144.76,28.58,-1.00,-1.0,2366
17,1525017,17012,-516,840,17040.54,28.44,-1.00,-1.0,2419
20,1525020,17008,-580,820,17037.63,28.53,-1.00,-1.0,2369
23,1525023,17044,-456,968,17077.55,28.53,-1.00,-1.0,2418
25,1525025,17168,-524,896,17199.35,28.39,-1.00,-1.0,2367
28,1525028,16984,-648,884,17019.33,28.53,-1.00,-1.0,2417
31,1525031,17060,-644,908,17096.28,28.48,-1.00,-1.0,2369
36,1525036,17016,-532,972,17052.04,28.48,-1.00,-1.0,2443
38,1525038,17052,-536,912,17084.78,28.48,-1.00,-1.0,2366
41,1525041,16976,-572,824,17005.61,28.48,-1.00,-1.0,2433
44,1525044,16988,-544,860,17018.45,28.58,-1.00,-1.0,2376
47,1525047,17020,-628,912,17055.98,28.34,-1.00,-1.0,2366
49,1525049,17032,-576,920,17066.55,28.53,-1.00,-1.0,2417
52,1525052,16992,-664,940,17030.93,28.53,-1.00,-1.0,2376
55,1525055,16964,-564,796,16992.03,28.44,-1.00,-1.0,2433
58,1525058,17008,-596,868,17040.56,28.53,-1.00,-1.0,2370
63,1525063,16944,-500,976,16979.45,28.44,-1.00,-1.0,2441
65,1525065,17020,-632,948,17058.09,28.48,-1.00,-1.0,2371
68,1525068,17036,-580,748,17062.27,28.53,-1.00,-1.0,2418
71,1525071,17052,-532,1052,17092.70,28.62,-1.00,-1.0,2373
73,1525073,17000,-648,1016,17042.66,28.48,-1.00,-1.0,2367
76,1525076,17028,-608,996,17067.94,28.48,-1.00,-1.0,2443
79,1525079,17012,-532,824,17040.25,28.39,-1.00,-1.0,2383
82,1525082,16948,-564,988,16986.14,28.53,-1.00,-1.0,2426
84,1525084,16924,-632,908,16960.12,28.48,-1.00,-1.0,2382
90,1525090,16964,-616,912,16999.66,28.48,-1.00,-1.0,2444
92,1525092,17028,-588,912,17062.54,28.48,-1.00,-1.0,2365
95,1525095,17004,-548,896,17036.41,28.39,-1.00,-1.0,2433
98,1525098,17116,-588,924,17151.01,28.58,-1.00,-1.0,2383
100,1525100,17036,-648,1084,17082.75,28.53,-1.00,-1.0,2366
103,1525103,17004,-556,960,17040.15,28.53,-1.00,-1.0,2417
106,1525106,17028,-488,1008,17064.79,28.44,-1.00,-1.0,2377
109,1525109,16932,-524,1000,16969.60,28.48,-1.00,-1.0,2445
112,1525112,17044,-500,972,17079.01,28.44,-1.00,-1.0,2372
117,1525117,17000,-468,872,17028.78,28.53,-1.00,-1.0,2429
119,1525119,17076,-488,884,17105.83,28.53,-1.00,-1.0,2374
122,1525122,17148,-600,816,17177.89,28.53,-1.00,-1.0,2405
125,1525125,17044,-552,740,17068.98,28.44,-1.00,-1.0,2372
128,1525128,17044,-564,792,17071.71,28.44,-1.00,-1.0,2418
130,1525130,17132,-532,1008,17169.87,28.44,-1.00,-1.0,2359
133,1525133,17056,-600,1016,17096.77,28.39,-1.00,-1.0,2360
136,1525136,16976,-564,1012,17015.49,28.48,-1.00,-1.0,2425
138,1525138,16984,-576,1080,17028.05,28.39,-1.00,-1.0,2374
143,1525143,16940,-456,856,16967.74,28.48,-1.00,-1.0,2442
146,1525146,17064,-620,904,17099.17,28.44,-1.00,-1.0,2358
149,1525149,17092,-584,864,17123.79,28.48,-1.00,-1.0,2424
152,1525152,17008,-624,940,17045.38,28.48,-1.00,-1.0,2370
154,1525154,17032,-536,684,17054.15,28.58,-1.00,-1.0,2420
157,1525157,17032,-464,876,17060.82,28.48,-1.00,-1.0,2372
160,1525160,17124,-556,816,17152.45,28.48,-1.00,-1.0,2425
163,1525163,17064,-572,956,17100.33,28.48,-1.00,-1.0,2385
165,1525165,17044,-660,860,17078.44,28.44,-1.00,-1.0,2389
170,1525170,17008,-476,1000,17044.02,28.58,-1.00,-1.0,2441
173,1525173,17076,-584,992,17114.76,28.44,-1.00,-1.0,2384
176,1525176,17052,-540,1004,17090.06,28.53,-1.00,-1.0,2430
178,1525178,17016,-632,1056,17060.45,28.44,-1.00,-1.0,2374
181,1525181,17088,-592,976,17126.08,28.44,-1.00,-1.0,2426
184,1525184,17040,-496,920,17072.02,28.53,-1.00,-1.0,2383
187,1525187,16992,-604,1004,17032.35,28.48,-1.00,-1.0,2427
189,1525189,17096,-616,784,17125.05,28.44,-1.00,-1.0,2380
194,1525194,17024,-600,848,17055.66,28.53,-1.00,-1.0,2449
197,1525197,17120,-572,956,17156.21,28.53,-1.00,-1.0,2386
200,1525200,17028,-632,884,17062.64,28.48,-1.00,-1.0,2366
203,1525203,17004,-620,860,17037.02,28.44,-1.00,-1.0,2418
205,1525205,16976,-548,864,17006.80,28.58,-1.00,-1.0,2372
208,1525208,17016,-556,868,17047.19,28.48,-1.00,-1.0,2417
211,1525211,17112,-608,944,17148.80,28.48,-1.00,-1.0,2371
214,1525214,17016,-652,816,17048.03,28.44,-1.00,-1.0,2419
216,1525216,17008,-564,852,17038.66,28.48,-1.00,-1.0,2372
221,1525221,17060,-536,884,17091.29,28.48,-1.00,-1.0,2441
224,1525224,17048,-596,864,17080.28,28.53,-1.00,-1.0,2379
227,1525227,17012,-640,916,17048.66,28.53,-1.00,-1.0,2417
229,1525229,16992,-624,956,17030.31,28.53,-1.00,-1.0,2375
232,1525232,17068,-552,940,17102.78,28.58,-1.00,-1.0,2371
235,1525235,17028,-592,932,17063.76,28.48,-1.00,-1.0,2420
237,1525237,17080,-592,868,17112.29,28.48,-1.00,-1.0,2366
240,1525240,16936,-496,868,16965.48,28.58,-1.00,-1.0,2428
243,1525243,17128,-540,932,17161.84,28.39,-1.00,-1.0,2376
248,1525248,17108,-668,804,17139.90,28.53,-1.00,-1.0,2431
250,1525250,17092,-572,888,17124.61,28.53,-1.00,-1.0,2371
253,1525253,17016,-572,992,17054.49,28.48,-1.00,-1.0,2438
256,1525256,16940,-552,964,16976.38,28.53,-1.00,-1.0,2380
259,1525259,17028,-584,892,17061.35,28.48,-1.00,-1.0,2434
261,1525261,17012,-472,912,17042.96,28.48,-1.00,-1.0,2381
264,1525264,16988,-600,896,17022.19,28.58,-1.00,-1.0,2366
267,1525267,17016,-464,812,17041.68,28.58,-1.00,-1.0,2431
270,1525270,16968,-568,876,17000.09,28.44,-1.00,-1.0,2387
275,1525275,17024,-624,928,17060.69,28.44,-1.00,-1.0,2450
278,1525278,17124,-568,896,17156.83,28.53,-1.00,-1.0,2371
280,1525280,17000,-620,912,17035.73,28.48,-1.00,-1.0,2427
283,1525283,17088,-520,828,17115.95,28.44,-1.00,-1.0,2371
286,1525286,17008,-572,940,17043.56,28.48,-1.00,-1.0,2420
289,1525289,17000,-608,848,17031.99,28.44,-1.00,-1.0,2372
291,1525291,17036,-556,976,17072.99,28.48,-1.00,-1.0,2426
294,1525294,17052,-476,908,17082.79,28.53,-1.00,-1.0,2371
297,1525297,17056,-668,852,17090.33,28.48,-1.00,-1.0,2378
302,1525302,17072,-536,928,17105.60,28.48,-1.00,-1.0,2452
305,1525305,17016,-680,876,17052.10,28.44,-1.00,-1.0,2368
307,1525307,17056,-584,992,17094.80,28.48,-1.00,-1.0,2428
310,1525310,16940,-612,1004,16980.76,28.48,-1.00,-1.0,2379
313,1525313,17032,-580,840,17062.56,28.58,-1.00,-1.0,2420
316,1525316,17032,-524,868,17062.15,28.48,-1.00,-1.0,2372
318,1525318,17112,-620,868,17145.21,28.48,-1.00,-1.0,2418
321,1525321,16960,-568,836,16990.09,28.48,-1.00,-1.0,2392
326,1525326,17008,-468,1008,17044.27,28.48,-1.00,-1.0,2454
329,1525329,16992,-592,852,17023.64,28.48,-1.00,-1.0,2377
331,1525331,17060,-624,880,17094.07,28.53,-1.00,-1.0,2365
334,1525334,17044,-572,988,17082.19,28.44,-1.00,-1.0,2418
337,1525337,17008,-624,992,17048.33,28.39,-1.00,-1.0,2374
340,1525340,17016,-572,996,17054.72,28.44,-1.00,-1.0,2432
343,1525343,17088,-604,860,17120.29,28.53,-1.00,-1.0,2371
345,1525345,17056,-544,968,17092.11,28.53,-1.00,-1.0,2417
348,1525348,17068,-528,972,17103.81,28.48,-1.00,-1.0,2359
353,1525353,16968,-532,944,17002.56,28.48,-1.00,-1.0,2444
356,1525356,17168,-612,1036,17210.12,28.44,-1.00,-1.0,2374
359,1525359,17000,-588,864,17032.09,28.53,-1.00,-1.0,2418
361,1525361,17132,-608,864,17164.54,28.53,-1.00,-1.0,2372
364,1525364,17064,-568,1020,17103.89,28.48,-1.00,-1.0,2374
367,1525367,17068,-532,852,17097.53,28.48,-1.00,-1.0,2425
369,1525369,17044,-528,868,17074.25,28.48,-1.00,-1.0,2386
372,1525372,17024,-524,812,17051.41,28.53,-1.00,-1.0,2427
375,1525375,17040,-592,1036,17081.73,28.48,-1.00,-1.0,2378
380,1525380,16996,-704,1024,17041.37,28.53,-1.00,-1.0,2441
383,1525383,16988,-652,848,17021.64,28.53,-1.00,-1.0,2370
386,1525386,17028,-780,1108,17081.83,28.44,-1.00,-1.0,2418
388,1525388,17044,-596,864,17076.29,28.44,-1.00,-1.0,2375
391,1525391,17024,-612,916,17059.61,28.53,-1.00,-1.0,2417
394,1525394,16948,-516,916,16980.58,28.44,-1.00,-1.0,2373
396,1525396,17020,-608,948,17057.22,28.39,-1.00,-1.0,2382
399,1525399,16948,-524,812,16975.53,28.53,-1.00,-1.0,2433
402,1525402,17132,-612,860,17164.49,28.53,-1.00,-1.0,2372
407,1525407,16992,-660,988,17033.49,28.53,-1.00,-1.0,2442
410,1525410,17056,-508,1016,17093.78,28.44,-1.00,-1.0,2373
413,1525413,17088,-552,852,17118.13,28.48,-1.00,-1.0,2419
415,1525415,17056,-544,916,17089.24,28.34,-1.00,-1.0,2372
418,1525418,16908,-524,928,16941.55,28.48,-1.00,-1.0,2420
421,1525421,17072,-600,856,17103.97,28.53,-1.00,-1.0,2371
424,1525424,17036,-616,748,17063.54,28.48,-1.00,-1.0,2417
426,1525426,17048,-676,880,17084.08,28.53,-1.00,-1.0,2384
429,1525429,16984,-564,832,17013.72,28.48,-1.00,-1.0,2367
434,1525434,17040,-680,920,17078.36,28.39,-1.00,-1.0,2440
437,1525437,17028,-592,852,17059.58,28.48,-1.00,-1.0,2368
439,1525439,16932,-580,956,16968.88,28.39,-1.00,-1.0,2419
442,1525442,16992,-636,1012,17033.99,28.58,-1.00,-1.0,2373
445,1525445,16988,-512,860,17017.46,28.39,-1.00,-1.0,2424
448,1525448,17112,-624,700,17137.68,28.48,-1.00,-1.0,2372
450,1525450,17040,-580,1008,17079.64,28.44,-1.00,-1.0,2418
453,1525453,17032,-684,912,17070.11,28.58,-1.00,-1.0,2388
458,1525458,17072,-512,944,17105.74,28.39,-1.00,-1.0,2441
460,1525460,16984,-536,920,17017.34,28.53,-1.00,-1.0,2355
463,1525463,16988,-644,900,17024.01,28.48,-1.00,-1.0,2366
466,1525466,16972,-556,868,17003.28,28.48,-1.00,-1.0,2424
469,1525469,17020,-576,736,17045.64,28.48,-1.00,-1.0,2371
471,1525471,17028,-468,936,17060.13,28.44,-1.00,-1.0,2425
474,1525474,17008,-588,900,17041.94,28.48,-1.00,-1.0,2370
477,1525477,17016,-588,872,17048.47,28.44,-1.00,-1.0,2420
480,1525480,17032,-604,976,17070.63,28.48,-1.00,-1.0,2364
485,1525485,17072,-560,964,17108.36,28.39,-1.00,-1.0,2438
488,1525488,17096,-560,960,17132.09,28.48,-1.00,-1.0,2370
490,1525490,17044,-520,964,17079.16,28.44,-1.00,-1.0,2368
493,1525493,17088,-620,944,17125.28,28.44,-1.00,-1.0,2413
496,1525496,17004,-680,980,17045.79,28.44,-1.00,-1.0,2378
499,1525499,17028,-556,916,17061.68,28.48,-1.00,-1.0,2434
501,1525501,17036,-556,952,17071.63,28.44,-1.00,-1.0,2392
504,1525504,17072,-632,924,17108.66,28.48,-1.00,-1.0,2418
507,1525507,17028,-580,948,17064.23,28.44,-1.00,-1.0,2372
512,1525512,17012,-532,972,17048.05,28.48,-1.00,-1.0,2441
515,1525515,17092,-528,844,17120.97,28.48,-1.00,-1.0,2371
518,1525518,17036,-568,936,17071.15,28.58,-1.00,-1.0,2426
521,1525521,17100,-528,1020,17138.53,28.48,-1.00,-1.0,2371
523,1525523,17000,-596,892,17033.82,28.53,-1.00,-1.0,2381
526,1525526,16976,-568,840,17006.26,28.39,-1.00,-1.0,2425
529,1525529,17012,-532,960,17047.37,28.44,-1.00,-1.0,2382
532,1525532,17080,-576,1028,17120.60,28.39,-1.00,-1.0,2424
534,1525534,16952,-568,996,16990.73,28.48,-1.00,-1.0,2365
539,1525539,17000,-480,924,17031.86,28.48,-1.00,-1.0,2456
542,1525542,17028,-496,972,17062.93,28.44,-1.00,-1.0,2379
545,1525545,17096,-628,940,17133.34,28.48,-1.00,-1.0,2422
547,1525547,17112,-532,848,17141.26,28.48,-1.00,-1.0,2380
550,1525550,16960,-580,964,16997.27,28.48,-1.00,-1.0,2417
553,1525553,17012,-532,868,17042.44,28.48,-1.00,-1.0,2375
556,1525556,17044,-632,788,17073.91,28.62,-1.00,-1.0,2368
558,1525558,16996,-568,824,17025.44,28.53,-1.00,-1.0,2428
561,1525561,17028,-600,912,17062.96,28.39,-1.00,-1.0,2387
566,1525566,17096,-540,976,17132.35,28.48,-1.00,-1.0,2457
569,1525569,17128,-524,868,17157.98,28.44,-1.00,-1.0,2379
572,1525572,17068,-544,876,17099.12,28.48,-1.00,-1.0,2428
574,1525574,17056,-600,852,17087.80,28.48,-1.00,-1.0,2378
577,1525577,16996,-556,804,17024.09,28.48,-1.00,-1.0,2417
580,1525580,17060,-576,700,17084.07,28.48,-1.00,-1.0,2370
583,1525583,16972,-604,808,17001.96,28.48,-1.00,-1.0,2427
585,1525585,16980,-636,984,17020.38,28.48,-1.00,-1.0,2364
588,1525588,16956,-492,1008,16993.06,28.48,-1.00,-1.0,2420
593,1525593,16904,-552,1032,16944.47,28.44,-1.00,-1.0,2442
596,1525596,17028,-616,888,17062.26,28.53,-1.00,-1.0,2372
599,1525599,16996,-596,972,17034.20,28.53,-1.00,-1.0,2423
602,1525602,17052,-508,928,17084.79,28.44,-1.00,-1.0,2370
604,1525604,17064,-508,872,17093.82,28.44,-1.00,-1.0,2418
607,1525607,16988,-668,1000,17030.51,28.44,-1.00,-1.0,2386
610,1525610,17060,-664,900,17096.62,28.48,-1.00,-1.0,2424
613,1525613,16976,-560,760,17002.23,28.53,-1.00,-1.0,2372
618,1525618,17088,-624,944,17125.43,28.34,-1.00,-1.0,2440
620,1525620,17036,-524,1028,17075.03,28.62,-1.00,-1.0,2373
623,1525623,16960,-568,904,16993.57,28.48,-1.00,-1.0,2373
626,1525626,17012,-584,800,17040.81,28.48,-1.00,-1.0,2428
628,1525628,17028,-564,812,17056.68,28.48,-1.00,-1.0,2379
631,1525631,17028,-512,924,17060.74,28.53,-1.00,-1.0,2416
634,1525634,17064,-516,928,17097.00,28.48,-1.00,-1.0,2364
637,1525637,16996,-592,804,17025.30,28.58,-1.00,-1.0,2428
639,1525639,17000,-608,868,17033.00,28.39,-1.00,-1.0,2366
644,1525644,17068,-616,988,17107.67,28.44,-1.00,-1.0,2440
647,1525647,17012,-560,928,17046.49,28.44,-1.00,-1.0,2373
650,1525650,16980,-592,952,17016.97,28.53,-1.00,-1.0,2423
653,1525653,17076,-608,948,17113.10,28.44,-1.00,-1.0,2371
655,1525655,17032,-552,892,17064.27,28.48,-1.00,-1.0,2376
658,1525658,16992,-624,824,17023.41,28.44,-1.00,-1.0,2413
661,1525661,16940,-600,948,16977.11,28.48,-1.00,-1.0,2374
663,1525663,16936,-556,960,16972.30,28.53,-1.00,-1.0,2414
666,1525666,17056,-576,840,17086.38,28.53,-1.00,-1.0,2387
671,1525671,16960,-624,868,16993.66,28.44,-1.00,-1.0,2436
674,1525674,17024,-592,1000,17063.62,28.39,-1.00,-1.0,2373
677,1525677,17036,-532,996,17073.38,28.44,-1.00,-1.0,2422
679,1525679,16996,-564,816,17024.92,28.44,-1.00,-1.0,2373
682,1525682,17072,-540,956,17107.27,28.62,-1.00,-1.0,2404
685,1525685,17004,-532,976,17040.29,28.48,-1.00,-1.0,2375
687,1525687,17028,-616,1080,17073.33,28.48,-1.00,-1.0,2373
690,1525690,17072,-620,980,17111.34,28.48,-1.00,-1.0,2416
693,1525693,17064,-508,832,17091.82,28.53,-1.00,-1.0,2358
698,1525698,17084,-552,900,17116.59,28.44,-1.00,-1.0,2439
701,1525701,16988,-632,948,17026.16,28.53,-1.00,-1.0,2374
704,1525704,16984,-572,968,17021.18,28.48,-1.00,-1.0,2425
707,1525707,17000,-528,956,17035.04,28.44,-1.00,-1.0,2368
709,1525709,17028,-492,844,17056.00,28.58,-1.00,-1.0,2418
712,1525712,17068,-544,1008,17106.39,28.53,-1.00,-1.0,2372
715,1525715,16956,-612,996,16996.25,28.39,-1.00,-1.0,2423
718,1525718,16956,-664,840,16989.77,28.53,-1.00,-1.0,2370
720,1525720,17044,-708,876,17081.18,28.58,-1.00,-1.0,2369
725,1525725,17000,-512,780,17025.59,28.48,-1.00,-1.0,2426
728,1525728,17028,-648,908,17064.50,28.44,-1.00,-1.0,2373
731,1525731,17008,-628,908,17043.79,28.39,-1.00,-1.0,2422
734,1525734,16924,-532,1008,16962.34,28.62,-1.00,-1.0,2371
736,1525736,17020,-616,852,17052.44,28.48,-1.00,-1.0,2418
739,1525739,17104,-588,784,17132.05,28.44,-1.00,-1.0,2359
742,1525742,17080,-636,872,17114.07,28.48,-1.00,-1.0,2422
745,1525745,16992,-664,932,17030.49,28.53,-1.00,-1.0,2371
750,1525750,17000,-604,952,17037.35,28.48,-1.00,-1.0,2443
752,1525752,17020,-620,952,17057.88,28.44,-1.00,-1.0,2374
755,1525755,16976,-592,808,17005.53,28.53,-1.00,-1.0,2407
758,1525758,17096,-556,1000,17134.24,28.48,-1.00,-1.0,2444
761,1525761,17036,-584,908,17070.17,28.48,-1.00,-1.0,2369
763,1525763,17156,-616,880,17189.60,28.53,-1.00,-1.0,2418
766,1525766,17124,-624,852,17156.53,28.48,-1.00,-1.0,2366
769,1525769,17004,-548,960,17039.89,28.53,-1.00,-1.0,2443
772,1525772,17132,-608,792,17161.07,28.48,-1.00,-1.0,2373
777,1525777,16984,-500,868,17013.51,28.48,-1.00,-1.0,2432
779,1525779,17040,-556,980,17077.21,28.48,-1.00,-1.0,2371
782,1525782,17072,-588,828,17102.18,28.44,-1.00,-1.0,2432
785,1525785,16976,-556,920,17010.00,28.44,-1.00,-1.0,2375
787,1525787,17028,-612,1016,17069.26,28.58,-1.00,-1.0,2375
790,1525790,17056,-508,976,17091.45,28.48,-1.00,-1.0,2417
793,1525793,17060,-616,1000,17100.38,28.53,-1.00,-1.0,2375
796,1525796,16992,-580,800,17020.71,28.58,-1.00,-1.0,2428
799,1525799,17028,-688,936,17067.58,28.48,-1.00,-1.0,2371
804,1525804,17124,-648,816,17155.67,28.48,-1.00,-1.0,2439
806,1525806,17048,-624,896,17082.93,28.44,-1.00,-1.0,2366
809,1525809,17100,-584,1012,17139.87,28.48,-1.00,-1.0,2418
812,1525812,16976,-484,864,17004.86,28.48,-1.00,-1.0,2372
815,1525815,17008,-552,948,17043.34,28.39,-1.00,-1.0,2416
817,1525817,17048,-544,884,17079.57,28.48,-1.00,-1.0,2374
820,1525820,16984,-552,916,17017.64,28.53,-1.00,-1.0,2373
823,1525823,16976,-512,972,17011.51,28.44,-1.00,-1.0,2416
825,1525825,17044,-644,864,17078.03,28.48,-1.00,-1.0,2382
830,1525830,17060,-520,1008,17097.66,28.48,-1.00,-1.0,2446
833,1525833,16956,-512,976,16991.78,28.53,-1.00,-1.0,2388
836,1525836,16980,-716,964,17022.41,28.48,-1.00,-1.0,2418
839,1525839,16892,-552,880,16923.91,28.48,-1.00,-1.0,2378
842,1525842,16968,-604,820,16998.54,28.58,-1.00,-1.0,2419
844,1525844,17060,-548,1060,17101.68,28.58,-1.00,-1.0,2375
847,1525847,16956,-544,840,16985.51,28.48,-1.00,-1.0,2417
850,1525850,17112,-596,844,17143.16,28.39,-1.00,-1.0,2375
852,1525852,17136,-660,944,17174.67,28.48,-1.00,-1.0,2371
857,1525857,17048,-628,908,17083.71,28.44,-1.00,-1.0,2437
860,1525860,17060,-632,884,17094.57,28.48,-1.00,-1.0,2371
863,1525863,17084,-600,920,17119.27,28.44,-1.00,-1.0,2426
866,1525866,17036,-532,888,17067.42,28.48,-1.00,-1.0,2371
868,1525868,16948,-628,1056,16992.47,28.44,-1.00,-1.0,2417
871,1525871,16960,-548,900,16992.70,28.44,-1.00,-1.0,2372
874,1525874,16976,-660,960,17015.93,28.53,-1.00,-1.0,2424
877,1525877,17096,-664,944,17134.91,28.48,-1.00,-1.0,2370
881,1525881,17184,-648,924,17221.02,28.39,-1.00,-1.0,2446
884,1525884,17052,-532,856,17081.76,28.48,-1.00,-1.0,2376
887,1525887,17152,-636,816,17183.17,28.48,-1.00,-1.0,2365
889,1525889,17068,-580,956,17104.59,28.44,-1.00,-1.0,2419
892,1525892,16964,-568,836,16994.08,28.53,-1.00,-1.0,2371
895,1525895,16992,-556,928,17026.40,28.53,-1.00,-1.0,2418
898,1525898,17088,-556,908,17121.14,28.53,-1.00,-1.0,2371
901,1525901,17024,-608,944,17060.99,28.44,-1.00,-1.0,2427
904,1525904,17096,-644,848,17129.13,28.48,-1.00,-1.0,2372
909,1525909,17032,-656,848,17065.71,28.48,-1.00,-1.0,2437
911,1525911,17016,-608,792,17045.27,28.48,-1.00,-1.0,2371
914,1525914,17064,-600,908,17098.67,28.53,-1.00,-1.0,2417
917,1525917,17068,-644,936,17105.77,28.44,-1.00,-1.0,2371
919,1525919,16992,-596,892,17025.83,28.53,-1.00,-1.0,2366
922,1525922,17040,-592,844,17071.16,28.48,-1.00,-1.0,2424
925,1525925,16856,-572,928,16891.21,28.53,-1.00,-1.0,2379
928,1525928,16988,-668,944,17027.32,28.48,-1.00,-1.0,2425
931,1525931,17040,-616,924,17076.15,28.44,-1.00,-1.0,2385
936,1525936,16992,-568,1036,17033.03,28.44,-1.00,-1.0,2437
938,1525938,17016,-628,880,17050.31,28.58,-1.00,-1.0,2374
941,1525941,16908,-616,912,16943.78,28.44,-1.00,-1.0,2418
944,1525944,16996,-564,868,17027.49,28.53,-1.00,-1.0,2372
947,1525947,16984,-552,944,17019.17,28.53,-1.00,-1.0,2423
950,1525950,17044,-564,888,17076.43,28.48,-1.00,-1.0,2372
952,1525952,17052,-608,812,17082.15,28.48,-1.00,-1.0,2364
955,1525955,17008,-572,888,17040.77,28.48,-1.00,-1.0,2431
958,1525958,16996,-588,868,17028.30,28.48,-1.00,-1.0,2379
963,1525963,17052,-564,968,17088.76,28.58,-1.00,-1.0,2433
965,1525965,17044,-588,888,17077.24,28.44,-1.00,-1.0,2371
968,1525968,17028,-484,876,17057.39,28.58,-1.00,-1.0,2425
971,1525971,17052,-468,860,17080.09,28.48,-1.00,-1.0,2380
974,1525974,17040,-596,880,17073.11,28.58,-1.00,-1.0,2417
976,1525976,17056,-620,980,17095.38,28.48,-1.00,-1.0,2372
979,1525979,16964,-556,1000,17002.54,28.44,-1.00,-1.0,2366
982,1525982,17088,-672,824,17121.05,28.53,-1.00,-1.0,2417
985,1525985,16948,-588,828,16978.40,28.48,-1.00,-1.0,2367
990,1525990,17132,-592,940,17167.98,28.58,-1.00,-1.0,2432
992,1525992,17100,-632,804,17130.55,28.53,-1.00,-1.0,2375
995,1525995,17024,-568,1124,17070.52,28.48,-1.00,-1.0,2418
998,1525998,17120,-572,1092,17164.32,28.53,-1.00,-1.0,2372
1001,1526001,16972,-624,892,17006.88,28.48,-1.00,-1.0,2418
1003,1526003,17068,-604,912,17103.02,28.48,-1.00,-1.0,2420
1006,1526006,17072,-608,860,17104.46,28.53,-1.00,-1.0,2415
1009,1526009,17064,-564,864,17095.17,28.53,-1.00,-1.0,2378
1014,1526014,17016,-608,920,17051.70,28.44,-1.00,-1.0,2445
1017,1526017,17008,-600,868,17040.70,28.53,-1.00,-1.0,2372
1019,1526019,16972,-556,972,17008.90,28.48,-1.00,-1.0,2364
1022,1526022,16956,-664,992,16997.97,28.48,-1.00,-1.0,2422
1025,1526025,17036,-580,876,17068.37,28.48,-1.00,-1.0,2377
1028,1526028,17084,-464,880,17112.94,28.44,-1.00,-1.0,2420
1030,1526030,17048,-520,788,17074.12,28.48,-1.00,-1.0,2371
1033,1526033,16932,-568,860,16963.34,28.44,-1.00,-1.0,2447
1036,1526036,16948,-660,992,16989.83,28.44,-1.00,-1.0,2377
1041,1526041,17080,-544,924,17113.62,28.53,-1.00,-1.0,2449
1044,1526044,17076,-536,876,17106.85,28.58,-1.00,-1.0,2366
1046,1526046,16972,-640,972,17011.85,28.39,-1.00,-1.0,2435
1049,1526049,16992,-656,904,17028.67,28.58,-1.00,-1.0,2370
1052,1526052,16996,-584,796,17024.65,28.53,-1.00,-1.0,2427
1055,1526055,17036,-548,896,17068.35,28.48,-1.00,-1.0,2369
1057,1526057,17020,-596,888,17053.57,28.44,-1.00,-1.0,2366
1060,1526060,17008,-608,992,17047.75,28.39,-1.00,-1.0,2419
1063,1526063,17004,-600,960,17041.64,28.53,-1.00,-1.0,2371
1068,1526068,17080,-584,840,17110.61,28.58,-1.00,-1.0,2444
1070,1526070,17024,-620,828,17055.40,28.58,-1.00,-1.0,2366
1073,1526073,17052,-584,912,17086.35,28.48,-1.00,-1.0,2420
1076,1526076,16972,-636,856,17005.47,28.48,-1.00,-1.0,2369
1079,1526079,17064,-644,952,17102.66,28.48,-1.00,-1.0,2405
1081,1526081,17076,-548,1036,17116.17,28.48,-1.00,-1.0,2369
1084,1526084,17128,-572,900,17161.16,28.58,-1.00,-1.0,2420
1087,1526087,17096,-540,892,17127.77,28.48,-1.00,-1.0,2369
1091,1526091,16992,-568,932,17027.02,28.44,-1.00,-1.0,2449
1094,1526094,17060,-644,932,17097.57,28.53,-1.00,-1.0,2382
1097,1526097,17000,-572,928,17034.92,28.48,-1.00,-1.0,2365
1100,1526100,16996,-652,912,17032.94,28.53,-1.00,-1.0,2423
1102,1526102,17004,-592,788,17032.54,28.48,-1.00,-1.0,2369
1105,1526105,17008,-572,824,17037.55,28.53,-1.00,-1.0,2418
1108,1526108,17036,-520,800,17062.70,28.48,-1.00,-1.0,2392
1111,1526111,17008,-580,852,17039.20,28.48,-1.00,-1.0,2429
1114,1526114,17072,-612,960,17109.92,28.48,-1.00,-1.0,2369
1119,1526119,17004,-600,916,17039.22,28.39,-1.00,-1.0,2447
1121,1526121,16912,-596,836,16943.14,28.53,-1.00,-1.0,2379
1124,1526124,17032,-444,1048,17069.99,28.48,-1.00,-1.0,2421
1127,1526127,16952,-452,1000,16987.48,28.48,-1.00,-1.0,2370
1130,1526130,17068,-556,920,17101.82,28.48,-1.00,-1.0,2421
1132,1526132,17080,-520,832,17108.16,28.48,-1.00,-1.0,2373
1135,1526135,17036,-576,928,17070.98,28.44,-1.00,-1.0,2364
1138,1526138,17044,-592,1000,17083.57,28.44,-1.00,-1.0,2429
1141,1526141,16944,-584,844,16975.06,28.39,-1.00,-1.0,2369
1146,1526146,16968,-616,988,17007.90,28.48,-1.00,-1.0,2444
1148,1526148,17024,-600,948,17060.93,28.48,-1.00,-1.0,2380
1151,1526151,17024,-592,760,17051.24,28.58,-1.00,-1.0,2422
1154,1526154,16988,-636,992,17028.82,28.48,-1.00,-1.0,2371
1157,1526157,16992,-596,1012,17032.54,28.44,-1.00,-1.0,2421
1159,1526159,17028,-476,864,17056.55,28.48,-1.00,-1.0,2354
1162,1526162,17028,-484,716,17049.92,28.48,-1.00,-1.0,2419
1165,1526165,17000,-632,804,17030.73,28.48,-1.00,-1.0,2373
1170,1526170,17136,-580,904,17169.63,28.48,-1.00,-1.0,2447
1173,1526173,17008,-644,936,17045.91,28.48,-1.00,-1.0,2369
1175,1526175,17036,-556,900,17068.81,28.48,-1.00,-1.0,2352
1178,1526178,17096,-548,1028,17135.64,28.44,-1.00,-1.0,2421
1181,1526181,17060,-496,908,17091.35,28.62,-1.00,-1.0,2370
1184,1526184,16984,-572,904,17017.66,28.53,-1.00,-1.0,2420
1186,1526186,17052,-560,852,17082.45,28.48,-1.00,-1.0,2356
1189,1526189,17060,-640,904,17095.92,28.44,-1.00,-1.0,2418
1192,1526192,17064,-652,876,17098.91,28.44,-1.00,-1.0,2383
1197,1526197,17060,-592,800,17089.00,28.44,-1.00,-1.0,2447
1200,1526200,17004,-688,900,17041.70,28.44,-1.00,-1.0,2369
1202,1526202,17068,-604,892,17101.96,28.53,-1.00,-1.0,2423
1205,1526205,17124,-572,816,17152.97,28.53,-1.00,-1.0,2368
1208,1526208,17044,-556,876,17075.55,28.44,-1.00,-1.0,2422
1211,1526211,17036,-672,864,17071.13,28.53,-1.00,-1.0,2368
1213,1526213,17020,-580,816,17049.42,28.39,-1.00,-1.0,2379
1216,1526216,17076,-576,760,17102.61,28.48,-1.00,-1.0,2426
1219,1526219,17044,-680,856,17079.02,28.53,-1.00,-1.0,2386
1224,1526224,17076,-520,816,17103.39,28.53,-1.00,-1.0,2443
1227,1526227,17008,-528,808,17035.37,28.53,-1.00,-1.0,2369
1229,1526229,17052,-576,1052,17094.13,28.48,-1.00,-1.0,2428
1232,1526232,17068,-588,904,17102.04,28.44,-1.00,-1.0,2370
1235,1526235,17100,-556,908,17133.11,28.48,-1.00,-1.0,2426
1238,1526238,17028,-540,876,17059.07,28.44,-1.00,-1.0,2369
1240,1526240,16952,-568,808,16980.75,28.48,-1.00,-1.0,2425
1243,1526243,17072,-604,856,17104.12,28.44,-1.00,-1.0,2363
1248,1526248,17020,-660,992,17061.65,28.48,-1.00,-1.0,2440
1251,1526251,17020,-624,944,17057.58,28.44,-1.00,-1.0,2367
1253,1526253,17032,-640,984,17072.40,28.48,-1.00,-1.0,2375
1256,1526256,17032,-496,948,17065.57,28.48,-1.00,-1.0,2421
1259,1526259,16916,-492,992,16952.20,28.39,-1.00,-1.0,2357
1262,1526262,17016,-648,956,17055.15,28.44,-1.00,-1.0,2428
1264,1526264,17008,-552,944,17043.12,28.48,-1.00,-1.0,2376
1267,1526267,17084,-564,1028,17124.19,28.53,-1.00,-1.0,2418
1270,1526270,17040,-608,920,17075.64,28.53,-1.00,-1.0,2372
1275,1526275,16940,-576,952,16976.50,28.53,-1.00,-1.0,2437
1277,1526277,17084,-608,964,17121.97,28.53,-1.00,-1.0,2368
1280,1526280,17008,-568,996,17046.60,28.53,-1.00,-1.0,2420
1283,1526283,17028,-616,956,17065.94,28.44,-1.00,-1.0,2372
1286,1526286,16920,-656,888,16955.98,28.53,-1.00,-1.0,2420
1288,1526288,16988,-588,956,17025.04,28.44,-1.00,-1.0,2368
1291,1526291,16972,-668,988,17013.85,28.48,-1.00,-1.0,2366
1294,1526294,17108,-528,944,17142.16,28.44,-1.00,-1.0,2422
1297,1526297,17000,-544,944,17034.88,28.48,-1.00,-1.0,2379
1302,1526302,17064,-632,936,17101.33,28.48,-1.00,-1.0,2440
1304,1526304,17156,-496,756,17179.81,28.48,-1.00,-1.0,2366
1307,1526307,16952,-568,908,16985.80,28.58,-1.00,-1.0,2422
1310,1526310,17116,-552,896,17148.32,28.48,-1.00,-1.0,2380
1313,1526313,17016,-660,824,17048.72,28.58,-1.00,-1.0,2419
1315,1526315,16984,-508,1104,17027.42,28.48,-1.00,-1.0,2369
1318,1526318,17012,-500,824,17039.28,28.48,-1.00,-1.0,2427
1321,1526321,17084,-696,748,17114.53,28.53,-1.00,-1.0,2375
1326,1526326,17016,-476,1012,17052.71,28.44,-1.00,-1.0,2443
1329,1526329,17000,-500,792,17025.78,28.34,-1.00,-1.0,2370
1331,1526331,17012,-688,852,17047.21,28.53,-1.00,-1.0,2365
1334,1526334,17084,-556,788,17111.20,28.39,-1.00,-1.0,2421
1337,1526337,17012,-456,820,17037.85,28.48,-1.00,-1.0,2373
1340,1526340,16992,-620,780,17021.19,28.48,-1.00,-1.0,2406
1342,1526342,17060,-516,920,17092.58,28.48,-1.00,-1.0,2369
1345,1526345,16968,-596,904,17002.51,28.58,-1.00,-1.0,2422
1348,1526348,17104,-588,932,17139.46,28.53,-1.00,-1.0,2369
1353,1526353,17040,-580,708,17064.56,28.48,-1.00,-1.0,2440
1356,1526356,17120,-564,856,17150.66,28.58,-1.00,-1.0,2373
1359,1526359,16976,-584,948,17012.48,28.53,-1.00,-1.0,2436
1361,1526361,17028,-616,948,17065.49,28.53,-1.00,-1.0,2372
1364,1526364,17060,-468,864,17088.27,28.53,-1.00,-1.0,2428
1367,1526367,16964,-544,876,16995.31,28.53,-1.00,-1.0,2380
1370,1526370,17076,-516,928,17108.98,28.48,-1.00,-1.0,2376
1372,1526372,16976,-568,1016,17015.86,28.48,-1.00,-1.0,2421
1375,1526375,17068,-616,980,17107.21,28.58,-1.00,-1.0,2376
1380,1526380,17144,-652,992,17185.05,28.48,-1.00,-1.0,2437
1383,1526383,16896,-572,948,16932.24,28.39,-1.00,-1.0,2366
1386,1526386,17076,-584,944,17112.04,28.48,-1.00,-1.0,2421
1388,1526388,17036,-616,920,17071.94,28.48,-1.00,-1.0,2369
1391,1526391,17112,-500,820,17138.93,28.48,-1.00,-1.0,2419
1394,1526394,17112,-616,964,17150.20,28.48,-1.00,-1.0,2370
1397,1526397,16952,-548,760,16977.88,28.48,-1.00,-1.0,2420
1399,1526399,17012,-652,968,17051.99,28.44,-1.00,-1.0,2420
1404,1526404,16996,-644,1100,17043.73,28.44,-1.00,-1.0,2449
1407,1526407,17044,-576,896,17077.25,28.44,-1.00,-1.0,2382
1410,1526410,17020,-564,888,17052.48,28.48,-1.00,-1.0,2366
1413,1526413,17016,-588,780,17044.01,28.53,-1.00,-1.0,2417
1415,1526415,17048,-444,920,17078.58,28.58,-1.00,-1.0,2373
1418,1526418,17048,-600,896,17082.07,28.48,-1.00,-1.0,2417
1421,1526421,17048,-500,844,17076.20,28.48,-1.00,-1.0,2372
1424,1526424,17060,-564,1020,17099.77,28.44,-1.00,-1.0,2419
1426,1526426,17036,-608,932,17072.30,28.48,-1.00,-1.0,2372
1431,1526431,17100,-564,1024,17139.91,28.48,-1.00,-1.0,2438
1434,1526434,17048,-536,984,17084.79,28.48,-1.00,-1.0,2370
1437,1526437,17020,-536,788,17046.66,28.44,-1.00,-1.0,2419
1440,1526440,16964,-600,964,17001.96,28.48,-1.00,-1.0,2370
1442,1526442,16904,-660,880,16939.75,28.53,-1.00,-1.0,2416
1445,1526445,17028,-484,860,17056.57,28.48,-1.00,-1.0,2372
1448,1526448,17028,-620,884,17062.20,28.44,-1.00,-1.0,2366
1450,1526450,17048,-536,800,17075.18,28.48,-1.00,-1.0,2433
1453,1526453,17028,-564,968,17064.81,28.44,-1.00,-1.0,2372
1458,1526458,17016,-520,1040,17055.68,28.53,-1.00,-1.0,2437
1461,1526461,17024,-580,840,17054.58,28.53,-1.00,-1.0,2369
1464,1526464,17056,-612,832,17087.24,28.53,-1.00,-1.0,2415
1466,1526466,17156,-524,928,17189.07,28.53,-1.00,-1.0,2373
1469,1526469,17024,-544,752,17049.28,28.44,-1.00,-1.0,2417
1472,1526472,16964,-516,796,16990.50,28.44,-1.00,-1.0,2380
1475,1526475,17080,-572,928,17114.75,28.62,-1.00,-1.0,2417
1477,1526477,17032,-520,964,17067.18,28.53,-1.00,-1.0,2374
1482,1526482,17008,-616,952,17045.76,28.48,-1.00,-1.0,2441
1485,1526485,17004,-492,1024,17041.91,28.53,-1.00,-1.0,2383
1487,1526487,17060,-556,864,17090.91,28.58,-1.00,-1.0,2352
1490,1526490,16996,-556,984,17033.54,28.44,-1.00,-1.0,2416
1493,1526493,17064,-520,1024,17102.60,28.39,-1.00,-1.0,2373
1496,1526496,17028,-608,900,17062.60,28.44,-1.00,-1.0,2418
1498,1526498,16932,-596,928,16967.88,28.48,-1.00,-1.0,2371
1501,1526501,17008,-644,788,17038.42,28.44,-1.00,-1.0,2403
1504,1526504,17044,-608,1000,17084.13,28.53,-1.00,-1.0,2372
1509,1526509,16964,-592,872,16996.71,28.53,-1.00,-1.0,2440
1512,1526512,17096,-668,1000,17138.24,28.53,-1.00,-1.0,2368
1514,1526514,17096,-552,868,17126.92,28.53,-1.00,-1.0,2416
1517,1526517,16956,-584,988,16994.80,28.48,-1.00,-1.0,2372
1520,1526520,17000,-548,880,17031.58,28.53,-1.00,-1.0,2423
1523,1526523,17088,-480,964,17121.90,28.53,-1.00,-1.0,2370
1525,1526525,17100,-644,912,17136.41,28.53,-1.00,-1.0,2416
1528,1526528,17124,-580,816,17153.24,28.48,-1.00,-1.0,2380
1531,1526531,16956,-668,868,16991.34,28.48,-1.00,-1.0,2374
1536,1526536,17040,-620,820,17070.98,28.48,-1.00,-1.0,2438
1539,1526539,17104,-532,960,17139.18,28.44,-1.00,-1.0,2378
1542,1526542,17008,-532,900,17040.10,28.48,-1.00,-1.0,2416
1544,1526544,16884,-580,916,16918.77,28.44,-1.00,-1.0,2372
1547,1526547,17092,-652,916,17128.94,28.58,-1.00,-1.0,2417
1550,1526550,17004,-632,872,17038.07,28.44,-1.00,-1.0,2379
1553,1526553,17036,-508,812,17062.90,28.48,-1.00,-1.0,2417
1555,1526555,16940,-584,908,16974.37,28.48,-1.00,-1.0,2371
1560,1526560,17052,-552,900,17084.65,28.48,-1.00,-1.0,2440
1563,1526563,17088,-572,980,17125.63,28.44,-1.00,-1.0,2368
1566,1526566,16992,-576,824,17021.72,28.39,-1.00,-1.0,2365
1568,1526568,16996,-496,976,17031.22,28.44,-1.00,-1.0,2424
1571,1526571,17028,-568,988,17066.09,28.58,-1.00,-1.0,2380
1574,1526574,17044,-556,928,17078.30,28.39,-1.00,-1.0,2417
1577,1526577,17072,-628,656,17096.14,28.48,-1.00,-1.0,2380
1579,1526579,17032,-532,1016,17070.57,28.53,-1.00,-1.0,2419
1582,1526582,17028,-588,716,17053.19,28.53,-1.00,-1.0,2379
1587,1526587,17084,-552,1008,17122.61,28.44,-1.00,-1.0,2451
1590,1526590,17052,-632,948,17090.02,28.48,-1.00,-1.0,2376
1593,1526593,16976,-588,932,17011.73,28.44,-1.00,-1.0,2421
1595,1526595,17000,-584,816,17029.59,28.44,-1.00,-1.0,2381
1598,1526598,16988,-616,820,17018.93,28.53,-1.00,-1.0,2416
1601,1526601,17056,-632,872,17089.97,28.48,-1.00,-1.0,2375
1604,1526604,17088,-580,984,17126.13,28.44,-1.00,-1.0,2419
1606,1526606,16996,-620,892,17030.68,28.53,-1.00,-1.0,2385
1609,1526609,16924,-500,980,16959.72,28.44,-1.00,-1.0,2379
1614,1526614,17052,-472,900,17082.26,28.53,-1.00,-1.0,2446
1617,1526617,16992,-628,776,17021.30,28.48,-1.00,-1.0,2371
1620,1526620,17004,-452,988,17038.68,28.53,-1.00,-1.0,2418
1622,1526622,16976,-588,868,17008.34,28.44,-1.00,-1.0,2375
1625,1526625,17060,-596,972,17098.06,28.48,-1.00,-1.0,2417
1628,1526628,17020,-552,912,17053.35,28.53,-1.00,-1.0,2361
1631,1526631,17104,-612,976,17142.75,28.39,-1.00,-1.0,2418
1633,1526633,17024,-548,912,17057.22,28.53,-1.00,-1.0,2374
1638,1526638,17012,-568,920,17046.32,28.44,-1.00,-1.0,2448
1641,1526641,17132,-496,920,17163.85,28.44,-1.00,-1.0,2383
1644,1526644,17008,-420,968,17040.70,28.48,-1.00,-1.0,2365
1647,1526647,16972,-628,852,17004.97,28.48,-1.00,-1.0,2416
1649,1526649,16972,-540,824,17000.57,28.48,-1.00,-1.0,2359
1652,1526652,17032,-564,884,17064.25,28.48,-1.00,-1.0,2417
1655,1526655,17060,-600,988,17099.12,28.48,-1.00,-1.0,2372
1658,1526658,17004,-524,772,17029.58,28.39,-1.00,-1.0,2415
1660,1526660,16988,-524,856,17017.62,28.58,-1.00,-1.0,2372
1665,1526665,17144,-628,980,17183.47,28.48,-1.00,-1.0,2437
1668,1526668,16984,-556,908,17017.34,28.48,-1.00,-1.0,2371
1671,1526671,17000,-588,876,17032.71,28.39,-1.00,-1.0,2423
1674,1526674,17012,-620,1100,17058.80,28.48,-1.00,-1.0,2370
1676,1526676,16988,-688,1000,17031.31,28.58,-1.00,-1.0,2418
1679,1526679,17028,-624,900,17063.18,28.48,-1.00,-1.0,2359
1682,1526682,17048,-592,816,17077.78,28.48,-1.00,-1.0,2422
1685,1526685,17064,-604,844,17095.53,28.58,-1.00,-1.0,2371
1687,1526687,17044,-576,928,17078.96,28.48,-1.00,-1.0,2365
1692,1526692,17032,-692,980,17074.20,28.53,-1.00,-1.0,2463
1695,1526695,17056,-564,816,17084.82,28.44,-1.00,-1.0,2381
1698,1526698,17032,-536,872,17062.73,28.58,-1.00,-1.0,2418
1700,1526700,16956,-516,812,16983.27,28.58,-1.00,-1.0,2376
1703,1526703,17028,-532,912,17060.70,28.48,-1.00,-1.0,2416
1706,1526706,16968,-444,904,16997.86,28.48,-1.00,-1.0,2373
1709,1526709,17044,-604,1028,17085.65,28.48,-1.00,-1.0,2419
1711,1526711,16988,-628,804,17018.61,28.48,-1.00,-1.0,2376
1716,1526716,17088,-620,980,17127.30,28.48,-1.00,-1.0,2448
1719,1526719,17052,-568,912,17085.81,28.53,-1.00,-1.0,2370
1722,1526722,17012,-608,1000,17052.21,28.48,-1.00,-1.0,2428
1724,1526724,17132,-656,896,17167.95,28.48,-1.00,-1.0,2380
1727,1526727,17088,-660,856,17122.15,28.48,-1.00,-1.0,2364
1730,1526730,17056,-544,828,17084.75,28.44,-1.00,-1.0,2424
1733,1526733,17068,-608,912,17103.16,28.48,-1.00,-1.0,2371
1735,1526735,16964,-548,764,16990.04,28.44,-1.00,-1.0,2420
1738,1526738,17012,-532,864,17042.23,28.53,-1.00,-1.0,2375
1743,1526743,17028,-584,924,17063.05,28.44,-1.00,-1.0,2444
1746,1526746,16972,-484,936,17004.68,28.44,-1.00,-1.0,2371
1749,1526749,16964,-592,848,16995.50,28.44,-1.00,-1.0,2423
1752,1526752,17088,-624,992,17128.14,28.44,-1.00,-1.0,2374
1754,1526754,17044,-592,908,17078.43,28.48,-1.00,-1.0,2425
1757,1526757,17032,-584,820,17061.73,28.44,-1.00,-1.0,2372
1760,1526760,17088,-608,776,17116.41,28.58,-1.00,-1.0,2436
1763,1526763,17000,-536,1012,17038.53,28.53,-1.00,-1.0,2380
1765,1526765,17048,-560,920,17081.99,28.53,-1.00,-1.0,2369
1771,1526771,17056,-524,872,17086.31,28.53,-1.00,-1.0,2441
1773,1526773,16984,-560,900,17017.05,28.53,-1.00,-1.0,2371
1776,1526776,17028,-656,932,17066.10,28.53,-1.00,-1.0,2416
1779,1526779,17056,-524,920,17088.83,28.58,-1.00,-1.0,2377
1782,1526782,16972,-512,904,17003.77,28.53,-1.00,-1.0,2416
1784,1526784,16992,-484,1032,17030.19,28.44,-1.00,-1.0,2371
1787,1526787,17052,-560,808,17080.31,28.44,-1.00,-1.0,2416
1790,1526790,16976,-568,1052,17018.05,28.53,-1.00,-1.0,2371
1795,1526795,16928,-548,920,16961.84,28.39,-1.00,-1.0,2440
1798,1526798,16960,-484,956,16993.82,28.53,-1.00,-1.0,2371
1800,1526800,16984,-576,896,17017.37,28.53,-1.00,-1.0,2416
1803,1526803,17068,-616,856,17100.55,28.53,-1.00,-1.0,2359
1806,1526806,17044,-496,876,17073.70,28.58,-1.00,-1.0,2367
1808,1526808,17072,-588,932,17107.53,28.58,-1.00,-1.0,2431
1811,1526811,17084,-508,896,17115.02,28.48,-1.00,-1.0,2371
1814,1526814,16972,-540,928,17005.93,28.48,-1.00,-1.0,2424
1817,1526817,17080,-516,900,17111.48,28.39,-1.00,-1.0,2371
1822,1526822,17072,-608,904,17106.73,28.48,-1.00,-1.0,2437
1824,1526824,16996,-620,804,17026.30,28.44,-1.00,-1.0,2368
1827,1526827,16952,-612,956,16989.96,28.48,-1.00,-1.0,2417
1830,1526830,17028,-580,796,17056.46,28.53,-1.00,-1.0,2378
1833,1526833,17100,-612,852,17132.15,28.48,-1.00,-1.0,2416
1835,1526835,16992,-548,836,17021.38,28.53,-1.00,-1.0,2372
1838,1526838,16996,-656,872,17030.99,28.48,-1.00,-1.0,2417
1841,1526841,16968,-608,824,16998.87,28.44,-1.00,-1.0,2378
1843,1526843,16980,-740,844,17017.06,28.58,-1.00,-1.0,2375
1848,1526848,17012,-584,852,17043.33,28.39,-1.00,-1.0,2449
1851,1526851,17072,-516,940,17105.64,28.48,-1.00,-1.0,2375
1854,1526854,17084,-588,1060,17126.95,28.53,-1.00,-1.0,2417
1857,1526857,17032,-496,1052,17071.66,28.48,-1.00,-1.0,2374
1859,1526859,17068,-592,916,17102.81,28.44,-1.00,-1.0,2424
1862,1526862,16952,-540,944,16986.85,28.48,-1.00,-1.0,2385
1865,1526865,17100,-560,908,17133.24,28.53,-1.00,-1.0,2421
1868,1526868,17072,-536,848,17101.45,28.48,-1.00,-1.0,2384
1873,1526873,17060,-616,848,17092.17,28.48,-1.00,-1.0,2451
1875,1526875,17088,-660,872,17122.96,28.48,-1.00,-1.0,2379
1878,1526878,17068,-524,876,17098.50,28.53,-1.00,-1.0,2416
1881,1526881,17052,-556,904,17084.99,28.53,-1.00,-1.0,2380
1884,1526884,17040,-532,844,17069.18,28.48,-1.00,-1.0,2366
1886,1526886,17016,-576,884,17048.68,28.48,-1.00,-1.0,2419
1889,1526889,17060,-632,840,17092.36,28.58,-1.00,-1.0,2372
1892,1526892,17108,-500,848,17136.30,28.48,-1.00,-1.0,2426
1895,1526895,17084,-544,956,17119.37,28.48,-1.00,-1.0,2375
1899,1526899,16984,-608,892,17018.27,28.48,-1.00,-1.0,2440
1902,1526902,17068,-540,804,17095.46,28.48,-1.00,-1.0,2368
1905,1526905,17012,-668,780,17042.97,28.53,-1.00,-1.0,2423
1908,1526908,17020,-608,824,17050.78,28.48,-1.00,-1.0,2371
1910,1526910,17008,-548,872,17039.15,28.44,-1.00,-1.0,2426
1913,1526913,17024,-596,868,17056.53,28.48,-1.00,-1.0,2380
1916,1526916,16984,-600,716,17009.67,28.44,-1.00,-1.0,2404
1919,1526919,17080,-544,1116,17125.06,28.58,-1.00,-1.0,2372
1922,1526922,17084,-576,916,17118.23,28.58,-1.00,-1.0,2367
1926,1526926,17008,-420,988,17041.85,28.62,-1.00,-1.0,2451
1929,1526929,17132,-520,952,17166.31,28.53,-1.00,-1.0,2371
1932,1526932,17064,-472,972,17098.18,28.53,-1.00,-1.0,2420
1934,1526934,17036,-616,800,17065.89,28.53,-1.00,-1.0,2378
1937,1526937,16924,-568,844,16954.55,28.48,-1.00,-1.0,2417
1940,1526940,17096,-632,756,17124.37,28.44,-1.00,-1.0,2374
1943,1526943,17032,-508,880,17062.28,28.48,-1.00,-1.0,2418
1946,1526946,17100,-676,956,17140.04,28.58,-1.00,-1.0,2369
1951,1526951,17012,-544,1016,17050.99,28.48,-1.00,-1.0,2441
1953,1526953,16988,-540,892,17019.97,28.48,-1.00,-1.0,2371
1956,1526956,17076,-568,832,17105.69,28.48,-1.00,-1.0,2416
1959,1526959,17032,-520,868,17062.03,28.39,-1.00,-1.0,2372
1961,1526961,17084,-564,956,17120.02,28.44,-1.00,-1.0,2369
1964,1526964,17084,-604,1012,17124.60,28.44,-1.00,-1.0,2431
1967,1526967,17068,-544,1024,17107.34,28.53,-1.00,-1.0,2380
1970,1526970,16972,-560,948,17007.68,28.53,-1.00,-1.0,2430
1973,1526973,17084,-532,872,17114.51,28.48,-1.00,-1.0,2357
1978,1526978,17092,-652,1136,17142.11,28.48,-1.00,-1.0,2437
1980,1526980,17012,-572,948,17047.99,28.48,-1.00,-1.0,2364
1983,1526983,17068,-668,916,17105.61,28.48,-1.00,-1.0,2416
1986,1526986,16948,-596,1064,16991.82,28.58,-1.00,-1.0,2372
1989,1526989,17036,-584,972,17073.70,28.48,-1.00,-1.0,2416
1991,1526991,17088,-600,848,17119.54,28.48,-1.00,-1.0,2376
1994,1526994,17080,-616,1024,17121.75,28.53,-1.00,-1.0,2416
1997,1526997,16992,-596,1036,17033.98,28.48,-1.00,-1.0,2372
2000,1527000,17036,-528,1032,17075.39,28.39,-1.00,-1.0,2368
2005,1527005,17000,-528,904,17032.21,28.48,-1.00,-1.0,2423
2007,1527007,17040,-540,840,17069.24,28.48,-1.00,-1.0,2368
2010,1527010,17124,-552,952,17159.32,28.44,-1.00,-1.0,2417
2013,1527013,17032,-528,868,17062.28,28.39,-1.00,-1.0,2371
2016,1527016,17072,-600,976,17110.40,28.48,-1.00,-1.0,2418
2018,1527018,17068,-492,888,17098.16,28.39,-1.00,-1.0,2362
2021,1527021,17004,-604,824,17034.66,28.53,-1.00,-1.0,2416
2024,1527024,16980,-592,940,17016.30,28.48,-1.00,-1.0,2372
2029,1527029,17012,-604,1028,17053.73,28.48,-1.00,-1.0,2441
2032,1527032,17052,-592,844,17083.13,28.48,-1.00,-1.0,2371
2034,1527034,17000,-680,1048,17045.84,28.44,-1.00,-1.0,2416
2037,1527037,17120,-580,904,17153.66,28.48,-1.00,-1.0,2359
2040,1527040,17044,-528,824,17072.07,28.53,-1.00,-1.0,2365
2042,1527042,17076,-564,836,17105.75,28.48,-1.00,-1.0,2426
2045,1527045,17048,-544,828,17076.76,28.44,-1.00,-1.0,2371
2048,1527048,17032,-624,1024,17074.16,28.48,-1.00,-1.0,2424
2051,1527051,17008,-668,896,17044.68,28.58,-1.00,-1.0,2375
2056,1527056,17040,-544,916,17073.27,28.58,-1.00,-1.0,2438
2058,1527058,17024,-516,888,17054.95,28.53,-1.00,-1.0,2372
2061,1527061,17088,-564,936,17122.91,28.48,-1.00,-1.0,2431
2064,1527064,17004,-600,980,17042.78,28.48,-1.00,-1.0,2378
2067,1527067,17056,-580,948,17092.17,28.48,-1.00,-1.0,2435
2069,1527069,17040,-580,1076,17083.79,28.58,-1.00,-1.0,2382
2072,1527072,17108,-636,1064,17152.85,28.39,-1.00,-1.0,2417
2075,1527075,17044,-596,1020,17084.89,28.48,-1.00,-1.0,2376
2080,1527080,17080,-608,836,17111.25,28.39,-1.00,-1.0,2447
2083,1527083,16956,-592,980,16994.61,28.48,-1.00,-1.0,2369
2085,1527085,17116,-588,928,17151.22,28.58,-1.00,-1.0,2366
2088,1527088,17048,-556,916,17081.64,28.44,-1.00,-1.0,2416
2091,1527091,17028,-596,824,17058.34,28.58,-1.00,-1.0,2373
2094,1527094,16988,-552,868,17019.12,28.44,-1.00,-1.0,2416
2096,1527096,17036,-564,896,17068.87,28.53,-1.00,-1.0,2371
2099,1527099,17120,-516,1028,17158.60,28.53,-1.00,-1.0,2416
2102,1527102,17012,-548,872,17043.15,28.44,-1.00,-1.0,2376
2107,1527107,17064,-656,912,17100.94,28.53,-1.00,-1.0,2437
2109,1527109,17028,-524,820,17055.78,28.44,-1.00,-1.0,2368
2112,1527112,17008,-580,896,17041.46,28.48,-1.00,-1.0,2416
2115,1527115,17000,-700,956,17041.24,28.53,-1.00,-1.0,2379
2118,1527118,17088,-664,936,17126.49,28.48,-1.00,-1.0,2417
2120,1527120,17020,-496,900,17050.99,28.44,-1.00,-1.0,2374
2123,1527123,16932,-612,956,16970.01,28.58,-1.00,-1.0,2369
2126,1527126,16980,-520,896,17011.57,28.44,-1.00,-1.0,2418
2129,1527129,16992,-616,892,17026.54,28.44,-1.00,-1.0,2369
2133,1527133,16984,-524,852,17013.43,28.48,-1.00,-1.0,2447
2136,1527136,16992,-604,884,17025.70,28.48,-1.00,-1.0,2375
2139,1527139,17028,-616,824,17059.05,28.48,-1.00,-1.0,2405
2142,1527142,17000,-648,848,17033.47,28.39,-1.00,-1.0,2370
2144,1527144,17020,-684,868,17055.84,28.48,-1.00,-1.0,2424
2147,1527147,17020,-536,952,17055.03,28.48,-1.00,-1.0,2379
2150,1527150,17108,-592,952,17144.69,28.44,-1.00,-1.0,2419
2153,1527153,16984,-632,860,17017.50,28.53,-1.00,-1.0,2371
2158,1527158,16992,-700,912,17030.85,28.44,-1.00,-1.0,2438
2160,1527160,16992,-640,984,17032.50,28.48,-1.00,-1.0,2370
2163,1527163,16976,-600,1004,17016.24,28.58,-1.00,-1.0,2370
2166,1527166,17080,-584,928,17115.16,28.48,-1.00,-1.0,2423
2169,1527169,17008,-552,916,17041.59,28.48,-1.00,-1.0,2373
2171,1527171,16980,-592,848,17011.46,28.48,-1.00,-1.0,2431
2174,1527174,17088,-512,912,17119.98,28.48,-1.00,-1.0,2371
2177,1527177,17164,-604,828,17194.57,28.53,-1.00,-1.0,2418
2180,1527180,16960,-588,1008,17000.10,28.44,-1.00,-1.0,2371
2185,1527185,17012,-528,876,17042.72,28.53,-1.00,-1.0,2440
2188,1527188,17068,-536,776,17094.04,28.53,-1.00,-1.0,2369
2191,1527191,16984,-568,896,17017.10,28.44,-1.00,-1.0,2416
2193,1527193,17064,-716,1168,17118.91,28.53,-1.00,-1.0,2362
2196,1527196,17008,-528,864,17038.12,28.44,-1.00,-1.0,2416
2199,1527199,17044,-552,976,17080.84,28.34,-1.00,-1.0,2372
2201,1527201,16992,-540,1016,17030.91,28.48,-1.00,-1.0,2369
2204,1527204,17080,-564,948,17115.58,28.48,-1.00,-1.0,2416
2207,1527207,17040,-548,964,17076.04,28.48,-1.00,-1.0,2378
2212,1527212,17080,-584,984,17118.29,28.48,-1.00,-1.0,2445
2215,1527215,17056,-604,868,17088.75,28.48,-1.00,-1.0,2369
2217,1527217,17072,-584,892,17105.26,28.48,-1.00,-1.0,2417
2220,1527220,17060,-584,804,17088.92,28.48,-1.00,-1.0,2372
2223,1527223,17132,-644,812,17163.32,28.58,-1.00,-1.0,2427
2226,1527226,16996,-496,740,17019.33,28.39,-1.00,-1.0,2371
2228,1527228,17016,-476,888,17045.80,28.48,-1.00,-1.0,2419
2231,1527231,16932,-580,864,16963.95,28.48,-1.00,-1.0,2374
2236,1527236,17064,-528,796,17090.71,28.48,-1.00,-1.0,2437
2239,1527239,17056,-476,1040,17094.31,28.48,-1.00,-1.0,2370
2241,1527241,17072,-612,832,17103.21,28.48,-1.00,-1.0,2366
2244,1527244,17024,-544,944,17058.83,28.53,-1.00,-1.0,2430
2247,1527247,17036,-592,928,17071.52,28.44,-1.00,-1.0,2382
2250,1527250,17088,-688,868,17123.86,28.53,-1.00,-1.0,2430
2252,1527252,17056,-600,984,17094.89,28.48,-1.00,-1.0,2374
2255,1527255,17044,-532,844,17073.17,28.53,-1.00,-1.0,2426
2258,1527258,17028,-556,732,17052.79,28.44,-1.00,-1.0,2380
2263,1527263,17000,-644,944,17038.37,28.44,-1.00,-1.0,2444
2266,1527266,17112,-536,804,17139.26,28.53,-1.00,-1.0,2368
2268,1527268,17052,-600,920,17087.34,28.53,-1.00,-1.0,2426
2271,1527271,17040,-568,888,17072.57,28.44,-1.00,-1.0,2371
2274,1527274,17064,-540,920,17097.31,28.53,-1.00,-1.0,2423
2277,1527277,17000,-556,836,17029.62,28.53,-1.00,-1.0,2372
2279,1527279,17068,-556,860,17098.70,28.48,-1.00,-1.0,2366
2282,1527282,17060,-592,908,17094.40,28.39,-1.00,-1.0,2416
2285,1527285,17072,-508,1028,17110.46,28.53,-1.00,-1.0,2378
2290,1527290,16980,-600,848,17011.75,28.53,-1.00,-1.0,2427
2293,1527293,16968,-616,880,17001.97,28.58,-1.00,-1.0,2369
2295,1527295,17000,-612,804,17030.00,28.53,-1.00,-1.0,2417
2298,1527298,17012,-508,940,17045.52,28.53,-1.00,-1.0,2371
2301,1527301,17088,-496,1016,17125.36,28.53,-1.00,-1.0,2423
2304,1527304,17032,-532,848,17061.39,28.48,-1.00,-1.0,2358
2306,1527306,16936,-612,996,16976.30,28.53,-1.00,-1.0,2416
2309,1527309,17044,-572,952,17080.15,28.53,-1.00,-1.0,2375
2314,1527314,17064,-600,884,17097.41,28.44,-1.00,-1.0,2444
2317,1527317,17060,-600,800,17089.28,28.44,-1.00,-1.0,2368
2319,1527319,16972,-468,912,17002.93,28.48,-1.00,-1.0,2368
2322,1527322,16956,-516,924,16989.00,28.48,-1.00,-1.0,2416
2325,1527325,17048,-540,888,17079.65,28.39,-1.00,-1.0,2378
2328,1527328,16948,-500,752,16972.04,28.58,-1.00,-1.0,2417
2330,1527330,17072,-560,896,17104.67,28.58,-1.00,-1.0,2373
2333,1527333,17024,-616,868,17057.24,28.44,-1.00,-1.0,2417
2336,1527336,17024,-536,972,17060.15,28.48,-1.00,-1.0,2374
2341,1527341,17000,-612,904,17035.02,28.44,-1.00,-1.0,2438
2343,1527343,16920,-564,860,16951.23,28.44,-1.00,-1.0,2368
2346,1527346,16984,-616,1028,17026.23,28.44,-1.00,-1.0,2424
2349,1527349,17096,-592,964,17133.39,28.44,-1.00,-1.0,2380
2352,1527352,17064,-668,812,17096.36,28.48,-1.00,-1.0,2419
2354,1527354,17108,-644,928,17145.25,28.53,-1.00,-1.0,2372
2357,1527357,17020,-576,892,17053.09,28.58,-1.00,-1.0,2366
2360,1527360,17060,-556,872,17091.32,28.48,-1.00,-1.0,2420
2363,1527363,17080,-596,808,17109.48,28.48,-1.00,-1.0,2367
2368,1527368,17160,-472,940,17192.21,28.48,-1.00,-1.0,2445
2371,1527371,17052,-608,812,17082.15,28.48,-1.00,-1.0,2370
2373,1527373,17132,-552,896,17164.29,28.39,-1.00,-1.0,2424
2376,1527376,17116,-652,1108,17164.21,28.58,-1.00,-1.0,2388
2379,1527379,17004,-608,1016,17045.17,28.58,-1.00,-1.0,2418
2382,1527382,17064,-508,808,17090.67,28.48,-1.00,-1.0,2374
2384,1527384,17012,-664,808,17044.12,28.58,-1.00,-1.0,2406
2387,1527387,17080,-596,968,17117.79,28.48,-1.00,-1.0,2386
2392,1527392,17036,-632,948,17074.06,28.48,-1.00,-1.0,2452
2395,1527395,17084,-536,956,17119.12,28.48,-1.00,-1.0,2376
2397,1527397,17036,-576,808,17064.88,28.48,-1.00,-1.0,2349
2400,1527400,17104,-532,832,17132.49,28.39,-1.00,-1.0,2456
2403,1527403,17036,-584,968,17073.47,28.48,-1.00,-1.0,2382
2406,1527406,17088,-568,980,17125.50,28.48,-1.00,-1.0,2427
2409,1527409,17136,-632,776,17165.20,28.58,-1.00,-1.0,2373
2411,1527411,17044,-596,992,17083.24,28.53,-1.00,-1.0,2431
2414,1527414,17040,-616,904,17075.08,28.48,-1.00,-1.0,2376
2419,1527419,17116,-620,976,17155.01,28.48,-1.00,-1.0,2449
2422,1527422,16964,-552,964,17000.33,28.48,-1.00,-1.0,2374
2425,1527425,16972,-652,968,17012.08,28.48,-1.00,-1.0,2436
2427,1527427,17100,-592,876,17132.65,28.39,-1.00,-1.0,2374
2430,1527430,17016,-660,856,17050.30,28.48,-1.00,-1.0,2435
2433,1527433,17080,-608,876,17113.25,28.48,-1.00,-1.0,2378
2436,1527436,16920,-572,872,16952.11,28.53,-1.00,-1.0,2367
2438,1527438,17036,-632,992,17076.56,28.48,-1.00,-1.0,2423
2441,1527441,17012,-616,952,17049.75,28.53,-1.00,-1.0,2370
2446,1527446,16920,-660,832,16953.29,28.53,-1.00,-1.0,2431
2449,1527449,16976,-516,1012,17013.96,28.44,-1.00,-1.0,2367
2452,1527452,17056,-468,808,17081.54,28.53,-1.00,-1.0,2423
2454,1527454,17016,-512,772,17041.20,28.53,-1.00,-1.0,2370
2457,1527457,17088,-636,940,17125.65,28.44,-1.00,-1.0,2426
2460,1527460,17068,-584,904,17101.90,28.44,-1.00,-1.0,2370
2463,1527463,17096,-620,944,17133.26,28.48,-1.00,-1.0,2420
2465,1527465,17068,-552,860,17098.56,28.53,-1.00,-1.0,2370
2470,1527470,17036,-564,952,17071.90,28.53,-1.00,-1.0,2432
2473,1527473,17088,-556,956,17123.75,28.44,-1.00,-1.0,2357
2476,1527476,16992,-568,888,17024.67,28.53,-1.00,-1.0,2365
2478,1527478,16940,-588,956,16977.14,28.48,-1.00,-1.0,2424
2481,1527481,17148,-472,912,17178.72,28.48,-1.00,-1.0,2370
2484,1527484,16996,-636,904,17031.90,28.48,-1.00,-1.0,2427
2487,1527487,17116,-564,920,17149.98,28.48,-1.00,-1.0,2369
2489,1527489,17032,-504,992,17068.31,28.48,-1.00,-1.0,2420
2492,1527492,17096,-612,1088,17141.51,28.48,-1.00,-1.0,2377
2497,1527497,17040,-600,936,17076.23,28.48,-1.00,-1.0,2432
2500,1527500,17016,-520,780,17041.80,28.48,-1.00,-1.0,2368
2503,1527503,17040,-620,792,17069.66,28.48,-1.00,-1.0,2423
2505,1527505,17116,-592,824,17146.05,28.39,-1.00,-1.0,2376
2508,1527508,17004,-624,952,17042.06,28.48,-1.00,-1.0,2419
2511,1527511,16992,-488,920,17023.88,28.58,-1.00,-1.0,2371
2513,1527513,16928,-600,808,16957.89,28.53,-1.00,-1.0,2376
2516,1527516,17012,-592,860,17044.01,28.53,-1.00,-1.0,2420
2519,1527519,17036,-632,1016,17077.97,28.48,-1.00,-1.0,2370
2525,1527525,17092,-532,780,17118.06,28.53,-1.00,-1.0,2431
2527,1527527,17028,-596,912,17062.82,28.58,-1.00,-1.0,2368
2530,1527530,17048,-516,1012,17085.80,28.53,-1.00,-1.0,2437
2533,1527533,17016,-520,1052,17056.42,28.44,-1.00,-1.0,2378
2536,1527536,16948,-568,928,16982.89,28.44,-1.00,-1.0,2440
2538,1527538,17044,-592,920,17079.07,28.44,-1.00,-1.0,2378
2541,1527541,17020,-604,1040,17062.44,28.53,-1.00,-1.0,2420
2544,1527544,16996,-556,944,17031.27,28.44,-1.00,-1.0,2359
2549,1527549,17052,-548,956,17087.57,28.44,-1.00,-1.0,2431
2551,1527551,16912,-628,956,16950.64,28.39,-1.00,-1.0,2367
2554,1527554,16928,-616,896,16962.88,28.53,-1.00,-1.0,2355
2557,1527557,17004,-528,928,17037.49,28.39,-1.00,-1.0,2434
2559,1527559,17120,-580,924,17154.72,28.44,-1.00,-1.0,2384
2562,1527562,17036,-444,988,17070.40,28.48,-1.00,-1.0,2420
2565,1527565,17024,-552,924,17057.99,28.53,-1.00,-1.0,2357
2568,1527568,17072,-576,1012,17111.67,28.48,-1.00,-1.0,2422
2570,1527570,16956,-516,800,16982.70,28.53,-1.00,-1.0,2374
2575,1527575,17068,-592,924,17103.24,28.53,-1.00,-1.0,2441
2578,1527578,17104,-560,852,17134.36,28.44,-1.00,-1.0,2373
2581,1527581,17020,-564,888,17052.48,28.48,-1.00,-1.0,2427
2584,1527584,16928,-536,948,16962.99,28.62,-1.00,-1.0,2378
2586,1527586,17088,-488,844,17115.79,28.48,-1.00,-1.0,2423
2589,1527589,17060,-636,872,17094.11,28.44,-1.00,-1.0,2384
2592,1527592,17096,-604,992,17135.40,28.48,-1.00,-1.0,2367
2595,1527595,17084,-588,904,17118.00,28.53,-1.00,-1.0,2422
2597,1527597,16984,-520,980,17020.20,28.48,-1.00,-1.0,2357
2602,1527602,17100,-628,952,17137.99,28.48,-1.00,-1.0,2431
2605,1527605,17044,-544,864,17074.55,28.48,-1.00,-1.0,2367
2608,1527608,17064,-560,696,17087.37,28.48,-1.00,-1.0,2425
2611,1527611,17072,-600,1016,17112.73,28.48,-1.00,-1.0,2373
2613,1527613,17020,-616,812,17050.49,28.53,-1.00,-1.0,2420
2616,1527616,16972,-600,876,17005.18,28.39,-1.00,-1.0,2370
2619,1527619,16992,-604,916,17027.39,28.53,-1.00,-1.0,2426
2622,1527622,17112,-556,996,17149.98,28.48,-1.00,-1.0,2371
2627,1527627,17044,-588,832,17074.42,28.58,-1.00,-1.0,2443
2629,1527629,16984,-584,984,17022.50,28.48,-1.00,-1.0,2384
2632,1527632,17104,-572,752,17130.08,28.39,-1.00,-1.0,2365
2635,1527635,17092,-632,928,17128.84,28.53,-1.00,-1.0,2425
2638,1527638,16964,-516,796,16990.50,28.53,-1.00,-1.0,2368
2640,1527640,17016,-676,904,17053.40,28.53,-1.00,-1.0,2422
2643,1527643,17060,-520,892,17091.22,28.48,-1.00,-1.0,2370
2646,1527646,17032,-524,816,17059.59,28.53,-1.00,-1.0,2422
2649,1527649,16984,-556,976,17021.10,28.53,-1.00,-1.0,2368
2654,1527654,17016,-548,944,17050.97,28.58,-1.00,-1.0,2441
2656,1527656,17048,-552,1020,17087.40,28.48,-1.00,-1.0,2369
2659,1527659,17052,-652,952,17090.99,28.39,-1.00,-1.0,2422
2662,1527662,16992,-524,896,17023.67,28.48,-1.00,-1.0,2370
2665,1527665,17044,-632,888,17078.81,28.44,-1.00,-1.0,2420
2667,1527667,17028,-528,796,17054.77,28.48,-1.00,-1.0,2370
2670,1527670,17076,-528,836,17104.60,28.53,-1.00,-1.0,2374
2673,1527673,16900,-680,956,16940.67,28.39,-1.00,-1.0,2422
2675,1527675,17044,-604,968,17082.15,28.53,-1.00,-1.0,2370
2680,1527680,16992,-592,912,17026.75,28.44,-1.00,-1.0,2441
2683,1527683,17020,-560,912,17053.61,28.48,-1.00,-1.0,2369
2686,1527686,17104,-532,1000,17141.46,28.44,-1.00,-1.0,2429
2689,1527689,16904,-592,1020,16945.09,28.53,-1.00,-1.0,2368
2691,1527691,17080,-548,948,17115.06,28.44,-1.00,-1.0,2422
2694,1527694,16988,-460,836,17014.78,28.53,-1.00,-1.0,2369
2697,1527697,17072,-564,892,17104.59,28.48,-1.00,-1.0,2423
2700,1527700,17084,-656,972,17124.20,28.53,-1.00,-1.0,2369
2705,1527705,17120,-604,968,17157.98,28.53,-1.00,-1.0,2436
2707,1527707,17008,-580,836,17038.41,28.53,-1.00,-1.0,2366
2710,1527710,16920,-692,836,16954.77,28.44,-1.00,-1.0,2373
2713,1527713,16968,-540,764,16993.77,28.48,-1.00,-1.0,2424
2715,1527715,17012,-488,992,17047.88,28.48,-1.00,-1.0,2370
2718,1527718,17036,-652,824,17068.37,28.48,-1.00,-1.0,2435
2721,1527721,17032,-648,844,17065.21,28.58,-1.00,-1.0,2373
2724,1527724,16980,-548,1016,17019.19,28.48,-1.00,-1.0,2429
2726,1527726,16936,-592,900,16970.23,28.48,-1.00,-1.0,2371
2731,1527731,17176,-572,964,17212.54,28.58,-1.00,-1.0,2448
2734,1527734,17012,-564,904,17045.34,28.48,-1.00,-1.0,2369
2737,1527737,16964,-644,840,16996.99,28.53,-1.00,-1.0,2434
2739,1527739,17056,-620,868,17089.32,28.48,-1.00,-1.0,2377
2742,1527742,17024,-592,1084,17068.75,28.53,-1.00,-1.0,2419
2745,1527745,16964,-640,844,16997.04,28.48,-1.00,-1.0,2373
2748,1527748,17004,-464,816,17029.89,28.44,-1.00,-1.0,2367
2750,1527750,17048,-560,824,17077.09,28.48,-1.00,-1.0,2427
2753,1527753,16976,-528,768,17001.56,28.48,-1.00,-1.0,2372
2758,1527758,17060,-640,804,17090.92,28.44,-1.00,-1.0,2436
2761,1527761,17052,-616,904,17087.05,28.53,-1.00,-1.0,2367
2764,1527764,16964,-544,816,16992.32,28.53,-1.00,-1.0,2422
2766,1527766,17116,-424,924,17146.17,28.44,-1.00,-1.0,2370
2769,1527769,16992,-596,876,17025.00,28.48,-1.00,-1.0,2420
2772,1527772,17008,-508,844,17036.50,28.53,-1.00,-1.0,2374
2775,1527775,17052,-572,920,17086.38,28.48,-1.00,-1.0,2420
2777,1527777,17076,-656,800,17107.31,28.48,-1.00,-1.0,2374
2782,1527782,17036,-580,816,17065.39,28.48,-1.00,-1.0,2440
2785,1527785,16916,-652,812,16948.02,28.48,-1.00,-1.0,2366
2788,1527788,17016,-640,916,17052.65,28.44,-1.00,-1.0,2371
2790,1527790,17048,-600,952,17085.10,28.44,-1.00,-1.0,2430
2793,1527793,17040,-564,864,17071.21,28.44,-1.00,-1.0,2389
2796,1527796,17056,-644,928,17093.36,28.44,-1.00,-1.0,2422
2799,1527799,17040,-600,964,17077.79,28.44,-1.00,-1.0,2369
2802,1527802,17004,-604,924,17039.79,28.53,-1.00,-1.0,2422
2804,1527804,17012,-564,1032,17052.60,28.44,-1.00,-1.0,2372
2809,1527809,17088,-564,920,17122.04,28.48,-1.00,-1.0,2439
2812,1527812,17016,-600,964,17053.84,28.58,-1.00,-1.0,2368
2815,1527815,16976,-476,824,17002.65,28.48,-1.00,-1.0,2430
2818,1527818,16952,-612,928,16988.41,28.58,-1.00,-1.0,2369
2820,1527820,17080,-600,840,17111.17,28.53,-1.00,-1.0,2437
2823,1527823,17060,-560,972,17096.84,28.48,-1.00,-1.0,2370
2826,1527826,16996,-508,764,17020.75,28.44,-1.00,-1.0,2366
2829,1527829,17024,-572,940,17059.52,28.58,-1.00,-1.0,2420
2831,1527831,16976,-544,1000,17014.13,28.53,-1.00,-1.0,2378
2836,1527836,16908,-556,740,16933.32,28.53,-1.00,-1.0,2447
2839,1527839,17072,-596,940,17108.24,28.53,-1.00,-1.0,2375
2842,1527842,17044,-488,884,17073.88,28.44,-1.00,-1.0,2412
2845,1527845,17076,-600,872,17108.77,28.44,-1.00,-1.0,2369
2847,1527847,17068,-564,784,17095.30,28.44,-1.00,-1.0,2429
2850,1527850,17012,-656,928,17049.92,28.53,-1.00,-1.0,2377
2853,1527853,16968,-680,960,17008.73,28.53,-1.00,-1.0,2407
2856,1527856,17152,-500,868,17181.23,28.53,-1.00,-1.0,2370
2861,1527861,17044,-592,932,17079.72,28.53,-1.00,-1.0,2437
2863,1527863,17008,-548,1068,17050.31,28.48,-1.00,-1.0,2367
2866,1527866,17048,-572,848,17078.66,28.44,-1.00,-1.0,2355
2869,1527869,16976,-552,932,17010.52,28.48,-1.00,-1.0,2437
2871,1527871,17004,-576,836,17034.28,28.53,-1.00,-1.0,2377
2874,1527874,17112,-496,824,17139.01,28.39,-1.00,-1.0,2420
2877,1527877,17044,-580,904,17077.81,28.53,-1.00,-1.0,2371
2880,1527880,16992,-672,796,17023.90,28.48,-1.00,-1.0,2421
2882,1527882,17028,-612,996,17068.08,28.48,-1.00,-1.0,2369
2887,1527887,17124,-592,972,17161.78,28.48,-1.00,-1.0,2447
2890,1527890,17032,-548,948,17067.16,28.53,-1.00,-1.0,2373
2893,1527893,17092,-576,928,17126.86,28.48,-1.00,-1.0,2422
2896,1527896,16960,-628,888,16994.84,28.48,-1.00,-1.0,2369
2899,1527899,16984,-676,972,17025.22,28.48,-1.00,-1.0,2422
2901,1527901,17084,-572,940,17119.40,28.48,-1.00,-1.0,2377
2904,1527904,17072,-500,816,17098.80,28.48,-1.00,-1.0,2374
2907,1527907,17024,-580,908,17058.06,28.53,-1.00,-1.0,2419
2910,1527910,17116,-564,656,17137.85,28.48,-1.00,-1.0,2370
2915,1527915,17020,-592,872,17052.60,28.58,-1.00,-1.0,2443
2917,1527917,16936,-504,936,16969.33,28.58,-1.00,-1.0,2370
2920,1527920,17080,-520,944,17113.97,28.48,-1.00,-1.0,2424
2923,1527923,17012,-600,960,17049.62,28.58,-1.00,-1.0,2371
2926,1527926,17128,-616,844,17159.84,28.48,-1.00,-1.0,2459
2928,1527928,16964,-612,884,16998.04,28.48,-1.00,-1.0,2378
2931,1527931,17016,-560,916,17049.84,28.58,-1.00,-1.0,2424
2934,1527934,16996,-596,940,17032.41,28.48,-1.00,-1.0,2367
2939,1527939,16992,-604,816,17022.30,28.48,-1.00,-1.0,2436
2941,1527941,16964,-700,1044,17010.50,28.48,-1.00,-1.0,2368
2944,1527944,16980,-580,996,17019.07,28.53,-1.00,-1.0,2364
2947,1527947,16992,-640,824,17024.00,28.62,-1.00,-1.0,2429
2950,1527950,17060,-492,1008,17096.83,28.53,-1.00,-1.0,2368
2952,1527952,17084,-464,960,17117.24,28.58,-1.00,-1.0,2427
2955,1527955,17028,-560,896,17060.75,28.44,-1.00,-1.0,2369
2958,1527958,17036,-644,904,17072.12,28.48,-1.00,-1.0,2429
2961,1527961,16940,-532,820,16968.18,28.44,-1.00,-1.0,2369
2965,1527965,16936,-536,908,16968.79,28.53,-1.00,-1.0,2437
2968,1527968,16992,-524,912,17024.52,28.48,-1.00,-1.0,2366
2971,1527971,17052,-576,980,17089.85,28.48,-1.00,-1.0,2423
2974,1527974,17156,-672,972,17196.65,28.53,-1.00,-1.0,2368
2976,1527976,17084,-644,972,17123.74,28.53,-1.00,-1.0,2420
2979,1527979,17020,-560,720,17044.42,28.44,-1.00,-1.0,2370
2982,1527982,17008,-592,908,17042.51,28.53,-1.00,-1.0,2366
2985,1527985,17076,-540,972,17112.16,28.39,-1.00,-1.0,2419
2988,1527988,17116,-576,860,17147.27,28.53,-1.00,-1.0,2369
2993,1527993,16984,-584,924,17019.14,28.53,-1.00,-1.0,2436
2995,1527995,17052,-604,980,17090.81,28.53,-1.00,-1.0,2365
2998,1527998,16948,-632,932,16985.37,28.53,-1.00,-1.0,2422
3001,1528001,17016,-424,932,17046.78,28.53,-1.00,-1.0,2369
3004,1528004,17076,-564,860,17106.94,28.58,-1.00,-1.0,2419
3006,1528006,16992,-552,928,17026.27,28.53,-1.00,-1.0,2369
3009,1528009,16984,-580,800,17012.72,28.48,-1.00,-1.0,2419
3012,1528012,17040,-524,884,17070.96,28.53,-1.00,-1.0,2369
3017,1528017,17036,-504,920,17068.27,28.44,-1.00,-1.0,2437
3020,1528020,17008,-620,960,17046.35,28.44,-1.00,-1.0,2366
3022,1528022,17052,-592,940,17088.15,28.48,-1.00,-1.0,2365
3025,1528025,16924,-540,832,16953.04,28.48,-1.00,-1.0,2428
3028,1528028,17044,-532,888,17075.41,28.58,-1.00,-1.0,2368
3030,1528030,17020,-608,948,17057.22,28.48,-1.00,-1.0,2430
3033,1528033,17228,-612,820,17258.36,28.58,-1.00,-1.0,2370
3036,1528036,16980,-544,968,17016.27,28.48,-1.00,-1.0,2427
3039,1528039,16980,-556,800,17007.93,28.48,-1.00,-1.0,2371
3044,1528044,16980,-692,1008,17023.96,28.48,-1.00,-1.0,2443
3047,1528047,16992,-588,900,17025.97,28.44,-1.00,-1.0,2366
3049,1528049,16980,-596,964,17017.78,28.48,-1.00,-1.0,2422
3052,1528052,17036,-576,952,17072.30,28.62,-1.00,-1.0,2370
3055,1528055,17044,-532,936,17077.97,28.48,-1.00,-1.0,2422
3058,1528058,17080,-588,928,17115.29,28.53,-1.00,-1.0,2368
3060,1528060,16964,-588,1016,17004.57,28.48,-1.00,-1.0,2380
3063,1528063,17016,-464,848,17043.43,28.44,-1.00,-1.0,2421
3066,1528066,16984,-524,836,17012.63,28.48,-1.00,-1.0,2372
3071,1528071,17000,-592,908,17034.52,28.48,-1.00,-1.0,2437
3073,1528073,17004,-544,956,17039.54,28.48,-1.00,-1.0,2367
3076,1528076,17080,-508,872,17109.79,28.44,-1.00,-1.0,2437
3079,1528079,16952,-700,932,16992.03,28.48,-1.00,-1.0,2380
3082,1528082,16904,-600,880,16937.52,28.58,-1.00,-1.0,2433
3084,1528084,17020,-632,920,17056.56,28.58,-1.00,-1.0,2372
3087,1528087,17052,-604,904,17086.62,28.44,-1.00,-1.0,2429
3090,1528090,16992,-576,892,17025.14,28.44,-1.00,-1.0,2417
3095,1528095,16984,-588,920,17019.06,28.48,-1.00,-1.0,2443
3098,1528098,17016,-592,868,17048.41,28.48,-1.00,-1.0,2369
3100,1528100,17068,-620,832,17099.51,28.48,-1.00,-1.0,2368
3103,1528103,17136,-556,812,17164.24,28.53,-1.00,-1.0,2413
3106,1528106,17028,-592,980,17066.45,28.53,-1.00,-1.0,2378
3109,1528109,17024,-504,908,17055.65,28.62,-1.00,-1.0,2433
3111,1528111,17096,-568,840,17126.04,28.53,-1.00,-1.0,2382
3114,1528114,17028,-632,896,17063.27,28.53,-1.00,-1.0,2417
3117,1528117,16996,-592,988,17034.98,28.53,-1.00,-1.0,2376
3122,1528122,17024,-588,868,17056.25,28.44,-1.00,-1.0,2445
3125,1528125,17128,-552,972,17164.44,28.48,-1.00,-1.0,2368
3127,1528127,17004,-540,908,17036.79,28.53,-1.00,-1.0,2425
3130,1528130,17068,-532,980,17104.39,28.53,-1.00,-1.0,2379
3133,1528133,17052,-592,836,17082.74,28.53,-1.00,-1.0,2403
3136,1528136,16956,-528,864,16986.21,28.58,-1.00,-1.0,2373
3138,1528138,16964,-600,960,17001.73,28.58,-1.00,-1.0,2367
3141,1528141,16952,-564,772,16978.94,28.48,-1.00,-1.0,2416
3144,1528144,17016,-608,892,17050.21,28.58,-1.00,-1.0,2372
3149,1528149,17008,-480,940,17040.72,28.48,-1.00,-1.0,2438
3151,1528151,17052,-560,788,17079.38,28.48,-1.00,-1.0,2368
3154,1528154,17084,-536,868,17114.43,28.53,-1.00,-1.0,2416
3157,1528157,17020,-500,924,17052.39,28.39,-1.00,-1.0,2372
3160,1528160,17000,-508,1056,17040.34,28.48,-1.00,-1.0,2416
3162,1528162,17028,-588,952,17064.72,28.48,-1.00,-1.0,2359
3165,1528165,16956,-472,980,16990.85,28.53,-1.00,-1.0,2416
3168,1528168,17108,-508,868,17137.54,28.48,-1.00,-1.0,2372
3172,1528172,16956,-636,1000,16997.37,28.58,-1.00,-1.0,2446
3175,1528175,17000,-632,992,17040.64,28.53,-1.00,-1.0,2376
3178,1528178,17044,-520,940,17077.82,28.58,-1.00,-1.0,2366
3181,1528181,17072,-604,864,17104.52,28.48,-1.00,-1.0,2417
3183,1528183,16976,-576,936,17011.54,28.48,-1.00,-1.0,2372
3186,1528186,17064,-580,948,17100.15,28.53,-1.00,-1.0,2416
3189,1528189,17076,-552,984,17113.23,28.48,-1.00,-1.0,2372
3192,1528192,16900,-612,808,16930.37,28.53,-1.00,-1.0,2425
3195,1528195,17096,-692,768,17127.23,28.58,-1.00,-1.0,2370
3200,1528200,16988,-604,932,17024.26,28.48,-1.00,-1.0,2438
3202,1528202,16936,-568,1020,16976.19,28.48,-1.00,-1.0,2363
3205,1528205,17068,-560,880,17099.84,28.58,-1.00,-1.0,2417
3208,1528208,16924,-536,948,16959.00,28.48,-1.00,-1.0,2375
3211,1528211,17036,-648,912,17072.70,28.48,-1.00,-1.0,2418
3214,1528214,17068,-504,968,17102.86,28.58,-1.00,-1.0,2375
3216,1528216,17068,-480,868,17096.80,28.53,-1.00,-1.0,2364
3219,1528219,17040,-580,920,17074.67,28.53,-1.00,-1.0,2424
3222,1528222,17028,-528,936,17061.88,28.44,-1.00,-1.0,2378
3227,1528227,16980,-620,1048,17023.60,28.53,-1.00,-1.0,2445
3230,1528230,16992,-564,908,17025.59,28.58,-1.00,-1.0,2369
3232,1528232,16984,-692,804,17017.10,28.53,-1.00,-1.0,2418
3235,1528235,17064,-608,844,17095.67,28.44,-1.00,-1.0,2375
3238,1528238,16980,-616,928,17016.49,28.44,-1.00,-1.0,2418
3241,1528241,17032,-484,956,17065.67,28.58,-1.00,-1.0,2371
3243,1528243,17012,-568,980,17049.67,28.53,-1.00,-1.0,2417
3246,1528246,17008,-596,892,17041.80,28.44,-1.00,-1.0,2372
3251,1528251,17096,-568,856,17126.84,28.48,-1.00,-1.0,2438
3254,1528254,16944,-636,816,16975.55,28.39,-1.00,-1.0,2369
3256,1528256,17112,-680,864,17147.29,28.44,-1.00,-1.0,2368
3259,1528259,17048,-484,964,17082.09,28.39,-1.00,-1.0,2431
3262,1528262,17096,-628,1116,17143.89,28.44,-1.00,-1.0,2379
3265,1528265,17000,-616,1060,17044.15,28.48,-1.00,-1.0,2430
3267,1528267,17044,-548,924,17077.82,28.48,-1.00,-1.0,2375
3270,1528270,17052,-628,892,17086.86,28.48,-1.00,-1.0,2431
3273,1528273,17088,-576,1056,17130.29,28.39,-1.00,-1.0,2379
3278,1528278,17036,-552,992,17073.78,28.58,-1.00,-1.0,2445
3281,1528281,17016,-616,868,17049.26,28.44,-1.00,-1.0,2368
3283,1528283,17040,-520,948,17074.27,28.48,-1.00,-1.0,2429
3286,1528286,17036,-632,720,17062.92,28.58,-1.00,-1.0,2372
3289,1528289,17044,-656,880,17079.30,28.39,-1.00,-1.0,2424
3292,1528292,17072,-608,960,17109.78,28.48,-1.00,-1.0,2372
3294,1528294,17000,-632,872,17034.08,28.44,-1.00,-1.0,2366
3297,1528297,17092,-492,1096,17134.17,28.53,-1.00,-1.0,2403
3300,1528300,17020,-560,996,17058.31,28.48,-1.00,-1.0,2380
3305,1528305,17036,-484,980,17071.03,28.48,-1.00,-1.0,2444
3308,1528308,16972,-612,1000,17012.45,28.48,-1.00,-1.0,2368
3310,1528310,16932,-604,904,16966.87,28.48,-1.00,-1.0,2426
3313,1528313,17036,-520,1012,17073.95,28.48,-1.00,-1.0,2379
3316,1528316,16968,-644,1016,17010.59,28.48,-1.00,-1.0,2405
3319,1528319,17028,-588,852,17059.44,28.58,-1.00,-1.0,2373
3321,1528321,16992,-640,944,17030.23,28.58,-1.00,-1.0,2425
3324,1528324,17012,-636,968,17051.38,28.48,-1.00,-1.0,2380
3329,1528329,17040,-572,1136,17087.40,28.48,-1.00,-1.0,2441
3332,1528332,17020,-564,888,17052.48,28.39,-1.00,-1.0,2375
3335,1528335,17108,-492,972,17142.65,28.48,-1.00,-1.0,2427
3337,1528337,16964,-500,1028,17002.47,28.48,-1.00,-1.0,2376
3340,1528340,16948,-564,864,16979.38,28.44,-1.00,-1.0,2366
3343,1528343,17104,-564,852,17134.49,28.62,-1.00,-1.0,2426
3346,1528346,16892,-516,824,16919.96,28.53,-1.00,-1.0,2371
3348,1528348,17060,-548,988,17097.37,28.48,-1.00,-1.0,2416
3351,1528351,16992,-624,976,17031.44,28.44,-1.00,-1.0,2375
3357,1528357,17028,-564,840,17058.03,28.58,-1.00,-1.0,2447
3359,1528359,16996,-592,840,17027.04,28.48,-1.00,-1.0,2371
3362,1528362,17044,-508,1056,17084.24,28.48,-1.00,-1.0,2422
3365,1528365,17092,-572,756,17118.27,28.48,-1.00,-1.0,2380
3368,1528368,17112,-572,912,17145.83,28.58,-1.00,-1.0,2420
3370,1528370,17100,-508,940,17133.35,28.58,-1.00,-1.0,2376
3373,1528373,17048,-524,864,17077.92,28.53,-1.00,-1.0,2432
3376,1528376,17064,-640,932,17101.41,28.48,-1.00,-1.0,2383
3378,1528378,17008,-576,980,17045.95,28.44,-1.00,-1.0,2353
3383,1528383,17076,-532,844,17105.12,28.44,-1.00,-1.0,2454
3386,1528386,17048,-528,796,17074.74,28.53,-1.00,-1.0,2376
3389,1528389,17024,-580,864,17055.78,28.44,-1.00,-1.0,2420
3391,1528391,17068,-592,924,17103.24,28.48,-1.00,-1.0,2381
3394,1528394,16840,-576,804,16869.02,28.53,-1.00,-1.0,2417
3397,1528397,17032,-528,1000,17069.50,28.44,-1.00,-1.0,2372
3400,1528400,17060,-508,1036,17098.97,28.53,-1.00,-1.0,2419
3402,1528402,17072,-524,928,17105.23,28.53,-1.00,-1.0,2375
3407,1528407,17028,-540,1000,17065.88,28.53,-1.00,-1.0,2446
3410,1528410,17036,-524,992,17072.90,28.53,-1.00,-1.0,2383
3413,1528413,16984,-548,800,17011.66,28.44,-1.00,-1.0,2419
3416,1528416,17028,-684,868,17063.82,28.53,-1.00,-1.0,2376
3418,1528418,17036,-576,1008,17075.51,28.58,-1.00,-1.0,2365
3421,1528421,16896,-612,924,16932.31,28.48,-1.00,-1.0,2416
3424,1528424,17052,-580,964,17089.07,28.48,-1.00,-1.0,2372
3427,1528427,17048,-556,896,17080.58,28.39,-1.00,-1.0,2416
3429,1528429,17028,-536,776,17054.10,28.48,-1.00,-1.0,2359
3434,1528434,17064,-536,916,17096.97,28.48,-1.00,-1.0,2438
3437,1528437,16984,-540,1024,17023.41,28.48,-1.00,-1.0,2368
3440,1528440,17008,-688,864,17043.82,28.48,-1.00,-1.0,2423
3443,1528443,17024,-536,928,17057.70,28.48,-1.00,-1.0,2370
3445,1528445,17088,-628,1084,17133.86,28.48,-1.00,-1.0,2418
3448,1528448,16944,-724,776,16977.21,28.48,-1.00,-1.0,2359
3451,1528451,16916,-672,876,16951.99,28.48,-1.00,-1.0,2424
3454,1528454,16948,-620,796,16978.01,28.48,-1.00,-1.0,2371
3456,1528456,17076,-616,880,17109.75,28.44,-1.00,-1.0,2365
3461,1528461,17008,-664,936,17046.67,28.53,-1.00,-1.0,2437
3464,1528464,17008,-568,796,17036.09,28.48,-1.00,-1.0,2377
3467,1528467,17024,-604,1032,17065.94,28.44,-1.00,-1.0,2417
3469,1528469,17024,-600,904,17058.54,28.48,-1.00,-1.0,2372
3472,1528472,16972,-556,896,17004.73,28.44,-1.00,-1.0,2424
3475,1528475,16968,-648,956,17007.26,28.44,-1.00,-1.0,2379
3478,1528478,17048,-616,900,17082.85,28.44,-1.00,-1.0,2417
3480,1528480,17060,-536,920,17093.20,28.48,-1.00,-1.0,2374
3486,1528486,16988,-476,852,17016.01,28.48,-1.00,-1.0,2437
3488,1528488,17032,-580,964,17069.12,28.48,-1.00,-1.0,2368
3491,1528491,16984,-616,892,17018.56,28.53,-1.00,-1.0,2415
3494,1528494,16984,-588,864,17016.12,28.48,-1.00,-1.0,2372
3496,1528496,17100,-656,988,17141.08,28.48,-1.00,-1.0,2410
3499,1528499,16932,-552,940,16967.05,28.53,-1.00,-1.0,2421
3502,1528502,17084,-548,844,17113.61,28.53,-1.00,-1.0,2369
3505,1528505,17048,-560,824,17077.09,28.53,-1.00,-1.0,2425
3508,1528508,17060,-592,1052,17102.65,28.44,-1.00,-1.0,2369
3513,1528513,17060,-604,892,17093.98,28.44,-1.00,-1.0,2439
3515,1528515,16956,-580,804,16984.96,28.48,-1.00,-1.0,2368
3518,1528518,16932,-628,1112,16980.09,28.53,-1.00,-1.0,2417
3521,1528521,17044,-560,848,17074.27,28.58,-1.00,-1.0,2374
3524,1528524,17008,-480,872,17037.10,28.53,-1.00,-1.0,2417
3526,1528526,17016,-588,1024,17056.92,28.58,-1.00,-1.0,2373
3529,1528529,17060,-612,900,17094.68,28.53,-1.00,-1.0,2417
3532,1528532,17024,-648,908,17060.51,28.48,-1.00,-1.0,2372
3537,1528537,17044,-552,860,17074.61,28.58,-1.00,-1.0,2439
3539,1528539,16980,-608,876,17013.45,28.58,-1.00,-1.0,2376
3542,1528542,17056,-528,828,17084.25,28.53,-1.00,-1.0,2364
3545,1528545,16956,-556,984,16993.63,28.48,-1.00,-1.0,2424
3548,1528548,16988,-512,948,17022.13,28.53,-1.00,-1.0,2370
3550,1528550,17032,-612,876,17065.49,28.48,-1.00,-1.0,2423
3553,1528553,17076,-560,904,17109.08,28.53,-1.00,-1.0,2371
3556,1528556,17116,-616,928,17152.20,28.58,-1.00,-1.0,2424
3559,1528559,17028,-536,888,17059.56,28.44,-1.00,-1.0,2372
3563,1528563,17060,-568,908,17093.59,28.48,-1.00,-1.0,2450
3566,1528566,16960,-564,916,16994.08,28.48,-1.00,-1.0,2376
3569,1528569,17016,-576,956,17052.56,28.48,-1.00,-1.0,2417
3572,1528572,17048,-524,904,17079.99,28.48,-1.00,-1.0,2374
3574,1528574,16948,-592,852,16979.72,28.48,-1.00,-1.0,2365
3577,1528577,17016,-604,840,17047.42,28.53,-1.00,-1.0,2416
3580,1528580,16980,-596,980,17018.70,28.53,-1.00,-1.0,2371
3583,1528583,17020,-588,924,17055.20,28.53,-1.00,-1.0,2416
3585,1528585,17012,-588,840,17042.87,28.58,-1.00,-1.0,2372
3590,1528590,17024,-632,932,17061.20,28.58,-1.00,-1.0,2441
3593,1528593,17028,-536,908,17060.61,28.48,-1.00,-1.0,2372
3595,1528595,17020,-576,1036,17061.23,28.53,-1.00,-1.0,2424
3598,1528598,17060,-488,980,17095.09,28.48,-1.00,-1.0,2387
3601,1528601,17000,-580,1000,17039.26,28.53,-1.00,-1.0,2417
3604,1528604,16908,-580,864,16939.99,28.48,-1.00,-1.0,2376
3607,1528607,17020,-624,956,17058.24,28.44,-1.00,-1.0,2418
3609,1528609,17088,-632,928,17124.85,28.48,-1.00,-1.0,2361
3614,1528614,17020,-544,932,17054.18,28.58,-1.00,-1.0,2453
3617,1528617,17044,-544,956,17079.46,28.39,-1.00,-1.0,2376
3620,1528620,17048,-588,960,17085.13,28.53,-1.00,-1.0,2363
3622,1528622,17028,-636,1000,17069.19,28.44,-1.00,-1.0,2419
3625,1528625,17028,-708,936,17068.40,28.53,-1.00,-1.0,2371
3628,1528628,17040,-508,864,17069.45,28.53,-1.00,-1.0,2423
3631,1528631,17004,-472,780,17028.42,28.44,-1.00,-1.0,2371
3633,1528633,17132,-520,820,17159.49,28.48,-1.00,-1.0,2416
3636,1528636,16968,-560,880,17000.03,28.58,-1.00,-1.0,2373
3641,1528641,16960,-592,852,16991.70,28.39,-1.00,-1.0,2448
3644,1528644,17080,-496,964,17114.37,28.48,-1.00,-1.0,2373
3647,1528647,17052,-632,980,17091.83,28.62,-1.00,-1.0,2418
3649,1528649,17004,-584,768,17031.35,28.62,-1.00,-1.0,2376
3652,1528652,17044,-568,952,17080.01,28.53,-1.00,-1.0,2416
3655,1528655,17036,-560,896,17068.73,28.53,-1.00,-1.0,2372
3658,1528658,17028,-572,964,17064.86,28.48,-1.00,-1.0,2366
3660,1528660,17028,-508,772,17053.06,28.48,-1.00,-1.0,2416
3663,1528663,17080,-612,1036,17122.33,28.44,-1.00,-1.0,2372
3668,1528668,17088,-512,912,17119.98,28.44,-1.00,-1.0,2438
3671,1528671,17028,-620,912,17063.67,28.53,-1.00,-1.0,2356
3674,1528674,17004,-652,812,17035.86,28.53,-1.00,-1.0,2417
3676,1528676,16996,-548,828,17024.98,28.44,-1.00,-1.0,2376
3679,1528679,17020,-528,912,17052.59,28.44,-1.00,-1.0,2417
3682,1528682,17024,-592,896,17057.84,28.53,-1.00,-1.0,2375
3685,1528685,17124,-612,844,17155.71,28.48,-1.00,-1.0,2420
3687,1528687,17064,-660,1028,17107.67,28.53,-1.00,-1.0,2371
3692,1528692,16980,-592,880,17013.09,28.53,-1.00,-1.0,2448
3695,1528695,17000,-624,1088,17046.21,28.48,-1.00,-1.0,2384
3698,1528698,17132,-572,884,17164.33,28.48,-1.00,-1.0,2365
3701,1528701,17036,-588,784,17064.16,28.58,-1.00,-1.0,2417
3703,1528703,17028,-580,1016,17068.14,28.48,-1.00,-1.0,2359
3706,1528706,16996,-532,972,17032.08,28.58,-1.00,-1.0,2417
3709,1528709,17040,-616,964,17078.36,28.58,-1.00,-1.0,2372
3712,1528712,17024,-612,852,17056.29,28.58,-1.00,-1.0,2417
3714,1528714,16976,-656,936,17014.44,28.48,-1.00,-1.0,2371
3719,1528719,17036,-548,876,17067.31,28.58,-1.00,-1.0,2438
3722,1528722,16996,-564,804,17024.35,28.48,-1.00,-1.0,2368
3725,1528725,17004,-556,924,17038.16,28.48,-1.00,-1.0,2424
3728,1528728,16976,-532,948,17010.77,28.58,-1.00,-1.0,2371
3730,1528730,16896,-604,796,16925.52,28.58,-1.00,-1.0,2417
3733,1528733,17072,-580,972,17109.48,28.39,-1.00,-1.0,2372
3736,1528736,17080,-560,840,17109.81,28.53,-1.00,-1.0,2367
3738,1528738,17108,-592,836,17138.64,28.53,-1.00,-1.0,2426
3741,1528741,17044,-508,968,17079.02,28.48,-1.00,-1.0,2374
3746,1528746,17128,-544,996,17165.56,28.48,-1.00,-1.0,2440
3749,1528749,17124,-620,932,17160.55,28.48,-1.00,-1.0,2371
3752,1528752,17104,-608,892,17138.03,28.53,-1.00,-1.0,2425
3755,1528755,17120,-432,856,17146.83,28.48,-1.00,-1.0,2370
3757,1528757,17076,-656,820,17108.26,28.53,-1.00,-1.0,2417
3760,1528760,16952,-504,848,16980.68,28.58,-1.00,-1.0,2372
3763,1528763,16972,-544,780,16998.62,28.53,-1.00,-1.0,2423
3766,1528766,17016,-600,948,17052.95,28.58,-1.00,-1.0,2360
3770,1528770,17072,-616,900,17106.80,28.53,-1.00,-1.0,2450
3773,1528773,16912,-628,924,16948.86,28.44,-1.00,-1.0,2376
3776,1528776,17008,-528,860,17037.91,28.58,-1.00,-1.0,2367
3779,1528779,17004,-656,952,17043.26,28.48,-1.00,-1.0,2416
3781,1528781,17012,-648,824,17044.27,28.48,-1.00,-1.0,2371
3784,1528784,17132,-668,940,17170.77,28.48,-1.00,-1.0,2416
3787,1528787,16940,-576,904,16973.88,28.48,-1.00,-1.0,2372
3790,1528790,17016,-592,820,17046.03,28.53,-1.00,-1.0,2416
3792,1528792,17004,-580,824,17033.83,28.44,-1.00,-1.0,2378
3797,1528797,16968,-616,924,17004.30,28.48,-1.00,-1.0,2437
3800,1528800,17076,-532,996,17113.29,28.48,-1.00,-1.0,2370
3803,1528803,17020,-656,980,17060.81,28.44,-1.00,-1.0,2417
3805,1528805,17000,-500,740,17023.44,28.53,-1.00,-1.0,2371
3808,1528808,17008,-496,996,17044.36,28.62,-1.00,-1.0,2417
3811,1528811,17036,-584,912,17070.39,28.53,-1.00,-1.0,2372
3813,1528813,17028,-572,868,17059.70,28.48,-1.00,-1.0,2374
3816,1528816,17044,-552,856,17074.41,28.48,-1.00,-1.0,2424
3819,1528819,17024,-668,936,17062.79,28.48,-1.00,-1.0,2382
3824,1528824,17044,-684,784,17075.73,28.48,-1.00,-1.0,2446
3827,1528827,17076,-580,948,17112.13,28.39,-1.00,-1.0,2375
3830,1528830,17052,-516,948,17086.12,28.48,-1.00,-1.0,2419
3833,1528833,17036,-612,1016,17077.24,28.44,-1.00,-1.0,2426
3836,1528836,17028,-576,908,17061.92,28.48,-1.00,-1.0,2429
3838,1528838,16964,-552,992,17001.94,28.58,-1.00,-1.0,2379
3841,1528841,17052,-616,764,17080.22,28.48,-1.00,-1.0,2410
3844,1528844,17044,-628,952,17082.11,28.48,-1.00,-1.0,2382
3849,1528849,17052,-592,880,17084.95,28.48,-1.00,-1.0,2448
3852,1528852,17028,-628,836,17060.07,28.53,-1.00,-1.0,2365
3854,1528854,16976,-636,960,17015.01,28.48,-1.00,-1.0,2366
3857,1528857,16980,-708,824,17014.72,28.58,-1.00,-1.0,2407
3860,1528860,17000,-628,1008,17041.43,28.48,-1.00,-1.0,2370
3863,1528863,16940,-516,880,16970.69,28.53,-1.00,-1.0,2420
3865,1528865,17020,-504,896,17051.02,28.58,-1.00,-1.0,2372
3868,1528868,16964,-544,988,17001.45,28.48,-1.00,-1.0,2419
3871,1528871,17028,-524,956,17062.86,28.48,-1.00,-1.0,2370
3876,1528876,17004,-544,724,17028.10,28.48,-1.00,-1.0,2448
3878,1528878,17024,-564,908,17057.52,28.48,-1.00,-1.0,2377
3881,1528881,17004,-708,832,17039.06,28.53,-1.00,-1.0,2419
3884,1528884,16960,-612,1080,17005.37,28.48,-1.00,-1.0,2371
3887,1528887,17088,-544,920,17121.39,28.44,-1.00,-1.0,2421
3889,1528889,17092,-588,1016,17132.26,28.44,-1.00,-1.0,2368
3892,1528892,16980,-556,840,17009.85,28.53,-1.00,-1.0,2365
3895,1528895,17068,-564,908,17101.44,28.48,-1.00,-1.0,2426
3898,1528898,16992,-628,916,17028.26,28.53,-1.00,-1.0,2367
3903,1528903,17040,-680,888,17076.67,28.53,-1.00,-1.0,2443
3906,1528906,17008,-584,804,17037.01,28.44,-1.00,-1.0,2372
3908,1528908,17028,-648,944,17066.45,28.53,-1.00,-1.0,2418
3911,1528911,16964,-632,1044,17007.84,28.58,-1.00,-1.0,2358
3914,1528914,17116,-700,912,17154.57,28.44,-1.00,-1.0,2426
3917,1528917,17084,-616,852,17116.32,28.53,-1.00,-1.0,2367
3919,1528919,17044,-608,884,17077.74,28.44,-1.00,-1.0,2421
3922,1528922,17076,-472,908,17106.64,28.53,-1.00,-1.0,2369
3927,1528927,17036,-568,984,17073.85,28.48,-1.00,-1.0,2443
3930,1528930,16924,-588,1032,16965.63,28.48,-1.00,-1.0,2366
3932,1528932,17092,-576,840,17122.32,28.44,-1.00,-1.0,2365
3935,1528935,17068,-632,956,17106.43,28.48,-1.00,-1.0,2419
3938,1528938,16968,-572,932,17003.20,28.53,-1.00,-1.0,2368
3941,1528941,16984,-584,816,17013.62,28.48,-1.00,-1.0,2419
3943,1528943,17064,-628,848,17096.60,28.53,-1.00,-1.0,2356
3946,1528946,17060,-540,960,17095.52,28.48,-1.00,-1.0,2419
3949,1528949,17100,-468,924,17131.34,28.62,-1.00,-1.0,2370
3954,1528954,16976,-636,964,17015.24,28.44,-1.00,-1.0,2440
3956,1528956,17124,-576,880,17156.27,28.53,-1.00,-1.0,2367
3959,1528959,17132,-672,812,17164.39,28.53,-1.00,-1.0,2418
3962,1528962,17060,-528,1012,17098.14,28.44,-1.00,-1.0,2370
3965,1528965,16912,-560,1020,16951.98,28.44,-1.00,-1.0,2421
3967,1528967,17048,-504,936,17081.11,28.44,-1.00,-1.0,2368
3970,1528970,17040,-572,720,17064.79,28.48,-1.00,-1.0,2365
3973,1528973,17048,-636,872,17082.13,28.48,-1.00,-1.0,2426
3976,1528976,17080,-608,892,17114.08,28.48,-1.00,-1.0,2368
3980,1528980,17152,-636,912,17188.00,28.34,-1.00,-1.0,2452
3983,1528983,17012,-520,772,17037.45,28.48,-1.00,-1.0,2373
3986,1528986,17020,-592,924,17055.34,28.44,-1.00,-1.0,2408
3989,1528989,16904,-644,868,16938.52,28.48,-1.00,-1.0,2368
3991,1528991,17008,-628,928,17044.87,28.44,-1.00,-1.0,2426
3994,1528994,17024,-592,932,17059.77,28.53,-1.00,-1.0,2375
3997,1528997,17012,-608,940,17048.79,28.53,-1.00,-1.0,2409
4000,1529000,17020,-544,996,17057.79,28.48,-1.00,-1.0,2369
4004,1529004,17084,-656,960,17123.52,28.58,-1.00,-1.0,2441
4007,1529007,17052,-560,944,17087.29,28.48,-1.00,-1.0,2366
4010,1529010,17112,-564,876,17143.69,28.48,-1.00,-1.0,2365
4012,1529012,17060,-688,896,17097.36,28.53,-1.00,-1.0,2428
4015,1529015,17080,-532,972,17115.90,28.53,-1.00,-1.0,2376
4018,1529018,16976,-608,844,17007.84,28.53,-1.00,-1.0,2413
4021,1529021,17048,-664,784,17078.93,28.53,-1.00,-1.0,2369
4024,1529024,16976,-648,908,17012.61,28.44,-1.00,-1.0,2429
4027,1529027,16924,-560,888,16956.53,28.44,-1.00,-1.0,2369
4032,1529032,17004,-672,756,17034.06,28.48,-1.00,-1.0,2440
4034,1529034,16920,-588,908,16954.54,28.48,-1.00,-1.0,2368
4037,1529037,16968,-556,912,17001.59,28.44,-1.00,-1.0,2418
4040,1529040,17104,-572,824,17133.39,28.48,-1.00,-1.0,2376
4043,1529043,16984,-592,832,17014.67,28.53,-1.00,-1.0,2418
4045,1529045,17000,-576,920,17034.62,28.48,-1.00,-1.0,2369
4048,1529048,17072,-652,980,17112.53,28.53,-1.00,-1.0,2369
4051,1529051,17064,-556,880,17095.72,28.48,-1.00,-1.0,2421
4054,1529054,17008,-620,904,17043.29,28.53,-1.00,-1.0,2374
4059,1529059,16988,-528,868,17018.35,28.53,-1.00,-1.0,2440
4061,1529061,17088,-580,924,17122.79,28.44,-1.00,-1.0,2368
4064,1529064,17136,-624,680,17160.84,28.53,-1.00,-1.0,2433
4067,1529067,16984,-676,964,17024.76,28.48,-1.00,-1.0,2380
4070,1529070,17040,-580,872,17072.15,28.53,-1.00,-1.0,2429
4072,1529072,16888,-524,936,16922.03,28.53,-1.00,-1.0,2373
4075,1529075,16988,-580,1052,17030.42,28.48,-1.00,-1.0,2429
4078,1529078,17096,-532,920,17129.00,28.44,-1.00,-1.0,2377
4083,1529083,16976,-532,792,17002.79,28.44,-1.00,-1.0,2448
4086,1529086,17144,-532,856,17173.60,28.53,-1.00,-1.0,2366
4088,1529088,16964,-544,892,16996.14,28.58,-1.00,-1.0,2358
4091,1529091,17056,-560,912,17089.54,28.48,-1.00,-1.0,2418
4094,1529094,17092,-560,956,17127.87,28.39,-1.00,-1.0,2371
4097,1529097,16956,-532,920,16989.27,28.48,-1.00,-1.0,2419
4099,1529099,17088,-476,848,17115.65,28.48,-1.00,-1.0,2357
4102,1529102,17000,-544,888,17031.87,28.48,-1.00,-1.0,2419
4105,1529105,16948,-612,896,16982.70,28.48,-1.00,-1.0,2366
4110,1529110,17060,-496,908,17091.35,28.58,-1.00,-1.0,2450
4112,1529112,17080,-556,872,17111.28,28.48,-1.00,-1.0,2374
4115,1529115,16980,-520,1008,17017.84,28.58,-1.00,-1.0,2420
4118,1529118,17068,-668,856,17102.50,28.48,-1.00,-1.0,2357
4121,1529121,17000,-568,960,17036.55,28.48,-1.00,-1.0,2428
4123,1529123,17032,-568,852,17062.75,28.58,-1.00,-1.0,2376
4126,1529126,17052,-624,788,17081.60,28.53,-1.00,-1.0,2364
4129,1529129,17056,-580,892,17089.15,28.44,-1.00,-1.0,2426
4132,1529132,17096,-680,896,17132.96,28.39,-1.00,-1.0,2366
4137,1529137,17116,-664,892,17152.08,28.48,-1.00,-1.0,2445
4139,1529139,17024,-548,916,17057.43,28.48,-1.00,-1.0,2370
4142,1529142,17108,-532,776,17133.85,28.48,-1.00,-1.0,2419
4145,1529145,16956,-664,844,16989.97,28.48,-1.00,-1.0,2370
4148,1529148,17068,-572,860,17099.22,28.58,-1.00,-1.0,2421
4150,1529150,17100,-592,1004,17139.68,28.48,-1.00,-1.0,2373
4153,1529153,17012,-632,816,17043.28,28.62,-1.00,-1.0,2420
4156,1529156,17064,-592,840,17094.92,28.48,-1.00,-1.0,2356
4161,1529161,17020,-512,924,17052.75,28.39,-1.00,-1.0,2447
4164,1529164,17064,-520,748,17088.30,28.48,-1.00,-1.0,2370
4166,1529166,17020,-556,780,17046.93,28.44,-1.00,-1.0,2365
4169,1529169,17116,-684,884,17152.46,28.53,-1.00,-1.0,2420
4172,1529172,17024,-544,800,17051.47,28.48,-1.00,-1.0,2369
4175,1529175,17000,-528,1004,17037.80,28.44,-1.00,-1.0,2419
4177,1529177,17004,-560,984,17041.65,28.53,-1.00,-1.0,2369
4180,1529180,17012,-564,936,17047.06,28.53,-1.00,-1.0,2419
4183,1529183,17024,-592,892,17057.63,28.62,-1.00,-1.0,2370
4188,1529188,17092,-524,992,17128.78,28.48,-1.00,-1.0,2443
4191,1529191,17104,-608,884,17137.62,28.44,-1.00,-1.0,2366
4194,1529194,17040,-484,872,17069.16,28.48,-1.00,-1.0,2426
4197,1529197,17040,-584,832,17070.29,28.53,-1.00,-1.0,2368
4199,1529199,17080,-584,736,17105.82,28.48,-1.00,-1.0,2427
4202,1529202,17040,-472,856,17068.01,28.48,-1.00,-1.0,2369
4205,1529205,16996,-652,752,17025.12,28.58,-1.00,-1.0,2368
4208,1529208,17060,-508,964,17094.76,28.53,-1.00,-1.0,2421
4210,1529210,17016,-552,908,17049.15,28.48,-1.00,-1.0,2371
4215,1529215,17052,-568,776,17079.10,28.58,-1.00,-1.0,2451
4218,1529218,16924,-616,856,16956.83,28.48,-1.00,-1.0,2377
4220,1529220,17044,-612,812,17074.30,28.53,-1.00,-1.0,2426
4223,1529223,16976,-600,952,17013.26,28.48,-1.00,-1.0,2383
4226,1529226,16936,-496,892,16966.72,28.53,-1.00,-1.0,2419
4229,1529229,17008,-496,860,17036.95,28.48,-1.00,-1.0,2372
4231,1529231,17004,-596,968,17041.96,28.53,-1.00,-1.0,2406
4234,1529234,16988,-572,920,17022.51,28.48,-1.00,-1.0,2385
4239,1529239,17016,-572,956,17052.43,28.53,-1.00,-1.0,2454
4242,1529242,17004,-632,932,17041.25,28.58,-1.00,-1.0,2374
4245,1529245,16984,-512,1108,17027.80,28.53,-1.00,-1.0,2364
4247,1529247,17012,-600,852,17043.89,28.48,-1.00,-1.0,2418
4250,1529250,17160,-596,896,17193.71,28.53,-1.00,-1.0,2357
4253,1529253,17108,-580,860,17139.42,28.58,-1.00,-1.0,2427
4256,1529256,17044,-568,868,17075.54,28.44,-1.00,-1.0,2368
4258,1529258,16984,-472,932,17016.10,28.48,-1.00,-1.0,2421
4261,1529261,17020,-596,900,17054.20,28.44,-1.00,-1.0,2362
4266,1529266,17108,-580,860,17139.42,28.53,-1.00,-1.0,2441
4269,1529269,17000,-544,1016,17039.02,28.53,-1.00,-1.0,2366
4272,1529272,17108,-536,1064,17149.43,28.58,-1.00,-1.0,2419
4274,1529274,17012,-624,876,17045.96,28.53,-1.00,-1.0,2369
4277,1529277,17036,-664,920,17073.74,28.39,-1.00,-1.0,2419
4280,1529280,17064,-668,880,17099.73,28.53,-1.00,-1.0,2369
4282,1529282,17032,-588,992,17070.99,28.48,-1.00,-1.0,2366
4285,1529285,17108,-580,916,17142.32,28.48,-1.00,-1.0,2419
4288,1529288,17080,-576,980,17117.79,28.44,-1.00,-1.0,2376
4293,1529293,17064,-592,1016,17104.47,28.44,-1.00,-1.0,2448
4296,1529296,17012,-496,996,17048.35,28.48,-1.00,-1.0,2366
4298,1529298,17024,-572,1028,17064.60,28.44,-1.00,-1.0,2428
4301,1529301,17036,-620,904,17071.23,28.53,-1.00,-1.0,2381
4304,1529304,17036,-572,808,17064.74,28.53,-1.00,-1.0,2406
4307,1529307,17000,-512,816,17027.27,28.48,-1.00,-1.0,2369
4309,1529309,17028,-584,1064,17071.20,28.44,-1.00,-1.0,2428
4312,1529312,17080,-556,896,17112.52,28.53,-1.00,-1.0,2376
4317,1529317,17092,-588,992,17130.86,28.44,-1.00,-1.0,2439
4320,1529320,17088,-524,1092,17130.87,28.48,-1.00,-1.0,2374
4322,1529322,16908,-528,956,16943.23,28.44,-1.00,-1.0,2372
4325,1529325,17004,-556,944,17039.26,28.58,-1.00,-1.0,2420
4328,1529328,17132,-552,864,17162.65,28.62,-1.00,-1.0,2371
4331,1529331,16992,-616,840,17023.90,28.48,-1.00,-1.0,2421
4333,1529333,16988,-520,960,17023.05,28.53,-1.00,-1.0,2356
4336,1529336,16992,-608,808,17022.06,28.39,-1.00,-1.0,2419
4339,1529339,17056,-532,800,17083.04,28.44,-1.00,-1.0,2370
4344,1529344,16968,-640,924,17005.19,28.53,-1.00,-1.0,2455
4347,1529347,17008,-496,848,17036.35,28.53,-1.00,-1.0,2375
4350,1529350,17044,-516,928,17077.04,28.48,-1.00,-1.0,2429
4352,1529352,17124,-616,1016,17165.17,28.44,-1.00,-1.0,2378
4355,1529355,17068,-572,916,17102.13,28.48,-1.00,-1.0,2419
4358,1529358,17052,-540,840,17081.21,28.53,-1.00,-1.0,2363
4361,1529361,17000,-556,892,17032.46,28.48,-1.00,-1.0,2366
4363,1529363,17092,-624,1008,17133.06,28.53,-1.00,-1.0,2418
4366,1529366,17000,-676,892,17036.80,28.58,-1.00,-1.0,2370
4371,1529371,17044,-524,836,17072.53,28.58,-1.00,-1.0,2442
4374,1529374,17056,-564,980,17093.44,28.39,-1.00,-1.0,2368
4377,1529377,17020,-612,944,17057.14,28.48,-1.00,-1.0,2418
4379,1529379,17056,-604,1024,17097.38,28.48,-1.00,-1.0,2371
4382,1529382,17032,-620,896,17066.82,28.58,-1.00,-1.0,2419
4385,1529385,17104,-620,836,17135.64,28.48,-1.00,-1.0,2370
4388,1529388,17012,-580,908,17046.08,28.39,-1.00,-1.0,2419
4390,1529390,17156,-580,792,17184.06,28.48,-1.00,-1.0,2371
4395,1529395,17052,-640,868,17086.07,28.48,-1.00,-1.0,2427
4398,1529398,17088,-604,1060,17131.50,28.58,-1.00,-1.0,2368
4400,1529400,16976,-632,892,17011.16,28.53,-1.00,-1.0,2368
4403,1529403,17024,-604,792,17053.11,28.58,-1.00,-1.0,2435
4406,1529406,17000,-636,944,17038.06,28.53,-1.00,-1.0,2376
4409,1529409,17220,-636,984,17259.81,28.48,-1.00,-1.0,2431
4411,1529411,17028,-468,876,17056.94,28.53,-1.00,-1.0,2373
4414,1529414,17108,-504,696,17129.57,28.48,-1.00,-1.0,2428
4417,1529417,16964,-596,944,17000.70,28.48,-1.00,-1.0,2356
4422,1529422,17000,-744,956,17043.11,28.48,-1.00,-1.0,2447
4424,1529424,17152,-596,976,17190.08,28.48,-1.00,-1.0,2370
4427,1529427,17084,-584,908,17118.08,28.48,-1.00,-1.0,2427
4430,1529430,17040,-544,876,17071.17,28.48,-1.00,-1.0,2377
4433,1529433,17036,-472,928,17067.79,28.39,-1.00,-1.0,2428
4435,1529435,17036,-468,932,17067.89,28.58,-1.00,-1.0,2377
4438,1529438,17028,-520,944,17062.07,28.53,-1.00,-1.0,2364
4441,1529441,17020,-588,876,17052.67,28.53,-1.00,-1.0,2419
4444,1529444,17108,-608,764,17135.84,28.53,-1.00,-1.0,2369
4449,1529449,17044,-568,936,17079.13,28.44,-1.00,-1.0,2440
4452,1529452,17016,-572,852,17046.92,28.48,-1.00,-1.0,2367
4455,1529455,16948,-556,960,16984.27,28.48,-1.00,-1.0,2419
4457,1529457,16996,-612,860,17028.74,28.48,-1.00,-1.0,2369
4460,1529460,17004,-640,896,17039.61,28.53,-1.00,-1.0,2418
4463,1529463,17024,-552,896,17056.50,28.39,-1.00,-1.0,2369
4466,1529466,17036,-584,856,17067.49,28.44,-1.00,-1.0,2419
4468,1529468,16944,-636,892,16979.38,28.53,-1.00,-1.0,2369
4473,1529473,16920,-544,928,16954.16,28.48,-1.00,-1.0,2448
4476,1529476,17080,-492,824,17106.94,28.48,-1.00,-1.0,2368
4479,1529479,17068,-504,908,17099.56,28.53,-1.00,-1.0,2364
4481,1529481,16980,-496,764,17004.41,28.53,-1.00,-1.0,2422
4484,1529484,16984,-604,1004,17024.37,28.53,-1.00,-1.0,2369
4487,1529487,16940,-508,1004,16977.33,28.48,-1.00,-1.0,2421
4490,1529490,17096,-592,996,17135.22,28.53,-1.00,-1.0,2367
4492,1529492,17008,-528,976,17044.16,28.48,-1.00,-1.0,2420
4495,1529495,17036,-636,900,17071.61,28.58,-1.00,-1.0,2370
4500,1529500,16972,-544,1020,17011.32,28.44,-1.00,-1.0,2440
4503,1529503,17040,-520,816,17067.45,28.53,-1.00,-1.0,2366
4506,1529506,17120,-648,908,17156.30,28.58,-1.00,-1.0,2420
4508,1529508,16920,-584,984,16958.65,28.53,-1.00,-1.0,2356
4511,1529511,16956,-540,852,16985.98,28.48,-1.00,-1.0,2419
4514,1529514,17016,-488,920,17047.84,28.53,-1.00,-1.0,2369
4516,1529516,17044,-568,948,17079.79,28.48,-1.00,-1.0,2370
4519,1529519,17188,-572,932,17222.75,28.53,-1.00,-1.0,2419
4522,1529522,17060,-576,816,17089.21,28.48,-1.00,-1.0,2369
4527,1529527,16996,-556,940,17031.05,28.39,-1.00,-1.0,2440
4530,1529530,17064,-548,848,17093.84,28.53,-1.00,-1.0,2367
4533,1529533,16984,-520,872,17014.32,28.48,-1.00,-1.0,2419
4535,1529535,17016,-572,856,17047.12,28.48,-1.00,-1.0,2370
4538,1529538,17024,-532,840,17053.01,28.48,-1.00,-1.0,2419
4541,1529541,16932,-516,812,16959.31,28.48,-1.00,-1.0,2376
4544,1529544,17036,-612,912,17071.37,28.48,-1.00,-1.0,2419
4546,1529546,17024,-580,984,17062.28,28.58,-1.00,-1.0,2370
4551,1529551,17072,-560,888,17104.25,28.48,-1.00,-1.0,2440
4554,1529554,17108,-532,960,17143.17,28.44,-1.00,-1.0,2354
4557,1529557,17136,-652,844,17169.16,28.48,-1.00,-1.0,2364
4559,1529559,17004,-476,804,17029.65,28.48,-1.00,-1.0,2434
4562,1529562,17140,-572,1000,17178.67,28.48,-1.00,-1.0,2369
4565,1529565,17104,-664,904,17140.74,28.53,-1.00,-1.0,2426
4568,1529568,17020,-636,928,17057.14,28.39,-1.00,-1.0,2369
4570,1529570,16976,-560,976,17013.25,28.58,-1.00,-1.0,2428
4573,1529573,16980,-540,928,17013.91,28.53,-1.00,-1.0,2383
4578,1529578,17052,-580,804,17080.79,28.53,-1.00,-1.0,2454
4581,1529581,17052,-496,920,17084.00,28.53,-1.00,-1.0,2373
4584,1529584,17100,-460,856,17127.59,28.53,-1.00,-1.0,2431
4586,1529586,17064,-560,924,17098.17,28.39,-1.00,-1.0,2379
4589,1529589,17028,-516,696,17050.03,28.44,-1.00,-1.0,2419
4592,1529592,17068,-584,972,17105.63,28.44,-1.00,-1.0,2372
4595,1529595,17012,-532,976,17048.28,28.48,-1.00,-1.0,2366
4597,1529597,17088,-560,1060,17130.00,28.39,-1.00,-1.0,2420
4600,1529600,16968,-456,876,16996.71,28.53,-1.00,-1.0,2371
4605,1529605,17052,-552,780,17078.75,28.48,-1.00,-1.0,2439
4608,1529608,17020,-684,888,17056.87,28.53,-1.00,-1.0,2367
4611,1529611,17060,-648,892,17095.59,28.48,-1.00,-1.0,2419
4613,1529613,17140,-636,1184,17192.61,28.48,-1.00,-1.0,2369
4616,1529616,17004,-632,992,17044.63,28.48,-1.00,-1.0,2420
4619,1529619,16976,-628,928,17012.94,28.58,-1.00,-1.0,2369
4622,1529622,16944,-572,964,16981.04,28.48,-1.00,-1.0,2419
4624,1529624,17068,-568,1016,17107.64,28.48,-1.00,-1.0,2370
4629,1529629,16988,-584,968,17025.58,28.53,-1.00,-1.0,2443
4632,1529632,17100,-472,812,17125.77,28.53,-1.00,-1.0,2371
4634,1529634,17044,-584,948,17080.33,28.39,-1.00,-1.0,2364
4637,1529637,16960,-580,1008,16999.83,28.48,-1.00,-1.0,2418
4640,1529640,17028,-516,992,17064.67,28.58,-1.00,-1.0,2372
4643,1529643,16992,-544,920,17025.58,28.58,-1.00,-1.0,2420
4645,1529645,17100,-548,860,17130.38,28.48,-1.00,-1.0,2369
4648,1529648,16964,-608,896,16998.52,28.48,-1.00,-1.0,2419
4651,1529651,17020,-576,860,17051.45,28.48,-1.00,-1.0,2369
4656,1529656,16992,-524,888,17023.25,28.58,-1.00,-1.0,2448
4659,1529659,16944,-504,848,16972.69,28.53,-1.00,-1.0,2352
4662,1529662,17120,-588,992,17158.79,28.58,-1.00,-1.0,2421
4664,1529664,16964,-656,1020,17007.29,28.58,-1.00,-1.0,2372
4667,1529667,16972,-588,872,17004.55,28.48,-1.00,-1.0,2419
4670,1529670,17040,-620,964,17078.50,28.48,-1.00,-1.0,2356
4673,1529673,17056,-512,824,17083.57,28.48,-1.00,-1.0,2420
4675,1529675,16992,-608,912,17027.32,28.58,-1.00,-1.0,2372
4678,1529678,17072,-520,1028,17110.83,28.58,-1.00,-1.0,2366
4683,1529683,17004,-504,868,17033.60,28.39,-1.00,-1.0,2440
4686,1529686,17016,-604,940,17052.64,28.48,-1.00,-1.0,2372
4689,1529689,17036,-588,920,17070.95,28.48,-1.00,-1.0,2421
4692,1529692,16976,-580,924,17011.02,28.48,-1.00,-1.0,2368
4694,1529694,17008,-656,896,17044.21,28.48,-1.00,-1.0,2419
4697,1529697,17080,-592,944,17116.31,28.58,-1.00,-1.0,2371
4700,1529700,16980,-576,900,17013.59,28.53,-1.00,-1.0,2420
4703,1529703,17008,-572,892,17040.98,28.48,-1.00,-1.0,2368
4708,1529708,16996,-612,872,17029.36,28.48,-1.00,-1.0,2442
4710,1529710,16968,-568,832,16997.88,28.39,-1.00,-1.0,2353
4713,1529713,16976,-608,916,17011.56,28.48,-1.00,-1.0,2419
4716,1529716,17096,-596,952,17132.86,28.48,-1.00,-1.0,2369
4718,1529718,16996,-516,968,17031.36,28.48,-1.00,-1.0,2365
4721,1529721,16984,-568,1032,17024.80,28.44,-1.00,-1.0,2418
4724,1529724,17004,-568,808,17032.66,28.44,-1.00,-1.0,2369
4727,1529727,16992,-616,948,17029.57,28.53,-1.00,-1.0,2419
4729,1529729,16984,-496,852,17012.59,28.53,-1.00,-1.0,2369
4734,1529734,16940,-624,952,16978.20,28.53,-1.00,-1.0,2440
4737,1529737,17048,-616,816,17078.63,28.44,-1.00,-1.0,2369
4740,1529740,17004,-488,804,17029.99,28.53,-1.00,-1.0,2421
4743,1529743,17052,-504,1100,17094.88,28.53,-1.00,-1.0,2367
4745,1529745,17104,-536,908,17136.47,28.58,-1.00,-1.0,2468
4748,1529748,17056,-640,892,17091.30,28.48,-1.00,-1.0,2371
4751,1529751,17088,-552,860,17118.53,28.44,-1.00,-1.0,2424
4754,1529754,17128,-524,796,17154.49,28.53,-1.00,-1.0,2367
4756,1529756,17004,-604,768,17032.05,28.44,-1.00,-1.0,2369
4762,1529762,17076,-532,836,17104.73,28.44,-1.00,-1.0,2442
4764,1529764,17096,-544,880,17127.28,28.58,-1.00,-1.0,2367
4767,1529767,17032,-556,912,17065.46,28.53,-1.00,-1.0,2420
4770,1529770,17068,-668,860,17102.70,28.53,-1.00,-1.0,2370
4773,1529773,16924,-616,988,16964.00,28.53,-1.00,-1.0,2421
4775,1529775,17100,-572,872,17131.77,28.48,-1.00,-1.0,2370
4778,1529778,17012,-620,948,17049.67,28.53,-1.00,-1.0,2420
4781,1529781,17028,-484,908,17059.06,28.53,-1.00,-1.0,2370
4786,1529786,17056,-592,924,17091.27,28.44,-1.00,-1.0,2447
4788,1529788,16992,-520,932,17025.48,28.48,-1.00,-1.0,2373
4791,1529791,17048,-580,904,17081.80,28.62,-1.00,-1.0,2421
4794,1529794,17028,-568,1032,17068.70,28.44,-1.00,-1.0,2372
4797,1529797,17012,-580,1044,17053.87,28.53,-1.00,-1.0,2370
4799,1529799,17036,-536,748,17060.84,28.58,-1.00,-1.0,2426
4802,1529802,17072,-608,992,17111.60,28.58,-1.00,-1.0,2371
4805,1529805,17044,-552,900,17076.67,28.39,-1.00,-1.0,2427
4808,1529808,16980,-620,820,17011.09,28.48,-1.00,-1.0,2370
4812,1529812,17056,-568,880,17088.13,28.58,-1.00,-1.0,2457
4815,1529815,17004,-512,948,17038.10,28.48,-1.00,-1.0,2375
4818,1529818,17092,-660,864,17126.54,28.53,-1.00,-1.0,2409
4821,1529821,17060,-572,992,17098.39,28.48,-1.00,-1.0,2369
4823,1529823,17020,-676,968,17060.90,28.44,-1.00,-1.0,2428
4826,1529826,17040,-632,760,17068.64,28.48,-1.00,-1.0,2376
4829,1529829,16992,-576,1024,17032.57,28.53,-1.00,-1.0,2407
4832,1529832,16924,-556,912,16957.67,28.48,-1.00,-1.0,2371
4834,1529834,17068,-700,976,17110.21,28.44,-1.00,-1.0,2376
4839,1529839,17088,-548,928,17121.95,28.48,-1.00,-1.0,2445
4842,1529842,17016,-596,852,17047.74,28.48,-1.00,-1.0,2378
4845,1529845,17056,-500,836,17083.79,28.58,-1.00,-1.0,2426
4847,1529847,17028,-536,920,17061.26,28.58,-1.00,-1.0,2372
4850,1529850,17040,-548,804,17067.76,28.58,-1.00,-1.0,2436
4853,1529853,17136,-492,824,17162.85,28.48,-1.00,-1.0,2377
4856,1529856,17088,-604,1024,17129.31,28.44,-1.00,-1.0,2432
4858,1529858,17136,-588,920,17170.75,28.53,-1.00,-1.0,2377
4863,1529863,17052,-660,908,17088.91,28.53,-1.00,-1.0,2450
4866,1529866,16992,-608,860,17024.61,28.58,-1.00,-1.0,2382
4869,1529869,17008,-504,884,17038.41,28.53,-1.00,-1.0,2421
4872,1529872,17036,-484,996,17071.95,28.53,-1.00,-1.0,2372
4874,1529874,17024,-572,932,17059.09,28.48,-1.00,-1.0,2365
4877,1529877,17044,-616,916,17079.71,28.48,-1.00,-1.0,2420
4880,1529880,17028,-588,812,17057.49,28.48,-1.00,-1.0,2370
4883,1529883,17012,-604,924,17047.78,28.58,-1.00,-1.0,2420
4885,1529885,17080,-568,888,17112.50,28.44,-1.00,-1.0,2372
4890,1529890,17008,-700,1012,17052.46,28.53,-1.00,-1.0,2451
4893,1529893,16980,-596,904,17014.49,28.44,-1.00,-1.0,2373
4896,1529896,17020,-600,808,17049.73,28.48,-1.00,-1.0,2420
4899,1529899,17044,-572,1044,17085.52,28.44,-1.00,-1.0,2370
4902,1529902,17044,-508,884,17074.47,28.48,-1.00,-1.0,2420
4904,1529904,17072,-624,940,17109.24,28.53,-1.00,-1.0,2372
4907,1529907,17032,-596,912,17066.81,28.58,-1.00,-1.0,2420
4910,1529910,17112,-692,800,17144.66,28.44,-1.00,-1.0,2372
4913,1529913,17068,-612,972,17106.61,28.48,-1.00,-1.0,2367
4917,1529917,17044,-548,1008,17082.57,28.53,-1.00,-1.0,2444
4920,1529920,17004,-544,828,17032.84,28.53,-1.00,-1.0,2369
4923,1529923,16952,-648,788,16982.67,28.48,-1.00,-1.0,2420
4926,1529926,16984,-624,828,17015.62,28.44,-1.00,-1.0,2371
4929,1529929,16968,-580,920,17002.82,28.58,-1.00,-1.0,2420
4931,1529931,16976,-604,900,17010.57,28.44,-1.00,-1.0,2372
4934,1529934,16992,-716,804,17026.07,28.48,-1.00,-1.0,2420
4937,1529937,17036,-660,876,17071.27,28.53,-1.00,-1.0,2373
4942,1529942,17000,-584,780,17027.90,28.44,-1.00,-1.0,2452
4944,1529944,17044,-516,916,17076.39,28.53,-1.00,-1.0,2376
4947,1529947,16968,-556,864,16999.08,28.58,-1.00,-1.0,2420
4950,1529950,17016,-556,760,17042.04,28.44,-1.00,-1.0,2359
4953,1529953,17060,-640,1120,17108.70,28.48,-1.00,-1.0,2367
4955,1529955,17136,-584,952,17172.36,28.48,-1.00,-1.0,2420
4958,1529958,16992,-572,1004,17031.24,28.58,-1.00,-1.0,2371
4961,1529961,17068,-468,932,17099.83,28.48,-1.00,-1.0,2425
4964,1529964,17000,-644,1000,17041.56,28.48,-1.00,-1.0,2369
4969,1529969,17000,-552,764,17026.11,28.48,-1.00,-1.0,2442
4971,1529971,17012,-596,904,17046.42,28.39,-1.00,-1.0,2367
4974,1529974,17092,-592,812,17121.52,28.58,-1.00,-1.0,2422
4977,1529977,16888,-592,800,16917.30,28.39,-1.00,-1.0,2370
4980,1529980,17052,-560,876,17083.67,28.53,-1.00,-1.0,2419
4982,1529982,17024,-608,908,17059.04,28.58,-1.00,-1.0,2371
4985,1529985,16964,-640,932,17001.63,28.48,-1.00,-1.0,2424
4988,1529988,17076,-516,836,17104.24,28.48,-1.00,-1.0,2370
4991,1529991,17108,-544,880,17139.25,28.53,-1.00,-1.0,2367
4996,1529996,16972,-568,904,17005.55,28.53,-1.00,-1.0,2441
4998,1529998,17120,-620,980,17159.23,28.48,-1.00,-1.0,2366
5001,1530001,17144,-588,820,17173.67,28.53,-1.00,-1.0,2419
5004,1530004,16996,-580,844,17026.82,28.48,-1.00,-1.0,2370
5007,1530007,17076,-520,812,17103.20,28.44,-1.00,-1.0,2421
5009,1530009,17032,-668,764,17062.21,28.62,-1.00,-1.0,2371
5012,1530012,16984,-592,932,17019.85,28.53,-1.00,-1.0,2419
5015,1530015,17088,-496,844,17116.02,28.53,-1.00,-1.0,2370
5020,1530020,16976,-644,836,17008.77,28.48,-1.00,-1.0,2459
5023,1530023,16996,-572,1020,17036.19,28.48,-1.00,-1.0,2381
5026,1530026,16900,-568,940,16935.65,28.48,-1.00,-1.0,2423
5029,1530029,17060,-596,1020,17100.85,28.48,-1.00,-1.0,2373
5031,1530031,17068,-636,936,17105.47,28.53,-1.00,-1.0,2351
5034,1530034,16992,-524,832,17020.43,28.53,-1.00,-1.0,2419
5037,1530037,16976,-588,936,17011.95,28.53,-1.00,-1.0,2369
5040,1530040,17064,-552,768,17090.19,28.53,-1.00,-1.0,2419
5042,1530042,17056,-616,948,17093.43,28.53,-1.00,-1.0,2368
5047,1530047,16940,-552,1000,16978.47,28.48,-1.00,-1.0,2443
5050,1530050,16968,-536,884,16999.46,28.58,-1.00,-1.0,2368
5053,1530053,17052,-564,748,17077.71,28.53,-1.00,-1.0,2419
5055,1530055,16940,-556,944,16975.39,28.67,-1.00,-1.0,2372
5058,1530058,17116,-560,1036,17156.47,28.58,-1.00,-1.0,2421
5061,1530061,17084,-548,972,17120.40,28.48,-1.00,-1.0,2372
5064,1530064,16948,-604,1060,16991.86,28.44,-1.00,-1.0,2420
5066,1530066,17092,-596,804,17121.28,28.58,-1.00,-1.0,2370
5069,1530069,17044,-668,904,17081.02,28.53,-1.00,-1.0,2373
5074,1530074,17004,-704,680,17032.15,28.44,-1.00,-1.0,2447
5077,1530077,17004,-592,832,17034.63,28.53,-1.00,-1.0,2365
5079,1530079,17080,-492,916,17111.62,28.58,-1.00,-1.0,2422
5082,1530082,17076,-528,852,17105.39,28.53,-1.00,-1.0,2369
5085,1530085,17012,-472,972,17046.28,28.58,-1.00,-1.0,2422
5088,1530088,17080,-536,956,17115.13,28.44,-1.00,-1.0,2368
5090,1530090,17064,-572,800,17092.32,28.48,-1.00,-1.0,2422
5093,1530093,17100,-532,728,17123.76,28.44,-1.00,-1.0,2369
5098,1530098,17044,-596,832,17074.70,28.53,-1.00,-1.0,2439
5101,1530101,16924,-528,728,16947.88,28.62,-1.00,-1.0,2372
5104,1530104,16996,-568,864,17027.42,28.48,-1.00,-1.0,2419
5106,1530106,17044,-484,876,17073.36,28.53,-1.00,-1.0,2369
5109,1530109,16948,-496,1012,16985.43,28.39,-1.00,-1.0,2373
5112,1530112,17052,-552,948,17087.25,28.53,-1.00,-1.0,2432
5114,1530114,17088,-556,996,17126.03,28.58,-1.00,-1.0,2373
5117,1530117,16940,-632,864,16973.79,28.53,-1.00,-1.0,2429
5120,1530120,17056,-484,1020,17093.33,28.48,-1.00,-1.0,2377
5125,1530125,17052,-680,1008,17095.30,28.58,-1.00,-1.0,2448
5128,1530128,16964,-532,896,16995.97,28.48,-1.00,-1.0,2370
5130,1530130,16984,-492,936,17016.89,28.53,-1.00,-1.0,2429
5133,1530133,17080,-532,836,17108.72,28.58,-1.00,-1.0,2384
5136,1530136,17120,-576,1000,17158.85,28.53,-1.00,-1.0,2423
5139,1530139,16988,-516,920,17020.72,28.58,-1.00,-1.0,2371
5141,1530141,17044,-608,756,17071.59,28.53,-1.00,-1.0,2421
5144,1530144,17040,-628,844,17072.44,28.53,-1.00,-1.0,2383
5149,1530149,17064,-524,944,17098.12,28.44,-1.00,-1.0,2455
5152,1530152,17072,-700,820,17106.01,28.58,-1.00,-1.0,2374
5155,1530155,17060,-520,864,17089.78,28.53,-1.00,-1.0,2364
5157,1530157,16960,-652,852,16993.90,28.48,-1.00,-1.0,2419
5160,1530160,17156,-604,896,17190.00,28.53,-1.00,-1.0,2372
5163,1530163,17004,-612,880,17037.75,28.48,-1.00,-1.0,2427
5166,1530166,16976,-548,940,17010.83,28.58,-1.00,-1.0,2369
5168,1530168,17064,-564,988,17101.88,28.48,-1.00,-1.0,2423
5171,1530171,17072,-640,920,17108.75,28.48,-1.00,-1.0,2372
5176,1530176,16972,-600,808,17001.81,28.48,-1.00,-1.0,2440
5179,1530179,17020,-580,968,17057.37,28.53,-1.00,-1.0,2367
5182,1530182,16956,-560,940,16991.27,28.58,-1.00,-1.0,2420
5184,1530184,17124,-544,896,17156.05,28.53,-1.00,-1.0,2368
5187,1530187,17064,-556,1008,17102.79,28.48,-1.00,-1.0,2361
5190,1530190,17052,-588,896,17085.64,28.53,-1.00,-1.0,2421
5192,1530192,17036,-568,888,17068.58,28.48,-1.00,-1.0,2370
5195,1530195,17036,-616,880,17069.83,28.53,-1.00,-1.0,2433
5198,1530198,17092,-632,844,17124.49,28.58,-1.00,-1.0,2380
5203,1530203,16984,-568,928,17018.81,28.48,-1.00,-1.0,2444
5206,1530206,17032,-620,896,17066.82,28.48,-1.00,-1.0,2366
5209,1530209,17028,-572,948,17063.96,28.48,-1.00,-1.0,2419
5211,1530211,16940,-548,844,16969.86,28.58,-1.00,-1.0,2370
5214,1530214,17020,-632,832,17052.04,28.39,-1.00,-1.0,2419
5217,1530217,17032,-656,1016,17074.88,28.48,-1.00,-1.0,2369
5220,1530220,17076,-472,1000,17111.77,28.58,-1.00,-1.0,2420
5222,1530222,17060,-560,812,17088.49,28.48,-1.00,-1.0,2369
5227,1530227,16980,-624,856,17013.01,28.44,-1.00,-1.0,2440
5230,1530230,17048,-620,812,17078.58,28.58,-1.00,-1.0,2375
5232,1530232,16948,-580,884,16980.95,28.44,-1.00,-1.0,2374
5235,1530235,17060,-508,932,17092.99,28.48,-1.00,-1.0,2419
5238,1530238,17140,-484,972,17174.36,28.44,-1.00,-1.0,2370
5241,1530241,17088,-584,1016,17128.14,28.48,-1.00,-1.0,2420
5243,1530243,17100,-548,896,17132.22,28.44,-1.00,-1.0,2374
5246,1530246,17048,-596,852,17079.68,28.48,-1.00,-1.0,2419
5249,1530249,17148,-556,872,17179.16,28.58,-1.00,-1.0,2360
5254,1530254,17000,-540,1004,17038.18,28.62,-1.00,-1.0,2441
5256,1530256,17040,-480,840,17067.44,28.53,-1.00,-1.0,2369
5259,1530259,16996,-592,956,17033.16,28.53,-1.00,-1.0,2426
5262,1530262,17076,-516,964,17110.97,28.58,-1.00,-1.0,2373
5265,1530265,17032,-636,884,17066.78,28.53,-1.00,-1.0,2422
5267,1530267,16992,-568,1008,17031.35,28.53,-1.00,-1.0,2372
5270,1530270,17004,-540,840,17033.30,28.48,-1.00,-1.0,2368
5273,1530273,16956,-616,992,16996.16,28.53,-1.00,-1.0,2428
5276,1530276,17012,-580,860,17043.60,28.53,-1.00,-1.0,2376
5281,1530281,17040,-632,972,17079.40,28.48,-1.00,-1.0,2448
5284,1530284,17064,-604,928,17099.89,28.53,-1.00,-1.0,2369
5286,1530286,17044,-512,980,17079.83,28.53,-1.00,-1.0,2426
5289,1530289,17100,-576,888,17132.73,28.53,-1.00,-1.0,2369
5292,1530292,17036,-508,840,17064.26,28.44,-1.00,-1.0,2426
5295,1530295,17052,-572,896,17085.10,28.44,-1.00,-1.0,2369
5297,1530297,17064,-556,816,17092.54,28.53,-1.00,-1.0,2427
5300,1530300,17008,-644,848,17041.30,28.44,-1.00,-1.0,2369
5305,1530305,16992,-644,996,17033.34,28.53,-1.00,-1.0,2440
5308,1530308,16976,-580,964,17013.24,28.39,-1.00,-1.0,2366
5310,1530310,16972,-500,752,16996.01,28.62,-1.00,-1.0,2371
5313,1530313,16980,-596,1016,17020.81,28.58,-1.00,-1.0,2415
5316,1530316,16984,-636,856,17017.45,28.44,-1.00,-1.0,2375
5319,1530319,17124,-668,888,17160.02,28.48,-1.00,-1.0,2435
5321,1530321,17036,-600,972,17074.25,28.48,-1.00,-1.0,2379
5324,1530324,17056,-768,860,17094.93,28.58,-1.00,-1.0,2419
5327,1530327,17100,-568,756,17126.12,28.58,-1.00,-1.0,2373
5332,1530332,17032,-672,808,17064.39,28.48,-1.00,-1.0,2458
5335,1530335,17088,-612,828,17118.99,28.58,-1.00,-1.0,2365
5338,1530338,17000,-580,936,17035.62,28.53,-1.00,-1.0,2420
5340,1530340,17024,-644,828,17056.29,28.48,-1.00,-1.0,2427
5343,1530343,17020,-576,940,17055.67,28.62,-1.00,-1.0,2414
5346,1530346,17032,-592,1008,17072.07,28.48,-1.00,-1.0,2380
5349,1530349,17012,-548,884,17043.76,28.53,-1.00,-1.0,2366
5351,1530351,17004,-632,888,17038.90,28.48,-1.00,-1.0,2417
5354,1530354,16916,-528,900,16948.15,28.53,-1.00,-1.0,2381
5359,1530359,17048,-588,812,17077.45,28.44,-1.00,-1.0,2440
5362,1530362,17052,-672,856,17086.69,28.48,-1.00,-1.0,2369
5365,1530365,17072,-552,892,17104.20,28.53,-1.00,-1.0,2416
5367,1530367,17088,-624,884,17122.22,28.53,-1.00,-1.0,2362
5370,1530370,17032,-508,892,17062.91,28.44,-1.00,-1.0,2416
5373,1530373,17052,-636,980,17091.97,28.44,-1.00,-1.0,2372
5376,1530376,17096,-592,832,17126.47,28.58,-1.00,-1.0,2419
5378,1530378,16988,-556,972,17024.87,28.44,-1.00,-1.0,2359
5383,1530383,16976,-532,976,17012.35,28.44,-1.00,-1.0,2438
5386,1530386,17112,-576,832,17141.89,28.53,-1.00,-1.0,2374
5389,1530389,16952,-632,956,16990.69,28.53,-1.00,-1.0,2364
5391,1530391,17028,-628,720,17054.78,28.58,-1.00,-1.0,2424
5394,1530394,16972,-512,864,17001.69,28.48,-1.00,-1.0,2372
5397,1530397,17008,-680,900,17045.37,28.58,-1.00,-1.0,2425
5400,1530400,17040,-608,868,17072.92,28.48,-1.00,-1.0,2371
5402,1530402,17036,-656,948,17074.96,28.48,-1.00,-1.0,2428
5405,1530405,17052,-600,868,17084.62,28.58,-1.00,-1.0,2372
5410,1530410,17152,-556,824,17180.78,28.39,-1.00,-1.0,2437
5413,1530413,17056,-576,980,17093.84,28.53,-1.00,-1.0,2369
5416,1530416,16932,-640,872,16966.51,28.48,-1.00,-1.0,2416
5418,1530418,17136,-580,1032,17176.84,28.53,-1.00,-1.0,2371
5421,1530421,17080,-556,828,17109.09,28.48,-1.00,-1.0,2417
5424,1530424,17056,-680,1032,17100.72,28.53,-1.00,-1.0,2372
5426,1530426,17084,-536,1016,17122.58,28.48,-1.00,-1.0,2376
5429,1530429,17056,-528,972,17091.83,28.53,-1.00,-1.0,2416
5432,1530432,17012,-616,1012,17053.20,28.44,-1.00,-1.0,2372
5437,1530437,17036,-568,844,17066.35,28.39,-1.00,-1.0,2440
5440,1530440,17032,-528,940,17066.09,28.48,-1.00,-1.0,2354
5442,1530442,17024,-644,864,17058.07,28.48,-1.00,-1.0,2419
5445,1530445,17112,-492,868,17141.06,28.48,-1.00,-1.0,2372
5448,1530448,17088,-472,840,17115.14,28.48,-1.00,-1.0,2426
5451,1530451,16972,-580,884,17004.90,28.48,-1.00,-1.0,2371
5453,1530453,17060,-592,764,17087.36,28.58,-1.00,-1.0,2418
5456,1530456,16996,-584,860,17027.76,28.48,-1.00,-1.0,2371
5461,1530461,17020,-624,1004,17061.00,28.53,-1.00,-1.0,2437
5463,1530463,17068,-584,956,17104.72,28.53,-1.00,-1.0,2375
5466,1530466,17060,-488,868,17089.04,28.48,-1.00,-1.0,2364
5469,1530469,17148,-608,920,17183.42,28.53,-1.00,-1.0,2424
5472,1530472,17120,-656,880,17155.15,28.48,-1.00,-1.0,2370
5474,1530474,17056,-608,908,17090.97,28.44,-1.00,-1.0,2422
5477,1530477,17028,-532,852,17057.60,28.58,-1.00,-1.0,2373
5480,1530480,17028,-544,896,17060.23,28.48,-1.00,-1.0,2416
5483,1530483,17040,-552,964,17076.17,28.48,-1.00,-1.0,2372
5488,1530488,17096,-636,876,17130.24,28.48,-1.00,-1.0,2437
5491,1530491,17092,-672,780,17122.98,28.48,-1.00,-1.0,2370
5494,1530494,17028,-496,1000,17064.55,28.48,-1.00,-1.0,2416
5496,1530496,17032,-544,792,17059.08,28.58,-1.00,-1.0,2360
5499,1530499,17096,-488,748,17119.31,28.58,-1.00,-1.0,2417
5502,1530502,17016,-664,780,17046.80,28.58,-1.00,-1.0,2373
5504,1530504,17012,-540,1024,17051.34,28.53,-1.00,-1.0,2366
5507,1530507,17104,-508,928,17136.69,28.44,-1.00,-1.0,2411
5510,1530510,17036,-528,816,17063.70,28.48,-1.00,-1.0,2372
5517,1530517,17012,-604,984,17051.13,28.58,-1.00,-1.0,2438
5520,1530520,16980,-632,984,17020.23,28.53,-1.00,-1.0,2370
5523,1530523,17088,-524,824,17115.88,28.39,-1.00,-1.0,2418
5525,1530525,16992,-616,844,17024.10,28.48,-1.00,-1.0,2371
5528,1530528,17040,-544,992,17077.52,28.58,-1.00,-1.0,2404
5531,1530531,16988,-580,948,17024.31,28.48,-1.00,-1.0,2374
5534,1530534,17044,-604,980,17082.83,28.48,-1.00,-1.0,2418
5536,1530536,17124,-588,824,17153.89,28.39,-1.00,-1.0,2371
5541,1530541,17040,-580,932,17075.32,28.48,-1.00,-1.0,2444
5544,1530544,16980,-644,876,17014.77,28.53,-1.00,-1.0,2375
5547,1530547,16964,-568,976,17001.54,28.58,-1.00,-1.0,2367
5550,1530550,17100,-516,944,17133.81,28.48,-1.00,-1.0,2416
5552,1530552,17036,-604,840,17067.39,28.48,-1.00,-1.0,2372
5555,1530555,16960,-596,944,16996.71,28.53,-1.00,-1.0,2417
5558,1530558,16912,-596,940,16948.59,28.48,-1.00,-1.0,2380
5561,1530561,16968,-540,888,16999.80,28.44,-1.00,-1.0,2416
5563,1530563,17096,-568,904,17129.30,28.53,-1.00,-1.0,2376
5568,1530568,16992,-664,972,17032.73,28.44,-1.00,-1.0,2438
5571,1530571,17060,-556,904,17092.98,28.48,-1.00,-1.0,2370
5574,1530574,16932,-584,796,16960.76,28.53,-1.00,-1.0,2419
5577,1530577,17036,-532,896,17067.84,28.48,-1.00,-1.0,2370
5579,1530579,17116,-628,1004,17156.92,28.53,-1.00,-1.0,2417
5582,1530582,16976,-592,1004,17015.96,28.48,-1.00,-1.0,2372
5585,1530585,17060,-520,788,17086.10,28.53,-1.00,-1.0,2368
5587,1530587,16952,-556,872,16983.52,28.48,-1.00,-1.0,2424
5590,1530590,17044,-532,976,17080.21,28.58,-1.00,-1.0,2388
5595,1530595,17068,-648,948,17106.58,28.48,-1.00,-1.0,2452
5598,1530598,17072,-552,872,17103.17,28.44,-1.00,-1.0,2377
5601,1530601,17036,-508,912,17067.96,28.48,-1.00,-1.0,2429
5603,1530603,17112,-688,884,17148.62,28.48,-1.00,-1.0,2379
5606,1530606,16984,-604,1112,17031.08,28.53,-1.00,-1.0,2460
5609,1530609,16968,-552,852,16998.34,28.53,-1.00,-1.0,2369
5612,1530612,17080,-612,912,17115.28,28.48,-1.00,-1.0,2432
5615,1530615,17068,-488,900,17098.68,28.53,-1.00,-1.0,2368
5620,1530620,17028,-492,824,17055.02,28.53,-1.00,-1.0,2449
5623,1530623,16984,-612,900,17018.84,28.58,-1.00,-1.0,2367
5625,1530625,17048,-540,1020,17087.02,28.44,-1.00,-1.0,2373
5628,1530628,17112,-584,852,17143.15,28.48,-1.00,-1.0,2408
5631,1530631,17008,-588,992,17047.05,28.44,-1.00,-1.0,2369
5633,1530633,17128,-544,1056,17169.14,28.48,-1.00,-1.0,2431
5636,1530636,17044,-552,884,17075.83,28.48,-1.00,-1.0,2378
5639,1530639,17024,-648,844,17057.22,28.48,-1.00,-1.0,2409
5642,1530642,17036,-572,784,17063.62,28.44,-1.00,-1.0,2370
5646,1530646,17004,-596,848,17035.56,28.48,-1.00,-1.0,2453
5649,1530649,16952,-588,892,16985.63,28.48,-1.00,-1.0,2382
5652,1530652,17052,-452,916,17082.57,28.39,-1.00,-1.0,2422
5655,1530655,16992,-516,904,17023.85,28.58,-1.00,-1.0,2375
5658,1530658,16976,-532,896,17007.95,28.58,-1.00,-1.0,2424
5660,1530660,16968,-616,924,17004.30,28.58,-1.00,-1.0,2373
5663,1530663,17008,-532,852,17037.63,28.53,-1.00,-1.0,2373
5666,1530666,17008,-592,752,17034.91,28.48,-1.00,-1.0,2420
5668,1530668,17076,-616,912,17111.43,28.44,-1.00,-1.0,2370
5673,1530673,16996,-592,1052,17038.81,28.53,-1.00,-1.0,2442
5676,1530676,17064,-624,1060,17108.28,28.58,-1.00,-1.0,2371
5679,1530679,17016,-596,932,17051.92,28.53,-1.00,-1.0,2420
5681,1530681,17060,-536,928,17093.63,28.44,-1.00,-1.0,2371
5684,1530684,17068,-576,896,17101.21,28.53,-1.00,-1.0,2419
5687,1530687,16980,-648,1036,17023.91,28.53,-1.00,-1.0,2371
5690,1530690,17028,-684,864,17063.62,28.53,-1.00,-1.0,2419
5692,1530692,16948,-584,816,16977.68,28.53,-1.00,-1.0,2369
5697,1530697,17128,-620,992,17167.90,28.53,-1.00,-1.0,2451
5700,1530700,17092,-544,904,17124.53,28.48,-1.00,-1.0,2370
5703,1530703,17084,-624,972,17123.00,28.44,-1.00,-1.0,2365
5705,1530705,17016,-636,980,17056.06,28.58,-1.00,-1.0,2420
5708,1530708,17048,-584,924,17083.01,28.53,-1.00,-1.0,2370
5711,1530711,16876,-580,904,16910.14,28.58,-1.00,-1.0,2428
5714,1530714,17044,-568,972,17081.14,28.53,-1.00,-1.0,2369
5716,1530716,16996,-628,812,17026.97,28.39,-1.00,-1.0,2423
5719,1530719,17084,-600,920,17119.27,28.53,-1.00,-1.0,2369
5724,1530724,17052,-644,956,17090.91,28.44,-1.00,-1.0,2445
5727,1530727,16976,-608,856,17008.44,28.62,-1.00,-1.0,2369
5730,1530730,17056,-596,956,17093.16,28.44,-1.00,-1.0,2420
5732,1530732,16992,-496,892,17022.62,28.53,-1.00,-1.0,2369
5735,1530735,17044,-596,840,17075.09,28.48,-1.00,-1.0,2457
5738,1530738,17140,-556,800,17167.67,28.48,-1.00,-1.0,2376
5741,1530741,17184,-604,1000,17223.67,28.44,-1.00,-1.0,2369
5743,1530743,16984,-592,816,17013.89,28.58,-1.00,-1.0,2424
5746,1530746,16996,-504,696,17017.71,28.53,-1.00,-1.0,2366
5751,1530751,16984,-564,868,17015.52,28.53,-1.00,-1.0,2441
5754,1530754,16960,-644,748,16988.70,28.53,-1.00,-1.0,2366
5757,1530757,17012,-472,964,17045.83,28.53,-1.00,-1.0,2419
5759,1530759,17080,-572,888,17112.63,28.44,-1.00,-1.0,2371
5762,1530762,17084,-520,844,17112.74,28.48,-1.00,-1.0,2420
5765,1530765,17104,-688,1000,17147.02,28.53,-1.00,-1.0,2370
5768,1530768,17016,-504,860,17045.17,28.58,-1.00,-1.0,2420
5770,1530770,17112,-512,952,17146.11,28.44,-1.00,-1.0,2371
5775,1530775,17100,-620,864,17133.04,28.53,-1.00,-1.0,2451
5778,1530778,17044,-620,996,17084.33,28.53,-1.00,-1.0,2368
5781,1530781,17000,-512,992,17036.61,28.48,-1.00,-1.0,2365
5783,1530783,16988,-560,968,17024.77,28.48,-1.00,-1.0,2423
5786,1530786,17052,-552,932,17086.37,28.58,-1.00,-1.0,2371
5789,1530789,17020,-508,816,17047.12,28.58,-1.00,-1.0,2428
5792,1530792,17000,-548,884,17031.79,28.48,-1.00,-1.0,2368
5794,1530794,17036,-572,872,17067.89,28.58,-1.00,-1.0,2421
5797,1530797,17052,-588,988,17090.72,28.58,-1.00,-1.0,2370
5802,1530802,17032,-644,804,17063.12,28.58,-1.00,-1.0,2441
5805,1530805,17052,-608,916,17087.41,28.44,-1.00,-1.0,2367
5808,1530808,16968,-548,948,17003.29,28.48,-1.00,-1.0,2419
5810,1530810,17072,-552,908,17105.04,28.48,-1.00,-1.0,2369
5813,1530813,17008,-616,940,17045.09,28.48,-1.00,-1.0,2419
5816,1530816,17036,-540,816,17064.08,28.58,-1.00,-1.0,2370
5818,1530818,17092,-492,1028,17129.95,28.58,-1.00,-1.0,2368
5821,1530821,17072,-628,936,17109.17,28.44,-1.00,-1.0,2434
5824,1530824,17028,-544,952,17063.27,28.53,-1.00,-1.0,2372
5829,1530829,17096,-724,1088,17145.88,28.48,-1.00,-1.0,2447
5832,1530832,17076,-620,980,17115.33,28.48,-1.00,-1.0,2366
5834,1530834,17028,-604,1012,17068.74,28.58,-1.00,-1.0,2422
5837,1530837,17044,-524,940,17077.94,28.58,-1.00,-1.0,2370
5840,1530840,17020,-680,980,17061.75,28.44,-1.00,-1.0,2429
5843,1530843,17080,-604,952,17117.17,28.48,-1.00,-1.0,2368
5845,1530845,16960,-600,824,16990.60,28.53,-1.00,-1.0,2422
5848,1530848,17008,-592,904,17042.29,28.48,-1.00,-1.0,2369
5855,1530855,17108,-420,1024,17143.76,28.53,-1.00,-1.0,2447
5858,1530858,16984,-616,940,17021.14,28.44,-1.00,-1.0,2365
5860,1530860,17008,-612,1040,17050.75,28.53,-1.00,-1.0,2433
5863,1530863,17020,-600,904,17054.55,28.44,-1.00,-1.0,2369
5866,1530866,16992,-600,888,17025.76,28.48,-1.00,-1.0,2365
5869,1530869,17080,-612,844,17111.79,28.48,-1.00,-1.0,2419
5871,1530871,17020,-572,772,17047.10,28.58,-1.00,-1.0,2370
5874,1530874,17004,-664,1020,17047.50,28.58,-1.00,-1.0,2419
5877,1530877,16996,-672,896,17032.86,28.58,-1.00,-1.0,2370
5881,1530881,17016,-580,916,17050.50,28.58,-1.00,-1.0,2452
5884,1530884,17000,-620,940,17037.25,28.48,-1.00,-1.0,2373
5887,1530887,16988,-588,856,17019.71,28.58,-1.00,-1.0,2422
5890,1530890,17040,-520,888,17071.04,28.48,-1.00,-1.0,2370
5893,1530893,17016,-600,812,17045.93,28.48,-1.00,-1.0,2419
5895,1530895,17084,-552,856,17114.34,28.58,-1.00,-1.0,2373
5898,1530898,17044,-596,900,17078.15,28.58,-1.00,-1.0,2420
5901,1530901,17044,-560,912,17077.57,28.58,-1.00,-1.0,2373
5903,1530903,16948,-660,972,16988.68,28.48,-1.00,-1.0,2369
5908,1530908,17032,-600,800,17061.33,28.48,-1.00,-1.0,2426
5911,1530911,16952,-616,996,16992.40,28.48,-1.00,-1.0,2368
5914,1530914,17084,-532,1008,17121.98,28.53,-1.00,-1.0,2428
5917,1530917,17088,-552,920,17121.65,28.58,-1.00,-1.0,2366
5919,1530919,17164,-596,1008,17203.90,28.53,-1.00,-1.0,2420
5922,1530922,17020,-604,824,17050.64,28.48,-1.00,-1.0,2356
5925,1530925,17000,-604,936,17036.46,28.53,-1.00,-1.0,2425
5928,1530928,17004,-540,984,17041.01,28.48,-1.00,-1.0,2369
5933,1530933,17004,-668,864,17039.04,28.58,-1.00,-1.0,2447
5935,1530935,17004,-644,1016,17046.50,28.58,-1.00,-1.0,2370
5938,1530938,17036,-512,828,17063.79,28.53,-1.00,-1.0,2419
5941,1530941,17088,-496,756,17111.90,28.48,-1.00,-1.0,2369
5943,1530943,16928,-580,832,16958.36,28.53,-1.00,-1.0,2369
5946,1530946,16948,-552,972,16984.82,28.39,-1.00,-1.0,2425
5949,1530949,17000,-604,968,17038.25,28.62,-1.00,-1.0,2377
5952,1530952,17056,-592,968,17093.70,28.48,-1.00,-1.0,2420
5954,1530954,17024,-620,888,17058.41,28.53,-1.00,-1.0,2371
5959,1530959,17056,-544,804,17083.60,28.44,-1.00,-1.0,2440
5962,1530962,17136,-572,892,17168.73,28.53,-1.00,-1.0,2365
5965,1530965,17076,-604,808,17105.77,28.48,-1.00,-1.0,2422
5968,1530968,17072,-476,936,17104.26,28.62,-1.00,-1.0,2369
5970,1530970,17100,-556,844,17129.84,28.58,-1.00,-1.0,2420
5973,1530973,17048,-740,860,17085.71,28.53,-1.00,-1.0,2369
5976,1530976,17060,-640,860,17093.65,28.58,-1.00,-1.0,2422
5979,1530979,16980,-536,896,17012.07,28.53,-1.00,-1.0,2368
5981,1530981,17028,-552,1020,17067.45,28.48,-1.00,-1.0,2380
5986,1530986,17076,-508,844,17104.39,28.48,-1.00,-1.0,2440
5989,1530989,17028,-548,892,17060.15,28.48,-1.00,-1.0,2362
5992,1530992,17048,-612,688,17072.85,28.58,-1.00,-1.0,2425
5994,1530994,17056,-600,920,17091.33,28.58,-1.00,-1.0,2370
5997,1530997,17092,-592,920,17126.98,28.58,-1.00,-1.0,2434
6000,1531000,17084,-556,752,17109.58,28.48,-1.00,-1.0,2377
6003,1531003,17060,-648,884,17095.17,28.44,-1.00,-1.0,2433
6005,1531005,16976,-624,780,17005.36,28.48,-1.00,-1.0,2372
6010,1531010,17032,-592,932,17067.75,28.48,-1.00,-1.0,2440
6013,1531013,16960,-644,836,16992.80,28.48,-1.00,-1.0,2365
6016,1531016,17040,-568,964,17076.70,28.48,-1.00,-1.0,2427
6019,1531019,16920,-592,920,16955.33,28.58,-1.00,-1.0,2373
6021,1531021,17132,-580,948,17168.01,28.53,-1.00,-1.0,2364
6024,1531024,17020,-524,912,17052.47,28.62,-1.00,-1.0,2407
6027,1531027,16996,-528,748,17020.64,28.53,-1.00,-1.0,2372
6030,1531030,17020,-536,860,17050.14,28.44,-1.00,-1.0,2419
6032,1531032,17096,-544,900,17128.31,28.44,-1.00,-1.0,2372
6037,1531037,16980,-532,1000,17017.74,28.44,-1.00,-1.0,2450
6040,1531040,17036,-608,1052,17079.28,28.44,-1.00,-1.0,2368
6043,1531043,16984,-592,740,17010.42,28.44,-1.00,-1.0,2420
6045,1531045,17096,-556,1040,17136.63,28.53,-1.00,-1.0,2373
6048,1531048,16988,-552,984,17025.43,28.53,-1.00,-1.0,2418
6051,1531051,16988,-600,868,17020.74,28.53,-1.00,-1.0,2369
6054,1531054,17132,-640,1080,17177.93,28.53,-1.00,-1.0,2420
6056,1531056,17044,-596,980,17082.55,28.53,-1.00,-1.0,2372
6059,1531059,16984,-604,820,17014.51,28.58,-1.00,-1.0,2366
6064,1531064,16992,-548,840,17021.57,28.58,-1.00,-1.0,2440
6067,1531067,17052,-676,1148,17103.96,28.48,-1.00,-1.0,2367
6070,1531070,17104,-560,836,17133.57,28.39,-1.00,-1.0,2419
6072,1531072,17020,-484,1004,17056.46,28.48,-1.00,-1.0,2369
6075,1531075,17060,-520,856,17089.38,28.58,-1.00,-1.0,2420
6078,1531078,17080,-532,960,17115.23,28.53,-1.00,-1.0,2433
6081,1531081,17052,-644,968,17091.59,28.48,-1.00,-1.0,2421
6084,1531084,17032,-460,948,17064.56,28.48,-1.00,-1.0,2373
6088,1531088,17048,-536,940,17082.31,28.53,-1.00,-1.0,2447
6091,1531091,17092,-552,1020,17131.30,28.53,-1.00,-1.0,2376
6094,1531094,16928,-668,1000,16970.66,28.53,-1.00,-1.0,2422
6096,1531096,17080,-596,1024,17121.04,28.53,-1.00,-1.0,2378
6099,1531099,17044,-544,924,17077.70,28.48,-1.00,-1.0,2418
6102,1531102,17000,-580,968,17037.41,28.53,-1.00,-1.0,2376
6105,1531105,17068,-548,988,17105.35,28.58,-1.00,-1.0,2366
6107,1531107,16996,-660,980,17037.02,28.53,-1.00,-1.0,2418
6110,1531110,17176,-564,948,17211.38,28.58,-1.00,-1.0,2372
