timestamp_ms,global_ms,accel_x,accel_y,accel_z,accel_mag,temp_c,voltage,soc,loop_us
3,1220003,17088,-712,800,17121.53,30.41,-1.00,-1.0,2487
9,1220009,17028,-588,896,17061.69,30.46,-1.00,-1.0,2460
12,1220012,17024,-592,980,17062.46,30.37,-1.00,-1.0,2375
15,1220015,16992,-600,964,17029.90,30.32,-1.00,-1.0,2364
17,1220017,17080,-652,996,17121.43,30.41,-1.00,-1.0,2420
20,1220020,17128,-612,904,17162.75,30.41,-1.00,-1.0,2372
23,1220023,17076,-736,892,17115.11,30.51,-1.00,-1.0,2421
26,1220026,17072,-632,900,17107.38,30.41,-1.00,-1.0,2372
28,1220028,17024,-596,812,17053.77,30.32,-1.00,-1.0,2421
31,1220031,17048,-592,904,17082.21,30.32,-1.00,-1.0,2372
36,1220036,17040,-648,840,17072.99,30.41,-1.00,-1.0,2440
38,1220038,17040,-652,928,17077.70,30.46,-1.00,-1.0,2376
41,1220041,17060,-628,900,17095.26,30.32,-1.00,-1.0,2366
44,1220044,17056,-640,900,17091.71,30.37,-1.00,-1.0,2426
47,1220047,17084,-556,992,17121.81,30.41,-1.00,-1.0,2354
49,1220049,17052,-648,764,17081.40,30.37,-1.00,-1.0,2421
52,1220052,16984,-596,860,17016.20,30.41,-1.00,-1.0,2368
55,1220055,16932,-652,932,16970.16,30.46,-1.00,-1.0,2422
58,1220058,17024,-628,884,17058.50,30.41,-1.00,-1.0,2368
63,1220063,17048,-636,824,17079.75,30.51,-1.00,-1.0,2439
65,1220065,17124,-568,852,17154.59,30.32,-1.00,-1.0,2365
68,1220068,17020,-596,744,17046.68,30.41,-1.00,-1.0,2421
71,1220071,16976,-504,840,17004.24,30.32,-1.00,-1.0,2372
73,1220073,17084,-652,912,17120.74,30.37,-1.00,-1.0,2364
76,1220076,17088,-588,840,17118.73,30.37,-1.00,-1.0,2425
79,1220079,17136,-616,904,17170.88,30.46,-1.00,-1.0,2380
82,1220082,17072,-572,812,17100.87,30.46,-1.00,-1.0,2418
84,1220084,17016,-660,824,17048.72,30.27,-1.00,-1.0,2372
90,1220090,17096,-560,908,17129.25,30.51,-1.00,-1.0,2439
92,1220092,17040,-676,876,17075.89,30.32,-1.00,-1.0,2368
95,1220095,17092,-576,860,17123.31,30.32,-1.00,-1.0,2422
98,1220098,17064,-592,964,17101.46,30.41,-1.00,-1.0,2372
100,1220100,17124,-672,932,17162.51,30.37,-1.00,-1.0,2368
103,1220103,17008,-624,880,17042.18,30.37,-1.00,-1.0,2425
106,1220106,17096,-560,872,17127.38,30.46,-1.00,-1.0,2380
109,1220109,17044,-580,964,17081.09,30.46,-1.00,-1.0,2422
111,1220111,17052,-628,780,17081.38,30.46,-1.00,-1.0,2372
116,1220116,17048,-720,852,17084.46,30.55,-1.00,-1.0,2439
119,1220119,17104,-540,932,17137.88,30.41,-1.00,-1.0,2368
122,1220122,17064,-660,940,17102.61,30.37,-1.00,-1.0,2425
125,1220125,17000,-624,984,17039.88,30.46,-1.00,-1.0,2371
127,1220127,17040,-564,1024,17080.05,30.37,-1.00,-1.0,2373
130,1220130,17044,-528,920,17076.98,30.41,-1.00,-1.0,2407
133,1220133,17076,-608,944,17112.88,30.37,-1.00,-1.0,2371
135,1220135,17104,-720,836,17139.55,30.51,-1.00,-1.0,2426
138,1220138,17152,-620,956,17189.81,30.37,-1.00,-1.0,2380
143,1220143,17032,-600,788,17060.77,30.37,-1.00,-1.0,2439
146,1220146,17020,-648,920,17057.16,30.46,-1.00,-1.0,2376
149,1220149,17048,-632,908,17083.86,30.37,-1.00,-1.0,2418
151,1220151,17048,-596,980,17086.54,30.55,-1.00,-1.0,2372
154,1220154,17072,-604,820,17102.35,30.37,-1.00,-1.0,2418
157,1220157,17060,-648,916,17096.86,30.37,-1.00,-1.0,2379
159,1220159,16956,-600,824,16986.61,30.41,-1.00,-1.0,2376
162,1220162,17064,-640,796,17094.54,30.41,-1.00,-1.0,2418
165,1220165,17028,-684,956,17068.53,30.41,-1.00,-1.0,2375
170,1220170,17128,-624,964,17166.45,30.46,-1.00,-1.0,2447
173,1220173,17024,-684,696,17051.95,30.41,-1.00,-1.0,2368
175,1220175,17044,-568,844,17074.33,30.41,-1.00,-1.0,2429
178,1220178,17124,-644,868,17158.07,30.41,-1.00,-1.0,2379
181,1220181,17060,-632,860,17093.35,30.41,-1.00,-1.0,2406
184,1220184,17076,-704,984,17118.81,30.32,-1.00,-1.0,2373
186,1220186,17072,-640,896,17107.47,30.41,-1.00,-1.0,2426
189,1220189,17112,-680,932,17150.85,30.41,-1.00,-1.0,2380
192,1220192,17028,-632,780,17057.57,30.37,-1.00,-1.0,2367
197,1220197,16972,-560,848,17002.40,30.32,-1.00,-1.0,2445
199,1220199,17032,-652,780,17062.31,30.41,-1.00,-1.0,2380
202,1220202,17096,-608,884,17129.63,30.46,-1.00,-1.0,2418
205,1220205,17068,-584,800,17096.71,30.32,-1.00,-1.0,2373
208,1220208,16952,-536,868,16982.67,30.37,-1.00,-1.0,2419
210,1220210,17132,-592,956,17168.86,30.41,-1.00,-1.0,2371
213,1220213,17044,-652,844,17077.34,30.46,-1.00,-1.0,2418
216,1220216,17084,-664,752,17113.43,30.46,-1.00,-1.0,2375
221,1220221,17020,-568,904,17053.45,30.37,-1.00,-1.0,2439
224,1220224,16984,-564,704,17007.94,30.46,-1.00,-1.0,2368
226,1220226,17076,-556,836,17105.49,30.41,-1.00,-1.0,2366
229,1220229,17004,-600,1016,17044.89,30.41,-1.00,-1.0,2428
232,1220232,17092,-668,968,17132.42,30.32,-1.00,-1.0,2370
234,1220234,17096,-648,788,17126.41,30.41,-1.00,-1.0,2429
237,1220237,17088,-532,844,17117.10,30.41,-1.00,-1.0,2372
240,1220240,17052,-552,988,17089.52,30.41,-1.00,-1.0,2425
243,1220243,17056,-608,772,17084.29,30.37,-1.00,-1.0,2372
247,1220247,16964,-632,832,16996.14,30.46,-1.00,-1.0,2448
250,1220250,17108,-588,916,17142.59,30.41,-1.00,-1.0,2376
253,1220253,17092,-600,952,17129.00,30.37,-1.00,-1.0,2421
256,1220256,16996,-608,956,17033.72,30.41,-1.00,-1.0,2372
258,1220258,17020,-652,804,17051.45,30.46,-1.00,-1.0,2366
261,1220261,17044,-580,812,17073.19,30.41,-1.00,-1.0,2419
264,1220264,17032,-596,996,17071.50,30.37,-1.00,-1.0,2372
267,1220267,17096,-684,976,17137.49,30.37,-1.00,-1.0,2426
270,1220270,17072,-632,820,17103.36,30.46,-1.00,-1.0,2369
275,1220275,17056,-628,868,17089.62,30.46,-1.00,-1.0,2439
277,1220277,17092,-656,832,17124.81,30.46,-1.00,-1.0,2375
280,1220280,16972,-556,812,17000.51,30.41,-1.00,-1.0,2418
283,1220283,16980,-740,816,17015.70,30.37,-1.00,-1.0,2376
286,1220286,17024,-636,936,17061.57,30.37,-1.00,-1.0,2420
289,1220289,17060,-684,932,17099.12,30.46,-1.00,-1.0,2370
291,1220291,17084,-604,816,17114.14,30.37,-1.00,-1.0,2433
294,1220294,17116,-660,980,17156.73,30.41,-1.00,-1.0,2420
297,1220297,17024,-572,928,17058.87,30.41,-1.00,-1.0,2375
302,1220302,16952,-588,848,16983.38,30.46,-1.00,-1.0,2445
305,1220305,16992,-604,816,17022.30,30.27,-1.00,-1.0,2367
307,1220307,17028,-656,972,17068.33,30.41,-1.00,-1.0,2417
310,1220310,17036,-648,912,17072.70,30.32,-1.00,-1.0,2371
313,1220313,17060,-668,852,17094.32,30.41,-1.00,-1.0,2425
316,1220316,17008,-608,1040,17050.61,30.41,-1.00,-1.0,2370
318,1220318,17076,-672,884,17112.07,30.32,-1.00,-1.0,2418
321,1220321,16988,-580,928,17023.21,30.32,-1.00,-1.0,2371
324,1220324,17156,-680,956,17196.07,30.32,-1.00,-1.0,2374
329,1220329,17108,-484,920,17139.55,30.41,-1.00,-1.0,2445
332,1220332,16972,-684,896,17009.39,30.41,-1.00,-1.0,2368
334,1220334,16960,-652,848,16993.70,30.41,-1.00,-1.0,2418
337,1220337,17076,-632,772,17105.12,30.32,-1.00,-1.0,2376
340,1220340,17104,-624,740,17131.37,30.41,-1.00,-1.0,2420
343,1220343,17020,-520,896,17051.50,30.41,-1.00,-1.0,2370
345,1220345,17072,-592,1040,17113.89,30.41,-1.00,-1.0,2418
348,1220348,17004,-592,792,17032.73,30.41,-1.00,-1.0,2371
351,1220351,17044,-544,856,17074.15,30.27,-1.00,-1.0,2368
356,1220356,17104,-636,900,17139.47,30.51,-1.00,-1.0,2445
359,1220359,17140,-636,880,17174.36,30.41,-1.00,-1.0,2367
361,1220361,16960,-604,928,16996.11,30.46,-1.00,-1.0,2417
364,1220364,17012,-632,828,17043.86,30.41,-1.00,-1.0,2372
367,1220367,17088,-492,908,17119.18,30.46,-1.00,-1.0,2427
370,1220370,17076,-532,884,17107.14,30.51,-1.00,-1.0,2370
372,1220372,16992,-572,1008,17031.48,30.37,-1.00,-1.0,2417
375,1220375,17008,-628,792,17038.01,30.32,-1.00,-1.0,2372
380,1220380,17056,-660,804,17087.69,30.41,-1.00,-1.0,2437
383,1220383,17052,-576,1012,17091.71,30.41,-1.00,-1.0,2369
385,1220385,17004,-540,892,17035.94,30.37,-1.00,-1.0,2366
388,1220388,17172,-604,860,17204.13,30.37,-1.00,-1.0,2431
391,1220391,16960,-496,912,16991.74,30.27,-1.00,-1.0,2377
394,1220394,16960,-696,796,16992.93,30.37,-1.00,-1.0,2431
396,1220396,17060,-580,896,17093.36,30.46,-1.00,-1.0,2382
399,1220399,17044,-628,988,17084.16,30.41,-1.00,-1.0,2417
402,1220402,16904,-568,816,16933.21,30.46,-1.00,-1.0,2374
407,1220407,17036,-604,932,17072.16,30.46,-1.00,-1.0,2444
410,1220410,17008,-592,912,17042.72,30.37,-1.00,-1.0,2368
412,1220412,17016,-592,876,17048.81,30.41,-1.00,-1.0,2427
415,1220415,16968,-600,716,16993.70,30.37,-1.00,-1.0,2379
418,1220418,17056,-608,856,17088.29,30.41,-1.00,-1.0,2370
421,1220421,17076,-688,900,17113.54,30.37,-1.00,-1.0,2416
423,1220423,17088,-612,876,17121.38,30.32,-1.00,-1.0,2372
426,1220426,17036,-592,900,17070.03,30.46,-1.00,-1.0,2416
429,1220429,17004,-628,912,17040.02,30.41,-1.00,-1.0,2373
434,1220434,17112,-512,988,17148.14,30.41,-1.00,-1.0,2439
437,1220437,16984,-528,832,17012.56,30.41,-1.00,-1.0,2371
439,1220439,17008,-628,928,17044.87,30.37,-1.00,-1.0,2417
442,1220442,17092,-588,860,17123.72,30.32,-1.00,-1.0,2373
445,1220445,17032,-632,900,17067.47,30.46,-1.00,-1.0,2422
448,1220448,17020,-604,812,17050.06,30.41,-1.00,-1.0,2371
450,1220450,17060,-664,860,17094.56,30.46,-1.00,-1.0,2365
453,1220453,17032,-712,868,17068.96,30.41,-1.00,-1.0,2418
456,1220456,16976,-680,1024,17020.45,30.41,-1.00,-1.0,2373
461,1220461,17028,-460,796,17052.80,30.37,-1.00,-1.0,2437
463,1220463,17040,-604,1036,17082.15,30.37,-1.00,-1.0,2367
466,1220466,17008,-524,940,17042.01,30.41,-1.00,-1.0,2431
469,1220469,16940,-620,928,16976.72,30.41,-1.00,-1.0,2378
472,1220472,17084,-560,844,17114.00,30.41,-1.00,-1.0,2430
474,1220474,17016,-544,804,17043.67,30.32,-1.00,-1.0,2376
477,1220477,16952,-592,968,16989.93,30.41,-1.00,-1.0,2424
480,1220480,17020,-592,756,17047.06,30.41,-1.00,-1.0,2372
483,1220483,17076,-628,984,17115.85,30.41,-1.00,-1.0,2368
488,1220488,17040,-556,904,17073.02,30.41,-1.00,-1.0,2439
491,1220491,17012,-520,864,17041.86,30.41,-1.00,-1.0,2370
494,1220494,17004,-580,888,17037.05,30.46,-1.00,-1.0,2417
496,1220496,16976,-496,984,17011.73,30.41,-1.00,-1.0,2374
499,1220499,17020,-588,844,17051.05,30.37,-1.00,-1.0,2416
502,1220502,17072,-564,928,17106.50,30.41,-1.00,-1.0,2372
505,1220505,17160,-588,824,17189.83,30.37,-1.00,-1.0,2417
507,1220507,16976,-664,1064,17022.27,30.41,-1.00,-1.0,2365
512,1220512,17144,-660,896,17180.08,30.32,-1.00,-1.0,2438
515,1220515,17032,-568,1012,17071.49,30.46,-1.00,-1.0,2367
518,1220518,17064,-732,912,17104.03,30.41,-1.00,-1.0,2366
521,1220521,16940,-588,852,16971.60,30.46,-1.00,-1.0,2417
523,1220523,17128,-580,816,17157.23,30.41,-1.00,-1.0,2358
526,1220526,17092,-616,936,17128.69,30.37,-1.00,-1.0,2416
529,1220529,17112,-568,868,17143.41,30.41,-1.00,-1.0,2374
532,1220532,17036,-592,972,17073.97,30.37,-1.00,-1.0,2417
534,1220534,17036,-628,812,17066.90,30.41,-1.00,-1.0,2374
539,1220539,17004,-592,952,17040.91,30.51,-1.00,-1.0,2453
542,1220542,17128,-616,904,17162.90,30.51,-1.00,-1.0,2375
545,1220545,17000,-780,984,17046.31,30.46,-1.00,-1.0,2426
547,1220547,17084,-544,740,17108.67,30.41,-1.00,-1.0,2378
550,1220550,17100,-532,1000,17137.47,30.37,-1.00,-1.0,2365
553,1220553,16984,-716,804,17018.09,30.51,-1.00,-1.0,2424
556,1220556,17008,-596,896,17042.01,30.37,-1.00,-1.0,2366
558,1220558,17044,-588,812,17073.46,30.41,-1.00,-1.0,2417
561,1220561,17048,-640,784,17078.01,30.41,-1.00,-1.0,2371
566,1220566,17084,-612,904,17118.84,30.37,-1.00,-1.0,2425
569,1220569,17052,-652,756,17081.20,30.37,-1.00,-1.0,2369
572,1220572,16992,-516,832,17020.18,30.37,-1.00,-1.0,2416
574,1220574,17120,-468,968,17153.73,30.37,-1.00,-1.0,2371
577,1220577,17028,-616,896,17062.68,30.41,-1.00,-1.0,2417
580,1220580,17012,-608,980,17051.05,30.46,-1.00,-1.0,2371
582,1220582,17112,-540,776,17138.10,30.51,-1.00,-1.0,2369
585,1220585,17060,-612,1012,17100.94,30.37,-1.00,-1.0,2431
588,1220588,17052,-548,968,17088.24,30.41,-1.00,-1.0,2371
593,1220593,16948,-596,920,16983.41,30.41,-1.00,-1.0,2439
596,1220596,17084,-648,916,17120.81,30.46,-1.00,-1.0,2369
599,1220599,17040,-576,904,17073.68,30.41,-1.00,-1.0,2418
601,1220601,17088,-680,852,17122.73,30.32,-1.00,-1.0,2371
604,1220604,17028,-644,888,17063.29,30.32,-1.00,-1.0,2417
607,1220607,16972,-616,896,17006.79,30.41,-1.00,-1.0,2371
610,1220610,17088,-504,924,17120.38,30.41,-1.00,-1.0,2416
612,1220612,17064,-556,1068,17106.43,30.41,-1.00,-1.0,2371
615,1220615,17120,-500,920,17151.99,30.41,-1.00,-1.0,2366
620,1220620,16992,-616,860,17024.90,30.41,-1.00,-1.0,2438
623,1220623,17076,-544,956,17111.39,30.41,-1.00,-1.0,2372
626,1220626,17144,-724,860,17180.82,30.41,-1.00,-1.0,2417
628,1220628,17000,-584,840,17030.76,30.32,-1.00,-1.0,2372
631,1220631,17120,-620,900,17154.85,30.32,-1.00,-1.0,2417
634,1220634,17000,-592,748,17026.74,30.41,-1.00,-1.0,2371
637,1220637,17104,-648,840,17136.87,30.41,-1.00,-1.0,2416
639,1220639,16968,-684,948,17008.22,30.32,-1.00,-1.0,2372
644,1220644,16932,-680,796,16964.33,30.46,-1.00,-1.0,2437
647,1220647,17164,-620,664,17188.03,30.41,-1.00,-1.0,2376
649,1220649,16996,-616,900,17030.96,30.37,-1.00,-1.0,2370
652,1220652,16952,-648,1032,16995.74,30.41,-1.00,-1.0,2417
655,1220655,17052,-672,888,17088.32,30.37,-1.00,-1.0,2371
658,1220658,17016,-660,800,17047.58,30.41,-1.00,-1.0,2422
660,1220660,16960,-608,852,16992.27,30.37,-1.00,-1.0,2371
663,1220663,17068,-632,776,17097.32,30.51,-1.00,-1.0,2416
666,1220666,17040,-448,928,17071.13,30.37,-1.00,-1.0,2386
671,1220671,17032,-636,952,17070.44,30.46,-1.00,-1.0,2440
674,1220674,17084,-704,936,17124.10,30.32,-1.00,-1.0,2355
676,1220676,17088,-644,764,17117.19,30.37,-1.00,-1.0,2418
679,1220679,17068,-560,788,17095.36,30.41,-1.00,-1.0,2371
682,1220682,17148,-524,940,17181.74,30.37,-1.00,-1.0,2367
685,1220685,17104,-520,1028,17142.75,30.37,-1.00,-1.0,2419
687,1220687,17008,-676,800,17040.22,30.46,-1.00,-1.0,2378
690,1220690,17116,-568,872,17147.61,30.41,-1.00,-1.0,2416
693,1220693,17020,-456,824,17046.04,30.41,-1.00,-1.0,2374
698,1220698,17060,-612,904,17094.89,30.55,-1.00,-1.0,2452
701,1220701,17032,-632,772,17061.20,30.37,-1.00,-1.0,2375
704,1220704,17060,-676,1036,17104.79,30.41,-1.00,-1.0,2424
706,1220706,17080,-540,716,17103.53,30.46,-1.00,-1.0,2379
709,1220709,17032,-668,900,17068.84,30.41,-1.00,-1.0,2416
712,1220712,17052,-588,1008,17091.88,30.46,-1.00,-1.0,2358
715,1220715,17060,-660,812,17092.06,30.41,-1.00,-1.0,2367
717,1220717,16988,-488,940,17020.98,30.46,-1.00,-1.0,2416
720,1220720,17032,-532,868,17062.40,30.41,-1.00,-1.0,2371
725,1220725,17044,-632,824,17075.61,30.41,-1.00,-1.0,2431
728,1220728,17040,-620,1008,17081.04,30.46,-1.00,-1.0,2370
731,1220731,17052,-708,860,17088.35,30.41,-1.00,-1.0,2423
733,1220733,17056,-748,916,17096.95,30.37,-1.00,-1.0,2380
736,1220736,17072,-628,948,17109.83,30.32,-1.00,-1.0,2417
739,1220739,17004,-540,864,17034.50,30.46,-1.00,-1.0,2359
742,1220742,17052,-696,752,17082.76,30.51,-1.00,-1.0,2422
744,1220744,17016,-620,848,17048.39,30.37,-1.00,-1.0,2378
747,1220747,17060,-644,952,17098.67,30.41,-1.00,-1.0,2365
752,1220752,17020,-632,964,17058.99,30.41,-1.00,-1.0,2444
755,1220755,17052,-588,1008,17091.88,30.41,-1.00,-1.0,2366
758,1220758,17012,-724,1032,17058.64,30.51,-1.00,-1.0,2418
760,1220760,17056,-604,736,17082.55,30.41,-1.00,-1.0,2372
763,1220763,17060,-676,880,17096.05,30.41,-1.00,-1.0,2416
766,1220766,16988,-584,844,17018.98,30.41,-1.00,-1.0,2374
769,1220769,17060,-616,832,17091.38,30.41,-1.00,-1.0,2418
771,1220771,17060,-584,948,17096.30,30.41,-1.00,-1.0,2371
776,1220776,16948,-708,880,16985.59,30.32,-1.00,-1.0,2448
779,1220779,16948,-568,884,16980.54,30.51,-1.00,-1.0,2380
782,1220782,17052,-648,904,17088.24,30.37,-1.00,-1.0,2366
785,1220785,17028,-648,852,17061.61,30.46,-1.00,-1.0,2416
787,1220787,16992,-596,816,17022.02,30.37,-1.00,-1.0,2371
790,1220790,17060,-580,888,17092.94,30.37,-1.00,-1.0,2416
793,1220793,16976,-636,960,17015.01,30.37,-1.00,-1.0,2371
796,1220796,17052,-648,820,17084.00,30.46,-1.00,-1.0,2417
798,1220798,17076,-648,924,17113.25,30.27,-1.00,-1.0,2375
803,1220803,17012,-588,864,17044.07,30.37,-1.00,-1.0,2440
806,1220806,17128,-624,864,17161.13,30.37,-1.00,-1.0,2367
809,1220809,17076,-684,908,17113.80,30.41,-1.00,-1.0,2365
811,1220811,17008,-656,928,17045.93,30.32,-1.00,-1.0,2425
814,1220814,17120,-668,916,17157.50,30.41,-1.00,-1.0,2378
817,1220817,16944,-600,912,16979.13,30.41,-1.00,-1.0,2417
820,1220820,17080,-648,980,17120.36,30.32,-1.00,-1.0,2376
822,1220822,16976,-584,756,17002.86,30.51,-1.00,-1.0,2424
825,1220825,16996,-592,856,17027.84,30.37,-1.00,-1.0,2372
830,1220830,17016,-560,920,17050.05,30.37,-1.00,-1.0,2438
833,1220833,16996,-656,1100,17044.19,30.37,-1.00,-1.0,2367
836,1220836,16932,-568,824,16961.55,30.41,-1.00,-1.0,2425
839,1220839,17108,-568,880,17140.03,30.46,-1.00,-1.0,2369
841,1220841,17156,-564,828,17185.23,30.41,-1.00,-1.0,2373
844,1220844,16988,-656,1016,17030.99,30.41,-1.00,-1.0,2403
847,1220847,17012,-628,800,17042.38,30.41,-1.00,-1.0,2371
850,1220850,17064,-544,952,17099.19,30.46,-1.00,-1.0,2458
852,1220852,16940,-548,908,16973.17,30.46,-1.00,-1.0,2366
857,1220857,17044,-536,900,17076.16,30.37,-1.00,-1.0,2446
860,1220860,16976,-572,968,17013.20,30.41,-1.00,-1.0,2368
863,1220863,17088,-628,1016,17129.69,30.27,-1.00,-1.0,2422
865,1220865,17036,-520,952,17070.50,30.46,-1.00,-1.0,2372
868,1220868,17052,-608,1012,17092.82,30.46,-1.00,-1.0,2420
871,1220871,17008,-700,940,17048.33,30.37,-1.00,-1.0,2369
874,1220874,17004,-592,952,17040.91,30.37,-1.00,-1.0,2366
876,1220876,16992,-644,920,17029.07,30.37,-1.00,-1.0,2431
879,1220879,17040,-588,912,17074.52,30.41,-1.00,-1.0,2374
884,1220884,16912,-604,864,16944.82,30.41,-1.00,-1.0,2441
887,1220887,16984,-632,848,17016.90,30.37,-1.00,-1.0,2366
890,1220890,17060,-644,920,17096.92,30.51,-1.00,-1.0,2420
892,1220892,17084,-656,748,17112.95,30.37,-1.00,-1.0,2356
895,1220895,17060,-584,980,17098.10,30.32,-1.00,-1.0,2420
898,1220898,17088,-644,880,17122.76,30.46,-1.00,-1.0,2369
901,1220901,17140,-704,792,17172.72,30.41,-1.00,-1.0,2420
903,1220903,17040,-528,844,17069.06,30.46,-1.00,-1.0,2378
906,1220906,17040,-552,892,17072.26,30.46,-1.00,-1.0,2375
911,1220911,17064,-580,1016,17104.06,30.37,-1.00,-1.0,2454
914,1220914,16976,-688,932,17015.48,30.51,-1.00,-1.0,2372
917,1220917,17044,-556,916,17077.65,30.37,-1.00,-1.0,2409
920,1220920,17076,-524,820,17103.71,30.51,-1.00,-1.0,2368
922,1220922,17104,-576,864,17135.49,30.46,-1.00,-1.0,2429
925,1220925,17120,-648,916,17156.73,30.41,-1.00,-1.0,2375
928,1220928,17008,-464,912,17038.75,30.37,-1.00,-1.0,2406
931,1220931,17040,-604,924,17075.72,30.41,-1.00,-1.0,2369
936,1220936,16948,-584,900,16981.92,30.41,-1.00,-1.0,2447
939,1220939,16968,-556,828,16997.29,30.41,-1.00,-1.0,2365
941,1220941,17024,-588,892,17057.49,30.46,-1.00,-1.0,2372
944,1220944,17156,-684,876,17191.96,30.37,-1.00,-1.0,2406
947,1220947,17044,-592,1080,17088.44,30.41,-1.00,-1.0,2368
949,1220949,17052,-628,872,17085.83,30.37,-1.00,-1.0,2430
952,1220952,17104,-704,1008,17148.13,30.46,-1.00,-1.0,2376
955,1220955,16948,-532,868,16978.55,30.46,-1.00,-1.0,2407
958,1220958,17120,-588,944,17156.09,30.37,-1.00,-1.0,2369
963,1220963,17024,-616,876,17057.65,30.41,-1.00,-1.0,2440
965,1220965,17040,-504,920,17072.26,30.41,-1.00,-1.0,2365
968,1220968,16980,-592,868,17012.47,30.37,-1.00,-1.0,2419
971,1220971,17056,-564,940,17091.19,30.32,-1.00,-1.0,2369
973,1220973,17048,-708,776,17080.33,30.27,-1.00,-1.0,2375
976,1220976,17112,-656,916,17149.05,30.37,-1.00,-1.0,2420
979,1220979,17044,-608,880,17077.53,30.46,-1.00,-1.0,2371
982,1220982,17104,-580,792,17132.15,30.41,-1.00,-1.0,2427
984,1220984,16924,-532,968,16960.01,30.41,-1.00,-1.0,2355
989,1220989,17004,-524,772,17029.58,30.37,-1.00,-1.0,2449
992,1220992,16944,-616,820,16975.01,30.46,-1.00,-1.0,2376
995,1220995,17088,-556,704,17111.53,30.41,-1.00,-1.0,2422
998,1220998,17096,-608,984,17135.08,30.37,-1.00,-1.0,2370
1001,1221001,17108,-584,896,17141.40,30.41,-1.00,-1.0,2422
1003,1221003,17096,-556,920,17129.76,30.37,-1.00,-1.0,2376
1006,1221006,17032,-552,832,17061.24,30.41,-1.00,-1.0,2366
1009,1221009,17016,-580,908,17050.08,30.37,-1.00,-1.0,2419
1012,1221012,17072,-528,748,17096.53,30.41,-1.00,-1.0,2368
1017,1221017,16968,-620,880,17002.11,30.32,-1.00,-1.0,2434
1019,1221019,17008,-652,824,17040.43,30.46,-1.00,-1.0,2367
1022,1221022,17136,-572,844,17166.30,30.41,-1.00,-1.0,2419
1025,1221025,17072,-584,980,17110.07,30.32,-1.00,-1.0,2371
1028,1221028,17032,-724,756,17064.14,30.32,-1.00,-1.0,2419
1030,1221030,17008,-564,976,17045.31,30.37,-1.00,-1.0,2371
1033,1221033,17036,-768,872,17075.58,30.41,-1.00,-1.0,2419
1036,1221036,17080,-608,1056,17123.41,30.41,-1.00,-1.0,2370
1041,1221041,17032,-560,860,17062.89,30.41,-1.00,-1.0,2447
1043,1221043,17072,-580,920,17106.61,30.41,-1.00,-1.0,2376
1046,1221046,17024,-556,868,17055.18,30.32,-1.00,-1.0,2365
1049,1221049,16924,-612,948,16961.57,30.37,-1.00,-1.0,2426
1052,1221052,17028,-588,816,17057.68,30.41,-1.00,-1.0,2367
1054,1221054,17044,-676,748,17073.79,30.37,-1.00,-1.0,2420
1057,1221057,16940,-612,960,16978.21,30.46,-1.00,-1.0,2369
1060,1221060,17016,-556,856,17046.59,30.46,-1.00,-1.0,2421
1063,1221063,17036,-652,1056,17081.15,30.37,-1.00,-1.0,2367
1067,1221067,17136,-488,884,17165.72,30.46,-1.00,-1.0,2441
1070,1221070,17060,-608,824,17090.71,30.46,-1.00,-1.0,2365
1073,1221073,17008,-628,816,17039.14,30.51,-1.00,-1.0,2430
1076,1221076,17092,-580,868,17123.85,30.46,-1.00,-1.0,2367
1078,1221078,17020,-548,876,17051.34,30.32,-1.00,-1.0,2430
1081,1221081,17080,-616,928,17116.28,30.37,-1.00,-1.0,2369
1084,1221084,16972,-652,964,17011.85,30.41,-1.00,-1.0,2366
1087,1221087,17060,-668,828,17093.14,30.37,-1.00,-1.0,2419
1090,1221090,17032,-568,1056,17074.16,30.46,-1.00,-1.0,2371
1094,1221094,17036,-648,992,17077.16,30.37,-1.00,-1.0,2440
1097,1221097,17060,-608,892,17094.12,30.41,-1.00,-1.0,2366
1100,1221100,16988,-576,832,17018.11,30.37,-1.00,-1.0,2428
1103,1221103,17020,-648,932,17057.81,30.37,-1.00,-1.0,2364
1105,1221105,17004,-620,808,17034.47,30.37,-1.00,-1.0,2419
1108,1221108,17020,-612,744,17047.24,30.37,-1.00,-1.0,2368
1111,1221111,17016,-640,884,17050.96,30.37,-1.00,-1.0,2426
1114,1221114,17108,-600,812,17137.77,30.32,-1.00,-1.0,2368
1119,1221119,17044,-620,772,17072.74,30.37,-1.00,-1.0,2440
1121,1221121,17092,-488,884,17121.80,30.37,-1.00,-1.0,2368
1124,1221124,17072,-636,912,17108.17,30.41,-1.00,-1.0,2369
1127,1221127,17044,-508,896,17075.09,30.46,-1.00,-1.0,2422
1129,1221129,17064,-528,988,17100.73,30.41,-1.00,-1.0,2375
1132,1221132,16988,-596,912,17022.90,30.46,-1.00,-1.0,2419
1135,1221135,16976,-476,808,17001.88,30.41,-1.00,-1.0,2373
1138,1221138,17088,-600,916,17123.05,30.46,-1.00,-1.0,2420
1141,1221141,17036,-604,936,17072.38,30.41,-1.00,-1.0,2371
1146,1221146,17124,-568,944,17159.40,30.41,-1.00,-1.0,2440
1148,1221148,17068,-532,928,17101.49,30.41,-1.00,-1.0,2367
1151,1221151,17140,-616,884,17173.83,30.41,-1.00,-1.0,2434
1154,1221154,17024,-756,784,17058.80,30.51,-1.00,-1.0,2363
1157,1221157,17104,-604,784,17132.61,30.41,-1.00,-1.0,2426
1159,1221159,17016,-688,880,17052.62,30.41,-1.00,-1.0,2369
1162,1221162,17084,-636,1008,17125.53,30.37,-1.00,-1.0,2425
1165,1221165,17096,-604,856,17128.07,30.37,-1.00,-1.0,2425
1168,1221168,17020,-640,860,17053.73,30.41,-1.00,-1.0,2370
1173,1221173,17028,-548,928,17062.07,30.41,-1.00,-1.0,2448
1175,1221175,17028,-624,864,17061.32,30.41,-1.00,-1.0,2368
1178,1221178,17012,-604,828,17042.84,30.46,-1.00,-1.0,2429
1181,1221181,17128,-664,932,17166.19,30.41,-1.00,-1.0,2377
1184,1221184,17092,-612,756,17119.65,30.37,-1.00,-1.0,2429
1186,1221186,16972,-604,868,17004.91,30.37,-1.00,-1.0,2379
1189,1221189,17040,-648,916,17076.90,30.46,-1.00,-1.0,2420
1192,1221192,17120,-716,784,17152.89,30.37,-1.00,-1.0,2373
1197,1221197,17076,-604,760,17103.57,30.37,-1.00,-1.0,2444
1200,1221200,17008,-608,772,17036.37,30.51,-1.00,-1.0,2370
1202,1221202,16984,-700,888,17021.60,30.37,-1.00,-1.0,2365
1205,1221205,17076,-620,860,17108.88,30.37,-1.00,-1.0,2422
1208,1221208,17020,-516,924,17052.87,30.37,-1.00,-1.0,2369
1211,1221211,17104,-584,800,17132.65,30.41,-1.00,-1.0,2420
1213,1221213,16964,-664,948,17003.44,30.46,-1.00,-1.0,2370
1216,1221216,17040,-640,924,17077.03,30.46,-1.00,-1.0,2420
1219,1221219,17072,-580,976,17109.71,30.37,-1.00,-1.0,2369
1224,1221224,17076,-540,884,17107.39,30.27,-1.00,-1.0,2440
1226,1221226,17004,-484,800,17029.69,30.46,-1.00,-1.0,2373
1229,1221229,17012,-664,844,17045.86,30.41,-1.00,-1.0,2419
1232,1221232,17072,-632,936,17109.32,30.37,-1.00,-1.0,2373
1235,1221235,17076,-560,976,17113.04,30.32,-1.00,-1.0,2421
1238,1221238,17032,-616,928,17068.38,30.46,-1.00,-1.0,2369
1240,1221240,17060,-568,860,17091.10,30.41,-1.00,-1.0,2365
1243,1221243,17044,-724,892,17082.67,30.46,-1.00,-1.0,2426
1246,1221246,17076,-604,936,17112.30,30.37,-1.00,-1.0,2369
1251,1221251,16900,-608,964,16938.39,30.27,-1.00,-1.0,2441
1253,1221253,17060,-588,884,17093.00,30.46,-1.00,-1.0,2373
1256,1221256,16948,-504,848,16976.69,30.32,-1.00,-1.0,2419
1259,1221259,17036,-636,936,17073.54,30.46,-1.00,-1.0,2371
1262,1221262,17044,-600,1068,17087.96,30.41,-1.00,-1.0,2421
1265,1221265,17112,-644,856,17145.50,30.37,-1.00,-1.0,2368
1267,1221267,16916,-552,840,16945.84,30.51,-1.00,-1.0,2419
1270,1221270,17080,-620,904,17115.14,30.37,-1.00,-1.0,2373
1275,1221275,17144,-596,788,17172.45,30.41,-1.00,-1.0,2447
1278,1221278,17024,-564,936,17059.04,30.32,-1.00,-1.0,2366
1280,1221280,17120,-532,968,17155.60,30.37,-1.00,-1.0,2373
1283,1221283,17104,-548,952,17139.24,30.37,-1.00,-1.0,2422
1286,1221286,16988,-484,684,17008.65,30.46,-1.00,-1.0,2368
1288,1221288,17036,-608,944,17072.96,30.37,-1.00,-1.0,2427
1291,1221291,17012,-612,868,17045.12,30.46,-1.00,-1.0,2377
1294,1221294,17028,-640,1016,17070.29,30.37,-1.00,-1.0,2408
1297,1221297,17044,-576,776,17071.38,30.41,-1.00,-1.0,2370
1302,1221302,17124,-652,772,17153.79,30.41,-1.00,-1.0,2442
1304,1221304,17108,-604,860,17140.25,30.37,-1.00,-1.0,2368
1307,1221307,17104,-632,908,17139.74,30.41,-1.00,-1.0,2419
1310,1221310,16964,-516,696,16986.11,30.41,-1.00,-1.0,2372
1313,1221313,17060,-552,888,17092.01,30.41,-1.00,-1.0,2420
1315,1221315,16960,-656,1052,17005.25,30.32,-1.00,-1.0,2372
1318,1221318,17124,-684,788,17155.76,30.41,-1.00,-1.0,2373
1321,1221321,16976,-680,832,17009.97,30.46,-1.00,-1.0,2431
1324,1221324,17092,-636,772,17121.24,30.37,-1.00,-1.0,2375
1329,1221329,16940,-588,780,16968.14,30.46,-1.00,-1.0,2447
1332,1221332,16960,-676,952,17000.14,30.32,-1.00,-1.0,2366
1334,1221334,17028,-636,884,17062.79,30.37,-1.00,-1.0,2419
1337,1221337,17000,-720,896,17038.81,30.32,-1.00,-1.0,2369
1340,1221340,16992,-540,860,17022.32,30.46,-1.00,-1.0,2421
1343,1221343,17000,-644,940,17038.14,30.32,-1.00,-1.0,2369
1345,1221345,17048,-692,828,17082.12,30.37,-1.00,-1.0,2422
1348,1221348,17088,-604,884,17121.51,30.41,-1.00,-1.0,2369
1353,1221353,16956,-624,852,16988.86,30.41,-1.00,-1.0,2447
1356,1221356,17124,-612,912,17159.19,30.46,-1.00,-1.0,2367
1359,1221359,17000,-636,832,17032.23,30.27,-1.00,-1.0,2363
1361,1221361,16888,-592,752,16915.10,30.37,-1.00,-1.0,2419
1364,1221364,16996,-552,960,17032.04,30.37,-1.00,-1.0,2373
1367,1221367,17016,-656,1004,17058.21,30.37,-1.00,-1.0,2430
1370,1221370,17152,-604,980,17190.59,30.46,-1.00,-1.0,2369
1372,1221372,17000,-640,828,17032.18,30.37,-1.00,-1.0,2422
1375,1221375,17096,-672,864,17131.00,30.46,-1.00,-1.0,2371
1380,1221380,17084,-632,860,17117.30,30.46,-1.00,-1.0,2440
1383,1221383,17036,-556,912,17069.45,30.41,-1.00,-1.0,2367
1386,1221386,17024,-572,776,17051.27,30.46,-1.00,-1.0,2419
1388,1221388,17024,-540,1008,17062.36,30.41,-1.00,-1.0,2369
1391,1221391,17028,-584,992,17066.87,30.46,-1.00,-1.0,2419
1394,1221394,17080,-576,840,17110.34,30.41,-1.00,-1.0,2369
1396,1221396,17052,-704,856,17087.98,30.37,-1.00,-1.0,2369
1399,1221399,17028,-608,860,17060.54,30.32,-1.00,-1.0,2433
1402,1221402,17132,-596,904,17166.18,30.37,-1.00,-1.0,2377
1407,1221407,16972,-612,1052,17015.58,30.37,-1.00,-1.0,2447
1410,1221410,17152,-528,1008,17189.71,30.46,-1.00,-1.0,2366
1412,1221412,17028,-628,788,17057.79,30.51,-1.00,-1.0,2432
1415,1221415,17020,-564,860,17051.04,30.46,-1.00,-1.0,2369
1418,1221418,17024,-528,992,17061.05,30.32,-1.00,-1.0,2424
1421,1221421,16972,-556,820,17000.89,30.37,-1.00,-1.0,2369
1423,1221423,17128,-556,956,17163.67,30.41,-1.00,-1.0,2431
1426,1221426,17120,-548,924,17153.67,30.41,-1.00,-1.0,2376
1431,1221431,16952,-528,852,16981.61,30.46,-1.00,-1.0,2440
1434,1221434,17016,-592,864,17048.20,30.27,-1.00,-1.0,2374
1436,1221436,17040,-576,840,17070.41,30.32,-1.00,-1.0,2373
1439,1221439,17096,-552,836,17125.33,30.37,-1.00,-1.0,2419
1442,1221442,17076,-540,920,17109.29,30.41,-1.00,-1.0,2371
1445,1221445,17020,-608,808,17050.01,30.37,-1.00,-1.0,2420
1447,1221447,17080,-580,928,17115.02,30.41,-1.00,-1.0,2374
1450,1221450,17024,-532,748,17048.73,30.46,-1.00,-1.0,2419
1453,1221453,17080,-604,832,17110.92,30.22,-1.00,-1.0,2373
1458,1221458,17076,-672,884,17112.07,30.41,-1.00,-1.0,2448
1461,1221461,16964,-540,888,16995.81,30.32,-1.00,-1.0,2372
1464,1221464,17092,-576,956,17128.40,30.37,-1.00,-1.0,2421
1466,1221466,17004,-664,800,17035.75,30.41,-1.00,-1.0,2384
1469,1221469,17080,-556,964,17116.21,30.46,-1.00,-1.0,2419
1472,1221472,17020,-624,880,17054.15,30.41,-1.00,-1.0,2370
1474,1221474,17072,-616,816,17102.59,30.46,-1.00,-1.0,2366
1477,1221477,16932,-516,1000,16969.35,30.51,-1.00,-1.0,2419
1480,1221480,16972,-684,1020,17016.38,30.46,-1.00,-1.0,2371
1485,1221485,17028,-532,808,17055.46,30.41,-1.00,-1.0,2467
1488,1221488,17044,-636,720,17071.05,30.41,-1.00,-1.0,2367
1491,1221491,17048,-660,820,17080.46,30.37,-1.00,-1.0,2427
1493,1221493,17084,-676,948,17123.63,30.32,-1.00,-1.0,2381
1496,1221496,17128,-604,772,17156.03,30.37,-1.00,-1.0,2421
1499,1221499,16940,-572,816,16969.29,30.32,-1.00,-1.0,2367
1502,1221502,17096,-668,952,17135.51,30.46,-1.00,-1.0,2429
1504,1221504,16908,-552,912,16941.57,30.46,-1.00,-1.0,2382
1509,1221509,17128,-704,860,17164.02,30.46,-1.00,-1.0,2450
1512,1221512,17116,-660,872,17150.90,30.41,-1.00,-1.0,2363
1514,1221514,17120,-652,952,17158.84,30.46,-1.00,-1.0,2381
1517,1221517,17072,-704,824,17106.37,30.46,-1.00,-1.0,2421
1520,1221520,16992,-604,920,17027.60,30.37,-1.00,-1.0,2375
1523,1221523,17112,-616,656,17135.64,30.46,-1.00,-1.0,2423
1525,1221525,17020,-604,872,17053.02,30.27,-1.00,-1.0,2378
1528,1221528,17040,-632,956,17078.49,30.41,-1.00,-1.0,2421
1531,1221531,17068,-664,1048,17113.03,30.41,-1.00,-1.0,2371
1536,1221536,17004,-544,872,17035.03,30.37,-1.00,-1.0,2442
1539,1221539,17092,-556,800,17119.74,30.46,-1.00,-1.0,2367
1542,1221542,17104,-596,900,17138.03,30.41,-1.00,-1.0,2420
1544,1221544,17040,-588,896,17073.67,30.46,-1.00,-1.0,2370
1547,1221547,17024,-544,896,17056.24,30.41,-1.00,-1.0,2420
1550,1221550,17060,-624,852,17092.66,30.46,-1.00,-1.0,2370
1552,1221552,17104,-616,792,17133.40,30.41,-1.00,-1.0,2369
1555,1221555,17124,-576,796,17152.17,30.37,-1.00,-1.0,2427
1558,1221558,17016,-576,808,17044.91,30.41,-1.00,-1.0,2371
1563,1221563,17060,-652,944,17098.53,30.41,-1.00,-1.0,2428
1566,1221566,17012,-592,768,17039.61,30.37,-1.00,-1.0,2368
1569,1221569,17096,-620,948,17133.48,30.41,-1.00,-1.0,2420
1571,1221571,17044,-596,840,17075.09,30.51,-1.00,-1.0,2370
1574,1221574,17088,-532,872,17118.50,30.32,-1.00,-1.0,2420
1577,1221577,17008,-548,964,17044.11,30.46,-1.00,-1.0,2370
1580,1221580,17044,-628,880,17078.25,30.41,-1.00,-1.0,2420
1582,1221582,17008,-624,944,17045.60,30.41,-1.00,-1.0,2370
1587,1221587,17048,-600,880,17081.24,30.41,-1.00,-1.0,2449
1590,1221590,17004,-680,788,17035.83,30.37,-1.00,-1.0,2354
1593,1221593,16976,-580,896,17009.52,30.41,-1.00,-1.0,2365
1595,1221595,17060,-648,888,17095.38,30.37,-1.00,-1.0,2422
1598,1221598,17112,-632,868,17145.65,30.41,-1.00,-1.0,2370
1601,1221601,17072,-632,820,17103.36,30.46,-1.00,-1.0,2422
1604,1221604,17120,-600,868,17152.49,30.41,-1.00,-1.0,2369
1606,1221606,17072,-604,848,17103.72,30.46,-1.00,-1.0,2420
1609,1221609,17080,-524,992,17116.81,30.37,-1.00,-1.0,2371
1614,1221614,17020,-636,872,17054.19,30.37,-1.00,-1.0,2442
1617,1221617,17048,-624,976,17087.31,30.41,-1.00,-1.0,2375
1620,1221620,17084,-640,924,17120.94,30.37,-1.00,-1.0,2420
1622,1221622,17064,-588,928,17099.33,30.41,-1.00,-1.0,2370
1625,1221625,17060,-680,840,17094.20,30.37,-1.00,-1.0,2420
1628,1221628,17052,-612,816,17082.48,30.41,-1.00,-1.0,2381
1630,1221630,17016,-584,972,17053.74,30.37,-1.00,-1.0,2375
1633,1221633,17096,-572,868,17127.57,30.41,-1.00,-1.0,2420
1636,1221636,17124,-628,848,17156.48,30.37,-1.00,-1.0,2378
1641,1221641,17020,-568,884,17052.40,30.37,-1.00,-1.0,2441
1644,1221644,17128,-620,904,17163.04,30.37,-1.00,-1.0,2375
1647,1221647,17032,-588,916,17066.75,30.37,-1.00,-1.0,2434
1649,1221649,17020,-604,820,17050.44,30.37,-1.00,-1.0,2373
1652,1221652,16996,-544,988,17033.38,30.41,-1.00,-1.0,2435
1655,1221655,17024,-612,876,17057.51,30.37,-1.00,-1.0,2377
1658,1221658,16976,-500,868,17005.53,30.46,-1.00,-1.0,2436
1660,1221660,17096,-500,872,17125.53,30.37,-1.00,-1.0,2380
1665,1221665,17028,-636,864,17061.76,30.37,-1.00,-1.0,2443
1668,1221668,17132,-640,696,17158.07,30.46,-1.00,-1.0,2363
1671,1221671,17020,-652,856,17053.98,30.46,-1.00,-1.0,2370
1674,1221674,17028,-604,876,17061.21,30.41,-1.00,-1.0,2420
1676,1221676,17148,-624,888,17182.31,30.51,-1.00,-1.0,2371
1679,1221679,17036,-608,1060,17079.77,30.41,-1.00,-1.0,2407
1682,1221682,16996,-532,944,17030.51,30.41,-1.00,-1.0,2371
1685,1221685,17060,-580,800,17088.59,30.41,-1.00,-1.0,2420
1687,1221687,17092,-652,888,17127.47,30.32,-1.00,-1.0,2358
1692,1221692,17056,-584,916,17090.56,30.37,-1.00,-1.0,2450
1695,1221695,17192,-596,976,17229.99,30.46,-1.00,-1.0,2369
1698,1221698,17080,-560,896,17112.65,30.46,-1.00,-1.0,2419
1700,1221700,17068,-752,936,17110.18,30.46,-1.00,-1.0,2373
1703,1221703,17012,-612,848,17044.11,30.37,-1.00,-1.0,2419
1706,1221706,17080,-628,876,17113.97,30.27,-1.00,-1.0,2377
1708,1221708,17096,-520,808,17122.98,30.41,-1.00,-1.0,2376
1711,1221711,17024,-656,844,17057.53,30.37,-1.00,-1.0,2420
1714,1221714,17116,-540,820,17144.14,30.41,-1.00,-1.0,2370
1719,1221719,17112,-560,876,17143.56,30.41,-1.00,-1.0,2444
1722,1221722,17032,-580,772,17059.35,30.37,-1.00,-1.0,2371
1725,1221725,17008,-656,960,17047.70,30.41,-1.00,-1.0,2427
1727,1221727,17072,-656,836,17105.04,30.41,-1.00,-1.0,2388
1730,1221730,17060,-648,924,17097.29,30.46,-1.00,-1.0,2422
1733,1221733,17036,-572,928,17070.84,30.41,-1.00,-1.0,2368
1736,1221736,17000,-636,784,17029.95,30.37,-1.00,-1.0,2422
1738,1221738,16964,-584,808,16993.27,30.37,-1.00,-1.0,2369
1743,1221743,17048,-584,972,17085.67,30.32,-1.00,-1.0,2447
1746,1221746,16992,-592,876,17024.86,30.41,-1.00,-1.0,2366
1749,1221749,17060,-580,896,17093.36,30.46,-1.00,-1.0,2364
1751,1221751,17012,-648,824,17044.27,30.41,-1.00,-1.0,2419
1754,1221754,17008,-668,772,17038.61,30.46,-1.00,-1.0,2370
1757,1221757,17084,-560,904,17117.06,30.32,-1.00,-1.0,2422
1760,1221760,17060,-668,888,17096.15,30.37,-1.00,-1.0,2368
1762,1221762,16988,-692,860,17023.82,30.32,-1.00,-1.0,2420
1765,1221765,17044,-584,1008,17083.77,30.46,-1.00,-1.0,2369
1770,1221770,17028,-632,932,17065.19,30.41,-1.00,-1.0,2450
1773,1221773,17060,-604,948,17096.99,30.32,-1.00,-1.0,2373
1776,1221776,17060,-572,944,17095.67,30.37,-1.00,-1.0,2421
1779,1221779,17036,-560,756,17061.96,30.41,-1.00,-1.0,2368
1782,1221782,17052,-552,852,17082.19,30.37,-1.00,-1.0,2421
1784,1221784,17076,-604,808,17105.77,30.41,-1.00,-1.0,2377
1787,1221787,17044,-464,872,17072.60,30.37,-1.00,-1.0,2373
1790,1221790,17080,-560,872,17111.41,30.46,-1.00,-1.0,2419
1792,1221792,17092,-568,676,17114.79,30.37,-1.00,-1.0,2371
1797,1221797,17044,-588,944,17080.25,30.37,-1.00,-1.0,2440
1800,1221800,17032,-656,948,17070.97,30.46,-1.00,-1.0,2368
1803,1221803,17068,-576,904,17101.63,30.32,-1.00,-1.0,2428
1806,1221806,17020,-592,872,17052.60,30.37,-1.00,-1.0,2365
1808,1221808,17064,-428,844,17090.22,30.41,-1.00,-1.0,2421
1811,1221811,17056,-532,760,17081.21,30.37,-1.00,-1.0,2356
1814,1221814,17036,-588,800,17064.91,30.41,-1.00,-1.0,2426
1817,1221817,17004,-592,888,17037.46,30.37,-1.00,-1.0,2369
1822,1221822,16996,-528,940,17030.16,30.37,-1.00,-1.0,2448
1824,1221824,17000,-704,936,17040.30,30.46,-1.00,-1.0,2368
1827,1221827,17080,-548,964,17115.96,30.41,-1.00,-1.0,2378
1830,1221830,16952,-488,860,16980.81,30.41,-1.00,-1.0,2419
1832,1221832,17104,-644,940,17141.91,30.32,-1.00,-1.0,2369
1835,1221835,17132,-532,832,17160.44,30.41,-1.00,-1.0,2419
1838,1221838,16972,-508,900,17003.44,30.51,-1.00,-1.0,2376
1841,1221841,17084,-676,904,17121.25,30.41,-1.00,-1.0,2419
1843,1221843,17012,-644,916,17048.81,30.41,-1.00,-1.0,2370
1848,1221848,16960,-636,888,16995.14,30.32,-1.00,-1.0,2439
1851,1221851,17088,-588,916,17122.63,30.41,-1.00,-1.0,2370
1854,1221854,17032,-632,808,17062.86,30.41,-1.00,-1.0,2426
1857,1221857,17024,-720,920,17064.04,30.46,-1.00,-1.0,2368
1859,1221859,17028,-568,912,17061.86,30.41,-1.00,-1.0,2420
1862,1221862,17072,-672,808,17104.32,30.51,-1.00,-1.0,2369
1865,1221865,17028,-584,832,17058.31,30.46,-1.00,-1.0,2366
1867,1221867,17036,-688,908,17074.05,30.37,-1.00,-1.0,2427
1870,1221870,17020,-632,780,17049.58,30.41,-1.00,-1.0,2372
1875,1221875,17060,-712,1040,17106.49,30.41,-1.00,-1.0,2441
1878,1221878,16992,-632,772,17021.27,30.41,-1.00,-1.0,2367
1881,1221881,17048,-640,844,17080.87,30.46,-1.00,-1.0,2426
1884,1221884,16932,-652,940,16970.60,30.41,-1.00,-1.0,2355
1886,1221886,17084,-584,944,17120.03,30.37,-1.00,-1.0,2420
1889,1221889,17060,-700,992,17103.15,30.41,-1.00,-1.0,2369
1892,1221892,16980,-572,756,17006.44,30.55,-1.00,-1.0,2430
1895,1221895,17080,-560,844,17110.01,30.32,-1.00,-1.0,2368
1899,1221899,17092,-572,804,17120.46,30.37,-1.00,-1.0,2441
1902,1221902,17120,-592,900,17153.86,30.41,-1.00,-1.0,2366
1905,1221905,17028,-676,868,17063.50,30.46,-1.00,-1.0,2368
1908,1221908,17044,-656,772,17074.08,30.46,-1.00,-1.0,2419
1910,1221910,17044,-564,968,17080.78,30.46,-1.00,-1.0,2371
1913,1221913,17140,-632,976,17179.39,30.32,-1.00,-1.0,2419
1916,1221916,17020,-640,944,17058.17,30.27,-1.00,-1.0,2370
1919,1221919,17104,-648,928,17141.41,30.41,-1.00,-1.0,2419
1921,1221921,17020,-612,816,17050.54,30.37,-1.00,-1.0,2379
1926,1221926,17076,-688,856,17111.28,30.37,-1.00,-1.0,2440
1929,1221929,16992,-660,892,17028.19,30.41,-1.00,-1.0,2374
1932,1221932,17028,-628,896,17063.12,30.46,-1.00,-1.0,2419
1934,1221934,17040,-628,832,17071.85,30.46,-1.00,-1.0,2372
1937,1221937,16972,-696,780,17004.16,30.37,-1.00,-1.0,2354
1940,1221940,16976,-604,904,17010.78,30.41,-1.00,-1.0,2421
1942,1221942,17020,-512,884,17050.63,30.46,-1.00,-1.0,2373
1946,1221946,17016,-656,824,17048.56,30.32,-1.00,-1.0,2422
1948,1221948,17020,-540,940,17054.49,30.37,-1.00,-1.0,2377
1953,1221953,17060,-500,980,17095.44,30.46,-1.00,-1.0,2449
1956,1221956,17092,-616,988,17131.61,30.37,-1.00,-1.0,2380
1959,1221959,17044,-596,696,17068.61,30.41,-1.00,-1.0,2422
1962,1221962,16960,-572,924,16994.78,30.37,-1.00,-1.0,2372
1965,1221965,17072,-596,852,17103.63,30.46,-1.00,-1.0,2408
1967,1221967,17016,-580,920,17050.72,30.41,-1.00,-1.0,2385
1970,1221970,16992,-604,936,17028.47,30.41,-1.00,-1.0,2420
1973,1221973,17052,-604,980,17090.81,30.41,-1.00,-1.0,2374
1975,1221975,17044,-652,856,17077.93,30.51,-1.00,-1.0,2368
1980,1221980,17028,-652,808,17059.62,30.37,-1.00,-1.0,2448
1983,1221983,17088,-648,804,17119.17,30.32,-1.00,-1.0,2380
1986,1221986,17048,-532,808,17075.43,30.41,-1.00,-1.0,2421
1989,1221989,17048,-704,888,17085.62,30.41,-1.00,-1.0,2371
1992,1221992,17044,-652,936,17082.13,30.41,-1.00,-1.0,2422
1994,1221994,17068,-592,816,17097.75,30.32,-1.00,-1.0,2372
1997,1221997,17088,-608,896,17122.27,30.41,-1.00,-1.0,2422
2000,1222000,17092,-624,832,17123.61,30.32,-1.00,-1.0,2371
2005,1222005,17060,-612,972,17098.62,30.41,-1.00,-1.0,2447
2007,1222007,17048,-624,860,17081.08,30.27,-1.00,-1.0,2377
2010,1222010,17008,-616,848,17040.27,30.41,-1.00,-1.0,2419
2013,1222013,17000,-620,904,17035.30,30.41,-1.00,-1.0,2372
2016,1222016,17008,-628,960,17046.64,30.37,-1.00,-1.0,2367
2018,1222018,17000,-600,928,17035.88,30.37,-1.00,-1.0,2422
2021,1222021,17060,-612,748,17087.35,30.37,-1.00,-1.0,2370
2024,1222024,16976,-672,788,17007.56,30.37,-1.00,-1.0,2422
2027,1222027,17092,-540,932,17125.91,30.37,-1.00,-1.0,2368
2032,1222032,17132,-652,896,17167.80,30.46,-1.00,-1.0,2440
2034,1222034,17116,-652,820,17148.03,30.51,-1.00,-1.0,2369
2037,1222037,17084,-616,824,17114.95,30.37,-1.00,-1.0,2420
2040,1222040,16980,-544,736,17004.65,30.37,-1.00,-1.0,2369
2043,1222043,17128,-488,832,17155.14,30.46,-1.00,-1.0,2419
2045,1222045,17016,-616,888,17050.29,30.46,-1.00,-1.0,2370
2048,1222048,17008,-604,1012,17048.78,30.46,-1.00,-1.0,2423
2051,1222051,17064,-608,932,17100.25,30.37,-1.00,-1.0,2369
2054,1222054,16996,-592,936,17032.04,30.37,-1.00,-1.0,2366
2059,1222059,16936,-644,808,16967.49,30.37,-1.00,-1.0,2440
2061,1222061,17008,-608,924,17043.93,30.37,-1.00,-1.0,2366
2064,1222064,17112,-556,788,17139.15,30.46,-1.00,-1.0,2419
2067,1222067,16988,-628,948,17026.02,30.37,-1.00,-1.0,2370
2070,1222070,17168,-632,872,17201.74,30.37,-1.00,-1.0,2419
2072,1222072,17088,-616,828,17119.13,30.46,-1.00,-1.0,2369
2075,1222075,17164,-588,1008,17203.62,30.46,-1.00,-1.0,2419
2078,1222078,17044,-660,964,17083.99,30.41,-1.00,-1.0,2435
2083,1222083,17036,-616,948,17073.47,30.37,-1.00,-1.0,2431
2086,1222086,17096,-644,928,17133.28,30.22,-1.00,-1.0,2378
2089,1222089,17068,-624,820,17099.08,30.37,-1.00,-1.0,2424
2091,1222091,17044,-664,908,17081.08,30.32,-1.00,-1.0,2366
2094,1222094,17044,-532,912,17076.67,30.46,-1.00,-1.0,2373
2097,1222097,17036,-540,992,17073.40,30.32,-1.00,-1.0,2417
2099,1222099,17012,-588,820,17041.90,30.37,-1.00,-1.0,2378
2102,1222102,17036,-568,876,17067.96,30.41,-1.00,-1.0,2418
2105,1222105,17088,-516,836,17116.22,30.51,-1.00,-1.0,2378
2110,1222110,17044,-556,900,17076.80,30.41,-1.00,-1.0,2435
2112,1222112,17032,-600,944,17068.69,30.41,-1.00,-1.0,2374
2115,1222115,17096,-580,876,17128.25,30.37,-1.00,-1.0,2419
2118,1222118,17012,-608,904,17046.85,30.32,-1.00,-1.0,2378
2121,1222121,16916,-588,1044,16958.38,30.37,-1.00,-1.0,2431
2123,1222123,17088,-532,816,17115.74,30.41,-1.00,-1.0,2381
2126,1222126,16984,-608,1084,17029.41,30.37,-1.00,-1.0,2417
2129,1222129,17116,-648,784,17146.20,30.41,-1.00,-1.0,2361
2132,1222132,17128,-556,776,17154.58,30.41,-1.00,-1.0,2372
2136,1222136,17004,-576,896,17037.33,30.37,-1.00,-1.0,2433
2139,1222139,16920,-512,856,16949.38,30.37,-1.00,-1.0,2369
2142,1222142,17044,-600,928,17079.79,30.46,-1.00,-1.0,2449
2145,1222145,17104,-604,852,17135.86,30.37,-1.00,-1.0,2375
2148,1222148,17056,-640,940,17093.87,30.37,-1.00,-1.0,2424
2150,1222150,17208,-516,908,17239.66,30.37,-1.00,-1.0,2356
2153,1222153,17104,-620,920,17139.94,30.37,-1.00,-1.0,2425
2156,1222156,17056,-628,896,17091.06,30.37,-1.00,-1.0,2366
2161,1222161,17016,-532,780,17042.17,30.46,-1.00,-1.0,2443
2163,1222163,16960,-556,824,16989.11,30.46,-1.00,-1.0,2369
2166,1222166,16992,-612,820,17022.78,30.46,-1.00,-1.0,2438
2169,1222169,17108,-516,908,17139.85,30.46,-1.00,-1.0,2376
2172,1222172,17148,-628,780,17177.21,30.41,-1.00,-1.0,2367
2174,1222174,17060,-728,824,17095.40,30.41,-1.00,-1.0,2421
2177,1222177,17080,-668,972,17120.67,30.32,-1.00,-1.0,2374
2180,1222180,17132,-664,924,17169.74,30.41,-1.00,-1.0,2429
2183,1222183,17084,-644,964,17123.29,30.46,-1.00,-1.0,2372
2188,1222188,17000,-496,836,17027.77,30.46,-1.00,-1.0,2439
2191,1222191,17048,-664,1092,17095.84,30.41,-1.00,-1.0,2367
2193,1222193,17092,-548,920,17125.51,30.37,-1.00,-1.0,2441
2196,1222196,17004,-544,872,17035.03,30.41,-1.00,-1.0,2371
2199,1222199,17028,-652,772,17057.96,30.46,-1.00,-1.0,2428
2202,1222202,17036,-600,940,17072.46,30.46,-1.00,-1.0,2370
2204,1222204,17032,-468,832,17058.73,30.46,-1.00,-1.0,2428
2207,1222207,17044,-620,824,17075.17,30.46,-1.00,-1.0,2378
2210,1222210,17060,-560,952,17095.72,30.41,-1.00,-1.0,2367
2215,1222215,17052,-624,908,17087.55,30.27,-1.00,-1.0,2437
2217,1222217,17104,-596,752,17130.89,30.37,-1.00,-1.0,2377
2220,1222220,16988,-556,824,17017.06,30.46,-1.00,-1.0,2428
2223,1222223,17056,-524,956,17090.81,30.46,-1.00,-1.0,2371
2226,1222226,17016,-668,776,17046.78,30.41,-1.00,-1.0,2421
2228,1222228,17036,-580,860,17067.55,30.46,-1.00,-1.0,2373
2231,1222231,17112,-644,776,17141.69,30.27,-1.00,-1.0,2419
2234,1222234,17012,-560,928,17046.49,30.46,-1.00,-1.0,2357
2239,1222239,17048,-532,880,17078.98,30.37,-1.00,-1.0,2438
2242,1222242,16956,-592,928,16991.69,30.46,-1.00,-1.0,2366
2244,1222244,17008,-600,896,17042.15,30.46,-1.00,-1.0,2439
2247,1222247,16996,-600,972,17034.34,30.46,-1.00,-1.0,2378
2250,1222250,17076,-572,1032,17116.72,30.51,-1.00,-1.0,2367
2253,1222253,17020,-552,780,17046.80,30.41,-1.00,-1.0,2420
2255,1222255,17008,-568,900,17041.26,30.41,-1.00,-1.0,2370
2258,1222258,16992,-608,812,17022.25,30.41,-1.00,-1.0,2420
2261,1222261,17052,-588,936,17087.79,30.41,-1.00,-1.0,2370
2266,1222266,17100,-576,864,17131.50,30.32,-1.00,-1.0,2434
2268,1222268,17040,-552,844,17069.82,30.51,-1.00,-1.0,2378
2271,1222271,16992,-576,712,17016.66,30.41,-1.00,-1.0,2429
2274,1222274,17148,-652,936,17185.90,30.41,-1.00,-1.0,2372
2277,1222277,17088,-608,908,17122.90,30.41,-1.00,-1.0,2423
2280,1222280,16964,-620,912,16999.81,30.51,-1.00,-1.0,2369
2282,1222282,16916,-608,1060,16960.08,30.41,-1.00,-1.0,2407
2285,1222285,16992,-672,908,17029.51,30.41,-1.00,-1.0,2372
2288,1222288,17064,-676,980,17105.48,30.51,-1.00,-1.0,2367
2293,1222293,17020,-592,748,17046.71,30.41,-1.00,-1.0,2432
2295,1222295,17024,-692,824,17057.97,30.41,-1.00,-1.0,2375
2298,1222298,16980,-632,928,17017.08,30.51,-1.00,-1.0,2429
2301,1222301,17060,-552,860,17090.58,30.41,-1.00,-1.0,2374
2304,1222304,17020,-628,984,17059.98,30.46,-1.00,-1.0,2421
2307,1222307,17092,-600,932,17127.90,30.41,-1.00,-1.0,2369
2309,1222309,17080,-664,868,17114.93,30.37,-1.00,-1.0,2420
2312,1222312,16948,-616,940,16985.22,30.41,-1.00,-1.0,2371
2317,1222317,17060,-584,888,17093.07,30.37,-1.00,-1.0,2439
2320,1222320,17148,-536,872,17178.52,30.41,-1.00,-1.0,2367
2322,1222322,17104,-532,668,17125.30,30.37,-1.00,-1.0,2430
2325,1222325,17164,-752,816,17199.83,30.46,-1.00,-1.0,2373
2328,1222328,17108,-644,916,17144.60,30.37,-1.00,-1.0,2369
2330,1222330,17008,-604,948,17045.10,30.41,-1.00,-1.0,2429
2333,1222333,17052,-520,840,17080.59,30.37,-1.00,-1.0,2377
2336,1222336,17084,-596,708,17109.05,30.32,-1.00,-1.0,2408
2339,1222339,17028,-620,792,17057.68,30.46,-1.00,-1.0,2378
2344,1222344,16948,-592,876,16980.95,30.46,-1.00,-1.0,2432
2346,1222346,17060,-636,860,17093.50,30.51,-1.00,-1.0,2368
2349,1222349,17136,-636,812,17167.01,30.27,-1.00,-1.0,2415
2352,1222352,17044,-536,860,17074.10,30.41,-1.00,-1.0,2373
2355,1222355,17120,-604,944,17156.64,30.37,-1.00,-1.0,2421
2357,1222357,17020,-592,756,17047.06,30.32,-1.00,-1.0,2370
2360,1222360,17000,-564,776,17027.04,30.46,-1.00,-1.0,2420
2363,1222363,16960,-608,896,16994.53,30.41,-1.00,-1.0,2381
2366,1222366,17096,-516,900,17127.45,30.51,-1.00,-1.0,2377
2371,1222371,17044,-736,816,17079.39,30.37,-1.00,-1.0,2439
2374,1222374,17008,-604,824,17038.66,30.37,-1.00,-1.0,2367
2376,1222376,17072,-632,852,17104.93,30.41,-1.00,-1.0,2432
2379,1222379,17060,-784,1012,17107.96,30.46,-1.00,-1.0,2376
2382,1222382,16996,-624,972,17035.20,30.41,-1.00,-1.0,2429
2385,1222385,17040,-616,992,17079.96,30.37,-1.00,-1.0,2357
2387,1222387,17100,-656,1004,17142.01,30.32,-1.00,-1.0,2423
2390,1222390,17112,-564,752,17137.80,30.37,-1.00,-1.0,2370
2395,1222395,17028,-580,808,17057.02,30.37,-1.00,-1.0,2432
2398,1222398,17064,-552,924,17097.91,30.37,-1.00,-1.0,2367
2401,1222401,17092,-456,848,17119.10,30.37,-1.00,-1.0,2429
2403,1222403,16904,-688,888,16941.28,30.37,-1.00,-1.0,2375
2406,1222406,17020,-704,856,17056.05,30.41,-1.00,-1.0,2375
2409,1222409,17072,-576,948,17108.00,30.41,-1.00,-1.0,2431
2411,1222411,16992,-552,824,17020.92,30.32,-1.00,-1.0,2374
2414,1222414,17044,-684,852,17078.98,30.46,-1.00,-1.0,2429
2417,1222417,17048,-580,808,17076.99,30.41,-1.00,-1.0,2373
2422,1222422,17028,-544,852,17057.98,30.41,-1.00,-1.0,2439
2425,1222425,16976,-568,812,17004.90,30.41,-1.00,-1.0,2367
2427,1222427,17088,-608,792,17117.15,30.46,-1.00,-1.0,2439
2430,1222430,16952,-480,896,16982.45,30.32,-1.00,-1.0,2379
2433,1222433,17064,-632,792,17094.06,30.37,-1.00,-1.0,2410
2436,1222436,17052,-532,912,17084.66,30.41,-1.00,-1.0,2371
2438,1222438,16984,-608,896,17018.48,30.37,-1.00,-1.0,2427
2441,1222441,17028,-632,708,17054.43,30.41,-1.00,-1.0,2378
2444,1222444,17000,-724,796,17034.02,30.37,-1.00,-1.0,2367
2449,1222449,17032,-588,896,17065.68,30.37,-1.00,-1.0,2441
2452,1222452,17060,-500,856,17088.78,30.41,-1.00,-1.0,2367
2454,1222454,17104,-584,800,17132.65,30.37,-1.00,-1.0,2436
2457,1222457,17016,-544,920,17049.53,30.37,-1.00,-1.0,2386
2460,1222460,16964,-712,948,17005.38,30.46,-1.00,-1.0,2421
2463,1222463,16984,-604,832,17015.09,30.46,-1.00,-1.0,2373
2466,1222466,17112,-652,928,17149.54,30.37,-1.00,-1.0,2423
2468,1222468,17116,-604,792,17144.96,30.37,-1.00,-1.0,2385
2473,1222473,17052,-596,848,17083.47,30.46,-1.00,-1.0,2447
2476,1222476,17092,-516,944,17125.82,30.51,-1.00,-1.0,2373
2479,1222479,17052,-704,876,17088.99,30.37,-1.00,-1.0,2440
2481,1222481,17012,-672,832,17045.58,30.37,-1.00,-1.0,2381
2484,1222484,16940,-656,892,16976.15,30.37,-1.00,-1.0,2366
2487,1222487,17088,-636,912,17124.13,30.41,-1.00,-1.0,2427
2490,1222490,17000,-576,816,17029.32,30.32,-1.00,-1.0,2369
2492,1222492,17096,-516,872,17126.00,30.41,-1.00,-1.0,2423
2495,1222495,17036,-604,864,17068.59,30.37,-1.00,-1.0,2374
2500,1222500,17056,-668,876,17091.54,30.46,-1.00,-1.0,2432
2503,1222503,17104,-568,1000,17142.62,30.37,-1.00,-1.0,2368
2506,1222506,16984,-640,940,17022.03,30.32,-1.00,-1.0,2429
2508,1222508,17036,-600,1024,17077.29,30.41,-1.00,-1.0,2371
2511,1222511,17044,-600,920,17079.35,30.41,-1.00,-1.0,2420
2514,1222514,17076,-644,920,17112.89,30.41,-1.00,-1.0,2370
2517,1222517,17044,-496,888,17074.32,30.41,-1.00,-1.0,2420
2519,1222519,17068,-588,748,17094.50,30.51,-1.00,-1.0,2370
2522,1222522,17108,-572,852,17138.75,30.27,-1.00,-1.0,2371
2528,1222528,17048,-608,948,17085.16,30.41,-1.00,-1.0,2432
2530,1222530,17040,-588,1004,17079.68,30.32,-1.00,-1.0,2367
2533,1222533,17116,-540,952,17150.96,30.41,-1.00,-1.0,2429
2536,1222536,17072,-628,940,17109.39,30.32,-1.00,-1.0,2372
2539,1222539,17056,-692,860,17091.68,30.37,-1.00,-1.0,2421
2541,1222541,17060,-608,712,17085.67,30.41,-1.00,-1.0,2358
2544,1222544,16924,-648,956,16963.36,30.41,-1.00,-1.0,2420
2547,1222547,16988,-640,1008,17029.91,30.32,-1.00,-1.0,2370
2552,1222552,17040,-652,1024,17083.19,30.41,-1.00,-1.0,2435
2554,1222554,17096,-580,844,17126.64,30.37,-1.00,-1.0,2374
2557,1222557,17200,-684,892,17236.69,30.51,-1.00,-1.0,2428
2560,1222560,17020,-532,880,17051.04,30.41,-1.00,-1.0,2372
2562,1222562,17020,-512,936,17053.41,30.41,-1.00,-1.0,2366
2565,1222565,16920,-652,952,16959.30,30.37,-1.00,-1.0,2419
2568,1222568,17088,-496,920,17119.94,30.32,-1.00,-1.0,2381
2571,1222571,17072,-564,964,17108.49,30.37,-1.00,-1.0,2420
2573,1222573,17020,-724,920,17060.22,30.37,-1.00,-1.0,2370
2578,1222578,17068,-572,844,17098.43,30.41,-1.00,-1.0,2432
2581,1222581,17028,-648,800,17059.09,30.41,-1.00,-1.0,2353
2584,1222584,17104,-612,980,17142.98,30.37,-1.00,-1.0,2437
2587,1222587,17068,-608,996,17107.84,30.41,-1.00,-1.0,2368
2589,1222589,16992,-616,716,17018.23,30.37,-1.00,-1.0,2420
2592,1222592,17004,-648,932,17041.85,30.41,-1.00,-1.0,2370
2595,1222595,17072,-692,800,17104.74,30.46,-1.00,-1.0,2427
2598,1222598,17052,-624,912,17087.77,30.41,-1.00,-1.0,2369
2600,1222600,17100,-692,852,17135.19,30.46,-1.00,-1.0,2373
2605,1222605,17028,-452,960,17061.03,30.37,-1.00,-1.0,2431
2608,1222608,17032,-532,796,17058.89,30.46,-1.00,-1.0,2374
2611,1222611,17192,-592,1004,17231.46,30.46,-1.00,-1.0,2428
2613,1222613,17080,-600,792,17108.88,30.37,-1.00,-1.0,2371
2616,1222616,17032,-620,868,17065.37,30.46,-1.00,-1.0,2420
2619,1222619,17076,-552,876,17107.36,30.46,-1.00,-1.0,2378
2622,1222622,17036,-576,992,17074.58,30.37,-1.00,-1.0,2420
2624,1222624,16996,-752,872,17034.96,30.46,-1.00,-1.0,2370
2630,1222630,17096,-576,972,17133.29,30.41,-1.00,-1.0,2434
2632,1222632,17100,-616,976,17138.90,30.51,-1.00,-1.0,2366
2635,1222635,17020,-624,868,17053.54,30.41,-1.00,-1.0,2416
2638,1222638,17076,-608,904,17110.72,30.41,-1.00,-1.0,2373
2640,1222640,17020,-648,828,17052.45,30.46,-1.00,-1.0,2367
2643,1222643,17124,-632,860,17157.23,30.37,-1.00,-1.0,2420
2646,1222646,17028,-676,836,17061.91,30.37,-1.00,-1.0,2376
2649,1222649,17044,-652,860,17078.13,30.46,-1.00,-1.0,2419
2651,1222651,17160,-652,856,17193.70,30.46,-1.00,-1.0,2370
2656,1222656,17012,-644,952,17050.78,30.37,-1.00,-1.0,2431
2659,1222659,17072,-572,996,17110.59,30.32,-1.00,-1.0,2369
2662,1222662,17036,-724,888,17074.48,30.46,-1.00,-1.0,2438
2665,1222665,17036,-632,788,17065.92,30.37,-1.00,-1.0,2368
2667,1222667,17140,-520,996,17176.79,30.46,-1.00,-1.0,2423
2670,1222670,17016,-520,956,17050.77,30.37,-1.00,-1.0,2371
2673,1222673,17080,-656,892,17115.85,30.46,-1.00,-1.0,2426
2676,1222676,17072,-668,940,17110.90,30.46,-1.00,-1.0,2369
2678,1222678,17012,-672,1052,17057.74,30.41,-1.00,-1.0,2374
2683,1222683,17024,-604,888,17057.84,30.41,-1.00,-1.0,2432
2686,1222686,16984,-576,732,17009.52,30.37,-1.00,-1.0,2375
2689,1222689,17016,-516,988,17052.47,30.51,-1.00,-1.0,2442
2691,1222691,16972,-588,996,17011.37,30.41,-1.00,-1.0,2375
2694,1222694,17020,-648,732,17048.05,30.41,-1.00,-1.0,2429
2697,1222697,17040,-524,968,17075.51,30.51,-1.00,-1.0,2378
2700,1222700,17004,-584,996,17043.15,30.37,-1.00,-1.0,2432
2702,1222702,16984,-600,844,17015.54,30.32,-1.00,-1.0,2377
2707,1222707,17096,-572,1108,17141.41,30.41,-1.00,-1.0,2435
2710,1222710,17072,-580,892,17105.12,30.41,-1.00,-1.0,2363
2713,1222713,16972,-608,884,17005.88,30.41,-1.00,-1.0,2435
2716,1222716,16992,-520,888,17023.13,30.41,-1.00,-1.0,2366
2718,1222718,17028,-632,876,17062.23,30.37,-1.00,-1.0,2368
2721,1222721,16968,-548,880,16999.64,30.37,-1.00,-1.0,2420
2724,1222724,17028,-572,952,17064.18,30.55,-1.00,-1.0,2371
2727,1222727,17084,-520,876,17114.35,30.37,-1.00,-1.0,2419
2729,1222729,17076,-600,940,17112.38,30.46,-1.00,-1.0,2370
2734,1222734,17100,-612,976,17138.76,30.32,-1.00,-1.0,2459
2737,1222737,16980,-624,1012,17021.57,30.32,-1.00,-1.0,2372
2740,1222740,16952,-644,872,16986.62,30.46,-1.00,-1.0,2429
2743,1222743,17004,-688,1044,17049.91,30.37,-1.00,-1.0,2427
2745,1222745,16988,-584,880,17020.80,30.37,-1.00,-1.0,2423
2748,1222748,17072,-644,792,17102.49,30.41,-1.00,-1.0,2388
2751,1222751,17084,-568,864,17115.26,30.46,-1.00,-1.0,2414
2754,1222754,17056,-584,740,17082.03,30.41,-1.00,-1.0,2380
2756,1222756,17016,-668,1064,17062.31,30.37,-1.00,-1.0,2366
2761,1222761,16948,-548,980,16985.15,30.46,-1.00,-1.0,2440
2764,1222764,17076,-500,940,17109.16,30.41,-1.00,-1.0,2374
2767,1222767,17036,-640,852,17069.29,30.46,-1.00,-1.0,2418
2769,1222769,17044,-652,888,17079.57,30.46,-1.00,-1.0,2386
2772,1222772,17020,-600,732,17046.30,30.37,-1.00,-1.0,2418
2775,1222775,17008,-544,888,17039.85,30.46,-1.00,-1.0,2379
2778,1222778,16984,-572,940,17019.61,30.27,-1.00,-1.0,2416
2780,1222780,16960,-616,920,16996.10,30.32,-1.00,-1.0,2372
2785,1222785,17068,-700,880,17105.00,30.46,-1.00,-1.0,2438
2788,1222788,17052,-548,920,17085.59,30.37,-1.00,-1.0,2375
2791,1222791,16984,-544,908,17016.95,30.46,-1.00,-1.0,2426
2794,1222794,17068,-632,928,17104.89,30.37,-1.00,-1.0,2368
2796,1222796,17032,-560,840,17061.89,30.41,-1.00,-1.0,2365
2799,1222799,17020,-540,924,17053.62,30.46,-1.00,-1.0,2423
2802,1222802,17148,-664,924,17185.71,30.41,-1.00,-1.0,2370
2804,1222804,17064,-604,868,17096.73,30.46,-1.00,-1.0,2429
2807,1222807,16988,-728,848,17024.72,30.41,-1.00,-1.0,2372
2812,1222812,17000,-628,804,17030.58,30.41,-1.00,-1.0,2438
2815,1222815,17040,-616,812,17070.45,30.32,-1.00,-1.0,2368
2818,1222818,17032,-556,912,17065.46,30.32,-1.00,-1.0,2424
2821,1222821,17044,-604,876,17077.18,30.41,-1.00,-1.0,2370
2823,1222823,17016,-660,920,17053.63,30.51,-1.00,-1.0,2417
2826,1222826,17036,-624,868,17069.51,30.51,-1.00,-1.0,2372
2829,1222829,17076,-596,896,17109.88,30.32,-1.00,-1.0,2424
2832,1222832,17068,-620,792,17097.61,30.46,-1.00,-1.0,2427
2834,1222834,17096,-632,904,17131.54,30.41,-1.00,-1.0,2367
2839,1222839,17076,-624,844,17108.23,30.41,-1.00,-1.0,2443
2842,1222842,17020,-620,872,17053.60,30.41,-1.00,-1.0,2366
2845,1222845,17084,-632,1008,17125.38,30.46,-1.00,-1.0,2427
2848,1222848,17088,-560,872,17119.40,30.41,-1.00,-1.0,2355
2850,1222850,17096,-616,896,17130.54,30.46,-1.00,-1.0,2421
2853,1222853,16944,-640,800,16974.95,30.32,-1.00,-1.0,2370
2856,1222856,17004,-484,816,17030.45,30.46,-1.00,-1.0,2414
2859,1222859,17104,-540,900,17136.17,30.41,-1.00,-1.0,2368
2864,1222864,17048,-640,972,17087.68,30.41,-1.00,-1.0,2441
2866,1222866,17004,-536,844,17033.37,30.32,-1.00,-1.0,2366
2869,1222869,17112,-508,920,17144.24,30.41,-1.00,-1.0,2419
2872,1222872,17040,-544,908,17072.84,30.51,-1.00,-1.0,2369
2874,1222874,17076,-484,816,17102.34,30.46,-1.00,-1.0,2366
2877,1222877,17052,-588,972,17089.80,30.46,-1.00,-1.0,2434
2880,1222880,17124,-668,976,17164.79,30.46,-1.00,-1.0,2381
2883,1222883,16988,-640,772,17017.57,30.37,-1.00,-1.0,2433
2885,1222885,17068,-516,904,17099.71,30.46,-1.00,-1.0,2372
2890,1222890,17060,-720,852,17096.43,30.46,-1.00,-1.0,2442
2893,1222893,16988,-616,792,17017.61,30.46,-1.00,-1.0,2365
2896,1222896,17028,-548,988,17065.44,30.37,-1.00,-1.0,2430
2899,1222899,17104,-632,860,17137.27,30.37,-1.00,-1.0,2368
2901,1222901,16972,-592,904,17006.37,30.41,-1.00,-1.0,2429
2904,1222904,17080,-660,920,17117.49,30.46,-1.00,-1.0,2378
2907,1222907,16984,-576,1052,17026.29,30.41,-1.00,-1.0,2422
2910,1222910,17020,-624,904,17055.41,30.46,-1.00,-1.0,2369
2912,1222912,17056,-500,732,17079.02,30.32,-1.00,-1.0,2377
2917,1222917,17020,-640,876,17054.54,30.46,-1.00,-1.0,2452
2920,1222920,16996,-500,928,17028.66,30.46,-1.00,-1.0,2372
2923,1222923,16984,-604,1024,17025.56,30.41,-1.00,-1.0,2406
2926,1222926,17104,-592,936,17139.82,30.46,-1.00,-1.0,2368
2928,1222928,17132,-600,924,17167.39,30.41,-1.00,-1.0,2428
2931,1222931,17080,-620,912,17115.56,30.46,-1.00,-1.0,2377
2934,1222934,16984,-640,708,17010.79,30.51,-1.00,-1.0,2407
2937,1222937,17068,-520,940,17101.77,30.46,-1.00,-1.0,2370
2941,1222941,17056,-660,828,17088.84,30.41,-1.00,-1.0,2450
2944,1222944,17028,-580,988,17066.50,30.51,-1.00,-1.0,2373
2947,1222947,17088,-660,912,17125.04,30.32,-1.00,-1.0,2422
2950,1222950,17096,-616,836,17127.51,30.41,-1.00,-1.0,2372
2952,1222952,17076,-636,924,17112.80,30.46,-1.00,-1.0,2365
2955,1222955,17024,-516,884,17054.74,30.37,-1.00,-1.0,2419
2958,1222958,16992,-616,940,17029.12,30.37,-1.00,-1.0,2369
2961,1222961,16984,-616,1076,17029.20,30.51,-1.00,-1.0,2474
2964,1222964,17072,-592,860,17103.90,30.41,-1.00,-1.0,2375
2968,1222968,17192,-608,968,17229.96,30.41,-1.00,-1.0,2456
2971,1222971,17012,-664,876,17047.47,30.41,-1.00,-1.0,2369
2974,1222974,17040,-636,928,17077.10,30.41,-1.00,-1.0,2432
2976,1222976,17060,-716,660,17087.77,30.51,-1.00,-1.0,2383
2979,1222979,17048,-692,964,17089.25,30.37,-1.00,-1.0,2421
2982,1222982,17112,-604,764,17139.69,30.41,-1.00,-1.0,2358
2985,1222985,17044,-652,832,17076.75,30.46,-1.00,-1.0,2422
2987,1222987,16976,-644,864,17010.17,30.41,-1.00,-1.0,2354
2991,1222991,17036,-536,892,17067.75,30.46,-1.00,-1.0,2368
2996,1222996,17012,-580,848,17042.99,30.46,-1.00,-1.0,2449
2998,1222998,17040,-584,1008,17079.78,30.41,-1.00,-1.0,2355
3001,1223001,17052,-616,948,17089.44,30.37,-1.00,-1.0,2421
3004,1223004,17040,-484,940,17072.77,30.41,-1.00,-1.0,2372
3007,1223007,16928,-688,892,16965.44,30.46,-1.00,-1.0,2422
3009,1223009,17052,-640,816,17083.51,30.51,-1.00,-1.0,2372
3012,1223012,16976,-544,924,17009.83,30.46,-1.00,-1.0,2421
3015,1223015,17028,-576,992,17066.59,30.41,-1.00,-1.0,2371
3020,1223020,17048,-612,900,17082.71,30.41,-1.00,-1.0,2448
3022,1223022,16932,-712,900,16970.84,30.41,-1.00,-1.0,2377
3025,1223025,17028,-564,828,17057.45,30.46,-1.00,-1.0,2420
3028,1223028,17096,-528,828,17124.18,30.41,-1.00,-1.0,2373
3031,1223031,17004,-608,980,17043.07,30.37,-1.00,-1.0,2367
3033,1223033,16960,-668,852,16994.52,30.41,-1.00,-1.0,2422
3036,1223036,17140,-636,916,17176.24,30.37,-1.00,-1.0,2371
3039,1223039,17100,-644,928,17137.27,30.41,-1.00,-1.0,2422
3042,1223042,17004,-544,920,17037.56,30.46,-1.00,-1.0,2369
3047,1223047,16940,-664,888,16976.25,30.46,-1.00,-1.0,2447
3049,1223049,17000,-656,900,17036.44,30.37,-1.00,-1.0,2374
3052,1223052,17092,-636,808,17122.90,30.37,-1.00,-1.0,2420
3055,1223055,17136,-560,928,17170.24,30.46,-1.00,-1.0,2373
3058,1223058,17080,-628,864,17113.37,30.37,-1.00,-1.0,2421
3061,1223061,17052,-632,968,17091.14,30.37,-1.00,-1.0,2369
3063,1223063,17016,-628,908,17051.78,30.37,-1.00,-1.0,2420
3066,1223066,17072,-604,896,17106.16,30.37,-1.00,-1.0,2375
3069,1223069,17040,-608,984,17079.21,30.46,-1.00,-1.0,2366
3074,1223074,16992,-568,944,17027.68,30.46,-1.00,-1.0,2442
3076,1223076,17060,-612,844,17091.82,30.46,-1.00,-1.0,2367
3079,1223079,17044,-644,872,17078.44,30.32,-1.00,-1.0,2421
3082,1223082,17060,-548,692,17082.82,30.46,-1.00,-1.0,2370
3085,1223085,17000,-668,944,17039.29,30.37,-1.00,-1.0,2407
3087,1223087,17108,-688,884,17144.63,30.37,-1.00,-1.0,2370
3090,1223090,17024,-696,896,17061.76,30.32,-1.00,-1.0,2419
3093,1223093,17000,-520,812,17027.32,30.46,-1.00,-1.0,2371
3098,1223098,17112,-656,932,17149.91,30.37,-1.00,-1.0,2445
3100,1223100,17068,-552,892,17100.21,30.37,-1.00,-1.0,2374
3103,1223103,17124,-680,800,17156.16,30.46,-1.00,-1.0,2420
3106,1223106,17020,-596,992,17059.30,30.37,-1.00,-1.0,2360
3109,1223109,16924,-528,920,16957.21,30.46,-1.00,-1.0,2371
3111,1223111,17008,-636,940,17045.83,30.41,-1.00,-1.0,2421
3114,1223114,17048,-616,676,17072.51,30.41,-1.00,-1.0,2371
3117,1223117,17044,-576,1012,17083.73,30.41,-1.00,-1.0,2422
3120,1223120,17008,-640,784,17038.08,30.51,-1.00,-1.0,2369
3125,1223125,17080,-568,960,17116.38,30.41,-1.00,-1.0,2442
3127,1223127,17136,-572,724,17160.82,30.41,-1.00,-1.0,2367
3130,1223130,17036,-580,696,17060.07,30.41,-1.00,-1.0,2420
3133,1223133,17080,-568,904,17113.34,30.41,-1.00,-1.0,2379
3136,1223136,17124,-616,984,17163.31,30.46,-1.00,-1.0,2420
3138,1223138,17028,-616,956,17065.94,30.41,-1.00,-1.0,2371
3141,1223141,17104,-668,1048,17149.09,30.46,-1.00,-1.0,2420
3144,1223144,17144,-624,780,17173.08,30.32,-1.00,-1.0,2377
3147,1223147,17024,-648,796,17054.91,30.46,-1.00,-1.0,2369
3152,1223152,17104,-604,736,17130.48,30.37,-1.00,-1.0,2447
3154,1223154,17072,-636,780,17101.64,30.37,-1.00,-1.0,2374
3157,1223157,17096,-656,960,17135.49,30.41,-1.00,-1.0,2420
3160,1223160,17008,-704,1028,17053.58,30.37,-1.00,-1.0,2371
3163,1223163,16912,-680,988,16954.48,30.37,-1.00,-1.0,2419
3165,1223165,16976,-552,828,17005.14,30.55,-1.00,-1.0,2373
3168,1223168,16944,-620,864,16977.34,30.41,-1.00,-1.0,2420
3171,1223171,17072,-568,940,17107.29,30.37,-1.00,-1.0,2371
3175,1223175,17032,-596,796,17061.00,30.46,-1.00,-1.0,2442
3178,1223178,17024,-636,1000,17065.20,30.37,-1.00,-1.0,2366
3181,1223181,17036,-592,892,17069.61,30.37,-1.00,-1.0,2426
3184,1223184,17004,-524,840,17032.80,30.46,-1.00,-1.0,2369
3186,1223186,17132,-644,860,17165.66,30.46,-1.00,-1.0,2357
3189,1223189,17064,-612,676,17088.35,30.41,-1.00,-1.0,2422
3192,1223192,17088,-624,692,17113.39,30.37,-1.00,-1.0,2369
3195,1223195,16980,-664,756,17009.79,30.41,-1.00,-1.0,2422
3198,1223198,17088,-528,1000,17125.38,30.41,-1.00,-1.0,2371
3203,1223203,17020,-600,860,17052.27,30.37,-1.00,-1.0,2448
3205,1223205,17088,-600,832,17118.76,30.37,-1.00,-1.0,2370
3208,1223208,16932,-668,760,16962.21,30.41,-1.00,-1.0,2427
3211,1223211,17040,-652,764,17069.58,30.37,-1.00,-1.0,2378
3214,1223214,16984,-576,928,17019.08,30.32,-1.00,-1.0,2430
3216,1223216,17068,-636,848,17100.88,30.37,-1.00,-1.0,2377
3219,1223219,17100,-636,772,17129.23,30.41,-1.00,-1.0,2420
3222,1223222,17028,-580,972,17065.58,30.41,-1.00,-1.0,2374
3225,1223225,17048,-644,860,17081.82,30.32,-1.00,-1.0,2367
3230,1223230,17000,-704,820,17034.32,30.32,-1.00,-1.0,2448
3232,1223232,17064,-532,932,17097.71,30.46,-1.00,-1.0,2375
3235,1223235,17032,-720,868,17069.29,30.32,-1.00,-1.0,2420
3238,1223238,17044,-576,896,17077.25,30.41,-1.00,-1.0,2372
3241,1223241,17036,-716,1040,17082.73,30.41,-1.00,-1.0,2421
3243,1223243,17104,-556,940,17138.83,30.41,-1.00,-1.0,2375
3246,1223246,16928,-592,864,16960.37,30.41,-1.00,-1.0,2420
3249,1223249,16956,-604,924,16991.90,30.41,-1.00,-1.0,2357
3254,1223254,17084,-564,864,17115.13,30.51,-1.00,-1.0,2451
3257,1223257,17020,-576,888,17052.88,30.41,-1.00,-1.0,2374
3260,1223260,17028,-716,920,17067.86,30.41,-1.00,-1.0,2428
3262,1223262,17060,-596,904,17094.33,30.41,-1.00,-1.0,2385
3265,1223265,16984,-672,784,17015.36,30.46,-1.00,-1.0,2366
3268,1223268,17060,-624,860,17093.06,30.46,-1.00,-1.0,2419
3270,1223270,17076,-652,852,17109.67,30.46,-1.00,-1.0,2370
3273,1223273,17032,-628,860,17065.26,30.37,-1.00,-1.0,2420
3276,1223276,17056,-696,1024,17100.88,30.37,-1.00,-1.0,2370
3281,1223281,17084,-624,776,17113.00,30.37,-1.00,-1.0,2442
3284,1223284,17072,-464,860,17099.94,30.51,-1.00,-1.0,2371
3286,1223286,17148,-636,952,17186.18,30.37,-1.00,-1.0,2420
3289,1223289,17080,-628,888,17114.59,30.37,-1.00,-1.0,2370
3292,1223292,17016,-524,824,17044.00,30.37,-1.00,-1.0,2426
3295,1223295,17028,-648,912,17064.71,30.37,-1.00,-1.0,2373
3297,1223297,16956,-688,956,16996.86,30.46,-1.00,-1.0,2420
3300,1223300,17036,-572,1024,17076.33,30.46,-1.00,-1.0,2370
3303,1223303,17072,-656,888,17107.66,30.37,-1.00,-1.0,2367
3308,1223308,17012,-668,892,17048.46,30.37,-1.00,-1.0,2442
3311,1223311,17036,-632,816,17067.24,30.37,-1.00,-1.0,2366
3313,1223313,16932,-528,892,16963.70,30.37,-1.00,-1.0,2420
3316,1223316,17008,-584,860,17039.74,30.46,-1.00,-1.0,2374
3319,1223319,17036,-584,872,17068.30,30.37,-1.00,-1.0,2428
3322,1223322,17072,-584,808,17101.08,30.27,-1.00,-1.0,2373
3324,1223324,17108,-548,828,17136.79,30.27,-1.00,-1.0,2420
3327,1223327,17076,-604,992,17115.45,30.37,-1.00,-1.0,2371
3332,1223332,17000,-692,984,17042.51,30.46,-1.00,-1.0,2441
3335,1223335,17004,-660,956,17043.64,30.46,-1.00,-1.0,2368
3338,1223338,17088,-648,1008,17129.96,30.37,-1.00,-1.0,2420
3340,1223340,16932,-724,928,16972.86,30.46,-1.00,-1.0,2370
3343,1223343,17076,-548,816,17104.27,30.41,-1.00,-1.0,2370
3346,1223346,16984,-568,1004,17023.13,30.41,-1.00,-1.0,2424
3348,1223348,17024,-528,904,17056.16,30.37,-1.00,-1.0,2371
3351,1223351,17192,-600,884,17225.17,30.41,-1.00,-1.0,2435
3354,1223354,17016,-552,980,17053.13,30.41,-1.00,-1.0,2381
3359,1223359,16924,-688,940,16964.04,30.37,-1.00,-1.0,2458
3362,1223362,17060,-548,992,17097.60,30.37,-1.00,-1.0,2375
3365,1223365,17024,-708,772,17056.20,30.37,-1.00,-1.0,2419
3368,1223368,17028,-552,748,17053.36,30.46,-1.00,-1.0,2374
3371,1223371,16920,-580,980,16958.28,30.37,-1.00,-1.0,2419
3373,1223373,16964,-616,976,17003.21,30.46,-1.00,-1.0,2371
3376,1223376,16996,-512,872,17026.05,30.37,-1.00,-1.0,2420
3379,1223379,17060,-564,852,17090.57,30.46,-1.00,-1.0,2372
3381,1223381,17084,-596,1000,17123.62,30.37,-1.00,-1.0,2366
3386,1223386,16976,-448,832,17002.28,30.37,-1.00,-1.0,2441
3389,1223389,17016,-616,860,17048.85,30.37,-1.00,-1.0,2368
3392,1223392,17016,-632,908,17051.93,30.41,-1.00,-1.0,2420
3394,1223394,16976,-560,828,17005.40,30.46,-1.00,-1.0,2369
3397,1223397,16996,-580,944,17032.07,30.41,-1.00,-1.0,2420
3400,1223400,17104,-704,1012,17148.37,30.46,-1.00,-1.0,2369
3403,1223403,17096,-572,920,17130.29,30.41,-1.00,-1.0,2420
3405,1223405,17040,-616,752,17067.71,30.37,-1.00,-1.0,2369
3410,1223410,17112,-532,960,17147.16,30.46,-1.00,-1.0,2440
3413,1223413,16980,-584,760,17007.03,30.46,-1.00,-1.0,2369
3416,1223416,17008,-628,972,17047.32,30.41,-1.00,-1.0,2421
3418,1223418,16996,-520,896,17027.54,30.46,-1.00,-1.0,2367
3421,1223421,17056,-580,940,17091.73,30.41,-1.00,-1.0,2365
3424,1223424,17036,-628,908,17071.73,30.37,-1.00,-1.0,2425
3427,1223427,17112,-676,1056,17157.88,30.41,-1.00,-1.0,2368
3430,1223430,17112,-600,920,17147.21,30.37,-1.00,-1.0,2447
3432,1223432,17004,-544,784,17030.75,30.46,-1.00,-1.0,2367
3437,1223437,16936,-500,824,16963.40,30.37,-1.00,-1.0,2440
3440,1223440,17000,-628,884,17034.55,30.37,-1.00,-1.0,2367
3443,1223443,17040,-588,872,17072.43,30.41,-1.00,-1.0,2422
3445,1223445,16968,-584,952,17004.72,30.37,-1.00,-1.0,2368
3448,1223448,17072,-564,1084,17115.68,30.37,-1.00,-1.0,2420
3451,1223451,17072,-660,872,17106.99,30.46,-1.00,-1.0,2374
3454,1223454,17052,-624,960,17090.40,30.41,-1.00,-1.0,2422
3456,1223456,17020,-600,820,17050.30,30.46,-1.00,-1.0,2359
3459,1223459,17052,-544,964,17087.89,30.51,-1.00,-1.0,2365
3464,1223464,17044,-568,972,17081.14,30.41,-1.00,-1.0,2441
3467,1223467,17008,-676,880,17044.16,30.41,-1.00,-1.0,2367
3470,1223470,17052,-660,804,17083.70,30.41,-1.00,-1.0,2420
3472,1223472,17116,-620,1064,17160.24,30.41,-1.00,-1.0,2360
3475,1223475,17064,-628,1000,17104.81,30.46,-1.00,-1.0,2420
3478,1223478,17036,-620,816,17066.80,30.41,-1.00,-1.0,2370
3481,1223481,17076,-724,1032,17122.47,30.37,-1.00,-1.0,2420
3483,1223483,17072,-612,860,17104.60,30.32,-1.00,-1.0,2356
3488,1223488,17060,-624,876,17093.87,30.41,-1.00,-1.0,2447
3491,1223491,17088,-704,952,17128.97,30.37,-1.00,-1.0,2373
3494,1223494,16904,-704,912,16943.22,30.32,-1.00,-1.0,2419
3497,1223497,16972,-752,808,17007.86,30.37,-1.00,-1.0,2369
3500,1223500,17008,-708,872,17045.05,30.41,-1.00,-1.0,2422
3502,1223502,17016,-668,848,17050.21,30.46,-1.00,-1.0,2372
3505,1223505,17052,-644,836,17084.62,30.41,-1.00,-1.0,2367
3508,1223508,17040,-664,944,17079.04,30.37,-1.00,-1.0,2419
3510,1223510,16984,-740,808,17019.30,30.41,-1.00,-1.0,2370
3515,1223515,17060,-596,920,17095.18,30.32,-1.00,-1.0,2440
3518,1223518,16984,-656,892,17020.05,30.41,-1.00,-1.0,2366
3521,1223521,17052,-588,760,17079.05,30.37,-1.00,-1.0,2426
3524,1223524,17076,-692,880,17112.66,30.41,-1.00,-1.0,2367
3526,1223526,17068,-544,812,17095.96,30.27,-1.00,-1.0,2420
3529,1223529,16984,-616,872,17017.52,30.41,-1.00,-1.0,2357
3532,1223532,17100,-548,888,17131.81,30.46,-1.00,-1.0,2427
3535,1223535,17028,-608,896,17062.39,30.32,-1.00,-1.0,2371
3540,1223540,16944,-568,956,16980.45,30.32,-1.00,-1.0,2448
3542,1223542,17016,-552,904,17048.94,30.46,-1.00,-1.0,2368
3545,1223545,17032,-600,964,17069.81,30.37,-1.00,-1.0,2366
3548,1223548,17072,-644,820,17103.81,30.37,-1.00,-1.0,2419
3550,1223550,17020,-576,868,17051.85,30.37,-1.00,-1.0,2373
3553,1223553,17000,-616,812,17030.53,30.37,-1.00,-1.0,2419
3556,1223556,17164,-696,908,17202.09,30.46,-1.00,-1.0,2377
3559,1223559,17116,-528,936,17149.70,30.46,-1.00,-1.0,2418
3561,1223561,17044,-664,772,17074.39,30.37,-1.00,-1.0,2369
3566,1223566,17020,-600,780,17048.43,30.55,-1.00,-1.0,2440
3569,1223569,17064,-644,756,17092.88,30.37,-1.00,-1.0,2375
3572,1223572,17088,-564,904,17121.19,30.37,-1.00,-1.0,2468
3575,1223575,17076,-564,884,17108.17,30.46,-1.00,-1.0,2366
3577,1223577,17092,-472,952,17125.00,30.46,-1.00,-1.0,2373
3580,1223580,17032,-656,748,17061.03,30.41,-1.00,-1.0,2410
3583,1223583,17076,-612,800,17105.68,30.37,-1.00,-1.0,2369
3585,1223585,17124,-616,836,17155.46,30.41,-1.00,-1.0,2430
3588,1223588,17064,-648,996,17105.32,30.37,-1.00,-1.0,2377
3593,1223593,17028,-592,944,17064.42,30.37,-1.00,-1.0,2440
3596,1223596,17016,-532,996,17053.42,30.37,-1.00,-1.0,2366
3598,1223598,17020,-660,888,17055.92,30.46,-1.00,-1.0,2431
3601,1223601,17016,-616,748,17043.57,30.37,-1.00,-1.0,2373
3604,1223604,16992,-672,840,17026.02,30.37,-1.00,-1.0,2429
3607,1223607,17096,-680,904,17133.38,30.37,-1.00,-1.0,2369
3609,1223609,17108,-592,904,17142.09,30.37,-1.00,-1.0,2422
3612,1223612,17008,-588,864,17040.08,30.46,-1.00,-1.0,2370
3615,1223615,17084,-572,764,17110.64,30.37,-1.00,-1.0,2366
3620,1223620,17044,-604,908,17078.85,30.37,-1.00,-1.0,2435
3623,1223623,17000,-568,812,17028.86,30.37,-1.00,-1.0,2367
3626,1223626,17096,-508,1000,17132.75,30.46,-1.00,-1.0,2429
3628,1223628,17128,-588,884,17160.87,30.37,-1.00,-1.0,2357
3631,1223631,17044,-644,872,17078.44,30.46,-1.00,-1.0,2420
3634,1223634,17152,-564,740,17177.22,30.37,-1.00,-1.0,2371
3637,1223637,17076,-672,984,17117.52,30.37,-1.00,-1.0,2420
3639,1223639,17032,-576,708,17056.44,30.46,-1.00,-1.0,2370
3644,1223644,17064,-616,916,17099.67,30.46,-1.00,-1.0,2432
3647,1223647,17076,-608,808,17105.91,30.41,-1.00,-1.0,2367
3650,1223650,17028,-628,888,17062.70,30.37,-1.00,-1.0,2431
3653,1223653,17028,-580,892,17061.21,30.37,-1.00,-1.0,2373
3655,1223655,17096,-556,932,17130.41,30.46,-1.00,-1.0,2366
3658,1223658,16964,-652,828,16996.71,30.41,-1.00,-1.0,2428
3661,1223661,17000,-604,952,17037.35,30.41,-1.00,-1.0,2369
3663,1223663,16980,-548,860,17010.59,30.41,-1.00,-1.0,2426
3666,1223666,16992,-596,780,17020.33,30.41,-1.00,-1.0,2385
3671,1223671,17128,-532,708,17150.88,30.41,-1.00,-1.0,2432
3674,1223674,17096,-552,908,17128.99,30.32,-1.00,-1.0,2375
3677,1223677,17052,-556,872,17083.33,30.41,-1.00,-1.0,2443
3679,1223679,17000,-656,836,17033.18,30.41,-1.00,-1.0,2374
3682,1223682,17024,-740,956,17066.87,30.46,-1.00,-1.0,2421
3685,1223685,17116,-628,960,17154.40,30.41,-1.00,-1.0,2378
3688,1223688,16972,-584,992,17010.99,30.27,-1.00,-1.0,2440
3690,1223690,17100,-604,964,17137.80,30.37,-1.00,-1.0,2376
3693,1223693,17012,-660,868,17046.91,30.46,-1.00,-1.0,2376
3698,1223698,17112,-616,912,17147.35,30.46,-1.00,-1.0,2446
3701,1223701,17056,-560,868,17087.25,30.41,-1.00,-1.0,2373
3704,1223704,17024,-632,996,17064.82,30.37,-1.00,-1.0,2443
3706,1223706,16984,-620,812,17014.70,30.46,-1.00,-1.0,2375
3709,1223709,16988,-456,856,17015.66,30.37,-1.00,-1.0,2420
3712,1223712,17032,-660,952,17071.35,30.37,-1.00,-1.0,2369
3715,1223715,16956,-552,792,16983.46,30.46,-1.00,-1.0,2433
3717,1223717,16928,-576,936,16963.64,30.37,-1.00,-1.0,2375
3722,1223722,17120,-696,892,17157.35,30.37,-1.00,-1.0,2443
3725,1223725,17012,-664,912,17049.36,30.41,-1.00,-1.0,2364
3728,1223728,17056,-576,892,17089.02,30.37,-1.00,-1.0,2439
3731,1223731,16996,-616,1016,17037.48,30.41,-1.00,-1.0,2366
3733,1223733,17132,-516,968,17167.08,30.46,-1.00,-1.0,2366
3736,1223736,17056,-612,896,17090.48,30.37,-1.00,-1.0,2420
3739,1223739,17128,-572,1004,17166.93,30.37,-1.00,-1.0,2370
3742,1223742,17120,-636,944,17157.80,30.32,-1.00,-1.0,2420
3744,1223744,16932,-536,800,16959.36,30.37,-1.00,-1.0,2374
3749,1223749,17020,-696,824,17054.14,30.37,-1.00,-1.0,2432
3752,1223752,17056,-632,1016,17097.92,30.37,-1.00,-1.0,2367
3755,1223755,17096,-528,1016,17134.30,30.41,-1.00,-1.0,2432
3757,1223757,17036,-688,868,17071.97,30.46,-1.00,-1.0,2374
3760,1223760,17048,-500,852,17076.60,30.41,-1.00,-1.0,2420
3763,1223763,16980,-620,768,17008.66,30.37,-1.00,-1.0,2375
3766,1223766,17064,-584,992,17102.78,30.32,-1.00,-1.0,2422
3768,1223768,17048,-616,776,17076.77,30.37,-1.00,-1.0,2354
3771,1223771,16976,-552,832,17005.34,30.32,-1.00,-1.0,2365
3776,1223776,16956,-624,988,16996.22,30.51,-1.00,-1.0,2431
3779,1223779,16964,-704,976,17006.63,30.51,-1.00,-1.0,2367
3782,1223782,17144,-564,848,17174.22,30.37,-1.00,-1.0,2433
3784,1223784,16992,-604,876,17025.28,30.41,-1.00,-1.0,2370
3787,1223787,17032,-564,928,17066.58,30.46,-1.00,-1.0,2419
3790,1223790,17036,-596,908,17070.59,30.32,-1.00,-1.0,2378
3793,1223793,17188,-572,872,17219.61,30.37,-1.00,-1.0,2420
3795,1223795,17056,-572,840,17086.25,30.41,-1.00,-1.0,2369
3800,1223800,17168,-660,816,17200.05,30.37,-1.00,-1.0,2434
3803,1223803,17068,-472,792,17092.88,30.37,-1.00,-1.0,2373
3806,1223806,17016,-552,880,17047.68,30.41,-1.00,-1.0,2432
3808,1223808,16936,-592,932,16971.95,30.51,-1.00,-1.0,2373
3811,1223811,17044,-628,800,17074.32,30.41,-1.00,-1.0,2374
3814,1223814,16888,-604,868,16921.07,30.46,-1.00,-1.0,2420
3816,1223816,17096,-556,840,17125.65,30.37,-1.00,-1.0,2371
3819,1223819,17072,-576,948,17108.00,30.37,-1.00,-1.0,2423
3822,1223822,17064,-568,852,17094.70,30.37,-1.00,-1.0,2370
3827,1223827,17068,-584,904,17101.90,30.46,-1.00,-1.0,2433
3830,1223830,17080,-608,844,17111.64,30.41,-1.00,-1.0,2370
3833,1223833,17100,-528,712,17122.96,30.46,-1.00,-1.0,2437
3836,1223836,17096,-616,932,17132.46,30.41,-1.00,-1.0,2369
3838,1223838,17020,-660,808,17051.95,30.46,-1.00,-1.0,2423
3841,1223841,17088,-656,900,17124.25,30.41,-1.00,-1.0,2370
3844,1223844,17068,-520,792,17094.28,30.37,-1.00,-1.0,2422
3847,1223847,16996,-652,920,17033.37,30.37,-1.00,-1.0,2369
3849,1223849,17004,-716,816,17038.62,30.46,-1.00,-1.0,2366
3854,1223854,17016,-524,1016,17054.36,30.37,-1.00,-1.0,2432
3857,1223857,17028,-716,924,17068.08,30.32,-1.00,-1.0,2369
3860,1223860,17040,-512,868,17069.77,30.46,-1.00,-1.0,2437
3863,1223863,17084,-692,844,17118.83,30.46,-1.00,-1.0,2368
3865,1223865,17144,-624,876,17177.70,30.37,-1.00,-1.0,2423
3868,1223868,16988,-644,880,17022.96,30.37,-1.00,-1.0,2370
3871,1223871,17036,-652,948,17074.81,30.46,-1.00,-1.0,2422
3874,1223874,17028,-548,864,17058.71,30.37,-1.00,-1.0,2369
3879,1223879,17108,-644,844,17140.91,30.46,-1.00,-1.0,2432
3881,1223881,17008,-668,932,17046.61,30.32,-1.00,-1.0,2366
3884,1223884,17060,-580,936,17095.50,30.46,-1.00,-1.0,2431
3887,1223887,17064,-600,924,17099.53,30.41,-1.00,-1.0,2375
3889,1223889,17028,-656,872,17062.93,30.46,-1.00,-1.0,2371
3892,1223892,16968,-588,764,16995.37,30.41,-1.00,-1.0,2429
3895,1223895,16976,-632,864,17009.72,30.46,-1.00,-1.0,2378
3898,1223898,16960,-612,1004,17000.71,30.51,-1.00,-1.0,2432
3900,1223900,17008,-764,872,17047.47,30.41,-1.00,-1.0,2382
3906,1223906,17060,-644,936,17097.79,30.37,-1.00,-1.0,2432
3908,1223908,17100,-564,884,17132.12,30.37,-1.00,-1.0,2350
3911,1223911,17068,-656,900,17104.30,30.46,-1.00,-1.0,2430
3914,1223914,17000,-568,964,17036.78,30.46,-1.00,-1.0,2374
3917,1223917,17040,-644,916,17076.75,30.46,-1.00,-1.0,2419
3919,1223919,16960,-668,860,16994.92,30.37,-1.00,-1.0,2370
3922,1223922,16924,-616,976,16963.31,30.37,-1.00,-1.0,2420
3925,1223925,17040,-592,1012,17080.29,30.37,-1.00,-1.0,2370
3927,1223927,16864,-496,960,16898.58,30.41,-1.00,-1.0,2376
3932,1223932,17008,-620,928,17044.58,30.41,-1.00,-1.0,2443
3935,1223935,16936,-552,1072,16978.87,30.41,-1.00,-1.0,2366
3938,1223938,17028,-576,980,17065.90,30.41,-1.00,-1.0,2437
3941,1223941,16984,-536,856,17014.00,30.41,-1.00,-1.0,2369
3943,1223943,17068,-596,884,17101.27,30.41,-1.00,-1.0,2428
3946,1223946,17012,-536,908,17044.64,30.41,-1.00,-1.0,2378
3949,1223949,17096,-520,844,17124.72,30.51,-1.00,-1.0,2409
3952,1223952,17196,-592,864,17227.87,30.51,-1.00,-1.0,2370
3957,1223957,17032,-608,852,17064.13,30.41,-1.00,-1.0,2432
3959,1223959,17020,-616,864,17053.04,30.46,-1.00,-1.0,2366
3962,1223962,16992,-620,876,17025.86,30.41,-1.00,-1.0,2430
3965,1223965,17088,-580,900,17121.51,30.37,-1.00,-1.0,2377
3967,1223967,17076,-528,972,17111.79,30.32,-1.00,-1.0,2376
3970,1223970,17192,-724,908,17231.18,30.46,-1.00,-1.0,2420
3973,1223973,16964,-616,992,17004.14,30.32,-1.00,-1.0,2373
3976,1223976,16996,-620,704,17021.87,30.46,-1.00,-1.0,2425
3979,1223979,17052,-636,768,17081.13,30.46,-1.00,-1.0,2369
3983,1223983,17044,-564,928,17078.56,30.46,-1.00,-1.0,2418
3986,1223986,17012,-628,896,17047.15,30.37,-1.00,-1.0,2369
3989,1223989,16992,-620,908,17027.54,30.37,-1.00,-1.0,2431
3992,1223992,17116,-648,948,17154.48,30.37,-1.00,-1.0,2367
3994,1223994,17052,-536,960,17087.41,30.41,-1.00,-1.0,2420
3997,1223997,17084,-580,888,17116.89,30.46,-1.00,-1.0,2370
4000,1224000,16968,-640,964,17007.41,30.37,-1.00,-1.0,2428
4003,1224003,17028,-644,876,17062.68,30.46,-1.00,-1.0,2369
4006,1224006,16964,-540,996,17001.79,30.46,-1.00,-1.0,2365
4010,1224010,17036,-652,892,17071.79,30.46,-1.00,-1.0,2447
4013,1224013,17104,-532,800,17130.96,30.41,-1.00,-1.0,2376
4016,1224016,17060,-684,808,17092.81,30.46,-1.00,-1.0,2445
4018,1224018,17012,-612,892,17046.36,30.46,-1.00,-1.0,2379
4021,1224021,17068,-596,872,17100.65,30.46,-1.00,-1.0,2420
4024,1224024,17060,-560,992,17097.99,30.37,-1.00,-1.0,2358
4027,1224027,16904,-616,924,16940.44,30.46,-1.00,-1.0,2431
4030,1224030,17128,-624,716,17154.31,30.51,-1.00,-1.0,2369
4035,1224035,17076,-656,776,17106.21,30.37,-1.00,-1.0,2419
4037,1224037,17020,-740,900,17059.84,30.37,-1.00,-1.0,2370
4040,1224040,16992,-572,864,17023.56,30.46,-1.00,-1.0,2430
4043,1224043,17112,-544,808,17139.70,30.37,-1.00,-1.0,2372
4045,1224045,17044,-592,956,17081.05,30.32,-1.00,-1.0,2363
4048,1224048,17116,-692,896,17153.40,30.51,-1.00,-1.0,2420
4051,1224051,17136,-680,804,17168.32,30.27,-1.00,-1.0,2370
4054,1224054,17124,-608,824,17154.59,30.41,-1.00,-1.0,2420
4057,1224057,17088,-648,964,17127.43,30.41,-1.00,-1.0,2370
4062,1224062,17064,-676,864,17099.23,30.41,-1.00,-1.0,2432
4064,1224064,16976,-608,900,17010.71,30.46,-1.00,-1.0,2367
4067,1224067,17088,-576,976,17125.54,30.41,-1.00,-1.0,2429
4070,1224070,17088,-700,816,17121.79,30.37,-1.00,-1.0,2370
4073,1224073,17036,-652,856,17069.95,30.41,-1.00,-1.0,2421
4075,1224075,17044,-652,932,17081.91,30.41,-1.00,-1.0,2371
4078,1224078,17064,-584,980,17102.09,30.41,-1.00,-1.0,2420
4081,1224081,17132,-652,864,17166.16,30.46,-1.00,-1.0,2370
4084,1224084,17204,-672,920,17241.68,30.32,-1.00,-1.0,2367
4089,1224089,17040,-612,836,17071.47,30.41,-1.00,-1.0,2432
4091,1224091,17016,-592,836,17046.81,30.41,-1.00,-1.0,2367
4094,1224094,17076,-736,780,17109.64,30.41,-1.00,-1.0,2433
4097,1224097,17032,-576,896,17065.28,30.32,-1.00,-1.0,2371
4100,1224100,17036,-512,832,17063.99,30.41,-1.00,-1.0,2420
4102,1224102,17116,-700,852,17151.48,30.41,-1.00,-1.0,2370
4105,1224105,17124,-652,1016,17166.50,30.41,-1.00,-1.0,2420
4108,1224108,17004,-752,868,17042.74,30.41,-1.00,-1.0,2370
4113,1224113,17056,-624,820,17087.10,30.55,-1.00,-1.0,2432
4115,1224115,17076,-680,860,17111.16,30.51,-1.00,-1.0,2378
4118,1224118,17048,-576,868,17079.80,30.41,-1.00,-1.0,2430
4121,1224121,17036,-592,944,17072.40,30.32,-1.00,-1.0,2376
4124,1224124,17032,-608,900,17066.60,30.46,-1.00,-1.0,2367
4126,1224126,16988,-748,708,17019.19,30.37,-1.00,-1.0,2434
4129,1224129,17104,-528,848,17133.15,30.46,-1.00,-1.0,2371
4132,1224132,16984,-720,928,17024.57,30.27,-1.00,-1.0,2425
4135,1224135,17088,-512,808,17114.75,30.46,-1.00,-1.0,2372
4140,1224140,17020,-716,860,17056.75,30.46,-1.00,-1.0,2432
4142,1224142,17028,-632,876,17062.23,30.37,-1.00,-1.0,2366
4145,1224145,17076,-660,784,17106.72,30.37,-1.00,-1.0,2429
4148,1224148,17044,-632,816,17075.22,30.37,-1.00,-1.0,2378
4151,1224151,17064,-688,892,17101.14,30.46,-1.00,-1.0,2419
4153,1224153,17044,-716,936,17084.69,30.37,-1.00,-1.0,2371
4156,1224156,17068,-608,940,17104.67,30.37,-1.00,-1.0,2436
4159,1224159,17056,-560,812,17084.50,30.37,-1.00,-1.0,2372
4162,1224162,17000,-576,908,17033.97,30.37,-1.00,-1.0,2374
4167,1224167,17168,-596,996,17207.19,30.37,-1.00,-1.0,2431
4169,1224169,17068,-576,876,17100.17,30.46,-1.00,-1.0,2368
4172,1224172,17164,-636,836,17196.11,30.41,-1.00,-1.0,2445
4175,1224175,16960,-616,1012,17001.33,30.46,-1.00,-1.0,2376
4178,1224178,17044,-572,844,17074.47,30.41,-1.00,-1.0,2435
4180,1224180,17052,-520,896,17083.44,30.41,-1.00,-1.0,2379
4183,1224183,17008,-516,876,17038.36,30.41,-1.00,-1.0,2420
4186,1224186,17084,-668,828,17117.09,30.41,-1.00,-1.0,2376
4192,1224192,17012,-584,764,17039.16,30.41,-1.00,-1.0,2435
4194,1224194,17020,-552,888,17052.09,30.41,-1.00,-1.0,2374
4197,1224197,17048,-688,940,17087.75,30.41,-1.00,-1.0,2430
4200,1224200,17040,-596,816,17069.94,30.41,-1.00,-1.0,2372
4202,1224202,17008,-520,776,17033.63,30.37,-1.00,-1.0,2365
4205,1224205,17056,-676,868,17091.45,30.37,-1.00,-1.0,2420
4208,1224208,17088,-596,864,17120.21,30.46,-1.00,-1.0,2377
4211,1224211,17000,-592,868,17032.44,30.37,-1.00,-1.0,2420
4213,1224213,17096,-620,932,17132.61,30.27,-1.00,-1.0,2371
4218,1224218,17028,-572,912,17062.00,30.37,-1.00,-1.0,2432
4221,1224221,17096,-540,904,17128.40,30.41,-1.00,-1.0,2372
4224,1224224,17072,-668,864,17106.90,30.46,-1.00,-1.0,2429
4226,1224226,17044,-568,932,17078.91,30.46,-1.00,-1.0,2374
4229,1224229,17044,-492,916,17075.69,30.46,-1.00,-1.0,2419
4232,1224232,17048,-556,816,17076.57,30.46,-1.00,-1.0,2370
4235,1224235,16960,-632,928,16997.12,30.37,-1.00,-1.0,2420
4237,1224237,17108,-548,772,17134.18,30.46,-1.00,-1.0,2370
4240,1224240,17080,-664,920,17117.64,30.41,-1.00,-1.0,2375
4245,1224245,17072,-652,876,17106.89,30.32,-1.00,-1.0,2435
4248,1224248,16924,-620,928,16960.76,30.37,-1.00,-1.0,2366
4250,1224250,17112,-656,928,17149.70,30.51,-1.00,-1.0,2432
4253,1224253,17048,-452,844,17074.86,30.37,-1.00,-1.0,2374
4256,1224256,17000,-572,880,17032.37,30.41,-1.00,-1.0,2427
4259,1224259,17064,-544,820,17092.35,30.46,-1.00,-1.0,2371
4261,1224261,16984,-652,848,17017.65,30.41,-1.00,-1.0,2434
4264,1224264,17084,-516,1012,17121.72,30.41,-1.00,-1.0,2370
4269,1224269,17048,-520,816,17075.44,30.41,-1.00,-1.0,2432
4272,1224272,17064,-588,852,17095.37,30.46,-1.00,-1.0,2368
4275,1224275,17072,-628,692,17097.56,30.37,-1.00,-1.0,2429
4277,1224277,17088,-616,896,17122.56,30.46,-1.00,-1.0,2374
4280,1224280,17044,-624,892,17078.73,30.41,-1.00,-1.0,2355
4283,1224283,17040,-556,976,17076.98,30.37,-1.00,-1.0,2433
4285,1224285,17072,-552,928,17106.11,30.51,-1.00,-1.0,2379
4288,1224288,17060,-540,948,17094.85,30.37,-1.00,-1.0,2420
4291,1224291,17080,-640,956,17118.70,30.41,-1.00,-1.0,2358
4296,1224296,17056,-580,908,17090.00,30.41,-1.00,-1.0,2440
4299,1224299,17084,-560,832,17113.41,30.41,-1.00,-1.0,2371
4301,1224301,17032,-640,948,17070.36,30.37,-1.00,-1.0,2440
4304,1224304,16956,-584,852,16987.43,30.41,-1.00,-1.0,2377
4307,1224307,17032,-552,1072,17074.63,30.46,-1.00,-1.0,2407
4310,1224310,17068,-656,876,17103.05,30.41,-1.00,-1.0,2371
4312,1224312,16980,-488,796,17005.65,30.46,-1.00,-1.0,2431
4315,1224315,17092,-624,976,17131.21,30.41,-1.00,-1.0,2377
4318,1224318,17048,-576,824,17077.62,30.41,-1.00,-1.0,2375
4323,1224323,16904,-584,1016,16944.57,30.41,-1.00,-1.0,2439
4326,1224326,17052,-680,800,17084.29,30.37,-1.00,-1.0,2366
4328,1224328,17048,-584,868,17080.07,30.51,-1.00,-1.0,2430
4331,1224331,17160,-680,1028,17204.21,30.46,-1.00,-1.0,2372
4334,1224334,17152,-552,832,17181.04,30.41,-1.00,-1.0,2428
4337,1224337,17084,-656,844,17117.41,30.37,-1.00,-1.0,2369
4339,1224339,17084,-564,812,17112.58,30.32,-1.00,-1.0,2423
4342,1224342,17056,-692,868,17092.09,30.41,-1.00,-1.0,2374
4347,1224347,17060,-600,864,17092.40,30.37,-1.00,-1.0,2440
4350,1224350,17160,-672,980,17201.09,30.46,-1.00,-1.0,2360
4353,1224353,17028,-628,876,17062.08,30.46,-1.00,-1.0,2440
4355,1224355,17020,-600,760,17047.52,30.46,-1.00,-1.0,2376
4358,1224358,16936,-652,832,16968.96,30.32,-1.00,-1.0,2366
4361,1224361,17052,-704,848,17087.58,30.41,-1.00,-1.0,2422
4364,1224364,17024,-644,916,17060.79,30.46,-1.00,-1.0,2369
4366,1224366,16952,-604,884,16985.78,30.41,-1.00,-1.0,2421
4369,1224369,17052,-688,864,17087.73,30.41,-1.00,-1.0,2370
4374,1224374,17056,-620,984,17095.61,30.41,-1.00,-1.0,2433
4377,1224377,16888,-580,704,16912.62,30.37,-1.00,-1.0,2369
4380,1224380,17104,-632,1064,17148.71,30.37,-1.00,-1.0,2430
4382,1224382,16956,-528,996,16993.43,30.37,-1.00,-1.0,2370
4385,1224385,17072,-588,956,17108.85,30.51,-1.00,-1.0,2420
4388,1224388,17080,-528,904,17112.05,30.37,-1.00,-1.0,2370
4391,1224391,17092,-672,888,17128.24,30.41,-1.00,-1.0,2420
4393,1224393,17024,-580,972,17061.59,30.46,-1.00,-1.0,2370
4396,1224396,16984,-592,972,17022.09,30.46,-1.00,-1.0,2374
4401,1224401,16992,-572,904,17025.64,30.37,-1.00,-1.0,2437
4403,1224403,17000,-592,860,17032.03,30.46,-1.00,-1.0,2376
4406,1224406,17000,-608,996,17040.00,30.41,-1.00,-1.0,2429
4409,1224409,17048,-596,936,17084.07,30.37,-1.00,-1.0,2370
4412,1224412,17056,-604,840,17087.35,30.41,-1.00,-1.0,2422
4414,1224414,17156,-672,888,17192.11,30.46,-1.00,-1.0,2374
4417,1224417,17020,-572,800,17048.39,30.41,-1.00,-1.0,2420
4420,1224420,17060,-580,836,17090.32,30.37,-1.00,-1.0,2371
4425,1224425,17140,-680,716,17168.42,30.46,-1.00,-1.0,2432
4427,1224427,17132,-612,960,17169.79,30.46,-1.00,-1.0,2366
4430,1224430,17064,-616,744,17091.32,30.46,-1.00,-1.0,2429
4433,1224433,17020,-612,852,17052.30,30.46,-1.00,-1.0,2377
4435,1224435,17012,-520,940,17045.88,30.37,-1.00,-1.0,2378
4438,1224438,17148,-564,864,17179.01,30.41,-1.00,-1.0,2420
4441,1224441,16980,-560,896,17012.84,30.51,-1.00,-1.0,2372
4444,1224444,17092,-616,740,17119.10,30.41,-1.00,-1.0,2424
4447,1224447,17016,-812,880,17058.08,30.41,-1.00,-1.0,2368
4452,1224452,16968,-668,808,17000.36,30.46,-1.00,-1.0,2438
4455,1224455,17016,-688,1004,17059.47,30.46,-1.00,-1.0,2366
4457,1224457,17044,-628,880,17078.25,30.37,-1.00,-1.0,2440
4460,1224460,17004,-696,824,17038.18,30.37,-1.00,-1.0,2378
4463,1224463,17012,-592,864,17044.21,30.41,-1.00,-1.0,2408
4466,1224466,17000,-604,768,17028.05,30.46,-1.00,-1.0,2371
4468,1224468,16984,-628,900,17019.42,30.55,-1.00,-1.0,2428
4471,1224471,17104,-544,796,17131.15,30.46,-1.00,-1.0,2378
4474,1224474,17036,-616,884,17070.04,30.41,-1.00,-1.0,2370
4479,1224479,17052,-744,908,17092.36,30.32,-1.00,-1.0,2440
4482,1224482,16872,-636,696,16898.32,30.46,-1.00,-1.0,2370
4484,1224484,17072,-632,892,17106.96,30.32,-1.00,-1.0,2437
4487,1224487,17036,-504,956,17070.24,30.41,-1.00,-1.0,2385
4490,1224490,17064,-568,816,17092.94,30.41,-1.00,-1.0,2424
4493,1224493,17140,-544,948,17174.81,30.41,-1.00,-1.0,2373
4496,1224496,17068,-608,908,17102.95,30.41,-1.00,-1.0,2422
4498,1224498,17044,-624,992,17084.24,30.41,-1.00,-1.0,2373
4503,1224503,16992,-636,924,17028.98,30.32,-1.00,-1.0,2447
4506,1224506,17068,-572,772,17095.02,30.46,-1.00,-1.0,2375
4509,1224509,17028,-624,1000,17068.75,30.41,-1.00,-1.0,2442
4511,1224511,17132,-640,768,17161.14,30.37,-1.00,-1.0,2379
4514,1224514,17080,-644,872,17114.37,30.46,-1.00,-1.0,2368
4517,1224517,17092,-552,872,17123.13,30.37,-1.00,-1.0,2427
4520,1224520,17028,-664,1044,17072.89,30.46,-1.00,-1.0,2368
4522,1224522,17048,-692,928,17087.26,30.46,-1.00,-1.0,2423
4525,1224525,16960,-704,820,16994.40,30.46,-1.00,-1.0,2369
4530,1224530,16932,-624,968,16971.12,30.37,-1.00,-1.0,2434
4533,1224533,16992,-632,888,17026.92,30.41,-1.00,-1.0,2369
4536,1224536,17012,-632,1056,17056.46,30.37,-1.00,-1.0,2429
4538,1224538,17096,-560,724,17120.48,30.41,-1.00,-1.0,2370
4541,1224541,17072,-612,948,17109.25,30.46,-1.00,-1.0,2420
4544,1224544,17072,-568,888,17104.51,30.41,-1.00,-1.0,2370
4547,1224547,17044,-532,824,17072.20,30.46,-1.00,-1.0,2419
4549,1224549,17008,-652,956,17047.32,30.37,-1.00,-1.0,2374
4552,1224552,17132,-564,920,17165.95,30.46,-1.00,-1.0,2367
4557,1224557,16872,-640,1016,16914.68,30.37,-1.00,-1.0,2432
4560,1224560,17144,-616,868,17177.01,30.41,-1.00,-1.0,2368
4563,1224563,16984,-632,840,17016.50,30.46,-1.00,-1.0,2429
4565,1224565,17088,-632,956,17126.39,30.37,-1.00,-1.0,2370
4568,1224568,17008,-584,924,17043.09,30.27,-1.00,-1.0,2419
4571,1224571,16952,-604,880,16985.57,30.46,-1.00,-1.0,2370
4574,1224574,17120,-584,728,17145.42,30.46,-1.00,-1.0,2420
4576,1224576,16976,-628,836,17008.17,30.37,-1.00,-1.0,2371
4581,1224581,17020,-648,812,17051.68,30.37,-1.00,-1.0,2440
4584,1224584,16996,-544,940,17030.67,30.41,-1.00,-1.0,2356
4587,1224587,17048,-524,1100,17091.49,30.37,-1.00,-1.0,2442
4589,1224589,17112,-688,980,17153.84,30.46,-1.00,-1.0,2376
4592,1224592,17012,-612,896,17046.57,30.37,-1.00,-1.0,2365
4595,1224595,17056,-492,820,17082.79,30.32,-1.00,-1.0,2423
4598,1224598,16912,-616,840,16944.05,30.46,-1.00,-1.0,2368
4600,1224600,17020,-600,1036,17062.05,30.46,-1.00,-1.0,2421
4603,1224603,17132,-524,1016,17170.10,30.51,-1.00,-1.0,2370
4608,1224608,17028,-532,1024,17067.05,30.41,-1.00,-1.0,2439
4611,1224611,16980,-532,896,17011.94,30.41,-1.00,-1.0,2368
4613,1224613,17004,-704,952,17045.17,30.37,-1.00,-1.0,2437
4616,1224616,17056,-616,960,17094.10,30.41,-1.00,-1.0,2385
4619,1224619,17024,-628,776,17053.24,30.46,-1.00,-1.0,2422
4622,1224622,17096,-612,796,17125.46,30.37,-1.00,-1.0,2372
4625,1224625,17040,-656,956,17079.40,30.37,-1.00,-1.0,2422
4627,1224627,16976,-564,872,17007.73,30.46,-1.00,-1.0,2382
4630,1224630,16976,-648,884,17011.35,30.41,-1.00,-1.0,2375
4635,1224635,17008,-728,920,17048.41,30.41,-1.00,-1.0,2432
4638,1224638,17076,-668,856,17110.49,30.37,-1.00,-1.0,2366
4640,1224640,17072,-704,912,17110.83,30.37,-1.00,-1.0,2430
4643,1224643,17020,-584,968,17057.51,30.37,-1.00,-1.0,2371
4646,1224646,17100,-620,828,17131.26,30.41,-1.00,-1.0,2428
4649,1224649,17084,-572,968,17120.96,30.37,-1.00,-1.0,2369
4651,1224651,17048,-612,984,17087.34,30.32,-1.00,-1.0,2420
4654,1224654,17000,-564,864,17031.28,30.37,-1.00,-1.0,2385
4659,1224659,17016,-656,720,17043.86,30.37,-1.00,-1.0,2440
4662,1224662,17000,-544,936,17034.44,30.41,-1.00,-1.0,2364
4665,1224665,17044,-636,1060,17088.77,30.46,-1.00,-1.0,2435
4667,1224667,17056,-716,884,17093.89,30.41,-1.00,-1.0,2372
4670,1224670,17120,-488,900,17150.58,30.46,-1.00,-1.0,2368
4673,1224673,17172,-556,948,17207.13,30.51,-1.00,-1.0,2421
4675,1224675,17044,-548,904,17076.75,30.46,-1.00,-1.0,2354
4678,1224678,17068,-576,836,17098.17,30.46,-1.00,-1.0,2420
4681,1224681,17116,-724,1028,17162.12,30.37,-1.00,-1.0,2378
4686,1224686,17056,-568,880,17088.13,30.37,-1.00,-1.0,2446
4689,1224689,17044,-596,968,17081.87,30.37,-1.00,-1.0,2374
4692,1224692,17164,-668,852,17198.11,30.46,-1.00,-1.0,2444
4694,1224694,17096,-596,892,17129.63,30.46,-1.00,-1.0,2379
4697,1224697,16996,-580,968,17033.42,30.46,-1.00,-1.0,2420
4700,1224700,17040,-612,820,17070.69,30.37,-1.00,-1.0,2373
4703,1224703,17056,-632,720,17082.88,30.32,-1.00,-1.0,2422
4705,1224705,16964,-588,972,17001.99,30.37,-1.00,-1.0,2374
4708,1224708,16964,-616,916,16999.88,30.37,-1.00,-1.0,2355
4713,1224713,17080,-604,1020,17121.09,30.46,-1.00,-1.0,2447
4716,1224716,17052,-552,748,17077.32,30.37,-1.00,-1.0,2374
4719,1224719,17068,-716,720,17098.18,30.41,-1.00,-1.0,2447
4721,1224721,16992,-544,928,17026.02,30.46,-1.00,-1.0,2378
4724,1224724,17044,-608,908,17078.99,30.37,-1.00,-1.0,2420
4727,1224727,17124,-764,1000,17170.18,30.46,-1.00,-1.0,2373
4730,1224730,17168,-564,904,17201.03,30.32,-1.00,-1.0,2422
4732,1224732,17036,-640,776,17065.67,30.46,-1.00,-1.0,2374
4737,1224737,17060,-644,776,17089.78,30.46,-1.00,-1.0,2443
4740,1224740,16952,-672,884,16988.33,30.46,-1.00,-1.0,2374
4743,1224743,17060,-644,944,17098.23,30.41,-1.00,-1.0,2432
4746,1224746,16992,-632,840,17024.48,30.37,-1.00,-1.0,2371
4748,1224748,17096,-628,916,17132.04,30.41,-1.00,-1.0,2366
4751,1224751,17088,-616,836,17119.52,30.37,-1.00,-1.0,2420
4754,1224754,17068,-628,796,17098.09,30.41,-1.00,-1.0,2370
4757,1224757,16948,-588,824,16978.21,30.37,-1.00,-1.0,2419
4759,1224759,17068,-668,948,17107.35,30.41,-1.00,-1.0,2371
4764,1224764,17192,-556,844,17221.68,30.41,-1.00,-1.0,2442
4767,1224767,17032,-592,916,17066.88,30.37,-1.00,-1.0,2381
4770,1224770,17060,-528,860,17089.82,30.32,-1.00,-1.0,2431
4773,1224773,17012,-624,904,17047.43,30.51,-1.00,-1.0,2371
4776,1224776,17084,-580,840,17114.47,30.51,-1.00,-1.0,2421
4778,1224778,17020,-524,856,17049.57,30.46,-1.00,-1.0,2373
4781,1224781,16936,-544,1008,16974.69,30.41,-1.00,-1.0,2423
4784,1224784,17084,-440,848,17110.69,30.32,-1.00,-1.0,2372
4786,1224786,17016,-580,852,17047.19,30.46,-1.00,-1.0,2367
4791,1224791,17108,-596,952,17144.83,30.41,-1.00,-1.0,2432
4794,1224794,17124,-580,1036,17165.11,30.41,-1.00,-1.0,2371
4797,1224797,16948,-532,844,16977.34,30.46,-1.00,-1.0,2431
4800,1224800,17060,-568,1016,17099.66,30.51,-1.00,-1.0,2366
4802,1224802,17008,-584,920,17042.87,30.37,-1.00,-1.0,2420
4805,1224805,17000,-576,880,17032.50,30.32,-1.00,-1.0,2370
4808,1224808,16988,-564,756,17014.16,30.46,-1.00,-1.0,2427
4811,1224811,16956,-624,860,16989.26,30.51,-1.00,-1.0,2368
4815,1224815,17040,-544,780,17066.52,30.46,-1.00,-1.0,2434
4818,1224818,17088,-616,704,17113.59,30.32,-1.00,-1.0,2366
4821,1224821,17160,-676,920,17197.94,30.37,-1.00,-1.0,2437
4824,1224824,17004,-648,980,17044.54,30.37,-1.00,-1.0,2369
4826,1224826,17060,-688,872,17096.12,30.46,-1.00,-1.0,2372
4829,1224829,17092,-584,924,17126.92,30.41,-1.00,-1.0,2410
4832,1224832,17032,-604,804,17061.66,30.37,-1.00,-1.0,2369
4834,1224834,16980,-668,876,17015.70,30.51,-1.00,-1.0,2430
4837,1224837,17096,-652,856,17129.83,30.37,-1.00,-1.0,2376
4842,1224842,16968,-724,1044,17015.50,30.46,-1.00,-1.0,2432
4845,1224845,16940,-724,880,16978.29,30.41,-1.00,-1.0,2372
4848,1224848,17104,-716,848,17139.97,30.37,-1.00,-1.0,2430
4850,1224850,17056,-628,896,17091.06,30.37,-1.00,-1.0,2370
4853,1224853,17020,-572,976,17057.55,30.46,-1.00,-1.0,2420
4856,1224856,17116,-704,876,17152.86,30.37,-1.00,-1.0,2371
4859,1224859,17016,-512,788,17041.93,30.37,-1.00,-1.0,2420
4861,1224861,17080,-604,948,17116.95,30.41,-1.00,-1.0,2371
4864,1224864,17048,-680,784,17079.56,30.41,-1.00,-1.0,2368
4869,1224869,17012,-632,816,17043.28,30.37,-1.00,-1.0,2432
4872,1224872,17100,-616,856,17132.49,30.37,-1.00,-1.0,2366
4875,1224875,17052,-624,896,17086.92,30.46,-1.00,-1.0,2437
4878,1224878,17040,-708,748,17071.10,30.46,-1.00,-1.0,2368
4880,1224880,17088,-644,828,17120.17,30.32,-1.00,-1.0,2422
4883,1224883,17020,-748,860,17058.12,30.37,-1.00,-1.0,2370
4886,1224886,17100,-640,884,17134.79,30.51,-1.00,-1.0,2422
4889,1224889,17092,-732,860,17129.27,30.37,-1.00,-1.0,2369
4894,1224894,17064,-628,964,17102.74,30.37,-1.00,-1.0,2432
4896,1224896,17052,-604,796,17081.25,30.46,-1.00,-1.0,2369
4899,1224899,17032,-612,920,17067.80,30.37,-1.00,-1.0,2416
4902,1224902,17120,-580,852,17151.00,30.46,-1.00,-1.0,2370
4904,1224904,17072,-636,916,17108.38,30.41,-1.00,-1.0,2370
4907,1224907,17052,-596,936,17088.07,30.41,-1.00,-1.0,2427
4910,1224910,17080,-600,852,17111.76,30.41,-1.00,-1.0,2379
4913,1224913,17008,-656,1012,17050.71,30.41,-1.00,-1.0,2420
4915,1224915,17004,-700,856,17039.92,30.41,-1.00,-1.0,2381
4920,1224920,17096,-600,1028,17137.39,30.41,-1.00,-1.0,2435
4923,1224923,17000,-496,896,17030.82,30.46,-1.00,-1.0,2366
4926,1224926,17048,-624,1024,17090.12,30.41,-1.00,-1.0,2438
4929,1224929,17096,-636,876,17130.24,30.32,-1.00,-1.0,2369
4931,1224931,17072,-508,832,17099.81,30.46,-1.00,-1.0,2428
4934,1224934,16996,-536,1040,17036.22,30.41,-1.00,-1.0,2379
4937,1224937,17120,-668,932,17158.36,30.55,-1.00,-1.0,2408
4940,1224940,17052,-620,908,17087.41,30.41,-1.00,-1.0,2371
4945,1224945,17088,-672,956,17127.91,30.41,-1.00,-1.0,2432
4947,1224947,17132,-568,924,17166.30,30.41,-1.00,-1.0,2366
4950,1224950,17072,-648,860,17105.93,30.37,-1.00,-1.0,2377
4953,1224953,16968,-568,980,17005.77,30.37,-1.00,-1.0,2439
4955,1224955,17068,-560,864,17099.03,30.46,-1.00,-1.0,2376
4958,1224958,17092,-596,880,17125.01,30.46,-1.00,-1.0,2420
4961,1224961,16976,-616,656,16999.83,30.46,-1.00,-1.0,2370
4964,1224964,17124,-584,880,17156.54,30.46,-1.00,-1.0,2421
4966,1224966,17072,-632,784,17101.67,30.37,-1.00,-1.0,2369
4971,1224971,17012,-532,1000,17049.67,30.37,-1.00,-1.0,2441
4974,1224974,17040,-616,912,17075.50,30.46,-1.00,-1.0,2374
4977,1224977,17076,-628,896,17111.02,30.37,-1.00,-1.0,2432
4980,1224980,17112,-612,964,17150.05,30.37,-1.00,-1.0,2371
4983,1224983,17056,-544,996,17093.71,30.37,-1.00,-1.0,2422
4985,1224985,17044,-624,936,17081.08,30.46,-1.00,-1.0,2384
4988,1224988,17016,-588,908,17050.35,30.41,-1.00,-1.0,2366
4991,1224991,16988,-576,868,17019.91,30.32,-1.00,-1.0,2420
4994,1224994,17060,-604,880,17093.36,30.46,-1.00,-1.0,2371
4999,1224999,17044,-496,948,17077.55,30.46,-1.00,-1.0,2439
5001,1225001,17036,-660,912,17073.16,30.46,-1.00,-1.0,2374
5004,1225004,16996,-584,888,17029.20,30.46,-1.00,-1.0,2429
5007,1225007,16900,-664,888,16936.33,30.46,-1.00,-1.0,2376
5010,1225010,16968,-572,948,17004.09,30.41,-1.00,-1.0,2420
5012,1225012,17116,-656,924,17153.47,30.46,-1.00,-1.0,2370
5015,1225015,16968,-704,884,17005.59,30.41,-1.00,-1.0,2420
5018,1225018,17032,-656,948,17070.97,30.46,-1.00,-1.0,2370
5023,1225023,16988,-632,892,17023.14,30.41,-1.00,-1.0,2443
5026,1225026,17176,-616,996,17215.88,30.41,-1.00,-1.0,2368
5029,1225029,17140,-592,976,17177.97,30.46,-1.00,-1.0,2366
5032,1225032,16976,-480,944,17009.00,30.32,-1.00,-1.0,2431
5034,1225034,17052,-620,1020,17093.73,30.37,-1.00,-1.0,2371
5037,1225037,17096,-588,1036,17137.45,30.46,-1.00,-1.0,2419
5040,1225040,17012,-556,964,17048.36,30.37,-1.00,-1.0,2371
5043,1225043,16996,-552,756,17021.76,30.32,-1.00,-1.0,2422
5045,1225045,17020,-648,916,17056.95,30.46,-1.00,-1.0,2372
5050,1225050,17036,-616,888,17070.25,30.37,-1.00,-1.0,2440
5053,1225053,17100,-612,908,17135.02,30.46,-1.00,-1.0,2365
5055,1225055,17032,-596,912,17066.81,30.55,-1.00,-1.0,2441
5058,1225058,17080,-616,876,17113.54,30.37,-1.00,-1.0,2377
5061,1225061,17008,-620,896,17042.87,30.37,-1.00,-1.0,2410
5064,1225064,16968,-580,996,17007.10,30.37,-1.00,-1.0,2369
5066,1225066,17052,-564,884,17084.21,30.41,-1.00,-1.0,2371
5069,1225069,17052,-564,1024,17092.03,30.41,-1.00,-1.0,2421
5072,1225072,16924,-572,960,16960.85,30.41,-1.00,-1.0,2370
5077,1225077,17048,-668,904,17085.02,30.41,-1.00,-1.0,2434
5079,1225079,16984,-640,884,17019.03,30.51,-1.00,-1.0,2373
5082,1225082,17088,-552,876,17119.34,30.41,-1.00,-1.0,2428
5085,1225085,17144,-528,980,17180.10,30.37,-1.00,-1.0,2372
5088,1225088,17044,-592,952,17080.83,30.32,-1.00,-1.0,2421
5090,1225090,17020,-576,844,17050.64,30.41,-1.00,-1.0,2368
5093,1225093,17060,-536,784,17086.41,30.41,-1.00,-1.0,2419
5096,1225096,17100,-564,988,17137.80,30.41,-1.00,-1.0,2373
5101,1225101,17076,-636,1040,17119.46,30.37,-1.00,-1.0,2434
5104,1225104,17076,-616,884,17109.96,30.32,-1.00,-1.0,2373
5106,1225106,17052,-680,964,17092.76,30.41,-1.00,-1.0,2365
5109,1225109,17096,-616,836,17127.51,30.37,-1.00,-1.0,2428
5112,1225112,17004,-712,1016,17049.20,30.37,-1.00,-1.0,2369
5115,1225115,17116,-552,876,17147.29,30.46,-1.00,-1.0,2421
5117,1225117,17008,-576,916,17042.38,30.46,-1.00,-1.0,2356
5120,1225120,16996,-608,856,17028.40,30.37,-1.00,-1.0,2419
5123,1225123,16984,-588,948,17020.60,30.37,-1.00,-1.0,2369
5128,1225128,17076,-680,856,17110.96,30.41,-1.00,-1.0,2432
5130,1225130,17068,-608,872,17101.07,30.41,-1.00,-1.0,2373
5133,1225133,17040,-680,888,17076.67,30.27,-1.00,-1.0,2428
5136,1225136,17024,-680,880,17060.29,30.41,-1.00,-1.0,2369
5139,1225139,16924,-572,828,16953.89,30.46,-1.00,-1.0,2420
5142,1225142,17044,-584,888,17077.11,30.41,-1.00,-1.0,2370
5144,1225144,17092,-620,928,17128.40,30.37,-1.00,-1.0,2365
5147,1225147,17076,-528,980,17112.25,30.46,-1.00,-1.0,2425
5150,1225150,16884,-616,740,16911.43,30.41,-1.00,-1.0,2369
5155,1225155,16980,-608,928,17016.21,30.41,-1.00,-1.0,2431
5157,1225157,16920,-584,792,16948.59,30.37,-1.00,-1.0,2367
5160,1225160,17048,-540,912,17080.91,30.41,-1.00,-1.0,2444
5163,1225163,17024,-632,976,17063.66,30.37,-1.00,-1.0,2378
5166,1225166,17004,-544,904,17036.70,30.32,-1.00,-1.0,2431
5168,1225168,17080,-644,732,17107.80,30.41,-1.00,-1.0,2371
5171,1225171,17016,-664,860,17050.65,30.51,-1.00,-1.0,2429
5174,1225174,16972,-624,908,17007.72,30.51,-1.00,-1.0,2372
5179,1225179,17096,-628,872,17129.74,30.32,-1.00,-1.0,2439
5182,1225182,17092,-612,880,17125.58,30.55,-1.00,-1.0,2366
5184,1225184,16976,-592,800,17005.15,30.32,-1.00,-1.0,2359
5187,1225187,16968,-492,1000,17004.56,30.37,-1.00,-1.0,2429
5190,1225190,17012,-656,856,17046.15,30.41,-1.00,-1.0,2370
5193,1225193,17012,-660,772,17042.29,30.46,-1.00,-1.0,2419
5195,1225195,17144,-592,892,17177.39,30.46,-1.00,-1.0,2369
5198,1225198,17096,-576,844,17126.51,30.37,-1.00,-1.0,2419
5201,1225201,16988,-600,848,17019.73,30.46,-1.00,-1.0,2370
5206,1225206,17028,-524,1000,17065.38,30.41,-1.00,-1.0,2439
5209,1225209,16952,-624,1024,16994.36,30.41,-1.00,-1.0,2366
5211,1225211,17120,-592,756,17146.91,30.41,-1.00,-1.0,2438
5214,1225214,17004,-580,772,17031.39,30.41,-1.00,-1.0,2376
5217,1225217,17052,-504,1028,17090.39,30.46,-1.00,-1.0,2409
5220,1225220,17020,-668,828,17053.22,30.32,-1.00,-1.0,2370
5222,1225222,17100,-636,828,17131.84,30.46,-1.00,-1.0,2366
5225,1225225,17048,-644,1016,17090.39,30.37,-1.00,-1.0,2419
5228,1225228,16952,-636,1024,16994.80,30.46,-1.00,-1.0,2369
5233,1225233,16944,-592,884,16977.37,30.37,-1.00,-1.0,2431
5235,1225235,17184,-540,1020,17222.71,30.46,-1.00,-1.0,2366
5238,1225238,17068,-716,952,17109.52,30.32,-1.00,-1.0,2429
5241,1225241,17064,-668,1024,17107.74,30.37,-1.00,-1.0,2370
5244,1225244,17044,-652,992,17085.29,30.41,-1.00,-1.0,2406
5246,1225246,16972,-628,912,17008.08,30.37,-1.00,-1.0,2370
5249,1225249,16968,-604,992,17007.70,30.41,-1.00,-1.0,2419
5252,1225252,16992,-528,832,17020.55,30.37,-1.00,-1.0,2369
5256,1225256,17084,-692,928,17123.17,30.37,-1.00,-1.0,2443
5259,1225259,17084,-596,764,17111.46,30.51,-1.00,-1.0,2373
5262,1225262,17044,-640,908,17080.16,30.46,-1.00,-1.0,2366
5265,1225265,17060,-604,848,17091.74,30.32,-1.00,-1.0,2428
5267,1225267,17052,-616,856,17084.58,30.46,-1.00,-1.0,2369
5270,1225270,17104,-600,820,17134.15,30.41,-1.00,-1.0,2420
5273,1225273,17028,-548,780,17054.66,30.37,-1.00,-1.0,2369
5276,1225276,17088,-492,1088,17129.67,30.41,-1.00,-1.0,2427
5279,1225279,17048,-600,1008,17088.31,30.37,-1.00,-1.0,2367
5284,1225284,17000,-676,960,17040.50,30.37,-1.00,-1.0,2431
5286,1225286,17064,-548,764,17089.88,30.37,-1.00,-1.0,2377
5289,1225289,17060,-660,824,17092.63,30.41,-1.00,-1.0,2428
5292,1225292,17088,-452,924,17118.93,30.46,-1.00,-1.0,2370
5295,1225295,17068,-680,768,17098.80,30.37,-1.00,-1.0,2428
5298,1225298,17008,-604,912,17043.14,30.37,-1.00,-1.0,2369
5300,1225300,17000,-628,892,17034.96,30.32,-1.00,-1.0,2366
5303,1225303,17084,-556,784,17111.02,30.37,-1.00,-1.0,2428
5306,1225306,17120,-600,880,17153.10,30.41,-1.00,-1.0,2377
5311,1225311,17168,-652,836,17200.71,30.37,-1.00,-1.0,2431
5314,1225314,17032,-708,872,17069.00,30.37,-1.00,-1.0,2368
5316,1225316,17020,-572,916,17054.23,30.41,-1.00,-1.0,2428
5319,1225319,17020,-600,1016,17060.85,30.41,-1.00,-1.0,2357
5322,1225322,17084,-576,808,17112.79,30.51,-1.00,-1.0,2425
5325,1225325,17016,-540,876,17047.09,30.41,-1.00,-1.0,2368
5327,1225327,16976,-584,844,17007.00,30.32,-1.00,-1.0,2421
5330,1225330,17052,-596,848,17083.47,30.32,-1.00,-1.0,2361
5335,1225335,17132,-716,864,17168.71,30.37,-1.00,-1.0,2435
5338,1225338,16920,-572,1008,16959.65,30.46,-1.00,-1.0,2372
5340,1225340,17056,-520,888,17087.02,30.41,-1.00,-1.0,2365
5343,1225343,17000,-620,800,17030.10,30.37,-1.00,-1.0,2428
5346,1225346,17084,-644,992,17124.89,30.51,-1.00,-1.0,2369
5349,1225349,17004,-588,956,17041.00,30.37,-1.00,-1.0,2419
5351,1225351,17116,-604,772,17144.04,30.32,-1.00,-1.0,2373
5354,1225354,17076,-560,960,17112.13,30.37,-1.00,-1.0,2419
5357,1225357,17060,-628,856,17093.00,30.37,-1.00,-1.0,2364
5362,1225362,17076,-576,852,17106.94,30.41,-1.00,-1.0,2437
5365,1225365,17160,-496,920,17191.80,30.51,-1.00,-1.0,2366
5367,1225367,17092,-544,888,17123.70,30.37,-1.00,-1.0,2430
5370,1225370,16952,-616,732,16978.97,30.41,-1.00,-1.0,2373
5373,1225373,16988,-668,884,17024.10,30.37,-1.00,-1.0,2422
5376,1225376,17048,-524,808,17075.18,30.41,-1.00,-1.0,2372
5378,1225378,17088,-580,972,17125.45,30.37,-1.00,-1.0,2380
5381,1225381,17088,-580,960,17124.77,30.41,-1.00,-1.0,2420
5384,1225384,17012,-604,1000,17052.07,30.46,-1.00,-1.0,2377
5389,1225389,16920,-596,740,16946.66,30.37,-1.00,-1.0,2425
5392,1225392,17152,-552,888,17183.84,30.27,-1.00,-1.0,2365
5394,1225394,17052,-576,828,17081.80,30.37,-1.00,-1.0,2429
5397,1225397,17092,-640,972,17131.57,30.46,-1.00,-1.0,2370
5400,1225400,17076,-688,972,17117.47,30.37,-1.00,-1.0,2426
5403,1225403,17152,-568,972,17188.91,30.46,-1.00,-1.0,2356
5405,1225405,17056,-632,812,17087.01,30.37,-1.00,-1.0,2420
5408,1225408,16960,-608,860,16992.67,30.37,-1.00,-1.0,2370
5413,1225413,17092,-596,784,17120.35,30.41,-1.00,-1.0,2431
5416,1225416,17052,-696,840,17086.86,30.41,-1.00,-1.0,2367
5418,1225418,17036,-672,904,17073.20,30.37,-1.00,-1.0,2365
5421,1225421,17016,-652,956,17055.30,30.46,-1.00,-1.0,2435
5424,1225424,17052,-564,952,17087.86,30.46,-1.00,-1.0,2372
5427,1225427,17056,-696,824,17090.07,30.37,-1.00,-1.0,2425
5429,1225429,17124,-672,972,17164.72,30.37,-1.00,-1.0,2370
5432,1225432,17052,-712,928,17092.07,30.51,-1.00,-1.0,2435
5435,1225435,17100,-700,988,17142.82,30.32,-1.00,-1.0,2369
5440,1225440,17072,-636,840,17104.48,30.41,-1.00,-1.0,2431
5442,1225442,16996,-596,812,17025.82,30.41,-1.00,-1.0,2374
5445,1225445,17104,-600,884,17137.34,30.37,-1.00,-1.0,2428
5448,1225448,17104,-540,1060,17145.32,30.32,-1.00,-1.0,2373
5451,1225451,17028,-648,904,17064.29,30.46,-1.00,-1.0,2427
5454,1225454,17108,-584,876,17140.37,30.32,-1.00,-1.0,2366
5456,1225456,17016,-568,796,17044.07,30.46,-1.00,-1.0,2364
5459,1225459,17004,-528,1072,17045.94,30.46,-1.00,-1.0,2419
5462,1225462,17084,-600,860,17116.15,30.51,-1.00,-1.0,2368
5467,1225467,17048,-580,908,17082.01,30.37,-1.00,-1.0,2431
5469,1225469,17088,-564,852,17118.52,30.37,-1.00,-1.0,2369
5472,1225472,17076,-616,948,17113.38,30.41,-1.00,-1.0,2444
5475,1225475,17112,-652,1016,17154.53,30.41,-1.00,-1.0,2379
5478,1225478,17068,-612,968,17106.38,30.41,-1.00,-1.0,2432
5480,1225480,17000,-692,1016,17044.39,30.41,-1.00,-1.0,2372
5483,1225483,17184,-692,864,17219.62,30.41,-1.00,-1.0,2430
5486,1225486,17044,-516,972,17079.49,30.46,-1.00,-1.0,2371
5491,1225491,17016,-576,948,17052.12,30.41,-1.00,-1.0,2435
5494,1225494,17112,-636,856,17145.20,30.32,-1.00,-1.0,2372
5497,1225497,17080,-592,1036,17121.63,30.46,-1.00,-1.0,2430
5499,1225499,17048,-568,1044,17089.38,30.41,-1.00,-1.0,2359
5502,1225502,17016,-664,876,17051.47,30.37,-1.00,-1.0,2366
5505,1225505,17000,-488,908,17031.22,30.46,-1.00,-1.0,2418
5507,1225507,17096,-616,816,17126.54,30.37,-1.00,-1.0,2369
5510,1225510,17172,-652,784,17202.25,30.41,-1.00,-1.0,2419
5513,1225513,16984,-688,812,17017.31,30.46,-1.00,-1.0,2369
5518,1225518,17060,-656,744,17088.81,30.46,-1.00,-1.0,2433
5521,1225521,17100,-604,1000,17139.86,30.37,-1.00,-1.0,2370
5524,1225524,17080,-624,920,17116.14,30.37,-1.00,-1.0,2428
5526,1225526,17024,-660,912,17061.18,30.46,-1.00,-1.0,2369
5529,1225529,17020,-676,916,17058.03,30.37,-1.00,-1.0,2418
5532,1225532,17072,-628,980,17111.63,30.37,-1.00,-1.0,2369
5535,1225535,17104,-612,960,17141.85,30.46,-1.00,-1.0,2419
5537,1225537,16996,-608,884,17029.83,30.46,-1.00,-1.0,2369
5540,1225540,17068,-612,832,17099.22,30.37,-1.00,-1.0,2366
5545,1225545,17056,-596,844,17087.27,30.37,-1.00,-1.0,2431
5548,1225548,17200,-520,924,17232.65,30.37,-1.00,-1.0,2369
5551,1225551,17028,-584,908,17062.19,30.46,-1.00,-1.0,2428
5553,1225553,17052,-612,780,17080.80,30.37,-1.00,-1.0,2369
5556,1225556,17016,-620,988,17055.93,30.41,-1.00,-1.0,2419
5559,1225559,17040,-632,948,17078.05,30.46,-1.00,-1.0,2369
5562,1225562,16944,-628,968,16983.24,30.37,-1.00,-1.0,2420
5564,1225564,16996,-676,936,17035.17,30.46,-1.00,-1.0,2369
5569,1225569,17016,-632,928,17053.00,30.37,-1.00,-1.0,2431
5572,1225572,17052,-628,804,17082.49,30.46,-1.00,-1.0,2366
5575,1225575,17024,-692,684,17051.78,30.27,-1.00,-1.0,2429
5577,1225577,17028,-632,948,17066.07,30.46,-1.00,-1.0,2373
5580,1225580,17152,-624,896,17186.72,30.41,-1.00,-1.0,2365
5583,1225583,17028,-496,896,17058.77,30.41,-1.00,-1.0,2426
5586,1225586,17076,-556,944,17111.11,30.37,-1.00,-1.0,2355
5588,1225588,17152,-672,948,17191.32,30.41,-1.00,-1.0,2420
5591,1225591,17052,-620,904,17087.20,30.41,-1.00,-1.0,2369
5596,1225596,17020,-640,896,17055.58,30.41,-1.00,-1.0,2430
5599,1225599,17068,-648,840,17100.94,30.41,-1.00,-1.0,2367
5602,1225602,16988,-512,884,17018.69,30.41,-1.00,-1.0,2428
5604,1225604,17044,-640,804,17074.95,30.51,-1.00,-1.0,2373
5607,1225607,16972,-700,704,17001.01,30.41,-1.00,-1.0,2419
5610,1225610,17136,-588,960,17172.94,30.41,-1.00,-1.0,2378
5613,1225613,17164,-680,876,17199.79,30.41,-1.00,-1.0,2419
5615,1225615,17088,-608,744,17114.99,30.41,-1.00,-1.0,2369
5618,1225618,17012,-672,964,17052.54,30.41,-1.00,-1.0,2366
5623,1225623,17116,-608,844,17147.58,30.41,-1.00,-1.0,2418
5626,1225626,17048,-680,756,17078.30,30.37,-1.00,-1.0,2369
5629,1225629,17024,-588,856,17055.65,30.32,-1.00,-1.0,2438
5632,1225632,17032,-616,880,17065.84,30.37,-1.00,-1.0,2365
5634,1225634,17080,-644,1032,17123.26,30.32,-1.00,-1.0,2420
5637,1225637,17000,-484,1040,17038.66,30.32,-1.00,-1.0,2370
5640,1225640,17000,-508,884,17030.55,30.41,-1.00,-1.0,2426
5643,1225643,17008,-640,948,17046.42,30.37,-1.00,-1.0,2369
5647,1225647,16956,-440,928,16987.07,30.32,-1.00,-1.0,2432
5650,1225650,16992,-648,868,17026.49,30.32,-1.00,-1.0,2366
5653,1225653,16988,-588,828,17018.33,30.41,-1.00,-1.0,2436
5656,1225656,17080,-592,804,17109.16,30.41,-1.00,-1.0,2368
5658,1225658,17032,-668,868,17067.18,30.37,-1.00,-1.0,2372
5661,1225661,16972,-612,852,17004.39,30.46,-1.00,-1.0,2406
5664,1225664,16976,-568,744,17001.79,30.46,-1.00,-1.0,2368
5666,1225666,17080,-704,852,17115.72,30.37,-1.00,-1.0,2427
5669,1225669,16968,-652,852,17001.88,30.37,-1.00,-1.0,2383
5674,1225674,17024,-600,868,17056.67,30.46,-1.00,-1.0,2433
5677,1225677,16980,-652,968,17020.06,30.41,-1.00,-1.0,2365
5679,1225679,16992,-528,944,17026.39,30.46,-1.00,-1.0,2428
5682,1225682,17056,-632,968,17095.13,30.41,-1.00,-1.0,2370
5685,1225685,17080,-616,872,17113.34,30.37,-1.00,-1.0,2427
5688,1225688,17040,-564,848,17070.41,30.41,-1.00,-1.0,2368
5690,1225690,17116,-688,952,17156.26,30.37,-1.00,-1.0,2419
5693,1225693,16968,-656,956,17007.57,30.41,-1.00,-1.0,2373
5696,1225696,16996,-512,1056,17036.47,30.41,-1.00,-1.0,2369
5701,1225701,17188,-604,884,17221.31,30.46,-1.00,-1.0,2445
5704,1225704,16984,-624,1020,17026.04,30.37,-1.00,-1.0,2375
5707,1225707,17168,-572,904,17201.30,30.41,-1.00,-1.0,2437
5709,1225709,17020,-592,940,17056.21,30.37,-1.00,-1.0,2382
5712,1225712,17084,-508,852,17112.77,30.41,-1.00,-1.0,2419
5715,1225715,17044,-636,1000,17085.15,30.55,-1.00,-1.0,2358
5718,1225718,16948,-592,948,16984.81,30.41,-1.00,-1.0,2428
5720,1225720,17008,-512,968,17043.22,30.37,-1.00,-1.0,2376
5725,1225725,16992,-636,1024,17034.70,30.46,-1.00,-1.0,2435
5728,1225728,17028,-532,852,17057.60,30.37,-1.00,-1.0,2362
5731,1225731,17028,-504,960,17062.48,30.41,-1.00,-1.0,2435
5734,1225734,17084,-640,1008,17125.67,30.37,-1.00,-1.0,2364
5736,1225736,17096,-684,984,17137.95,30.51,-1.00,-1.0,2367
5739,1225739,17008,-716,988,17051.71,30.41,-1.00,-1.0,2419
5742,1225742,17032,-564,1012,17071.36,30.41,-1.00,-1.0,2373
5745,1225745,17008,-688,756,17038.69,30.32,-1.00,-1.0,2419
5747,1225747,17036,-508,864,17065.46,30.41,-1.00,-1.0,2370
5752,1225752,17116,-616,880,17149.67,30.41,-1.00,-1.0,2442
5755,1225755,17088,-560,848,17118.19,30.41,-1.00,-1.0,2371
5758,1225758,17004,-508,816,17031.15,30.41,-1.00,-1.0,2437
5760,1225760,17060,-568,972,17097.11,30.41,-1.00,-1.0,2375
5763,1225763,16980,-620,924,17016.42,30.46,-1.00,-1.0,2419
5766,1225766,17032,-616,932,17068.60,30.41,-1.00,-1.0,2370
5769,1225769,17004,-636,824,17035.83,30.37,-1.00,-1.0,2423
5771,1225771,16992,-536,1064,17033.71,30.41,-1.00,-1.0,2369
5774,1225774,17036,-616,872,17069.42,30.37,-1.00,-1.0,2365
5779,1225779,17000,-612,768,17028.34,30.41,-1.00,-1.0,2438
5782,1225782,17060,-504,888,17090.53,30.41,-1.00,-1.0,2370
5785,1225785,17068,-676,992,17110.16,30.46,-1.00,-1.0,2430
5787,1225787,17064,-524,824,17091.92,30.41,-1.00,-1.0,2374
5790,1225790,17036,-644,924,17073.19,30.37,-1.00,-1.0,2420
5793,1225793,17004,-660,892,17040.17,30.51,-1.00,-1.0,2371
5796,1225796,17004,-580,888,17037.05,30.46,-1.00,-1.0,2421
5798,1225798,16996,-644,992,17037.10,30.41,-1.00,-1.0,2369
5803,1225803,16984,-580,932,17019.44,30.32,-1.00,-1.0,2440
5806,1225806,17020,-712,888,17058.02,30.41,-1.00,-1.0,2381
5809,1225809,17028,-656,960,17067.65,30.37,-1.00,-1.0,2429
5812,1225812,16944,-572,844,16974.65,30.41,-1.00,-1.0,2372
5814,1225814,17096,-780,816,17133.23,30.37,-1.00,-1.0,2352
5817,1225817,16956,-612,960,16994.18,30.37,-1.00,-1.0,2419
5820,1225820,17140,-720,980,17183.08,30.46,-1.00,-1.0,2369
5823,1225823,17056,-496,964,17090.42,30.37,-1.00,-1.0,2406
5825,1225825,16988,-604,852,17020.07,30.37,-1.00,-1.0,2369
5830,1225830,17088,-612,936,17124.55,30.37,-1.00,-1.0,2418
5833,1225833,17076,-652,912,17112.76,30.46,-1.00,-1.0,2367
5836,1225836,17088,-616,868,17121.12,30.37,-1.00,-1.0,2430
5839,1225839,17024,-612,964,17062.25,30.37,-1.00,-1.0,2366
5841,1225841,17020,-608,788,17049.08,30.37,-1.00,-1.0,2421
5844,1225844,17104,-580,876,17136.24,30.46,-1.00,-1.0,2369
5847,1225847,16984,-656,960,17023.75,30.37,-1.00,-1.0,2427
5850,1225850,17120,-436,904,17149.39,30.37,-1.00,-1.0,2368
5852,1225852,17072,-668,1028,17115.96,30.46,-1.00,-1.0,2365
5859,1225859,16924,-608,896,16958.60,30.41,-1.00,-1.0,2431
5862,1225862,17052,-704,848,17087.58,30.46,-1.00,-1.0,2366
5865,1225865,17036,-668,988,17077.70,30.41,-1.00,-1.0,2415
5867,1225867,17044,-592,1108,17090.23,30.37,-1.00,-1.0,2373
5870,1225870,16988,-628,868,17021.75,30.51,-1.00,-1.0,2419
5873,1225873,17000,-552,940,17034.91,30.37,-1.00,-1.0,2370
5876,1225876,17148,-560,876,17179.49,30.41,-1.00,-1.0,2419
5878,1225878,17184,-540,984,17220.62,30.37,-1.00,-1.0,2369
5883,1225883,17056,-628,952,17094.09,30.46,-1.00,-1.0,2433
5886,1225886,17036,-640,816,17067.54,30.46,-1.00,-1.0,2370
5889,1225889,17056,-544,752,17081.23,30.37,-1.00,-1.0,2428
5891,1225891,17036,-616,1036,17078.58,30.46,-1.00,-1.0,2369
5894,1225894,17100,-656,852,17133.78,30.41,-1.00,-1.0,2374
5897,1225897,17088,-556,832,17117.28,30.41,-1.00,-1.0,2419
5899,1225899,17108,-644,988,17148.60,30.32,-1.00,-1.0,2371
5902,1225902,17108,-684,1000,17150.85,30.46,-1.00,-1.0,2427
5905,1225905,16944,-640,908,16980.38,30.51,-1.00,-1.0,2377
5912,1225912,17128,-548,880,17159.34,30.41,-1.00,-1.0,2432
5914,1225914,17028,-596,864,17060.32,30.46,-1.00,-1.0,2365
5917,1225917,16968,-628,820,16999.41,30.41,-1.00,-1.0,2428
5920,1225920,17112,-596,884,17145.18,30.46,-1.00,-1.0,2370
5923,1225923,17056,-540,880,17087.22,30.41,-1.00,-1.0,2420
5925,1225925,17000,-604,932,17036.24,30.37,-1.00,-1.0,2369
5928,1225928,17020,-732,768,17053.04,30.41,-1.00,-1.0,2419
5931,1225931,17060,-544,888,17091.75,30.46,-1.00,-1.0,2369
5933,1225933,17076,-680,1016,17119.71,30.32,-1.00,-1.0,2368
5938,1225938,17072,-616,908,17107.22,30.41,-1.00,-1.0,2431
5941,1225941,16976,-632,704,17002.34,30.32,-1.00,-1.0,2366
5944,1225944,17044,-660,720,17071.96,30.41,-1.00,-1.0,2436
5947,1225947,16964,-632,980,17004.03,30.41,-1.00,-1.0,2369
5949,1225949,17020,-668,844,17054.00,30.37,-1.00,-1.0,2423
5952,1225952,17072,-644,868,17106.18,30.41,-1.00,-1.0,2369
5955,1225955,17088,-616,1108,17134.96,30.46,-1.00,-1.0,2428
5958,1225958,17056,-752,876,17095.03,30.41,-1.00,-1.0,2368
5963,1225963,17084,-660,904,17120.63,30.41,-1.00,-1.0,2431
5965,1225965,17132,-556,828,17161.01,30.37,-1.00,-1.0,2366
5968,1225968,17028,-584,952,17064.59,30.41,-1.00,-1.0,2432
5971,1225971,17080,-572,888,17112.63,30.32,-1.00,-1.0,2370
5973,1225973,17060,-536,816,17087.91,30.37,-1.00,-1.0,2371
5976,1225976,17000,-716,712,17029.96,30.46,-1.00,-1.0,2428
5979,1225979,17088,-692,932,17127.38,30.37,-1.00,-1.0,2378
5982,1225982,17136,-592,908,17170.25,30.41,-1.00,-1.0,2438
5984,1225984,17036,-664,816,17068.45,30.37,-1.00,-1.0,2376
5989,1225989,17040,-616,816,17070.64,30.37,-1.00,-1.0,2442
5992,1225992,16900,-740,860,16938.04,30.46,-1.00,-1.0,2365
5995,1225995,16992,-472,812,17017.94,30.46,-1.00,-1.0,2436
5998,1225998,17016,-524,940,17050.00,30.46,-1.00,-1.0,2368
6000,1226000,17112,-572,920,17146.26,30.41,-1.00,-1.0,2429
6003,1226003,17036,-632,900,17071.46,30.37,-1.00,-1.0,2377
6006,1226006,17028,-588,892,17061.48,30.32,-1.00,-1.0,2406
6009,1226009,17040,-548,796,17067.38,30.46,-1.00,-1.0,2369
6011,1226011,16900,-648,860,16934.27,30.41,-1.00,-1.0,2366
6016,1226016,17084,-636,904,17119.72,30.46,-1.00,-1.0,2439
6019,1226019,16976,-628,844,17008.56,30.37,-1.00,-1.0,2370
6022,1226022,17128,-696,872,17164.30,30.41,-1.00,-1.0,2437
6024,1226024,17136,-604,916,17171.09,30.51,-1.00,-1.0,2379
6027,1226027,17024,-676,720,17052.62,30.51,-1.00,-1.0,2419
6030,1226030,17224,-528,956,17258.59,30.41,-1.00,-1.0,2371
6033,1226033,17064,-588,920,17098.90,30.41,-1.00,-1.0,2421
6035,1226035,17132,-644,804,17162.94,30.32,-1.00,-1.0,2357
6040,1226040,17088,-556,952,17123.53,30.41,-1.00,-1.0,2440
6043,1226043,17140,-580,932,17175.12,30.46,-1.00,-1.0,2381
6046,1226046,17084,-556,992,17121.81,30.41,-1.00,-1.0,2429
6049,1226049,17020,-708,908,17058.90,30.32,-1.00,-1.0,2370
6051,1226051,16980,-584,888,17013.23,30.37,-1.00,-1.0,2366
6054,1226054,17116,-516,952,17150.22,30.46,-1.00,-1.0,2419
6057,1226057,17120,-528,836,17148.53,30.46,-1.00,-1.0,2369
6060,1226060,17092,-636,956,17130.53,30.46,-1.00,-1.0,2419
6062,1226062,17084,-636,792,17114.17,30.37,-1.00,-1.0,2357
6067,1226067,16956,-596,836,16987.05,30.37,-1.00,-1.0,2418
6070,1226070,17016,-656,864,17050.54,30.51,-1.00,-1.0,2368
6073,1226073,17096,-620,964,17134.38,30.37,-1.00,-1.0,2430
6076,1226076,17052,-600,992,17091.37,30.46,-1.00,-1.0,2365
6078,1226078,16992,-592,988,17030.99,30.46,-1.00,-1.0,2421
6081,1226081,16956,-588,1000,16995.64,30.41,-1.00,-1.0,2370
6084,1226084,16992,-560,944,17027.41,30.37,-1.00,-1.0,2425
6087,1226087,17008,-568,944,17043.64,30.46,-1.00,-1.0,2368
6089,1226089,17008,-596,832,17038.77,30.37,-1.00,-1.0,2365
6094,1226094,17060,-532,1016,17098.51,30.37,-1.00,-1.0,2431
6096,1226096,17064,-500,812,17090.62,30.51,-1.00,-1.0,2373
6099,1226099,17008,-540,780,17034.44,30.41,-1.00,-1.0,2460
6102,1226102,17028,-620,824,17059.20,30.37,-1.00,-1.0,2376
6105,1226105,16976,-600,892,17010.00,30.51,-1.00,-1.0,2421
6108,1226108,17000,-568,860,17031.21,30.51,-1.00,-1.0,2368
6110,1226110,17020,-616,968,17058.63,30.32,-1.00,-1.0,2431
6113,1226113,17028,-672,856,17062.74,30.41,-1.00,-1.0,2382
