timestamp_ms,global_ms,accel_x,accel_y,accel_z,accel_mag,temp_c,voltage,soc,loop_us
2,305002,13632,-28,1192,13684.04,29.47,-1.00,-1.0,2494
9,305009,12588,-944,496,12633.09,29.47,-1.00,-1.0,2454
11,305011,12588,-904,864,12649.96,29.47,-1.00,-1.0,2367
14,305014,12452,-368,1172,12512.45,29.42,-1.00,-1.0,2369
17,305017,10884,464,608,10910.84,29.42,-1.00,-1.0,2421
20,305020,9184,-224,712,9214.28,29.52,-1.00,-1.0,2370
22,305022,8712,-532,480,8741.42,29.38,-1.00,-1.0,2421
25,305025,9192,28,896,9235.61,29.42,-1.00,-1.0,2372
28,305028,9720,52,1116,9784.00,29.33,-1.00,-1.0,2421
31,305031,9304,864,808,9378.90,29.42,-1.00,-1.0,2372
33,305033,10520,1064,856,10608.26,29.47,-1.00,-1.0,2367
38,305038,12128,728,28,12149.86,29.42,-1.00,-1.0,2442
41,305041,12504,576,200,12518.86,29.42,-1.00,-1.0,2369
43,305043,13296,544,268,13309.82,29.38,-1.00,-1.0,2423
46,305046,13552,652,540,13578.42,29.42,-1.00,-1.0,2357
49,305049,14352,688,608,14381.34,29.52,-1.00,-1.0,2422
52,305052,15204,472,608,15223.47,29.42,-1.00,-1.0,2373
54,305054,16216,-16,644,16228.79,29.47,-1.00,-1.0,2367
57,305057,16160,-112,836,16182.00,29.33,-1.00,-1.0,2421
60,305060,16212,36,1052,16246.14,29.47,-1.00,-1.0,2373
65,305065,16516,-416,404,16526.18,29.57,-1.00,-1.0,2440
67,305067,16836,-16,1256,16882.79,29.38,-1.00,-1.0,2370
70,305070,16856,268,1176,16899.10,29.47,-1.00,-1.0,2420
73,305073,16932,-168,448,16938.76,29.47,-1.00,-1.0,2373
75,305075,17244,56,1104,17279.39,29.42,-1.00,-1.0,2368
78,305078,16900,224,1172,16942.07,29.42,-1.00,-1.0,2432
81,305081,16840,-36,856,16861.78,29.42,-1.00,-1.0,2369
84,305084,17300,-336,564,17312.45,29.42,-1.00,-1.0,2429
86,305086,16952,-172,1044,16984.99,29.33,-1.00,-1.0,2370
91,305091,16988,-300,712,17005.56,29.52,-1.00,-1.0,2441
94,305094,17276,-212,676,17290.52,29.42,-1.00,-1.0,2367
97,305097,17396,-364,484,17406.54,29.33,-1.00,-1.0,2420
100,305100,16656,-448,512,16669.89,29.42,-1.00,-1.0,2377
102,305102,17116,-336,636,17131.11,29.38,-1.00,-1.0,2375
105,305105,17248,-348,720,17266.53,29.47,-1.00,-1.0,2420
108,305108,16600,-392,656,16617.58,29.42,-1.00,-1.0,2359
111,305111,16184,-1076,900,16244.68,29.38,-1.00,-1.0,2432
113,305113,15696,-1372,1240,15804.57,29.38,-1.00,-1.0,2377
118,305118,16664,-528,1428,16733.41,29.47,-1.00,-1.0,2454
121,305121,16732,-824,688,16766.40,29.42,-1.00,-1.0,2371
124,305124,16772,-284,1024,16805.63,29.42,-1.00,-1.0,2423
126,305126,16852,-312,1012,16885.24,29.42,-1.00,-1.0,2365
129,305129,16840,60,808,16859.48,29.38,-1.00,-1.0,2366
132,305132,16952,44,824,16972.07,29.42,-1.00,-1.0,2420
135,305135,17256,44,888,17278.89,29.38,-1.00,-1.0,2370
137,305137,17148,-124,1136,17186.04,29.42,-1.00,-1.0,2421
140,305140,17000,-740,920,17040.95,29.42,-1.00,-1.0,2369
145,305145,17176,-88,1420,17234.82,29.33,-1.00,-1.0,2440
148,305148,17856,-176,796,17874.60,29.42,-1.00,-1.0,2369
151,305151,18924,-296,92,18926.54,29.42,-1.00,-1.0,2428
153,305153,19228,676,180,19240.72,29.42,-1.00,-1.0,2368
156,305156,17768,200,860,17789.92,29.47,-1.00,-1.0,2374
159,305159,17568,8,1044,17598.99,29.38,-1.00,-1.0,2410
161,305161,17184,-164,1084,17218.94,29.38,-1.00,-1.0,2369
164,305164,16988,24,1184,17029.23,29.38,-1.00,-1.0,2428
167,305167,16952,-460,832,16978.64,29.52,-1.00,-1.0,2369
172,305172,16888,0,840,16908.88,29.42,-1.00,-1.0,2444
175,305175,17144,256,960,17172.77,29.42,-1.00,-1.0,2367
178,305178,17160,-136,1064,17193.49,29.38,-1.00,-1.0,2370
180,305180,17000,64,660,17012.93,29.47,-1.00,-1.0,2423
183,305183,17220,-428,932,17250.51,29.38,-1.00,-1.0,2384
186,305186,16992,-460,772,17015.75,29.42,-1.00,-1.0,2420
189,305189,17172,-940,1028,17228.41,29.38,-1.00,-1.0,2370
191,305191,17264,-620,892,17298.14,29.52,-1.00,-1.0,2414
194,305194,16824,-276,1092,16861.66,29.38,-1.00,-1.0,2372
199,305199,16640,-876,1308,16714.30,29.47,-1.00,-1.0,2441
202,305202,15608,-848,1756,15729.35,29.47,-1.00,-1.0,2366
205,305205,14840,-1732,3108,15260.57,29.38,-1.00,-1.0,2429
207,305207,15744,-1548,2436,16006.37,29.57,-1.00,-1.0,2368
210,305210,15904,-1916,2084,16153.99,29.47,-1.00,-1.0,2354
213,305213,16412,-1920,1556,16597.03,29.42,-1.00,-1.0,2423
216,305216,15796,-4056,2764,16540.99,29.47,-1.00,-1.0,2372
218,305218,15468,-3488,2444,16043.64,29.42,-1.00,-1.0,2420
221,305221,15632,-4280,3512,16583.48,29.47,-1.00,-1.0,2379
226,305226,14100,-9648,4364,17633.45,29.42,-1.00,-1.0,2440
229,305229,11684,-16352,8328,21754.53,29.42,-1.00,-1.0,2369
232,305232,7460,-29944,13308,33606.51,29.42,-1.00,-1.0,2422
234,305234,2068,-32768,22124,39591.54,29.42,-1.00,-1.0,2369
237,305237,-10824,-32768,32767,nan,29.42,-1.00,-1.0,2409
240,305240,-32768,-32768,32767,nan,29.42,-1.00,-1.0,2351
242,305242,-32768,-32768,32767,nan,29.52,-1.00,-1.0,2350
245,305245,32767,32767,-32768,nan,29.33,-1.00,-1.0,2407
248,305248,32767,32767,-32768,nan,29.42,-1.00,-1.0,2358
253,305253,-7644,17444,-3320,19332.52,29.47,-1.00,-1.0,2435
256,305256,-30120,-10480,28732,42925.20,29.42,-1.00,-1.0,2368
258,305258,32767,-10060,-6448,34877.74,29.47,-1.00,-1.0,2420
261,305261,29556,5996,-4152,30442.54,29.42,-1.00,-1.0,2356
264,305264,16908,4972,212,17625.16,29.47,-1.00,-1.0,2418
267,305267,18800,1300,248,18846.53,29.33,-1.00,-1.0,2369
269,305269,14676,1780,896,14810.68,29.38,-1.00,-1.0,2419
272,305272,16452,892,-52,16476.25,29.42,-1.00,-1.0,2377
275,305275,17276,556,1048,17316.69,29.42,-1.00,-1.0,2370
280,305280,17100,464,576,17115.99,29.42,-1.00,-1.0,2447
283,305283,16628,1768,1048,16754.54,29.33,-1.00,-1.0,2374
286,305286,17384,2184,96,17520.92,29.42,-1.00,-1.0,2419
288,305288,16764,1268,-728,16827.64,29.42,-1.00,-1.0,2369
291,305291,17080,968,-392,17111.90,29.42,-1.00,-1.0,2427
294,305294,17132,1304,388,17185.94,29.42,-1.00,-1.0,2388
297,305297,16236,1660,244,16322.46,29.52,-1.00,-1.0,2419
300,305300,16868,1684,-196,16952.98,29.42,-1.00,-1.0,2370
302,305302,16836,620,-148,16848.06,29.42,-1.00,-1.0,2370
307,305307,17784,1248,-24,17827.75,29.42,-1.00,-1.0,2449
310,305310,16436,824,-360,16460.58,29.42,-1.00,-1.0,2373
313,305313,17060,908,-324,17087.22,29.47,-1.00,-1.0,2422
316,305316,17052,844,-96,17073.14,29.52,-1.00,-1.0,2371
318,305318,16568,904,-312,16595.58,29.38,-1.00,-1.0,2422
321,305321,16836,244,-144,16838.38,29.42,-1.00,-1.0,2372
324,305324,16648,-192,652,16661.87,29.38,-1.00,-1.0,2419
327,305327,16500,-452,540,16515.02,29.42,-1.00,-1.0,2370
329,305329,15952,-1824,452,16062.30,29.47,-1.00,-1.0,2367
334,305334,14824,-4876,1408,15668.72,29.47,-1.00,-1.0,2442
337,305337,13400,-9368,3044,16630.86,29.42,-1.00,-1.0,2369
340,305340,13348,-19520,7264,24737.93,29.47,-1.00,-1.0,2420
343,305343,12076,-32768,22084,41319.18,29.42,-1.00,-1.0,2370
345,305345,15884,-32768,32767,nan,29.47,-1.00,-1.0,2410
348,305348,15460,-32768,32767,nan,29.42,-1.00,-1.0,2359
351,305351,19788,32767,32767,nan,29.42,-1.00,-1.0,2392
353,305353,-32768,32767,-1136,nan,29.52,-1.00,-1.0,2350
358,305358,-32768,3264,32767,nan,29.47,-1.00,-1.0,2423
361,305361,844,-9188,-32768,34042.23,29.42,-1.00,-1.0,2357
364,305364,20536,-10704,11524,25867.07,29.38,-1.00,-1.0,2362
366,305366,27344,-21952,32767,nan,29.42,-1.00,-1.0,2412
369,305369,32767,16216,17920,40715.62,29.47,-1.00,-1.0,2358
372,305372,20196,-200,10024,22547.71,29.38,-1.00,-1.0,2414
375,305375,16604,-2972,-6608,18116.05,29.42,-1.00,-1.0,2358
377,305377,18244,3216,10856,21471.82,29.42,-1.00,-1.0,2414
380,305380,15860,-1476,-816,15949.42,29.47,-1.00,-1.0,2344
385,305385,17332,908,-468,17362.08,29.38,-1.00,-1.0,2440
388,305388,16532,-2036,1188,16699.21,29.47,-1.00,-1.0,2359
391,305391,16648,-1320,-576,16710.18,29.47,-1.00,-1.0,2416
394,305394,17000,-336,1024,17034.13,29.42,-1.00,-1.0,2359
396,305396,17296,-188,1364,17350.72,29.47,-1.00,-1.0,2403
399,305399,17060,432,1148,17104.04,29.52,-1.00,-1.0,2373
402,305402,16996,-128,1024,17027.30,29.38,-1.00,-1.0,2364
404,305404,17324,-612,736,17350.42,29.52,-1.00,-1.0,2419
407,305407,17208,-544,328,17219.72,29.52,-1.00,-1.0,2369
412,305412,16864,-588,296,16876.84,29.42,-1.00,-1.0,2440
415,305415,17048,-496,404,17060.00,29.47,-1.00,-1.0,2366
418,305418,17144,-356,840,17168.26,29.52,-1.00,-1.0,2421
421,305421,17080,-412,740,17100.99,29.47,-1.00,-1.0,2370
423,305423,17088,-548,920,17121.52,29.52,-1.00,-1.0,2419
426,305426,16960,-416,712,16980.04,29.33,-1.00,-1.0,2369
429,305429,17060,-560,344,17072.65,29.42,-1.00,-1.0,2375
432,305432,17164,-440,984,17197.81,29.47,-1.00,-1.0,2432
434,305434,17124,-724,536,17147.68,29.52,-1.00,-1.0,2368
439,305439,17088,-712,528,17110.97,29.47,-1.00,-1.0,2450
442,305442,17244,-748,552,17269.04,29.47,-1.00,-1.0,2378
445,305445,17204,-772,760,17238.07,29.38,-1.00,-1.0,2423
448,305448,17100,-648,844,17133.07,29.42,-1.00,-1.0,2371
450,305450,17076,-516,1024,17114.46,29.47,-1.00,-1.0,2426
453,305453,16988,-600,932,17024.12,29.38,-1.00,-1.0,2381
456,305456,16888,-712,796,16921.73,29.33,-1.00,-1.0,2367
459,305459,16836,-504,824,16863.69,29.38,-1.00,-1.0,2434
462,305462,16988,-612,848,17020.16,29.42,-1.00,-1.0,2377
466,305466,16980,-616,868,17013.33,29.42,-1.00,-1.0,2439
469,305469,17036,-464,652,17054.79,29.33,-1.00,-1.0,2364
472,305472,17188,-796,640,17218.32,29.42,-1.00,-1.0,2426
474,305474,17072,-940,528,17106.01,29.42,-1.00,-1.0,2365
477,305477,17092,-504,768,17116.67,29.33,-1.00,-1.0,2421
480,305480,17040,-516,736,17063.69,29.42,-1.00,-1.0,2366
483,305483,17032,-476,684,17052.37,29.38,-1.00,-1.0,2369
486,305486,16904,-452,580,16919.99,29.42,-1.00,-1.0,2423
489,305489,17020,-728,592,17045.85,29.47,-1.00,-1.0,2372
494,305494,16972,-480,752,16995.43,29.38,-1.00,-1.0,2444
496,305496,17012,-496,804,17038.21,29.47,-1.00,-1.0,2369
499,305499,17048,-632,624,17071.12,29.38,-1.00,-1.0,2429
502,305502,17008,-644,564,17029.53,29.47,-1.00,-1.0,2373
505,305505,17008,-488,636,17026.88,29.38,-1.00,-1.0,2431
507,305507,17020,-560,592,17039.50,29.47,-1.00,-1.0,2370
510,305510,16980,-668,680,17006.73,29.42,-1.00,-1.0,2369
513,305513,17020,-544,596,17039.12,29.52,-1.00,-1.0,2426
516,305516,17000,-396,688,17018.52,29.42,-1.00,-1.0,2369
521,305521,16852,-460,728,16873.99,29.47,-1.00,-1.0,2444
523,305523,17044,-468,720,17065.62,29.38,-1.00,-1.0,2373
526,305526,16988,-564,652,17009.86,29.42,-1.00,-1.0,2419
529,305529,17104,-496,856,17132.59,29.47,-1.00,-1.0,2369
532,305532,17144,-444,844,17170.50,29.42,-1.00,-1.0,2428
534,305534,17072,-516,748,17096.17,29.47,-1.00,-1.0,2374
537,305537,17108,-544,764,17133.69,29.42,-1.00,-1.0,2366
540,305540,17044,-492,880,17073.79,29.38,-1.00,-1.0,2426
543,305543,17000,-484,856,17028.42,29.42,-1.00,-1.0,2366
548,305548,16932,-516,800,16958.74,29.42,-1.00,-1.0,2445
550,305550,17080,-560,744,17105.37,29.52,-1.00,-1.0,2370
553,305553,17088,-520,764,17112.97,29.52,-1.00,-1.0,2420
556,305556,17088,-632,796,17118.20,29.42,-1.00,-1.0,2368
559,305559,17036,-520,872,17066.23,29.42,-1.00,-1.0,2420
561,305561,16992,-600,668,17015.71,29.42,-1.00,-1.0,2375
564,305564,17112,-644,660,17136.83,29.38,-1.00,-1.0,2366
567,305567,17072,-580,780,17099.65,29.38,-1.00,-1.0,2426
570,305570,17020,-572,920,17054.44,29.42,-1.00,-1.0,2365
575,305575,16972,-540,704,16995.18,29.33,-1.00,-1.0,2439
577,305577,17100,-568,900,17133.09,29.52,-1.00,-1.0,2369
580,305580,17052,-568,820,17081.15,29.42,-1.00,-1.0,2419
583,305583,17052,-568,436,17067.03,29.42,-1.00,-1.0,2356
586,305586,17056,-572,800,17084.33,29.33,-1.00,-1.0,2420
588,305588,17104,-572,680,17127.07,29.33,-1.00,-1.0,2373
591,305591,17092,-536,608,17111.21,29.38,-1.00,-1.0,2365
594,305594,17284,-476,1172,17330.23,29.47,-1.00,-1.0,2426
597,305597,17484,-484,808,17509.35,29.47,-1.00,-1.0,2367
602,305602,15128,-2844,-3772,15848.43,29.38,-1.00,-1.0,2440
604,305604,16244,48,1628,16325.45,29.52,-1.00,-1.0,2350
607,305607,17020,-152,1084,17055.16,29.38,-1.00,-1.0,2419
610,305610,17140,-672,892,17176.35,29.42,-1.00,-1.0,2368
613,305613,17184,-556,1100,17228.14,29.47,-1.00,-1.0,2425
615,305615,16880,-888,-128,16903.83,29.42,-1.00,-1.0,2370
618,305618,16908,-604,608,16929.71,29.28,-1.00,-1.0,2419
621,305621,17060,-460,712,17081.05,29.42,-1.00,-1.0,2368
624,305624,17088,-612,632,17110.63,29.38,-1.00,-1.0,2373
629,305629,17000,-516,668,17020.94,29.47,-1.00,-1.0,2445
631,305631,16964,-512,596,16982.19,29.42,-1.00,-1.0,2362
634,305634,17100,-524,696,17122.18,29.38,-1.00,-1.0,2420
637,305637,16996,-472,636,17014.44,29.47,-1.00,-1.0,2366
640,305640,17044,-608,844,17075.71,29.38,-1.00,-1.0,2426
642,305642,16892,-576,752,16918.54,29.42,-1.00,-1.0,2365
645,305645,17036,-560,568,17054.66,29.38,-1.00,-1.0,2418
648,305648,17036,-532,756,17061.06,29.38,-1.00,-1.0,2368
651,305651,17132,-608,628,17154.29,29.38,-1.00,-1.0,2370
656,305656,16976,-508,808,17002.81,29.42,-1.00,-1.0,2439
658,305658,17064,-532,712,17087.13,29.42,-1.00,-1.0,2364
661,305661,17052,-556,644,17073.21,29.42,-1.00,-1.0,2435
664,305664,17068,-584,712,17092.82,29.52,-1.00,-1.0,2379
667,305667,16984,-492,804,17010.14,29.42,-1.00,-1.0,2430
669,305669,17044,-508,712,17066.43,29.42,-1.00,-1.0,2373
672,305672,17068,-588,664,17091.03,29.47,-1.00,-1.0,2429
675,305675,17052,-548,824,17080.69,29.42,-1.00,-1.0,2377
678,305678,17092,-552,844,17121.73,29.42,-1.00,-1.0,2377
682,305682,17000,-668,848,17034.24,29.38,-1.00,-1.0,2439
685,305685,17116,-604,876,17149.04,29.38,-1.00,-1.0,2367
688,305688,17084,-604,768,17111.92,29.47,-1.00,-1.0,2419
691,305691,17100,-516,744,17123.95,29.38,-1.00,-1.0,2370
693,305693,17036,-480,684,17056.48,29.47,-1.00,-1.0,2419
696,305696,17048,-512,804,17074.63,29.38,-1.00,-1.0,2369
699,305699,17092,-576,652,17114.13,29.47,-1.00,-1.0,2419
702,305702,17124,-496,708,17145.81,29.42,-1.00,-1.0,2377
705,305705,17080,-520,760,17104.81,29.42,-1.00,-1.0,2375
710,305710,17036,-600,672,17059.80,29.42,-1.00,-1.0,2442
712,305712,17008,-556,548,17025.91,29.42,-1.00,-1.0,2366
715,305715,17104,-544,700,17126.96,29.42,-1.00,-1.0,2422
718,305718,17056,-640,548,17076.80,29.42,-1.00,-1.0,2371
721,305721,17080,-692,772,17111.44,29.42,-1.00,-1.0,2426
723,305723,17112,-488,712,17133.76,29.42,-1.00,-1.0,2356
726,305726,17004,-696,704,17032.79,29.42,-1.00,-1.0,2421
729,305729,17212,-536,664,17233.14,29.42,-1.00,-1.0,2369
732,305732,17108,-508,652,17127.96,29.47,-1.00,-1.0,2371
737,305737,16996,-552,672,17018.23,29.52,-1.00,-1.0,2446
739,305739,17052,-716,796,17085.58,29.42,-1.00,-1.0,2368
742,305742,17020,-716,932,17060.53,29.42,-1.00,-1.0,2432
745,305745,16968,-656,664,16993.65,29.42,-1.00,-1.0,2369
748,305748,17056,-604,824,17086.57,29.57,-1.00,-1.0,2428
750,305750,17080,-716,624,17106.38,29.42,-1.00,-1.0,2369
753,305753,16984,-556,708,17007.84,29.52,-1.00,-1.0,2430
756,305756,16956,-596,804,16985.51,29.52,-1.00,-1.0,2370
759,305759,16932,-700,640,16958.54,29.38,-1.00,-1.0,2371
764,305764,17096,-656,648,17120.85,29.47,-1.00,-1.0,2448
766,305766,17072,-676,784,17103.36,29.47,-1.00,-1.0,2367
769,305769,16992,-636,740,17019.99,29.47,-1.00,-1.0,2428
772,305772,17032,-672,700,17059.62,29.38,-1.00,-1.0,2377
775,305775,17040,-544,752,17065.26,29.38,-1.00,-1.0,2406
777,305777,17024,-648,800,17055.10,29.38,-1.00,-1.0,2370
780,305780,17052,-764,628,17080.65,29.47,-1.00,-1.0,2428
783,305783,17056,-596,732,17082.10,29.38,-1.00,-1.0,2377
786,305786,17096,-488,728,17118.45,29.38,-1.00,-1.0,2368
791,305791,17080,-512,676,17101.04,29.47,-1.00,-1.0,2442
793,305793,16980,-592,644,17002.52,29.38,-1.00,-1.0,2371
796,305796,17064,-504,712,17086.28,29.38,-1.00,-1.0,2427
799,305799,17048,-632,652,17072.17,29.47,-1.00,-1.0,2384
802,305802,17112,-552,740,17136.88,29.42,-1.00,-1.0,2421
805,305805,17000,-740,432,17021.58,29.47,-1.00,-1.0,2373
807,305807,16948,-568,624,16968.99,29.42,-1.00,-1.0,2421
810,305810,16880,-612,636,16903.06,29.38,-1.00,-1.0,2378
813,305813,17200,-644,752,17228.47,29.42,-1.00,-1.0,2356
818,305818,17016,-596,736,17042.33,29.38,-1.00,-1.0,2442
821,305821,16980,-584,944,17016.24,29.38,-1.00,-1.0,2373
823,305823,17008,-544,704,17031.25,29.52,-1.00,-1.0,2421
826,305826,17064,-532,756,17089.02,29.47,-1.00,-1.0,2384
829,305829,16880,-680,484,16900.62,29.52,-1.00,-1.0,2419
832,305832,17052,-612,900,17086.70,29.57,-1.00,-1.0,2370
834,305834,17128,-576,908,17161.72,29.42,-1.00,-1.0,2421
837,305837,16980,-708,548,17003.59,29.38,-1.00,-1.0,2377
840,305840,17020,-652,756,17049.25,29.42,-1.00,-1.0,2367
845,305845,17060,-572,764,17086.68,29.42,-1.00,-1.0,2442
848,305848,17096,-732,808,17130.73,29.42,-1.00,-1.0,2369
850,305850,17008,-624,728,17035.01,29.42,-1.00,-1.0,2419
853,305853,17024,-596,692,17048.48,29.52,-1.00,-1.0,2369
856,305856,17060,-596,668,17083.47,29.52,-1.00,-1.0,2418
859,305859,17024,-652,704,17051.02,29.42,-1.00,-1.0,2371
861,305861,17024,-584,640,17046.03,29.61,-1.00,-1.0,2419
864,305864,17104,-604,640,17126.62,29.42,-1.00,-1.0,2372
867,305867,17032,-632,648,17056.04,29.47,-1.00,-1.0,2367
872,305872,17040,-612,680,17064.54,29.47,-1.00,-1.0,2442
874,305874,17108,-668,800,17139.72,29.57,-1.00,-1.0,2353
877,305877,17012,-652,876,17047.01,29.38,-1.00,-1.0,2421
880,305880,17044,-496,752,17067.79,29.38,-1.00,-1.0,2370
883,305883,17024,-600,764,17051.69,29.38,-1.00,-1.0,2429
885,305885,17008,-668,680,17034.69,29.38,-1.00,-1.0,2368
888,305888,17108,-588,668,17131.13,29.38,-1.00,-1.0,2419
891,305891,17004,-652,724,17031.89,29.47,-1.00,-1.0,2370
894,305894,16984,-712,696,17013.16,29.47,-1.00,-1.0,2368
899,305899,17036,-604,812,17066.03,29.42,-1.00,-1.0,2442
901,305901,17072,-536,712,17095.25,29.52,-1.00,-1.0,2373
904,305904,17052,-540,692,17074.58,29.42,-1.00,-1.0,2420
907,305907,17104,-668,768,17134.26,29.42,-1.00,-1.0,2372
910,305910,17056,-612,576,17076.69,29.47,-1.00,-1.0,2421
912,305912,17000,-576,760,17026.72,29.42,-1.00,-1.0,2368
915,305915,17092,-628,780,17121.31,29.42,-1.00,-1.0,2419
918,305918,17036,-640,608,17058.86,29.47,-1.00,-1.0,2369
923,305923,17028,-616,748,17055.55,29.47,-1.00,-1.0,2440
926,305926,16988,-588,684,17011.93,29.38,-1.00,-1.0,2369
928,305928,16960,-488,780,16984.94,29.42,-1.00,-1.0,2377
931,305931,16900,-608,748,16927.47,29.42,-1.00,-1.0,2419
934,305934,16992,-644,784,17022.26,29.42,-1.00,-1.0,2376
937,305937,17036,-628,660,17060.34,29.52,-1.00,-1.0,2425
939,305939,17128,-516,592,17145.99,29.42,-1.00,-1.0,2379
942,305942,16980,-536,888,17011.65,29.42,-1.00,-1.0,2419
945,305945,17064,-592,856,17095.71,29.42,-1.00,-1.0,2377
950,305950,16920,-492,760,16944.21,29.42,-1.00,-1.0,2439
953,305953,16964,-536,832,16992.85,29.47,-1.00,-1.0,2376
955,305955,17028,-496,1000,17064.55,29.42,-1.00,-1.0,2373
958,305958,17004,-688,836,17038.44,29.38,-1.00,-1.0,2419
961,305961,16928,-552,760,16954.04,29.42,-1.00,-1.0,2358
964,305964,16932,-500,760,16956.42,29.47,-1.00,-1.0,2420
966,305966,16972,-576,748,16998.24,29.42,-1.00,-1.0,2373
969,305969,16952,-588,736,16978.15,29.38,-1.00,-1.0,2419
972,305972,16992,-500,600,17009.94,29.33,-1.00,-1.0,2384
977,305977,17024,-644,740,17052.24,29.52,-1.00,-1.0,2455
980,305980,16924,-616,840,16956.03,29.33,-1.00,-1.0,2376
982,305982,16948,-564,572,16967.03,29.38,-1.00,-1.0,2351
985,305985,16996,-508,760,17020.57,29.38,-1.00,-1.0,2419
988,305988,16972,-544,712,16995.64,29.38,-1.00,-1.0,2370
991,305991,16988,-476,736,17010.60,29.38,-1.00,-1.0,2421
993,305993,16968,-472,872,16996.95,29.38,-1.00,-1.0,2373
996,305996,17076,-540,720,17099.70,29.47,-1.00,-1.0,2415
999,305999,17108,-484,812,17134.10,29.52,-1.00,-1.0,2372
1004,306004,16948,-608,696,16973.18,29.42,-1.00,-1.0,2454
1007,306007,16952,-500,732,16975.16,29.42,-1.00,-1.0,2375
1009,306009,17024,-516,908,17056.00,29.47,-1.00,-1.0,2366
1012,306012,16908,-568,816,16937.21,29.42,-1.00,-1.0,2419
1015,306015,16968,-576,772,16995.32,29.47,-1.00,-1.0,2357
1018,306018,16856,-488,732,16878.94,29.42,-1.00,-1.0,2427
1020,306020,16984,-628,716,17010.68,29.47,-1.00,-1.0,2369
1023,306023,16880,-664,724,16908.56,29.42,-1.00,-1.0,2422
1026,306026,17004,-512,848,17032.83,29.38,-1.00,-1.0,2371
1031,306031,17036,-440,748,17058.09,29.47,-1.00,-1.0,2449
1034,306034,16924,-460,628,16941.89,29.47,-1.00,-1.0,2355
1037,306037,16856,-504,880,16886.48,29.57,-1.00,-1.0,2428
1039,306039,16964,-492,684,16984.91,29.38,-1.00,-1.0,2379
1042,306042,16924,-492,744,16947.49,29.42,-1.00,-1.0,2366
1045,306045,16964,-532,744,16988.64,29.42,-1.00,-1.0,2421
1047,306047,16936,-588,644,16958.44,29.42,-1.00,-1.0,2368
1050,306050,17044,-676,700,17071.76,29.42,-1.00,-1.0,2421
1053,306053,17040,-548,776,17066.46,29.47,-1.00,-1.0,2370
1058,306058,17064,-624,740,17091.43,29.38,-1.00,-1.0,2448
1061,306061,17008,-544,816,17036.25,29.47,-1.00,-1.0,2368
1064,306064,17044,-540,724,17067.91,29.42,-1.00,-1.0,2420
1066,306066,17044,-560,740,17069.25,29.38,-1.00,-1.0,2374
1069,306069,17020,-672,864,17055.16,29.42,-1.00,-1.0,2419
1072,306072,16984,-640,728,17011.64,29.47,-1.00,-1.0,2369
1074,306074,16860,-616,880,16894.18,29.52,-1.00,-1.0,2367
1077,306077,16992,-668,940,17031.09,29.47,-1.00,-1.0,2420
1080,306080,16964,-508,816,16991.21,29.42,-1.00,-1.0,2369
1085,306085,16860,-636,860,16893.89,29.33,-1.00,-1.0,2440
1088,306088,16852,-684,668,16879.10,29.42,-1.00,-1.0,2369
1090,306090,17036,-552,940,17070.84,29.38,-1.00,-1.0,2419
1093,306093,16964,-528,1060,17005.28,29.42,-1.00,-1.0,2369
1096,306096,17048,-532,908,17080.45,29.42,-1.00,-1.0,2419
1099,306099,17056,-576,780,17083.54,29.42,-1.00,-1.0,2369
1101,306101,17080,-564,996,17118.31,29.47,-1.00,-1.0,2378
1104,306104,17124,-644,816,17155.52,29.52,-1.00,-1.0,2421
1107,306107,17160,-672,676,17186.45,29.52,-1.00,-1.0,2369
1112,306112,16988,-656,720,17015.90,29.47,-1.00,-1.0,2442
1115,306115,17152,-408,1000,17185.97,29.47,-1.00,-1.0,2370
1117,306117,17028,-508,880,17058.29,29.52,-1.00,-1.0,2408
1120,306120,16964,-520,800,16990.81,29.38,-1.00,-1.0,2386
1123,306123,16964,-568,824,16993.50,29.42,-1.00,-1.0,2422
1126,306126,17080,-496,612,17098.16,29.47,-1.00,-1.0,2375
1128,306128,16964,-448,948,16996.37,29.52,-1.00,-1.0,2421
1131,306131,16976,-452,716,16997.10,29.47,-1.00,-1.0,2370
1134,306134,16904,-516,808,16931.16,29.57,-1.00,-1.0,2368
1139,306139,16696,-504,720,16719.12,29.52,-1.00,-1.0,2439
1142,306142,16696,-488,824,16723.44,29.42,-1.00,-1.0,2370
1145,306145,16596,-384,756,16617.65,29.38,-1.00,-1.0,2428
1147,306147,16588,-448,896,16618.22,29.42,-1.00,-1.0,2365
1150,306150,16888,-444,856,16915.51,29.47,-1.00,-1.0,2420
1153,306153,16708,-384,952,16739.51,29.42,-1.00,-1.0,2358
1156,306156,16904,-452,1024,16941.02,29.38,-1.00,-1.0,2426
1158,306158,17008,-376,920,17037.01,29.33,-1.00,-1.0,2370
1163,306163,16816,-508,800,16842.68,29.52,-1.00,-1.0,2447
1166,306166,16964,-464,764,16987.53,29.52,-1.00,-1.0,2375
1169,306169,16960,-452,920,16990.95,29.38,-1.00,-1.0,2367
1171,306171,16944,-640,808,16975.32,29.47,-1.00,-1.0,2419
1174,306174,17008,-668,520,17029.05,29.47,-1.00,-1.0,2370
1177,306177,17028,-592,888,17061.41,29.47,-1.00,-1.0,2419
1180,306180,17144,-496,980,17179.15,29.47,-1.00,-1.0,2370
1182,306182,17040,-584,776,17067.65,29.38,-1.00,-1.0,2419
1185,306185,17088,-560,1028,17128.05,29.38,-1.00,-1.0,2373
1190,306190,17012,-592,940,17048.23,29.47,-1.00,-1.0,2441
1193,306193,17072,-532,964,17107.47,29.52,-1.00,-1.0,2365
1196,306196,17024,-532,816,17051.85,29.47,-1.00,-1.0,2428
1198,306198,16948,-636,1008,16989.86,29.47,-1.00,-1.0,2368
1201,306201,17224,-492,756,17247.60,29.42,-1.00,-1.0,2380
1204,306204,17068,-524,768,17093.30,29.52,-1.00,-1.0,2421
1207,306207,16972,-596,964,17009.80,29.52,-1.00,-1.0,2375
1209,306209,16916,-500,788,16941.72,29.42,-1.00,-1.0,2406
1212,306212,16600,-644,948,16639.51,29.52,-1.00,-1.0,2379
1217,306217,16748,-520,588,16766.38,29.47,-1.00,-1.0,2442
1220,306220,16776,-540,848,16806.10,29.47,-1.00,-1.0,2366
1223,306223,16720,-508,728,16743.55,29.42,-1.00,-1.0,2428
1225,306225,16544,-584,684,16568.43,29.47,-1.00,-1.0,2368
1228,306228,16756,-452,744,16778.60,29.52,-1.00,-1.0,2434
1231,306231,16648,-544,796,16675.89,29.47,-1.00,-1.0,2374
1234,306234,16660,-520,968,16696.20,29.42,-1.00,-1.0,2367
1236,306236,16496,-456,756,16519.61,29.47,-1.00,-1.0,2419
1239,306239,16492,-512,884,16523.61,29.42,-1.00,-1.0,2379
1244,306244,16388,-544,732,16413.36,29.42,-1.00,-1.0,2451
1247,306247,16496,-472,912,16527.93,29.42,-1.00,-1.0,2374
1250,306250,16712,-476,936,16744.96,29.42,-1.00,-1.0,2406
1252,306252,16488,-660,788,16520.01,29.42,-1.00,-1.0,2368
1255,306255,16212,-504,756,16237.44,29.42,-1.00,-1.0,2430
1258,306258,15956,-420,808,15981.96,29.52,-1.00,-1.0,2378
1261,306261,15984,-428,780,16008.74,29.52,-1.00,-1.0,2406
1263,306263,16060,-472,684,16081.49,29.52,-1.00,-1.0,2369
1266,306266,15336,-392,1052,15377.04,29.47,-1.00,-1.0,2375
1271,306271,14984,-420,920,15018.09,29.42,-1.00,-1.0,2451
1274,306274,14168,-440,824,14198.76,29.33,-1.00,-1.0,2380
1277,306277,13560,-436,884,13595.78,29.42,-1.00,-1.0,2422
1280,306280,13484,-256,932,13518.59,29.52,-1.00,-1.0,2373
1282,306282,12300,-480,844,12338.26,29.38,-1.00,-1.0,2421
1285,306285,11216,-440,940,11263.92,29.42,-1.00,-1.0,2383
1288,306288,10960,-220,1164,11023.83,29.38,-1.00,-1.0,2421
1291,306291,9932,-512,600,9963.27,29.42,-1.00,-1.0,2371
1295,306295,10968,-416,1328,11055.93,29.47,-1.00,-1.0,2427
1298,306298,11612,-632,680,11649.05,29.38,-1.00,-1.0,2368
1301,306301,12876,-748,540,12909.01,29.47,-1.00,-1.0,2375
1303,306303,15816,-432,1204,15867.64,29.42,-1.00,-1.0,2419
1306,306306,17208,-856,20,17229.29,29.42,-1.00,-1.0,2369
1309,306309,19340,-504,832,19364.45,29.42,-1.00,-1.0,2418
1312,306312,19740,-776,1528,19814.25,29.52,-1.00,-1.0,2375
1314,306314,19152,-140,-548,19160.35,29.52,-1.00,-1.0,2418
1317,306317,19820,-664,-28,19831.14,29.47,-1.00,-1.0,2370
1322,306322,19964,-724,720,19990.09,29.47,-1.00,-1.0,2454
1325,306325,20020,-456,1224,20062.56,29.42,-1.00,-1.0,2373
1328,306328,20324,-588,844,20350.01,29.47,-1.00,-1.0,2428
1330,306330,19672,-576,840,19698.35,29.47,-1.00,-1.0,2377
1333,306333,19588,-556,864,19614.93,29.47,-1.00,-1.0,2368
1336,306336,19640,-688,584,19660.72,29.42,-1.00,-1.0,2427
1338,306338,20368,-464,836,20390.43,29.42,-1.00,-1.0,2368
1341,306341,19920,-500,796,19942.17,29.33,-1.00,-1.0,2419
1344,306344,20944,-464,664,20959.66,29.52,-1.00,-1.0,2369
1349,306349,20760,-480,800,20780.95,29.42,-1.00,-1.0,2440
1352,306352,21340,-692,600,21359.65,29.47,-1.00,-1.0,2366
1355,306355,21672,-420,804,21690.97,29.42,-1.00,-1.0,2420
1358,306358,21436,-688,644,21456.71,29.38,-1.00,-1.0,2370
1360,306360,20972,-644,576,20989.79,29.52,-1.00,-1.0,2420
1363,306363,20976,-704,812,21003.51,29.38,-1.00,-1.0,2370
1366,306366,20316,-700,556,20335.66,29.42,-1.00,-1.0,2375
1369,306369,19952,-556,828,19976.91,29.47,-1.00,-1.0,2422
1371,306371,19176,-648,932,19209.57,29.52,-1.00,-1.0,2369
1376,306376,18240,-628,816,18269.04,29.42,-1.00,-1.0,2440
1379,306379,17964,-780,844,18000.72,29.52,-1.00,-1.0,2366
1382,306382,17512,-724,764,17543.60,29.42,-1.00,-1.0,2420
1385,306385,17264,-580,760,17290.45,29.42,-1.00,-1.0,2372
1387,306387,17112,-692,848,17146.97,29.52,-1.00,-1.0,2419
1390,306390,17120,-532,880,17150.86,29.52,-1.00,-1.0,2370
1393,306393,17064,-568,868,17095.50,29.52,-1.00,-1.0,2418
1396,306396,17180,-692,716,17208.83,29.42,-1.00,-1.0,2374
1398,306398,16984,-572,788,17011.89,29.42,-1.00,-1.0,2370
1403,306403,17020,-584,812,17049.36,29.42,-1.00,-1.0,2439
1406,306406,16964,-516,736,16987.80,29.42,-1.00,-1.0,2366
1409,306409,17020,-336,828,17043.44,29.52,-1.00,-1.0,2420
1412,306412,17084,-416,740,17105.08,29.42,-1.00,-1.0,2369
1414,306414,17020,-548,788,17047.04,29.42,-1.00,-1.0,2418
1417,306417,17036,-452,580,17051.86,29.42,-1.00,-1.0,2369
1420,306420,17024,-512,792,17050.10,29.47,-1.00,-1.0,2419
1423,306423,16920,-320,712,16938.00,29.42,-1.00,-1.0,2370
1425,306425,17064,-284,664,17079.28,29.38,-1.00,-1.0,2371
1430,306430,16948,-344,856,16973.09,29.47,-1.00,-1.0,2440
1433,306433,16980,-320,828,17003.19,29.42,-1.00,-1.0,2367
1436,306436,16948,-348,748,16968.07,29.47,-1.00,-1.0,2419
1439,306439,16972,-364,696,16990.16,29.42,-1.00,-1.0,2375
1441,306441,17028,-384,948,17058.69,29.38,-1.00,-1.0,2419
1444,306444,17060,-412,724,17080.33,29.47,-1.00,-1.0,2369
1447,306447,16912,-412,720,16932.33,29.38,-1.00,-1.0,2419
1450,306450,17044,-428,952,17075.93,29.42,-1.00,-1.0,2377
1455,306455,17064,-396,980,17096.71,29.42,-1.00,-1.0,2446
1457,306457,17132,-412,972,17164.50,29.42,-1.00,-1.0,2367
1460,306460,17064,-424,892,17092.56,29.38,-1.00,-1.0,2377
1463,306463,16988,-468,884,17017.42,29.33,-1.00,-1.0,2408
1465,306465,17048,-556,816,17076.57,29.38,-1.00,-1.0,2368
1468,306468,17120,-508,872,17149.72,29.42,-1.00,-1.0,2428
1471,306471,17176,-504,852,17204.50,29.38,-1.00,-1.0,2377
1474,306474,17100,-568,708,17124.07,29.42,-1.00,-1.0,2422
1477,306477,16992,-588,764,17019.33,29.42,-1.00,-1.0,2371
1482,306482,16932,-608,536,16951.39,29.42,-1.00,-1.0,2442
1484,306484,17052,-552,664,17073.85,29.47,-1.00,-1.0,2369
1487,306487,17264,-464,1236,17314.41,29.42,-1.00,-1.0,2428
1490,306490,17112,-604,716,17137.62,29.38,-1.00,-1.0,2376
1492,306492,17168,-524,892,17199.14,29.52,-1.00,-1.0,2370
1495,306495,17224,-644,888,17258.89,29.57,-1.00,-1.0,2419
1498,306498,17272,-600,740,17298.25,29.33,-1.00,-1.0,2372
1501,306501,17236,-536,944,17270.15,29.42,-1.00,-1.0,2426
1504,306504,17304,-616,564,17324.14,29.52,-1.00,-1.0,2371
1508,306508,17172,-472,652,17190.85,29.38,-1.00,-1.0,2439
1511,306511,17508,-448,712,17528.20,29.42,-1.00,-1.0,2367
1514,306514,17296,-796,528,17322.36,29.57,-1.00,-1.0,2419
1517,306517,16984,-588,452,17000.19,29.42,-1.00,-1.0,2370
1519,306519,16840,-392,960,16871.90,29.47,-1.00,-1.0,2419
1522,306522,16928,-488,612,16946.09,29.42,-1.00,-1.0,2373
1525,306525,17116,-560,692,17139.13,29.38,-1.00,-1.0,2369
1528,306528,17108,-460,904,17138.04,29.42,-1.00,-1.0,2421
1531,306531,17040,-476,796,17065.22,29.42,-1.00,-1.0,2367
1535,306535,17124,-472,756,17147.18,29.42,-1.00,-1.0,2442
1538,306538,16964,-432,860,16991.28,29.57,-1.00,-1.0,2368
1541,306541,16980,-568,964,17016.82,29.42,-1.00,-1.0,2424
1543,306543,16992,-452,820,17017.78,29.57,-1.00,-1.0,2368
1546,306546,17044,-512,820,17071.39,29.42,-1.00,-1.0,2433
1549,306549,16892,-520,756,16916.90,29.42,-1.00,-1.0,2369
1552,306552,17140,-504,744,17163.54,29.42,-1.00,-1.0,2425
1555,306555,17124,-508,876,17153.92,29.42,-1.00,-1.0,2370
1558,306558,17048,-504,940,17081.33,29.42,-1.00,-1.0,2367
1563,306563,17132,-488,780,17156.69,29.52,-1.00,-1.0,2446
1565,306565,17072,-464,772,17095.74,29.52,-1.00,-1.0,2375
1568,306568,17072,-520,848,17100.96,29.47,-1.00,-1.0,2419
1571,306571,16964,-476,784,16988.78,29.42,-1.00,-1.0,2370
1574,306574,17032,-504,732,17055.17,29.42,-1.00,-1.0,2421
1576,306576,17008,-440,740,17029.78,29.42,-1.00,-1.0,2373
1579,306579,17140,-504,672,17160.57,29.47,-1.00,-1.0,2419
1582,306582,17088,-608,700,17113.13,29.42,-1.00,-1.0,2370
1587,306587,17008,-504,820,17035.21,29.42,-1.00,-1.0,2446
1589,306589,17076,-496,796,17101.74,29.42,-1.00,-1.0,2366
1592,306592,17208,-544,808,17235.55,29.47,-1.00,-1.0,2368
1595,306595,17124,-472,860,17152.08,29.38,-1.00,-1.0,2419
1598,306598,17116,-520,792,17142.20,29.42,-1.00,-1.0,2370
1600,306600,17232,-656,744,17260.52,29.38,-1.00,-1.0,2418
1603,306603,17176,-508,664,17196.33,29.47,-1.00,-1.0,2370
1606,306606,16944,-496,848,16972.46,29.47,-1.00,-1.0,2419
1609,306609,17032,-620,768,17060.58,29.47,-1.00,-1.0,2376
1614,306614,16976,-636,812,17007.30,29.47,-1.00,-1.0,2439
1616,306616,17008,-556,668,17030.19,29.38,-1.00,-1.0,2369
1619,306619,16872,-584,828,16902.40,29.38,-1.00,-1.0,2407
1622,306622,16904,-552,644,16925.27,29.47,-1.00,-1.0,2375
1624,306624,17176,-524,652,17196.36,29.42,-1.00,-1.0,2367
1627,306627,17072,-616,600,17093.64,29.52,-1.00,-1.0,2427
1630,306630,17236,-664,584,17258.67,29.42,-1.00,-1.0,2369
1633,306633,17056,-552,980,17093.05,29.42,-1.00,-1.0,2427
1636,306636,17172,-584,732,17197.51,29.42,-1.00,-1.0,2377
1641,306641,17112,-660,896,17148.15,29.42,-1.00,-1.0,2446
1643,306643,17124,-556,704,17147.48,29.47,-1.00,-1.0,2367
1646,306646,17156,-692,852,17191.08,29.42,-1.00,-1.0,2419
1649,306649,17196,-604,888,17229.50,29.47,-1.00,-1.0,2370
1651,306651,17448,-668,696,17474.65,29.52,-1.00,-1.0,2367
1654,306654,17296,-596,720,17321.24,29.47,-1.00,-1.0,2427
1657,306657,17348,-568,608,17367.94,29.52,-1.00,-1.0,2376
1660,306660,17196,-628,800,17226.05,29.38,-1.00,-1.0,2422
1663,306663,17080,-704,664,17107.39,29.42,-1.00,-1.0,2365
1668,306668,17044,-692,776,17075.68,29.42,-1.00,-1.0,2445
1670,306670,17176,-580,684,17199.40,29.52,-1.00,-1.0,2366
1673,306673,16880,-620,732,16907.24,29.52,-1.00,-1.0,2423
1676,306676,16828,-384,688,16846.44,29.42,-1.00,-1.0,2370
1679,306679,16924,-520,752,16948.68,29.42,-1.00,-1.0,2427
1681,306681,16952,-552,840,16981.77,29.42,-1.00,-1.0,2369
1684,306684,16784,-456,512,16798.00,29.38,-1.00,-1.0,2374
1687,306687,16940,-516,744,16964.18,29.47,-1.00,-1.0,2409
1690,306690,16856,-500,784,16881.63,29.38,-1.00,-1.0,2377
1695,306695,16844,-384,788,16866.79,29.52,-1.00,-1.0,2441
1697,306697,16960,-400,784,16982.82,29.42,-1.00,-1.0,2368
1700,306700,16872,-396,964,16904.16,29.47,-1.00,-1.0,2420
1703,306703,16876,-400,848,16902.03,29.42,-1.00,-1.0,2369
1706,306706,16792,-380,804,16815.53,29.47,-1.00,-1.0,2426
1708,306708,16772,-408,788,16795.46,29.42,-1.00,-1.0,2356
1711,306711,16772,-460,712,16793.41,29.38,-1.00,-1.0,2421
1714,306714,16852,-416,740,16873.37,29.52,-1.00,-1.0,2369
1717,306717,16900,-400,820,16924.61,29.47,-1.00,-1.0,2370
1722,306722,17008,-428,652,17025.87,29.42,-1.00,-1.0,2447
1724,306724,16936,-508,708,16958.40,29.52,-1.00,-1.0,2368
1727,306727,16900,-468,832,16926.94,29.42,-1.00,-1.0,2419
1730,306730,16964,-292,944,16992.75,29.42,-1.00,-1.0,2371
1733,306733,16956,-396,1036,16992.23,29.42,-1.00,-1.0,2419
1735,306735,16960,-360,880,16986.63,29.52,-1.00,-1.0,2367
1738,306738,17020,-336,836,17043.83,29.42,-1.00,-1.0,2419
1741,306741,16952,-416,1156,16996.46,29.52,-1.00,-1.0,2370
1746,306746,16992,-348,1152,17034.56,29.47,-1.00,-1.0,2439
1748,306748,17096,-256,964,17125.07,29.38,-1.00,-1.0,2372
1751,306751,17024,-708,208,17039.99,29.42,-1.00,-1.0,2367
1754,306754,16860,-500,736,16883.46,29.42,-1.00,-1.0,2420
1756,306756,16696,-228,1356,16752.53,29.42,-1.00,-1.0,2368
1759,306759,16788,-484,908,16819.50,29.52,-1.00,-1.0,2419
1762,306762,16844,-264,1268,16893.72,29.42,-1.00,-1.0,2371
1765,306765,16936,-920,-64,16961.09,29.42,-1.00,-1.0,2421
1768,306768,16732,-392,852,16758.26,29.52,-1.00,-1.0,2369
1773,306773,17000,-516,508,17015.41,29.42,-1.00,-1.0,2441
1776,306776,17004,-432,888,17032.65,29.47,-1.00,-1.0,2372
1778,306778,17128,-532,772,17153.64,29.42,-1.00,-1.0,2421
1781,306781,17040,-472,760,17063.47,29.42,-1.00,-1.0,2386
1784,306784,17004,-596,736,17030.35,29.47,-1.00,-1.0,2367
1786,306786,17048,-508,732,17071.27,29.47,-1.00,-1.0,2418
1789,306789,17064,-708,816,17098.16,29.52,-1.00,-1.0,2356
1792,306792,16828,-700,556,16851.73,29.57,-1.00,-1.0,2418
1795,306795,16816,-528,624,16835.86,29.42,-1.00,-1.0,2370
1800,306800,17056,-596,356,17070.12,29.42,-1.00,-1.0,2439
1803,306803,17144,-668,532,17165.26,29.42,-1.00,-1.0,2373
1805,306805,17044,-596,604,17065.11,29.52,-1.00,-1.0,2420
1808,306808,17076,-672,512,17096.89,29.33,-1.00,-1.0,2372
1811,306811,17220,-704,472,17240.85,29.52,-1.00,-1.0,2419
1814,306814,17056,-604,704,17081.21,29.42,-1.00,-1.0,2367
1816,306816,18012,-724,220,18027.89,29.47,-1.00,-1.0,2366
1819,306819,16748,-348,1060,16785.12,29.47,-1.00,-1.0,2418
1822,306822,17144,-660,800,17175.34,29.38,-1.00,-1.0,2370
1827,306827,17076,-504,1192,17124.97,29.42,-1.00,-1.0,2440
1830,306830,17136,-700,500,17157.58,29.42,-1.00,-1.0,2369
1832,306832,17096,-540,740,17120.53,29.42,-1.00,-1.0,2420
1835,306835,17040,-648,768,17069.60,29.52,-1.00,-1.0,2373
1838,306838,17072,-700,488,17093.31,29.57,-1.00,-1.0,2405
1841,306841,17060,-504,828,17087.52,29.52,-1.00,-1.0,2372
1843,306843,17120,-660,476,17139.33,29.42,-1.00,-1.0,2418
1846,306846,17136,-568,736,17161.20,29.42,-1.00,-1.0,2372
1849,306849,16940,-636,876,16974.55,29.47,-1.00,-1.0,2367
1854,306854,17008,-640,732,17035.77,29.47,-1.00,-1.0,2438
1857,306857,17032,-672,556,17054.32,29.47,-1.00,-1.0,2367
1859,306859,17060,-580,668,17082.92,29.47,-1.00,-1.0,2419
1862,306862,17008,-496,888,17038.39,29.47,-1.00,-1.0,2370
1865,306865,17152,-564,748,17177.56,29.38,-1.00,-1.0,2418
1868,306868,17016,-624,888,17050.58,29.47,-1.00,-1.0,2370
1870,306870,17088,-644,884,17122.96,29.38,-1.00,-1.0,2418
1873,306873,17268,-504,980,17303.13,29.38,-1.00,-1.0,2370
1878,306878,16976,-492,868,17005.29,29.38,-1.00,-1.0,2444
1881,306881,17100,-656,888,17135.60,29.52,-1.00,-1.0,2366
1883,306883,17060,-544,736,17084.53,29.47,-1.00,-1.0,2364
1886,306886,17220,-600,824,17250.14,29.42,-1.00,-1.0,2420
1889,306889,17188,-568,996,17226.20,29.38,-1.00,-1.0,2370
1892,306892,17224,-712,680,17252.12,29.52,-1.00,-1.0,2425
1894,306894,17280,-584,920,17314.32,29.38,-1.00,-1.0,2368
1897,306897,17168,-696,648,17194.32,29.42,-1.00,-1.0,2419
1900,306900,18488,236,3352,18790.89,29.52,-1.00,-1.0,2370
1905,306905,16148,-268,1188,16193.86,29.52,-1.00,-1.0,2437
1908,306908,16748,-300,1348,16804.84,29.38,-1.00,-1.0,2369
1910,306910,17112,-824,-144,17132.43,29.42,-1.00,-1.0,2418
1913,306913,17060,-300,764,17079.73,29.42,-1.00,-1.0,2369
1916,306916,17000,-668,472,17019.67,29.52,-1.00,-1.0,2368
1919,306919,17080,-648,580,17102.12,29.38,-1.00,-1.0,2429
1921,306921,17184,-716,704,17213.31,29.42,-1.00,-1.0,2432
1924,306924,17112,-640,700,17138.27,29.42,-1.00,-1.0,2423
1927,306927,17024,-676,928,17062.67,29.47,-1.00,-1.0,2391
1932,306932,17080,-656,640,17104.57,29.57,-1.00,-1.0,2441
1935,306935,17032,-632,776,17061.38,29.47,-1.00,-1.0,2369
1937,306937,17024,-644,692,17050.22,29.47,-1.00,-1.0,2419
1940,306940,17004,-1140,-108,17042.51,29.47,-1.00,-1.0,2372
1943,306943,17436,-320,1384,17493.77,29.38,-1.00,-1.0,2419
1946,306946,17508,-700,720,17536.78,29.47,-1.00,-1.0,2370
1948,306948,17184,-252,1492,17250.49,29.42,-1.00,-1.0,2366
1951,306951,16984,-536,1052,17024.99,29.47,-1.00,-1.0,2427
1954,306954,16896,-996,-48,16925.40,29.47,-1.00,-1.0,2376
1959,306959,17104,-240,1452,17167.20,29.52,-1.00,-1.0,2446
1961,306961,17052,-868,336,17077.38,29.52,-1.00,-1.0,2371
1964,306964,16976,-460,592,16992.55,29.42,-1.00,-1.0,2421
1967,306967,16944,-496,792,16969.75,29.42,-1.00,-1.0,2370
1970,306970,16960,-584,592,16980.38,29.33,-1.00,-1.0,2426
1973,306973,16904,-524,732,16927.95,29.47,-1.00,-1.0,2436
1975,306975,17036,-644,748,17064.57,29.52,-1.00,-1.0,2413
1978,306978,17052,-580,824,17081.75,29.52,-1.00,-1.0,2374
1981,306981,17076,-568,704,17099.94,29.47,-1.00,-1.0,2374
1986,306986,17084,-560,800,17111.89,29.47,-1.00,-1.0,2439
1989,306989,17040,-488,712,17061.85,29.38,-1.00,-1.0,2378
1992,306992,17068,-520,760,17092.82,29.47,-1.00,-1.0,2431
1994,306994,17184,-532,692,17206.15,29.33,-1.00,-1.0,2374
1997,306997,17080,-552,668,17101.97,29.47,-1.00,-1.0,2427
2000,307000,17064,-620,668,17088.32,29.47,-1.00,-1.0,2378
2003,307003,17104,-404,664,17121.65,29.47,-1.00,-1.0,2432
2005,307005,17000,-420,700,17019.59,29.47,-1.00,-1.0,2377
2010,307010,17112,-568,768,17138.64,29.42,-1.00,-1.0,2439
2013,307013,16980,-480,712,17001.70,29.42,-1.00,-1.0,2362
2016,307016,17128,-612,548,17147.69,29.47,-1.00,-1.0,2371
2018,307018,16992,-556,700,17015.50,29.52,-1.00,-1.0,2418
2021,307021,17028,-616,668,17052.23,29.42,-1.00,-1.0,2376
2024,307024,17096,-480,680,17116.25,29.42,-1.00,-1.0,2405
2027,307027,17072,-552,672,17094.13,29.38,-1.00,-1.0,2370
2029,307029,17052,-596,828,17082.49,29.42,-1.00,-1.0,2418
2032,307032,17100,-532,676,17121.62,29.42,-1.00,-1.0,2369
2037,307037,16992,-528,656,17012.85,29.47,-1.00,-1.0,2447
2040,307040,17128,-592,820,17157.83,29.47,-1.00,-1.0,2373
2043,307043,16956,-540,548,16973.45,29.42,-1.00,-1.0,2427
2045,307045,16944,-500,912,16975.89,29.47,-1.00,-1.0,2379
2048,307048,17180,-736,536,17204.11,29.42,-1.00,-1.0,2365
2051,307051,17432,-596,452,17448.04,29.47,-1.00,-1.0,2421
2053,307053,17152,-508,652,17171.90,29.42,-1.00,-1.0,2365
2056,307056,17120,-544,736,17144.45,29.42,-1.00,-1.0,2418
2059,307059,17076,-580,528,17094.00,29.42,-1.00,-1.0,2366
2064,307064,17120,-584,664,17142.82,29.42,-1.00,-1.0,2448
2067,307067,17012,-508,592,17029.88,29.52,-1.00,-1.0,2369
2070,307070,17164,-1256,-1700,17293.65,29.47,-1.00,-1.0,2463
2072,307072,17560,-468,636,17577.74,29.47,-1.00,-1.0,2365
2075,307075,16960,184,1836,17060.08,29.38,-1.00,-1.0,2431
2078,307078,17024,-452,400,17034.70,29.47,-1.00,-1.0,2364
2081,307081,17056,-304,1672,17140.45,29.52,-1.00,-1.0,2373
2083,307083,17168,-1040,-376,17203.58,29.52,-1.00,-1.0,2421
2086,307086,13636,-2732,5300,14882.69,29.52,-1.00,-1.0,2368
2091,307091,16480,-396,1172,16526.37,29.42,-1.00,-1.0,2439
2094,307094,16976,-740,1100,17027.69,29.42,-1.00,-1.0,2368
2097,307097,16992,156,1956,17104.92,29.42,-1.00,-1.0,2431
2099,307099,17104,-912,-476,17134.91,29.52,-1.00,-1.0,2374
2102,307102,17100,-500,924,17132.24,29.42,-1.00,-1.0,2420
2105,307105,17056,-260,784,17075.99,29.42,-1.00,-1.0,2371
2108,307108,16960,-832,100,16980.69,29.47,-1.00,-1.0,2422
2110,307110,17148,-552,1168,17196.59,29.33,-1.00,-1.0,2370
2113,307113,17860,-768,-64,17876.62,29.42,-1.00,-1.0,2366
2118,307118,16308,168,2132,16447.63,29.52,-1.00,-1.0,2431
2121,307121,17316,-988,-28,17344.19,29.42,-1.00,-1.0,2370
2124,307124,17256,-408,904,17284.48,29.47,-1.00,-1.0,2430
2126,307126,17144,-468,1264,17196.90,29.42,-1.00,-1.0,2366
2129,307129,17204,-680,464,17223.69,29.47,-1.00,-1.0,2418
2132,307132,16716,-576,892,16749.69,29.52,-1.00,-1.0,2371
2135,307135,16924,-640,696,16950.39,29.47,-1.00,-1.0,2420
2137,307137,16964,-596,580,16984.37,29.33,-1.00,-1.0,2369
2142,307142,16936,-576,728,16961.42,29.38,-1.00,-1.0,2431
2145,307145,17144,-612,668,17167.92,29.47,-1.00,-1.0,2356
2147,307147,17104,-716,736,17134.79,29.57,-1.00,-1.0,2366
2150,307150,17136,-616,708,17161.68,29.52,-1.00,-1.0,2444
2153,307153,17072,-572,724,17096.92,29.42,-1.00,-1.0,2376
2156,307156,17036,-676,796,17067.98,29.42,-1.00,-1.0,2422
2158,307158,17092,-620,852,17124.45,29.52,-1.00,-1.0,2370
2161,307161,17044,-608,744,17071.06,29.42,-1.00,-1.0,2427
2164,307164,17032,-620,692,17057.32,29.42,-1.00,-1.0,2372
2169,307169,17136,-612,804,17165.76,29.38,-1.00,-1.0,2431
2172,307172,17052,-628,688,17077.42,29.47,-1.00,-1.0,2368
2174,307174,17036,-664,780,17066.77,29.47,-1.00,-1.0,2429
2177,307177,16960,-616,728,16986.79,29.42,-1.00,-1.0,2370
2180,307180,17076,-720,716,17106.16,29.42,-1.00,-1.0,2370
2183,307183,17084,-616,572,17104.67,29.52,-1.00,-1.0,2422
2185,307185,17068,-784,552,17094.91,29.42,-1.00,-1.0,2374
2188,307188,17500,-1332,-1008,17579.54,29.42,-1.00,-1.0,2429
2191,307191,17008,-828,188,17029.18,29.42,-1.00,-1.0,2373
2196,307196,17080,-1292,-400,17133.47,29.42,-1.00,-1.0,2433
2199,307199,17240,-288,1244,17287.22,29.42,-1.00,-1.0,2366
2202,307202,17028,-1520,-476,17102.33,29.52,-1.00,-1.0,2435
2204,307204,16844,-656,920,16881.86,29.52,-1.00,-1.0,2369
2207,307207,17044,-776,1008,17091.41,29.52,-1.00,-1.0,2432
2210,307210,17056,-696,696,17084.38,29.42,-1.00,-1.0,2371
2213,307213,17024,-392,1156,17067.71,29.33,-1.00,-1.0,2426
2215,307215,17056,-740,652,17084.49,29.52,-1.00,-1.0,2370
2218,307218,16988,-568,848,17018.63,29.42,-1.00,-1.0,2376
2223,307223,17044,-780,604,17072.53,29.52,-1.00,-1.0,2431
2226,307226,17132,-576,904,17165.50,29.42,-1.00,-1.0,2367
2229,307229,17024,-704,476,17045.20,29.42,-1.00,-1.0,2435
2231,307231,16960,-704,644,16986.82,29.42,-1.00,-1.0,2373
2234,307234,16952,-620,712,16978.27,29.47,-1.00,-1.0,2429
2237,307237,17044,-824,448,17069.79,29.52,-1.00,-1.0,2378
2240,307240,16892,-712,596,16917.50,29.47,-1.00,-1.0,2422
2242,307242,17116,-608,616,17137.87,29.42,-1.00,-1.0,2371
2247,307247,17156,-588,1100,17201.28,29.42,-1.00,-1.0,2433
2250,307250,16932,-720,380,16951.56,29.42,-1.00,-1.0,2366
2253,307253,16928,-680,840,16962.46,29.38,-1.00,-1.0,2369
2256,307256,17076,-592,700,17100.59,29.47,-1.00,-1.0,2439
2258,307258,17184,-536,540,17200.84,29.47,-1.00,-1.0,2376
2261,307261,17044,-556,748,17069.46,29.38,-1.00,-1.0,2419
2264,307264,16992,-552,572,17010.58,29.47,-1.00,-1.0,2370
2267,307267,17020,-576,648,17042.07,29.47,-1.00,-1.0,2420
2269,307269,17144,-656,640,17168.48,29.47,-1.00,-1.0,2374
2274,307274,17024,-504,800,17050.24,29.47,-1.00,-1.0,2440
2277,307277,17068,-560,808,17096.29,29.42,-1.00,-1.0,2381
2280,307280,17192,-444,760,17214.52,29.57,-1.00,-1.0,2430
2283,307283,17032,-688,696,17060.09,29.47,-1.00,-1.0,2376
2285,307285,17028,-612,620,17050.27,29.42,-1.00,-1.0,2353
2288,307288,16960,-604,704,16985.35,29.42,-1.00,-1.0,2419
2291,307291,17096,-584,496,17113.16,29.42,-1.00,-1.0,2373
2293,307293,17084,-584,728,17109.47,29.42,-1.00,-1.0,2419
2296,307296,16992,-648,608,17015.22,29.42,-1.00,-1.0,2373
2301,307301,17040,-568,816,17068.98,29.38,-1.00,-1.0,2438
2304,307304,17108,-604,588,17128.75,29.47,-1.00,-1.0,2374
2307,307307,17168,-696,804,17200.90,29.52,-1.00,-1.0,2429
2310,307310,16988,-580,764,17015.06,29.47,-1.00,-1.0,2371
2312,307312,17000,-716,672,17028.34,29.42,-1.00,-1.0,2366
2315,307315,17128,-688,720,17156.93,29.42,-1.00,-1.0,2418
2318,307318,17024,-672,704,17051.80,29.52,-1.00,-1.0,2378
2320,307320,17060,-644,608,17082.97,29.47,-1.00,-1.0,2419
2323,307323,17172,-712,664,17199.58,29.42,-1.00,-1.0,2371
2328,307328,17136,-728,612,17162.37,29.52,-1.00,-1.0,2433
2331,307331,17068,-720,552,17092.10,29.38,-1.00,-1.0,2354
2334,307334,17064,-680,696,17091.72,29.42,-1.00,-1.0,2429
2337,307337,17132,-624,892,17166.55,29.42,-1.00,-1.0,2372
2339,307339,16940,-628,604,16962.39,29.52,-1.00,-1.0,2418
2342,307342,17108,-580,748,17134.16,29.42,-1.00,-1.0,2371
2345,307345,16952,-664,832,16985.39,29.47,-1.00,-1.0,2374
2347,307347,17032,-624,660,17056.20,29.47,-1.00,-1.0,2419
2350,307350,17116,-672,848,17150.16,29.42,-1.00,-1.0,2370
2355,307355,17072,-560,732,17096.86,29.38,-1.00,-1.0,2432
2358,307358,17096,-644,812,17127.38,29.42,-1.00,-1.0,2367
2361,307361,17080,-504,660,17100.18,29.47,-1.00,-1.0,2437
2363,307363,17104,-612,656,17127.51,29.38,-1.00,-1.0,2369
2366,307366,17128,-540,696,17150.64,29.38,-1.00,-1.0,2425
2369,307369,16988,-620,800,17018.12,29.42,-1.00,-1.0,2371
2372,307372,17020,-588,852,17051.45,29.47,-1.00,-1.0,2426
2374,307374,17012,-580,788,17040.11,29.47,-1.00,-1.0,2370
2377,307377,17132,-516,692,17153.73,29.38,-1.00,-1.0,2354
2382,307382,17012,-488,644,17031.18,29.42,-1.00,-1.0,2440
2385,307385,16932,-512,836,16960.36,29.42,-1.00,-1.0,2370
2388,307388,17060,-584,824,17089.87,29.42,-1.00,-1.0,2436
2390,307390,17108,-440,724,17128.96,29.42,-1.00,-1.0,2376
2393,307393,17040,-472,776,17064.19,29.52,-1.00,-1.0,2418
2396,307396,17196,-544,776,17222.09,29.52,-1.00,-1.0,2358
2399,307399,16944,-556,632,16964.90,29.42,-1.00,-1.0,2420
2401,307401,17140,-536,688,17162.17,29.47,-1.00,-1.0,2371
2406,307406,16960,-564,732,16985.16,29.47,-1.00,-1.0,2431
2409,307409,17060,-632,676,17085.08,29.42,-1.00,-1.0,2367
2412,307412,17028,-568,596,17047.89,29.47,-1.00,-1.0,2376
2415,307415,17104,-596,740,17130.37,29.42,-1.00,-1.0,2443
2417,307417,17016,-588,860,17047.86,29.52,-1.00,-1.0,2380
2420,307420,17508,-1172,1708,17630.11,29.42,-1.00,-1.0,2419
2423,307423,16776,-1856,-2808,17110.34,29.52,-1.00,-1.0,2373
2426,307426,17880,-780,-84,17897.20,29.42,-1.00,-1.0,2427
2428,307428,17344,28,2812,17570.50,29.47,-1.00,-1.0,2369
2433,307433,16872,-1372,-1132,16965.50,29.47,-1.00,-1.0,2418
2436,307436,16752,-332,1348,16809.43,29.47,-1.00,-1.0,2363
2439,307439,17128,-1064,88,17161.24,29.38,-1.00,-1.0,2429
2442,307442,17052,-632,920,17088.49,29.47,-1.00,-1.0,2371
2444,307444,16932,-592,1348,16995.89,29.52,-1.00,-1.0,2366
2447,307447,17016,-736,560,17041.11,29.42,-1.00,-1.0,2433
2450,307450,16916,-560,1136,16963.35,29.42,-1.00,-1.0,2378
2453,307453,17036,-556,852,17066.35,29.42,-1.00,-1.0,2432
2455,307455,17044,-720,680,17072.75,29.52,-1.00,-1.0,2372
2460,307460,17080,-664,616,17104.00,29.42,-1.00,-1.0,2430
2463,307463,16976,-572,820,17005.42,29.47,-1.00,-1.0,2369
2466,307466,17060,-656,516,17080.40,29.42,-1.00,-1.0,2428
2469,307469,17000,-568,828,17029.63,29.47,-1.00,-1.0,2378
2471,307471,17016,-492,872,17045.43,29.42,-1.00,-1.0,2419
2474,307474,17000,-644,656,17024.84,29.47,-1.00,-1.0,2371
2477,307477,17064,-420,812,17088.47,29.42,-1.00,-1.0,2368
2480,307480,16984,-472,824,17010.53,29.47,-1.00,-1.0,2420
2483,307483,17032,-600,608,17053.41,29.42,-1.00,-1.0,2373
2487,307487,17152,-456,568,17167.46,29.42,-1.00,-1.0,2431
2490,307490,17100,-548,688,17122.61,29.42,-1.00,-1.0,2368
2493,307493,17096,-512,764,17120.72,29.52,-1.00,-1.0,2443
2496,307496,17084,-464,888,17113.35,29.52,-1.00,-1.0,2380
2499,307499,17072,-528,764,17097.24,29.33,-1.00,-1.0,2431
2501,307501,17012,-584,644,17034.20,29.42,-1.00,-1.0,2374
2504,307504,17168,-620,764,17196.17,29.38,-1.00,-1.0,2430
2507,307507,17152,-580,512,17169.44,29.42,-1.00,-1.0,2378
2510,307510,17152,-560,616,17172.19,29.38,-1.00,-1.0,2369
2515,307515,17144,-680,728,17172.92,29.42,-1.00,-1.0,2433
2517,307517,17036,-616,808,17066.27,29.52,-1.00,-1.0,2367
2520,307520,17084,-596,720,17109.55,29.47,-1.00,-1.0,2443
2523,307523,17068,-488,728,17090.49,29.52,-1.00,-1.0,2378
2526,307526,17084,-564,632,17104.99,29.47,-1.00,-1.0,2433
2528,307528,17000,-584,556,17019.11,29.52,-1.00,-1.0,2377
2531,307531,17044,-600,532,17062.85,29.47,-1.00,-1.0,2418
2534,307534,17004,-620,776,17032.99,29.52,-1.00,-1.0,2373
2539,307539,17052,-556,612,17072.04,29.42,-1.00,-1.0,2438
2541,307541,17088,-588,800,17116.82,29.52,-1.00,-1.0,2366
2544,307544,17008,-568,728,17033.05,29.47,-1.00,-1.0,2374
2547,307547,17048,-600,648,17070.86,29.47,-1.00,-1.0,2429
2550,307550,17052,-668,692,17079.10,29.47,-1.00,-1.0,2371
2552,307552,16992,-612,696,17017.26,29.38,-1.00,-1.0,2419
2555,307555,17052,-656,820,17084.30,29.38,-1.00,-1.0,2358
2558,307558,16964,-580,684,16987.69,29.38,-1.00,-1.0,2422
2561,307561,17052,-576,744,17077.94,29.47,-1.00,-1.0,2367
2566,307566,17076,-532,756,17101.00,29.42,-1.00,-1.0,2430
2569,307569,17036,-596,756,17063.18,29.38,-1.00,-1.0,2355
2572,307572,17104,-384,824,17128.14,29.52,-1.00,-1.0,2436
2574,307574,16964,-464,860,16992.12,29.42,-1.00,-1.0,2367
2577,307577,16996,-464,732,17018.08,29.42,-1.00,-1.0,2374
2580,307580,17052,-596,808,17081.53,29.47,-1.00,-1.0,2422
2582,307582,17080,-448,848,17106.90,29.52,-1.00,-1.0,2369
2585,307585,16960,-496,844,16988.23,29.57,-1.00,-1.0,2429
2588,307588,17068,-460,836,17094.65,29.47,-1.00,-1.0,2378
2593,307593,17044,-404,1004,17078.32,29.42,-1.00,-1.0,2438
2595,307595,16956,-464,1044,16994.45,29.52,-1.00,-1.0,2366
2598,307598,17024,-444,976,17057.73,29.42,-1.00,-1.0,2432
2601,307601,16876,-452,1016,16912.60,29.42,-1.00,-1.0,2373
2604,307604,16952,-444,1060,16990.91,29.42,-1.00,-1.0,2428
2606,307606,16920,-440,860,16947.55,29.52,-1.00,-1.0,2357
2609,307609,17004,-420,956,17036.03,29.38,-1.00,-1.0,2381
2612,307612,17052,-516,984,17088.16,29.47,-1.00,-1.0,2420
2615,307615,17108,-592,804,17137.11,29.42,-1.00,-1.0,2378
2620,307620,17116,-688,460,17136.00,29.52,-1.00,-1.0,2431
2622,307622,17100,-584,732,17125.62,29.42,-1.00,-1.0,2370
2625,307625,17044,-740,484,17066.92,29.52,-1.00,-1.0,2428
2628,307628,17144,-780,484,17168.56,29.52,-1.00,-1.0,2369
2631,307631,17088,-708,572,17112.22,29.42,-1.00,-1.0,2426
2633,307633,17776,-1040,-1000,17834.46,29.42,-1.00,-1.0,2369
2636,307636,9840,-2300,3508,10696.81,29.47,-1.00,-1.0,2421
2639,307639,20592,-3864,-8460,22594.97,29.42,-1.00,-1.0,2374
2642,307642,19840,-464,5612,20623.66,29.42,-1.00,-1.0,2374
2647,307647,16196,72,4104,16708.04,29.42,-1.00,-1.0,2438
2649,307649,17832,-1780,-2532,18098.61,29.42,-1.00,-1.0,2367
2652,307652,17340,-864,1156,17399.96,29.47,-1.00,-1.0,2432
2655,307655,16776,-56,1800,16872.38,29.52,-1.00,-1.0,2370
2658,307658,16716,-1316,-520,16775.78,29.52,-1.00,-1.0,2426
2660,307660,17332,-148,2068,17455.56,29.52,-1.00,-1.0,2369
2663,307663,17260,-852,164,17281.79,29.47,-1.00,-1.0,2421
2666,307666,17236,-628,336,17250.71,29.52,-1.00,-1.0,2370
2671,307671,16992,-792,364,17014.34,29.42,-1.00,-1.0,2431
2674,307674,17072,-556,704,17095.55,29.42,-1.00,-1.0,2368
2676,307676,16952,-628,444,16969.44,29.52,-1.00,-1.0,2421
2679,307679,17032,-604,540,17051.26,29.42,-1.00,-1.0,2370
2682,307682,17072,-572,884,17104.44,29.47,-1.00,-1.0,2369
2685,307685,17072,-700,464,17092.64,29.38,-1.00,-1.0,2429
2687,307687,17112,-552,732,17136.54,29.38,-1.00,-1.0,2373
2690,307690,17072,-628,680,17097.07,29.42,-1.00,-1.0,2435
2693,307693,17080,-640,532,17100.26,29.38,-1.00,-1.0,2378
2698,307698,17112,-680,584,17135.46,29.47,-1.00,-1.0,2439
2700,307700,17132,-664,764,17161.88,29.57,-1.00,-1.0,2367
2703,307703,17088,-748,732,17120.02,29.52,-1.00,-1.0,2444
2706,307706,17020,-680,556,17042.65,29.38,-1.00,-1.0,2370
2709,307709,16980,-652,568,17002.00,29.42,-1.00,-1.0,2428
2711,307711,17072,-572,548,17090.37,29.47,-1.00,-1.0,2371
2714,307714,17084,-636,740,17111.84,29.42,-1.00,-1.0,2367
2717,307717,17072,-580,580,17091.69,29.42,-1.00,-1.0,2406
2720,307720,17036,-636,660,17060.64,29.42,-1.00,-1.0,2373
2725,307725,17080,-612,612,17101.91,29.42,-1.00,-1.0,2439
2727,307727,17052,-552,672,17074.16,29.57,-1.00,-1.0,2367
2730,307730,17104,-692,764,17135.03,29.42,-1.00,-1.0,2438
2733,307733,17036,-616,684,17060.85,29.42,-1.00,-1.0,2378
2736,307736,17064,-612,704,17089.48,29.42,-1.00,-1.0,2406
2738,307738,17056,-560,588,17075.32,29.47,-1.00,-1.0,2371
2741,307741,17088,-612,712,17113.77,29.52,-1.00,-1.0,2429
2744,307744,17040,-664,860,17074.60,29.42,-1.00,-1.0,2378
2747,307747,17040,-604,652,17063.16,29.42,-1.00,-1.0,2367
2752,307752,16984,-680,652,17010.11,29.42,-1.00,-1.0,2440
2754,307754,17028,-560,684,17050.93,29.42,-1.00,-1.0,2366
2757,307757,16988,-628,756,17016.41,29.52,-1.00,-1.0,2436
2760,307760,17020,-596,652,17042.91,29.52,-1.00,-1.0,2385
2763,307763,17128,-648,744,17156.39,29.42,-1.00,-1.0,2423
2766,307766,17072,-608,604,17093.50,29.42,-1.00,-1.0,2373
2768,307768,17068,-636,660,17092.59,29.38,-1.00,-1.0,2422
2771,307771,17040,-660,668,17065.86,29.52,-1.00,-1.0,2384
2774,307774,17072,-576,700,17096.05,29.42,-1.00,-1.0,2369
2779,307779,17092,-676,736,17121.19,29.47,-1.00,-1.0,2431
2781,307781,17020,-608,644,17043.03,29.47,-1.00,-1.0,2366
2784,307784,17080,-564,844,17110.14,29.47,-1.00,-1.0,2428
2787,307787,17044,-580,620,17065.13,29.47,-1.00,-1.0,2371
2790,307790,16996,-576,888,17028.93,29.47,-1.00,-1.0,2425
2792,307792,17076,-584,804,17104.89,29.47,-1.00,-1.0,2370
2795,307795,17036,-560,716,17060.23,29.38,-1.00,-1.0,2419
2798,307798,16984,-620,620,17006.62,29.47,-1.00,-1.0,2358
2803,307803,17056,-660,740,17084.80,29.42,-1.00,-1.0,2435
2805,307805,17104,-688,656,17130.40,29.52,-1.00,-1.0,2372
2808,307808,17056,-656,572,17078.19,29.47,-1.00,-1.0,2371
2811,307811,17148,-616,624,17170.40,29.47,-1.00,-1.0,2437
2813,307813,17036,-644,692,17062.21,29.47,-1.00,-1.0,2367
2816,307816,16988,-564,676,17010.80,29.52,-1.00,-1.0,2418
2819,307819,17108,-616,692,17133.07,29.47,-1.00,-1.0,2375
2822,307822,16984,-700,476,17005.08,29.33,-1.00,-1.0,2418
2825,307825,17008,-668,696,17035.34,29.47,-1.00,-1.0,2370
2830,307830,16988,-588,620,17009.48,29.38,-1.00,-1.0,2432
2833,307833,16980,-656,652,17005.17,29.42,-1.00,-1.0,2370
2835,307835,17052,-696,740,17082.23,29.38,-1.00,-1.0,2430
2838,307838,17052,-640,724,17079.36,29.47,-1.00,-1.0,2358
2841,307841,17032,-652,660,17057.25,29.42,-1.00,-1.0,2367
2843,307843,17172,-692,780,17203.63,29.33,-1.00,-1.0,2419
2846,307846,17000,-692,688,17027.98,29.52,-1.00,-1.0,2370
2849,307849,17084,-680,684,17111.21,29.42,-1.00,-1.0,2419
2852,307852,17048,-608,672,17072.07,29.52,-1.00,-1.0,2370
2857,307857,17060,-604,820,17090.37,29.47,-1.00,-1.0,2431
2860,307860,17072,-544,604,17091.34,29.47,-1.00,-1.0,2368
2862,307862,17096,-608,712,17121.62,29.47,-1.00,-1.0,2421
2865,307865,16996,-548,784,17022.90,29.47,-1.00,-1.0,2374
2868,307868,17040,-636,636,17063.72,29.52,-1.00,-1.0,2426
2871,307871,17008,-764,592,17035.44,29.38,-1.00,-1.0,2371
2873,307873,17156,-592,560,17175.34,29.42,-1.00,-1.0,2369
2876,307876,17060,-644,588,17082.27,29.47,-1.00,-1.0,2426
2879,307879,17016,-656,640,17040.66,29.42,-1.00,-1.0,2370
2884,307884,17072,-640,704,17098.49,29.42,-1.00,-1.0,2418
2887,307887,17036,-548,484,17051.68,29.47,-1.00,-1.0,2368
2889,307889,17112,-572,748,17137.89,29.52,-1.00,-1.0,2421
2892,307892,16940,-624,704,16966.10,29.47,-1.00,-1.0,2370
2895,307895,17100,-532,788,17126.41,29.42,-1.00,-1.0,2427
2898,307898,17092,-504,812,17118.70,29.38,-1.00,-1.0,2371
2900,307900,17044,-664,800,17075.68,29.42,-1.00,-1.0,2419
2903,307903,17024,-592,688,17048.18,29.52,-1.00,-1.0,2370
2906,307906,17032,-540,756,17057.32,29.33,-1.00,-1.0,2367
2911,307911,17080,-520,636,17099.75,29.42,-1.00,-1.0,2431
2914,307914,17080,-560,768,17106.43,29.52,-1.00,-1.0,2368
2916,307916,16952,-652,564,16973.91,29.42,-1.00,-1.0,2415
2919,307919,17096,-568,760,17122.31,29.42,-1.00,-1.0,2371
2922,307922,17068,-640,676,17093.37,29.52,-1.00,-1.0,2419
2925,307925,17044,-580,740,17069.91,29.42,-1.00,-1.0,2370
2927,307927,17096,-668,772,17126.45,29.42,-1.00,-1.0,2419
2930,307930,17140,-460,708,17160.78,29.42,-1.00,-1.0,2370
2935,307935,16976,-556,648,16997.46,29.42,-1.00,-1.0,2438
2938,307938,17084,-540,640,17104.51,29.47,-1.00,-1.0,2367
2940,307940,17080,-632,632,17103.37,29.42,-1.00,-1.0,2366
2943,307943,16992,-592,704,17016.88,29.47,-1.00,-1.0,2430
2946,307946,17040,-552,680,17062.49,29.52,-1.00,-1.0,2371
2949,307949,17064,-592,608,17085.09,29.47,-1.00,-1.0,2422
2951,307951,17136,-660,748,17165.01,29.42,-1.00,-1.0,2369
2954,307954,17072,-484,752,17095.41,29.47,-1.00,-1.0,2419
2957,307957,17096,-572,616,17116.65,29.47,-1.00,-1.0,2385
2962,307962,16944,-572,720,16968.93,29.47,-1.00,-1.0,2431
2965,307965,17056,-636,724,17083.20,29.57,-1.00,-1.0,2376
2967,307967,17168,-500,568,17184.67,29.52,-1.00,-1.0,2373
2970,307970,17056,-576,788,17083.91,29.42,-1.00,-1.0,2428
2973,307973,16984,-548,716,17007.92,29.52,-1.00,-1.0,2372
2976,307976,17152,-620,456,17169.26,29.42,-1.00,-1.0,2422
2978,307978,17160,-564,624,17180.60,29.52,-1.00,-1.0,2369
2981,307981,17144,-592,660,17166.91,29.42,-1.00,-1.0,2419
2984,307984,17080,-644,700,17106.46,29.42,-1.00,-1.0,2378
2989,307989,17132,-644,740,17160.06,29.42,-1.00,-1.0,2433
2992,307992,17008,-692,700,17036.46,29.42,-1.00,-1.0,2371
2994,307994,17036,-560,844,17066.08,29.33,-1.00,-1.0,2428
2997,307997,17132,-612,748,17159.24,29.42,-1.00,-1.0,2370
3000,308000,17084,-636,592,17106.08,29.47,-1.00,-1.0,2375
3002,308002,17080,-468,756,17103.13,29.38,-1.00,-1.0,2419
3005,308005,17012,-500,684,17033.09,29.47,-1.00,-1.0,2372
3008,308008,17080,-544,684,17102.34,29.42,-1.00,-1.0,2418
3011,308011,16988,-560,740,17013.33,29.42,-1.00,-1.0,2360
3016,308016,17148,-656,756,17177.19,29.47,-1.00,-1.0,2433
3018,308018,17092,-556,784,17119.00,29.42,-1.00,-1.0,2367
3021,308021,17080,-556,804,17107.95,29.47,-1.00,-1.0,2432
3024,308024,17000,-556,716,17024.15,29.47,-1.00,-1.0,2370
3027,308027,17000,-628,660,17024.39,29.42,-1.00,-1.0,2426
3029,308029,17020,-532,908,17052.50,29.38,-1.00,-1.0,2371
3032,308032,17080,-624,792,17109.73,29.52,-1.00,-1.0,2367
3035,308035,17028,-520,744,17052.18,29.47,-1.00,-1.0,2419
3038,308038,16928,-628,636,16951.58,29.52,-1.00,-1.0,2370
3043,308043,17048,-588,824,17078.03,29.52,-1.00,-1.0,2439
3046,308046,16988,-528,728,17011.79,29.42,-1.00,-1.0,2371
3049,308049,17008,-644,764,17037.33,29.42,-1.00,-1.0,2437
3051,308051,17164,-648,580,17186.02,29.52,-1.00,-1.0,2376
3054,308054,16956,-660,772,16986.39,29.47,-1.00,-1.0,2419
3057,308057,17088,-628,764,17116.60,29.52,-1.00,-1.0,2356
3060,308060,17092,-556,764,17118.10,29.38,-1.00,-1.0,2421
3062,308062,17064,-716,640,17091.00,29.52,-1.00,-1.0,2378
3065,308065,17132,-664,788,17162.96,29.47,-1.00,-1.0,2366
3070,308070,16944,-684,836,16978.39,29.47,-1.00,-1.0,2430
3073,308073,17060,-604,572,17080.27,29.52,-1.00,-1.0,2367
3076,308076,17116,-632,720,17142.79,29.47,-1.00,-1.0,2430
3078,308078,17032,-588,712,17057.01,29.52,-1.00,-1.0,2373
3081,308081,17140,-644,780,17169.82,29.57,-1.00,-1.0,2419
3084,308084,17188,-596,632,17209.94,29.47,-1.00,-1.0,2370
3087,308087,16940,-652,660,16965.38,29.38,-1.00,-1.0,2421
3089,308089,17068,-544,740,17092.69,29.52,-1.00,-1.0,2370
3094,308094,17032,-612,740,17059.05,29.42,-1.00,-1.0,2437
3097,308097,17180,-548,684,17202.34,29.52,-1.00,-1.0,2381
3100,308100,17200,-552,648,17221.05,29.47,-1.00,-1.0,2367
3102,308102,17044,-608,676,17068.23,29.52,-1.00,-1.0,2431
3105,308105,17152,-612,832,17183.07,29.38,-1.00,-1.0,2370
3108,308108,16996,-580,736,17021.81,29.42,-1.00,-1.0,2419
3111,308111,17132,-584,648,17154.20,29.47,-1.00,-1.0,2370
3113,308113,17076,-580,740,17101.87,29.42,-1.00,-1.0,2419
3116,308116,17084,-596,632,17106.07,29.47,-1.00,-1.0,2370
3121,308121,17072,-568,828,17101.50,29.47,-1.00,-1.0,2417
3124,308124,17164,-572,688,17187.30,29.47,-1.00,-1.0,2368
3127,308127,17084,-572,668,17106.62,29.47,-1.00,-1.0,2423
3129,308129,17028,-656,820,17060.35,29.38,-1.00,-1.0,2369
3132,308132,17020,-584,760,17046.97,29.52,-1.00,-1.0,2365
3135,308135,17060,-580,644,17082.00,29.42,-1.00,-1.0,2432
3137,308137,17020,-592,720,17045.51,29.42,-1.00,-1.0,2373
3140,308140,17144,-736,756,17176.44,29.52,-1.00,-1.0,2431
3143,308143,16996,-644,748,17024.64,29.42,-1.00,-1.0,2373
3148,308148,17060,-568,728,17084.97,29.42,-1.00,-1.0,2431
3151,308151,17032,-608,696,17057.05,29.47,-1.00,-1.0,2366
3154,308154,17084,-616,792,17113.44,29.42,-1.00,-1.0,2428
3156,308156,17028,-644,948,17066.52,29.47,-1.00,-1.0,2369
3159,308159,17064,-696,708,17092.86,29.33,-1.00,-1.0,2373
3162,308162,17040,-568,660,17062.23,29.38,-1.00,-1.0,2414
3164,308164,17140,-660,600,17163.19,29.52,-1.00,-1.0,2370
3167,308167,17008,-612,668,17032.11,29.47,-1.00,-1.0,2428
3170,308170,17048,-592,708,17072.96,29.33,-1.00,-1.0,2373
3175,308175,16988,-600,776,17016.29,29.42,-1.00,-1.0,2434
3178,308178,17080,-568,756,17106.16,29.42,-1.00,-1.0,2367
3181,308181,17044,-604,676,17068.09,29.42,-1.00,-1.0,2436
3183,308183,17068,-528,648,17088.46,29.42,-1.00,-1.0,2369
3186,308186,17024,-616,660,17047.92,29.52,-1.00,-1.0,2424
3189,308189,17076,-580,708,17100.51,29.52,-1.00,-1.0,2370
3192,308192,16920,-612,808,16950.33,29.57,-1.00,-1.0,2370
3194,308194,17016,-592,700,17040.68,29.47,-1.00,-1.0,2421
3197,308197,17112,-552,720,17136.03,29.42,-1.00,-1.0,2373
3202,308202,17036,-516,664,17056.74,29.38,-1.00,-1.0,2438
3205,308205,17004,-552,604,17023.68,29.47,-1.00,-1.0,2367
3208,308208,17060,-600,660,17083.30,29.42,-1.00,-1.0,2430
3210,308210,16996,-604,600,17017.31,29.57,-1.00,-1.0,2374
3213,308213,17092,-544,588,17110.76,29.42,-1.00,-1.0,2418
3216,308216,16992,-632,536,17012.20,29.47,-1.00,-1.0,2370
3219,308219,17036,-536,664,17057.36,29.52,-1.00,-1.0,2421
3221,308221,17084,-516,576,17101.49,29.47,-1.00,-1.0,2374
3224,308224,17060,-636,812,17091.15,29.47,-1.00,-1.0,2375
3229,308229,17004,-556,772,17030.59,29.52,-1.00,-1.0,2430
3232,308232,17028,-600,696,17052.78,29.42,-1.00,-1.0,2367
3234,308234,17052,-716,712,17081.87,29.47,-1.00,-1.0,2429
3237,308237,16980,-624,860,17013.21,29.42,-1.00,-1.0,2357
3240,308240,17112,-620,684,17136.88,29.52,-1.00,-1.0,2418
3243,308243,17048,-648,676,17073.70,29.52,-1.00,-1.0,2370
3245,308245,17012,-608,700,17037.25,29.47,-1.00,-1.0,2419
3248,308248,17088,-676,712,17116.18,29.57,-1.00,-1.0,2379
3253,308253,17024,-696,616,17049.35,29.47,-1.00,-1.0,2442
3256,308256,17048,-580,664,17070.78,29.47,-1.00,-1.0,2375
3259,308259,17036,-628,672,17060.81,29.52,-1.00,-1.0,2367
3261,308261,17092,-548,668,17113.82,29.42,-1.00,-1.0,2429
3264,308264,17072,-588,744,17098.32,29.52,-1.00,-1.0,2370
3267,308267,17048,-612,804,17077.92,29.52,-1.00,-1.0,2419
3270,308270,16964,-668,540,16985.73,29.42,-1.00,-1.0,2371
3272,308272,17128,-644,768,17157.30,29.42,-1.00,-1.0,2419
3275,308275,17048,-556,868,17079.13,29.52,-1.00,-1.0,2378
3280,308280,17088,-532,712,17111.10,29.42,-1.00,-1.0,2441
3283,308283,17072,-508,580,17089.40,29.47,-1.00,-1.0,2385
3286,308286,16968,-616,528,16987.38,29.52,-1.00,-1.0,2429
3289,308289,17052,-616,672,17076.35,29.42,-1.00,-1.0,2371
3291,308291,17052,-624,780,17081.23,29.42,-1.00,-1.0,2366
3294,308294,17220,-592,632,17241.76,29.47,-1.00,-1.0,2419
3297,308297,17028,-540,688,17050.45,29.52,-1.00,-1.0,2370
3299,308299,17064,-544,648,17084.96,29.47,-1.00,-1.0,2419
3302,308302,17044,-536,600,17062.98,29.52,-1.00,-1.0,2374
3307,308307,17044,-632,740,17071.76,29.52,-1.00,-1.0,2438
3310,308310,17060,-608,676,17084.21,29.42,-1.00,-1.0,2375
3313,308313,17060,-700,772,17091.80,29.33,-1.00,-1.0,2429
3316,308316,17056,-508,700,17077.92,29.42,-1.00,-1.0,2377
3318,308318,17100,-536,668,17121.43,29.47,-1.00,-1.0,2419
3321,308321,17096,-568,752,17121.96,29.42,-1.00,-1.0,2374
3324,308324,17044,-564,668,17066.41,29.47,-1.00,-1.0,2375
3326,308326,17084,-544,744,17108.84,29.57,-1.00,-1.0,2419
3329,308329,17044,-716,764,17076.13,29.47,-1.00,-1.0,2370
3334,308334,17004,-564,720,17028.58,29.52,-1.00,-1.0,2419
3337,308337,17068,-580,608,17088.67,29.42,-1.00,-1.0,2369
3340,308340,17096,-532,612,17115.22,29.42,-1.00,-1.0,2431
3343,308343,16988,-668,728,17016.71,29.42,-1.00,-1.0,2371
3345,308345,17116,-560,780,17142.91,29.47,-1.00,-1.0,2419
3348,308348,17012,-564,876,17043.87,29.42,-1.00,-1.0,2358
3351,308351,17076,-660,732,17104.42,29.47,-1.00,-1.0,2367
3353,308353,17144,-596,824,17174.13,29.47,-1.00,-1.0,2419
3356,308356,17060,-628,836,17092.01,29.47,-1.00,-1.0,2371
3361,308361,17112,-668,780,17142.79,29.38,-1.00,-1.0,2431
3364,308364,17108,-568,756,17134.11,29.52,-1.00,-1.0,2366
3367,308367,17012,-564,752,17037.95,29.47,-1.00,-1.0,2428
3370,308370,17032,-648,672,17057.56,29.47,-1.00,-1.0,2370
3372,308372,17120,-608,628,17142.30,29.47,-1.00,-1.0,2419
3375,308375,16988,-648,696,17014.60,29.42,-1.00,-1.0,2370
3378,308378,17084,-644,644,17108.26,29.47,-1.00,-1.0,2419
3381,308381,17036,-636,716,17062.90,29.38,-1.00,-1.0,2371
3383,308383,17056,-536,808,17083.54,29.38,-1.00,-1.0,2372
3388,308388,17088,-616,768,17116.34,29.38,-1.00,-1.0,2431
3391,308391,17036,-552,728,17060.48,29.52,-1.00,-1.0,2366
3394,308394,17060,-524,808,17087.16,29.57,-1.00,-1.0,2433
3397,308397,17020,-548,720,17044.04,29.47,-1.00,-1.0,2372
3399,308399,17020,-684,652,17046.21,29.47,-1.00,-1.0,2406
3402,308402,17024,-532,880,17055.03,29.57,-1.00,-1.0,2371
3405,308405,17008,-492,800,17033.91,29.38,-1.00,-1.0,2423
3408,308408,17068,-556,564,17086.37,29.57,-1.00,-1.0,2371
3413,308413,17016,-668,752,17045.70,29.42,-1.00,-1.0,2442
3416,308416,17068,-624,696,17093.58,29.52,-1.00,-1.0,2365
3419,308419,16948,-596,816,16978.10,29.52,-1.00,-1.0,2368
3421,308421,17124,-604,728,17150.11,29.47,-1.00,-1.0,2427
3424,308424,17028,-584,712,17052.88,29.42,-1.00,-1.0,2372
3427,308427,17044,-600,748,17070.95,29.47,-1.00,-1.0,2419
3430,308430,16960,-416,844,16986.08,29.47,-1.00,-1.0,2370
3432,308432,17024,-620,740,17051.35,29.38,-1.00,-1.0,2419
3435,308435,17044,-544,716,17067.71,29.42,-1.00,-1.0,2371
3440,308440,17036,-556,816,17064.59,29.47,-1.00,-1.0,2439
3442,308442,17036,-604,792,17065.09,29.42,-1.00,-1.0,2366
3445,308445,17076,-556,760,17101.95,29.47,-1.00,-1.0,2429
3448,308448,17024,-592,704,17048.83,29.52,-1.00,-1.0,2377
3451,308451,17004,-532,796,17030.93,29.57,-1.00,-1.0,2367
3453,308453,17000,-536,664,17021.40,29.52,-1.00,-1.0,2426
3456,308456,17056,-540,652,17077.00,29.38,-1.00,-1.0,2370
3459,308459,17052,-568,716,17076.47,29.42,-1.00,-1.0,2418
3462,308462,17152,-592,740,17178.16,29.47,-1.00,-1.0,2372
3467,308467,17056,-556,852,17086.32,29.47,-1.00,-1.0,2431
3469,308469,17036,-692,728,17065.58,29.47,-1.00,-1.0,2373
3472,308472,16984,-572,688,17007.55,29.42,-1.00,-1.0,2427
3475,308475,17016,-600,644,17038.75,29.47,-1.00,-1.0,2372
3478,308478,17008,-608,740,17034.94,29.52,-1.00,-1.0,2420
3480,308480,16940,-748,712,16971.45,29.38,-1.00,-1.0,2368
3483,308483,16996,-732,712,17026.65,29.42,-1.00,-1.0,2366
3486,308486,17128,-672,752,17157.67,29.38,-1.00,-1.0,2426
3489,308489,17096,-640,696,17122.13,29.47,-1.00,-1.0,2374
3494,308494,17092,-596,612,17113.33,29.47,-1.00,-1.0,2435
3496,308496,17092,-460,676,17111.55,29.38,-1.00,-1.0,2369
3499,308499,17004,-628,584,17025.61,29.47,-1.00,-1.0,2437
3502,308502,17008,-640,904,17044.03,29.47,-1.00,-1.0,2378
3505,308505,17028,-656,628,17052.20,29.47,-1.00,-1.0,2430
3507,308507,17036,-688,660,17062.66,29.47,-1.00,-1.0,2383
3510,308510,17016,-568,708,17040.19,29.42,-1.00,-1.0,2417
3513,308513,17004,-640,740,17032.12,29.47,-1.00,-1.0,2370
3516,308516,17144,-612,756,17171.57,29.47,-1.00,-1.0,2370
3521,308521,16964,-592,680,16987.94,29.47,-1.00,-1.0,2438
3523,308523,17072,-636,624,17095.23,29.47,-1.00,-1.0,2375
3526,308526,17104,-648,752,17132.78,29.38,-1.00,-1.0,2426
3529,308529,17056,-524,672,17077.27,29.38,-1.00,-1.0,2373
3532,308532,17024,-620,768,17052.59,29.42,-1.00,-1.0,2431
3534,308534,17020,-736,788,17054.12,29.47,-1.00,-1.0,2376
3537,308537,17152,-656,780,17182.25,29.42,-1.00,-1.0,2418
3540,308540,17068,-576,564,17087.03,29.38,-1.00,-1.0,2356
3543,308543,17072,-580,728,17097.36,29.52,-1.00,-1.0,2366
3548,308548,16988,-528,684,17009.96,29.42,-1.00,-1.0,2434
3550,308550,17152,-556,684,17174.63,29.47,-1.00,-1.0,2375
3553,308553,17044,-628,796,17074.13,29.42,-1.00,-1.0,2419
3556,308556,17012,-644,604,17034.90,29.47,-1.00,-1.0,2371
3559,308559,17040,-632,800,17070.47,29.42,-1.00,-1.0,2428
3561,308561,17060,-588,760,17087.04,29.42,-1.00,-1.0,2373
3564,308564,17092,-588,552,17111.02,29.42,-1.00,-1.0,2418
3567,308567,17048,-632,656,17072.32,29.42,-1.00,-1.0,2374
3572,308572,17000,-656,620,17023.95,29.42,-1.00,-1.0,2432
3575,308575,16952,-536,680,16974.10,29.47,-1.00,-1.0,2369
3577,308577,17060,-588,652,17082.58,29.52,-1.00,-1.0,2368
3580,308580,17088,-612,756,17115.66,29.42,-1.00,-1.0,2428
3583,308583,17144,-596,816,17173.75,29.42,-1.00,-1.0,2370
3585,308585,16996,-672,780,17027.15,29.47,-1.00,-1.0,2418
3588,308588,16988,-692,812,17021.47,29.47,-1.00,-1.0,2369
3591,308591,17008,-644,672,17033.45,29.38,-1.00,-1.0,2418
3594,308594,17044,-672,732,17072.94,29.42,-1.00,-1.0,2370
3599,308599,16992,-608,768,17020.21,29.33,-1.00,-1.0,2430
3601,308601,17108,-644,740,17136.10,29.42,-1.00,-1.0,2369
3604,308604,17088,-624,848,17120.40,29.38,-1.00,-1.0,2427
3607,308607,17036,-680,756,17066.32,29.52,-1.00,-1.0,2356
3609,308609,17020,-580,712,17044.76,29.38,-1.00,-1.0,2367
3612,308612,17072,-580,776,17099.47,29.42,-1.00,-1.0,2432
3615,308615,17028,-608,764,17055.97,29.47,-1.00,-1.0,2370
3618,308618,17008,-572,720,17032.84,29.52,-1.00,-1.0,2428
3621,308621,16992,-640,708,17018.78,29.38,-1.00,-1.0,2377
3625,308625,17060,-680,748,17089.92,29.47,-1.00,-1.0,2430
3628,308628,17096,-648,624,17119.65,29.47,-1.00,-1.0,2367
3631,308631,17088,-612,772,17116.38,29.42,-1.00,-1.0,2435
3634,308634,17028,-652,740,17056.54,29.42,-1.00,-1.0,2418
3637,308637,17000,-576,816,17029.32,29.38,-1.00,-1.0,2439
3639,308639,17036,-688,884,17072.79,29.47,-1.00,-1.0,2371
3642,308642,17000,-776,800,17036.50,29.52,-1.00,-1.0,2368
3645,308645,16980,-568,680,17003.10,29.42,-1.00,-1.0,2413
3648,308648,16984,-624,740,17011.56,29.47,-1.00,-1.0,2382
3652,308652,16976,-688,776,17007.65,29.57,-1.00,-1.0,2431
3655,308655,17096,-580,812,17125.10,29.52,-1.00,-1.0,2367
3658,308658,17072,-516,772,17097.23,29.47,-1.00,-1.0,2430
3661,308661,17100,-692,928,17139.14,29.47,-1.00,-1.0,2366
3663,308663,17032,-592,792,17060.68,29.47,-1.00,-1.0,2421
3666,308666,17112,-644,644,17136.22,29.47,-1.00,-1.0,2369
3669,308669,16952,-624,608,16974.37,29.47,-1.00,-1.0,2421
3672,308672,17060,-544,704,17083.18,29.52,-1.00,-1.0,2377
3675,308675,17072,-572,668,17094.64,29.52,-1.00,-1.0,2376
3680,308680,17124,-544,716,17147.59,29.47,-1.00,-1.0,2433
3682,308682,17180,-568,708,17203.96,29.47,-1.00,-1.0,2367
3685,308685,17008,-620,712,17034.18,29.42,-1.00,-1.0,2424
3688,308688,17004,-552,580,17022.84,29.47,-1.00,-1.0,2367
3691,308691,16992,-576,676,17015.19,29.52,-1.00,-1.0,2422
3693,308693,17108,-584,708,17132.60,29.38,-1.00,-1.0,2368
3696,308696,17036,-508,780,17061.41,29.42,-1.00,-1.0,2430
3699,308699,17100,-540,676,17121.88,29.47,-1.00,-1.0,2367
3704,308704,17100,-564,752,17125.82,29.42,-1.00,-1.0,2455
3707,308707,16980,-644,636,17004.11,29.52,-1.00,-1.0,2373
3709,308709,17048,-532,644,17068.45,29.47,-1.00,-1.0,2374
3712,308712,17072,-620,668,17096.31,29.47,-1.00,-1.0,2421
3715,308715,16980,-600,732,17006.36,29.52,-1.00,-1.0,2369
3718,308718,17096,-640,676,17121.33,29.47,-1.00,-1.0,2421
3720,308720,17092,-604,672,17115.87,29.47,-1.00,-1.0,2371
3723,308723,17120,-544,732,17144.28,29.47,-1.00,-1.0,2421
3726,308726,17084,-536,772,17109.83,29.52,-1.00,-1.0,2371
3731,308731,17000,-560,744,17025.48,29.52,-1.00,-1.0,2437
3734,308734,17036,-532,592,17054.58,29.33,-1.00,-1.0,2380
3736,308736,17040,-612,588,17061.12,29.47,-1.00,-1.0,2366
3739,308739,17076,-588,636,17097.95,29.42,-1.00,-1.0,2421
3742,308742,17040,-564,616,17060.46,29.47,-1.00,-1.0,2368
3744,308744,16996,-484,732,17018.64,29.42,-1.00,-1.0,2409
3747,308747,17052,-488,816,17078.49,29.47,-1.00,-1.0,2369
3750,308750,17044,-588,704,17068.66,29.42,-1.00,-1.0,2422
3753,308753,17088,-604,708,17113.32,29.52,-1.00,-1.0,2368
3758,308758,17060,-588,744,17086.34,29.52,-1.00,-1.0,2440
3760,308760,17024,-520,808,17051.10,29.52,-1.00,-1.0,2374
3763,308763,17020,-572,640,17041.63,29.47,-1.00,-1.0,2429
3766,308766,17012,-632,676,17037.15,29.47,-1.00,-1.0,2376
3769,308769,17092,-556,556,17110.08,29.38,-1.00,-1.0,2367
3771,308771,17084,-636,696,17110.00,29.52,-1.00,-1.0,2420
3774,308774,17048,-656,664,17073.53,29.47,-1.00,-1.0,2373
3777,308777,17184,-584,740,17209.84,29.42,-1.00,-1.0,2421
3780,308780,16960,-592,724,16985.77,29.38,-1.00,-1.0,2371
3785,308785,16960,-600,640,16982.67,29.57,-1.00,-1.0,2437
3788,308788,17056,-624,704,17081.92,29.57,-1.00,-1.0,2377
3790,308790,16992,-600,820,17022.35,29.57,-1.00,-1.0,2428
3793,308793,17104,-660,676,17130.07,29.47,-1.00,-1.0,2377
3796,308796,17064,-572,768,17090.85,29.47,-1.00,-1.0,2420
3799,308799,17004,-600,732,17030.32,29.57,-1.00,-1.0,2372
3801,308801,17008,-692,652,17034.55,29.42,-1.00,-1.0,2354
3804,308804,17076,-604,692,17100.69,29.52,-1.00,-1.0,2420
3807,308807,17012,-608,616,17034.00,29.42,-1.00,-1.0,2368
3812,308812,17100,-684,720,17128.81,29.47,-1.00,-1.0,2439
3815,308815,17076,-600,668,17099.59,29.47,-1.00,-1.0,2377
3817,308817,17112,-608,776,17140.37,29.52,-1.00,-1.0,2429
3820,308820,16992,-592,636,17014.20,29.47,-1.00,-1.0,2371
3823,308823,16988,-616,684,17012.92,29.61,-1.00,-1.0,2421
3826,308826,17168,-560,640,17189.05,29.47,-1.00,-1.0,2370
3828,308828,17000,-600,740,17026.67,29.42,-1.00,-1.0,2420
3831,308831,16984,-636,696,17010.15,29.38,-1.00,-1.0,2357
3834,308834,17016,-584,752,17042.62,29.42,-1.00,-1.0,2366
3839,308839,17044,-580,740,17069.91,29.42,-1.00,-1.0,2442
3841,308841,17004,-536,688,17026.35,29.42,-1.00,-1.0,2368
3844,308844,17060,-576,580,17079.57,29.47,-1.00,-1.0,2422
3847,308847,17048,-584,724,17073.36,29.52,-1.00,-1.0,2369
3850,308850,17072,-564,708,17095.98,29.42,-1.00,-1.0,2429
3852,308852,17056,-616,904,17091.04,29.42,-1.00,-1.0,2368
3855,308855,17064,-628,724,17090.89,29.47,-1.00,-1.0,2421
3858,308858,17052,-568,752,17078.02,29.42,-1.00,-1.0,2370
3863,308863,17044,-572,736,17069.47,29.42,-1.00,-1.0,2438
3865,308865,17028,-644,620,17051.45,29.42,-1.00,-1.0,2376
3868,308868,16980,-572,668,17002.76,29.42,-1.00,-1.0,2372
3871,308871,17076,-580,472,17092.37,29.47,-1.00,-1.0,2427
3873,308873,16996,-668,772,17026.63,29.47,-1.00,-1.0,2369
3876,308876,17032,-580,692,17055.92,29.47,-1.00,-1.0,2423
3879,308879,17036,-568,620,17056.74,29.47,-1.00,-1.0,2370
3882,308882,16984,-520,748,17008.41,29.47,-1.00,-1.0,2420
3885,308885,17044,-552,776,17070.58,29.38,-1.00,-1.0,2369
3890,308890,17100,-704,708,17129.12,29.42,-1.00,-1.0,2421
3893,308893,17068,-676,680,17094.91,29.52,-1.00,-1.0,2368
3895,308895,16980,-700,696,17008.67,29.47,-1.00,-1.0,2426
3898,308898,17128,-600,684,17152.15,29.42,-1.00,-1.0,2369
3901,308901,17032,-656,632,17056.34,29.47,-1.00,-1.0,2363
3904,308904,17068,-604,672,17091.90,29.38,-1.00,-1.0,2424
3906,308906,17052,-648,740,17080.35,29.38,-1.00,-1.0,2377
3909,308909,17104,-572,832,17133.77,29.52,-1.00,-1.0,2436
3912,308912,17084,-624,768,17112.63,29.47,-1.00,-1.0,2369
3917,308917,17020,-616,724,17046.53,29.47,-1.00,-1.0,2434
3920,308920,16972,-740,648,17000.48,29.52,-1.00,-1.0,2373
3922,308922,17028,-636,728,17055.42,29.57,-1.00,-1.0,2421
3925,308925,17060,-656,832,17092.87,29.47,-1.00,-1.0,2370
3928,308928,17116,-660,640,17140.67,29.52,-1.00,-1.0,2371
3931,308931,17028,-728,720,17058.76,29.52,-1.00,-1.0,2431
3933,308933,17104,-572,724,17128.87,29.42,-1.00,-1.0,2376
3936,308936,17092,-680,672,17118.72,29.52,-1.00,-1.0,2420
3939,308939,16988,-672,792,17019.72,29.42,-1.00,-1.0,2376
3944,308944,17148,-552,628,17168.37,29.47,-1.00,-1.0,2434
3947,308947,16984,-560,652,17005.73,29.47,-1.00,-1.0,2377
3949,308949,17032,-620,644,17055.44,29.52,-1.00,-1.0,2420
3952,308952,17020,-592,688,17044.18,29.38,-1.00,-1.0,2377
3955,308955,17008,-592,732,17034.04,29.52,-1.00,-1.0,2435
3958,308958,16980,-544,568,16998.21,29.47,-1.00,-1.0,2365
3960,308960,17012,-564,768,17038.66,29.42,-1.00,-1.0,2375
3963,308963,17052,-620,696,17077.46,29.47,-1.00,-1.0,2421
3966,308966,17072,-668,764,17102.14,29.42,-1.00,-1.0,2384
3971,308971,17020,-536,788,17046.66,29.42,-1.00,-1.0,2449
3974,308974,16992,-636,740,17019.99,29.52,-1.00,-1.0,2377
3977,308977,17056,-600,772,17084.00,29.52,-1.00,-1.0,2439
3979,308979,16976,-540,724,17000.01,29.52,-1.00,-1.0,2378
3982,308982,17052,-548,736,17076.67,29.42,-1.00,-1.0,2428
3985,308985,16912,-684,704,16940.46,29.42,-1.00,-1.0,2373
3988,308988,17112,-664,744,17141.03,29.42,-1.00,-1.0,2430
3990,308990,17080,-580,708,17104.50,29.42,-1.00,-1.0,2378
3993,308993,17148,-612,624,17170.26,29.61,-1.00,-1.0,2374
3998,308998,17124,-652,712,17151.19,29.42,-1.00,-1.0,2449
4001,309001,17024,-508,748,17048.00,29.42,-1.00,-1.0,2374
4004,309004,17088,-660,600,17111.26,29.42,-1.00,-1.0,2441
4006,309006,17040,-548,688,17062.69,29.42,-1.00,-1.0,2372
4009,309009,17016,-568,520,17033.42,29.47,-1.00,-1.0,2421
4012,309012,16984,-580,700,17008.31,29.52,-1.00,-1.0,2356
4015,309015,17008,-524,696,17030.30,29.42,-1.00,-1.0,2431
4017,309017,16992,-596,756,17019.25,29.42,-1.00,-1.0,2379
4022,309022,17116,-612,828,17146.94,29.52,-1.00,-1.0,2447
4025,309025,17068,-656,544,17089.26,29.52,-1.00,-1.0,2377
4028,309028,17156,-680,552,17178.34,29.47,-1.00,-1.0,2367
4030,309030,17064,-612,676,17088.35,29.47,-1.00,-1.0,2421
4033,309033,16964,-636,800,16994.76,29.47,-1.00,-1.0,2369
4036,309036,17076,-672,772,17106.65,29.47,-1.00,-1.0,2422
4039,309039,17028,-644,652,17052.64,29.38,-1.00,-1.0,2367
4041,309041,17056,-600,712,17081.40,29.47,-1.00,-1.0,2420
4044,309044,17080,-560,704,17103.67,29.47,-1.00,-1.0,2373
4049,309049,17084,-676,752,17113.90,29.52,-1.00,-1.0,2434
4052,309052,17016,-512,696,17037.92,29.42,-1.00,-1.0,2384
4054,309054,17132,-600,668,17155.51,29.52,-1.00,-1.0,2421
4057,309057,17052,-704,740,17082.56,29.42,-1.00,-1.0,2369
4060,309060,17104,-628,672,17128.71,29.57,-1.00,-1.0,2370
4063,309063,17052,-700,768,17083.63,29.47,-1.00,-1.0,2424
4065,309065,17072,-616,764,17100.19,29.38,-1.00,-1.0,2376
4068,309068,17084,-564,680,17106.83,29.52,-1.00,-1.0,2420
4071,309071,16980,-524,676,17001.53,29.47,-1.00,-1.0,2369
4076,309076,17008,-628,888,17042.74,29.38,-1.00,-1.0,2442
4078,309078,17096,-592,696,17120.40,29.52,-1.00,-1.0,2378
4081,309081,16996,-652,756,17025.29,29.47,-1.00,-1.0,2423
4084,309084,16984,-592,592,17004.62,29.47,-1.00,-1.0,2385
4087,309087,17124,-544,752,17149.13,29.47,-1.00,-1.0,2423
4090,309090,17156,-652,756,17185.02,29.52,-1.00,-1.0,2371
4092,309092,17120,-632,632,17143.31,29.52,-1.00,-1.0,2367
4095,309095,17124,-600,616,17145.58,29.52,-1.00,-1.0,2420
4098,309098,17064,-640,620,17087.25,29.52,-1.00,-1.0,2369
4103,309103,17112,-696,696,17140.29,29.38,-1.00,-1.0,2442
4106,309106,16980,-600,756,17007.41,29.47,-1.00,-1.0,2381
4109,309109,17016,-688,676,17043.31,29.42,-1.00,-1.0,2421
4112,309112,17052,-672,764,17082.33,29.47,-1.00,-1.0,2371
4114,309114,17108,-552,684,17130.56,29.52,-1.00,-1.0,2420
4117,309117,17052,-580,624,17073.27,29.47,-1.00,-1.0,2372
4120,309120,17072,-584,708,17096.65,29.52,-1.00,-1.0,2373
4122,309122,17012,-588,704,17036.71,29.42,-1.00,-1.0,2421
4125,309125,17032,-592,684,17056.01,29.42,-1.00,-1.0,2370
4130,309130,17060,-504,772,17084.89,29.52,-1.00,-1.0,2434
4133,309133,17052,-616,684,17076.83,29.42,-1.00,-1.0,2377
4136,309136,17072,-560,656,17093.77,29.42,-1.00,-1.0,2427
4138,309138,17068,-560,780,17094.99,29.42,-1.00,-1.0,2367
4141,309141,17008,-592,648,17030.63,29.52,-1.00,-1.0,2421
4144,309144,17084,-584,812,17113.25,29.52,-1.00,-1.0,2369
4147,309147,17108,-564,644,17129.40,29.52,-1.00,-1.0,2427
4149,309149,17136,-616,724,17162.35,29.52,-1.00,-1.0,2367
4152,309152,17080,-608,632,17102.50,29.47,-1.00,-1.0,2368
4157,309157,17060,-584,744,17086.20,29.52,-1.00,-1.0,2433
4160,309160,17092,-648,652,17116.70,29.52,-1.00,-1.0,2378
4163,309163,17048,-648,708,17075.00,29.47,-1.00,-1.0,2423
4165,309165,16972,-556,608,16991.99,29.42,-1.00,-1.0,2372
4168,309168,17020,-548,716,17043.87,29.47,-1.00,-1.0,2421
4171,309171,17148,-580,608,17168.57,29.42,-1.00,-1.0,2370
4174,309174,17088,-524,620,17107.27,29.38,-1.00,-1.0,2423
4176,309176,17060,-576,752,17086.28,29.52,-1.00,-1.0,2367
4181,309181,16888,-624,596,16910.03,29.42,-1.00,-1.0,2435
4184,309184,16992,-560,752,17017.85,29.52,-1.00,-1.0,2368
4187,309187,17088,-644,788,17118.28,29.38,-1.00,-1.0,2380
4190,309190,16976,-576,732,17001.54,29.47,-1.00,-1.0,2423
4192,309192,17068,-600,620,17089.79,29.47,-1.00,-1.0,2372
4195,309195,16976,-568,600,16996.09,29.47,-1.00,-1.0,2436
4198,309198,17052,-644,788,17082.34,29.47,-1.00,-1.0,2379
4201,309201,17040,-668,768,17070.37,29.52,-1.00,-1.0,2432
4203,309203,17040,-680,732,17069.27,29.38,-1.00,-1.0,2375
4208,309208,17088,-612,612,17109.90,29.57,-1.00,-1.0,2436
4211,309211,17132,-592,764,17159.24,29.47,-1.00,-1.0,2373
4214,309214,17108,-604,644,17130.77,29.57,-1.00,-1.0,2427
4216,309216,17052,-632,556,17072.76,29.47,-1.00,-1.0,2368
4219,309219,17028,-556,636,17048.94,29.42,-1.00,-1.0,2368
4222,309222,17060,-572,768,17086.86,29.61,-1.00,-1.0,2420
4225,309225,17048,-556,712,17071.92,29.52,-1.00,-1.0,2368
4227,309227,17092,-644,800,17122.83,29.42,-1.00,-1.0,2420
4230,309230,17056,-592,752,17082.83,29.52,-1.00,-1.0,2380
4235,309235,17008,-668,768,17038.43,29.52,-1.00,-1.0,2447
4238,309238,17072,-640,712,17098.82,29.47,-1.00,-1.0,2381
4241,309241,17068,-548,748,17093.17,29.42,-1.00,-1.0,2410
4243,309243,17196,-628,732,17223.03,29.47,-1.00,-1.0,2368
4246,309246,17060,-560,848,17090.24,29.42,-1.00,-1.0,2430
4249,309249,17180,-604,652,17202.97,29.52,-1.00,-1.0,2375
4252,309252,17064,-596,644,17086.54,29.42,-1.00,-1.0,2367
4254,309254,17112,-660,816,17144.15,29.57,-1.00,-1.0,2421
4257,309257,17048,-672,712,17076.09,29.52,-1.00,-1.0,2375
4263,309263,16976,-520,664,16996.94,29.47,-1.00,-1.0,2434
4266,309266,17064,-608,784,17092.82,29.47,-1.00,-1.0,2375
4268,309268,17132,-640,576,17153.62,29.47,-1.00,-1.0,2421
4271,309271,17016,-604,856,17048.22,29.47,-1.00,-1.0,2369
4274,309274,17132,-580,736,17157.61,29.57,-1.00,-1.0,2421
4277,309277,17072,-644,624,17095.54,29.47,-1.00,-1.0,2368
4279,309279,17084,-524,568,17101.47,29.47,-1.00,-1.0,2420
4282,309282,17100,-576,672,17122.89,29.47,-1.00,-1.0,2369
4285,309285,17028,-608,488,17045.84,29.52,-1.00,-1.0,2374
4289,309289,17020,-652,848,17053.58,29.47,-1.00,-1.0,2422
4292,309292,16908,-492,740,16931.34,29.47,-1.00,-1.0,2368
4295,309295,17004,-676,620,17028.72,29.52,-1.00,-1.0,2426
4298,309298,17072,-692,684,17099.71,29.47,-1.00,-1.0,2369
4300,309300,16908,-604,716,16933.93,29.52,-1.00,-1.0,2420
4303,309303,17008,-692,676,17035.49,29.47,-1.00,-1.0,2370
4306,309306,17200,-704,684,17227.98,29.52,-1.00,-1.0,2420
4309,309309,17120,-532,536,17136.65,29.47,-1.00,-1.0,2367
4311,309311,17072,-668,576,17094.77,29.52,-1.00,-1.0,2367
4316,309316,16996,-672,668,17022.39,29.52,-1.00,-1.0,2442
4319,309319,17080,-664,716,17107.89,29.52,-1.00,-1.0,2376
4322,309322,17048,-692,716,17077.05,29.47,-1.00,-1.0,2420
4325,309325,17060,-668,720,17088.25,29.47,-1.00,-1.0,2371
4327,309327,17048,-652,828,17080.54,29.47,-1.00,-1.0,2421
4330,309330,16936,-612,760,16964.09,29.47,-1.00,-1.0,2371
4333,309333,17032,-560,712,17056.07,29.38,-1.00,-1.0,2421
4336,309336,16984,-632,624,17007.21,29.47,-1.00,-1.0,2371
4341,309341,17048,-532,672,17069.53,29.38,-1.00,-1.0,2441
4343,309343,17028,-652,756,17057.24,29.52,-1.00,-1.0,2383
4346,309346,17036,-660,560,17057.97,29.57,-1.00,-1.0,2366
4349,309349,16952,-660,616,16976.02,29.52,-1.00,-1.0,2428
4351,309351,17160,-572,660,17182.21,29.47,-1.00,-1.0,2367
4354,309354,17096,-556,708,17119.69,29.52,-1.00,-1.0,2422
4357,309357,17068,-600,756,17095.27,29.47,-1.00,-1.0,2369
4360,309360,17140,-564,624,17160.62,29.52,-1.00,-1.0,2428
4363,309363,17008,-520,636,17027.83,29.47,-1.00,-1.0,2430
4368,309368,17068,-640,696,17094.17,29.47,-1.00,-1.0,2441
4370,309370,17068,-604,576,17088.39,29.47,-1.00,-1.0,2376
4373,309373,17084,-580,580,17103.68,29.42,-1.00,-1.0,2421
4376,309376,17080,-624,724,17106.72,29.38,-1.00,-1.0,2371
4378,309378,17096,-608,744,17122.98,29.52,-1.00,-1.0,2367
4381,309381,17084,-584,724,17109.30,29.52,-1.00,-1.0,2437
4384,309384,17036,-536,596,17054.85,29.42,-1.00,-1.0,2368
4387,309387,17056,-540,844,17085.40,29.47,-1.00,-1.0,2427
4389,309389,17080,-572,676,17102.94,29.52,-1.00,-1.0,2368
4394,309394,17048,-540,684,17070.26,29.42,-1.00,-1.0,2439
4397,309397,16976,-624,840,17008.22,29.52,-1.00,-1.0,2370
4400,309400,17004,-592,696,17028.53,29.42,-1.00,-1.0,2420
4403,309403,17064,-604,712,17089.53,29.52,-1.00,-1.0,2374
4405,309405,17104,-664,688,17130.71,29.42,-1.00,-1.0,2420
4408,309408,17076,-600,776,17104.15,29.52,-1.00,-1.0,2368
4411,309411,17036,-752,632,17064.30,29.47,-1.00,-1.0,2370
4414,309414,17076,-572,712,17100.41,29.47,-1.00,-1.0,2421
4416,309416,17032,-680,764,17062.68,29.42,-1.00,-1.0,2367
4421,309421,17004,-692,700,17032.46,29.52,-1.00,-1.0,2437
4424,309424,17024,-644,716,17051.22,29.42,-1.00,-1.0,2369
4427,309427,17060,-636,628,17083.40,29.47,-1.00,-1.0,2420
4430,309430,17068,-672,764,17098.30,29.42,-1.00,-1.0,2380
4432,309432,17012,-660,708,17039.51,29.47,-1.00,-1.0,2420
4435,309435,17080,-664,572,17102.47,29.42,-1.00,-1.0,2371
4438,309438,17028,-632,692,17053.77,29.57,-1.00,-1.0,2429
4441,309441,17056,-580,800,17084.60,29.52,-1.00,-1.0,2375
4443,309443,17048,-684,764,17078.81,29.47,-1.00,-1.0,2373
4448,309448,17032,-708,696,17060.91,29.47,-1.00,-1.0,2438
4451,309451,17100,-624,860,17132.98,29.52,-1.00,-1.0,2372
4454,309454,17104,-680,592,17127.75,29.57,-1.00,-1.0,2435
4457,309457,17108,-520,756,17132.59,29.57,-1.00,-1.0,2376
4460,309460,17124,-580,668,17146.84,29.47,-1.00,-1.0,2434
4462,309462,16980,-608,720,17006.13,29.47,-1.00,-1.0,2372
4465,309465,16920,-500,644,16939.63,29.52,-1.00,-1.0,2428
4468,309468,17088,-572,740,17113.58,29.47,-1.00,-1.0,2376
4473,309473,17068,-568,632,17089.14,29.52,-1.00,-1.0,2440
4475,309475,17108,-576,716,17132.66,29.52,-1.00,-1.0,2376
4478,309478,17024,-616,756,17051.91,29.52,-1.00,-1.0,2368
4481,309481,17100,-604,668,17123.70,29.47,-1.00,-1.0,2427
4483,309483,17028,-600,796,17057.15,29.57,-1.00,-1.0,2368
4486,309486,16972,-696,728,17001.86,29.47,-1.00,-1.0,2426
4489,309489,17076,-584,748,17102.35,29.57,-1.00,-1.0,2365
4492,309492,17084,-556,624,17104.43,29.47,-1.00,-1.0,2426
4495,309495,17124,-464,664,17143.15,29.61,-1.00,-1.0,2367
4499,309499,17020,-612,784,17049.04,29.57,-1.00,-1.0,2438
4502,309502,16992,-568,800,17020.30,29.57,-1.00,-1.0,2365
4505,309505,17040,-660,768,17070.06,29.47,-1.00,-1.0,2369
4507,309507,17012,-644,612,17035.18,29.52,-1.00,-1.0,2422
4510,309510,17104,-612,596,17125.32,29.52,-1.00,-1.0,2376
4513,309513,17132,-588,720,17157.20,29.52,-1.00,-1.0,2422
4516,309516,17084,-620,716,17110.23,29.52,-1.00,-1.0,2370
4519,309519,17028,-464,652,17046.79,29.42,-1.00,-1.0,2420
4522,309522,17144,-584,732,17169.55,29.42,-1.00,-1.0,2368
4527,309527,16980,-720,640,17007.30,29.52,-1.00,-1.0,2446
4529,309529,17108,-672,592,17131.42,29.42,-1.00,-1.0,2378
4532,309532,16948,-684,744,16978.11,29.52,-1.00,-1.0,2419
4535,309535,17140,-604,580,17160.44,29.52,-1.00,-1.0,2369
4537,309537,17036,-584,752,17062.59,29.47,-1.00,-1.0,2366
4540,309540,17016,-544,636,17036.57,29.47,-1.00,-1.0,2420
4543,309543,17048,-584,756,17074.74,29.47,-1.00,-1.0,2369
4546,309546,17080,-664,620,17104.14,29.47,-1.00,-1.0,2409
4549,309549,17104,-512,648,17123.93,29.52,-1.00,-1.0,2367
4554,309554,17060,-628,556,17080.61,29.52,-1.00,-1.0,2446
4556,309556,17088,-604,680,17112.19,29.42,-1.00,-1.0,2375
4559,309559,17000,-600,664,17023.54,29.52,-1.00,-1.0,2422
4562,309562,16988,-616,580,17009.06,29.52,-1.00,-1.0,2384
4565,309565,17040,-620,772,17068.74,29.42,-1.00,-1.0,2423
4568,309568,16984,-628,708,17010.35,29.42,-1.00,-1.0,2373
4570,309570,16976,-560,860,17006.99,29.52,-1.00,-1.0,2366
4573,309573,17120,-648,744,17148.41,29.57,-1.00,-1.0,2419
4576,309576,17120,-516,744,17143.93,29.47,-1.00,-1.0,2367
4581,309581,17048,-588,644,17070.29,29.57,-1.00,-1.0,2438
4583,309583,17036,-528,704,17058.71,29.52,-1.00,-1.0,2375
4586,309586,17220,-588,640,17241.92,29.47,-1.00,-1.0,2419
4589,309589,16996,-588,764,17023.32,29.57,-1.00,-1.0,2372
4592,309592,17056,-508,816,17083.06,29.47,-1.00,-1.0,2419
4594,309594,17036,-516,720,17059.01,29.42,-1.00,-1.0,2355
4597,309597,17028,-676,748,17057.82,29.47,-1.00,-1.0,2419
4600,309600,17112,-632,744,17139.82,29.47,-1.00,-1.0,2371
4603,309603,16992,-544,680,17014.30,29.47,-1.00,-1.0,2366
4608,309608,16956,-636,772,16985.48,29.47,-1.00,-1.0,2438
4610,309610,17020,-540,816,17048.10,29.47,-1.00,-1.0,2357
4613,309613,17112,-604,636,17134.46,29.47,-1.00,-1.0,2419
4616,309616,17072,-508,720,17094.73,29.47,-1.00,-1.0,2369
4619,309619,16920,-488,680,16940.69,29.38,-1.00,-1.0,2420
4621,309621,17012,-560,764,17038.35,29.47,-1.00,-1.0,2355
4624,309624,17060,-668,768,17090.34,29.47,-1.00,-1.0,2420
4627,309627,17056,-668,672,17082.30,29.47,-1.00,-1.0,2371
4632,309632,17060,-632,676,17085.08,29.52,-1.00,-1.0,2427
4634,309634,17060,-620,764,17088.35,29.42,-1.00,-1.0,2376
4637,309637,17096,-596,832,17126.61,29.47,-1.00,-1.0,2365
4640,309640,17052,-708,676,17080.07,29.42,-1.00,-1.0,2419
4643,309643,17068,-592,616,17089.37,29.47,-1.00,-1.0,2368
4645,309645,17040,-616,676,17064.53,29.52,-1.00,-1.0,2407
4648,309648,16984,-728,852,17020.93,29.47,-1.00,-1.0,2369
4651,309651,17004,-544,792,17031.12,29.42,-1.00,-1.0,2422
4654,309654,17032,-660,720,17059.98,29.42,-1.00,-1.0,2436
4659,309659,17140,-708,624,17165.96,29.47,-1.00,-1.0,2420
4661,309661,17028,-600,524,17046.62,29.52,-1.00,-1.0,2372
4664,309664,17080,-640,772,17109.41,29.47,-1.00,-1.0,2436
4667,309667,17060,-588,676,17083.51,29.52,-1.00,-1.0,2376
4670,309670,17028,-540,644,17048.73,29.52,-1.00,-1.0,2366
4672,309672,16988,-568,648,17009.84,29.42,-1.00,-1.0,2420
4675,309675,17072,-552,708,17095.59,29.52,-1.00,-1.0,2368
4678,309678,16972,-620,728,16998.92,29.42,-1.00,-1.0,2421
4681,309681,17096,-636,756,17124.52,29.42,-1.00,-1.0,2377
4686,309686,17108,-644,780,17137.88,29.47,-1.00,-1.0,2440
4688,309688,17040,-588,672,17063.38,29.47,-1.00,-1.0,2386
4691,309691,17044,-552,668,17066.02,29.47,-1.00,-1.0,2421
4694,309694,17088,-568,860,17119.05,29.47,-1.00,-1.0,2369
4696,309696,17008,-636,736,17035.79,29.61,-1.00,-1.0,2367
4699,309699,17064,-640,720,17091.17,29.52,-1.00,-1.0,2421
4702,309702,17044,-652,724,17071.83,29.42,-1.00,-1.0,2368
4705,309705,17044,-596,756,17071.17,29.47,-1.00,-1.0,2408
4708,309708,17012,-656,728,17040.20,29.47,-1.00,-1.0,2374
4712,309712,17028,-568,700,17051.84,29.52,-1.00,-1.0,2431
4715,309715,17148,-628,672,17172.65,29.42,-1.00,-1.0,2375
4718,309718,17080,-580,644,17101.97,29.52,-1.00,-1.0,2420
4721,309721,17028,-512,784,17053.73,29.52,-1.00,-1.0,2368
4723,309723,17072,-608,680,17096.35,29.52,-1.00,-1.0,2419
4726,309726,17100,-580,800,17128.53,29.42,-1.00,-1.0,2368
4729,309729,16992,-676,712,17020.34,29.47,-1.00,-1.0,2370
4732,309732,17096,-648,636,17120.09,29.47,-1.00,-1.0,2423
4735,309735,17044,-604,716,17069.72,29.47,-1.00,-1.0,2371
4740,309740,17036,-592,864,17068.16,29.57,-1.00,-1.0,2438
4742,309742,17076,-644,672,17101.35,29.47,-1.00,-1.0,2374
4745,309745,17096,-544,624,17116.03,29.47,-1.00,-1.0,2430
4748,309748,17084,-648,672,17109.49,29.42,-1.00,-1.0,2375
4751,309751,17064,-624,728,17090.92,29.47,-1.00,-1.0,2409
4753,309753,16956,-568,596,16975.98,29.47,-1.00,-1.0,2369
4756,309756,17084,-624,572,17104.96,29.47,-1.00,-1.0,2429
4759,309759,17104,-616,624,17126.46,29.47,-1.00,-1.0,2376
4762,309762,17108,-676,756,17138.03,29.47,-1.00,-1.0,2354
4767,309767,17132,-636,780,17161.54,29.47,-1.00,-1.0,2439
4769,309769,17100,-656,628,17124.10,29.47,-1.00,-1.0,2374
4772,309772,17160,-560,704,17183.56,29.52,-1.00,-1.0,2428
4775,309775,17032,-572,708,17056.30,29.57,-1.00,-1.0,2383
4778,309778,17036,-572,748,17062.00,29.52,-1.00,-1.0,2425
4781,309781,17064,-548,724,17088.14,29.47,-1.00,-1.0,2370
4783,309783,17060,-540,808,17087.66,29.52,-1.00,-1.0,2427
4786,309786,17008,-592,688,17032.20,29.57,-1.00,-1.0,2377
4791,309791,17076,-632,688,17101.54,29.47,-1.00,-1.0,2446
4794,309794,17112,-600,660,17135.23,29.47,-1.00,-1.0,2383
4796,309796,17052,-484,720,17074.05,29.52,-1.00,-1.0,2362
4799,309799,16988,-524,644,17008.28,29.47,-1.00,-1.0,2420
4802,309802,17160,-572,712,17184.29,29.42,-1.00,-1.0,2356
4805,309805,16984,-608,680,17008.48,29.42,-1.00,-1.0,2420
4807,309807,17016,-596,600,17037.00,29.33,-1.00,-1.0,2368
4810,309810,17000,-696,820,17033.99,29.47,-1.00,-1.0,2420
4813,309813,17036,-548,744,17061.04,29.52,-1.00,-1.0,2368
4818,309818,17068,-656,768,17097.86,29.42,-1.00,-1.0,2433
4821,309821,17092,-540,632,17112.20,29.42,-1.00,-1.0,2375
4823,309823,17060,-560,592,17079.45,29.52,-1.00,-1.0,2419
4826,309826,17076,-712,604,17101.51,29.42,-1.00,-1.0,2369
4829,309829,17060,-600,576,17080.26,29.47,-1.00,-1.0,2373
4831,309831,17036,-532,904,17068.26,29.47,-1.00,-1.0,2420
4834,309834,17068,-644,692,17094.16,29.47,-1.00,-1.0,2369
4837,309837,17104,-524,752,17128.54,29.47,-1.00,-1.0,2419
4840,309840,17096,-648,716,17123.25,29.52,-1.00,-1.0,2368
4845,309845,17056,-656,708,17083.29,29.52,-1.00,-1.0,2432
4848,309848,17000,-660,684,17026.55,29.52,-1.00,-1.0,2374
4850,309850,17040,-608,716,17065.87,29.57,-1.00,-1.0,2420
4853,309853,17052,-604,664,17075.61,29.52,-1.00,-1.0,2369
4856,309856,17080,-696,712,17109.00,29.57,-1.00,-1.0,2420
4859,309859,17044,-656,736,17072.49,29.61,-1.00,-1.0,2371
4861,309861,17048,-608,584,17068.83,29.47,-1.00,-1.0,2370
4864,309864,17100,-580,648,17122.10,29.42,-1.00,-1.0,2435
4867,309867,17136,-660,748,17165.01,29.47,-1.00,-1.0,2374
4872,309872,17152,-608,648,17175.00,29.47,-1.00,-1.0,2432
4875,309875,17036,-572,632,17057.31,29.57,-1.00,-1.0,2367
4877,309877,17012,-572,832,17041.94,29.38,-1.00,-1.0,2414
4880,309880,17060,-588,668,17083.20,29.47,-1.00,-1.0,2369
4883,309883,17024,-572,840,17054.31,29.38,-1.00,-1.0,2419
4886,309886,16988,-576,784,17015.83,29.38,-1.00,-1.0,2367
4888,309888,17092,-616,628,17114.62,29.52,-1.00,-1.0,2369
4891,309891,16932,-516,616,16951.06,29.52,-1.00,-1.0,2429
4894,309894,17044,-604,628,17066.26,29.47,-1.00,-1.0,2369
4899,309899,17020,-628,652,17044.06,29.52,-1.00,-1.0,2438
4901,309901,17176,-668,844,17209.69,29.42,-1.00,-1.0,2375
4904,309904,16964,-552,704,16987.57,29.42,-1.00,-1.0,2428
4907,309907,17076,-524,816,17103.51,29.42,-1.00,-1.0,2385
4910,309910,17084,-668,724,17112.38,29.42,-1.00,-1.0,2426
4913,309913,17032,-524,564,17049.39,29.42,-1.00,-1.0,2369
4915,309915,17052,-692,668,17079.10,29.47,-1.00,-1.0,2427
4918,309918,16984,-664,740,17013.08,29.42,-1.00,-1.0,2376
4921,309921,17024,-576,700,17048.12,29.42,-1.00,-1.0,2366
4926,309926,17020,-600,592,17040.86,29.47,-1.00,-1.0,2435
4928,309928,17016,-528,720,17039.41,29.47,-1.00,-1.0,2374
4931,309931,17064,-732,720,17094.86,29.38,-1.00,-1.0,2419
4934,309934,17036,-532,720,17059.51,29.47,-1.00,-1.0,2356
4937,309937,16972,-608,636,16994.79,29.47,-1.00,-1.0,2419
4939,309939,17088,-624,668,17112.43,29.57,-1.00,-1.0,2369
4942,309942,17044,-712,652,17071.32,29.47,-1.00,-1.0,2419
4945,309945,17016,-632,684,17041.46,29.52,-1.00,-1.0,2376
4950,309950,17064,-580,652,17086.30,29.52,-1.00,-1.0,2432
4953,309953,16988,-532,860,17018.07,29.42,-1.00,-1.0,2386
4955,309955,17080,-536,680,17101.93,29.47,-1.00,-1.0,2373
4958,309958,17060,-576,780,17087.53,29.47,-1.00,-1.0,2420
4961,309961,16996,-632,696,17021.98,29.47,-1.00,-1.0,2369
4964,309964,17080,-564,676,17102.67,29.47,-1.00,-1.0,2420
4966,309966,17020,-656,696,17046.85,29.57,-1.00,-1.0,2370
4969,309969,17064,-584,764,17091.07,29.57,-1.00,-1.0,2420
4972,309972,17100,-668,852,17134.24,29.47,-1.00,-1.0,2383
4977,309977,17088,-568,624,17108.82,29.42,-1.00,-1.0,2435
4980,309980,17008,-524,692,17030.13,29.42,-1.00,-1.0,2368
4983,309983,17112,-624,560,17132.53,29.52,-1.00,-1.0,2427
4985,309985,17080,-656,612,17103.54,29.42,-1.00,-1.0,2374
4988,309988,17036,-592,876,17068.78,29.47,-1.00,-1.0,2368
4991,309991,17068,-540,712,17091.38,29.47,-1.00,-1.0,2421
4994,309994,16956,-680,792,16988.10,29.47,-1.00,-1.0,2368
4996,309996,17028,-568,728,17053.02,29.47,-1.00,-1.0,2420
4999,309999,16980,-584,764,17007.21,29.47,-1.00,-1.0,2371
5004,310004,17052,-500,596,17069.74,29.57,-1.00,-1.0,2448
5007,310007,17092,-604,792,17121.00,29.42,-1.00,-1.0,2383
5010,310010,17024,-632,672,17048.98,29.57,-1.00,-1.0,2430
5012,310012,17080,-520,832,17108.16,29.38,-1.00,-1.0,2377
5015,310015,17008,-556,808,17036.26,29.57,-1.00,-1.0,2420
5018,310018,17088,-612,772,17116.38,29.57,-1.00,-1.0,2373
5021,310021,17080,-492,796,17105.62,29.38,-1.00,-1.0,2427
5023,310023,17108,-692,792,17140.30,29.61,-1.00,-1.0,2427
5026,310026,17148,-660,756,17177.34,29.42,-1.00,-1.0,2372
5031,310031,16984,-556,760,17010.09,29.42,-1.00,-1.0,2431
5034,310034,17056,-580,696,17080.04,29.47,-1.00,-1.0,2378
5037,310037,17052,-600,852,17083.81,29.52,-1.00,-1.0,2421
5039,310039,17108,-580,844,17138.62,29.33,-1.00,-1.0,2370
5042,310042,17156,-528,724,17179.39,29.42,-1.00,-1.0,2421
5045,310045,17028,-584,760,17054.95,29.42,-1.00,-1.0,2370
5048,310048,17052,-544,684,17074.38,29.52,-1.00,-1.0,2421
5050,310050,16980,-560,700,17003.65,29.52,-1.00,-1.0,2369
5053,310053,17008,-536,708,17031.17,29.42,-1.00,-1.0,2365
5058,310058,17084,-628,568,17104.97,29.57,-1.00,-1.0,2426
5061,310061,17084,-548,696,17106.95,29.47,-1.00,-1.0,2381
5064,310064,17060,-660,744,17088.96,29.42,-1.00,-1.0,2429
5066,310066,16940,-588,628,16961.83,29.47,-1.00,-1.0,2375
5069,310069,17144,-576,724,17168.95,29.42,-1.00,-1.0,2420
5072,310072,17004,-636,684,17029.63,29.47,-1.00,-1.0,2369
5075,310075,17084,-540,836,17112.96,29.42,-1.00,-1.0,2420
5077,310077,17104,-636,660,17128.54,29.57,-1.00,-1.0,2375
5080,310080,17052,-584,724,17077.35,29.52,-1.00,-1.0,2365
5085,310085,17048,-664,680,17074.47,29.52,-1.00,-1.0,2439
5088,310088,17052,-596,776,17080.05,29.42,-1.00,-1.0,2374
5091,310091,17040,-628,656,17064.18,29.42,-1.00,-1.0,2421
5093,310093,16980,-616,720,17006.42,29.52,-1.00,-1.0,2375
5096,310096,16988,-640,776,17017.75,29.42,-1.00,-1.0,2421
5099,310099,17016,-664,656,17041.58,29.42,-1.00,-1.0,2371
5102,310102,17112,-604,568,17132.07,29.52,-1.00,-1.0,2420
5104,310104,16960,-600,824,16990.60,29.42,-1.00,-1.0,2370
5111,310111,16932,-592,748,16958.85,29.42,-1.00,-1.0,2442
5114,310114,17080,-604,720,17105.84,29.42,-1.00,-1.0,2373
5116,310116,17060,-636,700,17086.20,29.38,-1.00,-1.0,2352
5119,310119,17036,-540,728,17060.10,29.57,-1.00,-1.0,2420
5122,310122,17088,-584,676,17111.33,29.47,-1.00,-1.0,2372
5125,310125,17072,-560,636,17093.02,29.47,-1.00,-1.0,2428
5127,310127,17088,-524,704,17110.52,29.47,-1.00,-1.0,2369
5130,310130,17008,-548,624,17028.26,29.57,-1.00,-1.0,2426
5133,310133,17028,-656,624,17052.05,29.47,-1.00,-1.0,2369
5138,310138,17000,-704,768,17031.89,29.42,-1.00,-1.0,2439
5140,310140,16980,-472,772,17004.09,29.52,-1.00,-1.0,2367
5143,310143,17068,-596,760,17095.30,29.47,-1.00,-1.0,2428
5146,310146,17012,-628,772,17041.08,29.47,-1.00,-1.0,2369
5148,310148,17016,-480,740,17038.85,29.52,-1.00,-1.0,2370
5151,310151,16952,-660,748,16981.33,29.42,-1.00,-1.0,2431
5154,310154,17132,-644,748,17160.41,29.52,-1.00,-1.0,2384
5157,310157,17052,-544,792,17079.05,29.52,-1.00,-1.0,2422
5160,310160,17016,-628,676,17041.00,29.52,-1.00,-1.0,2368
5164,310164,16996,-612,848,17028.14,29.57,-1.00,-1.0,2432
5167,310167,17068,-548,852,17098.04,29.47,-1.00,-1.0,2376
5170,310170,17104,-520,652,17124.32,29.52,-1.00,-1.0,2435
5173,310173,17052,-592,708,17076.96,29.52,-1.00,-1.0,2379
5176,310176,17064,-680,644,17089.68,29.52,-1.00,-1.0,2433
5178,310178,16984,-656,592,17006.97,29.42,-1.00,-1.0,2374
5181,310181,17036,-648,664,17061.25,29.47,-1.00,-1.0,2368
5184,310184,17080,-552,756,17105.63,29.57,-1.00,-1.0,2420
5186,310186,16920,-680,600,16944.29,29.47,-1.00,-1.0,2369
5191,310191,17084,-612,676,17108.32,29.52,-1.00,-1.0,2439
5194,310194,17156,-584,784,17183.83,29.42,-1.00,-1.0,2388
5197,310197,17032,-572,848,17062.69,29.47,-1.00,-1.0,2420
5200,310200,17028,-596,796,17057.01,29.52,-1.00,-1.0,2370
5202,310202,16968,-516,700,16990.27,29.47,-1.00,-1.0,2419
5205,310205,16984,-584,520,17001.99,29.52,-1.00,-1.0,2355
5208,310208,17044,-632,736,17071.59,29.47,-1.00,-1.0,2420
5211,310211,17008,-564,648,17029.68,29.52,-1.00,-1.0,2367
5213,310213,17032,-568,820,17061.19,29.47,-1.00,-1.0,2367
5218,310218,17036,-640,752,17064.60,29.47,-1.00,-1.0,2431
5221,310221,17096,-584,560,17115.14,29.47,-1.00,-1.0,2377
5224,310224,17060,-556,672,17082.28,29.57,-1.00,-1.0,2420
5226,310226,16988,-592,780,17016.20,29.47,-1.00,-1.0,2354
5229,310229,17004,-512,596,17022.14,29.47,-1.00,-1.0,2419
5232,310232,17084,-664,816,17116.36,29.47,-1.00,-1.0,2369
5235,310235,17132,-488,696,17153.07,29.57,-1.00,-1.0,2420
5237,310237,17128,-496,716,17150.13,29.47,-1.00,-1.0,2370
5242,310242,17136,-668,652,17161.40,29.47,-1.00,-1.0,2443
5245,310245,17184,-580,740,17209.70,29.52,-1.00,-1.0,2383
5248,310248,17012,-556,668,17034.19,29.47,-1.00,-1.0,2372
5250,310250,17052,-580,784,17079.86,29.42,-1.00,-1.0,2419
5253,310253,17028,-588,712,17053.02,29.42,-1.00,-1.0,2369
5256,310256,17048,-472,680,17068.08,29.52,-1.00,-1.0,2419
5259,310259,17024,-592,848,17055.38,29.52,-1.00,-1.0,2368
5261,310261,16996,-564,696,17019.59,29.52,-1.00,-1.0,2420
5264,310264,17140,-636,816,17171.20,29.52,-1.00,-1.0,2368
5269,310269,17080,-544,792,17107.00,29.47,-1.00,-1.0,2419
5272,310272,17100,-548,720,17123.92,29.47,-1.00,-1.0,2367
5274,310274,17024,-520,716,17046.98,29.52,-1.00,-1.0,2364
5277,310277,17124,-616,660,17147.78,29.57,-1.00,-1.0,2443
5280,310280,17120,-592,848,17151.21,29.52,-1.00,-1.0,2368
5283,310283,16964,-568,832,16993.88,29.47,-1.00,-1.0,2430
5285,310285,17040,-728,704,17070.07,29.52,-1.00,-1.0,2368
5288,310288,17056,-612,580,17076.83,29.57,-1.00,-1.0,2430
5291,310291,17024,-616,652,17047.61,29.42,-1.00,-1.0,2375
5296,310296,17060,-532,608,17079.12,29.52,-1.00,-1.0,2431
5299,310299,17072,-584,772,17099.42,29.52,-1.00,-1.0,2381
5301,310301,17044,-664,628,17068.49,29.52,-1.00,-1.0,2420
5304,310304,17108,-640,640,17131.93,29.52,-1.00,-1.0,2370
5307,310307,16960,-636,672,16985.22,29.47,-1.00,-1.0,2366
5310,310310,17056,-588,792,17084.50,29.38,-1.00,-1.0,2419
5312,310312,17076,-548,712,17099.62,29.47,-1.00,-1.0,2375
5315,310315,17052,-596,784,17080.41,29.47,-1.00,-1.0,2420
5318,310318,17064,-572,552,17082.51,29.47,-1.00,-1.0,2369
5323,310323,17076,-656,736,17104.44,29.52,-1.00,-1.0,2431
5325,310325,17028,-620,772,17056.76,29.47,-1.00,-1.0,2381
5328,310328,17000,-580,712,17024.79,29.42,-1.00,-1.0,2419
5331,310331,17112,-476,608,17129.41,29.47,-1.00,-1.0,2369
5334,310334,17168,-696,808,17201.09,29.42,-1.00,-1.0,2419
5336,310336,17068,-552,648,17089.21,29.47,-1.00,-1.0,2370
5339,310339,17076,-596,776,17104.01,29.52,-1.00,-1.0,2365
5342,310342,17088,-604,868,17120.69,29.47,-1.00,-1.0,2426
5344,310344,17084,-656,744,17112.77,29.42,-1.00,-1.0,2367
5349,310349,17020,-644,772,17049.67,29.52,-1.00,-1.0,2432
5352,310352,17104,-528,648,17124.41,29.57,-1.00,-1.0,2375
5355,310355,17060,-580,760,17086.77,29.52,-1.00,-1.0,2419
5357,310357,16996,-596,744,17022.71,29.42,-1.00,-1.0,2356
5360,310360,17112,-656,768,17141.78,29.52,-1.00,-1.0,2420
5363,310363,17112,-596,680,17135.87,29.42,-1.00,-1.0,2372
5366,310366,17048,-588,764,17075.24,29.42,-1.00,-1.0,2420
5368,310368,17072,-592,824,17102.12,29.42,-1.00,-1.0,2368
5371,310371,17124,-692,712,17152.76,29.42,-1.00,-1.0,2365
5376,310376,16992,-664,816,17024.54,29.42,-1.00,-1.0,2431
5379,310379,17044,-580,664,17066.79,29.42,-1.00,-1.0,2373
5382,310382,17000,-600,624,17022.03,29.52,-1.00,-1.0,2420
5385,310385,16976,-620,652,16999.83,29.61,-1.00,-1.0,2368
5387,310387,17028,-684,696,17055.94,29.52,-1.00,-1.0,2419
5390,310390,17028,-596,664,17051.36,29.52,-1.00,-1.0,2368
5393,310393,16956,-620,772,16984.88,29.47,-1.00,-1.0,2419
5396,310396,17076,-616,560,17096.28,29.52,-1.00,-1.0,2368
5401,310401,17056,-664,860,17090.57,29.61,-1.00,-1.0,2434
5403,310403,17104,-556,780,17130.80,29.52,-1.00,-1.0,2373
5406,310406,17092,-584,768,17119.21,29.47,-1.00,-1.0,2372
5409,310409,17020,-652,752,17049.08,29.57,-1.00,-1.0,2427
5411,310411,16920,-608,784,16949.06,29.42,-1.00,-1.0,2364
5414,310414,17072,-604,660,17095.43,29.47,-1.00,-1.0,2420
5417,310417,17016,-620,632,17039.02,29.47,-1.00,-1.0,2365
5420,310420,17100,-588,696,17124.26,29.57,-1.00,-1.0,2430
5422,310422,17020,-680,648,17045.90,29.47,-1.00,-1.0,2364
5428,310428,17096,-708,788,17128.79,29.52,-1.00,-1.0,2431
5430,310430,17092,-616,652,17115.52,29.42,-1.00,-1.0,2372
5433,310433,17008,-564,644,17029.53,29.47,-1.00,-1.0,2419
5436,310436,17048,-532,784,17074.31,29.52,-1.00,-1.0,2365
5438,310438,17056,-600,692,17080.57,29.38,-1.00,-1.0,2366
5441,310441,17008,-604,712,17033.61,29.52,-1.00,-1.0,2434
5444,310444,17008,-596,560,17027.65,29.47,-1.00,-1.0,2369
5447,310447,17008,-668,856,17042.62,29.52,-1.00,-1.0,2426
5449,310449,17140,-648,760,17169.07,29.42,-1.00,-1.0,2375
5454,310454,17044,-564,648,17065.64,29.47,-1.00,-1.0,2434
5457,310457,17028,-644,748,17056.58,29.57,-1.00,-1.0,2373
5460,310460,17064,-552,492,17080.01,29.61,-1.00,-1.0,2420
5463,310463,17148,-512,736,17171.42,29.47,-1.00,-1.0,2376
5465,310465,17132,-620,748,17159.53,29.52,-1.00,-1.0,2374
5468,310468,17088,-620,808,17118.32,29.47,-1.00,-1.0,2419
5471,310471,17044,-660,748,17073.17,29.52,-1.00,-1.0,2368
5474,310474,17104,-512,692,17125.65,29.47,-1.00,-1.0,2420
5477,310477,17088,-572,656,17110.15,29.61,-1.00,-1.0,2373
5481,310481,17076,-620,792,17105.60,29.52,-1.00,-1.0,2431
5484,310484,17032,-572,700,17055.97,29.47,-1.00,-1.0,2377
5487,310487,17080,-636,836,17112.27,29.42,-1.00,-1.0,2435
5490,310490,17152,-656,488,17171.48,29.52,-1.00,-1.0,2376
5493,310493,17072,-716,756,17103.72,29.52,-1.00,-1.0,2430
5495,310495,16972,-596,692,16996.55,29.52,-1.00,-1.0,2372
5498,310498,17000,-504,732,17023.21,29.47,-1.00,-1.0,2366
5501,310501,17092,-624,644,17115.51,29.66,-1.00,-1.0,2427
5504,310504,17056,-624,876,17089.88,29.42,-1.00,-1.0,2368
5508,310508,16940,-604,652,16963.30,29.42,-1.00,-1.0,2432
5511,310511,17040,-608,816,17070.36,29.42,-1.00,-1.0,2381
5514,310514,16980,-704,636,17006.48,29.42,-1.00,-1.0,2420
5517,310517,16996,-604,628,17018.32,29.52,-1.00,-1.0,2375
5520,310520,17068,-604,692,17092.70,29.47,-1.00,-1.0,2434
5522,310522,16968,-632,804,16998.79,29.52,-1.00,-1.0,2381
5525,310525,17056,-556,700,17079.41,29.57,-1.00,-1.0,2420
5528,310528,17008,-740,664,17037.04,29.42,-1.00,-1.0,2371
5531,310531,16976,-604,632,16998.49,29.47,-1.00,-1.0,2367
5535,310535,17020,-584,672,17043.27,29.57,-1.00,-1.0,2432
5538,310538,17004,-616,824,17035.09,29.47,-1.00,-1.0,2373
5541,310541,17024,-624,656,17048.06,29.47,-1.00,-1.0,2420
5544,310544,17132,-512,656,17152.20,29.57,-1.00,-1.0,2368
5546,310546,17008,-676,840,17042.14,29.47,-1.00,-1.0,2419
5549,310549,17228,-600,756,17255.01,29.57,-1.00,-1.0,2368
5552,310552,17020,-656,732,17048.36,29.47,-1.00,-1.0,2420
5555,310555,17000,-636,728,17027.46,29.57,-1.00,-1.0,2367
5559,310559,17028,-592,644,17050.45,29.52,-1.00,-1.0,2443
5562,310562,16988,-696,748,17018.70,29.42,-1.00,-1.0,2381
5565,310565,17004,-492,640,17023.15,29.47,-1.00,-1.0,2370
5567,310567,17008,-660,684,17034.54,29.42,-1.00,-1.0,2420
5570,310570,17048,-572,816,17077.10,29.47,-1.00,-1.0,2368
5573,310573,16988,-584,876,17020.59,29.42,-1.00,-1.0,2420
5576,310576,17020,-644,592,17042.46,29.47,-1.00,-1.0,2370
5579,310579,17080,-608,608,17101.63,29.52,-1.00,-1.0,2426
5582,310582,17036,-572,720,17060.80,29.47,-1.00,-1.0,2367
5587,310587,17060,-648,744,17088.51,29.47,-1.00,-1.0,2432
5589,310589,17040,-532,724,17063.67,29.47,-1.00,-1.0,2380
5592,310592,17008,-564,712,17032.24,29.38,-1.00,-1.0,2420
5595,310595,16956,-572,800,16984.50,29.57,-1.00,-1.0,2373
5597,310597,17092,-608,768,17120.04,29.52,-1.00,-1.0,2370
5600,310600,16976,-648,756,17005.18,29.42,-1.00,-1.0,2425
5603,310603,16992,-604,908,17026.96,29.61,-1.00,-1.0,2369
5606,310606,17048,-664,776,17078.56,29.47,-1.00,-1.0,2427
5609,310609,16972,-604,652,16995.26,29.52,-1.00,-1.0,2367
5614,310614,17048,-680,728,17077.08,29.42,-1.00,-1.0,2432
5616,310616,17124,-672,608,17147.96,29.47,-1.00,-1.0,2370
5619,310619,17044,-612,788,17073.18,29.52,-1.00,-1.0,2419
5622,310622,17064,-600,828,17094.61,29.47,-1.00,-1.0,2378
5625,310625,17016,-656,840,17049.35,29.52,-1.00,-1.0,2419
5627,310627,17028,-580,688,17051.76,29.57,-1.00,-1.0,2370
5630,310630,16992,-616,660,17015.97,29.61,-1.00,-1.0,2365
5633,310633,17096,-560,696,17119.32,29.47,-1.00,-1.0,2426
5636,310636,17068,-724,724,17098.68,29.52,-1.00,-1.0,2375
5641,310641,16968,-624,660,16992.29,29.52,-1.00,-1.0,2431
5643,310643,16960,-616,708,16985.95,29.52,-1.00,-1.0,2373
5646,310646,17052,-604,704,17077.21,29.52,-1.00,-1.0,2419
5649,310649,17056,-656,668,17081.68,29.61,-1.00,-1.0,2369
5652,310652,17132,-528,684,17153.78,29.42,-1.00,-1.0,2427
5654,310654,17140,-652,600,17162.89,29.42,-1.00,-1.0,2367
5657,310657,16992,-612,764,17020.17,29.47,-1.00,-1.0,2373
5660,310660,16976,-564,744,17001.65,29.47,-1.00,-1.0,2423
5663,310663,17128,-660,696,17154.84,29.57,-1.00,-1.0,2370
5668,310668,17032,-592,816,17061.81,29.52,-1.00,-1.0,2438
5670,310670,17076,-648,548,17097.08,29.42,-1.00,-1.0,2373
5673,310673,17020,-588,624,17041.58,29.52,-1.00,-1.0,2419
5676,310676,17156,-628,668,17180.48,29.52,-1.00,-1.0,2368
5679,310679,16940,-620,892,16974.79,29.57,-1.00,-1.0,2422
5681,310681,17132,-532,592,17150.48,29.52,-1.00,-1.0,2367
5684,310684,17024,-656,712,17051.51,29.52,-1.00,-1.0,2420
5687,310687,17184,-588,748,17210.32,29.52,-1.00,-1.0,2368
5690,310690,16968,-588,716,16993.28,29.47,-1.00,-1.0,2374
5695,310695,17072,-600,740,17098.56,29.47,-1.00,-1.0,2434
5697,310697,17008,-596,736,17034.35,29.52,-1.00,-1.0,2367
5700,310700,17096,-564,732,17120.96,29.47,-1.00,-1.0,2427
5703,310703,17052,-624,696,17077.60,29.47,-1.00,-1.0,2368
5706,310706,17132,-608,800,17161.44,29.47,-1.00,-1.0,2427
5708,310708,17092,-668,632,17116.72,29.47,-1.00,-1.0,2369
5711,310711,17036,-604,712,17061.57,29.47,-1.00,-1.0,2425
5714,310714,17132,-624,720,17158.47,29.57,-1.00,-1.0,2369
5719,310719,17048,-632,880,17082.39,29.47,-1.00,-1.0,2432
5722,310722,17100,-532,864,17130.08,29.42,-1.00,-1.0,2367
5724,310724,17028,-596,780,17056.27,29.57,-1.00,-1.0,2373
5727,310727,17056,-624,792,17085.78,29.52,-1.00,-1.0,2428
5730,310730,17068,-712,800,17101.57,29.57,-1.00,-1.0,2377
5733,310733,16944,-648,792,16974.87,29.52,-1.00,-1.0,2433
5735,310735,17036,-604,588,17056.84,29.52,-1.00,-1.0,2378
5738,310738,17064,-588,696,17088.31,29.42,-1.00,-1.0,2420
5741,310741,17064,-560,664,17086.09,29.52,-1.00,-1.0,2370
5746,310746,17124,-588,760,17150.94,29.52,-1.00,-1.0,2431
5748,310748,17080,-568,612,17100.40,29.52,-1.00,-1.0,2380
5751,310751,17044,-656,704,17071.14,29.52,-1.00,-1.0,2420
5754,310754,17044,-452,744,17066.22,29.42,-1.00,-1.0,2370
5756,310756,17108,-620,804,17138.10,29.47,-1.00,-1.0,2366
5759,310759,17088,-528,748,17112.51,29.52,-1.00,-1.0,2423
5762,310762,17044,-572,704,17068.12,29.47,-1.00,-1.0,2369
5765,310765,17028,-580,648,17050.19,29.42,-1.00,-1.0,2421
5768,310768,16952,-600,852,16984.00,29.52,-1.00,-1.0,2367
5772,310772,17052,-500,752,17075.90,29.47,-1.00,-1.0,2432
5775,310775,17120,-544,700,17142.94,29.47,-1.00,-1.0,2378
5778,310778,17092,-520,660,17112.64,29.61,-1.00,-1.0,2435
5781,310781,17120,-672,836,17153.57,29.52,-1.00,-1.0,2376
5784,310784,17020,-668,680,17046.67,29.52,-1.00,-1.0,2430
5786,310786,17056,-576,724,17081.07,29.42,-1.00,-1.0,2371
5789,310789,17088,-540,724,17111.85,29.47,-1.00,-1.0,2369
5792,310792,17012,-584,716,17037.07,29.47,-1.00,-1.0,2407
5795,310795,16928,-604,660,16951.62,29.57,-1.00,-1.0,2370
5800,310800,17080,-600,704,17105.03,29.57,-1.00,-1.0,2465
5803,310803,16992,-520,808,17019.15,29.57,-1.00,-1.0,2373
5805,310805,17100,-648,756,17128.96,29.52,-1.00,-1.0,2420
5808,310808,17128,-456,748,17150.39,29.47,-1.00,-1.0,2368
5811,310811,17128,-680,664,17154.35,29.42,-1.00,-1.0,2421
5814,310814,17140,-632,648,17163.88,29.57,-1.00,-1.0,2378
5816,310816,17104,-600,600,17125.04,29.42,-1.00,-1.0,2422
5819,310819,16980,-480,832,17007.15,29.38,-1.00,-1.0,2370
5822,310822,17000,-608,548,17019.69,29.47,-1.00,-1.0,2354
5827,310827,17116,-592,824,17146.05,29.57,-1.00,-1.0,2443
5830,310830,17060,-528,652,17080.62,29.42,-1.00,-1.0,2366
5832,310832,17068,-532,652,17088.73,29.57,-1.00,-1.0,2422
5835,310835,17096,-704,632,17122.16,29.33,-1.00,-1.0,2372
5838,310838,16932,-652,676,16958.03,29.47,-1.00,-1.0,2421
5841,310841,17184,-564,668,17206.22,29.42,-1.00,-1.0,2368
5843,310843,17056,-628,720,17082.74,29.47,-1.00,-1.0,2425
5846,310846,16964,-604,692,16988.85,29.52,-1.00,-1.0,2371
5849,310849,17048,-540,696,17070.74,29.47,-1.00,-1.0,2367
5854,310854,16996,-708,720,17025.97,29.52,-1.00,-1.0,2446
5857,310857,16948,-596,664,16971.47,29.52,-1.00,-1.0,2372
5860,310860,17068,-560,584,17087.17,29.57,-1.00,-1.0,2421
5862,310862,17072,-620,816,17102.73,29.57,-1.00,-1.0,2376
5865,310865,17020,-532,628,17039.89,29.47,-1.00,-1.0,2421
5868,310868,17024,-660,828,17056.90,29.57,-1.00,-1.0,2370
5871,310871,16988,-564,668,17010.48,29.47,-1.00,-1.0,2420
5873,310873,17020,-592,724,17045.68,29.57,-1.00,-1.0,2376
5878,310878,17024,-540,684,17046.29,29.47,-1.00,-1.0,2450
5881,310881,17076,-676,664,17102.27,29.61,-1.00,-1.0,2376
5884,310884,17044,-520,664,17064.85,29.47,-1.00,-1.0,2367
5886,310886,16968,-576,888,17000.98,29.52,-1.00,-1.0,2420
5889,310889,17028,-636,820,17059.59,29.47,-1.00,-1.0,2369
5892,310892,17064,-572,636,17085.43,29.52,-1.00,-1.0,2420
5895,310895,17024,-600,680,17048.14,29.47,-1.00,-1.0,2368
5897,310897,17056,-576,724,17081.07,29.52,-1.00,-1.0,2420
5900,310900,17004,-648,684,17030.08,29.47,-1.00,-1.0,2369
5905,310905,17000,-624,864,17033.38,29.47,-1.00,-1.0,2448
5908,310908,17096,-544,832,17124.88,29.52,-1.00,-1.0,2414
5911,310911,16984,-628,692,17009.69,29.47,-1.00,-1.0,2445
5914,310914,16980,-604,612,17001.76,29.47,-1.00,-1.0,2365
5916,310916,17052,-648,776,17081.94,29.52,-1.00,-1.0,2365
5919,310919,17072,-632,776,17101.31,29.52,-1.00,-1.0,2421
5922,310922,16996,-640,628,17019.63,29.52,-1.00,-1.0,2367
5924,310924,16996,-480,728,17018.36,29.42,-1.00,-1.0,2421
5927,310927,17036,-536,532,17052.73,29.52,-1.00,-1.0,2368
5932,310932,17076,-616,772,17104.54,29.57,-1.00,-1.0,2421
5935,310935,17140,-624,788,17169.45,29.47,-1.00,-1.0,2367
5938,310938,17044,-688,788,17076.07,29.52,-1.00,-1.0,2438
5940,310940,17068,-612,632,17090.66,29.57,-1.00,-1.0,2361
5943,310943,17140,-524,632,17159.65,29.52,-1.00,-1.0,2419
5946,310946,17108,-520,744,17132.06,29.47,-1.00,-1.0,2372
5948,310948,17040,-516,728,17063.35,29.61,-1.00,-1.0,2366
5951,310951,17112,-528,672,17133.33,29.57,-1.00,-1.0,2421
5954,310954,17064,-636,644,17087.99,29.47,-1.00,-1.0,2375
5961,310961,17052,-632,672,17076.94,29.47,-1.00,-1.0,2427
5963,310963,17080,-592,816,17109.73,29.57,-1.00,-1.0,2368
5966,310966,17068,-604,660,17091.43,29.47,-1.00,-1.0,2448
5969,310969,17132,-588,804,17160.93,29.47,-1.00,-1.0,2384
5972,310972,17088,-556,676,17110.40,29.42,-1.00,-1.0,2420
5975,310975,16968,-580,736,16993.86,29.47,-1.00,-1.0,2371
5977,310977,16944,-600,772,16972.19,29.52,-1.00,-1.0,2422
5980,310980,17072,-592,912,17106.59,29.57,-1.00,-1.0,2385
5983,310983,17108,-588,716,17133.07,29.52,-1.00,-1.0,2366
5987,310987,17104,-692,720,17133.13,29.52,-1.00,-1.0,2423
5990,310990,17060,-644,680,17085.69,29.52,-1.00,-1.0,2370
5993,310993,17036,-584,808,17065.15,29.52,-1.00,-1.0,2437
5996,310996,16924,-688,748,16954.49,29.52,-1.00,-1.0,2367
5998,310998,17072,-672,756,17101.94,29.52,-1.00,-1.0,2420
6001,311001,17036,-592,688,17060.16,29.52,-1.00,-1.0,2368
6004,311004,17132,-648,696,17158.37,29.61,-1.00,-1.0,2420
6007,311007,17004,-512,636,17023.59,29.52,-1.00,-1.0,2367
6012,311012,17048,-600,648,17070.86,29.47,-1.00,-1.0,2430
6014,311014,17032,-580,608,17052.71,29.47,-1.00,-1.0,2374
6017,311017,17048,-608,756,17075.58,29.52,-1.00,-1.0,2368
6020,311020,17088,-592,608,17109.06,29.47,-1.00,-1.0,2446
6022,311022,17144,-664,712,17171.62,29.42,-1.00,-1.0,2367
6025,311025,17120,-576,520,17137.58,29.57,-1.00,-1.0,2422
6028,311028,17140,-612,780,17168.65,29.52,-1.00,-1.0,2369
6031,311031,17080,-520,784,17105.89,29.47,-1.00,-1.0,2427
6033,311033,17144,-636,716,17170.73,29.61,-1.00,-1.0,2367
6038,311038,16908,-648,728,16936.07,29.42,-1.00,-1.0,2424
6041,311041,17044,-548,864,17074.68,29.52,-1.00,-1.0,2370
6044,311044,17020,-584,632,17041.74,29.47,-1.00,-1.0,2366
6046,311046,17052,-528,772,17077.63,29.47,-1.00,-1.0,2438
6049,311049,17040,-624,668,17064.50,29.47,-1.00,-1.0,2372
6052,311052,16988,-608,652,17011.38,29.52,-1.00,-1.0,2435
6055,311055,16976,-584,660,16998.86,29.52,-1.00,-1.0,2415
6058,311058,17028,-520,656,17048.56,29.57,-1.00,-1.0,2432
6060,311060,16928,-528,824,16956.27,29.47,-1.00,-1.0,2359
6065,311065,16992,-584,512,17009.74,29.61,-1.00,-1.0,2421
6068,311068,17072,-608,668,17095.88,29.52,-1.00,-1.0,2371
6071,311071,17140,-684,760,17170.47,29.61,-1.00,-1.0,2435
6074,311074,17020,-604,796,17049.31,29.42,-1.00,-1.0,2367
6076,311076,17076,-644,780,17105.93,29.47,-1.00,-1.0,2369
6079,311079,16924,-644,700,16950.71,29.42,-1.00,-1.0,2436
6082,311082,17080,-580,664,17102.74,29.47,-1.00,-1.0,2378
6085,311085,17168,-700,664,17195.09,29.52,-1.00,-1.0,2431
6087,311087,17148,-600,764,17175.49,29.52,-1.00,-1.0,2373
6092,311092,17060,-660,672,17085.98,29.47,-1.00,-1.0,2421
6095,311095,17072,-560,684,17094.87,29.57,-1.00,-1.0,2372
6098,311098,17004,-648,720,17031.57,29.52,-1.00,-1.0,2441
6100,311100,17052,-524,772,17077.51,29.57,-1.00,-1.0,2366
6103,311103,17100,-548,636,17120.60,29.52,-1.00,-1.0,2425
6106,311106,17096,-608,812,17126.07,29.47,-1.00,-1.0,2372
6109,311109,16980,-608,744,17007.16,29.52,-1.00,-1.0,2369
6111,311111,17100,-664,736,17128.71,29.47,-1.00,-1.0,2420
6114,311114,16940,-560,664,16962.26,29.52,-1.00,-1.0,2355
6119,311119,17008,-532,684,17030.06,29.52,-1.00,-1.0,2437
6122,311122,17052,-580,692,17075.89,29.52,-1.00,-1.0,2380
6125,311125,16928,-644,612,16951.30,29.47,-1.00,-1.0,2447
6127,311127,17104,-596,812,17133.63,29.42,-1.00,-1.0,2379
6130,311130,17052,-668,660,17077.84,29.47,-1.00,-1.0,2419
6133,311133,17052,-636,752,17080.42,29.52,-1.00,-1.0,2369
6136,311136,17116,-512,904,17147.50,29.57,-1.00,-1.0,2420
6138,311138,17096,-716,624,17122.36,29.57,-1.00,-1.0,2375
6141,311141,17116,-580,852,17147.00,29.57,-1.00,-1.0,2365
6146,311146,17032,-612,616,17054.12,29.38,-1.00,-1.0,2421
6149,311149,17072,-616,748,17099.48,29.57,-1.00,-1.0,2372
6151,311151,16992,-616,836,17023.70,29.47,-1.00,-1.0,2433
6154,311154,17020,-644,596,17042.60,29.57,-1.00,-1.0,2368
6157,311157,17076,-508,736,17099.40,29.52,-1.00,-1.0,2419
6160,311160,16960,-664,632,16984.76,29.47,-1.00,-1.0,2367
6162,311162,17104,-596,780,17132.15,29.52,-1.00,-1.0,2419
6165,311165,17096,-584,532,17114.24,29.47,-1.00,-1.0,2368
6170,311170,17024,-520,728,17047.49,29.42,-1.00,-1.0,2424
6173,311173,17036,-552,616,17056.07,29.57,-1.00,-1.0,2372
6175,311175,17048,-608,628,17070.39,29.61,-1.00,-1.0,2370
6178,311178,17068,-608,764,17095.91,29.57,-1.00,-1.0,2445
6181,311181,17076,-572,740,17101.60,29.52,-1.00,-1.0,2356
6184,311184,17084,-548,676,17106.15,29.47,-1.00,-1.0,2429
6186,311186,17044,-568,648,17065.77,29.57,-1.00,-1.0,2376
6189,311189,17044,-692,752,17074.61,29.38,-1.00,-1.0,2420
6192,311192,17028,-600,672,17051.81,29.52,-1.00,-1.0,2371
6196,311196,17024,-604,748,17051.12,29.61,-1.00,-1.0,2421
6199,311199,17016,-660,776,17046.47,29.52,-1.00,-1.0,2425
6202,311202,16928,-584,644,16950.31,29.52,-1.00,-1.0,2423
6205,311205,17048,-548,764,17073.91,29.47,-1.00,-1.0,2377
6207,311207,16944,-632,760,16972.81,29.42,-1.00,-1.0,2366
6210,311210,16984,-608,784,17012.95,29.47,-1.00,-1.0,2430
6213,311213,17088,-636,784,17117.79,29.52,-1.00,-1.0,2373
6216,311216,17072,-624,656,17095.99,29.52,-1.00,-1.0,2422
6218,311218,17120,-640,668,17144.98,29.42,-1.00,-1.0,2374
