timestamp_ms,global_ms,accel_x,accel_y,accel_z,accel_mag,temp_c,voltage,soc,loop_us
2,610002,16976,-608,724,17002.31,32.15,-1.00,-1.0,2488
9,610009,17052,-580,732,17077.56,32.20,-1.00,-1.0,2460
12,610012,16948,-656,680,16974.32,32.15,-1.00,-1.0,2378
14,610014,17104,-592,864,17136.04,32.15,-1.00,-1.0,2366
17,610017,17052,-568,740,17077.50,32.15,-1.00,-1.0,2420
20,610020,17120,-596,764,17147.40,32.15,-1.00,-1.0,2374
23,610023,17052,-668,924,17090.08,32.15,-1.00,-1.0,2420
25,610025,17000,-636,944,17038.06,32.15,-1.00,-1.0,2371
28,610028,16992,-608,780,17020.76,32.15,-1.00,-1.0,2420
31,610031,17032,-644,708,17058.87,32.15,-1.00,-1.0,2371
36,610036,17080,-672,756,17109.92,32.06,-1.00,-1.0,2444
38,610038,17108,-688,856,17143.21,32.11,-1.00,-1.0,2370
41,610041,17148,-480,800,17173.36,32.15,-1.00,-1.0,2374
44,610044,17104,-592,720,17129.38,32.15,-1.00,-1.0,2420
46,610046,17016,-648,936,17054.04,32.15,-1.00,-1.0,2371
49,610049,17080,-692,676,17107.37,32.11,-1.00,-1.0,2421
52,610052,17100,-632,808,17130.74,32.15,-1.00,-1.0,2378
55,610055,17092,-620,784,17121.20,32.25,-1.00,-1.0,2420
57,610057,16960,-620,816,16990.93,32.15,-1.00,-1.0,2373
60,610060,17060,-628,828,17091.62,32.20,-1.00,-1.0,2355
65,610065,17068,-608,656,17091.42,32.11,-1.00,-1.0,2447
68,610068,17088,-684,784,17119.64,32.15,-1.00,-1.0,2367
70,610070,17100,-620,788,17129.37,32.11,-1.00,-1.0,2430
73,610073,17060,-632,752,17088.26,32.11,-1.00,-1.0,2379
76,610076,17024,-724,900,17063.14,32.11,-1.00,-1.0,2422
79,610079,17056,-636,704,17082.37,32.06,-1.00,-1.0,2372
81,610081,17040,-692,704,17068.57,32.20,-1.00,-1.0,2430
84,610084,17060,-572,664,17082.50,32.20,-1.00,-1.0,2378
87,610087,17072,-740,772,17105.46,32.06,-1.00,-1.0,2371
92,610092,17052,-640,900,17087.72,32.15,-1.00,-1.0,2442
94,610094,17124,-552,780,17150.64,32.15,-1.00,-1.0,2374
97,610097,17048,-648,868,17082.38,32.15,-1.00,-1.0,2419
100,610100,17028,-600,852,17059.86,32.06,-1.00,-1.0,2373
103,610103,17044,-620,708,17069.96,32.15,-1.00,-1.0,2421
106,610106,17092,-604,740,17118.67,32.15,-1.00,-1.0,2370
108,610108,17008,-604,684,17032.46,32.11,-1.00,-1.0,2366
111,610111,16968,-748,892,17007.89,32.11,-1.00,-1.0,2427
114,610114,17028,-584,800,17056.78,32.15,-1.00,-1.0,2356
119,610119,16976,-652,800,17007.34,32.15,-1.00,-1.0,2440
121,610121,17100,-632,884,17134.49,32.06,-1.00,-1.0,2368
124,610124,17056,-660,772,17086.21,32.01,-1.00,-1.0,2419
127,610127,17004,-624,688,17029.35,32.15,-1.00,-1.0,2371
130,610130,17008,-604,696,17032.95,32.15,-1.00,-1.0,2419
132,610132,17052,-604,804,17081.62,32.06,-1.00,-1.0,2371
135,610135,17032,-620,672,17056.52,32.15,-1.00,-1.0,2427
138,610138,16984,-648,788,17014.62,32.20,-1.00,-1.0,2430
141,610141,17132,-704,852,17167.61,32.11,-1.00,-1.0,2368
146,610146,17072,-648,848,17105.33,32.11,-1.00,-1.0,2440
148,610148,16960,-656,744,16988.98,32.11,-1.00,-1.0,2366
151,610151,17080,-584,848,17111.01,32.20,-1.00,-1.0,2419
154,610154,17036,-564,536,17053.76,32.11,-1.00,-1.0,2375
157,610157,17068,-672,688,17095.07,32.11,-1.00,-1.0,2420
159,610159,17052,-716,704,17081.54,32.01,-1.00,-1.0,2370
162,610162,17080,-532,748,17104.65,32.11,-1.00,-1.0,2420
165,610165,17012,-600,800,17041.37,32.11,-1.00,-1.0,2375
167,610167,17100,-600,668,17123.56,32.06,-1.00,-1.0,2377
172,610172,17004,-584,780,17031.90,32.06,-1.00,-1.0,2451
175,610175,16996,-596,852,17027.78,32.15,-1.00,-1.0,2384
178,610178,17004,-620,748,17031.73,32.15,-1.00,-1.0,2420
181,610181,17196,-556,772,17222.30,32.25,-1.00,-1.0,2371
184,610184,17008,-516,792,17034.25,32.15,-1.00,-1.0,2406
186,610186,17012,-632,812,17043.09,32.06,-1.00,-1.0,2385
189,610189,17020,-752,808,17055.75,32.15,-1.00,-1.0,2420
192,610192,17116,-584,816,17145.39,32.15,-1.00,-1.0,2371
194,610194,16980,-660,688,17006.74,32.06,-1.00,-1.0,2374
199,610199,17112,-632,720,17138.80,32.06,-1.00,-1.0,2447
202,610202,17164,-624,900,17198.90,32.15,-1.00,-1.0,2377
205,610205,17112,-604,732,17138.29,32.20,-1.00,-1.0,2418
208,610208,17040,-652,892,17075.78,32.15,-1.00,-1.0,2371
211,610211,16984,-588,716,17009.25,32.15,-1.00,-1.0,2418
213,610213,17132,-628,772,17160.88,32.06,-1.00,-1.0,2373
216,610216,17032,-592,688,17056.17,32.11,-1.00,-1.0,2419
219,610219,17112,-576,824,17141.51,32.15,-1.00,-1.0,2369
221,610221,17024,-608,780,17052.70,32.06,-1.00,-1.0,2353
227,610227,17016,-632,820,17047.46,32.15,-1.00,-1.0,2442
229,610229,17056,-564,756,17082.06,32.06,-1.00,-1.0,2369
232,610232,17116,-616,696,17141.22,32.11,-1.00,-1.0,2406
235,610235,17084,-692,860,17119.62,32.15,-1.00,-1.0,2371
238,610238,17060,-716,756,17091.75,32.15,-1.00,-1.0,2419
240,610240,17044,-668,852,17078.35,32.15,-1.00,-1.0,2372
243,610243,17092,-592,796,17120.76,32.20,-1.00,-1.0,2419
246,610246,17092,-672,860,17126.81,32.15,-1.00,-1.0,2368
249,610249,16948,-680,800,16980.49,32.20,-1.00,-1.0,2366
253,610253,17136,-612,740,17162.88,32.25,-1.00,-1.0,2453
256,610256,17100,-616,692,17125.08,32.15,-1.00,-1.0,2374
259,610259,17128,-656,800,17159.22,32.20,-1.00,-1.0,2425
261,610261,17124,-604,888,17157.64,32.15,-1.00,-1.0,2377
264,610264,17088,-536,948,17122.67,32.11,-1.00,-1.0,2419
267,610267,17116,-664,892,17152.08,32.15,-1.00,-1.0,2360
270,610270,17004,-632,776,17033.43,32.20,-1.00,-1.0,2428
273,610273,17064,-612,784,17092.96,32.11,-1.00,-1.0,2367
276,610276,17072,-676,676,17098.75,32.20,-1.00,-1.0,2365
281,610281,17036,-596,696,17060.62,32.11,-1.00,-1.0,2441
283,610283,16992,-608,808,17022.06,32.15,-1.00,-1.0,2412
286,610286,17052,-536,860,17082.08,32.20,-1.00,-1.0,2440
289,610289,17028,-592,852,17059.58,32.11,-1.00,-1.0,2376
292,610292,16964,-676,728,16993.06,32.11,-1.00,-1.0,2418
294,610294,16980,-620,852,17012.66,32.15,-1.00,-1.0,2381
297,610297,17068,-604,712,17093.52,32.11,-1.00,-1.0,2417
300,610300,17004,-616,680,17028.74,32.20,-1.00,-1.0,2373
303,610303,17020,-740,844,17056.97,32.15,-1.00,-1.0,2365
308,610308,17036,-704,788,17068.74,32.20,-1.00,-1.0,2421
310,610310,17060,-556,772,17086.51,32.11,-1.00,-1.0,2372
313,610313,17028,-668,940,17067.00,32.06,-1.00,-1.0,2436
316,610316,16944,-696,728,16973.91,32.01,-1.00,-1.0,2371
319,610319,17120,-604,812,17149.88,32.15,-1.00,-1.0,2405
321,610321,17080,-656,876,17115.03,32.01,-1.00,-1.0,2369
324,610324,17016,-596,660,17039.22,32.15,-1.00,-1.0,2420
327,610327,17016,-664,768,17046.26,32.20,-1.00,-1.0,2370
330,610330,17092,-672,720,17120.35,32.06,-1.00,-1.0,2368
335,610335,17048,-636,660,17072.62,32.06,-1.00,-1.0,2422
337,610337,16996,-584,756,17022.83,32.20,-1.00,-1.0,2371
340,610340,17016,-624,644,17039.61,32.15,-1.00,-1.0,2432
343,610343,17028,-660,656,17053.41,32.15,-1.00,-1.0,2370
346,610346,17028,-596,740,17054.49,32.15,-1.00,-1.0,2419
348,610348,17200,-640,708,17226.46,32.15,-1.00,-1.0,2370
351,610351,17148,-672,772,17178.52,32.15,-1.00,-1.0,2418
354,610354,17088,-680,836,17121.95,32.15,-1.00,-1.0,2370
357,610357,17012,-508,808,17038.75,32.15,-1.00,-1.0,2366
362,610362,17044,-732,740,17075.75,32.06,-1.00,-1.0,2422
364,610364,17208,-564,844,17237.91,32.15,-1.00,-1.0,2371
367,610367,17000,-712,640,17026.94,32.15,-1.00,-1.0,2432
370,610370,17012,-568,632,17033.21,32.15,-1.00,-1.0,2370
373,610373,17152,-580,684,17175.43,32.06,-1.00,-1.0,2419
375,610375,17068,-492,868,17097.14,32.15,-1.00,-1.0,2370
378,610378,17140,-680,592,17163.70,32.06,-1.00,-1.0,2418
381,610381,17160,-740,700,17190.21,32.15,-1.00,-1.0,2374
384,610384,17064,-556,844,17093.90,32.20,-1.00,-1.0,2368
389,610389,17052,-648,732,17080.00,32.20,-1.00,-1.0,2422
391,610391,17060,-768,752,17093.83,32.06,-1.00,-1.0,2372
394,610394,17068,-656,824,17100.47,32.11,-1.00,-1.0,2432
397,610397,17052,-668,724,17080.43,32.15,-1.00,-1.0,2377
400,610400,17080,-568,792,17107.79,32.11,-1.00,-1.0,2419
402,610402,17132,-584,768,17159.15,32.25,-1.00,-1.0,2372
405,610405,17016,-656,672,17041.89,32.01,-1.00,-1.0,2426
408,610408,16968,-564,728,16992.97,32.11,-1.00,-1.0,2378
411,610411,17240,-568,580,17259.10,32.11,-1.00,-1.0,2367
416,610416,17040,-724,792,17073.75,32.11,-1.00,-1.0,2421
418,610418,17072,-640,768,17101.25,32.15,-1.00,-1.0,2374
421,610421,17128,-632,656,17152.21,32.11,-1.00,-1.0,2447
424,610424,17016,-668,704,17043.65,32.11,-1.00,-1.0,2377
427,610427,17024,-612,672,17048.25,32.25,-1.00,-1.0,2431
429,610429,17008,-544,808,17035.87,32.11,-1.00,-1.0,2373
432,610432,16932,-736,800,16966.86,32.25,-1.00,-1.0,2427
435,610435,17104,-676,816,17136.79,32.11,-1.00,-1.0,2378
438,610438,17004,-604,716,17029.78,32.06,-1.00,-1.0,2369
443,610443,17100,-600,696,17124.67,32.06,-1.00,-1.0,2421
445,610445,16964,-676,756,16994.29,32.15,-1.00,-1.0,2372
448,610448,17124,-616,644,17147.17,32.15,-1.00,-1.0,2432
451,610451,17044,-640,740,17072.06,32.15,-1.00,-1.0,2370
454,610454,17116,-720,740,17147.11,32.06,-1.00,-1.0,2418
456,610456,17052,-612,736,17078.85,32.15,-1.00,-1.0,2370
459,610459,17064,-560,876,17095.64,32.20,-1.00,-1.0,2419
462,610462,17072,-600,696,17096.71,32.15,-1.00,-1.0,2370
465,610465,17080,-596,816,17109.87,32.15,-1.00,-1.0,2366
469,610469,17068,-552,696,17091.10,32.01,-1.00,-1.0,2422
472,610472,17128,-588,900,17161.71,32.11,-1.00,-1.0,2372
475,610475,17044,-640,780,17073.84,32.15,-1.00,-1.0,2440
478,610478,17096,-616,868,17129.10,32.11,-1.00,-1.0,2369
480,610480,17068,-628,860,17101.19,32.15,-1.00,-1.0,2428
483,610483,17156,-552,708,17179.47,32.11,-1.00,-1.0,2378
486,610486,17048,-528,660,17068.94,32.15,-1.00,-1.0,2421
489,610489,17060,-712,780,17092.66,32.15,-1.00,-1.0,2370
492,610492,17016,-660,808,17047.95,32.15,-1.00,-1.0,2366
497,610497,17100,-692,596,17124.37,32.06,-1.00,-1.0,2421
499,610499,17016,-652,776,17046.16,32.15,-1.00,-1.0,2379
502,610502,17080,-636,844,17112.66,32.15,-1.00,-1.0,2432
505,610505,17108,-584,792,17136.28,32.06,-1.00,-1.0,2372
508,610508,17116,-580,800,17144.50,32.11,-1.00,-1.0,2420
511,610511,17004,-672,712,17032.16,32.15,-1.00,-1.0,2369
513,610513,16988,-612,752,17015.64,32.15,-1.00,-1.0,2418
516,610516,17060,-636,600,17082.39,32.15,-1.00,-1.0,2373
519,610519,17088,-588,828,17118.15,32.20,-1.00,-1.0,2366
524,610524,17040,-648,652,17064.78,32.11,-1.00,-1.0,2421
526,610526,17072,-680,820,17105.20,32.06,-1.00,-1.0,2379
529,610529,16996,-664,880,17031.71,32.11,-1.00,-1.0,2432
532,610532,17148,-592,872,17180.36,32.20,-1.00,-1.0,2372
535,610535,17120,-592,720,17145.36,32.11,-1.00,-1.0,2426
538,610538,17024,-668,756,17053.87,32.11,-1.00,-1.0,2371
540,610540,17080,-592,764,17107.32,32.20,-1.00,-1.0,2421
543,610543,17008,-612,832,17039.33,32.01,-1.00,-1.0,2370
550,610550,17092,-676,720,17120.51,31.97,-1.00,-1.0,2428
553,610553,17000,-620,720,17026.53,32.20,-1.00,-1.0,2371
555,610555,17008,-628,832,17039.91,32.15,-1.00,-1.0,2372
558,610558,17000,-660,672,17026.07,32.11,-1.00,-1.0,2433
561,610561,17140,-716,608,17165.72,32.06,-1.00,-1.0,2371
564,610564,17012,-604,712,17037.60,32.11,-1.00,-1.0,2418
566,610566,17024,-676,700,17051.79,32.15,-1.00,-1.0,2370
569,610569,17040,-640,608,17062.85,32.11,-1.00,-1.0,2405
572,610572,17048,-652,712,17075.31,32.15,-1.00,-1.0,2370
577,610577,17128,-528,840,17156.71,32.06,-1.00,-1.0,2429
579,610579,17172,-604,668,17195.60,32.15,-1.00,-1.0,2374
582,610582,17028,-632,708,17054.43,32.11,-1.00,-1.0,2357
585,610585,17028,-640,740,17056.08,32.06,-1.00,-1.0,2440
588,610588,17148,-600,792,17176.76,32.20,-1.00,-1.0,2369
590,610590,17124,-572,780,17151.30,32.15,-1.00,-1.0,2420
593,610593,17024,-616,768,17052.44,32.20,-1.00,-1.0,2374
596,610596,17088,-588,848,17119.13,32.15,-1.00,-1.0,2425
599,610599,17028,-688,660,17054.67,32.20,-1.00,-1.0,2369
604,610604,17036,-708,748,17067.11,32.20,-1.00,-1.0,2421
606,610606,17040,-568,720,17064.66,32.06,-1.00,-1.0,2371
609,610609,17036,-588,784,17064.16,32.15,-1.00,-1.0,2373
612,610612,17052,-612,668,17076.05,32.15,-1.00,-1.0,2440
614,610614,17088,-632,692,17113.68,32.15,-1.00,-1.0,2374
617,610617,17088,-656,684,17114.26,32.15,-1.00,-1.0,2433
620,610620,17072,-652,664,17097.34,32.06,-1.00,-1.0,2378
623,610623,17064,-544,604,17083.35,32.20,-1.00,-1.0,2433
625,610625,16980,-564,784,17007.44,32.15,-1.00,-1.0,2371
630,610630,17128,-576,632,17149.33,32.15,-1.00,-1.0,2424
633,610633,17208,-584,748,17234.15,32.25,-1.00,-1.0,2368
636,610636,17072,-684,804,17104.60,32.11,-1.00,-1.0,2366
639,610639,17000,-668,684,17026.86,32.11,-1.00,-1.0,2433
641,610641,17120,-688,740,17149.79,32.11,-1.00,-1.0,2373
644,610644,17112,-616,768,17140.30,32.11,-1.00,-1.0,2405
647,610647,17112,-564,688,17135.11,32.20,-1.00,-1.0,2377
650,610650,17060,-628,708,17086.23,32.11,-1.00,-1.0,2419
652,610652,17028,-568,660,17050.25,32.11,-1.00,-1.0,2374
657,610657,17048,-620,864,17081.14,32.11,-1.00,-1.0,2422
660,610660,17164,-632,732,17191.22,32.11,-1.00,-1.0,2372
663,610663,17184,-676,740,17213.21,32.15,-1.00,-1.0,2365
665,610665,17084,-672,608,17108.02,32.15,-1.00,-1.0,2432
668,610668,17036,-704,672,17063.78,32.15,-1.00,-1.0,2372
671,610671,17080,-660,740,17108.76,32.15,-1.00,-1.0,2425
674,610674,17124,-708,864,17160.39,32.15,-1.00,-1.0,2369
676,610676,16980,-652,820,17012.29,32.15,-1.00,-1.0,2420
679,610679,17068,-620,828,17099.32,32.15,-1.00,-1.0,2371
684,610684,17044,-604,728,17070.23,32.20,-1.00,-1.0,2424
686,610686,17032,-632,744,17059.95,32.11,-1.00,-1.0,2382
689,610689,17136,-812,668,17168.23,32.15,-1.00,-1.0,2364
692,610692,17076,-632,640,17099.67,32.15,-1.00,-1.0,2443
695,610695,16968,-596,748,16994.93,32.06,-1.00,-1.0,2356
697,610697,17076,-512,668,17096.73,32.15,-1.00,-1.0,2420
700,610700,17008,-648,808,17039.51,32.15,-1.00,-1.0,2370
703,610703,16964,-784,880,17004.89,32.06,-1.00,-1.0,2422
706,610706,17156,-652,736,17184.15,32.06,-1.00,-1.0,2369
711,610711,17096,-756,668,17125.74,32.06,-1.00,-1.0,2421
713,610713,17052,-596,848,17083.47,32.11,-1.00,-1.0,2374
716,610716,16916,-576,700,16940.27,32.15,-1.00,-1.0,2371
719,610719,17104,-664,632,17128.55,32.11,-1.00,-1.0,2433
721,610721,17116,-632,640,17139.62,32.11,-1.00,-1.0,2371
724,610724,17080,-676,832,17113.61,32.20,-1.00,-1.0,2433
727,610727,17084,-696,884,17121.01,32.11,-1.00,-1.0,2365
730,610730,16948,-652,876,16983.14,32.11,-1.00,-1.0,2424
732,610732,17080,-556,788,17107.21,32.11,-1.00,-1.0,2373
737,610737,17124,-564,748,17149.61,32.25,-1.00,-1.0,2421
740,610740,17032,-496,748,17055.63,32.06,-1.00,-1.0,2371
743,610743,17100,-520,604,17118.56,32.01,-1.00,-1.0,2365
745,610745,17096,-592,808,17125.32,32.06,-1.00,-1.0,2443
748,610748,17040,-696,732,17069.91,32.20,-1.00,-1.0,2383
751,610751,16988,-616,596,17009.61,32.15,-1.00,-1.0,2420
754,610754,17088,-736,872,17126.06,32.20,-1.00,-1.0,2371
757,610757,17044,-672,768,17074.52,32.15,-1.00,-1.0,2420
759,610759,16964,-624,892,16998.89,32.11,-1.00,-1.0,2385
764,610764,17120,-680,776,17151.06,32.20,-1.00,-1.0,2422
767,610767,17048,-664,724,17076.28,32.20,-1.00,-1.0,2380
769,610769,16916,-544,752,16941.44,32.15,-1.00,-1.0,2370
772,610772,17140,-628,820,17171.09,32.15,-1.00,-1.0,2425
775,610775,17004,-604,708,17029.45,32.06,-1.00,-1.0,2372
778,610778,17024,-648,804,17055.29,32.15,-1.00,-1.0,2427
781,610781,17036,-692,684,17063.76,32.15,-1.00,-1.0,2369
783,610783,17148,-684,748,17177.93,32.15,-1.00,-1.0,2418
786,610786,17156,-600,760,17183.30,32.06,-1.00,-1.0,2370
791,610791,17076,-680,636,17101.37,32.15,-1.00,-1.0,2421
794,610794,17032,-720,680,17060.77,32.15,-1.00,-1.0,2375
796,610796,16916,-616,816,16946.87,32.20,-1.00,-1.0,2365
799,610799,16956,-552,920,16989.91,32.20,-1.00,-1.0,2439
802,610802,17024,-604,620,17045.99,32.11,-1.00,-1.0,2373
805,610805,17128,-680,748,17157.80,32.25,-1.00,-1.0,2425
807,610807,17156,-588,648,17178.30,32.20,-1.00,-1.0,2372
810,610810,17000,-576,736,17025.67,32.06,-1.00,-1.0,2434
813,610813,17088,-656,784,17118.55,32.20,-1.00,-1.0,2370
818,610818,17044,-644,740,17072.21,32.15,-1.00,-1.0,2421
821,610821,17156,-628,728,17182.92,32.15,-1.00,-1.0,2372
823,610823,16996,-608,808,17026.05,32.20,-1.00,-1.0,2366
826,610826,17180,-684,724,17208.85,32.15,-1.00,-1.0,2447
829,610829,16988,-736,780,17021.82,32.11,-1.00,-1.0,2378
832,610832,17040,-660,728,17068.31,32.25,-1.00,-1.0,2433
834,610834,17000,-652,884,17035.45,32.15,-1.00,-1.0,2380
837,610837,16984,-540,808,17011.78,32.15,-1.00,-1.0,2418
840,610840,16960,-568,688,16983.45,32.01,-1.00,-1.0,2370
845,610845,17148,-648,700,17174.51,32.11,-1.00,-1.0,2424
848,610848,17000,-620,688,17025.21,32.20,-1.00,-1.0,2372
850,610850,17088,-656,760,17117.47,32.15,-1.00,-1.0,2369
853,610853,17120,-664,808,17151.91,32.15,-1.00,-1.0,2441
856,610856,17024,-692,812,17057.40,32.15,-1.00,-1.0,2372
859,610859,16984,-656,828,17016.82,32.06,-1.00,-1.0,2428
861,610861,16996,-580,756,17022.69,32.06,-1.00,-1.0,2378
864,610864,17164,-748,740,17196.22,32.15,-1.00,-1.0,2418
867,610867,16976,-612,724,17002.45,32.15,-1.00,-1.0,2377
872,610872,17088,-596,888,17121.43,32.15,-1.00,-1.0,2408
875,610875,17136,-556,716,17159.96,32.15,-1.00,-1.0,2372
877,610877,16904,-616,772,16932.83,32.20,-1.00,-1.0,2365
880,610880,16940,-572,772,16967.23,32.11,-1.00,-1.0,2432
883,610883,17040,-560,716,17064.23,32.11,-1.00,-1.0,2370
886,610886,17076,-644,744,17104.33,32.11,-1.00,-1.0,2406
888,610888,17076,-532,788,17102.45,32.11,-1.00,-1.0,2370
891,610891,17092,-660,680,17118.25,32.15,-1.00,-1.0,2413
894,610894,17040,-548,768,17066.10,32.15,-1.00,-1.0,2385
899,610899,17128,-588,764,17155.11,32.11,-1.00,-1.0,2429
902,610902,17000,-612,708,17025.74,32.20,-1.00,-1.0,2371
904,610904,17020,-700,760,17051.33,32.15,-1.00,-1.0,2372
907,610907,17104,-576,800,17132.38,32.15,-1.00,-1.0,2433
910,610910,16992,-568,624,17012.94,32.15,-1.00,-1.0,2373
913,610913,17056,-664,836,17089.38,32.20,-1.00,-1.0,2421
915,610915,17140,-580,844,17170.57,32.15,-1.00,-1.0,2378
918,610918,17040,-620,884,17074.18,32.11,-1.00,-1.0,2418
921,610921,17104,-632,852,17136.87,32.15,-1.00,-1.0,2372
926,610926,17112,-632,840,17144.26,32.15,-1.00,-1.0,2437
929,610929,17076,-524,888,17107.10,32.15,-1.00,-1.0,2380
932,610932,17128,-640,772,17157.33,32.11,-1.00,-1.0,2444
934,610934,17096,-656,872,17130.79,32.06,-1.00,-1.0,2378
937,610937,17180,-688,780,17211.45,32.01,-1.00,-1.0,2364
940,610940,17048,-596,820,17078.11,32.15,-1.00,-1.0,2421
943,610943,16968,-632,724,16995.19,32.20,-1.00,-1.0,2369
945,610945,17004,-540,732,17028.31,32.15,-1.00,-1.0,2420
948,610948,17084,-552,884,17115.76,32.11,-1.00,-1.0,2373
953,610953,16992,-576,604,17012.48,32.11,-1.00,-1.0,2417
956,610956,17004,-636,692,17029.96,32.15,-1.00,-1.0,2378
959,610959,17004,-696,732,17033.97,32.20,-1.00,-1.0,2443
961,610961,17096,-604,844,17127.47,32.20,-1.00,-1.0,2378
964,610964,17092,-576,732,17117.36,32.25,-1.00,-1.0,2365
967,610967,17132,-576,648,17153.92,32.06,-1.00,-1.0,2422
970,610970,17092,-640,840,17124.59,32.15,-1.00,-1.0,2369
972,610972,16996,-656,624,17020.10,32.06,-1.00,-1.0,2420
975,610975,17072,-708,876,17109.12,32.20,-1.00,-1.0,2374
980,610980,17036,-652,816,17067.99,32.11,-1.00,-1.0,2422
983,610983,17020,-584,728,17045.57,32.15,-1.00,-1.0,2374
986,610986,17152,-584,852,17183.07,32.11,-1.00,-1.0,2434
988,610988,17028,-656,780,17058.47,32.01,-1.00,-1.0,2369
991,610991,17028,-556,752,17053.66,32.15,-1.00,-1.0,2365
994,610994,16956,-624,688,16981.42,32.06,-1.00,-1.0,2425
997,610997,16964,-612,768,16992.40,32.15,-1.00,-1.0,2369
999,610999,17080,-584,844,17110.81,32.15,-1.00,-1.0,2419
1002,611002,17088,-624,808,17118.47,32.06,-1.00,-1.0,2370
1007,611007,17052,-604,840,17083.36,32.20,-1.00,-1.0,2421
1010,611010,17080,-648,732,17107.96,32.01,-1.00,-1.0,2358
1013,611013,17044,-620,644,17067.43,32.15,-1.00,-1.0,2433
1015,611015,16988,-616,692,17013.24,32.01,-1.00,-1.0,2369
1018,611018,17152,-616,840,17183.60,32.15,-1.00,-1.0,2365
1021,611021,17080,-704,692,17108.50,32.15,-1.00,-1.0,2425
1024,611024,17044,-680,596,17067.97,32.15,-1.00,-1.0,2356
1026,611026,17184,-612,728,17210.30,32.25,-1.00,-1.0,2420
1029,611029,17024,-548,664,17045.76,32.15,-1.00,-1.0,2374
1034,611034,16992,-528,680,17013.79,32.15,-1.00,-1.0,2422
1037,611037,17032,-668,736,17060.98,32.15,-1.00,-1.0,2373
1040,611040,17032,-676,760,17062.34,32.15,-1.00,-1.0,2440
1043,611043,17016,-668,736,17045.00,32.06,-1.00,-1.0,2369
1045,611045,17064,-564,748,17089.70,32.15,-1.00,-1.0,2421
1048,611048,17000,-536,680,17022.04,32.15,-1.00,-1.0,2374
1051,611051,17100,-608,772,17128.21,32.11,-1.00,-1.0,2371
1053,611053,17112,-588,800,17140.78,32.11,-1.00,-1.0,2425
1056,611056,17092,-608,748,17119.16,32.15,-1.00,-1.0,2370
1061,611061,17072,-636,696,17098.01,32.15,-1.00,-1.0,2421
1064,611064,17112,-604,740,17138.64,32.15,-1.00,-1.0,2372
1067,611067,17044,-640,776,17073.66,32.15,-1.00,-1.0,2440
1070,611070,16968,-552,652,16989.49,32.06,-1.00,-1.0,2369
1072,611072,16984,-672,776,17014.99,32.11,-1.00,-1.0,2421
1075,611075,17092,-636,700,17118.15,32.15,-1.00,-1.0,2369
1078,611078,17056,-636,696,17082.04,32.15,-1.00,-1.0,2425
1081,611081,17024,-508,764,17048.71,32.15,-1.00,-1.0,2369
1083,611083,17036,-556,984,17073.45,32.11,-1.00,-1.0,2367
1088,611088,17104,-628,816,17134.97,32.11,-1.00,-1.0,2424
1091,611091,17112,-600,656,17135.08,32.15,-1.00,-1.0,2371
1094,611094,17048,-772,768,17082.74,32.11,-1.00,-1.0,2439
1097,611097,17172,-644,852,17205.18,32.20,-1.00,-1.0,2369
1099,611099,16996,-692,828,17030.22,32.20,-1.00,-1.0,2426
1102,611102,17096,-656,824,17128.41,32.11,-1.00,-1.0,2370
1105,611105,17024,-664,768,17054.25,32.11,-1.00,-1.0,2426
1108,611108,17036,-704,772,17068.01,32.11,-1.00,-1.0,2369
1112,611112,17064,-588,740,17090.16,32.15,-1.00,-1.0,2421
1115,611115,17040,-660,652,17065.24,32.25,-1.00,-1.0,2373
1118,611118,17028,-696,760,17059.16,32.11,-1.00,-1.0,2365
1120,611120,17008,-680,808,17040.76,32.20,-1.00,-1.0,2435
1123,611123,17040,-596,876,17072.91,32.20,-1.00,-1.0,2370
1126,611126,17084,-572,768,17110.82,32.11,-1.00,-1.0,2426
1129,611129,17088,-608,788,17116.96,32.11,-1.00,-1.0,2370
1131,611131,17048,-684,596,17072.12,32.15,-1.00,-1.0,2426
1134,611134,17004,-632,820,17035.49,32.11,-1.00,-1.0,2375
1139,611139,17084,-676,640,17109.34,32.11,-1.00,-1.0,2425
1142,611142,17008,-632,748,17036.17,32.11,-1.00,-1.0,2372
1145,611145,17092,-672,768,17122.44,32.06,-1.00,-1.0,2370
1148,611148,17032,-716,712,17061.91,32.25,-1.00,-1.0,2433
1150,611150,17224,-560,764,17250.03,32.25,-1.00,-1.0,2357
1153,611153,17052,-652,720,17079.64,32.15,-1.00,-1.0,2418
1156,611156,17028,-604,704,17053.25,32.15,-1.00,-1.0,2373
1159,611159,17148,-668,800,17179.64,32.15,-1.00,-1.0,2418
1161,611161,17100,-640,644,17124.09,32.15,-1.00,-1.0,2379
1166,611166,17052,-600,624,17073.96,32.06,-1.00,-1.0,2423
1169,611169,17184,-612,804,17213.68,32.11,-1.00,-1.0,2371
1172,611172,17060,-608,760,17087.74,32.15,-1.00,-1.0,2435
1175,611175,17000,-684,744,17030.01,32.20,-1.00,-1.0,2369
1177,611177,17020,-692,812,17053.40,32.25,-1.00,-1.0,2365
1180,611180,17060,-644,872,17094.41,32.11,-1.00,-1.0,2418
1183,611183,17040,-648,736,17068.19,32.15,-1.00,-1.0,2370
1186,611186,17044,-652,824,17076.36,32.20,-1.00,-1.0,2419
1188,611188,17092,-644,632,17115.80,32.15,-1.00,-1.0,2377
1193,611193,16976,-692,668,17003.22,32.15,-1.00,-1.0,2428
1196,611196,17024,-636,804,17054.84,32.06,-1.00,-1.0,2378
1199,611199,17064,-640,576,17085.71,32.06,-1.00,-1.0,2437
1202,611202,16936,-612,888,16970.30,32.15,-1.00,-1.0,2377
1205,611205,17028,-656,676,17054.04,32.01,-1.00,-1.0,2421
1207,611207,17036,-772,716,17068.51,32.15,-1.00,-1.0,2384
1210,611210,16968,-644,616,16991.39,32.11,-1.00,-1.0,2366
1213,611213,17104,-580,764,17130.88,32.11,-1.00,-1.0,2420
1216,611216,17008,-588,888,17041.31,32.11,-1.00,-1.0,2373
1220,611220,17064,-592,840,17094.92,32.15,-1.00,-1.0,2429
1223,611223,17024,-556,796,17051.67,32.06,-1.00,-1.0,2386
1226,611226,17000,-652,932,17038.01,32.20,-1.00,-1.0,2435
1229,611229,17016,-560,700,17039.60,32.25,-1.00,-1.0,2371
1232,611232,17020,-676,672,17046.67,32.29,-1.00,-1.0,2418
1234,611234,17072,-596,780,17100.20,32.15,-1.00,-1.0,2358
1237,611237,17012,-592,724,17037.69,32.11,-1.00,-1.0,2418
1240,611240,17040,-664,980,17081.07,32.25,-1.00,-1.0,2369
1243,611243,17136,-736,788,17169.89,32.11,-1.00,-1.0,2366
1247,611247,17040,-664,588,17063.07,32.20,-1.00,-1.0,2429
1250,611250,17012,-644,716,17039.23,32.15,-1.00,-1.0,2386
1253,611253,17080,-608,928,17115.99,32.20,-1.00,-1.0,2432
1256,611256,17048,-692,600,17072.59,32.15,-1.00,-1.0,2372
1259,611259,17080,-552,652,17101.35,32.11,-1.00,-1.0,2419
1261,611261,17112,-544,672,17133.83,32.11,-1.00,-1.0,2371
1264,611264,17016,-508,592,17033.87,32.11,-1.00,-1.0,2405
1267,611267,16968,-604,760,16995.75,32.15,-1.00,-1.0,2370
1272,611272,17104,-672,780,17134.96,32.15,-1.00,-1.0,2429
1274,611274,17020,-596,712,17045.31,32.06,-1.00,-1.0,2374
1277,611277,16984,-544,684,17006.47,32.20,-1.00,-1.0,2365
1280,611280,17092,-608,828,17122.84,32.15,-1.00,-1.0,2439
1283,611283,17104,-628,856,17136.92,32.20,-1.00,-1.0,2369
1285,611285,17076,-588,832,17106.37,32.15,-1.00,-1.0,2421
1288,611288,16992,-592,788,17020.56,32.20,-1.00,-1.0,2370
1291,611291,17076,-668,852,17110.29,32.15,-1.00,-1.0,2426
1294,611294,16980,-644,744,17008.49,32.06,-1.00,-1.0,2369
1298,611298,16964,-644,824,16996.21,32.25,-1.00,-1.0,2421
1301,611301,17060,-668,780,17090.88,32.15,-1.00,-1.0,2372
1304,611304,17072,-636,680,17097.37,32.11,-1.00,-1.0,2438
1307,611307,17128,-616,880,17161.65,32.15,-1.00,-1.0,2369
1309,611309,17048,-708,824,17082.58,32.20,-1.00,-1.0,2366
1312,611312,17036,-568,640,17057.48,32.11,-1.00,-1.0,2419
1315,611315,17040,-572,724,17064.96,32.11,-1.00,-1.0,2373
1318,611318,17020,-680,716,17048.62,32.15,-1.00,-1.0,2418
1321,611321,17088,-744,756,17120.89,32.15,-1.00,-1.0,2370
1325,611325,17084,-572,828,17113.62,32.20,-1.00,-1.0,2422
1328,611328,17012,-692,772,17043.56,32.11,-1.00,-1.0,2373
1331,611331,17084,-656,824,17116.44,32.25,-1.00,-1.0,2433
1334,611334,17052,-572,768,17078.87,32.20,-1.00,-1.0,2366
1336,611336,17060,-668,824,17092.95,32.15,-1.00,-1.0,2365
1339,611339,17060,-628,756,17088.29,32.11,-1.00,-1.0,2427
1342,611342,17104,-668,800,17135.72,32.06,-1.00,-1.0,2369
1345,611345,17036,-616,768,17064.42,32.15,-1.00,-1.0,2422
1348,611348,17156,-704,708,17185.03,32.15,-1.00,-1.0,2370
1353,611353,17112,-692,700,17140.29,32.15,-1.00,-1.0,2422
1355,611355,17104,-564,716,17128.27,32.06,-1.00,-1.0,2371
1358,611358,17104,-656,764,17133.62,32.20,-1.00,-1.0,2432
1361,611361,17024,-612,760,17051.94,32.15,-1.00,-1.0,2378
1364,611364,17156,-524,696,17178.11,32.15,-1.00,-1.0,2419
1366,611366,17084,-488,828,17111.01,32.15,-1.00,-1.0,2370
1369,611369,17064,-716,800,17097.74,32.11,-1.00,-1.0,2367
1372,611372,17076,-604,776,17104.29,32.15,-1.00,-1.0,2420
1375,611375,17112,-636,796,17142.31,32.15,-1.00,-1.0,2369
1380,611380,17024,-556,728,17048.63,32.15,-1.00,-1.0,2421
1382,611382,17148,-648,844,17180.98,32.06,-1.00,-1.0,2371
1385,611385,17100,-520,940,17133.71,32.11,-1.00,-1.0,2448
1388,611388,17048,-524,704,17070.57,32.11,-1.00,-1.0,2381
1391,611391,16904,-708,732,16934.65,32.11,-1.00,-1.0,2429
1393,611393,17100,-648,728,17127.75,32.11,-1.00,-1.0,2374
1396,611396,17060,-660,760,17089.67,32.11,-1.00,-1.0,2428
1399,611399,17016,-712,744,17047.13,32.20,-1.00,-1.0,2377
1402,611402,16992,-572,792,17020.06,32.20,-1.00,-1.0,2367
1407,611407,17008,-644,764,17037.33,32.11,-1.00,-1.0,2421
1409,611409,17080,-712,700,17109.16,32.01,-1.00,-1.0,2373
1412,611412,17124,-592,764,17151.25,32.20,-1.00,-1.0,2443
1415,611415,17112,-560,720,17136.29,32.20,-1.00,-1.0,2377
1418,611418,17080,-608,724,17106.15,32.15,-1.00,-1.0,2432
1420,611420,17000,-648,860,17034.07,32.11,-1.00,-1.0,2380
1423,611423,17072,-584,796,17100.52,32.25,-1.00,-1.0,2418
1426,611426,17060,-616,672,17084.34,32.11,-1.00,-1.0,2373
1431,611431,17004,-552,776,17030.65,32.11,-1.00,-1.0,2429
1434,611434,17052,-628,720,17078.74,32.15,-1.00,-1.0,2370
1436,611436,17080,-640,844,17112.81,32.15,-1.00,-1.0,2368
1439,611439,17060,-556,784,17087.05,32.15,-1.00,-1.0,2432
1442,611442,17136,-636,872,17169.96,32.06,-1.00,-1.0,2370
1445,611445,17104,-596,800,17133.07,32.15,-1.00,-1.0,2419
1447,611447,17072,-676,784,17103.36,32.15,-1.00,-1.0,2370
1450,611450,17048,-620,728,17074.80,32.20,-1.00,-1.0,2422
1453,611453,17072,-544,652,17093.11,32.15,-1.00,-1.0,2373
1458,611458,17092,-600,820,17122.17,32.15,-1.00,-1.0,2421
1460,611460,17024,-624,688,17049.32,32.25,-1.00,-1.0,2378
1463,611463,17064,-620,712,17090.10,32.15,-1.00,-1.0,2432
1466,611466,17072,-620,696,17097.43,32.25,-1.00,-1.0,2377
1469,611469,17128,-652,800,17159.06,32.20,-1.00,-1.0,2366
1471,611471,17080,-692,780,17111.80,32.06,-1.00,-1.0,2432
1474,611474,17084,-704,640,17110.47,32.11,-1.00,-1.0,2374
1477,611477,17036,-644,732,17063.88,32.15,-1.00,-1.0,2426
1480,611480,17048,-592,704,17072.80,32.11,-1.00,-1.0,2415
1485,611485,17088,-584,684,17111.65,32.11,-1.00,-1.0,2423
1488,611488,17012,-588,784,17040.20,32.25,-1.00,-1.0,2358
1490,611490,17088,-608,752,17115.34,32.11,-1.00,-1.0,2420
1493,611493,17060,-588,732,17085.82,32.20,-1.00,-1.0,2371
1496,611496,17040,-668,776,17070.73,32.11,-1.00,-1.0,2427
1499,611499,17060,-632,708,17086.38,32.11,-1.00,-1.0,2370
1501,611501,17152,-600,712,17177.25,32.15,-1.00,-1.0,2373
1504,611504,17000,-604,712,17025.62,32.15,-1.00,-1.0,2422
1507,611507,17080,-664,748,17109.26,32.11,-1.00,-1.0,2370
1512,611512,17116,-544,772,17142.04,32.11,-1.00,-1.0,2441
1515,611515,17016,-720,780,17049.08,32.25,-1.00,-1.0,2371
1517,611517,17104,-724,764,17136.36,32.11,-1.00,-1.0,2420
1520,611520,17056,-604,856,17088.14,32.11,-1.00,-1.0,2370
1523,611523,17036,-692,780,17067.88,32.11,-1.00,-1.0,2426
1526,611526,16992,-608,792,17021.31,32.15,-1.00,-1.0,2369
1528,611528,17068,-792,840,17107.00,32.25,-1.00,-1.0,2372
1531,611531,16976,-564,652,16997.88,32.15,-1.00,-1.0,2406
1534,611534,17008,-740,708,17038.81,32.20,-1.00,-1.0,2430
1539,611539,16996,-652,764,17025.65,32.06,-1.00,-1.0,2436
1541,611541,17040,-572,808,17068.73,32.20,-1.00,-1.0,2374
1544,611544,16976,-612,616,16998.19,32.15,-1.00,-1.0,2433
1547,611547,17096,-724,868,17133.32,32.15,-1.00,-1.0,2365
1550,611550,16996,-520,860,17025.69,32.15,-1.00,-1.0,2425
1552,611552,17028,-712,768,17060.17,32.15,-1.00,-1.0,2371
1555,611555,17112,-672,748,17141.52,32.15,-1.00,-1.0,2435
1558,611558,16996,-668,744,17025.39,32.15,-1.00,-1.0,2380
1561,611561,17044,-624,748,17071.81,32.20,-1.00,-1.0,2372
1566,611566,17172,-660,824,17204.42,32.11,-1.00,-1.0,2435
1569,611569,16948,-692,636,16974.04,32.20,-1.00,-1.0,2372
1571,611571,17088,-616,688,17112.94,32.06,-1.00,-1.0,2418
1574,611574,17012,-660,652,17037.28,32.20,-1.00,-1.0,2370
1577,611577,17052,-692,740,17082.07,32.20,-1.00,-1.0,2425
1580,611580,17008,-696,744,17038.49,32.20,-1.00,-1.0,2369
1582,611582,17044,-540,892,17075.87,32.15,-1.00,-1.0,2418
1585,611585,17052,-660,724,17080.12,32.29,-1.00,-1.0,2370
1590,611590,17148,-624,732,17174.96,32.20,-1.00,-1.0,2436
1593,611593,17096,-676,708,17124.00,32.11,-1.00,-1.0,2370
1595,611595,17032,-600,660,17055.34,32.29,-1.00,-1.0,2365
1598,611598,16960,-680,612,16984.66,32.15,-1.00,-1.0,2418
1601,611601,17036,-548,804,17063.76,32.11,-1.00,-1.0,2370
1604,611604,17156,-576,664,17178.50,32.06,-1.00,-1.0,2418
1606,611606,17020,-660,772,17050.28,32.06,-1.00,-1.0,2370
1609,611609,17040,-576,732,17065.44,32.15,-1.00,-1.0,2418
1612,611612,17144,-560,720,17168.25,32.06,-1.00,-1.0,2378
1617,611617,17092,-644,780,17121.90,32.15,-1.00,-1.0,2437
1620,611620,17052,-672,772,17082.69,32.06,-1.00,-1.0,2371
1622,611622,17140,-524,756,17164.66,32.15,-1.00,-1.0,2427
1625,611625,17036,-512,724,17059.06,32.15,-1.00,-1.0,2369
1628,611628,17004,-664,804,17035.94,32.11,-1.00,-1.0,2366
1631,611631,17076,-784,820,17113.64,32.11,-1.00,-1.0,2420
1633,611633,17088,-640,768,17117.22,32.11,-1.00,-1.0,2378
1636,611636,17000,-660,592,17023.10,32.11,-1.00,-1.0,2419
1639,611639,17108,-648,724,17135.57,32.11,-1.00,-1.0,2379
1644,611644,17056,-592,624,17077.67,32.15,-1.00,-1.0,2442
1647,611647,17036,-588,812,17065.47,32.15,-1.00,-1.0,2371
1649,611649,17060,-740,668,17089.10,32.15,-1.00,-1.0,2431
1652,611652,17164,-656,828,17196.48,32.15,-1.00,-1.0,2370
1655,611655,16916,-616,756,16944.09,32.20,-1.00,-1.0,2421
1658,611658,17020,-636,788,17050.10,32.15,-1.00,-1.0,2370
1660,611660,17060,-600,692,17084.57,32.11,-1.00,-1.0,2370
1663,611663,17024,-616,712,17050.01,32.15,-1.00,-1.0,2418
1666,611666,17048,-664,764,17078.02,32.11,-1.00,-1.0,2373
1671,611671,17176,-640,620,17199.10,32.01,-1.00,-1.0,2442
1674,611674,17000,-600,668,17023.70,32.20,-1.00,-1.0,2376
1676,611676,17072,-656,832,17104.85,32.11,-1.00,-1.0,2426
1679,611679,17032,-652,620,17055.75,32.11,-1.00,-1.0,2386
1682,611682,17096,-692,720,17125.14,32.20,-1.00,-1.0,2419
1685,611685,17040,-556,768,17066.36,32.20,-1.00,-1.0,2373
1688,611688,17080,-572,856,17111.00,32.20,-1.00,-1.0,2421
1690,611690,17076,-764,760,17109.97,32.11,-1.00,-1.0,2385
1693,611693,17040,-656,608,17063.46,32.11,-1.00,-1.0,2368
1698,611698,17084,-616,800,17113.81,32.11,-1.00,-1.0,2438
1701,611701,17020,-716,804,17054.02,32.11,-1.00,-1.0,2376
1703,611703,17012,-628,696,17037.81,32.11,-1.00,-1.0,2422
1706,611706,17052,-568,848,17082.52,32.11,-1.00,-1.0,2385
1709,611709,17032,-584,616,17053.14,32.06,-1.00,-1.0,2420
1712,611712,17092,-584,752,17118.50,32.20,-1.00,-1.0,2374
1715,611715,17140,-680,660,17166.18,32.15,-1.00,-1.0,2421
1717,611717,17000,-548,740,17024.92,32.11,-1.00,-1.0,2385
1720,611720,17092,-604,780,17120.45,32.25,-1.00,-1.0,2366
1725,611725,17108,-592,720,17133.38,32.06,-1.00,-1.0,2452
1728,611728,17080,-616,736,17106.95,32.20,-1.00,-1.0,2425
1731,611731,17088,-592,788,17116.40,32.15,-1.00,-1.0,2432
1733,611733,17060,-704,732,17090.20,32.25,-1.00,-1.0,2374
1736,611736,17052,-688,604,17076.56,32.11,-1.00,-1.0,2416
1739,611739,17140,-544,644,17160.72,32.25,-1.00,-1.0,2372
1742,611742,17084,-680,680,17111.04,32.11,-1.00,-1.0,2416
1744,611744,17096,-560,684,17118.84,32.15,-1.00,-1.0,2374
1749,611749,17104,-608,716,17129.77,32.06,-1.00,-1.0,2421
1752,611752,17060,-664,704,17087.43,32.15,-1.00,-1.0,2373
1754,611754,17028,-668,828,17061.20,32.15,-1.00,-1.0,2365
1757,611757,17108,-528,892,17139.37,32.11,-1.00,-1.0,2434
1760,611760,17080,-604,820,17110.34,32.20,-1.00,-1.0,2377
1763,611763,17124,-608,740,17150.76,32.11,-1.00,-1.0,2420
1765,611765,16988,-560,700,17011.63,32.15,-1.00,-1.0,2371
1768,611768,17032,-656,812,17063.96,32.11,-1.00,-1.0,2427
1771,611771,17124,-616,768,17152.28,32.15,-1.00,-1.0,2369
1776,611776,17016,-564,800,17044.13,32.06,-1.00,-1.0,2424
1779,611779,17072,-576,764,17098.79,32.15,-1.00,-1.0,2374
1782,611782,16972,-704,772,17004.13,32.20,-1.00,-1.0,2434
1784,611784,17060,-560,816,17088.68,32.15,-1.00,-1.0,2369
1787,611787,17060,-636,748,17088.23,32.20,-1.00,-1.0,2368
1790,611790,17092,-604,756,17119.37,32.06,-1.00,-1.0,2427
1792,611792,17108,-584,696,17132.11,32.11,-1.00,-1.0,2370
1795,611795,17064,-604,820,17094.37,32.15,-1.00,-1.0,2435
1798,611798,17064,-584,780,17091.80,32.20,-1.00,-1.0,2370
1803,611803,17028,-620,732,17055.00,32.11,-1.00,-1.0,2421
1806,611806,17188,-580,668,17210.75,32.15,-1.00,-1.0,2376
1809,611809,17052,-576,708,17076.41,32.20,-1.00,-1.0,2434
1811,611811,17096,-640,728,17123.46,32.15,-1.00,-1.0,2356
1814,611814,17080,-620,808,17110.34,32.20,-1.00,-1.0,2420
1817,611817,17120,-744,796,17154.64,32.20,-1.00,-1.0,2368
1819,611819,17104,-644,640,17128.08,32.11,-1.00,-1.0,2370
1822,611822,17096,-612,720,17122.10,32.25,-1.00,-1.0,2430
1825,611825,17036,-712,704,17065.40,32.11,-1.00,-1.0,2373
1830,611830,17052,-576,684,17075.43,32.11,-1.00,-1.0,2422
1833,611833,16996,-632,660,17020.55,32.20,-1.00,-1.0,2372
1836,611836,17008,-696,836,17042.75,32.20,-1.00,-1.0,2434
1838,611838,17060,-624,668,17084.47,32.11,-1.00,-1.0,2369
1841,611841,17012,-644,772,17041.68,32.20,-1.00,-1.0,2421
1844,611844,17004,-640,652,17028.53,32.20,-1.00,-1.0,2375
1847,611847,17080,-644,748,17108.50,32.11,-1.00,-1.0,2420
1849,611849,17012,-668,868,17047.22,32.11,-1.00,-1.0,2376
1852,611852,17072,-648,760,17101.19,32.11,-1.00,-1.0,2366
1857,611857,16980,-680,668,17006.73,32.20,-1.00,-1.0,2422
1860,611860,16932,-652,772,16962.12,32.11,-1.00,-1.0,2372
1863,611863,17024,-616,836,17055.64,32.20,-1.00,-1.0,2469
1865,611865,17096,-588,720,17121.25,32.15,-1.00,-1.0,2377
1868,611868,17132,-564,840,17161.85,32.20,-1.00,-1.0,2409
1871,611871,17024,-612,836,17055.50,32.20,-1.00,-1.0,2373
1874,611874,17060,-592,796,17088.82,32.11,-1.00,-1.0,2422
1877,611877,17128,-452,824,17153.77,32.11,-1.00,-1.0,2371
1881,611881,17016,-664,704,17043.50,32.15,-1.00,-1.0,2436
1884,611884,17092,-692,780,17123.78,32.15,-1.00,-1.0,2388
1887,611887,17068,-604,788,17096.85,32.11,-1.00,-1.0,2367
1890,611890,17008,-552,764,17034.10,32.06,-1.00,-1.0,2435
1892,611892,17140,-604,840,17171.20,32.20,-1.00,-1.0,2374
1895,611895,17124,-656,852,17157.73,32.25,-1.00,-1.0,2430
1898,611898,17044,-628,916,17080.15,32.25,-1.00,-1.0,2377
1901,611901,17012,-580,832,17042.21,32.25,-1.00,-1.0,2422
1903,611903,17048,-520,808,17075.06,32.15,-1.00,-1.0,2371
1908,611908,17152,-592,640,17174.14,32.15,-1.00,-1.0,2427
1911,611911,17132,-684,676,17158.97,32.20,-1.00,-1.0,2369
1914,611914,17072,-616,728,17098.62,32.15,-1.00,-1.0,2366
1916,611916,17072,-684,744,17101.89,32.20,-1.00,-1.0,2442
1919,611919,17052,-608,828,17082.91,32.15,-1.00,-1.0,2386
1922,611922,17124,-708,700,17152.92,32.11,-1.00,-1.0,2422
1925,611925,17092,-568,788,17119.58,32.15,-1.00,-1.0,2374
1928,611928,17020,-656,772,17050.12,32.11,-1.00,-1.0,2423
1930,611930,17092,-608,908,17126.90,32.15,-1.00,-1.0,2372
1935,611935,17104,-576,764,17130.74,32.15,-1.00,-1.0,2421
1938,611938,17004,-564,780,17031.22,32.25,-1.00,-1.0,2376
1941,611941,17020,-592,752,17046.89,32.20,-1.00,-1.0,2446
1943,611943,16992,-680,724,17021.01,32.20,-1.00,-1.0,2376
1946,611946,16948,-560,744,16973.56,32.06,-1.00,-1.0,2365
1949,611949,17028,-576,724,17053.12,32.15,-1.00,-1.0,2425
1952,611952,17004,-540,608,17023.43,32.15,-1.00,-1.0,2368
1954,611954,17088,-556,708,17111.70,32.06,-1.00,-1.0,2424
1957,611957,16980,-632,672,17005.04,32.11,-1.00,-1.0,2374
1962,611962,17008,-604,656,17031.36,32.15,-1.00,-1.0,2434
1965,611965,17040,-588,576,17059.87,32.15,-1.00,-1.0,2371
1967,611967,17116,-712,720,17145.93,32.20,-1.00,-1.0,2447
1970,611970,17040,-608,860,17072.52,32.06,-1.00,-1.0,2377
1973,611973,16992,-600,736,17018.51,32.11,-1.00,-1.0,2412
1976,611976,16996,-556,592,17015.39,32.06,-1.00,-1.0,2370
1978,611978,17012,-564,696,17035.57,32.11,-1.00,-1.0,2367
1981,611981,17008,-656,748,17037.07,32.06,-1.00,-1.0,2407
1984,611984,17020,-636,816,17051.41,32.11,-1.00,-1.0,2370
1989,611989,17012,-604,656,17035.35,32.11,-1.00,-1.0,2422
1992,611992,17008,-640,772,17037.54,32.11,-1.00,-1.0,2376
1995,611995,17088,-636,824,17119.67,32.20,-1.00,-1.0,2445
1997,611997,17004,-596,696,17028.67,32.20,-1.00,-1.0,2376
2000,612000,17088,-540,820,17116.18,32.15,-1.00,-1.0,2422
2003,612003,17076,-640,884,17110.84,32.20,-1.00,-1.0,2370
2006,612006,16952,-612,736,16979.00,32.15,-1.00,-1.0,2421
2008,612008,17020,-604,992,17059.58,32.11,-1.00,-1.0,2375
2011,612011,17068,-724,768,17100.60,32.15,-1.00,-1.0,2365
2016,612016,17056,-628,680,17081.10,32.11,-1.00,-1.0,2435
2019,612019,17076,-564,748,17101.68,32.20,-1.00,-1.0,2374
2022,612022,16972,-616,740,16999.29,32.06,-1.00,-1.0,2435
2024,612024,17140,-616,668,17164.07,32.11,-1.00,-1.0,2372
2027,612027,17044,-632,704,17070.24,32.15,-1.00,-1.0,2422
2030,612030,16984,-656,944,17022.86,32.11,-1.00,-1.0,2373
2033,612033,17000,-656,808,17031.83,32.15,-1.00,-1.0,2421
2036,612036,17156,-672,588,17179.22,32.15,-1.00,-1.0,2371
2040,612040,17060,-640,888,17095.08,32.11,-1.00,-1.0,2437
2043,612043,16980,-584,708,17004.79,32.11,-1.00,-1.0,2376
2046,612046,17080,-700,696,17108.50,32.06,-1.00,-1.0,2367
2049,612049,17088,-668,788,17119.20,32.15,-1.00,-1.0,2434
2051,612051,17000,-648,792,17030.77,32.06,-1.00,-1.0,2373
2054,612054,17064,-648,832,17096.56,32.15,-1.00,-1.0,2422
2057,612057,17088,-604,680,17112.19,32.15,-1.00,-1.0,2369
2060,612060,17020,-632,616,17042.87,32.20,-1.00,-1.0,2422
2062,612062,17040,-572,860,17071.27,32.15,-1.00,-1.0,2370
2067,612067,17020,-676,764,17050.54,32.25,-1.00,-1.0,2427
2070,612070,17076,-568,812,17104.73,32.15,-1.00,-1.0,2371
2073,612073,17088,-716,816,17122.45,32.06,-1.00,-1.0,2440
2076,612076,17144,-684,732,17173.25,32.15,-1.00,-1.0,2369
2078,612078,17116,-736,748,17148.14,32.15,-1.00,-1.0,2365
2081,612081,17044,-580,856,17075.34,32.11,-1.00,-1.0,2429
2084,612084,17088,-644,824,17119.97,32.20,-1.00,-1.0,2368
2086,612086,17000,-540,900,17032.37,32.20,-1.00,-1.0,2437
2089,612089,17064,-636,772,17093.29,32.20,-1.00,-1.0,2371
2094,612094,17000,-728,764,17032.72,32.11,-1.00,-1.0,2427
2097,612097,16992,-544,780,17018.59,32.25,-1.00,-1.0,2369
2100,612100,16992,-672,840,17026.02,32.20,-1.00,-1.0,2442
2103,612103,17028,-624,724,17054.80,32.06,-1.00,-1.0,2368
2105,612105,17020,-540,632,17040.29,32.20,-1.00,-1.0,2371
2108,612108,17036,-544,728,17060.22,32.15,-1.00,-1.0,2425
2111,612111,17180,-628,756,17208.09,32.20,-1.00,-1.0,2373
2113,612113,17056,-660,612,17079.73,32.15,-1.00,-1.0,2427
2116,612116,17056,-612,796,17085.53,32.11,-1.00,-1.0,2374
2121,612121,16980,-624,696,17005.71,32.11,-1.00,-1.0,2430
2124,612124,17056,-664,856,17090.37,32.15,-1.00,-1.0,2368
2127,612127,17096,-620,860,17128.84,32.11,-1.00,-1.0,2444
2130,612130,17052,-768,764,17086.38,32.20,-1.00,-1.0,2369
2133,612133,17000,-564,880,17032.10,32.15,-1.00,-1.0,2453
2135,612135,17136,-664,868,17170.81,32.15,-1.00,-1.0,2370
2138,612138,17096,-752,644,17124.64,32.11,-1.00,-1.0,2369
2141,612141,17044,-556,676,17066.46,32.25,-1.00,-1.0,2442
2143,612143,17088,-684,824,17121.52,32.15,-1.00,-1.0,2378
2148,612148,17064,-584,664,17086.90,32.25,-1.00,-1.0,2427
2151,612151,17096,-660,508,17116.28,32.15,-1.00,-1.0,2372
2154,612154,17080,-632,828,17111.73,32.11,-1.00,-1.0,2433
2156,612156,17136,-580,676,17159.13,32.15,-1.00,-1.0,2371
2159,612159,16992,-696,888,17029.42,32.01,-1.00,-1.0,2421
2162,612162,17020,-516,784,17045.86,32.15,-1.00,-1.0,2372
2165,612165,17136,-512,684,17157.29,32.20,-1.00,-1.0,2421
2168,612168,17024,-652,676,17049.89,32.15,-1.00,-1.0,2370
2170,612170,17044,-524,776,17069.70,32.15,-1.00,-1.0,2373
2175,612175,17100,-656,788,17130.71,32.20,-1.00,-1.0,2426
2178,612178,17100,-572,864,17131.37,32.20,-1.00,-1.0,2377
2181,612181,17064,-592,780,17092.07,32.15,-1.00,-1.0,2432
2183,612183,17036,-652,844,17069.35,32.11,-1.00,-1.0,2372
2186,612186,17064,-556,680,17086.59,32.15,-1.00,-1.0,2436
2189,612189,17068,-556,800,17095.78,32.20,-1.00,-1.0,2372
2192,612192,16956,-612,828,16987.23,32.06,-1.00,-1.0,2426
2194,612194,17108,-648,720,17135.40,32.15,-1.00,-1.0,2376
2199,612199,17064,-632,744,17091.90,32.15,-1.00,-1.0,2437
2202,612202,17088,-672,888,17124.25,32.06,-1.00,-1.0,2383
2205,612205,17076,-708,712,17105.50,32.20,-1.00,-1.0,2366
2208,612208,17052,-592,768,17079.55,32.15,-1.00,-1.0,2435
2210,612210,17036,-612,836,17067.48,32.20,-1.00,-1.0,2369
2213,612213,17060,-508,748,17083.95,32.15,-1.00,-1.0,2420
2216,612216,17020,-564,696,17043.56,32.11,-1.00,-1.0,2376
2219,612219,17000,-740,716,17031.16,32.15,-1.00,-1.0,2420
2221,612221,17096,-652,760,17125.30,32.20,-1.00,-1.0,2356
2226,612226,17072,-744,780,17106.00,32.11,-1.00,-1.0,2437
2229,612229,17048,-668,596,17071.49,32.06,-1.00,-1.0,2386
2232,612232,17028,-600,804,17057.53,32.11,-1.00,-1.0,2433
2235,612235,16996,-612,684,17020.76,32.11,-1.00,-1.0,2369
2237,612237,17124,-624,680,17148.85,32.29,-1.00,-1.0,2365
2240,612240,17016,-632,848,17048.84,32.06,-1.00,-1.0,2421
2243,612243,17140,-692,972,17181.48,32.11,-1.00,-1.0,2377
2246,612246,17084,-532,652,17104.71,32.25,-1.00,-1.0,2420
2249,612249,17112,-628,688,17137.34,32.11,-1.00,-1.0,2369
2254,612254,16936,-680,960,16976.81,32.11,-1.00,-1.0,2413
2256,612256,17100,-732,828,17135.68,32.11,-1.00,-1.0,2375
2259,612259,17036,-656,796,17067.20,32.11,-1.00,-1.0,2433
2262,612262,16984,-600,716,17009.67,32.20,-1.00,-1.0,2371
2265,612265,17008,-680,752,17038.19,32.20,-1.00,-1.0,2420
2267,612267,17068,-620,764,17096.34,32.20,-1.00,-1.0,2369
2270,612270,16984,-608,848,17016.02,32.06,-1.00,-1.0,2373
2273,612273,17188,-576,828,17217.57,32.15,-1.00,-1.0,2420
2276,612276,17068,-580,640,17089.84,32.11,-1.00,-1.0,2369
2281,612281,17176,-668,892,17212.11,32.11,-1.00,-1.0,2426
2283,612283,17028,-616,624,17050.56,32.20,-1.00,-1.0,2368
2286,612286,17072,-584,760,17098.88,32.15,-1.00,-1.0,2432
2289,612289,16988,-664,544,17009.67,32.20,-1.00,-1.0,2368
2292,612292,16984,-632,792,17014.20,32.15,-1.00,-1.0,2420
2294,612294,17100,-680,700,17127.83,32.11,-1.00,-1.0,2373
2297,612297,17088,-628,776,17117.13,32.15,-1.00,-1.0,2377
2300,612300,17124,-628,768,17152.71,32.11,-1.00,-1.0,2434
2303,612303,17028,-712,696,17057.08,32.06,-1.00,-1.0,2369
2308,612308,17092,-556,764,17118.10,32.15,-1.00,-1.0,2426
2310,612310,17040,-564,828,17069.43,32.15,-1.00,-1.0,2371
2313,612313,17060,-636,904,17095.77,32.15,-1.00,-1.0,2432
2316,612316,17088,-632,816,17119.14,32.15,-1.00,-1.0,2369
2319,612319,17028,-624,716,17054.47,32.15,-1.00,-1.0,2420
2321,612321,17072,-680,668,17098.59,32.15,-1.00,-1.0,2369
2324,612324,17076,-656,916,17113.13,32.15,-1.00,-1.0,2420
2327,612327,17032,-604,812,17062.04,32.15,-1.00,-1.0,2367
2330,612330,17036,-564,736,17061.22,32.25,-1.00,-1.0,2370
2335,612335,17008,-580,768,17035.21,32.15,-1.00,-1.0,2413
2337,612337,17128,-620,660,17151.92,32.06,-1.00,-1.0,2367
2340,612340,17080,-636,784,17109.81,32.15,-1.00,-1.0,2433
2343,612343,16948,-624,884,16982.51,32.15,-1.00,-1.0,2368
2346,612346,17012,-696,732,17041.96,32.06,-1.00,-1.0,2421
2348,612348,17072,-536,644,17092.55,32.15,-1.00,-1.0,2356
2351,612351,17084,-524,720,17107.19,32.15,-1.00,-1.0,2420
2354,612354,17020,-572,752,17046.21,32.15,-1.00,-1.0,2367
2359,612359,17012,-644,840,17044.90,32.15,-1.00,-1.0,2426
2362,612362,17116,-572,728,17141.02,32.15,-1.00,-1.0,2375
2364,612364,17068,-580,808,17096.96,32.20,-1.00,-1.0,2365
2367,612367,16980,-596,844,17011.41,32.11,-1.00,-1.0,2436
2370,612370,17040,-696,796,17072.78,32.20,-1.00,-1.0,2368
2372,612372,16932,-632,720,16959.08,32.20,-1.00,-1.0,2430
2375,612375,17128,-704,836,17162.83,32.11,-1.00,-1.0,2377
2378,612378,17072,-632,652,17096.13,32.20,-1.00,-1.0,2410
2381,612381,17108,-656,828,17140.58,32.20,-1.00,-1.0,2373
2385,612385,17056,-528,728,17079.69,32.06,-1.00,-1.0,2427
2388,612388,17068,-624,744,17095.60,32.15,-1.00,-1.0,2355
2391,612391,17064,-628,784,17093.54,32.06,-1.00,-1.0,2440
2394,612394,17004,-608,872,17037.20,32.15,-1.00,-1.0,2367
2396,612396,17012,-692,700,17040.45,32.20,-1.00,-1.0,2376
2399,612399,17032,-596,764,17059.54,32.25,-1.00,-1.0,2410
2402,612402,17008,-592,724,17033.69,32.29,-1.00,-1.0,2372
2405,612405,17092,-600,712,17117.34,32.25,-1.00,-1.0,2432
2408,612408,17224,-644,732,17251.57,32.20,-1.00,-1.0,2378
2413,612413,17056,-608,780,17084.65,32.20,-1.00,-1.0,2426
2415,612415,17088,-628,900,17123.21,32.20,-1.00,-1.0,2366
2418,612418,17028,-700,708,17057.08,32.20,-1.00,-1.0,2448
2421,612421,17040,-604,852,17071.97,32.11,-1.00,-1.0,2377
2424,612424,17104,-668,800,17135.72,32.15,-1.00,-1.0,2431
2426,612426,17088,-584,568,17107.41,32.20,-1.00,-1.0,2373
2429,612429,17024,-628,744,17051.82,32.15,-1.00,-1.0,2365
2432,612432,17004,-556,700,17027.48,32.15,-1.00,-1.0,2427
2435,612435,17160,-564,820,17188.84,32.06,-1.00,-1.0,2366
2440,612440,17024,-632,780,17053.57,32.29,-1.00,-1.0,2426
2442,612442,17132,-604,696,17156.77,32.20,-1.00,-1.0,2371
2445,612445,17024,-544,868,17054.79,32.15,-1.00,-1.0,2441
2448,612448,17064,-516,696,17085.98,32.20,-1.00,-1.0,2377
2451,612451,16992,-652,780,17022.38,32.15,-1.00,-1.0,2434
2453,612453,16988,-684,832,17022.11,32.15,-1.00,-1.0,2377
2456,612456,17068,-520,792,17094.28,32.15,-1.00,-1.0,2420
2459,612459,17096,-724,912,17135.61,32.06,-1.00,-1.0,2374
2462,612462,17076,-680,700,17103.87,32.15,-1.00,-1.0,2366
2467,612467,17036,-600,808,17065.70,32.15,-1.00,-1.0,2433
2469,612469,17056,-636,804,17086.78,32.20,-1.00,-1.0,2370
2472,612472,17008,-652,812,17039.85,32.25,-1.00,-1.0,2439
2475,612475,17180,-664,756,17209.44,32.25,-1.00,-1.0,2372
2478,612478,17096,-584,752,17122.49,32.25,-1.00,-1.0,2426
2480,612480,17044,-700,696,17072.56,32.15,-1.00,-1.0,2379
2483,612483,17072,-632,636,17095.53,32.15,-1.00,-1.0,2420
2486,612486,17004,-560,828,17033.36,32.15,-1.00,-1.0,2370
2489,612489,16896,-584,848,16927.34,32.15,-1.00,-1.0,2366
2494,612494,17104,-668,872,17139.24,32.25,-1.00,-1.0,2429
2496,612496,17104,-636,808,17134.88,32.06,-1.00,-1.0,2376
2499,612499,17108,-656,764,17137.61,32.11,-1.00,-1.0,2433
2502,612502,17100,-648,768,17129.50,32.15,-1.00,-1.0,2357
2505,612505,17128,-536,712,17151.17,32.15,-1.00,-1.0,2420
2507,612507,17176,-620,696,17201.27,32.15,-1.00,-1.0,2375
2510,612510,17052,-608,804,17081.77,32.20,-1.00,-1.0,2420
2513,612513,17072,-548,812,17100.08,32.15,-1.00,-1.0,2357
2518,612518,17056,-616,816,17086.62,32.15,-1.00,-1.0,2433
2521,612521,17060,-628,736,17087.41,32.20,-1.00,-1.0,2368
2523,612523,17048,-564,756,17074.07,32.15,-1.00,-1.0,2367
2526,612526,17080,-636,692,17105.84,32.20,-1.00,-1.0,2420
2529,612529,17072,-540,900,17104.23,32.15,-1.00,-1.0,2367
2532,612532,17100,-640,676,17125.32,32.20,-1.00,-1.0,2420
2534,612534,17088,-564,720,17112.46,32.11,-1.00,-1.0,2369
2537,612537,17044,-648,784,17074.32,32.20,-1.00,-1.0,2407
2540,612540,17088,-568,864,17119.25,32.20,-1.00,-1.0,2368
2545,612545,17072,-708,796,17105.21,32.11,-1.00,-1.0,2426
2547,612547,17036,-560,832,17065.49,32.20,-1.00,-1.0,2371
2550,612550,17072,-656,712,17099.43,32.11,-1.00,-1.0,2420
2553,612553,17100,-624,772,17128.79,32.20,-1.00,-1.0,2372
2556,612556,17104,-704,704,17132.95,32.15,-1.00,-1.0,2368
2558,612558,17208,-688,704,17236.13,32.25,-1.00,-1.0,2437
2561,612561,17184,-616,872,17217.13,32.15,-1.00,-1.0,2368
2564,612564,17024,-592,648,17046.61,32.15,-1.00,-1.0,2425
2567,612567,17064,-696,736,17094.04,32.15,-1.00,-1.0,2375
2572,612572,16944,-624,720,16970.77,32.15,-1.00,-1.0,2426
2575,612575,17104,-612,572,17124.50,32.20,-1.00,-1.0,2367
2578,612578,17024,-700,632,17050.10,32.06,-1.00,-1.0,2441
2581,612581,17056,-664,804,17087.85,32.25,-1.00,-1.0,2371
2583,612583,17124,-668,688,17150.83,32.15,-1.00,-1.0,2433
2586,612586,17096,-500,724,17118.63,32.15,-1.00,-1.0,2368
2589,612589,17100,-636,728,17127.30,32.15,-1.00,-1.0,2367
2592,612592,17116,-708,788,17148.75,32.20,-1.00,-1.0,2420
2594,612594,17000,-632,632,17023.48,32.11,-1.00,-1.0,2356
2599,612599,17048,-724,860,17085.03,32.06,-1.00,-1.0,2433
2602,612602,17176,-588,784,17203.94,32.15,-1.00,-1.0,2370
2604,612604,17000,-540,732,17024.32,32.20,-1.00,-1.0,2446
2607,612607,17156,-552,716,17179.80,32.06,-1.00,-1.0,2376
2610,612610,17012,-632,692,17037.79,32.20,-1.00,-1.0,2423
2613,612613,16992,-660,804,17023.81,32.06,-1.00,-1.0,2370
2615,612615,16992,-632,764,17020.90,32.11,-1.00,-1.0,2428
2618,612618,17052,-572,752,17078.16,32.15,-1.00,-1.0,2377
2621,612621,17116,-700,632,17141.96,32.15,-1.00,-1.0,2374
2626,612626,17096,-692,696,17124.15,32.15,-1.00,-1.0,2428
2629,612629,17036,-532,780,17062.14,32.15,-1.00,-1.0,2368
2631,612631,17020,-700,664,17047.32,32.15,-1.00,-1.0,2429
2634,612634,17036,-592,692,17060.32,32.06,-1.00,-1.0,2369
2637,612637,16984,-688,752,17014.55,32.11,-1.00,-1.0,2433
2640,612640,17116,-628,656,17140.07,32.25,-1.00,-1.0,2372
2642,612642,17104,-572,784,17131.51,32.20,-1.00,-1.0,2433
2645,612645,17024,-580,620,17045.16,32.15,-1.00,-1.0,2369
2650,612650,16964,-636,648,16988.28,32.15,-1.00,-1.0,2425
2653,612653,16988,-680,656,17014.26,32.15,-1.00,-1.0,2367
2655,612655,17020,-712,604,17045.59,32.20,-1.00,-1.0,2368
2658,612658,17068,-680,856,17102.97,32.20,-1.00,-1.0,2442
2661,612661,16976,-728,724,17007.02,32.11,-1.00,-1.0,2372
2664,612664,16992,-640,752,17020.67,32.20,-1.00,-1.0,2429
2666,612666,17056,-632,760,17084.62,32.20,-1.00,-1.0,2378
2669,612669,17076,-536,748,17100.78,32.15,-1.00,-1.0,2420
2672,612672,16976,-672,664,17002.27,32.20,-1.00,-1.0,2372
2677,612677,17108,-532,856,17137.66,32.20,-1.00,-1.0,2434
2680,612680,17116,-668,840,17149.62,32.15,-1.00,-1.0,2368
2682,612682,17084,-612,740,17110.97,32.25,-1.00,-1.0,2364
2685,612685,16960,-620,780,16989.24,32.15,-1.00,-1.0,2436
2688,612688,17156,-680,708,17184.06,32.15,-1.00,-1.0,2368
2691,612691,17052,-628,792,17081.93,32.15,-1.00,-1.0,2420
2693,612693,17028,-536,692,17050.48,32.15,-1.00,-1.0,2369
2696,612696,17032,-628,964,17070.81,32.15,-1.00,-1.0,2424
2699,612699,17008,-584,712,17032.91,32.20,-1.00,-1.0,2370
2704,612704,17108,-512,808,17134.72,32.11,-1.00,-1.0,2421
2707,612707,17124,-588,660,17146.80,32.11,-1.00,-1.0,2372
2710,612710,17004,-616,844,17036.07,32.06,-1.00,-1.0,2440
2712,612712,17036,-644,756,17064.92,32.20,-1.00,-1.0,2371
2715,612715,17168,-624,748,17195.61,32.25,-1.00,-1.0,2366
2718,612718,17060,-604,760,17087.60,32.06,-1.00,-1.0,2421
2720,612720,17048,-664,808,17080.05,32.25,-1.00,-1.0,2373
2723,612723,17072,-664,784,17102.89,32.11,-1.00,-1.0,2420
2726,612726,17052,-596,856,17083.87,32.06,-1.00,-1.0,2370
2731,612731,17064,-692,784,17096.01,32.15,-1.00,-1.0,2428
2734,612734,17040,-608,832,17071.13,32.20,-1.00,-1.0,2371
2737,612737,17052,-592,800,17081.02,32.06,-1.00,-1.0,2420
2739,612739,17068,-632,844,17100.54,32.06,-1.00,-1.0,2376
2742,612742,17036,-616,660,17059.90,32.15,-1.00,-1.0,2427
2745,612745,16976,-664,828,17009.15,32.15,-1.00,-1.0,2370
2747,612747,17092,-664,800,17123.59,32.11,-1.00,-1.0,2368
2750,612750,17032,-644,800,17062.94,32.20,-1.00,-1.0,2420
2753,612753,17040,-612,836,17071.47,32.15,-1.00,-1.0,2369
2758,612758,16956,-572,880,16988.45,32.15,-1.00,-1.0,2426
2761,612761,17044,-648,852,17077.58,32.06,-1.00,-1.0,2366
2764,612764,16984,-608,688,17008.80,32.15,-1.00,-1.0,2433
2766,612766,16952,-596,692,16976.58,32.06,-1.00,-1.0,2373
2769,612769,17044,-592,824,17074.17,32.25,-1.00,-1.0,2420
2772,612772,17112,-656,728,17140.04,32.15,-1.00,-1.0,2367
2775,612775,17040,-604,680,17064.26,32.15,-1.00,-1.0,2420
2777,612777,16996,-740,700,17026.50,32.15,-1.00,-1.0,2369
2780,612780,17032,-672,676,17058.65,32.20,-1.00,-1.0,2370
2785,612785,17088,-596,784,17116.36,32.11,-1.00,-1.0,2434
2788,612788,17048,-584,868,17080.07,32.20,-1.00,-1.0,2368
2790,612790,17080,-560,740,17105.19,32.25,-1.00,-1.0,2448
2793,612793,16992,-584,832,17022.38,32.20,-1.00,-1.0,2377
2796,612796,16932,-684,788,16964.12,32.15,-1.00,-1.0,2422
2799,612799,17056,-644,808,17087.27,32.20,-1.00,-1.0,2370
2801,612801,17036,-556,796,17063.65,32.15,-1.00,-1.0,2429
2804,612804,17056,-596,788,17084.59,32.11,-1.00,-1.0,2376
2809,612809,17084,-636,832,17116.07,32.15,-1.00,-1.0,2427
2812,612812,17028,-552,676,17050.35,32.15,-1.00,-1.0,2370
2814,612814,17148,-660,764,17177.70,32.20,-1.00,-1.0,2365
2817,612817,17024,-636,728,17051.42,32.11,-1.00,-1.0,2432
2820,612820,17096,-588,880,17128.73,32.11,-1.00,-1.0,2376
2823,612823,17104,-652,756,17133.11,32.15,-1.00,-1.0,2420
2825,612825,17080,-668,652,17105.49,32.20,-1.00,-1.0,2369
2828,612828,17052,-644,824,17084.04,32.15,-1.00,-1.0,2419
2831,612831,17052,-644,824,17084.04,32.20,-1.00,-1.0,2369
2836,612836,17044,-612,720,17070.18,32.20,-1.00,-1.0,2426
2839,612839,17000,-680,788,17031.83,32.20,-1.00,-1.0,2367
2842,612842,17048,-568,788,17075.65,32.20,-1.00,-1.0,2420
2844,612844,17104,-636,760,17132.69,32.11,-1.00,-1.0,2369
2847,612847,17064,-684,608,17088.52,32.15,-1.00,-1.0,2373
2850,612850,17072,-652,680,17097.97,32.15,-1.00,-1.0,2433
2852,612852,17072,-672,860,17106.85,32.15,-1.00,-1.0,2373
2855,612855,17028,-596,736,17054.32,32.15,-1.00,-1.0,2416
2858,612858,17036,-644,700,17062.53,32.15,-1.00,-1.0,2376
2863,612863,17132,-640,704,17158.40,32.20,-1.00,-1.0,2425
2866,612866,17136,-720,752,17167.60,32.20,-1.00,-1.0,2372
2869,612869,17132,-516,700,17154.06,32.15,-1.00,-1.0,2433
2871,612871,17000,-712,700,17029.30,32.20,-1.00,-1.0,2369
2874,612874,17060,-632,772,17089.15,32.15,-1.00,-1.0,2370
2877,612877,17032,-544,752,17057.27,32.20,-1.00,-1.0,2420
2879,612879,17104,-652,816,17135.86,32.25,-1.00,-1.0,2376
2882,612882,16984,-660,748,17013.27,32.20,-1.00,-1.0,2420
2885,612885,17084,-652,788,17114.59,32.15,-1.00,-1.0,2376
2890,612890,17052,-704,748,17082.91,32.06,-1.00,-1.0,2426
2893,612893,17104,-600,608,17125.32,32.11,-1.00,-1.0,2377
2896,612896,17012,-668,720,17040.33,32.15,-1.00,-1.0,2433
2898,612898,17020,-620,836,17051.79,32.15,-1.00,-1.0,2370
2901,612901,16996,-716,776,17028.77,32.15,-1.00,-1.0,2428
2904,612904,17124,-660,652,17149.11,32.25,-1.00,-1.0,2371
2906,612906,17080,-664,744,17109.09,32.25,-1.00,-1.0,2373
2909,612909,17072,-660,752,17101.29,32.20,-1.00,-1.0,2420
2912,612912,17064,-660,756,17093.48,32.11,-1.00,-1.0,2377
2917,612917,17012,-600,684,17036.31,32.25,-1.00,-1.0,2426
2920,612920,17124,-580,700,17148.11,32.15,-1.00,-1.0,2376
2923,612923,16988,-692,788,17020.34,32.20,-1.00,-1.0,2452
2925,612925,17088,-532,836,17116.71,32.15,-1.00,-1.0,2379
2928,612928,17132,-640,700,17158.23,32.11,-1.00,-1.0,2430
2931,612931,17036,-704,824,17070.44,32.15,-1.00,-1.0,2372
2934,612934,17108,-692,708,17136.62,32.20,-1.00,-1.0,2430
2936,612936,16936,-664,652,16961.55,32.15,-1.00,-1.0,2378
2939,612939,16964,-668,772,16994.69,32.20,-1.00,-1.0,2368
2944,612944,16992,-608,748,17019.32,32.11,-1.00,-1.0,2442
2947,612947,17056,-628,796,17086.11,32.25,-1.00,-1.0,2377
2950,612950,17240,-576,772,17266.89,32.20,-1.00,-1.0,2448
2952,612952,17032,-580,756,17058.63,32.25,-1.00,-1.0,2377
2955,612955,17092,-640,808,17123.05,32.20,-1.00,-1.0,2420
2958,612958,17052,-676,852,17086.65,32.29,-1.00,-1.0,2372
2961,612961,16988,-748,568,17013.94,32.11,-1.00,-1.0,2424
2963,612963,16932,-632,528,16952.02,32.11,-1.00,-1.0,2376
2968,612968,17192,-632,784,17221.47,32.25,-1.00,-1.0,2438
2971,612971,17020,-636,656,17044.51,32.15,-1.00,-1.0,2367
2974,612974,17036,-672,840,17069.93,32.29,-1.00,-1.0,2368
2977,612977,17060,-608,772,17088.28,32.15,-1.00,-1.0,2432
2979,612979,17036,-620,840,17067.96,32.11,-1.00,-1.0,2370
2982,612982,17128,-560,688,17150.96,32.15,-1.00,-1.0,2420
2985,612985,17132,-664,904,17168.68,32.20,-1.00,-1.0,2368
2988,612988,17068,-604,892,17101.96,32.25,-1.00,-1.0,2420
2990,612990,17152,-628,812,17182.69,32.15,-1.00,-1.0,2369
2995,612995,17040,-676,872,17075.68,32.25,-1.00,-1.0,2426
2998,612998,17144,-564,720,17168.38,32.15,-1.00,-1.0,2368
3001,613001,17088,-588,720,17113.27,32.06,-1.00,-1.0,2433
3003,613003,17032,-604,704,17057.24,32.15,-1.00,-1.0,2356
3006,613006,16992,-632,844,17024.68,32.20,-1.00,-1.0,2374
3009,613009,17112,-624,824,17143.19,32.11,-1.00,-1.0,2434
3011,613011,16940,-672,792,16971.81,32.15,-1.00,-1.0,2370
3014,613014,17080,-672,664,17106.11,32.25,-1.00,-1.0,2420
3017,613017,17024,-628,676,17048.99,32.25,-1.00,-1.0,2369
3022,613022,17056,-580,584,17075.85,32.20,-1.00,-1.0,2428
3025,613025,16996,-724,916,17036.06,32.20,-1.00,-1.0,2372
3028,613028,17080,-692,844,17114.84,32.25,-1.00,-1.0,2436
3030,613030,17000,-600,808,17029.76,32.20,-1.00,-1.0,2377
3033,613033,17044,-668,776,17074.73,32.15,-1.00,-1.0,2421
3036,613036,17064,-672,736,17093.08,32.29,-1.00,-1.0,2370
3038,613038,17004,-660,716,17031.86,32.25,-1.00,-1.0,2366
3041,613041,17032,-716,608,17057.88,32.15,-1.00,-1.0,2422
3044,613044,17088,-564,736,17113.14,32.15,-1.00,-1.0,2369
3049,613049,17036,-528,816,17063.70,32.25,-1.00,-1.0,2425
3052,613052,16968,-644,660,16993.04,32.15,-1.00,-1.0,2369
3055,613055,17112,-672,768,17142.40,32.15,-1.00,-1.0,2439
3058,613058,16976,-608,792,17005.34,32.15,-1.00,-1.0,2368
3060,613060,17076,-604,764,17103.75,32.15,-1.00,-1.0,2420
3063,613063,17012,-604,624,17034.15,32.15,-1.00,-1.0,2357
3066,613066,17028,-524,684,17049.79,32.20,-1.00,-1.0,2366
3068,613068,16988,-612,716,17014.09,32.20,-1.00,-1.0,2435
3071,613071,17088,-592,840,17118.87,32.25,-1.00,-1.0,2369
3076,613076,17108,-612,816,17138.38,32.15,-1.00,-1.0,2425
3079,613079,17120,-544,828,17148.64,32.25,-1.00,-1.0,2355
3082,613082,16992,-644,748,17020.64,32.11,-1.00,-1.0,2440
3085,613085,17108,-652,756,17137.10,32.15,-1.00,-1.0,2368
3087,613087,17068,-632,640,17091.68,32.25,-1.00,-1.0,2423
3090,613090,17128,-676,884,17164.11,32.15,-1.00,-1.0,2369
3093,613093,17028,-560,752,17053.79,32.11,-1.00,-1.0,2428
3096,613096,17080,-636,748,17108.20,32.15,-1.00,-1.0,2368
3098,613098,17072,-668,800,17103.78,32.20,-1.00,-1.0,2371
3103,613103,17072,-696,852,17107.41,32.20,-1.00,-1.0,2426
3106,613106,17028,-656,784,17058.66,32.20,-1.00,-1.0,2368
3109,613109,17020,-680,804,17052.54,32.20,-1.00,-1.0,2443
3112,613112,17068,-548,812,17096.09,32.20,-1.00,-1.0,2368
3114,613114,17036,-604,756,17063.46,32.11,-1.00,-1.0,2426
3117,613117,17092,-728,736,17123.32,32.11,-1.00,-1.0,2370
3120,613120,17104,-696,972,17145.73,32.11,-1.00,-1.0,2428
3123,613123,17120,-660,796,17151.20,32.20,-1.00,-1.0,2369
3128,613128,16992,-664,724,17020.38,32.11,-1.00,-1.0,2427
3130,613130,17172,-556,700,17195.25,32.15,-1.00,-1.0,2420
3133,613133,16976,-552,952,17011.63,32.20,-1.00,-1.0,2366
3136,613136,17096,-668,624,17120.42,32.20,-1.00,-1.0,2431
3139,613139,17068,-628,692,17093.56,32.11,-1.00,-1.0,2373
3141,613141,17076,-752,628,17104.08,32.06,-1.00,-1.0,2424
3144,613144,17116,-688,760,17146.67,32.20,-1.00,-1.0,2373
3147,613147,17040,-624,828,17071.51,32.15,-1.00,-1.0,2423
3150,613150,17028,-520,768,17053.24,32.29,-1.00,-1.0,2374
3155,613155,17036,-600,692,17060.60,32.11,-1.00,-1.0,2421
3157,613157,17092,-596,952,17128.86,32.15,-1.00,-1.0,2378
3160,613160,17056,-568,888,17088.54,32.11,-1.00,-1.0,2427
3163,613163,17060,-764,924,17102.08,32.11,-1.00,-1.0,2368
3165,613165,17060,-608,692,17084.85,32.15,-1.00,-1.0,2377
3168,613168,17020,-604,668,17043.81,32.15,-1.00,-1.0,2420
3171,613171,17020,-616,796,17049.73,32.15,-1.00,-1.0,2375
3174,613174,17044,-552,708,17067.63,32.15,-1.00,-1.0,2427
3176,613176,16984,-548,716,17007.92,32.15,-1.00,-1.0,2374
3181,613181,17008,-548,820,17036.57,32.15,-1.00,-1.0,2429
3184,613184,17032,-728,796,17066.12,32.15,-1.00,-1.0,2375
3187,613187,17164,-648,700,17190.49,32.11,-1.00,-1.0,2458
3190,613190,17020,-564,824,17049.27,32.20,-1.00,-1.0,2369
3193,613193,17000,-568,756,17026.28,32.15,-1.00,-1.0,2421
3195,613195,17028,-680,808,17060.72,32.20,-1.00,-1.0,2369
3198,613198,17068,-652,692,17094.46,32.25,-1.00,-1.0,2369
3201,613201,17112,-640,684,17137.62,32.11,-1.00,-1.0,2433
3203,613203,17068,-712,700,17097.18,32.11,-1.00,-1.0,2371
3208,613208,17036,-680,716,17064.59,32.29,-1.00,-1.0,2433
3211,613211,17108,-628,716,17134.49,32.20,-1.00,-1.0,2363
3214,613214,17084,-708,684,17112.34,32.20,-1.00,-1.0,2436
3217,613217,17080,-668,836,17113.49,32.11,-1.00,-1.0,2365
3219,613219,17092,-580,676,17115.19,32.11,-1.00,-1.0,2422
3222,613222,17132,-628,652,17155.90,32.11,-1.00,-1.0,2370
3225,613225,17044,-692,796,17076.60,32.20,-1.00,-1.0,2422
3227,613227,17060,-632,828,17091.77,32.11,-1.00,-1.0,2353
3231,613231,17096,-600,820,17126.17,32.20,-1.00,-1.0,2368
3235,613235,17048,-556,736,17072.94,32.25,-1.00,-1.0,2434
3238,613238,17200,-600,792,17228.68,32.20,-1.00,-1.0,2365
3241,613241,17112,-768,892,17152.44,32.25,-1.00,-1.0,2422
3244,613244,17076,-652,776,17106.05,32.11,-1.00,-1.0,2366
3246,613246,16984,-648,684,17010.12,32.25,-1.00,-1.0,2422
3249,613249,17024,-580,732,17049.60,32.20,-1.00,-1.0,2366
3252,613252,17032,-680,884,17068.48,32.15,-1.00,-1.0,2428
3255,613255,17160,-700,876,17196.60,32.11,-1.00,-1.0,2365
3258,613258,17008,-640,784,17038.08,32.20,-1.00,-1.0,2369
3263,613263,17028,-600,660,17051.35,32.01,-1.00,-1.0,2434
3265,613265,17012,-636,880,17046.61,32.06,-1.00,-1.0,2367
3268,613268,17072,-636,836,17104.29,32.11,-1.00,-1.0,2430
3271,613271,17092,-680,828,17125.55,32.20,-1.00,-1.0,2372
3274,613274,17068,-592,756,17094.99,32.11,-1.00,-1.0,2421
3276,613276,17132,-660,768,17161.90,32.20,-1.00,-1.0,2373
3279,613279,16996,-632,832,17028.08,32.11,-1.00,-1.0,2421
3282,613282,17088,-700,832,17122.56,32.11,-1.00,-1.0,2369
3287,613287,17040,-536,516,17056.23,32.20,-1.00,-1.0,2439
3289,613289,17048,-588,768,17075.42,32.11,-1.00,-1.0,2374
3292,613292,16992,-680,692,17019.67,32.11,-1.00,-1.0,2365
3295,613295,17024,-668,792,17055.50,32.15,-1.00,-1.0,2435
3298,613298,16972,-656,784,17002.76,32.06,-1.00,-1.0,2372
3300,613300,17044,-624,868,17077.49,32.06,-1.00,-1.0,2424
3303,613303,17092,-664,764,17121.95,32.25,-1.00,-1.0,2371
3306,613306,17024,-632,844,17056.62,32.15,-1.00,-1.0,2428
3309,613309,17104,-628,676,17128.87,32.15,-1.00,-1.0,2356
3314,613314,17000,-668,920,17037.98,32.25,-1.00,-1.0,2432
3316,613316,17060,-736,604,17086.55,32.20,-1.00,-1.0,2369
3319,613319,17072,-672,704,17099.72,32.06,-1.00,-1.0,2431
3322,613322,17104,-596,832,17134.59,32.20,-1.00,-1.0,2368
3324,613324,17016,-544,748,17041.12,32.15,-1.00,-1.0,2370
3327,613327,17144,-748,888,17183.27,32.20,-1.00,-1.0,2437
3330,613330,17052,-632,744,17079.92,32.20,-1.00,-1.0,2381
3333,613333,17108,-612,780,17136.70,32.11,-1.00,-1.0,2434
3336,613336,17140,-612,800,17169.57,32.25,-1.00,-1.0,2370
3341,613341,16928,-704,704,16957.25,32.25,-1.00,-1.0,2433
3343,613343,16972,-688,708,17000.69,32.15,-1.00,-1.0,2369
3346,613346,17128,-704,648,17154.71,32.25,-1.00,-1.0,2428
3349,613349,17040,-580,716,17064.89,32.25,-1.00,-1.0,2369
3352,613352,16984,-632,752,17012.38,32.25,-1.00,-1.0,2421
3354,613354,17036,-564,756,17062.09,32.15,-1.00,-1.0,2370
3357,613357,17012,-644,772,17041.68,32.20,-1.00,-1.0,2375
3360,613360,17160,-592,820,17189.78,32.20,-1.00,-1.0,2436
3363,613363,17072,-604,748,17099.05,32.20,-1.00,-1.0,2369
3368,613368,17064,-748,676,17093.76,32.11,-1.00,-1.0,2432
3370,613370,17180,-552,708,17203.44,32.15,-1.00,-1.0,2368
3373,613373,17036,-632,748,17064.12,32.25,-1.00,-1.0,2429
3376,613376,17092,-652,900,17128.09,32.15,-1.00,-1.0,2377
3379,613379,17096,-604,776,17124.26,32.20,-1.00,-1.0,2420
3381,613381,17068,-708,752,17099.22,32.15,-1.00,-1.0,2369
3384,613384,17100,-624,608,17122.18,32.11,-1.00,-1.0,2421
3387,613387,17040,-620,684,17064.99,32.25,-1.00,-1.0,2377
3390,613390,16924,-624,784,16953.64,32.29,-1.00,-1.0,2368
3395,613395,16924,-604,912,16959.31,32.11,-1.00,-1.0,2433
3397,613397,17044,-644,764,17073.27,32.11,-1.00,-1.0,2369
3400,613400,17064,-572,812,17092.88,32.20,-1.00,-1.0,2428
3403,613403,17040,-732,708,17070.40,32.29,-1.00,-1.0,2378
3406,613406,17076,-668,704,17103.55,32.20,-1.00,-1.0,2421
3408,613408,17052,-648,736,17080.17,32.20,-1.00,-1.0,2371
3411,613411,17052,-540,824,17080.44,32.11,-1.00,-1.0,2437
3414,613414,17048,-792,680,17079.93,32.11,-1.00,-1.0,2373
3419,613419,17076,-708,616,17101.77,32.15,-1.00,-1.0,2446
3422,613422,17128,-568,816,17156.83,32.15,-1.00,-1.0,2377
3425,613425,16952,-648,692,16978.49,32.11,-1.00,-1.0,2366
3428,613428,16996,-596,784,17024.51,32.11,-1.00,-1.0,2431
3430,613430,17064,-544,676,17086.05,32.20,-1.00,-1.0,2370
3433,613433,17040,-556,616,17060.19,32.20,-1.00,-1.0,2420
3436,613436,17084,-648,816,17115.75,32.20,-1.00,-1.0,2377
3439,613439,17136,-624,700,17161.64,32.20,-1.00,-1.0,2421
3441,613441,17000,-556,740,17025.18,32.11,-1.00,-1.0,2371
3446,613446,17120,-676,808,17152.38,32.15,-1.00,-1.0,2433
3449,613449,16976,-636,624,16999.37,32.06,-1.00,-1.0,2368
3451,613451,16980,-640,616,17003.22,32.11,-1.00,-1.0,2367
3454,613454,17028,-664,592,17051.22,32.15,-1.00,-1.0,2441
3457,613457,17056,-708,720,17085.87,32.11,-1.00,-1.0,2377
3460,613460,16964,-568,744,16989.80,32.15,-1.00,-1.0,2432
3462,613462,17080,-732,740,17111.69,32.25,-1.00,-1.0,2373
3465,613465,16984,-692,644,17010.29,32.15,-1.00,-1.0,2422
3468,613468,17108,-612,756,17135.63,32.15,-1.00,-1.0,2377
3473,613473,17060,-624,724,17086.75,32.20,-1.00,-1.0,2434
3476,613476,17056,-600,712,17081.40,32.20,-1.00,-1.0,2368
3478,613478,16964,-644,668,16989.36,32.15,-1.00,-1.0,2431
3481,613481,17092,-628,776,17121.13,32.20,-1.00,-1.0,2369
3484,613484,17036,-624,784,17065.44,32.15,-1.00,-1.0,2367
3487,613487,17132,-544,696,17154.76,32.20,-1.00,-1.0,2422
3489,613489,17036,-740,788,17070.26,32.15,-1.00,-1.0,2372
3492,613492,17068,-644,676,17093.52,32.15,-1.00,-1.0,2421
3495,613495,16936,-688,776,16967.72,32.20,-1.00,-1.0,2364
3500,613500,16972,-588,592,16992.50,32.20,-1.00,-1.0,2434
3502,613502,17036,-544,848,17065.77,32.15,-1.00,-1.0,2378
3505,613505,17064,-624,756,17092.13,32.29,-1.00,-1.0,2427
3508,613508,16968,-648,784,16998.46,32.15,-1.00,-1.0,2372
3511,613511,17076,-644,608,17098.95,32.20,-1.00,-1.0,2420
3513,613513,17112,-760,940,17154.64,32.25,-1.00,-1.0,2355
3516,613516,17104,-660,744,17132.89,32.20,-1.00,-1.0,2365
3519,613519,17088,-680,768,17118.76,32.15,-1.00,-1.0,2428
3522,613522,17016,-500,708,17038.06,32.20,-1.00,-1.0,2368
3527,613527,17024,-540,800,17051.34,32.20,-1.00,-1.0,2431
3530,613530,17096,-664,820,17128.53,32.20,-1.00,-1.0,2371
3532,613532,16956,-580,788,16984.21,32.20,-1.00,-1.0,2428
3535,613535,17100,-576,744,17125.87,32.15,-1.00,-1.0,2370
3538,613538,17068,-500,792,17093.68,32.20,-1.00,-1.0,2420
3541,613541,17112,-644,672,17137.29,32.20,-1.00,-1.0,2371
3543,613543,17080,-592,808,17109.35,32.20,-1.00,-1.0,2421
3546,613546,17096,-596,692,17120.38,32.25,-1.00,-1.0,2370
3549,613549,17140,-696,856,17175.47,32.20,-1.00,-1.0,2373
3554,613554,17020,-716,780,17052.90,32.11,-1.00,-1.0,2433
3557,613557,17072,-640,648,17096.28,32.20,-1.00,-1.0,2368
3559,613559,16972,-676,720,17000.71,32.15,-1.00,-1.0,2426
3562,613562,17008,-628,732,17035.32,32.20,-1.00,-1.0,2369
3565,613565,17040,-652,700,17066.83,32.15,-1.00,-1.0,2427
3568,613568,17020,-632,704,17046.27,32.20,-1.00,-1.0,2367
3570,613570,17120,-620,728,17146.68,32.15,-1.00,-1.0,2420
3573,613573,17088,-656,896,17124.04,32.20,-1.00,-1.0,2369
3578,613578,17076,-648,668,17101.34,32.11,-1.00,-1.0,2433
3581,613581,17028,-516,736,17051.71,32.11,-1.00,-1.0,2365
3583,613583,17100,-648,792,17130.59,32.25,-1.00,-1.0,2365
3586,613586,17088,-612,760,17115.84,32.25,-1.00,-1.0,2428
3589,613589,17084,-560,648,17105.45,32.15,-1.00,-1.0,2376
3592,613592,16944,-736,612,16971.02,32.15,-1.00,-1.0,2420
3594,613594,17068,-564,672,17090.53,32.15,-1.00,-1.0,2369
3597,613597,17064,-640,904,17099.91,32.15,-1.00,-1.0,2420
3600,613600,17028,-628,852,17060.86,32.25,-1.00,-1.0,2379
3605,613605,17072,-668,780,17102.86,32.15,-1.00,-1.0,2434
3608,613608,16996,-676,732,17025.18,32.15,-1.00,-1.0,2369
3610,613610,17008,-528,704,17030.75,32.15,-1.00,-1.0,2428
3613,613613,17024,-644,756,17052.94,32.25,-1.00,-1.0,2369
3616,613616,16924,-656,932,16962.33,32.29,-1.00,-1.0,2368
3619,613619,17060,-552,748,17085.31,32.20,-1.00,-1.0,2409
3621,613621,17104,-584,724,17129.28,32.11,-1.00,-1.0,2384
3624,613624,17144,-676,768,17174.50,32.20,-1.00,-1.0,2423
3627,613627,16952,-568,780,16979.44,32.15,-1.00,-1.0,2375
3632,613632,17092,-748,852,17129.56,32.20,-1.00,-1.0,2437
3634,613634,17020,-564,732,17045.07,32.29,-1.00,-1.0,2376
3637,613637,17028,-660,788,17059.00,32.15,-1.00,-1.0,2428
3640,613640,17044,-596,780,17072.24,32.20,-1.00,-1.0,2377
3643,613643,17052,-544,664,17073.59,32.15,-1.00,-1.0,2366
3645,613645,17096,-576,684,17119.37,32.11,-1.00,-1.0,2426
3648,613648,17064,-656,704,17091.11,32.15,-1.00,-1.0,2369
3651,613651,17132,-652,832,17164.58,32.20,-1.00,-1.0,2422
3654,613654,16992,-736,780,17025.81,32.29,-1.00,-1.0,2371
3659,613659,17148,-592,708,17172.82,32.15,-1.00,-1.0,2431
3661,613661,17032,-648,788,17062.53,32.25,-1.00,-1.0,2368
3664,613664,17040,-676,728,17068.94,32.15,-1.00,-1.0,2426
3667,613667,17020,-544,656,17041.32,32.25,-1.00,-1.0,2377
3670,613670,17140,-644,808,17171.12,32.20,-1.00,-1.0,2420
3672,613672,17044,-600,744,17070.78,32.15,-1.00,-1.0,2370
3675,613675,17020,-588,672,17043.41,32.20,-1.00,-1.0,2365
3678,613678,17056,-676,784,17087.39,32.15,-1.00,-1.0,2421
3681,613681,16932,-652,804,16963.61,32.11,-1.00,-1.0,2368
3686,613686,17132,-584,752,17158.44,32.20,-1.00,-1.0,2431
3689,613689,17172,-708,704,17201.00,32.15,-1.00,-1.0,2371
3692,613692,17076,-568,928,17110.63,32.20,-1.00,-1.0,2428
3694,613694,17060,-556,756,17085.79,32.11,-1.00,-1.0,2372
3697,613697,17028,-640,820,17059.74,32.11,-1.00,-1.0,2427
3700,613700,17028,-568,716,17052.51,32.15,-1.00,-1.0,2376
3703,613703,17028,-612,844,17059.88,32.20,-1.00,-1.0,2420
3705,613705,17044,-612,740,17071.03,32.11,-1.00,-1.0,2371
3708,613708,17024,-632,704,17050.27,32.25,-1.00,-1.0,2369
3713,613713,17072,-568,668,17094.50,32.20,-1.00,-1.0,2435
3716,613716,16972,-648,712,16999.28,32.11,-1.00,-1.0,2370
3718,613718,17036,-520,664,17056.86,32.15,-1.00,-1.0,2435
3721,613721,17016,-620,800,17046.07,32.29,-1.00,-1.0,2384
3724,613724,17032,-640,876,17066.52,32.15,-1.00,-1.0,2421
3727,613727,17076,-680,768,17106.78,32.11,-1.00,-1.0,2372
3730,613730,17056,-704,680,17084.06,32.15,-1.00,-1.0,2422
3732,613732,17024,-528,812,17051.53,32.15,-1.00,-1.0,2377
3737,613737,17012,-680,868,17047.70,32.29,-1.00,-1.0,2439
3740,613740,17104,-652,764,17133.46,32.20,-1.00,-1.0,2383
3742,613742,17052,-696,844,17087.05,32.15,-1.00,-1.0,2352
3745,613745,17052,-616,760,17080.04,32.25,-1.00,-1.0,2414
3748,613748,16984,-644,624,17007.66,32.15,-1.00,-1.0,2372
3751,613751,17004,-636,732,17031.63,32.06,-1.00,-1.0,2420
3754,613754,17044,-656,724,17071.98,32.15,-1.00,-1.0,2371
3756,613756,17056,-680,804,17088.47,32.15,-1.00,-1.0,2420
3759,613759,17104,-628,856,17136.92,32.25,-1.00,-1.0,2369
3764,613764,17100,-624,780,17129.15,32.15,-1.00,-1.0,2433
3767,613767,17124,-592,792,17152.53,32.15,-1.00,-1.0,2369
3770,613770,17008,-656,656,17033.28,32.06,-1.00,-1.0,2427
3772,613772,17112,-628,796,17142.01,32.15,-1.00,-1.0,2370
3775,613775,17048,-572,828,17077.68,32.15,-1.00,-1.0,2374
3778,613778,17132,-608,636,17154.58,32.20,-1.00,-1.0,2421
3780,613780,17124,-652,640,17148.36,32.20,-1.00,-1.0,2369
3783,613783,17072,-600,820,17102.21,32.20,-1.00,-1.0,2420
3786,613786,17052,-540,772,17078.01,32.20,-1.00,-1.0,2369
3791,613791,16984,-684,728,17013.35,32.25,-1.00,-1.0,2431
3794,613794,16984,-580,888,17017.09,32.15,-1.00,-1.0,2370
3797,613797,17068,-624,728,17094.91,32.20,-1.00,-1.0,2427
3799,613799,17008,-620,684,17033.04,32.15,-1.00,-1.0,2369
3802,613802,17064,-660,700,17091.10,32.20,-1.00,-1.0,2420
3805,613805,17132,-680,728,17160.94,32.25,-1.00,-1.0,2371
3807,613807,17008,-596,812,17037.80,32.20,-1.00,-1.0,2369
3810,613810,17004,-604,876,17037.26,32.15,-1.00,-1.0,2436
3813,613813,17016,-676,724,17044.81,32.20,-1.00,-1.0,2369
3818,613818,17064,-644,840,17096.80,32.11,-1.00,-1.0,2420
3821,613821,17148,-588,796,17176.53,32.15,-1.00,-1.0,2371
3824,613824,17000,-636,652,17024.38,32.20,-1.00,-1.0,2427
3826,613826,17140,-592,776,17167.77,32.11,-1.00,-1.0,2369
3829,613829,17056,-668,668,17082.14,32.20,-1.00,-1.0,2420
3832,613832,17104,-628,816,17134.97,32.15,-1.00,-1.0,2368
3834,613834,17092,-696,768,17123.40,32.25,-1.00,-1.0,2367
3837,613837,17020,-568,816,17049.01,32.15,-1.00,-1.0,2435
3840,613840,17016,-620,704,17041.84,32.20,-1.00,-1.0,2369
3845,613845,17016,-632,760,17044.69,32.15,-1.00,-1.0,2440
3848,613848,17016,-644,836,17048.69,32.15,-1.00,-1.0,2368
3850,613850,17148,-564,824,17177.05,32.15,-1.00,-1.0,2438
3853,613853,16996,-600,856,17028.12,32.25,-1.00,-1.0,2383
3856,613856,17136,-708,720,17165.73,32.20,-1.00,-1.0,2424
3859,613859,16992,-652,712,17019.40,32.06,-1.00,-1.0,2369
3862,613862,17120,-656,848,17153.54,32.29,-1.00,-1.0,2427
3864,613864,17032,-748,720,17063.61,32.25,-1.00,-1.0,2377
3867,613867,17160,-604,712,17185.38,32.15,-1.00,-1.0,2373
3872,613872,17072,-620,660,17096.00,32.20,-1.00,-1.0,2439
3875,613875,17064,-760,796,17099.45,32.11,-1.00,-1.0,2368
3877,613877,17104,-720,636,17130.96,32.25,-1.00,-1.0,2427
3880,613880,17024,-664,540,17045.50,32.20,-1.00,-1.0,2369
3883,613883,17104,-680,760,17134.38,32.25,-1.00,-1.0,2427
3886,613886,17068,-576,688,17091.57,32.15,-1.00,-1.0,2419
3889,613889,17028,-648,668,17053.41,32.11,-1.00,-1.0,2426
3891,613891,17016,-632,712,17042.61,32.20,-1.00,-1.0,2374
3896,613896,17068,-620,700,17093.60,32.20,-1.00,-1.0,2440
3899,613899,17088,-576,880,17120.34,32.20,-1.00,-1.0,2377
3902,613902,16996,-688,704,17024.48,32.11,-1.00,-1.0,2365
3904,613904,17056,-712,872,17093.11,32.25,-1.00,-1.0,2425
3907,613907,17108,-652,824,17140.24,32.15,-1.00,-1.0,2371
3910,613910,17044,-648,688,17070.18,32.15,-1.00,-1.0,2430
3913,613913,17032,-644,668,17057.26,32.15,-1.00,-1.0,2355
3915,613915,17124,-656,752,17153.05,32.15,-1.00,-1.0,2424
3918,613918,17020,-540,728,17044.12,32.11,-1.00,-1.0,2377
3923,613923,17072,-644,756,17100.86,32.20,-1.00,-1.0,2448
3926,613926,17096,-692,840,17130.61,32.06,-1.00,-1.0,2380
3929,613929,17060,-656,744,17088.81,32.20,-1.00,-1.0,2434
3931,613931,17088,-564,708,17111.96,32.11,-1.00,-1.0,2379
3934,613934,17148,-664,756,17177.49,32.25,-1.00,-1.0,2365
3937,613937,17052,-620,728,17078.79,32.15,-1.00,-1.0,2428
3940,613940,17080,-620,764,17108.32,32.15,-1.00,-1.0,2364
3942,613942,17124,-652,784,17154.33,32.06,-1.00,-1.0,2423
3945,613945,17104,-772,752,17137.92,32.20,-1.00,-1.0,2368
3950,613950,17080,-708,772,17112.09,32.20,-1.00,-1.0,2441
3953,613953,17088,-640,728,17115.47,32.29,-1.00,-1.0,2380
3956,613956,17040,-516,716,17062.84,32.20,-1.00,-1.0,2432
3958,613958,17100,-664,848,17133.88,32.20,-1.00,-1.0,2376
3961,613961,17044,-676,732,17073.10,32.20,-1.00,-1.0,2417
3964,613964,17080,-592,772,17107.68,32.11,-1.00,-1.0,2376
3967,613967,16984,-604,796,17013.37,32.15,-1.00,-1.0,2362
3969,613969,17008,-644,764,17037.33,32.15,-1.00,-1.0,2422
3972,613972,17060,-612,688,17084.83,32.11,-1.00,-1.0,2369
3977,613977,17136,-692,796,17168.43,32.20,-1.00,-1.0,2440
3980,613980,17012,-580,920,17046.73,32.20,-1.00,-1.0,2375
3983,613983,17080,-648,816,17111.76,32.15,-1.00,-1.0,2422
3985,613985,17108,-608,684,17132.46,32.20,-1.00,-1.0,2376
3988,613988,17104,-692,760,17134.86,32.15,-1.00,-1.0,2419
3991,613991,17040,-616,756,17067.88,32.20,-1.00,-1.0,2371
3994,613994,17060,-556,844,17089.91,32.15,-1.00,-1.0,2422
3996,613996,17100,-620,856,17132.63,32.20,-1.00,-1.0,2370
3999,613999,17144,-612,732,17170.53,32.15,-1.00,-1.0,2365
4004,614004,17024,-604,756,17051.48,32.25,-1.00,-1.0,2432
4007,614007,17024,-668,772,17054.58,32.20,-1.00,-1.0,2373
4010,614010,17052,-524,700,17074.40,32.15,-1.00,-1.0,2423
4012,614012,17024,-588,684,17047.88,32.29,-1.00,-1.0,2370
4015,614015,17056,-716,724,17086.37,32.25,-1.00,-1.0,2420
4018,614018,17104,-616,900,17138.74,32.15,-1.00,-1.0,2372
4021,614021,17036,-632,736,17063.60,32.15,-1.00,-1.0,2420
4023,614023,17040,-680,824,17073.46,32.15,-1.00,-1.0,2359
4026,614026,17068,-664,768,17098.17,32.25,-1.00,-1.0,2365
4031,614031,17064,-704,728,17094.03,32.15,-1.00,-1.0,2433
4034,614034,17112,-616,764,17140.12,32.15,-1.00,-1.0,2373
4037,614037,17060,-624,720,17086.58,32.15,-1.00,-1.0,2423
4040,614040,17120,-652,596,17142.78,32.15,-1.00,-1.0,2368
4042,614042,17020,-548,692,17042.88,32.15,-1.00,-1.0,2420
4045,614045,17036,-672,664,17062.17,32.20,-1.00,-1.0,2417
4048,614048,17028,-572,636,17049.47,32.15,-1.00,-1.0,2427
4051,614051,17192,-672,856,17226.41,32.25,-1.00,-1.0,2376
4056,614056,17060,-632,824,17091.58,32.15,-1.00,-1.0,2433
4058,614058,17036,-668,852,17070.37,32.15,-1.00,-1.0,2372
4061,614061,17028,-624,784,17057.46,32.01,-1.00,-1.0,2360
4064,614064,17032,-556,752,17057.66,32.11,-1.00,-1.0,2430
4066,614066,17060,-628,788,17089.73,32.20,-1.00,-1.0,2370
4069,614069,17044,-628,660,17068.33,32.15,-1.00,-1.0,2435
4072,614072,17060,-592,740,17086.30,32.11,-1.00,-1.0,2377
4075,614075,17080,-668,756,17109.77,32.15,-1.00,-1.0,2433
4077,614077,17036,-660,696,17062.98,32.20,-1.00,-1.0,2372
4082,614082,17020,-668,780,17050.95,32.01,-1.00,-1.0,2433
4085,614085,17104,-644,756,17132.81,32.15,-1.00,-1.0,2372
4088,614088,17044,-536,748,17068.82,32.20,-1.00,-1.0,2423
4090,614090,17168,-676,700,17195.56,32.20,-1.00,-1.0,2369
4093,614093,17036,-704,808,17069.67,32.15,-1.00,-1.0,2369
4096,614096,17088,-592,852,17119.47,32.15,-1.00,-1.0,2432
4098,614098,17040,-648,892,17075.63,32.25,-1.00,-1.0,2378
4101,614101,17036,-704,608,17061.38,32.15,-1.00,-1.0,2433
4104,614104,17064,-492,720,17086.27,32.20,-1.00,-1.0,2372
4110,614110,16964,-644,676,16989.67,32.15,-1.00,-1.0,2432
4112,614112,17020,-688,720,17049.11,32.15,-1.00,-1.0,2373
4115,614115,17132,-616,924,17167.96,32.11,-1.00,-1.0,2423
4118,614118,16976,-564,804,17004.38,32.29,-1.00,-1.0,2368
4121,614121,17004,-560,804,17032.21,32.20,-1.00,-1.0,2420
4123,614123,16948,-680,816,16981.25,32.20,-1.00,-1.0,2369
4126,614126,17028,-644,752,17056.76,32.25,-1.00,-1.0,2373
4129,614129,17120,-596,672,17143.55,32.15,-1.00,-1.0,2437
4131,614131,17048,-612,824,17078.87,32.15,-1.00,-1.0,2376
4136,614136,17060,-576,864,17091.57,32.15,-1.00,-1.0,2436
4139,614139,17056,-668,848,17090.13,32.11,-1.00,-1.0,2369
4142,614142,17096,-568,804,17124.32,32.15,-1.00,-1.0,2431
4145,614145,17048,-612,844,17079.85,32.11,-1.00,-1.0,2364
4147,614147,17048,-512,660,17068.45,32.15,-1.00,-1.0,2433
4150,614150,16968,-640,728,16995.66,32.29,-1.00,-1.0,2365
4153,614153,17104,-596,700,17128.69,32.15,-1.00,-1.0,2427
4156,614156,17004,-688,672,17031.18,32.20,-1.00,-1.0,2367
4158,614158,17064,-568,560,17082.63,32.15,-1.00,-1.0,2375
4163,614163,17104,-720,684,17132.81,32.15,-1.00,-1.0,2435
4166,614166,17040,-652,760,17069.40,32.20,-1.00,-1.0,2368
4169,614169,17120,-672,728,17148.64,32.15,-1.00,-1.0,2430
4172,614172,17112,-588,756,17138.78,32.15,-1.00,-1.0,2364
4174,614174,17020,-660,768,17050.10,32.15,-1.00,-1.0,2434
4177,614177,16972,-620,552,16992.29,32.06,-1.00,-1.0,2378
4180,614180,17032,-620,708,17057.98,32.15,-1.00,-1.0,2423
4183,614183,17048,-688,712,17076.73,32.15,-1.00,-1.0,2365
4188,614188,17060,-648,764,17089.39,32.20,-1.00,-1.0,2432
4190,614190,17088,-480,664,17107.63,32.20,-1.00,-1.0,2369
4193,614193,17076,-656,704,17103.09,32.25,-1.00,-1.0,2372
4196,614196,16972,-588,776,16999.90,32.20,-1.00,-1.0,2436
4198,614198,16980,-656,780,17010.56,32.25,-1.00,-1.0,2375
4201,614201,17104,-580,880,17136.44,32.29,-1.00,-1.0,2420
4204,614204,17108,-568,696,17131.57,32.15,-1.00,-1.0,2371
4207,614207,17092,-536,792,17118.73,32.20,-1.00,-1.0,2420
4209,614209,17060,-620,956,17098.01,32.15,-1.00,-1.0,2371
4214,614214,17072,-596,740,17098.42,32.15,-1.00,-1.0,2441
4217,614217,17080,-620,808,17110.34,32.15,-1.00,-1.0,2388
4220,614220,17112,-712,704,17141.27,32.11,-1.00,-1.0,2366
4223,614223,17012,-700,824,17046.32,32.15,-1.00,-1.0,2423
4225,614225,17152,-648,800,17182.87,32.20,-1.00,-1.0,2356
4228,614228,17020,-600,876,17053.09,32.15,-1.00,-1.0,2420
4231,614231,17104,-624,772,17132.78,32.11,-1.00,-1.0,2368
4234,614234,16960,-680,832,16994.01,32.15,-1.00,-1.0,2420
4237,614237,17092,-676,720,17120.51,32.11,-1.00,-1.0,2370
4242,614242,17000,-656,656,17025.29,32.11,-1.00,-1.0,2440
4244,614244,17060,-648,920,17097.07,32.20,-1.00,-1.0,2375
4247,614247,17032,-640,736,17059.90,32.20,-1.00,-1.0,2423
4250,614250,17124,-616,820,17154.69,32.20,-1.00,-1.0,2369
4252,614252,17044,-700,756,17075.11,32.15,-1.00,-1.0,2364
4255,614255,17072,-556,776,17098.67,32.06,-1.00,-1.0,2420
4258,614258,17116,-620,916,17151.70,32.25,-1.00,-1.0,2369
4261,614261,17012,-560,748,17037.64,32.25,-1.00,-1.0,2420
4264,614264,17064,-588,564,17083.44,32.29,-1.00,-1.0,2370
4269,614269,17104,-636,852,17137.01,32.15,-1.00,-1.0,2432
4272,614272,17028,-568,752,17054.06,32.25,-1.00,-1.0,2381
4275,614275,17100,-692,876,17136.40,32.20,-1.00,-1.0,2427
4277,614277,17064,-596,752,17090.96,32.15,-1.00,-1.0,2372
4280,614280,17040,-520,712,17062.79,32.11,-1.00,-1.0,2435
4283,614283,17052,-608,816,17082.34,32.15,-1.00,-1.0,2376
4285,614285,17072,-676,736,17101.22,32.11,-1.00,-1.0,2354
4288,614288,17088,-572,776,17115.17,32.25,-1.00,-1.0,2420
4291,614291,17076,-528,872,17106.40,32.20,-1.00,-1.0,2372
4296,614296,17096,-552,652,17117.33,32.11,-1.00,-1.0,2442
4298,614298,17020,-632,924,17056.78,32.15,-1.00,-1.0,2378
4301,614301,17072,-664,860,17106.54,32.11,-1.00,-1.0,2429
4304,614304,17096,-736,748,17128.18,32.20,-1.00,-1.0,2364
4307,614307,17036,-644,776,17065.82,32.20,-1.00,-1.0,2430
4309,614309,17076,-592,736,17102.10,32.20,-1.00,-1.0,2375
4312,614312,16996,-624,796,17026.07,32.29,-1.00,-1.0,2420
4315,614315,17056,-608,740,17082.87,32.20,-1.00,-1.0,2372
4318,614318,17140,-668,688,17166.80,32.15,-1.00,-1.0,2366
4323,614323,17056,-588,956,17092.89,32.06,-1.00,-1.0,2432
4325,614325,16956,-672,720,16984.58,32.25,-1.00,-1.0,2372
4328,614328,17012,-660,708,17039.51,32.15,-1.00,-1.0,2423
4331,614331,17080,-644,816,17111.60,32.15,-1.00,-1.0,2368
4334,614334,16996,-656,728,17024.23,32.15,-1.00,-1.0,2407
4336,614336,17104,-660,828,17136.74,32.15,-1.00,-1.0,2369
4339,614339,16980,-656,724,17008.08,32.15,-1.00,-1.0,2421
4342,614342,17104,-704,820,17138.11,32.15,-1.00,-1.0,2367
4347,614347,17008,-568,828,17037.61,32.25,-1.00,-1.0,2432
4349,614349,16988,-748,828,17024.61,32.20,-1.00,-1.0,2380
4352,614352,17000,-636,860,17033.62,32.15,-1.00,-1.0,2365
4355,614355,17036,-604,728,17062.24,32.20,-1.00,-1.0,2432
4358,614358,17096,-664,904,17132.76,32.25,-1.00,-1.0,2364
4360,614360,17072,-556,816,17100.53,32.06,-1.00,-1.0,2421
4363,614363,17088,-584,760,17114.86,32.15,-1.00,-1.0,2366
4366,614366,16996,-660,668,17021.92,32.20,-1.00,-1.0,2423
4369,614369,17080,-528,888,17111.22,32.11,-1.00,-1.0,2365
4374,614374,17032,-656,736,17060.51,32.11,-1.00,-1.0,2432
4376,614376,17048,-640,752,17076.57,32.25,-1.00,-1.0,2370
4379,614379,17084,-652,792,17114.77,32.20,-1.00,-1.0,2423
4382,614382,17072,-672,776,17102.83,32.20,-1.00,-1.0,2375
4384,614384,17012,-624,968,17050.94,32.20,-1.00,-1.0,2370
4387,614387,17012,-628,660,17036.38,32.25,-1.00,-1.0,2419
4390,614390,17048,-640,644,17072.16,32.20,-1.00,-1.0,2371
4393,614393,17056,-692,716,17085.04,32.15,-1.00,-1.0,2420
4396,614396,17060,-704,732,17090.20,32.20,-1.00,-1.0,2373
4401,614401,16988,-560,924,17022.32,32.20,-1.00,-1.0,2432
4403,614403,17084,-748,972,17127.97,32.20,-1.00,-1.0,2369
4406,614406,17096,-668,700,17123.36,32.15,-1.00,-1.0,2438
4409,614409,17080,-448,740,17101.89,32.11,-1.00,-1.0,2377
4411,614411,17084,-612,700,17109.28,32.15,-1.00,-1.0,2350
4414,614414,17108,-632,860,17141.26,32.15,-1.00,-1.0,2420
4417,614417,17168,-680,704,17195.88,32.15,-1.00,-1.0,2372
4420,614420,16996,-720,828,17031.38,32.15,-1.00,-1.0,2420
4423,614423,16960,-592,724,16985.77,32.15,-1.00,-1.0,2370
4428,614428,17000,-604,728,17026.30,32.15,-1.00,-1.0,2441
4430,614430,17064,-612,808,17094.08,32.20,-1.00,-1.0,2381
4433,614433,17080,-632,740,17107.70,32.25,-1.00,-1.0,2423
4436,614436,17080,-508,876,17109.99,32.25,-1.00,-1.0,2372
4439,614439,17064,-656,836,17097.06,32.25,-1.00,-1.0,2423
4441,614441,17056,-576,772,17083.18,32.25,-1.00,-1.0,2375
4444,614444,17112,-608,776,17140.37,32.11,-1.00,-1.0,2365
4447,614447,16996,-636,936,17033.63,32.11,-1.00,-1.0,2422
4450,614450,16996,-660,544,17017.51,32.06,-1.00,-1.0,2369
4455,614455,17052,-668,764,17082.17,32.15,-1.00,-1.0,2438
4457,614457,17088,-728,908,17127.59,32.06,-1.00,-1.0,2382
4460,614460,17104,-532,764,17129.32,32.25,-1.00,-1.0,2423
4463,614463,17144,-652,688,17170.18,32.15,-1.00,-1.0,2369
4466,614466,17032,-624,708,17058.13,32.15,-1.00,-1.0,2419
4468,614468,17028,-580,836,17058.37,32.25,-1.00,-1.0,2376
4471,614471,17016,-620,756,17044.07,32.25,-1.00,-1.0,2420
4474,614474,17092,-612,728,17118.44,32.15,-1.00,-1.0,2356
4477,614477,17016,-672,884,17052.19,32.15,-1.00,-1.0,2366
4482,614482,17028,-648,760,17057.27,32.20,-1.00,-1.0,2432
4484,614484,16984,-644,640,17008.25,32.15,-1.00,-1.0,2372
4487,614487,17056,-640,784,17086.00,32.20,-1.00,-1.0,2423
4490,614490,17108,-672,664,17134.06,32.11,-1.00,-1.0,2372
4493,614493,17088,-544,852,17117.87,32.15,-1.00,-1.0,2420
4495,614495,17044,-528,804,17071.12,32.11,-1.00,-1.0,2369
4498,614498,16976,-632,708,17002.51,32.06,-1.00,-1.0,2420
4501,614501,16972,-624,888,17006.67,32.20,-1.00,-1.0,2369
4506,614506,17052,-680,912,17089.90,32.11,-1.00,-1.0,2435
4508,614508,16956,-560,532,16973.58,32.25,-1.00,-1.0,2375
4511,614511,17020,-720,816,17054.75,32.20,-1.00,-1.0,2366
4514,614514,17004,-700,836,17038.92,32.15,-1.00,-1.0,2423
4516,614516,17112,-580,872,17144.02,32.20,-1.00,-1.0,2369
4519,614519,17036,-680,924,17074.59,32.15,-1.00,-1.0,2420
4522,614522,17056,-628,760,17084.47,32.20,-1.00,-1.0,2377
4525,614525,17044,-676,756,17074.15,32.20,-1.00,-1.0,2428
4528,614528,17104,-680,692,17131.49,32.20,-1.00,-1.0,2368
4533,614533,16984,-660,624,17008.27,32.20,-1.00,-1.0,2431
4536,614536,17032,-564,884,17064.25,32.20,-1.00,-1.0,2375
4538,614538,17108,-584,740,17133.95,32.20,-1.00,-1.0,2424
4541,614541,17092,-616,720,17118.25,32.20,-1.00,-1.0,2356
4544,614544,16960,-620,848,16992.50,32.25,-1.00,-1.0,2366
4546,614546,17036,-600,760,17063.50,32.06,-1.00,-1.0,2434
4549,614549,17016,-560,808,17044.38,32.15,-1.00,-1.0,2373
4552,614552,17040,-664,728,17068.46,32.11,-1.00,-1.0,2458
4555,614555,17144,-640,756,17172.59,32.25,-1.00,-1.0,2376
4560,614560,17124,-612,584,17144.88,32.11,-1.00,-1.0,2431
4563,614563,17096,-544,624,17116.03,32.20,-1.00,-1.0,2372
4566,614566,16948,-676,652,16974.00,32.20,-1.00,-1.0,2426
4568,614568,17100,-700,804,17133.20,32.20,-1.00,-1.0,2370
4571,614571,17056,-640,672,17081.23,32.15,-1.00,-1.0,2421
4574,614574,17072,-668,652,17097.50,32.11,-1.00,-1.0,2368
4576,614576,16984,-620,732,17011.07,32.15,-1.00,-1.0,2367
4579,614579,16940,-612,916,16975.78,32.15,-1.00,-1.0,2437
4582,614582,17084,-564,708,17107.96,32.25,-1.00,-1.0,2365
4587,614587,17180,-604,592,17200.80,32.06,-1.00,-1.0,2441
4590,614590,17064,-568,812,17092.75,32.11,-1.00,-1.0,2374
4592,614592,17076,-672,752,17105.76,32.15,-1.00,-1.0,2427
4595,614595,17012,-632,656,17036.37,32.15,-1.00,-1.0,2370
4598,614598,17184,-680,716,17212.35,32.15,-1.00,-1.0,2428
4601,614601,17088,-724,836,17123.75,32.15,-1.00,-1.0,2368
4603,614603,17064,-568,732,17089.13,32.15,-1.00,-1.0,2373
4606,614606,17140,-704,764,17171.46,32.20,-1.00,-1.0,2409
4609,614609,17048,-632,764,17076.81,32.15,-1.00,-1.0,2376
4614,614614,17056,-728,668,17084.59,32.15,-1.00,-1.0,2439
4617,614617,17008,-536,728,17032.01,32.15,-1.00,-1.0,2374
4619,614619,17000,-632,760,17028.71,32.15,-1.00,-1.0,2425
4622,614622,17132,-720,744,17163.26,32.15,-1.00,-1.0,2370
4625,614625,17140,-724,816,17174.68,32.25,-1.00,-1.0,2432
4628,614628,17120,-600,828,17150.51,32.15,-1.00,-1.0,2356
4630,614630,16968,-608,660,16991.71,32.25,-1.00,-1.0,2421
4633,614633,17000,-684,804,17032.74,32.25,-1.00,-1.0,2370
4636,614636,17112,-624,800,17142.05,32.20,-1.00,-1.0,2374
4641,614641,17136,-600,704,17160.95,32.15,-1.00,-1.0,2422
4644,614644,16988,-688,704,17016.49,32.25,-1.00,-1.0,2373
4646,614646,17020,-644,696,17046.39,32.20,-1.00,-1.0,2426
4649,614649,16996,-712,812,17030.28,32.25,-1.00,-1.0,2369
4652,614652,17096,-604,664,17119.55,32.20,-1.00,-1.0,2427
4655,614655,17056,-656,824,17088.49,32.15,-1.00,-1.0,2370
4657,614657,17060,-632,804,17090.62,32.20,-1.00,-1.0,2422
4660,614660,17096,-576,656,17118.28,32.11,-1.00,-1.0,2425
4665,614665,17044,-592,764,17071.38,32.15,-1.00,-1.0,2445
4668,614668,17124,-692,684,17151.62,32.20,-1.00,-1.0,2373
4671,614671,17072,-716,772,17104.44,32.15,-1.00,-1.0,2365
4673,614673,17124,-652,808,17155.45,32.20,-1.00,-1.0,2421
4676,614676,17136,-592,796,17164.69,32.15,-1.00,-1.0,2369
4679,614679,17080,-604,716,17105.67,32.20,-1.00,-1.0,2428
4682,614682,17004,-600,708,17029.31,32.15,-1.00,-1.0,2369
4684,614684,17040,-680,748,17069.96,32.11,-1.00,-1.0,2422
4687,614687,17064,-628,756,17092.28,32.15,-1.00,-1.0,2369
4692,614692,16996,-656,736,17024.57,32.11,-1.00,-1.0,2443
4695,614695,17060,-628,624,17082.96,32.11,-1.00,-1.0,2373
4697,614697,17056,-720,912,17095.53,32.11,-1.00,-1.0,2433
4700,614700,17108,-600,744,17134.68,32.20,-1.00,-1.0,2377
4703,614703,16984,-660,824,17016.78,32.15,-1.00,-1.0,2366
4706,614706,17012,-640,784,17042.08,32.25,-1.00,-1.0,2421
4708,614708,17056,-656,624,17080.01,32.25,-1.00,-1.0,2369
4711,614711,17048,-660,772,17078.23,32.25,-1.00,-1.0,2420
4714,614714,16992,-644,616,17015.35,32.15,-1.00,-1.0,2370
4719,614719,17092,-624,720,17118.54,32.20,-1.00,-1.0,2436
4721,614721,17024,-600,752,17051.16,32.11,-1.00,-1.0,2373
4724,614724,17012,-624,740,17039.52,32.15,-1.00,-1.0,2430
4727,614727,17016,-612,824,17046.93,32.29,-1.00,-1.0,2376
4730,614730,17068,-664,804,17099.82,32.25,-1.00,-1.0,2436
4732,614732,17112,-640,720,17139.09,32.20,-1.00,-1.0,2378
4735,614735,17112,-712,720,17141.93,32.15,-1.00,-1.0,2364
4738,614738,17092,-636,764,17120.88,32.15,-1.00,-1.0,2419
4741,614741,17172,-736,804,17206.56,32.25,-1.00,-1.0,2368
4746,614746,17044,-656,808,17075.75,32.15,-1.00,-1.0,2438
4749,614749,17072,-628,900,17107.24,32.15,-1.00,-1.0,2377
4752,614752,17088,-644,724,17115.45,32.15,-1.00,-1.0,2420
4754,614754,17024,-532,744,17048.55,32.15,-1.00,-1.0,2372
4757,614757,16960,-592,776,16988.06,32.15,-1.00,-1.0,2420
4760,614760,17052,-656,832,17084.88,32.15,-1.00,-1.0,2370
4763,614763,17052,-664,764,17082.02,32.25,-1.00,-1.0,2420
4765,614765,17100,-692,640,17125.96,32.25,-1.00,-1.0,2371
4768,614768,17128,-588,676,17151.42,32.15,-1.00,-1.0,2366
4773,614773,17040,-676,744,17069.62,32.25,-1.00,-1.0,2436
4776,614776,17072,-652,808,17103.54,32.20,-1.00,-1.0,2416
4779,614779,17144,-656,768,17173.73,32.25,-1.00,-1.0,2443
4781,614781,17012,-532,712,17035.20,32.25,-1.00,-1.0,2381
4784,614784,17068,-624,812,17098.69,32.06,-1.00,-1.0,2416
4787,614787,17064,-592,804,17093.19,32.15,-1.00,-1.0,2376
4790,614790,17064,-544,796,17091.21,32.06,-1.00,-1.0,2415
4792,614792,17068,-524,840,17096.69,32.15,-1.00,-1.0,2380
4795,614795,16952,-536,836,16981.06,32.20,-1.00,-1.0,2365
4800,614800,17084,-564,696,17107.47,32.15,-1.00,-1.0,2421
4803,614803,16972,-632,824,17003.74,32.15,-1.00,-1.0,2372
4806,614806,17132,-568,860,17162.97,32.20,-1.00,-1.0,2427
4808,614808,17044,-564,688,17067.20,32.20,-1.00,-1.0,2369
4811,614811,17124,-556,664,17145.89,32.20,-1.00,-1.0,2420
4814,614814,17056,-692,864,17091.88,32.11,-1.00,-1.0,2368
4817,614817,17052,-604,852,17083.95,32.11,-1.00,-1.0,2427
4819,614819,17036,-580,764,17062.98,32.20,-1.00,-1.0,2369
4824,614824,17088,-608,744,17114.99,32.20,-1.00,-1.0,2421
4827,614827,16960,-644,764,16989.41,32.15,-1.00,-1.0,2375
4830,614830,17128,-564,788,17155.39,32.20,-1.00,-1.0,2366
4832,614832,17088,-712,708,17117.47,32.15,-1.00,-1.0,2428
4835,614835,17024,-676,812,17056.76,32.11,-1.00,-1.0,2369
4838,614838,17040,-592,764,17067.39,32.25,-1.00,-1.0,2435
4841,614841,17052,-760,648,17081.22,32.15,-1.00,-1.0,2369
4843,614843,17088,-548,740,17112.79,32.25,-1.00,-1.0,2434
4846,614846,17036,-544,732,17060.39,32.15,-1.00,-1.0,2369
4851,614851,17052,-544,800,17079.42,32.20,-1.00,-1.0,2422
4854,614854,17000,-616,764,17028.30,32.11,-1.00,-1.0,2373
4857,614857,17000,-712,696,17029.13,32.15,-1.00,-1.0,2434
4859,614859,17060,-612,792,17089.34,32.20,-1.00,-1.0,2369
4862,614862,16996,-616,688,17021.07,32.15,-1.00,-1.0,2369
4865,614865,17040,-632,764,17068.82,32.20,-1.00,-1.0,2420
4867,614867,17032,-648,756,17061.08,32.15,-1.00,-1.0,2377
4870,614870,17072,-636,828,17103.90,32.20,-1.00,-1.0,2420
4873,614873,17184,-552,808,17211.84,32.25,-1.00,-1.0,2380
4878,614878,17000,-588,712,17025.06,32.06,-1.00,-1.0,2422
4881,614881,17132,-648,636,17156.04,32.15,-1.00,-1.0,2381
4884,614884,17072,-620,712,17098.09,32.15,-1.00,-1.0,2438
4886,614886,17032,-652,884,17067.38,32.15,-1.00,-1.0,2373
4889,614889,17012,-584,748,17038.45,32.20,-1.00,-1.0,2429
4892,614892,17016,-652,780,17046.34,32.25,-1.00,-1.0,2375
4895,614895,17124,-648,732,17151.88,32.20,-1.00,-1.0,2369
4897,614897,17088,-592,736,17114.08,32.25,-1.00,-1.0,2420
4900,614900,17056,-632,676,17081.09,32.20,-1.00,-1.0,2383
4905,614905,16976,-676,688,17003.38,32.11,-1.00,-1.0,2423
4908,614908,17012,-608,736,17038.77,32.11,-1.00,-1.0,2374
4911,614911,17000,-468,812,17025.81,32.29,-1.00,-1.0,2434
4913,614913,16896,-560,756,16922.17,32.20,-1.00,-1.0,2369
4916,614916,17060,-696,808,17093.30,32.06,-1.00,-1.0,2420
4919,614919,17096,-676,744,17125.53,32.20,-1.00,-1.0,2371
4922,614922,17064,-692,556,17087.07,32.15,-1.00,-1.0,2420
4924,614924,17088,-580,852,17119.05,32.20,-1.00,-1.0,2369
4927,614927,17040,-556,828,17069.16,32.29,-1.00,-1.0,2374
4932,614932,17028,-568,936,17063.16,32.15,-1.00,-1.0,2428
4935,614935,17060,-680,832,17093.81,32.25,-1.00,-1.0,2373
4937,614937,17080,-528,716,17103.15,32.20,-1.00,-1.0,2442
4940,614940,17012,-636,696,17038.11,32.25,-1.00,-1.0,2369
4943,614943,17120,-604,680,17144.14,32.25,-1.00,-1.0,2426
4946,614946,17044,-616,828,17075.21,32.15,-1.00,-1.0,2369
4948,614948,17008,-704,832,17042.88,32.11,-1.00,-1.0,2433
4951,614951,16996,-640,640,17020.08,32.11,-1.00,-1.0,2372
4956,614956,17148,-708,688,17176.39,32.20,-1.00,-1.0,2429
4959,614959,17076,-664,752,17105.44,32.25,-1.00,-1.0,2380
4962,614962,17112,-604,808,17141.71,32.34,-1.00,-1.0,2364
4964,614964,17076,-656,844,17109.43,32.15,-1.00,-1.0,2434
4967,614967,17108,-632,816,17139.11,32.25,-1.00,-1.0,2369
4970,614970,17064,-612,676,17088.35,32.25,-1.00,-1.0,2423
4973,614973,17020,-568,752,17046.07,32.25,-1.00,-1.0,2367
4975,614975,17172,-632,656,17196.14,32.15,-1.00,-1.0,2420
4978,614978,17112,-660,648,17136.98,32.25,-1.00,-1.0,2369
4983,614983,17124,-556,788,17151.13,32.20,-1.00,-1.0,2433
4986,614986,17032,-668,748,17061.50,32.29,-1.00,-1.0,2372
4989,614989,17140,-520,896,17171.28,32.20,-1.00,-1.0,2366
4992,614992,17064,-584,812,17093.29,32.15,-1.00,-1.0,2434
4994,614994,17116,-636,700,17142.11,32.25,-1.00,-1.0,2369
4997,614997,17000,-596,884,17033.40,32.15,-1.00,-1.0,2420
5000,615000,17116,-716,844,17151.75,32.15,-1.00,-1.0,2370
5003,615003,17060,-560,656,17081.79,32.25,-1.00,-1.0,2407
5005,615005,17000,-604,800,17029.53,32.25,-1.00,-1.0,2369
5010,615010,17048,-604,612,17069.67,32.25,-1.00,-1.0,2431
5013,615013,17160,-580,816,17189.18,32.20,-1.00,-1.0,2375
5016,615016,17064,-624,652,17087.85,32.15,-1.00,-1.0,2434
5018,615018,17036,-636,632,17059.58,32.25,-1.00,-1.0,2375
5021,615021,17140,-528,888,17171.11,32.25,-1.00,-1.0,2364
5024,615024,17060,-608,792,17089.19,32.20,-1.00,-1.0,2426
5027,615027,17024,-604,768,17052.02,32.15,-1.00,-1.0,2367
5029,615029,17028,-624,700,17053.80,32.20,-1.00,-1.0,2421
5032,615032,17096,-608,768,17124.04,32.25,-1.00,-1.0,2356
5037,615037,17108,-628,700,17133.83,32.15,-1.00,-1.0,2422
5040,615040,16992,-580,764,17019.05,32.29,-1.00,-1.0,2374
5043,615043,17092,-604,748,17119.02,32.25,-1.00,-1.0,2433
5045,615045,17064,-636,732,17091.53,32.25,-1.00,-1.0,2370
5048,615048,17052,-580,728,17077.38,32.15,-1.00,-1.0,2420
5051,615051,16980,-596,792,17008.91,32.25,-1.00,-1.0,2372
5054,615054,16952,-628,744,16979.94,32.11,-1.00,-1.0,2366
5056,615056,17204,-588,876,17236.32,32.20,-1.00,-1.0,2423
5059,615059,17000,-560,648,17021.56,32.20,-1.00,-1.0,2370
5064,615064,17080,-588,764,17107.19,32.15,-1.00,-1.0,2421
5067,615067,17060,-664,700,17087.26,32.34,-1.00,-1.0,2373
5070,615070,17048,-668,852,17082.34,32.25,-1.00,-1.0,2440
5073,615073,16980,-568,708,17004.24,32.25,-1.00,-1.0,2368
5075,615075,17024,-584,808,17053.17,32.20,-1.00,-1.0,2421
5078,615078,17188,-576,760,17214.43,32.15,-1.00,-1.0,2369
5081,615081,17012,-704,800,17045.34,32.15,-1.00,-1.0,2428
5084,615084,17068,-716,684,17096.70,32.15,-1.00,-1.0,2368
5086,615086,17112,-684,828,17145.67,32.20,-1.00,-1.0,2371
5091,615091,17068,-520,768,17093.18,32.20,-1.00,-1.0,2422
5094,615094,17108,-648,712,17135.07,32.15,-1.00,-1.0,2373
5097,615097,17024,-544,744,17048.93,32.20,-1.00,-1.0,2441
5100,615100,17004,-612,752,17031.62,32.20,-1.00,-1.0,2368
5102,615102,17028,-640,768,17057.32,32.20,-1.00,-1.0,2420
5105,615105,17020,-680,744,17049.82,32.11,-1.00,-1.0,2370
5108,615108,16948,-564,900,16981.25,32.11,-1.00,-1.0,2428
5111,615111,17080,-628,764,17108.61,32.20,-1.00,-1.0,2368
5117,615117,16972,-680,880,17008.40,32.20,-1.00,-1.0,2419
5120,615120,17052,-612,720,17078.16,32.25,-1.00,-1.0,2379
5123,615123,17140,-592,756,17166.88,32.20,-1.00,-1.0,2365
5126,615126,17096,-584,852,17127.18,32.29,-1.00,-1.0,2459
5128,615128,16984,-620,684,17009.07,32.20,-1.00,-1.0,2370
5131,615131,17016,-644,824,17048.11,32.20,-1.00,-1.0,2422
5134,615134,17056,-688,760,17086.78,32.15,-1.00,-1.0,2369
5137,615137,17088,-612,700,17113.28,32.20,-1.00,-1.0,2425
5139,615139,17040,-628,668,17064.65,32.20,-1.00,-1.0,2370
5144,615144,17112,-596,656,17134.94,32.11,-1.00,-1.0,2427
5147,615147,16968,-680,740,16997.74,32.25,-1.00,-1.0,2368
5150,615150,17048,-568,772,17074.92,32.20,-1.00,-1.0,2436
5152,615152,17012,-596,760,17039.39,32.20,-1.00,-1.0,2370
5155,615155,17036,-572,768,17062.89,32.20,-1.00,-1.0,2374
5158,615158,17040,-656,752,17069.20,32.15,-1.00,-1.0,2424
5160,615160,17000,-624,712,17026.34,32.15,-1.00,-1.0,2376
5163,615163,17000,-724,852,17036.73,32.15,-1.00,-1.0,2437
5166,615166,17080,-664,824,17112.75,32.15,-1.00,-1.0,2377
5171,615171,17032,-616,792,17061.53,32.20,-1.00,-1.0,2435
5174,615174,17100,-564,788,17127.44,32.20,-1.00,-1.0,2369
5176,615176,17056,-592,688,17080.13,32.15,-1.00,-1.0,2435
5179,615179,17084,-632,808,17114.77,32.20,-1.00,-1.0,2371
5182,615182,17020,-656,812,17051.98,32.25,-1.00,-1.0,2367
5185,615185,16992,-640,816,17023.62,32.11,-1.00,-1.0,2424
5187,615187,17048,-596,792,17076.79,32.06,-1.00,-1.0,2385
5190,615190,16992,-648,796,17022.97,32.11,-1.00,-1.0,2422
5193,615193,17068,-704,816,17101.99,32.15,-1.00,-1.0,2373
5198,615198,17044,-588,804,17073.08,32.25,-1.00,-1.0,2427
5200,615200,17104,-640,728,17131.45,32.15,-1.00,-1.0,2371
5203,615203,17092,-724,788,17125.47,32.15,-1.00,-1.0,2449
5206,615206,16940,-632,876,16974.40,32.15,-1.00,-1.0,2376
5209,615209,17148,-648,884,17182.99,32.25,-1.00,-1.0,2437
5211,615211,17200,-540,892,17231.58,32.15,-1.00,-1.0,2379
5214,615214,17100,-688,804,17132.71,32.11,-1.00,-1.0,2366
5217,615217,17100,-552,812,17128.17,32.25,-1.00,-1.0,2426
5220,615220,17068,-540,664,17089.45,32.20,-1.00,-1.0,2368
5225,615225,17036,-612,780,17064.82,32.20,-1.00,-1.0,2434
5227,615227,17060,-660,832,17093.02,32.20,-1.00,-1.0,2377
5230,615230,17076,-568,784,17103.42,32.20,-1.00,-1.0,2436
5233,615233,17140,-676,828,17173.30,32.25,-1.00,-1.0,2369
5236,615236,17044,-544,824,17072.58,32.20,-1.00,-1.0,2421
5238,615238,17068,-616,676,17092.49,32.20,-1.00,-1.0,2371
5241,615241,17012,-696,736,17042.13,32.11,-1.00,-1.0,2421
5244,615244,17004,-668,696,17031.34,32.20,-1.00,-1.0,2369
5246,615246,17084,-772,780,17119.21,32.15,-1.00,-1.0,2367
5251,615251,16996,-668,812,17028.49,32.15,-1.00,-1.0,2426
5254,615254,17128,-652,704,17154.86,32.20,-1.00,-1.0,2369
5257,615257,17060,-632,752,17088.26,32.25,-1.00,-1.0,2442
5260,615260,17080,-640,872,17114.22,32.11,-1.00,-1.0,2369
5262,615262,17008,-624,780,17037.31,32.15,-1.00,-1.0,2421
5265,615265,16964,-648,748,16992.84,32.11,-1.00,-1.0,2370
5268,615268,17008,-644,636,17032.07,32.25,-1.00,-1.0,2427
5271,615271,17076,-656,824,17108.45,32.20,-1.00,-1.0,2368
5276,615276,17076,-628,728,17103.04,32.20,-1.00,-1.0,2430
5278,615278,17008,-572,756,17034.40,32.20,-1.00,-1.0,2377
5281,615281,17040,-712,832,17075.15,32.15,-1.00,-1.0,2366
5284,615284,17024,-532,732,17048.03,32.25,-1.00,-1.0,2435
5286,615286,17000,-712,752,17031.51,32.15,-1.00,-1.0,2369
5289,615289,17096,-716,648,17123.25,32.20,-1.00,-1.0,2421
5292,615292,17080,-716,616,17106.10,32.15,-1.00,-1.0,2378
5295,615295,17028,-580,772,17055.36,32.25,-1.00,-1.0,2421
5297,615297,16968,-544,660,16989.54,32.15,-1.00,-1.0,2370
5302,615302,17056,-668,804,17088.00,32.15,-1.00,-1.0,2426
5305,615305,17052,-600,588,17072.68,32.15,-1.00,-1.0,2368
5308,615308,17084,-668,788,17115.21,32.15,-1.00,-1.0,2443
5311,615311,17064,-648,712,17091.14,32.15,-1.00,-1.0,2369
5313,615313,17068,-568,720,17092.62,32.20,-1.00,-1.0,2372
5316,615316,16916,-584,616,16937.28,32.20,-1.00,-1.0,2409
5319,615319,17096,-588,680,17119.62,32.25,-1.00,-1.0,2369
5321,615321,17032,-700,712,17061.24,32.20,-1.00,-1.0,2430
5324,615324,17020,-656,756,17049.41,32.20,-1.00,-1.0,2378
5329,615329,17060,-496,912,17091.56,32.29,-1.00,-1.0,2414
5332,615332,17076,-552,816,17104.39,32.25,-1.00,-1.0,2369
5334,615334,17036,-588,848,17067.22,32.25,-1.00,-1.0,2444
5337,615337,16964,-556,908,16997.38,32.20,-1.00,-1.0,2378
5340,615340,17148,-708,820,17182.19,32.15,-1.00,-1.0,2421
5343,615343,17024,-632,780,17053.57,32.20,-1.00,-1.0,2373
5345,615345,17092,-652,676,17117.79,32.15,-1.00,-1.0,2354
5348,615348,17032,-656,616,17055.76,32.06,-1.00,-1.0,2421
5351,615351,17164,-696,816,17197.48,32.15,-1.00,-1.0,2369
5355,615355,17080,-672,744,17109.40,32.29,-1.00,-1.0,2437
5358,615358,17028,-576,796,17056.32,32.11,-1.00,-1.0,2380
5361,615361,17000,-660,880,17035.55,32.15,-1.00,-1.0,2436
5364,615364,17128,-748,860,17165.88,32.20,-1.00,-1.0,2375
5367,615367,17056,-640,760,17084.92,32.15,-1.00,-1.0,2415
5369,615369,17012,-664,848,17046.06,32.20,-1.00,-1.0,2377
5372,615372,17000,-568,668,17022.60,32.15,-1.00,-1.0,2366
5375,615375,17032,-612,736,17058.88,32.15,-1.00,-1.0,2433
5378,615378,17080,-508,728,17103.05,32.20,-1.00,-1.0,2374
5383,615383,17136,-680,800,17168.14,32.11,-1.00,-1.0,2427
5385,615385,17104,-700,632,17129.98,32.20,-1.00,-1.0,2369
5388,615388,17068,-656,676,17093.97,32.20,-1.00,-1.0,2436
5391,615391,17084,-620,760,17112.13,32.20,-1.00,-1.0,2377
5394,615394,17084,-632,772,17113.11,32.29,-1.00,-1.0,2425
5396,615396,16940,-768,748,16973.89,32.11,-1.00,-1.0,2373
5399,615399,17112,-668,672,17138.21,32.15,-1.00,-1.0,2436
5402,615402,17008,-648,800,17039.13,32.20,-1.00,-1.0,2378
5405,615405,17072,-604,904,17106.58,32.20,-1.00,-1.0,2368
5410,615410,17092,-536,656,17112.98,32.29,-1.00,-1.0,2428
5412,615412,17084,-676,796,17115.89,32.20,-1.00,-1.0,2370
5415,615415,17092,-560,800,17119.87,32.15,-1.00,-1.0,2450
5418,615418,17064,-648,832,17096.56,32.20,-1.00,-1.0,2377
5421,615421,17020,-692,784,17052.09,32.15,-1.00,-1.0,2434
5423,615423,17104,-620,836,17135.64,32.15,-1.00,-1.0,2379
5426,615426,16976,-572,752,17002.27,32.15,-1.00,-1.0,2429
5429,615429,17064,-632,644,17087.84,32.25,-1.00,-1.0,2374
5434,615434,17040,-636,804,17070.81,32.20,-1.00,-1.0,2427
5437,615437,17032,-640,788,17062.23,32.11,-1.00,-1.0,2369
5439,615439,17060,-640,684,17085.70,32.25,-1.00,-1.0,2369
5442,615442,17088,-656,772,17118.00,32.15,-1.00,-1.0,2444
5445,615445,17020,-676,644,17045.59,32.15,-1.00,-1.0,2358
5448,615448,17096,-628,836,17127.95,32.06,-1.00,-1.0,2435
5450,615450,17032,-632,720,17058.92,32.25,-1.00,-1.0,2377
5453,615453,17016,-556,820,17044.82,32.25,-1.00,-1.0,2420
5456,615456,17032,-704,604,17057.24,32.25,-1.00,-1.0,2373
5461,615461,17116,-596,884,17149.17,32.15,-1.00,-1.0,2433
5464,615464,17008,-696,748,17038.66,32.20,-1.00,-1.0,2369
5466,615466,17060,-700,752,17090.91,32.15,-1.00,-1.0,2449
5469,615469,17020,-664,780,17050.80,32.15,-1.00,-1.0,2377
5472,615472,17128,-636,748,17156.12,32.20,-1.00,-1.0,2371
5475,615475,17024,-592,844,17055.19,32.20,-1.00,-1.0,2421
5477,615477,16996,-652,812,17027.87,32.20,-1.00,-1.0,2370
5480,615480,17032,-652,700,17058.84,32.20,-1.00,-1.0,2422
5483,615483,17068,-580,888,17100.92,32.20,-1.00,-1.0,2369
5488,615488,17124,-660,824,17156.51,32.25,-1.00,-1.0,2433
5490,615490,17020,-628,752,17048.18,32.15,-1.00,-1.0,2379
5493,615493,17104,-620,780,17133.00,32.20,-1.00,-1.0,2435
5496,615496,16944,-592,728,16969.96,32.15,-1.00,-1.0,2374
5499,615499,17144,-620,800,17173.85,32.20,-1.00,-1.0,2422
5501,615501,16976,-572,776,17003.35,32.15,-1.00,-1.0,2376
5504,615504,17080,-708,824,17114.52,32.20,-1.00,-1.0,2366
5507,615507,17088,-668,816,17120.51,32.25,-1.00,-1.0,2427
5510,615510,17096,-596,828,17126.41,32.20,-1.00,-1.0,2369
5515,615515,17092,-640,696,17118.13,32.20,-1.00,-1.0,2429
5517,615517,17044,-620,860,17076.94,32.15,-1.00,-1.0,2377
5520,615520,17068,-508,780,17093.36,32.20,-1.00,-1.0,2436
5523,615523,17064,-660,744,17092.96,32.20,-1.00,-1.0,2373
5526,615526,17064,-660,748,17093.13,32.11,-1.00,-1.0,2421
5529,615529,17036,-684,712,17064.59,32.15,-1.00,-1.0,2371
5531,615531,17128,-696,820,17161.74,32.20,-1.00,-1.0,2421
5534,615534,17120,-548,820,17148.38,32.20,-1.00,-1.0,2373
5537,615537,17012,-576,816,17041.30,32.29,-1.00,-1.0,2367
5542,615542,17068,-668,700,17095.40,32.34,-1.00,-1.0,2426
5544,615544,17200,-584,644,17221.96,32.20,-1.00,-1.0,2356
5547,615547,17108,-560,772,17134.56,32.15,-1.00,-1.0,2435
5550,615550,17072,-624,564,17092.71,32.25,-1.00,-1.0,2377
5553,615553,17140,-672,700,17167.45,32.15,-1.00,-1.0,2420
5555,615555,17116,-584,780,17143.71,32.25,-1.00,-1.0,2370
5558,615558,17108,-688,752,17138.33,32.25,-1.00,-1.0,2420
5561,615561,16948,-664,756,16977.84,32.25,-1.00,-1.0,2377
5564,615564,16972,-656,832,17005.04,32.15,-1.00,-1.0,2374
5569,615569,17076,-632,772,17105.12,32.20,-1.00,-1.0,2434
5571,615571,17080,-624,752,17107.93,32.20,-1.00,-1.0,2377
5574,615574,17028,-640,752,17056.61,32.20,-1.00,-1.0,2436
5577,615577,17080,-544,828,17108.71,32.11,-1.00,-1.0,2371
5580,615580,16964,-672,720,16992.57,32.20,-1.00,-1.0,2421
5582,615582,17064,-580,692,17087.87,32.20,-1.00,-1.0,2371
5585,615585,17120,-656,612,17143.49,32.11,-1.00,-1.0,2421
5588,615588,17076,-588,792,17104.47,32.25,-1.00,-1.0,2376
5593,615593,17120,-692,864,17155.75,32.15,-1.00,-1.0,2434
5596,615596,17012,-624,696,17037.66,32.20,-1.00,-1.0,2368
5598,615598,16980,-612,832,17011.38,32.25,-1.00,-1.0,2365
5601,615601,17020,-616,752,17047.74,32.20,-1.00,-1.0,2443
5604,615604,17060,-544,652,17081.12,32.29,-1.00,-1.0,2375
5606,615606,17032,-660,560,17053.98,32.20,-1.00,-1.0,2431
5609,615609,17060,-616,740,17087.15,32.20,-1.00,-1.0,2385
5612,615612,17036,-712,652,17063.33,32.20,-1.00,-1.0,2423
5615,615615,17044,-520,652,17064.39,32.20,-1.00,-1.0,2376
5620,615620,17032,-632,664,17056.65,32.25,-1.00,-1.0,2435
5623,615623,17116,-588,732,17141.73,32.25,-1.00,-1.0,2369
5625,615625,17108,-644,888,17143.13,32.25,-1.00,-1.0,2439
5628,615628,17012,-632,728,17039.29,32.25,-1.00,-1.0,2369
5631,615631,17168,-624,808,17198.33,32.20,-1.00,-1.0,2370
5634,615634,17064,-608,868,17096.88,32.20,-1.00,-1.0,2424
5636,615636,16956,-584,852,16987.43,32.20,-1.00,-1.0,2377
5639,615639,17040,-636,708,17066.56,32.15,-1.00,-1.0,2421
5642,615642,17096,-676,656,17121.93,32.11,-1.00,-1.0,2371
5647,615647,16992,-660,868,17026.95,32.20,-1.00,-1.0,2429
5650,615650,17036,-620,632,17058.99,32.15,-1.00,-1.0,2369
5652,615652,17020,-616,752,17047.74,32.25,-1.00,-1.0,2436
5655,615655,16928,-520,912,16960.52,32.15,-1.00,-1.0,2370
5658,615658,17072,-656,796,17103.13,32.29,-1.00,-1.0,2428
5661,615661,17040,-620,744,17067.50,32.25,-1.00,-1.0,2373
5663,615663,16992,-732,756,17024.55,32.11,-1.00,-1.0,2358
5666,615666,17144,-580,816,17173.21,32.15,-1.00,-1.0,2423
5669,615669,17036,-644,760,17065.10,32.20,-1.00,-1.0,2353
5674,615674,17084,-616,840,17115.73,32.20,-1.00,-1.0,2434
5677,615677,17024,-640,756,17052.79,32.25,-1.00,-1.0,2368
5679,615679,17124,-640,780,17153.70,32.20,-1.00,-1.0,2451
5682,615682,17160,-580,900,17193.37,32.11,-1.00,-1.0,2381
5685,615685,17012,-716,788,17045.29,32.29,-1.00,-1.0,2409
5688,615688,17092,-632,672,17116.88,32.11,-1.00,-1.0,2370
5690,615690,17092,-664,856,17126.30,32.20,-1.00,-1.0,2429
5693,615693,17044,-604,684,17068.41,32.20,-1.00,-1.0,2381
5696,615696,17140,-576,704,17164.12,32.25,-1.00,-1.0,2369
5701,615701,16952,-612,712,16977.98,32.20,-1.00,-1.0,2434
5704,615704,17128,-620,676,17152.54,32.20,-1.00,-1.0,2369
5706,615706,17044,-612,636,17066.84,32.15,-1.00,-1.0,2444
5709,615709,17068,-516,708,17090.47,32.11,-1.00,-1.0,2385
5712,615712,17028,-596,860,17060.12,32.25,-1.00,-1.0,2422
5715,615715,17104,-588,720,17129.24,32.29,-1.00,-1.0,2371
5718,615718,17008,-676,868,17043.55,32.15,-1.00,-1.0,2424
5720,615720,17140,-712,676,17168.10,32.15,-1.00,-1.0,2377
5725,615725,17168,-504,752,17191.85,32.15,-1.00,-1.0,2443
5728,615728,17008,-612,812,17038.37,32.20,-1.00,-1.0,2378
5730,615730,16932,-580,844,16962.94,32.15,-1.00,-1.0,2351
5733,615733,17112,-688,852,17147.01,32.25,-1.00,-1.0,2422
5736,615736,17140,-600,696,17164.62,32.15,-1.00,-1.0,2372
5739,615739,17044,-724,748,17075.76,32.15,-1.00,-1.0,2417
5742,615742,16952,-716,800,16985.96,32.25,-1.00,-1.0,2372
5744,615744,17028,-612,752,17055.58,32.25,-1.00,-1.0,2417
5747,615747,17164,-704,852,17199.55,32.15,-1.00,-1.0,2359
5752,615752,17040,-584,600,17060.56,32.29,-1.00,-1.0,2424
5755,615755,17084,-616,580,17104.94,32.06,-1.00,-1.0,2372
5757,615757,17140,-552,676,17162.21,32.20,-1.00,-1.0,2367
5760,615760,17036,-740,740,17068.11,32.15,-1.00,-1.0,2445
5763,615763,17036,-484,548,17051.68,32.20,-1.00,-1.0,2370
5765,615765,17028,-572,648,17049.92,32.25,-1.00,-1.0,2428
5768,615768,17056,-692,644,17082.18,32.25,-1.00,-1.0,2377
5771,615771,17124,-712,808,17157.83,32.20,-1.00,-1.0,2421
5774,615774,17092,-572,744,17117.74,32.20,-1.00,-1.0,2369
5779,615779,17088,-644,752,17116.66,32.15,-1.00,-1.0,2432
5781,615781,17048,-576,812,17077.04,32.15,-1.00,-1.0,2372
5784,615784,17036,-688,668,17062.97,32.25,-1.00,-1.0,2442
5787,615787,17016,-740,788,17050.30,32.25,-1.00,-1.0,2371
5790,615790,16956,-588,776,16983.93,32.20,-1.00,-1.0,2367
5792,615792,17124,-492,856,17152.44,32.20,-1.00,-1.0,2424
5795,615795,16988,-576,764,17014.92,32.20,-1.00,-1.0,2370
5798,615798,17096,-636,736,17123.65,32.11,-1.00,-1.0,2421
5801,615801,17072,-640,836,17104.43,32.20,-1.00,-1.0,2369
5806,615806,17096,-568,696,17119.59,32.29,-1.00,-1.0,2427
5809,615809,17096,-656,736,17124.40,32.25,-1.00,-1.0,2369
5812,615812,17132,-572,816,17160.96,32.20,-1.00,-1.0,2435
5814,615814,17020,-668,740,17049.17,32.25,-1.00,-1.0,2370
5817,615817,17080,-596,860,17112.02,32.20,-1.00,-1.0,2421
5820,615820,17116,-580,824,17145.64,32.20,-1.00,-1.0,2368
5822,615822,16952,-588,844,16983.18,32.15,-1.00,-1.0,2370
5825,615825,17044,-680,760,17074.48,32.15,-1.00,-1.0,2436
5828,615828,17088,-540,704,17111.02,32.20,-1.00,-1.0,2370
5833,615833,17008,-600,808,17037.75,32.20,-1.00,-1.0,2427
5836,615836,17008,-644,696,17034.41,32.20,-1.00,-1.0,2368
5839,615839,17020,-580,700,17044.26,32.15,-1.00,-1.0,2435
5841,615841,17032,-576,764,17058.85,32.20,-1.00,-1.0,2370
5844,615844,16984,-556,696,17007.35,32.15,-1.00,-1.0,2420
5847,615847,17100,-652,744,17128.59,32.20,-1.00,-1.0,2368
5850,615850,17008,-652,744,17036.75,32.25,-1.00,-1.0,2423
5852,615852,17056,-568,732,17081.15,32.20,-1.00,-1.0,2370
5855,615855,17072,-612,628,17094.51,32.25,-1.00,-1.0,2367
5860,615860,17084,-608,712,17109.64,32.20,-1.00,-1.0,2427
5863,615863,17136,-612,740,17162.88,32.11,-1.00,-1.0,2370
5866,615866,17024,-624,768,17052.73,32.29,-1.00,-1.0,2443
5869,615869,17112,-584,632,17133.62,32.20,-1.00,-1.0,2369
5871,615871,17108,-532,704,17130.74,32.15,-1.00,-1.0,2421
5874,615874,17112,-656,740,17140.55,32.20,-1.00,-1.0,2357
5877,615877,17088,-740,692,17118.01,32.20,-1.00,-1.0,2428
5880,615880,17024,-560,748,17049.62,32.20,-1.00,-1.0,2369
5885,615885,16960,-684,716,16988.88,32.25,-1.00,-1.0,2458
5887,615887,17064,-704,800,17097.24,32.25,-1.00,-1.0,2368
5890,615890,17072,-640,884,17106.85,32.20,-1.00,-1.0,2368
5893,615893,17112,-568,768,17138.64,32.11,-1.00,-1.0,2421
5895,615895,17100,-672,800,17131.89,32.20,-1.00,-1.0,2375
5898,615898,17100,-604,700,17124.98,32.20,-1.00,-1.0,2421
5901,615901,16988,-720,812,17022.63,32.20,-1.00,-1.0,2356
5904,615904,17088,-720,852,17124.37,32.29,-1.00,-1.0,2421
5906,615906,17084,-740,680,17113.54,32.20,-1.00,-1.0,2376
5911,615911,16992,-664,688,17018.88,32.20,-1.00,-1.0,2453
5914,615914,17052,-644,620,17075.42,32.25,-1.00,-1.0,2376
5917,615917,17012,-624,716,17038.49,32.20,-1.00,-1.0,2424
5920,615920,17016,-712,684,17044.62,32.20,-1.00,-1.0,2372
5922,615922,17124,-624,608,17146.15,32.20,-1.00,-1.0,2365
5925,615925,17008,-612,784,17037.05,32.06,-1.00,-1.0,2421
5928,615928,17096,-556,704,17119.52,32.20,-1.00,-1.0,2368
5931,615931,17120,-652,604,17143.05,32.15,-1.00,-1.0,2421
5933,615933,17028,-616,728,17054.68,32.20,-1.00,-1.0,2370
5938,615938,17112,-608,868,17144.79,32.20,-1.00,-1.0,2448
5941,615941,17128,-596,692,17152.33,32.11,-1.00,-1.0,2368
5944,615944,17144,-588,816,17173.48,32.25,-1.00,-1.0,2420
5946,615946,17032,-652,824,17064.38,32.20,-1.00,-1.0,2375
5949,615949,17056,-580,776,17083.49,32.25,-1.00,-1.0,2365
5952,615952,17032,-680,788,17063.77,32.15,-1.00,-1.0,2429
5955,615955,17072,-728,888,17110.57,32.15,-1.00,-1.0,2368
5957,615957,17148,-616,684,17172.69,32.20,-1.00,-1.0,2423
5960,615960,17004,-552,632,17024.69,32.29,-1.00,-1.0,2372
5967,615967,16996,-668,752,17025.74,32.25,-1.00,-1.0,2439
5970,615970,17104,-564,696,17127.44,32.20,-1.00,-1.0,2369
5973,615973,16984,-572,796,17012.26,32.25,-1.00,-1.0,2419
5975,615975,17108,-632,748,17136.00,32.25,-1.00,-1.0,2369
5978,615978,16996,-648,632,17020.09,32.15,-1.00,-1.0,2420
5981,615981,16964,-648,748,16992.84,32.15,-1.00,-1.0,2367
5983,615983,17092,-672,592,17115.45,32.15,-1.00,-1.0,2368
5986,615986,17056,-720,844,17092.04,32.15,-1.00,-1.0,2420
5989,615989,17044,-600,664,17067.48,32.15,-1.00,-1.0,2376
5994,615994,17112,-728,860,17149.06,32.25,-1.00,-1.0,2439
5996,615996,17040,-620,720,17066.47,32.15,-1.00,-1.0,2367
5999,615999,17020,-568,840,17050.18,32.25,-1.00,-1.0,2420
6002,616002,17060,-580,796,17088.41,32.15,-1.00,-1.0,2368
6005,616005,17036,-640,808,17067.15,32.15,-1.00,-1.0,2407
6007,616007,17036,-624,712,17062.29,32.15,-1.00,-1.0,2368
6010,616010,16960,-720,796,16993.93,32.25,-1.00,-1.0,2423
6013,616013,17040,-692,800,17072.80,32.15,-1.00,-1.0,2368
6015,616015,16980,-688,652,17006.44,32.20,-1.00,-1.0,2371
6020,616020,17004,-712,696,17033.12,32.20,-1.00,-1.0,2439
6023,616023,17132,-712,652,17159.18,32.20,-1.00,-1.0,2426
6026,616026,17104,-600,796,17133.02,32.15,-1.00,-1.0,2433
6029,616029,17108,-696,732,17137.79,32.15,-1.00,-1.0,2374
6032,616032,17020,-644,764,17049.31,32.20,-1.00,-1.0,2403
6034,616034,17068,-588,800,17096.85,32.15,-1.00,-1.0,2374
6037,616037,17044,-668,860,17078.75,32.25,-1.00,-1.0,2417
6040,616040,17000,-620,816,17030.86,32.15,-1.00,-1.0,2373
6045,616045,17060,-644,780,17089.96,32.15,-1.00,-1.0,2426
6047,616047,17008,-616,892,17042.51,32.15,-1.00,-1.0,2382
6050,616050,17112,-580,656,17134.39,32.25,-1.00,-1.0,2365
6053,616053,17000,-616,668,17024.27,32.20,-1.00,-1.0,2444
6056,616056,17008,-568,912,17041.90,32.20,-1.00,-1.0,2368
6058,616058,16988,-660,772,17018.34,32.20,-1.00,-1.0,2423
6061,616061,17100,-620,796,17129.74,32.15,-1.00,-1.0,2369
6064,616064,17120,-672,744,17149.33,32.20,-1.00,-1.0,2427
6067,616067,17072,-724,776,17104.96,32.11,-1.00,-1.0,2369
6072,616072,17036,-728,784,17069.56,32.15,-1.00,-1.0,2421
6074,616074,17036,-532,652,17056.77,32.15,-1.00,-1.0,2372
6077,616077,17084,-664,772,17114.32,32.15,-1.00,-1.0,2426
6080,616080,17052,-632,788,17081.89,32.15,-1.00,-1.0,2367
6082,616082,17152,-536,692,17174.32,32.11,-1.00,-1.0,2367
6085,616085,17112,-612,712,17137.74,32.15,-1.00,-1.0,2442
6088,616088,17064,-552,712,17087.77,32.20,-1.00,-1.0,2375
6091,616091,17024,-656,756,17053.40,32.15,-1.00,-1.0,2433
6093,616093,17048,-592,752,17074.84,32.15,-1.00,-1.0,2371
6098,616098,17084,-652,684,17110.12,32.20,-1.00,-1.0,2424
6101,616101,17076,-640,816,17107.46,32.20,-1.00,-1.0,2369
6104,616104,17096,-668,852,17130.25,32.15,-1.00,-1.0,2440
6107,616107,17072,-644,808,17103.24,32.11,-1.00,-1.0,2364
6109,616109,16936,-676,736,16965.46,32.25,-1.00,-1.0,2424
6112,616112,17080,-636,728,17107.33,32.20,-1.00,-1.0,2366
6115,616115,17044,-608,644,17067.00,32.06,-1.00,-1.0,2369
6118,616118,17100,-652,736,17128.25,32.25,-1.00,-1.0,2409
6120,616120,17040,-628,620,17062.84,32.15,-1.00,-1.0,2384
6125,616125,17000,-632,696,17025.97,32.06,-1.00,-1.0,2422
6128,616128,16908,-632,860,16941.65,32.20,-1.00,-1.0,2376
6131,616131,17052,-600,940,17088.43,32.06,-1.00,-1.0,2448
6133,616133,17060,-684,632,17085.40,32.15,-1.00,-1.0,2373
6136,616136,17064,-548,876,17095.26,32.34,-1.00,-1.0,2414
6139,616139,17084,-580,740,17109.85,32.15,-1.00,-1.0,2374
6142,616142,17080,-592,716,17105.25,32.20,-1.00,-1.0,2367
6144,616144,17116,-668,676,17142.37,32.20,-1.00,-1.0,2420
6147,616147,17140,-580,792,17168.09,32.15,-1.00,-1.0,2371
6152,616152,17028,-608,756,17055.62,32.25,-1.00,-1.0,2425
6155,616155,17040,-656,880,17075.31,32.15,-1.00,-1.0,2381
6158,616158,16984,-580,808,17013.10,32.11,-1.00,-1.0,2434
6160,616160,17068,-568,676,17090.82,32.20,-1.00,-1.0,2372
6163,616163,17048,-624,792,17077.79,32.20,-1.00,-1.0,2420
6166,616166,17044,-492,792,17069.48,32.20,-1.00,-1.0,2368
6169,616169,17120,-696,920,17158.82,32.11,-1.00,-1.0,2420
6171,616171,17068,-692,764,17099.10,32.20,-1.00,-1.0,2368
6174,616174,17056,-608,896,17090.34,32.25,-1.00,-1.0,2372
6179,616179,16916,-664,668,16942.20,32.15,-1.00,-1.0,2421
6181,616181,17100,-672,744,17129.37,32.15,-1.00,-1.0,2375
6184,616184,17072,-652,920,17109.20,32.29,-1.00,-1.0,2444
6187,616187,17104,-600,744,17130.68,32.15,-1.00,-1.0,2380
6190,616190,16992,-612,776,17020.72,32.20,-1.00,-1.0,2429
6192,616192,17040,-560,708,17063.89,32.06,-1.00,-1.0,2379
6195,616195,17148,-592,928,17183.29,32.11,-1.00,-1.0,2421
6198,616198,17000,-628,680,17025.18,32.15,-1.00,-1.0,2372
6203,616203,17016,-660,860,17050.50,32.15,-1.00,-1.0,2422
6205,616205,17180,-568,704,17203.80,32.20,-1.00,-1.0,2377
6208,616208,17144,-588,536,17162.45,32.34,-1.00,-1.0,2371
6211,616211,17068,-680,736,17097.39,32.11,-1.00,-1.0,2438
6213,616213,17068,-680,856,17102.97,32.20,-1.00,-1.0,2375
6216,616216,17000,-628,720,17026.83,32.20,-1.00,-1.0,2420
6219,616219,17004,-644,688,17030.09,32.20,-1.00,-1.0,2372
6222,616222,17044,-696,792,17076.58,32.20,-1.00,-1.0,2420
6224,616224,17060,-628,772,17089.00,32.20,-1.00,-1.0,2355
