timestamp_ms,global_ms,accel_x,accel_y,accel_z,accel_mag,temp_c,voltage,soc,loop_us
2,610002,16976,-672,752,17005.93,32.91,-1.00,-1.0,2476
9,610009,17060,-632,608,17082.53,32.81,-1.00,-1.0,2452
11,610011,17060,-636,640,17083.84,32.72,-1.00,-1.0,2369
14,610014,17120,-568,760,17146.27,32.77,-1.00,-1.0,2370
17,610017,17104,-708,720,17133.78,32.72,-1.00,-1.0,2426
19,610019,17068,-696,632,17093.87,32.77,-1.00,-1.0,2373
22,610022,17132,-644,700,17158.38,32.81,-1.00,-1.0,2422
25,610025,17080,-640,716,17106.98,32.77,-1.00,-1.0,2370
28,610028,17132,-632,808,17162.68,32.72,-1.00,-1.0,2425
30,610030,17056,-596,764,17083.50,32.86,-1.00,-1.0,2375
35,610035,17092,-656,772,17122.00,32.77,-1.00,-1.0,2457
38,610038,17020,-652,780,17050.33,32.72,-1.00,-1.0,2378
41,610041,17140,-672,792,17171.44,32.72,-1.00,-1.0,2366
43,610043,17176,-548,740,17200.67,32.72,-1.00,-1.0,2423
46,610046,16996,-672,744,17025.54,32.81,-1.00,-1.0,2371
49,610049,17084,-564,716,17108.30,32.81,-1.00,-1.0,2430
52,610052,17124,-664,792,17155.16,32.81,-1.00,-1.0,2370
54,610054,17076,-692,752,17106.55,32.72,-1.00,-1.0,2422
57,610057,16976,-704,696,17004.84,32.72,-1.00,-1.0,2360
60,610060,17000,-680,852,17034.91,32.77,-1.00,-1.0,2367
65,610065,17036,-712,848,17071.95,32.77,-1.00,-1.0,2441
67,610067,17080,-728,652,17107.94,32.72,-1.00,-1.0,2354
70,610070,17072,-540,644,17092.67,32.77,-1.00,-1.0,2423
73,610073,17108,-648,800,17138.95,32.62,-1.00,-1.0,2371
76,610076,16940,-640,748,16968.58,32.67,-1.00,-1.0,2424
78,610078,17040,-692,636,17065.90,32.81,-1.00,-1.0,2357
81,610081,16996,-700,688,17024.32,32.77,-1.00,-1.0,2422
84,610084,17048,-656,784,17078.62,32.72,-1.00,-1.0,2370
86,610086,16992,-736,744,17024.20,32.67,-1.00,-1.0,2373
91,610091,17116,-512,740,17139.64,32.77,-1.00,-1.0,2443
94,610094,17132,-672,744,17161.31,32.67,-1.00,-1.0,2367
97,610097,17052,-624,720,17078.60,32.67,-1.00,-1.0,2429
100,610100,17060,-580,688,17083.71,32.77,-1.00,-1.0,2373
102,610102,17036,-600,880,17069.26,32.72,-1.00,-1.0,2430
105,610105,17080,-680,800,17112.24,32.67,-1.00,-1.0,2371
108,610108,17120,-624,764,17148.40,32.81,-1.00,-1.0,2368
111,610111,17116,-612,756,17143.62,32.72,-1.00,-1.0,2421
113,610113,17052,-640,788,17082.19,32.72,-1.00,-1.0,2370
118,610118,17152,-688,808,17184.80,32.81,-1.00,-1.0,2450
121,610121,17108,-608,736,17134.62,32.81,-1.00,-1.0,2374
124,610124,17052,-620,788,17081.45,32.81,-1.00,-1.0,2424
126,610126,17080,-596,820,17110.06,32.81,-1.00,-1.0,2375
129,610129,17128,-568,808,17156.45,32.72,-1.00,-1.0,2422
132,610132,17076,-584,772,17103.42,32.72,-1.00,-1.0,2372
135,610135,17060,-636,656,17084.45,32.77,-1.00,-1.0,2355
137,610137,17208,-660,868,17242.51,32.86,-1.00,-1.0,2422
140,610140,17060,-656,780,17090.42,32.77,-1.00,-1.0,2370
145,610145,17128,-632,808,17158.69,32.86,-1.00,-1.0,2444
148,610148,17032,-664,692,17058.98,32.81,-1.00,-1.0,2367
151,610151,17020,-588,736,17046.05,32.67,-1.00,-1.0,2426
153,610153,17108,-612,632,17130.61,32.77,-1.00,-1.0,2370
156,610156,17132,-748,796,17166.79,32.77,-1.00,-1.0,2422
159,610159,17036,-628,816,17067.09,32.72,-1.00,-1.0,2370
162,610162,17024,-580,728,17049.43,32.86,-1.00,-1.0,2422
164,610164,17196,-536,832,17224.46,32.77,-1.00,-1.0,2357
167,610167,17072,-560,720,17096.35,32.77,-1.00,-1.0,2367
174,610174,17028,-672,912,17065.64,32.81,-1.00,-1.0,2442
177,610177,17060,-692,896,17097.52,32.81,-1.00,-1.0,2365
180,610180,17148,-536,920,17181.03,32.77,-1.00,-1.0,2422
182,610182,17112,-636,744,17139.97,32.81,-1.00,-1.0,2358
185,610185,17100,-592,844,17131.05,32.77,-1.00,-1.0,2422
188,610188,17032,-532,808,17059.45,32.72,-1.00,-1.0,2371
191,610191,17068,-600,808,17097.65,32.86,-1.00,-1.0,2425
193,610193,17048,-620,752,17075.84,32.81,-1.00,-1.0,2372
196,610196,17000,-672,580,17023.16,32.67,-1.00,-1.0,2374
201,610201,17104,-584,852,17135.16,32.77,-1.00,-1.0,2448
204,610204,17056,-608,660,17079.59,32.77,-1.00,-1.0,2366
206,610206,17048,-700,796,17080.92,32.77,-1.00,-1.0,2422
209,610209,17064,-680,896,17101.03,32.77,-1.00,-1.0,2370
212,610212,17124,-644,772,17153.49,32.77,-1.00,-1.0,2429
215,610215,17100,-624,772,17128.79,32.77,-1.00,-1.0,2369
217,610217,17096,-672,792,17127.52,32.77,-1.00,-1.0,2424
220,610220,17088,-748,768,17121.60,32.77,-1.00,-1.0,2372
223,610223,16960,-668,864,16995.13,32.72,-1.00,-1.0,2374
228,610228,17060,-648,620,17083.56,32.62,-1.00,-1.0,2444
230,610230,17056,-708,840,17091.34,32.72,-1.00,-1.0,2373
233,610233,17024,-576,720,17048.95,32.77,-1.00,-1.0,2433
236,610236,17040,-656,628,17064.18,32.72,-1.00,-1.0,2378
239,610239,17196,-608,760,17223.52,32.81,-1.00,-1.0,2429
241,610241,17076,-616,736,17102.95,32.72,-1.00,-1.0,2379
244,610244,17044,-660,832,17077.05,32.67,-1.00,-1.0,2422
247,610247,17000,-624,720,17026.68,32.81,-1.00,-1.0,2358
250,610250,16996,-604,780,17024.61,32.77,-1.00,-1.0,2368
254,610254,16980,-620,680,17004.92,32.77,-1.00,-1.0,2450
257,610257,17056,-696,828,17090.26,32.81,-1.00,-1.0,2374
260,610260,17096,-740,608,17122.81,32.77,-1.00,-1.0,2429
262,610262,17056,-700,880,17093.03,32.67,-1.00,-1.0,2378
265,610265,17024,-608,824,17054.77,32.67,-1.00,-1.0,2422
268,610268,17036,-664,752,17065.51,32.77,-1.00,-1.0,2373
271,610271,16932,-588,708,16956.99,32.77,-1.00,-1.0,2423
273,610273,17036,-648,728,17063.86,32.77,-1.00,-1.0,2374
276,610276,17088,-644,716,17115.11,32.81,-1.00,-1.0,2367
281,610281,17056,-696,700,17084.54,32.77,-1.00,-1.0,2441
284,610284,17068,-592,764,17095.34,32.77,-1.00,-1.0,2367
287,610287,17044,-640,592,17066.28,32.91,-1.00,-1.0,2423
289,610289,17136,-644,704,17162.54,32.86,-1.00,-1.0,2370
292,610292,16976,-628,744,17003.90,32.72,-1.00,-1.0,2421
295,610295,16992,-632,668,17016.87,32.86,-1.00,-1.0,2374
298,610298,17152,-604,804,17181.45,32.91,-1.00,-1.0,2422
300,610300,17024,-688,892,17061.23,32.77,-1.00,-1.0,2370
303,610303,16976,-648,812,17007.76,32.81,-1.00,-1.0,2379
308,610308,17180,-668,708,17207.55,32.62,-1.00,-1.0,2449
311,610311,16980,-712,812,17014.31,32.72,-1.00,-1.0,2367
313,610313,17060,-596,844,17091.26,32.81,-1.00,-1.0,2427
316,610316,17028,-556,652,17049.55,32.72,-1.00,-1.0,2370
319,610319,17124,-556,676,17146.36,32.81,-1.00,-1.0,2428
322,610322,17108,-668,764,17138.07,32.72,-1.00,-1.0,2357
324,610324,17044,-656,772,17074.08,32.81,-1.00,-1.0,2423
327,610327,17048,-568,740,17073.50,32.72,-1.00,-1.0,2371
330,610330,17112,-564,844,17142.08,32.72,-1.00,-1.0,2371
335,610335,17024,-676,748,17053.83,32.72,-1.00,-1.0,2441
337,610337,17024,-652,632,17048.20,32.72,-1.00,-1.0,2367
340,610340,17088,-728,612,17114.45,32.77,-1.00,-1.0,2438
343,610343,17148,-548,700,17171.03,32.67,-1.00,-1.0,2377
346,610346,17096,-644,780,17125.90,32.77,-1.00,-1.0,2429
348,610348,17052,-620,760,17080.18,32.77,-1.00,-1.0,2380
351,610351,17048,-564,664,17070.25,32.77,-1.00,-1.0,2431
354,610354,17004,-612,656,17027.65,32.67,-1.00,-1.0,2378
357,610357,17040,-616,768,17068.42,32.72,-1.00,-1.0,2368
362,610362,17080,-640,848,17113.01,32.72,-1.00,-1.0,2444
364,610364,17080,-580,816,17109.31,32.77,-1.00,-1.0,2369
367,610367,17080,-580,708,17104.50,32.81,-1.00,-1.0,2422
370,610370,17020,-632,580,17041.60,32.67,-1.00,-1.0,2371
373,610373,17036,-584,768,17063.30,32.81,-1.00,-1.0,2422
375,610375,17016,-568,560,17034.69,32.72,-1.00,-1.0,2376
378,610378,17020,-636,608,17042.73,32.72,-1.00,-1.0,2422
381,610381,17052,-636,664,17076.77,32.72,-1.00,-1.0,2371
383,610383,16992,-744,744,17024.54,32.72,-1.00,-1.0,2371
388,610388,17156,-608,648,17179.00,32.72,-1.00,-1.0,2443
391,610391,17084,-620,708,17109.90,32.81,-1.00,-1.0,2369
394,610394,17052,-604,684,17076.40,32.67,-1.00,-1.0,2430
397,610397,17000,-608,740,17026.96,32.81,-1.00,-1.0,2373
399,610399,17024,-644,736,17052.07,32.67,-1.00,-1.0,2422
402,610402,17108,-664,796,17139.38,32.81,-1.00,-1.0,2371
405,610405,17088,-576,860,17119.32,32.81,-1.00,-1.0,2463
408,610408,17100,-552,736,17124.73,32.81,-1.00,-1.0,2368
410,610410,17080,-604,776,17108.29,32.67,-1.00,-1.0,2368
415,610415,17032,-656,740,17060.69,32.77,-1.00,-1.0,2439
418,610418,17060,-620,772,17088.71,32.91,-1.00,-1.0,2366
421,610421,16996,-732,608,17022.62,32.77,-1.00,-1.0,2429
424,610424,17144,-624,624,17166.70,32.72,-1.00,-1.0,2369
426,610426,17136,-676,652,17161.72,32.77,-1.00,-1.0,2424
429,610429,17096,-604,812,17125.93,32.77,-1.00,-1.0,2372
432,610432,17048,-620,736,17075.14,32.77,-1.00,-1.0,2429
435,610435,17012,-624,616,17034.58,32.72,-1.00,-1.0,2368
437,610437,17040,-696,760,17071.13,32.77,-1.00,-1.0,2368
442,610442,17164,-664,696,17190.93,32.72,-1.00,-1.0,2437
445,610445,17068,-688,824,17101.72,32.67,-1.00,-1.0,2373
448,610448,17148,-588,720,17173.18,32.81,-1.00,-1.0,2429
450,610450,17052,-612,692,17077.01,32.72,-1.00,-1.0,2377
453,610453,17056,-668,664,17081.99,32.72,-1.00,-1.0,2421
456,610456,17032,-604,684,17056.43,32.81,-1.00,-1.0,2372
459,610459,17072,-604,728,17098.19,32.81,-1.00,-1.0,2423
461,610461,17104,-732,648,17131.92,32.72,-1.00,-1.0,2373
464,610464,17020,-564,644,17041.52,32.67,-1.00,-1.0,2369
469,610469,17020,-708,792,17053.12,32.67,-1.00,-1.0,2439
472,610472,17112,-608,792,17141.11,32.67,-1.00,-1.0,2367
475,610475,17084,-624,764,17112.46,32.77,-1.00,-1.0,2422
477,610477,17048,-636,740,17075.90,32.77,-1.00,-1.0,2356
480,610480,17088,-568,748,17113.79,32.77,-1.00,-1.0,2420
483,610483,17176,-616,628,17198.51,32.77,-1.00,-1.0,2370
486,610486,17068,-648,740,17096.32,32.77,-1.00,-1.0,2420
488,610488,17108,-644,668,17133.14,32.72,-1.00,-1.0,2380
491,610491,17068,-568,700,17091.79,32.81,-1.00,-1.0,2376
496,610496,17180,-676,680,17206.74,32.62,-1.00,-1.0,2448
499,610499,17032,-792,764,17067.51,32.72,-1.00,-1.0,2379
502,610502,17128,-624,808,17158.40,32.72,-1.00,-1.0,2423
505,610505,17116,-576,760,17142.54,32.81,-1.00,-1.0,2378
508,610508,17088,-656,832,17120.81,32.81,-1.00,-1.0,2407
510,610510,17132,-692,780,17163.70,32.72,-1.00,-1.0,2384
513,610513,17000,-556,628,17020.68,32.72,-1.00,-1.0,2420
516,610516,17072,-664,904,17108.81,32.72,-1.00,-1.0,2374
518,610518,17100,-668,744,17129.21,32.72,-1.00,-1.0,2375
523,610523,17060,-624,692,17085.43,32.72,-1.00,-1.0,2445
526,610526,17052,-656,824,17084.50,32.72,-1.00,-1.0,2374
529,610529,17072,-668,820,17104.73,32.77,-1.00,-1.0,2421
532,610532,17084,-724,716,17114.32,32.72,-1.00,-1.0,2373
535,610535,17168,-672,868,17203.06,32.81,-1.00,-1.0,2422
537,610537,17048,-624,708,17074.10,32.72,-1.00,-1.0,2372
540,610540,17024,-608,808,17054.01,32.77,-1.00,-1.0,2420
543,610543,16976,-656,740,17004.78,32.91,-1.00,-1.0,2369
548,610548,17064,-656,788,17094.78,32.72,-1.00,-1.0,2446
550,610550,17036,-616,752,17063.71,32.81,-1.00,-1.0,2376
553,610553,17024,-668,756,17053.87,32.67,-1.00,-1.0,2366
556,610556,17084,-628,596,17105.92,32.77,-1.00,-1.0,2427
559,610559,17080,-496,876,17109.64,32.86,-1.00,-1.0,2368
561,610561,17064,-576,796,17092.26,32.72,-1.00,-1.0,2422
564,610564,17088,-604,832,17118.90,32.67,-1.00,-1.0,2370
567,610567,17124,-728,820,17159.07,32.81,-1.00,-1.0,2427
570,610570,17012,-656,716,17039.69,32.77,-1.00,-1.0,2368
575,610575,17112,-544,864,17142.43,32.86,-1.00,-1.0,2439
577,610577,17040,-668,724,17068.45,32.77,-1.00,-1.0,2365
580,610580,17048,-640,724,17075.37,32.72,-1.00,-1.0,2368
583,610583,16960,-572,692,16983.75,32.81,-1.00,-1.0,2424
585,610585,17080,-644,792,17110.48,32.72,-1.00,-1.0,2369
588,610588,17068,-648,580,17090.14,32.81,-1.00,-1.0,2435
591,610591,17044,-624,788,17073.61,32.81,-1.00,-1.0,2380
594,610594,17156,-624,828,17187.30,32.77,-1.00,-1.0,2430
597,610597,17000,-644,824,17032.14,32.77,-1.00,-1.0,2369
602,610602,17084,-596,748,17110.75,32.86,-1.00,-1.0,2439
604,610604,16992,-624,744,17019.72,32.77,-1.00,-1.0,2365
607,610607,17060,-644,904,17096.07,32.81,-1.00,-1.0,2373
610,610610,17024,-624,652,17047.90,32.77,-1.00,-1.0,2429
612,610612,17024,-644,736,17052.07,32.81,-1.00,-1.0,2371
615,610615,17052,-708,916,17091.26,32.67,-1.00,-1.0,2434
618,610618,17068,-572,608,17088.40,32.62,-1.00,-1.0,2377
621,610621,17016,-692,736,17045.96,32.77,-1.00,-1.0,2428
624,610624,17016,-656,676,17042.05,32.72,-1.00,-1.0,2369
629,610629,17236,-696,856,17271.27,32.81,-1.00,-1.0,2439
631,610631,17120,-728,724,17150.76,32.67,-1.00,-1.0,2366
634,610634,17016,-632,680,17041.30,32.72,-1.00,-1.0,2373
637,610637,17056,-580,792,17084.23,32.67,-1.00,-1.0,2432
639,610639,17072,-672,880,17107.87,32.72,-1.00,-1.0,2381
642,610642,17156,-580,792,17184.06,32.77,-1.00,-1.0,2426
645,610645,17060,-640,760,17088.91,32.77,-1.00,-1.0,2372
648,610648,17140,-660,784,17170.61,32.77,-1.00,-1.0,2427
651,610651,17000,-680,756,17030.38,32.72,-1.00,-1.0,2368
656,610656,17112,-684,772,17143.06,32.72,-1.00,-1.0,2440
658,610658,17136,-584,868,17167.91,32.81,-1.00,-1.0,2362
661,610661,17012,-632,756,17040.51,32.67,-1.00,-1.0,2369
664,610664,17048,-580,732,17073.56,32.77,-1.00,-1.0,2421
666,610666,17100,-600,640,17122.49,32.77,-1.00,-1.0,2373
669,610669,16992,-636,792,17022.33,32.67,-1.00,-1.0,2420
672,610672,16988,-564,660,17010.17,32.77,-1.00,-1.0,2369
675,610675,17052,-680,972,17093.21,32.72,-1.00,-1.0,2422
678,610678,17148,-648,764,17177.24,32.62,-1.00,-1.0,2366
682,610682,17112,-604,720,17137.79,32.81,-1.00,-1.0,2425
685,610685,17144,-660,772,17174.06,32.77,-1.00,-1.0,2369
688,610688,17144,-696,724,17173.39,32.81,-1.00,-1.0,2366
690,610690,17132,-612,912,17167.17,32.77,-1.00,-1.0,2434
693,610693,17128,-680,704,17155.94,32.81,-1.00,-1.0,2369
696,610696,16996,-604,644,17018.92,32.77,-1.00,-1.0,2429
699,610699,17044,-692,820,17077.74,32.77,-1.00,-1.0,2370
702,610702,17048,-728,744,17079.75,32.77,-1.00,-1.0,2429
705,610705,17008,-616,596,17029.58,32.77,-1.00,-1.0,2374
710,610710,17108,-644,780,17137.88,32.77,-1.00,-1.0,2440
712,610712,17016,-696,720,17045.44,32.72,-1.00,-1.0,2368
715,610715,17068,-664,640,17092.90,32.67,-1.00,-1.0,2366
718,610718,17116,-628,744,17143.67,32.62,-1.00,-1.0,2422
720,610720,17012,-568,832,17041.80,32.86,-1.00,-1.0,2373
723,610723,17104,-640,764,17133.01,32.72,-1.00,-1.0,2420
726,610726,17024,-652,692,17050.53,32.77,-1.00,-1.0,2371
729,610729,17112,-624,676,17136.71,32.72,-1.00,-1.0,2425
732,610732,17048,-704,612,17073.50,32.77,-1.00,-1.0,2373
737,610737,17080,-640,808,17111.07,32.77,-1.00,-1.0,2438
739,610739,17080,-704,800,17113.21,32.81,-1.00,-1.0,2369
742,610742,17040,-600,704,17065.09,32.72,-1.00,-1.0,2368
745,610745,17116,-688,820,17149.44,32.72,-1.00,-1.0,2423
747,610747,17072,-688,796,17104.39,32.72,-1.00,-1.0,2369
750,610750,16992,-568,740,17017.59,32.72,-1.00,-1.0,2420
753,610753,17104,-556,700,17127.35,32.72,-1.00,-1.0,2373
756,610756,17100,-640,688,17125.80,32.72,-1.00,-1.0,2421
759,610759,17064,-508,780,17089.37,32.81,-1.00,-1.0,2371
764,610764,17080,-664,732,17108.57,32.77,-1.00,-1.0,2447
766,610766,17084,-624,756,17112.10,32.77,-1.00,-1.0,2368
769,610769,17076,-596,680,17099.92,32.81,-1.00,-1.0,2359
772,610772,17100,-644,824,17131.95,32.77,-1.00,-1.0,2426
775,610775,17020,-576,816,17049.28,32.72,-1.00,-1.0,2369
777,610777,17056,-624,748,17083.79,32.72,-1.00,-1.0,2421
780,610780,17052,-672,768,17082.51,32.72,-1.00,-1.0,2357
783,610783,17000,-696,740,17030.33,32.86,-1.00,-1.0,2426
786,610786,17168,-720,716,17198.00,32.72,-1.00,-1.0,2369
791,610791,17024,-676,792,17055.81,32.72,-1.00,-1.0,2444
793,610793,17028,-568,824,17057.38,32.81,-1.00,-1.0,2375
796,610796,16968,-608,728,16994.49,32.72,-1.00,-1.0,2365
799,610799,17036,-700,792,17068.76,32.77,-1.00,-1.0,2428
802,610802,17060,-648,744,17088.51,32.77,-1.00,-1.0,2368
804,610804,17124,-624,764,17152.39,32.67,-1.00,-1.0,2421
807,610807,17096,-776,716,17128.57,32.77,-1.00,-1.0,2369
810,610810,17032,-656,780,17062.47,32.77,-1.00,-1.0,2427
813,610813,17064,-620,756,17091.99,32.81,-1.00,-1.0,2370
818,610818,17132,-632,660,17156.35,32.72,-1.00,-1.0,2443
820,610820,17032,-664,780,17062.78,32.72,-1.00,-1.0,2372
823,610823,16996,-604,804,17025.72,32.77,-1.00,-1.0,2366
826,610826,17036,-756,596,17063.18,32.77,-1.00,-1.0,2428
829,610829,17080,-640,720,17107.14,32.77,-1.00,-1.0,2369
831,610831,17056,-748,904,17096.31,32.77,-1.00,-1.0,2420
834,610834,17104,-672,748,17133.53,32.77,-1.00,-1.0,2369
837,610837,17032,-616,860,17064.82,32.77,-1.00,-1.0,2430
840,610840,17028,-652,620,17051.75,32.77,-1.00,-1.0,2369
845,610845,17016,-648,652,17040.81,32.86,-1.00,-1.0,2439
847,610847,17064,-536,652,17084.86,32.91,-1.00,-1.0,2373
850,610850,17076,-732,628,17103.21,32.86,-1.00,-1.0,2365
853,610853,17032,-692,724,17061.42,32.72,-1.00,-1.0,2429
856,610856,17068,-656,784,17098.59,32.67,-1.00,-1.0,2369
858,610858,17100,-660,720,17127.87,32.81,-1.00,-1.0,2426
861,610861,17048,-640,820,17079.71,32.67,-1.00,-1.0,2369
864,610864,17016,-580,728,17041.44,32.72,-1.00,-1.0,2427
867,610867,17080,-608,852,17112.04,32.77,-1.00,-1.0,2369
872,610872,17000,-684,628,17025.34,32.72,-1.00,-1.0,2440
874,610874,17020,-600,780,17048.43,32.67,-1.00,-1.0,2368
877,610877,17052,-584,632,17073.70,32.81,-1.00,-1.0,2353
880,610880,17076,-688,808,17108.95,32.77,-1.00,-1.0,2422
882,610882,17096,-752,756,17129.22,32.72,-1.00,-1.0,2374
885,610885,17088,-596,680,17111.91,32.81,-1.00,-1.0,2420
888,610888,16996,-572,788,17023.87,32.72,-1.00,-1.0,2370
891,610891,17032,-668,736,17060.98,32.72,-1.00,-1.0,2429
894,610894,17176,-596,816,17205.70,32.67,-1.00,-1.0,2375
899,610899,17124,-628,900,17159.13,32.67,-1.00,-1.0,2439
901,610901,17080,-472,636,17098.35,32.72,-1.00,-1.0,2366
904,610904,17136,-632,712,17162.43,32.77,-1.00,-1.0,2373
907,610907,16984,-656,808,17015.86,32.81,-1.00,-1.0,2421
909,610909,17144,-616,868,17177.01,32.72,-1.00,-1.0,2371
912,610912,17064,-572,720,17088.76,32.81,-1.00,-1.0,2427
915,610915,17148,-600,724,17173.76,32.72,-1.00,-1.0,2373
918,610918,17180,-568,628,17200.86,32.72,-1.00,-1.0,2428
921,610921,17104,-584,792,17132.28,32.81,-1.00,-1.0,2370
926,610926,17044,-704,832,17078.81,32.72,-1.00,-1.0,2448
929,610929,17076,-512,792,17102.02,32.81,-1.00,-1.0,2366
931,610931,17064,-640,804,17094.91,32.72,-1.00,-1.0,2421
934,610934,17056,-736,648,17084.17,32.72,-1.00,-1.0,2370
937,610937,17068,-664,784,17098.89,32.72,-1.00,-1.0,2368
940,610940,16992,-772,632,17021.27,32.77,-1.00,-1.0,2423
942,610942,16972,-572,752,16998.28,32.81,-1.00,-1.0,2385
945,610945,17016,-476,752,17039.26,32.77,-1.00,-1.0,2421
948,610948,17056,-532,736,17080.16,32.81,-1.00,-1.0,2377
953,610953,17104,-616,712,17129.89,32.72,-1.00,-1.0,2446
956,610956,17076,-708,744,17106.86,32.72,-1.00,-1.0,2366
958,610958,17120,-552,708,17143.52,32.67,-1.00,-1.0,2435
961,610961,17104,-576,692,17127.68,32.81,-1.00,-1.0,2369
964,610964,17056,-644,788,17086.33,32.77,-1.00,-1.0,2367
967,610967,17072,-592,796,17100.80,32.77,-1.00,-1.0,2420
969,610969,17020,-684,804,17052.70,32.77,-1.00,-1.0,2373
972,610972,17152,-552,652,17173.26,32.72,-1.00,-1.0,2420
975,610975,17128,-588,876,17160.46,32.86,-1.00,-1.0,2372
980,610980,17136,-640,768,17165.14,32.77,-1.00,-1.0,2446
983,610983,17120,-580,740,17145.80,32.72,-1.00,-1.0,2366
985,610985,17032,-572,580,17051.47,32.77,-1.00,-1.0,2429
988,610988,17112,-628,712,17138.32,32.81,-1.00,-1.0,2377
991,610991,17060,-656,680,17086.14,32.77,-1.00,-1.0,2366
994,610994,17044,-736,848,17080.95,32.81,-1.00,-1.0,2420
996,610996,17024,-692,800,17056.83,32.77,-1.00,-1.0,2369
999,610999,17076,-568,688,17099.29,32.72,-1.00,-1.0,2420
1002,611002,17112,-620,708,17137.86,32.67,-1.00,-1.0,2371
1007,611007,17060,-544,824,17088.55,32.77,-1.00,-1.0,2441
1010,611010,16960,-668,740,16989.27,32.67,-1.00,-1.0,2372
1013,611013,17080,-632,616,17102.79,32.67,-1.00,-1.0,2429
1015,611015,17196,-656,632,17220.11,32.67,-1.00,-1.0,2384
1018,611018,17040,-500,884,17070.24,32.72,-1.00,-1.0,2367
1021,611021,17036,-648,764,17065.43,32.72,-1.00,-1.0,2421
1023,611023,17104,-612,672,17128.13,32.81,-1.00,-1.0,2369
1026,611026,17112,-596,632,17134.04,32.72,-1.00,-1.0,2420
1029,611029,17036,-652,864,17070.35,32.77,-1.00,-1.0,2371
1034,611034,17032,-620,724,17058.65,32.77,-1.00,-1.0,2443
1037,611037,17060,-616,692,17085.14,32.77,-1.00,-1.0,2368
1040,611040,17052,-592,716,17077.29,32.81,-1.00,-1.0,2423
1042,611042,17068,-624,804,17098.32,32.67,-1.00,-1.0,2372
1045,611045,17160,-600,692,17184.43,32.81,-1.00,-1.0,2420
1048,611048,17044,-580,880,17076.55,32.77,-1.00,-1.0,2371
1050,611050,17040,-636,872,17074.15,32.72,-1.00,-1.0,2369
1053,611053,17088,-696,772,17119.58,32.72,-1.00,-1.0,2420
1056,611056,16988,-684,656,17014.42,32.72,-1.00,-1.0,2370
1061,611061,17132,-564,780,17159.02,32.72,-1.00,-1.0,2440
1064,611064,17080,-616,700,17105.43,32.72,-1.00,-1.0,2370
1067,611067,17108,-668,728,17136.51,32.72,-1.00,-1.0,2421
1069,611069,17072,-628,800,17102.27,32.81,-1.00,-1.0,2370
1072,611072,17116,-744,772,17149.55,32.72,-1.00,-1.0,2407
1075,611075,17168,-600,656,17191.00,32.81,-1.00,-1.0,2372
1078,611078,17060,-712,768,17092.11,32.72,-1.00,-1.0,2420
1080,611080,17100,-568,860,17131.03,32.81,-1.00,-1.0,2371
1083,611083,16952,-636,864,16985.91,32.72,-1.00,-1.0,2367
1088,611088,17088,-616,772,17116.52,32.81,-1.00,-1.0,2427
1091,611091,17048,-656,672,17073.85,32.72,-1.00,-1.0,2367
1094,611094,17032,-540,740,17056.62,32.81,-1.00,-1.0,2420
1096,611096,17140,-600,780,17168.23,32.62,-1.00,-1.0,2370
1099,611099,17164,-572,812,17192.71,32.81,-1.00,-1.0,2420
1102,611102,17020,-616,748,17047.56,32.72,-1.00,-1.0,2370
1105,611105,17100,-644,848,17133.12,32.77,-1.00,-1.0,2420
1107,611107,17100,-644,728,17127.60,32.72,-1.00,-1.0,2370
1112,611112,16992,-612,708,17017.75,32.72,-1.00,-1.0,2447
1115,611115,17056,-720,672,17084.41,32.77,-1.00,-1.0,2372
1117,611117,17060,-616,812,17090.42,32.72,-1.00,-1.0,2366
1120,611120,17116,-600,684,17140.17,32.72,-1.00,-1.0,2423
1123,611123,17044,-592,664,17067.20,32.72,-1.00,-1.0,2370
1126,611126,17116,-660,868,17150.70,32.67,-1.00,-1.0,2420
1128,611128,17040,-680,716,17068.59,32.72,-1.00,-1.0,2373
1131,611131,17024,-680,820,17057.30,32.77,-1.00,-1.0,2420
1134,611134,17012,-656,788,17042.87,32.72,-1.00,-1.0,2373
1139,611139,17024,-624,940,17061.35,32.72,-1.00,-1.0,2443
1142,611142,17032,-644,844,17065.05,32.72,-1.00,-1.0,2367
1144,611144,16988,-592,720,17013.55,32.77,-1.00,-1.0,2370
1147,611147,17024,-672,892,17060.59,32.72,-1.00,-1.0,2431
1150,611150,17004,-616,724,17030.55,32.72,-1.00,-1.0,2378
1153,611153,17076,-624,764,17104.47,32.72,-1.00,-1.0,2433
1155,611155,17132,-680,816,17164.90,32.81,-1.00,-1.0,2376
1158,611158,16984,-624,772,17012.98,32.72,-1.00,-1.0,2420
1161,611161,17036,-640,740,17064.07,32.77,-1.00,-1.0,2370
1166,611166,17044,-684,696,17071.91,32.77,-1.00,-1.0,2439
1169,611169,17112,-592,800,17140.92,32.77,-1.00,-1.0,2367
1172,611172,17060,-556,696,17083.24,32.77,-1.00,-1.0,2423
1174,611174,17040,-636,832,17072.15,32.77,-1.00,-1.0,2356
1177,611177,16980,-628,740,17007.71,32.81,-1.00,-1.0,2375
1180,611180,17084,-520,624,17103.30,32.81,-1.00,-1.0,2434
1182,611182,17116,-628,836,17147.91,32.72,-1.00,-1.0,2380
1185,611185,17092,-588,656,17114.69,32.62,-1.00,-1.0,2420
1188,611188,17052,-640,792,17082.38,32.72,-1.00,-1.0,2377
1193,611193,17164,-672,780,17194.85,32.72,-1.00,-1.0,2468
1196,611196,17100,-620,864,17133.04,32.81,-1.00,-1.0,2366
1199,611199,17016,-584,844,17046.93,32.67,-1.00,-1.0,2423
1201,611201,17080,-644,788,17110.29,32.72,-1.00,-1.0,2365
1204,611204,17080,-640,768,17109.23,32.86,-1.00,-1.0,2421
1207,611207,16992,-548,724,17016.24,32.81,-1.00,-1.0,2367
1210,611210,17052,-628,876,17086.03,32.77,-1.00,-1.0,2353
1212,611212,17112,-508,900,17143.18,32.72,-1.00,-1.0,2421
1215,611215,17152,-680,752,17181.94,32.72,-1.00,-1.0,2385
1220,611220,17052,-548,720,17075.99,32.81,-1.00,-1.0,2441
1223,611223,17172,-676,920,17209.91,32.91,-1.00,-1.0,2370
1226,611226,17076,-664,772,17106.33,32.81,-1.00,-1.0,2430
1228,611228,17064,-668,772,17094.51,32.72,-1.00,-1.0,2375
1231,611231,17064,-684,800,17096.43,32.72,-1.00,-1.0,2435
1234,611234,17044,-652,568,17065.92,32.81,-1.00,-1.0,2375
1237,611237,17096,-572,772,17122.98,32.77,-1.00,-1.0,2434
1239,611239,17084,-568,868,17115.46,32.81,-1.00,-1.0,2379
1242,611242,17044,-556,656,17065.68,32.72,-1.00,-1.0,2373
1247,611247,17044,-604,736,17070.57,32.72,-1.00,-1.0,2456
1250,611250,16936,-652,684,16962.34,32.72,-1.00,-1.0,2372
1253,611253,17168,-704,688,17196.20,32.67,-1.00,-1.0,2431
1255,611255,17104,-684,772,17135.07,32.81,-1.00,-1.0,2380
1258,611258,17096,-520,812,17123.17,32.77,-1.00,-1.0,2420
1261,611261,17212,-624,860,17244.77,32.72,-1.00,-1.0,2369
1264,611264,17080,-648,704,17106.78,32.67,-1.00,-1.0,2427
1266,611266,17016,-664,748,17045.37,32.72,-1.00,-1.0,2374
1271,611271,17016,-568,728,17041.04,32.81,-1.00,-1.0,2453
1274,611274,17132,-624,768,17160.55,32.81,-1.00,-1.0,2363
1277,611277,17088,-656,656,17113.16,32.77,-1.00,-1.0,2369
1280,611280,17044,-520,664,17064.85,32.77,-1.00,-1.0,2420
1282,611282,17108,-656,824,17140.39,32.77,-1.00,-1.0,2369
1285,611285,17188,-676,788,17219.33,32.62,-1.00,-1.0,2420
1288,611288,17044,-568,828,17073.55,32.67,-1.00,-1.0,2369
1291,611291,17000,-700,832,17034.74,32.62,-1.00,-1.0,2420
1293,611293,16996,-644,864,17030.13,32.86,-1.00,-1.0,2369
1298,611298,17060,-556,752,17085.62,32.81,-1.00,-1.0,2439
1301,611301,17048,-612,708,17073.67,32.58,-1.00,-1.0,2369
1304,611304,17100,-616,784,17129.04,32.72,-1.00,-1.0,2420
1306,611306,17096,-668,648,17121.31,32.72,-1.00,-1.0,2357
1309,611309,17172,-708,828,17206.52,32.81,-1.00,-1.0,2375
1312,611312,17060,-724,704,17089.86,32.67,-1.00,-1.0,2435
1314,611314,17080,-656,896,17116.06,32.67,-1.00,-1.0,2378
1317,611317,17124,-656,788,17154.67,32.62,-1.00,-1.0,2421
1320,611320,17004,-668,748,17033.55,32.77,-1.00,-1.0,2369
1325,611325,17080,-536,760,17105.30,32.81,-1.00,-1.0,2443
1328,611328,17128,-580,828,17157.81,32.77,-1.00,-1.0,2371
1330,611330,17096,-556,736,17120.87,32.77,-1.00,-1.0,2428
1333,611333,17104,-732,768,17136.88,32.77,-1.00,-1.0,2383
1336,611336,17020,-580,664,17042.82,32.72,-1.00,-1.0,2431
1339,611339,17064,-728,832,17099.78,32.62,-1.00,-1.0,2429
1342,611342,17124,-728,708,17154.08,32.72,-1.00,-1.0,2367
1344,611344,16980,-600,756,17007.41,32.81,-1.00,-1.0,2422
1347,611347,17140,-600,740,17166.46,32.72,-1.00,-1.0,2370
1352,611352,17104,-656,832,17136.79,32.81,-1.00,-1.0,2441
1355,611355,17136,-568,732,17161.03,32.77,-1.00,-1.0,2367
1358,611358,17104,-560,656,17125.73,32.72,-1.00,-1.0,2430
1361,611361,17204,-604,644,17226.64,32.81,-1.00,-1.0,2369
1363,611363,17056,-644,756,17084.89,32.81,-1.00,-1.0,2422
1366,611366,17044,-632,780,17073.54,32.72,-1.00,-1.0,2371
1369,611369,17052,-592,832,17082.55,32.77,-1.00,-1.0,2366
1371,611371,17100,-664,860,17134.48,32.86,-1.00,-1.0,2437
1374,611374,17124,-576,848,17154.66,32.72,-1.00,-1.0,2370
1379,611379,16980,-632,608,17002.63,32.72,-1.00,-1.0,2440
1382,611382,17092,-592,772,17119.66,32.72,-1.00,-1.0,2367
1385,611385,17060,-700,748,17090.73,32.81,-1.00,-1.0,2428
1388,611388,17072,-704,728,17102.01,32.72,-1.00,-1.0,2369
1390,611390,17060,-580,784,17087.85,32.77,-1.00,-1.0,2423
1393,611393,17092,-652,768,17121.66,32.72,-1.00,-1.0,2370
1396,611396,16940,-692,728,16969.75,32.72,-1.00,-1.0,2427
1399,611399,16992,-636,764,17021.05,32.72,-1.00,-1.0,2369
1401,611401,17020,-620,640,17043.31,32.77,-1.00,-1.0,2366
1406,611406,16980,-596,792,17008.91,32.72,-1.00,-1.0,2440
1409,611409,17008,-668,832,17041.44,32.72,-1.00,-1.0,2370
1412,611412,17068,-560,564,17086.50,32.72,-1.00,-1.0,2428
1415,611415,17032,-624,780,17061.27,32.81,-1.00,-1.0,2374
1417,611417,17088,-560,852,17118.39,32.77,-1.00,-1.0,2423
1420,611420,17060,-620,788,17089.44,32.72,-1.00,-1.0,2371
1423,611423,17056,-672,704,17083.74,32.62,-1.00,-1.0,2423
1426,611426,17028,-560,860,17058.90,32.81,-1.00,-1.0,2369
1431,611431,17052,-692,644,17078.18,32.72,-1.00,-1.0,2440
1433,611433,17064,-544,896,17096.16,32.62,-1.00,-1.0,2367
1436,611436,17008,-644,616,17031.33,32.67,-1.00,-1.0,2373
1439,611439,17060,-680,760,17090.45,32.72,-1.00,-1.0,2432
1441,611441,17096,-692,772,17127.41,32.67,-1.00,-1.0,2375
1444,611444,17036,-692,652,17062.51,32.81,-1.00,-1.0,2429
1447,611447,17080,-700,732,17110.00,32.77,-1.00,-1.0,2372
1450,611450,17128,-624,680,17152.85,32.81,-1.00,-1.0,2429
1452,611452,17088,-732,756,17120.37,32.72,-1.00,-1.0,2380
1457,611457,17140,-712,748,17171.08,32.72,-1.00,-1.0,2450
1460,611460,17084,-708,724,17113.99,32.77,-1.00,-1.0,2369
1463,611463,16980,-652,780,17010.41,32.72,-1.00,-1.0,2426
1466,611466,17168,-676,756,17197.93,32.67,-1.00,-1.0,2374
1468,611468,17076,-576,824,17105.57,32.81,-1.00,-1.0,2366
1471,611471,17008,-608,932,17044.36,32.77,-1.00,-1.0,2419
1474,611474,17120,-756,812,17155.91,32.72,-1.00,-1.0,2370
1477,611477,17044,-696,788,17076.40,32.77,-1.00,-1.0,2420
1479,611479,17052,-656,720,17079.80,32.72,-1.00,-1.0,2385
1484,611484,17096,-656,712,17123.39,32.72,-1.00,-1.0,2451
1487,611487,17096,-748,672,17125.54,32.72,-1.00,-1.0,2383
1490,611490,17068,-668,700,17095.40,32.72,-1.00,-1.0,2423
1493,611493,17024,-608,812,17054.20,32.72,-1.00,-1.0,2376
1496,611496,17208,-648,816,17239.52,32.81,-1.00,-1.0,2422
1498,611498,17088,-596,788,17116.54,32.72,-1.00,-1.0,2373
1501,611501,17096,-632,672,17120.87,32.67,-1.00,-1.0,2375
1504,611504,17096,-660,624,17120.11,32.86,-1.00,-1.0,2419
1506,611506,17080,-552,812,17108.20,32.72,-1.00,-1.0,2377
1512,611512,17084,-576,728,17109.20,32.81,-1.00,-1.0,2443
1514,611514,17072,-596,728,17097.91,32.72,-1.00,-1.0,2369
1517,611517,17028,-600,680,17052.13,32.86,-1.00,-1.0,2419
1520,611520,17016,-652,724,17043.87,32.72,-1.00,-1.0,2373
1523,611523,17048,-640,696,17074.20,32.77,-1.00,-1.0,2420
1525,611525,17064,-712,840,17099.49,32.72,-1.00,-1.0,2370
1528,611528,17112,-676,848,17146.33,32.58,-1.00,-1.0,2375
1531,611531,17088,-584,576,17107.68,32.72,-1.00,-1.0,2420
1533,611533,17132,-616,860,17164.63,32.81,-1.00,-1.0,2378
1538,611538,17068,-656,740,17096.62,32.72,-1.00,-1.0,2440
1541,611541,17068,-604,716,17093.69,32.81,-1.00,-1.0,2416
1544,611544,17020,-620,744,17047.53,32.72,-1.00,-1.0,2434
1547,611547,17068,-644,608,17090.96,32.77,-1.00,-1.0,2358
1549,611549,17116,-620,672,17140.40,32.81,-1.00,-1.0,2416
1552,611552,17096,-732,684,17125.33,32.86,-1.00,-1.0,2373
1555,611555,16992,-544,732,17016.46,32.72,-1.00,-1.0,2420
1558,611558,17092,-752,792,17126.86,32.77,-1.00,-1.0,2371
1561,611561,17052,-508,752,17076.13,32.77,-1.00,-1.0,2368
1565,611565,16988,-680,704,17016.17,32.77,-1.00,-1.0,2431
1568,611568,17036,-744,756,17068.99,32.81,-1.00,-1.0,2385
1571,611571,17052,-696,756,17082.94,32.77,-1.00,-1.0,2436
1574,611574,16992,-684,756,17022.56,32.72,-1.00,-1.0,2370
1577,611577,17048,-684,756,17078.46,32.86,-1.00,-1.0,2420
1579,611579,17120,-660,728,17148.18,32.77,-1.00,-1.0,2357
1582,611582,17028,-668,844,17061.98,32.77,-1.00,-1.0,2420
1585,611585,17020,-664,776,17050.62,32.72,-1.00,-1.0,2367
1590,611590,17084,-664,772,17114.32,32.91,-1.00,-1.0,2423
1592,611592,17156,-740,668,17184.94,32.81,-1.00,-1.0,2372
1595,611595,17040,-648,796,17070.88,32.77,-1.00,-1.0,2368
1598,611598,17052,-716,740,17083.06,32.77,-1.00,-1.0,2435
1601,611601,17064,-560,720,17088.36,32.77,-1.00,-1.0,2367
1603,611603,17088,-692,632,17113.68,32.72,-1.00,-1.0,2420
1606,611606,17104,-652,768,17133.64,32.77,-1.00,-1.0,2371
1609,611609,17016,-692,748,17046.48,32.81,-1.00,-1.0,2428
1612,611612,17132,-676,652,17157.72,32.77,-1.00,-1.0,2369
1617,611617,17116,-672,732,17144.82,32.77,-1.00,-1.0,2422
1619,611619,17040,-620,872,17073.56,32.77,-1.00,-1.0,2373
1622,611622,17108,-668,680,17134.54,32.72,-1.00,-1.0,2433
1625,611625,17052,-624,764,17080.51,32.86,-1.00,-1.0,2371
1627,611627,17100,-676,772,17130.76,32.72,-1.00,-1.0,2367
1630,611630,17032,-612,792,17061.38,32.67,-1.00,-1.0,2436
1633,611633,17104,-692,728,17133.47,32.81,-1.00,-1.0,2365
1636,611636,17016,-644,684,17041.91,32.72,-1.00,-1.0,2430
1639,611639,16996,-644,848,17029.32,32.72,-1.00,-1.0,2371
1644,611644,17108,-728,704,17137.95,32.81,-1.00,-1.0,2423
1646,611646,17040,-580,756,17066.62,32.77,-1.00,-1.0,2371
1649,611649,17036,-688,544,17058.56,32.72,-1.00,-1.0,2434
1652,611652,16992,-716,788,17025.32,32.72,-1.00,-1.0,2370
1655,611655,17068,-668,704,17095.57,32.72,-1.00,-1.0,2420
1657,611657,17112,-632,672,17136.85,32.72,-1.00,-1.0,2370
1660,611660,17168,-668,808,17199.98,32.77,-1.00,-1.0,2374
1663,611663,16960,-628,772,16989.17,32.77,-1.00,-1.0,2430
1666,611666,17140,-600,712,17165.27,32.81,-1.00,-1.0,2369
1671,611671,17020,-648,756,17049.10,32.81,-1.00,-1.0,2423
1673,611673,17140,-680,720,17168.59,32.81,-1.00,-1.0,2367
1676,611676,16960,-676,788,16991.75,32.72,-1.00,-1.0,2434
1679,611679,17008,-640,800,17038.83,32.91,-1.00,-1.0,2370
1682,611682,17064,-640,728,17091.51,32.72,-1.00,-1.0,2419
1684,611684,16992,-688,752,17022.54,32.72,-1.00,-1.0,2370
1687,611687,17112,-632,668,17136.69,32.72,-1.00,-1.0,2421
1690,611690,17164,-620,864,17196.91,32.81,-1.00,-1.0,2370
1693,611693,17084,-596,836,17114.82,32.81,-1.00,-1.0,2367
1698,611698,17044,-644,844,17077.03,32.81,-1.00,-1.0,2422
1700,611700,17096,-592,752,17122.77,32.81,-1.00,-1.0,2371
1703,611703,17092,-676,736,17121.19,32.77,-1.00,-1.0,2434
1706,611706,16992,-680,704,17020.17,32.72,-1.00,-1.0,2378
1709,611709,17088,-532,816,17115.74,32.81,-1.00,-1.0,2420
1711,611711,17100,-680,816,17132.96,32.81,-1.00,-1.0,2371
1714,611714,17020,-612,728,17046.55,32.67,-1.00,-1.0,2420
1717,611717,17096,-652,796,17126.94,32.81,-1.00,-1.0,2378
1720,611720,17080,-656,756,17109.30,32.77,-1.00,-1.0,2370
1725,611725,17016,-612,740,17043.07,32.72,-1.00,-1.0,2438
1727,611727,17080,-664,776,17110.51,32.81,-1.00,-1.0,2374
1730,611730,17068,-732,772,17101.12,32.81,-1.00,-1.0,2429
1733,611733,17180,-680,572,17202.96,32.72,-1.00,-1.0,2370
1736,611736,17036,-628,764,17064.68,32.72,-1.00,-1.0,2420
1738,611738,17104,-732,796,17138.15,32.72,-1.00,-1.0,2370
1741,611741,17028,-604,784,17056.74,32.72,-1.00,-1.0,2419
1744,611744,17112,-632,676,17137.01,32.81,-1.00,-1.0,2369
1749,611749,17112,-592,620,17133.46,32.72,-1.00,-1.0,2436
1751,611751,16996,-608,740,17022.96,32.72,-1.00,-1.0,2374
1754,611754,17008,-636,724,17035.28,32.72,-1.00,-1.0,2367
1757,611757,17088,-620,688,17113.08,32.77,-1.00,-1.0,2430
1759,611759,17040,-600,660,17063.33,32.77,-1.00,-1.0,2370
1762,611762,17096,-640,668,17121.01,32.67,-1.00,-1.0,2421
1765,611765,17108,-552,868,17138.90,32.67,-1.00,-1.0,2377
1768,611768,17048,-568,712,17072.31,32.72,-1.00,-1.0,2422
1771,611771,17048,-624,804,17078.35,32.72,-1.00,-1.0,2369
1776,611776,17104,-592,776,17131.83,32.72,-1.00,-1.0,2433
1778,611778,17024,-572,772,17051.09,32.67,-1.00,-1.0,2375
1781,611781,17072,-632,704,17098.19,32.81,-1.00,-1.0,2435
1784,611784,17000,-636,704,17026.45,32.86,-1.00,-1.0,2358
1787,611787,16988,-604,704,17013.31,32.72,-1.00,-1.0,2367
1789,611789,16996,-656,632,17020.39,32.67,-1.00,-1.0,2419
1792,611792,17108,-716,728,17138.45,32.72,-1.00,-1.0,2370
1795,611795,17120,-624,740,17147.34,32.67,-1.00,-1.0,2427
1798,611798,17052,-604,732,17078.39,32.72,-1.00,-1.0,2370
1803,611803,17088,-624,704,17113.88,32.81,-1.00,-1.0,2429
1806,611806,17092,-692,744,17122.17,32.72,-1.00,-1.0,2413
1808,611808,17080,-652,660,17105.18,32.81,-1.00,-1.0,2442
1811,611811,16996,-664,804,17027.96,32.72,-1.00,-1.0,2387
1814,611814,17112,-552,888,17143.91,32.81,-1.00,-1.0,2420
1817,611817,16996,-640,772,17025.56,32.72,-1.00,-1.0,2375
1819,611819,17092,-684,856,17127.09,32.67,-1.00,-1.0,2367
1822,611822,17112,-592,904,17146.08,32.77,-1.00,-1.0,2419
1825,611825,17160,-656,756,17189.17,32.67,-1.00,-1.0,2373
1830,611830,17004,-652,720,17031.72,32.81,-1.00,-1.0,2425
1832,611832,16984,-644,788,17014.46,32.72,-1.00,-1.0,2378
1835,611835,17080,-712,824,17114.68,32.67,-1.00,-1.0,2420
1838,611838,17064,-692,820,17097.70,32.81,-1.00,-1.0,2370
1841,611841,17144,-568,884,17176.17,32.77,-1.00,-1.0,2422
1844,611844,17064,-616,704,17089.62,32.81,-1.00,-1.0,2370
1846,611846,17064,-596,804,17093.32,32.77,-1.00,-1.0,2420
1849,611849,17076,-640,600,17098.52,32.72,-1.00,-1.0,2371
1852,611852,17052,-608,788,17081.02,32.67,-1.00,-1.0,2367
1857,611857,17068,-628,700,17093.89,32.77,-1.00,-1.0,2424
1859,611859,17052,-592,708,17076.96,32.72,-1.00,-1.0,2374
1862,611862,17108,-620,744,17135.39,32.67,-1.00,-1.0,2433
1865,611865,16976,-588,608,16997.06,32.77,-1.00,-1.0,2371
1868,611868,17052,-616,800,17081.87,32.77,-1.00,-1.0,2427
1871,611871,16976,-624,628,16999.07,32.81,-1.00,-1.0,2369
1873,611873,17104,-612,748,17131.28,32.86,-1.00,-1.0,2421
1876,611876,17080,-640,608,17102.80,32.77,-1.00,-1.0,2370
1881,611881,17096,-688,688,17123.66,32.67,-1.00,-1.0,2425
1884,611884,17072,-632,780,17101.49,32.91,-1.00,-1.0,2370
1886,611886,16980,-604,736,17006.67,32.77,-1.00,-1.0,2366
1889,611889,17084,-556,964,17120.21,32.81,-1.00,-1.0,2433
1892,611892,17012,-632,680,17037.31,32.67,-1.00,-1.0,2377
1895,611895,17072,-624,700,17097.74,32.72,-1.00,-1.0,2420
1897,611897,17020,-556,656,17041.71,32.77,-1.00,-1.0,2370
1900,611900,17120,-532,656,17140.82,32.72,-1.00,-1.0,2420
1903,611903,16988,-532,728,17011.91,32.72,-1.00,-1.0,2378
1908,611908,17076,-656,736,17104.44,32.72,-1.00,-1.0,2432
1911,611911,17112,-604,824,17142.47,32.77,-1.00,-1.0,2371
1913,611913,17036,-688,792,17068.27,32.81,-1.00,-1.0,2373
1916,611916,17108,-612,704,17133.41,32.86,-1.00,-1.0,2438
1919,611919,17076,-644,820,17107.80,32.72,-1.00,-1.0,2376
1922,611922,17080,-632,820,17111.35,32.86,-1.00,-1.0,2422
1924,611924,17072,-672,736,17101.07,32.77,-1.00,-1.0,2377
1927,611927,17040,-696,704,17068.73,32.67,-1.00,-1.0,2420
1930,611930,16964,-584,800,16992.89,32.81,-1.00,-1.0,2377
1935,611935,17060,-656,804,17091.53,32.91,-1.00,-1.0,2431
1938,611938,17040,-772,728,17073.01,32.72,-1.00,-1.0,2371
1940,611940,16944,-608,656,16967.59,32.72,-1.00,-1.0,2446
1943,611943,17104,-604,620,17125.89,32.81,-1.00,-1.0,2378
1946,611946,17012,-776,824,17049.61,32.67,-1.00,-1.0,2367
1949,611949,17056,-656,704,17083.12,32.72,-1.00,-1.0,2421
1951,611951,17072,-732,700,17102.02,32.77,-1.00,-1.0,2369
1954,611954,17084,-568,716,17108.43,32.81,-1.00,-1.0,2420
1957,611957,17036,-676,852,17070.68,32.81,-1.00,-1.0,2378
1962,611962,17112,-712,720,17141.93,32.72,-1.00,-1.0,2424
1964,611964,17064,-664,768,17094.18,32.77,-1.00,-1.0,2371
1967,611967,17200,-592,724,17225.41,32.72,-1.00,-1.0,2432
1970,611970,17108,-680,824,17141.33,32.62,-1.00,-1.0,2370
1973,611973,17036,-528,848,17065.26,32.72,-1.00,-1.0,2420
1975,611975,17088,-576,792,17116.04,32.81,-1.00,-1.0,2370
1978,611978,17084,-676,644,17109.49,32.67,-1.00,-1.0,2370
1981,611981,17012,-656,852,17045.95,32.67,-1.00,-1.0,2425
1984,611984,17080,-592,720,17105.42,32.77,-1.00,-1.0,2371
1989,611989,17072,-784,752,17106.53,32.72,-1.00,-1.0,2433
1992,611992,17088,-656,712,17115.40,32.72,-1.00,-1.0,2367
1994,611994,17080,-556,852,17110.27,32.62,-1.00,-1.0,2446
1997,611997,17136,-636,676,17161.12,32.81,-1.00,-1.0,2370
2000,612000,17108,-700,720,17137.45,32.77,-1.00,-1.0,2427
2003,612003,17128,-588,796,17156.57,32.72,-1.00,-1.0,2370
2005,612005,17140,-712,792,17173.05,32.77,-1.00,-1.0,2430
2008,612008,17104,-632,848,17136.67,32.67,-1.00,-1.0,2379
2011,612011,17076,-692,716,17105.01,32.77,-1.00,-1.0,2366
2016,612016,17064,-608,800,17093.56,32.77,-1.00,-1.0,2431
2019,612019,17080,-596,772,17107.82,32.72,-1.00,-1.0,2371
2021,612021,17012,-592,680,17035.88,32.77,-1.00,-1.0,2443
2024,612024,17072,-552,764,17098.00,32.72,-1.00,-1.0,2416
2027,612027,17072,-664,808,17104.00,32.77,-1.00,-1.0,2442
2030,612030,17012,-664,720,17040.17,32.77,-1.00,-1.0,2383
2033,612033,17072,-604,652,17095.12,32.67,-1.00,-1.0,2424
2035,612035,17036,-564,712,17060.20,32.72,-1.00,-1.0,2380
2040,612040,17052,-580,844,17082.72,32.81,-1.00,-1.0,2424
2043,612043,17036,-584,920,17070.82,32.81,-1.00,-1.0,2372
2046,612046,17088,-620,752,17115.77,32.77,-1.00,-1.0,2372
2049,612049,17056,-684,764,17086.80,32.81,-1.00,-1.0,2437
2051,612051,16916,-588,764,16943.45,32.86,-1.00,-1.0,2376
2054,612054,16980,-624,856,17013.01,32.72,-1.00,-1.0,2407
2057,612057,17060,-660,676,17086.14,32.77,-1.00,-1.0,2373
2060,612060,17052,-640,752,17080.57,32.81,-1.00,-1.0,2421
2062,612062,17088,-716,808,17122.07,32.72,-1.00,-1.0,2373
2067,612067,17016,-664,824,17048.88,32.77,-1.00,-1.0,2431
2070,612070,17012,-564,752,17037.95,32.81,-1.00,-1.0,2424
2073,612073,17132,-680,696,17159.61,32.67,-1.00,-1.0,2426
2076,612076,17092,-636,724,17119.14,32.77,-1.00,-1.0,2372
2078,612078,17060,-640,676,17085.38,32.77,-1.00,-1.0,2353
2081,612081,17000,-692,832,17034.41,32.72,-1.00,-1.0,2419
2084,612084,17028,-672,712,17056.12,32.77,-1.00,-1.0,2374
2087,612087,17028,-624,684,17053.15,32.81,-1.00,-1.0,2420
2089,612089,17052,-592,788,17080.46,32.81,-1.00,-1.0,2367
2094,612094,17056,-608,800,17085.57,32.67,-1.00,-1.0,2438
2097,612097,17176,-536,792,17202.60,32.77,-1.00,-1.0,2384
2100,612100,17040,-712,640,17066.87,32.72,-1.00,-1.0,2442
2102,612102,17036,-596,768,17063.71,32.77,-1.00,-1.0,2377
2105,612105,17028,-644,696,17054.38,32.81,-1.00,-1.0,2366
2108,612108,17052,-584,684,17075.70,32.67,-1.00,-1.0,2424
2111,612111,17060,-656,732,17088.29,32.72,-1.00,-1.0,2369
2113,612113,17020,-652,768,17049.79,32.77,-1.00,-1.0,2422
2116,612116,17008,-672,684,17035.01,32.86,-1.00,-1.0,2370
2121,612121,17128,-716,700,17157.24,32.72,-1.00,-1.0,2423
2124,612124,17048,-556,608,17067.90,32.81,-1.00,-1.0,2384
2127,612127,17060,-728,844,17096.37,32.67,-1.00,-1.0,2422
2129,612129,17048,-588,864,17080.00,32.72,-1.00,-1.0,2370
2132,612132,16948,-676,652,16974.00,32.77,-1.00,-1.0,2420
2135,612135,17120,-648,744,17148.41,32.72,-1.00,-1.0,2371
2137,612137,17056,-748,784,17090.39,32.77,-1.00,-1.0,2370
2140,612140,17104,-568,880,17136.04,32.72,-1.00,-1.0,2434
2143,612143,17140,-628,680,17164.97,32.67,-1.00,-1.0,2371
2148,612148,17024,-596,756,17051.20,32.77,-1.00,-1.0,2431
2151,612151,17044,-600,912,17078.93,32.77,-1.00,-1.0,2386
2153,612153,17088,-604,668,17111.71,32.72,-1.00,-1.0,2430
2156,612156,17012,-580,800,17040.67,32.81,-1.00,-1.0,2377
2159,612159,17092,-624,792,17121.71,32.81,-1.00,-1.0,2421
2162,612162,17104,-592,752,17130.76,32.81,-1.00,-1.0,2375
2164,612164,17040,-652,708,17067.16,32.72,-1.00,-1.0,2423
2167,612167,17004,-636,852,17037.21,32.72,-1.00,-1.0,2385
2170,612170,16992,-628,832,17023.94,32.77,-1.00,-1.0,2367
2175,612175,17052,-680,796,17084.11,32.77,-1.00,-1.0,2423
2178,612178,17152,-740,748,17184.24,32.72,-1.00,-1.0,2386
2180,612180,17096,-528,800,17122.85,32.77,-1.00,-1.0,2421
2183,612183,17044,-596,572,17064.01,32.77,-1.00,-1.0,2370
2186,612186,17072,-616,616,17094.21,32.77,-1.00,-1.0,2427
2189,612189,16948,-616,764,16976.39,32.67,-1.00,-1.0,2369
2191,612191,17152,-580,832,17181.96,32.86,-1.00,-1.0,2420
2194,612194,17072,-620,684,17096.94,32.81,-1.00,-1.0,2378
2199,612199,17024,-556,784,17051.11,32.81,-1.00,-1.0,2423
2202,612202,17124,-664,780,17154.61,32.77,-1.00,-1.0,2383
2204,612204,16964,-576,680,16987.39,32.81,-1.00,-1.0,2380
2207,612207,17000,-580,828,17030.03,32.72,-1.00,-1.0,2421
2210,612210,17064,-676,760,17094.29,32.72,-1.00,-1.0,2372
2213,612213,16936,-632,736,16963.76,32.77,-1.00,-1.0,2422
2215,612215,17144,-692,800,17176.60,32.77,-1.00,-1.0,2369
2218,612218,17084,-616,784,17113.07,32.77,-1.00,-1.0,2420
2221,612221,17072,-644,744,17100.34,32.72,-1.00,-1.0,2386
2226,612226,17048,-680,748,17077.95,32.81,-1.00,-1.0,2438
2229,612229,17052,-564,728,17076.85,32.81,-1.00,-1.0,2392
2232,612232,17028,-668,748,17057.51,32.77,-1.00,-1.0,2429
2234,612234,17104,-716,868,17140.97,32.81,-1.00,-1.0,2380
2237,612237,17008,-576,744,17034.01,32.67,-1.00,-1.0,2366
2240,612240,17064,-672,864,17099.07,32.72,-1.00,-1.0,2428
2243,612243,17088,-592,820,17117.90,32.77,-1.00,-1.0,2365
2245,612245,17188,-600,792,17216.70,32.81,-1.00,-1.0,2422
2248,612248,17044,-592,852,17075.55,32.72,-1.00,-1.0,2378
2253,612253,17072,-692,680,17099.54,32.81,-1.00,-1.0,2438
2256,612256,17096,-644,736,17123.95,32.72,-1.00,-1.0,2384
2259,612259,17172,-652,832,17204.50,32.77,-1.00,-1.0,2437
2261,612261,16904,-660,708,16931.69,32.81,-1.00,-1.0,2377
2264,612264,17072,-604,764,17099.76,32.67,-1.00,-1.0,2420
2267,612267,17060,-680,656,17086.14,32.86,-1.00,-1.0,2371
2270,612270,17072,-648,696,17098.46,32.77,-1.00,-1.0,2367
2272,612272,17148,-540,764,17173.50,32.81,-1.00,-1.0,2421
2275,612275,17092,-612,812,17122.22,32.72,-1.00,-1.0,2373
2280,612280,17072,-660,664,17097.65,32.81,-1.00,-1.0,2432
2283,612283,17108,-656,704,17135.04,32.72,-1.00,-1.0,2378
2286,612286,16980,-588,720,17005.43,32.77,-1.00,-1.0,2434
2288,612288,17088,-612,776,17116.55,32.77,-1.00,-1.0,2378
2291,612291,17124,-680,756,17154.16,32.77,-1.00,-1.0,2419
2294,612294,17024,-648,732,17052.05,32.77,-1.00,-1.0,2357
2297,612297,17148,-672,736,17176.94,32.81,-1.00,-1.0,2367
2299,612299,16988,-688,756,17018.73,32.81,-1.00,-1.0,2423
2302,612302,17004,-744,608,17031.12,32.86,-1.00,-1.0,2370
2307,612307,17100,-692,740,17129.99,32.72,-1.00,-1.0,2461
2310,612310,17028,-660,688,17054.67,32.72,-1.00,-1.0,2365
2313,612313,17080,-620,808,17110.34,32.81,-1.00,-1.0,2429
2316,612316,17096,-560,836,17125.59,32.81,-1.00,-1.0,2367
2318,612318,17036,-584,852,17067.29,32.77,-1.00,-1.0,2436
2321,612321,17136,-672,648,17161.41,32.81,-1.00,-1.0,2367
2324,612324,17120,-668,768,17150.23,32.86,-1.00,-1.0,2430
2327,612327,17056,-656,824,17088.49,32.81,-1.00,-1.0,2369
2329,612329,17120,-744,744,17152.30,32.86,-1.00,-1.0,2368
2334,612334,17168,-620,720,17194.27,32.77,-1.00,-1.0,2443
2337,612337,17072,-684,832,17105.94,32.77,-1.00,-1.0,2366
2340,612340,17096,-600,848,17127.53,32.81,-1.00,-1.0,2423
2342,612342,17008,-620,732,17035.03,32.77,-1.00,-1.0,2366
2345,612345,16952,-640,912,16988.57,32.72,-1.00,-1.0,2422
2348,612348,17124,-616,808,17154.12,32.77,-1.00,-1.0,2369
2351,612351,17048,-732,728,17079.23,32.72,-1.00,-1.0,2425
2353,612353,17024,-644,732,17051.89,32.77,-1.00,-1.0,2372
2359,612359,17076,-576,696,17099.88,32.67,-1.00,-1.0,2437
2361,612361,17012,-580,860,17043.60,32.77,-1.00,-1.0,2366
2364,612364,17024,-720,992,17068.07,32.72,-1.00,-1.0,2379
2367,612367,17060,-708,800,17093.42,32.77,-1.00,-1.0,2421
2369,612369,17108,-644,708,17134.75,32.81,-1.00,-1.0,2371
2372,612372,17016,-604,828,17046.84,32.72,-1.00,-1.0,2421
2375,612375,17064,-608,640,17086.82,32.72,-1.00,-1.0,2379
2378,612378,17040,-624,772,17068.89,32.77,-1.00,-1.0,2421
2380,612380,17020,-580,840,17050.58,32.72,-1.00,-1.0,2371
2385,612385,17052,-688,748,17082.26,32.81,-1.00,-1.0,2446
2388,612388,17072,-648,956,17111.02,32.77,-1.00,-1.0,2369
2391,612391,16984,-632,700,17010.16,32.81,-1.00,-1.0,2421
2393,612393,17168,-640,772,17197.26,32.81,-1.00,-1.0,2371
2396,612396,17136,-668,836,17169.38,32.72,-1.00,-1.0,2376
2399,612399,17140,-604,664,17163.49,32.77,-1.00,-1.0,2421
2401,612401,17168,-500,612,17186.18,32.77,-1.00,-1.0,2374
2404,612404,17060,-648,644,17084.45,32.86,-1.00,-1.0,2423
2407,612407,17140,-632,792,17169.92,32.77,-1.00,-1.0,2373
2412,612412,17044,-828,780,17081.92,32.81,-1.00,-1.0,2443
2415,612415,17208,-632,768,17236.72,32.81,-1.00,-1.0,2371
2418,612418,17060,-584,864,17091.84,32.77,-1.00,-1.0,2423
2421,612421,17060,-624,780,17089.22,32.72,-1.00,-1.0,2370
2423,612423,17080,-640,732,17107.65,32.67,-1.00,-1.0,2422
2426,612426,17064,-620,652,17087.70,32.72,-1.00,-1.0,2371
2429,612429,17036,-668,788,17067.29,32.77,-1.00,-1.0,2373
2431,612431,17096,-692,928,17135.15,32.62,-1.00,-1.0,2428
2434,612434,17044,-676,788,17075.59,32.77,-1.00,-1.0,2372
2439,612439,17092,-564,848,17122.31,32.77,-1.00,-1.0,2443
2442,612442,17024,-536,644,17044.61,32.81,-1.00,-1.0,2368
2445,612445,17096,-632,756,17124.37,32.77,-1.00,-1.0,2428
2448,612448,17020,-600,660,17043.36,32.86,-1.00,-1.0,2356
2450,612450,17032,-568,616,17052.60,32.77,-1.00,-1.0,2422
2453,612453,16960,-632,676,16985.23,32.81,-1.00,-1.0,2377
2456,612456,17108,-660,664,17133.60,32.86,-1.00,-1.0,2429
2459,612459,17056,-592,676,17079.65,32.77,-1.00,-1.0,2374
2461,612461,17144,-692,836,17178.31,32.77,-1.00,-1.0,2371
2466,612466,17068,-732,812,17102.98,32.77,-1.00,-1.0,2444
2469,612469,16976,-620,652,16999.83,32.77,-1.00,-1.0,2368
2472,612472,16952,-624,636,16975.40,32.77,-1.00,-1.0,2428
2475,612475,17096,-684,780,17127.45,32.86,-1.00,-1.0,2373
2477,612477,17100,-532,780,17126.04,32.72,-1.00,-1.0,2433
2480,612480,17044,-572,872,17075.88,32.86,-1.00,-1.0,2371
2483,612483,17080,-604,772,17108.10,32.72,-1.00,-1.0,2460
2486,612486,17068,-604,660,17091.43,32.81,-1.00,-1.0,2369
2488,612488,17108,-528,768,17133.37,32.72,-1.00,-1.0,2373
2493,612493,17148,-564,616,17168.33,32.72,-1.00,-1.0,2440
2496,612496,17032,-704,748,17062.95,32.81,-1.00,-1.0,2386
2499,612499,17144,-632,676,17168.96,32.81,-1.00,-1.0,2423
2502,612502,17064,-620,796,17093.80,32.72,-1.00,-1.0,2377
2505,612505,17124,-740,684,17153.62,32.72,-1.00,-1.0,2428
2507,612507,17048,-620,728,17074.80,32.67,-1.00,-1.0,2428
2510,612510,17068,-740,788,17102.20,32.72,-1.00,-1.0,2427
2513,612513,17068,-616,696,17093.29,32.81,-1.00,-1.0,2387
2518,612518,17040,-580,804,17068.81,32.81,-1.00,-1.0,2437
2521,612521,17012,-700,644,17038.57,32.77,-1.00,-1.0,2372
2523,612523,17020,-672,864,17055.16,32.72,-1.00,-1.0,2376
2526,612526,17056,-652,736,17084.32,32.81,-1.00,-1.0,2420
2529,612529,17056,-600,824,17086.43,32.72,-1.00,-1.0,2370
2532,612532,17036,-560,824,17065.11,32.67,-1.00,-1.0,2420
2534,612534,17052,-664,756,17081.66,32.72,-1.00,-1.0,2370
2537,612537,17048,-696,684,17075.91,32.77,-1.00,-1.0,2420
2540,612540,17104,-620,780,17133.00,32.81,-1.00,-1.0,2370
2545,612545,17040,-628,728,17067.10,32.72,-1.00,-1.0,2437
2547,612547,17120,-624,660,17144.08,32.72,-1.00,-1.0,2387
2550,612550,17140,-588,832,17170.25,32.77,-1.00,-1.0,2420
2553,612553,17124,-648,708,17150.88,32.72,-1.00,-1.0,2360
2556,612556,17060,-728,832,17095.78,32.81,-1.00,-1.0,2433
2559,612559,17036,-572,764,17062.71,32.77,-1.00,-1.0,2424
2561,612561,17052,-576,780,17079.54,32.86,-1.00,-1.0,2367
2564,612564,17076,-608,936,17112.44,32.81,-1.00,-1.0,2422
2567,612567,17064,-644,860,17097.79,32.77,-1.00,-1.0,2367
2572,612572,17080,-680,660,17106.27,32.77,-1.00,-1.0,2430
2575,612575,17104,-636,652,17128.23,32.86,-1.00,-1.0,2379
2578,612578,17036,-624,740,17063.48,32.72,-1.00,-1.0,2428
2581,612581,17092,-592,720,17117.40,32.77,-1.00,-1.0,2369
2583,612583,17144,-584,788,17172.03,32.81,-1.00,-1.0,2420
2586,612586,17124,-676,724,17152.62,32.77,-1.00,-1.0,2370
2589,612589,17072,-656,744,17100.79,32.77,-1.00,-1.0,2428
2592,612592,17020,-628,796,17050.17,32.72,-1.00,-1.0,2436
2594,612594,17060,-596,868,17092.46,32.72,-1.00,-1.0,2370
2599,612599,17056,-580,724,17081.21,32.62,-1.00,-1.0,2430
2602,612602,17060,-596,772,17087.86,32.72,-1.00,-1.0,2386
2605,612605,17076,-704,552,17099.42,32.81,-1.00,-1.0,2420
2607,612607,17060,-588,736,17085.99,32.72,-1.00,-1.0,2370
2610,612610,17036,-700,768,17067.66,32.81,-1.00,-1.0,2427
2613,612613,17092,-720,756,17123.86,32.72,-1.00,-1.0,2378
2616,612616,17112,-656,804,17143.43,32.72,-1.00,-1.0,2422
2618,612618,17000,-676,692,17027.50,32.81,-1.00,-1.0,2372
2621,612621,17028,-584,748,17054.42,32.81,-1.00,-1.0,2367
2626,612626,16956,-680,712,16984.56,32.62,-1.00,-1.0,2432
2629,612629,17096,-684,808,17128.75,32.72,-1.00,-1.0,2376
2632,612632,17176,-656,640,17200.43,32.77,-1.00,-1.0,2429
2634,612634,17116,-632,764,17144.70,32.67,-1.00,-1.0,2378
2637,612637,17072,-556,700,17095.39,32.77,-1.00,-1.0,2420
2640,612640,17068,-592,812,17097.56,32.77,-1.00,-1.0,2367
2643,612643,17148,-724,744,17179.39,32.77,-1.00,-1.0,2422
2645,612645,17088,-620,832,17119.47,32.77,-1.00,-1.0,2378
2650,612650,17000,-680,824,17033.54,32.77,-1.00,-1.0,2440
2653,612653,16972,-552,636,16992.88,32.72,-1.00,-1.0,2386
2656,612656,17040,-700,684,17068.08,32.72,-1.00,-1.0,2366
2658,612658,17084,-568,684,17107.12,32.81,-1.00,-1.0,2423
2661,612661,16972,-600,772,17000.14,32.72,-1.00,-1.0,2370
2664,612664,17076,-556,784,17103.03,32.72,-1.00,-1.0,2428
2667,612667,17000,-728,764,17032.72,32.72,-1.00,-1.0,2369
2669,612669,17128,-712,688,17156.59,32.72,-1.00,-1.0,2422
2672,612672,17120,-628,752,17148.01,32.72,-1.00,-1.0,2370
2677,612677,16992,-620,720,17018.54,32.72,-1.00,-1.0,2429
2680,612680,17028,-588,824,17058.06,32.77,-1.00,-1.0,2379
2682,612682,17036,-696,736,17066.09,32.72,-1.00,-1.0,2367
2685,612685,17064,-692,824,17097.89,32.67,-1.00,-1.0,2434
2688,612688,17172,-580,636,17193.56,32.72,-1.00,-1.0,2380
2691,612691,17132,-620,780,17160.95,32.77,-1.00,-1.0,2429
2693,612693,17072,-680,740,17101.55,32.86,-1.00,-1.0,2373
2696,612696,17076,-588,748,17102.49,32.86,-1.00,-1.0,2414
2699,612699,17132,-636,760,17160.64,32.81,-1.00,-1.0,2378
2704,612704,16992,-688,704,17020.49,32.72,-1.00,-1.0,2440
2707,612707,17104,-616,676,17128.43,32.72,-1.00,-1.0,2380
2709,612709,17104,-580,828,17133.85,32.67,-1.00,-1.0,2429
2712,612712,17084,-652,672,17109.64,32.77,-1.00,-1.0,2377
2715,612715,17048,-636,796,17078.42,32.72,-1.00,-1.0,2367
2718,612718,17048,-652,732,17076.16,32.81,-1.00,-1.0,2420
2720,612720,17112,-588,696,17136.24,32.72,-1.00,-1.0,2370
2723,612723,17036,-616,768,17064.42,32.81,-1.00,-1.0,2423
2726,612726,17036,-644,708,17062.86,32.72,-1.00,-1.0,2371
2731,612731,17024,-564,604,17044.04,32.81,-1.00,-1.0,2432
2733,612733,17104,-584,808,17133.03,32.77,-1.00,-1.0,2379
2736,612736,17020,-684,720,17048.95,32.81,-1.00,-1.0,2427
2739,612739,17056,-756,696,17086.93,32.72,-1.00,-1.0,2371
2742,612742,17020,-596,756,17047.20,32.81,-1.00,-1.0,2422
2744,612744,17024,-612,752,17051.59,32.72,-1.00,-1.0,2356
2747,612747,17112,-592,808,17141.29,32.72,-1.00,-1.0,2366
2750,612750,17076,-628,816,17107.02,32.77,-1.00,-1.0,2426
2753,612753,17092,-652,808,17123.51,32.77,-1.00,-1.0,2372
2758,612758,17124,-756,760,17157.52,32.77,-1.00,-1.0,2433
2760,612760,16992,-676,772,17022.96,32.67,-1.00,-1.0,2390
2763,612763,17108,-692,772,17139.38,32.81,-1.00,-1.0,2420
2766,612766,16936,-664,688,16962.97,32.67,-1.00,-1.0,2371
2769,612769,17108,-568,696,17131.57,32.72,-1.00,-1.0,2421
2771,612771,16976,-672,920,17014.19,32.72,-1.00,-1.0,2375
2774,612774,17032,-560,760,17058.14,32.81,-1.00,-1.0,2420
2777,612777,17040,-604,676,17064.10,32.72,-1.00,-1.0,2370
2780,612780,17060,-608,728,17086.35,32.81,-1.00,-1.0,2372
2785,612785,17044,-584,620,17065.27,32.86,-1.00,-1.0,2430
2787,612787,16932,-680,756,16962.50,32.72,-1.00,-1.0,2379
2790,612790,17048,-656,768,17077.89,32.67,-1.00,-1.0,2421
2793,612793,17060,-572,764,17086.68,32.81,-1.00,-1.0,2370
2796,612796,17040,-528,816,17067.70,32.77,-1.00,-1.0,2420
2798,612798,17000,-644,916,17036.84,32.81,-1.00,-1.0,2361
2801,612801,17108,-560,724,17132.47,32.77,-1.00,-1.0,2420
2804,612804,17064,-632,732,17091.38,32.72,-1.00,-1.0,2371
2809,612809,17060,-688,740,17089.90,32.77,-1.00,-1.0,2430
2811,612811,17068,-764,680,17098.62,32.77,-1.00,-1.0,2383
2814,612814,17044,-748,868,17082.47,32.81,-1.00,-1.0,2369
2817,612817,17120,-628,712,17146.30,32.72,-1.00,-1.0,2429
2820,612820,16980,-556,848,17010.25,32.81,-1.00,-1.0,2367
2822,612822,17140,-656,884,17175.31,32.77,-1.00,-1.0,2419
2825,612825,16996,-664,596,17019.40,32.72,-1.00,-1.0,2371
2828,612828,17080,-624,676,17104.76,32.81,-1.00,-1.0,2427
2831,612831,17020,-656,852,17053.93,32.72,-1.00,-1.0,2374
2836,612836,17080,-720,688,17109.01,32.72,-1.00,-1.0,2431
2838,612838,17024,-668,700,17051.47,32.81,-1.00,-1.0,2387
2841,612841,17072,-604,892,17105.95,32.77,-1.00,-1.0,2406
2844,612844,17084,-556,816,17112.51,32.81,-1.00,-1.0,2374
2847,612847,17052,-696,656,17078.80,32.77,-1.00,-1.0,2367
2849,612849,16992,-552,792,17019.40,32.81,-1.00,-1.0,2426
2852,612852,17104,-580,708,17128.47,32.67,-1.00,-1.0,2371
2855,612855,16916,-508,896,16947.33,32.72,-1.00,-1.0,2428
2858,612858,17172,-556,772,17198.33,32.77,-1.00,-1.0,2370
2863,612863,17132,-704,684,17160.10,32.72,-1.00,-1.0,2430
2865,612865,17076,-584,764,17103.06,32.72,-1.00,-1.0,2370
2868,612868,16968,-640,760,16997.06,32.86,-1.00,-1.0,2420
2871,612871,17024,-700,780,17056.23,32.86,-1.00,-1.0,2370
2874,612874,16964,-640,808,16995.29,32.77,-1.00,-1.0,2366
2876,612876,17024,-612,824,17054.91,32.72,-1.00,-1.0,2432
2879,612879,17084,-608,740,17110.82,32.72,-1.00,-1.0,2370
2882,612882,17064,-596,660,17087.16,32.81,-1.00,-1.0,2429
2885,612885,17088,-616,880,17121.73,32.77,-1.00,-1.0,2377
2890,612890,17064,-604,656,17087.28,32.67,-1.00,-1.0,2430
2893,612893,17024,-724,664,17052.32,32.77,-1.00,-1.0,2371
2895,612895,16992,-668,608,17015.99,32.86,-1.00,-1.0,2427
2898,612898,17016,-608,724,17042.24,32.77,-1.00,-1.0,2370
2901,612901,16976,-656,628,17000.27,32.77,-1.00,-1.0,2428
2904,612904,17020,-796,684,17052.33,32.86,-1.00,-1.0,2369
2906,612906,17060,-580,788,17088.04,32.72,-1.00,-1.0,2374
2909,612909,17052,-664,508,17072.48,32.72,-1.00,-1.0,2423
2912,612912,16956,-640,672,16981.38,32.72,-1.00,-1.0,2377
2917,612917,17100,-724,768,17132.54,32.62,-1.00,-1.0,2468
2920,612920,17048,-512,684,17069.40,32.72,-1.00,-1.0,2374
2923,612923,17088,-708,780,17120.44,32.77,-1.00,-1.0,2423
2925,612925,17084,-652,772,17113.86,32.67,-1.00,-1.0,2370
2928,612928,17132,-624,808,17162.39,32.77,-1.00,-1.0,2424
2931,612931,17208,-664,792,17239.01,32.72,-1.00,-1.0,2370
2934,612934,16992,-584,772,17019.55,32.77,-1.00,-1.0,2424
2936,612936,16996,-668,756,17025.91,32.67,-1.00,-1.0,2376
2939,612939,16968,-632,676,16993.22,32.81,-1.00,-1.0,2374
2944,612944,17076,-632,792,17106.04,32.72,-1.00,-1.0,2451
2947,612947,17048,-600,828,17078.64,32.81,-1.00,-1.0,2364
2949,612949,17012,-724,808,17046.56,32.81,-1.00,-1.0,2423
2952,612952,17112,-616,752,17139.59,32.81,-1.00,-1.0,2368
2955,612955,17068,-680,712,17096.37,32.72,-1.00,-1.0,2424
2958,612958,17068,-564,644,17089.46,32.81,-1.00,-1.0,2367
2960,612960,16992,-584,680,17015.62,32.72,-1.00,-1.0,2423
2963,612963,17036,-680,588,17059.70,32.77,-1.00,-1.0,2443
2968,612968,17000,-692,736,17029.99,32.77,-1.00,-1.0,2430
2971,612971,17036,-612,708,17061.69,32.77,-1.00,-1.0,2381
2974,612974,17184,-636,772,17213.09,32.72,-1.00,-1.0,2365
2976,612976,16988,-564,764,17014.52,32.72,-1.00,-1.0,2423
2979,612979,17072,-644,700,17098.48,32.72,-1.00,-1.0,2370
2982,612982,17088,-688,792,17120.17,32.81,-1.00,-1.0,2427
2985,612985,17140,-676,792,17171.60,32.72,-1.00,-1.0,2370
2987,612987,16984,-636,768,17013.25,32.86,-1.00,-1.0,2427
2990,612990,17112,-720,788,17145.26,32.81,-1.00,-1.0,2370
2995,612995,17168,-656,756,17197.15,32.77,-1.00,-1.0,2436
2998,612998,17032,-588,788,17060.36,32.81,-1.00,-1.0,2379
3000,613000,17084,-660,724,17112.07,32.77,-1.00,-1.0,2428
3003,613003,17108,-596,708,17133.01,32.77,-1.00,-1.0,2377
3006,613006,17080,-636,856,17113.26,32.81,-1.00,-1.0,2367
3009,613009,17104,-600,740,17130.51,32.81,-1.00,-1.0,2420
3011,613011,17040,-648,860,17073.99,32.72,-1.00,-1.0,2370
3014,613014,16996,-600,640,17018.62,32.81,-1.00,-1.0,2420
3017,613017,17016,-480,776,17040.45,32.72,-1.00,-1.0,2422
3022,613022,17112,-608,716,17137.76,32.81,-1.00,-1.0,2436
3025,613025,17176,-624,660,17200.00,32.77,-1.00,-1.0,2375
3027,613027,17036,-616,848,17068.21,32.72,-1.00,-1.0,2421
3030,613030,17168,-568,648,17189.61,32.72,-1.00,-1.0,2372
3033,613033,17064,-604,868,17096.73,32.81,-1.00,-1.0,2428
3036,613036,17076,-548,724,17100.12,32.72,-1.00,-1.0,2370
3038,613038,17172,-736,692,17201.69,32.81,-1.00,-1.0,2425
3041,613041,17108,-652,824,17140.24,32.77,-1.00,-1.0,2423
3044,613044,17080,-616,808,17110.19,32.77,-1.00,-1.0,2368
3049,613049,17048,-664,688,17074.79,32.86,-1.00,-1.0,2437
3052,613052,17160,-624,660,17184.02,32.86,-1.00,-1.0,2383
3055,613055,17000,-652,728,17028.07,32.81,-1.00,-1.0,2420
3057,613057,17044,-740,816,17079.56,32.67,-1.00,-1.0,2372
3060,613060,17080,-640,720,17107.14,32.72,-1.00,-1.0,2420
3063,613063,17116,-616,880,17149.67,32.77,-1.00,-1.0,2371
3065,613065,17060,-656,768,17089.87,32.72,-1.00,-1.0,2367
3068,613068,17148,-696,652,17174.50,32.86,-1.00,-1.0,2420
3071,613071,17000,-648,652,17024.84,32.72,-1.00,-1.0,2362
3076,613076,17036,-680,772,17067.04,32.72,-1.00,-1.0,2440
3079,613079,17112,-648,868,17146.25,32.81,-1.00,-1.0,2374
3082,613082,17004,-680,720,17032.82,32.81,-1.00,-1.0,2420
3084,613084,17012,-628,728,17039.15,32.81,-1.00,-1.0,2370
3087,613087,17064,-624,732,17091.09,32.72,-1.00,-1.0,2420
3090,613090,16968,-604,788,16997.02,32.81,-1.00,-1.0,2371
3093,613093,16992,-592,720,17017.55,32.72,-1.00,-1.0,2420
3095,613095,17024,-596,800,17053.21,32.72,-1.00,-1.0,2370
3098,613098,17016,-652,812,17047.84,32.72,-1.00,-1.0,2369
3103,613103,17164,-656,640,17188.45,32.72,-1.00,-1.0,2437
3106,613106,17000,-672,844,17034.20,32.72,-1.00,-1.0,2373
3109,613109,17012,-532,772,17037.81,32.72,-1.00,-1.0,2421
3111,613111,17100,-748,708,17130.99,32.81,-1.00,-1.0,2370
3114,613114,16948,-568,680,16971.14,32.77,-1.00,-1.0,2421
3117,613117,17016,-596,684,17040.17,32.72,-1.00,-1.0,2371
3120,613120,17072,-584,652,17094.42,32.72,-1.00,-1.0,2420
3122,613122,17132,-592,768,17159.42,32.62,-1.00,-1.0,2370
3127,613127,17132,-584,772,17159.33,32.81,-1.00,-1.0,2437
3130,613130,17104,-648,728,17131.75,32.72,-1.00,-1.0,2373
3133,613133,17112,-708,848,17147.62,32.81,-1.00,-1.0,2353
3135,613135,17012,-656,644,17036.82,32.86,-1.00,-1.0,2421
3138,613138,17032,-648,740,17060.38,32.77,-1.00,-1.0,2370
3141,613141,17028,-604,684,17052.43,32.77,-1.00,-1.0,2426
3144,613144,17116,-680,824,17149.31,32.72,-1.00,-1.0,2370
3146,613146,16988,-736,776,17021.63,32.77,-1.00,-1.0,2421
3149,613149,17016,-708,656,17043.35,32.67,-1.00,-1.0,2370
3154,613154,17096,-624,880,17130.00,32.77,-1.00,-1.0,2436
3157,613157,17028,-584,780,17055.86,32.86,-1.00,-1.0,2373
3160,613160,17060,-660,736,17088.62,32.77,-1.00,-1.0,2419
3162,613162,17020,-652,744,17048.72,32.77,-1.00,-1.0,2370
3165,613165,17128,-620,688,17153.02,32.81,-1.00,-1.0,2370
3168,613168,17060,-516,728,17083.32,32.72,-1.00,-1.0,2432
3170,613170,17052,-568,776,17079.10,32.81,-1.00,-1.0,2379
3173,613173,17132,-568,912,17165.66,32.81,-1.00,-1.0,2420
3176,613176,17088,-740,688,17117.85,32.86,-1.00,-1.0,2370
3181,613181,17060,-676,884,17096.26,32.77,-1.00,-1.0,2437
3184,613184,17012,-700,808,17045.56,32.77,-1.00,-1.0,2380
3187,613187,17048,-624,712,17074.27,32.81,-1.00,-1.0,2420
3189,613189,17148,-580,912,17182.03,32.67,-1.00,-1.0,2371
3192,613192,17008,-676,712,17036.31,32.81,-1.00,-1.0,2420
3195,613195,17056,-556,688,17078.92,32.77,-1.00,-1.0,2378
3197,613197,17068,-540,904,17100.45,32.72,-1.00,-1.0,2375
3200,613200,17096,-620,808,17126.31,32.77,-1.00,-1.0,2420
3203,613203,17068,-600,696,17092.72,32.72,-1.00,-1.0,2378
3208,613208,17116,-756,864,17154.46,32.72,-1.00,-1.0,2439
3211,613211,17084,-572,796,17112.10,32.72,-1.00,-1.0,2370
3214,613214,17088,-644,752,17116.66,32.72,-1.00,-1.0,2420
3216,613216,17080,-604,608,17101.49,32.81,-1.00,-1.0,2358
3219,613219,16960,-664,864,16994.97,32.77,-1.00,-1.0,2420
3222,613222,17104,-716,764,17136.02,32.72,-1.00,-1.0,2371
3225,613225,17032,-604,808,17061.85,32.62,-1.00,-1.0,2423
3227,613227,17060,-588,888,17093.21,32.81,-1.00,-1.0,2373
3230,613230,17088,-552,844,17117.73,32.72,-1.00,-1.0,2381
3235,613235,17100,-624,712,17126.19,32.86,-1.00,-1.0,2424
3238,613238,17012,-620,748,17039.72,32.86,-1.00,-1.0,2373
3241,613241,17072,-704,668,17099.56,32.77,-1.00,-1.0,2420
3243,613243,17028,-708,580,17052.58,32.86,-1.00,-1.0,2369
3246,613246,17072,-680,700,17099.87,32.77,-1.00,-1.0,2420
3249,613249,17176,-632,880,17210.14,32.77,-1.00,-1.0,2371
3252,613252,17016,-536,832,17044.76,32.77,-1.00,-1.0,2420
3254,613254,17084,-640,828,17116.02,32.86,-1.00,-1.0,2371
3257,613257,17084,-604,800,17113.38,32.81,-1.00,-1.0,2369
3262,613262,17104,-672,740,17133.18,32.81,-1.00,-1.0,2452
3265,613265,17008,-692,676,17035.49,32.81,-1.00,-1.0,2379
3268,613268,17016,-664,856,17050.45,32.67,-1.00,-1.0,2432
3270,613270,17036,-592,732,17061.99,32.72,-1.00,-1.0,2379
3273,613273,17000,-596,868,17032.58,32.67,-1.00,-1.0,2420
3276,613276,17100,-620,788,17129.37,32.72,-1.00,-1.0,2365
3279,613279,17044,-572,672,17066.83,32.77,-1.00,-1.0,2428
3281,613281,16988,-656,764,17017.82,32.72,-1.00,-1.0,2377
3286,613286,17008,-668,752,17037.72,32.72,-1.00,-1.0,2447
3289,613289,17016,-704,720,17045.77,32.72,-1.00,-1.0,2375
3292,613292,17168,-616,704,17193.47,32.77,-1.00,-1.0,2366
3295,613295,17148,-492,748,17171.36,32.72,-1.00,-1.0,2420
3297,613297,16964,-672,728,16992.91,32.77,-1.00,-1.0,2370
3300,613300,17144,-652,732,17172.00,32.72,-1.00,-1.0,2420
3303,613303,17140,-652,608,17163.17,32.67,-1.00,-1.0,2370
3306,613306,17048,-500,804,17074.27,32.81,-1.00,-1.0,2420
3308,613308,17096,-772,764,17130.47,32.77,-1.00,-1.0,2370
3313,613313,17000,-740,696,17030.33,32.77,-1.00,-1.0,2443
3316,613316,17076,-640,704,17102.48,32.77,-1.00,-1.0,2372
3319,613319,17124,-652,752,17152.90,32.77,-1.00,-1.0,2422
3321,613321,17168,-620,764,17196.17,32.77,-1.00,-1.0,2374
3324,613324,17132,-584,772,17159.33,32.81,-1.00,-1.0,2366
3327,613327,17012,-644,748,17040.61,32.72,-1.00,-1.0,2428
3330,613330,17052,-620,876,17085.74,32.81,-1.00,-1.0,2369
3332,613332,17032,-532,732,17056.02,32.81,-1.00,-1.0,2420
3335,613335,16980,-532,732,17004.10,32.91,-1.00,-1.0,2370
3340,613340,17148,-568,652,17169.79,32.77,-1.00,-1.0,2436
3343,613343,17028,-700,788,17060.59,32.77,-1.00,-1.0,2371
3346,613346,17060,-720,712,17090.03,32.81,-1.00,-1.0,2424
3348,613348,17060,-612,848,17092.02,32.67,-1.00,-1.0,2369
3351,613351,17000,-684,784,17031.81,32.72,-1.00,-1.0,2420
3354,613354,16968,-600,720,16993.87,32.77,-1.00,-1.0,2374
3357,613357,16960,-604,756,16987.58,32.81,-1.00,-1.0,2367
3359,613359,17072,-648,736,17100.14,32.72,-1.00,-1.0,2427
3362,613362,16980,-632,792,17010.21,32.72,-1.00,-1.0,2357
3367,613367,17056,-656,776,17086.24,32.72,-1.00,-1.0,2437
3370,613370,17076,-676,768,17106.62,32.77,-1.00,-1.0,2375
3373,613373,16984,-624,796,17014.09,32.72,-1.00,-1.0,2422
3376,613376,17076,-716,748,17107.37,32.72,-1.00,-1.0,2369
3378,613378,17048,-684,688,17075.58,32.81,-1.00,-1.0,2420
3381,613381,16984,-580,736,17009.83,32.81,-1.00,-1.0,2372
3384,613384,17096,-740,780,17129.78,32.72,-1.00,-1.0,2422
3387,613387,17036,-644,648,17060.48,32.72,-1.00,-1.0,2369
3389,613389,17036,-620,808,17066.42,32.81,-1.00,-1.0,2366
3394,613394,17112,-744,688,17141.98,32.81,-1.00,-1.0,2424
3397,613397,17096,-660,884,17131.56,32.72,-1.00,-1.0,2375
3400,613400,17028,-596,736,17054.32,32.72,-1.00,-1.0,2427
3403,613403,17088,-516,712,17110.61,32.81,-1.00,-1.0,2369
3405,613405,16992,-696,792,17024.68,32.72,-1.00,-1.0,2421
3408,613408,17104,-644,688,17129.94,32.81,-1.00,-1.0,2357
3411,613411,17064,-576,764,17090.80,32.81,-1.00,-1.0,2427
3414,613414,17028,-652,828,17060.58,32.72,-1.00,-1.0,2369
3419,613419,17104,-588,728,17129.58,32.77,-1.00,-1.0,2450
3422,613422,16940,-592,776,16968.10,32.77,-1.00,-1.0,2372
3424,613424,17116,-560,912,17149.43,32.72,-1.00,-1.0,2378
3427,613427,16976,-716,652,17003.60,32.81,-1.00,-1.0,2420
3430,613430,17040,-636,732,17067.57,32.81,-1.00,-1.0,2377
3433,613433,17084,-632,760,17112.57,32.72,-1.00,-1.0,2429
3436,613436,16924,-520,816,16951.64,32.72,-1.00,-1.0,2367
3438,613438,17092,-600,808,17121.60,32.72,-1.00,-1.0,2420
3441,613441,16900,-588,672,16923.57,32.81,-1.00,-1.0,2371
3446,613446,17016,-692,844,17050.97,32.81,-1.00,-1.0,2447
3448,613448,16956,-644,600,16978.83,32.72,-1.00,-1.0,2377
3451,613451,17112,-560,740,17137.14,32.81,-1.00,-1.0,2366
3454,613454,17036,-656,780,17066.46,32.67,-1.00,-1.0,2424
3457,613457,17036,-656,872,17070.91,32.86,-1.00,-1.0,2368
3459,613459,17052,-624,820,17083.11,32.77,-1.00,-1.0,2424
3462,613462,17020,-640,660,17044.81,32.77,-1.00,-1.0,2370
3465,613465,17056,-580,752,17082.42,32.77,-1.00,-1.0,2431
3468,613468,17144,-624,652,17167.74,32.67,-1.00,-1.0,2370
3473,613473,17008,-676,796,17040.03,32.77,-1.00,-1.0,2441
3475,613475,16948,-564,696,16971.66,32.81,-1.00,-1.0,2366
3478,613478,17096,-616,688,17120.92,32.77,-1.00,-1.0,2420
3481,613481,17032,-628,724,17058.95,32.81,-1.00,-1.0,2370
3483,613483,17024,-600,704,17049.11,32.77,-1.00,-1.0,2370
3486,613486,17084,-604,712,17109.49,32.81,-1.00,-1.0,2435
3489,613489,17004,-668,688,17031.02,32.77,-1.00,-1.0,2377
3492,613492,16908,-680,756,16938.55,32.72,-1.00,-1.0,2434
3494,613494,17200,-696,764,17231.02,32.81,-1.00,-1.0,2378
3499,613499,17032,-512,684,17053.42,32.81,-1.00,-1.0,2452
3502,613502,17044,-604,720,17069.89,32.72,-1.00,-1.0,2378
3505,613505,17028,-572,880,17060.32,32.81,-1.00,-1.0,2421
3508,613508,17100,-656,792,17130.90,32.72,-1.00,-1.0,2372
3511,613511,17000,-584,876,17032.57,32.72,-1.00,-1.0,2422
3513,613513,17108,-584,760,17134.83,32.72,-1.00,-1.0,2381
3516,613516,17104,-712,812,17138.06,32.77,-1.00,-1.0,2366
3519,613519,17024,-484,860,17052.58,32.67,-1.00,-1.0,2420
3521,613521,17088,-588,760,17115.00,32.81,-1.00,-1.0,2378
3527,613527,17056,-588,636,17077.98,32.81,-1.00,-1.0,2449
3529,613529,17112,-596,752,17138.88,32.81,-1.00,-1.0,2374
3532,613532,17084,-640,736,17111.82,32.77,-1.00,-1.0,2420
3535,613535,17016,-588,684,17039.89,32.81,-1.00,-1.0,2371
3538,613538,17068,-684,824,17101.56,32.86,-1.00,-1.0,2420
3540,613540,16964,-692,644,16990.32,32.72,-1.00,-1.0,2373
3543,613543,17052,-684,692,17079.74,32.77,-1.00,-1.0,2420
3546,613546,17160,-708,664,17187.43,32.91,-1.00,-1.0,2371
3549,613549,17076,-632,732,17103.36,32.77,-1.00,-1.0,2370
3554,613554,16940,-624,908,16975.79,32.77,-1.00,-1.0,2448
3556,613556,17032,-664,780,17062.78,32.81,-1.00,-1.0,2369
3559,613559,17044,-600,756,17071.30,32.77,-1.00,-1.0,2419
3562,613562,17040,-616,720,17066.33,32.81,-1.00,-1.0,2371
3565,613565,17088,-728,712,17118.31,32.77,-1.00,-1.0,2420
3567,613567,17136,-644,668,17161.10,32.72,-1.00,-1.0,2357
3570,613570,17132,-664,560,17154.01,32.77,-1.00,-1.0,2420
3573,613573,17088,-592,720,17113.40,32.81,-1.00,-1.0,2371
3578,613578,17028,-740,812,17063.40,32.81,-1.00,-1.0,2448
3580,613580,17060,-656,756,17089.34,32.72,-1.00,-1.0,2375
3583,613583,17076,-688,600,17100.38,32.77,-1.00,-1.0,2366
3586,613586,17024,-632,772,17053.21,32.72,-1.00,-1.0,2428
3589,613589,17096,-596,680,17119.90,32.86,-1.00,-1.0,2369
3591,613591,17088,-668,884,17123.88,32.81,-1.00,-1.0,2421
3594,613594,16952,-704,752,16983.27,32.77,-1.00,-1.0,2370
3597,613597,17148,-700,612,17173.19,32.81,-1.00,-1.0,2428
3600,613600,17096,-604,728,17122.15,32.86,-1.00,-1.0,2369
3605,613605,17004,-532,708,17027.05,32.86,-1.00,-1.0,2441
3607,613607,17060,-644,648,17084.45,32.77,-1.00,-1.0,2366
3610,613610,17000,-648,780,17030.22,32.81,-1.00,-1.0,2423
3613,613613,16984,-648,876,17018.92,32.77,-1.00,-1.0,2370
3615,613615,17032,-624,768,17060.72,32.72,-1.00,-1.0,2369
3618,613618,17044,-568,740,17069.51,32.72,-1.00,-1.0,2434
3621,613621,17104,-668,592,17127.27,32.81,-1.00,-1.0,2378
3624,613624,16992,-616,776,17020.86,32.77,-1.00,-1.0,2432
3627,613627,17024,-656,768,17053.94,32.72,-1.00,-1.0,2369
3631,613631,17112,-668,772,17142.43,32.81,-1.00,-1.0,2445
3634,613634,17016,-596,884,17049.37,32.72,-1.00,-1.0,2363
3637,613637,17084,-556,908,17117.14,32.86,-1.00,-1.0,2429
3640,613640,17084,-684,668,17110.73,32.81,-1.00,-1.0,2365
3642,613642,17168,-720,764,17200.07,32.77,-1.00,-1.0,2369
3645,613645,17036,-576,756,17062.49,32.77,-1.00,-1.0,2419
3648,613648,17060,-732,772,17093.14,32.86,-1.00,-1.0,2370
3651,613651,17028,-608,776,17056.51,32.72,-1.00,-1.0,2420
3654,613654,17068,-744,732,17099.88,32.72,-1.00,-1.0,2371
3658,613658,17028,-536,712,17051.30,32.72,-1.00,-1.0,2441
3661,613661,17024,-628,796,17054.17,32.67,-1.00,-1.0,2367
3664,613664,17236,-596,816,17265.60,32.72,-1.00,-1.0,2429
3667,613667,17052,-628,828,17083.64,32.77,-1.00,-1.0,2371
3669,613669,17112,-608,816,17142.23,32.72,-1.00,-1.0,2421
3672,613672,17044,-532,880,17074.99,32.86,-1.00,-1.0,2358
3675,613675,17032,-608,684,17056.57,32.81,-1.00,-1.0,2367
3678,613678,17020,-732,624,17047.16,32.77,-1.00,-1.0,2423
3681,613681,17128,-600,664,17151.36,32.81,-1.00,-1.0,2370
3686,613686,17096,-592,684,17119.92,32.72,-1.00,-1.0,2448
3689,613689,17140,-564,724,17164.55,32.72,-1.00,-1.0,2367
3691,613691,17092,-552,848,17121.92,32.72,-1.00,-1.0,2422
3694,613694,17056,-684,768,17086.98,32.72,-1.00,-1.0,2370
3697,613697,17132,-672,852,17166.33,32.72,-1.00,-1.0,2427
3700,613700,17040,-560,720,17064.40,32.72,-1.00,-1.0,2369
3702,613702,17136,-612,724,17162.20,32.81,-1.00,-1.0,2421
3705,613705,17068,-716,736,17098.86,32.81,-1.00,-1.0,2370
3708,613708,17096,-684,652,17122.10,32.77,-1.00,-1.0,2367
3713,613713,17044,-668,780,17074.91,32.67,-1.00,-1.0,2441
3715,613715,17076,-700,800,17109.05,32.72,-1.00,-1.0,2368
3718,613718,17016,-588,760,17043.11,32.77,-1.00,-1.0,2435
3721,613721,17112,-592,768,17139.45,32.77,-1.00,-1.0,2373
3724,613724,17100,-684,780,17131.44,32.77,-1.00,-1.0,2430
3726,613726,17096,-616,684,17120.76,32.86,-1.00,-1.0,2371
3729,613729,17020,-684,764,17050.86,32.77,-1.00,-1.0,2434
3732,613732,17048,-620,648,17071.57,32.77,-1.00,-1.0,2378
3737,613737,17012,-624,772,17040.94,32.77,-1.00,-1.0,2443
3740,613740,17112,-608,712,17137.59,32.81,-1.00,-1.0,2354
3742,613742,17160,-612,764,17187.90,32.77,-1.00,-1.0,2380
3745,613745,17024,-676,788,17055.63,32.72,-1.00,-1.0,2420
3748,613748,17044,-664,760,17073.85,32.77,-1.00,-1.0,2375
3751,613751,17000,-680,520,17021.54,32.91,-1.00,-1.0,2422
3753,613753,17080,-616,712,17105.93,32.81,-1.00,-1.0,2378
3756,613756,17188,-704,828,17222.33,32.72,-1.00,-1.0,2420
3759,613759,17060,-660,800,17091.49,32.81,-1.00,-1.0,2372
3764,613764,17032,-696,616,17057.34,32.77,-1.00,-1.0,2447
3766,613766,16996,-568,672,17018.76,32.86,-1.00,-1.0,2370
3769,613769,17028,-604,804,17057.67,32.81,-1.00,-1.0,2428
3772,613772,16968,-608,792,16997.35,32.86,-1.00,-1.0,2373
3775,613775,16988,-592,788,17016.57,32.62,-1.00,-1.0,2367
3777,613777,17084,-584,644,17106.11,32.67,-1.00,-1.0,2420
3780,613780,17028,-600,716,17053.61,32.72,-1.00,-1.0,2370
3783,613783,17044,-612,672,17068.22,32.77,-1.00,-1.0,2427
3786,613786,17088,-580,684,17111.52,32.81,-1.00,-1.0,2371
3791,613791,16996,-660,708,17023.54,32.72,-1.00,-1.0,2447
3793,613793,17096,-568,708,17120.08,32.81,-1.00,-1.0,2378
3796,613796,17008,-568,856,17039.00,32.72,-1.00,-1.0,2420
3799,613799,17096,-636,812,17127.09,32.72,-1.00,-1.0,2374
3802,613802,17008,-588,804,17037.14,32.62,-1.00,-1.0,2422
3804,613804,17172,-624,796,17201.76,32.81,-1.00,-1.0,2374
3807,613807,17072,-624,792,17101.75,32.81,-1.00,-1.0,2366
3810,613810,17100,-568,768,17126.66,32.77,-1.00,-1.0,2427
3813,613813,16972,-616,732,16998.94,32.81,-1.00,-1.0,2371
3818,613818,17064,-580,736,17089.71,32.62,-1.00,-1.0,2444
3820,613820,17112,-600,736,17138.33,32.72,-1.00,-1.0,2375
3823,613823,16960,-644,716,16987.32,32.77,-1.00,-1.0,2420
3826,613826,16960,-588,644,16982.40,32.62,-1.00,-1.0,2372
3829,613829,17048,-612,880,17081.66,32.77,-1.00,-1.0,2421
3831,613831,16996,-672,724,17024.68,32.81,-1.00,-1.0,2369
3834,613834,17088,-620,648,17111.52,32.86,-1.00,-1.0,2365
3837,613837,17052,-620,780,17081.09,32.81,-1.00,-1.0,2427
3840,613840,16996,-632,780,17025.62,32.67,-1.00,-1.0,2371
3845,613845,16992,-664,796,17023.59,32.77,-1.00,-1.0,2441
3847,613847,17108,-592,856,17139.63,32.86,-1.00,-1.0,2366
3850,613850,17092,-616,1000,17132.31,32.81,-1.00,-1.0,2420
3853,613853,17136,-580,816,17165.22,32.77,-1.00,-1.0,2376
3856,613856,17084,-600,672,17107.74,32.72,-1.00,-1.0,2420
3858,613858,17024,-596,856,17055.92,32.86,-1.00,-1.0,2370
3861,613861,16996,-660,680,17022.40,32.72,-1.00,-1.0,2420
3864,613864,17096,-716,660,17123.71,32.77,-1.00,-1.0,2382
3867,613867,17076,-696,732,17105.85,32.77,-1.00,-1.0,2367
3872,613872,17064,-612,772,17092.41,32.81,-1.00,-1.0,2448
3874,613874,17052,-536,856,17081.88,32.81,-1.00,-1.0,2369
3877,613877,17060,-560,764,17086.28,32.81,-1.00,-1.0,2420
3880,613880,16992,-588,696,17016.41,32.72,-1.00,-1.0,2373
3883,613883,17084,-584,768,17111.22,32.77,-1.00,-1.0,2420
3885,613885,17088,-732,756,17120.37,32.72,-1.00,-1.0,2373
3888,613888,17024,-692,712,17052.93,32.86,-1.00,-1.0,2420
3891,613891,17096,-616,688,17120.92,32.77,-1.00,-1.0,2378
3896,613896,17064,-520,780,17089.73,32.86,-1.00,-1.0,2448
3899,613899,17072,-660,584,17094.73,32.77,-1.00,-1.0,2367
3901,613901,17152,-612,704,17177.35,32.81,-1.00,-1.0,2374
3904,613904,17072,-572,820,17101.25,32.81,-1.00,-1.0,2407
3907,613907,17108,-604,728,17134.13,32.72,-1.00,-1.0,2369
3909,613909,17044,-640,780,17073.84,32.72,-1.00,-1.0,2430
3912,613912,16976,-632,744,17004.04,32.72,-1.00,-1.0,2377
3915,613915,17020,-612,708,17045.71,32.72,-1.00,-1.0,2409
3918,613918,16964,-720,788,16997.55,32.81,-1.00,-1.0,2373
3923,613923,17132,-628,844,17164.27,32.81,-1.00,-1.0,2448
3926,613926,17056,-640,700,17082.35,32.77,-1.00,-1.0,2366
3928,613928,17120,-740,728,17151.44,32.72,-1.00,-1.0,2424
3931,613931,17092,-532,716,17115.26,32.72,-1.00,-1.0,2370
3934,613934,17048,-644,784,17078.16,32.72,-1.00,-1.0,2367
3937,613937,17052,-720,752,17083.75,32.86,-1.00,-1.0,2423
3939,613939,17076,-700,744,17106.53,32.77,-1.00,-1.0,2377
3942,613942,17080,-620,740,17107.26,32.77,-1.00,-1.0,2420
3945,613945,16928,-692,796,16960.83,32.72,-1.00,-1.0,2378
3950,613950,17168,-688,696,17195.87,32.72,-1.00,-1.0,2448
3953,613953,17068,-564,528,17085.48,32.72,-1.00,-1.0,2367
3955,613955,17152,-604,780,17180.35,32.77,-1.00,-1.0,2434
3958,613958,16976,-656,764,17005.84,32.81,-1.00,-1.0,2370
3961,613961,17044,-684,784,17075.73,32.72,-1.00,-1.0,2428
3964,613964,16996,-744,856,17033.80,32.72,-1.00,-1.0,2370
3966,613966,17044,-636,848,17076.93,32.77,-1.00,-1.0,2370
3969,613969,16984,-692,904,17022.11,32.72,-1.00,-1.0,2420
3972,613972,17096,-612,792,17125.28,32.81,-1.00,-1.0,2378
3977,613977,17012,-724,656,17040.03,32.72,-1.00,-1.0,2447
3980,613980,17020,-592,784,17048.33,32.81,-1.00,-1.0,2367
3982,613982,17028,-624,720,17054.63,32.86,-1.00,-1.0,2428
3985,613985,17128,-556,708,17151.64,32.81,-1.00,-1.0,2376
3988,613988,17004,-576,696,17027.98,32.77,-1.00,-1.0,2410
3991,613991,17056,-696,832,17090.46,32.72,-1.00,-1.0,2370
3993,613993,16988,-612,716,17014.09,32.77,-1.00,-1.0,2427
3996,613996,17060,-644,696,17086.33,32.77,-1.00,-1.0,2377
3999,613999,17072,-632,784,17101.67,32.81,-1.00,-1.0,2370
4004,614004,17020,-760,560,17046.16,32.72,-1.00,-1.0,2451
4007,614007,17048,-776,796,17084.21,32.77,-1.00,-1.0,2371
4009,614009,17076,-672,804,17108.12,32.77,-1.00,-1.0,2427
4012,614012,16932,-496,844,16960.28,32.67,-1.00,-1.0,2387
4015,614015,17024,-616,668,17048.23,32.77,-1.00,-1.0,2422
4018,614018,17012,-652,620,17035.78,32.77,-1.00,-1.0,2379
4021,614021,17012,-632,704,17038.29,32.77,-1.00,-1.0,2422
4023,614023,17052,-700,688,17080.22,32.77,-1.00,-1.0,2378
4026,614026,17048,-664,784,17078.93,32.77,-1.00,-1.0,2367
4031,614031,16936,-744,744,16968.65,32.77,-1.00,-1.0,2444
4034,614034,17000,-704,660,17027.37,32.77,-1.00,-1.0,2375
4037,614037,17008,-644,716,17035.24,32.81,-1.00,-1.0,2422
4039,614039,17076,-672,764,17106.29,32.67,-1.00,-1.0,2379
4042,614042,17056,-704,728,17086.04,32.81,-1.00,-1.0,2420
4045,614045,17040,-664,768,17070.22,32.77,-1.00,-1.0,2371
4048,614048,17216,-672,828,17248.99,32.72,-1.00,-1.0,2424
4050,614050,17016,-612,816,17046.54,32.77,-1.00,-1.0,2373
4055,614055,17028,-636,804,17058.83,32.72,-1.00,-1.0,2428
4058,614058,17040,-696,744,17070.43,32.81,-1.00,-1.0,2368
4060,614060,17064,-604,868,17096.73,32.77,-1.00,-1.0,2367
4063,614063,17024,-672,676,17050.66,32.67,-1.00,-1.0,2435
4066,614066,17060,-532,844,17089.15,32.81,-1.00,-1.0,2381
4069,614069,16976,-704,660,17003.41,32.77,-1.00,-1.0,2427
4071,614071,17072,-612,776,17100.58,32.67,-1.00,-1.0,2374
4074,614074,17160,-660,652,17185.06,32.67,-1.00,-1.0,2431
4077,614077,17092,-696,724,17121.48,32.72,-1.00,-1.0,2358
4082,614082,16940,-716,592,16965.46,32.77,-1.00,-1.0,2448
4084,614084,17120,-736,696,17149.94,32.77,-1.00,-1.0,2378
4087,614087,16948,-608,728,16974.52,32.81,-1.00,-1.0,2419
4090,614090,17088,-648,752,17116.81,32.77,-1.00,-1.0,2360
4093,614093,17084,-592,752,17110.79,32.81,-1.00,-1.0,2367
4095,614095,17088,-636,724,17115.15,32.67,-1.00,-1.0,2420
4098,614098,17044,-772,704,17075.99,32.62,-1.00,-1.0,2371
4101,614101,17152,-716,760,17183.75,32.77,-1.00,-1.0,2420
4104,614104,17080,-636,708,17106.49,32.72,-1.00,-1.0,2370
4109,614109,17088,-548,876,17119.21,32.81,-1.00,-1.0,2448
4112,614112,17080,-604,928,17115.85,32.81,-1.00,-1.0,2368
4115,614115,17072,-692,712,17100.85,32.72,-1.00,-1.0,2421
4117,614117,17008,-660,944,17046.96,32.81,-1.00,-1.0,2374
4120,614120,16956,-632,780,16985.69,32.81,-1.00,-1.0,2420
4123,614123,17020,-684,796,17052.33,32.81,-1.00,-1.0,2372
4126,614126,17060,-668,732,17088.76,32.67,-1.00,-1.0,2354
4128,614128,17180,-696,736,17209.84,32.77,-1.00,-1.0,2420
4131,614131,17040,-552,632,17060.65,32.77,-1.00,-1.0,2373
4136,614136,17136,-620,744,17163.35,32.81,-1.00,-1.0,2429
4139,614139,17112,-672,764,17142.22,32.72,-1.00,-1.0,2368
4142,614142,17112,-692,748,17142.31,32.77,-1.00,-1.0,2420
4144,614144,17080,-696,804,17113.07,32.72,-1.00,-1.0,2370
4147,614147,17112,-696,708,17140.78,32.77,-1.00,-1.0,2421
4150,614150,17072,-724,724,17102.68,32.81,-1.00,-1.0,2370
4153,614153,17080,-536,696,17102.58,32.77,-1.00,-1.0,2420
4155,614155,16976,-632,868,17009.92,32.72,-1.00,-1.0,2370
4158,614158,17016,-512,740,17039.78,32.67,-1.00,-1.0,2367
4163,614163,17060,-668,844,17093.92,32.86,-1.00,-1.0,2442
4166,614166,17080,-652,744,17108.62,32.72,-1.00,-1.0,2370
4169,614169,17124,-580,700,17148.11,32.72,-1.00,-1.0,2472
4171,614171,17004,-648,920,17041.20,32.91,-1.00,-1.0,2377
4174,614174,17064,-624,844,17096.25,32.77,-1.00,-1.0,2424
4177,614177,17020,-644,812,17051.52,32.81,-1.00,-1.0,2371
4180,614180,17128,-600,780,17156.25,32.81,-1.00,-1.0,2425
4182,614182,17044,-648,628,17067.87,32.72,-1.00,-1.0,2357
4187,614187,16944,-684,676,16971.27,32.72,-1.00,-1.0,2443
4190,614190,17076,-656,824,17108.45,32.81,-1.00,-1.0,2383
4193,614193,17004,-620,720,17030.53,32.81,-1.00,-1.0,2368
4196,614196,16956,-656,712,16983.62,32.77,-1.00,-1.0,2431
4198,614198,17064,-660,696,17090.94,32.86,-1.00,-1.0,2371
4201,614201,17076,-632,812,17106.97,32.77,-1.00,-1.0,2421
4204,614204,17116,-592,704,17140.70,32.67,-1.00,-1.0,2371
4207,614207,16928,-580,792,16956.44,32.77,-1.00,-1.0,2421
4209,614209,17008,-636,784,17037.94,32.77,-1.00,-1.0,2371
4214,614214,17040,-668,760,17070.02,32.67,-1.00,-1.0,2433
4217,614217,17056,-648,808,17087.42,32.77,-1.00,-1.0,2367
4220,614220,17060,-720,792,17093.54,32.77,-1.00,-1.0,2367
4222,614222,17048,-632,836,17080.18,32.81,-1.00,-1.0,2446
4225,614225,17072,-696,788,17104.34,32.81,-1.00,-1.0,2371
4228,614228,17008,-692,680,17035.65,32.81,-1.00,-1.0,2431
4231,614231,16952,-592,792,16980.81,32.81,-1.00,-1.0,2371
4233,614233,17028,-552,644,17049.11,32.81,-1.00,-1.0,2431
4236,614236,17052,-576,800,17080.47,32.81,-1.00,-1.0,2385
4241,614241,17036,-692,704,17064.58,32.72,-1.00,-1.0,2439
4244,614244,17096,-628,696,17121.68,32.72,-1.00,-1.0,2378
4247,614247,17008,-624,592,17029.74,32.81,-1.00,-1.0,2440
4249,614249,17096,-664,696,17123.04,32.72,-1.00,-1.0,2381
4252,614252,17044,-632,704,17070.24,32.77,-1.00,-1.0,2368
4255,614255,17104,-688,812,17137.08,32.77,-1.00,-1.0,2427
4258,614258,17132,-632,780,17161.39,32.86,-1.00,-1.0,2370
4260,614260,17076,-652,716,17103.44,32.81,-1.00,-1.0,2421
4263,614263,16964,-676,684,16991.24,32.77,-1.00,-1.0,2373
4269,614269,17004,-656,748,17033.08,32.77,-1.00,-1.0,2433
4272,614272,17136,-596,752,17162.84,32.67,-1.00,-1.0,2369
4274,614274,17056,-664,660,17081.68,32.72,-1.00,-1.0,2430
4277,614277,17060,-684,804,17092.63,32.77,-1.00,-1.0,2371
4280,614280,17104,-616,728,17130.56,32.72,-1.00,-1.0,2429
4283,614283,17044,-684,584,17067.71,32.77,-1.00,-1.0,2370
4285,614285,17004,-644,692,17030.26,32.81,-1.00,-1.0,2374
4288,614288,17012,-636,800,17042.67,32.67,-1.00,-1.0,2424
4291,614291,17028,-572,944,17063.74,32.72,-1.00,-1.0,2371
4295,614295,17008,-668,776,17038.79,32.72,-1.00,-1.0,2433
4298,614298,17072,-656,920,17109.35,32.77,-1.00,-1.0,2368
4301,614301,17016,-636,768,17045.19,32.81,-1.00,-1.0,2438
4304,614304,17024,-668,808,17056.25,32.72,-1.00,-1.0,2370
4306,614306,17088,-592,684,17111.93,32.81,-1.00,-1.0,2424
4309,614309,17168,-636,684,17193.39,32.81,-1.00,-1.0,2371
4312,614312,17064,-568,688,17087.31,32.72,-1.00,-1.0,2431
4315,614315,17064,-572,808,17092.69,32.81,-1.00,-1.0,2370
4317,614317,17048,-632,832,17079.99,32.77,-1.00,-1.0,2367
4322,614322,17040,-676,688,17067.28,32.77,-1.00,-1.0,2441
4325,614325,16956,-612,776,16984.78,32.77,-1.00,-1.0,2370
4328,614328,16988,-612,776,17016.72,32.77,-1.00,-1.0,2438
4330,614330,17032,-588,740,17058.21,32.86,-1.00,-1.0,2377
4333,614333,17028,-656,672,17053.88,32.86,-1.00,-1.0,2421
4336,614336,17016,-704,632,17042.28,32.86,-1.00,-1.0,2361
4339,614339,17136,-628,680,17160.98,32.77,-1.00,-1.0,2422
4341,614341,17072,-616,732,17098.79,32.86,-1.00,-1.0,2374
4346,614346,16988,-648,648,17012.70,32.67,-1.00,-1.0,2442
4349,614349,17048,-684,728,17077.24,32.77,-1.00,-1.0,2377
4352,614352,17044,-708,808,17077.82,32.72,-1.00,-1.0,2368
4355,614355,17108,-548,760,17133.64,32.72,-1.00,-1.0,2417
4357,614357,17036,-644,780,17066.00,32.72,-1.00,-1.0,2371
4360,614360,17044,-600,564,17063.88,32.81,-1.00,-1.0,2420
4363,614363,17048,-608,632,17070.54,32.72,-1.00,-1.0,2373
4366,614366,17004,-644,800,17034.99,32.72,-1.00,-1.0,2421
4368,614368,17024,-580,836,17054.38,32.72,-1.00,-1.0,2371
4373,614373,17012,-632,820,17043.47,32.72,-1.00,-1.0,2419
4376,614376,17076,-580,664,17098.74,32.77,-1.00,-1.0,2369
4379,614379,17068,-608,660,17091.57,32.72,-1.00,-1.0,2432
4382,614382,17000,-608,700,17025.27,32.72,-1.00,-1.0,2368
4384,614384,17052,-548,752,17077.37,32.77,-1.00,-1.0,2366
4387,614387,17076,-624,736,17103.24,32.77,-1.00,-1.0,2428
4390,614390,17024,-628,744,17051.82,32.72,-1.00,-1.0,2370
4392,614392,17040,-552,732,17064.65,32.67,-1.00,-1.0,2433
4395,614395,17048,-620,752,17075.84,32.81,-1.00,-1.0,2371
4400,614400,17044,-720,832,17079.48,32.81,-1.00,-1.0,2434
4403,614403,17032,-640,712,17058.88,32.81,-1.00,-1.0,2367
4406,614406,17032,-584,792,17060.40,32.77,-1.00,-1.0,2439
4409,614409,17072,-556,728,17096.56,32.72,-1.00,-1.0,2370
4411,614411,17080,-628,868,17113.57,32.67,-1.00,-1.0,2382
4414,614414,17072,-608,736,17098.67,32.81,-1.00,-1.0,2424
4417,614417,17004,-572,740,17029.70,32.86,-1.00,-1.0,2377
4420,614420,17008,-656,756,17037.43,32.81,-1.00,-1.0,2428
4422,614422,17048,-644,728,17075.69,32.77,-1.00,-1.0,2374
4427,614427,17152,-652,904,17188.18,32.86,-1.00,-1.0,2434
4430,614430,17036,-720,684,17064.92,32.72,-1.00,-1.0,2367
4433,614433,17072,-668,732,17100.74,32.77,-1.00,-1.0,2441
4436,614436,16956,-592,812,16985.75,32.72,-1.00,-1.0,2370
4438,614438,17088,-736,804,17122.73,32.77,-1.00,-1.0,2426
4441,614441,17064,-576,908,17097.85,32.86,-1.00,-1.0,2371
4444,614444,17024,-672,676,17050.66,32.81,-1.00,-1.0,2369
4447,614447,17044,-636,740,17071.91,32.81,-1.00,-1.0,2423
4449,614449,17060,-604,640,17082.68,32.86,-1.00,-1.0,2375
4454,614454,17012,-672,808,17044.43,32.77,-1.00,-1.0,2433
4457,614457,17008,-556,832,17037.41,32.86,-1.00,-1.0,2367
4460,614460,17192,-740,684,17221.51,32.67,-1.00,-1.0,2437
4463,614463,17052,-612,824,17082.86,32.77,-1.00,-1.0,2370
4465,614465,17104,-632,616,17126.75,32.81,-1.00,-1.0,2436
4468,614468,17124,-612,816,17154.35,32.77,-1.00,-1.0,2371
4471,614471,17068,-596,832,17098.66,32.91,-1.00,-1.0,2428
4474,614474,17052,-664,768,17082.20,32.77,-1.00,-1.0,2371
4476,614476,17016,-800,724,17050.17,32.81,-1.00,-1.0,2380
4481,614481,16984,-620,784,17013.39,32.81,-1.00,-1.0,2433
4484,614484,17024,-648,636,17048.20,32.72,-1.00,-1.0,2370
4487,614487,17080,-668,664,17105.95,32.77,-1.00,-1.0,2432
4490,614490,17024,-732,752,17056.32,32.72,-1.00,-1.0,2370
4492,614492,17052,-544,712,17075.53,32.77,-1.00,-1.0,2421
4495,614495,17072,-596,628,17093.94,32.81,-1.00,-1.0,2373
4498,614498,16948,-688,884,16984.98,32.86,-1.00,-1.0,2422
4501,614501,17164,-612,684,17188.52,32.81,-1.00,-1.0,2370
4505,614505,17092,-636,720,17118.98,32.81,-1.00,-1.0,2446
4508,614508,17028,-588,860,17059.84,32.72,-1.00,-1.0,2377
4511,614511,17100,-692,848,17134.99,32.72,-1.00,-1.0,2367
4513,614513,17148,-696,676,17175.43,32.77,-1.00,-1.0,2431
4516,614516,16964,-584,720,16989.31,32.81,-1.00,-1.0,2359
4519,614519,17040,-608,696,17065.04,32.77,-1.00,-1.0,2429
4522,614522,17024,-652,736,17052.37,32.72,-1.00,-1.0,2370
4525,614525,17048,-672,712,17076.09,32.81,-1.00,-1.0,2424
4527,614527,17020,-608,760,17047.80,32.81,-1.00,-1.0,2379
4533,614533,17068,-612,756,17095.69,32.81,-1.00,-1.0,2440
4535,614535,17008,-672,868,17043.39,32.81,-1.00,-1.0,2375
4538,614538,17044,-496,656,17063.83,32.77,-1.00,-1.0,2431
4541,614541,17060,-620,772,17088.71,32.81,-1.00,-1.0,2371
4543,614543,17048,-640,792,17078.38,32.77,-1.00,-1.0,2366
4546,614546,16956,-616,748,16983.67,32.72,-1.00,-1.0,2421
4549,614549,17104,-564,756,17129.99,32.86,-1.00,-1.0,2378
4552,614552,17040,-660,812,17072.10,32.72,-1.00,-1.0,2421
4555,614555,17044,-580,648,17066.17,32.81,-1.00,-1.0,2378
4560,614560,17024,-604,768,17052.02,32.81,-1.00,-1.0,2437
4562,614562,17160,-644,840,17192.61,32.81,-1.00,-1.0,2371
4565,614565,17144,-772,700,17175.64,32.77,-1.00,-1.0,2437
4568,614568,17020,-660,792,17051.20,32.81,-1.00,-1.0,2358
4571,614571,17056,-616,656,17079.72,32.86,-1.00,-1.0,2429
4573,614573,17004,-680,764,17034.73,32.72,-1.00,-1.0,2379
4576,614576,17056,-616,636,17078.97,32.77,-1.00,-1.0,2366
4579,614579,17092,-632,716,17118.66,32.72,-1.00,-1.0,2428
4582,614582,17016,-600,764,17043.71,32.77,-1.00,-1.0,2366
4587,614587,16952,-624,688,16977.43,32.72,-1.00,-1.0,2427
4589,614589,17032,-652,772,17061.95,32.81,-1.00,-1.0,2371
4592,614592,17116,-744,700,17146.46,32.77,-1.00,-1.0,2430
4595,614595,17048,-596,952,17084.96,32.77,-1.00,-1.0,2374
4598,614598,17152,-636,732,17179.39,32.77,-1.00,-1.0,2420
4600,614600,17032,-600,660,17055.34,32.77,-1.00,-1.0,2374
4603,614603,17184,-632,836,17215.93,32.72,-1.00,-1.0,2375
4606,614606,17144,-552,684,17166.52,32.91,-1.00,-1.0,2420
4609,614609,17160,-604,776,17188.15,32.86,-1.00,-1.0,2371
4614,614614,17000,-620,880,17034.05,32.77,-1.00,-1.0,2433
4616,614616,17020,-612,820,17050.73,32.77,-1.00,-1.0,2367
4619,614619,16944,-644,644,16968.46,32.77,-1.00,-1.0,2417
4622,614622,17044,-580,660,17066.63,32.77,-1.00,-1.0,2373
4625,614625,17076,-620,740,17103.27,32.77,-1.00,-1.0,2421
4627,614627,17048,-616,696,17073.32,32.77,-1.00,-1.0,2370
4630,614630,17112,-644,712,17138.91,32.77,-1.00,-1.0,2408
4633,614633,17028,-696,648,17054.53,32.86,-1.00,-1.0,2371
4636,614636,17096,-592,656,17118.82,32.81,-1.00,-1.0,2368
4641,614641,16944,-656,712,16971.63,32.81,-1.00,-1.0,2433
4643,614643,17020,-660,736,17048.69,32.77,-1.00,-1.0,2367
4646,614646,17092,-608,704,17117.29,32.81,-1.00,-1.0,2431
4649,614649,17148,-684,728,17177.07,32.77,-1.00,-1.0,2371
4652,614652,17084,-632,652,17108.12,32.72,-1.00,-1.0,2421
4654,614654,17048,-624,924,17084.42,32.72,-1.00,-1.0,2372
4657,614657,17076,-656,792,17106.94,32.81,-1.00,-1.0,2421
4660,614660,17080,-612,776,17108.57,32.77,-1.00,-1.0,2371
4665,614665,17072,-664,868,17106.94,32.77,-1.00,-1.0,2434
4667,614667,17096,-600,740,17122.52,32.77,-1.00,-1.0,2375
4670,614670,17092,-532,896,17123.73,32.81,-1.00,-1.0,2367
4673,614673,17092,-656,744,17120.76,32.81,-1.00,-1.0,2439
4676,614676,17168,-680,744,17197.56,32.81,-1.00,-1.0,2366
4678,614678,17092,-516,752,17116.31,32.81,-1.00,-1.0,2424
4681,614681,17096,-680,780,17127.29,32.72,-1.00,-1.0,2368
4684,614684,17060,-760,624,17088.32,32.77,-1.00,-1.0,2428
4687,614687,16992,-652,924,17029.59,32.81,-1.00,-1.0,2366
4691,614691,17128,-656,752,17157.05,32.86,-1.00,-1.0,2441
4694,614694,17072,-616,728,17098.62,32.95,-1.00,-1.0,2371
4697,614697,17064,-680,644,17089.68,32.86,-1.00,-1.0,2420
4700,614700,17084,-732,672,17112.88,32.77,-1.00,-1.0,2367
4702,614702,17064,-644,712,17090.98,32.72,-1.00,-1.0,2414
4705,614705,17060,-700,808,17093.46,32.81,-1.00,-1.0,2438
4708,614708,17028,-712,684,17056.60,32.86,-1.00,-1.0,2372
4711,614711,17008,-656,656,17033.28,32.72,-1.00,-1.0,2423
4714,614714,17056,-672,772,17086.68,32.86,-1.00,-1.0,2374
4718,614718,17020,-656,732,17048.36,32.81,-1.00,-1.0,2433
4721,614721,17072,-680,772,17102.97,32.81,-1.00,-1.0,2366
4724,614724,16944,-696,704,16972.89,32.81,-1.00,-1.0,2437
4727,614727,17088,-644,612,17111.08,32.72,-1.00,-1.0,2369
4729,614729,17036,-536,732,17060.14,32.81,-1.00,-1.0,2421
4732,614732,17116,-668,756,17145.71,32.81,-1.00,-1.0,2370
4735,614735,17084,-636,792,17114.17,32.77,-1.00,-1.0,2367
4738,614738,16908,-624,780,16937.48,32.72,-1.00,-1.0,2430
4741,614741,17076,-604,772,17104.11,32.86,-1.00,-1.0,2379
4746,614746,17064,-604,888,17097.76,32.77,-1.00,-1.0,2433
4748,614748,17040,-688,712,17068.74,32.72,-1.00,-1.0,2366
4751,614751,17036,-708,840,17071.38,32.77,-1.00,-1.0,2442
4754,614754,17028,-548,700,17051.19,32.77,-1.00,-1.0,2375
4757,614757,17000,-656,780,17030.52,32.72,-1.00,-1.0,2431
4759,614759,17040,-652,940,17078.36,32.77,-1.00,-1.0,2371
4762,614762,17096,-752,752,17129.05,32.81,-1.00,-1.0,2414
4765,614765,17056,-560,624,17076.60,32.77,-1.00,-1.0,2374
4768,614768,17068,-620,680,17092.79,32.81,-1.00,-1.0,2373
4773,614773,17120,-636,748,17148.13,32.81,-1.00,-1.0,2439
4775,614775,17008,-600,792,17037.00,32.77,-1.00,-1.0,2369
4778,614778,16976,-668,608,17000.01,32.81,-1.00,-1.0,2437
4781,614781,17004,-588,608,17025.02,32.77,-1.00,-1.0,2371
4784,614784,17008,-592,816,17037.85,32.72,-1.00,-1.0,2427
4786,614786,17108,-600,736,17134.33,32.81,-1.00,-1.0,2375
4789,614789,17044,-568,720,17068.65,32.81,-1.00,-1.0,2420
4792,614792,17028,-564,688,17051.22,32.77,-1.00,-1.0,2356
4795,614795,17084,-600,696,17108.70,32.72,-1.00,-1.0,2368
4800,614800,17052,-756,792,17087.12,32.72,-1.00,-1.0,2436
4802,614802,17116,-656,808,17147.61,32.81,-1.00,-1.0,2374
4805,614805,17116,-668,760,17145.88,32.72,-1.00,-1.0,2429
4808,614808,17016,-612,664,17039.94,32.81,-1.00,-1.0,2355
4811,614811,16916,-616,748,16943.73,32.72,-1.00,-1.0,2422
4813,614813,17116,-620,772,17144.62,32.81,-1.00,-1.0,2374
4816,614816,16944,-584,736,16970.03,32.81,-1.00,-1.0,2420
4819,614819,17168,-608,740,17194.69,32.81,-1.00,-1.0,2371
4824,614824,17060,-672,892,17096.52,32.81,-1.00,-1.0,2439
4827,614827,17108,-604,672,17131.84,32.81,-1.00,-1.0,2375
4829,614829,17004,-656,904,17040.64,32.81,-1.00,-1.0,2366
4832,614832,17072,-644,756,17100.86,32.77,-1.00,-1.0,2429
4835,614835,17048,-552,696,17071.13,32.77,-1.00,-1.0,2370
4838,614838,17132,-684,844,17166.41,32.77,-1.00,-1.0,2419
4840,614840,17040,-824,768,17077.19,32.81,-1.00,-1.0,2370
4843,614843,17056,-656,532,17076.90,32.77,-1.00,-1.0,2419
4846,614846,17076,-740,752,17108.56,32.77,-1.00,-1.0,2370
4851,614851,17084,-588,888,17117.17,32.77,-1.00,-1.0,2431
4853,614853,17088,-596,780,17116.17,32.81,-1.00,-1.0,2356
4856,614856,17104,-632,804,17134.54,32.81,-1.00,-1.0,2416
4859,614859,17076,-680,872,17111.77,32.72,-1.00,-1.0,2372
4862,614862,17080,-580,860,17111.47,32.67,-1.00,-1.0,2367
4864,614864,16992,-704,840,17027.31,32.72,-1.00,-1.0,2428
4867,614867,16988,-592,760,17015.29,32.77,-1.00,-1.0,2370
4870,614870,17136,-604,792,17164.92,32.72,-1.00,-1.0,2427
4873,614873,17044,-600,692,17068.59,32.77,-1.00,-1.0,2378
4878,614878,17100,-552,980,17136.95,32.77,-1.00,-1.0,2431
4881,614881,17100,-708,748,17130.99,32.77,-1.00,-1.0,2367
4883,614883,16952,-628,668,16976.78,32.77,-1.00,-1.0,2429
4886,614886,17064,-632,696,17089.88,32.77,-1.00,-1.0,2370
4889,614889,17076,-652,860,17110.07,32.77,-1.00,-1.0,2428
4892,614892,17068,-592,752,17094.81,32.77,-1.00,-1.0,2369
4894,614894,17000,-572,748,17026.06,32.81,-1.00,-1.0,2374
4897,614897,17128,-624,720,17154.48,32.81,-1.00,-1.0,2423
4900,614900,17004,-584,804,17033.01,32.86,-1.00,-1.0,2378
4905,614905,17060,-648,680,17085.84,32.81,-1.00,-1.0,2440
4907,614907,17020,-684,708,17048.45,32.72,-1.00,-1.0,2371
4910,614910,17168,-616,844,17199.77,32.81,-1.00,-1.0,2423
4913,614913,17056,-604,628,17078.24,32.72,-1.00,-1.0,2378
4916,614916,17140,-640,668,17164.95,32.77,-1.00,-1.0,2431
4918,614918,17128,-664,684,17154.51,32.81,-1.00,-1.0,2377
4921,614921,17068,-604,724,17094.02,32.81,-1.00,-1.0,2420
4924,614924,17048,-568,752,17074.03,32.81,-1.00,-1.0,2358
4927,614927,17052,-576,844,17082.59,32.81,-1.00,-1.0,2363
4932,614932,17124,-592,808,17153.27,32.77,-1.00,-1.0,2432
4934,614934,17120,-560,700,17143.45,32.91,-1.00,-1.0,2367
4937,614937,17096,-672,688,17123.03,32.77,-1.00,-1.0,2428
4940,614940,17148,-656,840,17181.09,32.77,-1.00,-1.0,2369
4943,614943,17080,-600,792,17108.88,32.77,-1.00,-1.0,2420
4945,614945,17128,-700,904,17166.12,32.67,-1.00,-1.0,2370
4948,614948,17220,-672,676,17246.36,32.77,-1.00,-1.0,2420
4951,614951,16984,-624,720,17010.70,32.72,-1.00,-1.0,2378
4956,614956,16984,-680,924,17022.70,32.81,-1.00,-1.0,2439
4959,614959,17020,-556,856,17050.58,32.72,-1.00,-1.0,2368
4961,614961,17128,-632,860,17161.22,32.72,-1.00,-1.0,2369
4964,614964,17024,-664,784,17054.97,32.77,-1.00,-1.0,2429
4967,614967,17016,-620,984,17055.70,32.77,-1.00,-1.0,2371
4970,614970,17096,-632,708,17122.32,32.77,-1.00,-1.0,2420
4972,614972,17056,-580,648,17078.16,32.67,-1.00,-1.0,2370
4975,614975,17036,-588,792,17064.53,32.67,-1.00,-1.0,2407
4978,614978,17148,-628,708,17174.10,32.86,-1.00,-1.0,2373
4983,614983,16980,-724,704,17010.00,32.72,-1.00,-1.0,2432
4986,614986,17108,-776,744,17141.74,32.81,-1.00,-1.0,2368
4988,614988,17036,-588,704,17060.68,32.86,-1.00,-1.0,2374
4991,614991,17052,-636,860,17085.51,32.86,-1.00,-1.0,2429
4994,614994,17056,-688,696,17084.05,32.77,-1.00,-1.0,2370
4997,614997,17004,-712,860,17040.62,32.86,-1.00,-1.0,2422
4999,614999,17044,-552,772,17070.40,32.77,-1.00,-1.0,2373
5002,615002,17056,-616,696,17081.31,32.67,-1.00,-1.0,2420
5005,615005,17044,-668,792,17075.46,32.77,-1.00,-1.0,2357
5010,615010,17052,-648,752,17080.87,32.77,-1.00,-1.0,2439
5013,615013,17028,-584,704,17052.55,32.81,-1.00,-1.0,2366
5015,615015,17048,-712,696,17077.05,32.77,-1.00,-1.0,2440
5018,615018,17052,-564,604,17072.01,32.72,-1.00,-1.0,2377
5021,615021,16928,-564,872,16959.82,32.81,-1.00,-1.0,2366
5024,615024,17088,-608,720,17113.96,32.72,-1.00,-1.0,2421
5026,615026,17036,-648,728,17063.86,32.72,-1.00,-1.0,2370
5029,615029,17016,-560,852,17046.52,32.72,-1.00,-1.0,2420
5032,615032,17064,-612,728,17090.48,32.77,-1.00,-1.0,2372
5037,615037,17052,-596,712,17077.26,32.77,-1.00,-1.0,2439
5040,615040,16992,-580,724,17017.30,32.77,-1.00,-1.0,2373
5043,615043,17104,-600,708,17129.16,32.77,-1.00,-1.0,2431
5045,615045,17048,-620,844,17080.14,32.77,-1.00,-1.0,2384
5048,615048,16924,-600,696,16948.93,32.72,-1.00,-1.0,2422
5051,615051,17028,-588,844,17059.04,32.77,-1.00,-1.0,2373
5053,615053,17008,-604,856,17040.23,32.72,-1.00,-1.0,2367
5056,615056,16904,-592,868,16936.62,32.81,-1.00,-1.0,2420
5059,615059,17088,-688,728,17117.33,32.81,-1.00,-1.0,2371
5064,615064,17044,-556,748,17069.46,32.77,-1.00,-1.0,2436
5067,615067,17088,-584,752,17114.51,32.77,-1.00,-1.0,2373
5070,615070,17040,-584,720,17065.20,32.72,-1.00,-1.0,2417
5072,615072,17120,-700,808,17153.35,32.77,-1.00,-1.0,2381
5075,615075,17132,-504,828,17159.40,32.81,-1.00,-1.0,2420
5078,615078,17068,-676,772,17098.82,32.77,-1.00,-1.0,2372
5081,615081,17028,-716,844,17063.93,32.81,-1.00,-1.0,2420
5083,615083,17000,-640,772,17029.55,32.86,-1.00,-1.0,2358
5086,615086,17000,-676,704,17027.99,32.72,-1.00,-1.0,2367
5091,615091,17020,-684,784,17051.77,32.81,-1.00,-1.0,2433
5094,615094,17132,-684,632,17157.29,32.77,-1.00,-1.0,2368
5097,615097,17104,-668,868,17139.03,32.81,-1.00,-1.0,2429
5099,615099,17088,-732,800,17122.37,32.72,-1.00,-1.0,2373
5102,615102,17060,-624,788,17089.59,32.81,-1.00,-1.0,2407
5105,615105,17144,-632,816,17175.04,32.72,-1.00,-1.0,2371
5108,615108,17208,-688,800,17240.32,32.72,-1.00,-1.0,2421
5110,615110,17056,-580,716,17080.87,32.72,-1.00,-1.0,2373
5117,615117,17080,-568,644,17101.57,32.81,-1.00,-1.0,2444
5120,615120,17092,-596,760,17119.27,32.72,-1.00,-1.0,2370
5122,615122,17072,-612,800,17101.69,32.86,-1.00,-1.0,2367
5125,615125,17100,-612,632,17122.62,32.91,-1.00,-1.0,2444
5128,615128,17044,-580,824,17073.76,32.77,-1.00,-1.0,2378
5131,615131,17068,-692,740,17098.04,32.91,-1.00,-1.0,2432
5133,615133,17008,-660,712,17035.69,32.86,-1.00,-1.0,2373
5136,615136,17080,-624,768,17108.64,32.81,-1.00,-1.0,2431
5139,615139,17092,-660,724,17120.05,32.81,-1.00,-1.0,2378
5144,615144,17072,-688,772,17103.29,32.77,-1.00,-1.0,2433
5146,615146,17028,-672,752,17057.84,32.77,-1.00,-1.0,2367
5149,615149,16964,-600,704,16989.20,32.91,-1.00,-1.0,2437
5152,615152,17036,-640,752,17064.60,32.67,-1.00,-1.0,2385
5155,615155,16988,-672,756,17018.09,32.81,-1.00,-1.0,2373
5157,615157,17028,-692,772,17059.53,32.86,-1.00,-1.0,2421
5160,615160,17056,-688,780,17087.68,32.81,-1.00,-1.0,2371
5163,615163,16948,-632,700,16974.22,32.67,-1.00,-1.0,2429
5166,615166,17072,-720,764,17104.25,32.72,-1.00,-1.0,2368
5170,615170,17044,-580,912,17078.23,32.72,-1.00,-1.0,2442
5173,615173,17168,-624,836,17199.67,32.72,-1.00,-1.0,2382
5176,615176,17036,-508,792,17061.96,32.81,-1.00,-1.0,2431
5179,615179,17020,-588,820,17049.88,32.72,-1.00,-1.0,2373
5181,615181,17048,-640,772,17077.47,32.77,-1.00,-1.0,2366
5184,615184,17144,-568,928,17178.49,32.77,-1.00,-1.0,2420
5187,615187,17108,-644,584,17130.07,32.77,-1.00,-1.0,2378
5190,615190,17048,-600,696,17072.75,32.77,-1.00,-1.0,2419
5192,615192,17056,-648,668,17081.37,32.67,-1.00,-1.0,2370
5197,615197,17180,-612,764,17207.87,32.86,-1.00,-1.0,2432
5200,615200,17132,-640,756,17160.61,32.81,-1.00,-1.0,2367
5203,615203,17052,-596,900,17086.13,32.77,-1.00,-1.0,2437
5206,615206,17068,-584,748,17094.36,32.77,-1.00,-1.0,2366
5208,615208,17048,-684,884,17084.60,32.77,-1.00,-1.0,2421
5211,615211,17052,-516,872,17082.08,32.81,-1.00,-1.0,2359
5214,615214,17112,-660,748,17141.05,32.77,-1.00,-1.0,2367
5216,615216,17116,-676,928,17154.46,32.72,-1.00,-1.0,2437
5219,615219,17096,-636,672,17121.02,32.72,-1.00,-1.0,2370
5224,615224,16984,-660,764,17013.98,32.77,-1.00,-1.0,2431
5227,615227,17036,-596,612,17057.40,32.77,-1.00,-1.0,2367
5230,615230,17032,-604,728,17058.25,32.81,-1.00,-1.0,2430
5232,615232,17104,-748,760,17137.21,32.77,-1.00,-1.0,2369
5235,615235,17020,-692,780,17051.91,32.72,-1.00,-1.0,2420
5238,615238,17012,-652,596,17034.92,32.77,-1.00,-1.0,2370
5241,615241,17000,-616,788,17029.40,32.81,-1.00,-1.0,2420
5243,615243,17004,-776,700,17036.09,32.77,-1.00,-1.0,2376
5246,615246,17040,-652,656,17065.08,32.72,-1.00,-1.0,2369
5251,615251,17148,-692,576,17171.62,32.81,-1.00,-1.0,2440
5254,615254,17112,-640,616,17135.04,32.72,-1.00,-1.0,2366
5256,615256,17024,-648,764,17053.45,32.72,-1.00,-1.0,2437
5259,615259,17040,-484,740,17062.93,32.72,-1.00,-1.0,2378
5262,615262,17012,-660,744,17041.05,32.81,-1.00,-1.0,2407
5265,615265,16972,-632,744,17000.05,32.72,-1.00,-1.0,2371
5267,615267,17076,-700,888,17113.40,32.77,-1.00,-1.0,2431
5270,615270,16940,-780,780,16975.88,32.81,-1.00,-1.0,2381
5275,615275,17016,-600,764,17043.71,32.81,-1.00,-1.0,2432
5278,615278,17176,-604,732,17202.20,32.81,-1.00,-1.0,2375
5280,615280,17060,-676,840,17094.04,32.95,-1.00,-1.0,2377
5283,615283,17112,-576,712,17136.49,32.77,-1.00,-1.0,2429
5286,615286,17052,-648,732,17080.00,32.77,-1.00,-1.0,2372
5289,615289,17012,-640,812,17043.39,32.77,-1.00,-1.0,2421
5292,615292,17128,-660,784,17158.63,32.67,-1.00,-1.0,2369
5294,615294,17148,-612,768,17176.10,32.81,-1.00,-1.0,2420
5297,615297,17168,-648,668,17193.21,32.77,-1.00,-1.0,2376
5302,615302,17020,-708,732,17050.44,32.86,-1.00,-1.0,2433
5305,615305,17080,-732,768,17112.92,32.77,-1.00,-1.0,2371
5308,615308,17016,-580,652,17038.36,32.77,-1.00,-1.0,2428
5310,615310,17096,-632,748,17124.02,32.77,-1.00,-1.0,2373
5313,615313,17020,-656,604,17043.34,32.72,-1.00,-1.0,2375
5316,615316,17128,-656,760,17157.40,32.81,-1.00,-1.0,2420
5318,615318,17052,-612,868,17085.04,32.81,-1.00,-1.0,2376
5321,615321,17080,-680,688,17107.37,32.67,-1.00,-1.0,2436
5324,615324,17116,-584,688,17139.77,32.81,-1.00,-1.0,2365
5329,615329,17028,-656,692,17054.68,32.77,-1.00,-1.0,2436
5331,615331,17096,-580,852,17127.04,32.72,-1.00,-1.0,2370
5334,615334,17036,-600,852,17067.84,32.77,-1.00,-1.0,2423
5337,615337,17076,-616,808,17106.20,32.91,-1.00,-1.0,2377
5340,615340,17028,-624,896,17062.97,32.86,-1.00,-1.0,2432
5342,615342,17016,-656,656,17041.27,32.77,-1.00,-1.0,2376
5345,615345,17132,-616,888,17166.05,32.81,-1.00,-1.0,2367
5348,615348,17040,-600,684,17064.27,32.72,-1.00,-1.0,2428
5351,615351,17012,-552,736,17036.86,32.72,-1.00,-1.0,2369
5355,615355,17068,-668,728,17096.57,32.77,-1.00,-1.0,2440
5358,615358,17112,-732,732,17143.28,32.81,-1.00,-1.0,2374
5361,615361,17060,-696,792,17092.55,32.86,-1.00,-1.0,2436
5363,615363,17044,-676,836,17077.88,32.77,-1.00,-1.0,2377
5366,615366,16976,-684,688,17003.70,32.77,-1.00,-1.0,2462
5369,615369,17088,-720,804,17122.05,32.86,-1.00,-1.0,2372
5372,615372,17204,-640,668,17228.86,32.77,-1.00,-1.0,2367
5375,615375,17128,-692,652,17154.37,32.91,-1.00,-1.0,2423
5377,615377,17132,-616,852,17164.23,32.81,-1.00,-1.0,2368
5382,615382,17048,-764,848,17086.17,32.72,-1.00,-1.0,2420
5385,615385,17132,-632,716,17158.60,32.72,-1.00,-1.0,2369
5388,615388,17100,-752,644,17128.64,32.81,-1.00,-1.0,2439
5391,615391,17040,-652,772,17069.94,32.81,-1.00,-1.0,2367
5393,615393,17056,-564,620,17076.58,32.81,-1.00,-1.0,2422
5396,615396,17072,-676,772,17102.81,32.81,-1.00,-1.0,2358
5399,615399,17076,-708,656,17103.26,32.81,-1.00,-1.0,2428
5402,615402,17176,-624,852,17208.44,32.81,-1.00,-1.0,2369
5404,615404,17044,-696,760,17075.13,32.72,-1.00,-1.0,2366
5409,615409,17076,-624,796,17105.93,32.81,-1.00,-1.0,2433
5412,615412,17072,-676,720,17100.54,32.72,-1.00,-1.0,2367
5415,615415,17012,-648,688,17038.23,32.72,-1.00,-1.0,2437
5418,615418,17076,-556,844,17105.88,32.81,-1.00,-1.0,2369
5420,615420,17072,-620,848,17104.29,32.77,-1.00,-1.0,2420
5423,615423,17132,-604,708,17157.26,32.81,-1.00,-1.0,2370
5426,615426,17124,-644,764,17153.13,32.72,-1.00,-1.0,2427
5429,615429,17092,-692,784,17123.96,32.72,-1.00,-1.0,2369
5434,615434,17104,-592,920,17138.95,32.72,-1.00,-1.0,2434
5436,615436,17000,-592,700,17024.70,32.86,-1.00,-1.0,2374
5439,615439,17084,-580,892,17117.10,32.81,-1.00,-1.0,2366
5442,615442,17132,-604,632,17154.29,32.67,-1.00,-1.0,2431
5445,615445,17028,-640,728,17055.57,32.67,-1.00,-1.0,2369
5447,615447,17028,-576,728,17053.29,32.67,-1.00,-1.0,2421
5450,615450,17092,-584,824,17121.81,32.77,-1.00,-1.0,2371
5453,615453,17108,-636,836,17140.22,32.77,-1.00,-1.0,2428
5456,615456,17080,-636,656,17104.42,32.86,-1.00,-1.0,2369
5461,615461,17184,-668,896,17220.30,32.81,-1.00,-1.0,2431
5463,615463,17052,-628,808,17082.68,32.72,-1.00,-1.0,2367
5466,615466,17104,-644,752,17132.63,32.77,-1.00,-1.0,2430
5469,615469,17068,-672,808,17100.32,32.81,-1.00,-1.0,2370
5471,615471,16992,-660,896,17028.40,32.86,-1.00,-1.0,2370
5474,615474,16992,-636,792,17022.33,32.81,-1.00,-1.0,2435
5477,615477,17096,-684,752,17126.20,32.77,-1.00,-1.0,2380
5480,615480,17092,-656,868,17126.59,32.72,-1.00,-1.0,2428
5482,615482,17084,-504,764,17108.50,32.81,-1.00,-1.0,2380
5487,615487,17048,-620,612,17070.24,32.77,-1.00,-1.0,2433
5490,615490,17012,-620,760,17040.25,32.86,-1.00,-1.0,2367
5493,615493,17180,-724,780,17212.93,32.81,-1.00,-1.0,2437
5496,615496,17088,-624,744,17115.57,32.86,-1.00,-1.0,2369
5498,615498,16960,-592,536,16978.79,32.81,-1.00,-1.0,2428
5501,615501,17088,-668,800,17119.75,32.77,-1.00,-1.0,2377
5504,615504,17060,-728,756,17092.25,32.81,-1.00,-1.0,2367
5507,615507,16984,-556,644,17005.30,32.77,-1.00,-1.0,2420
5509,615509,17132,-648,768,17161.44,32.72,-1.00,-1.0,2382
5514,615514,17068,-636,736,17095.70,32.81,-1.00,-1.0,2442
5517,615517,17080,-604,668,17103.73,32.72,-1.00,-1.0,2379
5520,615520,17152,-692,716,17180.88,32.72,-1.00,-1.0,2430
5523,615523,17060,-600,796,17089.10,32.81,-1.00,-1.0,2375
5526,615526,17020,-664,776,17050.62,32.81,-1.00,-1.0,2423
5528,615528,17124,-556,608,17143.81,32.72,-1.00,-1.0,2378
5531,615531,17036,-640,696,17062.22,32.86,-1.00,-1.0,2421
5534,615534,17080,-660,680,17106.27,32.91,-1.00,-1.0,2371
5536,615536,17052,-656,688,17078.48,32.72,-1.00,-1.0,2375
5541,615541,17056,-740,764,17089.13,32.77,-1.00,-1.0,2432
5544,615544,17044,-632,656,17068.32,32.77,-1.00,-1.0,2367
5547,615547,17112,-624,780,17141.13,32.77,-1.00,-1.0,2438
5550,615550,17120,-668,888,17156.02,32.86,-1.00,-1.0,2366
5552,615552,17080,-596,692,17104.40,32.77,-1.00,-1.0,2420
5555,615555,16980,-636,700,17006.32,32.77,-1.00,-1.0,2360
5558,615558,17044,-780,740,17077.88,32.86,-1.00,-1.0,2428
5561,615561,17100,-684,644,17125.79,32.77,-1.00,-1.0,2370
5564,615564,17000,-612,796,17029.62,32.86,-1.00,-1.0,2368
5568,615568,17136,-568,668,17158.42,32.77,-1.00,-1.0,2461
5571,615571,17068,-604,840,17099.33,32.77,-1.00,-1.0,2365
5574,615574,17136,-668,736,17164.80,32.77,-1.00,-1.0,2428
5577,615577,16996,-620,848,17028.43,32.77,-1.00,-1.0,2365
5579,615579,17056,-592,700,17080.62,32.77,-1.00,-1.0,2423
5582,615582,16992,-528,712,17015.11,32.77,-1.00,-1.0,2367
5585,615585,16992,-568,724,17016.90,32.77,-1.00,-1.0,2428
5588,615588,17068,-588,752,17094.67,32.77,-1.00,-1.0,2369
5593,615593,17072,-760,716,17103.90,32.77,-1.00,-1.0,2432
5595,615595,17116,-640,824,17147.77,32.77,-1.00,-1.0,2366
5598,615598,17036,-660,744,17065.01,32.77,-1.00,-1.0,2367
5601,615601,17016,-624,712,17042.32,32.81,-1.00,-1.0,2422
5603,615603,17120,-544,908,17152.69,32.77,-1.00,-1.0,2371
5606,615606,17152,-628,756,17180.13,32.72,-1.00,-1.0,2421
5609,615609,17088,-616,808,17118.18,32.86,-1.00,-1.0,2371
5612,615612,17104,-568,792,17131.75,32.81,-1.00,-1.0,2422
5615,615615,17124,-512,684,17145.30,32.86,-1.00,-1.0,2371
5620,615620,17068,-672,728,17096.73,32.86,-1.00,-1.0,2442
5622,615622,17056,-628,624,17078.96,32.77,-1.00,-1.0,2367
5625,615625,17124,-688,776,17155.38,32.81,-1.00,-1.0,2422
5628,615628,16988,-588,740,17014.27,32.72,-1.00,-1.0,2438
5631,615631,17092,-600,808,17121.60,32.81,-1.00,-1.0,2366
5633,615633,17020,-616,696,17045.36,32.72,-1.00,-1.0,2416
5636,615636,17060,-692,736,17089.88,32.81,-1.00,-1.0,2375
5639,615639,17028,-648,760,17057.27,32.81,-1.00,-1.0,2423
5642,615642,17044,-664,760,17073.85,32.81,-1.00,-1.0,2375
5647,615647,17176,-588,724,17201.30,32.81,-1.00,-1.0,2442
5649,615649,17124,-572,864,17155.32,32.77,-1.00,-1.0,2366
5652,615652,17160,-556,684,17182.62,32.81,-1.00,-1.0,2420
5655,615655,17032,-612,668,17056.08,32.77,-1.00,-1.0,2435
5658,615658,17052,-684,728,17081.23,32.81,-1.00,-1.0,2423
5661,615661,17120,-508,652,17139.94,32.77,-1.00,-1.0,2372
5663,615663,17080,-580,760,17106.74,32.81,-1.00,-1.0,2366
5666,615666,17092,-652,800,17123.13,32.77,-1.00,-1.0,2423
5669,615669,17060,-576,780,17087.53,32.72,-1.00,-1.0,2374
5674,615674,17108,-592,668,17131.27,32.81,-1.00,-1.0,2441
5676,615676,17044,-460,692,17064.24,32.72,-1.00,-1.0,2368
5679,615679,17040,-628,752,17068.14,32.81,-1.00,-1.0,2420
5682,615682,17068,-656,636,17092.44,32.72,-1.00,-1.0,2378
5685,615685,17052,-724,696,17081.55,32.72,-1.00,-1.0,2420
5687,615687,16972,-600,740,16998.72,32.91,-1.00,-1.0,2370
5690,615690,17108,-652,688,17134.24,32.77,-1.00,-1.0,2420
5693,615693,17124,-640,792,17154.25,32.72,-1.00,-1.0,2378
5696,615696,16992,-648,812,17023.73,32.72,-1.00,-1.0,2367
5701,615701,17068,-688,748,17098.23,32.81,-1.00,-1.0,2441
5703,615703,17092,-556,752,17117.57,32.72,-1.00,-1.0,2367
5706,615706,17104,-592,776,17131.83,32.86,-1.00,-1.0,2427
5709,615709,17068,-572,764,17094.66,32.72,-1.00,-1.0,2378
5712,615712,17168,-712,672,17195.89,32.91,-1.00,-1.0,2420
5714,615714,17060,-592,556,17079.32,32.81,-1.00,-1.0,2371
5717,615717,17124,-724,772,17156.68,32.77,-1.00,-1.0,2435
5720,615720,17064,-632,812,17095.00,32.77,-1.00,-1.0,2373
5725,615725,16988,-636,712,17014.80,32.81,-1.00,-1.0,2448
5728,615728,17060,-624,800,17090.14,32.91,-1.00,-1.0,2367
5730,615730,17020,-704,736,17050.45,32.86,-1.00,-1.0,2380
5733,615733,17004,-612,772,17032.51,32.81,-1.00,-1.0,2421
5736,615736,17016,-684,676,17043.15,32.86,-1.00,-1.0,2376
5739,615739,16984,-652,656,17009.17,32.72,-1.00,-1.0,2421
5741,615741,17104,-668,832,17137.25,32.86,-1.00,-1.0,2373
5744,615744,16960,-704,712,16989.53,32.72,-1.00,-1.0,2420
5747,615747,17080,-692,724,17109.34,32.77,-1.00,-1.0,2367
5752,615752,17084,-600,820,17114.19,32.81,-1.00,-1.0,2441
5754,615754,17020,-620,888,17054.42,32.81,-1.00,-1.0,2366
5757,615757,17008,-692,860,17043.78,32.77,-1.00,-1.0,2372
5760,615760,17104,-612,760,17131.81,32.86,-1.00,-1.0,2424
5762,615762,16996,-692,704,17024.64,32.86,-1.00,-1.0,2371
5765,615765,17132,-612,772,17160.30,32.77,-1.00,-1.0,2434
5768,615768,17052,-672,592,17075.50,32.77,-1.00,-1.0,2380
5771,615771,17016,-676,724,17044.81,32.81,-1.00,-1.0,2421
5774,615774,17136,-624,832,17167.53,32.72,-1.00,-1.0,2368
5778,615778,16996,-692,780,17027.96,32.77,-1.00,-1.0,2443
5781,615781,17016,-712,896,17054.44,32.86,-1.00,-1.0,2367
5784,615784,17056,-696,676,17083.57,32.77,-1.00,-1.0,2427
5787,615787,17004,-688,700,17032.30,32.81,-1.00,-1.0,2371
5789,615789,17136,-740,672,17165.13,32.72,-1.00,-1.0,2353
5792,615792,17112,-644,696,17138.25,32.91,-1.00,-1.0,2423
5795,615795,17060,-704,744,17090.72,32.81,-1.00,-1.0,2370
5798,615798,17104,-544,636,17124.46,32.81,-1.00,-1.0,2421
5801,615801,17088,-560,788,17115.32,32.81,-1.00,-1.0,2368
5806,615806,17140,-692,788,17172.05,32.81,-1.00,-1.0,2441
5808,615808,17052,-784,620,17081.27,32.81,-1.00,-1.0,2375
5811,615811,17020,-560,772,17046.70,32.81,-1.00,-1.0,2420
5814,615814,17140,-620,820,17170.80,32.72,-1.00,-1.0,2374
5817,615817,17104,-652,732,17132.07,32.81,-1.00,-1.0,2422
5820,615820,17020,-652,768,17049.79,32.81,-1.00,-1.0,2369
5822,615822,17004,-732,828,17039.88,32.86,-1.00,-1.0,2366
5825,615825,17024,-636,700,17050.25,32.67,-1.00,-1.0,2427
5828,615828,17064,-692,800,17096.75,32.72,-1.00,-1.0,2370
5833,615833,17044,-652,728,17072.00,32.81,-1.00,-1.0,2441
5836,615836,17136,-624,676,17160.68,32.72,-1.00,-1.0,2372
5838,615838,17092,-668,704,17119.53,32.77,-1.00,-1.0,2420
5841,615841,17092,-660,752,17121.26,32.72,-1.00,-1.0,2372
5844,615844,17072,-556,728,17096.56,32.77,-1.00,-1.0,2430
5847,615847,17072,-660,760,17101.65,32.91,-1.00,-1.0,2370
5849,615849,17080,-648,748,17108.65,32.77,-1.00,-1.0,2420
5852,615852,17096,-668,612,17119.99,32.81,-1.00,-1.0,2372
5855,615855,17044,-672,716,17072.26,32.77,-1.00,-1.0,2367
5860,615860,17148,-592,776,17175.75,32.72,-1.00,-1.0,2445
5863,615863,17136,-648,804,17167.09,32.91,-1.00,-1.0,2376
5866,615866,17024,-668,820,17056.82,32.81,-1.00,-1.0,2422
5868,615868,17096,-504,852,17124.63,32.81,-1.00,-1.0,2373
5871,615871,17144,-548,708,17167.36,32.77,-1.00,-1.0,2420
5874,615874,17116,-708,700,17144.93,32.81,-1.00,-1.0,2370
5877,615877,17132,-680,844,17166.25,32.72,-1.00,-1.0,2420
5879,615879,17028,-568,712,17052.34,32.81,-1.00,-1.0,2373
5884,615884,17020,-576,984,17058.15,32.81,-1.00,-1.0,2452
5887,615887,17032,-632,712,17058.59,32.72,-1.00,-1.0,2369
5890,615890,17116,-604,624,17138.02,32.81,-1.00,-1.0,2366
5892,615892,17104,-560,692,17127.15,32.77,-1.00,-1.0,2420
5895,615895,17000,-684,708,17028.48,32.77,-1.00,-1.0,2370
5898,615898,17032,-640,812,17063.35,32.77,-1.00,-1.0,2426
5901,615901,17060,-640,704,17086.51,32.86,-1.00,-1.0,2369
5903,615903,17112,-616,536,17131.47,32.86,-1.00,-1.0,2420
5906,615906,17140,-704,776,17171.99,32.67,-1.00,-1.0,2371
5911,615911,17084,-656,664,17109.48,32.67,-1.00,-1.0,2444
5914,615914,17040,-576,760,17066.66,32.72,-1.00,-1.0,2369
5917,615917,17116,-656,680,17142.06,32.86,-1.00,-1.0,2420
5919,615919,17048,-532,784,17074.31,32.67,-1.00,-1.0,2372
5922,615922,17140,-692,692,17167.92,32.77,-1.00,-1.0,2375
5925,615925,16980,-624,724,17006.88,32.72,-1.00,-1.0,2420
5927,615927,17028,-636,704,17054.41,32.81,-1.00,-1.0,2370
5930,615930,16980,-568,804,17008.51,32.81,-1.00,-1.0,2420
5933,615933,17204,-680,740,17233.33,32.81,-1.00,-1.0,2380
5938,615938,17148,-600,612,17169.40,32.81,-1.00,-1.0,2443
5941,615941,17088,-704,716,17117.48,32.77,-1.00,-1.0,2366
5943,615943,17028,-728,712,17058.42,32.81,-1.00,-1.0,2423
5946,615946,17032,-632,860,17065.40,32.81,-1.00,-1.0,2371
5949,615949,16992,-648,748,17020.79,32.72,-1.00,-1.0,2370
5952,615952,16976,-592,792,17004.77,32.86,-1.00,-1.0,2409
5954,615954,17140,-488,620,17158.15,32.77,-1.00,-1.0,2386
5957,615957,17028,-692,864,17063.94,32.77,-1.00,-1.0,2419
5960,615960,17068,-636,720,17095.01,32.72,-1.00,-1.0,2378
5967,615967,17172,-624,796,17201.76,32.77,-1.00,-1.0,2444
5969,615969,17100,-640,740,17127.96,32.81,-1.00,-1.0,2376
5972,615972,16984,-532,888,17015.52,32.86,-1.00,-1.0,2420
5975,615975,17056,-676,700,17083.74,32.77,-1.00,-1.0,2357
5978,615978,17096,-580,888,17128.87,32.77,-1.00,-1.0,2428
5980,615980,17116,-736,868,17153.79,32.91,-1.00,-1.0,2378
5983,615983,17032,-588,756,17058.91,32.72,-1.00,-1.0,2366
5986,615986,17032,-640,756,17060.78,32.72,-1.00,-1.0,2428
5989,615989,17040,-636,964,17079.09,32.81,-1.00,-1.0,2366
5993,615993,17048,-616,748,17075.52,32.77,-1.00,-1.0,2441
5996,615996,17060,-692,748,17090.41,32.77,-1.00,-1.0,2365
5999,615999,17180,-724,836,17215.56,32.81,-1.00,-1.0,2422
6001,616001,17004,-572,752,17030.23,32.77,-1.00,-1.0,2370
6004,616004,17156,-700,668,17183.26,32.91,-1.00,-1.0,2420
6007,616007,17072,-604,692,17096.69,32.77,-1.00,-1.0,2368
6010,616010,17132,-636,808,17162.83,32.81,-1.00,-1.0,2425
6012,616012,17064,-624,844,17096.25,32.77,-1.00,-1.0,2365
6015,616015,17032,-616,764,17060.25,32.81,-1.00,-1.0,2367
6020,616020,17080,-628,620,17102.78,32.72,-1.00,-1.0,2441
6023,616023,17020,-652,900,17056.25,32.77,-1.00,-1.0,2367
6026,616026,17000,-616,776,17028.85,32.81,-1.00,-1.0,2420
6028,616028,17112,-596,724,17137.68,32.81,-1.00,-1.0,2370
6031,616031,17132,-608,684,17156.43,32.81,-1.00,-1.0,2423
6034,616034,16988,-664,844,17021.91,32.72,-1.00,-1.0,2370
6037,616037,17036,-708,744,17066.93,32.72,-1.00,-1.0,2420
6039,616039,16952,-620,772,16980.89,32.72,-1.00,-1.0,2370
6044,616044,17008,-648,648,17032.67,32.72,-1.00,-1.0,2447
6047,616047,17040,-660,680,17066.33,32.77,-1.00,-1.0,2354
6050,616050,17072,-632,780,17101.49,32.81,-1.00,-1.0,2365
6052,616052,17084,-608,796,17113.34,32.91,-1.00,-1.0,2421
6055,616055,17112,-696,844,17146.93,32.81,-1.00,-1.0,2370
6058,616058,16996,-668,724,17024.52,32.77,-1.00,-1.0,2422
6061,616061,17028,-572,728,17053.15,32.81,-1.00,-1.0,2369
6063,616063,17096,-724,768,17128.55,32.72,-1.00,-1.0,2423
6066,616066,16992,-584,796,17020.66,32.81,-1.00,-1.0,2371
6071,616071,17108,-604,896,17142.09,32.72,-1.00,-1.0,2442
6074,616074,17088,-640,820,17119.63,32.81,-1.00,-1.0,2369
6077,616077,17072,-584,728,17097.49,32.72,-1.00,-1.0,2420
6079,616079,17104,-636,708,17130.46,32.72,-1.00,-1.0,2370
6082,616082,17128,-520,708,17150.51,32.86,-1.00,-1.0,2369
6085,616085,17128,-652,696,17154.53,32.77,-1.00,-1.0,2423
6087,616087,16988,-652,612,17011.52,32.81,-1.00,-1.0,2372
6090,616090,17104,-616,808,17134.15,32.77,-1.00,-1.0,2434
6093,616093,17040,-728,756,17072.29,32.77,-1.00,-1.0,2381
6098,616098,17068,-744,624,17095.60,32.67,-1.00,-1.0,2443
6101,616101,17096,-688,692,17123.83,32.81,-1.00,-1.0,2370
6103,616103,17092,-664,748,17121.24,32.77,-1.00,-1.0,2426
6106,616106,17032,-656,844,17065.51,32.77,-1.00,-1.0,2370
6109,616109,17044,-752,664,17073.50,32.77,-1.00,-1.0,2427
6112,616112,17124,-644,656,17148.66,32.86,-1.00,-1.0,2374
6114,616114,17068,-656,776,17098.22,32.72,-1.00,-1.0,2361
6117,616117,17032,-624,868,17065.52,32.81,-1.00,-1.0,2422
6120,616120,17048,-712,644,17075.01,32.72,-1.00,-1.0,2373
6125,616125,17080,-604,824,17110.53,32.81,-1.00,-1.0,2447
6127,616127,17060,-708,892,17097.97,32.81,-1.00,-1.0,2378
6130,616130,17172,-572,788,17199.58,32.72,-1.00,-1.0,2420
6133,616133,17120,-640,640,17143.91,32.81,-1.00,-1.0,2373
6136,616136,17032,-580,776,17059.53,32.91,-1.00,-1.0,2422
6138,616138,17032,-680,652,17058.03,32.72,-1.00,-1.0,2375
6141,616141,17128,-680,712,17156.27,32.77,-1.00,-1.0,2366
6144,616144,17012,-700,684,17040.13,32.77,-1.00,-1.0,2422
6147,616147,17048,-640,684,17073.71,32.77,-1.00,-1.0,2369
6152,616152,17040,-728,924,17080.55,32.77,-1.00,-1.0,2441
6154,616154,17132,-608,780,17160.52,32.72,-1.00,-1.0,2367
6157,616157,17080,-580,820,17109.51,32.77,-1.00,-1.0,2420
6160,616160,17084,-616,764,17112.17,32.72,-1.00,-1.0,2370
6163,616163,17196,-692,692,17223.82,32.67,-1.00,-1.0,2420
6165,616165,17144,-592,676,17167.53,32.72,-1.00,-1.0,2370
6168,616168,17096,-692,824,17129.83,32.86,-1.00,-1.0,2419
6171,616171,17064,-648,716,17091.30,32.72,-1.00,-1.0,2370
6173,616173,17020,-648,712,17047.21,32.67,-1.00,-1.0,2370
6178,616178,16996,-640,740,17024.14,32.81,-1.00,-1.0,2450
6181,616181,17072,-676,668,17098.43,32.81,-1.00,-1.0,2370
6184,616184,17084,-608,672,17108.02,32.72,-1.00,-1.0,2423
6186,616186,17008,-604,664,17031.67,32.81,-1.00,-1.0,2377
6189,616189,17124,-568,888,17156.41,32.81,-1.00,-1.0,2420
6192,616192,17060,-672,648,17085.52,32.81,-1.00,-1.0,2371
6195,616195,17180,-576,756,17206.27,32.67,-1.00,-1.0,2422
6197,616197,17076,-720,776,17108.78,32.81,-1.00,-1.0,2374
6202,616202,17080,-592,648,17102.54,32.72,-1.00,-1.0,2441
6205,616205,16992,-636,672,17017.17,32.67,-1.00,-1.0,2370
6207,616207,17008,-632,640,17031.77,32.81,-1.00,-1.0,2374
6210,616210,17064,-656,696,17090.78,32.81,-1.00,-1.0,2420
6213,616213,17052,-712,560,17076.04,32.72,-1.00,-1.0,2370
6216,616216,17056,-576,688,17079.59,32.77,-1.00,-1.0,2422
6218,616218,17116,-684,912,17153.92,32.81,-1.00,-1.0,2369
6221,616221,17064,-632,772,17093.14,32.77,-1.00,-1.0,2420
6224,616224,17148,-652,728,17175.83,32.81,-1.00,-1.0,2385
