timestamp_ms,global_ms,accel_x,accel_y,accel_z,accel_mag,temp_c,voltage,soc,loop_us
3,1525003,17024,-508,880,17054.30,29.89,-1.00,-1.0,2495
9,1525009,16988,-616,844,17020.10,29.89,-1.00,-1.0,2454
12,1525012,17000,-468,744,17022.71,29.85,-1.00,-1.0,2371
15,1525015,17112,-596,852,17143.56,29.80,-1.00,-1.0,2368
18,1525018,17060,-560,804,17088.11,29.75,-1.00,-1.0,2418
20,1525020,17056,-600,840,17087.21,29.80,-1.00,-1.0,2372
23,1525023,17088,-616,892,17122.35,29.85,-1.00,-1.0,2422
26,1525026,17056,-616,912,17091.47,29.80,-1.00,-1.0,2372
29,1525029,17028,-640,956,17066.82,29.94,-1.00,-1.0,2418
31,1525031,17064,-568,860,17095.10,29.85,-1.00,-1.0,2372
36,1525036,16984,-680,892,17021.00,29.89,-1.00,-1.0,2427
39,1525039,17096,-624,960,17134.30,29.89,-1.00,-1.0,2378
41,1525041,17056,-584,928,17091.21,29.94,-1.00,-1.0,2370
44,1525044,17120,-652,864,17154.18,29.85,-1.00,-1.0,2418
47,1525047,17056,-592,820,17085.96,29.85,-1.00,-1.0,2373
50,1525050,16988,-536,860,17018.20,29.85,-1.00,-1.0,2419
52,1525052,17000,-580,908,17034.11,29.85,-1.00,-1.0,2377
55,1525055,17048,-608,772,17076.30,29.80,-1.00,-1.0,2419
58,1525058,17044,-556,908,17077.22,29.85,-1.00,-1.0,2376
63,1525063,17076,-496,880,17105.85,29.85,-1.00,-1.0,2439
66,1525066,17132,-676,860,17166.89,29.85,-1.00,-1.0,2370
68,1525068,17068,-604,1000,17107.94,29.85,-1.00,-1.0,2417
71,1525071,17084,-624,884,17118.23,29.75,-1.00,-1.0,2372
74,1525074,16988,-568,824,17017.45,29.89,-1.00,-1.0,2368
76,1525076,17000,-612,896,17034.59,29.99,-1.00,-1.0,2428
79,1525079,17060,-580,1048,17102.00,29.80,-1.00,-1.0,2372
82,1525082,16988,-612,884,17021.99,29.80,-1.00,-1.0,2426
85,1525085,17016,-576,908,17049.94,29.80,-1.00,-1.0,2372
90,1525090,17056,-512,904,17087.61,29.80,-1.00,-1.0,2439
92,1525092,17016,-560,1016,17055.50,29.80,-1.00,-1.0,2369
95,1525095,17036,-684,940,17075.62,29.80,-1.00,-1.0,2425
98,1525098,17000,-560,1076,17043.22,29.80,-1.00,-1.0,2380
100,1525100,17080,-616,912,17115.42,29.75,-1.00,-1.0,2375
103,1525103,16964,-568,768,16990.87,29.85,-1.00,-1.0,2418
106,1525106,17120,-616,860,17152.65,29.85,-1.00,-1.0,2360
109,1525109,17020,-684,860,17055.44,29.94,-1.00,-1.0,2419
111,1525111,16984,-496,1000,17020.64,29.85,-1.00,-1.0,2376
117,1525117,16876,-604,764,16904.08,29.80,-1.00,-1.0,2439
119,1525119,17028,-604,820,17058.43,29.80,-1.00,-1.0,2372
122,1525122,17096,-608,860,17128.41,29.75,-1.00,-1.0,2432
125,1525125,16992,-592,860,17024.04,29.89,-1.00,-1.0,2380
128,1525128,17048,-592,728,17073.80,29.85,-1.00,-1.0,2431
130,1525130,16944,-576,916,16978.52,29.89,-1.00,-1.0,2374
133,1525133,17004,-568,1016,17043.79,29.75,-1.00,-1.0,2365
136,1525136,17100,-524,764,17125.08,29.80,-1.00,-1.0,2424
139,1525139,17020,-632,852,17053.03,29.85,-1.00,-1.0,2371
144,1525144,17008,-580,836,17038.41,29.75,-1.00,-1.0,2447
146,1525146,16988,-556,776,17014.80,29.75,-1.00,-1.0,2371
149,1525149,17052,-552,816,17080.44,29.89,-1.00,-1.0,2417
152,1525152,17020,-552,932,17054.43,29.75,-1.00,-1.0,2373
155,1525155,16992,-496,780,17017.12,29.80,-1.00,-1.0,2418
157,1525157,16932,-588,904,16966.31,29.75,-1.00,-1.0,2374
160,1525160,17148,-668,868,17182.94,29.89,-1.00,-1.0,2404
163,1525163,17040,-592,876,17072.77,29.85,-1.00,-1.0,2373
165,1525165,17020,-656,1016,17062.91,29.80,-1.00,-1.0,2370
170,1525170,17028,-640,872,17062.32,29.89,-1.00,-1.0,2439
173,1525173,17052,-556,1068,17094.46,29.80,-1.00,-1.0,2372
176,1525176,17032,-584,852,17063.29,29.89,-1.00,-1.0,2424
179,1525179,17076,-608,928,17112.00,29.80,-1.00,-1.0,2371
181,1525181,17080,-560,996,17118.18,29.80,-1.00,-1.0,2419
184,1525184,16992,-672,968,17032.81,29.80,-1.00,-1.0,2359
187,1525187,17016,-584,764,17043.15,29.80,-1.00,-1.0,2425
190,1525190,16984,-632,832,17016.11,29.71,-1.00,-1.0,2371
195,1525195,17040,-524,856,17069.53,29.89,-1.00,-1.0,2441
197,1525197,16996,-564,868,17027.49,29.85,-1.00,-1.0,2372
200,1525200,16984,-664,892,17020.37,29.80,-1.00,-1.0,2375
203,1525203,17072,-624,876,17105.85,29.80,-1.00,-1.0,2417
205,1525205,17064,-624,832,17095.66,29.89,-1.00,-1.0,2372
208,1525208,16960,-572,824,16989.64,29.85,-1.00,-1.0,2417
211,1525211,17080,-516,996,17116.79,29.89,-1.00,-1.0,2380
214,1525214,17036,-556,936,17070.75,29.89,-1.00,-1.0,2417
216,1525216,17024,-580,944,17060.02,29.89,-1.00,-1.0,2372
221,1525221,17072,-656,844,17105.43,29.85,-1.00,-1.0,2440
224,1525224,17000,-612,988,17039.68,29.85,-1.00,-1.0,2377
226,1525226,17040,-668,868,17075.16,29.89,-1.00,-1.0,2373
229,1525229,17016,-596,896,17049.99,29.80,-1.00,-1.0,2417
232,1525232,16984,-556,924,17018.20,29.80,-1.00,-1.0,2375
235,1525235,17028,-564,808,17056.49,29.80,-1.00,-1.0,2419
237,1525237,17000,-588,836,17030.70,29.89,-1.00,-1.0,2371
240,1525240,17108,-536,696,17130.54,29.80,-1.00,-1.0,2417
243,1525243,17188,-592,1000,17227.24,29.89,-1.00,-1.0,2373
248,1525248,17056,-648,744,17084.51,29.85,-1.00,-1.0,2440
250,1525250,17012,-604,856,17044.23,29.85,-1.00,-1.0,2370
253,1525253,17008,-588,868,17040.28,29.80,-1.00,-1.0,2431
256,1525256,16936,-656,868,16970.91,29.94,-1.00,-1.0,2380
259,1525259,17076,-596,896,17109.88,29.80,-1.00,-1.0,2369
261,1525261,17036,-604,820,17066.41,29.80,-1.00,-1.0,2477
264,1525264,17004,-676,772,17034.93,29.80,-1.00,-1.0,2374
267,1525267,17016,-532,912,17048.72,29.89,-1.00,-1.0,2422
270,1525270,17080,-544,880,17111.30,29.89,-1.00,-1.0,2366
275,1525275,17008,-712,820,17042.63,29.80,-1.00,-1.0,2442
278,1525278,17016,-608,808,17046.02,29.94,-1.00,-1.0,2365
280,1525280,17028,-600,824,17058.48,29.80,-1.00,-1.0,2438
283,1525283,17020,-588,912,17054.56,29.85,-1.00,-1.0,2376
286,1525286,17072,-540,844,17101.38,29.89,-1.00,-1.0,2425
289,1525289,17012,-592,808,17041.46,29.89,-1.00,-1.0,2370
291,1525291,17020,-628,892,17054.92,29.80,-1.00,-1.0,2366
294,1525294,17040,-524,860,17069.73,29.75,-1.00,-1.0,2423
297,1525297,17060,-620,768,17088.53,29.89,-1.00,-1.0,2373
302,1525302,17028,-624,992,17068.28,29.80,-1.00,-1.0,2428
305,1525305,17076,-576,804,17104.62,29.99,-1.00,-1.0,2373
307,1525307,17012,-592,892,17045.65,29.80,-1.00,-1.0,2435
310,1525310,16920,-588,916,16954.98,29.80,-1.00,-1.0,2376
313,1525313,17008,-568,844,17038.40,29.80,-1.00,-1.0,2420
316,1525316,17060,-600,712,17085.39,29.80,-1.00,-1.0,2376
319,1525319,17020,-488,728,17042.55,29.89,-1.00,-1.0,2420
321,1525321,16980,-504,896,17011.09,29.80,-1.00,-1.0,2362
324,1525324,17032,-632,1000,17073.03,29.85,-1.00,-1.0,2369
329,1525329,16960,-640,860,16993.85,29.89,-1.00,-1.0,2436
332,1525332,16940,-656,880,16975.52,29.80,-1.00,-1.0,2378
335,1525335,17060,-572,916,17094.15,29.89,-1.00,-1.0,2424
337,1525337,17052,-568,988,17090.04,29.80,-1.00,-1.0,2372
340,1525340,17028,-620,888,17062.41,29.94,-1.00,-1.0,2419
343,1525343,17076,-640,828,17108.04,29.80,-1.00,-1.0,2370
346,1525346,17124,-604,844,17155.42,29.89,-1.00,-1.0,2419
348,1525348,17008,-652,916,17045.12,29.80,-1.00,-1.0,2356
353,1525353,17040,-660,940,17078.67,29.89,-1.00,-1.0,2448
356,1525356,17044,-520,1060,17084.85,29.89,-1.00,-1.0,2374
359,1525359,16980,-620,824,17011.28,29.80,-1.00,-1.0,2365
361,1525361,17044,-508,884,17074.47,29.85,-1.00,-1.0,2425
364,1525364,17012,-600,940,17048.51,29.85,-1.00,-1.0,2369
367,1525367,16984,-524,860,17013.83,29.85,-1.00,-1.0,2427
370,1525370,17088,-600,928,17123.70,29.85,-1.00,-1.0,2368
372,1525372,17036,-720,928,17076.44,29.80,-1.00,-1.0,2419
375,1525375,16876,-592,920,16911.42,29.85,-1.00,-1.0,2369
380,1525380,16976,-612,808,17006.23,29.85,-1.00,-1.0,2433
383,1525383,17008,-592,940,17044.24,29.94,-1.00,-1.0,2368
386,1525386,16996,-592,688,17020.22,29.85,-1.00,-1.0,2426
388,1525388,17096,-680,804,17128.40,29.85,-1.00,-1.0,2369
391,1525391,16996,-564,852,17026.69,29.89,-1.00,-1.0,2378
394,1525394,16976,-596,832,17006.82,29.85,-1.00,-1.0,2431
396,1525396,17108,-632,888,17142.68,29.80,-1.00,-1.0,2372
399,1525399,17012,-664,940,17050.88,29.85,-1.00,-1.0,2415
402,1525402,17020,-612,792,17049.40,29.80,-1.00,-1.0,2369
407,1525407,16936,-568,1072,16979.40,29.80,-1.00,-1.0,2433
410,1525410,17024,-632,908,17059.91,29.94,-1.00,-1.0,2371
413,1525413,17160,-632,860,17193.16,29.89,-1.00,-1.0,2425
415,1525415,17060,-576,888,17092.80,29.85,-1.00,-1.0,2356
418,1525418,17048,-560,800,17075.95,29.80,-1.00,-1.0,2420
421,1525421,17052,-576,924,17086.73,29.75,-1.00,-1.0,2368
423,1525423,17068,-504,936,17101.07,29.99,-1.00,-1.0,2369
426,1525426,16920,-632,896,16955.49,29.85,-1.00,-1.0,2428
429,1525429,16952,-540,956,16987.52,29.80,-1.00,-1.0,2369
434,1525434,17064,-668,904,17100.98,29.85,-1.00,-1.0,2440
437,1525437,17068,-532,872,17098.54,29.80,-1.00,-1.0,2367
439,1525439,17012,-600,808,17041.74,29.85,-1.00,-1.0,2435
442,1525442,17008,-500,916,17039.99,29.85,-1.00,-1.0,2385
445,1525445,17088,-568,860,17119.05,29.85,-1.00,-1.0,2419
448,1525448,16984,-532,1012,17022.44,29.85,-1.00,-1.0,2369
450,1525450,17060,-636,800,17090.59,29.85,-1.00,-1.0,2422
453,1525453,17076,-716,928,17116.18,29.85,-1.00,-1.0,2384
456,1525456,17072,-588,716,17097.12,29.80,-1.00,-1.0,2373
461,1525461,16996,-628,900,17031.39,29.89,-1.00,-1.0,2440
464,1525464,16956,-520,908,16988.25,29.80,-1.00,-1.0,2365
466,1525466,17052,-688,920,17090.65,29.89,-1.00,-1.0,2419
469,1525469,17036,-640,940,17073.91,29.80,-1.00,-1.0,2369
472,1525472,17048,-588,944,17084.24,29.80,-1.00,-1.0,2426
475,1525475,17104,-564,908,17137.37,29.80,-1.00,-1.0,2369
477,1525477,17072,-524,856,17101.48,29.80,-1.00,-1.0,2426
480,1525480,17028,-508,876,17058.08,29.75,-1.00,-1.0,2383
485,1525485,17020,-644,880,17054.90,29.85,-1.00,-1.0,2449
488,1525488,17048,-620,848,17080.33,29.85,-1.00,-1.0,2378
491,1525491,17084,-556,792,17111.38,29.89,-1.00,-1.0,2367
493,1525493,17072,-584,928,17107.17,29.80,-1.00,-1.0,2430
496,1525496,17036,-656,844,17069.50,29.89,-1.00,-1.0,2355
499,1525499,17096,-568,868,17127.44,29.89,-1.00,-1.0,2427
502,1525502,17028,-652,836,17060.97,29.80,-1.00,-1.0,2367
504,1525504,17092,-672,872,17127.42,29.80,-1.00,-1.0,2420
507,1525507,17152,-596,944,17188.29,29.75,-1.00,-1.0,2376
512,1525512,16936,-640,828,16968.30,29.85,-1.00,-1.0,2448
515,1525515,17040,-532,832,17068.59,29.85,-1.00,-1.0,2375
518,1525518,17036,-532,988,17072.92,29.71,-1.00,-1.0,2365
520,1525520,17040,-592,724,17065.64,29.89,-1.00,-1.0,2425
523,1525523,17072,-692,976,17113.87,29.80,-1.00,-1.0,2369
526,1525526,17068,-564,892,17100.60,29.80,-1.00,-1.0,2427
529,1525529,17056,-660,832,17089.03,29.80,-1.00,-1.0,2372
531,1525531,17072,-608,868,17104.86,29.71,-1.00,-1.0,2421
534,1525534,17084,-576,848,17114.73,29.85,-1.00,-1.0,2356
539,1525539,16964,-596,896,16998.10,29.85,-1.00,-1.0,2435
542,1525542,17128,-612,1000,17168.08,29.85,-1.00,-1.0,2370
545,1525545,17084,-580,1044,17125.69,29.75,-1.00,-1.0,2432
548,1525548,17064,-596,820,17094.08,29.85,-1.00,-1.0,2368
550,1525550,17068,-644,832,17100.40,29.80,-1.00,-1.0,2368
553,1525553,17024,-640,1008,17065.82,29.80,-1.00,-1.0,2420
556,1525556,17132,-440,884,17160.43,29.89,-1.00,-1.0,2369
559,1525559,17008,-588,836,17038.68,29.80,-1.00,-1.0,2419
561,1525561,17064,-568,784,17091.44,29.80,-1.00,-1.0,2369
566,1525566,16960,-672,860,16995.08,29.89,-1.00,-1.0,2443
569,1525569,17000,-640,1012,17042.12,29.85,-1.00,-1.0,2373
572,1525572,17108,-632,864,17141.46,29.80,-1.00,-1.0,2435
574,1525574,17060,-560,928,17094.40,29.80,-1.00,-1.0,2378
577,1525577,17040,-628,936,17077.24,29.80,-1.00,-1.0,2420
580,1525580,17020,-524,996,17057.17,29.89,-1.00,-1.0,2356
583,1525583,17108,-680,892,17144.73,29.85,-1.00,-1.0,2367
585,1525585,17016,-532,940,17050.25,29.85,-1.00,-1.0,2420
588,1525588,17004,-568,824,17033.43,29.80,-1.00,-1.0,2369
593,1525593,17124,-676,976,17165.11,29.80,-1.00,-1.0,2441
596,1525596,17064,-568,852,17094.70,29.80,-1.00,-1.0,2367
599,1525599,16968,-676,928,17006.80,29.80,-1.00,-1.0,2427
601,1525601,17072,-620,888,17106.32,29.89,-1.00,-1.0,2371
604,1525604,17056,-580,888,17088.95,29.80,-1.00,-1.0,2419
607,1525607,16932,-560,844,16962.27,29.80,-1.00,-1.0,2371
610,1525610,17060,-580,824,17089.73,29.85,-1.00,-1.0,2421
612,1525612,17028,-600,836,17059.06,29.89,-1.00,-1.0,2367
615,1525615,17016,-608,880,17049.58,29.80,-1.00,-1.0,2365
620,1525620,17072,-628,840,17104.19,29.89,-1.00,-1.0,2433
623,1525623,17052,-580,860,17083.52,29.89,-1.00,-1.0,2369
626,1525626,16988,-568,852,17018.83,29.75,-1.00,-1.0,2427
628,1525628,17144,-632,856,17176.99,29.71,-1.00,-1.0,2354
631,1525631,17068,-624,1024,17110.07,29.80,-1.00,-1.0,2419
634,1525634,17000,-564,916,17034.00,29.80,-1.00,-1.0,2372
637,1525637,17088,-556,808,17116.12,29.85,-1.00,-1.0,2421
640,1525640,17028,-616,868,17061.23,29.75,-1.00,-1.0,2419
645,1525645,17076,-608,1000,17116.06,29.85,-1.00,-1.0,2439
647,1525647,17112,-496,824,17139.01,29.89,-1.00,-1.0,2372
650,1525650,17080,-644,796,17110.66,29.85,-1.00,-1.0,2372
653,1525653,17096,-660,808,17127.80,29.89,-1.00,-1.0,2418
655,1525655,17048,-644,956,17086.92,29.85,-1.00,-1.0,2372
658,1525658,17032,-628,780,17061.41,29.89,-1.00,-1.0,2425
661,1525661,17020,-600,788,17048.79,29.85,-1.00,-1.0,2379
664,1525664,17028,-592,908,17062.46,29.80,-1.00,-1.0,2420
666,1525666,16964,-616,864,16997.15,29.89,-1.00,-1.0,2373
671,1525671,17000,-560,876,17031.76,29.85,-1.00,-1.0,2436
674,1525674,17076,-616,876,17109.55,29.85,-1.00,-1.0,2371
677,1525677,17016,-572,852,17046.92,29.85,-1.00,-1.0,2417
679,1525679,17020,-564,824,17049.27,29.80,-1.00,-1.0,2372
682,1525682,17052,-604,844,17083.55,29.71,-1.00,-1.0,2377
685,1525685,17032,-632,1032,17074.94,29.89,-1.00,-1.0,2431
687,1525687,17008,-624,820,17039.19,29.89,-1.00,-1.0,2373
690,1525690,17052,-504,812,17078.76,29.80,-1.00,-1.0,2431
693,1525693,17116,-548,904,17148.62,29.89,-1.00,-1.0,2374
698,1525698,17112,-588,992,17150.81,29.89,-1.00,-1.0,2437
701,1525701,17008,-508,848,17036.70,29.85,-1.00,-1.0,2368
704,1525704,16908,-548,984,16945.47,29.80,-1.00,-1.0,2426
707,1525707,17096,-608,936,17132.40,29.85,-1.00,-1.0,2358
709,1525709,16984,-592,844,17015.26,29.89,-1.00,-1.0,2418
712,1525712,17084,-508,748,17107.91,29.89,-1.00,-1.0,2375
715,1525715,17120,-584,792,17148.26,29.85,-1.00,-1.0,2368
718,1525718,17140,-628,1004,17180.86,29.75,-1.00,-1.0,2419
720,1525720,17048,-592,800,17077.03,29.80,-1.00,-1.0,2376
725,1525725,17088,-572,972,17125.18,29.80,-1.00,-1.0,2438
728,1525728,17088,-564,940,17123.12,29.80,-1.00,-1.0,2371
731,1525731,16984,-552,884,17015.95,29.75,-1.00,-1.0,2459
734,1525734,16988,-512,996,17024.87,29.85,-1.00,-1.0,2370
737,1525737,17028,-580,860,17059.57,29.89,-1.00,-1.0,2423
739,1525739,17048,-612,872,17081.25,29.89,-1.00,-1.0,2367
742,1525742,17092,-600,892,17125.77,29.89,-1.00,-1.0,2424
745,1525745,16900,-600,972,16938.56,29.71,-1.00,-1.0,2368
747,1525747,17052,-552,900,17084.65,29.75,-1.00,-1.0,2376
752,1525752,16956,-572,896,16989.29,29.85,-1.00,-1.0,2438
755,1525755,17028,-636,1016,17070.14,29.89,-1.00,-1.0,2366
758,1525758,17080,-516,936,17113.41,29.85,-1.00,-1.0,2440
761,1525761,17108,-588,932,17143.46,29.89,-1.00,-1.0,2371
763,1525763,17020,-672,844,17054.16,29.75,-1.00,-1.0,2430
766,1525766,17020,-520,956,17054.76,29.89,-1.00,-1.0,2378
769,1525769,17044,-556,828,17073.16,29.85,-1.00,-1.0,2409
772,1525772,16972,-612,892,17006.44,29.80,-1.00,-1.0,2371
777,1525777,17028,-620,836,17059.78,29.89,-1.00,-1.0,2434
779,1525779,17016,-568,800,17044.26,29.89,-1.00,-1.0,2366
782,1525782,17076,-504,872,17105.68,29.85,-1.00,-1.0,2369
785,1525785,17052,-692,980,17094.15,29.94,-1.00,-1.0,2436
787,1525787,17052,-700,924,17091.36,29.85,-1.00,-1.0,2376
790,1525790,16976,-512,816,17003.31,29.80,-1.00,-1.0,2422
793,1525793,17004,-612,880,17037.75,29.94,-1.00,-1.0,2370
796,1525796,16964,-628,980,17003.88,29.80,-1.00,-1.0,2422
798,1525798,17016,-620,764,17044.42,29.85,-1.00,-1.0,2374
803,1525803,17084,-520,920,17116.65,29.75,-1.00,-1.0,2440
806,1525806,17052,-624,908,17087.55,29.85,-1.00,-1.0,2383
809,1525809,17020,-676,832,17053.73,29.89,-1.00,-1.0,2431
812,1525812,16944,-492,964,16978.53,29.85,-1.00,-1.0,2372
814,1525814,17096,-576,892,17128.94,29.89,-1.00,-1.0,2365
817,1525817,17052,-636,876,17086.33,29.80,-1.00,-1.0,2420
820,1525820,17052,-520,1044,17091.84,29.89,-1.00,-1.0,2370
823,1525823,16984,-580,836,17014.45,29.75,-1.00,-1.0,2420
826,1525826,17008,-628,764,17036.73,29.80,-1.00,-1.0,2372
831,1525831,16980,-532,796,17006.97,29.80,-1.00,-1.0,2435
833,1525833,17044,-680,996,17086.61,29.85,-1.00,-1.0,2370
836,1525836,16964,-476,828,16990.86,29.89,-1.00,-1.0,2428
839,1525839,16984,-596,872,17016.81,29.80,-1.00,-1.0,2372
842,1525842,17056,-684,868,17091.76,29.89,-1.00,-1.0,2420
844,1525844,17052,-564,904,17085.26,29.89,-1.00,-1.0,2374
847,1525847,17004,-660,740,17032.89,29.75,-1.00,-1.0,2376
850,1525850,16956,-636,972,16995.74,29.85,-1.00,-1.0,2421
853,1525853,17004,-572,960,17040.68,29.80,-1.00,-1.0,2371
857,1525857,17044,-584,952,17080.55,29.75,-1.00,-1.0,2433
860,1525860,16972,-536,928,17005.80,29.80,-1.00,-1.0,2367
863,1525863,17056,-628,808,17086.67,29.85,-1.00,-1.0,2437
866,1525866,17020,-588,1036,17061.64,29.85,-1.00,-1.0,2357
868,1525868,17096,-540,1004,17133.97,29.75,-1.00,-1.0,2423
871,1525871,17020,-624,992,17060.30,29.89,-1.00,-1.0,2370
874,1525874,17024,-640,948,17062.38,29.85,-1.00,-1.0,2431
877,1525877,17008,-580,992,17046.78,29.75,-1.00,-1.0,2357
880,1525880,17116,-632,928,17152.79,29.85,-1.00,-1.0,2368
884,1525884,17036,-508,848,17064.66,29.80,-1.00,-1.0,2439
887,1525887,17060,-548,900,17092.51,29.80,-1.00,-1.0,2370
890,1525890,16916,-532,832,16944.80,29.80,-1.00,-1.0,2431
892,1525892,17052,-640,936,17089.66,29.80,-1.00,-1.0,2373
895,1525895,16960,-680,916,16998.32,29.89,-1.00,-1.0,2422
898,1525898,17104,-608,852,17136.00,29.89,-1.00,-1.0,2373
901,1525901,17096,-600,712,17121.34,29.89,-1.00,-1.0,2423
904,1525904,17108,-628,856,17140.91,29.75,-1.00,-1.0,2354
907,1525907,16996,-640,872,17030.38,29.75,-1.00,-1.0,2366
912,1525912,17016,-648,852,17049.63,29.85,-1.00,-1.0,2432
914,1525914,17064,-572,836,17094.04,29.85,-1.00,-1.0,2367
917,1525917,17060,-624,928,17096.61,29.85,-1.00,-1.0,2429
920,1525920,17084,-640,896,17119.45,29.85,-1.00,-1.0,2372
923,1525923,17104,-616,776,17132.67,29.85,-1.00,-1.0,2420
925,1525925,17092,-600,948,17128.78,29.85,-1.00,-1.0,2370
928,1525928,17080,-512,804,17106.58,29.85,-1.00,-1.0,2421
931,1525931,16924,-624,904,16959.61,29.85,-1.00,-1.0,2371
936,1525936,17084,-544,880,17115.30,29.94,-1.00,-1.0,2432
938,1525938,17040,-652,908,17076.63,29.80,-1.00,-1.0,2373
941,1525941,16904,-592,940,16940.46,29.85,-1.00,-1.0,2367
944,1525944,17060,-540,916,17093.11,29.80,-1.00,-1.0,2435
947,1525947,17080,-652,912,17116.75,29.85,-1.00,-1.0,2370
949,1525949,16940,-588,908,16974.50,29.80,-1.00,-1.0,2431
952,1525952,17036,-616,828,17067.23,29.80,-1.00,-1.0,2370
955,1525955,17028,-600,832,17058.87,29.71,-1.00,-1.0,2425
958,1525958,17088,-588,788,17116.26,29.80,-1.00,-1.0,2370
963,1525963,17008,-564,756,17034.13,29.75,-1.00,-1.0,2439
966,1525966,16980,-656,828,17012.83,29.85,-1.00,-1.0,2367
968,1525968,17056,-552,780,17082.75,29.85,-1.00,-1.0,2428
971,1525971,17016,-660,852,17050.10,29.85,-1.00,-1.0,2371
974,1525974,17148,-640,848,17180.88,29.80,-1.00,-1.0,2372
976,1525976,17024,-636,972,17063.58,29.75,-1.00,-1.0,2428
979,1525979,17048,-560,848,17078.26,29.89,-1.00,-1.0,2385
982,1525982,16968,-504,916,17000.18,29.89,-1.00,-1.0,2421
985,1525985,17064,-592,844,17095.11,29.80,-1.00,-1.0,2375
990,1525990,17112,-652,928,17149.54,29.80,-1.00,-1.0,2432
992,1525992,17036,-484,800,17061.64,29.80,-1.00,-1.0,2369
995,1525995,16964,-576,828,16993.96,29.80,-1.00,-1.0,2444
998,1525998,17040,-696,784,17072.22,29.80,-1.00,-1.0,2379
1001,1526001,16980,-648,956,17019.23,29.89,-1.00,-1.0,2431
1003,1526003,17100,-532,860,17129.88,29.80,-1.00,-1.0,2373
1006,1526006,17088,-524,728,17111.53,29.80,-1.00,-1.0,2411
1009,1526009,17108,-628,884,17142.33,29.85,-1.00,-1.0,2436
1012,1526012,16956,-560,912,16989.74,29.75,-1.00,-1.0,2371
1017,1526017,17032,-592,960,17069.30,29.75,-1.00,-1.0,2437
1019,1526019,17112,-600,744,17138.67,29.89,-1.00,-1.0,2377
1022,1526022,17040,-612,956,17077.77,29.75,-1.00,-1.0,2428
1025,1526025,17036,-512,876,17066.19,29.80,-1.00,-1.0,2374
1028,1526028,17136,-544,812,17163.85,29.85,-1.00,-1.0,2422
1030,1526030,17024,-588,836,17054.65,29.75,-1.00,-1.0,2374
1033,1526033,16984,-632,824,17015.72,29.85,-1.00,-1.0,2420
1036,1526036,16964,-548,892,16996.27,29.89,-1.00,-1.0,2358
1041,1526041,17068,-592,904,17102.17,29.80,-1.00,-1.0,2440
1044,1526044,17080,-548,896,17112.26,29.99,-1.00,-1.0,2366
1046,1526046,17020,-632,852,17053.03,29.85,-1.00,-1.0,2365
1049,1526049,17044,-628,872,17077.84,29.89,-1.00,-1.0,2427
1052,1526052,17056,-640,716,17083.02,29.85,-1.00,-1.0,2370
1055,1526055,17056,-628,916,17092.12,29.89,-1.00,-1.0,2420
1057,1526057,17020,-628,972,17059.29,29.85,-1.00,-1.0,2370
1060,1526060,17088,-604,768,17115.91,29.89,-1.00,-1.0,2420
1063,1526063,17028,-576,884,17060.66,29.85,-1.00,-1.0,2369
1068,1526068,17144,-664,808,17175.87,29.80,-1.00,-1.0,2431
1070,1526070,17084,-544,928,17117.83,29.80,-1.00,-1.0,2366
1073,1526073,17060,-604,844,17091.54,29.80,-1.00,-1.0,2428
1076,1526076,17064,-576,968,17101.14,29.89,-1.00,-1.0,2369
1079,1526079,17092,-632,728,17119.17,29.80,-1.00,-1.0,2421
1081,1526081,16984,-500,928,17016.68,29.89,-1.00,-1.0,2369
1084,1526084,17080,-600,928,17115.71,29.89,-1.00,-1.0,2369
1087,1526087,17028,-600,744,17054.80,29.89,-1.00,-1.0,2427
1090,1526090,17064,-644,1048,17108.28,29.89,-1.00,-1.0,2367
1094,1526094,17204,-640,816,17235.23,29.85,-1.00,-1.0,2440
1097,1526097,17012,-544,888,17043.84,29.85,-1.00,-1.0,2374
1100,1526100,17100,-568,1020,17139.81,29.85,-1.00,-1.0,2427
1103,1526103,17072,-556,1008,17110.77,29.75,-1.00,-1.0,2373
1105,1526105,16996,-548,1012,17034.92,29.85,-1.00,-1.0,2422
1108,1526108,16976,-524,996,17013.26,29.85,-1.00,-1.0,2386
1111,1526111,17076,-684,776,17107.30,29.89,-1.00,-1.0,2420
1114,1526114,17000,-652,964,17039.79,29.89,-1.00,-1.0,2370
1119,1526119,16928,-460,880,16957.10,29.80,-1.00,-1.0,2432
1121,1526121,17060,-592,868,17092.32,29.89,-1.00,-1.0,2372
1124,1526124,16980,-636,768,17009.25,29.80,-1.00,-1.0,2365
1127,1526127,17032,-496,784,17057.25,29.85,-1.00,-1.0,2433
1130,1526130,17116,-612,1004,17156.34,29.94,-1.00,-1.0,2370
1132,1526132,17016,-592,888,17049.44,29.75,-1.00,-1.0,2428
1135,1526135,17028,-480,736,17050.66,29.75,-1.00,-1.0,2369
1138,1526138,17140,-564,680,17162.75,29.94,-1.00,-1.0,2427
1141,1526141,16968,-568,780,16995.41,29.80,-1.00,-1.0,2378
1146,1526146,17016,-512,880,17046.43,29.89,-1.00,-1.0,2431
1149,1526149,17004,-508,1016,17041.90,29.80,-1.00,-1.0,2369
1151,1526151,17084,-632,912,17119.99,29.89,-1.00,-1.0,2427
1154,1526154,17048,-548,880,17079.49,29.80,-1.00,-1.0,2369
1157,1526157,17060,-516,916,17092.36,29.89,-1.00,-1.0,2426
1160,1526160,17064,-612,844,17095.82,29.80,-1.00,-1.0,2369
1162,1526162,17016,-592,976,17054.25,29.85,-1.00,-1.0,2374
1165,1526165,17080,-608,888,17113.87,29.85,-1.00,-1.0,2407
1168,1526168,17084,-524,780,17109.82,29.80,-1.00,-1.0,2377
1173,1526173,17052,-572,900,17085.31,29.80,-1.00,-1.0,2437
1176,1526176,17028,-632,868,17061.82,29.80,-1.00,-1.0,2366
1178,1526178,16964,-560,796,16991.89,29.85,-1.00,-1.0,2431
1181,1526181,17036,-548,892,17068.14,29.85,-1.00,-1.0,2371
1184,1526184,17008,-580,792,17036.31,29.85,-1.00,-1.0,2421
1187,1526187,17032,-560,968,17068.67,29.85,-1.00,-1.0,2368
1189,1526189,17080,-532,800,17107.00,29.94,-1.00,-1.0,2420
1192,1526192,17044,-604,808,17073.83,29.85,-1.00,-1.0,2370
1197,1526197,17104,-556,884,17135.85,29.89,-1.00,-1.0,2431
1200,1526200,17024,-556,868,17055.18,29.89,-1.00,-1.0,2367
1202,1526202,17060,-568,760,17086.36,29.85,-1.00,-1.0,2367
1205,1526205,16992,-624,848,17024.59,29.89,-1.00,-1.0,2443
1208,1526208,16916,-448,764,16939.17,29.85,-1.00,-1.0,2378
1211,1526211,17076,-544,964,17111.84,29.80,-1.00,-1.0,2430
1213,1526213,17080,-580,864,17111.67,29.85,-1.00,-1.0,2372
1216,1526216,16960,-656,828,16992.87,29.80,-1.00,-1.0,2415
1219,1526219,17060,-576,848,17090.77,29.89,-1.00,-1.0,2377
1224,1526224,17032,-604,800,17061.47,29.85,-1.00,-1.0,2438
1227,1526227,17068,-592,748,17094.64,29.85,-1.00,-1.0,2365
1229,1526229,17060,-644,956,17098.90,29.80,-1.00,-1.0,2441
1232,1526232,17000,-680,896,17037.17,29.80,-1.00,-1.0,2383
1235,1526235,17040,-564,844,17070.21,29.89,-1.00,-1.0,2409
1238,1526238,17132,-580,984,17170.04,29.80,-1.00,-1.0,2370
1240,1526240,16952,-504,1016,16989.90,29.80,-1.00,-1.0,2366
1243,1526243,16992,-612,840,17023.75,29.85,-1.00,-1.0,2420
1246,1526246,17088,-672,860,17122.82,29.80,-1.00,-1.0,2372
1251,1526251,17028,-536,848,17057.53,29.80,-1.00,-1.0,2438
1254,1526254,17076,-632,928,17112.87,29.85,-1.00,-1.0,2366
1256,1526256,17072,-528,912,17104.49,29.80,-1.00,-1.0,2436
1259,1526259,17076,-532,1040,17115.91,29.80,-1.00,-1.0,2377
1262,1526262,17076,-704,884,17113.35,29.80,-1.00,-1.0,2424
1265,1526265,17048,-644,848,17081.22,29.80,-1.00,-1.0,2372
1267,1526267,17128,-636,956,17166.45,29.80,-1.00,-1.0,2426
1270,1526270,17124,-584,980,17161.96,29.80,-1.00,-1.0,2386
1275,1526275,17024,-480,808,17049.92,29.85,-1.00,-1.0,2434
1278,1526278,17104,-588,1000,17143.29,29.89,-1.00,-1.0,2369
1280,1526280,17112,-596,876,17144.77,29.75,-1.00,-1.0,2365
1283,1526283,17068,-600,912,17102.88,29.80,-1.00,-1.0,2427
1286,1526286,17100,-628,824,17131.36,29.80,-1.00,-1.0,2379
1289,1526289,17080,-580,900,17113.53,29.80,-1.00,-1.0,2420
1291,1526291,17008,-640,888,17043.19,29.80,-1.00,-1.0,2371
1294,1526294,17016,-568,860,17047.18,29.80,-1.00,-1.0,2434
1297,1526297,17028,-620,1012,17069.31,29.85,-1.00,-1.0,2370
1302,1526302,16988,-616,900,17022.97,29.89,-1.00,-1.0,2431
1304,1526304,16996,-580,944,17032.07,29.80,-1.00,-1.0,2369
1307,1526307,17032,-480,976,17066.69,29.99,-1.00,-1.0,2443
1310,1526310,17004,-612,896,17038.58,29.80,-1.00,-1.0,2378
1313,1526313,17036,-596,816,17065.94,29.89,-1.00,-1.0,2430
1315,1526315,17048,-648,1096,17095.48,29.89,-1.00,-1.0,2378
1318,1526318,17088,-580,784,17115.80,29.94,-1.00,-1.0,2365
1321,1526321,17092,-516,876,17122.21,29.85,-1.00,-1.0,2419
1324,1526324,16992,-548,820,17020.60,29.75,-1.00,-1.0,2372
1329,1526329,17060,-508,896,17091.06,29.85,-1.00,-1.0,2432
1332,1526332,16948,-564,832,16977.78,29.89,-1.00,-1.0,2364
1335,1526335,17056,-608,956,17093.59,29.85,-1.00,-1.0,2428
1337,1526337,16988,-568,820,17017.26,29.85,-1.00,-1.0,2371
1340,1526340,17020,-472,892,17049.89,29.75,-1.00,-1.0,2419
1343,1526343,17012,-584,840,17042.73,29.85,-1.00,-1.0,2370
1346,1526346,16988,-552,904,17020.99,29.75,-1.00,-1.0,2420
1348,1526348,17060,-588,816,17089.62,29.85,-1.00,-1.0,2371
1353,1526353,17052,-556,1028,17092.00,29.85,-1.00,-1.0,2442
1356,1526356,16944,-596,900,16978.35,29.85,-1.00,-1.0,2354
1359,1526359,17064,-568,860,17095.10,29.85,-1.00,-1.0,2364
1361,1526361,17064,-596,896,17097.90,29.80,-1.00,-1.0,2428
1364,1526364,16996,-632,740,17023.84,29.89,-1.00,-1.0,2374
1367,1526367,17028,-444,844,17054.68,29.89,-1.00,-1.0,2422
1370,1526370,17164,-640,588,17185.99,29.89,-1.00,-1.0,2369
1372,1526372,16968,-548,848,16998.01,29.80,-1.00,-1.0,2422
1375,1526375,17088,-620,948,17125.50,29.89,-1.00,-1.0,2369
1380,1526380,17040,-516,996,17076.88,29.85,-1.00,-1.0,2438
1383,1526383,17064,-640,892,17099.28,29.75,-1.00,-1.0,2369
1386,1526386,17040,-564,908,17073.49,29.85,-1.00,-1.0,2429
1388,1526388,17052,-676,860,17087.05,29.85,-1.00,-1.0,2375
1391,1526391,17052,-632,1000,17092.98,29.71,-1.00,-1.0,2419
1394,1526394,17000,-496,844,17028.16,29.85,-1.00,-1.0,2374
1397,1526397,17040,-692,840,17074.72,29.89,-1.00,-1.0,2366
1399,1526399,17016,-496,1108,17059.25,29.85,-1.00,-1.0,2425
1402,1526402,17116,-572,916,17150.04,29.71,-1.00,-1.0,2370
1409,1526409,17076,-632,948,17113.97,29.85,-1.00,-1.0,2432
1411,1526411,17080,-644,908,17116.24,29.75,-1.00,-1.0,2374
1414,1526414,17060,-644,764,17089.24,29.80,-1.00,-1.0,2427
1417,1526417,17060,-480,928,17091.96,29.85,-1.00,-1.0,2376
1420,1526420,17056,-656,708,17083.29,29.80,-1.00,-1.0,2420
1422,1526422,17076,-664,792,17107.25,29.75,-1.00,-1.0,2355
1425,1526425,17016,-660,844,17049.70,29.80,-1.00,-1.0,2419
1428,1526428,17096,-512,912,17127.96,29.80,-1.00,-1.0,2377
1433,1526433,17076,-580,832,17106.09,29.75,-1.00,-1.0,2434
1436,1526436,17040,-572,880,17072.29,29.85,-1.00,-1.0,2373
1438,1526438,17000,-556,892,17032.46,29.80,-1.00,-1.0,2366
1441,1526441,17088,-616,848,17120.11,29.80,-1.00,-1.0,2428
1444,1526444,17048,-676,872,17083.67,29.80,-1.00,-1.0,2369
1447,1526447,16976,-556,820,17004.88,29.89,-1.00,-1.0,2421
1449,1526449,17012,-612,960,17050.05,29.80,-1.00,-1.0,2370
1452,1526452,17044,-684,956,17084.49,29.85,-1.00,-1.0,2419
1455,1526455,17008,-460,720,17029.45,29.89,-1.00,-1.0,2369
1460,1526460,17068,-596,852,17099.64,29.80,-1.00,-1.0,2432
1462,1526462,17032,-472,804,17057.50,29.89,-1.00,-1.0,2372
1465,1526465,17112,-600,912,17146.79,29.71,-1.00,-1.0,2428
1468,1526468,17092,-516,844,17120.60,29.89,-1.00,-1.0,2374
1471,1526471,17080,-608,932,17116.21,29.89,-1.00,-1.0,2420
1474,1526474,17076,-580,744,17102.04,29.89,-1.00,-1.0,2367
1476,1526476,17080,-652,956,17119.15,29.75,-1.00,-1.0,2365
1479,1526479,17036,-568,932,17070.93,29.85,-1.00,-1.0,2427
1482,1526482,16932,-664,880,16967.85,29.89,-1.00,-1.0,2369
1486,1526486,17048,-616,868,17081.19,29.85,-1.00,-1.0,2444
1489,1526489,17028,-616,732,17054.86,29.85,-1.00,-1.0,2366
1492,1526492,17068,-604,892,17101.96,29.80,-1.00,-1.0,2435
1495,1526495,17096,-728,800,17130.18,29.85,-1.00,-1.0,2370
1497,1526497,17100,-580,848,17130.83,29.89,-1.00,-1.0,2428
1500,1526500,17000,-632,880,17034.49,29.85,-1.00,-1.0,2377
1503,1526503,16948,-692,916,16986.84,29.89,-1.00,-1.0,2420
1506,1526506,17008,-592,860,17040.02,29.85,-1.00,-1.0,2372
1510,1526510,16940,-576,936,16975.61,29.94,-1.00,-1.0,2431
1513,1526513,17036,-648,680,17061.88,29.89,-1.00,-1.0,2365
1516,1526516,17068,-616,1112,17115.28,29.80,-1.00,-1.0,2417
1519,1526519,16984,-648,1036,17027.90,29.85,-1.00,-1.0,2431
1521,1526521,17048,-704,740,17078.57,29.75,-1.00,-1.0,2368
1524,1526524,17004,-592,736,17030.21,29.80,-1.00,-1.0,2437
1527,1526527,17016,-544,920,17049.53,29.85,-1.00,-1.0,2377
1530,1526530,16988,-640,828,17020.20,29.80,-1.00,-1.0,2433
1532,1526532,16984,-596,764,17011.62,29.80,-1.00,-1.0,2371
1537,1526537,16940,-544,832,16969.14,29.85,-1.00,-1.0,2441
1540,1526540,17060,-560,884,17092.06,29.75,-1.00,-1.0,2366
1543,1526543,16996,-560,952,17031.85,29.89,-1.00,-1.0,2430
1546,1526546,17048,-628,952,17086.11,29.85,-1.00,-1.0,2369
1548,1526548,17036,-604,1012,17076.72,29.80,-1.00,-1.0,2437
1551,1526551,16988,-624,972,17027.22,29.75,-1.00,-1.0,2370
1554,1526554,17068,-568,836,17097.90,29.80,-1.00,-1.0,2367
1557,1526557,17008,-584,948,17044.41,29.71,-1.00,-1.0,2420
1559,1526559,16956,-620,860,16989.11,29.89,-1.00,-1.0,2370
1564,1526564,17024,-628,844,17056.47,29.80,-1.00,-1.0,2446
1567,1526567,17032,-600,844,17063.45,29.80,-1.00,-1.0,2368
1570,1526570,17012,-720,956,17054.04,29.89,-1.00,-1.0,2430
1572,1526572,17020,-580,896,17053.43,29.80,-1.00,-1.0,2379
1575,1526575,17012,-648,856,17045.84,29.75,-1.00,-1.0,2420
1578,1526578,17116,-556,840,17145.62,29.71,-1.00,-1.0,2371
1581,1526581,17040,-536,876,17070.92,29.85,-1.00,-1.0,2423
1583,1526583,16988,-528,836,17016.75,29.80,-1.00,-1.0,2374
1588,1526588,16988,-620,956,17026.17,29.80,-1.00,-1.0,2448
1591,1526591,17016,-616,816,17046.69,29.80,-1.00,-1.0,2382
1594,1526594,16964,-696,1008,17008.17,29.85,-1.00,-1.0,2367
1597,1526597,17096,-624,804,17126.27,29.80,-1.00,-1.0,2422
1599,1526599,17060,-672,948,17099.53,29.75,-1.00,-1.0,2370
1602,1526602,17088,-592,852,17119.47,29.89,-1.00,-1.0,2419
1605,1526605,16976,-688,896,17013.54,29.85,-1.00,-1.0,2369
1608,1526608,17100,-644,844,17132.92,29.89,-1.00,-1.0,2419
1610,1526610,16988,-580,948,17024.31,29.85,-1.00,-1.0,2356
1615,1526615,17088,-532,824,17116.12,29.85,-1.00,-1.0,2437
1618,1526618,17024,-552,964,17060.21,29.80,-1.00,-1.0,2413
1621,1526621,16992,-656,808,17023.84,29.94,-1.00,-1.0,2430
1624,1526624,17032,-584,752,17058.59,29.80,-1.00,-1.0,2384
1627,1526627,17036,-676,928,17074.64,29.85,-1.00,-1.0,2417
1629,1526629,17028,-528,892,17059.52,29.85,-1.00,-1.0,2377
1632,1526632,17052,-568,844,17082.32,29.80,-1.00,-1.0,2374
1635,1526635,17052,-488,948,17085.30,29.80,-1.00,-1.0,2416
1637,1526637,16984,-580,908,17018.14,29.89,-1.00,-1.0,2378
1642,1526642,17016,-576,940,17051.68,29.85,-1.00,-1.0,2408
1645,1526645,17048,-616,756,17075.87,29.85,-1.00,-1.0,2374
1648,1526648,16956,-632,984,16996.28,29.80,-1.00,-1.0,2439
1651,1526651,17056,-568,956,17092.21,29.85,-1.00,-1.0,2368
1653,1526653,16988,-592,804,17017.31,29.80,-1.00,-1.0,2418
1656,1526656,17148,-592,888,17181.18,29.85,-1.00,-1.0,2372
1659,1526659,17076,-592,800,17104.98,29.89,-1.00,-1.0,2425
1662,1526662,17116,-512,968,17150.99,29.75,-1.00,-1.0,2371
1667,1526667,16992,-524,828,17020.23,29.75,-1.00,-1.0,2421
1669,1526669,17056,-512,908,17087.82,29.85,-1.00,-1.0,2376
1672,1526672,16968,-612,856,17000.60,29.80,-1.00,-1.0,2374
1675,1526675,16984,-696,1024,17029.07,29.85,-1.00,-1.0,2434
1677,1526677,16948,-616,952,16985.89,29.80,-1.00,-1.0,2375
1680,1526680,17040,-564,944,17075.45,29.85,-1.00,-1.0,2432
1683,1526683,17024,-584,1040,17065.73,29.89,-1.00,-1.0,2380
1686,1526686,17044,-648,748,17072.71,29.85,-1.00,-1.0,2429
1688,1526688,16972,-556,912,17005.58,29.89,-1.00,-1.0,2375
1693,1526693,17024,-660,844,17057.68,29.80,-1.00,-1.0,2434
1696,1526696,17032,-640,968,17071.49,29.75,-1.00,-1.0,2374
1699,1526699,17008,-628,928,17044.87,29.80,-1.00,-1.0,2434
1702,1526702,17044,-584,988,17082.60,29.89,-1.00,-1.0,2364
1704,1526704,17108,-720,828,17143.15,29.80,-1.00,-1.0,2417
1707,1526707,17096,-512,852,17124.87,29.80,-1.00,-1.0,2357
1710,1526710,17004,-568,1004,17043.08,29.89,-1.00,-1.0,2366
1712,1526712,17032,-480,988,17067.38,29.75,-1.00,-1.0,2432
1715,1526715,16984,-572,1052,17026.16,29.80,-1.00,-1.0,2372
1720,1526720,16980,-508,940,17013.58,29.89,-1.00,-1.0,2432
1723,1526723,17004,-548,1100,17048.35,29.80,-1.00,-1.0,2373
1725,1526725,16980,-608,808,17010.08,29.89,-1.00,-1.0,2421
1728,1526728,16892,-572,856,16923.34,29.80,-1.00,-1.0,2373
1731,1526731,17032,-548,924,17065.85,29.75,-1.00,-1.0,2420
1734,1526734,17052,-616,840,17083.79,29.89,-1.00,-1.0,2371
1736,1526736,16940,-584,944,16976.33,29.80,-1.00,-1.0,2424
1739,1526739,17036,-512,892,17067.02,29.80,-1.00,-1.0,2372
1744,1526744,16984,-656,796,17015.29,29.89,-1.00,-1.0,2411
1747,1526747,16944,-740,904,16984.23,29.89,-1.00,-1.0,2374
1749,1526749,16912,-712,864,16949.02,29.80,-1.00,-1.0,2368
1752,1526752,16888,-592,844,16919.44,29.94,-1.00,-1.0,2439
1755,1526755,17084,-608,1016,17124.98,29.94,-1.00,-1.0,2383
1758,1526758,17000,-528,948,17034.60,29.85,-1.00,-1.0,2428
1760,1526760,16992,-632,840,17024.48,29.75,-1.00,-1.0,2380
1763,1526763,17124,-652,896,17159.82,29.89,-1.00,-1.0,2424
1766,1526766,17080,-632,956,17118.40,29.75,-1.00,-1.0,2376
1771,1526771,17000,-616,832,17031.49,29.85,-1.00,-1.0,2432
1774,1526774,17072,-528,828,17100.22,29.85,-1.00,-1.0,2374
1776,1526776,17112,-628,880,17146.12,29.85,-1.00,-1.0,2434
1779,1526779,17000,-660,844,17033.73,29.85,-1.00,-1.0,2380
1782,1526782,17036,-652,852,17069.75,29.80,-1.00,-1.0,2407
1785,1526785,17060,-660,872,17095.02,29.94,-1.00,-1.0,2372
1787,1526787,17024,-636,756,17052.64,29.80,-1.00,-1.0,2366
1790,1526790,16976,-588,956,17013.06,29.80,-1.00,-1.0,2416
1793,1526793,17052,-632,984,17092.06,29.80,-1.00,-1.0,2372
1798,1526798,17060,-616,736,17086.98,29.85,-1.00,-1.0,2433
1801,1526801,16940,-692,772,16971.70,29.75,-1.00,-1.0,2373
1803,1526803,16968,-568,800,16996.34,29.89,-1.00,-1.0,2433
1806,1526806,17040,-692,1028,17085.00,29.89,-1.00,-1.0,2386
1809,1526809,17116,-600,796,17145.00,29.89,-1.00,-1.0,2419
1812,1526812,17124,-712,972,17166.34,29.89,-1.00,-1.0,2375
1814,1526814,17204,-604,844,17235.28,29.80,-1.00,-1.0,2405
1817,1526817,17088,-632,816,17119.14,29.80,-1.00,-1.0,2386
1822,1526822,17036,-580,928,17071.11,29.94,-1.00,-1.0,2425
1825,1526825,16976,-660,860,17010.58,29.85,-1.00,-1.0,2382
1827,1526827,17096,-556,928,17130.19,29.89,-1.00,-1.0,2371
1830,1526830,17056,-512,720,17078.87,29.89,-1.00,-1.0,2424
1833,1526833,16896,-608,824,16927.00,29.89,-1.00,-1.0,2376
1836,1526836,16972,-584,900,17005.88,29.85,-1.00,-1.0,2418
1838,1526838,17012,-672,820,17045.00,29.80,-1.00,-1.0,2371
1841,1526841,16976,-632,804,17006.78,29.89,-1.00,-1.0,2404
1844,1526844,17020,-536,776,17046.11,29.89,-1.00,-1.0,2374
1849,1526849,17036,-544,884,17067.59,29.89,-1.00,-1.0,2427
1852,1526852,16992,-652,864,17026.44,29.89,-1.00,-1.0,2372
1854,1526854,17008,-584,1024,17048.80,29.80,-1.00,-1.0,2432
1857,1526857,17048,-572,960,17084.59,29.80,-1.00,-1.0,2387
1860,1526860,17160,-644,840,17192.61,29.89,-1.00,-1.0,2418
1863,1526863,16984,-600,908,17018.83,29.89,-1.00,-1.0,2376
1865,1526865,17084,-548,904,17116.68,29.85,-1.00,-1.0,2366
1868,1526868,16948,-616,748,16975.68,29.85,-1.00,-1.0,2417
1871,1526871,17064,-564,948,17099.62,29.85,-1.00,-1.0,2372
1876,1526876,17024,-624,944,17061.57,29.75,-1.00,-1.0,2424
1878,1526878,17028,-608,844,17059.74,29.89,-1.00,-1.0,2375
1881,1526881,17108,-612,912,17143.22,29.85,-1.00,-1.0,2425
1884,1526884,17016,-624,948,17053.81,29.85,-1.00,-1.0,2372
1887,1526887,17020,-508,928,17052.85,29.85,-1.00,-1.0,2418
1889,1526889,16956,-656,800,16987.53,29.85,-1.00,-1.0,2356
1892,1526892,17036,-628,860,17069.25,29.85,-1.00,-1.0,2417
1895,1526895,17104,-536,928,17137.54,29.89,-1.00,-1.0,2372
1900,1526900,17084,-524,792,17110.37,29.85,-1.00,-1.0,2428
1902,1526902,17048,-536,896,17079.94,29.75,-1.00,-1.0,2362
1905,1526905,17072,-624,1000,17112.64,29.94,-1.00,-1.0,2365
1908,1526908,17024,-588,816,17053.69,29.80,-1.00,-1.0,2431
1911,1526911,17020,-652,788,17050.70,29.89,-1.00,-1.0,2371
1913,1526913,17028,-652,952,17067.05,29.89,-1.00,-1.0,2429
1916,1526916,17012,-620,864,17045.21,29.99,-1.00,-1.0,2372
1919,1526919,16996,-568,992,17034.40,29.89,-1.00,-1.0,2424
1922,1526922,17052,-608,816,17082.34,29.80,-1.00,-1.0,2376
1926,1526926,17072,-616,1028,17114.01,29.75,-1.00,-1.0,2425
1929,1526929,17084,-700,776,17115.94,29.85,-1.00,-1.0,2373
1932,1526932,17008,-604,932,17044.22,29.80,-1.00,-1.0,2432
1935,1526935,16992,-580,780,17019.78,29.94,-1.00,-1.0,2371
1937,1526937,16960,-564,872,16991.77,29.80,-1.00,-1.0,2420
1940,1526940,17044,-700,816,17077.88,29.85,-1.00,-1.0,2372
1943,1526943,17012,-612,792,17041.42,29.94,-1.00,-1.0,2411
1946,1526946,17080,-676,956,17120.09,29.85,-1.00,-1.0,2449
1949,1526949,17108,-608,900,17142.44,29.80,-1.00,-1.0,2370
1954,1526954,17040,-508,940,17073.47,29.80,-1.00,-1.0,2424
1956,1526956,16968,-576,864,16999.74,29.89,-1.00,-1.0,2373
1959,1526959,16992,-568,832,17021.84,29.80,-1.00,-1.0,2426
1962,1526962,17016,-600,996,17055.68,29.89,-1.00,-1.0,2379
1965,1526965,17028,-592,1028,17069.27,29.80,-1.00,-1.0,2418
1967,1526967,17012,-556,876,17043.61,29.80,-1.00,-1.0,2372
1970,1526970,17008,-728,732,17039.30,29.80,-1.00,-1.0,2417
1973,1526973,16988,-556,1016,17027.44,29.89,-1.00,-1.0,2378
1978,1526978,16936,-616,872,16969.62,29.89,-1.00,-1.0,2425
1981,1526981,16968,-612,1080,17013.35,29.85,-1.00,-1.0,2375
1983,1526983,17056,-596,816,17085.91,29.80,-1.00,-1.0,2426
1986,1526986,17032,-528,956,17066.98,29.89,-1.00,-1.0,2372
1989,1526989,17064,-668,960,17104.03,29.75,-1.00,-1.0,2371
1991,1526991,17068,-572,936,17103.21,29.85,-1.00,-1.0,2425
1994,1526994,17012,-560,1044,17053.20,29.80,-1.00,-1.0,2379
1997,1526997,17012,-552,860,17042.67,29.85,-1.00,-1.0,2421
2000,1527000,17044,-568,912,17077.83,29.85,-1.00,-1.0,2380
2005,1527005,17164,-508,908,17195.51,29.94,-1.00,-1.0,2424
2007,1527007,17052,-620,880,17085.95,29.80,-1.00,-1.0,2375
2010,1527010,16940,-580,844,16970.93,29.75,-1.00,-1.0,2439
2013,1527013,17016,-676,956,17056.24,29.85,-1.00,-1.0,2380
2016,1527016,16992,-400,860,17018.45,29.85,-1.00,-1.0,2426
2018,1527018,16940,-556,912,16973.64,29.85,-1.00,-1.0,2380
2021,1527021,17096,-616,920,17131.81,29.94,-1.00,-1.0,2417
2024,1527024,17120,-536,1016,17158.49,29.85,-1.00,-1.0,2360
2027,1527027,17096,-704,932,17135.85,29.85,-1.00,-1.0,2367
2032,1527032,17060,-592,868,17092.32,29.85,-1.00,-1.0,2432
2034,1527034,17128,-568,784,17155.34,29.75,-1.00,-1.0,2379
2037,1527037,16936,-604,776,16964.52,29.75,-1.00,-1.0,2431
2040,1527040,17008,-608,828,17038.99,29.85,-1.00,-1.0,2378
2043,1527043,17128,-700,860,17163.86,29.89,-1.00,-1.0,2418
2045,1527045,17028,-548,896,17060.36,29.85,-1.00,-1.0,2378
2048,1527048,16960,-644,736,16988.17,29.80,-1.00,-1.0,2417
2051,1527051,17096,-620,872,17129.45,29.85,-1.00,-1.0,2373
2056,1527056,17108,-532,940,17142.06,29.85,-1.00,-1.0,2432
2059,1527059,17076,-560,932,17110.58,29.85,-1.00,-1.0,2374
2061,1527061,17004,-580,852,17035.21,29.89,-1.00,-1.0,2433
2064,1527064,17020,-516,924,17052.87,29.85,-1.00,-1.0,2387
2067,1527067,16964,-576,904,16997.83,29.80,-1.00,-1.0,2366
2070,1527070,17056,-668,896,17092.58,29.85,-1.00,-1.0,2416
2072,1527072,17072,-580,948,17108.13,29.80,-1.00,-1.0,2372
2075,1527075,16980,-524,940,17014.07,29.89,-1.00,-1.0,2416
2078,1527078,16904,-544,828,16933.01,29.80,-1.00,-1.0,2373
2083,1527083,17052,-592,936,17087.93,29.89,-1.00,-1.0,2423
2085,1527085,17144,-656,832,17176.71,29.89,-1.00,-1.0,2363
2088,1527088,17060,-532,796,17086.84,29.80,-1.00,-1.0,2425
2091,1527091,16996,-516,904,17027.84,29.80,-1.00,-1.0,2373
2094,1527094,17008,-616,820,17038.89,29.85,-1.00,-1.0,2422
2097,1527097,17060,-656,856,17094.05,29.89,-1.00,-1.0,2371
2099,1527099,17000,-532,996,17037.46,29.94,-1.00,-1.0,2365
2102,1527102,17004,-552,804,17031.95,29.85,-1.00,-1.0,2427
2105,1527105,17068,-584,992,17106.78,29.80,-1.00,-1.0,2372
2110,1527110,17056,-596,916,17090.97,29.85,-1.00,-1.0,2424
2112,1527112,17136,-532,760,17161.09,29.75,-1.00,-1.0,2377
2115,1527115,17032,-580,868,17063.96,29.85,-1.00,-1.0,2432
2118,1527118,17040,-648,888,17075.42,29.85,-1.00,-1.0,2380
2121,1527121,16988,-672,884,17024.25,29.89,-1.00,-1.0,2422
2123,1527123,17068,-588,920,17102.89,29.85,-1.00,-1.0,2374
2126,1527126,17060,-652,808,17091.56,29.80,-1.00,-1.0,2433
2129,1527129,17084,-644,776,17113.74,29.75,-1.00,-1.0,2379
2134,1527134,17052,-652,808,17083.58,29.85,-1.00,-1.0,2424
2136,1527136,17084,-412,964,17116.13,29.80,-1.00,-1.0,2375
2139,1527139,17116,-528,956,17150.81,29.85,-1.00,-1.0,2376
2142,1527142,16948,-596,936,16984.29,29.80,-1.00,-1.0,2440
2144,1527144,17000,-620,932,17036.81,29.80,-1.00,-1.0,2382
2147,1527147,17116,-644,872,17150.29,29.89,-1.00,-1.0,2416
2150,1527150,17100,-632,848,17132.67,29.89,-1.00,-1.0,2361
2153,1527153,17084,-532,1020,17122.69,29.85,-1.00,-1.0,2426
2156,1527156,16996,-592,816,17025.87,29.85,-1.00,-1.0,2377
2161,1527161,16920,-612,924,16956.26,29.85,-1.00,-1.0,2430
2164,1527164,17068,-592,800,17096.99,29.85,-1.00,-1.0,2374
2166,1527166,17032,-544,940,17066.59,29.94,-1.00,-1.0,2425
2169,1527169,16984,-664,892,17020.37,29.85,-1.00,-1.0,2373
2172,1527172,16964,-500,972,16999.18,29.85,-1.00,-1.0,2420
2175,1527175,17116,-592,876,17148.62,29.75,-1.00,-1.0,2371
2177,1527177,16992,-536,780,17018.34,29.89,-1.00,-1.0,2379
2180,1527180,17096,-564,808,17124.37,29.89,-1.00,-1.0,2421
2183,1527183,17044,-636,1020,17086.33,29.80,-1.00,-1.0,2368
2188,1527188,17024,-604,824,17054.63,29.75,-1.00,-1.0,2431
2191,1527191,17068,-576,1048,17109.84,29.75,-1.00,-1.0,2375
2193,1527193,16960,-516,936,16993.64,29.71,-1.00,-1.0,2427
2196,1527196,16976,-564,912,17009.83,29.85,-1.00,-1.0,2372
2199,1527199,16968,-596,812,16997.87,29.80,-1.00,-1.0,2423
2202,1527202,17024,-544,780,17050.54,29.94,-1.00,-1.0,2372
2204,1527204,16980,-652,876,17015.08,29.89,-1.00,-1.0,2425
2207,1527207,17012,-608,832,17043.18,29.89,-1.00,-1.0,2372
2212,1527212,17088,-584,868,17119.99,29.85,-1.00,-1.0,2424
2215,1527215,17004,-648,884,17039.29,29.89,-1.00,-1.0,2375
2218,1527218,17060,-516,1004,17097.31,29.80,-1.00,-1.0,2365
2220,1527220,17100,-596,1072,17143.93,29.80,-1.00,-1.0,2437
2223,1527223,17192,-612,912,17227.05,29.80,-1.00,-1.0,2372
2226,1527226,17048,-600,912,17082.92,29.89,-1.00,-1.0,2419
2229,1527229,17008,-636,932,17045.39,29.80,-1.00,-1.0,2372
2231,1527231,16984,-624,932,17020.99,29.89,-1.00,-1.0,2427
2234,1527234,16960,-520,736,16983.92,29.80,-1.00,-1.0,2372
2239,1527239,17096,-620,956,17133.93,29.80,-1.00,-1.0,2425
2242,1527242,17108,-580,744,17133.99,29.85,-1.00,-1.0,2375
2245,1527245,16980,-544,972,17016.50,29.80,-1.00,-1.0,2425
2247,1527247,17100,-504,892,17130.66,29.89,-1.00,-1.0,2375
2250,1527250,17036,-652,904,17072.42,29.80,-1.00,-1.0,2417
2253,1527253,17084,-576,860,17115.33,29.80,-1.00,-1.0,2379
2256,1527256,17024,-512,768,17049.00,29.89,-1.00,-1.0,2417
2258,1527258,17008,-536,836,17036.97,29.80,-1.00,-1.0,2372
2261,1527261,17104,-568,868,17135.43,29.80,-1.00,-1.0,2366
2266,1527266,17036,-664,892,17072.25,29.80,-1.00,-1.0,2432
2269,1527269,17072,-672,956,17111.95,29.80,-1.00,-1.0,2373
2271,1527271,17060,-580,844,17090.71,29.94,-1.00,-1.0,2435
2274,1527274,16928,-616,904,16963.31,29.80,-1.00,-1.0,2379
2277,1527277,16992,-540,940,17026.54,29.89,-1.00,-1.0,2406
2280,1527280,17024,-604,796,17053.30,29.89,-1.00,-1.0,2372
2282,1527282,16992,-580,772,17019.41,29.75,-1.00,-1.0,2426
2285,1527285,17052,-580,940,17087.74,29.80,-1.00,-1.0,2379
2290,1527290,17096,-572,952,17132.04,29.80,-1.00,-1.0,2424
2293,1527293,17036,-568,788,17063.67,29.80,-1.00,-1.0,2382
2295,1527295,17068,-632,1032,17110.85,29.85,-1.00,-1.0,2374
2298,1527298,17100,-672,784,17131.15,29.85,-1.00,-1.0,2425
2301,1527301,17012,-668,944,17051.26,29.75,-1.00,-1.0,2372
2304,1527304,17060,-596,744,17086.61,29.80,-1.00,-1.0,2418
2306,1527306,17000,-656,1004,17042.25,29.85,-1.00,-1.0,2376
2309,1527309,17096,-584,892,17129.21,29.89,-1.00,-1.0,2417
2312,1527312,17104,-580,928,17138.97,29.85,-1.00,-1.0,2374
2317,1527317,17100,-632,916,17136.17,29.89,-1.00,-1.0,2424
2320,1527320,17096,-624,1040,17138.97,29.80,-1.00,-1.0,2373
2322,1527322,16972,-668,860,17006.90,29.89,-1.00,-1.0,2424
2325,1527325,16984,-596,876,17017.02,29.80,-1.00,-1.0,2377
2328,1527328,17048,-620,876,17081.75,29.80,-1.00,-1.0,2420
2331,1527331,17040,-640,928,17077.25,29.80,-1.00,-1.0,2371
2333,1527333,17000,-664,864,17034.89,29.89,-1.00,-1.0,2420
2336,1527336,17000,-568,840,17030.21,29.89,-1.00,-1.0,2372
2339,1527339,16968,-656,920,17005.58,29.80,-1.00,-1.0,2355
2344,1527344,17104,-472,928,17135.66,29.85,-1.00,-1.0,2424
2346,1527346,17040,-552,868,17071.02,29.75,-1.00,-1.0,2375
2349,1527349,16944,-564,876,16976.00,29.85,-1.00,-1.0,2438
2352,1527352,16976,-592,928,17011.65,29.85,-1.00,-1.0,2384
2355,1527355,16980,-588,900,17014.00,29.89,-1.00,-1.0,2426
2357,1527357,17080,-640,936,17117.60,29.85,-1.00,-1.0,2383
2360,1527360,17104,-580,744,17130.00,29.80,-1.00,-1.0,2417
2363,1527363,17036,-596,912,17070.80,29.80,-1.00,-1.0,2376
2368,1527368,17188,-532,908,17220.19,29.80,-1.00,-1.0,2424
2371,1527371,17008,-588,1064,17051.39,29.89,-1.00,-1.0,2376
2374,1527374,17020,-616,860,17052.84,29.80,-1.00,-1.0,2425
2376,1527376,16936,-604,848,16967.97,29.89,-1.00,-1.0,2372
2379,1527379,16984,-560,904,17017.26,29.85,-1.00,-1.0,2377
2382,1527382,17100,-580,1020,17140.21,29.85,-1.00,-1.0,2430
2384,1527384,17096,-624,956,17134.07,29.85,-1.00,-1.0,2373
2387,1527387,17100,-552,936,17134.49,29.80,-1.00,-1.0,2426
2390,1527390,17012,-728,936,17053.28,29.80,-1.00,-1.0,2376
2395,1527395,17144,-660,904,17180.50,29.80,-1.00,-1.0,2411
2398,1527398,17096,-580,960,17132.75,29.89,-1.00,-1.0,2374
2401,1527401,17008,-616,848,17040.27,29.80,-1.00,-1.0,2419
2403,1527403,17020,-504,692,17041.52,29.80,-1.00,-1.0,2373
2406,1527406,17056,-556,844,17085.92,29.94,-1.00,-1.0,2423
2409,1527409,17024,-636,728,17051.42,29.89,-1.00,-1.0,2372
2412,1527412,17072,-644,800,17102.86,29.85,-1.00,-1.0,2417
2414,1527414,17160,-488,780,17184.65,29.80,-1.00,-1.0,2373
2417,1527417,17100,-580,932,17135.20,29.85,-1.00,-1.0,2367
2422,1527422,17096,-608,952,17133.28,29.94,-1.00,-1.0,2425
2425,1527425,17004,-584,912,17038.45,29.80,-1.00,-1.0,2375
2428,1527428,17056,-468,940,17088.29,29.85,-1.00,-1.0,2424
2430,1527430,17032,-616,920,17067.95,29.89,-1.00,-1.0,2372
2433,1527433,17004,-560,848,17034.34,29.85,-1.00,-1.0,2417
2436,1527436,17072,-564,688,17095.16,29.80,-1.00,-1.0,2372
2439,1527439,17060,-532,732,17083.98,29.85,-1.00,-1.0,2417
2441,1527441,17012,-596,868,17044.55,29.85,-1.00,-1.0,2372
2446,1527446,17084,-680,764,17114.59,29.89,-1.00,-1.0,2425
2449,1527449,17004,-508,936,17037.32,29.89,-1.00,-1.0,2374
2452,1527452,17052,-640,940,17089.88,29.80,-1.00,-1.0,2427
2455,1527455,17068,-596,884,17101.27,29.71,-1.00,-1.0,2369
2457,1527457,16972,-556,948,17007.55,29.85,-1.00,-1.0,2365
2460,1527460,17048,-516,844,17076.68,29.80,-1.00,-1.0,2423
2463,1527463,17028,-624,972,17067.13,29.75,-1.00,-1.0,2372
2465,1527465,17028,-508,836,17056.08,29.89,-1.00,-1.0,2430
2468,1527468,17000,-560,848,17030.35,29.89,-1.00,-1.0,2380
2473,1527473,17028,-592,916,17062.89,29.80,-1.00,-1.0,2424
2476,1527476,17104,-696,772,17135.55,29.94,-1.00,-1.0,2381
2479,1527479,16948,-684,944,16988.04,29.80,-1.00,-1.0,2421
2481,1527481,16976,-680,780,17007.51,29.85,-1.00,-1.0,2373
2484,1527484,16932,-604,912,16967.30,29.89,-1.00,-1.0,2437
2487,1527487,17112,-576,704,17136.16,29.89,-1.00,-1.0,2384
2490,1527490,17072,-572,748,17097.95,29.75,-1.00,-1.0,2366
2492,1527492,17040,-600,932,17076.01,29.85,-1.00,-1.0,2417
2495,1527495,17060,-540,836,17089.01,29.89,-1.00,-1.0,2386
2500,1527500,17116,-548,976,17152.56,29.89,-1.00,-1.0,2439
2503,1527503,17084,-624,832,17115.63,29.80,-1.00,-1.0,2381
2506,1527506,17012,-560,900,17044.99,29.80,-1.00,-1.0,2437
2508,1527508,17032,-576,948,17068.08,29.89,-1.00,-1.0,2380
2511,1527511,17012,-476,1016,17048.96,29.85,-1.00,-1.0,2417
2514,1527514,16976,-672,992,17018.23,29.89,-1.00,-1.0,2376
2517,1527517,17044,-552,912,17077.31,29.99,-1.00,-1.0,2418
2519,1527519,16948,-624,896,16983.13,29.89,-1.00,-1.0,2376
2525,1527525,17132,-616,840,17163.64,29.85,-1.00,-1.0,2425
2528,1527528,17060,-636,912,17096.19,29.89,-1.00,-1.0,2380
2530,1527530,17028,-700,1004,17071.93,29.75,-1.00,-1.0,2365
2533,1527533,17000,-504,1024,17038.27,29.80,-1.00,-1.0,2425
2536,1527536,17108,-552,856,17138.29,29.85,-1.00,-1.0,2380
2539,1527539,17052,-548,900,17084.53,29.89,-1.00,-1.0,2417
2541,1527541,17124,-600,960,17161.38,29.80,-1.00,-1.0,2372
2544,1527544,16968,-556,860,16998.88,29.80,-1.00,-1.0,2416
2547,1527547,17192,-576,860,17223.13,29.80,-1.00,-1.0,2418
2552,1527552,17024,-588,964,17061.41,29.85,-1.00,-1.0,2431
2554,1527554,17036,-548,844,17065.70,29.85,-1.00,-1.0,2386
2557,1527557,17044,-592,996,17083.34,29.85,-1.00,-1.0,2409
2560,1527560,17044,-640,812,17075.33,29.85,-1.00,-1.0,2369
2563,1527563,16960,-648,796,16991.03,29.85,-1.00,-1.0,2422
2565,1527565,17028,-660,996,17069.87,29.85,-1.00,-1.0,2370
2568,1527568,17060,-616,1052,17103.50,29.75,-1.00,-1.0,2421
2571,1527571,17016,-632,808,17046.89,29.75,-1.00,-1.0,2371
2574,1527574,17028,-656,816,17060.16,29.80,-1.00,-1.0,2367
2579,1527579,16952,-612,936,16988.85,29.80,-1.00,-1.0,2429
2581,1527581,16992,-632,824,17023.70,29.85,-1.00,-1.0,2377
2584,1527584,17084,-624,936,17121.00,29.89,-1.00,-1.0,2422
2587,1527587,16932,-544,964,16968.14,29.80,-1.00,-1.0,2371
2590,1527590,16996,-556,884,17028.05,29.89,-1.00,-1.0,2421
2592,1527592,16948,-632,916,16984.50,29.71,-1.00,-1.0,2371
2595,1527595,17028,-552,832,17057.25,29.80,-1.00,-1.0,2420
2598,1527598,17020,-568,908,17053.66,29.80,-1.00,-1.0,2375
2603,1527603,17076,-580,872,17108.08,29.89,-1.00,-1.0,2429
2606,1527606,17104,-568,900,17137.08,29.85,-1.00,-1.0,2371
2608,1527608,17052,-544,808,17079.80,29.80,-1.00,-1.0,2427
2611,1527611,17124,-572,932,17158.88,29.89,-1.00,-1.0,2374
2614,1527614,16992,-584,812,17021.41,29.80,-1.00,-1.0,2370
2616,1527616,17080,-640,816,17111.45,29.85,-1.00,-1.0,2429
2619,1527619,17072,-568,888,17104.51,29.85,-1.00,-1.0,2382
2622,1527622,17104,-608,840,17135.40,29.85,-1.00,-1.0,2422
2625,1527625,16976,-580,864,17007.87,29.85,-1.00,-1.0,2370
2630,1527630,16992,-572,912,17026.07,29.89,-1.00,-1.0,2428
2632,1527632,17092,-568,808,17120.51,29.94,-1.00,-1.0,2380
2635,1527635,16992,-532,800,17019.14,29.75,-1.00,-1.0,2423
2638,1527638,17088,-636,764,17116.89,29.85,-1.00,-1.0,2377
2641,1527641,17036,-512,848,17064.78,29.85,-1.00,-1.0,2435
2643,1527643,17072,-540,964,17107.72,29.85,-1.00,-1.0,2377
2646,1527646,17008,-640,908,17044.24,29.80,-1.00,-1.0,2365
2649,1527649,17032,-676,848,17066.49,29.89,-1.00,-1.0,2428
2652,1527652,17052,-624,944,17089.51,29.80,-1.00,-1.0,2367
2657,1527657,17088,-588,940,17123.93,29.85,-1.00,-1.0,2434
2659,1527659,17060,-612,892,17094.26,29.75,-1.00,-1.0,2385
2662,1527662,16992,-624,844,17024.39,29.89,-1.00,-1.0,2422
2665,1527665,17140,-572,980,17177.52,29.85,-1.00,-1.0,2371
2668,1527668,17080,-620,904,17115.14,29.89,-1.00,-1.0,2424
2670,1527670,17016,-572,852,17046.92,29.89,-1.00,-1.0,2369
2673,1527673,17056,-704,1032,17101.69,29.89,-1.00,-1.0,2421
2676,1527676,17036,-576,964,17072.97,29.89,-1.00,-1.0,2372
2681,1527681,16964,-568,872,16995.89,29.85,-1.00,-1.0,2437
2684,1527684,17104,-572,756,17130.25,29.85,-1.00,-1.0,2384
2686,1527686,17032,-660,956,17071.57,29.89,-1.00,-1.0,2366
2689,1527689,17100,-600,860,17132.12,29.85,-1.00,-1.0,2421
2692,1527692,17060,-668,800,17091.81,29.80,-1.00,-1.0,2368
2695,1527695,17056,-600,1000,17095.82,29.89,-1.00,-1.0,2421
2697,1527697,17072,-680,792,17103.88,29.89,-1.00,-1.0,2369
2700,1527700,17148,-500,892,17178.46,29.85,-1.00,-1.0,2421
2703,1527703,17036,-588,756,17062.90,29.80,-1.00,-1.0,2367
2708,1527708,16980,-592,940,17016.30,29.80,-1.00,-1.0,2429
2710,1527710,16916,-652,776,16946.34,29.89,-1.00,-1.0,2378
2713,1527713,17028,-544,928,17061.94,29.89,-1.00,-1.0,2427
2716,1527716,17008,-644,836,17040.71,29.89,-1.00,-1.0,2371
2719,1527719,16984,-648,988,17025.05,29.89,-1.00,-1.0,2420
2722,1527722,16988,-628,660,17012.41,29.80,-1.00,-1.0,2370
2724,1527724,17056,-580,792,17084.23,29.85,-1.00,-1.0,2366
2727,1527727,17160,-468,860,17187.91,29.85,-1.00,-1.0,2430
2730,1527730,17068,-628,812,17098.84,29.85,-1.00,-1.0,2367
2734,1527734,17024,-560,896,17056.76,29.89,-1.00,-1.0,2441
2737,1527737,17028,-544,1000,17066.01,29.85,-1.00,-1.0,2386
2740,1527740,17100,-572,800,17128.26,29.89,-1.00,-1.0,2426
2743,1527743,16972,-608,788,17001.16,29.89,-1.00,-1.0,2371
2745,1527745,17104,-684,1004,17147.09,29.80,-1.00,-1.0,2429
2748,1527748,17064,-544,904,17096.59,29.80,-1.00,-1.0,2382
2751,1527751,17068,-616,1000,17108.36,29.89,-1.00,-1.0,2423
2754,1527754,17100,-604,948,17136.90,29.89,-1.00,-1.0,2372
2758,1527758,17132,-556,848,17161.98,29.85,-1.00,-1.0,2431
2761,1527761,17036,-564,896,17068.87,29.85,-1.00,-1.0,2378
2764,1527764,17168,-568,836,17197.72,29.80,-1.00,-1.0,2429
2767,1527767,17036,-636,992,17076.71,29.85,-1.00,-1.0,2367
2769,1527769,17080,-652,820,17112.10,29.89,-1.00,-1.0,2368
2772,1527772,17024,-752,796,17059.18,29.89,-1.00,-1.0,2421
2775,1527775,16992,-664,868,17027.11,29.80,-1.00,-1.0,2366
2778,1527778,17088,-660,944,17126.78,29.80,-1.00,-1.0,2424
2780,1527780,17064,-576,952,17100.24,29.80,-1.00,-1.0,2376
2785,1527785,17060,-672,956,17099.97,29.89,-1.00,-1.0,2440
2788,1527788,17164,-492,948,17197.20,29.89,-1.00,-1.0,2378
2791,1527791,17068,-600,852,17099.78,29.80,-1.00,-1.0,2427
2794,1527794,17016,-788,876,17056.75,29.89,-1.00,-1.0,2376
2797,1527797,17028,-588,852,17059.44,29.80,-1.00,-1.0,2424
2799,1527799,17060,-628,968,17098.98,29.89,-1.00,-1.0,2376
2802,1527802,17028,-580,852,17059.16,29.75,-1.00,-1.0,2423
2805,1527805,17140,-608,800,17169.43,29.80,-1.00,-1.0,2369
2807,1527807,17060,-716,944,17101.09,29.71,-1.00,-1.0,2369
2812,1527812,17072,-564,928,17106.50,29.80,-1.00,-1.0,2438
2815,1527815,17012,-576,844,17042.66,29.89,-1.00,-1.0,2387
2818,1527818,17028,-620,904,17063.25,29.85,-1.00,-1.0,2424
2821,1527821,17112,-540,976,17148.31,29.71,-1.00,-1.0,2374
2824,1527824,16964,-652,824,16996.51,29.85,-1.00,-1.0,2422
2826,1527826,16976,-460,896,17005.85,29.80,-1.00,-1.0,2356
2829,1527829,16952,-572,840,16982.44,29.75,-1.00,-1.0,2423
2832,1527832,17036,-668,908,17073.25,29.89,-1.00,-1.0,2368
2837,1527837,17008,-544,896,17040.27,29.80,-1.00,-1.0,2432
2839,1527839,17000,-672,760,17030.24,29.80,-1.00,-1.0,2381
2842,1527842,16920,-668,884,16956.24,29.75,-1.00,-1.0,2366
2845,1527845,17036,-624,860,17069.10,29.89,-1.00,-1.0,2427
2848,1527848,17112,-504,964,17146.54,29.85,-1.00,-1.0,2367
2850,1527850,17012,-556,844,17042.00,29.89,-1.00,-1.0,2423
2853,1527853,17052,-624,952,17089.95,29.85,-1.00,-1.0,2375
2856,1527856,17112,-608,828,17142.81,29.80,-1.00,-1.0,2429
2859,1527859,17156,-548,700,17179.02,29.85,-1.00,-1.0,2367
2864,1527864,17020,-608,828,17050.97,29.85,-1.00,-1.0,2429
2866,1527866,16992,-592,828,17022.46,29.85,-1.00,-1.0,2382
2869,1527869,17004,-508,752,17028.20,29.85,-1.00,-1.0,2422
2872,1527872,16980,-676,752,17010.08,29.85,-1.00,-1.0,2372
2875,1527875,17076,-536,924,17109.38,29.89,-1.00,-1.0,2421
2877,1527877,17044,-584,892,17077.31,29.94,-1.00,-1.0,2369
2880,1527880,16944,-660,900,16980.72,29.89,-1.00,-1.0,2361
2883,1527883,16964,-780,928,17007.26,29.89,-1.00,-1.0,2424
2886,1527886,16944,-668,880,16979.98,29.80,-1.00,-1.0,2368
2891,1527891,17056,-580,968,17093.29,29.85,-1.00,-1.0,2429
2893,1527893,17020,-680,916,17058.19,29.85,-1.00,-1.0,2377
2896,1527896,17084,-660,920,17121.48,29.89,-1.00,-1.0,2422
2899,1527899,16944,-592,804,16973.39,29.94,-1.00,-1.0,2368
2902,1527902,16984,-508,832,17011.95,29.89,-1.00,-1.0,2408
2904,1527904,17092,-524,804,17118.92,29.85,-1.00,-1.0,2369
2907,1527907,17108,-568,920,17142.13,29.80,-1.00,-1.0,2422
2910,1527910,17064,-504,756,17088.17,29.85,-1.00,-1.0,2367
2915,1527915,16920,-580,896,16953.63,29.85,-1.00,-1.0,2429
2917,1527917,17076,-600,880,17109.18,29.85,-1.00,-1.0,2385
2920,1527920,17100,-564,768,17126.53,29.80,-1.00,-1.0,2366
2923,1527923,16972,-568,940,17007.50,29.85,-1.00,-1.0,2428
2926,1527926,17096,-532,896,17127.73,29.80,-1.00,-1.0,2372
2928,1527928,17020,-544,1044,17060.66,29.85,-1.00,-1.0,2434
2931,1527931,16988,-660,876,17023.37,29.89,-1.00,-1.0,2368
2934,1527934,17060,-668,796,17091.62,29.85,-1.00,-1.0,2432
2937,1527937,17028,-660,856,17062.27,29.89,-1.00,-1.0,2368
2941,1527941,17008,-488,780,17032.87,29.85,-1.00,-1.0,2439
2944,1527944,17016,-564,868,17047.46,29.75,-1.00,-1.0,2392
2947,1527947,17024,-508,900,17055.34,29.80,-1.00,-1.0,2423
2950,1527950,17100,-624,828,17131.40,29.85,-1.00,-1.0,2366
2953,1527953,16932,-540,1012,16970.81,29.89,-1.00,-1.0,2423
2955,1527955,17088,-600,900,17122.20,29.94,-1.00,-1.0,2371
2958,1527958,16976,-632,920,17012.65,29.89,-1.00,-1.0,2373
2961,1527961,17012,-608,848,17043.97,29.85,-1.00,-1.0,2432
2964,1527964,17044,-564,904,17077.27,29.85,-1.00,-1.0,2369
2968,1527968,17036,-556,884,17067.98,29.89,-1.00,-1.0,2428
2971,1527971,16984,-676,928,17022.76,29.89,-1.00,-1.0,2377
2974,1527974,17012,-552,940,17046.89,29.75,-1.00,-1.0,2425
2977,1527977,16944,-652,924,16981.70,29.80,-1.00,-1.0,2367
2979,1527979,16940,-572,844,16970.65,29.80,-1.00,-1.0,2423
2982,1527982,17028,-644,888,17063.29,29.89,-1.00,-1.0,2369
2985,1527985,17044,-584,912,17078.37,29.85,-1.00,-1.0,2428
2988,1527988,17020,-588,832,17050.46,30.04,-1.00,-1.0,2374
2993,1527993,17008,-628,916,17044.22,29.85,-1.00,-1.0,2429
2995,1527995,17036,-592,876,17068.78,29.89,-1.00,-1.0,2381
2998,1527998,17020,-528,948,17054.56,29.80,-1.00,-1.0,2368
3001,1528001,17036,-600,1000,17075.87,29.80,-1.00,-1.0,2421
3004,1528004,16968,-584,856,16999.61,29.80,-1.00,-1.0,2370
3006,1528006,17132,-540,756,17157.17,29.89,-1.00,-1.0,2421
3009,1528009,17020,-592,980,17058.47,29.89,-1.00,-1.0,2369
3012,1528012,16976,-592,1036,17017.88,29.89,-1.00,-1.0,2427
3015,1528015,17044,-580,800,17072.62,29.89,-1.00,-1.0,2372
3020,1528020,17104,-660,900,17140.37,29.89,-1.00,-1.0,2436
3022,1528022,17028,-584,852,17059.30,29.75,-1.00,-1.0,2377
3025,1528025,17048,-580,868,17079.93,29.99,-1.00,-1.0,2428
3028,1528028,17080,-652,892,17115.70,29.85,-1.00,-1.0,2380
3031,1528031,17080,-536,936,17114.02,29.89,-1.00,-1.0,2424
3033,1528033,17080,-604,752,17107.21,29.89,-1.00,-1.0,2375
3036,1528036,17108,-572,1016,17147.69,29.94,-1.00,-1.0,2366
3039,1528039,17104,-604,876,17137.06,29.85,-1.00,-1.0,2424
3042,1528042,17024,-632,860,17057.42,29.89,-1.00,-1.0,2367
3047,1528047,16996,-568,740,17021.58,29.80,-1.00,-1.0,2435
3049,1528049,16964,-520,964,16999.32,29.89,-1.00,-1.0,2381
3052,1528052,17080,-548,896,17112.26,29.89,-1.00,-1.0,2421
3055,1528055,16988,-604,832,17019.08,29.89,-1.00,-1.0,2370
3058,1528058,16972,-632,1036,17015.33,29.99,-1.00,-1.0,2421
3060,1528060,17008,-600,956,17045.41,29.89,-1.00,-1.0,2381
3063,1528063,17080,-584,864,17111.81,29.89,-1.00,-1.0,2422
3066,1528066,16972,-556,764,16998.28,29.89,-1.00,-1.0,2371
3071,1528071,17132,-600,812,17161.72,29.80,-1.00,-1.0,2434
3074,1528074,17032,-568,824,17061.38,29.94,-1.00,-1.0,2383
3076,1528076,17116,-532,864,17146.05,29.89,-1.00,-1.0,2358
3079,1528079,17120,-512,840,17148.24,29.80,-1.00,-1.0,2422
3082,1528082,17004,-612,796,17033.62,29.71,-1.00,-1.0,2371
3085,1528085,17040,-672,880,17075.94,29.85,-1.00,-1.0,2421
3087,1528087,17044,-536,936,17078.10,29.89,-1.00,-1.0,2370
3090,1528090,16980,-508,720,17002.85,29.85,-1.00,-1.0,2421
3093,1528093,17108,-556,788,17135.16,29.94,-1.00,-1.0,2370
3098,1528098,17132,-572,884,17164.33,29.80,-1.00,-1.0,2418
3101,1528101,17028,-620,844,17060.17,29.80,-1.00,-1.0,2385
3104,1528104,17000,-580,852,17031.21,29.85,-1.00,-1.0,2425
3106,1528106,17004,-632,1052,17048.23,29.89,-1.00,-1.0,2376
3109,1528109,17040,-472,916,17071.13,29.85,-1.00,-1.0,2424
3112,1528112,17060,-616,884,17093.99,29.80,-1.00,-1.0,2368
3114,1528114,17108,-668,828,17141.05,29.85,-1.00,-1.0,2366
3117,1528117,17008,-628,1036,17051.09,29.80,-1.00,-1.0,2421
3120,1528120,17028,-592,880,17061.00,29.85,-1.00,-1.0,2369
3125,1528125,17112,-508,760,17136.40,29.85,-1.00,-1.0,2428
3127,1528127,17092,-616,956,17129.79,29.85,-1.00,-1.0,2381
3130,1528130,17088,-600,928,17123.70,29.94,-1.00,-1.0,2422
3133,1528133,17072,-600,936,17108.16,29.75,-1.00,-1.0,2361
3136,1528136,17020,-536,904,17052.42,29.85,-1.00,-1.0,2428
3139,1528139,16968,-656,840,17001.44,29.85,-1.00,-1.0,2368
3141,1528141,17028,-624,1024,17070.17,29.85,-1.00,-1.0,2421
3144,1528144,17028,-632,860,17061.41,29.94,-1.00,-1.0,2356
3149,1528149,17080,-552,940,17114.75,29.94,-1.00,-1.0,2436
3152,1528152,16984,-652,824,17016.47,29.94,-1.00,-1.0,2372
3154,1528154,16948,-632,832,16980.18,29.80,-1.00,-1.0,2423
3157,1528157,17124,-604,784,17152.58,29.85,-1.00,-1.0,2375
3160,1528160,17144,-628,852,17176.64,29.80,-1.00,-1.0,2368
3162,1528162,16992,-556,772,17018.61,29.94,-1.00,-1.0,2428
3165,1528165,17104,-592,1004,17143.67,29.89,-1.00,-1.0,2384
3168,1528168,16980,-560,860,17010.98,29.94,-1.00,-1.0,2423
3171,1528171,17032,-544,884,17063.60,29.89,-1.00,-1.0,2375
3176,1528176,17044,-560,976,17081.10,29.94,-1.00,-1.0,2428
3178,1528178,17072,-552,916,17105.46,29.80,-1.00,-1.0,2374
3181,1528181,16956,-596,828,16986.66,29.85,-1.00,-1.0,2408
3184,1528184,17060,-488,940,17092.85,29.85,-1.00,-1.0,2375
3187,1528187,17056,-560,776,17082.82,29.94,-1.00,-1.0,2422
3189,1528189,17004,-540,776,17030.26,29.85,-1.00,-1.0,2369
3192,1528192,17108,-516,844,17136.58,29.89,-1.00,-1.0,2421
3195,1528195,16984,-644,804,17015.21,29.80,-1.00,-1.0,2378
3198,1528198,17072,-564,864,17103.15,29.89,-1.00,-1.0,2376
3203,1528203,17068,-604,788,17096.85,29.89,-1.00,-1.0,2436
3206,1528206,17008,-656,952,17047.25,29.89,-1.00,-1.0,2371
3208,1528208,17048,-584,888,17081.10,29.89,-1.00,-1.0,2424
3211,1528211,17056,-596,824,17086.29,29.80,-1.00,-1.0,2378
3214,1528214,17064,-576,936,17099.36,29.85,-1.00,-1.0,2430
3217,1528217,17056,-636,824,17087.73,29.89,-1.00,-1.0,2369
3219,1528219,16880,-572,892,16913.23,29.94,-1.00,-1.0,2434
3222,1528222,17052,-572,716,17076.61,29.89,-1.00,-1.0,2368
3227,1528227,17008,-648,1024,17051.12,29.89,-1.00,-1.0,2429
3230,1528230,17064,-600,1056,17107.17,29.80,-1.00,-1.0,2377
3233,1528233,16992,-620,936,17029.05,29.89,-1.00,-1.0,2422
3235,1528235,16988,-584,980,17026.26,29.89,-1.00,-1.0,2368
3238,1528238,17024,-572,984,17062.01,29.94,-1.00,-1.0,2374
3241,1528241,16992,-580,832,17022.24,29.85,-1.00,-1.0,2432
3243,1528243,17128,-548,812,17155.99,29.85,-1.00,-1.0,2377
3246,1528246,17104,-664,972,17144.46,29.89,-1.00,-1.0,2420
3249,1528249,17020,-552,876,17051.46,29.85,-1.00,-1.0,2369
3254,1528254,17096,-652,772,17125.84,29.85,-1.00,-1.0,2436
3257,1528257,16968,-696,908,17006.53,29.85,-1.00,-1.0,2378
3259,1528259,16916,-564,848,16946.63,29.94,-1.00,-1.0,2430
3262,1528262,17084,-592,824,17114.10,29.99,-1.00,-1.0,2374
3265,1528265,17024,-548,732,17048.54,29.85,-1.00,-1.0,2421
3268,1528268,17080,-640,888,17115.04,29.85,-1.00,-1.0,2372
3270,1528270,17044,-596,908,17078.57,29.94,-1.00,-1.0,2427
3273,1528273,17028,-532,788,17054.52,29.94,-1.00,-1.0,2383
3276,1528276,17056,-640,952,17094.53,29.94,-1.00,-1.0,2366
3281,1528281,17056,-592,876,17088.74,29.85,-1.00,-1.0,2436
3284,1528284,17168,-632,888,17202.56,29.94,-1.00,-1.0,2377
3286,1528286,17024,-560,896,17056.76,29.94,-1.00,-1.0,2430
3289,1528289,17080,-576,856,17111.13,29.85,-1.00,-1.0,2384
3292,1528292,17052,-580,864,17083.72,29.89,-1.00,-1.0,2424
3295,1528295,17116,-656,840,17149.15,29.85,-1.00,-1.0,2368
3297,1528297,17080,-668,904,17116.95,29.89,-1.00,-1.0,2424
3300,1528300,17060,-700,848,17095.40,29.85,-1.00,-1.0,2377
3305,1528305,17128,-660,884,17163.49,29.85,-1.00,-1.0,2443
3308,1528308,17044,-756,960,17087.75,29.94,-1.00,-1.0,2384
3311,1528311,17072,-672,928,17110.40,29.80,-1.00,-1.0,2365
3313,1528313,17080,-656,932,17117.98,29.94,-1.00,-1.0,2422
3316,1528316,17028,-584,792,17056.41,29.80,-1.00,-1.0,2356
3319,1528319,17088,-576,804,17116.60,29.80,-1.00,-1.0,2429
3322,1528322,17052,-612,948,17089.29,29.89,-1.00,-1.0,2371
3324,1528324,17044,-764,872,17083.38,29.94,-1.00,-1.0,2421
3327,1528327,17000,-540,828,17028.72,29.89,-1.00,-1.0,2368
3332,1528332,17048,-556,896,17080.58,29.89,-1.00,-1.0,2429
3335,1528335,17044,-624,856,17076.89,29.80,-1.00,-1.0,2369
3338,1528338,16952,-644,932,16989.81,29.89,-1.00,-1.0,2427
3340,1528340,16992,-560,736,17017.15,29.89,-1.00,-1.0,2369
3343,1528343,17076,-632,876,17110.13,29.89,-1.00,-1.0,2421
3346,1528346,17112,-552,904,17144.75,29.89,-1.00,-1.0,2369
3348,1528348,16960,-740,800,16994.98,29.85,-1.00,-1.0,2367
3351,1528351,16992,-572,868,17023.77,29.94,-1.00,-1.0,2421
3354,1528354,17008,-636,924,17044.95,29.89,-1.00,-1.0,2369
3360,1528360,17056,-668,908,17093.21,29.85,-1.00,-1.0,2425
3362,1528362,16924,-580,848,16955.15,29.94,-1.00,-1.0,2379
3365,1528365,17040,-620,800,17070.03,29.85,-1.00,-1.0,2423
3368,1528368,16992,-456,704,17012.69,29.85,-1.00,-1.0,2376
3371,1528371,16988,-508,836,17016.14,29.85,-1.00,-1.0,2421
3373,1528373,17056,-556,864,17086.92,29.85,-1.00,-1.0,2368
3376,1528376,17028,-612,880,17061.70,29.85,-1.00,-1.0,2422
3379,1528379,17080,-676,908,17117.47,29.75,-1.00,-1.0,2376
3384,1528384,17016,-592,728,17041.85,29.94,-1.00,-1.0,2429
3386,1528386,16976,-572,988,17014.34,29.75,-1.00,-1.0,2372
3389,1528389,17016,-492,908,17047.31,29.80,-1.00,-1.0,2373
3392,1528392,16960,-544,900,16992.57,29.89,-1.00,-1.0,2434
3394,1528394,17020,-592,732,17046.02,29.80,-1.00,-1.0,2378
3397,1528397,17064,-572,956,17100.33,29.89,-1.00,-1.0,2434
3400,1528400,17088,-628,908,17123.63,29.80,-1.00,-1.0,2372
3403,1528403,16972,-608,784,17000.97,29.80,-1.00,-1.0,2422
3405,1528405,17020,-592,736,17046.19,29.80,-1.00,-1.0,2375
3410,1528410,17004,-728,804,17038.56,29.89,-1.00,-1.0,2437
3413,1528413,17072,-588,964,17109.30,29.80,-1.00,-1.0,2386
3416,1528416,17028,-652,888,17063.60,29.80,-1.00,-1.0,2425
3419,1528419,17052,-564,892,17084.63,29.89,-1.00,-1.0,2375
3421,1528421,17028,-596,944,17064.56,29.85,-1.00,-1.0,2409
3424,1528424,17008,-584,936,17043.74,29.80,-1.00,-1.0,2384
3427,1528427,17108,-620,912,17143.51,29.85,-1.00,-1.0,2366
3430,1528430,17000,-540,828,17028.72,29.89,-1.00,-1.0,2422
3432,1528432,17040,-632,852,17072.99,29.85,-1.00,-1.0,2356
3437,1528437,17064,-628,860,17097.20,29.85,-1.00,-1.0,2428
3440,1528440,17120,-684,880,17156.24,29.89,-1.00,-1.0,2382
3443,1528443,17088,-632,696,17113.84,29.85,-1.00,-1.0,2429
3446,1528446,16952,-556,964,16988.49,29.75,-1.00,-1.0,2367
3448,1528448,16920,-616,932,16956.84,29.94,-1.00,-1.0,2422
3451,1528451,16960,-692,972,17001.92,29.94,-1.00,-1.0,2368
3454,1528454,16960,-536,984,16996.97,29.85,-1.00,-1.0,2427
3457,1528457,16948,-568,904,16981.59,29.85,-1.00,-1.0,2367
3462,1528462,17024,-568,932,17058.95,29.94,-1.00,-1.0,2431
3464,1528464,17036,-596,1040,17078.12,29.94,-1.00,-1.0,2374
3467,1528467,17096,-620,772,17124.65,29.80,-1.00,-1.0,2380
3470,1528470,16996,-536,964,17031.75,29.80,-1.00,-1.0,2422
3472,1528472,17044,-620,792,17073.65,29.80,-1.00,-1.0,2369
3475,1528475,17080,-480,904,17110.64,29.89,-1.00,-1.0,2436
3478,1528478,17012,-556,868,17043.20,29.71,-1.00,-1.0,2377
3481,1528481,16984,-656,888,17019.85,29.85,-1.00,-1.0,2430
3483,1528483,17004,-592,776,17031.99,29.89,-1.00,-1.0,2371
3488,1528488,17100,-548,868,17130.78,29.80,-1.00,-1.0,2432
3491,1528491,17020,-616,932,17056.62,29.89,-1.00,-1.0,2371
3494,1528494,17032,-536,892,17063.76,29.85,-1.00,-1.0,2459
3497,1528497,17044,-544,916,17077.26,29.75,-1.00,-1.0,2369
3500,1528500,17108,-552,864,17138.70,29.89,-1.00,-1.0,2421
3502,1528502,16944,-424,692,16963.42,29.85,-1.00,-1.0,2373
3505,1528505,17076,-684,948,17115.97,29.80,-1.00,-1.0,2372
3508,1528508,16984,-508,836,17012.15,29.94,-1.00,-1.0,2435
3510,1528510,16996,-576,1000,17035.13,29.85,-1.00,-1.0,2379
3516,1528516,17068,-612,988,17107.52,29.89,-1.00,-1.0,2433
3518,1528518,17072,-564,812,17100.60,29.80,-1.00,-1.0,2352
3521,1528521,16992,-656,896,17028.25,29.80,-1.00,-1.0,2429
3524,1528524,17148,-680,956,17188.08,29.80,-1.00,-1.0,2368
3527,1528527,16940,-540,876,16971.23,29.89,-1.00,-1.0,2422
3529,1528529,17032,-564,748,17057.74,29.80,-1.00,-1.0,2370
3532,1528532,16976,-652,872,17010.88,29.80,-1.00,-1.0,2423
3535,1528535,16952,-512,764,16976.93,29.89,-1.00,-1.0,2369
3540,1528540,17152,-556,896,17184.38,29.80,-1.00,-1.0,2434
3542,1528542,17048,-556,1096,17092.24,29.94,-1.00,-1.0,2375
3545,1528545,17144,-544,792,17170.90,29.89,-1.00,-1.0,2366
3548,1528548,17032,-592,856,17063.77,29.89,-1.00,-1.0,2436
3551,1528551,17052,-604,832,17082.97,29.80,-1.00,-1.0,2368
3553,1528553,17032,-592,800,17061.05,29.85,-1.00,-1.0,2435
3556,1528556,17004,-600,932,17040.09,29.89,-1.00,-1.0,2370
3559,1528559,16908,-564,984,16946.00,29.94,-1.00,-1.0,2430
3562,1528562,17060,-528,732,17083.86,29.85,-1.00,-1.0,2373
3566,1528566,16980,-592,820,17010.09,29.85,-1.00,-1.0,2442
3569,1528569,17064,-600,948,17100.84,29.85,-1.00,-1.0,2376
3572,1528572,17064,-580,932,17099.27,29.85,-1.00,-1.0,2430
3575,1528575,17064,-564,908,17097.45,29.85,-1.00,-1.0,2375
3577,1528577,17052,-644,880,17086.83,29.80,-1.00,-1.0,2424
3580,1528580,17056,-700,896,17093.86,29.85,-1.00,-1.0,2377
3583,1528583,17052,-572,968,17089.03,29.99,-1.00,-1.0,2367
3586,1528586,16976,-564,808,17004.57,29.85,-1.00,-1.0,2422
3588,1528588,16960,-516,884,16990.86,29.89,-1.00,-1.0,2356
3593,1528593,16972,-552,892,17004.39,29.85,-1.00,-1.0,2437
3596,1528596,17036,-480,836,17063.25,29.94,-1.00,-1.0,2377
3598,1528598,17096,-608,984,17135.08,29.89,-1.00,-1.0,2431
3601,1528601,17040,-644,740,17068.21,29.94,-1.00,-1.0,2378
3604,1528604,17044,-548,924,17077.82,29.80,-1.00,-1.0,2422
3607,1528607,17004,-540,772,17030.08,29.94,-1.00,-1.0,2367
3609,1528609,16980,-696,912,17018.71,29.80,-1.00,-1.0,2409
3612,1528612,17052,-664,980,17093.04,29.80,-1.00,-1.0,2370
3617,1528617,17008,-580,904,17041.88,29.89,-1.00,-1.0,2433
3620,1528620,17036,-604,884,17069.61,29.89,-1.00,-1.0,2356
3623,1528623,17080,-580,764,17106.91,29.89,-1.00,-1.0,2365
3625,1528625,17040,-632,736,17067.59,29.85,-1.00,-1.0,2432
3628,1528628,17020,-692,852,17055.36,29.89,-1.00,-1.0,2369
3631,1528631,17060,-588,880,17092.80,29.85,-1.00,-1.0,2424
3634,1528634,17108,-636,876,17142.21,29.75,-1.00,-1.0,2373
3636,1528636,17048,-540,852,17077.82,29.75,-1.00,-1.0,2424
3639,1528639,17044,-684,848,17078.79,29.75,-1.00,-1.0,2370
3644,1528644,16964,-544,780,16990.63,29.80,-1.00,-1.0,2434
3647,1528647,17044,-580,964,17081.09,29.89,-1.00,-1.0,2371
3650,1528650,17060,-620,752,17087.82,29.89,-1.00,-1.0,2436
3653,1528653,17024,-604,872,17057.02,29.80,-1.00,-1.0,2369
3655,1528655,17076,-528,920,17108.91,29.85,-1.00,-1.0,2424
3658,1528658,17096,-668,944,17135.07,29.89,-1.00,-1.0,2356
3661,1528661,17084,-648,976,17124.12,29.85,-1.00,-1.0,2367
3663,1528663,16964,-632,932,17001.33,29.80,-1.00,-1.0,2435
3666,1528666,17056,-752,776,17090.20,29.85,-1.00,-1.0,2369
3671,1528671,17096,-608,844,17127.62,29.85,-1.00,-1.0,2420
3674,1528674,16960,-592,924,16995.46,29.89,-1.00,-1.0,2372
3677,1528677,17052,-724,808,17086.48,29.80,-1.00,-1.0,2436
3680,1528680,17052,-668,864,17086.94,29.89,-1.00,-1.0,2367
3682,1528682,16944,-552,928,16978.37,29.85,-1.00,-1.0,2424
3685,1528685,17088,-536,868,17118.42,29.80,-1.00,-1.0,2357
3688,1528688,16996,-676,888,17032.60,29.89,-1.00,-1.0,2429
3691,1528691,17068,-636,856,17101.28,29.89,-1.00,-1.0,2368
3695,1528695,17160,-620,876,17193.53,29.99,-1.00,-1.0,2442
3698,1528698,17076,-592,924,17111.22,29.80,-1.00,-1.0,2375
3701,1528701,16980,-588,904,17014.21,29.89,-1.00,-1.0,2367
3704,1528704,17012,-592,884,17045.24,29.85,-1.00,-1.0,2429
3706,1528706,17004,-544,920,17037.56,29.94,-1.00,-1.0,2370
3709,1528709,17040,-604,1036,17082.15,29.89,-1.00,-1.0,2422
3712,1528712,17080,-564,748,17105.67,29.85,-1.00,-1.0,2377
3715,1528715,16980,-556,980,17017.34,29.80,-1.00,-1.0,2422
3717,1528717,17020,-504,816,17047.00,29.89,-1.00,-1.0,2373
3722,1528722,17048,-616,836,17079.60,29.89,-1.00,-1.0,2436
3725,1528725,16992,-524,828,17020.23,29.85,-1.00,-1.0,2373
3728,1528728,17112,-500,884,17142.11,29.89,-1.00,-1.0,2436
3731,1528731,17168,-656,788,17198.59,29.85,-1.00,-1.0,2368
3733,1528733,17016,-568,1052,17057.95,29.89,-1.00,-1.0,2434
3736,1528736,17004,-576,980,17041.95,29.80,-1.00,-1.0,2370
3739,1528739,17168,-576,948,17203.80,29.89,-1.00,-1.0,2367
3742,1528742,16896,-664,940,16935.15,29.85,-1.00,-1.0,2422
3744,1528744,17052,-548,956,17087.57,29.89,-1.00,-1.0,2378
3749,1528749,17072,-572,920,17106.34,29.89,-1.00,-1.0,2437
3752,1528752,16996,-556,920,17029.96,29.80,-1.00,-1.0,2368
3755,1528755,16988,-564,992,17026.28,29.89,-1.00,-1.0,2437
3758,1528758,17016,-596,876,17048.96,29.89,-1.00,-1.0,2368
3760,1528760,17036,-588,784,17064.16,29.80,-1.00,-1.0,2430
3763,1528763,17032,-576,728,17057.28,29.99,-1.00,-1.0,2376
3766,1528766,17092,-564,772,17118.72,29.89,-1.00,-1.0,2424
3769,1528769,16984,-632,992,17024.68,29.89,-1.00,-1.0,2371
3773,1528773,17080,-592,868,17112.29,29.94,-1.00,-1.0,2444
3776,1528776,16976,-572,920,17010.53,29.85,-1.00,-1.0,2377
3779,1528779,17036,-632,928,17072.96,29.94,-1.00,-1.0,2367
3782,1528782,17104,-532,868,17134.27,29.89,-1.00,-1.0,2428
3784,1528784,17092,-644,968,17131.50,29.89,-1.00,-1.0,2370
3787,1528787,17012,-548,864,17042.74,29.99,-1.00,-1.0,2421
3790,1528790,16940,-628,728,16967.26,29.80,-1.00,-1.0,2377
3793,1528793,16984,-620,916,17019.98,29.89,-1.00,-1.0,2422
3795,1528795,17012,-632,868,17045.85,29.94,-1.00,-1.0,2377
3800,1528800,16968,-628,904,17003.66,29.89,-1.00,-1.0,2441
3803,1528803,17052,-632,1008,17093.46,29.80,-1.00,-1.0,2380
3806,1528806,17104,-568,944,17139.45,29.89,-1.00,-1.0,2440
3808,1528808,17108,-672,976,17148.99,29.85,-1.00,-1.0,2378
3811,1528811,17080,-544,1004,17118.13,29.85,-1.00,-1.0,2429
3814,1528814,17012,-604,860,17044.43,29.75,-1.00,-1.0,2372
3817,1528817,17052,-604,916,17087.26,29.75,-1.00,-1.0,2367
3820,1528820,17012,-596,868,17044.55,29.80,-1.00,-1.0,2422
3823,1528823,16988,-592,932,17023.84,29.85,-1.00,-1.0,2372
3827,1528827,17028,-584,916,17062.62,29.94,-1.00,-1.0,2435
3830,1528830,16992,-616,928,17028.47,29.94,-1.00,-1.0,2377
3833,1528833,16980,-604,856,17012.29,29.85,-1.00,-1.0,2429
3836,1528836,17172,-624,868,17205.24,29.94,-1.00,-1.0,2371
3839,1528839,16948,-604,904,16982.84,29.89,-1.00,-1.0,2421
3841,1528841,17116,-512,940,17149.44,29.85,-1.00,-1.0,2369
3844,1528844,16956,-536,928,16989.83,29.89,-1.00,-1.0,2422
3847,1528847,17016,-564,976,17053.30,29.94,-1.00,-1.0,2368
3852,1528852,17096,-624,912,17131.68,29.94,-1.00,-1.0,2440
3854,1528854,16980,-668,924,17018.24,29.85,-1.00,-1.0,2376
3857,1528857,17120,-620,940,17156.99,29.89,-1.00,-1.0,2365
3860,1528860,17040,-532,912,17072.68,29.89,-1.00,-1.0,2432
3863,1528863,17056,-652,876,17090.92,29.89,-1.00,-1.0,2368
3865,1528865,17008,-528,940,17042.14,29.99,-1.00,-1.0,2422
3868,1528868,17100,-596,844,17131.19,29.89,-1.00,-1.0,2369
3871,1528871,17068,-624,940,17105.25,29.89,-1.00,-1.0,2425
3874,1528874,17088,-616,872,17121.32,29.80,-1.00,-1.0,2368
3879,1528879,17032,-588,888,17065.27,29.89,-1.00,-1.0,2432
3881,1528881,17076,-628,836,17107.98,29.99,-1.00,-1.0,2370
3884,1528884,17072,-544,824,17100.53,29.89,-1.00,-1.0,2428
3887,1528887,17000,-648,920,17037.20,29.89,-1.00,-1.0,2368
3890,1528890,16920,-664,888,16956.29,29.89,-1.00,-1.0,2422
3892,1528892,16956,-544,784,16982.83,29.89,-1.00,-1.0,2369
3895,1528895,16932,-648,888,16967.65,29.85,-1.00,-1.0,2374
3898,1528898,17008,-504,908,17039.68,29.85,-1.00,-1.0,2434
3901,1528901,16996,-640,964,17035.34,29.89,-1.00,-1.0,2356
3906,1528906,17000,-588,928,17035.46,29.89,-1.00,-1.0,2434
3908,1528908,17044,-660,820,17076.47,29.80,-1.00,-1.0,2368
3911,1528911,16960,-580,800,16988.76,29.80,-1.00,-1.0,2430
3914,1528914,17068,-612,880,17101.62,29.80,-1.00,-1.0,2368
3917,1528917,17020,-520,956,17054.76,29.89,-1.00,-1.0,2467
3919,1528919,17036,-580,800,17064.63,29.80,-1.00,-1.0,2383
3922,1528922,16972,-496,884,17002.24,29.89,-1.00,-1.0,2421
3925,1528925,17040,-604,840,17071.38,29.89,-1.00,-1.0,2371
3930,1528930,16956,-600,836,16987.20,29.85,-1.00,-1.0,2441
3933,1528933,17004,-580,992,17042.78,29.85,-1.00,-1.0,2383
3936,1528936,16992,-624,904,17027.47,29.89,-1.00,-1.0,2367
3938,1528938,16992,-520,832,17020.30,29.85,-1.00,-1.0,2432
3941,1528941,17052,-592,704,17076.79,29.89,-1.00,-1.0,2375
3944,1528944,16960,-676,772,16991.01,29.85,-1.00,-1.0,2430
3947,1528947,16984,-544,732,17008.47,29.89,-1.00,-1.0,2367
3949,1528949,17020,-636,868,17053.98,29.85,-1.00,-1.0,2425
3952,1528952,17080,-632,996,17120.68,29.80,-1.00,-1.0,2369
3957,1528957,17120,-596,912,17154.63,29.89,-1.00,-1.0,2429
3960,1528960,17092,-616,828,17123.13,29.89,-1.00,-1.0,2366
3963,1528963,16992,-608,896,17026.47,29.89,-1.00,-1.0,2430
3965,1528965,17088,-596,784,17116.36,29.80,-1.00,-1.0,2375
3968,1528968,17076,-556,952,17111.55,29.85,-1.00,-1.0,2374
3971,1528971,17036,-536,868,17066.52,29.94,-1.00,-1.0,2422
3973,1528973,17036,-660,956,17075.56,29.85,-1.00,-1.0,2371
3976,1528976,17028,-584,844,17058.90,29.85,-1.00,-1.0,2429
3979,1528979,17160,-572,792,17187.79,29.94,-1.00,-1.0,2371
3984,1528984,17060,-692,900,17097.73,29.85,-1.00,-1.0,2427
3986,1528986,17080,-608,772,17108.24,29.85,-1.00,-1.0,2369
3989,1528989,17016,-652,988,17057.12,29.89,-1.00,-1.0,2443
3992,1528992,17012,-544,840,17041.41,29.89,-1.00,-1.0,2422
3995,1528995,16956,-524,948,16990.56,29.80,-1.00,-1.0,2427
3998,1528998,17036,-580,672,17059.11,29.94,-1.00,-1.0,2375
4000,1529000,17068,-636,952,17106.36,29.89,-1.00,-1.0,2428
4003,1529003,17124,-524,724,17147.31,29.85,-1.00,-1.0,2376
4006,1529006,17152,-588,840,17182.62,29.80,-1.00,-1.0,2366
4010,1529010,16992,-592,864,17024.25,29.89,-1.00,-1.0,2437
4013,1529013,17084,-568,708,17108.10,29.85,-1.00,-1.0,2374
4016,1529016,17092,-612,996,17131.93,29.80,-1.00,-1.0,2429
4019,1529019,17024,-596,920,17059.26,29.80,-1.00,-1.0,2370
4021,1529021,17080,-596,784,17108.37,29.89,-1.00,-1.0,2429
4024,1529024,16956,-540,820,16984.40,29.89,-1.00,-1.0,2379
4027,1529027,17056,-648,900,17092.02,29.99,-1.00,-1.0,2422
4030,1529030,17048,-560,860,17078.86,29.89,-1.00,-1.0,2371
4035,1529035,17012,-612,940,17048.94,29.89,-1.00,-1.0,2442
4037,1529037,17000,-620,776,17028.99,29.89,-1.00,-1.0,2378
4040,1529040,17060,-592,952,17096.79,29.80,-1.00,-1.0,2428
4043,1529043,17036,-616,928,17072.37,29.80,-1.00,-1.0,2374
4046,1529046,17100,-636,756,17128.52,29.94,-1.00,-1.0,2366
4048,1529048,17120,-636,780,17149.56,29.94,-1.00,-1.0,2421
4051,1529051,17052,-636,1024,17094.55,29.85,-1.00,-1.0,2374
4054,1529054,16976,-524,760,17001.08,29.89,-1.00,-1.0,2426
4057,1529057,16980,-656,928,17017.99,29.75,-1.00,-1.0,2370
4062,1529062,17068,-544,948,17102.96,29.80,-1.00,-1.0,2438
4064,1529064,16948,-508,880,16978.43,29.80,-1.00,-1.0,2382
4067,1529067,16976,-584,936,17011.81,29.85,-1.00,-1.0,2421
4070,1529070,17072,-536,788,17098.58,29.89,-1.00,-1.0,2371
4073,1529073,17076,-580,980,17113.93,29.94,-1.00,-1.0,2419
4075,1529075,17080,-556,904,17112.94,29.89,-1.00,-1.0,2377
4078,1529078,16956,-616,772,16984.74,29.85,-1.00,-1.0,2419
4081,1529081,17016,-592,1104,17062.05,29.85,-1.00,-1.0,2373
4084,1529084,16976,-624,768,17004.82,29.85,-1.00,-1.0,2366
4089,1529089,17016,-568,744,17041.73,29.85,-1.00,-1.0,2436
4091,1529091,17048,-536,952,17082.97,29.89,-1.00,-1.0,2382
4094,1529094,16968,-660,928,17006.17,29.85,-1.00,-1.0,2421
4097,1529097,17016,-536,964,17051.71,29.85,-1.00,-1.0,2373
4100,1529100,17064,-668,800,17095.80,29.94,-1.00,-1.0,2422
4102,1529102,17036,-576,1000,17075.04,29.85,-1.00,-1.0,2376
4105,1529105,17016,-648,856,17049.84,29.80,-1.00,-1.0,2418
4108,1529108,17012,-672,928,17050.54,30.04,-1.00,-1.0,2372
4113,1529113,17060,-632,848,17092.75,29.85,-1.00,-1.0,2421
4116,1529116,17104,-580,868,17135.83,29.80,-1.00,-1.0,2381
4118,1529118,17036,-588,860,17067.82,29.85,-1.00,-1.0,2423
4121,1529121,16968,-584,908,17002.31,29.94,-1.00,-1.0,2378
4124,1529124,17052,-640,880,17086.68,29.80,-1.00,-1.0,2366
4127,1529127,17020,-608,768,17048.16,29.89,-1.00,-1.0,2418
4129,1529129,17080,-436,988,17114.11,29.80,-1.00,-1.0,2371
4132,1529132,17012,-632,852,17045.04,29.80,-1.00,-1.0,2418
4135,1529135,17056,-616,880,17089.79,29.89,-1.00,-1.0,2379
4140,1529140,17076,-580,932,17111.25,29.80,-1.00,-1.0,2431
4143,1529143,17024,-620,960,17062.31,29.75,-1.00,-1.0,2375
4145,1529145,17044,-560,824,17073.09,29.80,-1.00,-1.0,2420
4148,1529148,17044,-580,780,17071.69,29.80,-1.00,-1.0,2372
4151,1529151,17052,-672,908,17089.38,29.80,-1.00,-1.0,2426
4154,1529154,17148,-616,764,17176.06,29.85,-1.00,-1.0,2420
4157,1529157,17004,-608,856,17036.38,29.89,-1.00,-1.0,2423
4159,1529159,17036,-612,848,17068.07,29.85,-1.00,-1.0,2374
4162,1529162,17024,-548,852,17054.11,29.99,-1.00,-1.0,2373
4167,1529167,17036,-704,836,17071.02,29.80,-1.00,-1.0,2443
4170,1529170,17008,-668,764,17038.25,29.89,-1.00,-1.0,2371
4172,1529172,17108,-584,964,17145.09,29.80,-1.00,-1.0,2425
4175,1529175,17076,-592,1092,17121.12,29.89,-1.00,-1.0,2368
4178,1529178,17032,-624,1028,17074.40,29.85,-1.00,-1.0,2430
4181,1529181,16976,-704,800,17009.41,29.89,-1.00,-1.0,2354
4183,1529183,17152,-576,916,17186.10,29.99,-1.00,-1.0,2422
4186,1529186,17064,-592,964,17101.46,29.80,-1.00,-1.0,2375
4192,1529192,17044,-596,836,17074.89,29.94,-1.00,-1.0,2435
4194,1529194,17060,-588,776,17087.76,29.89,-1.00,-1.0,2374
4197,1529197,17112,-460,796,17136.68,29.94,-1.00,-1.0,2438
4200,1529200,17024,-648,824,17056.24,29.85,-1.00,-1.0,2377
4202,1529202,17092,-596,908,17126.47,29.80,-1.00,-1.0,2354
4205,1529205,17020,-572,832,17049.92,29.89,-1.00,-1.0,2421
4208,1529208,16964,-684,876,17000.37,29.89,-1.00,-1.0,2369
4211,1529211,17004,-540,884,17035.52,29.89,-1.00,-1.0,2421
4213,1529213,17080,-620,928,17116.42,29.89,-1.00,-1.0,2356
4218,1529218,17040,-628,676,17064.96,29.89,-1.00,-1.0,2444
4221,1529221,17084,-572,792,17111.91,29.94,-1.00,-1.0,2366
4224,1529224,17040,-616,976,17079.04,29.89,-1.00,-1.0,2430
4226,1529226,17100,-568,852,17130.63,29.94,-1.00,-1.0,2376
4229,1529229,17020,-628,992,17060.45,29.89,-1.00,-1.0,2421
4232,1529232,17008,-568,980,17045.68,29.80,-1.00,-1.0,2369
4235,1529235,17044,-584,1040,17085.68,29.89,-1.00,-1.0,2421
4237,1529237,17144,-588,964,17181.15,29.80,-1.00,-1.0,2376
4240,1529240,16940,-628,972,16979.48,29.94,-1.00,-1.0,2366
4245,1529245,17052,-580,904,17085.79,29.89,-1.00,-1.0,2434
4248,1529248,17028,-664,824,17060.85,29.99,-1.00,-1.0,2371
4251,1529251,17048,-584,884,17080.89,29.85,-1.00,-1.0,2423
4253,1529253,16968,-576,820,16997.56,29.89,-1.00,-1.0,2369
4256,1529256,16864,-608,888,16898.30,29.85,-1.00,-1.0,2422
4259,1529259,17028,-548,860,17058.51,29.89,-1.00,-1.0,2367
4262,1529262,17044,-540,828,17072.64,29.94,-1.00,-1.0,2421
4264,1529264,17048,-640,912,17084.37,29.89,-1.00,-1.0,2355
4269,1529269,17044,-516,908,17075.97,29.80,-1.00,-1.0,2435
4272,1529272,17072,-524,888,17103.11,29.89,-1.00,-1.0,2373
4275,1529275,16976,-548,888,17008.04,29.94,-1.00,-1.0,2422
4278,1529278,16936,-552,1008,16974.95,29.89,-1.00,-1.0,2369
4280,1529280,17028,-524,1032,17067.29,29.85,-1.00,-1.0,2365
4283,1529283,17040,-600,692,17064.60,29.80,-1.00,-1.0,2429
4286,1529286,17036,-584,1020,17076.50,29.94,-1.00,-1.0,2371
4288,1529288,16976,-600,856,17008.15,29.89,-1.00,-1.0,2433
4291,1529291,17068,-572,776,17095.20,29.85,-1.00,-1.0,2377
4296,1529296,17032,-532,976,17068.23,29.85,-1.00,-1.0,2435
4299,1529299,17000,-588,824,17030.11,29.75,-1.00,-1.0,2380
4302,1529302,17016,-624,916,17052.06,29.80,-1.00,-1.0,2423
4304,1529304,16992,-628,1020,17034.17,29.94,-1.00,-1.0,2371
4307,1529307,17044,-592,896,17077.80,29.89,-1.00,-1.0,2435
4310,1529310,17040,-636,976,17079.77,29.85,-1.00,-1.0,2383
4313,1529313,17008,-692,852,17043.38,29.89,-1.00,-1.0,2431
4315,1529315,16944,-716,896,16982.77,29.80,-1.00,-1.0,2373
4320,1529320,17112,-592,832,17142.44,29.89,-1.00,-1.0,2434
4323,1529323,17164,-648,976,17203.94,29.94,-1.00,-1.0,2372
4326,1529326,17016,-540,780,17042.43,29.80,-1.00,-1.0,2368
4329,1529329,17052,-528,884,17083.06,29.85,-1.00,-1.0,2423
4331,1529331,17176,-556,732,17200.58,29.89,-1.00,-1.0,2368
4334,1529334,17028,-532,916,17060.92,29.94,-1.00,-1.0,2408
4337,1529337,17028,-584,848,17059.10,29.89,-1.00,-1.0,2368
4340,1529340,17012,-656,932,17050.13,29.85,-1.00,-1.0,2421
4342,1529342,17040,-620,876,17073.76,29.80,-1.00,-1.0,2371
4347,1529347,17024,-644,780,17054.02,29.89,-1.00,-1.0,2442
4350,1529350,17020,-632,900,17055.49,29.89,-1.00,-1.0,2358
4353,1529353,17052,-628,780,17081.38,29.94,-1.00,-1.0,2431
4355,1529355,16988,-560,888,17020.41,29.80,-1.00,-1.0,2376
4358,1529358,16924,-632,924,16960.98,29.85,-1.00,-1.0,2365
4361,1529361,17000,-672,792,17031.70,29.80,-1.00,-1.0,2423
4364,1529364,17028,-624,992,17068.28,29.94,-1.00,-1.0,2366
4366,1529366,16940,-652,884,16975.58,29.80,-1.00,-1.0,2425
4369,1529369,17060,-636,872,17094.11,29.94,-1.00,-1.0,2369
4374,1529374,17088,-648,956,17126.98,29.89,-1.00,-1.0,2434
4377,1529377,17004,-612,904,17039.01,29.99,-1.00,-1.0,2360
4380,1529380,17108,-688,904,17145.68,29.94,-1.00,-1.0,2422
4382,1529382,16992,-716,1008,17036.92,29.85,-1.00,-1.0,2375
4385,1529385,17048,-500,908,17079.48,29.85,-1.00,-1.0,2422
4388,1529388,17024,-504,828,17051.57,29.94,-1.00,-1.0,2370
4391,1529391,17080,-684,864,17115.51,29.85,-1.00,-1.0,2421
4393,1529393,17008,-612,760,17035.97,29.85,-1.00,-1.0,2370
4396,1529396,17048,-616,832,17079.40,29.80,-1.00,-1.0,2366
4401,1529401,16932,-760,872,16971.46,29.89,-1.00,-1.0,2441
4404,1529404,17044,-588,924,17079.15,29.80,-1.00,-1.0,2372
4406,1529406,17088,-584,936,17123.58,29.85,-1.00,-1.0,2437
4409,1529409,17088,-592,732,17113.91,29.80,-1.00,-1.0,2377
4412,1529412,17088,-592,1004,17127.70,29.85,-1.00,-1.0,2408
4415,1529415,16988,-560,852,17018.57,29.89,-1.00,-1.0,2369
4417,1529417,17148,-656,792,17178.81,29.85,-1.00,-1.0,2430
4420,1529420,17068,-484,712,17089.70,29.80,-1.00,-1.0,2376
4425,1529425,17036,-620,848,17068.36,29.89,-1.00,-1.0,2442
4428,1529428,17112,-556,784,17138.97,29.94,-1.00,-1.0,2372
4430,1529430,17032,-568,792,17059.86,29.89,-1.00,-1.0,2424
4433,1529433,16952,-496,912,16983.76,29.89,-1.00,-1.0,2368
4436,1529436,17056,-568,780,17083.27,29.80,-1.00,-1.0,2368
4438,1529438,17048,-592,908,17082.42,29.85,-1.00,-1.0,2429
4441,1529441,17104,-552,896,17136.35,29.89,-1.00,-1.0,2383
4444,1529444,17036,-580,820,17065.58,29.89,-1.00,-1.0,2435
4447,1529447,17072,-688,892,17109.13,29.80,-1.00,-1.0,2369
4452,1529452,17004,-632,996,17044.87,29.89,-1.00,-1.0,2434
4455,1529455,17036,-508,972,17071.27,29.89,-1.00,-1.0,2371
4458,1529458,17080,-672,832,17113.45,29.89,-1.00,-1.0,2423
4460,1529460,17008,-560,816,17036.77,29.80,-1.00,-1.0,2369
4463,1529463,16996,-532,952,17030.95,29.89,-1.00,-1.0,2421
4466,1529466,17036,-616,912,17071.51,29.89,-1.00,-1.0,2375
4469,1529469,17044,-632,1012,17085.71,29.80,-1.00,-1.0,2421
4471,1529471,17056,-632,808,17086.82,29.89,-1.00,-1.0,2369
4474,1529474,17072,-552,868,17102.96,29.89,-1.00,-1.0,2373
4479,1529479,17032,-544,792,17059.08,29.80,-1.00,-1.0,2434
4482,1529482,17092,-568,772,17118.85,29.89,-1.00,-1.0,2380
4485,1529485,17100,-572,780,17127.33,29.85,-1.00,-1.0,2423
4487,1529487,16992,-532,868,17022.47,29.89,-1.00,-1.0,2370
4490,1529490,17040,-656,884,17075.52,29.85,-1.00,-1.0,2437
4493,1529493,17048,-520,904,17079.87,29.85,-1.00,-1.0,2364
4496,1529496,17044,-552,900,17076.67,29.94,-1.00,-1.0,2423
4498,1529498,16988,-668,800,17019.94,29.85,-1.00,-1.0,2372
4503,1529503,16996,-556,844,17026.02,29.89,-1.00,-1.0,2434
4506,1529506,16964,-580,832,16994.29,29.80,-1.00,-1.0,2372
4509,1529509,17048,-652,904,17084.40,29.85,-1.00,-1.0,2431
4512,1529512,17080,-640,892,17115.25,29.89,-1.00,-1.0,2370
4514,1529514,17000,-608,800,17029.67,29.85,-1.00,-1.0,2381
4517,1529517,17128,-648,1004,17169.63,29.80,-1.00,-1.0,2422
4520,1529520,17068,-664,936,17106.54,29.75,-1.00,-1.0,2370
4523,1529523,17060,-628,740,17087.59,29.80,-1.00,-1.0,2424
4525,1529525,17020,-616,816,17050.68,29.94,-1.00,-1.0,2371
4530,1529530,17084,-560,972,17120.79,29.94,-1.00,-1.0,2450
4533,1529533,17004,-592,984,17042.73,29.85,-1.00,-1.0,2381
4536,1529536,16932,-612,840,16963.87,29.89,-1.00,-1.0,2432
4538,1529538,17080,-600,796,17109.06,29.85,-1.00,-1.0,2377
4541,1529541,17064,-592,1008,17103.99,29.89,-1.00,-1.0,2420
4544,1529544,16976,-520,912,17008.43,29.85,-1.00,-1.0,2368
4547,1529547,17000,-608,820,17030.62,29.89,-1.00,-1.0,2421
4549,1529549,16996,-608,852,17028.20,29.80,-1.00,-1.0,2375
4552,1529552,17012,-556,976,17049.04,29.99,-1.00,-1.0,2371
4557,1529557,17072,-576,812,17101.00,29.89,-1.00,-1.0,2444
4560,1529560,17028,-572,876,17060.11,29.85,-1.00,-1.0,2374
4563,1529563,17104,-632,868,17137.67,29.89,-1.00,-1.0,2428
4565,1529565,17092,-520,868,17121.92,29.99,-1.00,-1.0,2375
4568,1529568,17012,-644,800,17042.97,29.89,-1.00,-1.0,2421
4571,1529571,17044,-676,940,17083.28,29.80,-1.00,-1.0,2355
4574,1529574,17120,-588,856,17151.47,29.89,-1.00,-1.0,2421
4576,1529576,17104,-584,852,17135.16,29.89,-1.00,-1.0,2375
4581,1529581,17092,-536,840,17121.02,29.80,-1.00,-1.0,2443
4584,1529584,17080,-636,928,17117.01,29.85,-1.00,-1.0,2379
4587,1529587,17016,-680,772,17047.07,29.89,-1.00,-1.0,2422
4590,1529590,16980,-636,952,17018.55,29.89,-1.00,-1.0,2371
4592,1529592,17044,-584,856,17075.47,29.89,-1.00,-1.0,2365
4595,1529595,17028,-456,892,17057.44,29.85,-1.00,-1.0,2421
4598,1529598,17056,-540,948,17090.86,29.89,-1.00,-1.0,2367
4601,1529601,17076,-636,824,17107.70,29.85,-1.00,-1.0,2408
4603,1529603,17044,-584,772,17071.47,29.85,-1.00,-1.0,2372
4608,1529608,17104,-608,704,17129.28,29.85,-1.00,-1.0,2435
4611,1529611,17068,-608,872,17101.07,29.94,-1.00,-1.0,2379
4614,1529614,17068,-656,884,17103.46,29.85,-1.00,-1.0,2422
4616,1529616,17088,-532,844,17117.10,29.85,-1.00,-1.0,2369
4619,1529619,17104,-644,788,17134.25,29.89,-1.00,-1.0,2421
4622,1529622,17068,-444,1016,17103.98,29.85,-1.00,-1.0,2376
4625,1529625,16972,-624,976,17011.49,29.80,-1.00,-1.0,2421
4627,1529627,16960,-620,844,16992.30,29.85,-1.00,-1.0,2372
4630,1529630,17024,-656,1008,17066.43,29.94,-1.00,-1.0,2353
4635,1529635,17096,-580,916,17130.34,29.89,-1.00,-1.0,2421
4638,1529638,17060,-512,736,17083.54,29.89,-1.00,-1.0,2377
4640,1529640,17080,-632,872,17113.92,29.80,-1.00,-1.0,2430
4643,1529643,17016,-504,968,17050.96,29.89,-1.00,-1.0,2376
4646,1529646,17056,-512,888,17086.77,29.89,-1.00,-1.0,2422
4649,1529649,17092,-624,812,17122.65,29.89,-1.00,-1.0,2365
4652,1529652,17060,-636,840,17092.50,29.85,-1.00,-1.0,2424
4654,1529654,16988,-580,848,17019.04,29.85,-1.00,-1.0,2368
4659,1529659,17060,-644,832,17092.41,29.94,-1.00,-1.0,2434
4662,1529662,17008,-500,1076,17049.34,29.89,-1.00,-1.0,2371
4665,1529665,17076,-576,900,17109.40,29.85,-1.00,-1.0,2430
4668,1529668,16952,-664,824,16985.00,29.85,-1.00,-1.0,2367
4670,1529670,17000,-608,940,17036.82,29.89,-1.00,-1.0,2375
4673,1529673,17084,-576,688,17107.55,29.89,-1.00,-1.0,2422
4676,1529676,17068,-688,904,17105.76,29.89,-1.00,-1.0,2373
4678,1529678,17052,-568,800,17080.20,29.94,-1.00,-1.0,2429
4681,1529681,17040,-684,836,17074.20,29.80,-1.00,-1.0,2370
4686,1529686,16976,-604,1052,17019.29,29.89,-1.00,-1.0,2434
4689,1529689,17104,-604,952,17141.12,29.85,-1.00,-1.0,2371
4692,1529692,17104,-476,780,17128.39,29.80,-1.00,-1.0,2432
4695,1529695,16992,-632,908,17027.97,29.85,-1.00,-1.0,2354
4697,1529697,17016,-656,848,17049.74,29.89,-1.00,-1.0,2422
4700,1529700,16948,-580,812,16977.35,29.94,-1.00,-1.0,2370
4703,1529703,17032,-584,800,17060.78,29.99,-1.00,-1.0,2428
4706,1529706,16992,-524,756,17016.88,29.80,-1.00,-1.0,2368
4708,1529708,17020,-512,816,17047.24,29.89,-1.00,-1.0,2368
4713,1529713,16924,-528,884,16955.29,29.89,-1.00,-1.0,2434
4716,1529716,16908,-456,756,16931.04,29.89,-1.00,-1.0,2371
4719,1529719,17052,-564,864,17083.19,29.80,-1.00,-1.0,2429
4722,1529722,17032,-628,900,17067.32,29.89,-1.00,-1.0,2370
4724,1529724,17076,-536,1016,17114.59,29.85,-1.00,-1.0,2436
4727,1529727,16956,-660,868,16991.03,29.89,-1.00,-1.0,2368
4730,1529730,17000,-560,904,17033.23,29.89,-1.00,-1.0,2428
4733,1529733,16916,-576,868,16948.04,29.99,-1.00,-1.0,2368
4738,1529738,17052,-524,952,17086.59,29.89,-1.00,-1.0,2435
4740,1529740,17156,-620,924,17192.05,29.89,-1.00,-1.0,2372
4743,1529743,17112,-664,864,17146.66,29.80,-1.00,-1.0,2423
4746,1529746,16936,-588,820,16966.03,29.89,-1.00,-1.0,2376
4748,1529748,17056,-580,1024,17096.55,29.85,-1.00,-1.0,2374
4751,1529751,17112,-500,876,17141.70,29.85,-1.00,-1.0,2421
4754,1529754,17036,-564,780,17063.17,29.85,-1.00,-1.0,2358
4757,1529757,17020,-520,784,17045.98,29.85,-1.00,-1.0,2421
4759,1529759,16996,-672,812,17028.65,29.75,-1.00,-1.0,2375
4764,1529764,17044,-656,872,17078.89,29.94,-1.00,-1.0,2442
4767,1529767,17008,-564,864,17039.27,29.85,-1.00,-1.0,2386
4770,1529770,17100,-544,912,17132.94,29.85,-1.00,-1.0,2424
4773,1529773,17068,-696,792,17100.54,29.85,-1.00,-1.0,2365
4775,1529775,17056,-580,976,17093.74,29.85,-1.00,-1.0,2408
4778,1529778,16980,-560,868,17011.39,29.94,-1.00,-1.0,2376
4781,1529781,16904,-560,928,16938.71,29.85,-1.00,-1.0,2424
4784,1529784,17084,-536,852,17113.63,29.85,-1.00,-1.0,2369
4786,1529786,17020,-608,756,17047.63,29.94,-1.00,-1.0,2374
4792,1529792,17060,-548,1044,17100.70,29.85,-1.00,-1.0,2435
4794,1529794,16940,-648,860,16974.19,29.94,-1.00,-1.0,2376
4797,1529797,17056,-596,992,17095.22,29.94,-1.00,-1.0,2437
4800,1529800,17128,-648,872,17162.42,29.85,-1.00,-1.0,2376
4803,1529803,16996,-580,860,17027.62,29.94,-1.00,-1.0,2433
4806,1529806,17068,-540,928,17101.74,29.89,-1.00,-1.0,2420
4808,1529808,17020,-680,860,17055.28,29.94,-1.00,-1.0,2430
4811,1529811,16972,-532,952,17007.00,29.85,-1.00,-1.0,2383
4816,1529816,16996,-484,900,17026.69,29.85,-1.00,-1.0,2434
4819,1529819,17076,-740,872,17114.26,29.85,-1.00,-1.0,2382
4822,1529822,17060,-572,992,17098.39,29.80,-1.00,-1.0,2424
4824,1529824,17056,-620,840,17087.92,29.94,-1.00,-1.0,2374
4827,1529827,16984,-524,912,17016.54,29.89,-1.00,-1.0,2373
4830,1529830,16984,-532,812,17011.72,29.94,-1.00,-1.0,2419
4832,1529832,17092,-540,896,17123.99,29.80,-1.00,-1.0,2371
4835,1529835,16952,-656,808,16983.92,29.85,-1.00,-1.0,2420
4838,1529838,17104,-624,824,17135.20,29.89,-1.00,-1.0,2379
4843,1529843,17056,-564,736,17081.19,29.80,-1.00,-1.0,2435
4845,1529845,17084,-640,848,17117.00,29.89,-1.00,-1.0,2376
4848,1529848,16976,-572,872,17008.00,29.89,-1.00,-1.0,2407
4851,1529851,16988,-572,956,17024.49,29.89,-1.00,-1.0,2371
4854,1529854,16940,-544,908,16973.04,29.89,-1.00,-1.0,2419
4856,1529856,17084,-524,836,17112.47,29.89,-1.00,-1.0,2374
4859,1529859,17096,-580,844,17126.64,29.80,-1.00,-1.0,2406
4862,1529862,17096,-604,912,17130.96,29.80,-1.00,-1.0,2373
4865,1529865,17032,-636,792,17062.26,29.89,-1.00,-1.0,2367
4870,1529870,16996,-592,784,17024.37,29.99,-1.00,-1.0,2434
4872,1529872,17084,-640,956,17122.69,29.89,-1.00,-1.0,2377
4875,1529875,17108,-540,964,17143.64,29.80,-1.00,-1.0,2420
4878,1529878,17112,-520,868,17141.89,29.89,-1.00,-1.0,2369
4881,1529881,17144,-572,864,17175.29,29.94,-1.00,-1.0,2419
4883,1529883,17120,-580,872,17152.00,29.99,-1.00,-1.0,2371
4886,1529886,17024,-584,912,17058.41,29.85,-1.00,-1.0,2419
4889,1529889,16940,-564,832,16969.79,29.89,-1.00,-1.0,2370
4894,1529894,17168,-632,936,17205.11,29.89,-1.00,-1.0,2435
4896,1529896,17032,-660,944,17070.90,29.89,-1.00,-1.0,2384
4899,1529899,16988,-552,896,17020.57,29.80,-1.00,-1.0,2420
4902,1529902,17064,-584,852,17095.23,29.89,-1.00,-1.0,2374
4905,1529905,17064,-632,924,17100.68,29.75,-1.00,-1.0,2353
4907,1529907,17096,-556,936,17130.63,29.94,-1.00,-1.0,2422
4910,1529910,17012,-644,900,17047.96,29.94,-1.00,-1.0,2371
4913,1529913,17072,-580,1044,17113.72,29.94,-1.00,-1.0,2428
4916,1529916,16988,-616,1040,17030.95,29.85,-1.00,-1.0,2370
4921,1529921,17056,-548,912,17089.15,29.85,-1.00,-1.0,2432
4923,1529923,16948,-588,932,16983.79,29.94,-1.00,-1.0,2374
4926,1529926,17000,-576,872,17032.09,29.94,-1.00,-1.0,2420
4929,1529929,17080,-572,840,17110.21,29.89,-1.00,-1.0,2369
4932,1529932,17048,-640,956,17086.77,29.85,-1.00,-1.0,2418
4934,1529934,17008,-656,936,17046.36,29.85,-1.00,-1.0,2371
4937,1529937,17104,-628,984,17143.79,29.85,-1.00,-1.0,2418
4940,1529940,17072,-600,796,17101.08,29.89,-1.00,-1.0,2369
4943,1529943,17044,-520,992,17080.76,29.85,-1.00,-1.0,2366
4948,1529948,17068,-604,808,17097.79,29.94,-1.00,-1.0,2431
4950,1529950,17104,-636,796,17134.32,29.85,-1.00,-1.0,2374
4953,1529953,16992,-524,760,17017.06,29.94,-1.00,-1.0,2420
4956,1529956,17104,-656,752,17133.09,29.94,-1.00,-1.0,2371
4959,1529959,16988,-632,1016,17030.09,29.80,-1.00,-1.0,2419
4961,1529961,17048,-556,884,17079.96,29.75,-1.00,-1.0,2371
4964,1529964,17124,-648,852,17157.42,29.89,-1.00,-1.0,2418
4967,1529967,17100,-536,804,17127.28,29.85,-1.00,-1.0,2379
4972,1529972,17028,-592,900,17062.04,29.94,-1.00,-1.0,2432
4975,1529975,16984,-616,968,17022.71,29.85,-1.00,-1.0,2376
4977,1529977,16956,-584,912,16990.55,29.85,-1.00,-1.0,2420
4980,1529980,17076,-620,876,17109.69,29.85,-1.00,-1.0,2371
4983,1529983,17008,-560,848,17038.33,29.89,-1.00,-1.0,2367
4985,1529985,16968,-568,864,16999.47,29.89,-1.00,-1.0,2427
4988,1529988,17048,-556,900,17080.79,29.89,-1.00,-1.0,2378
4991,1529991,17068,-620,996,17108.27,29.80,-1.00,-1.0,2406
4994,1529994,17004,-620,820,17035.05,29.99,-1.00,-1.0,2375
4999,1529999,17000,-604,920,17035.59,29.89,-1.00,-1.0,2432
5001,1530001,17072,-564,856,17102.75,29.80,-1.00,-1.0,2375
5004,1530004,16996,-680,860,17031.32,29.89,-1.00,-1.0,2436
5007,1530007,17012,-612,900,17046.78,29.89,-1.00,-1.0,2378
5010,1530010,17044,-692,948,17084.37,29.80,-1.00,-1.0,2431
5012,1530012,16992,-644,856,17025.73,29.89,-1.00,-1.0,2374
5015,1530015,16936,-600,1032,16978.02,29.94,-1.00,-1.0,2427
5018,1530018,17072,-628,788,17101.71,29.80,-1.00,-1.0,2379
5021,1530021,17028,-568,916,17062.08,29.80,-1.00,-1.0,2369
5026,1530026,17068,-696,956,17108.92,29.80,-1.00,-1.0,2441
5029,1530029,16964,-520,856,16993.54,29.85,-1.00,-1.0,2376
5032,1530032,16960,-596,832,16990.85,29.80,-1.00,-1.0,2422
5035,1530035,17020,-644,896,17055.73,29.89,-1.00,-1.0,2370
5037,1530037,16972,-616,932,17008.73,29.80,-1.00,-1.0,2420
5040,1530040,17120,-704,820,17154.08,29.89,-1.00,-1.0,2370
5043,1530043,17020,-604,980,17058.89,29.89,-1.00,-1.0,2422
5046,1530046,17028,-672,924,17066.29,29.80,-1.00,-1.0,2370
5050,1530050,17040,-536,784,17066.45,29.80,-1.00,-1.0,2432
5053,1530053,16992,-552,824,17020.92,29.94,-1.00,-1.0,2377
5056,1530056,17052,-572,848,17082.65,29.89,-1.00,-1.0,2428
5059,1530059,17048,-708,836,17083.16,29.89,-1.00,-1.0,2371
5061,1530061,17024,-568,756,17050.24,29.80,-1.00,-1.0,2372
5064,1530064,17104,-536,808,17131.46,29.85,-1.00,-1.0,2415
5067,1530067,16972,-580,848,17003.07,29.89,-1.00,-1.0,2369
5069,1530069,17132,-612,912,17167.17,29.85,-1.00,-1.0,2430
5072,1530072,17124,-600,876,17156.89,29.85,-1.00,-1.0,2378
5077,1530077,16896,-628,1012,16937.93,29.89,-1.00,-1.0,2432
5080,1530080,16996,-564,816,17024.92,29.89,-1.00,-1.0,2383
5083,1530083,17076,-532,880,17106.93,29.89,-1.00,-1.0,2424
5085,1530085,17092,-548,908,17124.87,29.99,-1.00,-1.0,2372
5088,1530088,17116,-704,832,17150.66,29.94,-1.00,-1.0,2433
5091,1530091,17060,-608,840,17091.48,29.94,-1.00,-1.0,2379
5094,1530094,17032,-564,824,17061.25,29.85,-1.00,-1.0,2432
5096,1530096,17060,-580,888,17092.94,29.85,-1.00,-1.0,2374
5099,1530099,17124,-612,820,17154.54,29.80,-1.00,-1.0,2365
5104,1530104,17128,-568,908,17161.45,29.89,-1.00,-1.0,2432
5107,1530107,17116,-560,896,17148.58,29.85,-1.00,-1.0,2372
5110,1530110,17024,-572,952,17060.19,29.80,-1.00,-1.0,2420
5112,1530112,17068,-556,736,17092.91,29.85,-1.00,-1.0,2370
5115,1530115,17076,-636,864,17109.67,29.99,-1.00,-1.0,2418
5118,1530118,17020,-688,828,17054.01,29.94,-1.00,-1.0,2373
5121,1530121,17080,-736,728,17111.34,29.89,-1.00,-1.0,2418
5123,1530123,17136,-652,968,17175.70,29.85,-1.00,-1.0,2371
5128,1530128,16976,-544,740,17000.83,29.85,-1.00,-1.0,2426
5131,1530131,17056,-628,876,17090.02,29.85,-1.00,-1.0,2382
5134,1530134,16976,-636,1052,17020.45,29.80,-1.00,-1.0,2427
5136,1530136,17060,-560,872,17091.45,29.85,-1.00,-1.0,2377
5139,1530139,17044,-628,872,17077.84,29.89,-1.00,-1.0,2365
5142,1530142,17076,-572,888,17108.64,29.85,-1.00,-1.0,2408
5145,1530145,17016,-592,904,17050.28,29.89,-1.00,-1.0,2370
5147,1530147,16992,-556,876,17023.65,29.94,-1.00,-1.0,2419
5150,1530150,17040,-628,900,17075.30,29.89,-1.00,-1.0,2371
5155,1530155,17000,-580,868,17032.02,29.89,-1.00,-1.0,2431
5158,1530158,17080,-464,856,17107.73,29.89,-1.00,-1.0,2374
5161,1530161,17088,-532,864,17118.10,29.89,-1.00,-1.0,2420
5163,1530163,16976,-592,916,17011.00,29.89,-1.00,-1.0,2375
5166,1530166,17020,-556,932,17054.56,29.75,-1.00,-1.0,2418
5169,1530169,17020,-564,876,17051.86,29.89,-1.00,-1.0,2370
5172,1530172,16956,-540,712,16979.53,29.80,-1.00,-1.0,2405
5174,1530174,17028,-588,880,17060.86,29.89,-1.00,-1.0,2370
5177,1530177,17056,-544,904,17088.60,29.75,-1.00,-1.0,2376
5182,1530182,17020,-576,876,17052.26,29.85,-1.00,-1.0,2434
5185,1530185,17056,-608,948,17093.14,29.89,-1.00,-1.0,2361
5187,1530187,16976,-676,972,17017.24,29.94,-1.00,-1.0,2421
5190,1530190,17068,-636,840,17100.49,29.94,-1.00,-1.0,2372
5193,1530193,17100,-604,860,17132.26,29.85,-1.00,-1.0,2426
5196,1530196,16872,-512,804,16898.90,29.89,-1.00,-1.0,2371
5198,1530198,16976,-576,1112,17022.13,29.85,-1.00,-1.0,2427
5201,1530201,16940,-500,820,16967.20,29.85,-1.00,-1.0,2371
5206,1530206,17088,-564,888,17120.35,29.85,-1.00,-1.0,2432
5209,1530209,17072,-584,904,17105.89,29.94,-1.00,-1.0,2374
5212,1530212,17036,-548,868,17066.90,29.85,-1.00,-1.0,2420
5214,1530214,17016,-604,920,17051.55,29.85,-1.00,-1.0,2375
5217,1530217,17036,-604,1024,17077.43,29.89,-1.00,-1.0,2368
5220,1530220,16992,-668,924,17030.21,29.89,-1.00,-1.0,2418
5222,1530222,17028,-560,868,17059.30,29.89,-1.00,-1.0,2377
5225,1530225,17012,-592,840,17043.01,29.85,-1.00,-1.0,2419
5228,1530228,17020,-572,764,17046.74,29.89,-1.00,-1.0,2360
5233,1530233,17108,-460,856,17135.58,29.89,-1.00,-1.0,2433
5236,1530236,16944,-548,852,16974.26,29.80,-1.00,-1.0,2382
5239,1530239,17072,-680,816,17105.01,29.89,-1.00,-1.0,2423
5241,1530241,17000,-652,812,17031.87,29.89,-1.00,-1.0,2358
5244,1530244,16992,-564,928,17026.67,29.85,-1.00,-1.0,2421
5247,1530247,17000,-552,884,17031.92,29.89,-1.00,-1.0,2366
5250,1530250,16984,-504,1044,17023.52,29.89,-1.00,-1.0,2421
5252,1530252,17040,-704,980,17082.67,29.99,-1.00,-1.0,2373
5255,1530255,17048,-556,1004,17086.59,29.89,-1.00,-1.0,2355
5260,1530260,17064,-612,896,17098.46,29.85,-1.00,-1.0,2432
5262,1530262,17024,-588,896,17057.70,29.94,-1.00,-1.0,2374
5265,1530265,17076,-608,964,17113.99,29.85,-1.00,-1.0,2420
5268,1530268,16960,-576,912,16994.27,29.94,-1.00,-1.0,2371
5271,1530271,16952,-648,952,16991.07,29.89,-1.00,-1.0,2418
5273,1530273,16968,-624,868,17001.64,29.85,-1.00,-1.0,2371
5276,1530276,16984,-576,896,17017.37,29.80,-1.00,-1.0,2419
5279,1530279,17048,-604,824,17078.59,29.89,-1.00,-1.0,2358
5284,1530284,17056,-524,824,17083.93,29.89,-1.00,-1.0,2439
5287,1530287,17108,-580,768,17135.05,29.99,-1.00,-1.0,2374
5289,1530289,17080,-632,908,17115.79,29.89,-1.00,-1.0,2428
5292,1530292,17012,-572,784,17039.66,29.89,-1.00,-1.0,2379
5295,1530295,17076,-564,928,17110.50,29.85,-1.00,-1.0,2366
5298,1530298,17088,-640,824,17119.82,29.85,-1.00,-1.0,2418
5300,1530300,17032,-544,748,17057.09,29.94,-1.00,-1.0,2371
5303,1530303,17000,-616,788,17029.40,29.85,-1.00,-1.0,2418
5306,1530306,17064,-648,972,17103.94,29.85,-1.00,-1.0,2375
5311,1530311,17052,-560,856,17082.65,29.80,-1.00,-1.0,2419
5314,1530314,16976,-536,812,17003.86,29.89,-1.00,-1.0,2378
5316,1530316,17040,-648,996,17081.38,29.80,-1.00,-1.0,2423
5319,1530319,17088,-524,920,17120.77,29.99,-1.00,-1.0,2386
5322,1530322,17092,-604,964,17129.81,29.94,-1.00,-1.0,2418
5325,1530325,17048,-676,964,17088.61,29.80,-1.00,-1.0,2373
5327,1530327,17068,-564,960,17104.28,29.94,-1.00,-1.0,2405
5330,1530330,16976,-616,996,17016.35,29.94,-1.00,-1.0,2386
5333,1530333,16908,-508,888,16938.92,29.94,-1.00,-1.0,2367
5338,1530338,17064,-572,972,17101.23,29.85,-1.00,-1.0,2434
5341,1530341,17016,-612,840,17047.71,29.85,-1.00,-1.0,2386
5344,1530344,17044,-644,800,17074.91,29.94,-1.00,-1.0,2423
5346,1530346,16984,-636,840,17016.65,29.94,-1.00,-1.0,2358
5349,1530349,17048,-576,920,17082.52,29.75,-1.00,-1.0,2421
5352,1530352,17064,-644,956,17102.89,29.94,-1.00,-1.0,2371
5355,1530355,17012,-620,788,17041.52,30.04,-1.00,-1.0,2419
5357,1530357,17020,-616,916,17055.76,29.94,-1.00,-1.0,2374
5362,1530362,17080,-552,888,17111.97,29.85,-1.00,-1.0,2446
5365,1530365,17020,-628,708,17046.29,29.89,-1.00,-1.0,2383
5368,1530368,17132,-588,884,17164.87,29.85,-1.00,-1.0,2430
5370,1530370,17012,-584,948,17048.40,29.80,-1.00,-1.0,2378
5373,1530373,17000,-660,908,17037.02,29.89,-1.00,-1.0,2369
5376,1530376,17040,-580,892,17073.19,29.99,-1.00,-1.0,2421
5379,1530379,17088,-560,800,17115.88,29.89,-1.00,-1.0,2369
5381,1530381,17052,-584,796,17080.55,29.80,-1.00,-1.0,2419
5384,1530384,16952,-672,796,16983.98,29.89,-1.00,-1.0,2371
5389,1530389,17048,-616,968,17086.57,29.89,-1.00,-1.0,2432
5392,1530392,16996,-524,780,17021.96,29.75,-1.00,-1.0,2374
5395,1530395,17020,-520,832,17048.26,29.99,-1.00,-1.0,2420
5397,1530397,17008,-628,912,17044.01,29.89,-1.00,-1.0,2371
5400,1530400,17000,-608,852,17032.19,29.89,-1.00,-1.0,2418
5403,1530403,17092,-624,836,17123.81,29.89,-1.00,-1.0,2370
5406,1530406,16972,-516,828,17000.02,29.80,-1.00,-1.0,2418
5408,1530408,17092,-544,848,17121.67,29.89,-1.00,-1.0,2372
5411,1530411,16976,-508,920,17008.50,29.80,-1.00,-1.0,2366
5416,1530416,17104,-596,876,17136.79,29.89,-1.00,-1.0,2432
5419,1530419,17016,-512,876,17046.22,29.80,-1.00,-1.0,2374
5422,1530422,17000,-508,944,17033.77,29.89,-1.00,-1.0,2420
5424,1530424,17104,-476,832,17130.84,29.80,-1.00,-1.0,2372
5427,1530427,17112,-632,760,17140.52,29.89,-1.00,-1.0,2418
5430,1530430,16960,-568,872,16991.90,29.89,-1.00,-1.0,2370
5433,1530433,17068,-676,804,17100.29,29.80,-1.00,-1.0,2418
5435,1530435,16984,-592,820,17014.09,29.80,-1.00,-1.0,2372
5440,1530440,16984,-544,808,17011.91,29.85,-1.00,-1.0,2432
5443,1530443,16984,-664,848,17018.12,29.89,-1.00,-1.0,2374
5446,1530446,17100,-596,928,17135.53,29.94,-1.00,-1.0,2419
5448,1530448,17028,-576,972,17065.44,29.80,-1.00,-1.0,2371
5451,1530451,17008,-568,1008,17047.31,29.94,-1.00,-1.0,2370
5454,1530454,17136,-608,1036,17178.05,29.89,-1.00,-1.0,2418
5456,1530456,17104,-648,892,17139.50,29.85,-1.00,-1.0,2378
5459,1530459,16972,-640,924,17009.18,29.89,-1.00,-1.0,2418
5462,1530462,17008,-532,888,17039.47,29.85,-1.00,-1.0,2379
5467,1530467,17064,-580,816,17093.34,29.89,-1.00,-1.0,2438
5470,1530470,17032,-556,840,17061.76,29.80,-1.00,-1.0,2374
5472,1530472,17072,-608,712,17097.65,29.80,-1.00,-1.0,2422
5475,1530475,17044,-620,824,17075.17,29.80,-1.00,-1.0,2371
5478,1530478,17008,-552,920,17041.81,29.85,-1.00,-1.0,2420
5481,1530481,16976,-640,848,17009.21,29.99,-1.00,-1.0,2370
5483,1530483,16956,-552,800,16983.83,29.85,-1.00,-1.0,2420
5486,1530486,17056,-612,836,17087.44,29.85,-1.00,-1.0,2385
5489,1530489,17036,-616,740,17063.19,29.85,-1.00,-1.0,2381
5494,1530494,17036,-588,936,17071.82,29.94,-1.00,-1.0,2431
5497,1530497,17040,-556,740,17065.12,29.85,-1.00,-1.0,2379
5500,1530500,17044,-644,928,17081.39,29.89,-1.00,-1.0,2433
5502,1530502,16996,-592,920,17031.17,29.75,-1.00,-1.0,2376
5505,1530505,17008,-616,844,17040.07,29.80,-1.00,-1.0,2412
5508,1530508,16972,-568,744,16997.79,29.85,-1.00,-1.0,2379
5511,1530511,17148,-588,860,17179.62,29.89,-1.00,-1.0,2433
5513,1530513,17104,-584,896,17137.41,29.89,-1.00,-1.0,2381
5518,1530518,17052,-608,932,17088.27,29.89,-1.00,-1.0,2440
5521,1530521,17032,-552,920,17065.76,29.94,-1.00,-1.0,2370
5524,1530524,17064,-556,996,17102.08,29.89,-1.00,-1.0,2423
5527,1530527,17168,-540,868,17198.41,29.94,-1.00,-1.0,2366
5529,1530529,17020,-520,1016,17058.22,29.80,-1.00,-1.0,2365
5532,1530532,17092,-572,1056,17134.14,29.85,-1.00,-1.0,2418
5535,1530535,17004,-724,900,17043.19,29.80,-1.00,-1.0,2370
5538,1530538,17012,-624,840,17044.15,29.94,-1.00,-1.0,2419
5540,1530540,17012,-656,960,17051.69,29.89,-1.00,-1.0,2371
5545,1530545,16988,-640,864,17021.99,29.80,-1.00,-1.0,2437
5548,1530548,17076,-632,892,17110.96,29.89,-1.00,-1.0,2369
5551,1530551,17060,-620,880,17093.93,29.89,-1.00,-1.0,2420
5553,1530553,17104,-600,844,17135.32,29.89,-1.00,-1.0,2377
5556,1530556,17008,-528,800,17034.99,29.89,-1.00,-1.0,2418
5559,1530559,17076,-620,892,17110.52,29.89,-1.00,-1.0,2359
5562,1530562,17032,-596,848,17063.51,29.85,-1.00,-1.0,2419
5564,1530564,17112,-556,992,17149.74,29.71,-1.00,-1.0,2378
5567,1530567,17036,-628,924,17072.59,29.89,-1.00,-1.0,2365
5572,1530572,16968,-584,896,17001.67,29.89,-1.00,-1.0,2425
5575,1530575,16972,-512,844,17000.68,29.89,-1.00,-1.0,2382
5578,1530578,17152,-560,780,17178.86,29.85,-1.00,-1.0,2429
5580,1530580,17032,-476,844,17059.54,29.89,-1.00,-1.0,2378
5583,1530583,17100,-616,808,17130.16,29.80,-1.00,-1.0,2419
5586,1530586,16944,-544,888,16975.97,29.89,-1.00,-1.0,2361
5589,1530589,16988,-612,788,17017.28,29.85,-1.00,-1.0,2418
5591,1530591,16976,-608,968,17014.44,29.89,-1.00,-1.0,2376
5596,1530596,17124,-580,964,17160.92,29.80,-1.00,-1.0,2440
5599,1530599,17044,-632,980,17083.85,29.89,-1.00,-1.0,2389
5602,1530602,17052,-560,908,17085.34,29.75,-1.00,-1.0,2420
5605,1530605,17140,-564,864,17171.03,29.89,-1.00,-1.0,2371
5607,1530607,16972,-636,812,17003.31,29.85,-1.00,-1.0,2365
5610,1530610,17008,-556,956,17043.92,29.99,-1.00,-1.0,2419
5613,1530613,17032,-552,876,17063.44,29.85,-1.00,-1.0,2370
5616,1530616,17048,-480,956,17081.53,29.80,-1.00,-1.0,2418
5618,1530618,17068,-624,860,17101.04,29.94,-1.00,-1.0,2371
5623,1530623,17000,-564,936,17035.09,29.94,-1.00,-1.0,2419
5626,1530626,17080,-580,860,17111.47,29.85,-1.00,-1.0,2377
5629,1530629,17020,-620,924,17056.34,29.71,-1.00,-1.0,2427
5632,1530632,17016,-608,828,17046.98,29.94,-1.00,-1.0,2370
5634,1530634,17040,-556,764,17066.18,29.80,-1.00,-1.0,2419
5637,1530637,17048,-588,936,17083.80,29.94,-1.00,-1.0,2371
5640,1530640,16968,-528,812,16995.62,29.89,-1.00,-1.0,2426
5643,1530643,16996,-616,792,17025.59,29.94,-1.00,-1.0,2370
5645,1530645,17112,-620,884,17146.03,29.89,-1.00,-1.0,2365
5650,1530650,17096,-532,836,17124.69,29.89,-1.00,-1.0,2431
5653,1530653,16992,-644,1000,17033.58,29.85,-1.00,-1.0,2375
5656,1530656,17008,-596,912,17042.86,29.89,-1.00,-1.0,2422
5659,1530659,17076,-528,972,17111.79,29.89,-1.00,-1.0,2370
5661,1530661,17080,-604,844,17111.50,29.99,-1.00,-1.0,2420
5664,1530664,16988,-680,748,17018.05,29.80,-1.00,-1.0,2372
5667,1530667,17036,-652,820,17068.18,29.99,-1.00,-1.0,2421
5670,1530670,17044,-528,876,17074.66,29.99,-1.00,-1.0,2370
5674,1530674,17040,-684,920,17078.52,29.85,-1.00,-1.0,2439
5677,1530677,16980,-572,1000,17019.04,29.85,-1.00,-1.0,2374
5680,1530680,16992,-528,1084,17034.73,29.85,-1.00,-1.0,2420
5682,1530682,17000,-608,868,17033.00,29.94,-1.00,-1.0,2377
5685,1530685,17004,-624,872,17037.78,29.80,-1.00,-1.0,2365
5688,1530688,17072,-648,1104,17119.93,29.89,-1.00,-1.0,2425
5691,1530691,17008,-644,972,17047.92,29.89,-1.00,-1.0,2357
5693,1530693,16948,-580,1000,16987.38,29.94,-1.00,-1.0,2431
5696,1530696,16956,-696,820,16990.08,29.80,-1.00,-1.0,2374
5701,1530701,16992,-596,856,17023.98,29.89,-1.00,-1.0,2432
5704,1530704,17056,-612,904,17090.90,29.99,-1.00,-1.0,2374
5707,1530707,16964,-632,908,17000.04,29.89,-1.00,-1.0,2422
5710,1530710,17088,-592,912,17122.56,29.89,-1.00,-1.0,2369
5712,1530712,17020,-668,804,17052.07,29.89,-1.00,-1.0,2421
5715,1530715,17052,-612,804,17081.91,29.99,-1.00,-1.0,2371
5718,1530718,17012,-532,876,17042.84,29.85,-1.00,-1.0,2428
5721,1530721,17116,-600,1016,17156.62,29.99,-1.00,-1.0,2370
5723,1530723,17036,-596,1008,17076.20,29.85,-1.00,-1.0,2369
5728,1530728,17104,-624,908,17139.45,29.85,-1.00,-1.0,2434
5731,1530731,17120,-632,868,17153.64,29.89,-1.00,-1.0,2374
5734,1530734,17072,-592,916,17106.80,29.94,-1.00,-1.0,2427
5737,1530737,17020,-652,896,17056.04,29.89,-1.00,-1.0,2369
5739,1530739,16996,-616,944,17033.34,29.94,-1.00,-1.0,2433
5742,1530742,16996,-624,820,17027.21,29.89,-1.00,-1.0,2371
5745,1530745,16956,-644,812,16987.64,29.94,-1.00,-1.0,2428
5748,1530748,17020,-688,1040,17065.62,29.94,-1.00,-1.0,2371
5753,1530753,17056,-616,1000,17096.39,29.80,-1.00,-1.0,2432
5755,1530755,17068,-660,824,17100.62,29.89,-1.00,-1.0,2374
5758,1530758,17000,-576,884,17032.71,29.80,-1.00,-1.0,2421
5761,1530761,17096,-636,820,17127.47,29.89,-1.00,-1.0,2379
5763,1530763,16904,-660,932,16942.53,29.94,-1.00,-1.0,2375
5766,1530766,17004,-748,772,17037.94,29.80,-1.00,-1.0,2419
5769,1530769,17048,-568,912,17081.82,29.85,-1.00,-1.0,2374
5772,1530772,17056,-540,952,17091.08,29.89,-1.00,-1.0,2418
5774,1530774,17152,-624,896,17186.72,29.89,-1.00,-1.0,2377
5779,1530779,17036,-596,996,17075.49,29.85,-1.00,-1.0,2441
5782,1530782,17000,-476,888,17029.83,29.85,-1.00,-1.0,2382
5785,1530785,17020,-580,860,17051.58,29.80,-1.00,-1.0,2421
5788,1530788,17056,-540,1112,17100.74,29.85,-1.00,-1.0,2375
5790,1530790,17020,-604,876,17053.23,29.89,-1.00,-1.0,2425
5793,1530793,17040,-648,844,17073.19,29.89,-1.00,-1.0,2385
5796,1530796,17008,-536,940,17042.39,29.99,-1.00,-1.0,2421
5799,1530799,17072,-604,836,17103.12,29.80,-1.00,-1.0,2372
5802,1530802,17064,-608,876,17097.29,29.89,-1.00,-1.0,2417
5807,1530807,17036,-564,976,17073.25,29.85,-1.00,-1.0,2431
5809,1530809,17024,-604,792,17053.11,29.99,-1.00,-1.0,2375
5812,1530812,17016,-592,856,17047.80,29.94,-1.00,-1.0,2418
5815,1530815,17068,-596,876,17100.85,29.94,-1.00,-1.0,2374
5818,1530818,17028,-548,788,17055.03,30.04,-1.00,-1.0,2419
5820,1530820,16984,-560,880,17016.00,29.94,-1.00,-1.0,2372
5823,1530823,17140,-604,860,17172.19,29.85,-1.00,-1.0,2420
5826,1530826,17044,-604,716,17069.72,29.85,-1.00,-1.0,2379
5831,1530831,17016,-672,880,17051.99,29.85,-1.00,-1.0,2433
5834,1530834,16960,-580,916,16994.62,29.89,-1.00,-1.0,2377
5836,1530836,16996,-536,892,17027.83,29.94,-1.00,-1.0,2419
5839,1530839,16964,-516,972,16999.66,29.89,-1.00,-1.0,2371
5842,1530842,17064,-656,912,17100.94,29.85,-1.00,-1.0,2367
5844,1530844,17024,-568,836,17053.98,29.89,-1.00,-1.0,2428
5847,1530847,17012,-552,940,17046.89,29.99,-1.00,-1.0,2378
5850,1530850,17096,-524,916,17128.54,29.89,-1.00,-1.0,2409
5853,1530853,17012,-560,836,17041.73,29.85,-1.00,-1.0,2372
5859,1530859,17016,-636,884,17050.81,29.80,-1.00,-1.0,2441
5862,1530862,17044,-596,948,17080.75,29.89,-1.00,-1.0,2389
5865,1530865,17044,-588,892,17077.45,29.80,-1.00,-1.0,2421
5868,1530868,17028,-616,780,17056.98,29.80,-1.00,-1.0,2374
5871,1530871,16900,-524,784,16926.29,29.85,-1.00,-1.0,2420
5873,1530873,17124,-520,876,17154.28,29.89,-1.00,-1.0,2373
5876,1530876,17148,-588,928,17183.16,29.89,-1.00,-1.0,2418
5879,1530879,17124,-568,784,17151.35,29.89,-1.00,-1.0,2368
5881,1530881,17000,-540,928,17033.87,29.85,-1.00,-1.0,2366
5886,1530886,17036,-640,1040,17079.71,29.89,-1.00,-1.0,2419
5889,1530889,17124,-576,944,17159.67,29.94,-1.00,-1.0,2374
5892,1530892,17084,-668,980,17125.12,29.94,-1.00,-1.0,2418
5894,1530894,17072,-584,860,17103.62,30.04,-1.00,-1.0,2372
5897,1530897,17044,-632,868,17077.79,29.85,-1.00,-1.0,2420
5900,1530900,17040,-552,900,17072.68,29.94,-1.00,-1.0,2370
5903,1530903,17072,-548,736,17096.64,29.85,-1.00,-1.0,2418
5905,1530905,16920,-556,844,16950.16,29.85,-1.00,-1.0,2371
5910,1530910,17044,-528,800,17070.93,29.85,-1.00,-1.0,2431
5913,1530913,16956,-684,1016,17000.18,29.80,-1.00,-1.0,2363
5916,1530916,17028,-612,724,17054.37,29.85,-1.00,-1.0,2419
5918,1530918,17036,-632,940,17073.62,29.94,-1.00,-1.0,2378
5921,1530921,17008,-580,908,17042.09,29.94,-1.00,-1.0,2369
5924,1530924,17080,-636,836,17112.27,29.89,-1.00,-1.0,2426
5927,1530927,16992,-708,896,17030.33,29.85,-1.00,-1.0,2357
5929,1530929,17056,-536,912,17088.77,29.89,-1.00,-1.0,2419
5932,1530932,17016,-624,912,17051.84,29.85,-1.00,-1.0,2373
5937,1530937,17044,-660,728,17072.30,29.85,-1.00,-1.0,2419
5940,1530940,17036,-704,944,17076.65,29.94,-1.00,-1.0,2374
5943,1530943,17020,-620,960,17058.32,29.80,-1.00,-1.0,2418
5945,1530945,17104,-532,864,17134.07,29.85,-1.00,-1.0,2372
5948,1530948,17032,-608,900,17066.60,29.89,-1.00,-1.0,2417
5951,1530951,17112,-596,784,17140.32,29.85,-1.00,-1.0,2374
5954,1530954,17020,-580,788,17048.10,29.89,-1.00,-1.0,2418
5956,1530956,17052,-600,1036,17093.97,29.94,-1.00,-1.0,2371
5959,1530959,17056,-596,912,17090.76,29.89,-1.00,-1.0,2373
5964,1530964,17036,-556,880,17067.77,29.89,-1.00,-1.0,2434
5967,1530967,17028,-596,780,17056.27,29.89,-1.00,-1.0,2375
5969,1530969,17052,-680,924,17090.55,29.89,-1.00,-1.0,2425
5972,1530972,17128,-644,920,17164.78,29.80,-1.00,-1.0,2372
5975,1530975,17060,-560,992,17097.99,29.89,-1.00,-1.0,2425
5978,1530978,16972,-584,872,17004.42,29.89,-1.00,-1.0,2374
5980,1530980,16924,-580,784,16952.07,29.85,-1.00,-1.0,2431
5983,1530983,17068,-620,852,17100.49,29.89,-1.00,-1.0,2371
5988,1530988,17080,-684,912,17118.00,29.89,-1.00,-1.0,2433
5991,1530991,17016,-564,892,17048.70,29.89,-1.00,-1.0,2373
5994,1530994,16976,-588,836,17006.74,29.89,-1.00,-1.0,2418
5996,1530996,17044,-512,864,17073.56,29.99,-1.00,-1.0,2373
5999,1530999,17108,-552,844,17137.70,29.89,-1.00,-1.0,2353
6002,1531002,16960,-616,940,16997.20,29.94,-1.00,-1.0,2429
6004,1531004,17060,-612,812,17090.28,29.85,-1.00,-1.0,2381
6007,1531007,17032,-496,932,17064.69,29.85,-1.00,-1.0,2419
6010,1531010,17044,-636,840,17076.54,29.85,-1.00,-1.0,2372
6015,1531015,17020,-536,816,17047.98,29.85,-1.00,-1.0,2438
6018,1531018,17080,-540,896,17112.01,29.85,-1.00,-1.0,2375
6020,1531020,16932,-672,808,16964.58,29.94,-1.00,-1.0,2426
6023,1531023,17016,-536,712,17039.32,29.85,-1.00,-1.0,2387
6026,1531026,17064,-516,716,17086.81,29.85,-1.00,-1.0,2419
6029,1531029,17020,-668,952,17059.69,29.94,-1.00,-1.0,2379
6032,1531032,17172,-712,844,17207.46,29.80,-1.00,-1.0,2421
6034,1531034,17096,-592,852,17127.45,29.85,-1.00,-1.0,2379
6037,1531037,17100,-556,864,17130.84,29.89,-1.00,-1.0,2366
6042,1531042,17064,-548,972,17100.44,29.89,-1.00,-1.0,2432
6045,1531045,17000,-584,860,17031.75,29.89,-1.00,-1.0,2376
6047,1531047,17156,-444,876,17184.09,29.89,-1.00,-1.0,2419
6050,1531050,16984,-660,852,17018.16,29.89,-1.00,-1.0,2358
6053,1531053,17092,-604,960,17129.59,29.80,-1.00,-1.0,2425
6056,1531056,17044,-640,896,17079.53,29.89,-1.00,-1.0,2370
6058,1531058,17036,-656,884,17071.53,29.89,-1.00,-1.0,2418
6061,1531061,17136,-620,876,17169.57,29.89,-1.00,-1.0,2359
6066,1531066,17044,-672,868,17079.31,29.89,-1.00,-1.0,2437
6069,1531069,17016,-568,1036,17056.97,29.89,-1.00,-1.0,2375
6071,1531071,17088,-524,868,17118.05,29.85,-1.00,-1.0,2421
6074,1531074,16984,-536,892,17015.85,29.89,-1.00,-1.0,2371
6077,1531077,17100,-648,828,17132.29,29.85,-1.00,-1.0,2371
6079,1531079,16996,-552,928,17030.26,29.89,-1.00,-1.0,2425
6082,1531082,17020,-620,960,17058.32,29.85,-1.00,-1.0,2385
6085,1531085,17100,-628,844,17132.33,29.89,-1.00,-1.0,2421
6088,1531088,16956,-640,756,16984.91,29.94,-1.00,-1.0,2375
6093,1531093,17016,-688,844,17050.80,29.89,-1.00,-1.0,2432
6095,1531095,17068,-616,796,17097.65,29.89,-1.00,-1.0,2374
6098,1531098,17008,-624,824,17039.38,29.94,-1.00,-1.0,2418
6101,1531101,17132,-544,824,17160.43,29.89,-1.00,-1.0,2371
6104,1531104,17044,-632,876,17078.20,29.94,-1.00,-1.0,2406
6106,1531106,17036,-640,784,17066.04,29.80,-1.00,-1.0,2375
6109,1531109,17008,-656,952,17047.25,29.85,-1.00,-1.0,2419
6112,1531112,16964,-632,836,16996.34,29.89,-1.00,-1.0,2370
6114,1531114,17044,-644,764,17073.27,29.94,-1.00,-1.0,2371
