timestamp_ms,global_ms,accel_x,accel_y,accel_z,accel_mag,temp_c,voltage,soc,loop_us
3,1830003,17008,-576,840,17038.47,27.59,-1.00,-1.0,2490
9,1830009,16940,-576,948,16976.28,27.59,-1.00,-1.0,2452
12,1830012,17060,-640,868,17094.05,27.59,-1.00,-1.0,2372
14,1830014,17040,-452,812,17065.32,27.54,-1.00,-1.0,2366
17,1830017,17072,-588,816,17101.60,27.59,-1.00,-1.0,2423
20,1830020,17036,-580,1040,17077.57,27.64,-1.00,-1.0,2359
23,1830023,17080,-460,932,17111.59,27.68,-1.00,-1.0,2429
25,1830025,17092,-532,872,17122.50,27.54,-1.00,-1.0,2378
28,1830028,17060,-584,1060,17102.87,27.59,-1.00,-1.0,2418
31,1830031,16968,-572,956,17004.53,27.64,-1.00,-1.0,2373
36,1830036,16876,-536,956,16911.55,27.64,-1.00,-1.0,2443
38,1830038,17052,-604,964,17089.90,27.64,-1.00,-1.0,2363
41,1830041,17052,-496,888,17082.31,27.64,-1.00,-1.0,2421
44,1830044,17108,-500,1016,17145.43,27.54,-1.00,-1.0,2377
46,1830046,16992,-552,956,17027.82,27.59,-1.00,-1.0,2372
49,1830049,16984,-568,932,17019.03,27.59,-1.00,-1.0,2421
52,1830052,17072,-528,896,17103.65,27.54,-1.00,-1.0,2373
55,1830055,16984,-672,856,17018.83,27.68,-1.00,-1.0,2420
57,1830057,16940,-488,980,16975.34,27.49,-1.00,-1.0,2378
62,1830062,17020,-644,840,17052.88,27.59,-1.00,-1.0,2456
65,1830065,17112,-580,1044,17153.62,27.64,-1.00,-1.0,2370
68,1830068,17028,-576,952,17064.32,27.64,-1.00,-1.0,2465
71,1830071,17064,-596,904,17098.32,27.64,-1.00,-1.0,2375
73,1830073,17132,-568,968,17168.72,27.59,-1.00,-1.0,2375
76,1830076,17052,-444,948,17084.10,27.59,-1.00,-1.0,2422
79,1830079,17168,-568,928,17202.44,27.59,-1.00,-1.0,2367
82,1830082,17156,-576,928,17190.73,27.59,-1.00,-1.0,2423
84,1830084,16932,-544,920,16965.70,27.68,-1.00,-1.0,2373
89,1830089,17104,-592,940,17140.04,27.68,-1.00,-1.0,2441
92,1830092,16984,-580,876,17016.46,27.59,-1.00,-1.0,2372
95,1830095,16992,-528,968,17027.74,27.68,-1.00,-1.0,2431
98,1830098,16996,-584,1032,17037.31,27.59,-1.00,-1.0,2374
100,1830100,17040,-508,868,17069.65,27.64,-1.00,-1.0,2365
103,1830103,17060,-500,876,17089.79,27.54,-1.00,-1.0,2419
106,1830106,17040,-536,796,17067.00,27.54,-1.00,-1.0,2373
109,1830109,17140,-560,868,17171.10,27.64,-1.00,-1.0,2420
111,1830111,17068,-568,1052,17109.82,27.64,-1.00,-1.0,2373
116,1830116,17100,-500,928,17132.46,27.64,-1.00,-1.0,2432
119,1830119,17000,-552,948,17035.36,27.59,-1.00,-1.0,2365
122,1830122,17136,-576,964,17172.76,27.54,-1.00,-1.0,2431
125,1830125,16984,-504,940,17017.46,27.64,-1.00,-1.0,2368
127,1830127,17032,-608,840,17063.54,27.54,-1.00,-1.0,2421
130,1830130,17024,-564,968,17060.82,27.54,-1.00,-1.0,2370
133,1830133,17000,-488,1000,17036.38,27.64,-1.00,-1.0,2367
135,1830135,17140,-580,848,17170.76,27.59,-1.00,-1.0,2435
138,1830138,17060,-536,1004,17097.92,27.49,-1.00,-1.0,2369
143,1830143,17084,-556,908,17117.14,27.64,-1.00,-1.0,2431
146,1830146,17088,-516,980,17123.86,27.73,-1.00,-1.0,2366
149,1830149,16992,-500,960,17026.44,27.49,-1.00,-1.0,2428
151,1830151,17032,-456,988,17066.72,27.64,-1.00,-1.0,2369
154,1830154,17024,-616,780,17052.99,27.59,-1.00,-1.0,2419
157,1830157,17032,-580,864,17063.76,27.54,-1.00,-1.0,2369
160,1830160,17104,-584,992,17142.69,27.59,-1.00,-1.0,2419
162,1830162,16984,-528,1036,17023.76,27.64,-1.00,-1.0,2369
165,1830165,17096,-612,1040,17138.54,27.59,-1.00,-1.0,2369
170,1830170,16964,-604,852,16996.12,27.68,-1.00,-1.0,2439
173,1830173,16952,-596,968,16990.07,27.59,-1.00,-1.0,2365
175,1830175,17056,-588,912,17090.48,27.59,-1.00,-1.0,2442
178,1830178,16956,-540,992,16993.58,27.68,-1.00,-1.0,2377
181,1830181,17072,-596,956,17109.13,27.64,-1.00,-1.0,2407
184,1830184,16968,-564,1016,17007.74,27.59,-1.00,-1.0,2370
186,1830186,17004,-596,964,17041.73,27.54,-1.00,-1.0,2431
189,1830189,17012,-568,1048,17053.71,27.59,-1.00,-1.0,2376
194,1830194,17056,-636,904,17091.78,27.59,-1.00,-1.0,2432
197,1830197,17132,-532,828,17160.25,27.54,-1.00,-1.0,2374
199,1830199,17104,-580,1004,17143.26,27.54,-1.00,-1.0,2373
202,1830202,17072,-600,976,17110.40,27.64,-1.00,-1.0,2428
205,1830205,17056,-556,964,17092.27,27.64,-1.00,-1.0,2374
208,1830208,17048,-728,944,17089.63,27.64,-1.00,-1.0,2421
210,1830210,16932,-508,864,16961.64,27.54,-1.00,-1.0,2368
213,1830213,17068,-604,960,17105.64,27.59,-1.00,-1.0,2420
216,1830216,17056,-532,924,17089.29,27.64,-1.00,-1.0,2371
221,1830221,17016,-564,1052,17057.81,27.73,-1.00,-1.0,2438
224,1830224,16988,-564,1044,17029.39,27.64,-1.00,-1.0,2366
226,1830226,17080,-416,860,17106.70,27.59,-1.00,-1.0,2431
229,1830229,17052,-528,888,17083.27,27.59,-1.00,-1.0,2373
232,1830232,17056,-660,988,17097.34,27.64,-1.00,-1.0,2369
234,1830234,16948,-644,980,16988.52,27.54,-1.00,-1.0,2427
237,1830237,16988,-476,856,17016.21,27.64,-1.00,-1.0,2384
240,1830240,17060,-460,788,17084.38,27.73,-1.00,-1.0,2423
243,1830243,16964,-676,1044,17009.53,27.54,-1.00,-1.0,2372
247,1830247,17044,-656,1016,17086.85,27.68,-1.00,-1.0,2435
250,1830250,16996,-592,1092,17041.33,27.59,-1.00,-1.0,2365
253,1830253,17048,-496,940,17081.10,27.59,-1.00,-1.0,2432
256,1830256,16980,-548,1012,17018.96,27.59,-1.00,-1.0,2358
258,1830258,17028,-476,1104,17070.39,27.64,-1.00,-1.0,2423
261,1830261,17008,-556,948,17043.47,27.59,-1.00,-1.0,2372
264,1830264,17060,-488,888,17090.06,27.54,-1.00,-1.0,2367
267,1830267,17060,-560,920,17093.96,27.64,-1.00,-1.0,2434
270,1830270,16988,-596,968,17025.99,27.73,-1.00,-1.0,2372
275,1830275,17032,-544,1020,17071.19,27.64,-1.00,-1.0,2432
277,1830277,17044,-512,916,17076.27,27.49,-1.00,-1.0,2362
280,1830280,16980,-592,872,17012.68,27.64,-1.00,-1.0,2444
283,1830283,16976,-608,1004,17016.53,27.54,-1.00,-1.0,2376
286,1830286,17088,-544,924,17121.61,27.54,-1.00,-1.0,2434
288,1830288,17092,-516,880,17122.42,27.73,-1.00,-1.0,2373
291,1830291,17060,-520,1028,17098.85,27.68,-1.00,-1.0,2429
294,1830294,17076,-580,932,17111.25,27.64,-1.00,-1.0,2377
297,1830297,17096,-672,936,17134.79,27.64,-1.00,-1.0,2369
302,1830302,16976,-536,892,17007.87,27.64,-1.00,-1.0,2438
304,1830304,17072,-560,800,17099.91,27.64,-1.00,-1.0,2367
307,1830307,16980,-584,956,17016.91,27.59,-1.00,-1.0,2438
310,1830310,16976,-580,912,17010.37,27.54,-1.00,-1.0,2377
313,1830313,16992,-588,884,17025.14,27.64,-1.00,-1.0,2433
315,1830315,17040,-628,912,17075.94,27.64,-1.00,-1.0,2378
318,1830318,16968,-568,988,17006.23,27.68,-1.00,-1.0,2420
321,1830321,17056,-508,860,17085.22,27.54,-1.00,-1.0,2372
326,1830326,16964,-636,928,17001.26,27.64,-1.00,-1.0,2439
329,1830329,17080,-628,876,17113.97,27.64,-1.00,-1.0,2366
331,1830331,17204,-592,904,17237.90,27.49,-1.00,-1.0,2366
334,1830334,17020,-636,976,17059.82,27.68,-1.00,-1.0,2428
337,1830337,17000,-552,868,17031.09,27.59,-1.00,-1.0,2370
340,1830340,16980,-500,920,17012.25,27.73,-1.00,-1.0,2420
342,1830342,17044,-504,948,17077.78,27.59,-1.00,-1.0,2369
345,1830345,17084,-540,900,17116.21,27.64,-1.00,-1.0,2420
348,1830348,17012,-592,884,17045.24,27.49,-1.00,-1.0,2369
353,1830353,17052,-616,816,17082.62,27.68,-1.00,-1.0,2434
356,1830356,16980,-496,800,17006.07,27.64,-1.00,-1.0,2369
358,1830358,17020,-624,928,17056.70,27.59,-1.00,-1.0,2437
361,1830361,17112,-588,1012,17151.98,27.59,-1.00,-1.0,2388
364,1830364,17036,-580,852,17067.15,27.64,-1.00,-1.0,2367
367,1830367,17052,-596,728,17077.94,27.64,-1.00,-1.0,2420
369,1830369,17044,-636,992,17084.69,27.54,-1.00,-1.0,2369
372,1830372,17112,-492,1040,17150.63,27.54,-1.00,-1.0,2420
375,1830375,16984,-532,864,17014.28,27.64,-1.00,-1.0,2369
380,1830380,17044,-528,972,17079.86,27.54,-1.00,-1.0,2432
382,1830382,16908,-564,844,16938.44,27.59,-1.00,-1.0,2369
385,1830385,17060,-636,928,17097.05,27.54,-1.00,-1.0,2429
388,1830388,17000,-572,928,17034.92,27.68,-1.00,-1.0,2370
391,1830391,16904,-508,932,16937.29,27.64,-1.00,-1.0,2429
394,1830394,17064,-588,948,17100.43,27.54,-1.00,-1.0,2366
396,1830396,16980,-516,1024,17018.67,27.64,-1.00,-1.0,2365
399,1830399,17132,-512,944,17165.62,27.59,-1.00,-1.0,2426
402,1830402,17016,-532,852,17045.62,27.64,-1.00,-1.0,2423
407,1830407,17092,-560,912,17125.47,27.59,-1.00,-1.0,2449
410,1830410,17004,-536,1036,17043.96,27.54,-1.00,-1.0,2367
412,1830412,17104,-540,928,17137.67,27.68,-1.00,-1.0,2432
415,1830415,17032,-564,1052,17073.78,27.59,-1.00,-1.0,2376
418,1830418,17020,-608,884,17053.78,27.59,-1.00,-1.0,2423
421,1830421,16956,-600,932,16992.19,27.64,-1.00,-1.0,2370
423,1830423,17052,-520,956,17086.69,27.68,-1.00,-1.0,2430
426,1830426,17148,-596,900,17181.94,27.59,-1.00,-1.0,2377
429,1830429,16976,-568,868,17007.66,27.64,-1.00,-1.0,2375
434,1830434,17040,-616,876,17073.62,27.64,-1.00,-1.0,2441
436,1830436,17136,-644,836,17168.46,27.68,-1.00,-1.0,2369
439,1830439,16964,-628,876,16998.21,27.68,-1.00,-1.0,2436
442,1830442,17036,-560,948,17071.54,27.59,-1.00,-1.0,2380
445,1830445,17104,-524,1080,17146.07,27.59,-1.00,-1.0,2432
447,1830447,17056,-640,972,17095.66,27.59,-1.00,-1.0,2373
450,1830450,17016,-692,936,17055.77,27.64,-1.00,-1.0,2429
453,1830453,17020,-568,852,17050.78,27.59,-1.00,-1.0,2376
458,1830458,16916,-608,960,16954.12,27.54,-1.00,-1.0,2441
460,1830460,17124,-516,772,17149.16,27.64,-1.00,-1.0,2366
463,1830463,17020,-496,1044,17059.20,27.59,-1.00,-1.0,2372
466,1830466,16968,-528,984,17004.71,27.64,-1.00,-1.0,2431
468,1830468,16992,-520,1044,17031.98,27.49,-1.00,-1.0,2379
471,1830471,16980,-600,928,17015.92,27.45,-1.00,-1.0,2419
474,1830474,17000,-496,848,17028.36,27.54,-1.00,-1.0,2374
477,1830477,17004,-552,1092,17047.97,27.59,-1.00,-1.0,2430
480,1830480,17040,-580,1136,17087.67,27.59,-1.00,-1.0,2378
485,1830485,17084,-584,956,17120.69,27.59,-1.00,-1.0,2448
488,1830488,17052,-644,840,17084.82,27.54,-1.00,-1.0,2367
490,1830490,17004,-604,920,17039.58,27.59,-1.00,-1.0,2423
493,1830493,17000,-628,868,17033.73,27.68,-1.00,-1.0,2371
496,1830496,17028,-512,924,17060.74,27.54,-1.00,-1.0,2367
498,1830498,17056,-592,1052,17098.66,27.64,-1.00,-1.0,2422
501,1830501,16980,-656,808,17011.87,27.64,-1.00,-1.0,2377
504,1830504,17020,-592,948,17056.66,27.64,-1.00,-1.0,2420
507,1830507,17032,-568,900,17065.22,27.59,-1.00,-1.0,2378
512,1830512,16948,-608,900,16982.77,27.59,-1.00,-1.0,2448
515,1830515,16932,-556,1032,16972.53,27.59,-1.00,-1.0,2367
517,1830517,17016,-492,920,17047.95,27.73,-1.00,-1.0,2434
520,1830520,17028,-588,984,17066.54,27.49,-1.00,-1.0,2370
523,1830523,16952,-524,928,16985.47,27.54,-1.00,-1.0,2424
526,1830526,17024,-584,792,17052.42,27.59,-1.00,-1.0,2370
528,1830528,16952,-516,1036,16991.46,27.73,-1.00,-1.0,2367
531,1830531,17044,-584,864,17075.88,27.68,-1.00,-1.0,2407
534,1830534,16984,-484,1000,17020.30,27.54,-1.00,-1.0,2433
539,1830539,17000,-628,892,17034.96,27.59,-1.00,-1.0,2442
542,1830542,17072,-540,968,17107.95,27.59,-1.00,-1.0,2370
545,1830545,17028,-520,1016,17066.21,27.59,-1.00,-1.0,2421
547,1830547,17068,-632,1072,17113.31,27.59,-1.00,-1.0,2368
550,1830550,17088,-660,904,17124.62,27.59,-1.00,-1.0,2422
553,1830553,17036,-544,992,17073.53,27.49,-1.00,-1.0,2367
556,1830556,17024,-592,940,17060.21,27.59,-1.00,-1.0,2408
558,1830558,16972,-536,804,16999.48,27.59,-1.00,-1.0,2368
561,1830561,16940,-680,940,16979.68,27.64,-1.00,-1.0,2367
566,1830566,17012,-552,928,17046.23,27.54,-1.00,-1.0,2449
569,1830569,17008,-556,1000,17046.44,27.64,-1.00,-1.0,2368
571,1830571,17072,-564,848,17102.35,27.64,-1.00,-1.0,2430
574,1830574,17100,-584,812,17129.23,27.64,-1.00,-1.0,2376
577,1830577,17004,-632,916,17040.38,27.54,-1.00,-1.0,2423
580,1830580,17080,-568,904,17113.34,27.54,-1.00,-1.0,2372
582,1830582,17120,-612,864,17152.71,27.64,-1.00,-1.0,2429
585,1830585,17072,-552,1004,17110.40,27.64,-1.00,-1.0,2383
590,1830590,16976,-608,940,17012.87,27.45,-1.00,-1.0,2448
593,1830593,17044,-604,920,17079.49,27.64,-1.00,-1.0,2376
595,1830595,16928,-652,976,16968.64,27.54,-1.00,-1.0,2368
598,1830598,17096,-488,1020,17133.35,27.59,-1.00,-1.0,2407
601,1830601,17012,-508,900,17043.36,27.59,-1.00,-1.0,2370
604,1830604,17028,-580,1016,17068.14,27.68,-1.00,-1.0,2425
606,1830606,16940,-604,880,16973.59,27.73,-1.00,-1.0,2371
609,1830609,17052,-592,928,17087.49,27.59,-1.00,-1.0,2420
612,1830612,17088,-556,884,17119.88,27.59,-1.00,-1.0,2370
617,1830617,17020,-620,980,17059.46,27.59,-1.00,-1.0,2442
620,1830620,17148,-592,856,17179.55,27.59,-1.00,-1.0,2365
623,1830623,17076,-516,792,17102.14,27.59,-1.00,-1.0,2421
625,1830625,16952,-536,880,16983.29,27.59,-1.00,-1.0,2371
628,1830628,16976,-692,868,17012.26,27.54,-1.00,-1.0,2367
631,1830631,16956,-580,944,16992.16,27.54,-1.00,-1.0,2421
633,1830633,17020,-544,852,17049.99,27.64,-1.00,-1.0,2370
636,1830636,17044,-616,1096,17090.31,27.64,-1.00,-1.0,2421
639,1830639,17092,-628,948,17129.79,27.68,-1.00,-1.0,2369
644,1830644,17036,-540,884,17067.46,27.54,-1.00,-1.0,2449
647,1830647,17012,-496,1060,17052.21,27.54,-1.00,-1.0,2355
649,1830649,17012,-532,1064,17053.54,27.54,-1.00,-1.0,2424
652,1830652,17004,-564,976,17041.32,27.54,-1.00,-1.0,2368
655,1830655,17088,-544,852,17117.87,27.54,-1.00,-1.0,2430
658,1830658,16896,-588,920,16931.24,27.54,-1.00,-1.0,2355
660,1830660,17008,-556,888,17040.24,27.59,-1.00,-1.0,2382
663,1830663,17024,-572,908,17057.79,27.54,-1.00,-1.0,2421
666,1830666,16996,-544,924,17029.79,27.64,-1.00,-1.0,2366
671,1830671,17052,-496,972,17086.88,27.68,-1.00,-1.0,2447
673,1830673,17060,-532,856,17089.74,27.49,-1.00,-1.0,2375
676,1830676,16976,-600,724,17002.02,27.64,-1.00,-1.0,2420
679,1830679,17084,-536,912,17116.72,27.59,-1.00,-1.0,2368
682,1830682,17000,-640,948,17038.44,27.54,-1.00,-1.0,2422
684,1830684,17040,-480,876,17069.25,27.59,-1.00,-1.0,2375
687,1830687,17084,-528,912,17116.47,27.54,-1.00,-1.0,2421
690,1830690,16984,-592,812,17013.70,27.64,-1.00,-1.0,2368
693,1830693,16988,-616,992,17028.08,27.64,-1.00,-1.0,2367
698,1830698,17028,-568,1028,17068.46,27.64,-1.00,-1.0,2441
701,1830701,16968,-568,932,17003.07,27.64,-1.00,-1.0,2368
704,1830704,16912,-576,960,16949.02,27.64,-1.00,-1.0,2421
706,1830706,16972,-520,1036,17011.54,27.54,-1.00,-1.0,2368
709,1830709,16960,-612,940,16997.05,27.73,-1.00,-1.0,2421
712,1830712,17040,-556,852,17070.34,27.64,-1.00,-1.0,2367
715,1830715,16964,-544,960,16999.85,27.54,-1.00,-1.0,2421
717,1830717,17068,-528,904,17100.08,27.54,-1.00,-1.0,2368
722,1830722,17020,-568,968,17056.96,27.73,-1.00,-1.0,2440
725,1830725,17048,-524,980,17084.18,27.54,-1.00,-1.0,2371
728,1830728,17016,-536,1000,17053.78,27.64,-1.00,-1.0,2365
730,1830730,16984,-652,892,17019.90,27.59,-1.00,-1.0,2436
733,1830733,17080,-648,1008,17121.98,27.59,-1.00,-1.0,2368
736,1830736,17100,-544,980,17136.70,27.59,-1.00,-1.0,2428
739,1830739,16968,-528,844,16997.18,27.59,-1.00,-1.0,2373
741,1830741,17036,-476,912,17067.03,27.68,-1.00,-1.0,2433
744,1830744,17032,-540,920,17065.38,27.59,-1.00,-1.0,2375
749,1830749,17144,-572,912,17177.77,27.54,-1.00,-1.0,2473
752,1830752,17048,-616,996,17088.18,27.64,-1.00,-1.0,2369
755,1830755,17044,-544,852,17073.95,27.64,-1.00,-1.0,2422
757,1830757,16996,-580,1096,17041.17,27.64,-1.00,-1.0,2367
760,1830760,17156,-492,1000,17192.16,27.49,-1.00,-1.0,2366
763,1830763,17020,-576,940,17055.67,27.59,-1.00,-1.0,2430
766,1830766,17100,-588,968,17137.47,27.59,-1.00,-1.0,2365
768,1830768,17104,-544,948,17138.89,27.59,-1.00,-1.0,2425
771,1830771,17080,-528,1028,17119.05,27.59,-1.00,-1.0,2381
776,1830776,17084,-624,888,17118.44,27.59,-1.00,-1.0,2444
779,1830779,16948,-544,920,16981.67,27.59,-1.00,-1.0,2365
782,1830782,17056,-484,1080,17097.01,27.68,-1.00,-1.0,2426
785,1830785,17036,-648,972,17076.01,27.59,-1.00,-1.0,2365
787,1830787,17028,-544,996,17065.78,27.68,-1.00,-1.0,2424
790,1830790,17072,-596,1068,17115.75,27.59,-1.00,-1.0,2366
793,1830793,17016,-584,956,17052.84,27.68,-1.00,-1.0,2430
796,1830796,16968,-508,852,16996.97,27.59,-1.00,-1.0,2365
798,1830798,17028,-588,940,17064.06,27.54,-1.00,-1.0,2375
803,1830803,16964,-680,876,17000.21,27.54,-1.00,-1.0,2442
806,1830806,17072,-508,864,17101.40,27.59,-1.00,-1.0,2380
809,1830809,17056,-544,956,17091.43,27.54,-1.00,-1.0,2436
811,1830811,17104,-568,744,17129.59,27.54,-1.00,-1.0,2380
814,1830814,17088,-484,920,17119.59,27.54,-1.00,-1.0,2431
817,1830817,17032,-624,992,17072.27,27.64,-1.00,-1.0,2374
820,1830820,16852,-532,932,16886.13,27.64,-1.00,-1.0,2431
822,1830822,16928,-556,808,16956.39,27.64,-1.00,-1.0,2376
825,1830825,17076,-656,996,17117.60,27.64,-1.00,-1.0,2356
830,1830830,17056,-616,980,17095.23,27.54,-1.00,-1.0,2458
833,1830833,16972,-604,964,17010.08,27.54,-1.00,-1.0,2374
836,1830836,17044,-612,928,17080.21,27.54,-1.00,-1.0,2437
838,1830838,16948,-568,1032,16988.89,27.64,-1.00,-1.0,2368
841,1830841,17060,-508,812,17086.87,27.64,-1.00,-1.0,2431
844,1830844,16928,-560,1076,16971.40,27.54,-1.00,-1.0,2373
847,1830847,17092,-484,848,17119.87,27.64,-1.00,-1.0,2432
849,1830849,17004,-608,840,17035.59,27.54,-1.00,-1.0,2378
854,1830854,16952,-576,1028,16992.91,27.54,-1.00,-1.0,2449
857,1830857,17100,-580,952,17136.30,27.64,-1.00,-1.0,2365
860,1830860,17008,-564,912,17041.77,27.59,-1.00,-1.0,2369
862,1830862,17044,-560,824,17073.09,27.54,-1.00,-1.0,2423
865,1830865,17028,-632,960,17066.75,27.59,-1.00,-1.0,2372
868,1830868,16984,-516,980,17020.07,27.64,-1.00,-1.0,2429
871,1830871,17080,-616,976,17118.95,27.68,-1.00,-1.0,2368
873,1830873,17048,-604,876,17081.17,27.73,-1.00,-1.0,2425
876,1830876,17028,-552,792,17055.34,27.59,-1.00,-1.0,2370
881,1830881,17088,-604,972,17126.28,27.64,-1.00,-1.0,2449
884,1830884,17008,-508,836,17036.11,27.54,-1.00,-1.0,2374
886,1830886,17028,-516,968,17063.29,27.49,-1.00,-1.0,2429
889,1830889,16948,-600,912,16983.12,27.54,-1.00,-1.0,2384
892,1830892,16952,-568,880,16984.33,27.59,-1.00,-1.0,2367
895,1830895,16992,-548,824,17020.79,27.54,-1.00,-1.0,2423
897,1830897,17080,-576,868,17111.74,27.49,-1.00,-1.0,2369
900,1830900,17008,-628,908,17043.79,27.54,-1.00,-1.0,2422
903,1830903,17048,-540,1004,17086.07,27.59,-1.00,-1.0,2369
908,1830908,17036,-524,876,17066.55,27.49,-1.00,-1.0,2442
911,1830911,17016,-468,788,17040.66,27.59,-1.00,-1.0,2369
914,1830914,17024,-652,940,17062.39,27.59,-1.00,-1.0,2422
916,1830916,17020,-576,912,17054.15,27.59,-1.00,-1.0,2356
919,1830919,17128,-520,864,17157.66,27.59,-1.00,-1.0,2422
922,1830922,17032,-572,972,17069.30,27.68,-1.00,-1.0,2373
925,1830925,17044,-600,796,17073.12,27.64,-1.00,-1.0,2371
927,1830927,17088,-536,992,17125.16,27.54,-1.00,-1.0,2429
930,1830930,17024,-548,916,17057.43,27.64,-1.00,-1.0,2369
935,1830935,17048,-568,1020,17087.93,27.59,-1.00,-1.0,2429
938,1830938,17028,-608,888,17061.97,27.59,-1.00,-1.0,2369
941,1830941,17036,-560,988,17073.81,27.64,-1.00,-1.0,2429
944,1830944,17120,-528,940,17153.91,27.59,-1.00,-1.0,2368
946,1830946,17020,-496,964,17054.49,27.64,-1.00,-1.0,2425
949,1830949,17024,-600,840,17055.27,27.59,-1.00,-1.0,2357
952,1830952,17060,-616,992,17099.92,27.64,-1.00,-1.0,2422
955,1830955,16932,-568,888,16964.78,27.59,-1.00,-1.0,2368
957,1830957,16936,-520,1044,16976.11,27.54,-1.00,-1.0,2370
962,1830962,17124,-484,940,17156.61,27.54,-1.00,-1.0,2446
965,1830965,16984,-532,1084,17026.87,27.54,-1.00,-1.0,2369
968,1830968,17096,-548,860,17126.39,27.64,-1.00,-1.0,2430
971,1830971,17036,-520,796,17062.51,27.64,-1.00,-1.0,2368
973,1830973,16996,-672,1096,17044.55,27.64,-1.00,-1.0,2425
976,1830976,17092,-616,988,17131.61,27.45,-1.00,-1.0,2369
979,1830979,16924,-552,868,16955.23,27.64,-1.00,-1.0,2425
982,1830982,17084,-656,984,17124.88,27.54,-1.00,-1.0,2368
987,1830987,17096,-540,844,17125.34,27.54,-1.00,-1.0,2443
989,1830989,16948,-572,968,16985.26,27.54,-1.00,-1.0,2368
992,1830992,16940,-532,1012,16978.54,27.73,-1.00,-1.0,2373
995,1830995,17052,-616,888,17086.21,27.68,-1.00,-1.0,2428
997,1830997,17000,-620,940,17037.25,27.68,-1.00,-1.0,2372
1000,1831000,17072,-640,896,17107.47,27.59,-1.00,-1.0,2437
1003,1831003,16988,-520,932,17021.49,27.59,-1.00,-1.0,2377
1006,1831006,17060,-520,840,17088.58,27.59,-1.00,-1.0,2432
1008,1831008,17080,-544,852,17109.89,27.59,-1.00,-1.0,2374
1013,1831013,16988,-500,908,17019.60,27.49,-1.00,-1.0,2443
1016,1831016,16936,-504,952,16970.22,27.54,-1.00,-1.0,2372
1019,1831019,16992,-412,1000,17026.38,27.59,-1.00,-1.0,2429
1022,1831022,16984,-596,1020,17025.04,27.59,-1.00,-1.0,2368
1024,1831024,17036,-648,824,17068.22,27.59,-1.00,-1.0,2433
1027,1831027,16944,-500,892,16974.83,27.59,-1.00,-1.0,2378
1030,1831030,17092,-588,1012,17132.03,27.54,-1.00,-1.0,2368
1033,1831033,17020,-556,1028,17060.08,27.64,-1.00,-1.0,2422
1035,1831035,17044,-616,752,17071.70,27.49,-1.00,-1.0,2378
1040,1831040,17060,-592,908,17094.40,27.59,-1.00,-1.0,2453
1043,1831043,16964,-532,920,16997.26,27.59,-1.00,-1.0,2376
1046,1831046,16924,-636,888,16959.21,27.73,-1.00,-1.0,2423
1049,1831049,16992,-528,840,17020.94,27.59,-1.00,-1.0,2374
1051,1831051,17040,-644,904,17076.11,27.64,-1.00,-1.0,2429
1054,1831054,16972,-608,920,17007.79,27.54,-1.00,-1.0,2384
1057,1831057,17080,-584,924,17114.94,27.64,-1.00,-1.0,2425
1060,1831060,16972,-560,924,17006.36,27.54,-1.00,-1.0,2374
1065,1831065,17060,-640,928,17097.20,27.73,-1.00,-1.0,2442
1067,1831067,17040,-588,808,17069.28,27.54,-1.00,-1.0,2369
1070,1831070,17044,-564,936,17079.00,27.59,-1.00,-1.0,2374
1073,1831073,17008,-568,932,17042.98,27.59,-1.00,-1.0,2425
1075,1831075,17068,-624,804,17098.32,27.59,-1.00,-1.0,2371
1078,1831078,16940,-532,828,16968.56,27.54,-1.00,-1.0,2438
1081,1831081,17072,-552,872,17103.17,27.59,-1.00,-1.0,2379
1084,1831084,17004,-692,948,17044.46,27.64,-1.00,-1.0,2435
1086,1831086,16996,-612,968,17034.54,27.64,-1.00,-1.0,2372
1091,1831091,17016,-568,1012,17055.53,27.59,-1.00,-1.0,2442
1094,1831094,17004,-572,1080,17047.86,27.59,-1.00,-1.0,2380
1097,1831097,17004,-604,988,17043.38,27.73,-1.00,-1.0,2434
1099,1831099,17080,-540,916,17113.07,27.64,-1.00,-1.0,2372
1102,1831102,17052,-556,1060,17093.96,27.54,-1.00,-1.0,2417
1105,1831105,17048,-460,780,17072.03,27.64,-1.00,-1.0,2378
1108,1831108,17056,-568,920,17090.24,27.54,-1.00,-1.0,2368
1111,1831111,17000,-532,968,17035.85,27.59,-1.00,-1.0,2423
1114,1831114,17088,-604,1012,17128.59,27.45,-1.00,-1.0,2373
1119,1831119,17028,-628,940,17065.48,27.64,-1.00,-1.0,2445
1121,1831121,17040,-636,1000,17081.16,27.54,-1.00,-1.0,2371
1124,1831124,17004,-572,912,17038.04,27.64,-1.00,-1.0,2409
1127,1831127,17024,-640,824,17055.94,27.73,-1.00,-1.0,2369
1130,1831130,17072,-592,952,17108.77,27.68,-1.00,-1.0,2422
1132,1831132,17056,-508,968,17091.00,27.64,-1.00,-1.0,2369
1135,1831135,16932,-568,1028,16972.69,27.64,-1.00,-1.0,2422
1138,1831138,17040,-580,924,17074.89,27.54,-1.00,-1.0,2368
1143,1831143,16928,-612,944,16965.34,27.54,-1.00,-1.0,2450
1145,1831145,17000,-628,844,17032.52,27.64,-1.00,-1.0,2378
1148,1831148,17096,-468,900,17126.07,27.68,-1.00,-1.0,2422
1151,1831151,17064,-616,952,17101.63,27.54,-1.00,-1.0,2372
1154,1831154,16972,-576,840,17002.53,27.59,-1.00,-1.0,2368
1156,1831156,17060,-532,1088,17102.93,27.64,-1.00,-1.0,2422
1159,1831159,16952,-616,1040,16995.04,27.59,-1.00,-1.0,2371
1162,1831162,17156,-580,876,17188.14,27.64,-1.00,-1.0,2433
1165,1831165,17000,-620,904,17035.30,27.59,-1.00,-1.0,2355
1170,1831170,17012,-652,948,17050.86,27.59,-1.00,-1.0,2442
1172,1831172,17056,-520,840,17084.59,27.59,-1.00,-1.0,2368
1175,1831175,17092,-536,948,17126.66,27.64,-1.00,-1.0,2422
1178,1831178,16968,-564,944,17003.60,27.68,-1.00,-1.0,2369
1181,1831181,16968,-624,828,16999.65,27.64,-1.00,-1.0,2422
1183,1831183,17148,-592,888,17181.18,27.59,-1.00,-1.0,2370
1186,1831186,17084,-556,988,17121.57,27.54,-1.00,-1.0,2422
1189,1831189,17024,-548,920,17057.65,27.59,-1.00,-1.0,2369
1192,1831192,17036,-612,820,17066.70,27.68,-1.00,-1.0,2355
1197,1831197,17004,-596,932,17039.95,27.59,-1.00,-1.0,2442
1199,1831199,16996,-504,932,17028.99,27.59,-1.00,-1.0,2371
1202,1831202,16984,-492,1016,17021.47,27.59,-1.00,-1.0,2422
1205,1831205,16940,-576,1056,16982.65,27.59,-1.00,-1.0,2373
1208,1831208,17000,-656,948,17039.04,27.68,-1.00,-1.0,2422
1211,1831211,17008,-584,868,17040.14,27.59,-1.00,-1.0,2371
1213,1831213,17104,-572,928,17138.71,27.64,-1.00,-1.0,2422
1216,1831216,17048,-508,1020,17086.04,27.68,-1.00,-1.0,2372
1221,1831221,17052,-592,940,17088.15,27.59,-1.00,-1.0,2446
1224,1831224,16972,-560,816,17000.83,27.68,-1.00,-1.0,2376
1227,1831227,17052,-624,832,17083.69,27.59,-1.00,-1.0,2424
1229,1831229,17076,-484,916,17107.40,27.68,-1.00,-1.0,2372
1232,1831232,17060,-608,992,17099.63,27.64,-1.00,-1.0,2378
1235,1831235,17100,-576,924,17134.63,27.64,-1.00,-1.0,2422
1237,1831237,16996,-552,1024,17035.77,27.64,-1.00,-1.0,2369
1240,1831240,16996,-572,1012,17035.71,27.54,-1.00,-1.0,2423
1243,1831243,16976,-572,896,17009.25,27.64,-1.00,-1.0,2376
1248,1831248,17056,-476,884,17085.53,27.64,-1.00,-1.0,2442
1251,1831251,17004,-580,864,17035.81,27.59,-1.00,-1.0,2369
1253,1831253,16924,-560,896,16956.95,27.64,-1.00,-1.0,2422
1256,1831256,16972,-576,788,17000.04,27.64,-1.00,-1.0,2369
1259,1831259,17012,-504,916,17044.10,27.54,-1.00,-1.0,2429
1262,1831262,17068,-544,920,17101.43,27.64,-1.00,-1.0,2372
1264,1831264,17004,-600,884,17037.53,27.64,-1.00,-1.0,2424
1267,1831267,17068,-620,868,17101.30,27.64,-1.00,-1.0,2369
1270,1831270,16996,-612,884,17029.97,27.59,-1.00,-1.0,2375
1275,1831275,17000,-588,888,17033.33,27.59,-1.00,-1.0,2444
1277,1831277,16964,-640,996,17005.26,27.68,-1.00,-1.0,2355
1280,1831280,16920,-572,888,16952.94,27.64,-1.00,-1.0,2422
1283,1831283,17036,-524,1016,17074.31,27.59,-1.00,-1.0,2369
1286,1831286,16996,-584,960,17033.11,27.54,-1.00,-1.0,2422
1288,1831288,16964,-484,1036,17002.50,27.68,-1.00,-1.0,2372
1291,1831291,17044,-636,920,17080.66,27.64,-1.00,-1.0,2422
1294,1831294,17004,-544,832,17033.03,27.59,-1.00,-1.0,2369
1298,1831298,16996,-528,1008,17034.05,27.49,-1.00,-1.0,2442
1301,1831301,16992,-568,864,17023.43,27.59,-1.00,-1.0,2368
1304,1831304,16928,-592,980,16966.67,27.59,-1.00,-1.0,2430
1307,1831307,17032,-600,952,17069.13,27.59,-1.00,-1.0,2369
1309,1831309,17028,-596,1036,17069.89,27.64,-1.00,-1.0,2369
1312,1831312,17080,-560,1036,17120.55,27.54,-1.00,-1.0,2422
1315,1831315,16924,-668,888,16960.44,27.54,-1.00,-1.0,2369
1318,1831318,17088,-528,988,17124.68,27.54,-1.00,-1.0,2423
1321,1831321,17060,-644,900,17095.86,27.64,-1.00,-1.0,2370
1326,1831326,17012,-632,896,17047.30,27.59,-1.00,-1.0,2450
1328,1831328,17036,-584,928,17071.25,27.68,-1.00,-1.0,2382
1331,1831331,17036,-604,880,17069.40,27.64,-1.00,-1.0,2423
1334,1831334,16988,-468,928,17019.76,27.64,-1.00,-1.0,2372
1337,1831337,16968,-516,1080,17010.16,27.82,-1.00,-1.0,2422
1339,1831339,17004,-584,848,17035.14,27.64,-1.00,-1.0,2377
1342,1831342,17036,-532,1024,17075.04,27.64,-1.00,-1.0,2422
1345,1831345,17052,-456,936,17083.76,27.54,-1.00,-1.0,2358
1348,1831348,17020,-624,860,17053.13,27.54,-1.00,-1.0,2368
1353,1831353,16976,-604,896,17010.36,27.54,-1.00,-1.0,2448
1355,1831355,17080,-552,1016,17119.09,27.64,-1.00,-1.0,2377
1358,1831358,17020,-588,888,17053.29,27.64,-1.00,-1.0,2422
1361,1831361,17052,-492,996,17088.15,27.64,-1.00,-1.0,2357
1364,1831364,16908,-580,948,16944.48,27.64,-1.00,-1.0,2422
1366,1831366,17096,-576,912,17130.00,27.64,-1.00,-1.0,2377
1369,1831369,17068,-468,888,17097.49,27.64,-1.00,-1.0,2422
1372,1831372,17052,-608,992,17091.65,27.64,-1.00,-1.0,2357
1377,1831377,17060,-636,764,17088.94,27.64,-1.00,-1.0,2448
1380,1831380,17028,-580,996,17066.96,27.59,-1.00,-1.0,2369
1382,1831382,17008,-528,1056,17048.93,27.64,-1.00,-1.0,2431
1385,1831385,16992,-504,916,17024.13,27.64,-1.00,-1.0,2385
1388,1831388,17012,-644,884,17047.12,27.73,-1.00,-1.0,2422
1391,1831391,17048,-568,908,17081.61,27.54,-1.00,-1.0,2374
1393,1831393,16976,-600,852,17007.95,27.49,-1.00,-1.0,2368
1396,1831396,17056,-528,948,17090.48,27.59,-1.00,-1.0,2422
1399,1831399,17004,-508,956,17038.43,27.64,-1.00,-1.0,2369
1404,1831404,17004,-520,1004,17041.55,27.64,-1.00,-1.0,2442
1406,1831406,16972,-612,928,17008.37,27.64,-1.00,-1.0,2371
1409,1831409,17024,-616,952,17061.72,27.59,-1.00,-1.0,2423
1412,1831412,17056,-620,1064,17100.40,27.64,-1.00,-1.0,2370
1415,1831415,17044,-548,916,17077.39,27.54,-1.00,-1.0,2422
1417,1831417,17084,-612,852,17116.18,27.54,-1.00,-1.0,2356
1420,1831420,16988,-504,1132,17033.13,27.59,-1.00,-1.0,2422
1423,1831423,17012,-568,940,17047.42,27.54,-1.00,-1.0,2373
1428,1831428,17016,-472,996,17051.66,27.54,-1.00,-1.0,2447
1431,1831431,17076,-580,916,17110.38,27.64,-1.00,-1.0,2374
1433,1831433,17056,-588,752,17082.69,27.49,-1.00,-1.0,2353
1436,1831436,17008,-592,1016,17048.60,27.59,-1.00,-1.0,2423
1439,1831439,17120,-424,924,17150.16,27.59,-1.00,-1.0,2368
1442,1831442,17068,-604,856,17100.12,27.64,-1.00,-1.0,2422
1444,1831444,17080,-488,880,17109.62,27.59,-1.00,-1.0,2357
1447,1831447,17132,-692,856,17167.32,27.68,-1.00,-1.0,2422
1450,1831450,17068,-584,976,17105.85,27.59,-1.00,-1.0,2376
1455,1831455,17016,-612,896,17050.56,27.68,-1.00,-1.0,2449
1458,1831458,17000,-512,1000,17037.08,27.59,-1.00,-1.0,2369
1460,1831460,17060,-468,1008,17096.16,27.64,-1.00,-1.0,2425
1463,1831463,17044,-604,888,17077.80,27.68,-1.00,-1.0,2369
1466,1831466,16980,-516,952,17014.49,27.64,-1.00,-1.0,2411
1469,1831469,16988,-680,868,17023.75,27.59,-1.00,-1.0,2369
1471,1831471,16948,-556,836,16977.71,27.64,-1.00,-1.0,2373
1474,1831474,17012,-592,832,17042.62,27.59,-1.00,-1.0,2412
1477,1831477,17044,-548,964,17080.03,27.64,-1.00,-1.0,2364
1482,1831482,16984,-672,912,17021.74,27.64,-1.00,-1.0,2452
1484,1831484,16988,-576,980,17025.99,27.64,-1.00,-1.0,2378
1487,1831487,16992,-504,908,17023.71,27.59,-1.00,-1.0,2422
1490,1831490,17036,-600,1004,17076.10,27.59,-1.00,-1.0,2373
1493,1831493,16932,-652,940,16970.60,27.68,-1.00,-1.0,2423
1495,1831495,16944,-608,1036,16986.53,27.59,-1.00,-1.0,2377
1498,1831498,17096,-620,884,17130.06,27.68,-1.00,-1.0,2422
1501,1831501,16996,-544,800,17023.51,27.59,-1.00,-1.0,2370
1506,1831506,16928,-532,812,16955.81,27.64,-1.00,-1.0,2443
1508,1831508,16980,-604,1040,17022.54,27.64,-1.00,-1.0,2368
1511,1831511,16976,-728,976,17019.61,27.59,-1.00,-1.0,2368
1514,1831514,17028,-576,1008,17067.53,27.68,-1.00,-1.0,2422
1516,1831516,16972,-484,904,17002.95,27.59,-1.00,-1.0,2376
1519,1831519,17112,-492,1028,17149.91,27.59,-1.00,-1.0,2423
1522,1831522,17088,-600,832,17118.76,27.68,-1.00,-1.0,2372
1525,1831525,17044,-564,964,17080.55,27.59,-1.00,-1.0,2423
1528,1831528,16940,-536,1028,16979.62,27.68,-1.00,-1.0,2371
1533,1831533,16996,-620,1036,17038.83,27.59,-1.00,-1.0,2461
1536,1831536,17004,-556,876,17035.62,27.68,-1.00,-1.0,2365
1539,1831539,17140,-552,924,17173.76,27.54,-1.00,-1.0,2445
1541,1831541,17104,-636,824,17135.64,27.64,-1.00,-1.0,2369
1544,1831544,17044,-548,956,17079.58,27.59,-1.00,-1.0,2438
1547,1831547,17020,-656,972,17060.35,27.54,-1.00,-1.0,2377
1549,1831549,17012,-588,1140,17060.29,27.59,-1.00,-1.0,2366
1552,1831552,17100,-664,952,17139.35,27.54,-1.00,-1.0,2422
1555,1831555,17116,-532,928,17149.39,27.59,-1.00,-1.0,2370
1560,1831560,17044,-504,968,17078.90,27.59,-1.00,-1.0,2436
1563,1831563,17028,-600,968,17066.04,27.49,-1.00,-1.0,2376
1566,1831566,17080,-540,848,17109.56,27.64,-1.00,-1.0,2432
1568,1831568,16956,-588,1000,16995.64,27.68,-1.00,-1.0,2371
1571,1831571,17096,-556,724,17120.35,27.45,-1.00,-1.0,2422
1574,1831574,17000,-588,980,17038.37,27.59,-1.00,-1.0,2368
1577,1831577,17080,-492,968,17114.48,27.64,-1.00,-1.0,2422
1579,1831579,17044,-560,920,17078.00,27.59,-1.00,-1.0,2373
1584,1831584,17112,-488,912,17143.23,27.49,-1.00,-1.0,2442
1587,1831587,17060,-596,876,17092.87,27.59,-1.00,-1.0,2355
1590,1831590,16956,-628,968,16995.21,27.64,-1.00,-1.0,2439
1592,1831592,16948,-536,956,16983.40,27.68,-1.00,-1.0,2374
1595,1831595,16984,-624,928,17020.78,27.64,-1.00,-1.0,2365
1598,1831598,16960,-516,876,16990.45,27.68,-1.00,-1.0,2424
1601,1831601,17024,-484,1072,17064.58,27.64,-1.00,-1.0,2367
1603,1831603,16976,-544,1020,17015.31,27.59,-1.00,-1.0,2422
1606,1831606,17020,-632,816,17051.27,27.54,-1.00,-1.0,2369
1611,1831611,17072,-532,904,17104.19,27.54,-1.00,-1.0,2433
1614,1831614,16972,-496,972,17007.04,27.64,-1.00,-1.0,2369
1617,1831617,17012,-636,912,17048.29,27.54,-1.00,-1.0,2429
1619,1831619,17104,-624,788,17133.51,27.64,-1.00,-1.0,2375
1622,1831622,17096,-572,1016,17135.71,27.64,-1.00,-1.0,2421
1625,1831625,17060,-636,880,17094.52,27.64,-1.00,-1.0,2372
1628,1831628,17036,-620,1092,17082.22,27.64,-1.00,-1.0,2421
1630,1831630,17136,-616,996,17175.97,27.54,-1.00,-1.0,2371
1633,1831633,16912,-560,960,16948.48,27.59,-1.00,-1.0,2366
1638,1831638,17080,-600,924,17115.50,27.64,-1.00,-1.0,2433
1641,1831641,17000,-572,940,17035.57,27.64,-1.00,-1.0,2372
1644,1831644,17044,-636,968,17083.31,27.64,-1.00,-1.0,2415
1646,1831646,17148,-668,904,17184.80,27.64,-1.00,-1.0,2369
1649,1831649,17088,-624,904,17123.27,27.68,-1.00,-1.0,2421
1652,1831652,17028,-644,896,17063.71,27.64,-1.00,-1.0,2368
1655,1831655,17040,-588,972,17077.83,27.64,-1.00,-1.0,2408
1657,1831657,16988,-616,988,17027.85,27.64,-1.00,-1.0,2369
1662,1831662,17064,-524,920,17096.81,27.54,-1.00,-1.0,2442
1665,1831665,17060,-644,968,17099.57,27.64,-1.00,-1.0,2368
1668,1831668,17052,-612,1016,17093.20,27.64,-1.00,-1.0,2429
1670,1831670,17044,-540,1052,17084.97,27.64,-1.00,-1.0,2371
1673,1831673,16940,-628,976,16979.71,27.68,-1.00,-1.0,2365
1676,1831676,16992,-448,1024,17028.72,27.59,-1.00,-1.0,2429
1679,1831679,17032,-528,864,17062.07,27.59,-1.00,-1.0,2367
1681,1831681,16956,-604,884,16989.77,27.64,-1.00,-1.0,2427
1684,1831684,17080,-584,952,17116.48,27.59,-1.00,-1.0,2369
1689,1831689,17020,-500,1024,17058.11,27.64,-1.00,-1.0,2449
1692,1831692,17024,-548,816,17052.35,27.64,-1.00,-1.0,2373
1695,1831695,17008,-600,932,17044.08,27.64,-1.00,-1.0,2434
1697,1831697,17056,-568,912,17089.81,27.64,-1.00,-1.0,2372
1700,1831700,17104,-496,1032,17142.28,27.59,-1.00,-1.0,2422
1703,1831703,17056,-600,936,17092.20,27.64,-1.00,-1.0,2369
1706,1831706,17092,-552,940,17126.73,27.64,-1.00,-1.0,2422
1708,1831708,17048,-588,1048,17090.30,27.64,-1.00,-1.0,2371
1711,1831711,17104,-452,924,17134.90,27.68,-1.00,-1.0,2367
1716,1831716,17044,-496,908,17075.38,27.59,-1.00,-1.0,2442
1719,1831719,16956,-532,936,16990.15,27.54,-1.00,-1.0,2421
1722,1831722,17088,-528,940,17121.98,27.64,-1.00,-1.0,2423
1724,1831724,17008,-520,876,17038.48,27.49,-1.00,-1.0,2373
1727,1831727,17036,-500,1028,17074.31,27.49,-1.00,-1.0,2416
1730,1831730,17044,-580,1020,17084.34,27.68,-1.00,-1.0,2373
1733,1831733,17052,-484,1084,17093.27,27.59,-1.00,-1.0,2416
1735,1831735,16948,-540,1060,16989.70,27.59,-1.00,-1.0,2374
1740,1831740,17012,-636,964,17051.16,27.73,-1.00,-1.0,2424
1743,1831743,16904,-520,956,16938.99,27.54,-1.00,-1.0,2380
1746,1831746,16988,-488,948,17021.43,27.59,-1.00,-1.0,2428
1748,1831748,16992,-536,992,17029.37,27.64,-1.00,-1.0,2374
1751,1831751,16988,-548,948,17023.25,27.68,-1.00,-1.0,2421
1754,1831754,17040,-564,752,17065.91,27.59,-1.00,-1.0,2359
1757,1831757,16888,-584,928,16923.56,27.59,-1.00,-1.0,2366
1759,1831759,17036,-568,876,17067.96,27.54,-1.00,-1.0,2423
1762,1831762,17032,-576,960,17068.76,27.54,-1.00,-1.0,2376
1767,1831767,17064,-628,928,17100.75,27.54,-1.00,-1.0,2430
1770,1831770,16944,-556,900,16976.99,27.64,-1.00,-1.0,2380
1773,1831773,17192,-524,960,17226.75,27.64,-1.00,-1.0,2428
1775,1831775,16980,-624,948,17017.89,27.64,-1.00,-1.0,2369
1778,1831778,16980,-552,1016,17019.32,27.64,-1.00,-1.0,2437
1781,1831781,17008,-540,968,17044.08,27.64,-1.00,-1.0,2379
1784,1831784,17052,-632,1012,17093.69,27.59,-1.00,-1.0,2432
1786,1831786,17120,-484,796,17145.33,27.54,-1.00,-1.0,2373
1791,1831791,17004,-580,952,17040.50,27.54,-1.00,-1.0,2431
1794,1831794,16976,-548,876,17007.42,27.64,-1.00,-1.0,2372
1797,1831797,16988,-580,920,17022.78,27.59,-1.00,-1.0,2370
1800,1831800,17120,-612,868,17152.91,27.59,-1.00,-1.0,2431
1802,1831802,17028,-576,864,17059.63,27.59,-1.00,-1.0,2372
1805,1831805,16936,-496,872,16965.69,27.59,-1.00,-1.0,2421
1808,1831808,16920,-644,948,16958.77,27.59,-1.00,-1.0,2368
1811,1831811,17092,-572,968,17128.94,27.59,-1.00,-1.0,2421
1813,1831813,17084,-608,1032,17125.94,27.59,-1.00,-1.0,2369
1818,1831818,16980,-556,896,17012.71,27.68,-1.00,-1.0,2444
1821,1831821,17028,-664,976,17068.87,27.59,-1.00,-1.0,2379
1824,1831824,17040,-556,1044,17081.00,27.59,-1.00,-1.0,2435
1826,1831826,17004,-616,1108,17051.19,27.59,-1.00,-1.0,2375
1829,1831829,17044,-472,848,17071.61,27.64,-1.00,-1.0,2421
1832,1831832,16984,-624,964,17022.78,27.68,-1.00,-1.0,2369
1835,1831835,17020,-572,1052,17062.07,27.54,-1.00,-1.0,2367
1837,1831837,16972,-600,1008,17012.49,27.64,-1.00,-1.0,2423
1840,1831840,17052,-604,844,17083.55,27.59,-1.00,-1.0,2370
1845,1831845,17064,-624,1016,17105.61,27.59,-1.00,-1.0,2426
1848,1831848,17056,-616,896,17090.62,27.59,-1.00,-1.0,2380
1851,1831851,17004,-556,848,17034.21,27.54,-1.00,-1.0,2430
1853,1831853,17072,-552,852,17102.16,27.59,-1.00,-1.0,2375
1856,1831856,17028,-580,916,17062.48,27.64,-1.00,-1.0,2421
1859,1831859,17064,-580,884,17096.72,27.59,-1.00,-1.0,2369
1862,1831862,17064,-648,976,17104.17,27.73,-1.00,-1.0,2422
1864,1831864,17044,-628,892,17078.88,27.59,-1.00,-1.0,2376
1870,1831870,17116,-484,996,17151.79,27.64,-1.00,-1.0,2462
1872,1831872,17052,-600,956,17089.31,27.64,-1.00,-1.0,2365
1875,1831875,17044,-568,944,17079.57,27.59,-1.00,-1.0,2369
1878,1831878,17080,-576,924,17114.67,27.54,-1.00,-1.0,2431
1880,1831880,16920,-560,848,16950.49,27.59,-1.00,-1.0,2378
1883,1831883,17184,-544,844,17213.31,27.64,-1.00,-1.0,2423
1886,1831886,17020,-480,1020,17057.29,27.59,-1.00,-1.0,2370
1889,1831889,17068,-576,896,17101.21,27.64,-1.00,-1.0,2423
1891,1831891,17064,-544,1064,17105.79,27.64,-1.00,-1.0,2376
1896,1831896,17156,-528,1012,17193.93,27.54,-1.00,-1.0,2430
1899,1831899,17000,-504,1064,17040.72,27.64,-1.00,-1.0,2369
1902,1831902,17092,-604,1016,17132.82,27.64,-1.00,-1.0,2430
1905,1831905,16996,-496,824,17023.19,27.64,-1.00,-1.0,2368
1907,1831907,17044,-632,792,17074.09,27.64,-1.00,-1.0,2424
1910,1831910,17032,-532,972,17068.01,27.73,-1.00,-1.0,2370
1913,1831913,17100,-424,996,17134.23,27.59,-1.00,-1.0,2367
1915,1831915,17016,-576,1016,17056.03,27.54,-1.00,-1.0,2432
1918,1831918,17068,-560,944,17103.26,27.54,-1.00,-1.0,2370
1923,1831923,16960,-660,824,16992.83,27.54,-1.00,-1.0,2445
1926,1831926,17120,-480,852,17147.91,27.64,-1.00,-1.0,2367
1929,1831929,17032,-504,828,17059.56,27.54,-1.00,-1.0,2424
1931,1831931,17036,-584,856,17067.49,27.64,-1.00,-1.0,2372
1934,1831934,16948,-484,960,16982.07,27.54,-1.00,-1.0,2422
1937,1831937,16936,-568,944,16971.79,27.64,-1.00,-1.0,2370
1940,1831940,17020,-544,996,17057.79,27.64,-1.00,-1.0,2422
1942,1831942,17000,-556,956,17035.94,27.64,-1.00,-1.0,2370
1947,1831947,17064,-612,892,17098.25,27.64,-1.00,-1.0,2443
1950,1831950,17072,-580,988,17110.40,27.73,-1.00,-1.0,2368
1953,1831953,17000,-556,892,17032.46,27.68,-1.00,-1.0,2371
1955,1831955,17032,-552,904,17064.90,27.64,-1.00,-1.0,2430
1958,1831958,17052,-544,868,17082.74,27.64,-1.00,-1.0,2383
1961,1831961,17060,-588,1064,17103.26,27.54,-1.00,-1.0,2425
1964,1831964,17052,-496,956,17085.98,27.64,-1.00,-1.0,2377
1967,1831967,16960,-536,1000,16997.91,27.64,-1.00,-1.0,2424
1969,1831969,17048,-596,828,17078.50,27.59,-1.00,-1.0,2371
1974,1831974,17076,-668,932,17114.46,27.68,-1.00,-1.0,2444
1977,1831977,17020,-576,900,17053.51,27.59,-1.00,-1.0,2372
1980,1831980,16996,-556,892,17028.47,27.64,-1.00,-1.0,2430
1983,1831983,16980,-588,936,17015.94,27.59,-1.00,-1.0,2368
1985,1831985,17052,-536,896,17083.93,27.64,-1.00,-1.0,2429
1988,1831988,16920,-572,928,16955.08,27.59,-1.00,-1.0,2370
1991,1831991,17084,-484,904,17114.75,27.54,-1.00,-1.0,2429
1994,1831994,17092,-572,840,17122.19,27.59,-1.00,-1.0,2369
1996,1831996,17012,-620,916,17047.92,27.54,-1.00,-1.0,2370
2001,1832001,17088,-668,952,17127.53,27.64,-1.00,-1.0,2445
2004,1832004,17052,-548,928,17086.02,27.59,-1.00,-1.0,2369
2007,1832007,17032,-652,964,17071.71,27.64,-1.00,-1.0,2429
2010,1832010,16984,-672,980,17025.52,27.64,-1.00,-1.0,2369
2012,1832012,16972,-552,1032,17012.30,27.64,-1.00,-1.0,2436
2015,1832015,16988,-532,888,17019.51,27.73,-1.00,-1.0,2378
2018,1832018,17052,-504,1040,17091.12,27.64,-1.00,-1.0,2429
2021,1832021,17008,-592,968,17045.81,27.64,-1.00,-1.0,2369
2026,1832026,16988,-592,916,17022.97,27.59,-1.00,-1.0,2449
2029,1832029,17020,-584,912,17054.42,27.49,-1.00,-1.0,2368
2031,1832031,17036,-556,940,17070.97,27.64,-1.00,-1.0,2422
2034,1832034,17012,-600,884,17045.52,27.68,-1.00,-1.0,2369
2037,1832037,17080,-660,760,17109.63,27.54,-1.00,-1.0,2369
2039,1832039,17036,-608,1024,17077.57,27.68,-1.00,-1.0,2430
2042,1832042,16984,-588,816,17013.76,27.64,-1.00,-1.0,2384
2045,1832045,17048,-632,980,17087.84,27.59,-1.00,-1.0,2423
2048,1832048,16992,-596,868,17024.59,27.64,-1.00,-1.0,2379
2053,1832053,17012,-616,1088,17057.88,27.64,-1.00,-1.0,2443
2055,1832055,17052,-548,900,17084.53,27.54,-1.00,-1.0,2373
2058,1832058,17052,-532,880,17082.98,27.64,-1.00,-1.0,2431
2061,1832061,16944,-524,1000,16981.57,27.64,-1.00,-1.0,2377
2064,1832064,16948,-596,912,16982.98,27.59,-1.00,-1.0,2435
2066,1832066,17064,-608,844,17095.67,27.64,-1.00,-1.0,2377
2069,1832069,16992,-532,972,17028.09,27.59,-1.00,-1.0,2422
2072,1832072,17020,-556,952,17055.67,27.64,-1.00,-1.0,2357
2075,1832075,17044,-608,908,17078.99,27.68,-1.00,-1.0,2368
2080,1832080,16968,-580,1052,17010.47,27.49,-1.00,-1.0,2449
2082,1832082,16992,-584,836,17022.57,27.64,-1.00,-1.0,2356
2085,1832085,17008,-636,784,17037.94,27.68,-1.00,-1.0,2422
2088,1832088,17024,-496,844,17052.12,27.59,-1.00,-1.0,2368
2091,1832091,17080,-516,876,17110.23,27.59,-1.00,-1.0,2422
2093,1832093,17088,-524,992,17124.79,27.64,-1.00,-1.0,2357
2096,1832096,17044,-588,896,17077.66,27.59,-1.00,-1.0,2422
2099,1832099,16980,-536,1008,17018.34,27.68,-1.00,-1.0,2367
2104,1832104,17068,-568,936,17103.08,27.59,-1.00,-1.0,2444
2106,1832106,17104,-564,928,17138.44,27.68,-1.00,-1.0,2368
2109,1832109,16996,-580,916,17030.54,27.64,-1.00,-1.0,2422
2112,1832112,16980,-524,880,17010.86,27.59,-1.00,-1.0,2368
2114,1832114,17104,-552,944,17138.92,27.54,-1.00,-1.0,2369
2117,1832117,17036,-644,760,17065.10,27.54,-1.00,-1.0,2430
2120,1832120,17088,-544,992,17125.41,27.64,-1.00,-1.0,2380
2123,1832123,17052,-556,904,17084.99,27.59,-1.00,-1.0,2431
2126,1832126,17000,-532,1032,17039.60,27.64,-1.00,-1.0,2370
2130,1832130,17044,-604,840,17075.37,27.68,-1.00,-1.0,2457
2133,1832133,16992,-648,980,17032.57,27.59,-1.00,-1.0,2376
2136,1832136,17116,-596,1036,17157.68,27.59,-1.00,-1.0,2430
2138,1832138,17052,-488,908,17083.13,27.59,-1.00,-1.0,2378
2141,1832141,17136,-616,880,17169.63,27.54,-1.00,-1.0,2422
2144,1832144,16996,-552,936,17030.70,27.59,-1.00,-1.0,2370
2147,1832147,17004,-612,824,17034.95,27.54,-1.00,-1.0,2422
2150,1832150,16996,-472,828,17022.70,27.54,-1.00,-1.0,2369
2153,1832153,17012,-564,916,17045.98,27.64,-1.00,-1.0,2366
2158,1832158,16960,-608,948,16997.35,27.54,-1.00,-1.0,2445
2160,1832160,16976,-520,1024,17014.80,27.54,-1.00,-1.0,2370
2163,1832163,17004,-624,1028,17046.47,27.64,-1.00,-1.0,2409
2166,1832166,17068,-584,924,17102.97,27.49,-1.00,-1.0,2371
2169,1832169,17032,-604,964,17069.95,27.64,-1.00,-1.0,2422
2171,1832171,17116,-628,1056,17160.04,27.73,-1.00,-1.0,2370
2174,1832174,17064,-592,988,17102.83,27.54,-1.00,-1.0,2410
2177,1832177,17020,-556,920,17053.91,27.64,-1.00,-1.0,2369
2183,1832183,17084,-448,1044,17121.73,27.68,-1.00,-1.0,2446
2186,1832186,17052,-524,732,17075.75,27.64,-1.00,-1.0,2369
2189,1832189,17100,-596,940,17136.18,27.59,-1.00,-1.0,2430
2192,1832192,17012,-584,976,17049.98,27.68,-1.00,-1.0,2368
2194,1832194,16992,-492,812,17018.50,27.64,-1.00,-1.0,2366
2197,1832197,17012,-468,872,17040.76,27.64,-1.00,-1.0,2422
2200,1832200,17088,-600,972,17126.14,27.64,-1.00,-1.0,2368
2203,1832203,17024,-684,844,17058.63,27.64,-1.00,-1.0,2422
2205,1832205,17024,-628,744,17051.82,27.54,-1.00,-1.0,2369
2210,1832210,17072,-580,912,17106.18,27.54,-1.00,-1.0,2437
2213,1832213,16992,-604,832,17023.08,27.59,-1.00,-1.0,2371
2216,1832216,17060,-544,984,17097.01,27.73,-1.00,-1.0,2431
2218,1832218,17112,-552,940,17146.69,27.64,-1.00,-1.0,2379
2221,1832221,16976,-584,920,17010.94,27.54,-1.00,-1.0,2422
2224,1832224,16984,-576,872,17016.12,27.54,-1.00,-1.0,2370
2227,1832227,17028,-532,1000,17065.63,27.54,-1.00,-1.0,2423
2229,1832229,16968,-524,992,17005.05,27.73,-1.00,-1.0,2376
2232,1832232,17048,-600,964,17085.77,27.73,-1.00,-1.0,2366
2237,1832237,16972,-488,1000,17008.44,27.54,-1.00,-1.0,2443
2240,1832240,17080,-632,868,17113.71,27.64,-1.00,-1.0,2368
2243,1832243,17048,-596,808,17077.54,27.59,-1.00,-1.0,2422
2245,1832245,16988,-448,940,17019.88,27.64,-1.00,-1.0,2369
2248,1832248,17104,-720,872,17141.34,27.59,-1.00,-1.0,2422
2251,1832251,16940,-540,848,16969.80,27.54,-1.00,-1.0,2370
2254,1832254,17012,-572,880,17044.35,27.59,-1.00,-1.0,2422
2256,1832256,17124,-592,920,17158.91,27.59,-1.00,-1.0,2369
2261,1832261,17008,-608,992,17047.75,27.64,-1.00,-1.0,2442
2264,1832264,17036,-584,1028,17076.98,27.64,-1.00,-1.0,2371
2267,1832267,17060,-592,880,17092.94,27.59,-1.00,-1.0,2422
2269,1832269,17092,-472,932,17123.90,27.73,-1.00,-1.0,2371
2272,1832272,16984,-672,964,17024.60,27.59,-1.00,-1.0,2371
2275,1832275,17052,-620,808,17082.39,27.54,-1.00,-1.0,2429
2278,1832278,16964,-576,900,16997.62,27.59,-1.00,-1.0,2369
2280,1832280,17036,-576,1000,17075.04,27.54,-1.00,-1.0,2437
2283,1832283,16964,-528,1008,17002.12,27.64,-1.00,-1.0,2377
2288,1832288,17072,-484,1076,17112.72,27.68,-1.00,-1.0,2442
2291,1832291,17048,-592,1044,17090.19,27.59,-1.00,-1.0,2377
2294,1832294,16984,-524,1036,17023.63,27.64,-1.00,-1.0,2422
2296,1832296,16956,-524,908,16988.38,27.59,-1.00,-1.0,2370
2299,1832299,16992,-492,820,17018.89,27.64,-1.00,-1.0,2437
2302,1832302,17048,-612,992,17087.80,27.73,-1.00,-1.0,2379
2305,1832305,17048,-512,932,17081.13,27.54,-1.00,-1.0,2437
2307,1832307,16988,-532,804,17015.33,27.64,-1.00,-1.0,2372
2312,1832312,16960,-656,1020,17003.30,27.68,-1.00,-1.0,2450
2315,1832315,17052,-636,968,17091.29,27.64,-1.00,-1.0,2368
2318,1832318,17080,-540,900,17112.22,27.59,-1.00,-1.0,2366
2320,1832320,17040,-532,1040,17079.99,27.54,-1.00,-1.0,2424
2323,1832323,17016,-556,928,17050.35,27.59,-1.00,-1.0,2374
2326,1832326,17152,-584,940,17187.66,27.64,-1.00,-1.0,2433
2329,1832329,17012,-544,812,17040.05,27.59,-1.00,-1.0,2369
2331,1832331,17052,-644,928,17089.37,27.64,-1.00,-1.0,2423
2334,1832334,17028,-544,908,17060.87,27.64,-1.00,-1.0,2370
2339,1832339,17000,-520,960,17035.02,27.68,-1.00,-1.0,2444
2341,1832341,17088,-640,856,17121.39,27.59,-1.00,-1.0,2375
2344,1832344,17064,-592,940,17100.12,27.59,-1.00,-1.0,2422
2347,1832347,16980,-588,904,17014.21,27.54,-1.00,-1.0,2373
2350,1832350,17080,-564,1012,17119.25,27.59,-1.00,-1.0,2422
2352,1832352,17068,-628,932,17104.96,27.59,-1.00,-1.0,2358
2355,1832355,17052,-584,944,17088.09,27.54,-1.00,-1.0,2366
2358,1832358,17068,-608,800,17097.55,27.54,-1.00,-1.0,2429
2361,1832361,17008,-568,772,17034.98,27.64,-1.00,-1.0,2368
2366,1832366,17012,-604,976,17050.68,27.64,-1.00,-1.0,2442
2368,1832368,17008,-592,880,17041.04,27.59,-1.00,-1.0,2368
2371,1832371,17020,-640,972,17059.74,27.54,-1.00,-1.0,2423
2374,1832374,17036,-616,992,17075.97,27.64,-1.00,-1.0,2368
2377,1832377,17120,-512,1024,17158.24,27.64,-1.00,-1.0,2424
2379,1832379,17092,-548,1020,17131.18,27.64,-1.00,-1.0,2369
2382,1832382,16992,-564,1032,17032.65,27.64,-1.00,-1.0,2422
2385,1832385,17020,-600,876,17053.09,27.54,-1.00,-1.0,2370
2390,1832390,17040,-568,968,17076.92,27.54,-1.00,-1.0,2442
2393,1832393,16972,-564,980,17009.62,27.49,-1.00,-1.0,2368
2395,1832395,17004,-544,900,17036.49,27.64,-1.00,-1.0,2366
2398,1832398,17104,-656,880,17139.18,27.64,-1.00,-1.0,2430
2401,1832401,17052,-552,932,17086.37,27.64,-1.00,-1.0,2369
2403,1832403,16984,-604,1044,17026.77,27.68,-1.00,-1.0,2432
2406,1832406,16992,-524,944,17026.27,27.68,-1.00,-1.0,2378
2409,1832409,17040,-632,964,17078.94,27.59,-1.00,-1.0,2412
2412,1832412,17064,-548,928,17098.00,27.68,-1.00,-1.0,2371
2417,1832417,16988,-536,1092,17031.50,27.59,-1.00,-1.0,2442
2419,1832419,17052,-664,868,17086.98,27.64,-1.00,-1.0,2374
2422,1832422,17096,-520,920,17128.63,27.59,-1.00,-1.0,2436
2425,1832425,17032,-624,948,17069.77,27.54,-1.00,-1.0,2378
2428,1832428,16940,-656,832,16973.10,27.59,-1.00,-1.0,2436
2430,1832430,17028,-596,820,17058.15,27.49,-1.00,-1.0,2377
2433,1832433,17092,-552,856,17122.32,27.64,-1.00,-1.0,2366
2436,1832436,16976,-528,1024,17015.05,27.73,-1.00,-1.0,2429
2439,1832439,17080,-604,992,17119.44,27.54,-1.00,-1.0,2368
2444,1832444,16912,-512,800,16938.65,27.59,-1.00,-1.0,2446
2446,1832446,17032,-568,992,17070.32,27.59,-1.00,-1.0,2378
2449,1832449,17016,-536,1012,17054.49,27.54,-1.00,-1.0,2422
2452,1832452,17056,-668,1064,17102.21,27.68,-1.00,-1.0,2370
2455,1832455,16984,-540,1064,17025.86,27.54,-1.00,-1.0,2422
2457,1832457,17136,-568,932,17170.72,27.64,-1.00,-1.0,2376
2460,1832460,17096,-520,968,17131.28,27.64,-1.00,-1.0,2422
2463,1832463,17104,-536,912,17136.68,27.64,-1.00,-1.0,2373
2468,1832468,17060,-564,900,17093.03,27.59,-1.00,-1.0,2444
2471,1832471,17008,-560,912,17041.64,27.68,-1.00,-1.0,2375
2474,1832474,17004,-568,976,17041.46,27.64,-1.00,-1.0,2425
2476,1832476,16956,-564,928,16990.74,27.59,-1.00,-1.0,2377
2479,1832479,17072,-556,868,17103.09,27.54,-1.00,-1.0,2368
2482,1832482,16968,-544,956,17003.61,27.59,-1.00,-1.0,2422
2484,1832484,16972,-628,964,17010.95,27.54,-1.00,-1.0,2370
2487,1832487,17056,-580,864,17087.72,27.59,-1.00,-1.0,2422
2490,1832490,17072,-552,912,17105.25,27.64,-1.00,-1.0,2370
2495,1832495,17048,-532,900,17080.03,27.64,-1.00,-1.0,2442
2498,1832498,17008,-508,984,17044.01,27.64,-1.00,-1.0,2370
2500,1832500,17048,-556,968,17084.51,27.59,-1.00,-1.0,2426
2503,1832503,17092,-648,908,17128.36,27.54,-1.00,-1.0,2357
2506,1832506,17056,-584,864,17087.85,27.73,-1.00,-1.0,2430
2509,1832509,17028,-544,1096,17071.90,27.64,-1.00,-1.0,2368
2511,1832511,17052,-556,860,17082.72,27.59,-1.00,-1.0,2422
2514,1832514,17020,-612,912,17055.40,27.64,-1.00,-1.0,2370
2517,1832517,17020,-508,988,17056.22,27.68,-1.00,-1.0,2367
2522,1832522,17088,-600,1100,17133.88,27.64,-1.00,-1.0,2459
2525,1832525,16980,-500,960,17014.46,27.59,-1.00,-1.0,2376
2528,1832528,17112,-644,924,17149.03,27.73,-1.00,-1.0,2433
2530,1832530,17096,-456,936,17127.68,27.64,-1.00,-1.0,2376
2533,1832533,16944,-620,948,16981.82,27.64,-1.00,-1.0,2422
2536,1832536,17072,-496,976,17107.07,27.64,-1.00,-1.0,2372
2539,1832539,17064,-616,900,17098.82,27.64,-1.00,-1.0,2424
2541,1832541,17000,-472,952,17033.18,27.64,-1.00,-1.0,2377
2546,1832546,16924,-656,888,16959.97,27.64,-1.00,-1.0,2442
2549,1832549,17012,-592,968,17049.80,27.59,-1.00,-1.0,2380
2552,1832552,17128,-628,888,17162.50,27.64,-1.00,-1.0,2435
2554,1832554,17052,-472,916,17083.11,27.54,-1.00,-1.0,2385
2557,1832557,17052,-600,864,17084.41,27.59,-1.00,-1.0,2367
2560,1832560,17068,-524,896,17099.53,27.59,-1.00,-1.0,2430
2563,1832563,17012,-508,924,17044.65,27.59,-1.00,-1.0,2368
2565,1832565,16960,-484,864,16988.89,27.59,-1.00,-1.0,2422
2568,1832568,17084,-572,900,17117.25,27.49,-1.00,-1.0,2372
2573,1832573,16916,-564,1100,16961.11,27.54,-1.00,-1.0,2443
2576,1832576,17084,-556,896,17116.51,27.64,-1.00,-1.0,2368
2579,1832579,17096,-640,976,17135.79,27.68,-1.00,-1.0,2422
2581,1832581,16912,-584,1000,16951.60,27.73,-1.00,-1.0,2370
2584,1832584,16992,-524,976,17028.07,27.49,-1.00,-1.0,2422
2587,1832587,17108,-504,836,17135.83,27.64,-1.00,-1.0,2368
2590,1832590,16964,-516,916,16996.55,27.68,-1.00,-1.0,2422
2592,1832592,17004,-644,924,17041.26,27.59,-1.00,-1.0,2369
2595,1832595,17044,-676,1024,17088.11,27.68,-1.00,-1.0,2375
2600,1832600,17020,-592,904,17054.27,27.68,-1.00,-1.0,2449
2603,1832603,16932,-612,980,16971.38,27.68,-1.00,-1.0,2369
2605,1832605,17088,-692,844,17122.82,27.68,-1.00,-1.0,2470
2608,1832608,17088,-544,912,17120.96,27.64,-1.00,-1.0,2357
2611,1832611,17044,-680,812,17076.88,27.68,-1.00,-1.0,2421
2614,1832614,17024,-584,972,17061.72,27.59,-1.00,-1.0,2420
2617,1832617,17032,-648,984,17072.70,27.64,-1.00,-1.0,2443
2619,1832619,17040,-544,964,17075.91,27.59,-1.00,-1.0,2381
2624,1832624,16984,-620,832,17015.67,27.64,-1.00,-1.0,2437
2627,1832627,17028,-552,980,17065.11,27.64,-1.00,-1.0,2377
2630,1832630,16992,-532,1024,17031.14,27.59,-1.00,-1.0,2433
2633,1832633,17108,-524,948,17142.26,27.54,-1.00,-1.0,2371
2635,1832635,17008,-544,936,17042.42,27.59,-1.00,-1.0,2366
2638,1832638,17052,-580,860,17083.52,27.54,-1.00,-1.0,2422
2641,1832641,17108,-632,1020,17150.03,27.59,-1.00,-1.0,2371
2644,1832644,16968,-548,1040,17008.67,27.64,-1.00,-1.0,2409
2646,1832646,17056,-572,1004,17095.10,27.59,-1.00,-1.0,2369
2651,1832651,17092,-496,992,17127.95,27.59,-1.00,-1.0,2428
2654,1832654,17076,-532,904,17108.19,27.59,-1.00,-1.0,2372
2657,1832657,17108,-624,820,17139.00,27.59,-1.00,-1.0,2430
2659,1832659,17024,-596,904,17058.40,27.59,-1.00,-1.0,2371
2662,1832662,17004,-512,972,17039.45,27.59,-1.00,-1.0,2421
2665,1832665,17032,-556,924,17066.11,27.59,-1.00,-1.0,2372
2668,1832668,17052,-636,800,17082.60,27.59,-1.00,-1.0,2421
2670,1832670,16924,-668,932,16962.80,27.68,-1.00,-1.0,2358
2673,1832673,16992,-536,888,17023.63,27.64,-1.00,-1.0,2366
2678,1832678,17028,-648,868,17062.42,27.54,-1.00,-1.0,2427
2681,1832681,16996,-620,848,17028.43,27.59,-1.00,-1.0,2372
2684,1832684,17020,-484,888,17050.02,27.64,-1.00,-1.0,2430
2686,1832686,16984,-532,872,17014.69,27.54,-1.00,-1.0,2369
2689,1832689,16984,-552,924,17018.07,27.54,-1.00,-1.0,2422
2692,1832692,17060,-528,1068,17101.55,27.54,-1.00,-1.0,2368
2695,1832695,17056,-556,964,17092.27,27.54,-1.00,-1.0,2421
2697,1832697,17008,-584,1000,17047.38,27.64,-1.00,-1.0,2356
2702,1832702,17012,-652,896,17048.05,27.64,-1.00,-1.0,2427
2705,1832705,16980,-536,816,17008.04,27.59,-1.00,-1.0,2372
2708,1832708,17096,-588,920,17130.83,27.64,-1.00,-1.0,2430
2711,1832711,17032,-552,980,17069.10,27.59,-1.00,-1.0,2368
2713,1832713,17128,-472,924,17159.40,27.54,-1.00,-1.0,2370
2716,1832716,16912,-592,980,16950.71,27.68,-1.00,-1.0,2429
2719,1832719,17140,-620,832,17171.38,27.64,-1.00,-1.0,2368
2721,1832721,17044,-504,844,17072.33,27.68,-1.00,-1.0,2429
2724,1832724,16988,-560,852,17018.57,27.68,-1.00,-1.0,2377
2729,1832729,17008,-548,1028,17047.85,27.59,-1.00,-1.0,2430
2732,1832732,17052,-572,940,17087.46,27.59,-1.00,-1.0,2380
2735,1832735,16948,-540,948,16983.08,27.54,-1.00,-1.0,2434
2737,1832737,17048,-600,1044,17090.47,27.59,-1.00,-1.0,2372
2740,1832740,16996,-508,1144,17042.03,27.54,-1.00,-1.0,2421
2743,1832743,16988,-668,1000,17030.51,27.68,-1.00,-1.0,2370
2746,1832746,17008,-632,844,17040.65,27.64,-1.00,-1.0,2421
2748,1832748,17040,-520,888,17071.04,27.54,-1.00,-1.0,2372
2751,1832751,17020,-564,924,17054.39,27.64,-1.00,-1.0,2373
2756,1832756,17068,-556,852,17098.29,27.54,-1.00,-1.0,2430
2758,1832758,17016,-532,964,17051.59,27.59,-1.00,-1.0,2375
2761,1832761,17000,-596,916,17035.09,27.64,-1.00,-1.0,2430
2764,1832764,17036,-540,848,17065.64,27.54,-1.00,-1.0,2368
2767,1832767,17060,-568,988,17098.02,27.54,-1.00,-1.0,2422
2769,1832769,17040,-492,840,17067.79,27.64,-1.00,-1.0,2369
2772,1832772,17028,-660,888,17063.91,27.45,-1.00,-1.0,2421
2775,1832775,17016,-552,848,17046.06,27.64,-1.00,-1.0,2367
2780,1832780,17036,-552,1064,17078.12,27.54,-1.00,-1.0,2431
2782,1832782,17100,-584,908,17134.04,27.68,-1.00,-1.0,2383
2785,1832785,17000,-576,1096,17045.03,27.54,-1.00,-1.0,2431
2788,1832788,17080,-588,876,17112.55,27.54,-1.00,-1.0,2372
2791,1832791,17008,-496,1044,17047.23,27.64,-1.00,-1.0,2422
2793,1832793,17044,-524,912,17076.42,27.54,-1.00,-1.0,2371
2796,1832796,17052,-564,948,17087.64,27.49,-1.00,-1.0,2365
2799,1832799,17088,-676,900,17125.03,27.59,-1.00,-1.0,2428
2802,1832802,16976,-512,968,17011.28,27.64,-1.00,-1.0,2368
2807,1832807,17064,-476,1104,17106.30,27.54,-1.00,-1.0,2428
2809,1832809,16988,-488,984,17023.47,27.64,-1.00,-1.0,2376
2812,1832812,17100,-592,1148,17148.71,27.59,-1.00,-1.0,2430
2815,1832815,17000,-592,892,17033.68,27.68,-1.00,-1.0,2376
2818,1832818,16964,-632,1040,17007.60,27.59,-1.00,-1.0,2421
2820,1832820,17132,-584,960,17168.81,27.59,-1.00,-1.0,2372
2823,1832823,17056,-480,828,17082.83,27.68,-1.00,-1.0,2429
2826,1832826,16964,-640,992,17005.03,27.68,-1.00,-1.0,2371
2831,1832831,17044,-560,1000,17082.49,27.59,-1.00,-1.0,2433
2834,1832834,17024,-672,1012,17067.29,27.54,-1.00,-1.0,2373
2836,1832836,17056,-556,976,17092.95,27.59,-1.00,-1.0,2372
2839,1832839,17044,-544,1016,17082.92,27.64,-1.00,-1.0,2433
2842,1832842,17104,-612,776,17132.53,27.64,-1.00,-1.0,2371
2844,1832844,16964,-560,916,16997.94,27.54,-1.00,-1.0,2425
2847,1832847,16992,-580,832,17022.24,27.64,-1.00,-1.0,2376
2850,1832850,17048,-580,1076,17091.77,27.64,-1.00,-1.0,2425
2853,1832853,16940,-520,932,16973.59,27.64,-1.00,-1.0,2370
2858,1832858,16968,-652,1068,17014.07,27.54,-1.00,-1.0,2437
2860,1832860,16928,-652,948,16967.06,27.64,-1.00,-1.0,2379
2863,1832863,17056,-580,896,17089.36,27.54,-1.00,-1.0,2438
2866,1832866,17096,-520,1032,17135.01,27.54,-1.00,-1.0,2372
2869,1832869,17004,-508,988,17040.25,27.59,-1.00,-1.0,2421
2871,1832871,17000,-568,1000,17038.86,27.64,-1.00,-1.0,2376
2874,1832874,17052,-528,828,17080.25,27.59,-1.00,-1.0,2365
2877,1832877,17052,-532,996,17089.35,27.68,-1.00,-1.0,2424
2880,1832880,17072,-608,872,17105.06,27.68,-1.00,-1.0,2368
2885,1832885,17020,-576,992,17058.61,27.59,-1.00,-1.0,2441
2887,1832887,17060,-548,908,17092.93,27.64,-1.00,-1.0,2383
2890,1832890,16960,-712,872,16997.32,27.59,-1.00,-1.0,2411
2893,1832893,17128,-608,888,17161.78,27.59,-1.00,-1.0,2370
2896,1832896,17068,-496,936,17100.84,27.59,-1.00,-1.0,2421
2898,1832898,17028,-548,900,17060.57,27.64,-1.00,-1.0,2357
2901,1832901,16988,-524,828,17016.24,27.68,-1.00,-1.0,2421
2904,1832904,17080,-536,928,17113.59,27.49,-1.00,-1.0,2372
2909,1832909,17000,-660,888,17035.97,27.73,-1.00,-1.0,2436
2912,1832912,17080,-576,996,17118.71,27.73,-1.00,-1.0,2379
2914,1832914,17000,-608,984,17039.30,27.59,-1.00,-1.0,2366
2917,1832917,17068,-636,912,17104.18,27.64,-1.00,-1.0,2423
2920,1832920,17020,-548,880,17051.54,27.59,-1.00,-1.0,2368
2923,1832923,16992,-564,968,17028.89,27.73,-1.00,-1.0,2408
2925,1832925,17040,-480,888,17069.87,27.59,-1.00,-1.0,2369
2928,1832928,16968,-660,916,17005.52,27.54,-1.00,-1.0,2421
2931,1832931,17064,-588,940,17099.98,27.68,-1.00,-1.0,2368
2936,1832936,17096,-648,1096,17143.35,27.54,-1.00,-1.0,2419
2938,1832938,17044,-520,996,17080.99,27.59,-1.00,-1.0,2372
2941,1832941,17136,-664,908,17172.88,27.54,-1.00,-1.0,2425
2944,1832944,17000,-548,1000,17038.20,27.59,-1.00,-1.0,2367
2947,1832947,16992,-652,904,17028.52,27.54,-1.00,-1.0,2422
2949,1832949,17048,-532,880,17078.98,27.64,-1.00,-1.0,2369
2952,1832952,16992,-608,876,17025.43,27.64,-1.00,-1.0,2374
2955,1832955,17016,-640,916,17052.65,27.59,-1.00,-1.0,2433
2957,1832957,17000,-444,908,17030.02,27.64,-1.00,-1.0,2378
2962,1832962,17036,-572,972,17073.29,27.64,-1.00,-1.0,2434
2965,1832965,17020,-484,868,17048.99,27.54,-1.00,-1.0,2381
2968,1832968,16996,-508,908,17027.82,27.64,-1.00,-1.0,2423
2970,1832970,16996,-520,904,17027.97,27.64,-1.00,-1.0,2370
2973,1832973,17060,-612,940,17096.83,27.59,-1.00,-1.0,2436
2976,1832976,17076,-508,980,17111.64,27.64,-1.00,-1.0,2379
2979,1832979,17020,-564,880,17052.06,27.49,-1.00,-1.0,2435
2981,1832981,17104,-588,812,17133.36,27.64,-1.00,-1.0,2373
2986,1832986,17000,-652,920,17037.36,27.64,-1.00,-1.0,2433
2989,1832989,17120,-496,1008,17156.82,27.64,-1.00,-1.0,2372
2992,1832992,17072,-644,1004,17113.62,27.68,-1.00,-1.0,2367
2995,1832995,17044,-600,832,17074.84,27.59,-1.00,-1.0,2427
2997,1832997,16992,-556,972,17028.86,27.59,-1.00,-1.0,2376
3000,1833000,16964,-612,868,16997.21,27.64,-1.00,-1.0,2423
3003,1833003,17048,-560,884,17080.09,27.68,-1.00,-1.0,2368
3006,1833006,16996,-584,1004,17035.64,27.73,-1.00,-1.0,2422
3008,1833008,16964,-600,928,16999.96,27.54,-1.00,-1.0,2372
3013,1833013,17028,-600,912,17062.96,27.64,-1.00,-1.0,2436
3016,1833016,16968,-572,808,16996.86,27.64,-1.00,-1.0,2371
3019,1833019,17020,-660,1020,17063.30,27.59,-1.00,-1.0,2430
3022,1833022,16972,-536,1004,17010.12,27.64,-1.00,-1.0,2370
3024,1833024,17072,-572,964,17108.76,27.68,-1.00,-1.0,2437
3027,1833027,17020,-580,1000,17059.21,27.59,-1.00,-1.0,2369
3030,1833030,16936,-504,944,16969.78,27.68,-1.00,-1.0,2431
3033,1833033,17008,-580,936,17043.61,27.59,-1.00,-1.0,2369
3035,1833035,16972,-588,940,17008.18,27.59,-1.00,-1.0,2376
3040,1833040,17004,-564,960,17040.41,27.64,-1.00,-1.0,2433
3043,1833043,17084,-520,948,17118.18,27.59,-1.00,-1.0,2372
3046,1833046,17008,-500,1024,17046.13,27.78,-1.00,-1.0,2430
3049,1833049,17100,-568,992,17138.16,27.59,-1.00,-1.0,2368
3051,1833051,17008,-580,1032,17049.15,27.59,-1.00,-1.0,2432
3054,1833054,17084,-484,1008,17120.55,27.68,-1.00,-1.0,2377
3057,1833057,17024,-524,908,17056.25,27.49,-1.00,-1.0,2424
3060,1833060,17060,-480,844,17087.61,27.68,-1.00,-1.0,2369
3065,1833065,17112,-600,1140,17160.42,27.59,-1.00,-1.0,2436
3067,1833067,17084,-652,1076,17130.26,27.64,-1.00,-1.0,2372
3070,1833070,17072,-512,992,17108.46,27.59,-1.00,-1.0,2423
3073,1833073,17044,-424,960,17076.28,27.68,-1.00,-1.0,2377
3075,1833075,17004,-656,824,17036.59,27.64,-1.00,-1.0,2374
3078,1833078,17096,-552,912,17129.21,27.54,-1.00,-1.0,2422
3081,1833081,17084,-540,944,17118.58,27.54,-1.00,-1.0,2360
3084,1833084,17072,-588,840,17102.76,27.64,-1.00,-1.0,2421
3086,1833086,17016,-564,732,17041.07,27.64,-1.00,-1.0,2375
3091,1833091,17128,-508,868,17157.50,27.64,-1.00,-1.0,2441
3094,1833094,17040,-500,816,17066.85,27.64,-1.00,-1.0,2388
3097,1833097,17020,-532,792,17046.72,27.64,-1.00,-1.0,2427
3100,1833100,17124,-492,888,17154.07,27.64,-1.00,-1.0,2366
3102,1833102,17000,-552,944,17035.13,27.64,-1.00,-1.0,2409
3105,1833105,17072,-508,876,17102.01,27.64,-1.00,-1.0,2376
3108,1833108,17044,-472,864,17072.41,27.64,-1.00,-1.0,2422
3111,1833111,16964,-540,992,17001.56,27.54,-1.00,-1.0,2372
3114,1833114,16984,-556,900,17016.91,27.64,-1.00,-1.0,2369
3118,1833118,17040,-548,888,17071.92,27.54,-1.00,-1.0,2437
3121,1833121,17020,-664,956,17059.75,27.54,-1.00,-1.0,2374
3124,1833124,17096,-656,828,17128.61,27.59,-1.00,-1.0,2423
3127,1833127,17016,-516,900,17047.60,27.64,-1.00,-1.0,2371
3130,1833130,17016,-616,896,17050.71,27.68,-1.00,-1.0,2421
3132,1833132,17040,-632,944,17077.83,27.64,-1.00,-1.0,2369
3135,1833135,17028,-584,884,17060.93,27.68,-1.00,-1.0,2408
3138,1833138,17076,-504,956,17110.16,27.64,-1.00,-1.0,2369
3143,1833143,16948,-552,912,16981.49,27.68,-1.00,-1.0,2432
3145,1833145,17000,-648,948,17038.74,27.73,-1.00,-1.0,2372
3148,1833148,16952,-592,944,16988.58,27.49,-1.00,-1.0,2426
3151,1833151,16948,-520,976,16984.04,27.59,-1.00,-1.0,2367
3153,1833153,16992,-544,876,17023.26,27.54,-1.00,-1.0,2368
3156,1833156,17064,-596,1004,17103.90,27.64,-1.00,-1.0,2435
3159,1833159,16972,-580,936,17007.68,27.64,-1.00,-1.0,2381
3162,1833162,17112,-636,1000,17152.99,27.64,-1.00,-1.0,2434
3165,1833165,17064,-452,824,17089.86,27.59,-1.00,-1.0,2367
3169,1833169,16984,-688,868,17020.08,27.64,-1.00,-1.0,2442
3172,1833172,17000,-524,1024,17038.87,27.73,-1.00,-1.0,2372
3175,1833175,17008,-572,940,17043.56,27.59,-1.00,-1.0,2423
3177,1833177,17072,-596,1016,17112.59,27.64,-1.00,-1.0,2375
3180,1833180,17012,-552,976,17048.91,27.59,-1.00,-1.0,2421
3183,1833183,17008,-612,928,17044.29,27.54,-1.00,-1.0,2371
3186,1833186,17056,-644,1064,17101.29,27.68,-1.00,-1.0,2421
3189,1833189,17072,-632,840,17104.33,27.68,-1.00,-1.0,2355
3192,1833192,16980,-520,1024,17018.79,27.68,-1.00,-1.0,2353
3197,1833197,17056,-516,828,17083.88,27.59,-1.00,-1.0,2432
3199,1833199,16940,-560,824,16969.27,27.59,-1.00,-1.0,2372
3202,1833202,17064,-556,904,17096.97,27.68,-1.00,-1.0,2425
3205,1833205,17156,-556,824,17184.77,27.68,-1.00,-1.0,2367
3208,1833208,17020,-612,988,17059.63,27.59,-1.00,-1.0,2408
3210,1833210,16992,-580,940,17027.86,27.68,-1.00,-1.0,2369
3213,1833213,17124,-584,1000,17163.11,27.64,-1.00,-1.0,2422
3216,1833216,16996,-544,816,17024.27,27.59,-1.00,-1.0,2368
3221,1833221,17048,-520,904,17079.87,27.59,-1.00,-1.0,2434
3223,1833223,16992,-568,960,17028.57,27.68,-1.00,-1.0,2379
3226,1833226,16908,-448,1164,16953.94,27.59,-1.00,-1.0,2423
3229,1833229,17044,-508,916,17076.15,27.59,-1.00,-1.0,2371
3232,1833232,16928,-528,872,16958.67,27.68,-1.00,-1.0,2421
3234,1833234,17008,-536,948,17042.83,27.49,-1.00,-1.0,2370
3237,1833237,17028,-592,920,17063.11,27.54,-1.00,-1.0,2366
3240,1833240,17076,-528,920,17108.91,27.54,-1.00,-1.0,2430
3243,1833243,16984,-532,848,17013.48,27.64,-1.00,-1.0,2369
3248,1833248,16980,-588,972,17017.96,27.54,-1.00,-1.0,2432
3250,1833250,17032,-564,1052,17073.78,27.64,-1.00,-1.0,2372
3253,1833253,17024,-572,948,17059.97,27.54,-1.00,-1.0,2424
3256,1833256,17048,-652,920,17085.25,27.64,-1.00,-1.0,2376
3259,1833259,17000,-560,872,17031.56,27.64,-1.00,-1.0,2421
3261,1833261,17068,-592,1020,17108.70,27.64,-1.00,-1.0,2371
3264,1833264,17072,-588,960,17109.08,27.64,-1.00,-1.0,2437
3267,1833267,16976,-540,1024,17015.43,27.73,-1.00,-1.0,2364
3272,1833272,17080,-520,820,17107.58,27.64,-1.00,-1.0,2441
3275,1833275,17060,-588,916,17094.69,27.64,-1.00,-1.0,2372
3277,1833277,17028,-488,892,17058.33,27.54,-1.00,-1.0,2380
3280,1833280,17060,-644,812,17091.45,27.59,-1.00,-1.0,2426
3283,1833283,17024,-584,944,17060.15,27.68,-1.00,-1.0,2372
3286,1833286,17024,-544,844,17053.59,27.78,-1.00,-1.0,2423
3288,1833288,17100,-576,1008,17139.37,27.59,-1.00,-1.0,2372
3291,1833291,17056,-460,860,17083.86,27.64,-1.00,-1.0,2423
3294,1833294,17012,-628,928,17048.86,27.59,-1.00,-1.0,2369
3299,1833299,16996,-624,860,17029.18,27.59,-1.00,-1.0,2439
3302,1833302,17044,-624,1004,17084.95,27.54,-1.00,-1.0,2373
3304,1833304,17048,-524,972,17083.72,27.49,-1.00,-1.0,2434
3307,1833307,17008,-568,896,17041.05,27.64,-1.00,-1.0,2377
3310,1833310,17056,-592,816,17085.77,27.59,-1.00,-1.0,2424
3313,1833313,17080,-604,992,17119.44,27.59,-1.00,-1.0,2370
3315,1833315,17088,-540,916,17121.05,27.64,-1.00,-1.0,2367
3318,1833318,17080,-644,1008,17121.83,27.64,-1.00,-1.0,2421
3321,1833321,17068,-504,1016,17105.64,27.64,-1.00,-1.0,2367
3326,1833326,17000,-604,816,17030.29,27.59,-1.00,-1.0,2440
3328,1833328,17080,-472,948,17112.80,27.59,-1.00,-1.0,2380
3331,1833331,17060,-588,828,17090.20,27.64,-1.00,-1.0,2422
3334,1833334,16984,-592,1008,17024.18,27.59,-1.00,-1.0,2360
3337,1833337,17004,-580,924,17038.96,27.64,-1.00,-1.0,2421
3339,1833339,17000,-472,892,17029.93,27.68,-1.00,-1.0,2376
3342,1833342,17036,-588,900,17069.89,27.64,-1.00,-1.0,2421
3345,1833345,16996,-432,960,17028.57,27.54,-1.00,-1.0,2369
3351,1833351,17084,-568,764,17110.50,27.64,-1.00,-1.0,2440
3353,1833353,16980,-500,904,17011.40,27.64,-1.00,-1.0,2372
3356,1833356,17060,-588,1124,17107.10,27.68,-1.00,-1.0,2380
3359,1833359,17044,-624,1000,17084.71,27.64,-1.00,-1.0,2441
3361,1833361,17060,-496,920,17091.99,27.59,-1.00,-1.0,2378
3364,1833364,16984,-496,1064,17024.52,27.64,-1.00,-1.0,2421
3367,1833367,16948,-536,916,16981.20,27.64,-1.00,-1.0,2370
3370,1833370,17148,-620,1064,17192.16,27.64,-1.00,-1.0,2422
3372,1833372,16988,-552,1036,17028.51,27.64,-1.00,-1.0,2375
3377,1833377,16940,-548,828,16969.07,27.59,-1.00,-1.0,2441
3380,1833380,17016,-508,992,17052.46,27.68,-1.00,-1.0,2381
3383,1833383,17016,-564,972,17053.07,27.64,-1.00,-1.0,2436
3385,1833385,17068,-600,872,17100.79,27.68,-1.00,-1.0,2379
3388,1833388,17048,-464,792,17072.69,27.73,-1.00,-1.0,2429
3391,1833391,17024,-592,896,17057.84,27.64,-1.00,-1.0,2374
3394,1833394,17128,-568,940,17163.18,27.64,-1.00,-1.0,2432
3396,1833396,17036,-520,932,17069.40,27.54,-1.00,-1.0,2376
3399,1833399,17084,-544,960,17119.60,27.54,-1.00,-1.0,2369
3404,1833404,17064,-508,964,17098.76,27.54,-1.00,-1.0,2433
3407,1833407,17068,-520,976,17103.79,27.64,-1.00,-1.0,2372
3410,1833410,17064,-616,800,17093.85,27.68,-1.00,-1.0,2424
3412,1833412,16948,-608,1044,16991.01,27.73,-1.00,-1.0,2368
3415,1833415,17056,-524,992,17092.86,27.64,-1.00,-1.0,2420
3418,1833418,16992,-652,1012,17034.59,27.64,-1.00,-1.0,2367
3421,1833421,17036,-624,868,17069.51,27.59,-1.00,-1.0,2422
3423,1833423,17012,-580,880,17044.62,27.64,-1.00,-1.0,2369
3428,1833428,17076,-592,948,17112.54,27.64,-1.00,-1.0,2443
3431,1833431,17072,-612,884,17105.82,27.54,-1.00,-1.0,2375
3434,1833434,17016,-540,948,17050.94,27.68,-1.00,-1.0,2423
3436,1833436,16980,-628,820,17011.38,27.64,-1.00,-1.0,2374
3439,1833439,16988,-552,804,17015.97,27.68,-1.00,-1.0,2367
3442,1833442,17044,-580,960,17080.87,27.54,-1.00,-1.0,2433
3445,1833445,16992,-644,932,17029.72,27.59,-1.00,-1.0,2355
3447,1833447,16992,-536,992,17029.37,27.64,-1.00,-1.0,2422
3450,1833450,17004,-644,916,17040.83,27.59,-1.00,-1.0,2370
3455,1833455,17092,-504,876,17121.85,27.73,-1.00,-1.0,2432
3458,1833458,17060,-552,1012,17098.90,27.64,-1.00,-1.0,2372
3461,1833461,17036,-568,928,17070.71,27.68,-1.00,-1.0,2424
3463,1833463,16996,-508,856,17025.12,27.49,-1.00,-1.0,2369
3466,1833466,16984,-516,1004,17021.47,27.59,-1.00,-1.0,2422
3469,1833469,16996,-548,900,17028.63,27.49,-1.00,-1.0,2368
3472,1833472,17048,-540,908,17080.70,27.68,-1.00,-1.0,2421
3474,1833474,17052,-512,784,17077.69,27.68,-1.00,-1.0,2369
3477,1833477,17064,-552,892,17096.21,27.64,-1.00,-1.0,2377
3482,1833482,16992,-568,852,17022.83,27.64,-1.00,-1.0,2440
3485,1833485,16952,-588,832,16982.59,27.68,-1.00,-1.0,2372
3487,1833487,17028,-652,932,17065.95,27.64,-1.00,-1.0,2426
3490,1833490,17084,-536,940,17118.23,27.59,-1.00,-1.0,2369
3493,1833493,16948,-512,968,16983.34,27.64,-1.00,-1.0,2428
3496,1833496,16968,-496,960,17002.37,27.54,-1.00,-1.0,2369
3498,1833498,17044,-672,924,17082.25,27.54,-1.00,-1.0,2428
3501,1833501,16980,-576,1096,17025.08,27.54,-1.00,-1.0,2369
3506,1833506,16972,-680,824,17005.59,27.59,-1.00,-1.0,2432
3509,1833509,16976,-484,796,17001.54,27.59,-1.00,-1.0,2373
3512,1833512,17004,-544,960,17039.76,27.54,-1.00,-1.0,2424
3514,1833514,17048,-500,948,17081.66,27.59,-1.00,-1.0,2356
3517,1833517,17036,-540,892,17067.88,27.54,-1.00,-1.0,2373
3520,1833520,17024,-480,888,17053.90,27.59,-1.00,-1.0,2437
3522,1833522,16976,-584,1004,17015.69,27.64,-1.00,-1.0,2377
3525,1833525,17080,-564,828,17109.36,27.59,-1.00,-1.0,2422
3528,1833528,17048,-624,792,17077.79,27.73,-1.00,-1.0,2363
3533,1833533,17000,-524,1048,17040.33,27.64,-1.00,-1.0,2440
3536,1833536,16976,-544,1044,17016.77,27.54,-1.00,-1.0,2372
3538,1833538,17044,-620,872,17077.55,27.59,-1.00,-1.0,2435
3541,1833541,17008,-616,928,17044.43,27.64,-1.00,-1.0,2376
3544,1833544,17080,-600,912,17114.85,27.64,-1.00,-1.0,2425
3547,1833547,16920,-580,892,16953.42,27.64,-1.00,-1.0,2369
3549,1833549,17072,-616,916,17107.65,27.59,-1.00,-1.0,2431
3552,1833552,16908,-648,916,16945.19,27.68,-1.00,-1.0,2375
3555,1833555,17020,-508,772,17045.07,27.73,-1.00,-1.0,2367
3560,1833560,17016,-640,1008,17057.84,27.68,-1.00,-1.0,2432
3562,1833562,16976,-512,916,17008.40,27.59,-1.00,-1.0,2379
3565,1833565,17016,-560,860,17046.92,27.64,-1.00,-1.0,2424
3568,1833568,17024,-472,904,17054.52,27.68,-1.00,-1.0,2371
3571,1833571,17076,-524,860,17105.67,27.64,-1.00,-1.0,2421
3573,1833573,17108,-532,968,17143.62,27.59,-1.00,-1.0,2370
3576,1833576,16944,-548,852,16974.26,27.64,-1.00,-1.0,2421
3579,1833579,17000,-528,848,17029.32,27.59,-1.00,-1.0,2371
3584,1833584,17060,-520,848,17088.98,27.59,-1.00,-1.0,2439
3586,1833586,17048,-528,868,17078.25,27.68,-1.00,-1.0,2377
3589,1833589,17008,-556,1032,17048.35,27.59,-1.00,-1.0,2433
3592,1833592,17072,-584,932,17107.39,27.59,-1.00,-1.0,2372
3595,1833595,16980,-620,924,17016.42,27.54,-1.00,-1.0,2367
3597,1833597,17080,-580,952,17116.34,27.64,-1.00,-1.0,2421
3600,1833600,17016,-596,960,17053.48,27.54,-1.00,-1.0,2369
3603,1833603,17092,-472,1008,17128.20,27.64,-1.00,-1.0,2408
3606,1833606,17028,-476,912,17059.05,27.54,-1.00,-1.0,2370
3611,1833611,17044,-536,948,17078.76,27.59,-1.00,-1.0,2435
3614,1833614,17076,-636,900,17111.53,27.59,-1.00,-1.0,2382
3617,1833617,16948,-556,824,16977.13,27.54,-1.00,-1.0,2427
3619,1833619,17044,-564,952,17079.88,27.59,-1.00,-1.0,2372
3622,1833622,17032,-656,932,17070.09,27.73,-1.00,-1.0,2422
3625,1833625,17032,-572,928,17066.85,27.73,-1.00,-1.0,2368
3628,1833628,17064,-644,956,17102.89,27.64,-1.00,-1.0,2422
3630,1833630,16984,-548,976,17020.84,27.54,-1.00,-1.0,2369
3633,1833633,17108,-616,864,17140.88,27.73,-1.00,-1.0,2353
3638,1833638,17000,-536,868,17030.58,27.59,-1.00,-1.0,2461
3641,1833641,16984,-568,1012,17023.60,27.64,-1.00,-1.0,2374
3644,1833644,17072,-504,804,17098.35,27.59,-1.00,-1.0,2422
3646,1833646,17020,-532,832,17048.63,27.59,-1.00,-1.0,2368
3649,1833649,17068,-644,1060,17113.01,27.68,-1.00,-1.0,2438
3652,1833652,17016,-560,904,17049.20,27.68,-1.00,-1.0,2365
3655,1833655,17048,-604,928,17083.92,27.49,-1.00,-1.0,2427
3657,1833657,17052,-656,940,17090.48,27.59,-1.00,-1.0,2371
3662,1833662,17064,-560,924,17098.17,27.59,-1.00,-1.0,2442
3665,1833665,17072,-452,984,17106.31,27.59,-1.00,-1.0,2370
3668,1833668,17000,-660,920,17037.66,27.49,-1.00,-1.0,2428
3671,1833671,17016,-536,792,17042.85,27.59,-1.00,-1.0,2368
3673,1833673,16960,-496,952,16993.94,27.64,-1.00,-1.0,2374
3676,1833676,17144,-544,864,17174.38,27.54,-1.00,-1.0,2425
3679,1833679,16976,-456,876,17004.70,27.64,-1.00,-1.0,2432
3682,1833682,16892,-632,976,16931.97,27.64,-1.00,-1.0,2425
3684,1833684,17020,-620,876,17053.80,27.64,-1.00,-1.0,2380
3689,1833689,17040,-536,988,17077.03,27.54,-1.00,-1.0,2448
3692,1833692,16960,-552,820,16988.78,27.64,-1.00,-1.0,2379
3695,1833695,17008,-684,824,17041.68,27.73,-1.00,-1.0,2424
3698,1833698,16992,-576,976,17029.75,27.64,-1.00,-1.0,2372
3701,1833701,17060,-592,876,17092.73,27.64,-1.00,-1.0,2425
3703,1833703,17020,-568,972,17057.19,27.64,-1.00,-1.0,2373
3706,1833706,17092,-612,852,17124.16,27.64,-1.00,-1.0,2425
3709,1833709,16896,-596,836,16927.17,27.64,-1.00,-1.0,2367
3711,1833711,17052,-532,868,17082.36,27.59,-1.00,-1.0,2353
3716,1833716,17020,-476,896,17050.21,27.68,-1.00,-1.0,2440
3719,1833719,17036,-520,952,17070.50,27.54,-1.00,-1.0,2366
3722,1833722,17096,-584,796,17124.48,27.64,-1.00,-1.0,2423
3725,1833725,17008,-616,960,17046.21,27.54,-1.00,-1.0,2367
3727,1833727,16956,-544,1080,16999.07,27.59,-1.00,-1.0,2422
3730,1833730,17028,-616,832,17059.44,27.64,-1.00,-1.0,2366
3733,1833733,17076,-572,996,17114.58,27.64,-1.00,-1.0,2421
3735,1833735,17024,-560,1024,17063.96,27.64,-1.00,-1.0,2352
3741,1833741,17092,-576,904,17125.58,27.64,-1.00,-1.0,2440
3743,1833743,16960,-648,1008,17002.28,27.64,-1.00,-1.0,2370
3746,1833746,17032,-524,964,17067.30,27.73,-1.00,-1.0,2432
3749,1833749,16984,-528,928,17017.53,27.54,-1.00,-1.0,2374
3752,1833752,17004,-656,912,17041.07,27.68,-1.00,-1.0,2366
3754,1833754,17088,-472,912,17118.83,27.59,-1.00,-1.0,2422
3757,1833757,16968,-520,1016,17006.34,27.49,-1.00,-1.0,2369
3760,1833760,17064,-604,920,17099.45,27.59,-1.00,-1.0,2429
3763,1833763,17052,-548,868,17082.87,27.59,-1.00,-1.0,2368
3767,1833767,16976,-536,1024,17015.30,27.59,-1.00,-1.0,2440
3770,1833770,16984,-532,980,17020.57,27.68,-1.00,-1.0,2370
3773,1833773,17056,-564,844,17086.18,27.64,-1.00,-1.0,2430
3776,1833776,16972,-632,1008,17013.65,27.68,-1.00,-1.0,2368
3778,1833778,17016,-552,972,17052.68,27.64,-1.00,-1.0,2422
3781,1833781,17060,-468,924,17091.41,27.68,-1.00,-1.0,2369
3784,1833784,16984,-560,928,17018.55,27.54,-1.00,-1.0,2411
3787,1833787,17024,-516,976,17059.76,27.59,-1.00,-1.0,2368
3789,1833789,17080,-484,1060,17119.70,27.64,-1.00,-1.0,2380
3794,1833794,17024,-576,844,17054.64,27.54,-1.00,-1.0,2446
3797,1833797,17004,-608,1060,17047.85,27.64,-1.00,-1.0,2367
3799,1833799,17048,-568,968,17084.90,27.73,-1.00,-1.0,2428
3802,1833802,17104,-544,856,17134.04,27.64,-1.00,-1.0,2369
3805,1833805,17044,-520,868,17074.01,27.64,-1.00,-1.0,2429
3808,1833808,17000,-616,948,17037.55,27.54,-1.00,-1.0,2369
3810,1833810,17112,-668,976,17152.82,27.54,-1.00,-1.0,2434
3813,1833813,17048,-520,700,17070.29,27.59,-1.00,-1.0,2376
3818,1833818,17004,-608,848,17035.98,27.68,-1.00,-1.0,2455
3821,1833821,16944,-544,1036,16984.36,27.64,-1.00,-1.0,2375
3824,1833824,17024,-608,936,17060.55,27.59,-1.00,-1.0,2436
3826,1833826,16912,-556,1012,16951.37,27.59,-1.00,-1.0,2376
3829,1833829,17028,-460,1004,17063.78,27.68,-1.00,-1.0,2421
3832,1833832,17044,-604,1044,17086.62,27.59,-1.00,-1.0,2369
3835,1833835,17084,-544,1040,17124.27,27.64,-1.00,-1.0,2366
3837,1833837,17060,-600,1020,17100.99,27.64,-1.00,-1.0,2421
3840,1833840,16888,-560,1088,16932.27,27.59,-1.00,-1.0,2372
3845,1833845,17072,-636,1020,17114.27,27.68,-1.00,-1.0,2449
3848,1833848,17060,-584,876,17092.46,27.68,-1.00,-1.0,2371
3851,1833851,17020,-520,1064,17061.15,27.68,-1.00,-1.0,2423
3853,1833853,17096,-572,948,17131.82,27.68,-1.00,-1.0,2376
3856,1833856,17056,-620,940,17093.13,27.59,-1.00,-1.0,2422
3859,1833859,17052,-464,996,17087.36,27.59,-1.00,-1.0,2357
3862,1833862,17112,-520,884,17142.71,27.59,-1.00,-1.0,2422
3864,1833864,16940,-520,928,16973.37,27.68,-1.00,-1.0,2376
3869,1833869,16948,-476,880,16977.51,27.68,-1.00,-1.0,2449
3872,1833872,16964,-536,792,16990.93,27.68,-1.00,-1.0,2374
3875,1833875,17000,-600,912,17035.02,27.64,-1.00,-1.0,2367
3878,1833878,17036,-592,972,17073.97,27.64,-1.00,-1.0,2409
3880,1833880,16996,-604,948,17033.13,27.64,-1.00,-1.0,2369
3883,1833883,17060,-668,888,17096.15,27.54,-1.00,-1.0,2421
3886,1833886,17012,-652,840,17045.20,27.54,-1.00,-1.0,2371
3889,1833889,17048,-580,968,17085.31,27.64,-1.00,-1.0,2408
3891,1833891,17092,-516,904,17123.67,27.64,-1.00,-1.0,2369
3896,1833896,17052,-512,868,17081.75,27.64,-1.00,-1.0,2439
3899,1833899,17076,-536,860,17106.04,27.59,-1.00,-1.0,2355
3902,1833902,17080,-520,892,17111.18,27.54,-1.00,-1.0,2423
3904,1833904,17024,-540,920,17057.39,27.59,-1.00,-1.0,2374
3907,1833907,17040,-616,852,17072.40,27.54,-1.00,-1.0,2422
3910,1833910,16988,-628,872,17021.95,27.64,-1.00,-1.0,2372
3913,1833913,16988,-568,1048,17029.77,27.54,-1.00,-1.0,2367
3915,1833915,17028,-560,1068,17070.65,27.59,-1.00,-1.0,2426
3918,1833918,17020,-580,916,17054.50,27.64,-1.00,-1.0,2369
3923,1833923,16968,-640,756,16996.89,27.54,-1.00,-1.0,2440
3926,1833926,16980,-664,964,17020.30,27.54,-1.00,-1.0,2369
3929,1833929,17068,-588,852,17099.37,27.64,-1.00,-1.0,2429
3932,1833932,17012,-640,888,17047.18,27.54,-1.00,-1.0,2368
3934,1833934,17004,-480,816,17030.33,27.68,-1.00,-1.0,2423
3937,1833937,16984,-548,972,17020.62,27.64,-1.00,-1.0,2369
3940,1833940,17048,-512,1024,17086.40,27.59,-1.00,-1.0,2428
3943,1833943,17096,-484,1028,17133.72,27.64,-1.00,-1.0,2372
3948,1833948,16900,-624,1108,16947.77,27.64,-1.00,-1.0,2442
3950,1833950,17104,-544,844,17133.45,27.54,-1.00,-1.0,2369
3953,1833953,16968,-604,868,17000.92,27.64,-1.00,-1.0,2422
3956,1833956,17056,-640,964,17095.21,27.64,-1.00,-1.0,2368
3958,1833958,17080,-592,912,17114.57,27.59,-1.00,-1.0,2370
3961,1833961,16996,-560,1016,17035.55,27.68,-1.00,-1.0,2436
3964,1833964,17004,-472,864,17032.48,27.59,-1.00,-1.0,2364
3967,1833967,17100,-520,920,17132.62,27.68,-1.00,-1.0,2425
3969,1833969,16964,-516,928,16997.20,27.68,-1.00,-1.0,2372
3974,1833974,17068,-560,1000,17106.44,27.54,-1.00,-1.0,2449
3977,1833977,17032,-528,972,17067.88,27.64,-1.00,-1.0,2370
3980,1833980,17012,-568,880,17044.21,27.64,-1.00,-1.0,2428
3982,1833982,16988,-504,876,17018.04,27.45,-1.00,-1.0,2374
3985,1833985,17144,-532,1028,17183.03,27.64,-1.00,-1.0,2421
3988,1833988,16980,-624,1072,17025.24,27.64,-1.00,-1.0,2356
3991,1833991,17096,-604,888,17129.70,27.64,-1.00,-1.0,2421
3993,1833993,16916,-628,1000,16957.16,27.54,-1.00,-1.0,2380
3996,1833996,17072,-608,796,17101.36,27.49,-1.00,-1.0,2366
4001,1834001,16988,-572,1028,17028.69,27.68,-1.00,-1.0,2439
4004,1834004,16984,-548,964,17020.16,27.68,-1.00,-1.0,2368
4007,1834007,16992,-532,964,17027.64,27.59,-1.00,-1.0,2409
4009,1834009,17052,-640,984,17092.35,27.59,-1.00,-1.0,2369
4012,1834012,16952,-604,960,16989.90,27.68,-1.00,-1.0,2421
4015,1834015,17076,-620,1040,17118.87,27.68,-1.00,-1.0,2368
4018,1834018,17076,-624,904,17111.29,27.68,-1.00,-1.0,2408
4020,1834020,17044,-672,784,17075.25,27.64,-1.00,-1.0,2371
4025,1834025,17040,-644,1000,17081.46,27.73,-1.00,-1.0,2442
4028,1834028,17056,-532,1048,17096.45,27.59,-1.00,-1.0,2367
4031,1834031,16996,-572,984,17034.07,27.64,-1.00,-1.0,2430
4034,1834034,17004,-632,988,17044.40,27.54,-1.00,-1.0,2369
4036,1834036,17028,-620,924,17064.32,27.59,-1.00,-1.0,2365
4039,1834039,16988,-564,944,17023.55,27.59,-1.00,-1.0,2421
4042,1834042,16964,-612,920,16999.95,27.59,-1.00,-1.0,2367
4045,1834045,17108,-572,952,17144.01,27.68,-1.00,-1.0,2421
4047,1834047,17028,-552,1032,17068.17,27.54,-1.00,-1.0,2377
4052,1834052,16968,-568,1028,17008.60,27.64,-1.00,-1.0,2450
4055,1834055,16928,-632,1024,16970.71,27.64,-1.00,-1.0,2386
4058,1834058,16984,-548,864,17014.79,27.59,-1.00,-1.0,2423
4061,1834061,17052,-540,940,17086.42,27.54,-1.00,-1.0,2365
4064,1834064,16844,-480,940,16877.04,27.54,-1.00,-1.0,2424
4066,1834066,17040,-568,1084,17083.89,27.64,-1.00,-1.0,2372
4069,1834069,17004,-588,860,17035.88,27.68,-1.00,-1.0,2422
4072,1834072,17020,-516,1016,17058.10,27.68,-1.00,-1.0,2369
4077,1834077,17012,-496,936,17044.95,27.59,-1.00,-1.0,2447
4079,1834079,17032,-628,944,17069.70,27.64,-1.00,-1.0,2376
4082,1834082,16940,-600,1016,16981.04,27.49,-1.00,-1.0,2369
4085,1834085,17064,-548,972,17100.44,27.64,-1.00,-1.0,2425
4088,1834088,16876,-616,788,16905.61,27.59,-1.00,-1.0,2367
4090,1834090,17004,-496,976,17039.21,27.64,-1.00,-1.0,2424
4093,1834093,17036,-592,948,17072.62,27.73,-1.00,-1.0,2369
4096,1834096,17020,-600,828,17050.69,27.64,-1.00,-1.0,2431
4099,1834099,17076,-600,1080,17120.64,27.64,-1.00,-1.0,2368
4104,1834104,17028,-532,920,17061.13,27.64,-1.00,-1.0,2439
4106,1834106,17032,-544,980,17068.84,27.68,-1.00,-1.0,2368
4109,1834109,17128,-596,748,17154.68,27.54,-1.00,-1.0,2423
4112,1834112,17016,-556,964,17052.35,27.64,-1.00,-1.0,2367
4115,1834115,17044,-572,876,17076.08,27.64,-1.00,-1.0,2421
4117,1834117,16956,-600,908,16990.89,27.64,-1.00,-1.0,2369
4120,1834120,17036,-500,1008,17073.12,27.59,-1.00,-1.0,2370
4123,1834123,17116,-656,936,17154.12,27.59,-1.00,-1.0,2433
4126,1834126,17204,-556,856,17234.25,27.59,-1.00,-1.0,2367
4131,1834131,17028,-500,1032,17066.57,27.59,-1.00,-1.0,2443
4133,1834133,16988,-592,888,17021.49,27.68,-1.00,-1.0,2367
4136,1834136,17068,-556,924,17102.03,27.59,-1.00,-1.0,2409
4139,1834139,17012,-500,892,17042.71,27.59,-1.00,-1.0,2370
4142,1834142,17044,-640,1008,17085.77,27.54,-1.00,-1.0,2421
4144,1834144,17044,-616,996,17084.19,27.59,-1.00,-1.0,2369
4147,1834147,17012,-584,948,17048.40,27.64,-1.00,-1.0,2408
4150,1834150,17008,-492,896,17038.69,27.59,-1.00,-1.0,2373
4155,1834155,16948,-612,836,16979.64,27.59,-1.00,-1.0,2447
4158,1834158,16992,-596,888,17025.62,27.64,-1.00,-1.0,2368
4160,1834160,17052,-584,844,17082.86,27.59,-1.00,-1.0,2366
4163,1834163,16972,-576,780,16999.68,27.64,-1.00,-1.0,2423
4166,1834166,17036,-640,828,17068.11,27.59,-1.00,-1.0,2367
4169,1834169,17108,-512,968,17143.01,27.64,-1.00,-1.0,2422
4171,1834171,17124,-548,868,17154.74,27.54,-1.00,-1.0,2369
4174,1834174,16964,-624,1004,17005.14,27.64,-1.00,-1.0,2421
4177,1834177,17036,-472,904,17066.50,27.64,-1.00,-1.0,2368
4182,1834182,17096,-572,972,17133.16,27.64,-1.00,-1.0,2439
4185,1834185,16952,-672,940,16991.34,27.64,-1.00,-1.0,2368
4188,1834188,16960,-576,912,16994.27,27.59,-1.00,-1.0,2425
4191,1834191,17060,-644,928,17097.35,27.64,-1.00,-1.0,2368
4193,1834193,17032,-508,784,17057.60,27.64,-1.00,-1.0,2422
4196,1834196,17108,-656,876,17142.97,27.64,-1.00,-1.0,2369
4199,1834199,16956,-660,800,16987.69,27.59,-1.00,-1.0,2370
4201,1834201,16952,-524,920,16985.03,27.64,-1.00,-1.0,2424
4204,1834204,17000,-564,892,17032.73,27.68,-1.00,-1.0,2385
4209,1834209,17064,-616,960,17102.08,27.59,-1.00,-1.0,2447
4212,1834212,17028,-560,908,17061.38,27.59,-1.00,-1.0,2369
4214,1834214,17040,-592,856,17071.75,27.59,-1.00,-1.0,2436
4217,1834217,17020,-648,936,17058.03,27.59,-1.00,-1.0,2375
4220,1834220,17056,-604,1012,17096.67,27.59,-1.00,-1.0,2424
4223,1834223,17040,-612,960,17077.99,27.59,-1.00,-1.0,2371
4225,1834225,16976,-520,892,17007.37,27.64,-1.00,-1.0,2431
4228,1834228,17100,-596,904,17134.25,27.59,-1.00,-1.0,2375
4233,1834233,17124,-516,940,17157.54,27.59,-1.00,-1.0,2440
4236,1834236,16968,-532,888,16999.55,27.68,-1.00,-1.0,2377
4238,1834238,17040,-536,956,17075.21,27.64,-1.00,-1.0,2374
4241,1834241,17000,-544,1048,17040.96,27.64,-1.00,-1.0,2422
4244,1834244,17116,-652,904,17152.25,27.54,-1.00,-1.0,2372
4247,1834247,16972,-576,940,17007.77,27.54,-1.00,-1.0,2425
4249,1834249,16960,-612,872,16993.43,27.54,-1.00,-1.0,2371
4252,1834252,17048,-524,972,17083.72,27.64,-1.00,-1.0,2421
4255,1834255,17084,-548,896,17116.25,27.64,-1.00,-1.0,2370
4260,1834260,17000,-548,776,17026.52,27.54,-1.00,-1.0,2443
4263,1834263,17004,-600,1012,17044.65,27.54,-1.00,-1.0,2375
4266,1834266,17124,-608,964,17161.89,27.64,-1.00,-1.0,2424
4268,1834268,17088,-508,860,17117.17,27.54,-1.00,-1.0,2376
4271,1834271,17124,-584,844,17154.73,27.54,-1.00,-1.0,2423
4274,1834274,17020,-616,900,17054.91,27.64,-1.00,-1.0,2368
4276,1834276,17128,-552,884,17159.68,27.73,-1.00,-1.0,2366
4279,1834279,16944,-556,1000,16982.59,27.59,-1.00,-1.0,2422
4282,1834282,16980,-624,976,17019.47,27.59,-1.00,-1.0,2376
4287,1834287,17008,-576,868,17039.87,27.59,-1.00,-1.0,2439
4290,1834290,16972,-520,1012,17010.10,27.54,-1.00,-1.0,2368
4292,1834292,17000,-608,920,17035.73,27.68,-1.00,-1.0,2422
4295,1834295,17016,-516,948,17050.20,27.59,-1.00,-1.0,2369
4298,1834298,17068,-580,888,17100.92,27.59,-1.00,-1.0,2429
4301,1834301,16992,-596,844,17023.38,27.59,-1.00,-1.0,2367
4303,1834303,17068,-532,812,17095.58,27.59,-1.00,-1.0,2425
4306,1834306,17080,-640,824,17111.84,27.59,-1.00,-1.0,2369
4311,1834311,16956,-548,1008,16994.77,27.68,-1.00,-1.0,2440
4314,1834314,17008,-504,800,17034.26,27.64,-1.00,-1.0,2368
4316,1834316,17104,-476,892,17133.86,27.68,-1.00,-1.0,2366
4319,1834319,17028,-516,964,17063.07,27.64,-1.00,-1.0,2423
4322,1834322,17064,-620,852,17096.50,27.59,-1.00,-1.0,2377
4325,1834325,17016,-560,944,17051.36,27.64,-1.00,-1.0,2421
4327,1834327,17024,-612,916,17059.61,27.59,-1.00,-1.0,2370
4330,1834330,17036,-604,956,17073.49,27.64,-1.00,-1.0,2437
4333,1834333,16916,-572,900,16949.58,27.64,-1.00,-1.0,2365
4338,1834338,17076,-616,1028,17118.00,27.59,-1.00,-1.0,2447
4341,1834341,17024,-624,928,17060.69,27.59,-1.00,-1.0,2368
4343,1834343,17040,-444,1028,17076.75,27.64,-1.00,-1.0,2426
4346,1834346,17012,-664,960,17052.00,27.59,-1.00,-1.0,2369
4349,1834349,17024,-600,848,17055.66,27.64,-1.00,-1.0,2411
4352,1834352,17020,-500,952,17053.94,27.68,-1.00,-1.0,2368
4354,1834354,17072,-588,892,17105.40,27.64,-1.00,-1.0,2372
4357,1834357,16976,-552,940,17010.96,27.68,-1.00,-1.0,2422
4360,1834360,17036,-540,948,17070.90,27.68,-1.00,-1.0,2367
4365,1834365,16980,-616,1024,17022.00,27.59,-1.00,-1.0,2449
4367,1834367,17080,-540,964,17115.70,27.59,-1.00,-1.0,2378
4370,1834370,17032,-472,1052,17070.98,27.68,-1.00,-1.0,2422
4373,1834373,16996,-544,960,17031.78,27.59,-1.00,-1.0,2372
4376,1834376,17072,-572,852,17102.81,27.59,-1.00,-1.0,2421
4378,1834378,16988,-532,972,17024.10,27.59,-1.00,-1.0,2356
4381,1834381,17004,-592,1152,17053.26,27.59,-1.00,-1.0,2421
4384,1834384,16924,-548,928,16958.28,27.59,-1.00,-1.0,2370
4389,1834389,17004,-588,944,17040.33,27.68,-1.00,-1.0,2439
4392,1834392,17048,-492,880,17077.79,27.59,-1.00,-1.0,2367
4394,1834394,17016,-484,916,17047.51,27.54,-1.00,-1.0,2423
4397,1834397,16996,-564,948,17031.76,27.59,-1.00,-1.0,2372
4400,1834400,17016,-588,956,17052.97,27.64,-1.00,-1.0,2369
4402,1834402,16972,-520,1040,17011.78,27.59,-1.00,-1.0,2431
4405,1834405,17076,-568,960,17112.39,27.64,-1.00,-1.0,2375
4408,1834408,16976,-668,820,17008.92,27.59,-1.00,-1.0,2423
4411,1834411,17000,-556,964,17036.38,27.64,-1.00,-1.0,2367
4415,1834415,16960,-604,1004,17000.42,27.59,-1.00,-1.0,2447
4418,1834418,17000,-512,1016,17038.03,27.59,-1.00,-1.0,2375
4421,1834421,16948,-572,920,16982.59,27.59,-1.00,-1.0,2422
4424,1834424,16968,-524,1044,17008.16,27.59,-1.00,-1.0,2368
4427,1834427,17000,-556,784,17027.15,27.73,-1.00,-1.0,2422
4429,1834429,16992,-464,992,17027.26,27.49,-1.00,-1.0,2370
4432,1834432,17040,-488,920,17071.79,27.64,-1.00,-1.0,2421
4435,1834435,17064,-580,844,17094.70,27.64,-1.00,-1.0,2375
4438,1834438,17036,-612,952,17073.55,27.54,-1.00,-1.0,2374
4443,1834443,17004,-656,852,17037.96,27.64,-1.00,-1.0,2446
4446,1834446,17032,-536,928,17065.68,27.54,-1.00,-1.0,2368
4448,1834448,16996,-580,1052,17038.40,27.64,-1.00,-1.0,2426
4451,1834451,17100,-588,904,17133.97,27.73,-1.00,-1.0,2369
4454,1834454,17052,-528,872,17082.44,27.64,-1.00,-1.0,2428
4457,1834457,17036,-628,972,17075.26,27.64,-1.00,-1.0,2368
4459,1834459,16932,-616,960,16970.38,27.73,-1.00,-1.0,2424
4462,1834462,17028,-508,824,17055.49,27.64,-1.00,-1.0,2369
4467,1834467,17028,-628,900,17063.33,27.64,-1.00,-1.0,2426
4470,1834470,17180,-568,992,17217.99,27.54,-1.00,-1.0,2368
4473,1834473,16996,-532,728,17019.90,27.64,-1.00,-1.0,2423
4475,1834475,17168,-596,1032,17209.31,27.54,-1.00,-1.0,2370
4478,1834478,16984,-620,1020,17025.89,27.68,-1.00,-1.0,2376
4481,1834481,17016,-536,972,17052.17,27.68,-1.00,-1.0,2432
4483,1834483,17096,-560,972,17132.76,27.59,-1.00,-1.0,2373
4486,1834486,16952,-512,1012,16989.90,27.68,-1.00,-1.0,2414
4489,1834489,17132,-568,1068,17174.65,27.59,-1.00,-1.0,2380
4494,1834494,17120,-624,1076,17165.13,27.59,-1.00,-1.0,2447
4497,1834497,16952,-592,940,16988.36,27.59,-1.00,-1.0,2368
4499,1834499,17008,-620,920,17044.14,27.59,-1.00,-1.0,2432
4502,1834502,17088,-528,896,17119.62,27.68,-1.00,-1.0,2376
4505,1834505,17080,-444,908,17109.88,27.54,-1.00,-1.0,2411
4508,1834508,17000,-560,948,17035.62,27.59,-1.00,-1.0,2369
4510,1834510,17004,-568,1008,17043.32,27.54,-1.00,-1.0,2429
4513,1834513,17176,-544,1028,17215.33,27.59,-1.00,-1.0,2376
4518,1834518,17016,-616,968,17054.64,27.59,-1.00,-1.0,2439
4521,1834521,17044,-596,1028,17085.37,27.68,-1.00,-1.0,2377
4523,1834523,17036,-568,888,17068.58,27.64,-1.00,-1.0,2372
4526,1834526,16984,-540,924,17017.69,27.64,-1.00,-1.0,2423
4529,1834529,17004,-624,984,17043.88,27.54,-1.00,-1.0,2371
4532,1834532,17052,-596,1028,17093.35,27.59,-1.00,-1.0,2465
4535,1834535,16956,-496,928,16988.62,27.59,-1.00,-1.0,2373
4537,1834537,16956,-572,972,16993.47,27.64,-1.00,-1.0,2425
4540,1834540,16992,-592,972,17030.07,27.73,-1.00,-1.0,2377
4545,1834545,17012,-616,1000,17052.50,27.64,-1.00,-1.0,2450
4548,1834548,16972,-480,984,17007.28,27.54,-1.00,-1.0,2380
4551,1834551,16988,-680,848,17022.74,27.64,-1.00,-1.0,2427
4553,1834553,16996,-492,944,17029.30,27.54,-1.00,-1.0,2375
4556,1834556,17020,-472,884,17049.48,27.54,-1.00,-1.0,2422
4559,1834559,17008,-592,868,17040.42,27.64,-1.00,-1.0,2369
4562,1834562,17008,-544,844,17037.62,27.68,-1.00,-1.0,2366
4564,1834564,17048,-568,888,17080.56,27.59,-1.00,-1.0,2425
4567,1834567,17108,-500,920,17140.01,27.64,-1.00,-1.0,2370
4572,1834572,17024,-516,1008,17061.62,27.64,-1.00,-1.0,2439
4575,1834575,17020,-596,1056,17063.14,27.59,-1.00,-1.0,2371
4578,1834578,17056,-688,860,17091.52,27.68,-1.00,-1.0,2422
4580,1834580,17140,-616,908,17175.08,27.68,-1.00,-1.0,2356
4583,1834583,17044,-612,940,17080.87,27.68,-1.00,-1.0,2421
4586,1834586,16924,-544,1000,16962.24,27.59,-1.00,-1.0,2368
4589,1834589,17012,-592,932,17047.79,27.59,-1.00,-1.0,2422
4591,1834591,16964,-620,992,17004.29,27.59,-1.00,-1.0,2369
4596,1834596,17080,-612,948,17117.23,27.68,-1.00,-1.0,2440
4599,1834599,17096,-560,936,17130.76,27.64,-1.00,-1.0,2368
4602,1834602,17060,-532,876,17090.76,27.64,-1.00,-1.0,2365
4604,1834604,17032,-604,792,17061.10,27.64,-1.00,-1.0,2432
4607,1834607,17016,-580,948,17052.25,27.54,-1.00,-1.0,2386
4610,1834610,17020,-612,964,17058.26,27.64,-1.00,-1.0,2423
4613,1834613,16980,-616,976,17019.18,27.64,-1.00,-1.0,2369
4615,1834615,16956,-492,964,16990.51,27.59,-1.00,-1.0,2428
4618,1834618,16916,-492,976,16951.27,27.73,-1.00,-1.0,2376
4623,1834623,17104,-532,876,17134.68,27.64,-1.00,-1.0,2442
4626,1834626,17016,-596,912,17050.84,27.49,-1.00,-1.0,2354
4628,1834628,17012,-524,880,17042.80,27.64,-1.00,-1.0,2425
4631,1834631,17196,-592,948,17232.28,27.59,-1.00,-1.0,2369
4634,1834634,16984,-612,956,17021.89,27.64,-1.00,-1.0,2429
4637,1834637,17028,-680,992,17070.42,27.68,-1.00,-1.0,2369
4639,1834639,16992,-524,836,17020.62,27.64,-1.00,-1.0,2370
4642,1834642,16960,-556,1040,17000.95,27.49,-1.00,-1.0,2421
4645,1834645,17020,-568,964,17056.74,27.59,-1.00,-1.0,2367
4650,1834650,16992,-608,924,17027.96,27.64,-1.00,-1.0,2439
4653,1834653,16956,-580,928,16991.28,27.68,-1.00,-1.0,2369
4656,1834656,17012,-600,988,17051.22,27.49,-1.00,-1.0,2422
4658,1834658,16976,-600,1016,17016.96,27.68,-1.00,-1.0,2370
4661,1834661,17088,-556,896,17120.51,27.59,-1.00,-1.0,2421
4664,1834664,17076,-508,944,17109.62,27.59,-1.00,-1.0,2370
4667,1834667,17020,-508,876,17050.10,27.59,-1.00,-1.0,2421
4669,1834669,17064,-532,968,17099.71,27.68,-1.00,-1.0,2373
4674,1834674,17020,-556,904,17053.06,27.59,-1.00,-1.0,2434
4677,1834677,17060,-548,920,17093.57,27.64,-1.00,-1.0,2371
4680,1834680,17044,-548,972,17080.49,27.68,-1.00,-1.0,2365
4682,1834682,16960,-492,884,16990.15,27.54,-1.00,-1.0,2422
4685,1834685,17048,-592,984,17086.63,27.59,-1.00,-1.0,2372
4688,1834688,17048,-568,1080,17091.62,27.64,-1.00,-1.0,2429
4691,1834691,16940,-548,1148,16987.70,27.59,-1.00,-1.0,2368
4693,1834693,16968,-504,904,16999.54,27.54,-1.00,-1.0,2423
4696,1834696,17032,-512,976,17067.62,27.54,-1.00,-1.0,2369
4701,1834701,17020,-552,976,17056.89,27.54,-1.00,-1.0,2440
4704,1834704,17008,-580,900,17041.67,27.68,-1.00,-1.0,2367
4707,1834707,16992,-524,908,17024.31,27.64,-1.00,-1.0,2422
4709,1834709,17036,-488,840,17063.68,27.64,-1.00,-1.0,2368
4712,1834712,16996,-628,1068,17041.10,27.64,-1.00,-1.0,2421
4715,1834715,17000,-616,928,17036.45,27.64,-1.00,-1.0,2371
4717,1834717,17092,-676,960,17132.28,27.64,-1.00,-1.0,2369
4720,1834720,16928,-564,996,16966.65,27.68,-1.00,-1.0,2430
4723,1834723,17060,-604,832,17090.95,27.54,-1.00,-1.0,2369
4728,1834728,17084,-588,844,17114.94,27.54,-1.00,-1.0,2440
4731,1834731,17000,-632,1056,17044.49,27.64,-1.00,-1.0,2367
4734,1834734,16904,-620,1052,16948.05,27.64,-1.00,-1.0,2422
4736,1834736,17072,-460,756,17094.92,27.64,-1.00,-1.0,2369
4739,1834739,17020,-572,1024,17060.37,27.64,-1.00,-1.0,2421
4742,1834742,17068,-652,1004,17109.93,27.64,-1.00,-1.0,2368
4745,1834745,17060,-476,1052,17099.03,27.73,-1.00,-1.0,2421
4747,1834747,17012,-596,916,17047.06,27.64,-1.00,-1.0,2369
4752,1834752,17032,-496,876,17061.72,27.64,-1.00,-1.0,2440
4755,1834755,16996,-508,896,17027.18,27.64,-1.00,-1.0,2367
4758,1834758,16980,-556,1000,17018.51,27.54,-1.00,-1.0,2429
4761,1834761,16988,-496,884,17018.21,27.64,-1.00,-1.0,2368
4763,1834763,17020,-500,856,17048.85,27.68,-1.00,-1.0,2366
4766,1834766,17136,-452,1016,17172.04,27.59,-1.00,-1.0,2430
4769,1834769,16948,-592,856,16979.93,27.68,-1.00,-1.0,2368
4771,1834771,16904,-536,948,16939.04,27.68,-1.00,-1.0,2431
4774,1834774,16996,-584,1008,17035.88,27.59,-1.00,-1.0,2384
4779,1834779,17164,-596,848,17195.27,27.59,-1.00,-1.0,2440
4782,1834782,17040,-548,924,17073.83,27.54,-1.00,-1.0,2372
4785,1834785,17016,-588,1036,17057.65,27.49,-1.00,-1.0,2434
4787,1834787,16924,-496,920,16956.24,27.68,-1.00,-1.0,2373
4790,1834790,17040,-556,952,17075.63,27.59,-1.00,-1.0,2431
4793,1834793,17004,-524,992,17040.97,27.59,-1.00,-1.0,2376
4796,1834796,17080,-584,968,17117.37,27.64,-1.00,-1.0,2432
4798,1834798,17008,-564,844,17038.27,27.59,-1.00,-1.0,2378
4801,1834801,16980,-452,912,17010.48,27.59,-1.00,-1.0,2373
4806,1834806,17008,-512,912,17040.13,27.64,-1.00,-1.0,2440
4809,1834809,17072,-584,924,17106.96,27.73,-1.00,-1.0,2371
4812,1834812,17052,-668,884,17087.96,27.54,-1.00,-1.0,2423
4814,1834814,17044,-552,944,17079.04,27.64,-1.00,-1.0,2368
4817,1834817,17012,-668,924,17050.17,27.64,-1.00,-1.0,2421
4820,1834820,17096,-560,984,17133.45,27.64,-1.00,-1.0,2368
4823,1834823,16872,-592,920,16907.43,27.54,-1.00,-1.0,2422
4825,1834825,16888,-532,1000,16925.94,27.54,-1.00,-1.0,2369
4830,1834830,16992,-556,924,17026.19,27.59,-1.00,-1.0,2448
4833,1834833,16952,-524,956,16987.02,27.59,-1.00,-1.0,2368
4835,1834835,16944,-604,916,16979.49,27.54,-1.00,-1.0,2431
4838,1834838,17008,-632,1000,17049.09,27.54,-1.00,-1.0,2383
4841,1834841,17056,-592,764,17083.36,27.64,-1.00,-1.0,2366
4844,1834844,17040,-500,800,17066.10,27.68,-1.00,-1.0,2421
4846,1834846,17020,-576,1064,17062.95,27.59,-1.00,-1.0,2373
4849,1834849,17084,-652,1000,17125.66,27.64,-1.00,-1.0,2422
4852,1834852,17008,-684,1020,17052.28,27.54,-1.00,-1.0,2369
4857,1834857,17076,-556,916,17109.59,27.64,-1.00,-1.0,2447
4860,1834860,17072,-532,956,17107.02,27.54,-1.00,-1.0,2370
4863,1834863,17020,-604,848,17051.81,27.64,-1.00,-1.0,2422
4865,1834865,17156,-588,932,17191.36,27.64,-1.00,-1.0,2376
4868,1834868,17044,-548,1000,17082.10,27.68,-1.00,-1.0,2421
4871,1834871,17032,-588,1088,17076.84,27.54,-1.00,-1.0,2371
4874,1834874,17068,-516,928,17101.00,27.64,-1.00,-1.0,2423
4876,1834876,16948,-592,808,16977.57,27.64,-1.00,-1.0,2374
4879,1834879,17056,-548,880,17087.48,27.59,-1.00,-1.0,2366
4884,1834884,17052,-544,952,17087.21,27.54,-1.00,-1.0,2440
4887,1834887,17080,-572,892,17112.84,27.45,-1.00,-1.0,2356
4890,1834890,17084,-456,1044,17121.94,27.64,-1.00,-1.0,2423
4892,1834892,17004,-612,920,17039.86,27.64,-1.00,-1.0,2370
4895,1834895,17016,-596,956,17053.25,27.59,-1.00,-1.0,2421
4898,1834898,16944,-512,968,16979.35,27.64,-1.00,-1.0,2369
4901,1834901,16904,-564,996,16942.71,27.64,-1.00,-1.0,2424
4903,1834903,17080,-532,968,17115.68,27.64,-1.00,-1.0,2370
4908,1834908,16996,-584,960,17033.11,27.54,-1.00,-1.0,2447
4911,1834911,16940,-460,876,16968.87,27.64,-1.00,-1.0,2375
4914,1834914,17032,-608,836,17063.34,27.59,-1.00,-1.0,2422
4917,1834917,16932,-636,1092,16979.09,27.64,-1.00,-1.0,2369
4919,1834919,17036,-500,872,17065.63,27.68,-1.00,-1.0,2366
4922,1834922,17124,-656,1020,17166.89,27.54,-1.00,-1.0,2422
4925,1834925,17060,-600,996,17099.58,27.59,-1.00,-1.0,2376
4928,1834928,17032,-632,988,17072.33,27.54,-1.00,-1.0,2422
4930,1834930,17116,-592,952,17152.67,27.59,-1.00,-1.0,2369
4935,1834935,17056,-512,812,17082.99,27.59,-1.00,-1.0,2443
4938,1834938,17012,-592,976,17050.25,27.68,-1.00,-1.0,2366
4941,1834941,17012,-532,1016,17050.61,27.64,-1.00,-1.0,2431
4944,1834944,16968,-592,936,17004.11,27.68,-1.00,-1.0,2367
4946,1834946,17020,-524,912,17052.47,27.54,-1.00,-1.0,2423
4949,1834949,16996,-636,916,17032.54,27.59,-1.00,-1.0,2368
4952,1834952,16956,-536,860,16986.25,27.64,-1.00,-1.0,2424
4955,1834955,17024,-664,992,17065.80,27.68,-1.00,-1.0,2367
4960,1834960,16980,-504,984,17015.95,27.49,-1.00,-1.0,2440
4962,1834962,17000,-540,796,17027.19,27.59,-1.00,-1.0,2368
4965,1834965,16972,-608,988,17011.60,27.64,-1.00,-1.0,2376
4968,1834968,17020,-496,1060,17060.19,27.54,-1.00,-1.0,2434
4970,1834970,17044,-620,860,17076.94,27.64,-1.00,-1.0,2371
4973,1834973,17008,-544,936,17042.42,27.59,-1.00,-1.0,2430
4976,1834976,16956,-504,924,16988.63,27.64,-1.00,-1.0,2372
4979,1834979,17000,-576,920,17034.62,27.68,-1.00,-1.0,2431
4981,1834981,17016,-544,852,17046.00,27.59,-1.00,-1.0,2376
4986,1834986,17040,-668,992,17081.92,27.59,-1.00,-1.0,2448
4989,1834989,17000,-548,944,17035.01,27.68,-1.00,-1.0,2379
4992,1834992,17048,-544,924,17081.69,27.68,-1.00,-1.0,2423
4995,1834995,16964,-612,864,16997.01,27.64,-1.00,-1.0,2372
4997,1834997,16964,-484,1068,17004.47,27.59,-1.00,-1.0,2424
5000,1835000,17040,-536,896,17071.96,27.68,-1.00,-1.0,2373
5003,1835003,17044,-608,1008,17084.60,27.64,-1.00,-1.0,2367
5006,1835006,17000,-476,900,17030.46,27.64,-1.00,-1.0,2421
5008,1835008,16976,-556,976,17013.12,27.68,-1.00,-1.0,2374
5014,1835014,17044,-564,908,17077.48,27.68,-1.00,-1.0,2453
5017,1835017,16920,-508,912,16952.17,27.68,-1.00,-1.0,2367
5020,1835020,17052,-580,876,17084.33,27.64,-1.00,-1.0,2424
5022,1835022,17048,-624,960,17086.41,27.59,-1.00,-1.0,2370
5025,1835025,16968,-584,876,17000.63,27.64,-1.00,-1.0,2423
5028,1835028,16840,-572,848,16871.04,27.68,-1.00,-1.0,2372
5031,1835031,16968,-532,856,16997.91,27.54,-1.00,-1.0,2422
5033,1835033,17056,-564,932,17090.75,27.59,-1.00,-1.0,2355
5038,1835038,17060,-596,980,17098.52,27.59,-1.00,-1.0,2454
5041,1835041,16976,-532,924,17009.45,27.68,-1.00,-1.0,2375
5044,1835044,16996,-452,1016,17032.34,27.54,-1.00,-1.0,2365
5046,1835046,17052,-496,948,17085.53,27.64,-1.00,-1.0,2423
5049,1835049,17016,-560,952,17051.81,27.64,-1.00,-1.0,2369
5052,1835052,16996,-496,868,17025.38,27.64,-1.00,-1.0,2430
5055,1835055,17020,-580,1036,17061.36,27.64,-1.00,-1.0,2368
5057,1835057,16996,-604,916,17031.38,27.64,-1.00,-1.0,2422
5060,1835060,16912,-600,900,16946.55,27.64,-1.00,-1.0,2372
5065,1835065,17008,-536,920,17041.29,27.64,-1.00,-1.0,2440
5068,1835068,16988,-528,884,17019.18,27.59,-1.00,-1.0,2368
5071,1835071,17072,-536,972,17108.05,27.64,-1.00,-1.0,2423
5073,1835073,17036,-568,800,17064.23,27.64,-1.00,-1.0,2369
5076,1835076,17000,-508,932,17033.11,27.64,-1.00,-1.0,2421
5079,1835079,16952,-508,952,16986.31,27.64,-1.00,-1.0,2370
5081,1835081,17008,-556,856,17038.60,27.54,-1.00,-1.0,2367
5084,1835084,17020,-528,952,17054.78,27.68,-1.00,-1.0,2421
5087,1835087,17056,-532,1044,17096.20,27.64,-1.00,-1.0,2376
5092,1835092,17044,-600,836,17075.04,27.64,-1.00,-1.0,2447
5095,1835095,16968,-476,892,16998.10,27.54,-1.00,-1.0,2368
5097,1835097,16976,-592,952,17012.98,27.68,-1.00,-1.0,2424
5100,1835100,17036,-472,924,17067.57,27.45,-1.00,-1.0,2369
5103,1835103,17032,-552,912,17065.33,27.68,-1.00,-1.0,2424
5106,1835106,16968,-492,1008,17005.03,27.73,-1.00,-1.0,2368
5108,1835108,16980,-556,908,17013.35,27.68,-1.00,-1.0,2423
5111,1835111,17076,-588,920,17110.87,27.64,-1.00,-1.0,2369
5116,1835116,16976,-516,972,17011.63,27.54,-1.00,-1.0,2440
5119,1835119,17060,-568,904,17093.38,27.64,-1.00,-1.0,2367
5121,1835121,16964,-536,860,16994.24,27.64,-1.00,-1.0,2424
5124,1835124,17088,-600,948,17124.79,27.68,-1.00,-1.0,2436
5127,1835127,17120,-520,896,17151.31,27.59,-1.00,-1.0,2369
5130,1835130,17056,-592,876,17088.74,27.68,-1.00,-1.0,2431
5133,1835133,17044,-504,836,17071.93,27.54,-1.00,-1.0,2368
5135,1835135,16944,-476,868,16972.89,27.59,-1.00,-1.0,2424
5138,1835138,16924,-568,872,16955.97,27.59,-1.00,-1.0,2369
5143,1835143,17000,-608,908,17035.09,27.64,-1.00,-1.0,2419
5146,1835146,17048,-516,1052,17088.22,27.64,-1.00,-1.0,2368
5149,1835149,17024,-520,1000,17061.27,27.64,-1.00,-1.0,2430
5151,1835151,17008,-536,828,17036.58,27.68,-1.00,-1.0,2369
5154,1835154,17056,-616,916,17091.68,27.59,-1.00,-1.0,2422
5157,1835157,16996,-560,928,17030.53,27.64,-1.00,-1.0,2367
5159,1835159,16988,-508,968,17023.14,27.59,-1.00,-1.0,2370
5162,1835162,17016,-416,976,17049.04,27.64,-1.00,-1.0,2437
5165,1835165,17008,-576,980,17045.95,27.64,-1.00,-1.0,2377
5170,1835170,17056,-572,920,17090.37,27.68,-1.00,-1.0,2434
5173,1835173,17004,-576,876,17036.29,27.68,-1.00,-1.0,2369
5175,1835175,17000,-604,844,17031.65,27.64,-1.00,-1.0,2432
5178,1835178,17004,-572,1036,17045.13,27.59,-1.00,-1.0,2369
5181,1835181,17028,-480,968,17062.24,27.64,-1.00,-1.0,2429
5184,1835184,17052,-568,924,17086.46,27.59,-1.00,-1.0,2369
5186,1835186,17072,-456,944,17104.16,27.64,-1.00,-1.0,2428
5189,1835189,16996,-604,916,17031.38,27.68,-1.00,-1.0,2369
5194,1835194,16992,-564,1016,17031.69,27.59,-1.00,-1.0,2433
5197,1835197,17060,-644,872,17094.41,27.68,-1.00,-1.0,2368
5199,1835199,17024,-584,1016,17064.29,27.54,-1.00,-1.0,2367
5202,1835202,16936,-552,888,16968.25,27.54,-1.00,-1.0,2438
5205,1835205,17044,-616,948,17081.46,27.64,-1.00,-1.0,2376
5208,1835208,17080,-652,824,17112.29,27.68,-1.00,-1.0,2431
5210,1835210,16996,-576,808,17024.94,27.64,-1.00,-1.0,2376
5213,1835213,17088,-656,876,17123.01,27.68,-1.00,-1.0,2422
5216,1835216,17032,-512,860,17061.38,27.64,-1.00,-1.0,2369
5221,1835221,16984,-508,988,17020.29,27.68,-1.00,-1.0,2431
5223,1835223,17032,-672,988,17073.86,27.54,-1.00,-1.0,2374
5226,1835226,17124,-604,876,17157.03,27.59,-1.00,-1.0,2423
5229,1835229,17028,-580,996,17066.96,27.59,-1.00,-1.0,2373
5232,1835232,17052,-496,1032,17090.40,27.59,-1.00,-1.0,2427
5235,1835235,17048,-580,912,17082.23,27.68,-1.00,-1.0,2372
5237,1835237,17008,-512,860,17037.42,27.64,-1.00,-1.0,2366
5240,1835240,17148,-524,948,17182.18,27.64,-1.00,-1.0,2429
5243,1835243,16956,-516,948,16990.32,27.73,-1.00,-1.0,2368
5247,1835247,17072,-556,760,17097.95,27.68,-1.00,-1.0,2418
5250,1835250,17036,-532,820,17064.02,27.49,-1.00,-1.0,2367
5253,1835253,17012,-520,1048,17052.18,27.49,-1.00,-1.0,2428
5256,1835256,17096,-536,908,17128.48,27.49,-1.00,-1.0,2367
5258,1835258,16956,-532,816,16983.96,27.64,-1.00,-1.0,2423
5261,1835261,17068,-604,960,17105.64,27.59,-1.00,-1.0,2356
5264,1835264,17080,-512,1012,17117.61,27.64,-1.00,-1.0,2429
5267,1835267,17044,-544,864,17074.55,27.54,-1.00,-1.0,2376
5272,1835272,17072,-544,1008,17110.38,27.54,-1.00,-1.0,2432
5274,1835274,17040,-620,900,17075.01,27.54,-1.00,-1.0,2370
5277,1835277,17020,-496,1060,17060.19,27.59,-1.00,-1.0,2366
5280,1835280,16916,-580,908,16950.28,27.68,-1.00,-1.0,2429
5282,1835282,17012,-564,928,17046.62,27.68,-1.00,-1.0,2370
5285,1835285,17064,-624,844,17096.25,27.64,-1.00,-1.0,2455
5288,1835288,16992,-500,920,17024.23,27.64,-1.00,-1.0,2378
5291,1835291,17008,-524,960,17043.13,27.59,-1.00,-1.0,2428
5294,1835294,17000,-572,916,17034.27,27.68,-1.00,-1.0,2375
5299,1835299,17048,-588,824,17078.03,27.59,-1.00,-1.0,2442
5301,1835301,17096,-572,968,17132.93,27.64,-1.00,-1.0,2374
5304,1835304,17056,-488,1012,17092.96,27.59,-1.00,-1.0,2441
5307,1835307,17020,-552,1000,17058.29,27.59,-1.00,-1.0,2359
5310,1835310,16996,-596,948,17032.85,27.59,-1.00,-1.0,2433
5312,1835312,16984,-536,952,17019.10,27.68,-1.00,-1.0,2377
5315,1835315,17008,-568,920,17042.33,27.68,-1.00,-1.0,2423
5318,1835318,16996,-544,932,17030.22,27.59,-1.00,-1.0,2373
5321,1835321,17068,-568,888,17100.52,27.59,-1.00,-1.0,2371
5326,1835326,17020,-556,1036,17060.56,27.68,-1.00,-1.0,2440
5328,1835328,17052,-648,920,17089.09,27.59,-1.00,-1.0,2378
5331,1835331,16992,-564,936,17027.10,27.54,-1.00,-1.0,2432
5334,1835334,17052,-608,956,17089.60,27.68,-1.00,-1.0,2370
5337,1835337,17056,-492,968,17090.53,27.64,-1.00,-1.0,2423
5339,1835339,16944,-588,1012,16984.38,27.59,-1.00,-1.0,2375
5342,1835342,17108,-548,892,17140.00,27.64,-1.00,-1.0,2459
5345,1835345,16956,-624,1040,16999.32,27.59,-1.00,-1.0,2381
5350,1835350,17024,-540,936,17058.26,27.59,-1.00,-1.0,2432
5353,1835353,17008,-484,928,17040.17,27.59,-1.00,-1.0,2377
5356,1835356,17028,-528,940,17062.10,27.59,-1.00,-1.0,2443
5358,1835358,17080,-632,952,17118.18,27.59,-1.00,-1.0,2379
5361,1835361,17040,-496,976,17075.13,27.54,-1.00,-1.0,2367
5364,1835364,17176,-560,1032,17216.09,27.64,-1.00,-1.0,2428
5367,1835367,17076,-532,916,17108.82,27.54,-1.00,-1.0,2368
5369,1835369,16976,-632,892,17011.16,27.73,-1.00,-1.0,2422
5372,1835372,17008,-496,952,17041.84,27.64,-1.00,-1.0,2369
5377,1835377,17036,-572,820,17065.31,27.64,-1.00,-1.0,2432
5380,1835380,17048,-592,996,17087.33,27.54,-1.00,-1.0,2371
5383,1835383,17052,-440,920,17082.47,27.64,-1.00,-1.0,2430
5385,1835385,17124,-536,1076,17166.14,27.64,-1.00,-1.0,2370
5388,1835388,16992,-480,872,17021.13,27.64,-1.00,-1.0,2421
5391,1835391,17044,-504,928,17076.68,27.64,-1.00,-1.0,2368
5394,1835394,17088,-516,800,17114.50,27.64,-1.00,-1.0,2421
5396,1835396,16980,-556,788,17007.37,27.64,-1.00,-1.0,2373
5399,1835399,17000,-504,1036,17038.99,27.59,-1.00,-1.0,2377
5404,1835404,17056,-516,1040,17095.47,27.59,-1.00,-1.0,2435
5407,1835407,17084,-616,936,17120.71,27.59,-1.00,-1.0,2368
5409,1835409,16988,-608,980,17027.10,27.68,-1.00,-1.0,2430
5412,1835412,16964,-500,1004,17001.04,27.59,-1.00,-1.0,2371
5415,1835415,17028,-540,980,17064.72,27.49,-1.00,-1.0,2429
5418,1835418,17028,-564,904,17061.30,27.59,-1.00,-1.0,2369
5420,1835420,17072,-576,944,17107.78,27.54,-1.00,-1.0,2438
5423,1835423,17052,-672,792,17083.61,27.59,-1.00,-1.0,2369
5428,1835428,17072,-532,876,17102.74,27.64,-1.00,-1.0,2440
5431,1835431,17140,-512,996,17176.55,27.49,-1.00,-1.0,2375
5433,1835433,17004,-588,816,17033.72,27.64,-1.00,-1.0,2432
5436,1835436,16996,-624,812,17026.82,27.54,-1.00,-1.0,2373
5439,1835439,17048,-620,900,17082.99,27.68,-1.00,-1.0,2367
5442,1835442,16960,-520,956,16994.88,27.68,-1.00,-1.0,2422
5444,1835444,17000,-568,960,17036.55,27.54,-1.00,-1.0,2369
5447,1835447,17012,-480,884,17041.71,27.68,-1.00,-1.0,2421
5450,1835450,16968,-600,960,17005.72,27.49,-1.00,-1.0,2376
5455,1835455,16980,-588,908,17014.42,27.73,-1.00,-1.0,2438
5457,1835457,17100,-676,900,17137.01,27.54,-1.00,-1.0,2378
5460,1835460,16932,-620,844,16964.36,27.64,-1.00,-1.0,2428
5463,1835463,16996,-512,932,17029.23,27.54,-1.00,-1.0,2356
5466,1835466,17016,-624,884,17050.37,27.54,-1.00,-1.0,2422
5468,1835468,17012,-548,912,17045.24,27.64,-1.00,-1.0,2376
5471,1835471,17060,-656,1000,17101.87,27.54,-1.00,-1.0,2422
5474,1835474,17140,-572,1024,17180.09,27.54,-1.00,-1.0,2359
5477,1835477,17008,-588,1000,17047.52,27.68,-1.00,-1.0,2369
5482,1835482,17036,-504,876,17065.95,27.68,-1.00,-1.0,2438
5485,1835485,17000,-624,952,17038.07,27.59,-1.00,-1.0,2368
5487,1835487,17028,-628,956,17066.37,27.49,-1.00,-1.0,2432
5490,1835490,16976,-544,1040,17016.53,27.59,-1.00,-1.0,2370
5493,1835493,17008,-536,860,17038.16,27.64,-1.00,-1.0,2424
5496,1835496,16948,-624,988,16988.24,27.59,-1.00,-1.0,2368
5498,1835498,17116,-544,772,17142.04,27.54,-1.00,-1.0,2422
5501,1835501,17048,-580,932,17083.30,27.59,-1.00,-1.0,2369
5506,1835506,17060,-476,748,17083.02,27.68,-1.00,-1.0,2431
5509,1835509,17036,-512,1036,17075.15,27.59,-1.00,-1.0,2368
5512,1835512,17028,-564,996,17066.43,27.59,-1.00,-1.0,2429
5514,1835514,16988,-580,1044,17029.93,27.59,-1.00,-1.0,2370
5517,1835517,17032,-584,992,17070.86,27.64,-1.00,-1.0,2377
5520,1835520,17104,-616,972,17142.67,27.54,-1.00,-1.0,2436
5522,1835522,17052,-544,924,17085.68,27.64,-1.00,-1.0,2372
5525,1835525,16956,-632,764,16984.96,27.64,-1.00,-1.0,2431
5528,1835528,16992,-608,788,17021.12,27.54,-1.00,-1.0,2377
5533,1835533,17056,-568,956,17092.21,27.68,-1.00,-1.0,2456
5536,1835536,17028,-588,768,17055.45,27.59,-1.00,-1.0,2368
5539,1835539,17024,-668,892,17060.44,27.68,-1.00,-1.0,2428
5541,1835541,17016,-604,748,17043.14,27.68,-1.00,-1.0,2369
5544,1835544,17084,-532,996,17121.28,27.54,-1.00,-1.0,2423
5547,1835547,17116,-568,912,17149.69,27.59,-1.00,-1.0,2370
5550,1835550,17028,-596,852,17059.72,27.54,-1.00,-1.0,2422
5552,1835552,17036,-536,892,17067.75,27.49,-1.00,-1.0,2369
5555,1835555,17040,-648,844,17073.19,27.68,-1.00,-1.0,2369
5560,1835560,17076,-532,928,17109.47,27.64,-1.00,-1.0,2442
5563,1835563,17000,-612,916,17035.66,27.64,-1.00,-1.0,2367
5565,1835565,17020,-580,848,17050.98,27.59,-1.00,-1.0,2436
5568,1835568,17160,-620,836,17191.54,27.64,-1.00,-1.0,2376
5571,1835571,17032,-544,1020,17071.19,27.68,-1.00,-1.0,2412
5574,1835574,17076,-524,928,17109.22,27.54,-1.00,-1.0,2371
5576,1835576,17060,-640,960,17098.97,27.59,-1.00,-1.0,2433
5579,1835579,17028,-652,888,17063.60,27.64,-1.00,-1.0,2375
5584,1835584,17044,-516,988,17080.41,27.64,-1.00,-1.0,2435
5587,1835587,16984,-560,924,17018.33,27.64,-1.00,-1.0,2376
5590,1835590,17040,-600,948,17076.89,27.40,-1.00,-1.0,2428
5592,1835592,17092,-624,804,17122.27,27.64,-1.00,-1.0,2370
5595,1835595,17092,-592,968,17129.62,27.59,-1.00,-1.0,2369
5598,1835598,16992,-556,1016,17031.43,27.64,-1.00,-1.0,2425
5600,1835600,17016,-604,940,17052.64,27.68,-1.00,-1.0,2370
5603,1835603,16988,-564,992,17026.28,27.64,-1.00,-1.0,2422
5606,1835606,17048,-572,1044,17089.51,27.59,-1.00,-1.0,2372
5611,1835611,17060,-572,912,17093.93,27.68,-1.00,-1.0,2422
5614,1835614,16964,-668,852,16998.51,27.49,-1.00,-1.0,2373
5616,1835616,17012,-492,964,17046.39,27.59,-1.00,-1.0,2429
5619,1835619,16964,-568,960,17000.63,27.59,-1.00,-1.0,2382
5622,1835622,17088,-520,884,17118.75,27.64,-1.00,-1.0,2430
5625,1835625,17056,-500,872,17085.59,27.59,-1.00,-1.0,2368
5628,1835628,17088,-560,992,17125.93,27.54,-1.00,-1.0,2425
5630,1835630,17036,-616,936,17072.81,27.59,-1.00,-1.0,2356
5633,1835633,17036,-668,1104,17084.80,27.64,-1.00,-1.0,2355
5638,1835638,17024,-588,1060,17067.10,27.64,-1.00,-1.0,2442
5641,1835641,17052,-616,940,17089.00,27.64,-1.00,-1.0,2371
5643,1835643,17004,-604,960,17041.79,27.59,-1.00,-1.0,2430
5646,1835646,16992,-660,916,17029.47,27.64,-1.00,-1.0,2368
5649,1835649,17052,-644,968,17091.59,27.68,-1.00,-1.0,2428
5652,1835652,16996,-516,940,17029.79,27.54,-1.00,-1.0,2355
5654,1835654,17080,-520,880,17110.56,27.59,-1.00,-1.0,2424
5657,1835657,17080,-532,852,17109.51,27.64,-1.00,-1.0,2369
5662,1835662,17000,-556,1044,17041.10,27.64,-1.00,-1.0,2438
5664,1835664,17068,-608,888,17101.90,27.64,-1.00,-1.0,2378
5667,1835667,17000,-576,952,17036.38,27.64,-1.00,-1.0,2427
5670,1835670,16972,-544,1016,17011.08,27.64,-1.00,-1.0,2422
5673,1835673,17020,-556,916,17053.70,27.64,-1.00,-1.0,2424
5676,1835676,16964,-636,992,17004.88,27.54,-1.00,-1.0,2374
5678,1835678,17032,-608,888,17065.97,27.73,-1.00,-1.0,2367
5681,1835681,17016,-604,896,17050.28,27.64,-1.00,-1.0,2417
5684,1835684,16928,-600,904,16962.74,27.64,-1.00,-1.0,2374
5689,1835689,17008,-584,1068,17051.50,27.64,-1.00,-1.0,2435
5692,1835692,17092,-472,984,17126.81,27.64,-1.00,-1.0,2368
5695,1835695,17036,-588,1028,17077.11,27.68,-1.00,-1.0,2416
5697,1835697,17088,-524,1040,17127.64,27.54,-1.00,-1.0,2369
5700,1835700,17060,-508,992,17096.37,27.64,-1.00,-1.0,2422
5703,1835703,16992,-536,928,17025.76,27.64,-1.00,-1.0,2368
5706,1835706,17008,-616,972,17046.88,27.49,-1.00,-1.0,2409
5708,1835708,17020,-560,788,17047.43,27.54,-1.00,-1.0,2369
5713,1835713,17072,-616,1004,17112.59,27.54,-1.00,-1.0,2435
5716,1835716,16992,-568,916,17026.15,27.64,-1.00,-1.0,2373
5719,1835719,17144,-604,888,17177.60,27.68,-1.00,-1.0,2365
5721,1835721,17008,-560,968,17044.73,27.64,-1.00,-1.0,2441
5724,1835724,16956,-668,860,16990.93,27.68,-1.00,-1.0,2369
5727,1835727,17084,-496,920,17115.94,27.64,-1.00,-1.0,2433
5730,1835730,17008,-576,964,17045.03,27.59,-1.00,-1.0,2369
5732,1835732,17072,-656,972,17112.23,27.64,-1.00,-1.0,2431
5735,1835735,17008,-532,1016,17046.62,27.68,-1.00,-1.0,2376
5740,1835740,17024,-540,860,17054.26,27.59,-1.00,-1.0,2434
5743,1835743,17012,-568,992,17050.36,27.68,-1.00,-1.0,2376
5746,1835746,17124,-544,924,17157.54,27.64,-1.00,-1.0,2432
5748,1835748,17080,-544,908,17112.77,27.59,-1.00,-1.0,2375
5751,1835751,16972,-560,900,17005.07,27.64,-1.00,-1.0,2436
5754,1835754,16964,-608,828,16995.07,27.73,-1.00,-1.0,2376
5757,1835757,17000,-584,1084,17044.53,27.54,-1.00,-1.0,2369
5759,1835759,17092,-660,804,17123.62,27.59,-1.00,-1.0,2422
5762,1835762,17048,-532,924,17081.31,27.54,-1.00,-1.0,2377
5767,1835767,17036,-588,1044,17078.08,27.64,-1.00,-1.0,2434
5770,1835770,17044,-564,1044,17085.26,27.59,-1.00,-1.0,2377
5773,1835773,17048,-616,920,17083.92,27.64,-1.00,-1.0,2437
5775,1835775,17072,-616,976,17110.97,27.64,-1.00,-1.0,2371
5778,1835778,17044,-624,1000,17084.71,27.64,-1.00,-1.0,2435
5781,1835781,17132,-632,956,17170.29,27.64,-1.00,-1.0,2375
5784,1835784,17016,-620,928,17052.56,27.73,-1.00,-1.0,2435
5786,1835786,16980,-536,904,17012.49,27.64,-1.00,-1.0,2376
5791,1835791,17172,-604,984,17210.77,27.64,-1.00,-1.0,2437
5794,1835794,16988,-532,1028,17027.39,27.73,-1.00,-1.0,2364
5797,1835797,17052,-572,980,17089.71,27.64,-1.00,-1.0,2367
5800,1835800,17076,-512,972,17111.30,27.59,-1.00,-1.0,2427
5802,1835802,17016,-572,772,17043.11,27.59,-1.00,-1.0,2369
5805,1835805,17024,-604,1024,17065.46,27.68,-1.00,-1.0,2421
5808,1835808,16992,-632,988,17032.43,27.68,-1.00,-1.0,2368
5811,1835811,17072,-620,956,17109.98,27.59,-1.00,-1.0,2421
5813,1835813,16984,-592,700,17008.72,27.68,-1.00,-1.0,2369
5818,1835818,17124,-544,968,17159.96,27.68,-1.00,-1.0,2442
5821,1835821,17056,-584,956,17092.75,27.54,-1.00,-1.0,2369
5824,1835824,17004,-604,1108,17050.76,27.59,-1.00,-1.0,2422
5826,1835826,16976,-540,952,17011.25,27.49,-1.00,-1.0,2374
5829,1835829,17088,-512,920,17120.41,27.59,-1.00,-1.0,2427
5832,1835832,17032,-652,1008,17074.26,27.59,-1.00,-1.0,2370
5835,1835835,17044,-532,800,17071.06,27.68,-1.00,-1.0,2421
5837,1835837,17104,-568,808,17132.49,27.49,-1.00,-1.0,2356
5840,1835840,17012,-512,868,17041.82,27.59,-1.00,-1.0,2368
5847,1835847,17048,-624,856,17080.88,27.59,-1.00,-1.0,2435
5850,1835850,17008,-544,1004,17046.29,27.68,-1.00,-1.0,2369
5853,1835853,17060,-600,1016,17100.76,27.59,-1.00,-1.0,2427
5855,1835855,16968,-544,808,16995.94,27.68,-1.00,-1.0,2369
5858,1835858,17100,-544,808,17127.72,27.73,-1.00,-1.0,2421
5861,1835861,16976,-540,972,17012.38,27.59,-1.00,-1.0,2367
5864,1835864,16964,-552,916,16997.68,27.64,-1.00,-1.0,2421
5866,1835866,17044,-632,924,17080.72,27.68,-1.00,-1.0,2369
5871,1835871,17140,-616,972,17178.59,27.64,-1.00,-1.0,2421
5874,1835874,17040,-628,1036,17083.01,27.68,-1.00,-1.0,2374
5876,1835876,17020,-564,820,17049.07,27.49,-1.00,-1.0,2430
5879,1835879,17044,-568,872,17075.74,27.59,-1.00,-1.0,2372
5882,1835882,17108,-616,928,17144.22,27.64,-1.00,-1.0,2367
5885,1835885,17028,-552,824,17056.86,27.73,-1.00,-1.0,2422
5887,1835887,16900,-636,948,16938.51,27.64,-1.00,-1.0,2369
5890,1835890,17000,-532,856,17029.85,27.64,-1.00,-1.0,2421
5893,1835893,17052,-656,1016,17094.83,27.54,-1.00,-1.0,2369
5898,1835898,17060,-596,980,17098.52,27.68,-1.00,-1.0,2435
5901,1835901,17036,-708,948,17077.04,27.59,-1.00,-1.0,2373
5904,1835904,17144,-540,876,17174.86,27.64,-1.00,-1.0,2430
5906,1835906,17068,-596,1068,17111.76,27.68,-1.00,-1.0,2372
5909,1835909,16988,-564,832,17017.71,27.64,-1.00,-1.0,2421
5912,1835912,17048,-564,968,17084.77,27.68,-1.00,-1.0,2369
5915,1835915,17164,-620,868,17197.11,27.64,-1.00,-1.0,2421
5917,1835917,16984,-440,856,17011.25,27.59,-1.00,-1.0,2370
5920,1835920,17120,-576,948,17155.90,27.64,-1.00,-1.0,2374
5925,1835925,17064,-612,804,17093.89,27.64,-1.00,-1.0,2435
5928,1835928,17096,-520,1096,17138.99,27.54,-1.00,-1.0,2367
5930,1835930,17020,-492,860,17048.81,27.54,-1.00,-1.0,2428
5933,1835933,17000,-592,1092,17045.32,27.64,-1.00,-1.0,2370
5936,1835936,17016,-512,972,17051.43,27.64,-1.00,-1.0,2429
5939,1835939,17032,-596,900,17066.17,27.64,-1.00,-1.0,2367
5941,1835941,17012,-600,912,17046.99,27.68,-1.00,-1.0,2423
5944,1835944,17036,-564,768,17062.63,27.64,-1.00,-1.0,2368
5949,1835949,16964,-500,856,16992.94,27.64,-1.00,-1.0,2436
5952,1835952,17032,-648,1048,17076.51,27.59,-1.00,-1.0,2369
5955,1835955,16944,-520,916,16976.71,27.54,-1.00,-1.0,2428
5957,1835957,17088,-624,928,17124.55,27.64,-1.00,-1.0,2369
5960,1835960,16968,-564,912,17001.85,27.64,-1.00,-1.0,2374
5963,1835963,17028,-544,1084,17071.14,27.49,-1.00,-1.0,2420
5965,1835965,17040,-484,1012,17076.88,27.59,-1.00,-1.0,2370
5968,1835968,16992,-604,876,17025.28,27.59,-1.00,-1.0,2437
5971,1835971,17084,-628,952,17122.03,27.59,-1.00,-1.0,2364
5976,1835976,17044,-528,856,17073.65,27.54,-1.00,-1.0,2441
5979,1835979,17028,-632,888,17062.85,27.73,-1.00,-1.0,2368
5981,1835981,17052,-568,896,17084.97,27.59,-1.00,-1.0,2431
5984,1835984,17080,-564,956,17116.03,27.54,-1.00,-1.0,2369
5987,1835987,17048,-604,824,17078.59,27.68,-1.00,-1.0,2424
5990,1835990,16984,-552,1052,17025.50,27.59,-1.00,-1.0,2368
5992,1835992,16992,-552,1028,17032.02,27.49,-1.00,-1.0,2423
5995,1835995,17044,-528,956,17078.95,27.68,-1.00,-1.0,2369
5998,1835998,17144,-508,860,17173.07,27.59,-1.00,-1.0,2370
6003,1836003,16980,-488,1016,17017.37,27.49,-1.00,-1.0,2434
6005,1836005,16960,-548,920,16993.77,27.59,-1.00,-1.0,2368
6008,1836008,16948,-584,852,16979.45,27.64,-1.00,-1.0,2443
6011,1836011,16968,-624,904,17003.52,27.68,-1.00,-1.0,2380
6014,1836014,17004,-516,912,17036.26,27.64,-1.00,-1.0,2434
6016,1836016,16936,-656,932,16974.31,27.68,-1.00,-1.0,2373
6019,1836019,17072,-600,956,17109.27,27.64,-1.00,-1.0,2432
6022,1836022,17112,-540,984,17148.77,27.54,-1.00,-1.0,2377
6027,1836027,16904,-684,836,16938.48,27.59,-1.00,-1.0,2423
6030,1836030,17044,-600,912,17078.93,27.68,-1.00,-1.0,2368
6032,1836032,17040,-612,860,17072.66,27.59,-1.00,-1.0,2429
6035,1836035,17024,-508,880,17054.30,27.49,-1.00,-1.0,2369
6038,1836038,17044,-604,920,17079.49,27.64,-1.00,-1.0,2373
6041,1836041,16988,-524,920,17020.96,27.59,-1.00,-1.0,2423
6043,1836043,17028,-580,956,17064.67,27.54,-1.00,-1.0,2357
6046,1836046,17036,-520,892,17067.26,27.59,-1.00,-1.0,2424
6049,1836049,17084,-516,928,17116.96,27.54,-1.00,-1.0,2369
6054,1836054,16948,-508,996,16984.84,27.68,-1.00,-1.0,2434
6056,1836056,17012,-524,928,17045.35,27.64,-1.00,-1.0,2367
6059,1836059,16936,-612,868,16969.27,27.59,-1.00,-1.0,2427
6062,1836062,16984,-604,912,17019.19,27.64,-1.00,-1.0,2368
6065,1836065,17028,-576,940,17063.65,27.59,-1.00,-1.0,2422
6067,1836067,16956,-532,1028,16995.46,27.68,-1.00,-1.0,2369
6070,1836070,17000,-668,868,17035.25,27.59,-1.00,-1.0,2421
6073,1836073,17028,-576,880,17060.45,27.64,-1.00,-1.0,2368
6075,1836075,17112,-508,956,17146.21,27.64,-1.00,-1.0,2367
6080,1836080,16968,-540,928,17001.94,27.59,-1.00,-1.0,2434
6083,1836083,17060,-616,1024,17101.80,27.64,-1.00,-1.0,2367
6086,1836086,16964,-596,832,16994.84,27.59,-1.00,-1.0,2427
6088,1836088,17040,-624,976,17079.33,27.59,-1.00,-1.0,2369
6091,1836091,17012,-592,908,17046.50,27.68,-1.00,-1.0,2425
6094,1836094,16976,-640,920,17012.95,27.59,-1.00,-1.0,2376
6097,1836097,16992,-536,924,17025.54,27.54,-1.00,-1.0,2421
6099,1836099,16984,-588,956,17021.04,27.68,-1.00,-1.0,2369
