timestamp_ms,global_ms,accel_x,accel_y,accel_z,accel_mag,temp_c,voltage,soc,loop_us
2,915002,17052,-596,908,17086.55,31.97,-1.00,-1.0,2484
10,915010,17172,-536,888,17203.30,31.97,-1.00,-1.0,2462
13,915013,17132,-696,712,17160.91,32.06,-1.00,-1.0,2374
16,915016,17064,-520,756,17088.65,32.01,-1.00,-1.0,2366
19,915019,17104,-560,844,17133.96,32.06,-1.00,-1.0,2422
21,915021,17112,-588,764,17139.14,32.01,-1.00,-1.0,2366
24,915024,17120,-688,864,17155.59,32.15,-1.00,-1.0,2422
27,915027,17104,-536,856,17133.79,32.01,-1.00,-1.0,2375
30,915030,17028,-572,776,17055.27,32.06,-1.00,-1.0,2423
32,915032,17072,-612,860,17104.60,32.11,-1.00,-1.0,2366
37,915037,17008,-720,864,17045.14,32.15,-1.00,-1.0,2442
40,915040,16972,-616,888,17006.38,32.11,-1.00,-1.0,2367
42,915042,17120,-708,912,17158.89,32.06,-1.00,-1.0,2422
45,915045,17028,-604,800,17057.48,32.06,-1.00,-1.0,2440
48,915048,17056,-564,808,17084.44,32.01,-1.00,-1.0,2367
51,915051,17000,-668,764,17030.27,32.06,-1.00,-1.0,2429
54,915054,17008,-656,856,17042.16,32.11,-1.00,-1.0,2367
56,915056,16988,-732,704,17018.33,32.06,-1.00,-1.0,2426
59,915059,17064,-520,792,17090.28,32.01,-1.00,-1.0,2367
62,915062,17080,-640,664,17104.88,32.15,-1.00,-1.0,2368
67,915067,17120,-700,752,17150.80,32.06,-1.00,-1.0,2432
69,915069,17064,-616,896,17098.61,32.06,-1.00,-1.0,2373
72,915072,16992,-604,880,17025.49,32.06,-1.00,-1.0,2445
75,915075,17068,-552,988,17105.48,32.15,-1.00,-1.0,2377
78,915078,17028,-716,748,17059.45,32.11,-1.00,-1.0,2430
80,915080,17012,-608,772,17040.36,32.06,-1.00,-1.0,2372
83,915083,17084,-676,752,17113.90,32.01,-1.00,-1.0,2430
86,915086,17088,-676,712,17116.18,32.06,-1.00,-1.0,2382
89,915089,17068,-716,868,17105.05,32.11,-1.00,-1.0,2367
94,915094,17044,-636,764,17072.96,32.11,-1.00,-1.0,2439
96,915096,17036,-708,740,17066.76,32.11,-1.00,-1.0,2373
99,915099,16976,-544,964,17012.05,31.92,-1.00,-1.0,2428
102,915102,17064,-652,652,17088.89,32.11,-1.00,-1.0,2370
105,915105,17000,-604,932,17036.24,32.20,-1.00,-1.0,2419
107,915107,16984,-728,820,17019.36,32.01,-1.00,-1.0,2371
110,915110,17024,-604,888,17057.84,32.06,-1.00,-1.0,2374
113,915113,17064,-612,864,17096.82,32.06,-1.00,-1.0,2419
115,915115,17028,-568,912,17061.86,32.06,-1.00,-1.0,2369
120,915120,16984,-700,840,17019.16,32.11,-1.00,-1.0,2418
123,915123,17112,-740,856,17149.37,32.01,-1.00,-1.0,2368
126,915126,17008,-632,844,17040.65,32.06,-1.00,-1.0,2436
129,915129,17072,-664,792,17103.26,32.11,-1.00,-1.0,2365
131,915131,16984,-660,760,17013.80,32.06,-1.00,-1.0,2419
134,915134,17104,-632,848,17136.67,32.11,-1.00,-1.0,2372
137,915137,16964,-632,852,16997.14,32.06,-1.00,-1.0,2428
140,915140,17096,-756,868,17134.71,32.01,-1.00,-1.0,2366
142,915142,17048,-612,896,17082.50,32.06,-1.00,-1.0,2365
147,915147,16980,-584,912,17014.50,32.06,-1.00,-1.0,2431
150,915150,17008,-596,716,17033.49,32.06,-1.00,-1.0,2370
153,915153,17036,-624,756,17064.18,32.06,-1.00,-1.0,2428
155,915155,17016,-548,856,17046.33,32.06,-1.00,-1.0,2369
158,915158,17036,-696,768,17067.50,32.06,-1.00,-1.0,2419
161,915161,17008,-592,744,17034.55,32.06,-1.00,-1.0,2380
164,915164,16984,-612,672,17008.30,32.06,-1.00,-1.0,2419
166,915166,16976,-600,672,16999.89,31.97,-1.00,-1.0,2368
169,915169,17048,-592,924,17083.28,32.01,-1.00,-1.0,2371
174,915174,17116,-628,896,17150.94,32.06,-1.00,-1.0,2438
177,915177,17088,-492,748,17111.44,31.97,-1.00,-1.0,2365
179,915179,17028,-576,824,17057.65,32.11,-1.00,-1.0,2438
182,915182,17000,-684,748,17030.19,32.11,-1.00,-1.0,2377
185,915185,17004,-648,860,17038.06,32.11,-1.00,-1.0,2407
188,915188,16984,-532,688,17006.25,32.11,-1.00,-1.0,2369
190,915190,16980,-664,716,17008.05,32.01,-1.00,-1.0,2429
193,915193,17096,-632,712,17122.49,32.11,-1.00,-1.0,2378
196,915196,17028,-568,784,17055.50,31.97,-1.00,-1.0,2366
201,915201,17012,-688,932,17051.40,31.97,-1.00,-1.0,2436
203,915203,17248,-636,840,17280.15,32.01,-1.00,-1.0,2376
206,915206,16996,-680,728,17025.17,32.06,-1.00,-1.0,2428
209,915209,16916,-576,848,16947.03,32.06,-1.00,-1.0,2370
212,915212,17116,-540,844,17145.30,32.06,-1.00,-1.0,2421
215,915215,16992,-656,848,17025.79,32.15,-1.00,-1.0,2368
217,915217,17080,-676,604,17104.04,32.25,-1.00,-1.0,2419
220,915220,17024,-548,860,17054.52,32.06,-1.00,-1.0,2371
223,915223,17008,-680,752,17038.19,32.06,-1.00,-1.0,2366
227,915227,17080,-600,824,17110.39,32.11,-1.00,-1.0,2436
230,915230,17044,-668,1004,17086.61,32.11,-1.00,-1.0,2366
233,915233,17052,-676,796,17083.95,32.01,-1.00,-1.0,2438
236,915236,17060,-684,844,17094.55,32.11,-1.00,-1.0,2369
238,915238,17076,-620,796,17105.78,32.11,-1.00,-1.0,2429
241,915241,17000,-688,748,17030.35,32.01,-1.00,-1.0,2376
244,915244,17036,-624,912,17071.80,32.11,-1.00,-1.0,2407
247,915247,16976,-704,884,17013.57,32.01,-1.00,-1.0,2369
249,915249,17032,-576,732,17057.45,32.06,-1.00,-1.0,2366
254,915254,17016,-588,712,17041.04,32.11,-1.00,-1.0,2438
257,915257,16980,-672,748,17009.75,32.01,-1.00,-1.0,2366
259,915259,17056,-620,868,17089.32,32.11,-1.00,-1.0,2441
262,915262,17084,-540,740,17108.54,32.11,-1.00,-1.0,2377
265,915265,17156,-656,724,17183.80,31.97,-1.00,-1.0,2413
268,915268,17040,-556,800,17067.83,32.01,-1.00,-1.0,2373
270,915270,17052,-640,692,17078.03,32.06,-1.00,-1.0,2430
273,915273,17052,-616,900,17086.84,32.11,-1.00,-1.0,2378
276,915276,17016,-584,780,17043.88,32.06,-1.00,-1.0,2367
281,915281,17084,-732,832,17119.90,32.06,-1.00,-1.0,2434
283,915283,17076,-632,836,17108.13,32.06,-1.00,-1.0,2373
286,915286,17056,-648,796,17086.86,32.06,-1.00,-1.0,2429
289,915289,17092,-684,828,17125.71,32.06,-1.00,-1.0,2370
292,915292,17132,-532,800,17158.92,31.97,-1.00,-1.0,2423
294,915294,17020,-724,852,17056.68,32.06,-1.00,-1.0,2368
297,915297,16992,-616,824,17023.12,32.01,-1.00,-1.0,2419
300,915300,17104,-756,832,17140.90,32.06,-1.00,-1.0,2371
303,915303,17060,-624,780,17089.22,32.11,-1.00,-1.0,2366
308,915308,17108,-584,816,17137.40,32.11,-1.00,-1.0,2431
310,915310,17016,-680,868,17051.69,32.11,-1.00,-1.0,2366
313,915313,17032,-572,948,17067.95,32.01,-1.00,-1.0,2428
316,915316,17092,-620,760,17120.12,32.06,-1.00,-1.0,2369
319,915319,16996,-552,848,17026.09,32.01,-1.00,-1.0,2419
321,915321,16976,-636,728,17003.50,32.01,-1.00,-1.0,2369
324,915324,17072,-656,712,17099.43,32.11,-1.00,-1.0,2419
327,915327,17044,-576,816,17073.24,32.15,-1.00,-1.0,2370
329,915329,17028,-668,776,17058.76,32.06,-1.00,-1.0,2369
334,915334,17036,-644,772,17065.64,32.06,-1.00,-1.0,2432
337,915337,17060,-592,572,17079.85,32.11,-1.00,-1.0,2366
340,915340,17032,-696,896,17069.75,31.97,-1.00,-1.0,2435
343,915343,17080,-580,792,17108.19,32.11,-1.00,-1.0,2368
345,915345,17080,-620,780,17109.04,32.15,-1.00,-1.0,2435
348,915348,16924,-564,884,16956.45,32.06,-1.00,-1.0,2369
351,915351,17008,-664,820,17040.70,32.06,-1.00,-1.0,2429
354,915354,17044,-628,644,17067.72,32.15,-1.00,-1.0,2373
356,915356,17104,-664,852,17138.07,32.06,-1.00,-1.0,2371
362,915362,17100,-688,828,17133.85,32.11,-1.00,-1.0,2431
364,915364,16992,-656,972,17032.42,32.11,-1.00,-1.0,2366
367,915367,17060,-648,736,17088.16,32.11,-1.00,-1.0,2429
370,915370,17108,-620,796,17137.73,32.01,-1.00,-1.0,2370
373,915373,17072,-536,920,17105.17,32.15,-1.00,-1.0,2418
375,915375,17100,-552,808,17127.98,32.11,-1.00,-1.0,2370
378,915378,16996,-660,764,17025.96,32.06,-1.00,-1.0,2419
381,915381,17064,-652,880,17099.11,32.11,-1.00,-1.0,2369
383,915383,17004,-524,852,17033.39,32.06,-1.00,-1.0,2375
388,915388,16984,-640,956,17022.92,32.06,-1.00,-1.0,2433
391,915391,16948,-612,912,16983.55,32.01,-1.00,-1.0,2366
394,915394,17128,-576,740,17153.65,32.06,-1.00,-1.0,2435
397,915397,17084,-640,764,17113.05,32.06,-1.00,-1.0,2368
399,915399,16916,-588,820,16946.07,31.97,-1.00,-1.0,2432
402,915402,17080,-620,912,17115.56,31.97,-1.00,-1.0,2369
405,915405,17008,-688,912,17046.32,32.06,-1.00,-1.0,2429
408,915408,17052,-660,892,17088.06,32.06,-1.00,-1.0,2370
410,915410,17060,-640,792,17090.36,32.11,-1.00,-1.0,2374
415,915415,17068,-616,764,17096.19,32.06,-1.00,-1.0,2444
418,915418,17040,-668,980,17081.22,32.15,-1.00,-1.0,2366
421,915421,17132,-656,892,17167.74,32.01,-1.00,-1.0,2431
424,915424,16956,-676,712,16984.40,32.06,-1.00,-1.0,2369
426,915426,17028,-664,852,17062.23,32.01,-1.00,-1.0,2427
429,915429,17056,-568,796,17084.01,32.15,-1.00,-1.0,2377
432,915432,16940,-480,848,16968.00,32.11,-1.00,-1.0,2409
435,915435,17084,-504,908,17115.54,32.06,-1.00,-1.0,2370
437,915437,17132,-628,820,17163.11,32.11,-1.00,-1.0,2374
442,915442,17020,-512,796,17046.29,32.01,-1.00,-1.0,2431
445,915445,16960,-656,808,16991.90,32.11,-1.00,-1.0,2367
448,915448,17108,-628,872,17141.72,32.06,-1.00,-1.0,2437
451,915451,17048,-544,796,17075.24,32.01,-1.00,-1.0,2366
453,915453,17060,-488,764,17084.07,32.06,-1.00,-1.0,2420
456,915456,17120,-616,920,17155.76,32.01,-1.00,-1.0,2358
459,915459,17092,-588,844,17122.92,32.06,-1.00,-1.0,2427
462,915462,17000,-684,828,17033.89,32.11,-1.00,-1.0,2371
465,915465,17032,-552,864,17062.83,32.11,-1.00,-1.0,2368
469,915469,17080,-540,748,17104.90,32.01,-1.00,-1.0,2447
472,915472,17116,-668,672,17142.21,32.06,-1.00,-1.0,2378
475,915475,17036,-624,656,17060.04,32.11,-1.00,-1.0,2441
477,915477,17084,-568,812,17112.71,32.11,-1.00,-1.0,2379
480,915480,17100,-552,612,17119.85,32.01,-1.00,-1.0,2419
483,915483,17112,-644,920,17148.81,32.11,-1.00,-1.0,2357
486,915486,17080,-592,828,17110.30,32.11,-1.00,-1.0,2427
489,915489,17056,-624,908,17091.55,32.06,-1.00,-1.0,2368
494,915494,17084,-728,752,17116.03,32.01,-1.00,-1.0,2434
496,915496,17012,-608,816,17042.41,32.11,-1.00,-1.0,2370
499,915499,17036,-656,800,17067.38,32.15,-1.00,-1.0,2365
502,915502,17020,-600,760,17047.52,32.15,-1.00,-1.0,2428
504,915504,17072,-608,724,17098.16,32.15,-1.00,-1.0,2370
507,915507,17104,-568,744,17129.59,32.01,-1.00,-1.0,2419
510,915510,17084,-616,708,17109.76,32.06,-1.00,-1.0,2377
513,915513,17008,-652,736,17036.40,32.06,-1.00,-1.0,2419
516,915516,17008,-604,824,17038.66,32.06,-1.00,-1.0,2374
521,915521,17028,-748,772,17061.89,32.06,-1.00,-1.0,2431
523,915523,17020,-664,880,17055.66,32.15,-1.00,-1.0,2366
526,915526,17012,-496,896,17042.80,32.15,-1.00,-1.0,2373
529,915529,17072,-704,760,17103.40,32.11,-1.00,-1.0,2428
531,915531,17072,-624,784,17101.38,32.01,-1.00,-1.0,2371
534,915534,17068,-608,808,17097.93,32.11,-1.00,-1.0,2433
537,915537,17064,-568,712,17088.29,32.11,-1.00,-1.0,2381
540,915540,17140,-808,916,17183.47,32.11,-1.00,-1.0,2432
543,915543,17024,-760,784,17058.98,32.15,-1.00,-1.0,2356
548,915548,17044,-540,844,17073.43,32.06,-1.00,-1.0,2431
550,915550,17048,-700,752,17078.93,32.06,-1.00,-1.0,2365
553,915553,17000,-576,844,17030.68,32.01,-1.00,-1.0,2372
556,915556,16976,-600,764,17003.77,32.01,-1.00,-1.0,2434
558,915558,17104,-592,792,17132.56,32.01,-1.00,-1.0,2375
561,915561,17088,-716,832,17123.22,32.11,-1.00,-1.0,2429
564,915564,16996,-572,740,17021.71,32.01,-1.00,-1.0,2377
567,915567,17000,-504,920,17032.33,32.06,-1.00,-1.0,2433
570,915570,16980,-576,648,17002.12,32.06,-1.00,-1.0,2369
575,915575,17060,-696,844,17095.04,32.15,-1.00,-1.0,2431
577,915577,17044,-632,784,17073.72,32.06,-1.00,-1.0,2365
580,915580,17064,-664,692,17090.93,32.01,-1.00,-1.0,2372
583,915583,16988,-580,864,17019.84,32.06,-1.00,-1.0,2443
585,915585,16992,-548,852,17022.17,32.01,-1.00,-1.0,2379
588,915588,17032,-592,872,17064.58,32.06,-1.00,-1.0,2420
591,915591,17076,-640,940,17113.82,32.01,-1.00,-1.0,2357
594,915594,17080,-728,628,17107.04,32.06,-1.00,-1.0,2430
597,915597,17072,-632,832,17103.94,32.01,-1.00,-1.0,2368
602,915602,17080,-660,1012,17122.68,32.01,-1.00,-1.0,2431
604,915604,17104,-588,888,17137.13,32.11,-1.00,-1.0,2365
607,915607,16992,-604,772,17020.25,32.20,-1.00,-1.0,2368
610,915610,17028,-576,780,17055.58,32.06,-1.00,-1.0,2436
612,915612,16952,-624,828,16983.68,32.06,-1.00,-1.0,2376
615,915615,17076,-584,868,17108.02,32.15,-1.00,-1.0,2419
618,915618,17080,-528,792,17106.50,31.97,-1.00,-1.0,2369
621,915621,17060,-668,684,17086.77,32.06,-1.00,-1.0,2421
624,915624,17060,-596,748,17086.79,32.11,-1.00,-1.0,2369
629,915629,17076,-652,672,17101.65,32.11,-1.00,-1.0,2431
631,915631,17028,-552,852,17058.23,32.01,-1.00,-1.0,2368
634,915634,16960,-724,840,16996.22,32.06,-1.00,-1.0,2366
637,915637,17068,-520,784,17093.91,32.06,-1.00,-1.0,2430
639,915639,17056,-636,756,17084.59,31.97,-1.00,-1.0,2368
642,915642,17128,-672,628,17152.68,32.01,-1.00,-1.0,2419
645,915645,16988,-616,928,17024.48,32.06,-1.00,-1.0,2370
648,915648,17068,-612,792,17097.32,32.11,-1.00,-1.0,2422
651,915651,16992,-628,1016,17033.93,32.06,-1.00,-1.0,2372
656,915656,17148,-516,904,17179.56,32.15,-1.00,-1.0,2431
658,915658,17072,-576,776,17099.33,32.06,-1.00,-1.0,2354
661,915661,17044,-580,796,17072.43,32.11,-1.00,-1.0,2366
664,915664,17036,-680,876,17072.05,32.11,-1.00,-1.0,2429
666,915666,17120,-660,756,17149.39,32.11,-1.00,-1.0,2369
669,915669,17028,-616,840,17059.83,32.15,-1.00,-1.0,2419
672,915672,16988,-588,808,17017.37,32.01,-1.00,-1.0,2376
675,915675,17180,-668,868,17214.88,32.01,-1.00,-1.0,2420
678,915678,17016,-600,772,17044.07,32.15,-1.00,-1.0,2368
682,915682,16948,-668,852,16982.54,32.15,-1.00,-1.0,2432
685,915685,16992,-676,728,17021.02,32.11,-1.00,-1.0,2366
688,915688,17076,-608,844,17107.65,32.06,-1.00,-1.0,2368
691,915691,16904,-612,780,16933.05,32.06,-1.00,-1.0,2431
693,915693,17020,-700,884,17057.31,32.06,-1.00,-1.0,2372
696,915696,17036,-568,836,17065.96,32.11,-1.00,-1.0,2419
699,915699,17004,-556,824,17033.03,32.01,-1.00,-1.0,2369
702,915702,16964,-564,756,16990.20,32.01,-1.00,-1.0,2421
705,915705,17020,-572,832,17049.92,32.01,-1.00,-1.0,2367
710,915710,16932,-596,696,16956.78,32.11,-1.00,-1.0,2435
712,915712,17120,-644,832,17152.30,32.15,-1.00,-1.0,2374
715,915715,17016,-636,864,17049.79,32.11,-1.00,-1.0,2369
718,915718,17044,-616,852,17076.40,32.15,-1.00,-1.0,2439
721,915721,17088,-572,884,17120.41,32.01,-1.00,-1.0,2372
723,915723,17112,-576,836,17142.09,32.06,-1.00,-1.0,2427
726,915726,17036,-584,788,17064.21,32.06,-1.00,-1.0,2370
729,915729,17056,-592,912,17090.62,32.06,-1.00,-1.0,2426
732,915732,17060,-572,736,17085.45,32.11,-1.00,-1.0,2369
737,915737,17084,-612,776,17112.56,32.01,-1.00,-1.0,2431
739,915739,17216,-628,824,17247.14,32.06,-1.00,-1.0,2373
742,915742,17020,-560,740,17045.28,32.15,-1.00,-1.0,2368
745,915745,17124,-668,816,17156.44,32.15,-1.00,-1.0,2436
748,915748,16972,-552,796,16999.62,32.15,-1.00,-1.0,2368
750,915750,17008,-616,748,17035.58,32.06,-1.00,-1.0,2424
753,915753,17068,-652,836,17100.89,32.06,-1.00,-1.0,2369
756,915756,17068,-656,704,17095.10,32.06,-1.00,-1.0,2427
759,915759,17128,-548,736,17152.56,32.11,-1.00,-1.0,2369
764,915764,17032,-696,976,17074.13,32.01,-1.00,-1.0,2431
766,915766,17124,-692,728,17153.43,32.11,-1.00,-1.0,2353
769,915769,17068,-656,696,17094.78,32.06,-1.00,-1.0,2365
772,915772,17076,-676,724,17104.71,32.06,-1.00,-1.0,2434
775,915775,17060,-612,828,17091.04,32.06,-1.00,-1.0,2372
777,915777,17052,-592,896,17085.78,32.06,-1.00,-1.0,2432
780,915780,17088,-640,796,17118.50,32.06,-1.00,-1.0,2369
783,915783,17024,-688,832,17058.20,32.01,-1.00,-1.0,2427
786,915786,17092,-632,740,17119.68,32.06,-1.00,-1.0,2380
791,915791,17076,-676,824,17109.23,32.01,-1.00,-1.0,2431
794,915794,17048,-556,824,17076.96,32.01,-1.00,-1.0,2367
796,915796,17036,-552,756,17061.70,32.06,-1.00,-1.0,2365
799,915799,17216,-632,956,17254.10,32.06,-1.00,-1.0,2428
802,915802,17060,-616,712,17085.96,32.15,-1.00,-1.0,2376
805,915805,17044,-616,804,17074.07,32.11,-1.00,-1.0,2420
807,915807,16988,-572,788,17015.88,32.06,-1.00,-1.0,2371
810,915810,17000,-600,720,17025.82,32.11,-1.00,-1.0,2435
813,915813,17052,-628,940,17089.43,32.15,-1.00,-1.0,2372
818,915818,17096,-616,788,17125.23,32.06,-1.00,-1.0,2438
821,915821,17080,-672,692,17107.22,32.15,-1.00,-1.0,2365
823,915823,17072,-672,812,17104.51,32.06,-1.00,-1.0,2431
826,915826,17044,-616,904,17079.07,32.06,-1.00,-1.0,2370
829,915829,17012,-656,808,17043.81,32.01,-1.00,-1.0,2369
831,915831,17112,-632,728,17139.13,32.11,-1.00,-1.0,2428
834,915834,16992,-588,908,17026.40,32.11,-1.00,-1.0,2385
837,915837,16996,-592,804,17025.30,32.01,-1.00,-1.0,2424
840,915840,17124,-632,856,17157.03,32.01,-1.00,-1.0,2379
845,915845,16988,-644,804,17019.20,32.06,-1.00,-1.0,2438
848,915848,17116,-804,804,17153.72,32.06,-1.00,-1.0,2366
850,915850,17132,-704,652,17158.85,32.06,-1.00,-1.0,2429
853,915853,17132,-588,852,17163.25,32.06,-1.00,-1.0,2370
856,915856,17096,-604,1028,17137.53,32.20,-1.00,-1.0,2366
859,915859,17064,-596,772,17091.85,32.06,-1.00,-1.0,2421
861,915861,17100,-760,876,17139.28,32.11,-1.00,-1.0,2384
864,915864,17016,-604,856,17048.22,32.06,-1.00,-1.0,2419
867,915867,17044,-640,988,17084.60,32.11,-1.00,-1.0,2376
872,915872,17032,-580,764,17058.99,32.15,-1.00,-1.0,2437
874,915874,17008,-592,844,17039.21,32.11,-1.00,-1.0,2375
877,915877,17112,-612,712,17137.74,32.15,-1.00,-1.0,2428
880,915880,17096,-736,828,17131.86,32.01,-1.00,-1.0,2370
883,915883,17020,-644,924,17057.22,32.15,-1.00,-1.0,2366
885,915885,17004,-572,856,17035.14,32.15,-1.00,-1.0,2422
888,915888,17000,-680,804,17032.58,32.06,-1.00,-1.0,2369
891,915891,16996,-616,900,17030.96,32.15,-1.00,-1.0,2419
894,915894,16964,-676,868,16999.64,32.11,-1.00,-1.0,2364
899,915899,17088,-640,844,17120.80,32.01,-1.00,-1.0,2431
901,915901,16976,-568,780,17003.40,32.06,-1.00,-1.0,2369
904,915904,16956,-656,928,16994.04,32.01,-1.00,-1.0,2428
907,915907,16928,-656,884,16963.75,32.06,-1.00,-1.0,2377
909,915909,16984,-584,716,17009.12,32.11,-1.00,-1.0,2375
912,915912,17052,-644,804,17083.09,31.97,-1.00,-1.0,2419
915,915915,17036,-592,896,17069.81,32.06,-1.00,-1.0,2370
918,915918,17040,-564,884,17072.23,32.06,-1.00,-1.0,2423
921,915921,16936,-568,780,16963.46,32.06,-1.00,-1.0,2368
926,915926,16964,-612,852,16996.40,32.11,-1.00,-1.0,2438
929,915929,17144,-532,868,17174.20,32.11,-1.00,-1.0,2366
931,915931,17028,-600,620,17049.84,32.06,-1.00,-1.0,2436
934,915934,17060,-664,852,17094.16,32.01,-1.00,-1.0,2378
937,915937,16940,-628,816,16971.27,32.06,-1.00,-1.0,2366
940,915940,17048,-612,880,17081.66,32.01,-1.00,-1.0,2419
942,915942,16996,-664,780,17026.84,32.06,-1.00,-1.0,2369
945,915945,17088,-628,724,17114.86,32.11,-1.00,-1.0,2420
948,915948,17024,-652,832,17056.79,32.06,-1.00,-1.0,2373
953,915953,17116,-660,844,17149.50,32.15,-1.00,-1.0,2435
956,915956,17072,-668,896,17108.54,31.97,-1.00,-1.0,2372
959,915959,17044,-660,904,17080.71,32.06,-1.00,-1.0,2435
961,915961,17060,-540,792,17086.91,32.06,-1.00,-1.0,2373
964,915964,17004,-564,804,17032.34,32.01,-1.00,-1.0,2365
967,915967,17044,-656,836,17077.10,32.11,-1.00,-1.0,2422
969,915969,17156,-640,872,17190.06,32.06,-1.00,-1.0,2373
972,915972,17028,-524,896,17059.61,32.11,-1.00,-1.0,2419
975,915975,17096,-536,920,17129.12,32.06,-1.00,-1.0,2370
980,915980,17080,-592,868,17112.29,32.01,-1.00,-1.0,2458
983,915983,17032,-644,700,17058.54,32.11,-1.00,-1.0,2372
986,915986,16992,-548,800,17019.65,32.06,-1.00,-1.0,2420
988,915988,17000,-524,600,17018.65,32.01,-1.00,-1.0,2366
991,915991,17072,-692,792,17104.37,32.15,-1.00,-1.0,2368
994,915994,17036,-620,808,17066.42,32.06,-1.00,-1.0,2425
996,915996,16912,-596,828,16942.74,32.15,-1.00,-1.0,2373
999,915999,17100,-596,596,17120.76,32.06,-1.00,-1.0,2420
1002,916002,17040,-604,856,17072.17,32.01,-1.00,-1.0,2368
1007,916007,17008,-628,852,17040.90,32.11,-1.00,-1.0,2441
1010,916010,17144,-604,824,17174.41,31.97,-1.00,-1.0,2367
1013,916013,17064,-564,928,17098.52,32.11,-1.00,-1.0,2420
1015,916015,17024,-588,940,17060.07,32.06,-1.00,-1.0,2369
1018,916018,17056,-628,720,17082.74,32.11,-1.00,-1.0,2374
1021,916021,17144,-604,788,17172.72,32.06,-1.00,-1.0,2420
1023,916023,17000,-592,804,17029.29,32.11,-1.00,-1.0,2371
1026,916026,17064,-688,732,17093.54,32.06,-1.00,-1.0,2427
1029,916029,17020,-592,904,17054.27,32.01,-1.00,-1.0,2370
1034,916034,17044,-704,756,17075.28,32.11,-1.00,-1.0,2441
1037,916037,17036,-652,816,17067.99,32.11,-1.00,-1.0,2367
1040,916040,17048,-652,748,17076.85,32.11,-1.00,-1.0,2419
1042,916042,16988,-600,740,17014.69,32.11,-1.00,-1.0,2369
1045,916045,17052,-568,804,17080.39,32.01,-1.00,-1.0,2419
1048,916048,17024,-652,1008,17066.28,32.11,-1.00,-1.0,2370
1050,916050,17044,-656,900,17080.35,31.97,-1.00,-1.0,2370
1053,916053,17004,-660,832,17037.13,32.06,-1.00,-1.0,2434
1056,916056,17048,-620,812,17078.58,32.06,-1.00,-1.0,2370
1061,916061,16956,-652,736,16984.48,32.06,-1.00,-1.0,2440
1064,916064,17116,-680,852,17150.68,32.01,-1.00,-1.0,2366
1067,916067,17068,-616,636,17090.95,31.97,-1.00,-1.0,2419
1069,916069,17120,-540,920,17153.20,32.11,-1.00,-1.0,2369
1072,916072,17012,-632,748,17040.16,32.06,-1.00,-1.0,2419
1075,916075,16984,-668,832,17017.48,32.11,-1.00,-1.0,2369
1078,916078,16908,-656,764,16937.96,32.15,-1.00,-1.0,2419
1080,916080,17084,-644,972,17123.74,32.11,-1.00,-1.0,2357
1083,916083,17112,-604,860,17144.24,32.15,-1.00,-1.0,2366
1088,916088,17000,-644,800,17030.99,32.01,-1.00,-1.0,2448
1091,916091,16988,-528,872,17018.56,32.06,-1.00,-1.0,2367
1093,916093,16996,-608,860,17028.60,32.01,-1.00,-1.0,2422
1096,916096,17032,-592,712,17057.15,32.06,-1.00,-1.0,2385
1099,916099,17084,-604,816,17114.14,32.11,-1.00,-1.0,2420
1102,916102,17052,-632,756,17080.45,32.01,-1.00,-1.0,2370
1105,916105,16992,-656,936,17030.40,32.11,-1.00,-1.0,2422
1107,916107,16956,-612,844,16988.02,32.06,-1.00,-1.0,2389
1112,916112,17044,-576,888,17076.83,32.06,-1.00,-1.0,2449
1115,916115,17064,-604,868,17096.73,32.06,-1.00,-1.0,2365
1117,916117,17040,-588,820,17069.85,32.11,-1.00,-1.0,2368
1120,916120,16988,-696,880,17025.01,32.11,-1.00,-1.0,2419
1123,916123,17096,-592,956,17132.94,32.01,-1.00,-1.0,2370
1126,916126,17060,-712,780,17092.66,32.11,-1.00,-1.0,2421
1128,916128,17020,-644,784,17050.21,32.11,-1.00,-1.0,2372
1131,916131,17116,-576,724,17140.99,32.11,-1.00,-1.0,2414
1134,916134,17080,-640,772,17109.41,32.06,-1.00,-1.0,2383
1139,916139,16976,-600,776,17004.32,32.11,-1.00,-1.0,2455
1142,916142,17056,-716,816,17090.51,32.20,-1.00,-1.0,2374
1145,916145,17080,-728,732,17111.17,32.01,-1.00,-1.0,2430
1147,916147,17116,-692,676,17143.32,32.11,-1.00,-1.0,2379
1150,916150,17044,-588,832,17074.42,32.06,-1.00,-1.0,2366
1153,916153,17012,-644,788,17042.41,32.06,-1.00,-1.0,2427
1156,916156,17048,-640,904,17083.94,32.06,-1.00,-1.0,2364
1158,916158,17032,-704,844,17067.42,32.15,-1.00,-1.0,2419
1161,916161,17088,-704,736,17118.32,32.01,-1.00,-1.0,2373
1166,916166,17080,-672,680,17106.73,32.11,-1.00,-1.0,2455
1169,916169,17012,-668,816,17044.65,32.11,-1.00,-1.0,2368
1172,916172,16996,-672,844,17030.21,32.11,-1.00,-1.0,2426
1174,916174,17024,-580,860,17055.57,32.11,-1.00,-1.0,2378
1177,916177,17056,-580,776,17083.49,32.15,-1.00,-1.0,2416
1180,916180,17076,-616,836,17107.55,32.11,-1.00,-1.0,2372
1183,916183,17068,-700,768,17099.60,32.06,-1.00,-1.0,2363
1185,916185,17048,-732,832,17083.98,32.06,-1.00,-1.0,2420
1188,916188,16976,-664,788,17007.25,32.11,-1.00,-1.0,2372
1193,916193,17052,-608,760,17079.75,32.15,-1.00,-1.0,2447
1196,916196,17124,-684,736,17153.45,32.11,-1.00,-1.0,2369
1199,916199,17052,-612,824,17082.86,32.15,-1.00,-1.0,2421
1201,916201,17020,-616,900,17054.91,32.11,-1.00,-1.0,2374
1204,916204,17080,-568,800,17108.16,32.06,-1.00,-1.0,2419
1207,916207,17064,-512,772,17089.12,32.11,-1.00,-1.0,2370
1210,916210,17080,-580,768,17107.09,32.11,-1.00,-1.0,2461
1213,916213,17072,-700,884,17109.20,32.11,-1.00,-1.0,2371
1215,916215,17156,-632,780,17185.35,32.06,-1.00,-1.0,2370
1220,916220,17104,-632,820,17135.30,32.06,-1.00,-1.0,2451
1223,916223,16916,-564,724,16940.88,32.11,-1.00,-1.0,2374
1226,916226,17140,-596,808,17169.38,32.15,-1.00,-1.0,2424
1229,916229,17108,-592,712,17133.04,32.01,-1.00,-1.0,2369
1232,916232,17088,-632,884,17122.52,32.06,-1.00,-1.0,2424
1234,916234,17068,-644,832,17100.40,32.06,-1.00,-1.0,2378
1237,916237,17020,-588,836,17050.66,31.97,-1.00,-1.0,2422
1240,916240,16956,-628,860,16989.41,32.06,-1.00,-1.0,2369
1242,916242,17092,-656,888,17127.62,32.06,-1.00,-1.0,2367
1247,916247,17072,-520,776,17097.54,32.06,-1.00,-1.0,2443
1250,916250,16876,-716,880,16914.09,32.06,-1.00,-1.0,2367
1253,916253,17052,-736,800,17086.62,32.06,-1.00,-1.0,2423
1255,916255,17032,-676,660,17058.18,32.15,-1.00,-1.0,2354
1258,916258,17056,-664,804,17087.85,32.15,-1.00,-1.0,2420
1261,916261,17040,-616,900,17074.87,32.15,-1.00,-1.0,2370
1264,916264,17144,-592,852,17175.36,32.15,-1.00,-1.0,2422
1266,916266,17076,-676,944,17115.43,32.06,-1.00,-1.0,2370
1271,916271,17160,-716,772,17192.27,32.15,-1.00,-1.0,2453
1274,916274,17092,-556,696,17115.20,32.06,-1.00,-1.0,2374
1277,916277,17020,-704,1000,17063.88,32.20,-1.00,-1.0,2371
1280,916280,17080,-632,812,17110.97,32.01,-1.00,-1.0,2420
1282,916282,17012,-640,904,17048.02,32.11,-1.00,-1.0,2371
1285,916285,17032,-648,836,17064.81,32.11,-1.00,-1.0,2420
1288,916288,17052,-584,764,17079.09,32.20,-1.00,-1.0,2376
1291,916291,16948,-668,696,16975.43,31.92,-1.00,-1.0,2420
1293,916293,17088,-692,732,17117.66,32.11,-1.00,-1.0,2370
1298,916298,17008,-692,780,17039.93,32.01,-1.00,-1.0,2441
1301,916301,17148,-616,852,17180.20,32.01,-1.00,-1.0,2370
1304,916304,17068,-492,684,17088.78,32.06,-1.00,-1.0,2435
1306,916306,17076,-612,796,17105.49,32.01,-1.00,-1.0,2373
1309,916309,16992,-616,816,17022.73,32.15,-1.00,-1.0,2370
1312,916312,17128,-576,832,17157.87,32.11,-1.00,-1.0,2422
1314,916314,17028,-568,748,17053.88,32.06,-1.00,-1.0,2355
1317,916317,17100,-544,756,17125.35,31.97,-1.00,-1.0,2426
1320,916320,17124,-616,868,17157.05,32.01,-1.00,-1.0,2371
1325,916325,16948,-692,756,16978.96,32.06,-1.00,-1.0,2442
1328,916328,17056,-628,840,17088.22,32.06,-1.00,-1.0,2368
1331,916331,17016,-620,860,17049.00,32.01,-1.00,-1.0,2420
1333,916333,17080,-676,756,17110.08,32.11,-1.00,-1.0,2374
1336,916336,17068,-604,788,17096.85,32.11,-1.00,-1.0,2420
1339,916339,17008,-604,856,17040.23,32.11,-1.00,-1.0,2371
1341,916341,17096,-596,972,17133.98,32.06,-1.00,-1.0,2370
1344,916344,16964,-560,880,16996.04,31.97,-1.00,-1.0,2434
1347,916347,17112,-656,740,17140.55,32.06,-1.00,-1.0,2374
1352,916352,17088,-620,780,17117.03,32.15,-1.00,-1.0,2443
1355,916355,16960,-692,720,16989.38,32.01,-1.00,-1.0,2366
1358,916358,17064,-620,888,17098.33,32.06,-1.00,-1.0,2462
1361,916361,17076,-632,868,17109.72,32.01,-1.00,-1.0,2368
1364,916364,17124,-620,904,17159.05,32.11,-1.00,-1.0,2422
1366,916366,17052,-676,780,17083.21,32.01,-1.00,-1.0,2367
1369,916369,17072,-632,800,17102.42,32.11,-1.00,-1.0,2423
1372,916372,17052,-680,876,17088.02,32.01,-1.00,-1.0,2367
1374,916374,17048,-620,908,17083.42,32.06,-1.00,-1.0,2368
1379,916379,17040,-636,808,17071.00,32.06,-1.00,-1.0,2433
1382,916382,17056,-532,860,17085.95,32.11,-1.00,-1.0,2370
1385,916385,17036,-524,672,17057.30,32.06,-1.00,-1.0,2435
1388,916388,16996,-632,912,17032.18,32.15,-1.00,-1.0,2372
1390,916390,17116,-544,740,17140.62,32.06,-1.00,-1.0,2430
1393,916393,16988,-628,780,17017.49,32.11,-1.00,-1.0,2414
1396,916396,17092,-640,840,17124.59,32.06,-1.00,-1.0,2429
1399,916399,17052,-572,616,17072.71,31.97,-1.00,-1.0,2382
1404,916404,17100,-668,912,17137.33,32.06,-1.00,-1.0,2438
1407,916407,17044,-604,780,17072.53,32.11,-1.00,-1.0,2366
1409,916409,16968,-624,876,17002.05,32.15,-1.00,-1.0,2365
1412,916412,17028,-636,760,17056.81,32.15,-1.00,-1.0,2431
1415,916415,17100,-592,912,17134.53,31.97,-1.00,-1.0,2369
1417,916417,17020,-596,892,17053.78,32.01,-1.00,-1.0,2427
1420,916420,17024,-600,856,17056.06,32.15,-1.00,-1.0,2377
1423,916423,17016,-656,804,17047.61,32.06,-1.00,-1.0,2407
1426,916426,16888,-676,872,16924.00,32.15,-1.00,-1.0,2370
1431,916431,16992,-620,800,17022.12,32.06,-1.00,-1.0,2433
1433,916433,17052,-568,936,17087.11,32.06,-1.00,-1.0,2365
1436,916436,17192,-600,856,17223.75,32.06,-1.00,-1.0,2368
1439,916439,16924,-548,896,16956.56,32.01,-1.00,-1.0,2434
1441,916441,17040,-660,920,17077.58,32.11,-1.00,-1.0,2376
1444,916444,17088,-596,800,17117.10,32.01,-1.00,-1.0,2419
1447,916447,16988,-632,780,17017.64,32.11,-1.00,-1.0,2364
1450,916450,17064,-652,820,17096.13,32.01,-1.00,-1.0,2420
1452,916452,17044,-636,812,17075.18,32.11,-1.00,-1.0,2368
1457,916457,16988,-512,864,17017.66,32.01,-1.00,-1.0,2441
1460,916460,17072,-656,816,17104.07,32.11,-1.00,-1.0,2380
1463,916463,17028,-556,848,17058.17,32.11,-1.00,-1.0,2431
1466,916466,17000,-552,780,17026.83,32.01,-1.00,-1.0,2370
1468,916468,17084,-620,852,17116.46,32.06,-1.00,-1.0,2366
1471,916471,17092,-656,792,17122.91,32.06,-1.00,-1.0,2419
1474,916474,17096,-664,816,17128.34,32.06,-1.00,-1.0,2376
1477,916477,16948,-572,932,16983.24,32.06,-1.00,-1.0,2419
1480,916480,16948,-636,820,16979.74,32.06,-1.00,-1.0,2370
1485,916485,17072,-656,760,17101.49,32.06,-1.00,-1.0,2433
1487,916487,17120,-636,820,17151.42,32.11,-1.00,-1.0,2369
1490,916490,17084,-656,728,17112.08,32.06,-1.00,-1.0,2428
1493,916493,16916,-556,808,16944.41,32.11,-1.00,-1.0,2370
1496,916496,17036,-620,1008,17077.05,32.06,-1.00,-1.0,2419
1498,916498,17040,-596,1024,17081.14,32.06,-1.00,-1.0,2370
1501,916501,17008,-584,784,17036.07,32.06,-1.00,-1.0,2373
1504,916504,17100,-604,948,17136.90,32.11,-1.00,-1.0,2420
1507,916507,16992,-624,684,17017.21,31.97,-1.00,-1.0,2370
1511,916511,17072,-700,736,17102.19,32.11,-1.00,-1.0,2431
1514,916514,17068,-680,868,17103.58,32.15,-1.00,-1.0,2365
1517,916517,17044,-664,804,17075.87,31.97,-1.00,-1.0,2436
1520,916520,17028,-616,888,17062.26,31.97,-1.00,-1.0,2368
1522,916522,17084,-692,912,17122.31,32.11,-1.00,-1.0,2427
1525,916525,17020,-640,1008,17061.83,32.01,-1.00,-1.0,2369
1528,916528,17020,-580,812,17049.23,32.11,-1.00,-1.0,2426
1531,916531,16956,-592,824,16986.33,32.01,-1.00,-1.0,2372
1534,916534,17100,-596,800,17129.07,32.15,-1.00,-1.0,2366
1538,916538,17100,-668,864,17134.84,32.06,-1.00,-1.0,2437
1541,916541,17080,-560,656,17101.76,32.01,-1.00,-1.0,2369
1544,916544,16944,-544,960,16979.89,32.06,-1.00,-1.0,2430
1546,916546,17036,-604,916,17071.30,31.97,-1.00,-1.0,2373
1549,916549,17020,-660,844,17053.69,32.15,-1.00,-1.0,2419
1552,916552,17012,-620,696,17037.52,32.06,-1.00,-1.0,2371
1555,916555,17056,-584,808,17085.11,32.06,-1.00,-1.0,2423
1558,916558,17108,-592,816,17137.68,32.11,-1.00,-1.0,2366
1563,916563,17040,-644,792,17070.55,32.11,-1.00,-1.0,2431
1565,916565,17128,-616,848,17160.04,32.06,-1.00,-1.0,2366
1568,916568,17052,-592,844,17083.13,32.11,-1.00,-1.0,2372
1571,916571,16996,-580,860,17027.62,32.06,-1.00,-1.0,2440
1574,916574,17064,-676,912,17101.72,32.06,-1.00,-1.0,2413
1576,916576,17080,-656,908,17116.69,32.06,-1.00,-1.0,2444
1579,916579,17036,-608,932,17072.30,32.11,-1.00,-1.0,2381
1582,916582,16956,-680,732,16985.41,31.97,-1.00,-1.0,2403
1585,916585,17008,-660,848,17041.91,32.11,-1.00,-1.0,2375
1590,916590,17028,-564,844,17058.23,32.11,-1.00,-1.0,2433
1592,916592,17092,-632,824,17123.52,32.01,-1.00,-1.0,2365
1595,916595,17024,-732,932,17065.20,32.06,-1.00,-1.0,2445
1598,916598,17028,-740,724,17059.44,32.01,-1.00,-1.0,2380
1601,916601,17112,-664,828,17144.88,31.97,-1.00,-1.0,2368
1603,916603,17040,-616,764,17068.24,32.11,-1.00,-1.0,2420
1606,916606,16976,-608,760,17003.88,32.15,-1.00,-1.0,2371
1609,916609,17060,-664,792,17091.28,32.15,-1.00,-1.0,2421
1612,916612,17028,-720,892,17066.54,32.11,-1.00,-1.0,2366
1617,916617,16996,-620,712,17022.20,32.11,-1.00,-1.0,2431
1619,916619,17080,-620,732,17106.92,32.01,-1.00,-1.0,2365
1622,916622,17092,-648,772,17121.69,32.06,-1.00,-1.0,2444
1625,916625,17124,-704,732,17154.09,32.01,-1.00,-1.0,2380
1628,916628,17104,-732,748,17135.99,32.06,-1.00,-1.0,2432
1630,916630,17084,-656,924,17121.54,32.15,-1.00,-1.0,2373
1633,916633,17028,-616,916,17063.74,32.06,-1.00,-1.0,2367
1636,916636,17016,-668,696,17043.32,32.11,-1.00,-1.0,2428
1639,916639,17084,-604,724,17110.00,31.97,-1.00,-1.0,2372
1644,916644,17060,-680,988,17102.11,32.20,-1.00,-1.0,2434
1647,916647,17060,-584,884,17092.87,32.11,-1.00,-1.0,2365
1649,916649,17036,-700,724,17065.74,32.06,-1.00,-1.0,2430
1652,916652,17024,-540,712,17047.44,32.01,-1.00,-1.0,2369
1655,916655,17040,-640,904,17075.96,32.06,-1.00,-1.0,2426
1658,916658,17004,-548,860,17034.55,32.01,-1.00,-1.0,2370
1660,916660,16964,-604,848,16995.92,32.06,-1.00,-1.0,2426
1663,916663,17064,-544,864,17094.52,32.11,-1.00,-1.0,2370
1666,916666,17012,-712,760,17043.85,32.06,-1.00,-1.0,2365
1671,916671,17072,-648,748,17100.66,32.15,-1.00,-1.0,2431
1673,916673,17036,-596,772,17063.89,32.11,-1.00,-1.0,2367
1676,916676,17052,-684,768,17082.98,32.06,-1.00,-1.0,2443
1679,916679,17076,-568,912,17109.77,32.06,-1.00,-1.0,2376
1682,916682,16992,-648,704,17018.92,32.06,-1.00,-1.0,2431
1684,916684,16920,-636,928,16957.36,32.06,-1.00,-1.0,2371
1687,916687,16996,-688,840,17030.65,32.06,-1.00,-1.0,2429
1690,916690,17088,-704,900,17126.16,31.97,-1.00,-1.0,2377
1693,916693,17000,-632,860,17033.47,32.06,-1.00,-1.0,2366
1698,916698,17044,-588,744,17070.36,32.06,-1.00,-1.0,2438
1700,916700,17004,-624,780,17033.31,32.15,-1.00,-1.0,2370
1703,916703,17032,-608,812,17062.18,32.11,-1.00,-1.0,2435
1706,916706,17052,-632,1020,17094.17,32.15,-1.00,-1.0,2358
1709,916709,17080,-580,824,17109.70,32.06,-1.00,-1.0,2428
1711,916711,17100,-612,728,17126.43,32.06,-1.00,-1.0,2380
1714,916714,17096,-624,788,17125.52,32.11,-1.00,-1.0,2420
1717,916717,17060,-696,1080,17108.31,32.06,-1.00,-1.0,2372
1722,916722,17072,-620,796,17101.79,32.11,-1.00,-1.0,2447
1725,916725,17080,-604,872,17112.91,32.01,-1.00,-1.0,2369
1727,916727,17184,-628,772,17212.79,32.25,-1.00,-1.0,2365
1730,916730,17112,-608,704,17137.26,32.11,-1.00,-1.0,2432
1733,916733,17052,-708,784,17084.69,32.06,-1.00,-1.0,2374
1735,916735,17036,-624,744,17063.65,32.01,-1.00,-1.0,2427
1738,916738,17096,-688,784,17127.79,32.15,-1.00,-1.0,2385
1741,916741,17024,-664,788,17055.16,32.11,-1.00,-1.0,2420
1744,916744,17068,-572,852,17098.82,32.11,-1.00,-1.0,2370
1749,916749,17060,-628,748,17087.93,32.01,-1.00,-1.0,2439
1751,916751,17008,-660,756,17037.58,32.01,-1.00,-1.0,2373
1754,916754,17020,-692,860,17055.76,32.01,-1.00,-1.0,2422
1757,916757,17040,-548,828,17068.90,32.06,-1.00,-1.0,2370
1759,916759,17052,-508,752,17076.13,32.06,-1.00,-1.0,2365
1762,916762,17052,-596,852,17083.67,32.06,-1.00,-1.0,2427
1765,916765,17072,-724,812,17106.63,32.06,-1.00,-1.0,2376
1768,916768,17036,-580,808,17065.01,32.06,-1.00,-1.0,2429
1771,916771,17052,-572,856,17083.05,32.06,-1.00,-1.0,2367
1776,916776,17092,-720,868,17129.16,32.11,-1.00,-1.0,2432
1778,916778,17044,-616,812,17074.45,32.01,-1.00,-1.0,2373
1781,916781,17128,-600,800,17157.17,32.15,-1.00,-1.0,2415
1784,916784,17076,-640,744,17104.18,32.11,-1.00,-1.0,2371
1787,916787,17040,-764,756,17073.86,32.06,-1.00,-1.0,2421
1790,916790,17140,-688,884,17176.57,32.01,-1.00,-1.0,2368
1792,916792,16976,-640,836,17008.62,32.06,-1.00,-1.0,2365
1795,916795,17040,-692,736,17069.92,32.11,-1.00,-1.0,2426
1798,916798,17056,-604,836,17087.15,32.06,-1.00,-1.0,2376
1803,916803,16964,-692,920,17003.02,32.06,-1.00,-1.0,2439
1806,916806,16972,-640,888,17007.26,32.06,-1.00,-1.0,2366
1808,916808,17080,-672,928,17118.39,32.06,-1.00,-1.0,2429
1811,916811,17072,-624,824,17103.26,32.15,-1.00,-1.0,2372
1814,916814,17112,-680,844,17146.29,32.06,-1.00,-1.0,2427
1817,916817,17020,-664,856,17054.44,32.06,-1.00,-1.0,2368
1819,916819,17024,-704,784,17056.58,31.97,-1.00,-1.0,2421
1822,916822,17024,-692,760,17055.00,32.15,-1.00,-1.0,2369
1825,916825,16980,-500,884,17010.35,32.06,-1.00,-1.0,2378
1830,916830,17040,-600,808,17069.69,32.06,-1.00,-1.0,2438
1833,916833,17024,-648,844,17057.22,32.15,-1.00,-1.0,2366
1835,916835,17088,-616,860,17120.71,32.20,-1.00,-1.0,2431
1838,916838,16976,-644,864,17010.17,32.06,-1.00,-1.0,2370
1841,916841,17024,-644,772,17053.66,32.11,-1.00,-1.0,2422
1844,916844,16976,-636,868,17010.07,32.06,-1.00,-1.0,2368
1846,916846,17032,-576,712,17056.60,32.11,-1.00,-1.0,2420
1849,916849,17020,-708,920,17059.54,32.06,-1.00,-1.0,2370
1854,916854,17044,-640,876,17078.49,32.06,-1.00,-1.0,2432
1857,916857,17044,-580,768,17071.15,32.06,-1.00,-1.0,2367
1859,916859,17076,-612,776,17104.58,32.06,-1.00,-1.0,2365
1862,916862,17072,-728,752,17104.05,32.01,-1.00,-1.0,2435
1865,916865,17068,-664,840,17101.55,32.11,-1.00,-1.0,2377
1868,916868,17048,-692,816,17081.54,32.11,-1.00,-1.0,2429
1870,916870,17112,-716,860,17148.55,32.01,-1.00,-1.0,2371
1873,916873,17024,-672,884,17060.18,32.11,-1.00,-1.0,2433
1876,916876,17088,-656,880,17123.21,32.01,-1.00,-1.0,2377
1881,916881,17076,-620,780,17105.04,32.11,-1.00,-1.0,2438
1884,916884,17072,-624,848,17104.43,32.06,-1.00,-1.0,2366
1886,916886,17060,-604,848,17091.74,32.01,-1.00,-1.0,2439
1889,916889,16964,-728,920,17004.52,32.11,-1.00,-1.0,2378
1892,916892,17180,-620,848,17212.09,32.06,-1.00,-1.0,2366
1895,916895,17044,-576,904,17077.67,32.06,-1.00,-1.0,2420
1897,916897,17032,-608,812,17062.18,32.06,-1.00,-1.0,2369
1900,916900,17060,-520,908,17092.06,32.06,-1.00,-1.0,2421
1903,916903,17052,-580,840,17082.53,32.06,-1.00,-1.0,2372
1908,916908,17088,-680,896,17124.98,32.01,-1.00,-1.0,2438
1911,916911,16984,-692,800,17016.91,32.11,-1.00,-1.0,2367
1913,916913,17108,-632,772,17137.07,32.06,-1.00,-1.0,2437
1916,916916,17092,-724,804,17126.21,32.06,-1.00,-1.0,2384
1919,916919,17032,-640,784,17062.04,32.06,-1.00,-1.0,2366
1922,916922,17064,-684,796,17096.24,32.15,-1.00,-1.0,2406
1924,916924,17056,-592,868,17088.33,32.06,-1.00,-1.0,2369
1927,916927,17044,-664,764,17074.03,32.01,-1.00,-1.0,2421
1930,916930,17092,-732,872,17129.88,32.06,-1.00,-1.0,2369
1935,916935,17052,-652,764,17081.55,32.11,-1.00,-1.0,2432
1938,916938,17076,-588,768,17103.37,32.06,-1.00,-1.0,2368
1940,916940,17068,-624,852,17100.64,32.01,-1.00,-1.0,2428
1943,916943,17076,-692,784,17107.99,32.01,-1.00,-1.0,2369
1946,916946,17028,-600,756,17055.33,32.01,-1.00,-1.0,2426
1949,916949,17104,-564,944,17139.31,32.06,-1.00,-1.0,2369
1951,916951,17028,-604,748,17055.12,32.01,-1.00,-1.0,2373
1954,916954,17068,-596,876,17100.85,32.11,-1.00,-1.0,2420
1957,916957,17108,-600,1040,17150.08,32.06,-1.00,-1.0,2369
1962,916962,17080,-632,796,17110.21,32.15,-1.00,-1.0,2431
1964,916964,17060,-580,848,17090.91,32.11,-1.00,-1.0,2369
1967,916967,17080,-596,748,17106.76,31.97,-1.00,-1.0,2442
1970,916970,17052,-696,924,17091.19,32.06,-1.00,-1.0,2376
1973,916973,17108,-564,784,17135.24,32.06,-1.00,-1.0,2433
1975,916975,17032,-620,792,17061.67,32.15,-1.00,-1.0,2379
1978,916978,17124,-636,764,17152.83,32.06,-1.00,-1.0,2419
1981,916981,17032,-704,800,17065.30,32.01,-1.00,-1.0,2358
1984,916984,16960,-628,956,16998.53,32.01,-1.00,-1.0,2354
1989,916989,17028,-680,752,17058.16,32.06,-1.00,-1.0,2433
1992,916992,17008,-540,768,17033.89,32.06,-1.00,-1.0,2375
1995,916995,17072,-592,876,17104.71,32.15,-1.00,-1.0,2428
1997,916997,17116,-596,720,17141.50,32.06,-1.00,-1.0,2372
2000,917000,17072,-620,688,17097.10,32.11,-1.00,-1.0,2419
2003,917003,17020,-584,764,17047.14,32.06,-1.00,-1.0,2370
2006,917006,17064,-680,704,17092.05,32.11,-1.00,-1.0,2419
2008,917008,17020,-596,728,17045.98,32.15,-1.00,-1.0,2371
2013,917013,16964,-712,784,16997.03,32.11,-1.00,-1.0,2437
2016,917016,17000,-540,792,17027.00,31.97,-1.00,-1.0,2354
2019,917019,17060,-592,920,17095.04,32.11,-1.00,-1.0,2365
2021,917021,17116,-668,776,17146.60,32.01,-1.00,-1.0,2428
2024,917024,16980,-700,800,17013.24,32.11,-1.00,-1.0,2373
2027,917027,17056,-624,724,17082.76,32.06,-1.00,-1.0,2427
2030,917030,17096,-544,824,17124.49,32.11,-1.00,-1.0,2369
2032,917032,17056,-704,824,17090.40,32.06,-1.00,-1.0,2420
2035,917035,17024,-740,940,17065.98,32.01,-1.00,-1.0,2373
2040,917040,17096,-692,908,17134.08,32.11,-1.00,-1.0,2431
2043,917043,17004,-740,724,17035.49,32.11,-1.00,-1.0,2367
2046,917046,17060,-640,896,17095.50,32.06,-1.00,-1.0,2428
2048,917048,17076,-640,824,17107.85,32.01,-1.00,-1.0,2360
2051,917051,17040,-612,852,17072.26,32.06,-1.00,-1.0,2374
2054,917054,17108,-660,776,17138.30,32.11,-1.00,-1.0,2435
2056,917056,17148,-680,816,17180.87,31.97,-1.00,-1.0,2378
2059,917059,17048,-764,904,17089.04,32.01,-1.00,-1.0,2419
2062,917062,17148,-684,836,17181.99,32.06,-1.00,-1.0,2370
2067,917067,17008,-572,856,17039.13,32.11,-1.00,-1.0,2431
2070,917070,16980,-604,804,17009.75,32.01,-1.00,-1.0,2365
2073,917073,17092,-572,728,17117.06,32.15,-1.00,-1.0,2438
2076,917076,17080,-608,712,17105.64,32.20,-1.00,-1.0,2366
2078,917078,17148,-560,824,17176.92,32.06,-1.00,-1.0,2423
2081,917081,17092,-732,632,17119.34,32.11,-1.00,-1.0,2370
2084,917084,17112,-580,780,17139.58,32.06,-1.00,-1.0,2366
2086,917086,17064,-556,844,17093.90,32.15,-1.00,-1.0,2430
2089,917089,17044,-672,964,17084.46,32.06,-1.00,-1.0,2369
2094,917094,17064,-668,860,17098.71,32.06,-1.00,-1.0,2431
2097,917097,17112,-560,780,17138.92,32.15,-1.00,-1.0,2367
2100,917100,17020,-684,784,17051.77,32.06,-1.00,-1.0,2429
2102,917102,17000,-632,1060,17044.74,32.06,-1.00,-1.0,2369
2105,917105,17068,-708,780,17100.48,32.06,-1.00,-1.0,2420
2108,917108,17080,-624,864,17113.22,32.15,-1.00,-1.0,2369
2111,917111,17052,-680,768,17082.83,32.06,-1.00,-1.0,2420
2113,917113,17028,-632,844,17060.61,32.15,-1.00,-1.0,2369
2116,917116,17060,-684,676,17087.08,32.01,-1.00,-1.0,2374
2121,917121,17036,-572,788,17063.80,32.06,-1.00,-1.0,2431
2124,917124,17044,-640,780,17073.84,32.06,-1.00,-1.0,2374
2127,917127,17084,-496,704,17105.69,32.11,-1.00,-1.0,2428
2129,917129,17032,-596,724,17057.80,32.06,-1.00,-1.0,2370
2132,917132,17036,-620,824,17067.18,32.01,-1.00,-1.0,2419
2135,917135,17140,-656,828,17172.52,32.06,-1.00,-1.0,2377
2138,917138,17096,-612,816,17126.40,32.11,-1.00,-1.0,2419
2140,917140,16996,-572,780,17023.50,32.06,-1.00,-1.0,2369
2143,917143,17060,-576,860,17091.37,32.01,-1.00,-1.0,2380
2148,917148,16964,-592,852,16995.70,32.15,-1.00,-1.0,2431
2151,917151,17056,-624,932,17092.84,32.01,-1.00,-1.0,2372
2154,917154,17080,-604,984,17118.98,32.06,-1.00,-1.0,2428
2156,917156,16972,-616,832,17003.54,32.06,-1.00,-1.0,2370
2159,917159,17000,-644,772,17029.70,32.06,-1.00,-1.0,2419
2162,917162,17036,-576,860,17067.42,32.11,-1.00,-1.0,2369
2165,917165,17144,-608,852,17175.92,32.06,-1.00,-1.0,2419
2167,917167,17120,-572,812,17148.79,32.15,-1.00,-1.0,2369
2172,917172,17076,-648,772,17105.72,32.11,-1.00,-1.0,2438
2175,917175,17140,-608,876,17173.14,32.11,-1.00,-1.0,2365
2177,917177,17092,-668,796,17123.56,32.20,-1.00,-1.0,2352
2180,917180,17076,-612,848,17107.99,32.15,-1.00,-1.0,2428
2183,917183,17104,-668,836,17137.44,31.97,-1.00,-1.0,2372
2186,917186,17120,-608,832,17150.98,31.97,-1.00,-1.0,2419
2188,917188,17044,-576,768,17071.01,32.06,-1.00,-1.0,2370
2191,917191,17028,-640,896,17063.56,32.15,-1.00,-1.0,2419
2194,917194,17060,-648,816,17091.79,32.06,-1.00,-1.0,2373
2199,917199,17072,-600,892,17105.81,32.11,-1.00,-1.0,2440
2202,917202,16988,-720,904,17027.27,32.20,-1.00,-1.0,2373
2205,917205,16928,-600,780,16956.58,32.06,-1.00,-1.0,2438
2207,917207,16988,-604,792,17017.17,32.11,-1.00,-1.0,2376
2210,917210,17028,-624,700,17053.80,32.06,-1.00,-1.0,2364
2213,917213,17044,-532,856,17073.77,32.11,-1.00,-1.0,2426
2216,917216,17072,-644,904,17108.04,31.97,-1.00,-1.0,2368
2218,917218,17004,-564,704,17027.91,32.15,-1.00,-1.0,2419
2221,917221,17116,-620,868,17149.21,32.06,-1.00,-1.0,2369
2226,917226,17096,-568,940,17131.24,32.06,-1.00,-1.0,2437
2229,917229,17144,-660,824,17176.47,32.11,-1.00,-1.0,2360
2232,917232,17008,-612,764,17036.15,32.15,-1.00,-1.0,2435
2234,917234,17068,-680,896,17105.02,32.06,-1.00,-1.0,2376
2237,917237,16956,-568,820,16985.32,32.15,-1.00,-1.0,2419
2240,917240,16968,-620,656,16991.99,32.06,-1.00,-1.0,2370
2243,917243,17076,-540,680,17098.06,32.20,-1.00,-1.0,2366
2245,917245,17068,-632,972,17107.33,32.11,-1.00,-1.0,2420
2248,917248,17132,-748,668,17161.33,32.15,-1.00,-1.0,2369
2253,917253,17044,-504,872,17073.73,31.97,-1.00,-1.0,2431
2256,917256,17080,-680,816,17113.00,32.15,-1.00,-1.0,2352
2259,917259,17068,-672,816,17100.70,32.15,-1.00,-1.0,2429
2261,917261,17060,-584,828,17090.06,32.06,-1.00,-1.0,2373
2264,917264,17080,-572,1012,17119.51,32.15,-1.00,-1.0,2419
2267,917267,17052,-608,876,17085.31,31.97,-1.00,-1.0,2373
2270,917270,17052,-664,816,17084.42,32.11,-1.00,-1.0,2421
2273,917273,17104,-564,812,17132.55,32.15,-1.00,-1.0,2369
2275,917275,17072,-668,864,17106.90,32.06,-1.00,-1.0,2352
2280,917280,17140,-652,808,17171.42,32.06,-1.00,-1.0,2431
2283,917283,17024,-692,800,17056.83,32.06,-1.00,-1.0,2353
2286,917286,17028,-636,908,17064.05,32.11,-1.00,-1.0,2430
2288,917288,17076,-616,868,17109.14,32.15,-1.00,-1.0,2368
2291,917291,17184,-616,912,17219.21,32.06,-1.00,-1.0,2420
2294,917294,16944,-624,820,16975.30,32.06,-1.00,-1.0,2370
2297,917297,16996,-604,840,17027.46,32.01,-1.00,-1.0,2421
2299,917299,17148,-632,692,17173.59,32.06,-1.00,-1.0,2369
2304,917304,16956,-592,844,16987.31,32.06,-1.00,-1.0,2438
2307,917307,17036,-712,864,17072.75,32.06,-1.00,-1.0,2382
2310,917310,17148,-632,796,17178.10,32.11,-1.00,-1.0,2366
2313,917313,17028,-612,688,17052.88,32.01,-1.00,-1.0,2428
2315,917315,16972,-620,904,17007.36,32.11,-1.00,-1.0,2370
2318,917318,17060,-632,780,17089.51,32.06,-1.00,-1.0,2419
2321,917321,17076,-644,880,17110.78,32.01,-1.00,-1.0,2369
2324,917324,16996,-616,772,17024.67,32.06,-1.00,-1.0,2419
2326,917326,17060,-712,788,17093.03,32.01,-1.00,-1.0,2370
2331,917331,17096,-544,904,17128.53,32.20,-1.00,-1.0,2433
2334,917334,17056,-540,832,17084.82,32.11,-1.00,-1.0,2365
2337,917337,16988,-612,740,17015.12,32.06,-1.00,-1.0,2371
2340,917340,17028,-668,716,17056.13,32.01,-1.00,-1.0,2435
2342,917342,16980,-556,812,17008.49,32.06,-1.00,-1.0,2377
2345,917345,17052,-628,760,17080.48,32.11,-1.00,-1.0,2422
2348,917348,17056,-592,864,17088.13,32.15,-1.00,-1.0,2371
2351,917351,17040,-616,808,17070.26,32.01,-1.00,-1.0,2419
2353,917353,17068,-608,720,17094.00,32.06,-1.00,-1.0,2370
2358,917358,17104,-632,824,17135.50,32.06,-1.00,-1.0,2442
2361,917361,17052,-624,980,17091.53,32.06,-1.00,-1.0,2372
2364,917364,17080,-672,852,17114.44,32.01,-1.00,-1.0,2430
2366,917366,17028,-712,896,17066.42,32.11,-1.00,-1.0,2373
2369,917369,16984,-732,848,17020.90,32.06,-1.00,-1.0,2365
2372,917372,17044,-556,868,17075.14,32.15,-1.00,-1.0,2425
2375,917375,17028,-572,796,17056.19,32.11,-1.00,-1.0,2355
2377,917377,16940,-632,856,16973.38,32.11,-1.00,-1.0,2427
2380,917380,17032,-672,864,17067.13,31.97,-1.00,-1.0,2381
2385,917385,16964,-648,740,16992.49,32.06,-1.00,-1.0,2431
2388,917388,16980,-576,724,17005.19,32.01,-1.00,-1.0,2367
2391,917391,17128,-712,904,17166.61,32.06,-1.00,-1.0,2429
2393,917393,17012,-568,748,17037.91,32.06,-1.00,-1.0,2372
2396,917396,17072,-604,784,17100.66,32.06,-1.00,-1.0,2419
2399,917399,16956,-556,884,16988.13,32.15,-1.00,-1.0,2378
2401,917401,17168,-620,772,17196.53,32.01,-1.00,-1.0,2376
2405,917405,17092,-580,880,17124.46,32.11,-1.00,-1.0,2422
2407,917407,17000,-700,884,17037.36,32.01,-1.00,-1.0,2380
2412,917412,17028,-636,828,17059.98,32.01,-1.00,-1.0,2439
2415,917415,17056,-668,724,17084.42,32.06,-1.00,-1.0,2372
2418,917418,17120,-672,916,17157.65,32.11,-1.00,-1.0,2435
2421,917421,17132,-544,744,17156.77,32.11,-1.00,-1.0,2376
2424,917424,17092,-592,952,17128.72,32.01,-1.00,-1.0,2406
2426,917426,17004,-560,856,17034.74,32.15,-1.00,-1.0,2384
2429,917429,17012,-652,756,17041.27,32.11,-1.00,-1.0,2419
2432,917432,16972,-648,804,17003.38,32.11,-1.00,-1.0,2371
2434,917434,17048,-596,900,17082.14,32.01,-1.00,-1.0,2374
2439,917439,17092,-616,852,17124.30,32.11,-1.00,-1.0,2439
2442,917442,17064,-680,716,17092.55,32.06,-1.00,-1.0,2382
2445,917445,17016,-628,804,17046.55,32.01,-1.00,-1.0,2429
2448,917448,17100,-704,744,17130.65,32.11,-1.00,-1.0,2369
2451,917451,17036,-656,848,17069.70,32.11,-1.00,-1.0,2420
2453,917453,17104,-528,756,17128.84,32.11,-1.00,-1.0,2372
2456,917456,17048,-648,868,17082.38,32.11,-1.00,-1.0,2420
2459,917459,17092,-552,844,17121.73,32.11,-1.00,-1.0,2369
2464,917464,17060,-532,864,17090.15,32.11,-1.00,-1.0,2440
2466,917466,17008,-664,776,17038.64,32.01,-1.00,-1.0,2370
2469,917469,17028,-680,848,17062.66,32.15,-1.00,-1.0,2365
2472,917472,17016,-636,860,17049.59,32.15,-1.00,-1.0,2434
2475,917475,17096,-536,696,17118.55,32.06,-1.00,-1.0,2368
2477,917477,17088,-668,848,17122.06,32.15,-1.00,-1.0,2419
2480,917480,17132,-504,804,17158.26,32.15,-1.00,-1.0,2369
2483,917483,17072,-660,784,17102.73,32.06,-1.00,-1.0,2427
2486,917486,16984,-624,776,17013.17,32.15,-1.00,-1.0,2368
2491,917491,17012,-636,820,17043.62,32.11,-1.00,-1.0,2437
2493,917493,17100,-792,836,17138.73,32.11,-1.00,-1.0,2377
2496,917496,17012,-512,880,17042.44,32.06,-1.00,-1.0,2429
2499,917499,16992,-604,868,17024.87,32.11,-1.00,-1.0,2356
2502,917502,17008,-552,872,17039.28,32.06,-1.00,-1.0,2366
2504,917504,16988,-644,820,17019.97,32.01,-1.00,-1.0,2419
2507,917507,17096,-572,932,17130.94,32.06,-1.00,-1.0,2370
2510,917510,17036,-532,732,17060.02,32.11,-1.00,-1.0,2427
2513,917513,17108,-624,764,17136.42,32.06,-1.00,-1.0,2368
2518,917518,17064,-684,936,17103.33,32.15,-1.00,-1.0,2431
2520,917520,17092,-748,884,17131.18,32.06,-1.00,-1.0,2369
2523,917523,17128,-632,860,17161.22,32.15,-1.00,-1.0,2428
2526,917526,17032,-632,824,17063.63,32.15,-1.00,-1.0,2370
2528,917528,17044,-512,760,17068.62,32.11,-1.00,-1.0,2366
2531,917531,16992,-580,800,17020.71,32.01,-1.00,-1.0,2427
2534,917534,17080,-516,972,17115.42,32.11,-1.00,-1.0,2377
2537,917537,17072,-548,828,17100.85,32.11,-1.00,-1.0,2424
2540,917540,17124,-556,824,17152.83,32.11,-1.00,-1.0,2370
2545,917545,17052,-656,856,17086.07,32.06,-1.00,-1.0,2431
2547,917547,17084,-664,704,17111.39,32.06,-1.00,-1.0,2366
2550,917550,16980,-544,940,17014.70,32.06,-1.00,-1.0,2429
2553,917553,17080,-584,924,17114.94,32.06,-1.00,-1.0,2373
2556,917556,17016,-740,824,17052.00,32.11,-1.00,-1.0,2407
2558,917558,17112,-600,768,17139.73,32.06,-1.00,-1.0,2369
2561,917561,17124,-612,992,17163.62,32.11,-1.00,-1.0,2375
2564,917564,17132,-660,816,17164.12,32.06,-1.00,-1.0,2431
2567,917567,17032,-760,876,17071.44,32.11,-1.00,-1.0,2374
2572,917572,17092,-640,896,17127.43,32.01,-1.00,-1.0,2438
2575,917575,17100,-708,872,17136.85,32.20,-1.00,-1.0,2378
2578,917578,17076,-712,828,17110.88,32.06,-1.00,-1.0,2440
2580,917580,17044,-612,768,17072.27,32.15,-1.00,-1.0,2379
2583,917583,17080,-656,752,17109.13,32.15,-1.00,-1.0,2419
2586,917586,17212,-680,868,17247.28,32.15,-1.00,-1.0,2372
2589,917589,17124,-608,796,17153.27,32.15,-1.00,-1.0,2425
2591,917591,16940,-540,868,16970.82,32.15,-1.00,-1.0,2376
2594,917594,17172,-580,892,17204.93,32.06,-1.00,-1.0,2366
2599,917599,16984,-672,828,17017.45,32.06,-1.00,-1.0,2432
2601,917601,17108,-652,968,17147.76,32.15,-1.00,-1.0,2370
2604,917604,17032,-668,848,17066.18,32.15,-1.00,-1.0,2428
2607,917607,16996,-704,812,17029.94,31.97,-1.00,-1.0,2366
2610,917610,17044,-644,680,17069.71,32.01,-1.00,-1.0,2421
2612,917612,17060,-556,944,17095.14,32.06,-1.00,-1.0,2370
2615,917615,17092,-612,768,17120.19,32.11,-1.00,-1.0,2419
2618,917618,17020,-636,856,17053.38,32.06,-1.00,-1.0,2353
2623,917623,17052,-624,856,17084.87,32.06,-1.00,-1.0,2461
2626,917626,16972,-584,788,17000.32,32.06,-1.00,-1.0,2369
2628,917628,17052,-648,892,17087.61,32.11,-1.00,-1.0,2366
2631,917631,17008,-624,852,17040.76,32.06,-1.00,-1.0,2435
2634,917634,17036,-572,804,17064.55,32.06,-1.00,-1.0,2377
2637,917637,16976,-592,808,17005.53,32.06,-1.00,-1.0,2435
2639,917639,17044,-580,808,17073.00,32.06,-1.00,-1.0,2372
2642,917642,17020,-640,716,17047.07,32.06,-1.00,-1.0,2431
2645,917645,17048,-572,832,17077.87,32.15,-1.00,-1.0,2376
2650,917650,17076,-668,972,17116.68,32.15,-1.00,-1.0,2450
2653,917653,17020,-668,816,17052.64,31.97,-1.00,-1.0,2367
2655,917655,17084,-680,844,17118.35,32.06,-1.00,-1.0,2435
2658,917658,17020,-624,780,17049.29,32.06,-1.00,-1.0,2376
2661,917661,17072,-636,804,17102.75,32.11,-1.00,-1.0,2367
2664,917664,17080,-708,864,17116.49,32.11,-1.00,-1.0,2422
2666,917666,17016,-720,844,17052.12,32.01,-1.00,-1.0,2369
2669,917669,17036,-664,788,17067.14,32.06,-1.00,-1.0,2457
2672,917672,17008,-672,788,17039.50,31.97,-1.00,-1.0,2376
2677,917677,17028,-556,732,17052.79,32.06,-1.00,-1.0,2448
2680,917680,17068,-568,748,17093.82,32.06,-1.00,-1.0,2368
2682,917682,17048,-692,776,17079.68,32.15,-1.00,-1.0,2431
2685,917685,17056,-604,876,17089.16,32.06,-1.00,-1.0,2377
2688,917688,17132,-780,788,17167.84,32.15,-1.00,-1.0,2423
2691,917691,17112,-604,892,17145.88,32.06,-1.00,-1.0,2370
2693,917693,16992,-600,840,17023.33,32.06,-1.00,-1.0,2427
2696,917696,17056,-624,824,17087.29,32.01,-1.00,-1.0,2422
2699,917699,17052,-624,760,17080.33,32.06,-1.00,-1.0,2372
2704,917704,17036,-636,804,17066.82,32.06,-1.00,-1.0,2443
2707,917707,16936,-604,744,16963.09,32.06,-1.00,-1.0,2373
2710,917710,17068,-604,740,17094.71,32.01,-1.00,-1.0,2424
2712,917712,16992,-632,696,17017.99,32.01,-1.00,-1.0,2375
2715,917715,17076,-556,760,17101.95,32.11,-1.00,-1.0,2424
2718,917718,17092,-736,764,17124.89,32.11,-1.00,-1.0,2369
2720,917720,17044,-680,808,17076.69,32.11,-1.00,-1.0,2366
2723,917723,17008,-564,788,17035.58,32.06,-1.00,-1.0,2422
2726,917726,17040,-568,736,17065.34,32.01,-1.00,-1.0,2367
2731,917731,17132,-680,796,17163.96,32.11,-1.00,-1.0,2441
2734,917734,17004,-616,888,17038.31,32.01,-1.00,-1.0,2369
2736,917736,17092,-692,748,17122.35,32.06,-1.00,-1.0,2421
2739,917739,16908,-556,920,16942.14,32.01,-1.00,-1.0,2368
2742,917742,17076,-604,860,17108.31,32.06,-1.00,-1.0,2429
2745,917745,17080,-604,708,17105.33,32.01,-1.00,-1.0,2368
2747,917747,17120,-584,888,17152.96,32.15,-1.00,-1.0,2421
2750,917750,17020,-696,780,17052.07,32.11,-1.00,-1.0,2368
2753,917753,17044,-556,788,17071.26,32.01,-1.00,-1.0,2366
2758,917758,17064,-592,752,17090.82,32.11,-1.00,-1.0,2440
2760,917760,17008,-604,820,17038.46,32.11,-1.00,-1.0,2355
2763,917763,17060,-628,660,17084.31,32.06,-1.00,-1.0,2421
2766,917766,17044,-572,764,17070.70,32.11,-1.00,-1.0,2372
2769,917769,17092,-572,832,17121.79,32.06,-1.00,-1.0,2421
2772,917772,17036,-620,784,17065.30,32.11,-1.00,-1.0,2370
2774,917774,17032,-572,828,17061.71,32.15,-1.00,-1.0,2420
2777,917777,17044,-724,788,17077.56,32.11,-1.00,-1.0,2371
2782,917782,16928,-592,884,16961.40,32.06,-1.00,-1.0,2447
2785,917785,17084,-568,880,17116.08,32.06,-1.00,-1.0,2367
2787,917787,17004,-640,892,17039.40,32.01,-1.00,-1.0,2373
2790,917790,17020,-568,804,17048.44,32.11,-1.00,-1.0,2410
2793,917793,17132,-656,836,17164.93,32.11,-1.00,-1.0,2368
2795,917795,17060,-668,724,17088.42,32.01,-1.00,-1.0,2430
2798,917798,16984,-728,756,17016.40,32.01,-1.00,-1.0,2375
2801,917801,17052,-556,844,17081.93,32.11,-1.00,-1.0,2424
2804,917804,17092,-660,772,17122.15,32.06,-1.00,-1.0,2374
2809,917809,17148,-688,744,17177.92,32.06,-1.00,-1.0,2440
2811,917811,17036,-624,844,17068.30,32.06,-1.00,-1.0,2367
2814,917814,17124,-652,1016,17166.50,31.97,-1.00,-1.0,2421
2817,917817,17096,-568,660,17118.16,32.15,-1.00,-1.0,2367
2819,917819,17096,-612,808,17126.02,32.15,-1.00,-1.0,2368
2822,917822,17092,-612,848,17123.96,32.01,-1.00,-1.0,2428
2825,917825,17048,-624,824,17079.30,32.15,-1.00,-1.0,2375
2828,917828,17020,-608,744,17047.10,32.01,-1.00,-1.0,2428
2831,917831,17108,-716,896,17146.40,32.06,-1.00,-1.0,2367
2836,917836,16996,-544,800,17023.51,32.06,-1.00,-1.0,2448
2839,917839,17096,-688,812,17129.10,32.15,-1.00,-1.0,2367
2841,917841,17092,-628,896,17126.99,32.01,-1.00,-1.0,2422
2844,917844,17048,-632,644,17071.86,32.15,-1.00,-1.0,2368
2847,917847,17084,-668,824,17116.90,32.01,-1.00,-1.0,2427
2850,917850,17136,-600,872,17168.66,31.97,-1.00,-1.0,2369
2852,917852,17036,-540,920,17069.37,32.01,-1.00,-1.0,2374
2855,917855,17140,-604,892,17173.82,32.15,-1.00,-1.0,2423
2858,917858,17108,-572,792,17135.87,32.20,-1.00,-1.0,2373
2863,917863,17052,-652,820,17084.15,32.11,-1.00,-1.0,2448
2866,917866,17044,-692,880,17080.73,32.11,-1.00,-1.0,2367
2868,917868,17176,-632,720,17202.70,32.11,-1.00,-1.0,2438
2871,917871,17008,-656,848,17041.76,32.20,-1.00,-1.0,2380
2874,917874,16976,-632,748,17004.22,32.06,-1.00,-1.0,2424
2877,917877,17040,-612,876,17073.47,32.11,-1.00,-1.0,2369
2879,917879,17048,-652,780,17078.29,32.06,-1.00,-1.0,2429
2882,917882,17080,-600,832,17110.78,32.11,-1.00,-1.0,2376
2885,917885,17108,-568,692,17131.41,32.11,-1.00,-1.0,2373
2890,917890,17104,-628,724,17130.83,32.11,-1.00,-1.0,2448
2893,917893,17072,-608,832,17103.07,32.01,-1.00,-1.0,2367
2895,917895,17036,-668,736,17064.97,32.06,-1.00,-1.0,2428
2898,917898,17064,-648,676,17089.67,32.01,-1.00,-1.0,2375
2901,917901,17068,-656,896,17104.09,32.06,-1.00,-1.0,2411
2904,917904,17060,-668,780,17090.88,32.11,-1.00,-1.0,2370
2906,917906,17028,-576,780,17055.58,32.06,-1.00,-1.0,2430
2909,917909,17056,-636,772,17085.30,32.11,-1.00,-1.0,2376
2914,917914,17076,-728,824,17111.36,32.11,-1.00,-1.0,2440
2917,917917,17028,-612,688,17052.88,32.01,-1.00,-1.0,2371
2919,917919,17068,-652,724,17095.79,32.06,-1.00,-1.0,2373
2922,917922,17060,-504,764,17084.54,32.01,-1.00,-1.0,2421
2925,917925,17088,-560,820,17116.83,32.06,-1.00,-1.0,2369
2928,917928,17012,-680,780,17043.44,32.06,-1.00,-1.0,2420
2930,917930,17172,-684,764,17202.59,32.15,-1.00,-1.0,2369
2933,917933,17012,-628,700,17037.97,32.01,-1.00,-1.0,2421
2936,917936,17004,-652,796,17035.10,32.06,-1.00,-1.0,2371
2941,917941,17016,-624,904,17051.42,31.97,-1.00,-1.0,2456
2944,917944,17000,-628,800,17030.40,32.06,-1.00,-1.0,2375
2947,917947,17012,-584,788,17040.25,32.15,-1.00,-1.0,2368
2949,917949,17012,-628,888,17046.73,32.11,-1.00,-1.0,2421
2952,917952,17096,-612,832,17127.17,32.01,-1.00,-1.0,2369
2955,917955,17132,-612,964,17170.01,32.01,-1.00,-1.0,2428
2958,917958,17100,-656,752,17129.09,32.01,-1.00,-1.0,2367
2960,917960,16992,-584,768,17019.37,32.11,-1.00,-1.0,2421
2963,917963,17044,-648,880,17079.00,32.01,-1.00,-1.0,2368
2968,917968,17088,-592,816,17117.71,32.06,-1.00,-1.0,2443
2971,917971,17128,-560,940,17162.91,32.06,-1.00,-1.0,2366
2974,917974,16964,-660,700,16991.26,32.11,-1.00,-1.0,2422
2976,917976,17120,-692,848,17154.95,32.06,-1.00,-1.0,2358
2979,917979,17056,-652,884,17091.33,32.11,-1.00,-1.0,2367
2982,917982,16972,-628,844,17004.57,32.06,-1.00,-1.0,2420
2984,917984,17068,-588,928,17103.32,32.11,-1.00,-1.0,2369
2987,917987,17080,-544,948,17114.94,32.06,-1.00,-1.0,2421
2990,917990,17024,-596,724,17049.81,32.11,-1.00,-1.0,2368
2995,917995,16992,-636,956,17030.75,32.20,-1.00,-1.0,2447
2998,917998,17056,-608,856,17088.29,32.11,-1.00,-1.0,2368
3000,918000,17040,-648,844,17073.19,32.15,-1.00,-1.0,2423
3003,918003,16988,-592,864,17020.26,32.11,-1.00,-1.0,2368
3006,918006,17064,-596,808,17093.51,32.06,-1.00,-1.0,2424
3009,918009,17160,-676,784,17191.20,32.11,-1.00,-1.0,2367
3011,918011,17116,-588,1036,17157.40,32.06,-1.00,-1.0,2385
3014,918014,16976,-640,792,17006.51,32.15,-1.00,-1.0,2421
3017,918017,17020,-528,820,17047.92,32.11,-1.00,-1.0,2368
3022,918022,16952,-592,1016,16992.73,32.06,-1.00,-1.0,2447
3024,918024,16996,-604,800,17025.54,32.15,-1.00,-1.0,2375
3027,918027,17144,-548,912,17176.98,32.11,-1.00,-1.0,2421
3030,918030,17064,-652,852,17097.69,32.11,-1.00,-1.0,2356
3033,918033,17036,-576,792,17064.12,32.11,-1.00,-1.0,2421
3036,918036,17092,-744,636,17120.00,32.15,-1.00,-1.0,2427
3038,918038,17032,-640,720,17059.22,32.11,-1.00,-1.0,2427
3041,918041,17048,-740,876,17086.52,32.06,-1.00,-1.0,2389
3044,918044,17024,-576,820,17053.47,32.15,-1.00,-1.0,2368
3049,918049,17084,-536,880,17115.04,32.01,-1.00,-1.0,2441
3052,918052,17108,-620,820,17138.86,32.01,-1.00,-1.0,2366
3055,918055,17016,-544,804,17043.67,32.06,-1.00,-1.0,2422
3057,918057,17076,-688,904,17113.75,32.01,-1.00,-1.0,2368
3060,918060,17124,-620,956,17161.87,32.06,-1.00,-1.0,2421
3063,918063,17092,-564,896,17124.76,32.11,-1.00,-1.0,2370
3066,918066,17112,-604,852,17143.84,32.06,-1.00,-1.0,2408
3068,918068,17100,-628,992,17140.26,32.11,-1.00,-1.0,2369
3073,918073,17080,-652,856,17113.86,32.11,-1.00,-1.0,2448
3076,918076,17064,-616,824,17094.99,32.11,-1.00,-1.0,2367
3079,918079,17120,-568,768,17146.63,32.15,-1.00,-1.0,2364
3081,918081,17040,-648,752,17068.89,32.06,-1.00,-1.0,2425
3084,918084,16996,-680,892,17032.97,31.97,-1.00,-1.0,2368
3087,918087,17076,-596,912,17110.72,32.15,-1.00,-1.0,2424
3090,918090,17040,-676,748,17069.80,32.06,-1.00,-1.0,2368
3092,918092,17052,-616,748,17079.51,32.06,-1.00,-1.0,2423
3095,918095,17140,-624,720,17166.46,32.06,-1.00,-1.0,2369
3100,918100,16976,-648,960,17015.47,32.06,-1.00,-1.0,2441
3103,918103,17088,-672,688,17115.04,32.06,-1.00,-1.0,2367
3106,918106,17040,-684,748,17070.12,32.06,-1.00,-1.0,2420
3108,918108,16920,-664,768,16950.43,32.06,-1.00,-1.0,2368
3111,918111,17044,-532,792,17070.68,32.01,-1.00,-1.0,2355
3114,918114,17064,-688,876,17100.32,32.01,-1.00,-1.0,2430
3116,918116,16968,-712,932,17008.49,32.11,-1.00,-1.0,2377
3119,918119,17024,-680,852,17058.87,32.01,-1.00,-1.0,2420
3122,918122,17080,-528,908,17112.27,32.11,-1.00,-1.0,2375
3127,918127,17004,-656,752,17033.26,32.11,-1.00,-1.0,2440
3130,918130,17136,-668,840,17169.58,32.15,-1.00,-1.0,2374
3133,918133,17004,-604,852,17036.04,32.01,-1.00,-1.0,2424
3135,918135,17088,-568,852,17118.65,32.06,-1.00,-1.0,2370
3138,918138,17092,-608,792,17121.14,32.11,-1.00,-1.0,2435
3141,918141,17060,-772,824,17097.33,32.11,-1.00,-1.0,2379
3144,918144,17028,-604,924,17063.74,32.06,-1.00,-1.0,2369
3146,918146,17048,-644,924,17085.16,32.15,-1.00,-1.0,2421
3149,918149,17084,-540,780,17110.32,32.01,-1.00,-1.0,2376
3154,918154,16992,-696,860,17027.98,32.11,-1.00,-1.0,2456
3157,918157,17012,-660,772,17042.29,32.11,-1.00,-1.0,2376
3160,918160,16992,-592,940,17028.27,32.06,-1.00,-1.0,2431
3162,918162,17020,-640,832,17052.34,31.92,-1.00,-1.0,2376
3165,918165,16980,-620,844,17012.26,32.06,-1.00,-1.0,2421
3168,918168,17052,-628,852,17084.82,32.11,-1.00,-1.0,2371
3171,918171,17112,-636,772,17141.21,32.06,-1.00,-1.0,2366
3173,918173,17020,-596,792,17048.84,32.11,-1.00,-1.0,2424
3176,918176,17052,-576,836,17082.20,32.11,-1.00,-1.0,2371
3181,918181,17164,-624,756,17191.97,32.06,-1.00,-1.0,2455
3184,918184,17060,-480,988,17095.33,32.11,-1.00,-1.0,2370
3187,918187,17048,-672,824,17081.12,31.97,-1.00,-1.0,2428
3190,918190,16976,-564,776,17003.08,32.15,-1.00,-1.0,2426
3192,918192,17048,-572,1012,17087.59,32.06,-1.00,-1.0,2427
3195,918195,17104,-652,820,17136.05,32.11,-1.00,-1.0,2389
3198,918198,16976,-592,676,16999.77,31.97,-1.00,-1.0,2419
3201,918201,17148,-728,904,17187.24,32.11,-1.00,-1.0,2377
3203,918203,17096,-704,888,17133.52,32.15,-1.00,-1.0,2366
3208,918208,17060,-608,876,17093.29,32.01,-1.00,-1.0,2438
3211,918211,16976,-668,940,17015.12,32.01,-1.00,-1.0,2376
3214,918214,17048,-656,732,17076.31,32.01,-1.00,-1.0,2421
3216,918216,16988,-644,896,17023.80,32.11,-1.00,-1.0,2369
3219,918219,17008,-568,836,17038.00,32.01,-1.00,-1.0,2422
3222,918222,17092,-644,876,17126.55,32.11,-1.00,-1.0,2376
3225,918225,17108,-568,952,17143.88,32.11,-1.00,-1.0,2422
3227,918227,17128,-528,716,17151.09,32.11,-1.00,-1.0,2368
3232,918232,17168,-668,836,17201.32,32.06,-1.00,-1.0,2439
3235,918235,16992,-576,820,17021.52,32.15,-1.00,-1.0,2369
3237,918237,17108,-672,844,17141.98,32.11,-1.00,-1.0,2365
3240,918240,17048,-592,880,17080.96,32.01,-1.00,-1.0,2421
3243,918243,17084,-648,852,17117.50,32.20,-1.00,-1.0,2376
3246,918246,17032,-656,728,17060.17,32.11,-1.00,-1.0,2421
3248,918248,16964,-576,696,16988.04,32.11,-1.00,-1.0,2369
3251,918251,17092,-692,904,17129.87,32.01,-1.00,-1.0,2421
3254,918254,17024,-540,736,17048.46,32.11,-1.00,-1.0,2368
3259,918259,17124,-700,860,17159.87,32.11,-1.00,-1.0,2439
3262,918262,17060,-656,748,17088.99,32.06,-1.00,-1.0,2368
3265,918265,16980,-504,924,17012.59,32.11,-1.00,-1.0,2421
3267,918267,17128,-568,928,17162.52,31.97,-1.00,-1.0,2354
3270,918270,16980,-536,704,17003.04,32.11,-1.00,-1.0,2366
3273,918273,17036,-632,840,17068.40,32.06,-1.00,-1.0,2428
3276,918276,17092,-632,784,17121.64,32.11,-1.00,-1.0,2355
3278,918278,16980,-592,808,17009.52,32.01,-1.00,-1.0,2421
3281,918281,17016,-540,676,17037.98,32.01,-1.00,-1.0,2368
3286,918286,17060,-568,872,17091.71,32.11,-1.00,-1.0,2439
3289,918289,16980,-672,932,17018.83,32.01,-1.00,-1.0,2355
3292,918292,17000,-524,712,17022.97,32.01,-1.00,-1.0,2427
3295,918295,17144,-588,844,17174.83,32.06,-1.00,-1.0,2367
3297,918297,17044,-656,812,17075.94,32.01,-1.00,-1.0,2421
3300,918300,17044,-684,792,17076.10,32.01,-1.00,-1.0,2369
3303,918303,17156,-708,864,17192.33,32.06,-1.00,-1.0,2370
3305,918305,17032,-608,852,17064.13,32.15,-1.00,-1.0,2430
3308,918308,17068,-652,692,17094.46,32.11,-1.00,-1.0,2369
3313,918313,17128,-556,900,17160.64,32.11,-1.00,-1.0,2437
3316,918316,17076,-604,776,17104.29,32.11,-1.00,-1.0,2370
3319,918319,17128,-704,748,17158.77,32.11,-1.00,-1.0,2429
3322,918322,17024,-560,720,17048.42,32.11,-1.00,-1.0,2366
3324,918324,17056,-668,820,17088.76,32.15,-1.00,-1.0,2423
3327,918327,17092,-620,796,17121.75,32.11,-1.00,-1.0,2368
3330,918330,17028,-640,824,17059.93,32.06,-1.00,-1.0,2423
3333,918333,17028,-684,808,17060.88,32.01,-1.00,-1.0,2367
3335,918335,16988,-576,760,17014.74,32.06,-1.00,-1.0,2368
3340,918340,17040,-592,796,17068.85,32.06,-1.00,-1.0,2442
3343,918343,17080,-644,748,17108.50,32.11,-1.00,-1.0,2367
3346,918346,17088,-604,748,17115.03,32.15,-1.00,-1.0,2427
3349,918349,16972,-656,1004,17014.32,32.15,-1.00,-1.0,2367
3351,918351,17052,-592,832,17082.55,32.06,-1.00,-1.0,2428
3354,918354,17004,-600,964,17041.87,32.15,-1.00,-1.0,2368
3357,918357,16928,-660,828,16961.08,32.06,-1.00,-1.0,2428
3360,918360,17064,-680,928,17102.74,32.06,-1.00,-1.0,2369
3365,918365,17080,-664,864,17114.72,32.11,-1.00,-1.0,2441
3368,918368,17004,-640,820,17035.79,32.11,-1.00,-1.0,2369
3370,918370,17056,-692,840,17090.69,32.25,-1.00,-1.0,2365
3373,918373,17088,-656,812,17119.86,32.06,-1.00,-1.0,2427
3376,918376,17028,-576,880,17060.45,32.06,-1.00,-1.0,2367
3378,918378,17012,-692,724,17041.46,32.06,-1.00,-1.0,2434
3381,918381,17040,-580,828,17069.96,32.06,-1.00,-1.0,2368
3384,918384,16984,-632,816,17015.33,32.11,-1.00,-1.0,2428
3387,918387,17004,-632,708,17030.46,32.06,-1.00,-1.0,2369
3392,918392,17044,-664,840,17077.60,32.06,-1.00,-1.0,2426
3394,918394,17084,-580,868,17115.87,32.06,-1.00,-1.0,2371
3397,918397,17152,-640,692,17177.88,32.06,-1.00,-1.0,2373
3400,918400,17040,-624,736,17067.30,32.01,-1.00,-1.0,2431
3402,918402,17032,-640,832,17064.31,32.06,-1.00,-1.0,2380
3405,918405,17064,-680,896,17101.03,32.11,-1.00,-1.0,2421
3408,918408,17060,-588,900,17093.84,32.01,-1.00,-1.0,2369
3411,918411,17044,-628,840,17076.24,32.11,-1.00,-1.0,2421
3413,918413,17096,-632,752,17124.20,32.11,-1.00,-1.0,2375
3419,918419,16972,-588,876,17004.76,32.15,-1.00,-1.0,2433
3422,918422,17032,-652,748,17060.88,32.11,-1.00,-1.0,2369
3425,918425,17088,-608,1020,17129.21,32.15,-1.00,-1.0,2422
3427,918427,17044,-560,908,17077.35,32.06,-1.00,-1.0,2368
3430,918430,17056,-604,832,17086.96,32.15,-1.00,-1.0,2374
3433,918433,17112,-592,816,17141.67,32.11,-1.00,-1.0,2433
3435,918435,17032,-632,904,17067.68,31.97,-1.00,-1.0,2372
3438,918438,17016,-724,844,17052.29,32.11,-1.00,-1.0,2430
3441,918441,17052,-696,776,17083.83,32.11,-1.00,-1.0,2376
3446,918446,16976,-572,712,17000.55,32.15,-1.00,-1.0,2442
3448,918448,17064,-628,880,17098.21,32.15,-1.00,-1.0,2368
3451,918451,17084,-628,908,17119.63,32.01,-1.00,-1.0,2421
3454,918454,17084,-716,820,17118.65,32.06,-1.00,-1.0,2376
3457,918457,17076,-692,936,17115.63,32.11,-1.00,-1.0,2422
3459,918459,17088,-636,848,17120.85,32.06,-1.00,-1.0,2368
3462,918462,17016,-656,708,17043.35,32.11,-1.00,-1.0,2370
3465,918465,17060,-624,880,17094.07,32.06,-1.00,-1.0,2421
3468,918468,17060,-600,816,17090.04,32.06,-1.00,-1.0,2370
3472,918472,17032,-592,812,17061.62,32.11,-1.00,-1.0,2448
3475,918475,17132,-676,896,17168.73,32.01,-1.00,-1.0,2375
3478,918478,17000,-624,1028,17042.48,32.06,-1.00,-1.0,2424
3481,918481,17108,-604,804,17137.53,32.11,-1.00,-1.0,2370
3484,918484,17164,-624,756,17191.97,32.06,-1.00,-1.0,2422
3486,918486,17088,-524,728,17111.53,32.11,-1.00,-1.0,2362
3489,918489,16976,-568,960,17012.61,32.06,-1.00,-1.0,2424
3492,918492,17040,-672,688,17067.12,32.11,-1.00,-1.0,2368
3495,918495,17112,-576,748,17138.02,32.06,-1.00,-1.0,2367
3500,918500,17036,-496,900,17066.96,31.97,-1.00,-1.0,2442
3502,918502,16936,-580,792,16964.43,32.11,-1.00,-1.0,2355
3505,918505,16996,-608,712,17021.77,32.15,-1.00,-1.0,2421
3508,918508,16932,-676,796,16964.17,32.06,-1.00,-1.0,2370
3511,918511,17012,-520,832,17040.27,32.06,-1.00,-1.0,2421
3513,918513,17144,-620,896,17178.59,32.06,-1.00,-1.0,2356
3516,918516,17116,-588,792,17144.40,32.06,-1.00,-1.0,2421
3519,918519,17100,-592,800,17128.94,32.20,-1.00,-1.0,2368
3524,918524,17168,-680,836,17201.79,32.11,-1.00,-1.0,2440
3526,918526,16992,-664,896,17028.56,32.01,-1.00,-1.0,2370
3529,918529,16980,-656,868,17014.82,32.25,-1.00,-1.0,2366
3532,918532,17092,-644,780,17121.90,32.06,-1.00,-1.0,2421
3535,918535,16996,-704,836,17031.11,32.06,-1.00,-1.0,2370
3537,918537,16976,-596,884,17009.45,32.06,-1.00,-1.0,2421
3540,918540,17128,-584,896,17161.36,32.06,-1.00,-1.0,2368
3543,918543,17020,-552,852,17050.25,32.06,-1.00,-1.0,2421
3546,918546,17064,-580,736,17089.71,32.01,-1.00,-1.0,2354
3551,918551,17052,-664,712,17079.77,32.06,-1.00,-1.0,2439
3553,918553,17012,-608,776,17040.54,32.06,-1.00,-1.0,2367
3556,918556,17052,-604,848,17083.75,32.11,-1.00,-1.0,2421
3559,918559,17020,-620,756,17048.06,32.06,-1.00,-1.0,2367
3561,918561,17000,-720,816,17034.79,32.01,-1.00,-1.0,2368
3564,918564,17112,-572,880,17144.16,32.15,-1.00,-1.0,2436
3567,918567,17044,-624,800,17074.17,32.11,-1.00,-1.0,2378
3570,918570,17024,-628,804,17054.54,32.06,-1.00,-1.0,2433
3573,918573,16988,-632,736,17015.68,32.01,-1.00,-1.0,2368
3578,918578,17032,-640,764,17061.13,32.11,-1.00,-1.0,2438
3580,918580,17064,-560,900,17096.89,32.15,-1.00,-1.0,2368
3583,918583,17140,-664,816,17172.26,32.11,-1.00,-1.0,2421
3586,918586,17148,-644,828,17180.05,32.11,-1.00,-1.0,2367
3589,918589,17052,-608,864,17084.70,32.01,-1.00,-1.0,2420
3591,918591,17088,-640,724,17115.30,32.06,-1.00,-1.0,2372
3594,918594,17076,-712,868,17112.87,32.06,-1.00,-1.0,2373
3597,918597,17132,-544,848,17161.60,32.15,-1.00,-1.0,2432
3600,918600,17012,-824,760,17048.89,32.01,-1.00,-1.0,2370
3605,918605,16976,-704,948,17017.02,32.11,-1.00,-1.0,2439
3607,918607,17020,-596,1004,17060.00,32.20,-1.00,-1.0,2363
3610,918610,17012,-600,796,17041.18,32.06,-1.00,-1.0,2421
3613,918613,17040,-696,736,17070.08,32.11,-1.00,-1.0,2375
3616,918616,17060,-604,832,17090.95,32.15,-1.00,-1.0,2421
3618,918618,17088,-604,708,17113.32,32.01,-1.00,-1.0,2369
3621,918621,17096,-584,724,17121.29,32.15,-1.00,-1.0,2368
3624,918624,17072,-668,668,17098.12,32.11,-1.00,-1.0,2425
3627,918627,17096,-552,792,17123.23,32.06,-1.00,-1.0,2371
3632,918632,17008,-672,912,17045.69,32.11,-1.00,-1.0,2440
3634,918634,16956,-724,816,16991.05,32.06,-1.00,-1.0,2371
3637,918637,16992,-560,800,17020.04,32.20,-1.00,-1.0,2420
3640,918640,17052,-592,792,17080.64,32.15,-1.00,-1.0,2367
3643,918643,17028,-680,872,17063.87,32.01,-1.00,-1.0,2420
3645,918645,17036,-572,796,17064.18,32.06,-1.00,-1.0,2356
3648,918648,17048,-672,1052,17093.64,32.11,-1.00,-1.0,2421
3651,918651,17056,-656,708,17083.29,32.06,-1.00,-1.0,2365
3654,918654,17120,-588,772,17147.48,32.06,-1.00,-1.0,2367
3658,918658,17088,-692,872,17124.22,32.06,-1.00,-1.0,2440
3661,918661,17080,-620,848,17112.27,32.11,-1.00,-1.0,2367
3664,918664,17068,-540,852,17097.78,32.06,-1.00,-1.0,2429
3667,918667,16952,-604,780,16980.68,32.01,-1.00,-1.0,2354
3669,918669,17060,-528,912,17092.52,32.15,-1.00,-1.0,2423
3672,918672,17084,-576,904,17117.59,32.01,-1.00,-1.0,2369
3675,918675,17028,-604,772,17056.19,32.15,-1.00,-1.0,2410
3678,918678,16940,-520,972,16975.83,32.11,-1.00,-1.0,2369
3683,918683,17000,-592,852,17031.63,32.01,-1.00,-1.0,2444
3685,918685,16964,-592,816,16993.93,32.06,-1.00,-1.0,2376
3688,918688,17056,-612,800,17085.71,32.01,-1.00,-1.0,2369
3691,918691,17044,-668,876,17079.56,32.06,-1.00,-1.0,2429
3694,918694,17008,-528,828,17036.33,32.01,-1.00,-1.0,2366
3696,918696,17132,-652,864,17166.16,32.15,-1.00,-1.0,2421
3699,918699,17000,-580,916,17034.54,32.01,-1.00,-1.0,2368
3702,918702,16980,-568,708,17004.24,32.06,-1.00,-1.0,2428
3705,918705,17004,-656,824,17036.59,32.01,-1.00,-1.0,2367
3710,918710,17064,-620,720,17090.43,32.11,-1.00,-1.0,2443
3712,918712,17052,-704,740,17082.56,32.11,-1.00,-1.0,2375
3715,918715,17068,-572,788,17095.75,32.11,-1.00,-1.0,2421
3718,918718,17112,-628,844,17144.31,32.11,-1.00,-1.0,2369
3721,918721,16992,-640,800,17022.86,32.06,-1.00,-1.0,2366
3723,918723,17088,-524,864,17117.85,32.06,-1.00,-1.0,2421
3726,918726,17080,-628,764,17108.61,32.15,-1.00,-1.0,2369
3729,918729,17148,-580,760,17174.63,32.06,-1.00,-1.0,2423
3732,918732,17064,-596,836,17094.86,32.11,-1.00,-1.0,2367
3737,918737,17052,-604,772,17080.15,32.11,-1.00,-1.0,2438
3739,918739,17104,-652,676,17129.77,32.11,-1.00,-1.0,2375
3742,918742,17040,-660,784,17070.79,32.06,-1.00,-1.0,2421
3745,918745,17088,-580,744,17114.02,32.20,-1.00,-1.0,2371
3748,918748,17024,-652,860,17058.17,31.97,-1.00,-1.0,2421
3750,918750,17016,-700,860,17052.09,32.01,-1.00,-1.0,2360
3753,918753,17132,-600,800,17161.16,32.25,-1.00,-1.0,2365
3756,918756,17020,-616,748,17047.56,32.20,-1.00,-1.0,2428
3759,918759,17020,-628,848,17052.68,32.06,-1.00,-1.0,2367
3764,918764,17096,-576,856,17127.11,32.06,-1.00,-1.0,2443
3767,918767,16960,-660,748,16989.31,32.01,-1.00,-1.0,2371
3769,918769,16980,-692,848,17015.24,32.06,-1.00,-1.0,2421
3772,918772,17032,-568,700,17055.84,32.11,-1.00,-1.0,2356
3775,918775,16976,-724,860,17013.18,32.06,-1.00,-1.0,2421
3778,918778,17036,-672,892,17072.57,32.15,-1.00,-1.0,2368
3780,918780,17040,-648,784,17070.33,32.06,-1.00,-1.0,2421
3783,918783,17048,-632,884,17082.60,32.06,-1.00,-1.0,2371
3786,918786,16988,-608,856,17020.42,32.06,-1.00,-1.0,2377
3791,918791,17080,-604,816,17110.14,32.06,-1.00,-1.0,2445
3794,918794,17088,-588,768,17115.35,32.06,-1.00,-1.0,2368
3796,918796,17024,-588,736,17050.04,32.15,-1.00,-1.0,2422
3799,918799,17008,-660,796,17039.40,32.15,-1.00,-1.0,2368
3802,918802,17092,-616,884,17125.93,32.15,-1.00,-1.0,2428
3805,918805,17028,-636,824,17059.79,32.15,-1.00,-1.0,2367
3807,918807,16980,-684,696,17008.02,32.06,-1.00,-1.0,2423
3810,918810,17128,-592,776,17155.79,32.06,-1.00,-1.0,2369
3815,918815,17008,-640,720,17035.26,32.06,-1.00,-1.0,2446
3818,918818,16992,-532,908,17024.56,32.20,-1.00,-1.0,2369
3821,918821,17064,-636,824,17095.72,32.15,-1.00,-1.0,2363
3823,918823,17084,-596,848,17115.41,32.01,-1.00,-1.0,2422
3826,918826,17120,-656,696,17146.70,32.06,-1.00,-1.0,2369
3829,918829,17052,-656,904,17088.54,32.11,-1.00,-1.0,2428
3832,918832,17020,-644,812,17051.52,32.06,-1.00,-1.0,2368
3834,918834,17024,-728,780,17057.40,32.01,-1.00,-1.0,2422
3837,918837,17080,-632,868,17113.71,32.06,-1.00,-1.0,2368
3842,918842,17052,-640,764,17081.10,32.11,-1.00,-1.0,2440
3845,918845,17092,-592,876,17124.67,32.15,-1.00,-1.0,2368
3847,918847,17096,-628,868,17129.54,32.11,-1.00,-1.0,2379
3850,918850,17016,-668,932,17054.59,32.15,-1.00,-1.0,2421
3853,918853,17056,-652,844,17089.31,32.01,-1.00,-1.0,2372
3856,918856,17072,-580,880,17104.50,32.15,-1.00,-1.0,2407
3858,918858,17084,-604,912,17118.98,32.06,-1.00,-1.0,2384
3861,918861,17028,-672,800,17060.02,32.06,-1.00,-1.0,2421
3864,918864,17036,-624,824,17067.33,32.11,-1.00,-1.0,2372
3869,918869,17052,-676,760,17082.31,32.11,-1.00,-1.0,2439
3871,918871,17040,-468,760,17063.36,32.06,-1.00,-1.0,2367
3874,918874,17004,-612,816,17034.56,32.06,-1.00,-1.0,2420
3877,918877,16984,-620,824,17015.28,32.06,-1.00,-1.0,2367
3879,918879,17104,-604,788,17132.79,32.01,-1.00,-1.0,2369
3882,918882,16996,-724,812,17030.78,32.06,-1.00,-1.0,2431
3885,918885,17048,-580,820,17077.56,32.11,-1.00,-1.0,2371
3888,918888,16992,-552,868,17023.11,32.06,-1.00,-1.0,2424
3891,918891,17104,-756,920,17145.40,32.06,-1.00,-1.0,2370
3896,918896,17140,-712,800,17173.43,32.11,-1.00,-1.0,2445
3899,918899,17104,-612,824,17134.77,32.11,-1.00,-1.0,2368
3901,918901,17132,-712,876,17169.15,32.15,-1.00,-1.0,2435
3904,918904,17044,-504,824,17071.35,32.11,-1.00,-1.0,2377
3907,918907,17080,-604,688,17104.52,31.97,-1.00,-1.0,2423
3910,918910,17080,-668,804,17111.96,32.20,-1.00,-1.0,2369
3912,918912,17032,-636,864,17065.76,32.06,-1.00,-1.0,2366
3915,918915,16992,-692,820,17025.84,32.06,-1.00,-1.0,2407
3918,918918,17044,-552,712,17067.79,32.06,-1.00,-1.0,2367
3923,918923,17104,-664,728,17132.36,31.97,-1.00,-1.0,2445
3926,918926,17028,-560,676,17050.61,32.11,-1.00,-1.0,2368
3928,918928,17000,-676,868,17035.56,32.06,-1.00,-1.0,2429
3931,918931,17072,-620,820,17102.92,32.15,-1.00,-1.0,2375
3934,918934,16984,-644,868,17018.36,32.06,-1.00,-1.0,2411
3937,918937,17060,-672,688,17087.09,32.06,-1.00,-1.0,2370
3939,918939,16964,-640,880,16998.86,32.15,-1.00,-1.0,2428
3942,918942,17036,-556,716,17060.10,32.06,-1.00,-1.0,2376
3945,918945,16924,-628,792,16954.16,32.15,-1.00,-1.0,2367
3950,918950,17044,-632,876,17078.20,32.06,-1.00,-1.0,2441
3953,918953,17056,-628,892,17090.85,32.15,-1.00,-1.0,2378
3956,918956,17040,-600,740,17066.61,32.11,-1.00,-1.0,2424
3958,918958,17068,-684,788,17099.87,32.06,-1.00,-1.0,2377
3961,918961,17096,-580,804,17124.72,32.06,-1.00,-1.0,2422
3964,918964,17064,-556,860,17094.70,32.15,-1.00,-1.0,2365
3967,918967,17020,-612,756,17047.77,32.11,-1.00,-1.0,2408
3969,918969,17088,-668,864,17122.86,32.06,-1.00,-1.0,2383
3974,918974,17096,-624,844,17128.19,32.15,-1.00,-1.0,2452
3977,918977,17112,-600,808,17141.57,32.15,-1.00,-1.0,2376
3979,918979,17112,-544,852,17141.83,32.11,-1.00,-1.0,2349
3982,918982,17040,-556,920,17073.87,32.20,-1.00,-1.0,2421
3985,918985,17052,-616,664,17076.04,31.97,-1.00,-1.0,2371
3988,918988,17092,-604,780,17120.45,32.11,-1.00,-1.0,2417
3990,918990,17024,-560,888,17056.34,32.11,-1.00,-1.0,2371
3993,918993,17104,-624,792,17133.69,32.11,-1.00,-1.0,2417
3996,918996,17096,-672,740,17125.20,32.11,-1.00,-1.0,2369
4001,919001,17128,-644,768,17157.30,32.06,-1.00,-1.0,2438
4004,919004,17100,-596,792,17128.70,32.11,-1.00,-1.0,2370
4007,919007,17152,-648,864,17185.97,32.11,-1.00,-1.0,2421
4009,919009,17036,-684,912,17074.10,32.11,-1.00,-1.0,2371
4012,919012,17020,-580,780,17047.73,32.15,-1.00,-1.0,2376
4015,919015,17012,-616,828,17043.27,32.15,-1.00,-1.0,2421
4017,919017,17000,-596,828,17030.58,32.15,-1.00,-1.0,2368
4020,919020,16984,-660,948,17023.24,32.06,-1.00,-1.0,2421
4023,919023,17048,-616,844,17079.99,32.11,-1.00,-1.0,2368
4028,919028,17064,-636,776,17093.47,32.11,-1.00,-1.0,2439
4031,919031,17088,-532,808,17115.36,32.01,-1.00,-1.0,2367
4034,919034,17124,-708,728,17154.08,32.06,-1.00,-1.0,2421
4036,919036,17072,-668,852,17106.29,32.11,-1.00,-1.0,2368
4039,919039,17044,-664,760,17073.85,32.25,-1.00,-1.0,2368
4042,919042,16976,-604,888,17009.94,32.15,-1.00,-1.0,2423
4044,919044,17028,-612,844,17059.88,32.06,-1.00,-1.0,2372
4047,919047,17072,-528,648,17092.45,32.11,-1.00,-1.0,2435
4050,919050,17024,-616,824,17055.06,32.15,-1.00,-1.0,2368
4055,919055,17160,-656,688,17186.31,32.25,-1.00,-1.0,2445
4058,919058,17008,-664,760,17037.92,32.06,-1.00,-1.0,2369
4060,919060,16992,-628,880,17026.36,32.20,-1.00,-1.0,2432
4063,919063,16980,-716,736,17011.02,32.06,-1.00,-1.0,2376
4066,919066,17072,-584,812,17101.27,32.06,-1.00,-1.0,2424
4069,919069,16984,-588,916,17018.84,32.06,-1.00,-1.0,2368
4071,919071,17080,-696,712,17109.00,32.11,-1.00,-1.0,2366
4074,919074,17056,-664,856,17090.37,32.01,-1.00,-1.0,2428
4077,919077,17024,-644,844,17057.07,32.06,-1.00,-1.0,2368
4082,919082,17064,-668,804,17095.99,32.06,-1.00,-1.0,2439
4085,919085,17108,-640,828,17139.98,32.11,-1.00,-1.0,2369
4087,919087,17020,-616,836,17051.65,32.06,-1.00,-1.0,2421
4090,919090,16948,-600,836,16979.21,32.01,-1.00,-1.0,2368
4093,919093,17052,-656,808,17083.73,32.15,-1.00,-1.0,2427
4096,919096,17068,-628,784,17097.53,32.20,-1.00,-1.0,2368
4098,919098,17064,-624,828,17095.47,32.06,-1.00,-1.0,2422
4101,919101,16956,-532,924,16989.49,32.01,-1.00,-1.0,2376
4104,919104,17072,-572,868,17103.62,32.01,-1.00,-1.0,2373
4109,919109,17124,-616,784,17153.00,32.11,-1.00,-1.0,2438
4112,919112,17136,-556,796,17163.49,32.06,-1.00,-1.0,2377
4115,919115,17136,-552,960,17171.74,32.11,-1.00,-1.0,2421
4117,919117,17004,-668,896,17040.69,31.97,-1.00,-1.0,2370
4120,919120,17024,-656,928,17061.89,32.11,-1.00,-1.0,2428
4123,919123,17088,-612,780,17116.74,32.06,-1.00,-1.0,2375
4126,919126,16956,-640,784,16986.18,32.11,-1.00,-1.0,2421
4128,919128,17012,-704,684,17040.29,32.06,-1.00,-1.0,2370
4133,919133,17024,-604,840,17055.41,32.06,-1.00,-1.0,2440
4136,919136,17072,-556,720,17096.22,32.15,-1.00,-1.0,2367
4139,919139,17072,-692,684,17099.71,32.11,-1.00,-1.0,2370
4142,919142,17112,-744,872,17150.35,32.15,-1.00,-1.0,2428
4144,919144,17080,-712,796,17113.36,32.01,-1.00,-1.0,2384
4147,919147,17040,-556,940,17074.96,32.06,-1.00,-1.0,2424
4150,919150,16968,-700,940,17008.43,32.01,-1.00,-1.0,2370
4153,919153,17044,-684,808,17076.85,31.97,-1.00,-1.0,2423
4155,919155,16976,-648,828,17008.53,32.01,-1.00,-1.0,2370
4160,919160,17076,-604,768,17103.93,32.11,-1.00,-1.0,2454
4163,919163,17032,-552,876,17063.44,32.11,-1.00,-1.0,2376
4166,919166,17108,-716,920,17147.67,32.06,-1.00,-1.0,2433
4168,919168,17104,-564,1012,17143.19,32.11,-1.00,-1.0,2376
4171,919171,16972,-604,704,16997.33,32.15,-1.00,-1.0,2364
4174,919174,17036,-728,824,17071.45,32.06,-1.00,-1.0,2428
4177,919177,17064,-612,840,17095.62,31.97,-1.00,-1.0,2366
4179,919179,17152,-640,716,17178.86,32.01,-1.00,-1.0,2421
4182,919182,17032,-580,864,17063.76,32.15,-1.00,-1.0,2362
4187,919187,17008,-628,692,17033.65,32.06,-1.00,-1.0,2452
4190,919190,16976,-616,712,17002.09,32.20,-1.00,-1.0,2370
4193,919193,17080,-728,836,17115.94,32.15,-1.00,-1.0,2429
4195,919195,17060,-688,808,17092.97,32.06,-1.00,-1.0,2376
4198,919198,17100,-576,780,17127.47,32.06,-1.00,-1.0,2421
4201,919201,17000,-728,844,17036.50,32.06,-1.00,-1.0,2371
4204,919204,17112,-644,844,17144.90,32.15,-1.00,-1.0,2366
4206,919206,17064,-676,896,17100.87,32.01,-1.00,-1.0,2423
4209,919209,17080,-648,636,17104.12,32.06,-1.00,-1.0,2369
4214,919214,17120,-560,816,17148.58,32.06,-1.00,-1.0,2445
4217,919217,17016,-616,912,17051.55,32.15,-1.00,-1.0,2370
4220,919220,17104,-604,924,17139.59,32.15,-1.00,-1.0,2420
4222,919222,17040,-696,832,17074.49,32.15,-1.00,-1.0,2375
4225,919225,16956,-588,864,16988.18,32.06,-1.00,-1.0,2421
4228,919228,16984,-544,712,17007.62,32.06,-1.00,-1.0,2372
4231,919231,17020,-604,768,17048.02,32.11,-1.00,-1.0,2366
4233,919233,17084,-668,760,17113.94,32.11,-1.00,-1.0,2421
4236,919236,17116,-624,812,17146.61,32.15,-1.00,-1.0,2369
4241,919241,17092,-588,820,17121.76,32.15,-1.00,-1.0,2448
4244,919244,17100,-620,720,17126.38,32.15,-1.00,-1.0,2383
4247,919247,17080,-620,860,17112.87,32.15,-1.00,-1.0,2422
4250,919250,17100,-676,932,17138.72,32.15,-1.00,-1.0,2370
4253,919253,17116,-604,764,17143.69,31.97,-1.00,-1.0,2423
4255,919255,16948,-576,980,16986.08,32.06,-1.00,-1.0,2371
4258,919258,17024,-620,836,17055.79,32.06,-1.00,-1.0,2423
4261,919261,17104,-620,848,17136.23,32.06,-1.00,-1.0,2369
4263,919263,17068,-692,908,17106.14,32.11,-1.00,-1.0,2353
4269,919269,17044,-612,852,17076.25,32.11,-1.00,-1.0,2445
4272,919272,17108,-692,800,17140.67,32.11,-1.00,-1.0,2369
4274,919274,17116,-644,968,17155.44,32.15,-1.00,-1.0,2423
4277,919277,17064,-620,832,17095.52,32.11,-1.00,-1.0,2369
4280,919280,17028,-572,876,17060.11,32.06,-1.00,-1.0,2429
4283,919283,17028,-704,820,17062.26,32.11,-1.00,-1.0,2354
4285,919285,16980,-704,956,17021.46,32.15,-1.00,-1.0,2422
4288,919288,17052,-628,904,17087.49,32.11,-1.00,-1.0,2368
4293,919293,17044,-620,864,17077.14,32.06,-1.00,-1.0,2439
4295,919295,16976,-540,820,17004.37,32.11,-1.00,-1.0,2370
4298,919298,17020,-680,884,17056.50,32.11,-1.00,-1.0,2365
4301,919301,17020,-588,904,17054.13,32.15,-1.00,-1.0,2428
4304,919304,16948,-656,876,16983.30,32.01,-1.00,-1.0,2367
4306,919306,16988,-620,780,17017.20,32.15,-1.00,-1.0,2438
4309,919309,17084,-676,740,17113.38,32.15,-1.00,-1.0,2372
4312,919312,16988,-604,764,17015.89,32.11,-1.00,-1.0,2459
4315,919315,17008,-656,872,17042.97,32.11,-1.00,-1.0,2369
4320,919320,17092,-544,824,17120.50,32.11,-1.00,-1.0,2441
4323,919323,17016,-656,972,17056.36,32.11,-1.00,-1.0,2375
4325,919325,17068,-596,788,17096.57,32.20,-1.00,-1.0,2424
4328,919328,17016,-692,864,17051.97,32.11,-1.00,-1.0,2356
4331,919331,17036,-652,860,17070.15,32.06,-1.00,-1.0,2367
4333,919333,17148,-608,792,17177.04,32.06,-1.00,-1.0,2437
4336,919336,17140,-592,852,17171.37,32.06,-1.00,-1.0,2369
4339,919339,17080,-616,844,17111.93,32.15,-1.00,-1.0,2430
4342,919342,17028,-700,804,17061.34,32.15,-1.00,-1.0,2369
4347,919347,17052,-632,840,17084.37,31.97,-1.00,-1.0,2430
4349,919349,17004,-684,852,17039.07,32.01,-1.00,-1.0,2368
4352,919352,17036,-644,836,17068.65,32.06,-1.00,-1.0,2422
4355,919355,17140,-736,876,17178.14,32.11,-1.00,-1.0,2368
4358,919358,17056,-532,864,17086.15,32.06,-1.00,-1.0,2422
4360,919360,17044,-652,780,17074.29,32.11,-1.00,-1.0,2356
4363,919363,17096,-696,764,17127.21,32.06,-1.00,-1.0,2372
4366,919366,17004,-580,852,17035.21,32.06,-1.00,-1.0,2435
4368,919368,17104,-688,724,17133.13,32.06,-1.00,-1.0,2372
4373,919373,17044,-700,860,17080.03,32.06,-1.00,-1.0,2446
4376,919376,16964,-700,836,16999.01,32.06,-1.00,-1.0,2365
4379,919379,17000,-648,832,17032.68,32.15,-1.00,-1.0,2429
4382,919382,17076,-544,904,17108.56,32.15,-1.00,-1.0,2366
4384,919384,17036,-532,888,17067.42,32.06,-1.00,-1.0,2429
4387,919387,16992,-668,696,17019.36,32.15,-1.00,-1.0,2366
4390,919390,17036,-672,808,17068.38,32.15,-1.00,-1.0,2429
4393,919393,16992,-704,752,17023.20,32.06,-1.00,-1.0,2366
4395,919395,17072,-640,896,17107.47,32.20,-1.00,-1.0,2379
4400,919400,17132,-656,808,17163.58,32.11,-1.00,-1.0,2455
4403,919403,17096,-568,984,17133.71,31.97,-1.00,-1.0,2372
4406,919406,17044,-604,836,17075.18,32.01,-1.00,-1.0,2410
4409,919409,17092,-588,788,17120.26,32.06,-1.00,-1.0,2364
4411,919411,17080,-600,1032,17121.67,32.11,-1.00,-1.0,2432
4414,919414,17032,-648,812,17063.65,32.06,-1.00,-1.0,2373
4417,919417,17056,-676,744,17085.60,32.11,-1.00,-1.0,2426
4420,919420,17080,-656,816,17112.06,32.06,-1.00,-1.0,2369
4425,919425,17004,-692,776,17035.76,32.06,-1.00,-1.0,2442
4427,919427,17032,-584,960,17069.03,32.06,-1.00,-1.0,2368
4430,919430,17116,-680,904,17153.34,32.01,-1.00,-1.0,2368
4433,919433,17068,-688,716,17096.86,32.11,-1.00,-1.0,2430
4435,919435,16968,-692,784,17000.19,32.11,-1.00,-1.0,2377
4438,919438,17092,-740,844,17128.82,32.06,-1.00,-1.0,2422
4441,919441,17044,-688,772,17075.34,32.01,-1.00,-1.0,2372
4444,919444,17012,-664,828,17045.08,32.15,-1.00,-1.0,2421
4446,919446,17092,-540,952,17127.01,32.11,-1.00,-1.0,2376
4451,919451,16912,-644,900,16948.17,32.01,-1.00,-1.0,2451
4454,919454,17012,-516,988,17048.48,32.11,-1.00,-1.0,2376
4457,919457,17092,-608,680,17116.32,32.15,-1.00,-1.0,2367
4460,919460,17104,-712,804,17137.68,32.06,-1.00,-1.0,2422
4462,919462,17112,-588,788,17140.22,32.15,-1.00,-1.0,2369
4465,919465,17096,-688,892,17133.07,32.11,-1.00,-1.0,2422
4468,919468,17088,-648,796,17118.80,32.06,-1.00,-1.0,2369
4471,919471,17020,-592,848,17051.39,32.06,-1.00,-1.0,2422
4474,919474,16996,-732,860,17033.48,32.06,-1.00,-1.0,2373
4478,919478,17064,-640,900,17099.70,32.06,-1.00,-1.0,2440
4481,919481,17080,-700,940,17120.16,32.15,-1.00,-1.0,2371
4484,919484,16988,-632,764,17016.91,32.11,-1.00,-1.0,2424
4487,919487,17100,-720,872,17137.35,32.06,-1.00,-1.0,2368
4489,919489,17012,-640,856,17045.54,32.20,-1.00,-1.0,2372
4492,919492,17012,-696,768,17043.54,32.15,-1.00,-1.0,2424
4495,919495,16940,-588,824,16970.22,31.92,-1.00,-1.0,2372
4498,919498,17008,-644,780,17038.05,32.15,-1.00,-1.0,2421
4501,919501,17072,-624,732,17099.08,32.15,-1.00,-1.0,2369
4505,919505,17064,-648,784,17094.29,32.15,-1.00,-1.0,2450
4508,919508,17108,-636,824,17139.64,32.01,-1.00,-1.0,2371
4511,919511,17040,-640,800,17070.77,32.15,-1.00,-1.0,2425
4513,919513,17076,-620,956,17113.97,32.06,-1.00,-1.0,2376
4516,919516,16964,-616,852,16996.55,31.97,-1.00,-1.0,2421
4519,919519,17068,-728,948,17109.80,32.06,-1.00,-1.0,2370
4522,919522,17056,-672,716,17084.24,32.06,-1.00,-1.0,2367
4525,919525,17132,-640,688,17157.75,32.06,-1.00,-1.0,2422
4528,919528,17004,-600,932,17040.09,32.06,-1.00,-1.0,2369
4533,919533,16932,-556,800,16960.00,32.06,-1.00,-1.0,2442
4535,919535,17048,-632,784,17077.72,32.06,-1.00,-1.0,2368
4538,919538,17100,-688,748,17130.17,32.20,-1.00,-1.0,2424
4541,919541,17072,-728,888,17110.57,32.06,-1.00,-1.0,2368
4544,919544,17060,-656,812,17091.91,32.06,-1.00,-1.0,2421
4546,919546,17104,-548,876,17135.18,32.15,-1.00,-1.0,2369
4549,919549,17052,-668,940,17090.95,32.11,-1.00,-1.0,2423
4552,919552,17148,-728,724,17178.71,31.97,-1.00,-1.0,2368
4555,919555,17072,-620,916,17107.79,32.11,-1.00,-1.0,2367
4560,919560,17064,-628,880,17098.21,32.11,-1.00,-1.0,2442
4562,919562,17120,-644,900,17155.73,32.20,-1.00,-1.0,2368
4565,919565,17116,-516,644,17135.88,32.01,-1.00,-1.0,2421
4568,919568,17084,-640,896,17119.45,32.11,-1.00,-1.0,2367
4571,919571,17068,-556,724,17092.39,32.11,-1.00,-1.0,2421
4573,919573,16988,-604,732,17014.49,32.01,-1.00,-1.0,2355
4576,919576,17144,-684,848,17178.58,32.01,-1.00,-1.0,2422
4579,919579,17000,-656,676,17026.08,32.11,-1.00,-1.0,2367
4584,919584,17060,-652,744,17088.66,32.01,-1.00,-1.0,2442
4587,919587,17020,-664,756,17049.72,32.15,-1.00,-1.0,2370
4589,919589,17104,-620,944,17141.25,32.11,-1.00,-1.0,2366
4592,919592,17116,-568,864,17147.20,31.97,-1.00,-1.0,2428
4595,919595,17036,-628,864,17069.45,32.11,-1.00,-1.0,2368
4597,919597,17184,-684,832,17217.72,32.06,-1.00,-1.0,2438
4600,919600,17020,-616,760,17048.09,32.01,-1.00,-1.0,2369
4603,919603,17020,-684,760,17050.69,32.06,-1.00,-1.0,2431
4606,919606,16996,-696,856,17031.77,32.06,-1.00,-1.0,2370
4611,919611,17028,-596,808,17057.57,32.06,-1.00,-1.0,2442
4613,919613,17104,-676,632,17129.02,32.11,-1.00,-1.0,2370
4616,919616,17136,-608,652,17159.17,32.06,-1.00,-1.0,2438
4619,919619,17052,-636,928,17089.07,32.06,-1.00,-1.0,2364
4621,919621,16964,-592,808,16993.55,32.06,-1.00,-1.0,2375
4624,919624,17100,-544,796,17127.16,32.11,-1.00,-1.0,2422
4627,919627,17040,-612,912,17075.36,32.25,-1.00,-1.0,2372
4630,919630,17000,-596,792,17028.87,32.01,-1.00,-1.0,2423
4633,919633,16868,-596,952,16905.35,31.97,-1.00,-1.0,2372
4638,919638,17124,-656,796,17155.04,32.15,-1.00,-1.0,2441
4640,919640,17096,-624,1020,17137.77,32.06,-1.00,-1.0,2373
4643,919643,17064,-644,800,17094.88,32.06,-1.00,-1.0,2431
4646,919646,17180,-576,784,17207.52,32.06,-1.00,-1.0,2377
4649,919649,17036,-668,772,17066.56,32.06,-1.00,-1.0,2370
4651,919651,17020,-632,952,17058.32,32.11,-1.00,-1.0,2422
4654,919654,17076,-508,804,17102.46,32.11,-1.00,-1.0,2369
4657,919657,17048,-660,812,17080.08,32.11,-1.00,-1.0,2429
4660,919660,16980,-588,764,17007.35,32.15,-1.00,-1.0,2373
4665,919665,17116,-596,856,17147.75,32.06,-1.00,-1.0,2448
4667,919667,16960,-768,956,17004.28,32.06,-1.00,-1.0,2377
4670,919670,16976,-628,848,17008.76,32.01,-1.00,-1.0,2421
4673,919673,17088,-632,732,17115.34,32.06,-1.00,-1.0,2373
4676,919676,17036,-608,844,17067.73,32.11,-1.00,-1.0,2424
4678,919678,17064,-612,792,17093.33,32.06,-1.00,-1.0,2376
4681,919681,16972,-676,904,17009.50,32.11,-1.00,-1.0,2366
4684,919684,17044,-576,924,17078.74,32.06,-1.00,-1.0,2429
4687,919687,17008,-648,696,17034.56,32.01,-1.00,-1.0,2370
4692,919692,17156,-648,736,17184.00,32.01,-1.00,-1.0,2444
4694,919694,17132,-616,844,17163.83,32.06,-1.00,-1.0,2376
4697,919697,17088,-528,724,17111.48,32.01,-1.00,-1.0,2422
4700,919700,17072,-628,776,17101.16,32.11,-1.00,-1.0,2371
4703,919703,17084,-568,656,17106.02,32.20,-1.00,-1.0,2422
4706,919706,17060,-656,920,17097.38,32.01,-1.00,-1.0,2371
4708,919708,17028,-716,784,17061.07,31.92,-1.00,-1.0,2422
4711,919711,16892,-600,852,16924.11,32.01,-1.00,-1.0,2372
4714,919714,17128,-644,704,17154.55,32.11,-1.00,-1.0,2367
4718,919718,17056,-604,792,17085.06,32.15,-1.00,-1.0,2454
4721,919721,17060,-500,868,17089.38,32.15,-1.00,-1.0,2375
4724,919724,16996,-668,736,17025.04,32.01,-1.00,-1.0,2411
4727,919727,17080,-560,852,17110.40,32.06,-1.00,-1.0,2368
4729,919729,17040,-632,768,17069.00,32.11,-1.00,-1.0,2431
4732,919732,17056,-640,716,17083.02,32.11,-1.00,-1.0,2377
4735,919735,17004,-572,860,17035.34,32.11,-1.00,-1.0,2409
4738,919738,17020,-636,788,17050.10,32.11,-1.00,-1.0,2368
4743,919743,17032,-572,768,17058.90,32.11,-1.00,-1.0,2446
4745,919745,17056,-564,792,17083.69,32.11,-1.00,-1.0,2380
4748,919748,16972,-652,748,17000.98,32.15,-1.00,-1.0,2365
4751,919751,17064,-748,816,17099.87,32.11,-1.00,-1.0,2428
4754,919754,17032,-532,980,17068.46,32.25,-1.00,-1.0,2368
4756,919756,17060,-580,740,17085.89,32.06,-1.00,-1.0,2428
4759,919759,17072,-676,804,17104.29,32.06,-1.00,-1.0,2370
4762,919762,17044,-640,668,17069.09,32.01,-1.00,-1.0,2429
4765,919765,17132,-728,840,17168.02,32.15,-1.00,-1.0,2368
4770,919770,17012,-680,816,17045.13,32.15,-1.00,-1.0,2441
4773,919773,17064,-552,800,17091.66,32.11,-1.00,-1.0,2371
4775,919775,17020,-664,764,17050.07,32.06,-1.00,-1.0,2422
4778,919778,17060,-548,812,17088.10,32.06,-1.00,-1.0,2370
4781,919781,17116,-544,876,17147.03,32.15,-1.00,-1.0,2371
4783,919783,17008,-644,792,17038.61,32.11,-1.00,-1.0,2435
4786,919786,17088,-644,880,17122.76,32.11,-1.00,-1.0,2369
4789,919789,17040,-544,876,17071.17,32.01,-1.00,-1.0,2428
4792,919792,17008,-700,780,17040.26,32.15,-1.00,-1.0,2375
4797,919797,16976,-568,812,17004.90,32.15,-1.00,-1.0,2441
4800,919800,17124,-616,864,17156.85,32.06,-1.00,-1.0,2372
4802,919802,17012,-668,800,17043.89,32.06,-1.00,-1.0,2421
4805,919805,17060,-620,840,17091.92,32.15,-1.00,-1.0,2369
4808,919808,17108,-692,816,17141.42,32.06,-1.00,-1.0,2428
4811,919811,17088,-620,768,17116.48,32.06,-1.00,-1.0,2368
4813,919813,16984,-508,764,17008.76,32.11,-1.00,-1.0,2374
4816,919816,17032,-592,896,17065.82,32.20,-1.00,-1.0,2425
4819,919819,17012,-680,748,17042.01,32.11,-1.00,-1.0,2375
4824,919824,17124,-652,968,17163.73,32.15,-1.00,-1.0,2448
4827,919827,17028,-692,800,17060.82,32.15,-1.00,-1.0,2367
4829,919829,17052,-648,720,17079.49,31.97,-1.00,-1.0,2423
4832,919832,16964,-632,760,16992.77,32.06,-1.00,-1.0,2369
4835,919835,17064,-636,808,17094.96,32.11,-1.00,-1.0,2428
4838,919838,17092,-620,900,17126.90,32.06,-1.00,-1.0,2368
4840,919840,17044,-532,616,17063.42,32.11,-1.00,-1.0,2374
4843,919843,17084,-568,872,17115.67,32.06,-1.00,-1.0,2412
4846,919846,17020,-692,844,17054.96,32.11,-1.00,-1.0,2378
4851,919851,17016,-656,868,17050.75,32.01,-1.00,-1.0,2448
4854,919854,17044,-576,844,17074.60,32.11,-1.00,-1.0,2354
4856,919856,17076,-624,812,17106.68,32.11,-1.00,-1.0,2422
4859,919859,17044,-544,756,17069.43,32.01,-1.00,-1.0,2368
4862,919862,17096,-532,804,17123.16,32.11,-1.00,-1.0,2410
4865,919865,17024,-644,816,17055.71,32.11,-1.00,-1.0,2368
4867,919867,17012,-684,780,17043.60,32.11,-1.00,-1.0,2425
4870,919870,17052,-640,868,17086.07,32.11,-1.00,-1.0,2370
4873,919873,17008,-632,704,17034.29,32.01,-1.00,-1.0,2374
4878,919878,17044,-624,772,17072.88,32.11,-1.00,-1.0,2449
4881,919881,17096,-660,884,17131.56,31.92,-1.00,-1.0,2368
4883,919883,17052,-684,836,17086.18,32.15,-1.00,-1.0,2435
4886,919886,17160,-644,852,17193.20,32.20,-1.00,-1.0,2368
4889,919889,17152,-624,808,17182.36,32.06,-1.00,-1.0,2433
4892,919892,17012,-644,740,17040.26,32.11,-1.00,-1.0,2369
4894,919894,17080,-596,720,17105.55,32.15,-1.00,-1.0,2432
4897,919897,17088,-636,868,17121.85,32.11,-1.00,-1.0,2378
4902,919902,17044,-640,852,17077.28,31.97,-1.00,-1.0,2429
4905,919905,17052,-596,808,17081.53,32.06,-1.00,-1.0,2371
4907,919907,17028,-648,888,17063.45,32.06,-1.00,-1.0,2366
4910,919910,17048,-688,864,17083.74,32.11,-1.00,-1.0,2421
4913,919913,17044,-600,888,17077.66,32.01,-1.00,-1.0,2367
4916,919916,17088,-588,912,17122.42,32.11,-1.00,-1.0,2421
4918,919918,17056,-676,772,17086.84,32.06,-1.00,-1.0,2370
4921,919921,17036,-628,740,17063.62,32.11,-1.00,-1.0,2424
4924,919924,17060,-632,840,17092.36,32.11,-1.00,-1.0,2427
4929,919929,17072,-720,876,17109.62,32.01,-1.00,-1.0,2440
4931,919931,16956,-644,788,16986.51,32.06,-1.00,-1.0,2356
4934,919934,17000,-620,788,17029.54,32.11,-1.00,-1.0,2422
4937,919937,17008,-540,948,17042.96,32.15,-1.00,-1.0,2369
4940,919940,17012,-544,696,17034.92,32.11,-1.00,-1.0,2366
4942,919942,17020,-540,764,17045.70,32.15,-1.00,-1.0,2424
4945,919945,17044,-604,792,17073.08,32.11,-1.00,-1.0,2373
4948,919948,17068,-596,852,17099.64,32.11,-1.00,-1.0,2422
4951,919951,17012,-592,760,17039.26,32.06,-1.00,-1.0,2371
4956,919956,16988,-592,884,17021.28,32.11,-1.00,-1.0,2443
4959,919959,17040,-592,780,17068.11,32.06,-1.00,-1.0,2374
4962,919962,16988,-748,760,17021.44,32.11,-1.00,-1.0,2421
4964,919964,17124,-696,840,17158.71,32.15,-1.00,-1.0,2357
4967,919967,17112,-560,812,17140.40,32.01,-1.00,-1.0,2421
4970,919970,17004,-688,848,17039.03,32.06,-1.00,-1.0,2365
4972,919972,17112,-660,792,17143.03,32.01,-1.00,-1.0,2352
4975,919975,16968,-704,908,17006.86,32.01,-1.00,-1.0,2421
4978,919978,17088,-660,892,17123.99,32.11,-1.00,-1.0,2367
4983,919983,17028,-572,796,17056.19,32.01,-1.00,-1.0,2442
4986,919986,17048,-568,860,17079.12,32.01,-1.00,-1.0,2370
4989,919989,17084,-624,720,17110.55,32.06,-1.00,-1.0,2458
4991,919991,17164,-644,848,17197.00,32.06,-1.00,-1.0,2371
4994,919994,17116,-624,736,17143.18,32.06,-1.00,-1.0,2430
4997,919997,17108,-700,964,17149.43,32.06,-1.00,-1.0,2371
5000,920000,17088,-688,972,17129.45,32.11,-1.00,-1.0,2433
5002,920002,17072,-612,732,17098.64,32.06,-1.00,-1.0,2376
5005,920005,17108,-552,860,17138.49,32.20,-1.00,-1.0,2365
5010,920010,17060,-584,732,17085.68,32.11,-1.00,-1.0,2434
5013,920013,17136,-596,796,17164.83,32.11,-1.00,-1.0,2368
5016,920016,17056,-652,728,17083.98,32.11,-1.00,-1.0,2431
5018,920018,17076,-596,808,17105.49,32.11,-1.00,-1.0,2368
5021,920021,17088,-576,780,17115.49,32.15,-1.00,-1.0,2421
5024,920024,17028,-620,812,17058.62,32.11,-1.00,-1.0,2367
5027,920027,17056,-756,740,17088.78,32.06,-1.00,-1.0,2422
5029,920029,17060,-640,736,17087.86,32.11,-1.00,-1.0,2368
5032,920032,17116,-616,852,17148.26,32.15,-1.00,-1.0,2365
5037,920037,17048,-620,896,17082.79,32.11,-1.00,-1.0,2431
5040,920040,16956,-532,768,16981.72,32.01,-1.00,-1.0,2366
5043,920043,17052,-640,616,17075.12,32.06,-1.00,-1.0,2430
5045,920045,17096,-664,808,17127.96,32.11,-1.00,-1.0,2368
5048,920048,17052,-556,896,17084.57,32.06,-1.00,-1.0,2421
5051,920051,16984,-548,860,17014.59,32.11,-1.00,-1.0,2367
5054,920054,17060,-692,800,17092.76,32.06,-1.00,-1.0,2421
5056,920056,17028,-628,884,17062.49,32.20,-1.00,-1.0,2369
5061,920061,17032,-616,776,17060.79,32.11,-1.00,-1.0,2431
5064,920064,17068,-640,896,17103.48,32.11,-1.00,-1.0,2354
5067,920067,17028,-596,892,17061.76,32.15,-1.00,-1.0,2365
5069,920069,17056,-664,780,17086.73,32.06,-1.00,-1.0,2433
5072,920072,17056,-568,884,17088.34,32.06,-1.00,-1.0,2371
5075,920075,17072,-640,776,17101.61,32.15,-1.00,-1.0,2432
5078,920078,17080,-660,860,17114.37,32.15,-1.00,-1.0,2354
5080,920080,17064,-676,660,17090.13,32.06,-1.00,-1.0,2424
5083,920083,17084,-588,704,17108.61,32.06,-1.00,-1.0,2368
5088,920088,17072,-552,976,17108.78,32.15,-1.00,-1.0,2430
5091,920091,17092,-628,940,17129.34,32.06,-1.00,-1.0,2367
5094,920094,17064,-616,896,17098.61,32.11,-1.00,-1.0,2430
5096,920096,16984,-668,724,17012.54,32.25,-1.00,-1.0,2368
5099,920099,17108,-632,772,17137.07,32.11,-1.00,-1.0,2370
5102,920102,17132,-700,824,17166.08,32.06,-1.00,-1.0,2427
5104,920104,17116,-564,816,17144.72,32.11,-1.00,-1.0,2377
5107,920107,17024,-696,824,17058.13,32.06,-1.00,-1.0,2421
5110,920110,17068,-672,800,17099.95,32.15,-1.00,-1.0,2375
5116,920116,17004,-596,876,17036.98,32.11,-1.00,-1.0,2447
5119,920119,17060,-688,816,17093.36,32.20,-1.00,-1.0,2372
5122,920122,17024,-604,820,17054.44,32.06,-1.00,-1.0,2430
5124,920124,17116,-616,668,17140.10,32.06,-1.00,-1.0,2369
5127,920127,16924,-600,764,16951.86,32.06,-1.00,-1.0,2407
5130,920130,17028,-568,684,17051.20,32.11,-1.00,-1.0,2369
5132,920132,17100,-624,792,17129.70,32.15,-1.00,-1.0,2370
5135,920135,16980,-624,848,17012.61,32.11,-1.00,-1.0,2421
5138,920138,17120,-664,720,17147.99,32.15,-1.00,-1.0,2375
5143,920143,17000,-636,920,17036.75,32.06,-1.00,-1.0,2432
5145,920145,17140,-716,824,17174.73,32.06,-1.00,-1.0,2370
5148,920148,17092,-640,800,17122.68,32.15,-1.00,-1.0,2430
5151,920151,17012,-604,788,17040.95,32.15,-1.00,-1.0,2367
5154,920154,17104,-612,684,17128.61,32.15,-1.00,-1.0,2421
5156,920156,17048,-592,768,17075.55,32.15,-1.00,-1.0,2368
5159,920159,16996,-624,844,17028.38,32.06,-1.00,-1.0,2423
5162,920162,16976,-600,704,17001.18,32.06,-1.00,-1.0,2368
5164,920164,17144,-552,816,17172.28,32.01,-1.00,-1.0,2367
5169,920169,17040,-668,884,17075.99,32.11,-1.00,-1.0,2431
5172,920172,17100,-684,948,17139.91,32.06,-1.00,-1.0,2354
5175,920175,17124,-584,784,17151.88,32.01,-1.00,-1.0,2436
5178,920178,17128,-688,852,17162.97,32.06,-1.00,-1.0,2368
5180,920180,17064,-692,892,17101.30,32.20,-1.00,-1.0,2421
5183,920183,17104,-708,748,17134.98,32.06,-1.00,-1.0,2368
5186,920186,17040,-672,720,17068.44,32.11,-1.00,-1.0,2428
5189,920189,17088,-592,780,17116.03,32.15,-1.00,-1.0,2367
5194,920194,16996,-556,724,17020.50,32.06,-1.00,-1.0,2420
5196,920196,17064,-576,688,17087.57,32.15,-1.00,-1.0,2378
5199,920199,17036,-548,764,17061.93,32.11,-1.00,-1.0,2374
5202,920202,17144,-604,908,17178.65,32.11,-1.00,-1.0,2430
5204,920204,17020,-660,740,17048.86,32.11,-1.00,-1.0,2372
5207,920207,17052,-620,836,17083.73,32.11,-1.00,-1.0,2422
5210,920210,17012,-720,872,17049.54,32.20,-1.00,-1.0,2376
5213,920213,17072,-568,828,17101.50,32.01,-1.00,-1.0,2421
5215,920215,16912,-616,736,16939.21,32.01,-1.00,-1.0,2371
5220,920220,16984,-644,748,17012.66,32.11,-1.00,-1.0,2431
5223,920223,17040,-620,832,17071.56,32.15,-1.00,-1.0,2357
5226,920226,17068,-604,828,17098.74,32.11,-1.00,-1.0,2365
5228,920228,17012,-604,712,17037.60,32.06,-1.00,-1.0,2442
5231,920231,16964,-608,840,16995.66,32.15,-1.00,-1.0,2375
5234,920234,17084,-564,760,17110.20,32.15,-1.00,-1.0,2423
5237,920237,17036,-576,824,17065.64,32.15,-1.00,-1.0,2378
5239,920239,17044,-680,792,17075.94,32.06,-1.00,-1.0,2429
5242,920242,17012,-580,980,17050.07,32.01,-1.00,-1.0,2368
5247,920247,17036,-588,824,17066.05,32.15,-1.00,-1.0,2438
5250,920250,17036,-652,856,17069.95,32.06,-1.00,-1.0,2370
5253,920253,17040,-712,788,17073.06,32.20,-1.00,-1.0,2429
5255,920255,16996,-668,932,17034.64,32.06,-1.00,-1.0,2374
5258,920258,17032,-600,976,17070.49,32.20,-1.00,-1.0,2367
5261,920261,17096,-692,732,17125.65,32.06,-1.00,-1.0,2430
5264,920264,17052,-696,728,17081.72,32.11,-1.00,-1.0,2354
5266,920266,17028,-684,852,17063.02,32.15,-1.00,-1.0,2424
5269,920269,17084,-636,884,17118.67,32.20,-1.00,-1.0,2355
5274,920274,17016,-676,940,17055.35,32.11,-1.00,-1.0,2431
5277,920277,17140,-632,900,17175.24,32.06,-1.00,-1.0,2368
5280,920280,17088,-624,784,17117.35,32.11,-1.00,-1.0,2430
5282,920282,16980,-644,924,17017.31,31.92,-1.00,-1.0,2370
5285,920285,17008,-648,728,17035.90,32.11,-1.00,-1.0,2421
5288,920288,17112,-616,736,17138.89,32.06,-1.00,-1.0,2371
5291,920291,17020,-588,820,17049.88,32.01,-1.00,-1.0,2366
5293,920293,17036,-620,832,17067.57,32.15,-1.00,-1.0,2422
5296,920296,17036,-648,876,17070.81,32.11,-1.00,-1.0,2368
5301,920301,17120,-616,708,17145.70,32.11,-1.00,-1.0,2431
5304,920304,16936,-612,900,16970.94,31.97,-1.00,-1.0,2369
5307,920307,17032,-612,884,17065.90,32.01,-1.00,-1.0,2437
5310,920310,17080,-632,864,17113.51,32.11,-1.00,-1.0,2367
5312,920312,17036,-632,896,17071.25,32.11,-1.00,-1.0,2423
5315,920315,17008,-568,764,17034.62,32.11,-1.00,-1.0,2356
5318,920318,17016,-572,740,17041.69,32.11,-1.00,-1.0,2428
5321,920321,17080,-644,784,17110.11,32.20,-1.00,-1.0,2370
5323,920323,17072,-620,812,17102.54,32.06,-1.00,-1.0,2366
5328,920328,17160,-712,832,17194.91,32.06,-1.00,-1.0,2437
5331,920331,17020,-588,908,17054.34,32.06,-1.00,-1.0,2379
5334,920334,17072,-748,748,17104.74,32.11,-1.00,-1.0,2440
5336,920336,17024,-660,764,17053.91,32.06,-1.00,-1.0,2378
5339,920339,17084,-608,904,17118.70,32.11,-1.00,-1.0,2428
5342,920342,17040,-552,844,17069.82,32.06,-1.00,-1.0,2374
5345,920345,17056,-604,756,17083.43,32.11,-1.00,-1.0,2432
5347,920347,17080,-624,860,17113.02,32.11,-1.00,-1.0,2376
5352,920352,17028,-616,812,17058.47,32.06,-1.00,-1.0,2432
5355,920355,17060,-624,752,17087.96,32.06,-1.00,-1.0,2376
5357,920357,17096,-632,876,17130.09,32.11,-1.00,-1.0,2370
5360,920360,17096,-640,852,17129.18,32.20,-1.00,-1.0,2430
5363,920363,16952,-552,748,16977.47,32.15,-1.00,-1.0,2368
5366,920366,17008,-580,776,17035.57,32.11,-1.00,-1.0,2417
5368,920368,17116,-688,828,17149.82,32.20,-1.00,-1.0,2375
5371,920371,17132,-664,780,17162.60,32.01,-1.00,-1.0,2428
5374,920374,17036,-696,676,17063.61,32.01,-1.00,-1.0,2376
5379,920379,16988,-700,800,17021.23,32.15,-1.00,-1.0,2431
5382,920382,17100,-640,684,17125.64,32.06,-1.00,-1.0,2364
5385,920385,17016,-580,864,17047.79,32.15,-1.00,-1.0,2437
5388,920388,17132,-680,812,17164.71,32.15,-1.00,-1.0,2363
5390,920390,17012,-652,880,17047.22,32.11,-1.00,-1.0,2367
5393,920393,17120,-592,820,17149.85,32.11,-1.00,-1.0,2421
5396,920396,17004,-616,808,17034.33,32.11,-1.00,-1.0,2368
5399,920399,16988,-644,772,17017.72,32.06,-1.00,-1.0,2421
5401,920401,17028,-692,800,17060.82,32.11,-1.00,-1.0,2379
5406,920406,17048,-588,852,17079.40,32.11,-1.00,-1.0,2438
5409,920409,17096,-660,812,17127.99,32.20,-1.00,-1.0,2375
5412,920412,17056,-576,964,17092.93,32.20,-1.00,-1.0,2433
5415,920415,17120,-480,928,17151.85,32.11,-1.00,-1.0,2372
5417,920417,17000,-696,744,17030.50,32.06,-1.00,-1.0,2365
5420,920420,17032,-616,764,17060.25,32.15,-1.00,-1.0,2421
5423,920423,17076,-636,880,17110.48,32.06,-1.00,-1.0,2370
5426,920426,17068,-604,904,17102.59,32.06,-1.00,-1.0,2407
5428,920428,16952,-608,916,16987.61,32.11,-1.00,-1.0,2374
5433,920433,17156,-664,916,17193.26,32.01,-1.00,-1.0,2441
5436,920436,17036,-628,836,17068.06,32.11,-1.00,-1.0,2381
5439,920439,17044,-628,904,17079.51,32.06,-1.00,-1.0,2430
5442,920442,17008,-656,876,17043.17,32.11,-1.00,-1.0,2369
5445,920445,17084,-620,904,17119.13,32.06,-1.00,-1.0,2424
5447,920447,17040,-664,864,17074.81,32.11,-1.00,-1.0,2371
5450,920450,17008,-664,684,17034.70,32.06,-1.00,-1.0,2366
5453,920453,16968,-664,876,17003.57,32.11,-1.00,-1.0,2421
5455,920455,17044,-740,784,17078.06,32.15,-1.00,-1.0,2371
5460,920460,16944,-644,880,16979.05,32.15,-1.00,-1.0,2437
5463,920463,17088,-568,656,17110.02,32.11,-1.00,-1.0,2382
5466,920466,17148,-676,776,17178.86,32.06,-1.00,-1.0,2431
5469,920469,16960,-668,900,16996.99,32.06,-1.00,-1.0,2367
5472,920472,17048,-728,964,17090.75,32.15,-1.00,-1.0,2421
5474,920474,17056,-664,812,17088.22,32.20,-1.00,-1.0,2355
5477,920477,17048,-632,1000,17088.99,32.15,-1.00,-1.0,2421
5480,920480,17052,-672,796,17083.79,32.20,-1.00,-1.0,2370
5483,920483,17064,-556,764,17090.14,32.15,-1.00,-1.0,2366
5488,920488,17044,-600,788,17072.75,32.06,-1.00,-1.0,2434
5490,920490,17052,-704,740,17082.56,31.97,-1.00,-1.0,2370
5493,920493,17108,-592,852,17139.43,32.06,-1.00,-1.0,2431
5496,920496,16960,-600,760,16987.62,32.06,-1.00,-1.0,2368
5499,920499,17040,-616,916,17075.72,32.06,-1.00,-1.0,2421
5501,920501,17100,-588,712,17124.91,32.06,-1.00,-1.0,2368
5504,920504,17008,-684,792,17040.16,32.15,-1.00,-1.0,2421
5507,920507,17116,-620,796,17145.71,32.15,-1.00,-1.0,2370
5512,920512,17044,-628,924,17080.58,32.15,-1.00,-1.0,2438
5514,920514,16968,-696,888,17005.47,32.15,-1.00,-1.0,2374
5517,920517,17060,-712,860,17096.49,32.15,-1.00,-1.0,2364
5520,920520,17096,-516,764,17120.84,32.20,-1.00,-1.0,2437
5523,920523,17060,-700,656,17086.95,32.20,-1.00,-1.0,2367
5525,920525,17004,-648,812,17035.71,32.11,-1.00,-1.0,2424
5528,920528,17028,-664,904,17064.90,32.11,-1.00,-1.0,2368
5531,920531,17080,-600,816,17110.00,32.11,-1.00,-1.0,2423
5534,920534,17088,-596,944,17124.43,32.11,-1.00,-1.0,2367
5538,920538,17004,-520,860,17033.67,32.11,-1.00,-1.0,2434
5541,920541,16984,-688,964,17025.24,32.11,-1.00,-1.0,2367
5544,920544,17028,-560,736,17053.10,32.06,-1.00,-1.0,2438
5547,920547,17000,-600,924,17035.66,32.11,-1.00,-1.0,2372
5549,920549,17068,-648,804,17099.21,32.15,-1.00,-1.0,2365
5552,920552,17084,-664,828,17116.94,32.11,-1.00,-1.0,2421
5555,920555,17092,-648,780,17122.05,32.15,-1.00,-1.0,2368
5558,920558,17116,-568,764,17142.46,32.01,-1.00,-1.0,2420
5561,920561,16948,-608,796,16977.57,32.11,-1.00,-1.0,2368
5565,920565,16988,-684,796,17020.39,32.15,-1.00,-1.0,2439
5568,920568,17036,-564,912,17069.71,32.06,-1.00,-1.0,2383
5571,920571,17064,-620,756,17091.99,32.15,-1.00,-1.0,2430
5574,920574,16984,-604,768,17012.08,32.15,-1.00,-1.0,2369
5577,920577,17064,-540,852,17093.79,32.11,-1.00,-1.0,2423
5579,920579,17096,-512,868,17125.68,32.15,-1.00,-1.0,2371
5582,920582,17060,-656,808,17091.72,32.11,-1.00,-1.0,2367
5585,920585,17092,-680,840,17126.13,32.15,-1.00,-1.0,2421
5588,920588,16944,-552,784,16971.11,32.11,-1.00,-1.0,2368
5593,920593,17136,-624,816,17166.76,32.01,-1.00,-1.0,2431
5595,920595,17056,-772,832,17093.72,32.11,-1.00,-1.0,2367
5598,920598,17048,-632,960,17086.70,32.20,-1.00,-1.0,2430
5601,920601,17000,-620,760,17028.27,32.11,-1.00,-1.0,2369
5604,920604,17096,-648,940,17134.08,32.15,-1.00,-1.0,2421
5606,920606,17124,-544,820,17152.25,32.11,-1.00,-1.0,2369
5609,920609,17028,-700,752,17058.96,32.06,-1.00,-1.0,2420
5612,920612,17024,-644,740,17052.24,32.11,-1.00,-1.0,2369
5615,920615,17132,-660,932,17170.02,32.06,-1.00,-1.0,2367
5620,920620,17032,-552,892,17064.27,32.15,-1.00,-1.0,2432
5622,920622,17132,-588,840,17162.66,32.11,-1.00,-1.0,2368
5625,920625,17076,-580,728,17101.35,32.06,-1.00,-1.0,2429
5628,920628,17024,-644,816,17055.71,32.20,-1.00,-1.0,2376
5631,920631,16940,-700,880,16977.28,32.15,-1.00,-1.0,2420
5633,920633,16964,-636,856,16997.49,32.06,-1.00,-1.0,2369
5636,920636,17016,-720,844,17052.12,32.06,-1.00,-1.0,2420
5639,920639,17036,-712,644,17063.03,32.15,-1.00,-1.0,2403
5642,920642,17136,-624,724,17162.63,32.06,-1.00,-1.0,2368
5647,920647,17012,-576,756,17038.53,32.06,-1.00,-1.0,2446
5649,920649,17024,-552,872,17055.25,32.06,-1.00,-1.0,2371
5652,920652,17000,-596,1032,17041.72,32.11,-1.00,-1.0,2430
5655,920655,17056,-652,920,17093.23,32.15,-1.00,-1.0,2371
5658,920658,16976,-680,928,17014.94,32.06,-1.00,-1.0,2434
5660,920660,16964,-644,796,16994.87,32.11,-1.00,-1.0,2376
5663,920663,17080,-744,816,17115.66,32.01,-1.00,-1.0,2421
5666,920666,17024,-492,788,17049.33,32.11,-1.00,-1.0,2369
5671,920671,16992,-580,940,17027.86,32.06,-1.00,-1.0,2447
5674,920674,16976,-716,880,17013.87,32.25,-1.00,-1.0,2367
5676,920676,16940,-644,908,16976.54,32.11,-1.00,-1.0,2365
5679,920679,17056,-600,888,17089.64,32.11,-1.00,-1.0,2422
5682,920682,17020,-656,840,17053.34,32.11,-1.00,-1.0,2367
5685,920685,17032,-528,860,17061.87,32.20,-1.00,-1.0,2422
5687,920687,17064,-568,872,17095.71,32.01,-1.00,-1.0,2368
5690,920690,16984,-644,972,17023.98,32.15,-1.00,-1.0,2421
5693,920693,17016,-688,928,17055.17,32.11,-1.00,-1.0,2367
5698,920698,17056,-560,704,17079.71,32.11,-1.00,-1.0,2446
5700,920700,17088,-620,780,17117.03,32.20,-1.00,-1.0,2377
5703,920703,17076,-628,784,17105.52,32.20,-1.00,-1.0,2420
5706,920706,17064,-608,864,17096.67,32.11,-1.00,-1.0,2368
5709,920709,17004,-636,728,17031.46,32.15,-1.00,-1.0,2366
5711,920711,17044,-640,860,17077.68,32.06,-1.00,-1.0,2422
5714,920714,17084,-696,784,17116.14,32.06,-1.00,-1.0,2368
5717,920717,17160,-648,664,17185.06,32.15,-1.00,-1.0,2428
5720,920720,17020,-740,744,17052.32,32.11,-1.00,-1.0,2367
5725,920725,17124,-556,920,17157.71,32.01,-1.00,-1.0,2447
5727,920727,17036,-592,876,17068.78,32.20,-1.00,-1.0,2375
5730,920730,17044,-636,900,17079.59,32.15,-1.00,-1.0,2420
5733,920733,17092,-680,812,17124.78,32.11,-1.00,-1.0,2371
5736,920736,16944,-708,788,16977.08,32.15,-1.00,-1.0,2420
5738,920738,17120,-652,820,17152.02,32.11,-1.00,-1.0,2375
5741,920741,16960,-668,864,16995.13,32.06,-1.00,-1.0,2365
5744,920744,17072,-540,704,17095.04,32.01,-1.00,-1.0,2427
5747,920747,17040,-552,824,17068.84,32.15,-1.00,-1.0,2368
5752,920752,17084,-628,708,17110.19,32.06,-1.00,-1.0,2441
5754,920754,16964,-712,852,17000.30,32.15,-1.00,-1.0,2367
5757,920757,17024,-596,896,17057.98,32.11,-1.00,-1.0,2420
5760,920760,17040,-528,852,17069.46,32.15,-1.00,-1.0,2376
5763,920763,16988,-576,648,17010.11,32.06,-1.00,-1.0,2420
5765,920765,17036,-708,816,17070.22,32.06,-1.00,-1.0,2369
5768,920768,17032,-560,900,17064.95,32.11,-1.00,-1.0,2421
5771,920771,17016,-608,924,17051.91,32.06,-1.00,-1.0,2376
5774,920774,17016,-596,868,17048.54,32.06,-1.00,-1.0,2366
5779,920779,17072,-712,852,17108.07,32.06,-1.00,-1.0,2448
5781,920781,17064,-620,800,17093.99,32.01,-1.00,-1.0,2374
5784,920784,17228,-604,920,17263.12,32.15,-1.00,-1.0,2420
5787,920787,17156,-652,848,17189.31,32.11,-1.00,-1.0,2367
5790,920790,17108,-640,828,17139.98,32.15,-1.00,-1.0,2421
5792,920792,16992,-632,844,17024.68,32.11,-1.00,-1.0,2356
5795,920795,17020,-680,812,17052.92,32.15,-1.00,-1.0,2424
5798,920798,17032,-616,836,17063.63,32.25,-1.00,-1.0,2374
5803,920803,17128,-596,816,17157.78,32.06,-1.00,-1.0,2446
5806,920806,17112,-664,824,17144.69,32.15,-1.00,-1.0,2367
5808,920808,17024,-552,800,17051.72,32.11,-1.00,-1.0,2373
5811,920811,17020,-604,912,17055.12,32.11,-1.00,-1.0,2409
5814,920814,17104,-684,876,17140.07,32.11,-1.00,-1.0,2367
5816,920816,17016,-712,844,17051.79,32.06,-1.00,-1.0,2431
5819,920819,17064,-580,756,17090.58,32.11,-1.00,-1.0,2376
5822,920822,17096,-580,856,17127.24,32.11,-1.00,-1.0,2411
5825,920825,16940,-580,744,16966.25,32.11,-1.00,-1.0,2370
5830,920830,17044,-604,680,17068.25,32.20,-1.00,-1.0,2448
5833,920833,17056,-640,932,17093.43,32.15,-1.00,-1.0,2367
5835,920835,17036,-656,792,17067.01,32.11,-1.00,-1.0,2372
5838,920838,17040,-656,808,17071.75,32.15,-1.00,-1.0,2427
5841,920841,17192,-540,812,17219.63,32.11,-1.00,-1.0,2370
5844,920844,17028,-512,756,17052.46,32.06,-1.00,-1.0,2423
5846,920846,17088,-604,728,17114.16,32.15,-1.00,-1.0,2384
5849,920849,17080,-556,888,17112.10,32.15,-1.00,-1.0,2421
5852,920852,17008,-612,784,17037.05,32.20,-1.00,-1.0,2377
5857,920857,17004,-572,740,17029.70,32.11,-1.00,-1.0,2452
5860,920860,17024,-660,712,17051.66,32.11,-1.00,-1.0,2369
5862,920862,17080,-644,920,17116.88,32.06,-1.00,-1.0,2438
5865,920865,17064,-532,868,17094.34,32.11,-1.00,-1.0,2375
5868,920868,17112,-640,676,17137.30,32.15,-1.00,-1.0,2365
5871,920871,17132,-632,872,17165.82,32.15,-1.00,-1.0,2420
5873,920873,16952,-512,856,16981.32,32.15,-1.00,-1.0,2369
5876,920876,16980,-616,960,17018.27,32.11,-1.00,-1.0,2421
5879,920879,17052,-760,844,17089.78,32.06,-1.00,-1.0,2374
5884,920884,17072,-652,864,17106.28,32.15,-1.00,-1.0,2447
5887,920887,17028,-644,796,17058.76,32.11,-1.00,-1.0,2367
5889,920889,17148,-668,808,17180.02,32.06,-1.00,-1.0,2431
5892,920892,17156,-644,976,17195.80,32.06,-1.00,-1.0,2375
5895,920895,17072,-588,772,17099.56,32.15,-1.00,-1.0,2424
5898,920898,17064,-660,724,17092.10,32.06,-1.00,-1.0,2370
5900,920900,17076,-552,684,17098.61,32.15,-1.00,-1.0,2370
5903,920903,17072,-648,744,17100.49,32.11,-1.00,-1.0,2421
5906,920906,17116,-608,848,17147.78,32.15,-1.00,-1.0,2370
5911,920911,17064,-596,804,17093.32,32.15,-1.00,-1.0,2448
5914,920914,17052,-592,776,17079.91,32.15,-1.00,-1.0,2368
5916,920916,17008,-604,816,17038.27,32.15,-1.00,-1.0,2430
5919,920919,16940,-600,832,16971.03,32.15,-1.00,-1.0,2375
5922,920922,17048,-568,740,17073.50,32.15,-1.00,-1.0,2421
5925,920925,17124,-588,856,17155.46,32.15,-1.00,-1.0,2370
5927,920927,17104,-692,808,17137.05,32.15,-1.00,-1.0,2427
5930,920930,17028,-584,764,17055.13,32.15,-1.00,-1.0,2382
5933,920933,17212,-652,980,17252.20,32.15,-1.00,-1.0,2353
5938,920938,17028,-588,780,17055.99,32.15,-1.00,-1.0,2442
5941,920941,16908,-784,860,16948.00,32.06,-1.00,-1.0,2373
5944,920944,17072,-632,812,17102.98,32.06,-1.00,-1.0,2428
5946,920946,17168,-584,740,17193.86,32.06,-1.00,-1.0,2383
5949,920949,16996,-696,916,17034.89,32.11,-1.00,-1.0,2422
5952,920952,17044,-700,808,17077.49,32.15,-1.00,-1.0,2370
5955,920955,17080,-592,800,17108.97,32.06,-1.00,-1.0,2410
5957,920957,17008,-648,856,17041.85,32.15,-1.00,-1.0,2383
5964,920964,17028,-568,756,17054.24,32.06,-1.00,-1.0,2443
5967,920967,17072,-640,844,17104.83,32.15,-1.00,-1.0,2372
5969,920969,17080,-740,844,17116.84,32.11,-1.00,-1.0,2365
5972,920972,17016,-556,800,17043.87,32.15,-1.00,-1.0,2420
5975,920975,17124,-712,828,17158.79,32.11,-1.00,-1.0,2368
5978,920978,16972,-588,812,17001.58,32.11,-1.00,-1.0,2407
5980,920980,17064,-560,868,17095.24,32.01,-1.00,-1.0,2368
5983,920983,17044,-568,820,17073.16,32.15,-1.00,-1.0,2420
5986,920986,16984,-588,852,17015.52,32.20,-1.00,-1.0,2367
5991,920991,17024,-604,868,17056.81,32.20,-1.00,-1.0,2448
5993,920993,16988,-588,824,17018.13,32.11,-1.00,-1.0,2370
5996,920996,17080,-604,776,17108.29,32.11,-1.00,-1.0,2420
5999,920999,17164,-720,768,17196.25,32.11,-1.00,-1.0,2368
6001,921001,17108,-628,776,17137.10,32.06,-1.00,-1.0,2366
6004,921004,17024,-644,872,17058.48,32.15,-1.00,-1.0,2421
6007,921007,16948,-548,656,16969.54,32.06,-1.00,-1.0,2375
6010,921010,17040,-692,892,17077.36,32.06,-1.00,-1.0,2421
6012,921012,17032,-564,764,17058.45,32.15,-1.00,-1.0,2369
6018,921018,17076,-612,788,17105.12,32.20,-1.00,-1.0,2443
6020,921020,17032,-672,884,17068.16,32.11,-1.00,-1.0,2354
6023,921023,17040,-656,804,17071.57,32.11,-1.00,-1.0,2421
6026,921026,17100,-548,768,17126.01,32.20,-1.00,-1.0,2368
6028,921028,17068,-572,836,17098.03,32.15,-1.00,-1.0,2365
6031,921031,17044,-584,832,17074.29,32.15,-1.00,-1.0,2420
6034,921034,17092,-632,788,17121.82,32.06,-1.00,-1.0,2369
6037,921037,17048,-616,852,17080.39,32.15,-1.00,-1.0,2420
6039,921039,17100,-672,780,17130.96,32.06,-1.00,-1.0,2368
6044,921044,17020,-636,836,17052.38,32.06,-1.00,-1.0,2441
6047,921047,16944,-632,672,16969.09,32.15,-1.00,-1.0,2369
6050,921050,17040,-632,888,17074.82,32.15,-1.00,-1.0,2428
6053,921053,17040,-624,872,17073.70,32.15,-1.00,-1.0,2366
6055,921055,16992,-620,852,17024.64,32.15,-1.00,-1.0,2421
6058,921058,17060,-628,872,17093.81,32.15,-1.00,-1.0,2368
6061,921061,17120,-668,744,17149.17,32.11,-1.00,-1.0,2368
6063,921063,17080,-536,916,17112.94,32.01,-1.00,-1.0,2429
6066,921066,17036,-688,676,17063.28,32.01,-1.00,-1.0,2383
6071,921071,17036,-604,860,17068.38,32.11,-1.00,-1.0,2440
6074,921074,17092,-720,868,17129.16,32.06,-1.00,-1.0,2375
6077,921077,17068,-636,756,17096.57,32.11,-1.00,-1.0,2435
6079,921079,17096,-556,632,17116.71,32.15,-1.00,-1.0,2372
6082,921082,17040,-628,836,17072.05,32.11,-1.00,-1.0,2431
6085,921085,17036,-600,884,17069.47,32.20,-1.00,-1.0,2376
6088,921088,17024,-680,900,17061.33,32.20,-1.00,-1.0,2436
6090,921090,16980,-604,896,17014.35,32.11,-1.00,-1.0,2376
6093,921093,17044,-588,860,17075.81,32.25,-1.00,-1.0,2365
6098,921098,17044,-612,904,17078.93,32.15,-1.00,-1.0,2442
6101,921101,17124,-664,884,17159.65,32.11,-1.00,-1.0,2366
6104,921104,16992,-616,792,17021.60,32.06,-1.00,-1.0,2421
6106,921106,17076,-468,888,17105.48,32.11,-1.00,-1.0,2372
6109,921109,17048,-616,916,17083.70,32.06,-1.00,-1.0,2421
6112,921112,16984,-604,952,17021.38,32.11,-1.00,-1.0,2370
6115,921115,17044,-608,820,17074.54,32.06,-1.00,-1.0,2421
6117,921117,17036,-608,852,17068.12,32.01,-1.00,-1.0,2355
6122,921122,17132,-516,800,17158.43,32.06,-1.00,-1.0,2467
6125,921125,17188,-612,744,17214.98,32.06,-1.00,-1.0,2367
6128,921128,17008,-588,828,17038.29,32.11,-1.00,-1.0,2365
6130,921130,16996,-648,800,17027.15,32.01,-1.00,-1.0,2434
6133,921133,17140,-640,780,17169.67,32.11,-1.00,-1.0,2376
6136,921136,17028,-548,720,17052.02,32.20,-1.00,-1.0,2425
6139,921139,16964,-656,740,16992.80,32.11,-1.00,-1.0,2370
6141,921141,17124,-564,780,17151.03,32.25,-1.00,-1.0,2432
6144,921144,16976,-584,836,17006.60,32.01,-1.00,-1.0,2377
6149,921149,17036,-648,816,17067.84,32.01,-1.00,-1.0,2442
6152,921152,17084,-608,800,17113.53,32.20,-1.00,-1.0,2376
6155,921155,16972,-628,908,17007.87,32.01,-1.00,-1.0,2422
6157,921157,17032,-628,772,17061.05,32.06,-1.00,-1.0,2369
6160,921160,17072,-616,752,17099.65,32.06,-1.00,-1.0,2369
6163,921163,17096,-708,900,17134.31,32.15,-1.00,-1.0,2427
6165,921165,17008,-708,860,17044.44,31.97,-1.00,-1.0,2375
6168,921168,17068,-656,732,17096.28,32.15,-1.00,-1.0,2422
6171,921171,17032,-648,776,17061.98,32.15,-1.00,-1.0,2369
6176,921176,17060,-580,820,17089.54,32.06,-1.00,-1.0,2442
6178,921178,16992,-568,804,17020.49,32.06,-1.00,-1.0,2375
6181,921181,17140,-572,760,17166.37,32.15,-1.00,-1.0,2422
6184,921184,17088,-644,788,17118.28,32.06,-1.00,-1.0,2373
6187,921187,17072,-588,716,17097.12,32.11,-1.00,-1.0,2422
6189,921189,17024,-568,848,17054.57,32.06,-1.00,-1.0,2357
6192,921192,17148,-692,948,17188.12,32.20,-1.00,-1.0,2366
6195,921195,17088,-532,824,17116.12,32.20,-1.00,-1.0,2430
6198,921198,17044,-632,740,17071.76,32.15,-1.00,-1.0,2433
6202,921202,17100,-644,828,17132.14,32.15,-1.00,-1.0,2450
6205,921205,17096,-680,760,17126.39,32.15,-1.00,-1.0,2371
6208,921208,16952,-624,932,16989.06,32.15,-1.00,-1.0,2423
6211,921211,17108,-616,784,17137.03,32.15,-1.00,-1.0,2365
6214,921214,17048,-660,760,17077.69,32.15,-1.00,-1.0,2424
6216,921216,17092,-652,784,17122.39,32.15,-1.00,-1.0,2367
6219,921219,17132,-584,896,17165.35,32.11,-1.00,-1.0,2366
6222,921222,17004,-560,740,17029.30,32.11,-1.00,-1.0,2423
6224,921224,17052,-652,776,17082.10,32.11,-1.00,-1.0,2368
