timestamp_ms,global_ms,accel_x,accel_y,accel_z,accel_mag,temp_c,voltage,soc,loop_us
2,1525002,17044,-524,928,17077.29,30.55,-1.00,-1.0,2487
9,1525009,17060,-632,832,17091.96,30.55,-1.00,-1.0,2458
11,1525011,16964,-560,736,16989.19,30.55,-1.00,-1.0,2379
14,1525014,17044,-680,756,17074.30,30.46,-1.00,-1.0,2366
17,1525017,17012,-752,872,17050.92,30.60,-1.00,-1.0,2428
20,1525020,16912,-540,952,16947.38,30.60,-1.00,-1.0,2364
22,1525022,17080,-604,856,17112.10,30.51,-1.00,-1.0,2426
25,1525025,17020,-588,976,17058.10,30.55,-1.00,-1.0,2370
28,1525028,17016,-588,820,17045.89,30.60,-1.00,-1.0,2427
31,1525031,16980,-544,824,17008.68,30.60,-1.00,-1.0,2365
35,1525035,17052,-604,852,17083.95,30.55,-1.00,-1.0,2442
38,1525038,16952,-496,868,16981.45,30.55,-1.00,-1.0,2369
41,1525041,17020,-720,904,17059.19,30.60,-1.00,-1.0,2363
43,1525043,17008,-640,892,17043.39,30.60,-1.00,-1.0,2425
46,1525046,16964,-656,880,16999.47,30.60,-1.00,-1.0,2369
49,1525049,16936,-628,912,16972.16,30.60,-1.00,-1.0,2433
52,1525052,17048,-524,988,17084.64,30.51,-1.00,-1.0,2368
54,1525054,17080,-584,912,17114.30,30.65,-1.00,-1.0,2425
57,1525057,17008,-604,964,17046.00,30.51,-1.00,-1.0,2373
62,1525062,17112,-584,888,17144.97,30.51,-1.00,-1.0,2443
65,1525065,17072,-568,908,17105.56,30.60,-1.00,-1.0,2368
68,1525068,17036,-604,924,17071.73,30.60,-1.00,-1.0,2425
70,1525070,17044,-744,892,17083.53,30.60,-1.00,-1.0,2370
73,1525073,17008,-572,1076,17051.60,30.55,-1.00,-1.0,2375
76,1525076,17080,-664,768,17110.15,30.55,-1.00,-1.0,2436
78,1525078,17080,-664,828,17112.95,30.55,-1.00,-1.0,2375
81,1525081,17048,-552,792,17075.31,30.69,-1.00,-1.0,2424
84,1525084,17108,-688,868,17143.82,30.55,-1.00,-1.0,2373
89,1525089,17088,-564,792,17115.64,30.65,-1.00,-1.0,2442
92,1525092,16908,-600,964,16946.08,30.51,-1.00,-1.0,2376
95,1525095,17164,-608,880,17197.29,30.55,-1.00,-1.0,2423
97,1525097,17024,-724,860,17061.08,30.55,-1.00,-1.0,2372
100,1525100,17008,-696,888,17045.38,30.46,-1.00,-1.0,2367
103,1525103,17088,-620,856,17120.66,30.60,-1.00,-1.0,2423
105,1525105,17008,-520,816,17035.50,30.55,-1.00,-1.0,2374
108,1525108,17056,-600,844,17087.41,30.51,-1.00,-1.0,2423
111,1525111,17032,-612,856,17064.47,30.65,-1.00,-1.0,2369
116,1525116,17008,-648,872,17042.66,30.55,-1.00,-1.0,2445
119,1525119,16976,-648,816,17007.95,30.55,-1.00,-1.0,2374
121,1525121,17096,-740,900,17135.66,30.60,-1.00,-1.0,2431
124,1525124,17032,-688,872,17068.18,30.55,-1.00,-1.0,2385
127,1525127,16968,-592,928,17003.67,30.51,-1.00,-1.0,2367
130,1525130,17012,-576,776,17039.43,30.46,-1.00,-1.0,2422
132,1525132,17100,-556,888,17132.07,30.60,-1.00,-1.0,2369
135,1525135,17180,-644,852,17213.16,30.65,-1.00,-1.0,2423
138,1525138,17064,-660,984,17105.09,30.60,-1.00,-1.0,2368
143,1525143,17104,-588,924,17139.03,30.60,-1.00,-1.0,2443
145,1525145,16992,-536,804,17019.45,30.60,-1.00,-1.0,2370
148,1525148,16904,-716,756,16936.04,30.60,-1.00,-1.0,2423
151,1525151,17060,-628,752,17088.11,30.51,-1.00,-1.0,2369
154,1525154,16976,-712,876,17013.49,30.51,-1.00,-1.0,2423
156,1525156,17000,-620,820,17031.05,30.60,-1.00,-1.0,2371
159,1525159,17080,-616,920,17115.85,30.55,-1.00,-1.0,2367
162,1525162,17044,-588,916,17078.72,30.46,-1.00,-1.0,2429
165,1525165,17028,-628,848,17060.66,30.55,-1.00,-1.0,2368
170,1525170,17008,-560,896,17040.79,30.55,-1.00,-1.0,2443
172,1525172,16940,-624,876,16974.11,30.55,-1.00,-1.0,2368
175,1525175,17060,-716,772,17092.46,30.65,-1.00,-1.0,2423
178,1525178,16976,-636,848,17009.06,30.55,-1.00,-1.0,2367
181,1525181,17016,-580,792,17044.29,30.55,-1.00,-1.0,2424
183,1525183,16976,-596,1004,17016.10,30.55,-1.00,-1.0,2356
186,1525186,17044,-720,844,17080.07,30.65,-1.00,-1.0,2423
189,1525189,16992,-688,900,17029.72,30.55,-1.00,-1.0,2368
191,1525191,17076,-592,836,17106.70,30.60,-1.00,-1.0,2371
196,1525196,17088,-576,928,17122.87,30.55,-1.00,-1.0,2443
199,1525199,17072,-608,828,17102.88,30.55,-1.00,-1.0,2368
202,1525202,17112,-668,876,17147.42,30.55,-1.00,-1.0,2431
205,1525205,17036,-608,940,17072.74,30.46,-1.00,-1.0,2366
207,1525207,17088,-656,928,17125.75,30.60,-1.00,-1.0,2437
210,1525210,17044,-640,800,17074.76,30.65,-1.00,-1.0,2369
213,1525213,17008,-584,896,17041.59,30.55,-1.00,-1.0,2431
216,1525216,16984,-688,788,17016.19,30.55,-1.00,-1.0,2370
220,1525220,17032,-556,980,17069.23,30.51,-1.00,-1.0,2452
223,1525223,16980,-644,876,17014.77,30.69,-1.00,-1.0,2374
226,1525226,17084,-600,884,17117.38,30.55,-1.00,-1.0,2368
229,1525229,17040,-548,948,17075.15,30.69,-1.00,-1.0,2476
231,1525231,17076,-608,916,17111.36,30.60,-1.00,-1.0,2377
234,1525234,17144,-672,864,17178.91,30.55,-1.00,-1.0,2422
237,1525237,17096,-608,860,17128.41,30.65,-1.00,-1.0,2371
240,1525240,17020,-564,788,17047.56,30.55,-1.00,-1.0,2422
242,1525242,17064,-556,1000,17102.32,30.46,-1.00,-1.0,2354
247,1525247,17020,-620,972,17059.00,30.51,-1.00,-1.0,2432
250,1525250,17104,-576,796,17132.20,30.55,-1.00,-1.0,2376
253,1525253,17060,-616,780,17088.93,30.60,-1.00,-1.0,2444
255,1525255,17072,-684,912,17110.02,30.51,-1.00,-1.0,2374
258,1525258,17024,-584,844,17054.91,30.55,-1.00,-1.0,2367
261,1525261,17088,-544,1016,17126.82,30.65,-1.00,-1.0,2430
264,1525264,17084,-584,968,17121.37,30.65,-1.00,-1.0,2366
266,1525266,16968,-636,860,17001.68,30.55,-1.00,-1.0,2426
269,1525269,17116,-580,940,17151.60,30.55,-1.00,-1.0,2369
274,1525274,17004,-608,844,17035.79,30.60,-1.00,-1.0,2429
277,1525277,16920,-640,928,16957.51,30.60,-1.00,-1.0,2375
280,1525280,17096,-616,764,17124.15,30.65,-1.00,-1.0,2440
282,1525282,17072,-604,728,17098.19,30.65,-1.00,-1.0,2375
285,1525285,16972,-624,864,17005.43,30.65,-1.00,-1.0,2421
288,1525288,17044,-640,932,17081.46,30.65,-1.00,-1.0,2368
291,1525291,16968,-716,836,17003.66,30.55,-1.00,-1.0,2367
293,1525293,17028,-600,820,17058.29,30.60,-1.00,-1.0,2422
296,1525296,16964,-656,1084,17011.25,30.55,-1.00,-1.0,2368
301,1525301,17088,-600,768,17115.77,30.55,-1.00,-1.0,2440
304,1525304,17156,-512,836,17183.99,30.55,-1.00,-1.0,2368
307,1525307,17076,-656,900,17112.28,30.55,-1.00,-1.0,2431
309,1525309,17100,-620,856,17132.63,30.65,-1.00,-1.0,2374
312,1525312,16996,-592,796,17024.93,30.55,-1.00,-1.0,2422
315,1525315,17104,-624,968,17142.73,30.55,-1.00,-1.0,2369
318,1525318,17008,-640,956,17046.87,30.55,-1.00,-1.0,2421
320,1525320,17028,-576,744,17053.98,30.55,-1.00,-1.0,2370
323,1525323,17004,-548,980,17041.03,30.60,-1.00,-1.0,2366
328,1525328,17052,-624,800,17082.16,30.55,-1.00,-1.0,2432
331,1525331,17004,-532,904,17036.32,30.55,-1.00,-1.0,2370
334,1525334,17124,-684,888,17160.65,30.55,-1.00,-1.0,2431
337,1525337,16924,-628,844,16956.67,30.55,-1.00,-1.0,2367
339,1525339,17020,-556,780,17046.93,30.60,-1.00,-1.0,2422
342,1525342,17072,-540,876,17102.99,30.55,-1.00,-1.0,2369
345,1525345,17076,-552,884,17107.77,30.65,-1.00,-1.0,2429
348,1525348,17048,-692,840,17082.70,30.55,-1.00,-1.0,2367
353,1525353,17064,-600,840,17095.20,30.55,-1.00,-1.0,2426
355,1525355,17008,-592,764,17035.44,30.55,-1.00,-1.0,2374
358,1525358,17044,-580,928,17079.10,30.51,-1.00,-1.0,2374
361,1525361,16924,-576,920,16958.77,30.60,-1.00,-1.0,2431
363,1525363,17116,-544,840,17145.23,30.60,-1.00,-1.0,2371
366,1525366,17040,-592,808,17069.41,30.46,-1.00,-1.0,2428
369,1525369,16964,-596,872,16996.85,30.41,-1.00,-1.0,2371
372,1525372,17032,-492,832,17059.41,30.55,-1.00,-1.0,2421
374,1525374,17032,-548,968,17068.29,30.60,-1.00,-1.0,2372
379,1525379,17088,-624,884,17122.22,30.60,-1.00,-1.0,2432
382,1525382,17092,-512,768,17116.90,30.60,-1.00,-1.0,2367
385,1525385,17104,-520,900,17135.55,30.55,-1.00,-1.0,2366
387,1525387,17028,-612,796,17057.58,30.74,-1.00,-1.0,2439
390,1525390,16984,-564,808,17012.56,30.55,-1.00,-1.0,2376
393,1525393,16956,-632,972,16995.59,30.69,-1.00,-1.0,2425
396,1525396,17052,-596,852,17083.67,30.55,-1.00,-1.0,2369
399,1525399,17084,-600,940,17120.36,30.60,-1.00,-1.0,2425
401,1525401,17048,-696,960,17089.19,30.65,-1.00,-1.0,2371
406,1525406,17056,-644,764,17085.24,30.55,-1.00,-1.0,2432
409,1525409,17128,-636,872,17161.97,30.69,-1.00,-1.0,2367
412,1525412,16964,-640,920,17000.98,30.55,-1.00,-1.0,2439
415,1525415,17036,-640,844,17068.90,30.51,-1.00,-1.0,2366
417,1525417,17016,-564,1020,17055.87,30.65,-1.00,-1.0,2372
420,1525420,17056,-456,968,17089.53,30.51,-1.00,-1.0,2421
423,1525423,17072,-624,804,17102.31,30.55,-1.00,-1.0,2367
426,1525426,17068,-728,832,17103.77,30.51,-1.00,-1.0,2421
428,1525428,17020,-608,724,17046.24,30.55,-1.00,-1.0,2373
433,1525433,17000,-656,816,17032.21,30.51,-1.00,-1.0,2439
436,1525436,17000,-616,844,17032.08,30.65,-1.00,-1.0,2371
439,1525439,17092,-568,876,17123.86,30.60,-1.00,-1.0,2430
441,1525441,17048,-652,900,17084.19,30.60,-1.00,-1.0,2374
444,1525444,17084,-668,788,17115.21,30.60,-1.00,-1.0,2422
447,1525447,17056,-620,1040,17098.92,30.51,-1.00,-1.0,2371
450,1525450,17012,-700,860,17048.10,30.65,-1.00,-1.0,2366
452,1525452,17024,-768,720,17056.52,30.60,-1.00,-1.0,2430
455,1525455,16940,-684,736,16969.77,30.55,-1.00,-1.0,2377
460,1525460,17044,-580,908,17078.02,30.55,-1.00,-1.0,2432
463,1525463,16960,-612,912,16995.53,30.65,-1.00,-1.0,2374
466,1525466,16948,-704,924,16987.76,30.55,-1.00,-1.0,2431
468,1525468,16964,-564,840,16994.15,30.46,-1.00,-1.0,2371
471,1525471,17048,-704,852,17083.79,30.65,-1.00,-1.0,2428
474,1525474,16972,-632,924,17008.88,30.46,-1.00,-1.0,2375
477,1525477,17072,-532,1004,17109.77,30.55,-1.00,-1.0,2422
479,1525479,17028,-676,832,17061.71,30.60,-1.00,-1.0,2375
482,1525482,17020,-580,896,17053.43,30.51,-1.00,-1.0,2374
487,1525487,17060,-612,880,17093.64,30.60,-1.00,-1.0,2443
490,1525490,17040,-592,840,17070.96,30.51,-1.00,-1.0,2382
493,1525493,17012,-512,876,17042.23,30.51,-1.00,-1.0,2431
496,1525496,17108,-736,912,17148.09,30.55,-1.00,-1.0,2369
499,1525499,17044,-548,776,17070.46,30.60,-1.00,-1.0,2424
501,1525501,17048,-636,968,17087.30,30.60,-1.00,-1.0,2371
504,1525504,16980,-612,808,17010.23,30.60,-1.00,-1.0,2421
507,1525507,17072,-644,864,17105.98,30.60,-1.00,-1.0,2368
512,1525512,17036,-616,984,17075.51,30.69,-1.00,-1.0,2439
515,1525515,17116,-528,884,17146.94,30.55,-1.00,-1.0,2368
517,1525517,17108,-588,932,17143.46,30.60,-1.00,-1.0,2369
520,1525520,17076,-572,940,17111.42,30.65,-1.00,-1.0,2430
523,1525523,17072,-580,868,17103.89,30.60,-1.00,-1.0,2367
526,1525526,17004,-560,924,17038.29,30.55,-1.00,-1.0,2422
528,1525528,17088,-600,836,17118.96,30.60,-1.00,-1.0,2368
531,1525531,17084,-596,940,17120.22,30.55,-1.00,-1.0,2409
534,1525534,17048,-532,804,17075.24,30.51,-1.00,-1.0,2367
539,1525539,17076,-636,904,17111.74,30.60,-1.00,-1.0,2440
541,1525541,17100,-572,932,17134.93,30.51,-1.00,-1.0,2370
544,1525544,16964,-620,800,16994.17,30.60,-1.00,-1.0,2440
547,1525547,17112,-624,948,17149.60,30.60,-1.00,-1.0,2356
550,1525550,16976,-508,960,17010.71,30.55,-1.00,-1.0,2371
552,1525552,17036,-644,780,17066.00,30.46,-1.00,-1.0,2421
555,1525555,17020,-608,892,17054.20,30.55,-1.00,-1.0,2369
558,1525558,17096,-736,904,17135.70,30.55,-1.00,-1.0,2430
561,1525561,17008,-620,992,17048.18,30.55,-1.00,-1.0,2371
566,1525566,17012,-620,888,17046.44,30.65,-1.00,-1.0,2432
568,1525568,17020,-616,720,17046.36,30.51,-1.00,-1.0,2354
571,1525571,16924,-680,764,16954.88,30.65,-1.00,-1.0,2430
574,1525574,16944,-604,844,16975.76,30.55,-1.00,-1.0,2367
577,1525577,16988,-676,964,17028.75,30.55,-1.00,-1.0,2422
579,1525579,17052,-572,932,17087.03,30.55,-1.00,-1.0,2368
582,1525582,17052,-580,888,17084.95,30.60,-1.00,-1.0,2375
585,1525585,16952,-600,924,16987.76,30.51,-1.00,-1.0,2420
588,1525588,17032,-548,896,17064.35,30.55,-1.00,-1.0,2368
593,1525593,17032,-592,936,17067.97,30.65,-1.00,-1.0,2432
595,1525595,17092,-624,892,17126.63,30.55,-1.00,-1.0,2367
598,1525598,17068,-588,784,17096.11,30.55,-1.00,-1.0,2431
601,1525601,17040,-664,632,17064.64,30.65,-1.00,-1.0,2367
604,1525604,17108,-676,816,17140.79,30.46,-1.00,-1.0,2422
606,1525606,17104,-568,780,17131.20,30.65,-1.00,-1.0,2368
609,1525609,17024,-580,860,17055.57,30.60,-1.00,-1.0,2381
612,1525612,17112,-640,816,17143.39,30.55,-1.00,-1.0,2434
615,1525615,17072,-580,928,17107.04,30.55,-1.00,-1.0,2368
620,1525620,17124,-612,940,17160.70,30.55,-1.00,-1.0,2431
622,1525622,17076,-580,820,17105.51,30.65,-1.00,-1.0,2371
625,1525625,16992,-652,936,17030.25,30.60,-1.00,-1.0,2431
628,1525628,17012,-644,836,17044.70,30.46,-1.00,-1.0,2366
631,1525631,17068,-568,912,17101.78,30.60,-1.00,-1.0,2422
633,1525633,16952,-608,720,16978.17,30.51,-1.00,-1.0,2368
636,1525636,17124,-540,740,17148.49,30.69,-1.00,-1.0,2422
639,1525639,16932,-616,1032,16974.60,30.51,-1.00,-1.0,2366
642,1525642,17072,-664,916,17109.45,30.60,-1.00,-1.0,2367
646,1525646,16972,-580,736,16997.85,30.55,-1.00,-1.0,2444
649,1525649,16992,-632,912,17028.19,30.51,-1.00,-1.0,2374
652,1525652,16936,-684,856,16971.41,30.65,-1.00,-1.0,2420
655,1525655,17052,-716,692,17081.05,30.55,-1.00,-1.0,2374
657,1525657,17008,-540,892,17039.93,30.55,-1.00,-1.0,2429
660,1525660,16932,-564,820,16961.22,30.46,-1.00,-1.0,2382
663,1525663,17072,-524,816,17099.52,30.55,-1.00,-1.0,2423
666,1525666,17024,-660,936,17062.48,30.55,-1.00,-1.0,2370
670,1525670,17056,-560,956,17091.95,30.60,-1.00,-1.0,2435
673,1525673,17052,-620,828,17083.35,30.60,-1.00,-1.0,2367
676,1525676,17028,-620,868,17061.38,30.55,-1.00,-1.0,2370
678,1525678,17012,-616,768,17040.46,30.55,-1.00,-1.0,2438
681,1525681,17052,-608,920,17087.62,30.55,-1.00,-1.0,2371
684,1525684,17036,-568,840,17066.15,30.55,-1.00,-1.0,2423
687,1525687,17052,-540,852,17081.81,30.55,-1.00,-1.0,2369
690,1525690,17020,-636,900,17055.64,30.55,-1.00,-1.0,2434
693,1525693,17004,-504,868,17033.60,30.55,-1.00,-1.0,2374
698,1525698,16996,-648,912,17032.78,30.55,-1.00,-1.0,2432
700,1525700,16984,-636,944,17022.10,30.60,-1.00,-1.0,2364
703,1525703,17052,-580,924,17086.86,30.55,-1.00,-1.0,2439
706,1525706,17080,-572,880,17112.22,30.55,-1.00,-1.0,2379
708,1525708,17028,-716,792,17061.44,30.55,-1.00,-1.0,2366
711,1525711,17112,-576,944,17147.70,30.51,-1.00,-1.0,2421
714,1525714,17028,-616,796,17057.72,30.60,-1.00,-1.0,2372
717,1525717,17084,-644,924,17121.09,30.60,-1.00,-1.0,2422
720,1525720,17068,-592,812,17097.56,30.55,-1.00,-1.0,2367
725,1525725,17084,-572,956,17120.29,30.65,-1.00,-1.0,2432
727,1525727,17072,-636,792,17102.19,30.65,-1.00,-1.0,2366
730,1525730,17156,-588,920,17190.71,30.65,-1.00,-1.0,2445
733,1525733,16968,-596,916,17003.16,30.46,-1.00,-1.0,2375
736,1525736,16968,-632,952,17006.43,30.55,-1.00,-1.0,2432
738,1525738,16960,-652,848,16993.70,30.46,-1.00,-1.0,2372
741,1525741,17036,-576,1056,17078.41,30.51,-1.00,-1.0,2371
744,1525744,17108,-632,884,17142.48,30.60,-1.00,-1.0,2429
747,1525747,17000,-576,964,17037.05,30.60,-1.00,-1.0,2367
752,1525752,17108,-544,832,17136.86,30.60,-1.00,-1.0,2438
754,1525754,17008,-580,780,17035.75,30.55,-1.00,-1.0,2380
757,1525757,17076,-520,816,17103.39,30.60,-1.00,-1.0,2430
760,1525760,17028,-700,808,17061.53,30.60,-1.00,-1.0,2369
763,1525763,17016,-612,856,17048.51,30.51,-1.00,-1.0,2421
765,1525765,17032,-588,944,17068.27,30.55,-1.00,-1.0,2375
768,1525768,17000,-680,852,17034.91,30.60,-1.00,-1.0,2421
771,1525771,17088,-612,964,17126.11,30.60,-1.00,-1.0,2369
774,1525774,17072,-568,1020,17111.87,30.60,-1.00,-1.0,2367
779,1525779,16980,-572,872,17011.99,30.69,-1.00,-1.0,2436
781,1525781,17056,-560,888,17088.28,30.55,-1.00,-1.0,2377
784,1525784,16992,-580,908,17026.12,30.51,-1.00,-1.0,2430
787,1525787,17104,-628,904,17139.38,30.55,-1.00,-1.0,2413
790,1525790,17008,-608,892,17042.22,30.60,-1.00,-1.0,2433
793,1525793,17036,-524,908,17068.23,30.51,-1.00,-1.0,2379
795,1525795,17068,-636,808,17098.95,30.60,-1.00,-1.0,2411
798,1525798,17112,-608,896,17146.22,30.60,-1.00,-1.0,2382
803,1525803,17112,-632,880,17146.26,30.51,-1.00,-1.0,2448
806,1525806,16988,-608,928,17024.19,30.55,-1.00,-1.0,2375
809,1525809,17080,-588,948,17116.39,30.60,-1.00,-1.0,2367
811,1525811,17044,-640,964,17083.23,30.65,-1.00,-1.0,2431
814,1525814,17080,-652,900,17116.12,30.55,-1.00,-1.0,2369
817,1525817,17072,-540,888,17103.61,30.46,-1.00,-1.0,2429
820,1525820,17000,-616,912,17035.59,30.55,-1.00,-1.0,2368
822,1525822,17088,-620,892,17122.49,30.55,-1.00,-1.0,2425
825,1525825,17016,-604,928,17051.99,30.55,-1.00,-1.0,2369
830,1525830,16948,-576,696,16972.06,30.65,-1.00,-1.0,2432
833,1525833,17020,-628,784,17049.62,30.60,-1.00,-1.0,2371
836,1525836,17108,-672,792,17139.50,30.55,-1.00,-1.0,2431
838,1525838,17064,-584,980,17102.09,30.55,-1.00,-1.0,2369
841,1525841,17060,-648,788,17090.48,30.55,-1.00,-1.0,2370
844,1525844,16960,-640,900,16995.92,30.60,-1.00,-1.0,2425
846,1525846,17060,-560,888,17092.27,30.55,-1.00,-1.0,2370
849,1525849,16988,-576,908,17022.00,30.60,-1.00,-1.0,2437
852,1525852,17116,-612,852,17148.12,30.60,-1.00,-1.0,2381
857,1525857,17020,-596,904,17054.41,30.60,-1.00,-1.0,2443
859,1525859,17108,-604,868,17140.65,30.51,-1.00,-1.0,2375
862,1525862,17032,-644,872,17066.46,30.55,-1.00,-1.0,2431
865,1525865,17068,-644,840,17100.79,30.60,-1.00,-1.0,2371
868,1525868,17052,-672,860,17086.89,30.46,-1.00,-1.0,2353
870,1525870,17096,-564,844,17126.11,30.55,-1.00,-1.0,2422
873,1525873,16976,-604,916,17011.42,30.55,-1.00,-1.0,2369
876,1525876,16980,-540,800,17007.41,30.60,-1.00,-1.0,2429
879,1525879,17016,-592,868,17048.41,30.60,-1.00,-1.0,2376
884,1525884,17056,-624,1044,17099.31,30.65,-1.00,-1.0,2431
886,1525886,17076,-604,752,17103.22,30.55,-1.00,-1.0,2368
889,1525889,17052,-700,852,17087.62,30.55,-1.00,-1.0,2431
892,1525892,17060,-640,712,17086.84,30.55,-1.00,-1.0,2367
895,1525895,17000,-688,832,17034.25,30.65,-1.00,-1.0,2421
897,1525897,17028,-540,864,17058.46,30.65,-1.00,-1.0,2369
900,1525900,16916,-648,824,16948.45,30.60,-1.00,-1.0,2377
903,1525903,17056,-568,724,17080.81,30.60,-1.00,-1.0,2432
906,1525906,17040,-688,860,17075.55,30.51,-1.00,-1.0,2374
911,1525911,17080,-604,840,17111.31,30.60,-1.00,-1.0,2434
914,1525914,16960,-644,904,16996.28,30.60,-1.00,-1.0,2368
916,1525916,17092,-552,892,17124.16,30.51,-1.00,-1.0,2437
919,1525919,17012,-712,888,17050.03,30.51,-1.00,-1.0,2369
922,1525922,17080,-600,836,17110.97,30.60,-1.00,-1.0,2427
925,1525925,16952,-596,880,16985.29,30.60,-1.00,-1.0,2370
927,1525927,17024,-624,716,17050.47,30.60,-1.00,-1.0,2434
930,1525930,17052,-584,812,17081.31,30.60,-1.00,-1.0,2369
933,1525933,17076,-604,888,17109.74,30.51,-1.00,-1.0,2374
938,1525938,17072,-680,900,17109.22,30.60,-1.00,-1.0,2432
941,1525941,17096,-568,808,17124.51,30.55,-1.00,-1.0,2368
944,1525944,17076,-580,756,17102.56,30.60,-1.00,-1.0,2430
946,1525946,17048,-596,916,17082.99,30.55,-1.00,-1.0,2372
949,1525949,17064,-604,956,17101.43,30.51,-1.00,-1.0,2420
952,1525952,17060,-508,908,17091.70,30.60,-1.00,-1.0,2377
955,1525955,16948,-632,928,16985.15,30.51,-1.00,-1.0,2421
957,1525957,17044,-616,972,17082.80,30.55,-1.00,-1.0,2369
962,1525962,17108,-628,952,17145.97,30.65,-1.00,-1.0,2431
965,1525965,17140,-664,904,17176.66,30.55,-1.00,-1.0,2368
968,1525968,17024,-644,872,17058.48,30.60,-1.00,-1.0,2366
970,1525970,16984,-544,856,17014.26,30.55,-1.00,-1.0,2444
973,1525973,17076,-612,820,17106.63,30.60,-1.00,-1.0,2376
976,1525976,17120,-620,800,17149.89,30.55,-1.00,-1.0,2424
979,1525979,17052,-632,928,17088.92,30.69,-1.00,-1.0,2369
981,1525981,17092,-556,824,17120.88,30.55,-1.00,-1.0,2432
984,1525984,16960,-684,888,16997.00,30.55,-1.00,-1.0,2377
989,1525989,17052,-532,812,17079.61,30.60,-1.00,-1.0,2432
992,1525992,16928,-704,912,16967.16,30.69,-1.00,-1.0,2375
995,1525995,17124,-576,692,17147.65,30.55,-1.00,-1.0,2428
997,1525997,16976,-564,876,17007.94,30.60,-1.00,-1.0,2372
1000,1526000,17036,-516,936,17069.49,30.55,-1.00,-1.0,2368
1003,1526003,17008,-636,824,17039.82,30.60,-1.00,-1.0,2421
1005,1526005,17076,-612,660,17099.71,30.65,-1.00,-1.0,2374
1008,1526008,17056,-728,808,17090.64,30.55,-1.00,-1.0,2422
1011,1526011,17064,-680,1052,17109.92,30.46,-1.00,-1.0,2370
1016,1526016,17020,-612,752,17047.59,30.55,-1.00,-1.0,2435
1019,1526019,17076,-548,924,17109.76,30.65,-1.00,-1.0,2374
1021,1526021,17000,-632,976,17039.72,30.60,-1.00,-1.0,2436
1024,1526024,17084,-532,828,17112.32,30.55,-1.00,-1.0,2376
1027,1526027,17020,-592,912,17054.70,30.60,-1.00,-1.0,2424
1030,1526030,16964,-648,920,17001.28,30.55,-1.00,-1.0,2372
1033,1526033,17068,-656,908,17104.72,30.60,-1.00,-1.0,2421
1035,1526035,16980,-684,764,17010.94,30.65,-1.00,-1.0,2371
1038,1526038,17024,-604,664,17047.65,30.60,-1.00,-1.0,2367
1043,1526043,17060,-592,780,17088.08,30.60,-1.00,-1.0,2435
1046,1526046,17020,-612,860,17052.70,30.55,-1.00,-1.0,2375
1049,1526049,17052,-556,808,17080.18,30.60,-1.00,-1.0,2432
1051,1526051,17064,-564,808,17092.43,30.65,-1.00,-1.0,2371
1054,1526054,17004,-636,724,17031.29,30.51,-1.00,-1.0,2421
1057,1526057,17000,-660,988,17041.47,30.51,-1.00,-1.0,2369
1060,1526060,16912,-604,844,16943.82,30.60,-1.00,-1.0,2422
1062,1526062,17064,-600,828,17094.61,30.65,-1.00,-1.0,2369
1067,1526067,17004,-632,808,17034.91,30.60,-1.00,-1.0,2432
1070,1526070,16928,-668,932,16966.79,30.60,-1.00,-1.0,2368
1073,1526073,17052,-628,920,17088.34,30.69,-1.00,-1.0,2423
1075,1526075,16992,-556,916,17025.75,30.51,-1.00,-1.0,2369
1078,1526078,17044,-552,728,17068.47,30.65,-1.00,-1.0,2369
1081,1526081,16940,-592,880,16973.17,30.60,-1.00,-1.0,2443
1083,1526083,16984,-596,748,17010.91,30.65,-1.00,-1.0,2374
1086,1526086,17016,-628,884,17050.52,30.55,-1.00,-1.0,2432
1089,1526089,17024,-528,812,17051.53,30.65,-1.00,-1.0,2369
1094,1526094,17064,-644,888,17099.22,30.41,-1.00,-1.0,2436
1096,1526096,17048,-668,856,17082.54,30.51,-1.00,-1.0,2376
1099,1526099,17068,-552,832,17097.18,30.51,-1.00,-1.0,2430
1102,1526102,16948,-616,1032,16990.56,30.60,-1.00,-1.0,2372
1105,1526105,17032,-656,792,17063.02,30.51,-1.00,-1.0,2421
1107,1526107,17028,-636,924,17064.91,30.60,-1.00,-1.0,2370
1110,1526110,17108,-624,792,17137.69,30.65,-1.00,-1.0,2421
1113,1526113,17040,-616,740,17067.18,30.65,-1.00,-1.0,2369
1116,1526116,16940,-552,836,16969.60,30.65,-1.00,-1.0,2367
1121,1526121,17072,-708,800,17105.39,30.55,-1.00,-1.0,2432
1124,1526124,17132,-564,920,17165.95,30.60,-1.00,-1.0,2368
1127,1526127,17000,-640,852,17033.37,30.55,-1.00,-1.0,2423
1129,1526129,17000,-572,836,17030.15,30.55,-1.00,-1.0,2370
1132,1526132,16996,-624,860,17029.18,30.65,-1.00,-1.0,2428
1135,1526135,16992,-656,948,17031.06,30.65,-1.00,-1.0,2367
1138,1526138,17004,-620,884,17038.25,30.65,-1.00,-1.0,2421
1140,1526140,16948,-636,748,16976.42,30.55,-1.00,-1.0,2369
1145,1526145,17076,-540,876,17106.98,30.65,-1.00,-1.0,2431
1148,1526148,16964,-624,764,16992.66,30.51,-1.00,-1.0,2369
1151,1526151,17092,-588,780,17119.89,30.55,-1.00,-1.0,2365
1153,1526153,17024,-556,748,17049.49,30.60,-1.00,-1.0,2436
1156,1526156,16972,-664,904,17009.02,30.55,-1.00,-1.0,2369
1159,1526159,17020,-676,848,17054.52,30.51,-1.00,-1.0,2428
1162,1526162,17108,-608,888,17141.82,30.55,-1.00,-1.0,2369
1164,1526164,17012,-560,932,17046.71,30.60,-1.00,-1.0,2434
1167,1526167,17036,-588,884,17069.05,30.65,-1.00,-1.0,2376
1172,1526172,17112,-628,916,17148.00,30.55,-1.00,-1.0,2432
1175,1526175,17020,-616,748,17047.56,30.65,-1.00,-1.0,2376
1178,1526178,17060,-616,1044,17103.01,30.60,-1.00,-1.0,2431
1180,1526180,16900,-600,816,16930.32,30.60,-1.00,-1.0,2371
1183,1526183,17144,-652,840,17176.95,30.60,-1.00,-1.0,2437
1186,1526186,17028,-532,872,17058.61,30.51,-1.00,-1.0,2377
1188,1526188,16940,-640,864,16974.09,30.60,-1.00,-1.0,2354
1191,1526191,16992,-592,796,17020.93,30.55,-1.00,-1.0,2422
1194,1526194,17060,-568,868,17091.51,30.60,-1.00,-1.0,2385
1199,1526199,17080,-664,908,17117.00,30.60,-1.00,-1.0,2447
1202,1526202,17104,-652,916,17140.92,30.51,-1.00,-1.0,2378
1205,1526205,17060,-628,832,17091.82,30.55,-1.00,-1.0,2444
1207,1526207,17060,-632,936,17097.34,30.60,-1.00,-1.0,2375
1210,1526210,17008,-640,816,17039.59,30.55,-1.00,-1.0,2422
1213,1526213,17056,-580,928,17091.07,30.60,-1.00,-1.0,2370
1216,1526216,17032,-616,864,17065.02,30.65,-1.00,-1.0,2421
1218,1526218,17032,-584,760,17058.95,30.51,-1.00,-1.0,2375
1223,1526223,17020,-628,876,17054.10,30.60,-1.00,-1.0,2441
1226,1526226,16924,-672,928,16962.74,30.60,-1.00,-1.0,2378
1229,1526229,17096,-528,928,17129.31,30.55,-1.00,-1.0,2367
1232,1526232,16980,-588,824,17010.15,30.60,-1.00,-1.0,2431
1234,1526234,17028,-572,764,17054.72,30.55,-1.00,-1.0,2356
1237,1526237,17048,-632,932,17085.15,30.55,-1.00,-1.0,2421
1240,1526240,17072,-580,960,17108.80,30.65,-1.00,-1.0,2367
1243,1526243,17012,-636,868,17046.00,30.60,-1.00,-1.0,2422
1245,1526245,17056,-580,996,17094.90,30.65,-1.00,-1.0,2360
1250,1526250,17104,-636,824,17135.64,30.55,-1.00,-1.0,2432
1253,1526253,17156,-680,904,17193.25,30.65,-1.00,-1.0,2369
1256,1526256,17052,-576,852,17082.98,30.60,-1.00,-1.0,2439
1259,1526259,17048,-592,884,17081.17,30.55,-1.00,-1.0,2367
1261,1526261,16988,-584,892,17021.42,30.60,-1.00,-1.0,2422
1264,1526264,17084,-568,908,17117.54,30.55,-1.00,-1.0,2370
1267,1526267,17016,-684,760,17046.69,30.60,-1.00,-1.0,2367
1269,1526269,17044,-712,928,17084.09,30.55,-1.00,-1.0,2432
1272,1526272,17004,-516,728,17027.40,30.55,-1.00,-1.0,2369
1277,1526277,17124,-568,980,17161.42,30.55,-1.00,-1.0,2435
1280,1526280,16972,-540,924,17005.71,30.65,-1.00,-1.0,2368
1283,1526283,17128,-564,1052,17169.54,30.51,-1.00,-1.0,2430
1285,1526285,17104,-592,940,17140.04,30.60,-1.00,-1.0,2369
1288,1526288,17068,-656,832,17100.85,30.51,-1.00,-1.0,2421
1291,1526291,16932,-648,852,16965.80,30.51,-1.00,-1.0,2369
1294,1526294,17020,-568,928,17054.74,30.51,-1.00,-1.0,2421
1296,1526296,17044,-656,848,17077.69,30.51,-1.00,-1.0,2369
1301,1526301,17064,-544,780,17090.48,30.55,-1.00,-1.0,2434
1304,1526304,17044,-600,872,17076.84,30.55,-1.00,-1.0,2373
1306,1526306,17000,-668,904,17037.12,30.51,-1.00,-1.0,2353
1309,1526309,17032,-608,760,17059.79,30.60,-1.00,-1.0,2431
1312,1526312,17104,-660,768,17133.95,30.51,-1.00,-1.0,2368
1315,1526315,17068,-596,964,17105.59,30.60,-1.00,-1.0,2421
1317,1526317,16980,-616,888,17014.36,30.51,-1.00,-1.0,2369
1320,1526320,17064,-584,832,17094.25,30.60,-1.00,-1.0,2422
1323,1526323,17004,-584,888,17037.18,30.69,-1.00,-1.0,2369
1328,1526328,17036,-560,832,17065.49,30.60,-1.00,-1.0,2432
1331,1526331,17176,-612,840,17207.41,30.55,-1.00,-1.0,2371
1334,1526334,17028,-656,780,17058.47,30.60,-1.00,-1.0,2423
1337,1526337,17044,-500,936,17077.00,30.60,-1.00,-1.0,2371
1339,1526339,16984,-704,872,17020.94,30.51,-1.00,-1.0,2421
1342,1526342,17096,-560,900,17128.83,30.55,-1.00,-1.0,2358
1345,1526345,16996,-752,908,17036.84,30.55,-1.00,-1.0,2368
1347,1526347,17052,-560,704,17075.71,30.55,-1.00,-1.0,2440
1350,1526350,17100,-532,872,17130.48,30.60,-1.00,-1.0,2372
1355,1526355,16980,-584,756,17006.85,30.60,-1.00,-1.0,2421
1358,1526358,17096,-704,820,17130.13,30.55,-1.00,-1.0,2375
1361,1526361,17036,-600,896,17070.09,30.60,-1.00,-1.0,2430
1364,1526364,17052,-636,864,17085.72,30.69,-1.00,-1.0,2368
1367,1526367,17068,-596,964,17105.59,30.60,-1.00,-1.0,2422
1369,1526369,16984,-692,852,17019.43,30.60,-1.00,-1.0,2369
1372,1526372,16916,-636,744,16944.29,30.60,-1.00,-1.0,2422
1375,1526375,17088,-576,872,17119.93,30.51,-1.00,-1.0,2367
1380,1526380,17020,-552,836,17049.46,30.60,-1.00,-1.0,2438
1382,1526382,17028,-556,1036,17068.54,30.55,-1.00,-1.0,2377
1385,1526385,17140,-600,908,17174.52,30.60,-1.00,-1.0,2366
1388,1526388,17048,-636,856,17081.32,30.46,-1.00,-1.0,2438
1391,1526391,16896,-528,800,16923.17,30.60,-1.00,-1.0,2367
1393,1526393,17136,-500,896,17166.69,30.55,-1.00,-1.0,2422
1396,1526396,17116,-648,992,17156.96,30.55,-1.00,-1.0,2369
1399,1526399,17088,-552,820,17116.57,30.65,-1.00,-1.0,2410
1402,1526402,17092,-644,844,17124.94,30.60,-1.00,-1.0,2368
1407,1526407,17112,-620,908,17147.29,30.60,-1.00,-1.0,2431
1409,1526409,17012,-520,888,17043.10,30.51,-1.00,-1.0,2370
1412,1526412,17156,-540,864,17186.23,30.60,-1.00,-1.0,2430
1415,1526415,17096,-532,932,17129.65,30.51,-1.00,-1.0,2367
1418,1526418,17096,-656,944,17134.61,30.55,-1.00,-1.0,2422
1420,1526420,17028,-616,904,17063.10,30.60,-1.00,-1.0,2369
1423,1526423,17052,-536,884,17083.31,30.65,-1.00,-1.0,2370
1426,1526426,17012,-572,848,17042.72,30.60,-1.00,-1.0,2425
1428,1526428,17068,-632,948,17105.99,30.65,-1.00,-1.0,2375
1433,1526433,17140,-656,756,17169.20,30.65,-1.00,-1.0,2435
1436,1526436,17092,-604,852,17123.88,30.55,-1.00,-1.0,2368
1439,1526439,17056,-676,796,17087.94,30.55,-1.00,-1.0,2439
1442,1526442,16976,-716,988,17019.79,30.55,-1.00,-1.0,2368
1444,1526444,17080,-556,924,17114.01,30.51,-1.00,-1.0,2436
1447,1526447,17004,-560,980,17041.42,30.65,-1.00,-1.0,2377
1450,1526450,17128,-660,948,17166.91,30.69,-1.00,-1.0,2424
1453,1526453,16968,-604,912,17003.22,30.55,-1.00,-1.0,2369
1458,1526458,16984,-508,936,17017.36,30.65,-1.00,-1.0,2432
1460,1526460,17060,-552,932,17094.35,30.55,-1.00,-1.0,2368
1463,1526463,17080,-516,784,17105.77,30.55,-1.00,-1.0,2369
1466,1526466,17044,-560,976,17081.10,30.60,-1.00,-1.0,2437
1468,1526468,17080,-616,824,17110.96,30.69,-1.00,-1.0,2375
1471,1526471,17036,-596,900,17070.16,30.65,-1.00,-1.0,2421
1474,1526474,17052,-560,1024,17091.89,30.51,-1.00,-1.0,2356
1477,1526477,17044,-580,940,17079.75,30.55,-1.00,-1.0,2422
1479,1526479,17028,-596,852,17059.72,30.51,-1.00,-1.0,2375
1484,1526484,17020,-628,860,17053.28,30.55,-1.00,-1.0,2432
1487,1526487,17100,-564,692,17123.29,30.60,-1.00,-1.0,2370
1490,1526490,16992,-544,824,17020.66,30.65,-1.00,-1.0,2439
1493,1526493,17056,-584,888,17089.08,30.65,-1.00,-1.0,2368
1495,1526495,17076,-620,948,17113.53,30.55,-1.00,-1.0,2422
1498,1526498,17100,-712,840,17135.42,30.55,-1.00,-1.0,2356
1501,1526501,16976,-680,1012,17019.73,30.60,-1.00,-1.0,2367
1504,1526504,17040,-496,984,17075.59,30.65,-1.00,-1.0,2421
1506,1526506,17052,-580,908,17086.01,30.55,-1.00,-1.0,2372
1511,1526511,16992,-668,960,17032.20,30.60,-1.00,-1.0,2432
1514,1526514,16960,-584,984,16998.56,30.55,-1.00,-1.0,2371
1517,1526517,17056,-612,852,17088.23,30.51,-1.00,-1.0,2441
1519,1526519,16980,-604,832,17011.10,30.60,-1.00,-1.0,2373
1522,1526522,17020,-632,908,17055.92,30.51,-1.00,-1.0,2414
1525,1526525,17120,-568,964,17156.52,30.60,-1.00,-1.0,2377
1528,1526528,17044,-588,784,17072.15,30.55,-1.00,-1.0,2435
1531,1526531,17104,-600,916,17139.02,30.55,-1.00,-1.0,2370
1535,1526535,17060,-552,988,17097.50,30.65,-1.00,-1.0,2439
1538,1526538,17024,-676,912,17061.81,30.60,-1.00,-1.0,2371
1541,1526541,16992,-668,676,17018.56,30.46,-1.00,-1.0,2366
1544,1526544,16960,-668,748,16989.62,30.60,-1.00,-1.0,2430
1546,1526546,17048,-580,840,17078.53,30.65,-1.00,-1.0,2422
1549,1526549,16928,-656,756,16957.57,30.60,-1.00,-1.0,2434
1552,1526552,17112,-608,760,17139.66,30.51,-1.00,-1.0,2374
1555,1526555,17016,-568,808,17044.64,30.51,-1.00,-1.0,2420
1558,1526558,17060,-564,912,17093.67,30.51,-1.00,-1.0,2373
1563,1526563,17080,-568,1024,17120.09,30.46,-1.00,-1.0,2432
1565,1526565,17000,-608,960,17037.94,30.55,-1.00,-1.0,2368
1568,1526568,17028,-636,724,17055.25,30.60,-1.00,-1.0,2432
1571,1526571,17088,-668,932,17126.43,30.55,-1.00,-1.0,2368
1574,1526574,17028,-740,856,17065.55,30.51,-1.00,-1.0,2422
1576,1526576,17012,-600,984,17050.99,30.65,-1.00,-1.0,2369
1579,1526579,17092,-488,796,17117.48,30.60,-1.00,-1.0,2376
1582,1526582,17040,-564,704,17063.86,30.55,-1.00,-1.0,2435
1585,1526585,17084,-576,824,17113.56,30.60,-1.00,-1.0,2369
1590,1526590,17020,-640,768,17049.34,30.60,-1.00,-1.0,2432
1592,1526592,17048,-612,920,17083.77,30.55,-1.00,-1.0,2369
1595,1526595,17072,-580,880,17104.50,30.60,-1.00,-1.0,2431
1598,1526598,17016,-568,996,17054.59,30.65,-1.00,-1.0,2367
1601,1526601,16964,-612,852,16996.40,30.60,-1.00,-1.0,2422
1603,1526603,17016,-624,932,17052.93,30.51,-1.00,-1.0,2368
1606,1526606,17056,-704,972,17098.17,30.69,-1.00,-1.0,2421
1609,1526609,17028,-680,988,17070.19,30.46,-1.00,-1.0,2368
1614,1526614,17012,-532,720,17035.54,30.55,-1.00,-1.0,2432
1616,1526616,16896,-620,804,16926.48,30.55,-1.00,-1.0,2376
1619,1526619,17044,-544,884,17075.58,30.60,-1.00,-1.0,2366
1622,1526622,17008,-644,872,17042.51,30.65,-1.00,-1.0,2436
1625,1526625,17100,-572,752,17126.08,30.60,-1.00,-1.0,2365
1627,1526627,17076,-628,960,17114.49,30.65,-1.00,-1.0,2433
1630,1526630,16948,-660,720,16976.12,30.60,-1.00,-1.0,2366
1633,1526633,17008,-588,900,17041.94,30.55,-1.00,-1.0,2427
1636,1526636,17080,-628,868,17113.57,30.60,-1.00,-1.0,2365
1641,1526641,17072,-544,848,17101.70,30.60,-1.00,-1.0,2419
1643,1526643,17028,-608,892,17062.18,30.51,-1.00,-1.0,2364
1646,1526646,17084,-580,960,17120.78,30.51,-1.00,-1.0,2430
1649,1526649,16984,-668,812,17016.52,30.69,-1.00,-1.0,2368
1652,1526652,17000,-592,860,17032.03,30.60,-1.00,-1.0,2421
1654,1526654,17024,-548,656,17045.45,30.60,-1.00,-1.0,2356
1657,1526657,17028,-600,760,17055.51,30.65,-1.00,-1.0,2374
1660,1526660,17116,-592,880,17148.83,30.55,-1.00,-1.0,2434
1663,1526663,17032,-560,852,17062.49,30.65,-1.00,-1.0,2368
1668,1526668,17036,-572,908,17069.77,30.65,-1.00,-1.0,2432
1670,1526670,17028,-588,760,17055.09,30.51,-1.00,-1.0,2367
1673,1526673,17024,-636,856,17057.37,30.55,-1.00,-1.0,2431
1676,1526676,17112,-624,852,17144.56,30.55,-1.00,-1.0,2376
1679,1526679,16972,-620,920,17008.22,30.55,-1.00,-1.0,2422
1681,1526681,17096,-652,868,17130.43,30.65,-1.00,-1.0,2371
1684,1526684,16984,-588,824,17014.14,30.55,-1.00,-1.0,2437
1687,1526687,17040,-604,852,17071.97,30.55,-1.00,-1.0,2379
1692,1526692,16980,-592,956,17017.19,30.55,-1.00,-1.0,2445
1694,1526694,17132,-576,824,17161.47,30.60,-1.00,-1.0,2378
1697,1526697,17024,-484,952,17057.46,30.55,-1.00,-1.0,2367
1700,1526700,17064,-612,940,17100.83,30.55,-1.00,-1.0,2430
1703,1526703,17020,-612,876,17053.51,30.55,-1.00,-1.0,2368
1705,1526705,17056,-628,936,17093.20,30.55,-1.00,-1.0,2442
1708,1526708,16948,-572,832,16978.05,30.65,-1.00,-1.0,2377
1711,1526711,17132,-556,816,17160.43,30.60,-1.00,-1.0,2425
1714,1526714,16988,-612,840,17019.76,30.65,-1.00,-1.0,2373
1718,1526718,17084,-636,760,17112.72,30.55,-1.00,-1.0,2437
1721,1526721,17024,-560,868,17055.31,30.55,-1.00,-1.0,2368
1724,1526724,16968,-588,768,16995.55,30.60,-1.00,-1.0,2439
1727,1526727,16972,-576,920,17006.67,30.55,-1.00,-1.0,2369
1729,1526729,17024,-592,956,17061.10,30.60,-1.00,-1.0,2430
1732,1526732,17020,-652,832,17052.79,30.65,-1.00,-1.0,2380
1735,1526735,17056,-560,896,17088.70,30.69,-1.00,-1.0,2367
1738,1526738,17000,-640,828,17032.18,30.60,-1.00,-1.0,2423
1741,1526741,17088,-624,812,17118.66,30.69,-1.00,-1.0,2368
1746,1526746,17108,-612,948,17145.17,30.55,-1.00,-1.0,2436
1748,1526748,17092,-596,928,17127.55,30.60,-1.00,-1.0,2381
1751,1526751,17044,-544,812,17072.00,30.69,-1.00,-1.0,2432
1754,1526754,17008,-588,916,17042.79,30.60,-1.00,-1.0,2369
1757,1526757,17000,-632,904,17035.75,30.60,-1.00,-1.0,2423
1759,1526759,17028,-660,896,17064.33,30.51,-1.00,-1.0,2375
1762,1526762,17060,-692,920,17098.80,30.55,-1.00,-1.0,2422
1765,1526765,17008,-608,952,17045.47,30.60,-1.00,-1.0,2374
1768,1526768,16976,-620,964,17014.65,30.60,-1.00,-1.0,2367
1773,1526773,17016,-576,788,17043.97,30.60,-1.00,-1.0,2438
1776,1526776,17084,-636,852,17117.05,30.65,-1.00,-1.0,2368
1778,1526778,17100,-652,988,17140.92,30.60,-1.00,-1.0,2438
1781,1526781,16980,-584,1060,17023.07,30.51,-1.00,-1.0,2383
1784,1526784,17052,-568,956,17088.22,30.60,-1.00,-1.0,2425
1787,1526787,17044,-580,940,17079.75,30.60,-1.00,-1.0,2370
1789,1526789,17040,-568,860,17071.14,30.60,-1.00,-1.0,2425
1792,1526792,17000,-592,976,17038.28,30.60,-1.00,-1.0,2377
1797,1526797,17072,-516,804,17098.71,30.60,-1.00,-1.0,2440
1800,1526800,17008,-600,772,17036.08,30.60,-1.00,-1.0,2380
1803,1526803,17104,-552,808,17131.97,30.60,-1.00,-1.0,2442
1805,1526805,17044,-596,856,17075.89,30.60,-1.00,-1.0,2377
1808,1526808,17076,-532,832,17104.53,30.55,-1.00,-1.0,2365
1811,1526811,17116,-704,904,17154.31,30.65,-1.00,-1.0,2429
1814,1526814,17044,-612,836,17075.46,30.55,-1.00,-1.0,2367
1816,1526816,16984,-652,860,17018.25,30.65,-1.00,-1.0,2422
1819,1526819,17056,-584,952,17092.53,30.55,-1.00,-1.0,2369
1824,1526824,17004,-624,776,17033.13,30.65,-1.00,-1.0,2435
1827,1526827,17044,-636,828,17075.95,30.60,-1.00,-1.0,2367
1830,1526830,17044,-604,884,17077.59,30.55,-1.00,-1.0,2431
1832,1526832,17024,-560,876,17055.72,30.55,-1.00,-1.0,2371
1835,1526835,17016,-604,828,17046.84,30.65,-1.00,-1.0,2422
1838,1526838,16968,-576,884,17000.77,30.55,-1.00,-1.0,2369
1841,1526841,17052,-572,792,17079.96,30.55,-1.00,-1.0,2422
1843,1526843,16912,-568,712,16936.51,30.55,-1.00,-1.0,2370
1846,1526846,17088,-580,824,17117.68,30.60,-1.00,-1.0,2374
1851,1526851,17084,-616,844,17115.92,30.65,-1.00,-1.0,2439
1854,1526854,17044,-716,1024,17089.74,30.46,-1.00,-1.0,2367
1856,1526856,17140,-604,816,17170.04,30.51,-1.00,-1.0,2431
1859,1526859,17028,-600,748,17054.98,30.55,-1.00,-1.0,2369
1862,1526862,17016,-516,888,17046.97,30.60,-1.00,-1.0,2429
1865,1526865,17132,-548,876,17163.13,30.65,-1.00,-1.0,2368
1867,1526867,17032,-584,860,17063.70,30.60,-1.00,-1.0,2423
1870,1526870,17112,-552,952,17147.35,30.65,-1.00,-1.0,2373
1875,1526875,17056,-604,892,17089.99,30.55,-1.00,-1.0,2432
1878,1526878,17064,-652,816,17095.94,30.65,-1.00,-1.0,2368
1881,1526881,16972,-664,888,17008.18,30.65,-1.00,-1.0,2431
1883,1526883,17092,-624,980,17131.44,30.55,-1.00,-1.0,2369
1886,1526886,17000,-596,968,17037.96,30.60,-1.00,-1.0,2369
1889,1526889,16988,-620,788,17017.56,30.55,-1.00,-1.0,2427
1891,1526891,17056,-580,844,17086.72,30.60,-1.00,-1.0,2372
1894,1526894,17148,-616,832,17179.22,30.55,-1.00,-1.0,2436
1897,1526897,17084,-628,928,17120.71,30.60,-1.00,-1.0,2377
1902,1526902,17100,-616,904,17134.96,30.55,-1.00,-1.0,2438
1904,1526904,17024,-636,844,17056.77,30.55,-1.00,-1.0,2379
1907,1526907,17088,-548,808,17115.87,30.55,-1.00,-1.0,2430
1910,1526910,17108,-568,860,17139.02,30.55,-1.00,-1.0,2357
1913,1526913,17112,-620,868,17145.21,30.55,-1.00,-1.0,2422
1915,1526915,16980,-644,960,17019.30,30.65,-1.00,-1.0,2375
1918,1526918,17100,-652,864,17134.22,30.65,-1.00,-1.0,2422
1921,1526921,17104,-648,896,17139.71,30.55,-1.00,-1.0,2357
1924,1526924,17036,-536,964,17071.67,30.55,-1.00,-1.0,2373
1929,1526929,17004,-696,912,17042.66,30.51,-1.00,-1.0,2432
1931,1526931,17160,-620,808,17190.20,30.69,-1.00,-1.0,2367
1934,1526934,17072,-600,904,17106.44,30.60,-1.00,-1.0,2431
1937,1526937,17068,-516,884,17098.66,30.51,-1.00,-1.0,2367
1940,1526940,17004,-552,800,17031.76,30.60,-1.00,-1.0,2422
1942,1526942,17104,-732,916,17144.14,30.60,-1.00,-1.0,2356
1945,1526945,17048,-652,812,17079.78,30.51,-1.00,-1.0,2421
1948,1526948,17120,-648,952,17158.69,30.65,-1.00,-1.0,2370
1953,1526953,17008,-752,856,17046.12,30.55,-1.00,-1.0,2439
1956,1526956,17040,-512,844,17068.57,30.51,-1.00,-1.0,2369
1958,1526958,16916,-608,848,16948.15,30.65,-1.00,-1.0,2445
1961,1526961,17024,-624,920,17060.26,30.55,-1.00,-1.0,2375
1964,1526964,17100,-636,804,17130.70,30.51,-1.00,-1.0,2366
1967,1526967,17044,-496,916,17075.80,30.60,-1.00,-1.0,2422
1969,1526969,17052,-620,800,17082.01,30.51,-1.00,-1.0,2368
1972,1526972,17092,-564,888,17124.34,30.60,-1.00,-1.0,2422
1975,1526975,17112,-632,820,17143.29,30.55,-1.00,-1.0,2369
1980,1526980,16924,-592,908,16958.68,30.55,-1.00,-1.0,2439
1983,1526983,17104,-656,928,17141.71,30.55,-1.00,-1.0,2368
1985,1526985,17076,-604,728,17102.18,30.55,-1.00,-1.0,2439
1988,1526988,17016,-596,920,17051.27,30.46,-1.00,-1.0,2384
1991,1526991,17060,-660,780,17090.57,30.60,-1.00,-1.0,2427
1994,1526994,17000,-688,948,17040.31,30.65,-1.00,-1.0,2369
1996,1526996,17100,-640,816,17131.42,30.55,-1.00,-1.0,2429
1999,1526999,17064,-560,944,17099.26,30.55,-1.00,-1.0,2377
2002,1527002,17000,-644,912,17036.62,30.60,-1.00,-1.0,2369
2007,1527007,17048,-564,880,17080.01,30.55,-1.00,-1.0,2422
2010,1527010,17032,-620,992,17072.13,30.55,-1.00,-1.0,2371
2012,1527012,16988,-656,724,17016.07,30.65,-1.00,-1.0,2438
2015,1527015,17040,-648,944,17078.43,30.51,-1.00,-1.0,2376
2018,1527018,17020,-572,840,17050.31,30.51,-1.00,-1.0,2422
2021,1527021,16964,-616,1064,17008.49,30.60,-1.00,-1.0,2370
2024,1527024,17008,-604,852,17040.04,30.51,-1.00,-1.0,2423
2026,1527026,16980,-596,888,17013.65,30.60,-1.00,-1.0,2372
2031,1527031,17044,-596,928,17079.65,30.51,-1.00,-1.0,2441
2034,1527034,17004,-556,900,17036.88,30.55,-1.00,-1.0,2376
2037,1527037,17112,-764,840,17149.63,30.51,-1.00,-1.0,2440
2039,1527039,17064,-652,888,17099.53,30.55,-1.00,-1.0,2377
2042,1527042,17040,-560,876,17071.69,30.65,-1.00,-1.0,2366
2045,1527045,17008,-592,1016,17048.60,30.65,-1.00,-1.0,2424
2048,1527048,17064,-644,852,17097.39,30.55,-1.00,-1.0,2368
2050,1527050,17080,-620,796,17109.78,30.55,-1.00,-1.0,2423
2053,1527053,16980,-596,912,17014.92,30.65,-1.00,-1.0,2369
2058,1527058,17068,-616,880,17101.77,30.55,-1.00,-1.0,2432
2061,1527061,17060,-572,888,17092.67,30.60,-1.00,-1.0,2368
2064,1527064,17116,-580,888,17148.83,30.55,-1.00,-1.0,2431
2066,1527066,17108,-560,936,17142.73,30.51,-1.00,-1.0,2368
2069,1527069,17016,-592,820,17046.03,30.55,-1.00,-1.0,2422
2072,1527072,17080,-596,1020,17120.81,30.55,-1.00,-1.0,2371
2075,1527075,16980,-660,816,17012.40,30.55,-1.00,-1.0,2409
2077,1527077,17104,-640,824,17135.79,30.55,-1.00,-1.0,2370
2080,1527080,17012,-548,852,17042.13,30.65,-1.00,-1.0,2367
2085,1527085,17072,-564,980,17109.40,30.55,-1.00,-1.0,2432
2088,1527088,17148,-536,816,17175.77,30.69,-1.00,-1.0,2368
2091,1527091,17084,-592,836,17114.68,30.55,-1.00,-1.0,2430
2093,1527093,17084,-544,996,17121.65,30.55,-1.00,-1.0,2369
2096,1527096,17080,-676,876,17115.80,30.55,-1.00,-1.0,2422
2099,1527099,16940,-636,756,16968.78,30.46,-1.00,-1.0,2369
2102,1527102,17060,-576,828,17089.79,30.55,-1.00,-1.0,2422
2104,1527104,16972,-576,844,17002.73,30.55,-1.00,-1.0,2369
2109,1527109,17112,-656,776,17142.14,30.55,-1.00,-1.0,2432
2112,1527112,16972,-580,876,17004.49,30.55,-1.00,-1.0,2368
2115,1527115,17072,-628,832,17103.79,30.51,-1.00,-1.0,2430
2117,1527117,17064,-628,964,17102.74,30.55,-1.00,-1.0,2370
2120,1527120,17084,-640,816,17115.45,30.60,-1.00,-1.0,2370
2123,1527123,17020,-644,824,17052.10,30.65,-1.00,-1.0,2421
2125,1527125,17072,-584,976,17109.85,30.60,-1.00,-1.0,2379
2128,1527128,17060,-628,808,17090.67,30.55,-1.00,-1.0,2422
2131,1527131,17088,-580,972,17125.45,30.69,-1.00,-1.0,2369
2136,1527136,17076,-600,904,17110.44,30.55,-1.00,-1.0,2432
2138,1527138,17072,-612,792,17101.32,30.55,-1.00,-1.0,2371
2141,1527141,17048,-600,756,17075.30,30.65,-1.00,-1.0,2430
2144,1527144,16972,-732,824,17007.75,30.65,-1.00,-1.0,2372
2147,1527147,17044,-632,884,17078.61,30.55,-1.00,-1.0,2429
2150,1527150,17004,-580,1024,17044.68,30.55,-1.00,-1.0,2368
2152,1527152,17008,-640,940,17045.97,30.65,-1.00,-1.0,2421
2155,1527155,16968,-644,844,17001.18,30.60,-1.00,-1.0,2369
2158,1527158,17016,-588,936,17051.87,30.60,-1.00,-1.0,2367
2163,1527163,17012,-604,888,17045.87,30.60,-1.00,-1.0,2432
2166,1527166,17028,-580,836,17058.37,30.65,-1.00,-1.0,2375
2169,1527169,17004,-540,760,17029.54,30.69,-1.00,-1.0,2431
2171,1527171,17072,-684,888,17108.76,30.65,-1.00,-1.0,2371
2174,1527174,17128,-612,816,17158.34,30.60,-1.00,-1.0,2428
2177,1527177,16988,-540,940,17022.55,30.51,-1.00,-1.0,2371
2180,1527180,17044,-480,984,17079.13,30.60,-1.00,-1.0,2422
2182,1527182,17012,-628,932,17049.08,30.55,-1.00,-1.0,2372
2188,1527188,17048,-632,788,17077.90,30.55,-1.00,-1.0,2432
2190,1527190,17040,-672,912,17077.62,30.55,-1.00,-1.0,2368
2193,1527193,17036,-660,676,17062.18,30.60,-1.00,-1.0,2432
2196,1527196,17072,-672,1000,17114.46,30.55,-1.00,-1.0,2367
2198,1527198,16992,-744,740,17024.37,30.69,-1.00,-1.0,2371
2201,1527201,16900,-556,748,16925.68,30.65,-1.00,-1.0,2436
2204,1527204,16968,-524,1004,17005.75,30.51,-1.00,-1.0,2377
2207,1527207,16988,-564,928,17022.67,30.65,-1.00,-1.0,2437
2209,1527209,17000,-464,940,17032.29,30.55,-1.00,-1.0,2376
2214,1527214,17076,-580,928,17111.03,30.51,-1.00,-1.0,2434
2217,1527217,17016,-560,840,17045.92,30.60,-1.00,-1.0,2368
2220,1527220,17180,-608,908,17214.72,30.55,-1.00,-1.0,2437
2223,1527223,17032,-540,960,17067.58,30.60,-1.00,-1.0,2368
2225,1527225,17052,-616,956,17089.88,30.65,-1.00,-1.0,2433
2228,1527228,17028,-648,728,17055.87,30.60,-1.00,-1.0,2377
2231,1527231,17092,-548,864,17122.60,30.55,-1.00,-1.0,2425
2234,1527234,16992,-680,960,17032.68,30.51,-1.00,-1.0,2374
2236,1527236,17016,-640,840,17048.74,30.65,-1.00,-1.0,2367
2241,1527241,17028,-632,972,17067.43,30.55,-1.00,-1.0,2443
2244,1527244,17076,-652,824,17108.30,30.65,-1.00,-1.0,2357
2247,1527247,17072,-632,896,17107.17,30.55,-1.00,-1.0,2438
2249,1527249,17132,-596,888,17165.35,30.55,-1.00,-1.0,2375
2252,1527252,17104,-628,872,17137.72,30.65,-1.00,-1.0,2421
2255,1527255,17076,-704,824,17110.36,30.65,-1.00,-1.0,2358
2258,1527258,16912,-672,736,16941.34,30.60,-1.00,-1.0,2422
2260,1527260,16980,-684,824,17013.74,30.46,-1.00,-1.0,2375
2265,1527265,16976,-668,832,17009.50,30.55,-1.00,-1.0,2442
2268,1527268,17060,-620,816,17090.75,30.55,-1.00,-1.0,2380
2271,1527271,17052,-600,936,17088.21,30.55,-1.00,-1.0,2433
2274,1527274,16924,-668,796,16955.87,30.65,-1.00,-1.0,2373
2276,1527276,17044,-712,820,17078.56,30.60,-1.00,-1.0,2366
2279,1527279,16984,-600,880,17017.36,30.60,-1.00,-1.0,2422
2282,1527282,17092,-568,936,17127.03,30.60,-1.00,-1.0,2368
2285,1527285,16984,-700,860,17020.16,30.60,-1.00,-1.0,2421
2287,1527287,17156,-556,884,17187.76,30.60,-1.00,-1.0,2356
2292,1527292,17136,-504,928,17168.51,30.55,-1.00,-1.0,2432
2295,1527295,17072,-600,832,17102.79,30.55,-1.00,-1.0,2355
2298,1527298,16972,-544,836,17001.28,30.69,-1.00,-1.0,2431
2300,1527300,17020,-596,964,17057.69,30.60,-1.00,-1.0,2375
2303,1527303,17012,-640,940,17049.97,30.60,-1.00,-1.0,2422
2306,1527306,16928,-588,788,16956.53,30.60,-1.00,-1.0,2372
2309,1527309,17160,-628,1072,17204.92,30.69,-1.00,-1.0,2421
2311,1527311,17136,-596,856,17167.71,30.60,-1.00,-1.0,2357
2314,1527314,17048,-528,968,17083.62,30.69,-1.00,-1.0,2366
2319,1527319,17100,-600,960,17137.43,30.55,-1.00,-1.0,2432
2322,1527322,17004,-580,972,17041.63,30.51,-1.00,-1.0,2367
2325,1527325,17052,-600,920,17087.34,30.65,-1.00,-1.0,2430
2327,1527327,17020,-528,784,17046.23,30.65,-1.00,-1.0,2370
2330,1527330,17044,-636,924,17080.87,30.55,-1.00,-1.0,2422
2333,1527333,17084,-632,936,17121.29,30.55,-1.00,-1.0,2375
2336,1527336,17052,-592,868,17084.34,30.55,-1.00,-1.0,2421
2338,1527338,17148,-544,836,17176.98,30.55,-1.00,-1.0,2369
2343,1527343,16952,-604,940,16988.78,30.69,-1.00,-1.0,2435
2346,1527346,16972,-544,904,17004.76,30.60,-1.00,-1.0,2367
2349,1527349,17148,-700,908,17186.29,30.69,-1.00,-1.0,2425
2351,1527351,17208,-616,944,17244.88,30.55,-1.00,-1.0,2356
2354,1527354,17084,-612,868,17116.98,30.55,-1.00,-1.0,2367
2357,1527357,16976,-608,732,17002.65,30.65,-1.00,-1.0,2428
2359,1527359,17012,-604,1076,17056.69,30.65,-1.00,-1.0,2369
2362,1527362,17088,-612,868,17120.97,30.55,-1.00,-1.0,2424
2365,1527365,17056,-536,744,17080.63,30.55,-1.00,-1.0,2370
2370,1527370,16904,-588,732,16930.05,30.65,-1.00,-1.0,2419
2373,1527373,17164,-688,896,17201.13,30.60,-1.00,-1.0,2371
2376,1527376,17072,-592,808,17101.36,30.55,-1.00,-1.0,2438
2379,1527379,17004,-556,748,17029.52,30.60,-1.00,-1.0,2368
2381,1527381,17056,-604,848,17087.75,30.55,-1.00,-1.0,2423
2384,1527384,16960,-664,1016,17003.38,30.60,-1.00,-1.0,2370
2387,1527387,17016,-608,888,17050.00,30.60,-1.00,-1.0,2461
2390,1527390,17084,-520,848,17112.94,30.60,-1.00,-1.0,2378
2392,1527392,17044,-592,860,17075.95,30.55,-1.00,-1.0,2368
2397,1527397,17020,-624,960,17058.47,30.65,-1.00,-1.0,2440
2400,1527400,17104,-592,816,17133.68,30.55,-1.00,-1.0,2369
2403,1527403,17012,-608,716,17037.91,30.51,-1.00,-1.0,2435
2406,1527406,17084,-556,700,17107.37,30.65,-1.00,-1.0,2369
2408,1527408,17016,-592,792,17044.71,30.51,-1.00,-1.0,2426
2411,1527411,17200,-560,888,17232.01,30.74,-1.00,-1.0,2369
2414,1527414,17076,-564,904,17109.21,30.60,-1.00,-1.0,2431
2417,1527417,16988,-608,928,17024.19,30.55,-1.00,-1.0,2370
2422,1527422,17096,-640,844,17128.78,30.55,-1.00,-1.0,2440
2424,1527424,17040,-572,868,17071.68,30.55,-1.00,-1.0,2369
2427,1527427,17064,-544,864,17094.52,30.55,-1.00,-1.0,2427
2430,1527430,17084,-584,788,17112.13,30.65,-1.00,-1.0,2370
2432,1527432,17000,-656,844,17033.57,30.60,-1.00,-1.0,2377
2435,1527435,17028,-708,880,17065.42,30.51,-1.00,-1.0,2423
2438,1527438,17120,-596,756,17147.04,30.60,-1.00,-1.0,2360
2441,1527441,17060,-568,948,17095.76,30.51,-1.00,-1.0,2434
2443,1527443,17064,-568,928,17098.65,30.51,-1.00,-1.0,2375
2448,1527448,16988,-620,968,17026.85,30.60,-1.00,-1.0,2449
2451,1527451,17048,-608,852,17080.10,30.60,-1.00,-1.0,2371
2454,1527454,17052,-628,804,17082.49,30.60,-1.00,-1.0,2414
2457,1527457,17044,-580,856,17075.34,30.51,-1.00,-1.0,2364
2459,1527459,16984,-544,796,17011.34,30.60,-1.00,-1.0,2433
2462,1527462,16964,-624,932,17001.04,30.60,-1.00,-1.0,2374
2465,1527465,17068,-708,684,17096.37,30.51,-1.00,-1.0,2425
2468,1527468,16952,-624,816,16983.10,30.60,-1.00,-1.0,2367
2470,1527470,16968,-608,804,16997.91,30.51,-1.00,-1.0,2378
2475,1527475,17068,-528,920,17100.93,30.60,-1.00,-1.0,2449
2478,1527478,17096,-496,876,17125.61,30.51,-1.00,-1.0,2378
2481,1527481,17024,-592,904,17058.26,30.55,-1.00,-1.0,2429
2484,1527484,17084,-536,772,17109.83,30.60,-1.00,-1.0,2372
2486,1527486,17132,-496,912,17163.43,30.55,-1.00,-1.0,2425
2489,1527489,17168,-572,836,17197.86,30.55,-1.00,-1.0,2374
2492,1527492,16988,-648,816,17019.93,30.46,-1.00,-1.0,2424
2495,1527495,17008,-560,936,17042.94,30.60,-1.00,-1.0,2370
2500,1527500,17112,-516,808,17138.84,30.69,-1.00,-1.0,2444
2502,1527502,17040,-560,784,17067.22,30.60,-1.00,-1.0,2368
2505,1527505,17032,-484,904,17062.84,30.55,-1.00,-1.0,2435
2508,1527508,17156,-644,808,17187.09,30.69,-1.00,-1.0,2374
2511,1527511,17036,-592,976,17074.20,30.65,-1.00,-1.0,2369
2513,1527513,17060,-548,728,17084.32,30.69,-1.00,-1.0,2422
2516,1527516,17088,-524,892,17119.29,30.55,-1.00,-1.0,2370
2519,1527519,16952,-608,764,16980.10,30.60,-1.00,-1.0,2429
2522,1527522,16924,-708,824,16958.83,30.55,-1.00,-1.0,2372
2527,1527527,17020,-628,1016,17061.86,30.55,-1.00,-1.0,2440
2530,1527530,17184,-544,960,17219.39,30.60,-1.00,-1.0,2369
2533,1527533,17076,-520,808,17103.01,30.60,-1.00,-1.0,2429
2535,1527535,17036,-608,824,17066.75,30.60,-1.00,-1.0,2370
2538,1527538,17004,-648,964,17043.63,30.51,-1.00,-1.0,2422
2541,1527541,17056,-620,900,17090.98,30.60,-1.00,-1.0,2378
2544,1527544,17016,-632,876,17050.25,30.69,-1.00,-1.0,2422
2546,1527546,16992,-552,948,17027.38,30.60,-1.00,-1.0,2374
2549,1527549,17012,-544,948,17047.08,30.65,-1.00,-1.0,2417
2554,1527554,16912,-588,852,16943.65,30.51,-1.00,-1.0,2445
2557,1527557,16976,-648,868,17010.52,30.51,-1.00,-1.0,2367
2559,1527559,17132,-708,900,17170.23,30.60,-1.00,-1.0,2422
2562,1527562,17076,-632,760,17104.58,30.60,-1.00,-1.0,2369
2565,1527565,17080,-652,948,17118.71,30.69,-1.00,-1.0,2416
2568,1527568,17032,-724,828,17067.48,30.51,-1.00,-1.0,2368
2570,1527570,17024,-580,868,17055.98,30.51,-1.00,-1.0,2425
2573,1527573,17132,-604,840,17163.21,30.60,-1.00,-1.0,2369
2578,1527578,16988,-640,840,17020.79,30.55,-1.00,-1.0,2428
2581,1527581,17008,-644,936,17045.91,30.65,-1.00,-1.0,2367
2584,1527584,17028,-640,812,17059.36,30.51,-1.00,-1.0,2422
2586,1527586,17004,-540,920,17037.43,30.60,-1.00,-1.0,2369
2589,1527589,17040,-688,920,17078.68,30.55,-1.00,-1.0,2370
2592,1527592,17060,-588,792,17088.49,30.55,-1.00,-1.0,2429
2594,1527594,17048,-564,804,17076.27,30.55,-1.00,-1.0,2370
2597,1527597,17096,-492,1020,17133.47,30.55,-1.00,-1.0,2438
2600,1527600,17048,-644,916,17084.73,30.55,-1.00,-1.0,2376
2605,1527605,17024,-664,840,17057.64,30.55,-1.00,-1.0,2448
2608,1527608,16996,-676,688,17023.35,30.65,-1.00,-1.0,2368
2610,1527610,17076,-640,876,17110.43,30.55,-1.00,-1.0,2438
2613,1527613,17140,-616,880,17173.63,30.55,-1.00,-1.0,2377
2616,1527616,17020,-548,776,17046.49,30.65,-1.00,-1.0,2424
2619,1527619,17152,-640,892,17187.10,30.55,-1.00,-1.0,2370
2621,1527621,17040,-604,780,17068.53,30.74,-1.00,-1.0,2429
2624,1527624,17164,-580,704,17188.22,30.65,-1.00,-1.0,2377
2627,1527627,16948,-632,896,16983.43,30.60,-1.00,-1.0,2367
2632,1527632,16992,-572,964,17028.93,30.55,-1.00,-1.0,2443
2635,1527635,17056,-584,768,17083.27,30.65,-1.00,-1.0,2370
2637,1527637,16948,-652,820,16980.35,30.60,-1.00,-1.0,2429
2640,1527640,16988,-628,912,17024.05,30.55,-1.00,-1.0,2377
2643,1527643,16988,-648,832,17020.70,30.60,-1.00,-1.0,2425
2646,1527646,17008,-572,936,17043.34,30.60,-1.00,-1.0,2367
2648,1527648,17068,-592,888,17101.33,30.60,-1.00,-1.0,2409
2651,1527651,17112,-544,968,17147.99,30.60,-1.00,-1.0,2377
2656,1527656,16980,-656,964,17019.99,30.55,-1.00,-1.0,2455
2659,1527659,17048,-552,700,17071.29,30.55,-1.00,-1.0,2376
2661,1527661,17112,-584,996,17150.91,30.60,-1.00,-1.0,2366
2664,1527664,16944,-664,1000,16986.47,30.55,-1.00,-1.0,2421
2667,1527667,17120,-576,780,17147.44,30.51,-1.00,-1.0,2370
2670,1527670,17052,-664,924,17089.92,30.46,-1.00,-1.0,2421
2673,1527673,17080,-548,980,17116.87,30.60,-1.00,-1.0,2369
2675,1527675,17012,-620,828,17043.42,30.65,-1.00,-1.0,2421
2678,1527678,17004,-684,880,17040.49,30.60,-1.00,-1.0,2370
2683,1527683,17028,-552,912,17061.34,30.60,-1.00,-1.0,2443
2686,1527686,17040,-548,908,17072.97,30.60,-1.00,-1.0,2377
2689,1527689,17044,-564,1020,17083.81,30.60,-1.00,-1.0,2424
2691,1527691,16980,-636,864,17013.86,30.69,-1.00,-1.0,2372
2694,1527694,17060,-592,880,17092.94,30.51,-1.00,-1.0,2421
2697,1527697,16976,-552,908,17009.22,30.60,-1.00,-1.0,2369
2700,1527700,16988,-568,852,17018.83,30.69,-1.00,-1.0,2421
2702,1527702,17064,-536,932,17097.84,30.60,-1.00,-1.0,2372
2705,1527705,17016,-652,908,17052.68,30.55,-1.00,-1.0,2374
2710,1527710,17100,-700,904,17138.18,30.55,-1.00,-1.0,2440
2713,1527713,17080,-552,992,17117.69,30.55,-1.00,-1.0,2368
2715,1527715,17124,-580,920,17158.50,30.65,-1.00,-1.0,2422
2718,1527718,17016,-592,812,17045.65,30.55,-1.00,-1.0,2369
2721,1527721,17088,-620,876,17121.67,30.55,-1.00,-1.0,2429
2724,1527724,17020,-636,956,17058.69,30.55,-1.00,-1.0,2368
2726,1527726,17080,-680,780,17111.32,30.55,-1.00,-1.0,2422
2729,1527729,17088,-600,868,17120.55,30.55,-1.00,-1.0,2373
2734,1527734,17112,-668,928,17150.16,30.55,-1.00,-1.0,2443
2737,1527737,16960,-648,856,16993.95,30.65,-1.00,-1.0,2368
2739,1527739,16948,-500,920,16980.31,30.60,-1.00,-1.0,2381
2742,1527742,17028,-656,832,17060.93,30.65,-1.00,-1.0,2422
2745,1527745,17160,-568,904,17193.18,30.60,-1.00,-1.0,2374
2747,1527747,17008,-652,936,17046.21,30.55,-1.00,-1.0,2409
2750,1527750,16984,-516,892,17015.23,30.60,-1.00,-1.0,2377
2753,1527753,17060,-648,1044,17104.19,30.65,-1.00,-1.0,2424
2756,1527756,17056,-608,812,17086.14,30.60,-1.00,-1.0,2365
2760,1527760,17068,-580,896,17101.34,30.60,-1.00,-1.0,2444
2763,1527763,17028,-624,756,17056.19,30.51,-1.00,-1.0,2368
2766,1527766,17016,-520,868,17046.06,30.60,-1.00,-1.0,2430
2769,1527769,16896,-556,840,16926.00,30.60,-1.00,-1.0,2368
2771,1527771,17028,-592,852,17059.58,30.69,-1.00,-1.0,2432
2774,1527774,17060,-620,880,17093.93,30.51,-1.00,-1.0,2376
2777,1527777,17068,-624,904,17103.31,30.65,-1.00,-1.0,2367
2780,1527780,17052,-544,820,17080.37,30.55,-1.00,-1.0,2422
2783,1527783,17056,-592,840,17086.93,30.65,-1.00,-1.0,2367
2788,1527788,17076,-668,948,17115.34,30.55,-1.00,-1.0,2444
2790,1527790,16972,-640,936,17009.83,30.60,-1.00,-1.0,2375
2793,1527793,16980,-596,756,17007.27,30.55,-1.00,-1.0,2422
2796,1527796,17072,-552,964,17108.10,30.65,-1.00,-1.0,2370
2799,1527799,16956,-552,864,16986.97,30.55,-1.00,-1.0,2422
2801,1527801,17092,-504,932,17124.81,30.55,-1.00,-1.0,2370
2804,1527804,17112,-604,896,17146.08,30.65,-1.00,-1.0,2421
2807,1527807,17096,-648,744,17124.45,30.55,-1.00,-1.0,2372
2812,1527812,17008,-596,844,17039.36,30.55,-1.00,-1.0,2443
2815,1527815,16984,-676,928,17022.76,30.60,-1.00,-1.0,2376
2817,1527817,17028,-632,876,17062.23,30.65,-1.00,-1.0,2365
2820,1527820,17072,-564,792,17099.66,30.60,-1.00,-1.0,2421
2823,1527823,16956,-716,836,16991.69,30.55,-1.00,-1.0,2367
2826,1527826,16952,-636,808,16983.16,30.51,-1.00,-1.0,2421
2828,1527828,17128,-580,772,17155.20,30.55,-1.00,-1.0,2369
2831,1527831,17084,-684,804,17116.58,30.60,-1.00,-1.0,2422
2834,1527834,17080,-704,864,17116.32,30.55,-1.00,-1.0,2368
2839,1527839,17020,-668,1016,17063.38,30.55,-1.00,-1.0,2439
2842,1527842,16968,-680,976,17009.64,30.55,-1.00,-1.0,2370
2844,1527844,17100,-632,964,17138.81,30.51,-1.00,-1.0,2425
2847,1527847,17016,-608,932,17052.35,30.65,-1.00,-1.0,2356
2850,1527850,17056,-604,872,17088.95,30.55,-1.00,-1.0,2421
2853,1527853,17032,-640,828,17064.12,30.55,-1.00,-1.0,2370
2855,1527855,17104,-672,932,17142.55,30.51,-1.00,-1.0,2365
2858,1527858,17056,-600,964,17093.75,30.65,-1.00,-1.0,2428
2861,1527861,17020,-568,844,17050.38,30.60,-1.00,-1.0,2375
2866,1527866,17000,-608,900,17034.66,30.51,-1.00,-1.0,2447
2869,1527869,17124,-620,792,17153.51,30.51,-1.00,-1.0,2367
2871,1527871,17044,-680,800,17076.31,30.60,-1.00,-1.0,2424
2874,1527874,17112,-572,952,17148.00,30.60,-1.00,-1.0,2369
2877,1527877,17092,-520,796,17118.43,30.60,-1.00,-1.0,2429
2880,1527880,17092,-648,868,17126.29,30.51,-1.00,-1.0,2367
2882,1527882,16980,-568,892,17012.90,30.60,-1.00,-1.0,2422
2885,1527885,17100,-560,964,17136.30,30.41,-1.00,-1.0,2372
2890,1527890,16996,-556,828,17025.24,30.60,-1.00,-1.0,2440
2893,1527893,17068,-612,772,17096.41,30.55,-1.00,-1.0,2368
2895,1527895,17088,-532,952,17122.77,30.69,-1.00,-1.0,2366
2898,1527898,17152,-488,888,17181.90,30.55,-1.00,-1.0,2436
2901,1527901,17064,-600,924,17099.53,30.55,-1.00,-1.0,2377
2904,1527904,16980,-644,904,17016.24,30.55,-1.00,-1.0,2434
2906,1527906,17020,-596,912,17054.83,30.55,-1.00,-1.0,2379
2909,1527909,17072,-624,752,17099.94,30.55,-1.00,-1.0,2428
2912,1527912,16924,-520,844,16953.01,30.55,-1.00,-1.0,2372
2917,1527917,17036,-652,872,17070.76,30.55,-1.00,-1.0,2446
2920,1527920,17028,-708,884,17065.62,30.65,-1.00,-1.0,2368
2922,1527922,17028,-652,948,17066.83,30.65,-1.00,-1.0,2431
2925,1527925,17084,-632,812,17114.96,30.55,-1.00,-1.0,2375
2928,1527928,17072,-596,916,17106.94,30.55,-1.00,-1.0,2424
2931,1527931,17036,-676,764,17066.52,30.65,-1.00,-1.0,2370
2933,1527933,16964,-520,896,16995.60,30.60,-1.00,-1.0,2367
2936,1527936,17072,-556,904,17104.96,30.60,-1.00,-1.0,2421
2939,1527939,17088,-728,920,17128.23,30.55,-1.00,-1.0,2371
2944,1527944,16992,-576,896,17025.35,30.55,-1.00,-1.0,2443
2946,1527946,17132,-508,812,17158.75,30.69,-1.00,-1.0,2376
2949,1527949,16932,-564,808,16960.65,30.69,-1.00,-1.0,2422
2952,1527952,17048,-544,928,17081.90,30.60,-1.00,-1.0,2370
2955,1527955,16984,-648,860,17018.10,30.60,-1.00,-1.0,2422
2957,1527957,17088,-708,852,17123.87,30.51,-1.00,-1.0,2371
2960,1527960,17084,-616,800,17113.81,30.51,-1.00,-1.0,2421
2963,1527963,17040,-596,920,17075.22,30.60,-1.00,-1.0,2372
2968,1527968,16980,-584,928,17015.37,30.65,-1.00,-1.0,2439
2970,1527970,17132,-504,808,17158.45,30.65,-1.00,-1.0,2371
2973,1527973,17096,-568,824,17125.27,30.60,-1.00,-1.0,2367
2976,1527976,17088,-556,744,17113.22,30.60,-1.00,-1.0,2421
2978,1527978,17096,-620,892,17130.48,30.60,-1.00,-1.0,2355
2981,1527981,17012,-644,880,17046.91,30.60,-1.00,-1.0,2422
2984,1527984,17076,-636,960,17114.79,30.60,-1.00,-1.0,2371
2987,1527987,17092,-636,980,17131.88,30.51,-1.00,-1.0,2422
2990,1527990,17052,-568,792,17079.83,30.51,-1.00,-1.0,2364
2995,1527995,17056,-592,876,17088.74,30.51,-1.00,-1.0,2447
2998,1527998,17092,-616,792,17121.42,30.55,-1.00,-1.0,2374
3000,1528000,17128,-564,764,17154.30,30.60,-1.00,-1.0,2424
3003,1528003,17072,-484,832,17099.11,30.60,-1.00,-1.0,2384
3006,1528006,17068,-568,776,17095.07,30.60,-1.00,-1.0,2425
3009,1528009,17024,-680,932,17063.05,30.55,-1.00,-1.0,2372
3011,1528011,17024,-568,984,17061.87,30.55,-1.00,-1.0,2354
3014,1528014,17072,-472,988,17107.08,30.55,-1.00,-1.0,2422
3017,1528017,17052,-600,892,17085.85,30.60,-1.00,-1.0,2369
3022,1528022,17108,-652,860,17142.01,30.51,-1.00,-1.0,2442
3025,1528025,17036,-680,904,17073.52,30.60,-1.00,-1.0,2369
3028,1528028,17028,-580,1008,17067.67,30.55,-1.00,-1.0,2425
3030,1528030,17084,-644,852,17117.35,30.51,-1.00,-1.0,2356
3033,1528033,17128,-556,956,17163.67,30.60,-1.00,-1.0,2422
3036,1528036,17084,-600,900,17118.21,30.60,-1.00,-1.0,2367
3038,1528038,17068,-604,932,17104.10,30.60,-1.00,-1.0,2409
3041,1528041,17008,-600,956,17045.41,30.69,-1.00,-1.0,2380
3046,1528046,16912,-612,768,16940.49,30.60,-1.00,-1.0,2442
3049,1528049,16940,-600,804,16969.68,30.55,-1.00,-1.0,2368
3052,1528052,16996,-664,904,17032.97,30.60,-1.00,-1.0,2368
3055,1528055,17096,-564,852,17126.51,30.55,-1.00,-1.0,2422
3057,1528057,17048,-616,932,17084.57,30.51,-1.00,-1.0,2371
3060,1528060,16976,-520,868,17006.13,30.65,-1.00,-1.0,2421
3063,1528063,17000,-664,816,17032.52,30.51,-1.00,-1.0,2369
3066,1528066,17044,-660,1000,17086.06,30.46,-1.00,-1.0,2420
3068,1528068,17044,-584,936,17079.67,30.60,-1.00,-1.0,2372
3073,1528073,17008,-560,920,17042.07,30.60,-1.00,-1.0,2448
3076,1528076,16980,-600,1048,17022.89,30.60,-1.00,-1.0,2375
3079,1528079,17020,-684,772,17051.22,30.55,-1.00,-1.0,2432
3081,1528081,16980,-712,1004,17024.55,30.51,-1.00,-1.0,2375
3084,1528084,16988,-600,768,17015.93,30.65,-1.00,-1.0,2422
3087,1528087,17080,-580,832,17110.09,30.51,-1.00,-1.0,2369
3090,1528090,17036,-612,812,17066.32,30.65,-1.00,-1.0,2366
3092,1528092,16980,-608,860,17012.63,30.60,-1.00,-1.0,2423
3095,1528095,16984,-576,820,17013.54,30.55,-1.00,-1.0,2369
3100,1528100,17112,-576,900,17145.33,30.55,-1.00,-1.0,2439
3103,1528103,17200,-520,896,17231.17,30.55,-1.00,-1.0,2368
3106,1528106,17052,-624,896,17086.92,30.55,-1.00,-1.0,2422
3108,1528108,17004,-528,876,17034.73,30.55,-1.00,-1.0,2369
3111,1528111,17056,-580,920,17090.64,30.55,-1.00,-1.0,2423
3114,1528114,16948,-652,784,16978.65,30.55,-1.00,-1.0,2368
3117,1528117,16916,-604,1012,16957.01,30.65,-1.00,-1.0,2421
3119,1528119,17060,-564,912,17093.67,30.65,-1.00,-1.0,2369
3124,1528124,17028,-380,884,17055.16,30.55,-1.00,-1.0,2446
3127,1528127,17092,-600,948,17128.78,30.65,-1.00,-1.0,2355
3130,1528130,16984,-688,976,17025.93,30.55,-1.00,-1.0,2365
3132,1528132,17092,-544,988,17129.17,30.51,-1.00,-1.0,2422
3135,1528135,16980,-644,904,17016.24,30.60,-1.00,-1.0,2370
3138,1528138,17104,-508,832,17131.76,30.60,-1.00,-1.0,2424
3141,1528141,17152,-612,908,17186.92,30.55,-1.00,-1.0,2368
3143,1528143,17052,-592,792,17080.64,30.51,-1.00,-1.0,2423
3146,1528146,16984,-652,1000,17025.90,30.60,-1.00,-1.0,2369
3151,1528151,17044,-564,1040,17085.01,30.55,-1.00,-1.0,2446
3154,1528154,17052,-664,860,17086.58,30.60,-1.00,-1.0,2373
3156,1528156,17068,-640,916,17104.54,30.55,-1.00,-1.0,2429
3159,1528159,17080,-504,848,17108.46,30.65,-1.00,-1.0,2385
3162,1528162,17068,-644,932,17105.55,30.65,-1.00,-1.0,2424
3165,1528165,17036,-548,952,17071.38,30.65,-1.00,-1.0,2371
3167,1528167,17008,-600,928,17043.86,30.51,-1.00,-1.0,2353
3170,1528170,16992,-640,592,17014.35,30.65,-1.00,-1.0,2431
3173,1528173,17084,-604,764,17111.74,30.65,-1.00,-1.0,2376
3178,1528178,17056,-592,844,17087.13,30.69,-1.00,-1.0,2446
3181,1528181,16996,-568,1004,17035.10,30.65,-1.00,-1.0,2368
3183,1528183,16984,-556,756,17009.91,30.69,-1.00,-1.0,2425
3186,1528186,17116,-556,872,17147.21,30.60,-1.00,-1.0,2369
3189,1528189,17012,-680,868,17047.70,30.51,-1.00,-1.0,2429
3192,1528192,17048,-644,820,17079.86,30.55,-1.00,-1.0,2372
3194,1528194,17080,-648,804,17111.19,30.60,-1.00,-1.0,2422
3197,1528197,17124,-552,728,17148.36,30.55,-1.00,-1.0,2384
3202,1528202,17104,-608,864,17136.60,30.65,-1.00,-1.0,2439
3205,1528205,17096,-680,920,17134.23,30.65,-1.00,-1.0,2368
3207,1528207,17052,-580,780,17079.68,30.65,-1.00,-1.0,2373
3210,1528210,17008,-624,888,17042.59,30.60,-1.00,-1.0,2421
3213,1528213,17004,-580,740,17029.97,30.55,-1.00,-1.0,2369
3216,1528216,17016,-592,888,17049.44,30.60,-1.00,-1.0,2422
3218,1528218,17068,-536,780,17094.22,30.55,-1.00,-1.0,2355
3221,1528221,17112,-720,876,17149.53,30.60,-1.00,-1.0,2422
3224,1528224,17100,-600,828,17130.54,30.65,-1.00,-1.0,2372
3229,1528229,17016,-612,948,17053.37,30.46,-1.00,-1.0,2455
3232,1528232,17072,-612,900,17106.66,30.55,-1.00,-1.0,2376
3235,1528235,17020,-620,764,17048.42,30.46,-1.00,-1.0,2434
3237,1528237,17108,-524,908,17140.09,30.46,-1.00,-1.0,2376
3240,1528240,17096,-684,852,17130.88,30.60,-1.00,-1.0,2421
3243,1528243,17140,-580,940,17175.55,30.55,-1.00,-1.0,2356
3246,1528246,16992,-584,828,17022.18,30.60,-1.00,-1.0,2367
3248,1528248,17076,-580,912,17110.17,30.60,-1.00,-1.0,2421
3251,1528251,17052,-592,788,17080.46,30.51,-1.00,-1.0,2372
3256,1528256,17164,-600,984,17202.65,30.65,-1.00,-1.0,2453
3259,1528259,17036,-652,792,17066.86,30.55,-1.00,-1.0,2371
3262,1528262,17044,-656,888,17079.72,30.60,-1.00,-1.0,2429
3264,1528264,17028,-556,772,17054.56,30.55,-1.00,-1.0,2376
3267,1528267,17036,-496,700,17057.59,30.60,-1.00,-1.0,2422
3270,1528270,17180,-588,904,17213.81,30.60,-1.00,-1.0,2369
3273,1528273,17092,-648,844,17125.09,30.51,-1.00,-1.0,2420
3275,1528275,17032,-588,864,17064.04,30.55,-1.00,-1.0,2376
3280,1528280,17156,-644,828,17188.04,30.46,-1.00,-1.0,2449
3283,1528283,17108,-624,832,17139.58,30.65,-1.00,-1.0,2381
3286,1528286,17008,-632,840,17040.46,30.60,-1.00,-1.0,2367
3289,1528289,17092,-616,948,17129.35,30.55,-1.00,-1.0,2422
3291,1528291,17004,-668,940,17043.06,30.60,-1.00,-1.0,2356
3294,1528294,17028,-564,840,17058.03,30.65,-1.00,-1.0,2422
3297,1528297,17032,-616,972,17070.83,30.69,-1.00,-1.0,2368
3300,1528300,17088,-564,896,17120.77,30.65,-1.00,-1.0,2421
3302,1528302,17080,-612,776,17108.57,30.51,-1.00,-1.0,2368
3307,1528307,17028,-612,880,17061.70,30.60,-1.00,-1.0,2440
3310,1528310,16936,-632,888,16971.04,30.51,-1.00,-1.0,2367
3313,1528313,16960,-592,780,16988.24,30.55,-1.00,-1.0,2422
3316,1528316,17116,-584,844,17146.74,30.60,-1.00,-1.0,2369
3318,1528318,17012,-580,884,17044.82,30.46,-1.00,-1.0,2421
3321,1528321,17024,-668,972,17064.80,30.51,-1.00,-1.0,2369
3324,1528324,17056,-668,748,17085.46,30.65,-1.00,-1.0,2367
3326,1528326,16996,-704,816,17030.13,30.55,-1.00,-1.0,2434
3329,1528329,17004,-668,840,17037.84,30.55,-1.00,-1.0,2356
3334,1528334,16936,-600,896,16970.29,30.55,-1.00,-1.0,2440
3337,1528337,16988,-492,808,17014.32,30.60,-1.00,-1.0,2368
3340,1528340,17024,-588,884,17057.07,30.55,-1.00,-1.0,2421
3343,1528343,17048,-600,1044,17090.47,30.51,-1.00,-1.0,2369
3345,1528345,17048,-604,888,17081.79,30.65,-1.00,-1.0,2421
3348,1528348,17000,-564,780,17027.23,30.60,-1.00,-1.0,2369
3351,1528351,17032,-556,1024,17071.81,30.55,-1.00,-1.0,2430
3354,1528354,16988,-672,928,17026.59,30.65,-1.00,-1.0,2368
3359,1528359,17056,-688,728,17085.39,30.55,-1.00,-1.0,2449
3362,1528362,17016,-540,724,17039.95,30.55,-1.00,-1.0,2377
3364,1528364,17016,-628,900,17051.35,30.60,-1.00,-1.0,2374
3367,1528367,17068,-628,812,17098.84,30.55,-1.00,-1.0,2422
3370,1528370,16976,-556,988,17013.81,30.60,-1.00,-1.0,2357
3373,1528373,17012,-512,908,17043.91,30.55,-1.00,-1.0,2422
3375,1528375,17132,-664,876,17167.23,30.60,-1.00,-1.0,2376
3378,1528378,17052,-620,880,17085.95,30.65,-1.00,-1.0,2422
3381,1528381,17056,-500,1000,17092.61,30.60,-1.00,-1.0,2372
3386,1528386,17132,-536,956,17167.02,30.51,-1.00,-1.0,2446
3388,1528388,17048,-632,928,17084.93,30.60,-1.00,-1.0,2374
3391,1528391,17072,-644,808,17103.24,30.55,-1.00,-1.0,2432
3394,1528394,16988,-632,908,17023.98,30.60,-1.00,-1.0,2372
3397,1528397,17068,-612,904,17102.88,30.55,-1.00,-1.0,2432
3399,1528399,17056,-576,944,17091.81,30.60,-1.00,-1.0,2377
3402,1528402,16940,-592,768,16967.73,30.55,-1.00,-1.0,2366
3405,1528405,17052,-660,852,17086.02,30.69,-1.00,-1.0,2425
3408,1528408,17076,-576,912,17110.04,30.65,-1.00,-1.0,2368
3413,1528413,16984,-600,868,17016.75,30.65,-1.00,-1.0,2439
3415,1528415,16976,-624,728,17003.06,30.55,-1.00,-1.0,2368
3418,1528418,16964,-568,876,16996.10,30.65,-1.00,-1.0,2421
3421,1528421,16984,-520,804,17010.97,30.65,-1.00,-1.0,2372
3424,1528424,17116,-644,832,17148.31,30.60,-1.00,-1.0,2422
3426,1528426,17008,-636,768,17037.21,30.65,-1.00,-1.0,2369
3429,1528429,17080,-604,976,17118.52,30.51,-1.00,-1.0,2421
3432,1528432,17064,-644,904,17100.06,30.55,-1.00,-1.0,2369
3437,1528437,17080,-592,1072,17123.84,30.55,-1.00,-1.0,2439
3439,1528439,17036,-600,828,17066.66,30.55,-1.00,-1.0,2371
3442,1528442,17156,-656,880,17191.08,30.60,-1.00,-1.0,2366
3445,1528445,17080,-688,920,17118.59,30.60,-1.00,-1.0,2429
3448,1528448,16996,-516,864,17025.77,30.60,-1.00,-1.0,2368
3450,1528450,17060,-656,928,17097.81,30.60,-1.00,-1.0,2433
3453,1528453,16980,-616,940,17017.15,30.60,-1.00,-1.0,2370
3456,1528456,17052,-616,780,17080.94,30.65,-1.00,-1.0,2429
3459,1528459,17040,-496,780,17065.05,30.60,-1.00,-1.0,2370
3464,1528464,17000,-552,920,17033.82,30.60,-1.00,-1.0,2440
3466,1528466,17112,-548,784,17138.71,30.55,-1.00,-1.0,2368
3469,1528469,17068,-608,1004,17108.31,30.60,-1.00,-1.0,2421
3472,1528472,16916,-632,888,16951.08,30.60,-1.00,-1.0,2378
3475,1528475,17048,-600,876,17081.03,30.69,-1.00,-1.0,2421
3477,1528477,17016,-692,832,17050.38,30.60,-1.00,-1.0,2371
3480,1528480,16988,-600,768,17015.93,30.55,-1.00,-1.0,2367
3483,1528483,16996,-632,732,17023.49,30.55,-1.00,-1.0,2421
3485,1528485,17028,-620,924,17064.32,30.55,-1.00,-1.0,2375
3491,1528491,17072,-544,896,17104.15,30.55,-1.00,-1.0,2440
3493,1528493,17044,-572,744,17069.82,30.60,-1.00,-1.0,2371
3496,1528496,17144,-648,728,17171.68,30.65,-1.00,-1.0,2431
3499,1528499,17032,-600,872,17064.86,30.55,-1.00,-1.0,2376
3502,1528502,17040,-660,808,17071.91,30.55,-1.00,-1.0,2434
3504,1528504,17056,-496,908,17087.35,30.65,-1.00,-1.0,2379
3507,1528507,17068,-644,872,17102.39,30.55,-1.00,-1.0,2428
3510,1528510,17204,-532,896,17235.53,30.55,-1.00,-1.0,2372
3515,1528515,17060,-620,772,17088.71,30.65,-1.00,-1.0,2446
3518,1528518,16964,-544,864,16994.70,30.60,-1.00,-1.0,2368
3520,1528520,17068,-592,844,17099.11,30.55,-1.00,-1.0,2357
3523,1528523,17040,-492,936,17072.78,30.60,-1.00,-1.0,2421
3526,1528526,16972,-636,780,17001.81,30.55,-1.00,-1.0,2371
3529,1528529,16976,-632,860,17009.52,30.60,-1.00,-1.0,2422
3531,1528531,16972,-640,832,17004.43,30.55,-1.00,-1.0,2370
3534,1528534,17088,-600,892,17121.78,30.60,-1.00,-1.0,2421
3537,1528537,16916,-656,740,16944.88,30.55,-1.00,-1.0,2368
3542,1528542,17100,-612,776,17128.54,30.55,-1.00,-1.0,2444
3544,1528544,17032,-496,872,17061.52,30.65,-1.00,-1.0,2379
3547,1528547,16960,-584,800,16988.90,30.55,-1.00,-1.0,2421
3550,1528550,17088,-656,964,17127.74,30.65,-1.00,-1.0,2375
3553,1528553,17028,-704,924,17067.58,30.60,-1.00,-1.0,2422
3555,1528555,17108,-660,972,17148.29,30.55,-1.00,-1.0,2375
3558,1528558,17052,-552,812,17080.24,30.60,-1.00,-1.0,2366
3561,1528561,17100,-652,972,17140.01,30.55,-1.00,-1.0,2432
3564,1528564,17128,-572,732,17153.17,30.51,-1.00,-1.0,2354
3568,1528568,17068,-672,1008,17110.94,30.55,-1.00,-1.0,2441
3571,1528571,17072,-588,888,17105.19,30.55,-1.00,-1.0,2368
3574,1528574,17016,-588,840,17046.87,30.55,-1.00,-1.0,2429
3577,1528577,17020,-596,800,17049.21,30.55,-1.00,-1.0,2367
3579,1528579,17036,-668,872,17071.38,30.65,-1.00,-1.0,2437
3582,1528582,16968,-612,948,17005.48,30.55,-1.00,-1.0,2369
3585,1528585,16984,-616,920,17020.05,30.65,-1.00,-1.0,2429
3588,1528588,16940,-588,808,16969.45,30.65,-1.00,-1.0,2369
3592,1528592,17080,-620,708,17105.91,30.60,-1.00,-1.0,2426
3595,1528595,17064,-560,808,17092.29,30.51,-1.00,-1.0,2370
3598,1528598,17032,-612,828,17063.09,30.65,-1.00,-1.0,2365
3600,1528600,17032,-620,948,17069.62,30.65,-1.00,-1.0,2435
3603,1528603,17032,-668,884,17068.00,30.60,-1.00,-1.0,2426
3606,1528606,17080,-664,960,17119.84,30.55,-1.00,-1.0,2418
3609,1528609,17140,-628,864,17173.25,30.55,-1.00,-1.0,2383
3612,1528612,17104,-616,804,17133.96,30.55,-1.00,-1.0,2417
3615,1528615,17008,-600,756,17035.36,30.55,-1.00,-1.0,2374
3620,1528620,17084,-644,864,17117.95,30.65,-1.00,-1.0,2440
3622,1528622,17140,-668,764,17170.02,30.60,-1.00,-1.0,2368
3625,1528625,17072,-464,836,17098.75,30.65,-1.00,-1.0,2424
3628,1528628,17124,-604,864,17156.42,30.65,-1.00,-1.0,2367
3631,1528631,17056,-556,800,17083.80,30.65,-1.00,-1.0,2422
3633,1528633,17060,-512,852,17088.93,30.65,-1.00,-1.0,2369
3636,1528636,17064,-604,808,17093.79,30.60,-1.00,-1.0,2374
3639,1528639,17064,-676,912,17101.72,30.60,-1.00,-1.0,2437
3642,1528642,17028,-612,844,17059.88,30.46,-1.00,-1.0,2367
3647,1528647,16956,-604,932,16992.33,30.65,-1.00,-1.0,2439
3649,1528649,17056,-668,1004,17098.58,30.55,-1.00,-1.0,2365
3652,1528652,17068,-536,984,17104.74,30.65,-1.00,-1.0,2423
3655,1528655,17068,-568,972,17105.09,30.55,-1.00,-1.0,2368
3658,1528658,17068,-508,888,17098.63,30.65,-1.00,-1.0,2421
3660,1528660,16996,-600,784,17024.65,30.55,-1.00,-1.0,2369
3663,1528663,17036,-608,876,17069.34,30.55,-1.00,-1.0,2422
3666,1528666,16992,-604,840,17023.47,30.55,-1.00,-1.0,2369
3671,1528671,17024,-632,996,17064.82,30.55,-1.00,-1.0,2444
3674,1528674,17112,-548,928,17145.90,30.55,-1.00,-1.0,2368
3676,1528676,17056,-588,1032,17097.31,30.55,-1.00,-1.0,2366
3679,1528679,17180,-596,924,17215.15,30.51,-1.00,-1.0,2432
3682,1528682,16972,-588,876,17004.76,30.60,-1.00,-1.0,2368
3684,1528684,17076,-492,864,17104.92,30.41,-1.00,-1.0,2431
3687,1528687,16980,-708,896,17018.36,30.55,-1.00,-1.0,2376
3690,1528690,16964,-600,828,16994.79,30.51,-1.00,-1.0,2424
3693,1528693,16956,-528,860,16986.00,30.60,-1.00,-1.0,2372
3698,1528698,17028,-704,740,17058.61,30.60,-1.00,-1.0,2440
3700,1528700,17084,-652,976,17124.27,30.69,-1.00,-1.0,2370
3703,1528703,17044,-580,808,17073.00,30.60,-1.00,-1.0,2439
3706,1528706,17056,-616,772,17084.57,30.60,-1.00,-1.0,2380
3709,1528709,17056,-640,744,17084.21,30.74,-1.00,-1.0,2436
3711,1528711,17096,-640,804,17126.86,30.51,-1.00,-1.0,2378
3714,1528714,17084,-588,852,17115.34,30.65,-1.00,-1.0,2366
3717,1528717,17008,-588,852,17039.47,30.55,-1.00,-1.0,2429
3720,1528720,16972,-632,936,17009.54,30.51,-1.00,-1.0,2374
3725,1528725,16968,-520,900,16999.81,30.51,-1.00,-1.0,2447
3727,1528727,17016,-584,816,17045.56,30.60,-1.00,-1.0,2373
3730,1528730,17060,-608,832,17091.09,30.55,-1.00,-1.0,2431
3733,1528733,17080,-572,800,17108.29,30.60,-1.00,-1.0,2372
3736,1528736,16944,-596,964,16981.86,30.65,-1.00,-1.0,2429
3738,1528738,17064,-636,832,17096.11,30.51,-1.00,-1.0,2375
3741,1528741,17044,-652,868,17078.54,30.65,-1.00,-1.0,2421
3744,1528744,17064,-652,896,17099.94,30.55,-1.00,-1.0,2370
3749,1528749,17032,-568,900,17065.22,30.60,-1.00,-1.0,2447
3752,1528752,17032,-636,980,17072.02,30.69,-1.00,-1.0,2372
3754,1528754,17088,-544,860,17118.27,30.65,-1.00,-1.0,2366
3757,1528757,16992,-628,880,17026.36,30.65,-1.00,-1.0,2423
3760,1528760,17052,-620,832,17083.54,30.65,-1.00,-1.0,2367
3763,1528763,17096,-624,800,17126.08,30.69,-1.00,-1.0,2421
3765,1528765,17056,-604,916,17091.26,30.65,-1.00,-1.0,2369
3768,1528768,16996,-580,960,17032.97,30.55,-1.00,-1.0,2421
3771,1528771,17036,-640,780,17065.85,30.55,-1.00,-1.0,2371
3776,1528776,17116,-484,824,17142.66,30.60,-1.00,-1.0,2440
3778,1528778,17104,-620,844,17136.03,30.51,-1.00,-1.0,2370
3781,1528781,17000,-592,768,17027.63,30.51,-1.00,-1.0,2422
3784,1528784,17004,-692,920,17042.92,30.51,-1.00,-1.0,2376
3787,1528787,17124,-656,884,17159.35,30.60,-1.00,-1.0,2422
3789,1528789,17148,-592,876,17180.56,30.51,-1.00,-1.0,2369
3792,1528792,17040,-572,816,17069.11,30.55,-1.00,-1.0,2370
3795,1528795,17076,-616,788,17105.27,30.60,-1.00,-1.0,2428
3798,1528798,17064,-552,816,17092.42,30.55,-1.00,-1.0,2368
3802,1528802,17096,-620,876,17129.65,30.55,-1.00,-1.0,2449
3805,1528805,17088,-548,996,17125.77,30.55,-1.00,-1.0,2383
3808,1528808,17088,-636,928,17124.99,30.46,-1.00,-1.0,2426
3811,1528811,17100,-540,908,17132.60,30.55,-1.00,-1.0,2372
3814,1528814,17072,-612,768,17100.22,30.65,-1.00,-1.0,2424
3816,1528816,17044,-624,824,17075.31,30.65,-1.00,-1.0,2371
3819,1528819,17080,-516,732,17103.46,30.65,-1.00,-1.0,2421
3822,1528822,17020,-524,820,17047.80,30.60,-1.00,-1.0,2368
3825,1528825,17024,-556,836,17053.58,30.60,-1.00,-1.0,2371
3830,1528830,16980,-616,816,17010.75,30.60,-1.00,-1.0,2440
3833,1528833,17056,-568,824,17085.34,30.51,-1.00,-1.0,2368
3835,1528835,17068,-624,904,17103.31,30.51,-1.00,-1.0,2423
3838,1528838,17120,-596,908,17154.42,30.55,-1.00,-1.0,2369
3841,1528841,16988,-592,884,17021.28,30.69,-1.00,-1.0,2429
3844,1528844,17008,-628,820,17039.33,30.60,-1.00,-1.0,2369
3846,1528846,17060,-632,808,17090.81,30.69,-1.00,-1.0,2422
3849,1528849,16888,-552,872,16919.50,30.51,-1.00,-1.0,2372
3854,1528854,17032,-556,944,17067.20,30.55,-1.00,-1.0,2440
3857,1528857,17060,-632,980,17099.81,30.51,-1.00,-1.0,2371
3860,1528860,17044,-700,788,17076.56,30.60,-1.00,-1.0,2423
3862,1528862,17008,-644,848,17041.30,30.60,-1.00,-1.0,2369
3865,1528865,16984,-608,824,17014.84,30.55,-1.00,-1.0,2377
3868,1528868,17024,-596,764,17051.55,30.46,-1.00,-1.0,2436
3870,1528870,16972,-564,860,17003.13,30.55,-1.00,-1.0,2374
3873,1528873,17028,-644,1016,17070.44,30.55,-1.00,-1.0,2415
3876,1528876,17024,-612,952,17061.58,30.65,-1.00,-1.0,2376
3881,1528881,17088,-616,872,17121.32,30.55,-1.00,-1.0,2447
3884,1528884,16984,-536,772,17009.98,30.65,-1.00,-1.0,2367
3886,1528886,17016,-548,844,17045.73,30.65,-1.00,-1.0,2432
3889,1528889,17088,-636,920,17124.56,30.46,-1.00,-1.0,2376
3892,1528892,17024,-484,808,17050.04,30.55,-1.00,-1.0,2424
3895,1528895,17028,-588,892,17061.48,30.65,-1.00,-1.0,2371
3897,1528897,17056,-680,860,17091.20,30.60,-1.00,-1.0,2430
3900,1528900,16932,-628,812,16963.09,30.55,-1.00,-1.0,2376
3903,1528903,16992,-592,864,17024.25,30.65,-1.00,-1.0,2377
3908,1528908,16996,-552,928,17030.26,30.60,-1.00,-1.0,2440
3911,1528911,17024,-632,848,17056.82,30.51,-1.00,-1.0,2367
3914,1528914,17048,-640,824,17079.90,30.55,-1.00,-1.0,2423
3916,1528916,17012,-576,904,17045.74,30.60,-1.00,-1.0,2360
3919,1528919,17032,-688,812,17065.22,30.55,-1.00,-1.0,2422
3922,1528922,17104,-532,960,17139.18,30.60,-1.00,-1.0,2369
3925,1528925,17036,-540,860,17066.24,30.55,-1.00,-1.0,2422
3927,1528927,17024,-648,808,17055.48,30.60,-1.00,-1.0,2370
3932,1528932,16968,-700,868,17004.60,30.69,-1.00,-1.0,2440
3935,1528935,17096,-612,852,17128.15,30.60,-1.00,-1.0,2369
3938,1528938,16992,-552,1000,17030.35,30.65,-1.00,-1.0,2422
3941,1528941,17016,-572,884,17048.54,30.60,-1.00,-1.0,2371
3943,1528943,17036,-600,908,17070.73,30.65,-1.00,-1.0,2365
3946,1528946,17052,-636,812,17083.17,30.55,-1.00,-1.0,2428
3949,1528949,17064,-576,824,17093.59,30.65,-1.00,-1.0,2367
3951,1528951,17060,-616,752,17087.67,30.60,-1.00,-1.0,2434
3954,1528954,17100,-644,808,17131.19,30.65,-1.00,-1.0,2369
3959,1528959,17092,-648,896,17127.73,30.55,-1.00,-1.0,2440
3962,1528962,17004,-568,852,17034.80,30.65,-1.00,-1.0,2367
3965,1528965,17008,-620,792,17037.71,30.65,-1.00,-1.0,2422
3967,1528967,16988,-600,796,17017.22,30.65,-1.00,-1.0,2369
3970,1528970,17004,-568,852,17034.80,30.65,-1.00,-1.0,2421
3973,1528973,17096,-656,952,17135.05,30.55,-1.00,-1.0,2376
3976,1528976,17052,-568,816,17080.96,30.55,-1.00,-1.0,2421
3978,1528978,17024,-676,764,17054.54,30.46,-1.00,-1.0,2368
3981,1528981,16984,-624,1052,17027.99,30.60,-1.00,-1.0,2367
3986,1528986,17112,-564,868,17143.28,30.65,-1.00,-1.0,2439
3988,1528988,17036,-600,852,17067.84,30.60,-1.00,-1.0,2370
3991,1528991,17104,-556,868,17135.03,30.65,-1.00,-1.0,2409
3994,1528994,17084,-596,824,17114.24,30.51,-1.00,-1.0,2370
3997,1528997,16988,-628,896,17023.20,30.55,-1.00,-1.0,2422
3999,1528999,17020,-704,764,17051.68,30.60,-1.00,-1.0,2359
4002,1529002,17044,-604,824,17074.59,30.55,-1.00,-1.0,2422
4005,1529005,16980,-588,992,17019.11,30.65,-1.00,-1.0,2371
4010,1529010,17148,-600,860,17180.03,30.60,-1.00,-1.0,2440
4012,1529012,17028,-616,848,17060.23,30.51,-1.00,-1.0,2370
4015,1529015,17024,-588,980,17062.32,30.60,-1.00,-1.0,2439
4018,1529018,17028,-608,900,17062.60,30.55,-1.00,-1.0,2376
4021,1529021,17124,-528,916,17156.61,30.55,-1.00,-1.0,2370
4023,1529023,17048,-556,740,17073.11,30.55,-1.00,-1.0,2421
4026,1529026,17064,-624,836,17095.86,30.65,-1.00,-1.0,2369
4029,1529029,17124,-628,848,17156.48,30.55,-1.00,-1.0,2421
4032,1529032,17036,-716,928,17076.27,30.55,-1.00,-1.0,2370
4037,1529037,17112,-640,932,17149.31,30.65,-1.00,-1.0,2443
4040,1529040,17028,-580,956,17064.67,30.60,-1.00,-1.0,2372
4042,1529042,17116,-532,836,17144.66,30.55,-1.00,-1.0,2410
4045,1529045,17032,-616,880,17065.84,30.60,-1.00,-1.0,2376
4048,1529048,17068,-528,936,17101.80,30.65,-1.00,-1.0,2422
4051,1529051,17072,-536,884,17103.27,30.60,-1.00,-1.0,2369
4054,1529054,17072,-556,948,17107.34,30.55,-1.00,-1.0,2421
4056,1529056,16992,-688,792,17024.36,30.55,-1.00,-1.0,2372
4059,1529059,17032,-656,860,17066.31,30.65,-1.00,-1.0,2366
4064,1529064,17088,-488,856,17116.38,30.55,-1.00,-1.0,2442
4067,1529067,16996,-564,868,17027.49,30.65,-1.00,-1.0,2367
4070,1529070,17068,-616,788,17097.28,30.55,-1.00,-1.0,2423
4072,1529072,16984,-652,844,17017.45,30.46,-1.00,-1.0,2369
4075,1529075,16956,-652,840,16989.31,30.55,-1.00,-1.0,2409
4078,1529078,17056,-596,920,17091.19,30.65,-1.00,-1.0,2368
4081,1529081,17120,-624,792,17149.67,30.55,-1.00,-1.0,2421
4083,1529083,17080,-572,808,17108.67,30.55,-1.00,-1.0,2373
4088,1529088,16972,-560,928,17006.57,30.46,-1.00,-1.0,2435
4091,1529091,17092,-544,828,17120.69,30.46,-1.00,-1.0,2376
4094,1529094,17016,-480,896,17046.33,30.65,-1.00,-1.0,2431
4096,1529096,16996,-608,1004,17036.48,30.55,-1.00,-1.0,2378
4099,1529099,17120,-588,940,17155.87,30.60,-1.00,-1.0,2365
4102,1529102,17072,-652,824,17104.30,30.60,-1.00,-1.0,2424
4105,1529105,16988,-580,880,17020.66,30.60,-1.00,-1.0,2368
4107,1529107,17056,-524,844,17084.91,30.60,-1.00,-1.0,2423
4110,1529110,16968,-648,832,17000.74,30.51,-1.00,-1.0,2368
4115,1529115,17008,-604,872,17041.05,30.60,-1.00,-1.0,2440
4118,1529118,17060,-688,888,17096.94,30.55,-1.00,-1.0,2368
4121,1529121,17020,-596,780,17048.29,30.60,-1.00,-1.0,2423
4123,1529123,17068,-600,916,17103.09,30.60,-1.00,-1.0,2369
4126,1529126,17116,-592,904,17150.08,30.60,-1.00,-1.0,2421
4129,1529129,17060,-556,796,17087.61,30.55,-1.00,-1.0,2368
4132,1529132,16992,-668,772,17022.64,30.60,-1.00,-1.0,2422
4134,1529134,17064,-624,888,17098.48,30.51,-1.00,-1.0,2368
4137,1529137,17060,-584,952,17096.52,30.60,-1.00,-1.0,2367
4142,1529142,17080,-556,948,17115.32,30.60,-1.00,-1.0,2440
4145,1529145,17084,-604,1000,17123.90,30.60,-1.00,-1.0,2368
4148,1529148,17108,-692,824,17141.81,30.65,-1.00,-1.0,2423
4150,1529150,17028,-660,888,17063.91,30.51,-1.00,-1.0,2368
4153,1529153,16984,-644,856,17017.75,30.55,-1.00,-1.0,2422
4156,1529156,16980,-536,888,17011.65,30.60,-1.00,-1.0,2377
4159,1529159,17072,-632,868,17105.73,30.55,-1.00,-1.0,2421
4161,1529161,17064,-604,844,17095.53,30.60,-1.00,-1.0,2369
4166,1529166,17032,-656,888,17067.74,30.69,-1.00,-1.0,2440
4169,1529169,16976,-492,788,17001.40,30.60,-1.00,-1.0,2367
4172,1529172,17084,-652,904,17120.32,30.60,-1.00,-1.0,2425
4175,1529175,17028,-628,948,17065.93,30.60,-1.00,-1.0,2368
4177,1529177,17032,-692,852,17067.33,30.55,-1.00,-1.0,2373
4180,1529180,17052,-624,744,17079.62,30.55,-1.00,-1.0,2423
4183,1529183,17064,-624,832,17095.66,30.60,-1.00,-1.0,2426
4186,1529186,17172,-588,956,17208.64,30.65,-1.00,-1.0,2427
4188,1529188,17088,-672,892,17124.46,30.55,-1.00,-1.0,2380
4194,1529194,17044,-632,900,17079.44,30.51,-1.00,-1.0,2444
4197,1529197,17020,-540,812,17047.91,30.55,-1.00,-1.0,2372
4200,1529200,16992,-484,832,17019.24,30.51,-1.00,-1.0,2422
4202,1529202,16972,-608,736,16998.83,30.60,-1.00,-1.0,2372
4205,1529205,17104,-676,916,17141.85,30.60,-1.00,-1.0,2423
4208,1529208,16984,-596,952,17021.10,30.55,-1.00,-1.0,2368
4211,1529211,17024,-592,920,17059.12,30.60,-1.00,-1.0,2423
4213,1529213,17096,-540,868,17126.54,30.60,-1.00,-1.0,2369
4216,1529216,17024,-596,880,17057.14,30.65,-1.00,-1.0,2375
4221,1529221,17084,-644,880,17118.77,30.60,-1.00,-1.0,2441
4223,1529223,17004,-688,856,17039.43,30.60,-1.00,-1.0,2368
4226,1529226,17080,-568,936,17115.05,30.55,-1.00,-1.0,2424
4229,1529229,17020,-680,940,17059.50,30.60,-1.00,-1.0,2368
4232,1529232,17060,-636,908,17095.98,30.65,-1.00,-1.0,2423
4234,1529234,16992,-660,860,17026.54,30.60,-1.00,-1.0,2370
4237,1529237,17020,-620,900,17055.05,30.55,-1.00,-1.0,2422
4240,1529240,16968,-612,804,16998.06,30.51,-1.00,-1.0,2368
4245,1529245,16984,-564,872,17015.72,30.41,-1.00,-1.0,2439
4247,1529247,17072,-552,828,17100.98,30.51,-1.00,-1.0,2369
4250,1529250,17008,-660,936,17046.52,30.46,-1.00,-1.0,2422
4253,1529253,17116,-636,820,17147.43,30.60,-1.00,-1.0,2369
4256,1529256,17092,-484,776,17116.45,30.46,-1.00,-1.0,2366
4258,1529258,16996,-552,952,17031.59,30.60,-1.00,-1.0,2439
4261,1529261,17004,-592,976,17042.27,30.65,-1.00,-1.0,2376
4264,1529264,16976,-616,940,17013.16,30.51,-1.00,-1.0,2423
4267,1529267,17044,-508,836,17072.05,30.55,-1.00,-1.0,2369
4272,1529272,17080,-628,820,17111.20,30.55,-1.00,-1.0,2439
4274,1529274,16980,-652,896,17016.12,30.55,-1.00,-1.0,2370
4277,1529277,16920,-492,1012,16957.38,30.69,-1.00,-1.0,2438
4280,1529280,16968,-540,684,16990.37,30.55,-1.00,-1.0,2378
4283,1529283,17048,-692,792,17080.41,30.60,-1.00,-1.0,2433
4285,1529285,17152,-588,740,17178.02,30.60,-1.00,-1.0,2375
4288,1529288,16964,-544,844,16993.69,30.69,-1.00,-1.0,2416
4291,1529291,17132,-596,884,17165.14,30.60,-1.00,-1.0,2376
4294,1529294,17144,-628,996,17184.39,30.55,-1.00,-1.0,2367
4299,1529299,17064,-604,896,17098.18,30.51,-1.00,-1.0,2427
4301,1529301,17052,-548,980,17088.93,30.51,-1.00,-1.0,2370
4304,1529304,16960,-524,920,16993.02,30.55,-1.00,-1.0,2423
4307,1529307,16996,-660,832,17029.15,30.60,-1.00,-1.0,2368
4310,1529310,16984,-660,932,17022.35,30.65,-1.00,-1.0,2421
4312,1529312,17000,-556,912,17033.52,30.51,-1.00,-1.0,2368
4315,1529315,17080,-672,932,17118.60,30.55,-1.00,-1.0,2421
4318,1529318,17048,-616,780,17076.95,30.60,-1.00,-1.0,2368
4323,1529323,17088,-604,952,17125.15,30.60,-1.00,-1.0,2444
4325,1529325,17072,-632,876,17106.14,30.51,-1.00,-1.0,2376
4328,1529328,17056,-636,968,17095.28,30.55,-1.00,-1.0,2423
4331,1529331,17128,-544,916,17161.10,30.60,-1.00,-1.0,2371
4334,1529334,17048,-648,872,17082.58,30.55,-1.00,-1.0,2354
4336,1529336,17004,-592,768,17031.63,30.60,-1.00,-1.0,2424
4339,1529339,17036,-548,856,17066.29,30.65,-1.00,-1.0,2368
4342,1529342,17084,-680,904,17121.41,30.60,-1.00,-1.0,2431
4345,1529345,17060,-532,836,17088.75,30.55,-1.00,-1.0,2354
4350,1529350,17072,-580,820,17101.52,30.55,-1.00,-1.0,2442
4352,1529352,16944,-600,980,16982.92,30.55,-1.00,-1.0,2376
4355,1529355,17020,-592,960,17057.33,30.55,-1.00,-1.0,2423
4358,1529358,17068,-556,888,17100.12,30.46,-1.00,-1.0,2369
4361,1529361,17052,-580,876,17084.33,30.60,-1.00,-1.0,2466
4364,1529364,17052,-592,836,17082.74,30.51,-1.00,-1.0,2371
4366,1529366,16976,-580,788,17004.17,30.55,-1.00,-1.0,2430
4369,1529369,17080,-592,820,17109.92,30.65,-1.00,-1.0,2377
4372,1529372,17092,-700,824,17126.16,30.55,-1.00,-1.0,2368
4377,1529377,16964,-608,836,16995.46,30.55,-1.00,-1.0,2441
4379,1529379,16916,-564,768,16942.81,30.55,-1.00,-1.0,2357
4382,1529382,17096,-532,888,17127.31,30.55,-1.00,-1.0,2423
4385,1529385,17076,-604,824,17106.54,30.55,-1.00,-1.0,2370
4388,1529388,17032,-540,796,17059.14,30.55,-1.00,-1.0,2424
4391,1529391,17040,-592,860,17071.96,30.74,-1.00,-1.0,2371
4393,1529393,16984,-684,884,17020.74,30.51,-1.00,-1.0,2423
4396,1529396,17104,-612,796,17133.45,30.65,-1.00,-1.0,2372
4401,1529401,17016,-640,744,17044.28,30.60,-1.00,-1.0,2450
4404,1529404,16948,-592,728,16973.96,30.55,-1.00,-1.0,2369
4406,1529406,17116,-692,928,17155.10,30.51,-1.00,-1.0,2425
4409,1529409,17100,-688,644,17125.95,30.51,-1.00,-1.0,2369
4412,1529412,17008,-544,1008,17046.53,30.60,-1.00,-1.0,2369
4414,1529414,17020,-612,768,17048.31,30.55,-1.00,-1.0,2433
4417,1529417,17080,-564,868,17111.34,30.55,-1.00,-1.0,2376
4420,1529420,17060,-612,840,17091.63,30.55,-1.00,-1.0,2426
4423,1529423,17124,-620,904,17159.05,30.55,-1.00,-1.0,2372
4427,1529427,17080,-628,928,17116.72,30.51,-1.00,-1.0,2439
4430,1529430,17112,-560,880,17143.76,30.60,-1.00,-1.0,2369
4433,1529433,17044,-580,956,17080.64,30.51,-1.00,-1.0,2426
4436,1529436,16984,-508,880,17014.37,30.65,-1.00,-1.0,2368
4438,1529438,17104,-532,824,17132.10,30.60,-1.00,-1.0,2423
4441,1529441,17100,-556,956,17135.72,30.60,-1.00,-1.0,2374
4444,1529444,16964,-644,932,17001.78,30.60,-1.00,-1.0,2425
4447,1529447,17028,-608,792,17057.25,30.51,-1.00,-1.0,2368
4449,1529449,16992,-596,820,17022.21,30.55,-1.00,-1.0,2376
4454,1529454,17068,-608,788,17096.99,30.55,-1.00,-1.0,2442
4457,1529457,17092,-604,940,17128.48,30.60,-1.00,-1.0,2369
4460,1529460,17096,-648,800,17126.97,30.65,-1.00,-1.0,2428
4463,1529463,17004,-584,916,17038.67,30.60,-1.00,-1.0,2369
4465,1529465,17144,-692,704,17172.40,30.46,-1.00,-1.0,2437
4468,1529468,17052,-604,776,17080.33,30.55,-1.00,-1.0,2380
4471,1529471,17104,-548,852,17133.97,30.55,-1.00,-1.0,2417
4474,1529474,17052,-576,876,17084.20,30.55,-1.00,-1.0,2371
4479,1529479,16972,-632,916,17008.45,30.60,-1.00,-1.0,2440
4481,1529481,17056,-572,800,17084.33,30.60,-1.00,-1.0,2368
4484,1529484,17044,-696,1064,17091.36,30.65,-1.00,-1.0,2354
4487,1529487,17084,-620,896,17118.71,30.60,-1.00,-1.0,2434
4489,1529489,17044,-716,796,17077.59,30.65,-1.00,-1.0,2376
4492,1529492,17112,-724,876,17149.70,30.60,-1.00,-1.0,2422
4495,1529495,17008,-604,860,17040.44,30.46,-1.00,-1.0,2374
4498,1529498,17068,-652,980,17108.54,30.60,-1.00,-1.0,2422
4500,1529500,17084,-612,848,17115.98,30.55,-1.00,-1.0,2376
4505,1529505,16908,-668,836,16941.83,30.65,-1.00,-1.0,2451
4508,1529508,16984,-644,912,17020.66,30.65,-1.00,-1.0,2384
4511,1529511,16992,-556,1020,17031.66,30.60,-1.00,-1.0,2423
4514,1529514,17008,-556,964,17044.37,30.55,-1.00,-1.0,2371
4516,1529516,17068,-592,940,17104.11,30.65,-1.00,-1.0,2409
4519,1529519,17052,-572,860,17083.25,30.55,-1.00,-1.0,2378
4522,1529522,17128,-660,652,17153.11,30.60,-1.00,-1.0,2426
4525,1529525,17028,-520,832,17056.24,30.55,-1.00,-1.0,2367
4528,1529528,17044,-584,856,17075.47,30.60,-1.00,-1.0,2371
4532,1529532,17088,-644,904,17124.01,30.65,-1.00,-1.0,2446
4535,1529535,17044,-656,820,17076.32,30.60,-1.00,-1.0,2376
4538,1529538,17032,-568,940,17067.37,30.60,-1.00,-1.0,2423
4541,1529541,17080,-684,848,17114.71,30.60,-1.00,-1.0,2369
4544,1529544,17084,-560,868,17115.20,30.60,-1.00,-1.0,2422
4546,1529546,17044,-564,844,17074.20,30.60,-1.00,-1.0,2373
4549,1529549,17080,-624,900,17115.07,30.60,-1.00,-1.0,2423
4552,1529552,16972,-612,856,17004.59,30.51,-1.00,-1.0,2369
4557,1529557,17012,-616,908,17047.35,30.60,-1.00,-1.0,2447
4559,1529559,16984,-580,808,17013.10,30.65,-1.00,-1.0,2378
4562,1529562,16948,-612,808,16978.28,30.60,-1.00,-1.0,2370
4565,1529565,16988,-600,864,17020.54,30.55,-1.00,-1.0,2425
4568,1529568,17088,-600,820,17118.18,30.55,-1.00,-1.0,2368
4570,1529570,17052,-528,808,17079.30,30.65,-1.00,-1.0,2425
4573,1529573,17040,-684,876,17076.21,30.65,-1.00,-1.0,2373
4576,1529576,17084,-608,908,17118.91,30.65,-1.00,-1.0,2425
4579,1529579,17056,-652,828,17088.53,30.65,-1.00,-1.0,2369
4584,1529584,17004,-592,992,17043.20,30.55,-1.00,-1.0,2440
4586,1529586,17004,-604,860,17036.44,30.60,-1.00,-1.0,2373
4589,1529589,17040,-544,1048,17080.86,30.55,-1.00,-1.0,2424
4592,1529592,17000,-556,792,17027.52,30.55,-1.00,-1.0,2369
4595,1529595,17048,-580,832,17078.14,30.55,-1.00,-1.0,2422
4597,1529597,17040,-592,980,17078.42,30.55,-1.00,-1.0,2370
4600,1529600,16980,-664,748,17009.43,30.60,-1.00,-1.0,2374
4603,1529603,17036,-692,896,17073.58,30.60,-1.00,-1.0,2439
4606,1529606,17064,-532,1008,17102.02,30.55,-1.00,-1.0,2369
4610,1529610,17024,-608,1032,17066.09,30.65,-1.00,-1.0,2453
4613,1529613,17064,-540,800,17091.28,30.60,-1.00,-1.0,2373
4616,1529616,17096,-644,852,17129.33,30.60,-1.00,-1.0,2425
4619,1529619,16992,-612,764,17020.17,30.60,-1.00,-1.0,2365
4621,1529621,17068,-572,968,17104.99,30.60,-1.00,-1.0,2433
4624,1529624,17120,-544,744,17144.79,30.60,-1.00,-1.0,2373
4627,1529627,17036,-556,904,17069.03,30.51,-1.00,-1.0,2425
4630,1529630,17056,-660,716,17083.78,30.60,-1.00,-1.0,2366
4634,1529634,17128,-520,848,17156.86,30.55,-1.00,-1.0,2440
4637,1529637,17072,-624,788,17101.56,30.65,-1.00,-1.0,2365
4640,1529640,16972,-616,976,17011.20,30.55,-1.00,-1.0,2430
4643,1529643,16976,-608,764,17004.06,30.55,-1.00,-1.0,2369
4645,1529645,17020,-636,892,17055.22,30.60,-1.00,-1.0,2374
4648,1529648,17076,-612,820,17106.63,30.60,-1.00,-1.0,2426
4651,1529651,17056,-552,880,17087.61,30.69,-1.00,-1.0,2369
4654,1529654,17032,-640,868,17066.11,30.51,-1.00,-1.0,2431
4657,1529657,17048,-656,852,17081.88,30.60,-1.00,-1.0,2370
4662,1529662,17048,-584,980,17086.13,30.60,-1.00,-1.0,2441
4664,1529664,17040,-568,832,17069.75,30.65,-1.00,-1.0,2368
4667,1529667,17128,-480,892,17157.93,30.60,-1.00,-1.0,2423
4670,1529670,17088,-588,828,17118.15,30.60,-1.00,-1.0,2378
4673,1529673,17128,-648,852,17161.42,30.51,-1.00,-1.0,2422
4675,1529675,17064,-584,848,17095.04,30.65,-1.00,-1.0,2372
4678,1529678,17016,-608,840,17047.57,30.60,-1.00,-1.0,2368
4681,1529681,17088,-556,924,17121.99,30.55,-1.00,-1.0,2422
4684,1529684,17048,-612,732,17074.68,30.60,-1.00,-1.0,2377
4689,1529689,17036,-640,812,17067.34,30.60,-1.00,-1.0,2440
4691,1529691,16980,-576,732,17005.53,30.60,-1.00,-1.0,2371
4694,1529694,17072,-704,888,17109.57,30.65,-1.00,-1.0,2438
4697,1529697,17064,-620,800,17093.99,30.60,-1.00,-1.0,2378
4700,1529700,16956,-648,920,16993.30,30.55,-1.00,-1.0,2434
4702,1529702,16984,-628,840,17016.35,30.60,-1.00,-1.0,2380
4705,1529705,16996,-632,900,17031.54,30.65,-1.00,-1.0,2429
4708,1529708,17088,-504,808,17114.52,30.55,-1.00,-1.0,2374
4713,1529713,17128,-660,864,17162.47,30.60,-1.00,-1.0,2448
4716,1529716,17064,-556,876,17095.51,30.60,-1.00,-1.0,2370
4718,1529718,16972,-592,864,17004.29,30.55,-1.00,-1.0,2367
4721,1529721,17016,-644,924,17053.23,30.60,-1.00,-1.0,2422
4724,1529724,17024,-580,912,17058.27,30.74,-1.00,-1.0,2368
4727,1529727,17092,-592,916,17126.76,30.51,-1.00,-1.0,2421
4729,1529729,17052,-616,944,17089.21,30.55,-1.00,-1.0,2370
4732,1529732,17044,-676,876,17079.88,30.51,-1.00,-1.0,2424
4735,1529735,17008,-540,792,17034.99,30.65,-1.00,-1.0,2369
4740,1529740,16928,-584,884,16961.12,30.55,-1.00,-1.0,2441
4742,1529742,17052,-556,828,17081.14,30.65,-1.00,-1.0,2377
4745,1529745,16996,-620,836,17027.84,30.55,-1.00,-1.0,2424
4748,1529748,17048,-588,844,17079.00,30.65,-1.00,-1.0,2371
4751,1529751,17008,-624,828,17039.57,30.60,-1.00,-1.0,2422
4753,1529753,17108,-580,892,17141.05,30.55,-1.00,-1.0,2371
4756,1529756,16972,-660,756,17001.64,30.60,-1.00,-1.0,2367
4759,1529759,17096,-556,940,17130.85,30.46,-1.00,-1.0,2429
4762,1529762,16976,-680,800,17008.44,30.55,-1.00,-1.0,2369
4767,1529767,17024,-636,864,17057.77,30.65,-1.00,-1.0,2448
4770,1529770,16992,-688,800,17024.73,30.74,-1.00,-1.0,2369
4772,1529772,17000,-644,772,17029.70,30.65,-1.00,-1.0,2430
4775,1529775,17000,-556,908,17033.31,30.65,-1.00,-1.0,2377
4778,1529778,16984,-528,788,17010.47,30.65,-1.00,-1.0,2412
4781,1529781,17056,-644,796,17086.71,30.55,-1.00,-1.0,2371
4783,1529783,17036,-564,1000,17074.64,30.65,-1.00,-1.0,2430
4786,1529786,17096,-612,900,17130.61,30.55,-1.00,-1.0,2377
4791,1529791,16948,-536,976,16984.54,30.55,-1.00,-1.0,2440
4794,1529794,16920,-620,908,16955.69,30.60,-1.00,-1.0,2377
4796,1529796,17020,-604,912,17055.12,30.65,-1.00,-1.0,2373
4799,1529799,17008,-568,936,17043.20,30.46,-1.00,-1.0,2423
4802,1529802,17064,-580,972,17101.50,30.65,-1.00,-1.0,2358
4805,1529805,16988,-740,812,17023.49,30.51,-1.00,-1.0,2421
4807,1529807,16936,-564,792,16963.89,30.55,-1.00,-1.0,2377
4810,1529810,17072,-576,824,17101.58,30.60,-1.00,-1.0,2422
4813,1529813,16896,-676,920,16934.53,30.55,-1.00,-1.0,2370
4818,1529818,17112,-624,928,17148.50,30.60,-1.00,-1.0,2442
4821,1529821,17028,-612,692,17053.04,30.51,-1.00,-1.0,2369
4823,1529823,17044,-692,748,17074.43,30.60,-1.00,-1.0,2423
4826,1529826,17056,-648,888,17091.39,30.60,-1.00,-1.0,2370
4829,1529829,16952,-644,872,16986.62,30.69,-1.00,-1.0,2429
4832,1529832,17008,-668,920,17045.96,30.55,-1.00,-1.0,2424
4834,1529834,17028,-580,1016,17068.14,30.60,-1.00,-1.0,2367
4837,1529837,16976,-672,792,17007.75,30.55,-1.00,-1.0,2418
4840,1529840,16900,-604,904,16934.94,30.65,-1.00,-1.0,2382
4845,1529845,17088,-604,848,17119.69,30.60,-1.00,-1.0,2441
4847,1529847,17032,-688,924,17070.92,30.60,-1.00,-1.0,2367
4850,1529850,17044,-556,796,17071.63,30.60,-1.00,-1.0,2424
4853,1529853,17164,-524,864,17193.72,30.60,-1.00,-1.0,2368
4856,1529856,17084,-692,884,17120.85,30.60,-1.00,-1.0,2422
4858,1529858,16932,-680,912,16970.17,30.69,-1.00,-1.0,2369
4861,1529861,16956,-572,836,16986.23,30.65,-1.00,-1.0,2422
4864,1529864,17016,-680,900,17053.35,30.55,-1.00,-1.0,2375
4869,1529869,17012,-660,824,17044.73,30.65,-1.00,-1.0,2441
4872,1529872,17096,-588,972,17133.70,30.60,-1.00,-1.0,2369
4874,1529874,16976,-616,720,17002.42,30.65,-1.00,-1.0,2365
4877,1529877,17028,-596,848,17059.52,30.60,-1.00,-1.0,2432
4880,1529880,16968,-488,744,16991.31,30.55,-1.00,-1.0,2369
4882,1529882,17068,-540,808,17095.64,30.60,-1.00,-1.0,2433
4885,1529885,17140,-508,768,17164.72,30.55,-1.00,-1.0,2375
4888,1529888,17036,-532,844,17065.19,30.69,-1.00,-1.0,2424
4891,1529891,16968,-732,968,17011.35,30.74,-1.00,-1.0,2375
4896,1529896,17044,-648,844,17077.18,30.55,-1.00,-1.0,2445
4899,1529899,16948,-600,924,16983.77,30.65,-1.00,-1.0,2367
4901,1529901,17096,-680,852,17130.72,30.65,-1.00,-1.0,2425
4904,1529904,17060,-588,784,17088.12,30.65,-1.00,-1.0,2369
4907,1529907,17176,-624,748,17203.60,30.60,-1.00,-1.0,2460
4910,1529910,16964,-616,720,16990.44,30.60,-1.00,-1.0,2375
4912,1529912,16984,-632,972,17023.53,30.55,-1.00,-1.0,2367
4915,1529915,17028,-632,964,17066.97,30.55,-1.00,-1.0,2438
4918,1529918,16992,-612,720,17018.26,30.41,-1.00,-1.0,2376
4923,1529923,17112,-668,956,17151.70,30.65,-1.00,-1.0,2443
4926,1529926,17004,-624,872,17037.78,30.55,-1.00,-1.0,2372
4928,1529928,17000,-636,924,17036.97,30.69,-1.00,-1.0,2440
4931,1529931,17036,-644,928,17073.41,30.65,-1.00,-1.0,2369
4934,1529934,17016,-604,820,17046.45,30.60,-1.00,-1.0,2431
4937,1529937,17120,-700,880,17156.89,30.51,-1.00,-1.0,2369
4939,1529939,16964,-532,792,16990.81,30.60,-1.00,-1.0,2432
4942,1529942,16992,-604,828,17022.88,30.65,-1.00,-1.0,2377
4947,1529947,17000,-572,796,17028.24,30.65,-1.00,-1.0,2441
4950,1529950,17012,-592,936,17048.01,30.65,-1.00,-1.0,2375
4952,1529952,17076,-632,828,17107.74,30.51,-1.00,-1.0,2376
4955,1529955,17020,-596,852,17051.73,30.65,-1.00,-1.0,2423
4958,1529958,17060,-560,816,17088.68,30.69,-1.00,-1.0,2356
4961,1529961,17112,-508,1016,17149.66,30.65,-1.00,-1.0,2422
4963,1529963,17000,-592,944,17036.48,30.51,-1.00,-1.0,2375
4966,1529966,17072,-532,884,17103.15,30.65,-1.00,-1.0,2422
4969,1529969,17008,-588,840,17038.88,30.60,-1.00,-1.0,2370
4974,1529974,17084,-648,864,17118.10,30.60,-1.00,-1.0,2448
4977,1529977,17084,-644,892,17119.39,30.51,-1.00,-1.0,2371
4979,1529979,17024,-648,812,17055.67,30.55,-1.00,-1.0,2430
4982,1529982,17032,-636,752,17060.45,30.60,-1.00,-1.0,2384
4985,1529985,17040,-624,920,17076.22,30.55,-1.00,-1.0,2425
4988,1529988,17020,-568,956,17056.29,30.60,-1.00,-1.0,2369
4990,1529990,17108,-568,748,17133.76,30.65,-1.00,-1.0,2353
4993,1529993,16932,-648,816,16964.03,30.65,-1.00,-1.0,2422
4996,1529996,17092,-596,808,17121.46,30.55,-1.00,-1.0,2368
5001,1530001,17108,-600,712,17133.32,30.55,-1.00,-1.0,2443
5004,1530004,17032,-600,872,17064.86,30.60,-1.00,-1.0,2375
5007,1530007,16944,-640,916,16980.81,30.55,-1.00,-1.0,2425
5009,1530009,17024,-668,704,17051.64,30.55,-1.00,-1.0,2377
5012,1530012,17048,-624,824,17079.30,30.55,-1.00,-1.0,2424
5015,1530015,17072,-656,848,17105.63,30.55,-1.00,-1.0,2371
5018,1530018,17028,-644,944,17066.30,30.55,-1.00,-1.0,2421
5020,1530020,17092,-704,832,17126.71,30.55,-1.00,-1.0,2357
5026,1530026,17084,-644,876,17118.56,30.69,-1.00,-1.0,2455
5029,1530029,17088,-540,828,17116.57,30.60,-1.00,-1.0,2370
5031,1530031,17100,-620,904,17135.10,30.65,-1.00,-1.0,2379
5034,1530034,17020,-700,740,17050.46,30.65,-1.00,-1.0,2426
5037,1530037,16992,-672,864,17027.22,30.55,-1.00,-1.0,2367
5039,1530039,17060,-560,828,17089.26,30.55,-1.00,-1.0,2409
5042,1530042,17072,-660,828,17104.80,30.65,-1.00,-1.0,2376
5045,1530045,16928,-576,856,16959.41,30.55,-1.00,-1.0,2426
5048,1530048,16996,-504,800,17022.28,30.65,-1.00,-1.0,2367
5052,1530052,17100,-536,760,17125.27,30.69,-1.00,-1.0,2444
5055,1530055,17012,-668,1052,17057.58,30.60,-1.00,-1.0,2368
5058,1530058,17040,-608,1000,17080.14,30.65,-1.00,-1.0,2430
5061,1530061,17000,-580,868,17032.02,30.60,-1.00,-1.0,2367
5063,1530063,17028,-656,968,17068.10,30.65,-1.00,-1.0,2435
5066,1530066,17052,-628,940,17089.43,30.65,-1.00,-1.0,2376
5069,1530069,16976,-480,976,17010.81,30.65,-1.00,-1.0,2367
5072,1530072,17024,-592,816,17053.82,30.60,-1.00,-1.0,2422
5074,1530074,17012,-568,780,17039.34,30.60,-1.00,-1.0,2370
5079,1530079,17104,-544,920,17137.36,30.65,-1.00,-1.0,2439
5082,1530082,17020,-572,896,17053.16,30.65,-1.00,-1.0,2355
5085,1530085,17044,-572,908,17077.75,30.51,-1.00,-1.0,2422
5087,1530087,17108,-660,764,17137.76,30.55,-1.00,-1.0,2376
5090,1530090,17112,-616,904,17146.93,30.60,-1.00,-1.0,2422
5093,1530093,17080,-536,788,17106.57,30.55,-1.00,-1.0,2372
5096,1530096,17004,-664,956,17043.79,30.60,-1.00,-1.0,2422
5098,1530098,17084,-624,728,17110.89,30.55,-1.00,-1.0,2362
5103,1530103,17164,-604,856,17195.94,30.55,-1.00,-1.0,2445
5106,1530106,17080,-604,872,17112.91,30.55,-1.00,-1.0,2371
5109,1530109,17024,-556,792,17051.48,30.60,-1.00,-1.0,2367
5112,1530112,17108,-656,956,17147.24,30.55,-1.00,-1.0,2423
5114,1530114,17044,-532,764,17069.41,30.51,-1.00,-1.0,2369
5117,1530117,17056,-608,988,17095.41,30.55,-1.00,-1.0,2422
5120,1530120,17036,-620,916,17071.87,30.51,-1.00,-1.0,2377
5123,1530123,17040,-640,832,17072.30,30.65,-1.00,-1.0,2422
5125,1530125,17008,-588,856,17039.68,30.60,-1.00,-1.0,2370
5130,1530130,17044,-656,880,17079.30,30.60,-1.00,-1.0,2441
5133,1530133,17072,-616,796,17101.64,30.51,-1.00,-1.0,2367
5136,1530136,17056,-508,908,17087.71,30.55,-1.00,-1.0,2431
5139,1530139,17060,-648,796,17090.85,30.60,-1.00,-1.0,2367
5141,1530141,17080,-596,924,17115.36,30.55,-1.00,-1.0,2423
5144,1530144,17052,-628,936,17089.21,30.60,-1.00,-1.0,2369
5147,1530147,17132,-484,976,17166.60,30.65,-1.00,-1.0,2367
5149,1530149,17144,-576,948,17179.85,30.60,-1.00,-1.0,2430
5152,1530152,17060,-560,832,17089.45,30.55,-1.00,-1.0,2383
5157,1530157,16992,-484,944,17025.08,30.55,-1.00,-1.0,2455
5160,1530160,17072,-620,796,17101.79,30.55,-1.00,-1.0,2377
5163,1530163,16984,-508,872,17013.96,30.60,-1.00,-1.0,2435
5165,1530165,17036,-476,824,17062.56,30.60,-1.00,-1.0,2379
5168,1530168,17096,-608,880,17129.43,30.51,-1.00,-1.0,2421
5171,1530171,17112,-512,880,17142.26,30.65,-1.00,-1.0,2371
5174,1530174,16964,-628,848,16996.79,30.60,-1.00,-1.0,2422
5176,1530176,17052,-596,864,17084.27,30.51,-1.00,-1.0,2375
5181,1530181,17100,-636,904,17135.69,30.60,-1.00,-1.0,2449
5184,1530184,16916,-656,940,16954.79,30.60,-1.00,-1.0,2383
5187,1530187,17004,-720,800,17038.03,30.60,-1.00,-1.0,2367
5190,1530190,16980,-528,876,17010.78,30.55,-1.00,-1.0,2423
5192,1530192,17080,-640,912,17116.30,30.55,-1.00,-1.0,2369
5195,1530195,17048,-604,832,17078.97,30.55,-1.00,-1.0,2421
5198,1530198,16964,-608,868,16997.07,30.65,-1.00,-1.0,2376
5201,1530201,16956,-616,956,16994.10,30.65,-1.00,-1.0,2422
5203,1530203,17096,-540,832,17124.75,30.65,-1.00,-1.0,2374
5209,1530209,17144,-584,852,17175.09,30.60,-1.00,-1.0,2442
5211,1530211,17104,-608,772,17132.21,30.60,-1.00,-1.0,2369
5214,1530214,17044,-616,884,17078.02,30.55,-1.00,-1.0,2410
5217,1530217,17060,-604,820,17090.37,30.69,-1.00,-1.0,2368
5220,1530220,17044,-576,840,17074.40,30.55,-1.00,-1.0,2421
5222,1530222,17016,-532,772,17041.81,30.51,-1.00,-1.0,2369
5225,1530225,17028,-576,808,17056.89,30.65,-1.00,-1.0,2374
5228,1530228,17096,-736,800,17130.53,30.60,-1.00,-1.0,2421
5230,1530230,17072,-572,888,17104.65,30.55,-1.00,-1.0,2370
5235,1530235,16992,-596,976,17030.44,30.60,-1.00,-1.0,2440
5238,1530238,17060,-632,908,17095.83,30.55,-1.00,-1.0,2372
5241,1530241,17048,-688,748,17078.27,30.60,-1.00,-1.0,2437
5243,1530243,17016,-632,876,17050.25,30.60,-1.00,-1.0,2374
5246,1530246,16944,-564,792,16971.87,30.60,-1.00,-1.0,2432
5249,1530249,17036,-600,1024,17077.29,30.65,-1.00,-1.0,2376
5252,1530252,17008,-632,1000,17049.09,30.69,-1.00,-1.0,2433
5254,1530254,17052,-564,868,17083.39,30.60,-1.00,-1.0,2375
5259,1530259,17020,-640,936,17057.73,30.65,-1.00,-1.0,2440
5262,1530262,17076,-680,748,17105.90,30.65,-1.00,-1.0,2376
5264,1530264,17052,-588,844,17083.00,30.60,-1.00,-1.0,2374
5267,1530267,17000,-536,776,17026.14,30.65,-1.00,-1.0,2422
5270,1530270,17028,-604,796,17057.29,30.79,-1.00,-1.0,2370
5273,1530273,17012,-668,1004,17054.69,30.65,-1.00,-1.0,2418
5275,1530275,17112,-540,832,17140.72,30.69,-1.00,-1.0,2376
5278,1530278,17008,-716,852,17044.37,30.55,-1.00,-1.0,2418
5281,1530281,17052,-572,968,17089.03,30.55,-1.00,-1.0,2370
5286,1530286,17016,-648,824,17048.26,30.55,-1.00,-1.0,2449
5289,1530289,17052,-620,820,17082.96,30.60,-1.00,-1.0,2352
5292,1530292,17000,-576,836,17030.29,30.55,-1.00,-1.0,2431
5294,1530294,17096,-584,920,17130.69,30.51,-1.00,-1.0,2372
5297,1530297,17116,-524,888,17147.03,30.55,-1.00,-1.0,2422
5300,1530300,17060,-588,832,17090.39,30.60,-1.00,-1.0,2369
5303,1530303,17088,-588,1032,17129.23,30.55,-1.00,-1.0,2367
5305,1530305,17096,-504,888,17126.46,30.60,-1.00,-1.0,2425
5308,1530308,17028,-652,932,17065.95,30.55,-1.00,-1.0,2369
5313,1530313,17060,-680,716,17088.55,30.65,-1.00,-1.0,2445
5316,1530316,17156,-708,732,17186.20,30.65,-1.00,-1.0,2355
5319,1530319,17004,-664,776,17034.64,30.55,-1.00,-1.0,2423
5321,1530321,17096,-728,980,17139.53,30.55,-1.00,-1.0,2375
5324,1530324,17148,-620,884,17181.96,30.55,-1.00,-1.0,2422
5327,1530327,17196,-592,832,17226.29,30.55,-1.00,-1.0,2374
5330,1530330,17032,-636,972,17071.56,30.55,-1.00,-1.0,2421
5332,1530332,16976,-636,832,17008.27,30.65,-1.00,-1.0,2362
5337,1530337,16984,-524,948,17018.51,30.65,-1.00,-1.0,2448
5340,1530340,17060,-536,816,17087.91,30.55,-1.00,-1.0,2383
5343,1530343,17036,-552,880,17067.64,30.65,-1.00,-1.0,2366
5346,1530346,17028,-524,868,17058.16,30.69,-1.00,-1.0,2424
5348,1530348,17128,-664,840,17161.44,30.51,-1.00,-1.0,2368
5351,1530351,17044,-656,916,17081.20,30.60,-1.00,-1.0,2422
5354,1530354,17044,-640,856,17077.48,30.65,-1.00,-1.0,2381
5357,1530357,17060,-600,832,17090.81,30.69,-1.00,-1.0,2421
5359,1530359,17112,-632,936,17149.23,30.60,-1.00,-1.0,2369
5364,1530364,17072,-616,856,17104.54,30.69,-1.00,-1.0,2439
5367,1530367,17068,-740,880,17106.68,30.55,-1.00,-1.0,2368
5370,1530370,17104,-620,884,17138.05,30.60,-1.00,-1.0,2428
5373,1530373,17136,-668,808,17168.04,30.60,-1.00,-1.0,2367
5375,1530375,17068,-644,764,17097.22,30.69,-1.00,-1.0,2424
5378,1530378,16960,-568,884,16992.52,30.60,-1.00,-1.0,2373
5381,1530381,17068,-604,876,17101.13,30.60,-1.00,-1.0,2368
5383,1530383,17096,-560,976,17132.99,30.55,-1.00,-1.0,2432
5386,1530386,17004,-680,992,17046.48,30.60,-1.00,-1.0,2369
5391,1530391,17040,-556,788,17067.27,30.60,-1.00,-1.0,2440
5394,1530394,17092,-584,772,17119.39,30.60,-1.00,-1.0,2370
5397,1530397,16972,-596,848,17003.62,30.60,-1.00,-1.0,2425
5400,1530400,17052,-524,820,17079.74,30.51,-1.00,-1.0,2367
5402,1530402,17064,-544,884,17095.54,30.60,-1.00,-1.0,2423
5405,1530405,17084,-592,900,17117.93,30.69,-1.00,-1.0,2369
5408,1530408,16992,-592,964,17029.62,30.51,-1.00,-1.0,2424
5411,1530411,17080,-472,704,17101.02,30.60,-1.00,-1.0,2368
5413,1530413,17008,-616,836,17039.67,30.65,-1.00,-1.0,2368
5418,1530418,17004,-624,972,17043.19,30.60,-1.00,-1.0,2440
5421,1530421,17064,-532,876,17094.75,30.60,-1.00,-1.0,2368
5424,1530424,17016,-604,920,17051.55,30.65,-1.00,-1.0,2431
5427,1530427,17036,-660,920,17073.58,30.51,-1.00,-1.0,2367
5429,1530429,17140,-668,876,17175.37,30.55,-1.00,-1.0,2424
5432,1530432,16984,-580,920,17018.79,30.60,-1.00,-1.0,2369
5435,1530435,17100,-680,864,17135.31,30.65,-1.00,-1.0,2428
5438,1530438,16972,-600,860,17004.36,30.60,-1.00,-1.0,2369
5442,1530442,17000,-568,964,17036.78,30.55,-1.00,-1.0,2450
5445,1530445,17112,-632,756,17140.35,30.65,-1.00,-1.0,2374
5448,1530448,17060,-640,880,17094.67,30.55,-1.00,-1.0,2426
5451,1530451,17008,-640,828,17040.17,30.55,-1.00,-1.0,2371
5453,1530453,16988,-564,1060,17030.38,30.60,-1.00,-1.0,2366
5456,1530456,17004,-616,904,17039.15,30.60,-1.00,-1.0,2422
5459,1530459,16996,-592,940,17032.27,30.60,-1.00,-1.0,2368
5462,1530462,17032,-664,768,17062.23,30.60,-1.00,-1.0,2422
5464,1530464,16988,-644,848,17021.34,30.74,-1.00,-1.0,2378
5469,1530469,17048,-584,868,17080.07,30.65,-1.00,-1.0,2440
5472,1530472,16992,-652,796,17023.12,30.65,-1.00,-1.0,2377
5475,1530475,17020,-620,804,17050.26,30.60,-1.00,-1.0,2469
5478,1530478,17000,-580,916,17034.54,30.60,-1.00,-1.0,2369
5480,1530480,17092,-636,820,17123.47,30.55,-1.00,-1.0,2423
5483,1530483,17024,-528,884,17055.11,30.51,-1.00,-1.0,2372
5486,1530486,17152,-636,912,17188.00,30.65,-1.00,-1.0,2430
5489,1530489,17044,-560,900,17076.93,30.60,-1.00,-1.0,2369
5491,1530491,17120,-568,856,17150.79,30.51,-1.00,-1.0,2373
5496,1530496,16992,-660,904,17028.82,30.60,-1.00,-1.0,2442
5499,1530499,17120,-628,856,17152.89,30.60,-1.00,-1.0,2384
5502,1530502,17032,-636,888,17066.99,30.60,-1.00,-1.0,2432
5505,1530505,17080,-648,888,17115.34,30.65,-1.00,-1.0,2373
5508,1530508,17072,-644,1028,17115.04,30.60,-1.00,-1.0,2427
5510,1530510,17056,-692,844,17090.88,30.51,-1.00,-1.0,2372
5513,1530513,17096,-676,916,17133.86,30.60,-1.00,-1.0,2423
5516,1530516,17032,-604,852,17063.99,30.60,-1.00,-1.0,2371
5521,1530521,17016,-652,864,17050.39,30.65,-1.00,-1.0,2436
5523,1530523,17072,-684,744,17101.89,30.60,-1.00,-1.0,2374
5526,1530526,17012,-644,960,17051.23,30.60,-1.00,-1.0,2440
5529,1530529,17088,-688,784,17119.80,30.60,-1.00,-1.0,2373
5532,1530532,16956,-592,932,16991.91,30.55,-1.00,-1.0,2368
5534,1530534,16992,-556,992,17030.01,30.65,-1.00,-1.0,2426
5537,1530537,17040,-520,696,17062.13,30.55,-1.00,-1.0,2370
5540,1530540,17060,-464,856,17087.76,30.55,-1.00,-1.0,2429
5543,1530543,17020,-504,772,17044.95,30.55,-1.00,-1.0,2369
5548,1530548,17052,-560,768,17078.47,30.65,-1.00,-1.0,2433
5550,1530550,17024,-664,852,17058.23,30.60,-1.00,-1.0,2369
5553,1530553,17028,-584,952,17064.59,30.55,-1.00,-1.0,2431
5556,1530556,17076,-548,904,17108.69,30.65,-1.00,-1.0,2368
5559,1530559,17000,-572,960,17036.69,30.55,-1.00,-1.0,2423
5561,1530561,17000,-528,888,17031.36,30.55,-1.00,-1.0,2370
5564,1530564,17048,-596,756,17075.16,30.55,-1.00,-1.0,2426
5567,1530567,17052,-632,684,17077.41,30.65,-1.00,-1.0,2368
5570,1530570,17012,-592,820,17042.04,30.65,-1.00,-1.0,2368
5575,1530575,17084,-684,760,17114.57,30.65,-1.00,-1.0,2433
5577,1530577,17004,-644,956,17043.03,30.60,-1.00,-1.0,2369
5580,1530580,17000,-636,856,17033.42,30.55,-1.00,-1.0,2417
5583,1530583,17060,-616,932,17096.54,30.69,-1.00,-1.0,2370
5586,1530586,17092,-588,820,17121.76,30.65,-1.00,-1.0,2423
5588,1530588,17140,-636,912,17176.03,30.55,-1.00,-1.0,2370
5591,1530591,16968,-612,832,16999.41,30.65,-1.00,-1.0,2423
5594,1530594,16904,-596,956,16941.50,30.55,-1.00,-1.0,2369
5599,1530599,16940,-712,776,16972.71,30.55,-1.00,-1.0,2436
5601,1530601,17008,-680,760,17038.55,30.60,-1.00,-1.0,2378
5604,1530604,16996,-668,884,17032.08,30.55,-1.00,-1.0,2431
5607,1530607,17100,-636,900,17135.47,30.65,-1.00,-1.0,2373
5610,1530610,17028,-680,804,17060.53,30.55,-1.00,-1.0,2368
5612,1530612,17052,-644,1008,17093.90,30.60,-1.00,-1.0,2427
5615,1530615,16932,-588,904,16966.31,30.60,-1.00,-1.0,2370
5618,1530618,16980,-544,832,17009.07,30.69,-1.00,-1.0,2429
5621,1530621,17092,-548,868,17122.80,30.55,-1.00,-1.0,2370
5626,1530626,17116,-568,720,17140.55,30.55,-1.00,-1.0,2433
5628,1530628,16928,-576,808,16957.06,30.55,-1.00,-1.0,2376
5631,1530631,17024,-616,1024,17065.89,30.65,-1.00,-1.0,2430
5634,1530634,17012,-596,856,17043.95,30.65,-1.00,-1.0,2372
5637,1530637,17032,-620,796,17061.86,30.46,-1.00,-1.0,2431
5640,1530640,17056,-680,740,17085.58,30.55,-1.00,-1.0,2369
5642,1530642,16976,-624,720,17002.72,30.51,-1.00,-1.0,2424
5645,1530645,17084,-676,860,17118.98,30.55,-1.00,-1.0,2370
5648,1530648,17052,-676,820,17085.08,30.60,-1.00,-1.0,2368
5652,1530652,17072,-580,804,17100.76,30.46,-1.00,-1.0,2444
5655,1530655,17080,-580,884,17112.69,30.69,-1.00,-1.0,2377
5658,1530658,17028,-644,828,17060.28,30.55,-1.00,-1.0,2418
5661,1530661,17040,-516,956,17074.60,30.60,-1.00,-1.0,2372
5663,1530663,17068,-584,856,17099.43,30.55,-1.00,-1.0,2433
5666,1530666,17016,-632,840,17048.44,30.55,-1.00,-1.0,2383
5669,1530669,17028,-556,924,17062.11,30.55,-1.00,-1.0,2424
5672,1530672,17052,-724,888,17090.45,30.55,-1.00,-1.0,2374
5676,1530676,17108,-568,868,17139.42,30.60,-1.00,-1.0,2435
5679,1530679,17004,-456,820,17029.87,30.60,-1.00,-1.0,2368
5682,1530682,17028,-616,860,17060.83,30.51,-1.00,-1.0,2433
5685,1530685,17104,-548,804,17131.65,30.65,-1.00,-1.0,2368
5687,1530687,17100,-548,744,17124.95,30.65,-1.00,-1.0,2380
5690,1530690,16972,-680,680,16999.22,30.55,-1.00,-1.0,2425
5693,1530693,17028,-604,708,17053.41,30.65,-1.00,-1.0,2376
5696,1530696,17080,-580,844,17110.67,30.55,-1.00,-1.0,2434
5699,1530699,17080,-644,732,17107.80,30.55,-1.00,-1.0,2377
5704,1530704,17036,-600,760,17063.50,30.55,-1.00,-1.0,2433
5706,1530706,17008,-600,760,17035.54,30.60,-1.00,-1.0,2371
5709,1530709,17016,-540,904,17048.55,30.55,-1.00,-1.0,2445
5712,1530712,17024,-544,808,17051.84,30.55,-1.00,-1.0,2378
5715,1530715,17088,-580,900,17121.51,30.55,-1.00,-1.0,2435
5717,1530717,17056,-668,1016,17099.29,30.65,-1.00,-1.0,2381
5720,1530720,17104,-628,808,17134.59,30.55,-1.00,-1.0,2422
5723,1530723,17088,-676,864,17123.18,30.55,-1.00,-1.0,2359
5726,1530726,17036,-552,960,17071.95,30.65,-1.00,-1.0,2369
5731,1530731,17040,-560,832,17069.49,30.55,-1.00,-1.0,2433
5733,1530733,17016,-632,912,17052.14,30.55,-1.00,-1.0,2371
5736,1530736,16964,-604,840,16995.52,30.55,-1.00,-1.0,2446
5739,1530739,17008,-648,944,17046.50,30.55,-1.00,-1.0,2377
5742,1530742,17080,-576,828,17109.76,30.65,-1.00,-1.0,2437
5744,1530744,17020,-640,916,17056.64,30.55,-1.00,-1.0,2378
5747,1530747,17108,-612,860,17140.53,30.60,-1.00,-1.0,2422
5750,1530750,16916,-540,836,16945.25,30.65,-1.00,-1.0,2372
5755,1530755,17008,-672,924,17046.33,30.55,-1.00,-1.0,2440
5758,1530758,17124,-552,876,17155.28,30.55,-1.00,-1.0,2369
5760,1530760,17192,-568,876,17223.67,30.55,-1.00,-1.0,2448
5763,1530763,17008,-552,904,17040.95,30.55,-1.00,-1.0,2376
5766,1530766,17132,-592,916,17166.68,30.60,-1.00,-1.0,2368
5769,1530769,17084,-560,956,17119.89,30.51,-1.00,-1.0,2423
5771,1530771,17008,-580,836,17038.41,30.60,-1.00,-1.0,2371
5774,1530774,17116,-632,876,17150.05,30.60,-1.00,-1.0,2424
5777,1530777,17004,-584,892,17037.39,30.60,-1.00,-1.0,2368
5782,1530782,17016,-632,832,17048.05,30.69,-1.00,-1.0,2439
5784,1530784,17076,-660,836,17109.19,30.55,-1.00,-1.0,2376
5787,1530787,17104,-516,868,17133.78,30.51,-1.00,-1.0,2431
5790,1530790,17060,-496,864,17089.06,30.60,-1.00,-1.0,2370
5793,1530793,17080,-564,684,17102.99,30.51,-1.00,-1.0,2426
5795,1530795,17072,-572,808,17100.68,30.60,-1.00,-1.0,2371
5798,1530798,16936,-572,888,16968.91,30.51,-1.00,-1.0,2422
5801,1530801,17084,-644,960,17123.07,30.51,-1.00,-1.0,2373
5804,1530804,17012,-620,912,17047.71,30.69,-1.00,-1.0,2369
5809,1530809,17000,-600,716,17025.65,30.51,-1.00,-1.0,2435
5811,1530811,16992,-532,880,17023.09,30.55,-1.00,-1.0,2377
5814,1530814,17052,-632,1020,17094.17,30.60,-1.00,-1.0,2431
5817,1530817,17000,-712,768,17032.23,30.60,-1.00,-1.0,2372
5820,1530820,16948,-596,888,16981.71,30.60,-1.00,-1.0,2424
5822,1530822,17032,-504,928,17064.71,30.69,-1.00,-1.0,2363
5825,1530825,17048,-568,964,17084.68,30.65,-1.00,-1.0,2422
5828,1530828,17108,-656,892,17143.79,30.60,-1.00,-1.0,2371
5833,1530833,16980,-580,888,17013.09,30.60,-1.00,-1.0,2436
5836,1530836,17064,-588,780,17091.94,30.60,-1.00,-1.0,2376
5838,1530838,17076,-636,876,17110.28,30.60,-1.00,-1.0,2438
5841,1530841,17092,-532,892,17123.53,30.60,-1.00,-1.0,2378
5844,1530844,17040,-548,840,17069.49,30.55,-1.00,-1.0,2368
5847,1530847,17020,-516,868,17049.93,30.55,-1.00,-1.0,2424
5849,1530849,16996,-644,880,17030.95,30.55,-1.00,-1.0,2370
5852,1530852,17124,-680,768,17154.70,30.55,-1.00,-1.0,2423
5855,1530855,16968,-576,916,17002.47,30.65,-1.00,-1.0,2380
5862,1530862,17056,-628,984,17095.90,30.51,-1.00,-1.0,2432
5864,1530864,17080,-592,1012,17120.19,30.55,-1.00,-1.0,2374
5867,1530867,17092,-660,756,17121.44,30.60,-1.00,-1.0,2446
5870,1530870,16956,-608,924,16992.04,30.60,-1.00,-1.0,2379
5873,1530873,17008,-708,748,17039.16,30.60,-1.00,-1.0,2438
5875,1530875,17036,-636,848,17068.95,30.60,-1.00,-1.0,2378
5878,1530878,17140,-600,888,17173.47,30.60,-1.00,-1.0,2429
5881,1530881,17052,-600,800,17081.30,30.60,-1.00,-1.0,2374
5884,1530884,16940,-552,944,16975.26,30.65,-1.00,-1.0,2371
5888,1530888,17020,-552,908,17053.14,30.55,-1.00,-1.0,2432
5891,1530891,16984,-552,820,17012.74,30.69,-1.00,-1.0,2358
5894,1530894,17008,-516,976,17043.79,30.65,-1.00,-1.0,2430
5896,1530896,17032,-664,816,17064.46,30.60,-1.00,-1.0,2377
5899,1530899,16972,-696,820,17006.05,30.65,-1.00,-1.0,2423
5902,1530902,16984,-636,844,17016.85,30.55,-1.00,-1.0,2370
5905,1530905,16916,-584,908,16950.42,30.55,-1.00,-1.0,2422
5907,1530907,16912,-604,808,16942.06,30.55,-1.00,-1.0,2357
5912,1530912,17048,-640,876,17082.48,30.60,-1.00,-1.0,2443
5915,1530915,17044,-572,908,17077.75,30.51,-1.00,-1.0,2383
5918,1530918,17008,-524,780,17033.94,30.65,-1.00,-1.0,2432
5921,1530921,17096,-600,884,17129.35,30.51,-1.00,-1.0,2374
5923,1530923,17060,-608,896,17094.33,30.55,-1.00,-1.0,2354
5926,1530926,16992,-488,780,17016.89,30.60,-1.00,-1.0,2424
5929,1530929,17004,-548,812,17032.20,30.55,-1.00,-1.0,2369
5932,1530932,16952,-748,1056,17001.32,30.60,-1.00,-1.0,2422
5934,1530934,17004,-588,912,17038.59,30.46,-1.00,-1.0,2356
5939,1530939,17004,-604,920,17039.58,30.65,-1.00,-1.0,2432
5942,1530942,16996,-616,788,17025.40,30.55,-1.00,-1.0,2356
5945,1530945,17088,-628,868,17121.55,30.55,-1.00,-1.0,2431
5947,1530947,17048,-608,832,17079.12,30.55,-1.00,-1.0,2371
5950,1530950,17068,-644,952,17106.66,30.55,-1.00,-1.0,2423
5953,1530953,17080,-660,872,17114.97,30.55,-1.00,-1.0,2372
5956,1530956,17016,-660,888,17051.93,30.65,-1.00,-1.0,2422
5958,1530958,16980,-608,872,17013.24,30.55,-1.00,-1.0,2372
5961,1530961,17144,-620,916,17179.64,30.60,-1.00,-1.0,2367
5966,1530966,16988,-624,856,17020.99,30.60,-1.00,-1.0,2435
5969,1530969,16932,-676,800,16964.36,30.55,-1.00,-1.0,2369
5972,1530972,17028,-644,924,17065.21,30.60,-1.00,-1.0,2418
5974,1530974,16984,-596,1068,17027.98,30.55,-1.00,-1.0,2370
5977,1530977,16916,-640,860,16949.93,30.60,-1.00,-1.0,2423
5980,1530980,17024,-756,816,17060.30,30.65,-1.00,-1.0,2368
5983,1530983,16912,-620,1068,16957.03,30.60,-1.00,-1.0,2423
5985,1530985,17140,-676,920,17177.98,30.55,-1.00,-1.0,2370
5990,1530990,16956,-628,820,16987.43,30.65,-1.00,-1.0,2433
5993,1530993,17044,-584,856,17075.47,30.55,-1.00,-1.0,2371
5996,1530996,17068,-656,788,17098.77,30.60,-1.00,-1.0,2431
5998,1530998,17064,-648,804,17095.22,30.65,-1.00,-1.0,2355
6001,1531001,17028,-636,756,17056.63,30.51,-1.00,-1.0,2366
6004,1531004,17076,-628,820,17107.21,30.60,-1.00,-1.0,2430
6007,1531007,16928,-620,904,16963.46,30.51,-1.00,-1.0,2368
6009,1531009,17056,-492,804,17082.03,30.55,-1.00,-1.0,2428
6012,1531012,17024,-692,848,17059.15,30.51,-1.00,-1.0,2370
6017,1531017,17028,-540,744,17052.80,30.60,-1.00,-1.0,2436
6020,1531020,17068,-632,816,17099.18,30.60,-1.00,-1.0,2374
6023,1531023,17028,-556,976,17065.01,30.60,-1.00,-1.0,2431
6025,1531025,17004,-660,808,17035.98,30.60,-1.00,-1.0,2370
6028,1531028,17120,-656,940,17158.33,30.60,-1.00,-1.0,2424
6031,1531031,17088,-632,972,17127.29,30.60,-1.00,-1.0,2370
6034,1531034,17012,-736,804,17046.88,30.60,-1.00,-1.0,2422
6036,1531036,17020,-584,752,17046.61,30.51,-1.00,-1.0,2370
6039,1531039,17016,-604,1000,17056.06,30.55,-1.00,-1.0,2370
6044,1531044,17132,-592,800,17160.88,30.65,-1.00,-1.0,2439
6047,1531047,16940,-604,908,16975.07,30.60,-1.00,-1.0,2368
6049,1531049,17124,-604,956,17161.30,30.55,-1.00,-1.0,2445
6052,1531052,17020,-612,912,17055.40,30.65,-1.00,-1.0,2380
6055,1531055,17068,-508,612,17086.52,30.65,-1.00,-1.0,2413
6058,1531058,17040,-636,836,17072.35,30.65,-1.00,-1.0,2374
6060,1531060,16968,-636,1036,17011.49,30.55,-1.00,-1.0,2431
6063,1531063,17044,-596,772,17071.88,30.55,-1.00,-1.0,2384
6068,1531068,16988,-556,824,17017.06,30.65,-1.00,-1.0,2447
6071,1531071,16952,-672,964,16992.68,30.65,-1.00,-1.0,2375
6074,1531074,16964,-528,792,16990.68,30.60,-1.00,-1.0,2444
6076,1531076,17080,-680,884,17116.37,30.55,-1.00,-1.0,2378
6079,1531079,17048,-692,772,17079.49,30.69,-1.00,-1.0,2370
6082,1531082,17044,-616,788,17073.32,30.46,-1.00,-1.0,2430
6085,1531085,17060,-560,940,17095.05,30.51,-1.00,-1.0,2368
6087,1531087,17124,-628,704,17149.97,30.55,-1.00,-1.0,2423
6090,1531090,17036,-548,880,17067.51,30.60,-1.00,-1.0,2370
6095,1531095,17192,-484,880,17221.31,30.60,-1.00,-1.0,2439
6097,1531097,16972,-600,848,17003.76,30.55,-1.00,-1.0,2379
6100,1531100,17008,-600,868,17040.70,30.60,-1.00,-1.0,2430
6103,1531103,17032,-636,892,17067.20,30.60,-1.00,-1.0,2371
6106,1531106,17004,-560,976,17041.19,30.51,-1.00,-1.0,2423
6108,1531108,16976,-652,784,17006.60,30.60,-1.00,-1.0,2377
6111,1531111,17008,-528,948,17042.58,30.60,-1.00,-1.0,2423
6114,1531114,16884,-532,828,16912.66,30.60,-1.00,-1.0,2371
6117,1531117,17028,-676,812,17060.75,30.74,-1.00,-1.0,2355
