timestamp_ms,global_ms,accel_x,accel_y,accel_z,accel_mag,temp_c,voltage,soc,loop_us
2,1220002,16972,-616,900,17007.01,30.46,-1.00,-1.0,2486
9,1220009,17072,-544,892,17103.94,30.46,-1.00,-1.0,2452
11,1220011,17036,-544,896,17068.22,30.46,-1.00,-1.0,2371
14,1220014,17008,-588,852,17039.47,30.60,-1.00,-1.0,2366
17,1220017,17084,-576,844,17114.53,30.46,-1.00,-1.0,2425
19,1220019,17096,-532,976,17132.10,30.51,-1.00,-1.0,2366
22,1220022,17060,-548,872,17091.06,30.46,-1.00,-1.0,2423
25,1220025,17048,-616,784,17077.13,30.51,-1.00,-1.0,2365
28,1220028,17052,-680,884,17088.43,30.46,-1.00,-1.0,2424
30,1220030,17080,-520,860,17109.54,30.60,-1.00,-1.0,2371
35,1220035,17036,-612,888,17070.10,30.41,-1.00,-1.0,2455
38,1220038,16984,-644,996,17025.36,30.41,-1.00,-1.0,2376
41,1220041,17104,-604,852,17135.86,30.46,-1.00,-1.0,2365
43,1220043,17052,-564,832,17081.60,30.46,-1.00,-1.0,2427
46,1220046,17100,-632,944,17137.69,30.55,-1.00,-1.0,2373
49,1220049,16988,-564,912,17021.81,30.46,-1.00,-1.0,2429
52,1220052,16984,-584,880,17016.81,30.46,-1.00,-1.0,2367
54,1220054,16988,-680,892,17024.99,30.46,-1.00,-1.0,2422
57,1220057,17032,-484,828,17058.98,30.46,-1.00,-1.0,2368
62,1220062,17140,-636,1012,17181.62,30.46,-1.00,-1.0,2450
65,1220065,17000,-592,944,17036.48,30.46,-1.00,-1.0,2416
68,1220068,17052,-648,860,17085.96,30.51,-1.00,-1.0,2439
71,1220071,16992,-548,944,17027.02,30.41,-1.00,-1.0,2376
73,1220073,17056,-608,904,17090.76,30.55,-1.00,-1.0,2367
76,1220076,17052,-556,840,17081.73,30.46,-1.00,-1.0,2419
79,1220079,17024,-616,952,17061.72,30.46,-1.00,-1.0,2371
82,1220082,17004,-584,904,17038.03,30.46,-1.00,-1.0,2416
84,1220084,17124,-644,836,17156.49,30.46,-1.00,-1.0,2372
89,1220089,17088,-592,932,17123.63,30.55,-1.00,-1.0,2435
92,1220092,16996,-668,840,17029.85,30.51,-1.00,-1.0,2373
95,1220095,17104,-556,1040,17144.61,30.46,-1.00,-1.0,2438
97,1220097,16956,-628,864,16989.61,30.46,-1.00,-1.0,2373
100,1220100,17064,-620,940,17101.11,30.41,-1.00,-1.0,2365
103,1220103,17032,-628,772,17061.05,30.41,-1.00,-1.0,2425
106,1220106,17016,-592,748,17042.72,30.51,-1.00,-1.0,2366
108,1220108,17040,-536,908,17072.59,30.41,-1.00,-1.0,2423
111,1220111,17028,-540,836,17057.06,30.51,-1.00,-1.0,2367
116,1220116,16952,-696,912,16990.78,30.55,-1.00,-1.0,2427
119,1220119,17080,-568,796,17107.97,30.46,-1.00,-1.0,2372
122,1220122,17028,-596,940,17064.34,30.51,-1.00,-1.0,2433
124,1220124,17040,-588,888,17073.25,30.55,-1.00,-1.0,2368
127,1220127,17060,-604,880,17093.36,30.41,-1.00,-1.0,2361
130,1220130,17084,-596,820,17114.05,30.46,-1.00,-1.0,2424
132,1220132,16996,-540,804,17023.57,30.41,-1.00,-1.0,2371
135,1220135,17012,-592,916,17046.93,30.46,-1.00,-1.0,2436
138,1220138,17028,-596,896,17061.97,30.51,-1.00,-1.0,2377
143,1220143,17096,-592,888,17129.28,30.51,-1.00,-1.0,2431
146,1220146,17052,-520,828,17080.01,30.51,-1.00,-1.0,2371
148,1220148,17000,-592,924,17035.38,30.51,-1.00,-1.0,2434
151,1220151,17092,-636,912,17128.13,30.51,-1.00,-1.0,2367
154,1220154,16980,-640,860,17013.81,30.46,-1.00,-1.0,2429
157,1220157,17108,-692,996,17150.93,30.41,-1.00,-1.0,2354
159,1220159,17060,-536,912,17092.77,30.46,-1.00,-1.0,2380
162,1220162,17104,-584,948,17140.20,30.46,-1.00,-1.0,2423
165,1220165,17040,-588,840,17070.82,30.46,-1.00,-1.0,2375
170,1220170,17036,-644,836,17068.65,30.55,-1.00,-1.0,2424
172,1220172,17056,-604,868,17088.75,30.51,-1.00,-1.0,2373
175,1220175,17008,-584,908,17042.23,30.46,-1.00,-1.0,2449
178,1220178,16952,-636,836,16984.51,30.46,-1.00,-1.0,2376
181,1220181,17156,-504,1044,17195.12,30.46,-1.00,-1.0,2432
183,1220183,17132,-484,864,17160.60,30.46,-1.00,-1.0,2377
186,1220186,17040,-584,936,17075.68,30.46,-1.00,-1.0,2428
189,1220189,17112,-568,788,17139.55,30.46,-1.00,-1.0,2370
192,1220192,17016,-612,760,17043.96,30.51,-1.00,-1.0,2367
197,1220197,17072,-612,836,17103.41,30.51,-1.00,-1.0,2425
199,1220199,17072,-612,824,17102.83,30.46,-1.00,-1.0,2377
202,1220202,17020,-556,896,17052.63,30.60,-1.00,-1.0,2434
205,1220205,16992,-592,1048,17034.58,30.51,-1.00,-1.0,2366
208,1220208,17020,-564,868,17051.45,30.60,-1.00,-1.0,2421
210,1220210,17028,-496,920,17060.05,30.46,-1.00,-1.0,2367
213,1220213,17016,-664,932,17054.44,30.51,-1.00,-1.0,2421
216,1220216,16956,-616,796,16985.85,30.51,-1.00,-1.0,2368
221,1220221,16924,-668,964,16964.59,30.51,-1.00,-1.0,2423
223,1220223,17112,-580,880,17144.43,30.55,-1.00,-1.0,2371
226,1220226,17164,-676,828,17197.25,30.46,-1.00,-1.0,2372
229,1220229,16992,-660,980,17033.03,30.46,-1.00,-1.0,2445
231,1220231,17028,-692,872,17064.35,30.46,-1.00,-1.0,2370
234,1220234,17036,-640,1016,17078.27,30.46,-1.00,-1.0,2431
237,1220237,16916,-560,972,16953.15,30.37,-1.00,-1.0,2375
240,1220240,17020,-632,800,17050.51,30.51,-1.00,-1.0,2429
242,1220242,17032,-592,832,17062.58,30.37,-1.00,-1.0,2376
247,1220247,17096,-576,976,17133.52,30.46,-1.00,-1.0,2423
250,1220250,17080,-568,780,17107.23,30.51,-1.00,-1.0,2367
253,1220253,17008,-604,928,17044.00,30.55,-1.00,-1.0,2435
255,1220255,17016,-564,832,17045.66,30.55,-1.00,-1.0,2364
258,1220258,17052,-668,904,17089.01,30.46,-1.00,-1.0,2373
261,1220261,17092,-708,748,17123.00,30.60,-1.00,-1.0,2434
263,1220263,17012,-732,828,17047.86,30.51,-1.00,-1.0,2374
266,1220266,17052,-492,884,17081.99,30.51,-1.00,-1.0,2420
269,1220269,17148,-588,848,17179.02,30.37,-1.00,-1.0,2370
274,1220274,17060,-584,920,17094.77,30.46,-1.00,-1.0,2439
277,1220277,17084,-676,940,17123.19,30.55,-1.00,-1.0,2380
280,1220280,17120,-608,896,17154.21,30.41,-1.00,-1.0,2447
282,1220282,17008,-592,952,17044.91,30.51,-1.00,-1.0,2375
285,1220285,17056,-612,856,17088.43,30.41,-1.00,-1.0,2421
288,1220288,17096,-708,920,17135.37,30.60,-1.00,-1.0,2369
291,1220291,17028,-668,936,17066.78,30.55,-1.00,-1.0,2367
293,1220293,17048,-652,1028,17091.41,30.55,-1.00,-1.0,2423
296,1220296,17096,-668,856,17130.45,30.51,-1.00,-1.0,2370
301,1220301,17012,-632,880,17046.46,30.51,-1.00,-1.0,2432
304,1220304,17008,-620,800,17038.09,30.51,-1.00,-1.0,2373
307,1220307,16984,-540,1008,17022.45,30.41,-1.00,-1.0,2440
309,1220309,16976,-496,892,17006.65,30.51,-1.00,-1.0,2373
312,1220312,17088,-568,940,17123.26,30.46,-1.00,-1.0,2421
315,1220315,17012,-636,976,17051.84,30.51,-1.00,-1.0,2367
318,1220318,17016,-608,868,17048.97,30.37,-1.00,-1.0,2420
320,1220320,17008,-668,804,17040.09,30.51,-1.00,-1.0,2372
323,1220323,16984,-508,1000,17021.00,30.46,-1.00,-1.0,2364
328,1220328,16980,-564,788,17007.63,30.51,-1.00,-1.0,2429
331,1220331,17120,-532,756,17144.94,30.51,-1.00,-1.0,2358
334,1220334,17020,-604,988,17059.35,30.46,-1.00,-1.0,2441
336,1220336,17076,-636,808,17106.93,30.51,-1.00,-1.0,2373
339,1220339,16984,-640,720,17011.30,30.46,-1.00,-1.0,2420
342,1220342,17000,-588,876,17032.71,30.51,-1.00,-1.0,2371
345,1220345,17040,-548,820,17068.52,30.55,-1.00,-1.0,2421
347,1220347,17052,-584,968,17089.44,30.46,-1.00,-1.0,2374
352,1220352,16968,-560,964,17004.59,30.51,-1.00,-1.0,2431
355,1220355,17172,-512,1096,17214.56,30.60,-1.00,-1.0,2386
358,1220358,17060,-692,832,17094.29,30.46,-1.00,-1.0,2366
361,1220361,17120,-580,792,17148.12,30.51,-1.00,-1.0,2433
363,1220363,17136,-532,860,17165.81,30.46,-1.00,-1.0,2369
366,1220366,16956,-572,892,16989.08,30.46,-1.00,-1.0,2420
369,1220369,17032,-648,840,17065.01,30.46,-1.00,-1.0,2375
372,1220372,17088,-656,928,17125.75,30.51,-1.00,-1.0,2421
374,1220374,17056,-660,816,17088.26,30.46,-1.00,-1.0,2367
379,1220379,17060,-464,836,17086.77,30.55,-1.00,-1.0,2424
382,1220382,17072,-552,836,17101.37,30.46,-1.00,-1.0,2371
385,1220385,17000,-604,844,17031.65,30.51,-1.00,-1.0,2441
388,1220388,17108,-524,896,17139.46,30.46,-1.00,-1.0,2365
390,1220390,17048,-656,968,17088.06,30.51,-1.00,-1.0,2372
393,1220393,17100,-552,920,17133.62,30.55,-1.00,-1.0,2425
396,1220396,17072,-572,944,17107.64,30.46,-1.00,-1.0,2412
399,1220399,17048,-680,792,17079.93,30.51,-1.00,-1.0,2429
401,1220401,16952,-576,936,16987.59,30.51,-1.00,-1.0,2375
406,1220406,17064,-556,1004,17102.55,30.60,-1.00,-1.0,2426
409,1220409,17036,-552,988,17073.55,30.46,-1.00,-1.0,2373
412,1220412,17040,-684,756,17070.47,30.60,-1.00,-1.0,2442
415,1220415,17004,-592,828,17034.44,30.51,-1.00,-1.0,2366
417,1220417,17024,-680,824,17057.49,30.51,-1.00,-1.0,2427
420,1220420,17008,-640,880,17042.77,30.60,-1.00,-1.0,2369
423,1220423,17088,-516,936,17121.39,30.46,-1.00,-1.0,2367
426,1220426,16996,-632,964,17035.04,30.55,-1.00,-1.0,2424
428,1220428,17100,-672,940,17139.00,30.60,-1.00,-1.0,2370
433,1220433,17028,-692,712,17056.92,30.55,-1.00,-1.0,2438
436,1220436,17096,-656,780,17126.35,30.46,-1.00,-1.0,2380
439,1220439,17048,-660,880,17083.45,30.46,-1.00,-1.0,2441
441,1220441,17092,-548,776,17118.38,30.46,-1.00,-1.0,2375
444,1220444,16976,-608,852,17008.24,30.55,-1.00,-1.0,2421
447,1220447,17056,-628,980,17095.67,30.46,-1.00,-1.0,2368
450,1220450,17004,-596,1004,17044.04,30.51,-1.00,-1.0,2366
452,1220452,17044,-652,896,17079.98,30.55,-1.00,-1.0,2431
455,1220455,17032,-676,860,17067.09,30.51,-1.00,-1.0,2371
460,1220460,17000,-632,1036,17043.26,30.46,-1.00,-1.0,2422
463,1220463,17140,-724,772,17172.65,30.46,-1.00,-1.0,2372
466,1220466,17008,-648,856,17041.85,30.51,-1.00,-1.0,2433
468,1220468,17020,-588,896,17053.71,30.51,-1.00,-1.0,2368
471,1220471,17028,-596,908,17062.60,30.41,-1.00,-1.0,2422
474,1220474,16968,-636,868,17002.09,30.51,-1.00,-1.0,2367
477,1220477,17144,-684,940,17183.37,30.51,-1.00,-1.0,2420
479,1220479,16980,-560,940,17015.22,30.55,-1.00,-1.0,2378
482,1220482,17052,-572,796,17080.15,30.55,-1.00,-1.0,2378
488,1220488,17036,-668,836,17069.58,30.51,-1.00,-1.0,2422
490,1220490,17052,-620,772,17080.72,30.41,-1.00,-1.0,2359
493,1220493,17012,-596,780,17040.30,30.46,-1.00,-1.0,2432
496,1220496,16980,-604,852,17012.09,30.60,-1.00,-1.0,2380
499,1220499,17124,-668,868,17158.99,30.46,-1.00,-1.0,2421
501,1220501,17072,-676,920,17110.13,30.51,-1.00,-1.0,2368
504,1220504,17080,-544,952,17115.16,30.46,-1.00,-1.0,2421
507,1220507,17148,-600,992,17187.14,30.41,-1.00,-1.0,2376
512,1220512,17064,-680,784,17095.53,30.41,-1.00,-1.0,2422
515,1220515,17052,-660,1016,17094.99,30.60,-1.00,-1.0,2375
517,1220517,17000,-556,836,17029.62,30.46,-1.00,-1.0,2365
520,1220520,17028,-648,948,17066.68,30.55,-1.00,-1.0,2439
523,1220523,17100,-664,876,17135.29,30.46,-1.00,-1.0,2367
525,1220525,17040,-604,856,17072.17,30.46,-1.00,-1.0,2430
528,1220528,17048,-556,704,17071.59,30.55,-1.00,-1.0,2376
531,1220531,17040,-584,844,17070.88,30.46,-1.00,-1.0,2424
534,1220534,17088,-676,940,17127.18,30.46,-1.00,-1.0,2368
539,1220539,17052,-712,916,17091.42,30.60,-1.00,-1.0,2409
541,1220541,17152,-608,876,17185.11,30.51,-1.00,-1.0,2372
544,1220544,17020,-684,1024,17064.49,30.46,-1.00,-1.0,2433
547,1220547,17060,-700,964,17101.55,30.51,-1.00,-1.0,2376
549,1220549,16964,-548,884,16995.85,30.46,-1.00,-1.0,2377
552,1220552,17036,-560,820,17064.91,30.51,-1.00,-1.0,2421
555,1220555,17080,-608,928,17115.99,30.55,-1.00,-1.0,2357
558,1220558,17060,-536,740,17084.45,30.51,-1.00,-1.0,2431
560,1220560,16984,-568,948,17019.92,30.51,-1.00,-1.0,2356
565,1220565,17024,-544,844,17053.59,30.51,-1.00,-1.0,2431
568,1220568,17124,-584,824,17153.76,30.46,-1.00,-1.0,2375
571,1220571,17012,-524,844,17040.98,30.51,-1.00,-1.0,2434
574,1220574,17028,-528,932,17061.66,30.51,-1.00,-1.0,2372
577,1220577,17068,-692,644,17094.16,30.51,-1.00,-1.0,2428
579,1220579,16940,-576,736,16965.76,30.51,-1.00,-1.0,2372
582,1220582,17000,-632,900,17035.53,30.41,-1.00,-1.0,2366
585,1220585,16988,-692,1000,17031.47,30.46,-1.00,-1.0,2421
588,1220588,16968,-712,808,17002.14,30.60,-1.00,-1.0,2369
593,1220593,16992,-616,844,17024.10,30.51,-1.00,-1.0,2429
595,1220595,17112,-584,956,17148.63,30.51,-1.00,-1.0,2384
598,1220598,17096,-572,928,17130.72,30.55,-1.00,-1.0,2421
601,1220601,16960,-624,876,16994.07,30.51,-1.00,-1.0,2367
604,1220604,17028,-668,992,17069.95,30.55,-1.00,-1.0,2422
606,1220606,16924,-584,880,16956.92,30.41,-1.00,-1.0,2369
609,1220609,17032,-640,820,17063.73,30.46,-1.00,-1.0,2408
612,1220612,16972,-684,860,17007.54,30.51,-1.00,-1.0,2368
615,1220615,17064,-652,888,17099.53,30.55,-1.00,-1.0,2366
620,1220620,17020,-544,932,17054.18,30.51,-1.00,-1.0,2409
622,1220622,17028,-688,904,17065.85,30.51,-1.00,-1.0,2380
625,1220625,17004,-716,992,17047.95,30.55,-1.00,-1.0,2434
628,1220628,17044,-596,900,17078.15,30.51,-1.00,-1.0,2367
631,1220631,17064,-616,912,17099.45,30.46,-1.00,-1.0,2421
633,1220633,17072,-632,892,17106.96,30.41,-1.00,-1.0,2368
636,1220636,16976,-604,904,17010.78,30.55,-1.00,-1.0,2422
639,1220639,16984,-620,1008,17025.18,30.41,-1.00,-1.0,2367
644,1220644,17040,-664,880,17075.62,30.55,-1.00,-1.0,2422
646,1220646,17080,-584,904,17113.87,30.46,-1.00,-1.0,2372
649,1220649,16996,-672,956,17036.12,30.46,-1.00,-1.0,2367
652,1220652,17020,-600,996,17059.67,30.55,-1.00,-1.0,2458
655,1220655,17140,-592,992,17178.89,30.55,-1.00,-1.0,2370
657,1220657,17080,-652,852,17113.66,30.46,-1.00,-1.0,2424
660,1220660,17104,-600,828,17134.54,30.46,-1.00,-1.0,2369
663,1220663,17128,-548,868,17158.73,30.55,-1.00,-1.0,2430
666,1220666,17052,-636,836,17084.32,30.37,-1.00,-1.0,2369
670,1220670,17136,-600,824,17166.29,30.46,-1.00,-1.0,2428
673,1220673,17124,-548,920,17157.45,30.51,-1.00,-1.0,2368
676,1220676,16992,-600,904,17026.61,30.46,-1.00,-1.0,2436
679,1220679,17112,-544,808,17139.70,30.46,-1.00,-1.0,2372
681,1220681,17104,-600,900,17138.17,30.60,-1.00,-1.0,2367
684,1220684,17088,-588,932,17123.50,30.51,-1.00,-1.0,2429
687,1220687,17060,-644,916,17096.71,30.41,-1.00,-1.0,2371
690,1220690,16964,-688,920,17002.85,30.51,-1.00,-1.0,2433
693,1220693,17032,-520,896,17063.48,30.51,-1.00,-1.0,2369
698,1220698,17080,-540,924,17113.50,30.41,-1.00,-1.0,2415
700,1220700,17116,-480,928,17147.86,30.37,-1.00,-1.0,2372
703,1220703,17076,-556,852,17106.28,30.51,-1.00,-1.0,2435
706,1220706,17052,-620,860,17084.93,30.46,-1.00,-1.0,2378
709,1220709,17000,-600,768,17027.91,30.51,-1.00,-1.0,2421
711,1220711,17036,-704,1028,17081.50,30.51,-1.00,-1.0,2373
714,1220714,17000,-644,784,17030.25,30.51,-1.00,-1.0,2370
717,1220717,17160,-580,832,17189.95,30.46,-1.00,-1.0,2430
720,1220720,17112,-636,860,17145.40,30.51,-1.00,-1.0,2372
725,1220725,17100,-556,860,17130.64,30.51,-1.00,-1.0,2427
727,1220727,17056,-544,696,17078.86,30.60,-1.00,-1.0,2365
730,1220730,16972,-640,856,17005.62,30.51,-1.00,-1.0,2434
733,1220733,17052,-540,792,17078.92,30.51,-1.00,-1.0,2377
736,1220736,17048,-600,876,17081.03,30.51,-1.00,-1.0,2424
738,1220738,16984,-572,936,17019.39,30.41,-1.00,-1.0,2372
741,1220741,17088,-572,1000,17126.79,30.46,-1.00,-1.0,2437
744,1220744,17108,-564,840,17137.89,30.51,-1.00,-1.0,2379
747,1220747,17024,-544,916,17057.30,30.46,-1.00,-1.0,2370
752,1220752,17092,-600,928,17127.69,30.46,-1.00,-1.0,2427
754,1220754,17020,-592,968,17057.78,30.41,-1.00,-1.0,2369
757,1220757,17032,-708,828,17066.81,30.46,-1.00,-1.0,2449
760,1220760,16972,-572,836,17002.20,30.46,-1.00,-1.0,2377
763,1220763,16972,-620,964,17010.66,30.46,-1.00,-1.0,2436
765,1220765,17036,-600,1032,17077.77,30.55,-1.00,-1.0,2378
768,1220768,16984,-568,932,17019.03,30.46,-1.00,-1.0,2422
771,1220771,17120,-592,1008,17159.86,30.46,-1.00,-1.0,2372
776,1220776,17124,-664,852,17158.04,30.46,-1.00,-1.0,2434
779,1220779,16968,-640,968,17007.63,30.51,-1.00,-1.0,2368
781,1220781,16968,-544,992,17005.68,30.46,-1.00,-1.0,2353
784,1220784,17080,-580,860,17111.47,30.51,-1.00,-1.0,2434
787,1220787,17048,-516,820,17075.51,30.46,-1.00,-1.0,2369
790,1220790,17104,-656,884,17139.39,30.41,-1.00,-1.0,2422
792,1220792,16992,-640,972,17031.81,30.46,-1.00,-1.0,2369
795,1220795,16932,-628,948,16970.14,30.41,-1.00,-1.0,2422
798,1220798,17080,-588,912,17114.44,30.46,-1.00,-1.0,2368
803,1220803,17036,-656,932,17074.08,30.46,-1.00,-1.0,2433
805,1220805,17016,-564,808,17044.51,30.46,-1.00,-1.0,2377
808,1220808,17036,-632,924,17072.74,30.41,-1.00,-1.0,2366
811,1220811,16952,-560,992,16990.23,30.51,-1.00,-1.0,2442
814,1220814,16964,-580,960,17001.04,30.41,-1.00,-1.0,2369
816,1220816,17000,-604,748,17027.16,30.55,-1.00,-1.0,2422
819,1220819,17084,-604,928,17119.84,30.41,-1.00,-1.0,2369
822,1220822,17132,-648,876,17166.62,30.55,-1.00,-1.0,2425
825,1220825,17080,-648,940,17118.12,30.46,-1.00,-1.0,2368
830,1220830,16996,-600,828,17026.73,30.46,-1.00,-1.0,2429
832,1220832,17008,-660,924,17045.86,30.55,-1.00,-1.0,2377
835,1220835,16968,-716,804,17002.12,30.41,-1.00,-1.0,2436
838,1220838,17044,-624,880,17078.11,30.51,-1.00,-1.0,2374
841,1220841,17036,-616,864,17069.01,30.51,-1.00,-1.0,2367
843,1220843,16948,-604,852,16980.15,30.46,-1.00,-1.0,2422
846,1220846,17036,-588,800,17064.91,30.46,-1.00,-1.0,2369
849,1220849,17008,-544,776,17034.38,30.46,-1.00,-1.0,2431
852,1220852,17112,-568,900,17145.06,30.51,-1.00,-1.0,2368
857,1220857,17052,-632,860,17085.37,30.55,-1.00,-1.0,2428
859,1220859,17040,-688,864,17075.76,30.51,-1.00,-1.0,2368
862,1220862,17004,-528,992,17041.09,30.46,-1.00,-1.0,2434
865,1220865,16984,-544,852,17014.06,30.55,-1.00,-1.0,2378
868,1220868,16988,-552,1068,17030.49,30.55,-1.00,-1.0,2422
870,1220870,16976,-668,908,17013.38,30.46,-1.00,-1.0,2369
873,1220873,17184,-624,824,17215.06,30.51,-1.00,-1.0,2370
876,1220876,17032,-632,940,17069.62,30.55,-1.00,-1.0,2429
879,1220879,17008,-548,876,17039.36,30.55,-1.00,-1.0,2368
884,1220884,17100,-612,952,17137.41,30.51,-1.00,-1.0,2434
886,1220886,17112,-664,856,17146.26,30.51,-1.00,-1.0,2375
889,1220889,17060,-568,1008,17099.19,30.51,-1.00,-1.0,2435
892,1220892,17080,-556,932,17114.44,30.51,-1.00,-1.0,2371
895,1220895,17024,-680,860,17059.27,30.51,-1.00,-1.0,2421
897,1220897,17080,-532,884,17111.13,30.51,-1.00,-1.0,2369
900,1220900,16988,-608,932,17024.41,30.51,-1.00,-1.0,2421
903,1220903,17012,-568,756,17038.26,30.46,-1.00,-1.0,2375
906,1220906,17036,-624,912,17071.80,30.55,-1.00,-1.0,2375
911,1220911,16988,-544,856,17018.25,30.41,-1.00,-1.0,2428
914,1220914,17008,-568,916,17042.12,30.51,-1.00,-1.0,2370
917,1220917,17004,-652,928,17041.78,30.46,-1.00,-1.0,2435
919,1220919,17012,-636,1000,17053.23,30.41,-1.00,-1.0,2371
922,1220922,17068,-640,1048,17112.12,30.46,-1.00,-1.0,2422
925,1220925,17036,-608,792,17065.23,30.51,-1.00,-1.0,2368
928,1220928,17052,-588,904,17086.07,30.46,-1.00,-1.0,2421
930,1220930,17100,-488,944,17132.99,30.41,-1.00,-1.0,2369
935,1220935,17084,-584,860,17115.60,30.51,-1.00,-1.0,2436
938,1220938,16972,-488,928,17004.36,30.41,-1.00,-1.0,2379
941,1220941,17132,-644,928,17169.20,30.46,-1.00,-1.0,2366
943,1220943,17044,-544,872,17074.96,30.46,-1.00,-1.0,2438
946,1220946,17052,-684,884,17088.59,30.46,-1.00,-1.0,2371
949,1220949,17148,-584,944,17183.89,30.46,-1.00,-1.0,2424
952,1220952,16928,-668,1064,16974.55,30.46,-1.00,-1.0,2368
954,1220954,17052,-608,1012,17092.82,30.46,-1.00,-1.0,2422
957,1220957,17124,-704,864,17160.23,30.55,-1.00,-1.0,2369
962,1220962,17020,-624,868,17053.54,30.55,-1.00,-1.0,2429
965,1220965,17076,-616,908,17111.21,30.51,-1.00,-1.0,2366
968,1220968,17060,-632,888,17094.78,30.55,-1.00,-1.0,2435
970,1220970,17056,-612,904,17090.90,30.55,-1.00,-1.0,2371
973,1220973,17072,-692,940,17111.86,30.46,-1.00,-1.0,2374
976,1220976,17096,-544,836,17125.07,30.65,-1.00,-1.0,2422
978,1220978,17020,-628,984,17059.98,30.46,-1.00,-1.0,2369
981,1220981,16992,-536,916,17025.11,30.51,-1.00,-1.0,2421
984,1220984,16956,-580,760,16982.93,30.51,-1.00,-1.0,2372
989,1220989,17004,-628,932,17041.10,30.51,-1.00,-1.0,2436
992,1220992,16992,-752,752,17025.25,30.46,-1.00,-1.0,2371
994,1220994,17084,-612,920,17119.70,30.51,-1.00,-1.0,2448
997,1220997,17028,-628,976,17067.51,30.51,-1.00,-1.0,2380
1000,1221000,17036,-500,816,17062.86,30.51,-1.00,-1.0,2409
1003,1221003,17052,-604,880,17085.37,30.51,-1.00,-1.0,2370
1005,1221005,17120,-720,996,17164.06,30.46,-1.00,-1.0,2367
1008,1221008,17060,-568,832,17089.72,30.55,-1.00,-1.0,2409
1011,1221011,17024,-628,944,17061.71,30.51,-1.00,-1.0,2367
1016,1221016,17052,-624,848,17084.47,30.51,-1.00,-1.0,2434
1019,1221019,17000,-580,932,17035.40,30.46,-1.00,-1.0,2371
1021,1221021,17132,-496,908,17163.21,30.41,-1.00,-1.0,2446
1024,1221024,17008,-652,940,17046.43,30.51,-1.00,-1.0,2378
1027,1221027,17016,-652,1016,17058.77,30.46,-1.00,-1.0,2411
1030,1221030,17148,-532,900,17179.84,30.51,-1.00,-1.0,2369
1032,1221032,17088,-556,800,17115.75,30.46,-1.00,-1.0,2432
1035,1221035,17100,-452,852,17127.18,30.51,-1.00,-1.0,2377
1040,1221040,17004,-576,848,17034.87,30.51,-1.00,-1.0,2428
1043,1221043,17024,-640,924,17061.06,30.51,-1.00,-1.0,2368
1045,1221045,16956,-568,860,16987.29,30.46,-1.00,-1.0,2376
1048,1221048,17004,-572,900,17037.41,30.46,-1.00,-1.0,2435
1051,1221051,17004,-596,824,17034.38,30.46,-1.00,-1.0,2357
1054,1221054,17072,-540,884,17103.40,30.55,-1.00,-1.0,2422
1056,1221056,17168,-604,912,17202.81,30.46,-1.00,-1.0,2379
1059,1221059,17084,-604,824,17114.52,30.46,-1.00,-1.0,2422
1062,1221062,17008,-580,864,17039.80,30.46,-1.00,-1.0,2370
1067,1221067,17076,-580,764,17102.92,30.41,-1.00,-1.0,2427
1070,1221070,16940,-724,948,16981.95,30.37,-1.00,-1.0,2370
1072,1221072,17052,-664,896,17088.43,30.41,-1.00,-1.0,2435
1075,1221075,17064,-508,944,17097.64,30.41,-1.00,-1.0,2370
1078,1221078,17004,-580,1016,17044.20,30.41,-1.00,-1.0,2429
1081,1221081,16952,-608,924,16988.05,30.46,-1.00,-1.0,2372
1083,1221083,17072,-616,788,17101.27,30.55,-1.00,-1.0,2374
1086,1221086,17044,-616,952,17081.68,30.41,-1.00,-1.0,2421
1089,1221089,16996,-616,828,17027.30,30.41,-1.00,-1.0,2368
1094,1221094,17028,-592,904,17062.25,30.46,-1.00,-1.0,2434
1096,1221096,17120,-544,808,17147.69,30.46,-1.00,-1.0,2373
1099,1221099,17000,-644,748,17028.63,30.46,-1.00,-1.0,2444
1102,1221102,16988,-716,772,17020.60,30.46,-1.00,-1.0,2358
1105,1221105,17028,-672,868,17063.35,30.46,-1.00,-1.0,2433
1107,1221107,16932,-604,1072,16976.65,30.46,-1.00,-1.0,2376
1110,1221110,17060,-564,920,17094.10,30.51,-1.00,-1.0,2421
1113,1221113,16964,-768,1012,17011.50,30.51,-1.00,-1.0,2373
1118,1221118,17092,-576,928,17126.86,30.51,-1.00,-1.0,2427
1121,1221121,17100,-644,792,17130.44,30.46,-1.00,-1.0,2368
1123,1221123,16980,-544,968,17016.27,30.51,-1.00,-1.0,2366
1126,1221126,17044,-604,912,17079.07,30.46,-1.00,-1.0,2435
1129,1221129,17120,-632,960,17158.54,30.55,-1.00,-1.0,2380
1132,1221132,17012,-660,912,17049.21,30.46,-1.00,-1.0,2426
1134,1221134,16956,-676,932,16995.04,30.46,-1.00,-1.0,2372
1137,1221137,17028,-568,936,17063.16,30.46,-1.00,-1.0,2436
1140,1221140,17056,-692,916,17094.59,30.60,-1.00,-1.0,2373
1145,1221145,16968,-632,832,17000.14,30.51,-1.00,-1.0,2427
1148,1221148,17216,-572,728,17240.88,30.41,-1.00,-1.0,2368
1151,1221151,16956,-592,932,16991.91,30.41,-1.00,-1.0,2435
1153,1221153,17064,-640,808,17095.10,30.51,-1.00,-1.0,2370
1156,1221156,17028,-624,948,17065.78,30.46,-1.00,-1.0,2421
1159,1221159,17108,-676,956,17148.02,30.51,-1.00,-1.0,2367
1161,1221161,17024,-572,1048,17065.82,30.46,-1.00,-1.0,2370
1164,1221164,17024,-592,816,17053.82,30.51,-1.00,-1.0,2437
1167,1221167,17084,-588,780,17111.90,30.46,-1.00,-1.0,2369
1172,1221172,17132,-580,844,17162.58,30.46,-1.00,-1.0,2428
1175,1221175,17036,-632,828,17067.81,30.41,-1.00,-1.0,2368
1178,1221178,17012,-620,916,17047.92,30.55,-1.00,-1.0,2436
1180,1221180,17032,-448,956,17064.69,30.55,-1.00,-1.0,2372
1183,1221183,17112,-712,1064,17159.82,30.46,-1.00,-1.0,2422
1186,1221186,17048,-676,896,17084.91,30.46,-1.00,-1.0,2376
1189,1221189,17076,-600,948,17112.82,30.46,-1.00,-1.0,2421
1191,1221191,17052,-628,908,17087.70,30.46,-1.00,-1.0,2369
1196,1221196,17072,-664,980,17112.99,30.51,-1.00,-1.0,2414
1199,1221199,16936,-664,980,16977.32,30.41,-1.00,-1.0,2370
1202,1221202,17048,-596,904,17082.35,30.46,-1.00,-1.0,2365
1204,1221204,17012,-548,896,17044.39,30.46,-1.00,-1.0,2451
1207,1221207,17072,-528,996,17109.18,30.55,-1.00,-1.0,2377
1210,1221210,17124,-544,936,17158.19,30.51,-1.00,-1.0,2424
1213,1221213,17028,-640,876,17062.53,30.46,-1.00,-1.0,2369
1215,1221215,17064,-668,840,17097.72,30.55,-1.00,-1.0,2431
1218,1221218,17068,-560,836,17097.63,30.51,-1.00,-1.0,2376
1223,1221223,16944,-572,800,16972.52,30.46,-1.00,-1.0,2427
1226,1221226,17096,-548,956,17131.48,30.37,-1.00,-1.0,2376
1229,1221229,17008,-612,1032,17050.27,30.41,-1.00,-1.0,2435
1231,1221231,16904,-612,912,16939.64,30.46,-1.00,-1.0,2373
1234,1221234,16948,-656,992,16989.68,30.41,-1.00,-1.0,2436
1237,1221237,17052,-656,824,17084.50,30.46,-1.00,-1.0,2376
1240,1221240,17040,-620,792,17069.66,30.41,-1.00,-1.0,2373
1242,1221242,17056,-608,868,17088.89,30.55,-1.00,-1.0,2422
1245,1221245,17084,-704,1052,17130.83,30.60,-1.00,-1.0,2383
1250,1221250,17040,-520,948,17074.27,30.51,-1.00,-1.0,2442
1253,1221253,16988,-552,828,17017.12,30.51,-1.00,-1.0,2377
1256,1221256,17060,-556,884,17091.93,30.51,-1.00,-1.0,2447
1258,1221258,17068,-656,840,17101.24,30.51,-1.00,-1.0,2377
1261,1221261,17036,-612,844,17067.87,30.55,-1.00,-1.0,2422
1264,1221264,16936,-560,888,16968.51,30.41,-1.00,-1.0,2371
1267,1221267,17060,-568,908,17093.59,30.46,-1.00,-1.0,2422
1269,1221269,17120,-572,832,17149.75,30.41,-1.00,-1.0,2375
1274,1221274,17080,-536,968,17115.80,30.46,-1.00,-1.0,2427
1277,1221277,17096,-504,944,17129.46,30.55,-1.00,-1.0,2372
1280,1221280,17072,-608,948,17109.11,30.46,-1.00,-1.0,2366
1282,1221282,17100,-632,920,17136.39,30.41,-1.00,-1.0,2449
1285,1221285,17148,-544,880,17179.18,30.51,-1.00,-1.0,2378
1288,1221288,17052,-604,900,17086.41,30.41,-1.00,-1.0,2424
1291,1221291,17036,-640,936,17073.69,30.51,-1.00,-1.0,2369
1293,1221293,17156,-772,844,17194.09,30.60,-1.00,-1.0,2431
1296,1221296,17040,-620,856,17072.75,30.46,-1.00,-1.0,2368
1301,1221301,17020,-600,980,17058.75,30.41,-1.00,-1.0,2435
1304,1221304,17088,-528,928,17121.32,30.41,-1.00,-1.0,2367
1306,1221306,17088,-600,920,17123.26,30.41,-1.00,-1.0,2448
1309,1221309,17008,-524,948,17042.46,30.41,-1.00,-1.0,2378
1312,1221312,17000,-572,728,17025.19,30.51,-1.00,-1.0,2409
1315,1221315,17060,-516,864,17089.66,30.41,-1.00,-1.0,2370
1317,1221317,16980,-616,868,17013.33,30.37,-1.00,-1.0,2367
1320,1221320,17108,-680,832,17141.71,30.37,-1.00,-1.0,2408
1323,1221323,17020,-536,892,17051.79,30.46,-1.00,-1.0,2369
1328,1221328,17048,-644,904,17084.09,30.51,-1.00,-1.0,2438
1331,1221331,17060,-596,988,17098.97,30.51,-1.00,-1.0,2376
1334,1221334,17064,-648,776,17093.92,30.55,-1.00,-1.0,2422
1337,1221337,17008,-592,948,17044.68,30.51,-1.00,-1.0,2375
1339,1221339,17064,-640,880,17098.66,30.55,-1.00,-1.0,2430
1342,1221342,16968,-648,1000,17009.79,30.41,-1.00,-1.0,2384
1345,1221345,17120,-616,992,17159.78,30.46,-1.00,-1.0,2424
1348,1221348,17052,-688,868,17087.93,30.37,-1.00,-1.0,2372
1353,1221353,16992,-672,832,17025.62,30.51,-1.00,-1.0,2428
1355,1221355,17020,-624,924,17056.48,30.51,-1.00,-1.0,2368
1358,1221358,17036,-680,932,17075.02,30.46,-1.00,-1.0,2367
1361,1221361,17132,-672,884,17167.95,30.55,-1.00,-1.0,2435
1363,1221363,16988,-692,776,17019.79,30.46,-1.00,-1.0,2371
1366,1221366,17016,-600,736,17042.47,30.55,-1.00,-1.0,2422
1369,1221369,17080,-664,896,17116.37,30.46,-1.00,-1.0,2371
1372,1221372,17036,-580,936,17071.55,30.51,-1.00,-1.0,2421
1375,1221375,16960,-644,944,16998.46,30.46,-1.00,-1.0,2371
1379,1221379,17008,-652,824,17040.43,30.55,-1.00,-1.0,2436
1382,1221382,17028,-604,972,17066.41,30.46,-1.00,-1.0,2375
1385,1221385,16992,-600,828,17022.74,30.46,-1.00,-1.0,2436
1388,1221388,17056,-608,948,17093.14,30.46,-1.00,-1.0,2374
1391,1221391,17044,-592,804,17073.22,30.55,-1.00,-1.0,2409
1393,1221393,17020,-576,840,17050.45,30.46,-1.00,-1.0,2384
1396,1221396,17060,-524,860,17089.70,30.51,-1.00,-1.0,2367
1399,1221399,17048,-556,824,17076.96,30.41,-1.00,-1.0,2422
1401,1221401,17016,-780,844,17054.76,30.51,-1.00,-1.0,2369
1406,1221406,17112,-516,988,17148.26,30.55,-1.00,-1.0,2428
1409,1221409,17128,-552,828,17156.88,30.37,-1.00,-1.0,2371
1412,1221412,16940,-752,928,16982.06,30.51,-1.00,-1.0,2441
1415,1221415,17084,-644,920,17120.87,30.51,-1.00,-1.0,2368
1417,1221417,16968,-652,960,17007.64,30.41,-1.00,-1.0,2423
1420,1221420,17004,-648,916,17040.98,30.51,-1.00,-1.0,2369
1423,1221423,16940,-572,824,16969.67,30.41,-1.00,-1.0,2426
1426,1221426,17004,-656,964,17043.93,30.51,-1.00,-1.0,2368
1431,1221431,17080,-632,776,17109.29,30.51,-1.00,-1.0,2435
1433,1221433,17036,-612,908,17071.15,30.55,-1.00,-1.0,2376
1436,1221436,17128,-604,916,17163.11,30.41,-1.00,-1.0,2367
1439,1221439,17036,-576,836,17066.22,30.55,-1.00,-1.0,2436
1441,1221441,17088,-580,856,17119.25,30.41,-1.00,-1.0,2372
1444,1221444,17048,-628,824,17079.45,30.46,-1.00,-1.0,2428
1447,1221447,17064,-472,892,17093.82,30.46,-1.00,-1.0,2371
1450,1221450,17052,-620,776,17080.90,30.55,-1.00,-1.0,2423
1452,1221452,16960,-600,960,16997.74,30.55,-1.00,-1.0,2372
1457,1221457,16988,-688,1012,17032.02,30.46,-1.00,-1.0,2430
1460,1221460,17072,-600,852,17103.77,30.51,-1.00,-1.0,2367
1463,1221463,17036,-628,840,17068.25,30.46,-1.00,-1.0,2437
1466,1221466,17060,-584,956,17096.74,30.51,-1.00,-1.0,2356
1468,1221468,16980,-632,852,17013.11,30.46,-1.00,-1.0,2424
1471,1221471,17016,-692,896,17053.62,30.41,-1.00,-1.0,2369
1474,1221474,17100,-576,984,17137.97,30.46,-1.00,-1.0,2371
1477,1221477,17044,-584,852,17075.27,30.41,-1.00,-1.0,2430
1479,1221479,17036,-564,1004,17074.88,30.46,-1.00,-1.0,2379
1484,1221484,16972,-624,872,17005.84,30.46,-1.00,-1.0,2434
1487,1221487,17016,-600,720,17041.79,30.55,-1.00,-1.0,2356
1490,1221490,17088,-592,788,17116.40,30.51,-1.00,-1.0,2443
1492,1221492,17060,-640,840,17092.65,30.51,-1.00,-1.0,2376
1495,1221495,16952,-612,832,16983.44,30.41,-1.00,-1.0,2422
1498,1221498,17040,-584,1000,17079.30,30.51,-1.00,-1.0,2371
1501,1221501,16956,-544,756,16981.56,30.51,-1.00,-1.0,2422
1503,1221503,17028,-636,956,17066.67,30.51,-1.00,-1.0,2370
1508,1221508,16976,-636,1008,17017.79,30.37,-1.00,-1.0,2427
1511,1221511,17064,-572,820,17093.26,30.55,-1.00,-1.0,2377
1513,1221513,17016,-532,836,17044.83,30.51,-1.00,-1.0,2373
1516,1221516,17040,-596,960,17077.42,30.51,-1.00,-1.0,2435
1519,1221519,17064,-560,904,17097.10,30.60,-1.00,-1.0,2373
1522,1221522,17000,-556,940,17035.04,30.46,-1.00,-1.0,2422
1525,1221525,17036,-704,864,17072.42,30.41,-1.00,-1.0,2371
1528,1221528,17044,-604,844,17075.57,30.51,-1.00,-1.0,2424
1530,1221530,17016,-572,864,17047.52,30.60,-1.00,-1.0,2377
1535,1221535,16980,-584,964,17017.37,30.51,-1.00,-1.0,2435
1538,1221538,17124,-644,840,17156.68,30.46,-1.00,-1.0,2376
1541,1221541,16960,-608,880,16993.70,30.51,-1.00,-1.0,2439
1544,1221544,17020,-636,900,17055.64,30.51,-1.00,-1.0,2381
1547,1221547,17128,-548,824,17156.56,30.60,-1.00,-1.0,2409
1549,1221549,16976,-564,872,17007.73,30.51,-1.00,-1.0,2376
1552,1221552,16944,-652,940,16982.57,30.55,-1.00,-1.0,2368
1555,1221555,17008,-616,1004,17048.74,30.46,-1.00,-1.0,2421
1557,1221557,17024,-616,904,17059.11,30.51,-1.00,-1.0,2358
1562,1221562,17064,-632,888,17098.77,30.51,-1.00,-1.0,2437
1565,1221565,17052,-604,856,17084.15,30.41,-1.00,-1.0,2384
1568,1221568,17112,-652,896,17147.84,30.46,-1.00,-1.0,2438
1571,1221571,17052,-644,928,17089.37,30.41,-1.00,-1.0,2370
1574,1221574,17084,-632,868,17117.71,30.46,-1.00,-1.0,2422
1576,1221576,16976,-592,932,17011.87,30.51,-1.00,-1.0,2371
1579,1221579,17092,-580,900,17125.50,30.46,-1.00,-1.0,2421
1582,1221582,17016,-532,828,17044.44,30.51,-1.00,-1.0,2371
1587,1221587,17084,-600,788,17112.69,30.51,-1.00,-1.0,2432
1589,1221589,17080,-680,984,17121.83,30.41,-1.00,-1.0,2373
1592,1221592,16948,-580,960,16985.07,30.55,-1.00,-1.0,2367
1595,1221595,16972,-572,876,17004.21,30.46,-1.00,-1.0,2442
1598,1221598,17144,-672,816,17176.56,30.55,-1.00,-1.0,2369
1600,1221600,16932,-636,808,16963.20,30.41,-1.00,-1.0,2423
1603,1221603,17008,-608,900,17042.64,30.55,-1.00,-1.0,2374
1606,1221606,17144,-648,836,17176.60,30.41,-1.00,-1.0,2424
1609,1221609,17080,-628,844,17112.37,30.55,-1.00,-1.0,2372
1614,1221614,17148,-752,924,17189.33,30.46,-1.00,-1.0,2427
1616,1221616,17072,-552,888,17103.99,30.37,-1.00,-1.0,2368
1619,1221619,17020,-616,868,17053.25,30.46,-1.00,-1.0,2436
1622,1221622,17056,-604,828,17086.77,30.37,-1.00,-1.0,2369
1625,1221625,17008,-604,832,17039.05,30.46,-1.00,-1.0,2408
1627,1221627,17028,-648,824,17060.24,30.46,-1.00,-1.0,2370
1630,1221630,17000,-548,908,17033.05,30.51,-1.00,-1.0,2378
1633,1221633,17048,-656,892,17083.92,30.51,-1.00,-1.0,2437
1636,1221636,17088,-468,804,17113.30,30.46,-1.00,-1.0,2369
1641,1221641,17096,-620,928,17132.39,30.46,-1.00,-1.0,2428
1643,1221643,17084,-592,940,17120.08,30.55,-1.00,-1.0,2368
1646,1221646,17072,-644,848,17105.18,30.55,-1.00,-1.0,2435
1649,1221649,17084,-648,920,17121.02,30.55,-1.00,-1.0,2369
1652,1221652,16980,-588,792,17008.63,30.41,-1.00,-1.0,2408
1654,1221654,17052,-608,800,17081.58,30.37,-1.00,-1.0,2369
1657,1221657,17088,-564,916,17121.82,30.46,-1.00,-1.0,2423
1660,1221660,17052,-644,828,17084.23,30.46,-1.00,-1.0,2368
1665,1221665,16976,-632,988,17016.47,30.55,-1.00,-1.0,2428
1667,1221667,17012,-628,868,17045.70,30.55,-1.00,-1.0,2376
1670,1221670,16932,-652,956,16971.50,30.46,-1.00,-1.0,2365
1673,1221673,17048,-512,860,17077.36,30.51,-1.00,-1.0,2441
1676,1221676,17088,-660,1008,17130.42,30.41,-1.00,-1.0,2372
1678,1221678,16980,-720,892,17018.65,30.46,-1.00,-1.0,2434
1681,1221681,17044,-552,884,17075.83,30.41,-1.00,-1.0,2369
1684,1221684,17044,-680,972,17085.23,30.46,-1.00,-1.0,2431
1687,1221687,17036,-636,928,17073.11,30.51,-1.00,-1.0,2370
1692,1221692,17120,-676,976,17161.12,30.55,-1.00,-1.0,2439
1694,1221694,17100,-668,936,17138.62,30.46,-1.00,-1.0,2372
1697,1221697,16964,-620,936,17001.11,30.46,-1.00,-1.0,2433
1700,1221700,16932,-660,824,16964.88,30.46,-1.00,-1.0,2368
1703,1221703,17008,-564,876,17039.88,30.51,-1.00,-1.0,2421
1705,1221705,17112,-712,896,17150.23,30.46,-1.00,-1.0,2368
1708,1221708,17028,-648,892,17063.66,30.51,-1.00,-1.0,2374
1711,1221711,16956,-560,932,16990.83,30.46,-1.00,-1.0,2432
1714,1221714,17088,-656,920,17125.32,30.65,-1.00,-1.0,2373
1718,1221718,17124,-668,640,17148.97,30.51,-1.00,-1.0,2429
1721,1221721,17024,-568,932,17058.95,30.60,-1.00,-1.0,2367
1724,1221724,17032,-588,880,17064.85,30.37,-1.00,-1.0,2442
1727,1221727,16992,-684,800,17024.57,30.51,-1.00,-1.0,2367
1729,1221729,17104,-520,900,17135.55,30.46,-1.00,-1.0,2427
1732,1221732,16980,-592,972,17018.10,30.51,-1.00,-1.0,2368
1735,1221735,17028,-488,940,17060.91,30.46,-1.00,-1.0,2428
1738,1221738,16916,-580,940,16952.02,30.46,-1.00,-1.0,2374
1743,1221743,16996,-552,824,17024.91,30.51,-1.00,-1.0,2435
1746,1221746,17032,-544,744,17056.92,30.51,-1.00,-1.0,2367
1748,1221748,17040,-640,896,17075.54,30.46,-1.00,-1.0,2372
1751,1221751,17032,-580,780,17059.71,30.55,-1.00,-1.0,2435
1754,1221754,17056,-656,856,17090.06,30.46,-1.00,-1.0,2373
1757,1221757,17068,-668,904,17104.97,30.51,-1.00,-1.0,2414
1759,1221759,16980,-600,896,17014.21,30.46,-1.00,-1.0,2375
1762,1221762,16976,-612,908,17011.28,30.55,-1.00,-1.0,2421
1765,1221765,16964,-616,784,16993.28,30.46,-1.00,-1.0,2369
1770,1221770,17052,-616,832,17083.39,30.46,-1.00,-1.0,2426
1772,1221772,17092,-608,800,17121.51,30.55,-1.00,-1.0,2368
1775,1221775,16960,-592,896,16993.97,30.55,-1.00,-1.0,2449
1778,1221778,17008,-568,924,17042.55,30.55,-1.00,-1.0,2378
1781,1221781,17012,-572,816,17041.16,30.51,-1.00,-1.0,2431
1783,1221783,17040,-640,948,17078.35,30.37,-1.00,-1.0,2375
1786,1221786,17092,-584,864,17123.79,30.51,-1.00,-1.0,2365
1789,1221789,17020,-564,948,17055.71,30.46,-1.00,-1.0,2427
1792,1221792,16956,-544,888,16987.95,30.51,-1.00,-1.0,2367
1797,1221797,17024,-652,956,17063.28,30.55,-1.00,-1.0,2435
1799,1221799,17052,-576,820,17081.42,30.46,-1.00,-1.0,2371
1802,1221802,17016,-608,1012,17056.91,30.41,-1.00,-1.0,2443
1805,1221805,17008,-656,872,17042.97,30.46,-1.00,-1.0,2357
1808,1221808,17156,-696,1032,17201.10,30.51,-1.00,-1.0,2429
1810,1221810,17004,-556,920,17037.95,30.51,-1.00,-1.0,2382
1813,1221813,17060,-640,948,17098.30,30.51,-1.00,-1.0,2420
1816,1221816,17072,-652,980,17112.53,30.55,-1.00,-1.0,2369
1821,1221821,17020,-500,740,17043.42,30.46,-1.00,-1.0,2433
1824,1221824,17072,-608,880,17105.47,30.46,-1.00,-1.0,2367
1826,1221826,17008,-652,900,17044.27,30.51,-1.00,-1.0,2352
1829,1221829,17048,-564,876,17079.81,30.60,-1.00,-1.0,2434
1832,1221832,17096,-568,824,17125.27,30.51,-1.00,-1.0,2368
1835,1221835,17040,-516,908,17071.97,30.46,-1.00,-1.0,2421
1837,1221837,17048,-572,928,17082.82,30.51,-1.00,-1.0,2368
1840,1221840,17076,-508,916,17108.09,30.51,-1.00,-1.0,2407
1843,1221843,16948,-556,872,16979.52,30.51,-1.00,-1.0,2370
1848,1221848,17088,-696,892,17125.41,30.41,-1.00,-1.0,2430
1850,1221850,17112,-640,704,17138.43,30.41,-1.00,-1.0,2377
1853,1221853,16960,-540,800,16987.44,30.55,-1.00,-1.0,2434
1856,1221856,17052,-688,968,17093.30,30.51,-1.00,-1.0,2371
1859,1221859,16956,-720,912,16995.77,30.55,-1.00,-1.0,2421
1861,1221861,17036,-512,744,17059.92,30.51,-1.00,-1.0,2362
1864,1221864,16988,-504,828,17015.63,30.46,-1.00,-1.0,2365
1867,1221867,17044,-516,912,17076.18,30.55,-1.00,-1.0,2428
1870,1221870,17000,-644,868,17034.32,30.46,-1.00,-1.0,2367
1875,1221875,17048,-508,756,17072.31,30.46,-1.00,-1.0,2427
1877,1221877,17072,-496,972,17106.84,30.51,-1.00,-1.0,2375
1880,1221880,17096,-616,932,17132.46,30.46,-1.00,-1.0,2434
1883,1221883,17044,-608,968,17082.29,30.55,-1.00,-1.0,2370
1886,1221886,17072,-676,888,17108.44,30.46,-1.00,-1.0,2427
1889,1221889,17188,-652,1032,17231.29,30.46,-1.00,-1.0,2369
1891,1221891,17112,-584,1052,17154.25,30.55,-1.00,-1.0,2420
1894,1221894,16932,-644,920,16969.20,30.46,-1.00,-1.0,2368
1899,1221899,17124,-680,904,17161.32,30.46,-1.00,-1.0,2433
1902,1221902,16980,-520,884,17010.95,30.55,-1.00,-1.0,2368
1904,1221904,17036,-548,940,17070.71,30.41,-1.00,-1.0,2365
1907,1221907,16968,-696,924,17007.39,30.41,-1.00,-1.0,2436
1910,1221910,17100,-608,968,17138.16,30.51,-1.00,-1.0,2375
1912,1221912,17028,-592,844,17059.18,30.46,-1.00,-1.0,2427
1915,1221915,17028,-656,856,17062.12,30.51,-1.00,-1.0,2382
1918,1221918,17064,-764,836,17101.54,30.46,-1.00,-1.0,2424
1921,1221921,17104,-532,808,17131.34,30.46,-1.00,-1.0,2374
1926,1221926,17060,-544,804,17087.60,30.55,-1.00,-1.0,2428
1928,1221928,17080,-632,900,17115.37,30.46,-1.00,-1.0,2373
1931,1221931,17044,-560,956,17079.97,30.46,-1.00,-1.0,2433
1934,1221934,16988,-644,948,17026.61,30.55,-1.00,-1.0,2369
1937,1221937,17004,-556,788,17031.33,30.55,-1.00,-1.0,2422
1939,1221939,16908,-620,888,16942.65,30.46,-1.00,-1.0,2368
1942,1221942,17140,-520,796,17166.35,30.41,-1.00,-1.0,2377
1945,1221945,17144,-664,788,17174.94,30.51,-1.00,-1.0,2431
1948,1221948,17072,-576,904,17105.62,30.51,-1.00,-1.0,2374
1953,1221953,17080,-656,996,17121.59,30.46,-1.00,-1.0,2434
1956,1221956,17052,-584,860,17083.66,30.55,-1.00,-1.0,2367
1958,1221958,17072,-596,964,17109.58,30.51,-1.00,-1.0,2436
1961,1221961,17056,-524,788,17082.23,30.51,-1.00,-1.0,2369
1964,1221964,16976,-596,980,17014.71,30.51,-1.00,-1.0,2428
1967,1221967,16988,-500,916,17020.02,30.51,-1.00,-1.0,2368
1969,1221969,16972,-604,808,17001.96,30.51,-1.00,-1.0,2422
1972,1221972,17000,-636,748,17028.33,30.41,-1.00,-1.0,2368
1975,1221975,17096,-696,840,17130.77,30.51,-1.00,-1.0,2373
1980,1221980,17080,-572,908,17113.68,30.51,-1.00,-1.0,2437
1983,1221983,16936,-544,864,16966.75,30.41,-1.00,-1.0,2367
1985,1221985,16928,-592,784,16956.48,30.46,-1.00,-1.0,2449
1988,1221988,17084,-552,732,17108.58,30.51,-1.00,-1.0,2377
1991,1221991,16992,-600,812,17021.97,30.46,-1.00,-1.0,2424
1994,1221994,17020,-632,920,17056.56,30.51,-1.00,-1.0,2369
1996,1221996,17024,-604,856,17056.21,30.55,-1.00,-1.0,2429
1999,1221999,17000,-544,916,17033.35,30.55,-1.00,-1.0,2376
2004,1222004,17052,-620,856,17084.72,30.60,-1.00,-1.0,2427
2007,1222007,17052,-616,876,17085.59,30.51,-1.00,-1.0,2375
2010,1222010,16984,-604,952,17021.38,30.46,-1.00,-1.0,2433
2012,1222012,17192,-532,836,17220.53,30.41,-1.00,-1.0,2372
2015,1222015,17044,-632,844,17076.58,30.46,-1.00,-1.0,2366
2018,1222018,17032,-588,860,17063.83,30.55,-1.00,-1.0,2424
2020,1222020,17036,-588,932,17071.60,30.55,-1.00,-1.0,2369
2023,1222023,17056,-680,776,17087.18,30.41,-1.00,-1.0,2420
2026,1222026,16972,-568,888,17004.70,30.46,-1.00,-1.0,2369
2031,1222031,17040,-640,800,17070.77,30.37,-1.00,-1.0,2429
2034,1222034,17120,-668,888,17156.02,30.55,-1.00,-1.0,2375
2037,1222037,17116,-572,972,17153.12,30.46,-1.00,-1.0,2428
2039,1222039,16972,-632,1056,17016.56,30.46,-1.00,-1.0,2372
2042,1222042,17012,-684,928,17051.02,30.51,-1.00,-1.0,2420
2045,1222045,17100,-692,788,17132.13,30.46,-1.00,-1.0,2364
2048,1222048,17000,-656,860,17034.38,30.51,-1.00,-1.0,2423
2050,1222050,17080,-536,852,17109.63,30.51,-1.00,-1.0,2412
2053,1222053,17076,-644,908,17112.25,30.46,-1.00,-1.0,2369
2058,1222058,17008,-656,924,17045.71,30.60,-1.00,-1.0,2439
2061,1222061,17032,-544,880,17063.39,30.55,-1.00,-1.0,2373
2064,1222064,17168,-568,900,17200.96,30.60,-1.00,-1.0,2422
2066,1222066,16984,-524,944,17018.28,30.41,-1.00,-1.0,2369
2069,1222069,17032,-588,968,17069.62,30.51,-1.00,-1.0,2421
2072,1222072,16996,-652,848,17029.63,30.55,-1.00,-1.0,2368
2075,1222075,16904,-716,936,16945.03,30.60,-1.00,-1.0,2422
2077,1222077,17024,-648,1004,17065.89,30.51,-1.00,-1.0,2368
2082,1222082,17068,-544,892,17099.95,30.41,-1.00,-1.0,2445
2085,1222085,17036,-496,844,17064.10,30.55,-1.00,-1.0,2374
2088,1222088,17096,-544,768,17121.89,30.41,-1.00,-1.0,2421
2090,1222090,17028,-448,820,17053.62,30.41,-1.00,-1.0,2374
2093,1222093,17028,-440,764,17050.81,30.41,-1.00,-1.0,2367
2096,1222096,17080,-532,896,17111.76,30.46,-1.00,-1.0,2428
2099,1222099,17040,-684,860,17075.39,30.51,-1.00,-1.0,2354
2101,1222101,17040,-620,936,17076.95,30.55,-1.00,-1.0,2423
2104,1222104,17008,-640,964,17047.31,30.51,-1.00,-1.0,2368
2109,1222109,17096,-652,828,17128.45,30.55,-1.00,-1.0,2442
2112,1222112,17112,-692,932,17151.33,30.46,-1.00,-1.0,2371
2114,1222114,17080,-568,928,17114.62,30.51,-1.00,-1.0,2432
2117,1222117,17088,-648,800,17118.98,30.46,-1.00,-1.0,2376
2120,1222120,17028,-644,800,17058.94,30.51,-1.00,-1.0,2424
2123,1222123,17084,-572,972,17121.19,30.46,-1.00,-1.0,2369
2125,1222125,17072,-556,912,17105.38,30.51,-1.00,-1.0,2428
2128,1222128,17020,-676,872,17055.72,30.55,-1.00,-1.0,2377
2131,1222131,17012,-668,864,17047.02,30.55,-1.00,-1.0,2367
2136,1222136,17036,-608,856,17068.32,30.60,-1.00,-1.0,2439
2138,1222138,16964,-580,1012,17004.05,30.51,-1.00,-1.0,2379
2141,1222141,16948,-600,884,16981.64,30.41,-1.00,-1.0,2422
2144,1222144,17048,-632,932,17085.15,30.51,-1.00,-1.0,2370
2147,1222147,16992,-644,792,17022.63,30.60,-1.00,-1.0,2421
2149,1222149,17060,-652,800,17091.19,30.41,-1.00,-1.0,2370
2152,1222152,17012,-596,928,17047.71,30.46,-1.00,-1.0,2421
2155,1222155,17072,-580,940,17107.69,30.37,-1.00,-1.0,2368
2160,1222160,17152,-676,808,17184.32,30.41,-1.00,-1.0,2434
2163,1222163,17044,-644,860,17077.83,30.60,-1.00,-1.0,2374
2166,1222166,16976,-552,812,17004.37,30.55,-1.00,-1.0,2421
2168,1222168,16972,-708,972,17014.55,30.41,-1.00,-1.0,2355
2171,1222171,17036,-632,932,17073.18,30.55,-1.00,-1.0,2366
2174,1222174,16988,-604,916,17023.40,30.41,-1.00,-1.0,2427
2177,1222177,17064,-580,1016,17104.06,30.55,-1.00,-1.0,2372
2179,1222179,16996,-556,908,17029.32,30.51,-1.00,-1.0,2433
2182,1222182,16980,-624,852,17012.81,30.55,-1.00,-1.0,2368
2187,1222187,16992,-668,896,17028.71,30.46,-1.00,-1.0,2435
2190,1222190,17076,-660,844,17109.58,30.55,-1.00,-1.0,2373
2193,1222193,16952,-648,924,16989.53,30.46,-1.00,-1.0,2420
2195,1222195,17048,-656,912,17084.97,30.46,-1.00,-1.0,2355
2198,1222198,16972,-592,804,17001.34,30.55,-1.00,-1.0,2421
2201,1222201,17040,-548,856,17070.29,30.46,-1.00,-1.0,2367
2204,1222204,16992,-624,904,17027.47,30.46,-1.00,-1.0,2421
2206,1222206,17080,-588,844,17110.95,30.46,-1.00,-1.0,2368
2209,1222209,16956,-616,820,16986.99,30.51,-1.00,-1.0,2374
2214,1222214,17068,-708,868,17104.72,30.37,-1.00,-1.0,2435
2217,1222217,17000,-592,824,17030.25,30.46,-1.00,-1.0,2380
2220,1222220,17080,-560,920,17113.92,30.46,-1.00,-1.0,2421
2222,1222222,16984,-620,888,17018.50,30.55,-1.00,-1.0,2369
2225,1222225,17044,-580,872,17076.14,30.51,-1.00,-1.0,2420
2228,1222228,17096,-624,992,17136.12,30.46,-1.00,-1.0,2375
2231,1222231,17088,-672,852,17122.42,30.41,-1.00,-1.0,2421
2233,1222233,17084,-520,904,17115.80,30.51,-1.00,-1.0,2371
2238,1222238,17060,-540,924,17093.54,30.55,-1.00,-1.0,2436
2241,1222241,17080,-708,884,17117.51,30.46,-1.00,-1.0,2372
2244,1222244,17048,-568,828,17077.54,30.51,-1.00,-1.0,2427
2247,1222247,16972,-600,852,17003.96,30.46,-1.00,-1.0,2366
2249,1222249,17032,-568,792,17059.86,30.60,-1.00,-1.0,2373
2252,1222252,17072,-600,960,17109.49,30.46,-1.00,-1.0,2422
2255,1222255,17144,-628,940,17181.23,30.51,-1.00,-1.0,2372
2257,1222257,17072,-672,892,17108.49,30.46,-1.00,-1.0,2427
2260,1222260,17100,-604,1028,17141.52,30.55,-1.00,-1.0,2376
2265,1222265,17068,-608,868,17100.87,30.41,-1.00,-1.0,2441
2268,1222268,17068,-628,932,17104.96,30.41,-1.00,-1.0,2381
2271,1222271,17040,-664,932,17078.38,30.46,-1.00,-1.0,2436
2273,1222273,16972,-572,888,17004.84,30.51,-1.00,-1.0,2376
2276,1222276,17052,-576,900,17085.45,30.55,-1.00,-1.0,2421
2279,1222279,17016,-544,800,17043.48,30.41,-1.00,-1.0,2362
2282,1222282,17004,-704,952,17045.17,30.46,-1.00,-1.0,2431
2284,1222284,17044,-524,888,17075.16,30.46,-1.00,-1.0,2378
2287,1222287,17048,-628,888,17082.66,30.55,-1.00,-1.0,2354
2292,1222292,16988,-604,1008,17028.59,30.55,-1.00,-1.0,2451
2295,1222295,17128,-704,996,17171.37,30.51,-1.00,-1.0,2376
2298,1222298,16948,-656,896,16984.34,30.46,-1.00,-1.0,2435
2300,1222300,17104,-632,848,17136.67,30.55,-1.00,-1.0,2373
2303,1222303,16996,-588,912,17030.61,30.55,-1.00,-1.0,2428
2306,1222306,17020,-528,948,17054.56,30.46,-1.00,-1.0,2368
2309,1222309,17020,-628,848,17052.68,30.46,-1.00,-1.0,2429
2311,1222311,17060,-716,912,17099.36,30.37,-1.00,-1.0,2373
2316,1222316,17028,-620,944,17065.41,30.46,-1.00,-1.0,2442
2319,1222319,17008,-548,988,17045.48,30.46,-1.00,-1.0,2360
2322,1222322,17080,-604,940,17116.51,30.55,-1.00,-1.0,2417
2324,1222324,16956,-532,924,16989.49,30.65,-1.00,-1.0,2375
2327,1222327,17036,-524,712,17058.92,30.51,-1.00,-1.0,2361
2330,1222330,16940,-548,928,16974.25,30.51,-1.00,-1.0,2429
2333,1222333,16996,-632,904,17031.75,30.55,-1.00,-1.0,2364
2335,1222335,16984,-704,804,17017.59,30.51,-1.00,-1.0,2421
2338,1222338,17032,-512,740,17055.75,30.60,-1.00,-1.0,2366
2343,1222343,16996,-708,912,17035.17,30.46,-1.00,-1.0,2446
2346,1222346,17036,-596,956,17073.21,30.55,-1.00,-1.0,2374
2348,1222348,16980,-656,888,17015.85,30.46,-1.00,-1.0,2428
2351,1222351,17060,-684,932,17099.12,30.46,-1.00,-1.0,2379
2354,1222354,17084,-632,900,17119.36,30.41,-1.00,-1.0,2458
2357,1222357,16988,-668,840,17021.87,30.41,-1.00,-1.0,2376
2360,1222360,17096,-556,860,17126.64,30.46,-1.00,-1.0,2421
2362,1222362,17040,-624,940,17077.31,30.51,-1.00,-1.0,2371
2365,1222365,16964,-496,948,16997.71,30.51,-1.00,-1.0,2367
2370,1222370,17004,-628,796,17034.20,30.51,-1.00,-1.0,2437
2373,1222373,17160,-644,888,17195.03,30.46,-1.00,-1.0,2374
2376,1222376,17028,-576,788,17055.95,30.41,-1.00,-1.0,2422
2378,1222378,17140,-576,920,17174.33,30.55,-1.00,-1.0,2356
2381,1222381,17120,-576,780,17147.44,30.51,-1.00,-1.0,2422
2384,1222384,17092,-528,1048,17132.24,30.51,-1.00,-1.0,2372
2387,1222387,17052,-604,872,17084.96,30.41,-1.00,-1.0,2423
2390,1222390,17008,-696,856,17043.74,30.46,-1.00,-1.0,2370
2394,1222394,17008,-628,940,17045.53,30.55,-1.00,-1.0,2445
2397,1222397,17040,-528,888,17071.29,30.46,-1.00,-1.0,2376
2400,1222400,16996,-552,876,17027.51,30.51,-1.00,-1.0,2422
2403,1222403,17000,-604,736,17026.64,30.46,-1.00,-1.0,2368
2405,1222405,17016,-692,920,17054.90,30.51,-1.00,-1.0,2366
2408,1222408,17004,-600,984,17043.01,30.37,-1.00,-1.0,2422
2411,1222411,16952,-644,840,16985.01,30.51,-1.00,-1.0,2369
2414,1222414,17032,-556,912,17065.46,30.46,-1.00,-1.0,2422
2416,1222416,17084,-536,808,17111.49,30.46,-1.00,-1.0,2370
2421,1222421,16948,-600,956,16985.54,30.55,-1.00,-1.0,2437
2424,1222424,17112,-644,928,17149.24,30.51,-1.00,-1.0,2373
2427,1222427,17060,-520,1032,17099.09,30.46,-1.00,-1.0,2425
2430,1222430,17064,-508,832,17091.82,30.51,-1.00,-1.0,2367
2432,1222432,17040,-468,904,17070.38,30.55,-1.00,-1.0,2425
2435,1222435,16956,-536,900,16988.33,30.46,-1.00,-1.0,2369
2438,1222438,17052,-692,904,17089.96,30.46,-1.00,-1.0,2429
2441,1222441,17060,-592,920,17095.04,30.46,-1.00,-1.0,2368
2443,1222443,17040,-668,1000,17082.38,30.55,-1.00,-1.0,2367
2448,1222448,17036,-616,924,17072.16,30.55,-1.00,-1.0,2438
2451,1222451,17052,-616,904,17087.05,30.46,-1.00,-1.0,2374
2454,1222454,17016,-604,908,17050.91,30.46,-1.00,-1.0,2429
2457,1222457,17072,-604,916,17107.22,30.46,-1.00,-1.0,2368
2459,1222459,17036,-608,984,17075.22,30.55,-1.00,-1.0,2429
2462,1222462,17024,-628,896,17059.12,30.55,-1.00,-1.0,2370
2465,1222465,17076,-564,800,17104.03,30.51,-1.00,-1.0,2457
2468,1222468,17128,-724,936,17168.83,30.41,-1.00,-1.0,2369
2473,1222473,16976,-520,904,17008.00,30.51,-1.00,-1.0,2435
2475,1222475,16944,-592,820,16974.16,30.51,-1.00,-1.0,2375
2478,1222478,16984,-620,884,17018.29,30.46,-1.00,-1.0,2421
2481,1222481,17016,-572,800,17044.40,30.51,-1.00,-1.0,2368
2484,1222484,17044,-644,956,17082.93,30.55,-1.00,-1.0,2371
2486,1222486,17004,-636,852,17037.21,30.46,-1.00,-1.0,2434
2489,1222489,17036,-596,908,17070.59,30.65,-1.00,-1.0,2369
2492,1222492,17044,-636,816,17075.37,30.51,-1.00,-1.0,2428
2495,1222495,17044,-596,812,17073.74,30.46,-1.00,-1.0,2369
2500,1222500,17080,-604,852,17111.90,30.46,-1.00,-1.0,2435
2502,1222502,16980,-588,980,17018.42,30.55,-1.00,-1.0,2372
2505,1222505,16932,-612,984,16971.61,30.41,-1.00,-1.0,2422
2508,1222508,17064,-540,928,17097.74,30.55,-1.00,-1.0,2375
2511,1222511,17032,-624,904,17067.38,30.51,-1.00,-1.0,2421
2513,1222513,17020,-544,900,17052.46,30.46,-1.00,-1.0,2368
2516,1222516,17068,-612,856,17100.41,30.41,-1.00,-1.0,2421
2519,1222519,17064,-588,828,17094.19,30.46,-1.00,-1.0,2375
2521,1222521,17064,-612,972,17102.62,30.51,-1.00,-1.0,2373
2527,1222527,16968,-620,844,17000.29,30.46,-1.00,-1.0,2438
2530,1222530,16992,-688,892,17029.30,30.51,-1.00,-1.0,2374
2533,1222533,17096,-580,820,17125.48,30.55,-1.00,-1.0,2421
2535,1222535,17036,-692,688,17063.92,30.46,-1.00,-1.0,2368
2538,1222538,17060,-556,860,17090.71,30.46,-1.00,-1.0,2421
2541,1222541,17040,-508,816,17067.09,30.55,-1.00,-1.0,2367
2544,1222544,17040,-576,940,17075.62,30.46,-1.00,-1.0,2420
2546,1222546,17036,-564,844,17066.22,30.46,-1.00,-1.0,2425
2551,1222551,17028,-564,944,17063.47,30.51,-1.00,-1.0,2450
2554,1222554,17064,-560,844,17094.04,30.51,-1.00,-1.0,2380
2557,1222557,17084,-516,800,17110.50,30.46,-1.00,-1.0,2433
2559,1222559,17052,-612,912,17087.33,30.51,-1.00,-1.0,2377
2562,1222562,17032,-644,952,17070.74,30.55,-1.00,-1.0,2366
2565,1222565,17012,-688,784,17043.95,30.60,-1.00,-1.0,2429
2568,1222568,17052,-568,776,17079.10,30.46,-1.00,-1.0,2366
2570,1222570,16980,-612,908,17015.27,30.55,-1.00,-1.0,2424
2573,1222573,17068,-520,932,17101.33,30.46,-1.00,-1.0,2368
2578,1222578,17000,-556,944,17035.27,30.46,-1.00,-1.0,2435
2581,1222581,17024,-580,776,17051.54,30.46,-1.00,-1.0,2371
2584,1222584,16984,-552,884,17015.95,30.41,-1.00,-1.0,2422
2586,1222586,16996,-480,972,17030.54,30.46,-1.00,-1.0,2369
2589,1222589,17024,-628,1092,17070.54,30.41,-1.00,-1.0,2422
2592,1222592,17040,-600,940,17076.45,30.46,-1.00,-1.0,2367
2595,1222595,16968,-576,808,16996.99,30.51,-1.00,-1.0,2421
2597,1222597,17112,-488,1020,17149.32,30.55,-1.00,-1.0,2369
2600,1222600,17076,-660,972,17116.37,30.51,-1.00,-1.0,2377
2605,1222605,17036,-628,888,17070.68,30.51,-1.00,-1.0,2435
2608,1222608,17096,-580,684,17119.51,30.55,-1.00,-1.0,2372
2611,1222611,17156,-632,880,17190.18,30.51,-1.00,-1.0,2408
2613,1222613,17060,-576,624,17081.12,30.55,-1.00,-1.0,2369
2616,1222616,16992,-584,792,17020.47,30.51,-1.00,-1.0,2420
2619,1222619,17032,-628,948,17069.92,30.55,-1.00,-1.0,2367
2622,1222622,17036,-596,972,17074.11,30.51,-1.00,-1.0,2421
2624,1222624,16960,-508,1028,16998.72,30.46,-1.00,-1.0,2368
2629,1222629,17080,-784,968,17125.36,30.55,-1.00,-1.0,2443
2632,1222632,17060,-508,924,17092.55,30.46,-1.00,-1.0,2372
2635,1222635,17132,-528,880,17162.71,30.55,-1.00,-1.0,2421
2637,1222637,17048,-604,908,17082.85,30.46,-1.00,-1.0,2374
2640,1222640,17112,-580,864,17143.61,30.51,-1.00,-1.0,2366
2643,1222643,17004,-668,920,17041.97,30.46,-1.00,-1.0,2428
2646,1222646,17072,-608,864,17104.66,30.41,-1.00,-1.0,2354
2648,1222648,17016,-632,904,17051.71,30.60,-1.00,-1.0,2423
2651,1222651,17080,-648,860,17113.91,30.51,-1.00,-1.0,2367
2656,1222656,16944,-648,816,16976.01,30.51,-1.00,-1.0,2435
2659,1222659,17140,-632,888,17174.62,30.46,-1.00,-1.0,2371
2662,1222662,17128,-676,992,17170.02,30.51,-1.00,-1.0,2420
2664,1222664,16980,-536,840,17009.21,30.46,-1.00,-1.0,2368
2667,1222667,17000,-656,924,17037.73,30.41,-1.00,-1.0,2421
2670,1222670,17000,-516,924,17032.91,30.41,-1.00,-1.0,2367
2673,1222673,16964,-648,992,17005.33,30.51,-1.00,-1.0,2421
2675,1222675,17012,-708,928,17052.00,30.46,-1.00,-1.0,2369
2678,1222678,17068,-644,924,17105.12,30.46,-1.00,-1.0,2380
2683,1222683,17100,-492,876,17129.49,30.41,-1.00,-1.0,2442
2686,1222686,16996,-600,988,17035.26,30.41,-1.00,-1.0,2371
2688,1222688,17072,-608,852,17104.06,30.55,-1.00,-1.0,2423
2691,1222691,16940,-652,1016,16982.96,30.51,-1.00,-1.0,2369
2694,1222694,17056,-644,760,17085.07,30.46,-1.00,-1.0,2427
2697,1222697,17000,-704,836,17035.10,30.51,-1.00,-1.0,2368
2699,1222699,16984,-600,1044,17026.63,30.46,-1.00,-1.0,2428
2702,1222702,16984,-528,876,17014.77,30.46,-1.00,-1.0,2368
2707,1222707,16968,-520,1016,17006.34,30.41,-1.00,-1.0,2434
2710,1222710,17068,-572,844,17098.43,30.41,-1.00,-1.0,2371
2713,1222713,17136,-648,944,17174.21,30.46,-1.00,-1.0,2421
2715,1222715,16972,-468,944,17004.67,30.51,-1.00,-1.0,2368
2718,1222718,17156,-640,864,17189.66,30.46,-1.00,-1.0,2373
2721,1222721,17128,-652,888,17163.39,30.51,-1.00,-1.0,2432
2723,1222723,17044,-576,832,17074.01,30.46,-1.00,-1.0,2375
2726,1222726,17084,-584,880,17116.62,30.46,-1.00,-1.0,2420
2729,1222729,17096,-560,948,17131.42,30.55,-1.00,-1.0,2358
2734,1222734,17076,-660,792,17107.09,30.60,-1.00,-1.0,2438
2736,1222736,17072,-628,920,17108.30,30.41,-1.00,-1.0,2379
2739,1222739,17040,-676,924,17078.42,30.51,-1.00,-1.0,2421
2742,1222742,17056,-508,728,17079.09,30.41,-1.00,-1.0,2370
2745,1222745,17064,-668,924,17102.05,30.51,-1.00,-1.0,2421
2747,1222747,17028,-652,944,17066.61,30.51,-1.00,-1.0,2370
2750,1222750,17096,-624,752,17123.90,30.51,-1.00,-1.0,2421
2753,1222753,17084,-576,824,17113.56,30.51,-1.00,-1.0,2370
2756,1222756,17088,-584,900,17121.65,30.41,-1.00,-1.0,2369
2760,1222760,16976,-532,848,17005.49,30.46,-1.00,-1.0,2436
2763,1222763,17028,-700,948,17068.73,30.46,-1.00,-1.0,2372
2766,1222766,17060,-692,832,17094.29,30.46,-1.00,-1.0,2431
2769,1222769,17044,-568,968,17080.91,30.46,-1.00,-1.0,2354
2771,1222771,17072,-696,904,17110.08,30.46,-1.00,-1.0,2422
2774,1222774,16996,-664,920,17033.83,30.46,-1.00,-1.0,2368
2777,1222777,17020,-636,784,17049.91,30.55,-1.00,-1.0,2423
2780,1222780,17100,-640,848,17132.97,30.51,-1.00,-1.0,2370
2785,1222785,16980,-596,844,17011.41,30.51,-1.00,-1.0,2443
2787,1222787,17032,-652,876,17066.97,30.51,-1.00,-1.0,2382
2790,1222790,17088,-592,1052,17130.58,30.41,-1.00,-1.0,2420
2793,1222793,17052,-732,964,17094.91,30.51,-1.00,-1.0,2370
2796,1222796,17148,-668,924,17185.86,30.46,-1.00,-1.0,2366
2798,1222798,17100,-660,852,17133.93,30.46,-1.00,-1.0,2422
2801,1222801,17032,-600,960,17069.58,30.46,-1.00,-1.0,2368
2804,1222804,17028,-528,788,17054.40,30.55,-1.00,-1.0,2429
2807,1222807,16988,-504,980,17023.71,30.41,-1.00,-1.0,2371
2812,1222812,17068,-496,1024,17105.88,30.41,-1.00,-1.0,2440
2814,1222814,17080,-520,1080,17122.01,30.51,-1.00,-1.0,2379
2817,1222817,17032,-664,884,17067.85,30.46,-1.00,-1.0,2420
2820,1222820,17060,-592,1024,17100.96,30.51,-1.00,-1.0,2358
2823,1222823,17060,-580,920,17094.63,30.46,-1.00,-1.0,2421
2825,1222825,17016,-636,940,17053.81,30.41,-1.00,-1.0,2375
2828,1222828,17092,-620,972,17130.84,30.55,-1.00,-1.0,2422
2831,1222831,17100,-564,832,17129.52,30.41,-1.00,-1.0,2359
2834,1222834,17020,-652,816,17052.02,30.55,-1.00,-1.0,2366
2839,1222839,16976,-572,832,17006.00,30.46,-1.00,-1.0,2436
2841,1222841,17064,-576,920,17098.49,30.41,-1.00,-1.0,2382
2844,1222844,17076,-600,932,17111.94,30.46,-1.00,-1.0,2420
2847,1222847,17096,-628,1060,17140.34,30.46,-1.00,-1.0,2369
2850,1222850,17024,-668,856,17058.59,30.46,-1.00,-1.0,2421
2853,1222853,17128,-708,860,17164.19,30.46,-1.00,-1.0,2370
2855,1222855,16964,-520,884,16994.97,30.55,-1.00,-1.0,2421
2858,1222858,16984,-708,940,17024.72,30.46,-1.00,-1.0,2370
2863,1222863,17052,-620,900,17086.99,30.46,-1.00,-1.0,2440
2866,1222866,17096,-584,948,17132.22,30.41,-1.00,-1.0,2382
2869,1222869,17088,-640,920,17124.71,30.46,-1.00,-1.0,2423
2871,1222871,16908,-680,820,16941.53,30.51,-1.00,-1.0,2362
2874,1222874,16952,-704,784,16984.72,30.55,-1.00,-1.0,2366
2877,1222877,17036,-548,920,17069.62,30.41,-1.00,-1.0,2421
2879,1222879,17008,-632,1116,17056.29,30.46,-1.00,-1.0,2368
2882,1222882,17120,-628,864,17153.29,30.46,-1.00,-1.0,2420
2885,1222885,16932,-616,864,16965.22,30.46,-1.00,-1.0,2375
2890,1222890,17052,-712,832,17087.12,30.55,-1.00,-1.0,2435
2893,1222893,17024,-596,972,17062.14,30.51,-1.00,-1.0,2412
2896,1222896,17044,-660,860,17078.44,30.65,-1.00,-1.0,2432
2898,1222898,17040,-644,760,17069.09,30.46,-1.00,-1.0,2373
2901,1222901,17012,-580,812,17041.24,30.46,-1.00,-1.0,2403
2904,1222904,17052,-680,952,17092.09,30.46,-1.00,-1.0,2373
2907,1222907,16984,-640,912,17020.51,30.46,-1.00,-1.0,2416
2909,1222909,16916,-572,860,16947.50,30.55,-1.00,-1.0,2374
2912,1222912,17096,-636,956,17134.52,30.51,-1.00,-1.0,2374
2917,1222917,17056,-612,912,17091.33,30.51,-1.00,-1.0,2429
2920,1222920,17040,-628,900,17075.30,30.46,-1.00,-1.0,2371
2922,1222922,17144,-552,900,17176.48,30.51,-1.00,-1.0,2435
2925,1222925,17012,-656,912,17049.05,30.55,-1.00,-1.0,2369
2928,1222928,17048,-708,880,17085.37,30.51,-1.00,-1.0,2423
2931,1222931,17112,-548,860,17142.36,30.51,-1.00,-1.0,2367
2933,1222933,17080,-604,984,17118.98,30.51,-1.00,-1.0,2421
2936,1222936,17088,-680,964,17128.67,30.46,-1.00,-1.0,2368
2941,1222941,17104,-660,960,17143.63,30.51,-1.00,-1.0,2424
2944,1222944,17056,-608,820,17086.52,30.41,-1.00,-1.0,2371
2946,1222946,17068,-640,860,17101.63,30.55,-1.00,-1.0,2451
2949,1222949,17028,-660,896,17064.33,30.51,-1.00,-1.0,2376
2952,1222952,17168,-668,852,17202.10,30.55,-1.00,-1.0,2366
2955,1222955,16964,-616,840,16995.95,30.60,-1.00,-1.0,2421
2957,1222957,16996,-604,936,17032.47,30.55,-1.00,-1.0,2369
2960,1222960,17072,-632,728,17099.20,30.46,-1.00,-1.0,2421
2963,1222963,17004,-528,1000,17041.56,30.46,-1.00,-1.0,2378
2968,1222968,17064,-656,852,17097.85,30.51,-1.00,-1.0,2422
2970,1222970,17080,-584,944,17116.03,30.41,-1.00,-1.0,2372
2973,1222973,17020,-568,904,17053.45,30.51,-1.00,-1.0,2435
2976,1222976,16984,-556,960,17020.19,30.51,-1.00,-1.0,2368
2979,1222979,16984,-540,980,17020.82,30.51,-1.00,-1.0,2420
2981,1222981,17020,-608,984,17059.26,30.51,-1.00,-1.0,2368
2984,1222984,17104,-612,788,17133.08,30.51,-1.00,-1.0,2420
2987,1222987,17108,-652,820,17140.04,30.46,-1.00,-1.0,2371
2990,1222990,17052,-656,936,17090.26,30.55,-1.00,-1.0,2369
2995,1222995,16952,-624,920,16988.41,30.46,-1.00,-1.0,2429
2998,1222998,17080,-580,864,17111.67,30.46,-1.00,-1.0,2372
3000,1223000,17020,-560,924,17054.26,30.55,-1.00,-1.0,2446
3003,1223003,17092,-620,980,17131.29,30.55,-1.00,-1.0,2376
3006,1223006,17104,-624,912,17139.66,30.55,-1.00,-1.0,2425
3009,1223009,17040,-600,1008,17080.33,30.55,-1.00,-1.0,2374
3012,1223012,17092,-592,832,17122.47,30.51,-1.00,-1.0,2423
3014,1223014,17008,-640,868,17042.16,30.46,-1.00,-1.0,2384
3019,1223019,17016,-628,820,17047.32,30.46,-1.00,-1.0,2425
3022,1223022,17020,-632,948,17058.09,30.51,-1.00,-1.0,2371
3025,1223025,17008,-632,968,17047.24,30.46,-1.00,-1.0,2442
3028,1223028,17068,-540,868,17098.59,30.55,-1.00,-1.0,2367
3030,1223030,17020,-644,1008,17061.98,30.51,-1.00,-1.0,2372
3033,1223033,17068,-608,856,17100.26,30.41,-1.00,-1.0,2421
3036,1223036,17040,-576,888,17072.84,30.60,-1.00,-1.0,2364
3039,1223039,17088,-556,888,17120.09,30.51,-1.00,-1.0,2421
3041,1223041,17052,-644,1020,17094.62,30.51,-1.00,-1.0,2371
3046,1223046,17008,-628,788,17037.82,30.46,-1.00,-1.0,2430
3049,1223049,17072,-552,968,17108.33,30.46,-1.00,-1.0,2383
3052,1223052,17028,-684,804,17060.69,30.51,-1.00,-1.0,2447
3054,1223054,17072,-600,844,17103.38,30.37,-1.00,-1.0,2376
3057,1223057,17016,-516,804,17042.80,30.51,-1.00,-1.0,2421
3060,1223060,17004,-660,880,17039.54,30.46,-1.00,-1.0,2376
3063,1223063,17100,-592,848,17131.25,30.51,-1.00,-1.0,2421
3065,1223065,17004,-684,780,17035.62,30.41,-1.00,-1.0,2374
3068,1223068,16976,-616,948,17013.60,30.55,-1.00,-1.0,2365
3073,1223073,17028,-616,832,17059.44,30.41,-1.00,-1.0,2425
3076,1223076,17000,-608,972,17038.62,30.41,-1.00,-1.0,2372
3079,1223079,16964,-660,828,16997.01,30.55,-1.00,-1.0,2435
3081,1223081,16968,-516,912,17000.32,30.41,-1.00,-1.0,2369
3084,1223084,16940,-576,916,16974.52,30.46,-1.00,-1.0,2422
3087,1223087,17040,-544,872,17070.97,30.41,-1.00,-1.0,2367
3090,1223090,17080,-608,880,17113.46,30.46,-1.00,-1.0,2420
3092,1223092,17032,-576,780,17059.58,30.41,-1.00,-1.0,2368
3097,1223097,16964,-704,848,16999.77,30.41,-1.00,-1.0,2432
3100,1223100,17100,-680,912,17137.80,30.55,-1.00,-1.0,2361
3103,1223103,16988,-572,876,17020.19,30.60,-1.00,-1.0,2443
3105,1223105,17044,-692,932,17083.48,30.51,-1.00,-1.0,2374
3108,1223108,17048,-624,748,17075.81,30.46,-1.00,-1.0,2368
3111,1223111,17088,-600,944,17124.57,30.46,-1.00,-1.0,2428
3114,1223114,17044,-612,904,17078.93,30.46,-1.00,-1.0,2354
3116,1223116,17020,-612,856,17052.50,30.55,-1.00,-1.0,2424
3119,1223119,17076,-472,940,17108.37,30.46,-1.00,-1.0,2374
3124,1223124,17060,-616,1080,17105.25,30.46,-1.00,-1.0,2422
3127,1223127,17012,-640,896,17047.60,30.51,-1.00,-1.0,2371
3130,1223130,16996,-592,852,17027.64,30.46,-1.00,-1.0,2434
3132,1223132,17096,-588,888,17129.14,30.46,-1.00,-1.0,2368
3135,1223135,17056,-664,1056,17101.55,30.46,-1.00,-1.0,2421
3138,1223138,17008,-588,816,17037.71,30.55,-1.00,-1.0,2368
3141,1223141,17024,-632,936,17061.42,30.46,-1.00,-1.0,2408
3143,1223143,17032,-632,844,17064.61,30.46,-1.00,-1.0,2368
3146,1223146,17016,-620,836,17047.80,30.55,-1.00,-1.0,2368
3151,1223151,16928,-688,916,16966.72,30.55,-1.00,-1.0,2431
3154,1223154,17060,-624,976,17099.29,30.46,-1.00,-1.0,2371
3156,1223156,17052,-660,1028,17095.70,30.51,-1.00,-1.0,2448
3159,1223159,17048,-680,968,17088.99,30.51,-1.00,-1.0,2376
3162,1223162,17040,-660,880,17075.47,30.51,-1.00,-1.0,2424
3165,1223165,17004,-676,808,17036.60,30.41,-1.00,-1.0,2370
3167,1223167,17116,-624,964,17154.48,30.51,-1.00,-1.0,2430
3170,1223170,17100,-580,856,17131.23,30.41,-1.00,-1.0,2376
3175,1223175,17036,-508,884,17066.48,30.46,-1.00,-1.0,2428
3178,1223178,17032,-524,928,17065.31,30.37,-1.00,-1.0,2371
3180,1223180,17072,-720,868,17109.21,30.51,-1.00,-1.0,2435
3183,1223183,17064,-520,844,17092.77,30.46,-1.00,-1.0,2369
3186,1223186,17088,-584,916,17122.50,30.51,-1.00,-1.0,2368
3188,1223188,17012,-644,800,17042.97,30.46,-1.00,-1.0,2428
3191,1223191,17092,-592,948,17128.50,30.60,-1.00,-1.0,2383
3194,1223194,17016,-532,912,17048.72,30.51,-1.00,-1.0,2435
3197,1223197,17052,-608,928,17088.05,30.51,-1.00,-1.0,2368
3202,1223202,16956,-528,908,16988.50,30.51,-1.00,-1.0,2421
3205,1223205,17068,-600,924,17103.52,30.46,-1.00,-1.0,2371
3208,1223208,17160,-484,916,17191.25,30.41,-1.00,-1.0,2435
3210,1223210,16944,-452,832,16970.44,30.51,-1.00,-1.0,2368
3213,1223213,16960,-580,888,16993.13,30.60,-1.00,-1.0,2422
3216,1223216,17156,-576,880,17188.21,30.46,-1.00,-1.0,2374
3219,1223219,17096,-580,896,17129.29,30.51,-1.00,-1.0,2420
3221,1223221,17044,-556,1088,17087.74,30.51,-1.00,-1.0,2369
3224,1223224,16992,-680,944,17031.78,30.41,-1.00,-1.0,2373
3229,1223229,16996,-596,932,17031.96,30.51,-1.00,-1.0,2422
3232,1223232,17076,-584,876,17108.43,30.55,-1.00,-1.0,2380
3235,1223235,17108,-572,980,17145.59,30.60,-1.00,-1.0,2435
3237,1223237,17080,-720,784,17113.14,30.51,-1.00,-1.0,2369
3240,1223240,16984,-736,820,17019.71,30.46,-1.00,-1.0,2436
3243,1223243,16988,-604,1004,17028.36,30.51,-1.00,-1.0,2379
3246,1223246,17004,-604,944,17040.89,30.46,-1.00,-1.0,2432
3248,1223248,17024,-636,868,17057.97,30.51,-1.00,-1.0,2371
3253,1223253,17052,-632,776,17081.34,30.51,-1.00,-1.0,2423
3256,1223256,17040,-488,980,17075.13,30.51,-1.00,-1.0,2371
3259,1223259,17064,-612,832,17095.23,30.55,-1.00,-1.0,2443
3262,1223262,17000,-660,992,17041.70,30.51,-1.00,-1.0,2366
3264,1223264,17028,-524,928,17061.32,30.55,-1.00,-1.0,2368
3267,1223267,17088,-476,812,17113.90,30.37,-1.00,-1.0,2421
3270,1223270,17052,-592,768,17079.55,30.46,-1.00,-1.0,2368
3273,1223273,17056,-632,928,17092.91,30.51,-1.00,-1.0,2421
3275,1223275,16992,-780,844,17030.82,30.55,-1.00,-1.0,2357
3280,1223280,16980,-732,792,17014.21,30.55,-1.00,-1.0,2437
3283,1223283,17188,-580,892,17220.90,30.46,-1.00,-1.0,2381
3286,1223286,17020,-520,928,17053.21,30.46,-1.00,-1.0,2442
3288,1223288,17056,-632,736,17083.57,30.46,-1.00,-1.0,2378
3291,1223291,16976,-568,1008,17015.38,30.51,-1.00,-1.0,2421
3294,1223294,17104,-568,868,17135.43,30.55,-1.00,-1.0,2369
3297,1223297,17020,-516,828,17047.94,30.46,-1.00,-1.0,2420
3299,1223299,16920,-556,984,16957.71,30.37,-1.00,-1.0,2375
3302,1223302,17060,-672,680,17086.77,30.55,-1.00,-1.0,2368
3307,1223307,17108,-548,652,17129.19,30.46,-1.00,-1.0,2431
3310,1223310,17040,-564,796,17067.90,30.55,-1.00,-1.0,2374
3313,1223313,17040,-680,912,17077.93,30.46,-1.00,-1.0,2441
3315,1223315,17116,-600,880,17149.11,30.46,-1.00,-1.0,2375
3318,1223318,17012,-588,808,17041.32,30.60,-1.00,-1.0,2421
3321,1223321,17100,-576,880,17132.31,30.55,-1.00,-1.0,2371
3324,1223324,17036,-608,932,17072.30,30.51,-1.00,-1.0,2422
3326,1223326,17048,-556,824,17076.96,30.51,-1.00,-1.0,2375
3331,1223331,17004,-676,1104,17053.21,30.41,-1.00,-1.0,2431
3334,1223334,16984,-612,868,17017.17,30.46,-1.00,-1.0,2386
3337,1223337,17000,-592,816,17029.87,30.41,-1.00,-1.0,2436
3340,1223340,17000,-656,816,17032.21,30.55,-1.00,-1.0,2368
3342,1223342,17064,-692,928,17103.22,30.51,-1.00,-1.0,2365
3345,1223345,17044,-660,896,17080.29,30.55,-1.00,-1.0,2421
3348,1223348,16988,-488,1044,17027.04,30.51,-1.00,-1.0,2374
3351,1223351,17052,-620,852,17084.53,30.46,-1.00,-1.0,2420
3353,1223353,17072,-592,840,17102.90,30.55,-1.00,-1.0,2369
3359,1223359,17120,-580,860,17151.40,30.46,-1.00,-1.0,2442
3362,1223362,16996,-580,916,17030.54,30.46,-1.00,-1.0,2378
3365,1223365,17096,-568,920,17130.16,30.41,-1.00,-1.0,2437
3367,1223367,17184,-620,932,17220.42,30.41,-1.00,-1.0,2384
3370,1223370,17048,-504,956,17082.22,30.51,-1.00,-1.0,2421
3373,1223373,16988,-584,836,17018.58,30.46,-1.00,-1.0,2372
3376,1223376,16956,-556,924,16990.26,30.51,-1.00,-1.0,2424
3378,1223378,17152,-652,864,17186.12,30.51,-1.00,-1.0,2370
3381,1223381,17084,-672,864,17119.03,30.46,-1.00,-1.0,2366
3386,1223386,17076,-516,860,17105.43,30.51,-1.00,-1.0,2414
3388,1223388,17028,-608,896,17062.39,30.51,-1.00,-1.0,2378
3391,1223391,17048,-576,892,17081.04,30.51,-1.00,-1.0,2430
3394,1223394,17088,-484,992,17123.61,30.51,-1.00,-1.0,2367
3397,1223397,17080,-544,936,17114.28,30.46,-1.00,-1.0,2422
3399,1223399,17028,-596,888,17061.55,30.51,-1.00,-1.0,2368
3402,1223402,17064,-656,1052,17108.98,30.46,-1.00,-1.0,2421
3405,1223405,16984,-496,1052,17023.78,30.51,-1.00,-1.0,2367
3410,1223410,17016,-556,936,17050.79,30.41,-1.00,-1.0,2430
3412,1223412,17008,-584,828,17038.15,30.51,-1.00,-1.0,2379
3415,1223415,17020,-576,876,17052.26,30.60,-1.00,-1.0,2430
3418,1223418,17036,-588,924,17071.17,30.51,-1.00,-1.0,2371
3421,1223421,17196,-628,880,17229.95,30.55,-1.00,-1.0,2367
3423,1223423,17112,-672,944,17151.19,30.46,-1.00,-1.0,2421
3426,1223426,17020,-556,852,17050.38,30.46,-1.00,-1.0,2368
3429,1223429,17104,-604,940,17140.46,30.46,-1.00,-1.0,2431
3432,1223432,16980,-636,968,17019.46,30.46,-1.00,-1.0,2367
3437,1223437,17036,-560,768,17062.49,30.46,-1.00,-1.0,2427
3439,1223439,17072,-592,888,17105.33,30.55,-1.00,-1.0,2371
3442,1223442,17080,-596,848,17111.42,30.55,-1.00,-1.0,2430
3445,1223445,17080,-652,804,17111.34,30.46,-1.00,-1.0,2367
3448,1223448,16992,-608,964,17030.18,30.55,-1.00,-1.0,2422
3450,1223450,16884,-608,804,16914.06,30.55,-1.00,-1.0,2368
3453,1223453,17084,-568,888,17116.49,30.46,-1.00,-1.0,2421
3456,1223456,17036,-616,852,17068.41,30.55,-1.00,-1.0,2367
3458,1223458,16968,-640,908,17004.33,30.51,-1.00,-1.0,2367
3464,1223464,17064,-644,848,17097.19,30.46,-1.00,-1.0,2427
3466,1223466,16940,-564,800,16968.26,30.46,-1.00,-1.0,2371
3469,1223469,17036,-556,816,17064.59,30.41,-1.00,-1.0,2430
3472,1223472,17000,-688,928,17039.21,30.55,-1.00,-1.0,2369
3475,1223475,17144,-604,880,17177.19,30.55,-1.00,-1.0,2421
3477,1223477,17024,-580,940,17059.79,30.55,-1.00,-1.0,2368
3480,1223480,17044,-568,896,17076.98,30.51,-1.00,-1.0,2421
3483,1223483,17004,-644,852,17037.51,30.55,-1.00,-1.0,2376
3488,1223488,16980,-556,800,17007.93,30.46,-1.00,-1.0,2426
3490,1223490,17028,-624,956,17066.23,30.46,-1.00,-1.0,2374
3493,1223493,16992,-508,904,17023.61,30.55,-1.00,-1.0,2417
3496,1223496,16992,-672,972,17033.04,30.46,-1.00,-1.0,2369
3499,1223499,16976,-732,944,17017.98,30.65,-1.00,-1.0,2367
3501,1223501,17020,-560,864,17051.11,30.51,-1.00,-1.0,2427
3504,1223504,16952,-564,972,16989.21,30.51,-1.00,-1.0,2369
3507,1223507,17052,-616,816,17082.62,30.51,-1.00,-1.0,2428
3510,1223510,16996,-584,884,17028.99,30.55,-1.00,-1.0,2369
3515,1223515,17104,-580,832,17134.04,30.46,-1.00,-1.0,2426
3517,1223517,17052,-656,924,17089.61,30.46,-1.00,-1.0,2371
3520,1223520,17068,-472,876,17096.98,30.51,-1.00,-1.0,2429
3523,1223523,17040,-604,844,17071.58,30.46,-1.00,-1.0,2367
3526,1223526,17032,-584,1000,17071.32,30.46,-1.00,-1.0,2420
3528,1223528,17008,-464,948,17040.72,30.55,-1.00,-1.0,2369
3531,1223531,17036,-616,860,17068.81,30.51,-1.00,-1.0,2421
3534,1223534,17036,-644,900,17071.91,30.46,-1.00,-1.0,2366
3536,1223536,17008,-524,936,17041.79,30.55,-1.00,-1.0,2374
3541,1223541,17112,-584,912,17146.23,30.55,-1.00,-1.0,2436
3544,1223544,17148,-556,800,17175.65,30.41,-1.00,-1.0,2379
3547,1223547,17036,-620,832,17067.57,30.46,-1.00,-1.0,2424
3550,1223550,16996,-636,824,17027.84,30.55,-1.00,-1.0,2374
3553,1223553,17164,-556,880,17195.54,30.46,-1.00,-1.0,2431
3555,1223555,16952,-612,908,16987.33,30.55,-1.00,-1.0,2376
3558,1223558,17072,-580,892,17105.12,30.46,-1.00,-1.0,2424
3561,1223561,17044,-592,828,17074.37,30.46,-1.00,-1.0,2367
3566,1223566,16984,-592,928,17019.63,30.55,-1.00,-1.0,2427
3568,1223568,16956,-552,900,16988.84,30.55,-1.00,-1.0,2375
3571,1223571,17176,-608,840,17207.27,30.51,-1.00,-1.0,2430
3574,1223574,17020,-536,800,17047.22,30.37,-1.00,-1.0,2367
3576,1223576,17012,-660,868,17046.91,30.60,-1.00,-1.0,2370
3579,1223579,17060,-496,920,17091.99,30.55,-1.00,-1.0,2435
3582,1223582,17036,-616,952,17073.70,30.41,-1.00,-1.0,2377
3585,1223585,17068,-492,772,17092.53,30.55,-1.00,-1.0,2430
3588,1223588,17116,-628,988,17155.99,30.46,-1.00,-1.0,2369
3592,1223592,17076,-636,952,17114.34,30.46,-1.00,-1.0,2442
3595,1223595,17096,-700,1088,17144.88,30.55,-1.00,-1.0,2379
3598,1223598,17040,-584,772,17067.47,30.55,-1.00,-1.0,2441
3600,1223600,17036,-512,812,17063.02,30.46,-1.00,-1.0,2375
3603,1223603,17056,-568,904,17089.38,30.41,-1.00,-1.0,2421
3606,1223606,16924,-576,828,16954.03,30.46,-1.00,-1.0,2368
3609,1223609,17020,-632,844,17052.63,30.60,-1.00,-1.0,2421
3612,1223612,17096,-628,704,17122.01,30.51,-1.00,-1.0,2367
3615,1223615,16976,-540,928,17009.92,30.51,-1.00,-1.0,2364
3620,1223620,16960,-568,808,16988.73,30.55,-1.00,-1.0,2415
3622,1223622,17008,-696,920,17047.08,30.46,-1.00,-1.0,2379
3625,1223625,17112,-632,1052,17155.95,30.51,-1.00,-1.0,2430
3628,1223628,17028,-604,864,17060.60,30.41,-1.00,-1.0,2367
3631,1223631,17088,-572,972,17125.18,30.51,-1.00,-1.0,2421
3633,1223633,17056,-540,1116,17101.00,30.51,-1.00,-1.0,2368
3636,1223636,16992,-584,908,17026.26,30.51,-1.00,-1.0,2420
3639,1223639,17032,-692,812,17065.38,30.60,-1.00,-1.0,2367
3644,1223644,17100,-616,948,17137.33,30.46,-1.00,-1.0,2434
3646,1223646,17016,-660,836,17049.30,30.46,-1.00,-1.0,2382
3649,1223649,17072,-568,912,17105.78,30.60,-1.00,-1.0,2430
3652,1223652,17036,-664,792,17067.32,30.51,-1.00,-1.0,2357
3655,1223655,17104,-540,928,17137.67,30.51,-1.00,-1.0,2366
3657,1223657,17036,-600,868,17068.65,30.46,-1.00,-1.0,2421
3660,1223660,17164,-680,876,17199.79,30.51,-1.00,-1.0,2368
3663,1223663,17016,-600,940,17052.50,30.46,-1.00,-1.0,2428
3666,1223666,16956,-668,1056,17001.98,30.46,-1.00,-1.0,2367
3671,1223671,17072,-636,848,17104.88,30.51,-1.00,-1.0,2427
3673,1223673,16976,-464,1020,17012.94,30.41,-1.00,-1.0,2372
3676,1223676,17016,-656,920,17053.47,30.46,-1.00,-1.0,2430
3679,1223679,17200,-660,920,17237.23,30.51,-1.00,-1.0,2367
3682,1223682,17048,-576,848,17078.79,30.55,-1.00,-1.0,2425
3684,1223684,17020,-620,1020,17061.80,30.46,-1.00,-1.0,2368
3687,1223687,16992,-484,888,17022.07,30.55,-1.00,-1.0,2421
3690,1223690,17000,-540,968,17036.10,30.46,-1.00,-1.0,2368
3693,1223693,17044,-604,940,17080.58,30.55,-1.00,-1.0,2371
3698,1223698,17128,-552,868,17158.86,30.55,-1.00,-1.0,2428
3700,1223700,17076,-512,820,17103.34,30.46,-1.00,-1.0,2371
3703,1223703,17028,-556,940,17062.99,30.55,-1.00,-1.0,2430
3706,1223706,16996,-632,816,17027.31,30.55,-1.00,-1.0,2377
3709,1223709,17028,-548,716,17051.86,30.46,-1.00,-1.0,2421
3711,1223711,16992,-584,972,17029.79,30.65,-1.00,-1.0,2370
3714,1223714,17004,-640,920,17040.89,30.41,-1.00,-1.0,2437
3717,1223717,16992,-616,868,17025.30,30.46,-1.00,-1.0,2370
3722,1223722,17004,-608,1072,17048.60,30.46,-1.00,-1.0,2434
3725,1223725,16980,-608,888,17014.07,30.46,-1.00,-1.0,2372
3727,1223727,17044,-600,948,17080.88,30.46,-1.00,-1.0,2430
3730,1223730,16916,-636,844,16948.98,30.55,-1.00,-1.0,2369
3733,1223733,17080,-564,1016,17119.48,30.51,-1.00,-1.0,2367
3736,1223736,17020,-600,928,17055.84,30.51,-1.00,-1.0,2423
3738,1223738,17024,-580,1016,17064.15,30.51,-1.00,-1.0,2375
3741,1223741,17052,-616,836,17083.59,30.41,-1.00,-1.0,2422
3744,1223744,16956,-560,764,16982.44,30.41,-1.00,-1.0,2369
3749,1223749,16964,-576,844,16994.75,30.51,-1.00,-1.0,2432
3751,1223751,17076,-664,880,17111.55,30.46,-1.00,-1.0,2377
3754,1223754,17044,-640,876,17078.49,30.51,-1.00,-1.0,2438
3757,1223757,17036,-636,828,17067.96,30.51,-1.00,-1.0,2362
3760,1223760,17056,-632,884,17090.58,30.51,-1.00,-1.0,2429
3762,1223762,17036,-564,852,17066.61,30.60,-1.00,-1.0,2376
3765,1223765,17020,-564,908,17053.53,30.46,-1.00,-1.0,2421
3768,1223768,17052,-700,796,17084.91,30.51,-1.00,-1.0,2371
3771,1223771,17028,-632,828,17059.83,30.60,-1.00,-1.0,2367
3776,1223776,17064,-612,928,17100.17,30.37,-1.00,-1.0,2426
3778,1223778,17044,-676,828,17077.48,30.41,-1.00,-1.0,2372
3781,1223781,17000,-620,804,17030.29,30.55,-1.00,-1.0,2431
3784,1223784,16980,-644,840,17012.96,30.46,-1.00,-1.0,2367
3787,1223787,16964,-608,924,17000.02,30.46,-1.00,-1.0,2420
3789,1223789,17068,-644,796,17098.68,30.46,-1.00,-1.0,2368
3792,1223792,16944,-552,756,16969.84,30.46,-1.00,-1.0,2422
3795,1223795,17032,-720,804,17066.16,30.55,-1.00,-1.0,2367
3799,1223799,17048,-612,904,17082.92,30.51,-1.00,-1.0,2437
3802,1223802,16996,-508,956,17030.44,30.51,-1.00,-1.0,2379
3805,1223805,17088,-536,912,17120.71,30.46,-1.00,-1.0,2432
3808,1223808,17012,-548,980,17049.01,30.41,-1.00,-1.0,2374
3810,1223810,17092,-712,880,17129.44,30.46,-1.00,-1.0,2365
3813,1223813,17060,-572,872,17091.85,30.41,-1.00,-1.0,2421
3816,1223816,16944,-560,1008,16983.19,30.46,-1.00,-1.0,2369
3819,1223819,17064,-660,952,17103.28,30.46,-1.00,-1.0,2420
3822,1223822,17080,-628,972,17119.16,30.46,-1.00,-1.0,2367
3827,1223827,17072,-636,668,17096.90,30.55,-1.00,-1.0,2428
3829,1223829,17012,-652,876,17047.01,30.55,-1.00,-1.0,2384
3832,1223832,16992,-676,880,17028.20,30.46,-1.00,-1.0,2429
3835,1223835,17020,-676,960,17060.45,30.46,-1.00,-1.0,2372
3838,1223838,17120,-688,860,17155.39,30.51,-1.00,-1.0,2428
3841,1223841,17100,-552,848,17129.91,30.55,-1.00,-1.0,2368
3843,1223843,17012,-532,880,17043.05,30.55,-1.00,-1.0,2422
3846,1223846,16928,-548,920,16961.84,30.46,-1.00,-1.0,2368
3849,1223849,16980,-616,900,17014.99,30.55,-1.00,-1.0,2366
3854,1223854,17008,-600,888,17041.73,30.46,-1.00,-1.0,2426
3856,1223856,16972,-588,844,17003.14,30.55,-1.00,-1.0,2379
3859,1223859,17096,-524,908,17128.11,30.55,-1.00,-1.0,2417
3862,1223862,16968,-660,920,17005.73,30.46,-1.00,-1.0,2371
3865,1223865,17012,-616,820,17042.89,30.60,-1.00,-1.0,2421
3867,1223867,17052,-564,932,17086.76,30.46,-1.00,-1.0,2354
3870,1223870,17128,-624,880,17161.94,30.55,-1.00,-1.0,2421
3873,1223873,16956,-600,764,16983.80,30.55,-1.00,-1.0,2372
3878,1223878,17008,-600,872,17040.90,30.55,-1.00,-1.0,2433
3881,1223881,17080,-684,844,17114.51,30.51,-1.00,-1.0,2383
3884,1223884,16980,-648,836,17012.91,30.46,-1.00,-1.0,2440
3886,1223886,17088,-568,884,17120.28,30.55,-1.00,-1.0,2376
3889,1223889,17080,-652,880,17115.08,30.51,-1.00,-1.0,2364
3892,1223892,17052,-544,860,17082.34,30.51,-1.00,-1.0,2426
3895,1223895,17132,-572,940,17167.30,30.51,-1.00,-1.0,2366
3897,1223897,17068,-544,796,17095.21,30.51,-1.00,-1.0,2421
3900,1223900,17060,-604,824,17090.56,30.41,-1.00,-1.0,2368
3905,1223905,17088,-656,740,17116.59,30.46,-1.00,-1.0,2429
3908,1223908,17084,-564,852,17114.53,30.46,-1.00,-1.0,2381
3911,1223911,17100,-580,908,17133.91,30.51,-1.00,-1.0,2429
3913,1223913,17000,-544,940,17034.66,30.46,-1.00,-1.0,2369
3916,1223916,17004,-684,884,17040.70,30.51,-1.00,-1.0,2420
3919,1223919,16992,-684,796,17024.38,30.46,-1.00,-1.0,2373
3922,1223922,17104,-648,960,17143.17,30.51,-1.00,-1.0,2421
3924,1223924,17028,-576,916,17062.35,30.55,-1.00,-1.0,2368
3927,1223927,17140,-668,864,17174.76,30.51,-1.00,-1.0,2373
3932,1223932,17036,-644,948,17074.51,30.41,-1.00,-1.0,2434
3935,1223935,16992,-512,968,17027.25,30.41,-1.00,-1.0,2371
3937,1223937,17056,-644,964,17095.36,30.60,-1.00,-1.0,2432
3940,1223940,17028,-648,932,17065.79,30.51,-1.00,-1.0,2368
3943,1223943,17024,-636,944,17062.01,30.46,-1.00,-1.0,2423
3946,1223946,17004,-684,944,17043.91,30.51,-1.00,-1.0,2367
3948,1223948,16980,-616,904,17015.20,30.55,-1.00,-1.0,2422
3951,1223951,17096,-576,980,17133.75,30.41,-1.00,-1.0,2369
3956,1223956,16956,-532,900,16988.20,30.51,-1.00,-1.0,2427
3959,1223959,16964,-580,788,16992.19,30.41,-1.00,-1.0,2372
3962,1223962,17104,-648,896,17139.71,30.51,-1.00,-1.0,2430
3964,1223964,17116,-572,816,17144.98,30.41,-1.00,-1.0,2368
3967,1223967,17012,-504,788,17037.70,30.46,-1.00,-1.0,2369
3970,1223970,17020,-584,924,17055.06,30.46,-1.00,-1.0,2425
3972,1223972,17088,-704,812,17121.76,30.46,-1.00,-1.0,2370
3975,1223975,17020,-536,948,17054.81,30.55,-1.00,-1.0,2437
3978,1223978,17056,-576,784,17083.72,30.46,-1.00,-1.0,2376
3983,1223983,16976,-580,980,17014.15,30.51,-1.00,-1.0,2429
3985,1223985,16992,-588,916,17026.83,30.41,-1.00,-1.0,2382
3988,1223988,17084,-544,1032,17123.79,30.51,-1.00,-1.0,2430
3991,1223991,17016,-628,876,17050.10,30.51,-1.00,-1.0,2370
3994,1223994,16972,-592,860,17004.08,30.51,-1.00,-1.0,2423
3996,1223996,17028,-680,744,17057.80,30.51,-1.00,-1.0,2375
3999,1223999,17012,-616,828,17043.27,30.51,-1.00,-1.0,2421
4002,1224002,17040,-648,940,17078.21,30.51,-1.00,-1.0,2369
4005,1224005,17020,-672,888,17056.39,30.46,-1.00,-1.0,2353
4010,1224010,17128,-628,876,17161.88,30.55,-1.00,-1.0,2428
4012,1224012,17072,-572,932,17106.99,30.41,-1.00,-1.0,2371
4015,1224015,17144,-492,996,17179.95,30.55,-1.00,-1.0,2430
4018,1224018,17024,-600,936,17060.27,30.46,-1.00,-1.0,2368
4021,1224021,17140,-692,1144,17192.07,30.46,-1.00,-1.0,2421
4023,1224023,17016,-644,872,17050.49,30.46,-1.00,-1.0,2369
4026,1224026,17080,-608,896,17114.29,30.46,-1.00,-1.0,2421
4029,1224029,16964,-592,912,16998.81,30.51,-1.00,-1.0,2355
4034,1224034,16968,-604,1004,17008.41,30.51,-1.00,-1.0,2433
4037,1224037,17036,-560,856,17066.68,30.46,-1.00,-1.0,2371
4039,1224039,17128,-616,1020,17169.40,30.60,-1.00,-1.0,2439
4042,1224042,17020,-460,840,17046.92,30.46,-1.00,-1.0,2386
4045,1224045,17112,-640,816,17143.39,30.46,-1.00,-1.0,2366
4048,1224048,17092,-692,844,17126.81,30.46,-1.00,-1.0,2408
4050,1224050,17036,-508,772,17061.05,30.55,-1.00,-1.0,2369
4053,1224053,17016,-548,796,17043.42,30.55,-1.00,-1.0,2421
4056,1224056,17144,-456,800,17168.71,30.51,-1.00,-1.0,2368
4061,1224061,17088,-512,876,17118.10,30.41,-1.00,-1.0,2430
4064,1224064,17008,-620,844,17040.21,30.51,-1.00,-1.0,2382
4067,1224067,16984,-612,776,17012.73,30.51,-1.00,-1.0,2417
4069,1224069,17008,-668,828,17041.24,30.41,-1.00,-1.0,2371
4072,1224072,17128,-568,848,17158.38,30.55,-1.00,-1.0,2421
4075,1224075,17000,-468,1020,17037.00,30.41,-1.00,-1.0,2365
4078,1224078,17064,-648,748,17092.67,30.51,-1.00,-1.0,2408
4080,1224080,17072,-680,828,17105.59,30.51,-1.00,-1.0,2383
4083,1224083,17076,-580,872,17108.08,30.37,-1.00,-1.0,2366
4088,1224088,17068,-616,908,17103.23,30.51,-1.00,-1.0,2429
4091,1224091,17008,-556,972,17044.82,30.51,-1.00,-1.0,2383
4094,1224094,17004,-568,852,17034.80,30.37,-1.00,-1.0,2430
4096,1224096,17036,-648,944,17074.44,30.55,-1.00,-1.0,2370
4099,1224099,17044,-564,744,17069.55,30.46,-1.00,-1.0,2421
4102,1224102,16976,-616,876,17009.74,30.46,-1.00,-1.0,2370
4105,1224105,17036,-600,872,17068.85,30.46,-1.00,-1.0,2421
4107,1224107,17068,-668,1008,17110.78,30.55,-1.00,-1.0,2369
4112,1224112,17088,-672,860,17122.82,30.51,-1.00,-1.0,2422
4115,1224115,17032,-652,808,17063.62,30.51,-1.00,-1.0,2379
4118,1224118,16948,-544,912,16981.24,30.46,-1.00,-1.0,2438
4120,1224120,16964,-664,820,16996.78,30.60,-1.00,-1.0,2375
4123,1224123,17000,-544,896,17032.29,30.55,-1.00,-1.0,2365
4126,1224126,16988,-720,936,17028.99,30.51,-1.00,-1.0,2423
4129,1224129,17064,-732,872,17101.94,30.46,-1.00,-1.0,2366
4131,1224131,17088,-604,1048,17130.76,30.51,-1.00,-1.0,2424
4134,1224134,17068,-652,924,17105.42,30.46,-1.00,-1.0,2368
4139,1224139,16968,-584,856,16999.61,30.46,-1.00,-1.0,2414
4142,1224142,17092,-608,868,17124.82,30.46,-1.00,-1.0,2371
4145,1224145,17056,-704,856,17091.97,30.41,-1.00,-1.0,2430
4147,1224147,16976,-580,900,17009.73,30.55,-1.00,-1.0,2369
4150,1224150,17056,-672,944,17095.32,30.55,-1.00,-1.0,2421
4153,1224153,16960,-556,872,16991.50,30.55,-1.00,-1.0,2368
4156,1224156,17020,-744,1028,17067.24,30.51,-1.00,-1.0,2420
4158,1224158,17096,-612,968,17134.32,30.55,-1.00,-1.0,2369
4161,1224161,17072,-544,816,17100.14,30.46,-1.00,-1.0,2366
4166,1224166,16968,-488,1000,17004.45,30.46,-1.00,-1.0,2429
4169,1224169,16940,-592,912,16974.86,30.46,-1.00,-1.0,2371
4172,1224172,17152,-528,956,17186.73,30.51,-1.00,-1.0,2430
4174,1224174,17080,-596,820,17110.06,30.51,-1.00,-1.0,2355
4177,1224177,17044,-560,924,17078.21,30.51,-1.00,-1.0,2421
4180,1224180,17040,-632,952,17078.27,30.55,-1.00,-1.0,2368
4183,1224183,17080,-664,760,17109.79,30.51,-1.00,-1.0,2420
4185,1224185,17044,-516,952,17078.36,30.51,-1.00,-1.0,2368
4191,1224191,17092,-640,864,17125.79,30.60,-1.00,-1.0,2435
4194,1224194,17028,-632,896,17063.27,30.51,-1.00,-1.0,2371
4196,1224196,16880,-588,896,16913.99,30.51,-1.00,-1.0,2431
4199,1224199,17092,-616,856,17124.50,30.51,-1.00,-1.0,2368
4202,1224202,17112,-612,844,17143.73,30.46,-1.00,-1.0,2368
4205,1224205,17056,-636,764,17084.95,30.37,-1.00,-1.0,2408
4207,1224207,17096,-608,972,17134.40,30.46,-1.00,-1.0,2384
4210,1224210,17108,-520,868,17137.90,30.55,-1.00,-1.0,2423
4213,1224213,16976,-788,992,17023.21,30.55,-1.00,-1.0,2374
4217,1224217,17032,-648,844,17065.21,30.37,-1.00,-1.0,2430
4220,1224220,17064,-644,872,17098.40,30.51,-1.00,-1.0,2372
4223,1224223,17084,-588,928,17119.29,30.37,-1.00,-1.0,2437
4226,1224226,17080,-600,796,17109.06,30.46,-1.00,-1.0,2370
4228,1224228,17128,-704,928,17167.56,30.55,-1.00,-1.0,2428
4231,1224231,16968,-664,860,17002.75,30.46,-1.00,-1.0,2374
4234,1224234,17132,-548,920,17165.43,30.46,-1.00,-1.0,2422
4237,1224237,17008,-680,784,17039.63,30.55,-1.00,-1.0,2374
4239,1224239,17036,-468,824,17062.34,30.51,-1.00,-1.0,2366
4244,1224244,17028,-592,1044,17070.24,30.51,-1.00,-1.0,2427
4247,1224247,17024,-596,764,17051.55,30.37,-1.00,-1.0,2372
4250,1224250,17028,-712,776,17060.54,30.51,-1.00,-1.0,2428
4253,1224253,17028,-656,752,17057.22,30.51,-1.00,-1.0,2370
4255,1224255,17052,-548,948,17087.12,30.60,-1.00,-1.0,2421
4258,1224258,17072,-560,904,17105.09,30.55,-1.00,-1.0,2371
4261,1224261,17048,-508,940,17081.45,30.51,-1.00,-1.0,2420
4264,1224264,17132,-560,852,17162.31,30.51,-1.00,-1.0,2370
4268,1224268,17092,-540,888,17123.57,30.51,-1.00,-1.0,2436
4271,1224271,17072,-592,1008,17111.98,30.55,-1.00,-1.0,2385
4274,1224274,17068,-700,912,17106.68,30.51,-1.00,-1.0,2429
4277,1224277,17060,-648,868,17094.35,30.41,-1.00,-1.0,2368
4279,1224279,17032,-576,908,17065.91,30.51,-1.00,-1.0,2365
4282,1224282,17028,-660,968,17068.26,30.55,-1.00,-1.0,2421
4285,1224285,17092,-532,796,17118.79,30.51,-1.00,-1.0,2376
4288,1224288,17112,-692,1012,17155.86,30.46,-1.00,-1.0,2420
4290,1224290,17024,-656,984,17065.03,30.46,-1.00,-1.0,2368
4295,1224295,17088,-568,848,17118.46,30.60,-1.00,-1.0,2427
4298,1224298,17044,-668,1028,17088.04,30.51,-1.00,-1.0,2358
4301,1224301,17076,-692,948,17116.29,30.46,-1.00,-1.0,2437
4304,1224304,16984,-576,1004,17023.40,30.41,-1.00,-1.0,2367
4306,1224306,17100,-660,920,17137.45,30.46,-1.00,-1.0,2423
4309,1224309,17104,-652,1084,17150.71,30.51,-1.00,-1.0,2369
4312,1224312,17060,-588,848,17091.18,30.37,-1.00,-1.0,2429
4315,1224315,16980,-620,692,17005.40,30.55,-1.00,-1.0,2368
4320,1224320,17064,-604,928,17099.89,30.41,-1.00,-1.0,2432
4322,1224322,17096,-588,972,17133.70,30.51,-1.00,-1.0,2380
4325,1224325,16976,-512,740,16999.83,30.46,-1.00,-1.0,2364
4328,1224328,16984,-660,892,17020.21,30.46,-1.00,-1.0,2438
4331,1224331,16988,-592,940,17024.28,30.55,-1.00,-1.0,2367
4333,1224333,17020,-568,880,17052.20,30.55,-1.00,-1.0,2424
4336,1224336,17064,-564,920,17098.09,30.46,-1.00,-1.0,2373
4339,1224339,17076,-508,744,17099.75,30.46,-1.00,-1.0,2427
4342,1224342,17024,-692,868,17060.15,30.46,-1.00,-1.0,2369
4347,1224347,17036,-616,808,17066.27,30.55,-1.00,-1.0,2427
4349,1224349,17048,-596,948,17084.74,30.41,-1.00,-1.0,2372
4352,1224352,16992,-520,908,17024.19,30.46,-1.00,-1.0,2430
4355,1224355,16944,-580,948,16980.41,30.46,-1.00,-1.0,2366
4357,1224357,17056,-500,880,17086.00,30.51,-1.00,-1.0,2367
4360,1224360,17108,-560,824,17136.98,30.51,-1.00,-1.0,2413
4363,1224363,17056,-528,908,17088.31,30.55,-1.00,-1.0,2377
4366,1224366,17072,-524,948,17106.33,30.51,-1.00,-1.0,2434
4368,1224368,16996,-556,908,17029.32,30.51,-1.00,-1.0,2378
4373,1224373,17020,-588,800,17048.93,30.51,-1.00,-1.0,2427
4376,1224376,17072,-544,940,17106.51,30.55,-1.00,-1.0,2369
4379,1224379,17080,-560,784,17107.15,30.46,-1.00,-1.0,2437
4382,1224382,17136,-632,784,17165.56,30.46,-1.00,-1.0,2363
4384,1224384,17100,-548,956,17135.47,30.51,-1.00,-1.0,2433
4387,1224387,17064,-592,860,17095.91,30.55,-1.00,-1.0,2365
4390,1224390,16976,-656,736,17004.61,30.51,-1.00,-1.0,2427
4393,1224393,17032,-552,1092,17075.89,30.37,-1.00,-1.0,2366
4395,1224395,17088,-588,800,17116.82,30.37,-1.00,-1.0,2369
4400,1224400,16964,-548,852,16994.22,30.51,-1.00,-1.0,2427
4403,1224403,17072,-652,928,17109.63,30.46,-1.00,-1.0,2381
4406,1224406,17060,-692,888,17097.11,30.51,-1.00,-1.0,2434
4408,1224408,17080,-608,824,17110.67,30.51,-1.00,-1.0,2372
4411,1224411,17052,-612,996,17092.02,30.51,-1.00,-1.0,2436
4414,1224414,17056,-600,940,17092.42,30.60,-1.00,-1.0,2375
4417,1224417,17068,-632,696,17093.87,30.41,-1.00,-1.0,2432
4419,1224419,17036,-652,880,17071.17,30.51,-1.00,-1.0,2378
4424,1224424,17028,-628,1060,17072.52,30.55,-1.00,-1.0,2427
4427,1224427,17000,-600,880,17033.33,30.46,-1.00,-1.0,2371
4430,1224430,17008,-656,796,17039.25,30.41,-1.00,-1.0,2430
4432,1224432,16992,-624,1024,17034.26,30.55,-1.00,-1.0,2369
4435,1224435,17104,-648,848,17137.26,30.51,-1.00,-1.0,2420
4438,1224438,17064,-604,804,17093.61,30.55,-1.00,-1.0,2376
4440,1224440,16988,-624,916,17024.12,30.51,-1.00,-1.0,2377
4443,1224443,17076,-592,868,17108.29,30.51,-1.00,-1.0,2434
4446,1224446,17028,-644,704,17054.71,30.41,-1.00,-1.0,2370
4451,1224451,17028,-608,880,17061.56,30.51,-1.00,-1.0,2427
4454,1224454,17032,-508,732,17055.29,30.55,-1.00,-1.0,2371
4457,1224457,16976,-724,896,17015.04,30.41,-1.00,-1.0,2432
4460,1224460,17068,-604,904,17102.59,30.51,-1.00,-1.0,2367
4462,1224462,17060,-612,820,17090.66,30.51,-1.00,-1.0,2421
4465,1224465,17024,-664,912,17061.34,30.41,-1.00,-1.0,2370
4468,1224468,17044,-660,968,17084.22,30.51,-1.00,-1.0,2431
4471,1224471,17020,-672,948,17059.62,30.51,-1.00,-1.0,2367
4473,1224473,17084,-616,920,17119.84,30.51,-1.00,-1.0,2367
4478,1224478,16976,-724,872,17013.79,30.51,-1.00,-1.0,2427
4481,1224481,16992,-656,1000,17034.04,30.51,-1.00,-1.0,2372
4484,1224484,17088,-588,744,17114.29,30.51,-1.00,-1.0,2436
4487,1224487,17024,-660,980,17064.95,30.51,-1.00,-1.0,2370
4489,1224489,17048,-532,816,17075.81,30.46,-1.00,-1.0,2437
4492,1224492,17076,-692,892,17113.28,30.51,-1.00,-1.0,2368
4495,1224495,17032,-704,1004,17076.08,30.55,-1.00,-1.0,2431
4498,1224498,16976,-620,1008,17017.20,30.51,-1.00,-1.0,2368
4503,1224503,17008,-576,900,17041.53,30.51,-1.00,-1.0,2414
4505,1224505,16972,-552,1060,17014.03,30.41,-1.00,-1.0,2371
4508,1224508,17060,-628,832,17091.82,30.51,-1.00,-1.0,2430
4511,1224511,17120,-608,808,17149.84,30.46,-1.00,-1.0,2369
4514,1224514,17060,-608,796,17089.38,30.51,-1.00,-1.0,2420
4516,1224516,17068,-620,848,17100.30,30.41,-1.00,-1.0,2369
4519,1224519,17000,-536,952,17035.07,30.46,-1.00,-1.0,2372
4522,1224522,16992,-560,888,17024.40,30.55,-1.00,-1.0,2429
4524,1224524,17088,-580,988,17126.36,30.46,-1.00,-1.0,2374
4531,1224531,17036,-544,924,17069.71,30.55,-1.00,-1.0,2427
4534,1224534,17028,-644,920,17064.99,30.51,-1.00,-1.0,2380
4537,1224537,17020,-680,888,17056.71,30.46,-1.00,-1.0,2439
4539,1224539,17060,-580,904,17093.78,30.55,-1.00,-1.0,2372
4542,1224542,17000,-584,860,17031.75,30.55,-1.00,-1.0,2436
4545,1224545,17084,-636,808,17114.92,30.46,-1.00,-1.0,2376
4548,1224548,17024,-664,776,17054.61,30.55,-1.00,-1.0,2430
4550,1224550,17072,-680,776,17103.15,30.37,-1.00,-1.0,2376
4555,1224555,17036,-644,800,17066.93,30.46,-1.00,-1.0,2428
4558,1224558,16960,-588,988,16998.93,30.51,-1.00,-1.0,2371
4561,1224561,17008,-528,904,17040.19,30.46,-1.00,-1.0,2366
4564,1224564,17112,-696,964,17153.26,30.51,-1.00,-1.0,2430
4566,1224566,17084,-604,856,17116.09,30.41,-1.00,-1.0,2368
4569,1224569,17104,-664,928,17142.02,30.41,-1.00,-1.0,2408
4572,1224572,16972,-572,996,17010.82,30.55,-1.00,-1.0,2368
4575,1224575,17072,-676,832,17105.62,30.41,-1.00,-1.0,2421
4577,1224577,16976,-520,908,17008.22,30.55,-1.00,-1.0,2413
4582,1224582,17000,-508,952,17034.21,30.37,-1.00,-1.0,2439
4585,1224585,17068,-604,884,17101.55,30.46,-1.00,-1.0,2371
4588,1224588,16972,-732,1004,17017.42,30.55,-1.00,-1.0,2424
4591,1224591,17016,-544,852,17046.00,30.55,-1.00,-1.0,2369
4593,1224593,16992,-656,864,17026.59,30.51,-1.00,-1.0,2431
4596,1224596,16964,-632,1044,17007.84,30.37,-1.00,-1.0,2375
4599,1224599,16932,-608,712,16957.87,30.51,-1.00,-1.0,2366
4602,1224602,16952,-704,824,16986.61,30.51,-1.00,-1.0,2422
4604,1224604,17040,-640,920,17076.81,30.51,-1.00,-1.0,2368
4609,1224609,17040,-612,856,17072.46,30.46,-1.00,-1.0,2436
4612,1224612,17136,-596,776,17163.91,30.51,-1.00,-1.0,2371
4615,1224615,17044,-628,892,17078.88,30.55,-1.00,-1.0,2422
4617,1224617,17092,-620,896,17126.70,30.41,-1.00,-1.0,2434
4620,1224620,17024,-600,900,17058.33,30.55,-1.00,-1.0,2419
4623,1224623,17068,-596,964,17105.59,30.46,-1.00,-1.0,2373
4626,1224626,17056,-608,828,17086.91,30.46,-1.00,-1.0,2422
4629,1224629,17044,-580,964,17081.09,30.46,-1.00,-1.0,2372
4633,1224633,16992,-552,756,17017.76,30.51,-1.00,-1.0,2445
4636,1224636,17016,-472,1076,17056.52,30.51,-1.00,-1.0,2371
4639,1224639,17040,-512,884,17070.59,30.55,-1.00,-1.0,2365
4641,1224641,17076,-660,948,17115.03,30.46,-1.00,-1.0,2423
4644,1224644,16992,-544,992,17029.62,30.46,-1.00,-1.0,2368
4647,1224647,17072,-644,856,17105.57,30.55,-1.00,-1.0,2411
4650,1224650,17084,-640,1032,17127.10,30.55,-1.00,-1.0,2368
4652,1224652,17064,-580,876,17096.31,30.46,-1.00,-1.0,2424
4655,1224655,17080,-656,916,17117.12,30.46,-1.00,-1.0,2368
4660,1224660,17184,-600,900,17218.01,30.46,-1.00,-1.0,2436
4663,1224663,16992,-688,916,17030.57,30.51,-1.00,-1.0,2371
4666,1224666,16964,-564,676,16986.83,30.55,-1.00,-1.0,2421
4668,1224668,17052,-552,980,17089.05,30.55,-1.00,-1.0,2369
4671,1224671,16968,-604,704,16993.34,30.46,-1.00,-1.0,2421
4674,1224674,17028,-628,884,17062.49,30.55,-1.00,-1.0,2368
4676,1224676,17048,-648,784,17078.32,30.55,-1.00,-1.0,2368
4679,1224679,17200,-556,988,17237.32,30.51,-1.00,-1.0,2436
4682,1224682,17024,-624,744,17051.67,30.51,-1.00,-1.0,2375
4687,1224687,17056,-492,856,17084.55,30.51,-1.00,-1.0,2447
4690,1224690,17028,-628,832,17059.88,30.55,-1.00,-1.0,2373
4692,1224692,17104,-588,872,17136.30,30.51,-1.00,-1.0,2431
4695,1224695,17004,-596,980,17042.64,30.41,-1.00,-1.0,2377
4698,1224698,17128,-604,856,17160.01,30.51,-1.00,-1.0,2423
4701,1224701,17020,-600,840,17051.28,30.46,-1.00,-1.0,2369
4703,1224703,16980,-628,716,17006.69,30.41,-1.00,-1.0,2431
4706,1224706,17156,-556,996,17193.88,30.51,-1.00,-1.0,2376
4711,1224711,17108,-592,840,17138.84,30.51,-1.00,-1.0,2435
4714,1224714,17048,-620,880,17081.95,30.55,-1.00,-1.0,2380
4716,1224716,17068,-596,1052,17110.77,30.41,-1.00,-1.0,2372
4719,1224719,17028,-520,788,17054.15,30.46,-1.00,-1.0,2420
4722,1224722,17028,-596,944,17064.56,30.46,-1.00,-1.0,2371
4725,1224725,17020,-636,784,17049.91,30.46,-1.00,-1.0,2421
4728,1224728,17056,-616,904,17091.04,30.46,-1.00,-1.0,2370
4730,1224730,17092,-592,824,17122.09,30.46,-1.00,-1.0,2420
4733,1224733,17080,-584,920,17114.73,30.55,-1.00,-1.0,2372
4738,1224738,16976,-596,840,17007.22,30.51,-1.00,-1.0,2451
4741,1224741,17028,-516,840,17056.51,30.51,-1.00,-1.0,2380
4744,1224744,16992,-588,800,17020.98,30.46,-1.00,-1.0,2429
4746,1224746,17080,-608,824,17110.67,30.51,-1.00,-1.0,2375
4749,1224749,16940,-616,800,16970.06,30.46,-1.00,-1.0,2421
4752,1224752,17068,-664,872,17103.15,30.51,-1.00,-1.0,2357
4755,1224755,17072,-612,832,17103.21,30.46,-1.00,-1.0,2366
4757,1224757,17072,-652,808,17103.54,30.41,-1.00,-1.0,2421
4760,1224760,17112,-624,792,17141.68,30.46,-1.00,-1.0,2369
4765,1224765,17096,-480,868,17124.75,30.55,-1.00,-1.0,2436
4768,1224768,17028,-676,972,17069.11,30.55,-1.00,-1.0,2378
4771,1224771,16996,-548,820,17024.59,30.46,-1.00,-1.0,2420
4773,1224773,17032,-596,968,17069.89,30.46,-1.00,-1.0,2355
4776,1224776,16988,-576,960,17024.85,30.55,-1.00,-1.0,2423
4779,1224779,17064,-604,928,17099.89,30.46,-1.00,-1.0,2368
4782,1224782,16984,-508,828,17011.76,30.55,-1.00,-1.0,2421
4784,1224784,17076,-560,832,17105.43,30.46,-1.00,-1.0,2355
4789,1224789,16992,-568,956,17028.35,30.46,-1.00,-1.0,2451
4792,1224792,17148,-508,948,17181.70,30.41,-1.00,-1.0,2381
4795,1224795,17112,-512,816,17139.09,30.55,-1.00,-1.0,2368
4797,1224797,17144,-540,816,17171.90,30.51,-1.00,-1.0,2421
4800,1224800,16956,-636,868,16990.11,30.37,-1.00,-1.0,2354
4803,1224803,17028,-632,924,17064.76,30.51,-1.00,-1.0,2428
4806,1224806,17020,-472,944,17052.69,30.55,-1.00,-1.0,2368
4808,1224808,17040,-644,1056,17084.83,30.60,-1.00,-1.0,2425
4811,1224811,17068,-608,740,17094.85,30.46,-1.00,-1.0,2355
4816,1224816,17164,-596,804,17193.15,30.51,-1.00,-1.0,2443
4819,1224819,17100,-556,1008,17138.71,30.46,-1.00,-1.0,2372
4821,1224821,17072,-632,872,17105.93,30.51,-1.00,-1.0,2421
4824,1224824,17016,-568,940,17051.41,30.51,-1.00,-1.0,2369
4827,1224827,16980,-644,816,17011.79,30.60,-1.00,-1.0,2429
4830,1224830,17020,-616,816,17050.68,30.46,-1.00,-1.0,2367
4832,1224832,16924,-636,868,16958.18,30.55,-1.00,-1.0,2374
4835,1224835,17036,-564,992,17074.18,30.46,-1.00,-1.0,2410
4838,1224838,17080,-592,792,17108.60,30.46,-1.00,-1.0,2367
4842,1224842,17036,-652,968,17075.93,30.51,-1.00,-1.0,2422
4845,1224845,17104,-660,900,17140.37,30.51,-1.00,-1.0,2372
4848,1224848,17136,-480,836,17163.09,30.41,-1.00,-1.0,2427
4851,1224851,17116,-528,944,17150.14,30.55,-1.00,-1.0,2368
4853,1224853,17028,-592,1012,17068.32,30.51,-1.00,-1.0,2422
4856,1224856,17080,-608,884,17113.66,30.51,-1.00,-1.0,2368
4859,1224859,17096,-612,888,17129.98,30.51,-1.00,-1.0,2427
4862,1224862,17100,-700,956,17141.00,30.55,-1.00,-1.0,2368
4867,1224867,17040,-660,920,17077.58,30.46,-1.00,-1.0,2438
4869,1224869,17084,-532,972,17119.90,30.46,-1.00,-1.0,2358
4872,1224872,17088,-580,832,17118.07,30.51,-1.00,-1.0,2376
4875,1224875,17020,-624,928,17056.70,30.46,-1.00,-1.0,2421
4877,1224877,17032,-696,936,17071.89,30.60,-1.00,-1.0,2373
4880,1224880,17176,-664,1008,17218.36,30.46,-1.00,-1.0,2428
4883,1224883,17016,-608,896,17050.42,30.55,-1.00,-1.0,2377
4886,1224886,17052,-592,772,17079.73,30.55,-1.00,-1.0,2426
4888,1224888,17016,-596,840,17047.14,30.55,-1.00,-1.0,2371
4893,1224893,17104,-584,812,17133.22,30.51,-1.00,-1.0,2436
4896,1224896,17056,-600,884,17089.43,30.41,-1.00,-1.0,2372
4899,1224899,17088,-552,860,17118.53,30.55,-1.00,-1.0,2423
4902,1224902,17052,-624,780,17081.23,30.60,-1.00,-1.0,2368
4904,1224904,16988,-660,896,17024.41,30.55,-1.00,-1.0,2424
4907,1224907,17104,-504,900,17135.08,30.41,-1.00,-1.0,2369
4910,1224910,16980,-672,840,17014.04,30.55,-1.00,-1.0,2369
4913,1224913,17076,-688,824,17109.71,30.46,-1.00,-1.0,2428
4915,1224915,17092,-644,940,17129.94,30.46,-1.00,-1.0,2376
4920,1224920,17140,-564,900,17172.88,30.46,-1.00,-1.0,2451
4923,1224923,17004,-480,920,17035.63,30.46,-1.00,-1.0,2380
4926,1224926,17096,-676,884,17132.18,30.51,-1.00,-1.0,2429
4928,1224928,17032,-584,916,17066.61,30.46,-1.00,-1.0,2376
4931,1224931,16948,-572,860,16979.44,30.51,-1.00,-1.0,2420
4934,1224934,16988,-572,916,17022.29,30.65,-1.00,-1.0,2371
4937,1224937,17084,-568,808,17112.53,30.51,-1.00,-1.0,2426
4939,1224939,17012,-584,1024,17052.79,30.55,-1.00,-1.0,2377
4944,1224944,17008,-680,832,17041.91,30.46,-1.00,-1.0,2445
4947,1224947,16976,-564,944,17011.58,30.46,-1.00,-1.0,2376
4950,1224950,17188,-604,932,17223.84,30.51,-1.00,-1.0,2366
4953,1224953,17132,-592,984,17170.44,30.55,-1.00,-1.0,2422
4955,1224955,16996,-608,832,17027.21,30.51,-1.00,-1.0,2368
4958,1224958,17012,-608,880,17045.59,30.46,-1.00,-1.0,2420
4961,1224961,17068,-560,916,17101.73,30.51,-1.00,-1.0,2367
4964,1224964,17060,-672,916,17097.79,30.55,-1.00,-1.0,2422
4966,1224966,16952,-632,1012,16993.94,30.51,-1.00,-1.0,2369
4971,1224971,17116,-596,888,17149.38,30.51,-1.00,-1.0,2435
4974,1224974,17080,-632,828,17111.73,30.51,-1.00,-1.0,2372
4977,1224977,17028,-644,904,17064.14,30.46,-1.00,-1.0,2421
4979,1224979,17056,-592,936,17091.92,30.51,-1.00,-1.0,2369
4982,1224982,17048,-612,728,17074.51,30.46,-1.00,-1.0,2421
4985,1224985,16968,-680,940,17007.62,30.41,-1.00,-1.0,2371
4988,1224988,17060,-536,908,17092.55,30.46,-1.00,-1.0,2366
4990,1224990,17036,-636,884,17070.77,30.46,-1.00,-1.0,2425
4993,1224993,17132,-696,740,17162.09,30.55,-1.00,-1.0,2369
4998,1224998,17060,-572,912,17093.93,30.55,-1.00,-1.0,2436
5001,1225001,17112,-564,904,17145.14,30.46,-1.00,-1.0,2371
5004,1225004,17108,-648,964,17147.39,30.46,-1.00,-1.0,2421
5006,1225006,17076,-500,1004,17112.80,30.46,-1.00,-1.0,2368
5009,1225009,17036,-624,960,17074.43,30.46,-1.00,-1.0,2420
5012,1225012,17096,-532,1096,17139.35,30.46,-1.00,-1.0,2368
5015,1225015,16948,-532,928,16981.72,30.46,-1.00,-1.0,2420
5017,1225017,16992,-600,964,17029.90,30.46,-1.00,-1.0,2368
5023,1225023,16972,-612,880,17005.81,30.51,-1.00,-1.0,2453
5026,1225026,17092,-664,888,17127.93,30.60,-1.00,-1.0,2386
5028,1225028,17056,-672,848,17090.29,30.46,-1.00,-1.0,2365
5031,1225031,17016,-536,744,17040.69,30.41,-1.00,-1.0,2421
5034,1225034,17056,-696,972,17097.85,30.55,-1.00,-1.0,2367
5037,1225037,17072,-556,852,17102.29,30.51,-1.00,-1.0,2421
5039,1225039,17076,-492,972,17110.72,30.46,-1.00,-1.0,2368
5042,1225042,17036,-576,836,17066.22,30.51,-1.00,-1.0,2420
5045,1225045,17068,-644,892,17103.42,30.46,-1.00,-1.0,2368
5050,1225050,17004,-672,860,17038.99,30.55,-1.00,-1.0,2439
5052,1225052,17036,-612,936,17072.67,30.46,-1.00,-1.0,2371
5055,1225055,17052,-620,896,17086.78,30.46,-1.00,-1.0,2422
5058,1225058,17000,-636,828,17032.03,30.46,-1.00,-1.0,2367
5061,1225061,17020,-660,784,17050.83,30.46,-1.00,-1.0,2421
5063,1225063,17008,-792,868,17048.54,30.55,-1.00,-1.0,2368
5066,1225066,17112,-628,908,17147.58,30.60,-1.00,-1.0,2370
5069,1225069,17012,-544,820,17040.44,30.51,-1.00,-1.0,2421
5071,1225071,17000,-552,868,17031.09,30.46,-1.00,-1.0,2369
5076,1225076,17124,-564,892,17156.49,30.46,-1.00,-1.0,2435
5079,1225079,17048,-612,796,17077.54,30.46,-1.00,-1.0,2371
5082,1225082,16952,-640,916,16988.79,30.51,-1.00,-1.0,2423
5085,1225085,17072,-648,964,17111.47,30.55,-1.00,-1.0,2367
5087,1225087,17060,-636,892,17095.14,30.51,-1.00,-1.0,2422
5090,1225090,17056,-516,984,17092.15,30.51,-1.00,-1.0,2368
5093,1225093,16996,-640,832,17028.38,30.51,-1.00,-1.0,2423
5096,1225096,17036,-640,1056,17080.69,30.51,-1.00,-1.0,2367
5101,1225101,17004,-688,844,17038.83,30.46,-1.00,-1.0,2435
5103,1225103,16908,-520,1008,16946.00,30.46,-1.00,-1.0,2371
5106,1225106,17072,-580,912,17106.18,30.51,-1.00,-1.0,2367
5109,1225109,17000,-564,900,17033.15,30.46,-1.00,-1.0,2432
5111,1225111,17140,-676,860,17174.87,30.60,-1.00,-1.0,2371
5114,1225114,17104,-576,840,17134.30,30.46,-1.00,-1.0,2435
5117,1225117,17040,-664,728,17068.46,30.51,-1.00,-1.0,2378
5120,1225120,17124,-608,764,17151.81,30.46,-1.00,-1.0,2431
5122,1225122,16964,-604,928,17000.10,30.55,-1.00,-1.0,2376
5127,1225127,17104,-632,824,17135.50,30.46,-1.00,-1.0,2445
5130,1225130,16944,-568,984,16982.05,30.46,-1.00,-1.0,2378
5133,1225133,17060,-520,948,17094.23,30.55,-1.00,-1.0,2423
5136,1225136,17100,-636,884,17134.64,30.46,-1.00,-1.0,2368
5138,1225138,17028,-704,848,17063.63,30.55,-1.00,-1.0,2429
5141,1225141,17032,-616,856,17064.62,30.46,-1.00,-1.0,2381
5144,1225144,17016,-604,904,17050.70,30.51,-1.00,-1.0,2368
5147,1225147,17100,-668,992,17141.77,30.51,-1.00,-1.0,2407
5149,1225149,17016,-672,940,17055.19,30.46,-1.00,-1.0,2368
5154,1225154,16964,-560,912,16997.72,30.55,-1.00,-1.0,2437
5157,1225157,16992,-688,924,17031.01,30.65,-1.00,-1.0,2374
5160,1225160,16880,-640,876,16914.83,30.41,-1.00,-1.0,2421
5162,1225162,17124,-612,788,17153.04,30.46,-1.00,-1.0,2354
5165,1225165,16992,-528,928,17025.51,30.51,-1.00,-1.0,2420
5168,1225168,17060,-628,916,17096.11,30.55,-1.00,-1.0,2370
5171,1225171,16976,-628,812,17007.01,30.41,-1.00,-1.0,2421
5174,1225174,17080,-616,852,17112.33,30.46,-1.00,-1.0,2370
5179,1225179,17100,-636,924,17136.75,30.46,-1.00,-1.0,2436
5181,1225181,17096,-524,868,17126.04,30.55,-1.00,-1.0,2376
5184,1225184,17072,-580,1008,17111.56,30.51,-1.00,-1.0,2365
5187,1225187,17100,-644,840,17132.73,30.51,-1.00,-1.0,2421
5190,1225190,17064,-576,848,17094.76,30.41,-1.00,-1.0,2369
5192,1225192,16984,-496,960,17018.34,30.41,-1.00,-1.0,2421
5195,1225195,17100,-540,896,17131.97,30.51,-1.00,-1.0,2368
5198,1225198,17156,-584,724,17181.20,30.41,-1.00,-1.0,2429
5201,1225201,16972,-572,936,17007.41,30.41,-1.00,-1.0,2371
5206,1225206,17048,-600,956,17085.32,30.41,-1.00,-1.0,2443
5208,1225208,17064,-664,860,17098.55,30.46,-1.00,-1.0,2374
5211,1225211,16968,-568,932,17003.07,30.51,-1.00,-1.0,2421
5214,1225214,17000,-668,876,17035.66,30.51,-1.00,-1.0,2368
5217,1225217,17036,-532,828,17064.40,30.41,-1.00,-1.0,2421
5219,1225219,17016,-604,876,17049.24,30.55,-1.00,-1.0,2369
5222,1225222,17072,-604,852,17103.91,30.46,-1.00,-1.0,2374
5225,1225225,17092,-648,860,17125.89,30.55,-1.00,-1.0,2422
5227,1225227,17068,-660,824,17100.62,30.46,-1.00,-1.0,2369
5232,1225232,17044,-632,820,17075.41,30.55,-1.00,-1.0,2436
5235,1225235,17128,-612,1000,17168.08,30.46,-1.00,-1.0,2375
5238,1225238,17076,-644,816,17107.61,30.41,-1.00,-1.0,2432
5240,1225240,17096,-640,784,17125.93,30.55,-1.00,-1.0,2373
5243,1225243,17056,-704,900,17094.23,30.46,-1.00,-1.0,2429
5246,1225246,16992,-696,884,17029.21,30.55,-1.00,-1.0,2376
5249,1225249,17032,-660,864,17066.67,30.51,-1.00,-1.0,2432
5251,1225251,16980,-608,764,17008.05,30.51,-1.00,-1.0,2376
5256,1225256,16972,-576,844,17002.73,30.37,-1.00,-1.0,2435
5259,1225259,17012,-692,984,17054.48,30.55,-1.00,-1.0,2368
5261,1225261,17056,-520,1000,17093.20,30.51,-1.00,-1.0,2376
5264,1225264,16976,-640,948,17014.49,30.51,-1.00,-1.0,2420
5267,1225267,17028,-624,832,17059.73,30.41,-1.00,-1.0,2372
5270,1225270,17068,-628,788,17097.72,30.51,-1.00,-1.0,2421
5272,1225272,17040,-616,780,17068.96,30.51,-1.00,-1.0,2374
5275,1225275,17076,-704,856,17111.93,30.51,-1.00,-1.0,2420
5278,1225278,16992,-616,792,17021.60,30.51,-1.00,-1.0,2371
5283,1225283,17164,-592,860,17195.72,30.46,-1.00,-1.0,2451
5286,1225286,17044,-688,940,17083.76,30.51,-1.00,-1.0,2379
5289,1225289,17040,-620,940,17077.17,30.51,-1.00,-1.0,2431
5291,1225291,16980,-536,888,17011.65,30.60,-1.00,-1.0,2376
5294,1225294,17104,-680,852,17138.70,30.51,-1.00,-1.0,2420
5297,1225297,17052,-620,740,17079.31,30.41,-1.00,-1.0,2370
5300,1225300,17120,-532,960,17155.15,30.46,-1.00,-1.0,2366
5302,1225302,17072,-608,852,17104.06,30.46,-1.00,-1.0,2422
5305,1225305,17104,-620,876,17137.64,30.51,-1.00,-1.0,2368
5310,1225310,16956,-588,924,16991.33,30.51,-1.00,-1.0,2445
5313,1225313,17156,-596,868,17188.28,30.51,-1.00,-1.0,2374
5316,1225316,17060,-552,940,17094.79,30.51,-1.00,-1.0,2424
5318,1225318,17060,-616,896,17094.62,30.41,-1.00,-1.0,2375
5321,1225321,17096,-632,820,17127.32,30.55,-1.00,-1.0,2421
5324,1225324,16940,-620,880,16974.17,30.41,-1.00,-1.0,2368
5327,1225327,17004,-648,904,17040.34,30.55,-1.00,-1.0,2422
5329,1225329,16956,-596,1012,16996.63,30.51,-1.00,-1.0,2374
5334,1225334,17072,-620,992,17112.03,30.51,-1.00,-1.0,2446
5337,1225337,17104,-704,836,17138.88,30.51,-1.00,-1.0,2378
5340,1225340,17032,-540,816,17060.08,30.55,-1.00,-1.0,2367
5343,1225343,17072,-548,808,17099.89,30.46,-1.00,-1.0,2421
5345,1225345,17084,-632,988,17124.21,30.55,-1.00,-1.0,2369
5348,1225348,17032,-592,884,17065.20,30.46,-1.00,-1.0,2421
5351,1225351,17076,-600,996,17115.54,30.55,-1.00,-1.0,2372
5354,1225354,17092,-572,936,17127.16,30.51,-1.00,-1.0,2424
5356,1225356,17044,-620,888,17078.38,30.46,-1.00,-1.0,2368
5361,1225361,17044,-648,784,17074.32,30.51,-1.00,-1.0,2463
5364,1225364,17064,-696,796,17096.73,30.46,-1.00,-1.0,2365
5367,1225367,17016,-652,1064,17061.70,30.51,-1.00,-1.0,2424
5370,1225370,17108,-624,744,17135.54,30.60,-1.00,-1.0,2368
5372,1225372,17012,-600,940,17048.51,30.51,-1.00,-1.0,2432
5375,1225375,16940,-632,664,16964.79,30.51,-1.00,-1.0,2372
5378,1225378,17096,-688,888,17132.87,30.55,-1.00,-1.0,2368
5381,1225381,17016,-620,888,17050.43,30.55,-1.00,-1.0,2423
5383,1225383,17104,-596,960,17141.29,30.46,-1.00,-1.0,2369
5388,1225388,16956,-596,896,16990.11,30.55,-1.00,-1.0,2442
5391,1225391,17060,-520,868,17089.98,30.46,-1.00,-1.0,2370
5394,1225394,17044,-672,792,17075.62,30.51,-1.00,-1.0,2429
5397,1225397,17044,-568,992,17082.29,30.46,-1.00,-1.0,2367
5399,1225399,17060,-612,940,17096.83,30.51,-1.00,-1.0,2423
5402,1225402,17132,-600,920,17167.17,30.55,-1.00,-1.0,2370
5405,1225405,17028,-732,800,17062.49,30.41,-1.00,-1.0,2429
5408,1225408,17024,-612,780,17052.85,30.46,-1.00,-1.0,2368
5410,1225410,16976,-712,860,17012.68,30.41,-1.00,-1.0,2366
5415,1225415,17124,-520,960,17158.77,30.51,-1.00,-1.0,2441
5418,1225418,17064,-620,760,17092.16,30.46,-1.00,-1.0,2367
5421,1225421,17056,-560,944,17091.28,30.51,-1.00,-1.0,2428
5424,1225424,17100,-584,860,17131.57,30.51,-1.00,-1.0,2368
5426,1225426,17104,-588,928,17139.25,30.51,-1.00,-1.0,2424
5429,1225429,17008,-544,848,17037.81,30.55,-1.00,-1.0,2370
5432,1225432,17116,-624,960,17154.25,30.51,-1.00,-1.0,2424
5435,1225435,16996,-604,984,17035.17,30.41,-1.00,-1.0,2368
5439,1225439,17020,-640,852,17053.33,30.51,-1.00,-1.0,2445
5442,1225442,17028,-508,840,17056.27,30.51,-1.00,-1.0,2368
5445,1225445,16992,-532,916,17024.99,30.55,-1.00,-1.0,2430
5448,1225448,17064,-600,1032,17105.71,30.60,-1.00,-1.0,2368
5450,1225450,17064,-592,972,17101.91,30.46,-1.00,-1.0,2368
5453,1225453,17076,-568,860,17107.07,30.55,-1.00,-1.0,2422
5456,1225456,16984,-544,872,17015.07,30.37,-1.00,-1.0,2368
5459,1225459,17072,-664,948,17111.19,30.51,-1.00,-1.0,2421
5461,1225461,17076,-604,828,17106.73,30.55,-1.00,-1.0,2374
5466,1225466,17116,-572,832,17145.75,30.41,-1.00,-1.0,2441
5469,1225469,17092,-576,772,17119.12,30.51,-1.00,-1.0,2368
5472,1225472,17092,-620,888,17126.28,30.41,-1.00,-1.0,2421
5474,1225474,17100,-608,952,17137.27,30.41,-1.00,-1.0,2356
5477,1225477,17060,-584,912,17094.34,30.51,-1.00,-1.0,2421
5480,1225480,17016,-516,880,17046.55,30.51,-1.00,-1.0,2368
5483,1225483,17040,-632,852,17072.99,30.51,-1.00,-1.0,2422
5485,1225485,17028,-600,764,17055.69,30.55,-1.00,-1.0,2380
5488,1225488,16968,-592,932,17003.88,30.46,-1.00,-1.0,2377
5493,1225493,17020,-496,896,17050.78,30.46,-1.00,-1.0,2443
5496,1225496,17004,-636,896,17039.46,30.65,-1.00,-1.0,2369
5499,1225499,17120,-624,748,17147.69,30.46,-1.00,-1.0,2429
5502,1225502,17052,-616,816,17082.62,30.55,-1.00,-1.0,2369
5504,1225504,17036,-532,852,17065.59,30.55,-1.00,-1.0,2432
5507,1225507,17064,-604,920,17099.45,30.55,-1.00,-1.0,2378
5510,1225510,17072,-488,836,17099.42,30.46,-1.00,-1.0,2412
5513,1225513,17076,-684,856,17111.12,30.55,-1.00,-1.0,2369
5518,1225518,17036,-604,928,17071.95,30.46,-1.00,-1.0,2442
5520,1225520,17048,-664,864,17082.79,30.46,-1.00,-1.0,2369
5523,1225523,17100,-604,876,17133.07,30.46,-1.00,-1.0,2436
5526,1225526,17084,-556,896,17116.51,30.55,-1.00,-1.0,2365
5528,1225528,17096,-584,896,17129.42,30.41,-1.00,-1.0,2375
5531,1225531,17164,-628,764,17192.47,30.51,-1.00,-1.0,2421
5534,1225534,16984,-592,972,17022.09,30.46,-1.00,-1.0,2370
5537,1225537,17104,-600,928,17139.66,30.41,-1.00,-1.0,2422
5539,1225539,17020,-600,832,17050.88,30.51,-1.00,-1.0,2370
5545,1225545,17104,-536,896,17135.84,30.60,-1.00,-1.0,2449
5547,1225547,17060,-656,1032,17103.77,30.41,-1.00,-1.0,2376
5550,1225550,17072,-580,892,17105.12,30.51,-1.00,-1.0,2421
5553,1225553,17176,-604,808,17205.60,30.41,-1.00,-1.0,2371
5556,1225556,17084,-604,664,17107.56,30.41,-1.00,-1.0,2421
5558,1225558,17060,-504,872,17089.71,30.51,-1.00,-1.0,2370
5561,1225561,17036,-616,852,17068.41,30.51,-1.00,-1.0,2422
5564,1225564,17064,-668,928,17102.27,30.41,-1.00,-1.0,2369
5566,1225566,16992,-580,788,17020.15,30.51,-1.00,-1.0,2354
5572,1225572,17044,-588,940,17080.03,30.60,-1.00,-1.0,2448
5574,1225574,17084,-572,1016,17123.74,30.51,-1.00,-1.0,2376
5577,1225577,17044,-644,920,17080.96,30.51,-1.00,-1.0,2422
5580,1225580,16956,-564,848,16986.56,30.41,-1.00,-1.0,2370
5583,1225583,16948,-588,928,16983.57,30.51,-1.00,-1.0,2421
5585,1225585,17012,-632,856,17045.24,30.51,-1.00,-1.0,2372
5588,1225588,17036,-676,888,17072.52,30.41,-1.00,-1.0,2421
5591,1225591,17020,-560,924,17054.26,30.51,-1.00,-1.0,2368
5596,1225596,17052,-640,1036,17095.43,30.46,-1.00,-1.0,2448
5599,1225599,17024,-560,780,17051.06,30.46,-1.00,-1.0,2368
5601,1225601,17112,-600,944,17148.52,30.51,-1.00,-1.0,2432
5604,1225604,17008,-656,872,17042.97,30.51,-1.00,-1.0,2376
5607,1225607,17060,-716,916,17099.57,30.51,-1.00,-1.0,2366
5610,1225610,17060,-660,904,17096.68,30.46,-1.00,-1.0,2421
5612,1225612,17064,-656,948,17102.90,30.51,-1.00,-1.0,2369
5615,1225615,17028,-560,896,17060.75,30.46,-1.00,-1.0,2421
5618,1225618,17036,-612,880,17069.69,30.51,-1.00,-1.0,2367
5623,1225623,16880,-516,1028,16919.14,30.41,-1.00,-1.0,2448
5625,1225625,17076,-608,752,17103.36,30.51,-1.00,-1.0,2378
5628,1225628,17036,-616,892,17070.46,30.55,-1.00,-1.0,2422
5631,1225631,16996,-508,852,17024.92,30.41,-1.00,-1.0,2373
5634,1225634,17040,-584,764,17067.11,30.55,-1.00,-1.0,2421
5636,1225636,17144,-708,848,17179.55,30.51,-1.00,-1.0,2375
5639,1225639,16992,-556,788,17019.35,30.46,-1.00,-1.0,2422
5642,1225642,17028,-568,776,17055.13,30.41,-1.00,-1.0,2373
5645,1225645,17008,-660,752,17037.40,30.55,-1.00,-1.0,2368
5649,1225649,17040,-564,852,17070.61,30.51,-1.00,-1.0,2444
5652,1225652,16940,-560,904,16973.34,30.60,-1.00,-1.0,2368
5655,1225655,17140,-544,872,17170.79,30.51,-1.00,-1.0,2428
5658,1225658,16964,-680,920,17002.53,30.41,-1.00,-1.0,2368
5660,1225660,16996,-664,984,17037.40,30.51,-1.00,-1.0,2430
5663,1225663,17020,-512,856,17049.20,30.41,-1.00,-1.0,2377
5666,1225666,17104,-636,944,17141.83,30.51,-1.00,-1.0,2411
5669,1225669,17128,-532,872,17158.43,30.41,-1.00,-1.0,2369
5673,1225673,17124,-692,828,17157.97,30.55,-1.00,-1.0,2429
5676,1225676,16968,-608,892,17002.30,30.46,-1.00,-1.0,2368
5679,1225679,17076,-608,972,17114.45,30.37,-1.00,-1.0,2428
5682,1225682,17032,-484,912,17063.27,30.46,-1.00,-1.0,2368
5684,1225684,16968,-600,808,16997.82,30.41,-1.00,-1.0,2366
5687,1225687,17016,-652,944,17054.63,30.41,-1.00,-1.0,2429
5690,1225690,17132,-576,888,17164.67,30.41,-1.00,-1.0,2368
5693,1225693,17052,-508,1036,17090.99,30.51,-1.00,-1.0,2426
5696,1225696,16992,-640,968,17031.58,30.41,-1.00,-1.0,2369
5701,1225701,16972,-612,884,17006.02,30.51,-1.00,-1.0,2441
5703,1225703,17060,-640,784,17089.99,30.55,-1.00,-1.0,2368
5706,1225706,17084,-524,968,17119.42,30.41,-1.00,-1.0,2422
5709,1225709,17056,-668,920,17093.85,30.55,-1.00,-1.0,2377
5712,1225712,17064,-568,952,17099.97,30.51,-1.00,-1.0,2421
5714,1225714,17044,-628,972,17083.24,30.41,-1.00,-1.0,2369
5717,1225717,17076,-640,844,17108.82,30.51,-1.00,-1.0,2422
5720,1225720,17060,-576,940,17095.58,30.46,-1.00,-1.0,2375
5723,1225723,17068,-648,848,17101.33,30.41,-1.00,-1.0,2372
5728,1225728,17084,-732,792,17118.01,30.51,-1.00,-1.0,2441
5730,1225730,17020,-580,932,17055.36,30.60,-1.00,-1.0,2372
5733,1225733,17000,-616,980,17039.36,30.46,-1.00,-1.0,2436
5736,1225736,17068,-572,760,17094.48,30.41,-1.00,-1.0,2365
5739,1225739,16952,-656,896,16988.33,30.46,-1.00,-1.0,2426
5741,1225741,17048,-568,968,17084.90,30.51,-1.00,-1.0,2371
5744,1225744,17108,-528,1028,17146.99,30.46,-1.00,-1.0,2436
5747,1225747,17120,-584,812,17149.19,30.41,-1.00,-1.0,2377
5752,1225752,16992,-600,968,17030.12,30.51,-1.00,-1.0,2449
5755,1225755,17032,-560,840,17061.89,30.51,-1.00,-1.0,2368
5757,1225757,17048,-624,916,17083.99,30.60,-1.00,-1.0,2423
5760,1225760,17040,-728,900,17079.27,30.60,-1.00,-1.0,2369
5763,1225763,17064,-636,1008,17105.57,30.46,-1.00,-1.0,2370
5766,1225766,17112,-580,916,17146.31,30.46,-1.00,-1.0,2415
5768,1225768,16996,-592,852,17027.64,30.46,-1.00,-1.0,2376
5771,1225771,17056,-624,988,17095.98,30.55,-1.00,-1.0,2422
5774,1225774,17052,-684,912,17090.06,30.55,-1.00,-1.0,2370
5779,1225779,17004,-584,896,17037.60,30.46,-1.00,-1.0,2446
5781,1225781,17116,-640,748,17144.29,30.55,-1.00,-1.0,2375
5784,1225784,17048,-656,960,17087.61,30.46,-1.00,-1.0,2429
5787,1225787,17020,-680,964,17060.84,30.46,-1.00,-1.0,2372
5790,1225790,17056,-552,988,17093.51,30.46,-1.00,-1.0,2430
5792,1225792,17000,-692,740,17030.16,30.46,-1.00,-1.0,2377
5795,1225795,17132,-592,968,17169.54,30.51,-1.00,-1.0,2421
5798,1225798,17060,-520,944,17094.01,30.46,-1.00,-1.0,2371
5801,1225801,17084,-756,876,17123.14,30.55,-1.00,-1.0,2369
5806,1225806,17160,-600,872,17192.61,30.46,-1.00,-1.0,2447
5808,1225808,17084,-584,928,17119.15,30.46,-1.00,-1.0,2378
5811,1225811,17004,-640,776,17033.72,30.51,-1.00,-1.0,2422
5814,1225814,17008,-492,836,17035.64,30.46,-1.00,-1.0,2370
5817,1225817,17056,-476,828,17082.72,30.55,-1.00,-1.0,2422
5819,1225819,16976,-596,964,17013.79,30.46,-1.00,-1.0,2375
5822,1225822,17060,-552,920,17093.70,30.41,-1.00,-1.0,2421
5825,1225825,17052,-704,908,17090.66,30.55,-1.00,-1.0,2357
5830,1225830,17072,-588,856,17103.56,30.46,-1.00,-1.0,2451
5833,1225833,17088,-612,940,17124.77,30.46,-1.00,-1.0,2377
5836,1225836,17080,-628,876,17113.97,30.51,-1.00,-1.0,2429
5838,1225838,17064,-576,768,17090.98,30.46,-1.00,-1.0,2377
5841,1225841,16976,-532,1080,17018.64,30.60,-1.00,-1.0,2367
5844,1225844,17056,-604,768,17083.96,30.46,-1.00,-1.0,2423
5846,1225846,17124,-512,1000,17160.81,30.41,-1.00,-1.0,2356
5849,1225849,17028,-576,828,17057.85,30.46,-1.00,-1.0,2422
5852,1225852,16944,-636,844,16976.92,30.51,-1.00,-1.0,2368
5859,1225859,17092,-568,1036,17132.79,30.51,-1.00,-1.0,2442
5861,1225861,17092,-648,792,17122.61,30.51,-1.00,-1.0,2368
5864,1225864,17088,-540,880,17119.16,30.46,-1.00,-1.0,2422
5867,1225867,17004,-688,892,17041.27,30.51,-1.00,-1.0,2368
5870,1225870,16924,-564,888,16956.66,30.55,-1.00,-1.0,2422
5872,1225872,17016,-544,792,17043.11,30.51,-1.00,-1.0,2369
5875,1225875,17032,-616,916,17067.73,30.46,-1.00,-1.0,2421
5878,1225878,17080,-608,776,17108.43,30.51,-1.00,-1.0,2368
5880,1225880,17100,-660,680,17126.24,30.46,-1.00,-1.0,2368
5885,1225885,17072,-568,916,17105.99,30.55,-1.00,-1.0,2442
5888,1225888,17024,-552,916,17057.56,30.55,-1.00,-1.0,2378
5891,1225891,16964,-652,872,16998.91,30.46,-1.00,-1.0,2421
5893,1225893,17088,-724,832,17123.55,30.55,-1.00,-1.0,2369
5896,1225896,16996,-632,972,17035.50,30.55,-1.00,-1.0,2422
5899,1225899,17008,-632,964,17047.02,30.46,-1.00,-1.0,2380
5902,1225902,17088,-656,980,17128.64,30.55,-1.00,-1.0,2423
5904,1225904,17044,-616,872,17077.41,30.46,-1.00,-1.0,2371
5909,1225909,17108,-596,812,17137.62,30.46,-1.00,-1.0,2443
5912,1225912,17052,-644,796,17082.71,30.41,-1.00,-1.0,2421
5915,1225915,17056,-492,836,17083.56,30.46,-1.00,-1.0,2417
5918,1225918,16992,-588,764,17019.33,30.41,-1.00,-1.0,2372
5920,1225920,16944,-628,880,16978.46,30.46,-1.00,-1.0,2368
5923,1225923,16964,-616,860,16996.95,30.51,-1.00,-1.0,2423
5926,1225926,17000,-644,876,17034.73,30.55,-1.00,-1.0,2376
5929,1225929,17100,-568,980,17137.47,30.46,-1.00,-1.0,2416
5931,1225931,17020,-632,952,17058.32,30.46,-1.00,-1.0,2376
5936,1225936,17016,-608,808,17046.02,30.55,-1.00,-1.0,2422
5939,1225939,16988,-600,856,17020.13,30.46,-1.00,-1.0,2371
5942,1225942,17124,-604,908,17158.69,30.46,-1.00,-1.0,2437
5945,1225945,17160,-700,916,17198.68,30.46,-1.00,-1.0,2366
5947,1225947,17024,-712,936,17064.57,30.41,-1.00,-1.0,2423
5950,1225950,17084,-648,964,17123.44,30.46,-1.00,-1.0,2370
5953,1225953,17024,-692,960,17065.08,30.51,-1.00,-1.0,2428
5956,1225956,17108,-660,872,17142.92,30.55,-1.00,-1.0,2367
5958,1225958,17120,-604,916,17155.12,30.41,-1.00,-1.0,2381
5963,1225963,17012,-596,768,17039.75,30.51,-1.00,-1.0,2422
5966,1225966,17084,-596,860,17116.01,30.41,-1.00,-1.0,2380
5969,1225969,17016,-616,660,17039.93,30.41,-1.00,-1.0,2446
5971,1225971,17100,-652,984,17140.69,30.51,-1.00,-1.0,2379
5974,1225974,17104,-600,976,17142.33,30.46,-1.00,-1.0,2420
5977,1225977,17024,-604,976,17062.65,30.41,-1.00,-1.0,2373
5980,1225980,17048,-648,884,17083.20,30.55,-1.00,-1.0,2428
5982,1225982,16968,-620,1024,17010.17,30.51,-1.00,-1.0,2378
5987,1225987,17128,-644,852,17161.27,30.51,-1.00,-1.0,2432
5990,1225990,17072,-692,948,17112.30,30.51,-1.00,-1.0,2375
5993,1225993,17020,-580,800,17048.66,30.46,-1.00,-1.0,2424
5996,1225996,17004,-580,872,17036.22,30.41,-1.00,-1.0,2369
5998,1225998,17036,-632,904,17071.67,30.37,-1.00,-1.0,2365
6001,1226001,17016,-568,780,17043.34,30.55,-1.00,-1.0,2425
6004,1226004,17012,-692,960,17053.11,30.46,-1.00,-1.0,2367
6007,1226007,17036,-592,972,17073.97,30.55,-1.00,-1.0,2421
6009,1226009,17092,-720,1184,17148.08,30.55,-1.00,-1.0,2369
6014,1226014,17028,-640,824,17059.93,30.46,-1.00,-1.0,2429
6017,1226017,17052,-644,812,17083.46,30.46,-1.00,-1.0,2374
6020,1226020,17072,-696,844,17107.01,30.55,-1.00,-1.0,2435
6023,1226023,17004,-696,956,17045.07,30.55,-1.00,-1.0,2370
6025,1226025,17040,-628,1000,17080.87,30.46,-1.00,-1.0,2421
6028,1226028,16980,-576,952,17016.42,30.46,-1.00,-1.0,2370
6031,1226031,17032,-676,920,17070.22,30.55,-1.00,-1.0,2421
6033,1226033,17028,-624,876,17061.93,30.37,-1.00,-1.0,2356
6036,1226036,16976,-620,720,17002.57,30.51,-1.00,-1.0,2364
6041,1226041,17072,-596,860,17104.04,30.46,-1.00,-1.0,2422
6044,1226044,16984,-580,988,17022.60,30.55,-1.00,-1.0,2373
6047,1226047,17168,-600,972,17205.96,30.55,-1.00,-1.0,2435
6050,1226050,17056,-656,968,17096.04,30.46,-1.00,-1.0,2370
6052,1226052,16912,-628,864,16945.70,30.51,-1.00,-1.0,2421
6055,1226055,17024,-604,1016,17064.98,30.55,-1.00,-1.0,2373
6058,1226058,17040,-540,880,17071.25,30.51,-1.00,-1.0,2421
6061,1226061,17068,-584,796,17096.53,30.37,-1.00,-1.0,2369
6065,1226065,17088,-676,928,17126.53,30.51,-1.00,-1.0,2422
6068,1226068,17036,-568,948,17071.81,30.46,-1.00,-1.0,2372
6071,1226071,17088,-516,908,17119.88,30.51,-1.00,-1.0,2442
6074,1226074,17056,-616,780,17084.94,30.46,-1.00,-1.0,2367
6076,1226076,17044,-612,924,17080.00,30.41,-1.00,-1.0,2373
6079,1226079,17076,-568,920,17110.20,30.55,-1.00,-1.0,2424
6082,1226082,16992,-664,800,17023.78,30.55,-1.00,-1.0,2374
6084,1226084,16960,-588,1052,17002.77,30.46,-1.00,-1.0,2430
6087,1226087,17064,-580,840,17094.50,30.46,-1.00,-1.0,2383
6092,1226092,17016,-592,900,17050.06,30.51,-1.00,-1.0,2430
6095,1226095,17024,-556,824,17053.00,30.55,-1.00,-1.0,2372
6097,1226097,16972,-596,928,17007.80,30.60,-1.00,-1.0,2435
6100,1226100,16976,-636,924,17013.02,30.51,-1.00,-1.0,2373
6103,1226103,17064,-580,900,17097.56,30.46,-1.00,-1.0,2430
6106,1226106,16928,-580,844,16958.95,30.41,-1.00,-1.0,2355
6108,1226108,17036,-624,776,17065.08,30.55,-1.00,-1.0,2422
6111,1226111,17088,-632,936,17125.28,30.51,-1.00,-1.0,2367
6114,1226114,17020,-560,848,17050.31,30.46,-1.00,-1.0,2369
