timestamp_ms,accel_x,accel_y,accel_z,voltage,soc
1,23000,-5480,23380,-1.00,-1.0
3,20032,-2028,22992,-1.00,-1.0
5,15496,12544,-15380,-1.00,-1.0
11,13896,1528,6852,-1.00,-1.0
13,21152,-3748,12908,-1.00,-1.0
15,16544,9340,-15316,-1.00,-1.0
17,24680,-5124,-780,-1.00,-1.0
19,20436,976,13348,-1.00,-1.0
21,4692,11176,-22508,-1.00,-1.0
23,13188,11884,-4252,-1.00,-1.0
25,27788,-8544,32767,-1.00,-1.0
27,14452,-5244,-18684,-1.00,-1.0
29,15048,7320,-3120,-1.00,-1.0
31,19316,-2164,-12496,-1.00,-1.0
33,14260,10600,-9140,-1.00,-1.0
35,18332,-6348,14720,-1.00,-1.0
37,18228,-2252,9256,-1.00,-1.0
38,20268,1152,9532,-1.00,-1.0
40,18604,-5852,12924,-1.00,-1.0
44,22820,-4740,26076,-1.00,-1.0
46,21216,-13172,10164,-1.00,-1.0
48,11156,9876,-21084,-1.00,-1.0
50,17808,-1404,-5256,-1.00,-1.0
52,18848,-2444,12412,-1.00,-1.0
54,11372,2600,-4640,-1.00,-1.0
56,17384,-944,1852,-1.00,-1.0
58,18800,5352,-2068,-1.00,-1.0
60,15828,6116,-14772,-1.00,-1.0
62,25720,-4092,19004,-1.00,-1.0
64,20156,2960,-4052,-1.00,-1.0
66,12180,10328,-24032,-1.00,-1.0
68,18816,-1860,12292,-1.00,-1.0
70,17720,1208,2096,-1.00,-1.0
72,17352,6888,-8888,-1.00,-1.0
74,22608,-3636,9052,-1.00,-1.0
78,12124,10388,-8364,-1.00,-1.0
80,22904,120,8564,-1.00,-1.0
82,17256,5564,3860,-1.00,-1.0
84,15124,3128,-1656,-1.00,-1.0
85,19896,-1100,10000,-1.00,-1.0
87,16228,6556,-8464,-1.00,-1.0
89,14568,8672,-18992,-1.00,-1.0
91,16152,-2608,-1884,-1.00,-1.0
93,12988,1432,-11232,-1.00,-1.0
95,18372,-5344,7852,-1.00,-1.0
97,17480,-124,-2304,-1.00,-1.0
99,15884,3600,-7412,-1.00,-1.0
101,22740,-5224,18812,-1.00,-1.0
103,17724,-2884,-4180,-1.00,-1.0
105,16336,2404,-2860,-1.00,-1.0
107,17832,-4056,-7128,-1.00,-1.0
109,17620,-92,7516,-1.00,-1.0
113,17652,-316,4744,-1.00,-1.0
115,12204,3884,-12712,-1.00,-1.0
117,19604,-3940,12160,-1.00,-1.0
119,21752,-4164,9768,-1.00,-1.0
121,15072,6472,-13516,-1.00,-1.0
123,19632,-4140,1800,-1.00,-1.0
125,15956,-1676,2700,-1.00,-1.0
127,10428,4344,-9292,-1.00,-1.0
129,19268,-7584,16348,-1.00,-1.0
131,17748,-3276,8556,-1.00,-1.0
133,13548,-3016,-9760,-1.00,-1.0
134,17260,-3260,2284,-1.00,-1.0
137,15524,3268,-16176,-1.00,-1.0
139,15596,2908,3504,-1.00,-1.0
140,20092,-5724,19376,-1.00,-1.0
142,15220,-528,-16940,-1.00,-1.0
147,21808,-7476,1320,-1.00,-1.0
149,14376,2884,-11640,-1.00,-1.0
150,11792,5204,-19244,-1.00,-1.0
153,20288,-1324,11928,-1.00,-1.0
154,17264,-3800,20320,-1.00,-1.0
156,13988,1232,-1936,-1.00,-1.0
158,16932,2080,-1672,-1.00,-1.0
160,14396,-1128,8592,-1.00,-1.0
162,19932,-12556,27124,-1.00,-1.0
164,12188,-2556,-1312,-1.00,-1.0
166,14944,-5200,-16620,-1.00,-1.0
168,21880,-5328,8628,-1.00,-1.0
170,14816,1608,-21076,-1.00,-1.0
172,19136,1828,2628,-1.00,-1.0
174,19340,-7808,25088,-1.00,-1.0
178,20012,-1576,18680,-1.00,-1.0
180,23424,-12312,2332,-1.00,-1.0
182,13732,8432,-18364,-1.00,-1.0
184,16112,-1464,-8336,-1.00,-1.0
186,18244,-3352,7652,-1.00,-1.0
188,16016,-1996,18488,-1.00,-1.0
190,17728,-7860,6480,-1.00,-1.0
192,18904,-1772,11132,-1.00,-1.0
194,9468,7156,-32768,-1.00,-1.0
196,22376,4368,9656,-1.00,-1.0
198,26008,-10928,21884,-1.00,-1.0
200,7684,13300,-16616,-1.00,-1.0
202,19464,-2564,15936,-1.00,-1.0
204,27680,-17080,21176,-1.00,-1.0
205,10464,5852,-19164,-1.00,-1.0
207,26024,-9296,31028,-1.00,-1.0
212,16832,-4988,6164,-1.00,-1.0
214,16768,1972,7684,-1.00,-1.0
215,15736,-1676,1356,-1.00,-1.0
217,13892,2832,-11636,-1.00,-1.0
219,18984,4316,4320,-1.00,-1.0
221,21896,-1860,-1140,-1.00,-1.0
223,12012,-476,-1528,-1.00,-1.0
225,17624,-3700,3500,-1.00,-1.0
227,16860,1416,-4256,-1.00,-1.0
229,18644,-2352,20320,-1.00,-1.0
231,13588,-3116,7540,-1.00,-1.0
233,11508,7548,-13020,-1.00,-1.0
235,27560,-11272,24776,-1.00,-1.0
237,12888,3696,-24728,-1.00,-1.0
239,11848,9708,-12536,-1.00,-1.0
241,25420,-10972,25752,-1.00,-1.0
245,12696,724,-3408,-1.00,-1.0
247,23880,-8304,17908,-1.00,-1.0
249,15560,1668,-12136,-1.00,-1.0
251,15700,2936,-26928,-1.00,-1.0
253,17216,852,14100,-1.00,-1.0
255,14436,-5064,-288,-1.00,-1.0
257,17892,4032,5944,-1.00,-1.0
259,22848,-11168,14880,-1.00,-1.0
261,12952,2800,-31308,-1.00,-1.0
263,11472,9356,-11288,-1.00,-1.0
264,22036,-7792,20684,-1.00,-1.0
266,14996,7964,7940,-1.00,-1.0
268,16968,-6620,12440,-1.00,-1.0
270,19976,-6072,8676,-1.00,-1.0
272,20216,-1336,19636,-1.00,-1.0
276,18568,3976,6260,-1.00,-1.0
278,9732,2176,-5400,-1.00,-1.0
280,16652,2332,-12148,-1.00,-1.0
282,13544,7648,-5760,-1.00,-1.0
284,22988,-6616,16864,-1.00,-1.0
286,15228,2684,4908,-1.00,-1.0
288,16916,-1728,-1644,-1.00,-1.0
290,18552,-188,4376,-1.00,-1.0
292,14768,-900,-3748,-1.00,-1.0
294,19456,2392,-3356,-1.00,-1.0
296,16020,4996,1776,-1.00,-1.0
298,14660,1604,5872,-1.00,-1.0
300,18076,708,8680,-1.00,-1.0
302,21612,-2080,18456,-1.00,-1.0
304,18288,3524,-8408,-1.00,-1.0
305,17792,424,-416,-1.00,-1.0
307,19256,508,-3020,-1.00,-1.0
311,21232,-2460,12808,-1.00,-1.0
313,22800,-5252,17500,-1.00,-1.0
315,20196,-1412,9448,-1.00,-1.0
317,21004,72,7152,-1.00,-1.0
319,14564,480,504,-1.00,-1.0
321,21324,-8336,21824,-1.00,-1.0
323,12760,2376,-2328,-1.00,-1.0
325,15968,-2512,-8352,-1.00,-1.0
327,19404,-3460,532,-1.00,-1.0
329,12552,-188,-4088,-1.00,-1.0
331,19716,-4152,7088,-1.00,-1.0
333,16968,-3280,11208,-1.00,-1.0
335,11540,-2180,-9524,-1.00,-1.0
337,17604,-2412,4716,-1.00,-1.0
339,18672,-4920,2276,-1.00,-1.0
340,11488,10796,-23324,-1.00,-1.0
345,22564,-10068,19632,-1.00,-1.0
347,10012,8492,-13604,-1.00,-1.0
349,18344,-2204,10020,-1.00,-1.0
351,19660,-1248,6512,-1.00,-1.0
353,10600,7220,-18276,-1.00,-1.0
355,23336,-6592,22880,-1.00,-1.0
356,15716,2044,-3616,-1.00,-1.0
359,12604,2548,-12940,-1.00,-1.0
360,21976,-4968,11108,-1.00,-1.0
362,13444,3384,-5876,-1.00,-1.0
364,17588,512,2324,-1.00,-1.0
366,18164,-1456,2032,-1.00,-1.0
368,13660,176,-5392,-1.00,-1.0
370,18296,-1644,304,-1.00,-1.0
372,16896,-2048,6280,-1.00,-1.0
377,21676,-5304,7896,-1.00,-1.0
379,18100,-3416,6244,-1.00,-1.0
380,8116,12012,-27772,-1.00,-1.0
382,18512,2220,17620,-1.00,-1.0
384,26180,-15368,28840,-1.00,-1.0
386,12992,2844,-2616,-1.00,-1.0
388,13704,-3116,-2552,-1.00,-1.0
390,18088,-1096,-2328,-1.00,-1.0
392,19704,-4700,18348,-1.00,-1.0
394,9156,1048,-20156,-1.00,-1.0
396,12948,3620,-4600,-1.00,-1.0
398,24000,-7400,12092,-1.00,-1.0
400,11608,10328,-15216,-1.00,-1.0
402,17184,2380,7052,-1.00,-1.0
404,22084,-6756,27624,-1.00,-1.0
406,12544,-344,-5628,-1.00,-1.0
410,12840,7564,-17288,-1.00,-1.0
412,19936,-1608,4908,-1.00,-1.0
414,19284,-976,20064,-1.00,-1.0
416,15484,-6236,15152,-1.00,-1.0
418,18280,-7032,16872,-1.00,-1.0
420,10468,-1640,-22268,-1.00,-1.0
422,10740,11228,-32768,-1.00,-1.0
424,32504,-7648,32767,-1.00,-1.0
426,19320,-8788,14328,-1.00,-1.0
428,6712,13992,-19748,-1.00,-1.0
429,23316,-14260,22360,-1.00,-1.0
431,15652,5656,-18640,-1.00,-1.0
433,17388,6364,-6840,-1.00,-1.0
435,21512,-3968,15108,-1.00,-1.0
437,11672,10412,-18856,-1.00,-1.0
439,17264,-5252,17680,-1.00,-1.0
443,8984,11540,-32768,-1.00,-1.0
445,24096,884,2516,-1.00,-1.0
447,19316,492,-14704,-1.00,-1.0
449,19272,-5128,13184,-1.00,-1.0
451,19788,-6816,10116,-1.00,-1.0
453,14972,296,15000,-1.00,-1.0
455,23096,-68,5380,-1.00,-1.0
457,19412,-1668,2708,-1.00,-1.0
459,14824,6792,-808,-1.00,-1.0
461,17352,-5620,2928,-1.00,-1.0
463,17236,-52,9488,-1.00,-1.0
465,13660,2352,-11844,-1.00,-1.0
467,18160,-1660,-780,-1.00,-1.0
469,20108,-1888,12664,-1.00,-1.0
471,13844,-840,-15516,-1.00,-1.0
473,17484,868,10532,-1.00,-1.0
479,20936,-6536,13780,-1.00,-1.0
481,16352,-56,-2204,-1.00,-1.0
483,14608,3172,-4076,-1.00,-1.0
485,17776,-4636,7408,-1.00,-1.0
487,17032,-5220,13032,-1.00,-1.0
489,10520,7344,-18720,-1.00,-1.0
490,19484,756,11768,-1.00,-1.0
492,21668,-5448,-1900,-1.00,-1.0
494,17244,7484,2020,-1.00,-1.0
496,20360,-9276,6996,-1.00,-1.0
498,15004,5460,1744,-1.00,-1.0
500,12072,804,-5448,-1.00,-1.0
502,17260,996,-12564,-1.00,-1.0
504,23636,-56,23404,-1.00,-1.0
506,18564,-9884,-5664,-1.00,-1.0
508,18848,668,-8132,-1.00,-1.0
512,13884,3928,-7112,-1.00,-1.0
514,15760,4740,3432,-1.00,-1.0
516,22312,-8312,-2744,-1.00,-1.0
518,8732,14352,-18592,-1.00,-1.0
520,17648,-780,9344,-1.00,-1.0
522,22500,-6312,1896,-1.00,-1.0
524,18976,6816,13780,-1.00,-1.0
526,16348,-8176,-10504,-1.00,-1.0
528,14368,8216,1432,-1.00,-1.0
530,15188,-7780,-2368,-1.00,-1.0
532,16948,3772,2636,-1.00,-1.0
534,18140,508,8636,-1.00,-1.0
536,17508,-3168,-14152,-1.00,-1.0
538,21856,-2448,26428,-1.00,-1.0
539,11600,-3684,-29296,-1.00,-1.0
541,15480,12920,-2464,-1.00,-1.0
545,13108,4628,-3256,-1.00,-1.0
547,10808,7244,-2104,-1.00,-1.0
549,20160,-6388,-464,-1.00,-1.0
551,20544,4460,15836,-1.00,-1.0
553,13748,-716,-26924,-1.00,-1.0
555,19908,7464,11956,-1.00,-1.0
557,20524,-11152,5884,-1.00,-1.0
559,16172,-2868,-15620,-1.00,-1.0
561,15640,936,-2508,-1.00,-1.0
563,14032,-3304,-12840,-1.00,-1.0
565,15216,9584,-3772,-1.00,-1.0
567,20384,-8108,8720,-1.00,-1.0
569,16872,1556,1636,-1.00,-1.0
571,13492,3800,-7048,-1.00,-1.0
573,19188,-3904,5864,-1.00,-1.0
577,14312,316,-7656,-1.00,-1.0
579,18140,640,5176,-1.00,-1.0
580,18156,-4300,3132,-1.00,-1.0
582,15688,3560,-2324,-1.00,-1.0
584,16640,-560,-340,-1.00,-1.0
586,18464,-736,3252,-1.00,-1.0
588,16904,-60,2412,-1.00,-1.0
590,16192,596,-2828,-1.00,-1.0
592,17296,24,3152,-1.00,-1.0
594,17124,-1124,-44,-1.00,-1.0
596,16476,1472,-904,-1.00,-1.0
598,17136,-552,836,-1.00,-1.0
600,16384,52,-1616,-1.00,-1.0
602,16836,652,116,-1.00,-1.0
604,17212,-560,-188,-1.00,-1.0
606,17148,172,1420,-1.00,-1.0
608,16756,-16,-376,-1.00,-1.0
612,17008,-292,1504,-1.00,-1.0
614,16932,-360,-564,-1.00,-1.0
616,17016,196,1044,-1.00,-1.0
618,17368,-616,424,-1.00,-1.0
620,17152,160,1376,-1.00,-1.0
622,16976,28,672,-1.00,-1.0
624,17036,-76,792,-1.00,-1.0
625,17028,20,1732,-1.00,-1.0
627,17040,84,112,-1.00,-1.0
629,16964,636,1096,-1.00,-1.0
631,17068,-120,648,-1.00,-1.0
633,17044,420,272,-1.00,-1.0
635,16844,204,544,-1.00,-1.0
637,17052,-8,496,-1.00,-1.0
639,17036,132,888,-1.00,-1.0
641,16792,-168,128,-1.00,-1.0
643,16932,-20,612,-1.00,-1.0
645,17028,8,328,-1.00,-1.0
649,17028,-180,440,-1.00,-1.0
651,17064,-260,704,-1.00,-1.0
653,16948,-72,808,-1.00,-1.0
655,16964,-412,704,-1.00,-1.0
657,17064,-232,700,-1.00,-1.0
659,17188,-172,884,-1.00,-1.0
661,17144,-112,280,-1.00,-1.0
663,17140,-48,940,-1.00,-1.0
665,17024,-84,516,-1.00,-1.0
667,17060,184,700,-1.00,-1.0
669,16980,-132,964,-1.00,-1.0
670,17088,172,656,-1.00,-1.0
672,16952,156,632,-1.00,-1.0
674,16940,12,496,-1.00,-1.0
676,17040,112,280,-1.00,-1.0
678,16884,-24,352,-1.00,-1.0
680,16996,128,560,-1.00,-1.0
684,16880,-24,544,-1.00,-1.0
686,16856,-12,268,-1.00,-1.0
688,16968,-64,392,-1.00,-1.0
690,17008,-16,536,-1.00,-1.0
692,16952,-192,444,-1.00,-1.0
694,17008,-184,880,-1.00,-1.0
696,17032,-112,620,-1.00,-1.0
698,17084,-156,520,-1.00,-1.0
700,17088,-124,624,-1.00,-1.0
702,17024,-108,832,-1.00,-1.0
704,16992,-96,844,-1.00,-1.0
706,16984,44,764,-1.00,-1.0
708,17020,104,736,-1.00,-1.0
710,17064,40,528,-1.00,-1.0
712,17056,80,768,-1.00,-1.0
713,16960,36,616,-1.00,-1.0
715,17020,172,696,-1.00,-1.0
717,17020,36,576,-1.00,-1.0
721,16960,28,492,-1.00,-1.0
723,17008,36,644,-1.00,-1.0
725,17040,16,624,-1.00,-1.0
727,17000,-68,672,-1.00,-1.0
729,17076,-220,564,-1.00,-1.0
731,17012,-92,428,-1.00,-1.0
733,16980,-136,604,-1.00,-1.0
735,17024,-88,696,-1.00,-1.0
737,17052,-76,640,-1.00,-1.0
739,17068,-116,676,-1.00,-1.0
741,17068,-124,724,-1.00,-1.0
743,17016,-36,592,-1.00,-1.0
745,17100,-180,552,-1.00,-1.0
747,16940,-100,720,-1.00,-1.0
749,17012,28,724,-1.00,-1.0
751,17140,108,804,-1.00,-1.0
753,16932,48,568,-1.00,-1.0
757,17072,4,604,-1.00,-1.0
759,16984,-48,520,-1.00,-1.0
761,16984,-48,432,-1.00,-1.0
763,16984,12,476,-1.00,-1.0
764,17008,32,536,-1.00,-1.0
766,16976,-96,480,-1.00,-1.0
768,16940,-88,596,-1.00,-1.0
770,17004,-184,588,-1.00,-1.0
772,16900,-152,636,-1.00,-1.0
774,16984,-60,540,-1.00,-1.0
776,16924,-44,696,-1.00,-1.0
778,17012,-12,600,-1.00,-1.0
780,17012,32,724,-1.00,-1.0
782,16992,0,748,-1.00,-1.0
784,16992,-12,860,-1.00,-1.0
786,16932,-4,716,-1.00,-1.0
788,17016,-12,884,-1.00,-1.0
790,16968,-80,596,-1.00,-1.0
794,16996,48,624,-1.00,-1.0
796,17016,88,572,-1.00,-1.0
798,17040,44,504,-1.00,-1.0
800,16944,-80,568,-1.00,-1.0
802,17016,-72,616,-1.00,-1.0
804,16984,56,812,-1.00,-1.0
806,16940,-56,636,-1.00,-1.0
807,16972,-64,716,-1.00,-1.0
809,17080,-88,564,-1.00,-1.0
811,17092,-148,652,-1.00,-1.0
813,16984,-164,584,-1.00,-1.0
815,17084,-100,588,-1.00,-1.0
817,17032,-136,696,-1.00,-1.0
819,17032,36,720,-1.00,-1.0
821,17004,-8,580,-1.00,-1.0
823,17040,0,560,-1.00,-1.0
825,16836,-60,756,-1.00,-1.0
827,16944,-20,648,-1.00,-1.0
831,17036,-80,608,-1.00,-1.0
833,17012,-44,624,-1.00,-1.0
835,16932,-112,560,-1.00,-1.0
837,16904,-52,656,-1.00,-1.0
839,17040,-80,632,-1.00,-1.0
841,16936,-52,548,-1.00,-1.0
843,16956,-16,588,-1.00,-1.0
845,16924,8,520,-1.00,-1.0
846,16952,-68,652,-1.00,-1.0
848,17000,-88,512,-1.00,-1.0
850,16856,40,512,-1.00,-1.0
852,17036,-88,504,-1.00,-1.0
854,17032,-136,560,-1.00,-1.0
856,16936,-128,624,-1.00,-1.0
858,16972,-112,680,-1.00,-1.0
860,17044,-156,596,-1.00,-1.0
862,17056,-8,688,-1.00,-1.0
864,17020,-64,524,-1.00,-1.0
868,17096,0,624,-1.00,-1.0
870,16888,48,628,-1.00,-1.0
872,16940,-76,544,-1.00,-1.0
874,16856,-48,832,-1.00,-1.0
876,17000,-64,628,-1.00,-1.0
878,16912,-60,532,-1.00,-1.0
879,16980,-84,712,-1.00,-1.0
881,16980,64,648,-1.00,-1.0
883,16996,12,644,-1.00,-1.0
885,17048,0,704,-1.00,-1.0
887,17000,-76,624,-1.00,-1.0
889,16956,-4,564,-1.00,-1.0
891,17044,-36,728,-1.00,-1.0
893,17040,-96,700,-1.00,-1.0
895,16972,-168,416,-1.00,-1.0
897,17000,-32,780,-1.00,-1.0
899,16976,-100,636,-1.00,-1.0
901,16992,-92,816,-1.00,-1.0
905,16924,-12,632,-1.00,-1.0
907,17036,20,652,-1.00,-1.0
909,16956,32,580,-1.00,-1.0
911,16920,76,564,-1.00,-1.0
913,17060,-12,668,-1.00,-1.0
915,16996,64,592,-1.00,-1.0
917,17004,56,676,-1.00,-1.0
919,16976,-4,824,-1.00,-1.0
920,17008,76,632,-1.00,-1.0
922,17060,36,752,-1.00,-1.0
924,16948,-72,764,-1.00,-1.0
926,17052,-24,644,-1.00,-1.0
928,16932,4,752,-1.00,-1.0
930,17028,12,604,-1.00,-1.0
932,16920,-76,616,-1.00,-1.0
934,16988,-144,692,-1.00,-1.0
936,16880,-152,572,-1.00,-1.0
938,16956,-64,544,-1.00,-1.0
942,17008,-88,660,-1.00,-1.0
944,16964,-4,652,-1.00,-1.0
946,17088,-56,692,-1.00,-1.0
948,16972,-176,660,-1.00,-1.0
950,16972,-52,572,-1.00,-1.0
952,16992,-44,620,-1.00,-1.0
954,17004,8,488,-1.00,-1.0
956,17008,-20,704,-1.00,-1.0
958,17028,-64,652,-1.00,-1.0
960,17032,12,620,-1.00,-1.0
962,16984,-48,748,-1.00,-1.0
964,16916,4,552,-1.00,-1.0
966,17000,-48,672,-1.00,-1.0
968,16968,-128,616,-1.00,-1.0
970,16932,-136,588,-1.00,-1.0
971,16964,-84,624,-1.00,-1.0
973,16980,-60,500,-1.00,-1.0
978,16964,28,508,-1.00,-1.0
980,17012,-44,444,-1.00,-1.0
981,16880,4,616,-1.00,-1.0
983,17004,-16,456,-1.00,-1.0
985,17048,-144,444,-1.00,-1.0
987,16924,-88,720,-1.00,-1.0
989,16944,-16,472,-1.00,-1.0
991,16948,36,604,-1.00,-1.0
993,16988,-40,624,-1.00,-1.0
995,17008,-40,696,-1.00,-1.0
997,16920,-92,692,-1.00,-1.0
999,16976,16,784,-1.00,-1.0
1001,16980,-80,744,-1.00,-1.0
1003,17088,-12,696,-1.00,-1.0
1005,17132,-16,576,-1.00,-1.0
1007,16940,-56,732,-1.00,-1.0
1009,16888,68,688,-1.00,-1.0
1011,16992,36,584,-1.00,-1.0
1015,17020,56,724,-1.00,-1.0
1017,17016,-12,700,-1.00,-1.0
1019,16920,76,800,-1.00,-1.0
1021,16876,-40,668,-1.00,-1.0
1023,16988,-56,800,-1.00,-1.0
1025,16940,-4,620,-1.00,-1.0
1026,17012,-32,688,-1.00,-1.0
1028,17096,-40,664,-1.00,-1.0
1030,17040,-52,680,-1.00,-1.0
1032,17032,-112,524,-1.00,-1.0
1034,17008,-40,568,-1.00,-1.0
1036,17028,0,648,-1.00,-1.0
1038,17076,-4,428,-1.00,-1.0
1040,16932,40,548,-1.00,-1.0
1042,16968,0,576,-1.00,-1.0
1044,17040,-16,536,-1.00,-1.0
1046,16972,16,588,-1.00,-1.0
1050,16956,-112,596,-1.00,-1.0
1052,16996,-60,612,-1.00,-1.0
1054,17008,8,476,-1.00,-1.0
1056,16996,-80,668,-1.00,-1.0
1058,16976,-88,716,-1.00,-1.0
1060,17096,-72,704,-1.00,-1.0
1062,17012,32,616,-1.00,-1.0
1064,16984,-52,504,-1.00,-1.0
1065,17020,-156,600,-1.00,-1.0
1068,17024,20,460,-1.00,-1.0
1070,16984,-232,620,-1.00,-1.0
1071,17036,-68,516,-1.00,-1.0
1073,17016,-92,592,-1.00,-1.0
1075,16948,-20,528,-1.00,-1.0
1077,17004,-40,452,-1.00,-1.0
1079,16976,-60,556,-1.00,-1.0
1081,16972,-52,684,-1.00,-1.0
1085,16992,16,636,-1.00,-1.0
1087,16956,-28,712,-1.00,-1.0
1089,17044,-40,708,-1.00,-1.0
1091,16976,-136,608,-1.00,-1.0
1093,17032,-60,564,-1.00,-1.0
1095,16996,-16,612,-1.00,-1.0
1097,16972,-76,576,-1.00,-1.0
1099,16980,-48,584,-1.00,-1.0
1101,16928,-16,740,-1.00,-1.0
1103,16968,-56,668,-1.00,-1.0
1105,17036,-96,720,-1.00,-1.0
1107,17044,-8,552,-1.00,-1.0
1109,16980,12,552,-1.00,-1.0
1111,16956,-56,572,-1.00,-1.0
1113,17060,-40,488,-1.00,-1.0
1115,16948,0,700,-1.00,-1.0
1116,16948,-64,580,-1.00,-1.0
1118,17100,-68,508,-1.00,-1.0
1122,17016,-40,640,-1.00,-1.0
1124,16976,-68,660,-1.00,-1.0
1126,16888,-76,640,-1.00,-1.0
1128,16968,44,628,-1.00,-1.0
1130,16928,-28,536,-1.00,-1.0
1132,17004,-84,540,-1.00,-1.0
1134,17024,-16,584,-1.00,-1.0
1136,16900,-88,612,-1.00,-1.0
1138,17008,16,632,-1.00,-1.0
1140,16912,-52,528,-1.00,-1.0
1142,16956,-76,688,-1.00,-1.0
1144,17060,-60,564,-1.00,-1.0
1146,16964,-4,612,-1.00,-1.0
1148,16980,-52,492,-1.00,-1.0
1150,17060,-52,584,-1.00,-1.0
1151,16976,-64,576,-1.00,-1.0
1153,17020,-12,608,-1.00,-1.0
1157,17008,-8,712,-1.00,-1.0
1159,16896,20,644,-1.00,-1.0
1161,16964,-108,688,-1.00,-1.0
1163,16880,-52,676,-1.00,-1.0
1165,16984,-160,688,-1.00,-1.0
1167,17028,0,536,-1.00,-1.0
1169,17092,-100,456,-1.00,-1.0
1171,16936,-76,572,-1.00,-1.0
1173,17052,-148,552,-1.00,-1.0
1175,17020,8,772,-1.00,-1.0
1177,16904,-116,588,-1.00,-1.0
1179,16984,-100,572,-1.00,-1.0
1181,16980,-16,440,-1.00,-1.0
1183,16992,-60,660,-1.00,-1.0
1185,17020,-188,652,-1.00,-1.0
1186,16944,-28,568,-1.00,-1.0
1188,17064,-112,576,-1.00,-1.0
1193,17048,-16,612,-1.00,-1.0
1195,17004,16,796,-1.00,-1.0
1196,16944,24,660,-1.00,-1.0
1198,17056,8,576,-1.00,-1.0
1200,16988,-100,564,-1.00,-1.0
1202,17024,-124,536,-1.00,-1.0
1204,17032,-84,568,-1.00,-1.0
1206,16844,-36,688,-1.00,-1.0
1208,16952,-16,564,-1.00,-1.0
1210,17080,-24,728,-1.00,-1.0
1212,17044,-152,728,-1.00,-1.0
1214,16908,-4,608,-1.00,-1.0
1216,17016,-76,476,-1.00,-1.0
1218,16932,-20,728,-1.00,-1.0
1220,16952,32,660,-1.00,-1.0
1222,16948,36,680,-1.00,-1.0
1224,16992,40,508,-1.00,-1.0
1228,16968,-72,616,-1.00,-1.0
1230,17000,140,604,-1.00,-1.0
1232,17044,-20,748,-1.00,-1.0
1234,16992,52,604,-1.00,-1.0
1236,17012,132,740,-1.00,-1.0
1238,16944,12,592,-1.00,-1.0
1239,16996,32,680,-1.00,-1.0
1241,17000,32,544,-1.00,-1.0
1243,17008,4,636,-1.00,-1.0
1245,16992,84,716,-1.00,-1.0
1247,17060,-20,652,-1.00,-1.0
1249,17048,8,588,-1.00,-1.0
1251,17024,-64,580,-1.00,-1.0
1253,17056,12,692,-1.00,-1.0
1255,17040,-24,664,-1.00,-1.0
1257,17036,-100,496,-1.00,-1.0
1259,17004,-64,484,-1.00,-1.0
1263,16964,16,568,-1.00,-1.0
1265,17112,-72,608,-1.00,-1.0
1267,17096,-68,696,-1.00,-1.0
1269,17056,-68,564,-1.00,-1.0
1271,17028,28,496,-1.00,-1.0
1273,16996,48,608,-1.00,-1.0
1275,16980,12,608,-1.00,-1.0
1277,16976,-48,500,-1.00,-1.0
1279,16948,-32,588,-1.00,-1.0
1281,16984,-40,700,-1.00,-1.0
1283,17008,-16,584,-1.00,-1.0
1284,17036,-84,556,-1.00,-1.0
1286,16948,-24,660,-1.00,-1.0
1288,16996,-8,700,-1.00,-1.0
1290,16972,-80,616,-1.00,-1.0
1292,16940,-76,588,-1.00,-1.0
1294,16996,-20,636,-1.00,-1.0
1296,16972,-132,664,-1.00,-1.0
1300,16960,-52,828,-1.00,-1.0
1302,16952,-36,572,-1.00,-1.0
1304,16980,-40,624,-1.00,-1.0
1306,17096,-28,644,-1.00,-1.0
1308,16884,-56,592,-1.00,-1.0
1310,17000,-40,500,-1.00,-1.0
1312,17000,-48,664,-1.00,-1.0
1314,16972,56,624,-1.00,-1.0
1316,17020,0,668,-1.00,-1.0
1318,16940,-20,536,-1.00,-1.0
1320,16992,-40,620,-1.00,-1.0
1322,17028,-76,764,-1.00,-1.0
1324,17008,-20,556,-1.00,-1.0
1326,16940,-16,520,-1.00,-1.0
1328,16992,-44,628,-1.00,-1.0
1329,17020,-52,616,-1.00,-1.0
1331,17068,-96,800,-1.00,-1.0
1336,16960,-68,708,-1.00,-1.0
1338,17100,-76,572,-1.00,-1.0
1339,16996,-100,448,-1.00,-1.0
1341,16952,-40,580,-1.00,-1.0
1343,16916,-24,508,-1.00,-1.0
1345,16996,-108,592,-1.00,-1.0
1347,17064,-4,752,-1.00,-1.0
1349,17048,-12,544,-1.00,-1.0
1351,16952,12,592,-1.00,-1.0
1353,16976,-28,584,-1.00,-1.0
1355,16972,-112,600,-1.00,-1.0
1357,16956,-60,744,-1.00,-1.0
1359,16980,-56,604,-1.00,-1.0
1361,17032,-60,676,-1.00,-1.0
1363,16960,-40,692,-1.00,-1.0
1365,16984,-20,512,-1.00,-1.0
1367,16972,-64,696,-1.00,-1.0
1371,16932,-116,600,-1.00,-1.0
1373,17028,12,548,-1.00,-1.0
1375,16948,4,564,-1.00,-1.0
1377,16988,36,548,-1.00,-1.0
1379,16984,-40,404,-1.00,-1.0
1381,16972,-100,664,-1.00,-1.0
1382,17056,-64,552,-1.00,-1.0
1384,17036,-88,592,-1.00,-1.0
1386,16964,-76,616,-1.00,-1.0
1388,17024,-8,660,-1.00,-1.0
1390,17088,-40,688,-1.00,-1.0
1392,17052,-52,556,-1.00,-1.0
1394,17016,52,496,-1.00,-1.0
1396,17040,-32,616,-1.00,-1.0
1398,16900,36,608,-1.00,-1.0
1400,17028,-64,564,-1.00,-1.0
1402,17044,0,828,-1.00,-1.0
1406,16836,12,608,-1.00,-1.0
1408,16932,-64,684,-1.00,-1.0
1410,17108,-116,596,-1.00,-1.0
1412,17060,32,576,-1.00,-1.0
1414,17044,-52,472,-1.00,-1.0
1416,17064,-44,472,-1.00,-1.0
1418,16984,12,616,-1.00,-1.0
1419,17052,-28,712,-1.00,-1.0
1421,16920,-36,636,-1.00,-1.0
1423,16936,36,636,-1.00,-1.0
1425,16988,4,560,-1.00,-1.0
1427,17080,-24,556,-1.00,-1.0
1429,16932,0,592,-1.00,-1.0
1431,16920,-108,644,-1.00,-1.0
1433,17016,-20,688,-1.00,-1.0
1435,16976,4,688,-1.00,-1.0
1437,17108,-68,648,-1.00,-1.0
1441,17008,-116,596,-1.00,-1.0
1443,17004,-120,600,-1.00,-1.0
1445,16936,-32,668,-1.00,-1.0
1447,17084,-56,532,-1.00,-1.0
1448,16988,-48,644,-1.00,-1.0
1451,16944,-28,636,-1.00,-1.0
1453,17072,-32,496,-1.00,-1.0
1454,17036,-56,404,-1.00,-1.0
1456,17020,-116,616,-1.00,-1.0
1458,17084,-56,632,-1.00,-1.0
1460,17080,-92,604,-1.00,-1.0
1462,16964,-104,496,-1.00,-1.0
1464,17016,4,724,-1.00,-1.0
1466,17060,28,456,-1.00,-1.0
1468,17000,-100,704,-1.00,-1.0
1470,16944,-40,592,-1.00,-1.0
1472,17012,-4,624,-1.00,-1.0
1476,17012,-92,476,-1.00,-1.0
1478,16996,12,416,-1.00,-1.0
1480,17040,-108,772,-1.00,-1.0
1482,16988,-60,736,-1.00,-1.0
1484,17080,-16,800,-1.00,-1.0
1486,17032,-48,536,-1.00,-1.0
1488,17072,-48,552,-1.00,-1.0
1490,16988,-120,520,-1.00,-1.0
1492,16960,-168,664,-1.00,-1.0
1494,16952,-52,592,-1.00,-1.0
1496,16988,60,568,-1.00,-1.0
1498,16972,-64,576,-1.00,-1.0
1499,17028,0,700,-1.00,-1.0
1501,17036,-36,736,-1.00,-1.0
1503,17012,48,764,-1.00,-1.0
1505,16988,4,660,-1.00,-1.0
1507,17116,12,528,-1.00,-1.0
1509,17080,24,572,-1.00,-1.0
1513,17036,60,560,-1.00,-1.0
1515,16992,-4,608,-1.00,-1.0
1517,16944,-76,692,-1.00,-1.0
1519,16896,-36,436,-1.00,-1.0
1521,17008,0,712,-1.00,-1.0
1523,16996,-88,564,-1.00,-1.0
1525,16912,-136,568,-1.00,-1.0
1527,16896,-40,520,-1.00,-1.0
1529,16972,-112,580,-1.00,-1.0
1531,17004,-104,728,-1.00,-1.0
1533,16952,-76,648,-1.00,-1.0
1535,17024,-56,536,-1.00,-1.0
1537,16940,-40,580,-1.00,-1.0
1539,17036,16,480,-1.00,-1.0
1541,17004,-4,596,-1.00,-1.0
1543,17020,-164,748,-1.00,-1.0
1545,16968,-136,584,-1.00,-1.0
1549,16968,-96,516,-1.00,-1.0
1551,17072,-44,708,-1.00,-1.0
1553,17004,-48,616,-1.00,-1.0
1554,17024,-24,668,-1.00,-1.0
1557,16952,-96,668,-1.00,-1.0
1559,16972,-148,624,-1.00,-1.0
1560,17060,-96,764,-1.00,-1.0
1562,16940,8,624,-1.00,-1.0
1564,16976,-12,688,-1.00,-1.0
1566,16964,24,584,-1.00,-1.0
1568,16880,-48,596,-1.00,-1.0
1570,17016,-88,712,-1.00,-1.0
1572,17036,12,636,-1.00,-1.0
1574,16936,-60,604,-1.00,-1.0
1576,16980,-96,772,-1.00,-1.0
1578,16912,-120,616,-1.00,-1.0
1580,17032,-36,792,-1.00,-1.0
1584,17008,-24,652,-1.00,-1.0
1586,16948,8,832,-1.00,-1.0
1588,17012,32,668,-1.00,-1.0
1590,16956,-76,572,-1.00,-1.0
1592,17004,16,556,-1.00,-1.0
1594,16984,-68,684,-1.00,-1.0
1596,17052,-72,588,-1.00,-1.0
1598,16940,16,604,-1.00,-1.0
1599,16896,-60,612,-1.00,-1.0
1601,17020,-132,684,-1.00,-1.0
1603,16952,-36,492,-1.00,-1.0
1605,17028,-72,560,-1.00,-1.0
1607,16924,-48,532,-1.00,-1.0
1609,16996,12,704,-1.00,-1.0
1611,16960,8,548,-1.00,-1.0
1613,17024,-60,692,-1.00,-1.0
1615,17048,-4,624,-1.00,-1.0
1619,16912,84,628,-1.00,-1.0
1621,17036,-44,652,-1.00,-1.0
1623,17080,-88,616,-1.00,-1.0
1625,17060,28,608,-1.00,-1.0
1627,17060,-48,612,-1.00,-1.0
1629,17096,-60,716,-1.00,-1.0
1631,17036,-28,604,-1.00,-1.0
1633,17124,-100,556,-1.00,-1.0
1635,16948,-52,604,-1.00,-1.0
1637,16924,-144,564,-1.00,-1.0
1639,17032,-56,708,-1.00,-1.0
1641,16948,48,760,-1.00,-1.0
1643,16984,-88,748,-1.00,-1.0
1645,17020,-48,672,-1.00,-1.0
1647,16988,-32,596,-1.00,-1.0
1648,16912,28,520,-1.00,-1.0
1650,16980,-4,584,-1.00,-1.0
1655,16976,-60,704,-1.00,-1.0
1657,16912,-28,656,-1.00,-1.0
1658,16948,-24,748,-1.00,-1.0
1660,17052,-48,712,-1.00,-1.0
1662,17116,-80,688,-1.00,-1.0
1664,17008,-204,432,-1.00,-1.0
1666,16948,-68,360,-1.00,-1.0
1668,17048,-52,712,-1.00,-1.0
1670,16924,48,524,-1.00,-1.0
1672,16948,-112,600,-1.00,-1.0
1674,16964,-28,444,-1.00,-1.0
1676,17060,-92,392,-1.00,-1.0
1678,17032,-124,800,-1.00,-1.0
1680,16992,-76,800,-1.00,-1.0
1682,17024,-56,588,-1.00,-1.0
1684,17088,-84,600,-1.00,-1.0
1686,17076,4,588,-1.00,-1.0
1687,17060,60,564,-1.00,-1.0
1691,16968,76,652,-1.00,-1.0
1693,16932,-40,592,-1.00,-1.0
1695,16968,-4,564,-1.00,-1.0
1697,16996,-80,704,-1.00,-1.0
1699,16888,100,540,-1.00,-1.0
1701,16992,0,564,-1.00,-1.0
1703,16896,-56,592,-1.00,-1.0
1705,17072,-72,608,-1.00,-1.0
1707,17028,-24,572,-1.00,-1.0
1709,17000,-124,568,-1.00,-1.0
1711,16980,-148,620,-1.00,-1.0
1713,17132,-44,736,-1.00,-1.0
1715,16920,40,644,-1.00,-1.0
1717,17028,-144,600,-1.00,-1.0
1719,16972,-128,672,-1.00,-1.0
1721,17092,28,652,-1.00,-1.0
1723,16976,-28,724,-1.00,-1.0
1726,16968,-4,640,-1.00,-1.0
1728,16916,28,532,-1.00,-1.0
1730,16980,-24,608,-1.00,-1.0
1732,16984,72,388,-1.00,-1.0
1734,16960,24,652,-1.00,-1.0
1736,16992,24,624,-1.00,-1.0
1738,16972,-72,592,-1.00,-1.0
1740,16996,0,572,-1.00,-1.0
1742,17004,-52,596,-1.00,-1.0
1744,17020,-28,680,-1.00,-1.0
1746,17104,-64,476,-1.00,-1.0
1748,17080,-76,576,-1.00,-1.0
1750,17060,20,572,-1.00,-1.0
1752,17048,16,660,-1.00,-1.0
1754,17088,-56,596,-1.00,-1.0
1756,16976,-76,548,-1.00,-1.0
1757,17028,-32,528,-1.00,-1.0
1762,17020,-152,496,-1.00,-1.0
1764,17060,-68,568,-1.00,-1.0
1766,16964,-28,624,-1.00,-1.0
1767,16992,68,572,-1.00,-1.0
1770,16976,-92,640,-1.00,-1.0
1772,17008,44,604,-1.00,-1.0
1773,17040,20,580,-1.00,-1.0
1775,16960,-84,576,-1.00,-1.0
1777,16924,-36,676,-1.00,-1.0
1779,16948,20,568,-1.00,-1.0
1781,17020,44,528,-1.00,-1.0
1783,16996,-4,656,-1.00,-1.0
1785,16996,-40,612,-1.00,-1.0
1787,16912,-8,640,-1.00,-1.0
1789,16976,-4,632,-1.00,-1.0
1791,16992,4,528,-1.00,-1.0
1793,16948,-28,568,-1.00,-1.0
1797,16924,-100,760,-1.00,-1.0
1799,16944,-32,624,-1.00,-1.0
1801,17012,-44,680,-1.00,-1.0
1803,17068,-128,536,-1.00,-1.0
1805,17004,-68,612,-1.00,-1.0
1807,17052,-16,676,-1.00,-1.0
1809,16952,8,632,-1.00,-1.0
1811,16940,-76,656,-1.00,-1.0
1812,17040,40,576,-1.00,-1.0
1814,17052,56,720,-1.00,-1.0
1816,17096,-108,572,-1.00,-1.0
1818,17036,-72,552,-1.00,-1.0
1820,17012,16,660,-1.00,-1.0
1822,17072,-20,588,-1.00,-1.0
1824,16960,-52,612,-1.00,-1.0
1826,16984,-72,652,-1.00,-1.0
1828,16980,-36,520,-1.00,-1.0
1830,16924,-28,604,-1.00,-1.0
1834,17040,24,640,-1.00,-1.0
1836,17068,28,676,-1.00,-1.0
1838,16976,-32,604,-1.00,-1.0
1840,16976,-48,668,-1.00,-1.0
1842,17032,32,512,-1.00,-1.0
1844,17028,-36,572,-1.00,-1.0
1846,16992,-32,536,-1.00,-1.0
1848,16992,-72,592,-1.00,-1.0
1850,17068,-100,536,-1.00,-1.0
1852,16996,-44,660,-1.00,-1.0
1854,16992,44,652,-1.00,-1.0
1856,17028,-32,668,-1.00,-1.0
1858,16984,8,572,-1.00,-1.0
1860,17148,-24,572,-1.00,-1.0
1861,17048,-80,756,-1.00,-1.0
1863,16956,-60,660,-1.00,-1.0
1865,16924,-76,644,-1.00,-1.0
1869,17004,52,620,-1.00,-1.0
1871,17072,56,512,-1.00,-1.0
1873,17060,-24,636,-1.00,-1.0
1875,17068,-52,640,-1.00,-1.0
1877,17080,8,692,-1.00,-1.0
1879,16980,-96,576,-1.00,-1.0
1881,17008,-76,648,-1.00,-1.0
1883,16968,28,688,-1.00,-1.0
1885,16968,172,660,-1.00,-1.0
1887,16964,-76,696,-1.00,-1.0
1889,17068,-68,728,-1.00,-1.0
1891,16996,68,608,-1.00,-1.0
1893,17012,-40,868,-1.00,-1.0
1895,17008,-4,620,-1.00,-1.0
1897,16964,-92,680,-1.00,-1.0
1899,16952,16,784,-1.00,-1.0
1900,16996,-12,572,-1.00,-1.0
1905,17024,-40,660,-1.00,-1.0
1907,17108,-24,776,-1.00,-1.0
1909,17020,-12,516,-1.00,-1.0
1910,17124,0,624,-1.00,-1.0
1912,17084,24,460,-1.00,-1.0
1914,16996,-24,548,-1.00,-1.0
1916,16936,-36,592,-1.00,-1.0
1918,16908,-28,500,-1.00,-1.0
1920,16956,-68,672,-1.00,-1.0
1922,17092,12,592,-1.00,-1.0
1924,16960,-84,728,-1.00,-1.0
1926,16944,-32,592,-1.00,-1.0
1928,17008,28,616,-1.00,-1.0
1930,16940,28,616,-1.00,-1.0
1932,16984,-64,564,-1.00,-1.0
1934,17064,-68,664,-1.00,-1.0
1936,17032,60,596,-1.00,-1.0
1940,17028,-124,492,-1.00,-1.0
1942,17068,-44,656,-1.00,-1.0
1944,16964,-148,676,-1.00,-1.0
1946,17092,36,728,-1.00,-1.0
1948,16988,-24,596,-1.00,-1.0
1950,16944,-68,636,-1.00,-1.0
1952,17040,-16,496,-1.00,-1.0
1953,16996,0,616,-1.00,-1.0
1955,17076,-36,564,-1.00,-1.0
1957,17008,-104,528,-1.00,-1.0
1959,16968,-16,744,-1.00,-1.0
1961,17072,-120,620,-1.00,-1.0
1963,16988,-16,672,-1.00,-1.0
1965,17124,-4,584,-1.00,-1.0
1967,16972,56,668,-1.00,-1.0
1969,16952,0,668,-1.00,-1.0
1971,16972,-64,832,-1.00,-1.0
1973,16980,40,540,-1.00,-1.0
1977,17104,-100,624,-1.00,-1.0
1979,17056,-32,612,-1.00,-1.0
1981,17028,-8,584,-1.00,-1.0
1983,16956,36,644,-1.00,-1.0
1985,16976,-32,564,-1.00,-1.0
1987,17032,-24,648,-1.00,-1.0
1989,17012,-8,608,-1.00,-1.0
1990,16920,48,588,-1.00,-1.0
1993,16936,-104,492,-1.00,-1.0
1995,16924,52,564,-1.00,-1.0
1996,16932,4,676,-1.00,-1.0
1998,17036,-44,560,-1.00,-1.0
2000,17016,48,568,-1.00,-1.0
2002,17108,-148,632,-1.00,-1.0
2004,17124,-76,540,-1.00,-1.0
2006,16984,-12,568,-1.00,-1.0
2008,16964,-4,652,-1.00,-1.0
2012,16948,-88,636,-1.00,-1.0
2014,17020,-72,616,-1.00,-1.0
2016,16940,-16,572,-1.00,-1.0
2018,16884,-64,552,-1.00,-1.0
2020,17000,8,708,-1.00,-1.0
2022,16924,36,820,-1.00,-1.0
2024,17072,-16,464,-1.00,-1.0
2025,16972,-84,560,-1.00,-1.0
2027,16944,-32,608,-1.00,-1.0
2029,17012,-88,564,-1.00,-1.0
2031,16992,-32,528,-1.00,-1.0
2033,16964,-104,556,-1.00,-1.0
2035,16992,-28,600,-1.00,-1.0
2037,16992,44,624,-1.00,-1.0
2039,16980,-8,656,-1.00,-1.0
2041,17024,-36,768,-1.00,-1.0
2043,17088,-124,576,-1.00,-1.0
2047,16848,-52,540,-1.00,-1.0
2049,16992,-124,432,-1.00,-1.0
2051,17040,-40,584,-1.00,-1.0
2053,16948,-56,528,-1.00,-1.0
2055,17120,-48,644,-1.00,-1.0
2057,17080,0,612,-1.00,-1.0
2059,16944,0,696,-1.00,-1.0
2061,17036,-56,524,-1.00,-1.0
2063,17036,-52,584,-1.00,-1.0
2065,17076,40,760,-1.00,-1.0
2067,17040,4,548,-1.00,-1.0
2068,17016,-144,732,-1.00,-1.0
2070,17068,-164,552,-1.00,-1.0
2072,17024,36,540,-1.00,-1.0
2074,17040,-12,516,-1.00,-1.0
2076,16980,88,552,-1.00,-1.0
2078,16948,-92,764,-1.00,-1.0
2083,17028,-44,496,-1.00,-1.0
2085,16976,-44,700,-1.00,-1.0
2086,17072,-32,588,-1.00,-1.0
2088,16952,-56,648,-1.00,-1.0
2090,17048,-48,528,-1.00,-1.0
2092,17008,-100,604,-1.00,-1.0
2094,17000,-68,656,-1.00,-1.0
2096,16972,-164,544,-1.00,-1.0
2098,17028,-28,748,-1.00,-1.0
2100,16972,-24,564,-1.00,-1.0
2102,17024,12,480,-1.00,-1.0
2104,17088,-68,608,-1.00,-1.0
2106,16884,-52,624,-1.00,-1.0
2108,16988,-56,552,-1.00,-1.0
2110,17036,112,668,-1.00,-1.0
2112,16984,-92,604,-1.00,-1.0
2114,17124,-40,520,-1.00,-1.0
2118,16888,-56,492,-1.00,-1.0
2120,17100,-72,540,-1.00,-1.0
2122,16944,-72,600,-1.00,-1.0
2124,16904,-108,556,-1.00,-1.0
2126,17036,-16,564,-1.00,-1.0
2128,17024,8,536,-1.00,-1.0
2130,16952,-44,576,-1.00,-1.0
2131,17012,-36,576,-1.00,-1.0
2133,17040,-88,632,-1.00,-1.0
2135,16996,-68,684,-1.00,-1.0
2137,17028,-56,424,-1.00,-1.0
2139,16892,-16,496,-1.00,-1.0
2141,16956,-100,580,-1.00,-1.0
2143,17088,-148,652,-1.00,-1.0
2145,16976,-60,652,-1.00,-1.0
2147,16944,-52,596,-1.00,-1.0
2149,16828,-88,560,-1.00,-1.0
2153,16916,-20,592,-1.00,-1.0
2155,16892,-32,432,-1.00,-1.0
2157,16988,-56,556,-1.00,-1.0
2159,17056,24,608,-1.00,-1.0
2161,17012,36,496,-1.00,-1.0
2163,17016,32,560,-1.00,-1.0
2165,16952,-24,620,-1.00,-1.0
2167,16924,-104,648,-1.00,-1.0
2169,16976,-44,764,-1.00,-1.0
2171,17076,-192,740,-1.00,-1.0
2173,16916,-124,704,-1.00,-1.0
2175,17028,92,616,-1.00,-1.0
2176,17108,-60,636,-1.00,-1.0
2178,16992,-36,692,-1.00,-1.0
2180,17060,-64,660,-1.00,-1.0
2182,16956,-124,548,-1.00,-1.0
2184,17024,0,528,-1.00,-1.0
2186,16960,-64,588,-1.00,-1.0
2190,16912,4,672,-1.00,-1.0
2192,17064,-116,664,-1.00,-1.0
2194,17044,-20,740,-1.00,-1.0
2196,16880,-112,592,-1.00,-1.0
2198,16972,20,644,-1.00,-1.0
2200,17052,-100,560,-1.00,-1.0
2202,16984,-40,576,-1.00,-1.0
2204,16992,0,656,-1.00,-1.0
2206,16952,-52,604,-1.00,-1.0
2208,17016,4,708,-1.00,-1.0
2210,16920,-68,540,-1.00,-1.0
2212,16944,-64,676,-1.00,-1.0
2214,17020,-64,620,-1.00,-1.0
2216,16992,-76,604,-1.00,-1.0
2218,16916,-44,572,-1.00,-1.0
2219,17104,44,608,-1.00,-1.0
2221,17000,-16,632,-1.00,-1.0
2226,17036,-32,572,-1.00,-1.0
2228,17116,104,740,-1.00,-1.0
2229,17068,-164,612,-1.00,-1.0
2231,16928,-88,644,-1.00,-1.0
2233,16992,-52,696,-1.00,-1.0
2235,17024,24,760,-1.00,-1.0
2237,16916,-128,588,-1.00,-1.0
2239,17032,-24,688,-1.00,-1.0
2241,17024,-64,636,-1.00,-1.0
2243,17008,-72,692,-1.00,-1.0
2245,16948,-52,524,-1.00,-1.0
2247,16888,-92,628,-1.00,-1.0
2249,17028,-144,680,-1.00,-1.0
2251,16944,-16,500,-1.00,-1.0
2253,17028,-48,652,-1.00,-1.0
2255,17004,-88,620,-1.00,-1.0
2257,16896,-104,744,-1.00,-1.0
2261,16924,-72,596,-1.00,-1.0
2263,16936,-28,632,-1.00,-1.0
2265,16944,-64,572,-1.00,-1.0
2267,16964,-32,604,-1.00,-1.0
2269,16912,32,524,-1.00,-1.0
2271,17000,20,616,-1.00,-1.0
2272,16960,-20,624,-1.00,-1.0
2274,17012,-120,600,-1.00,-1.0
2276,16996,-64,564,-1.00,-1.0
2278,17020,-12,624,-1.00,-1.0
2280,17048,-12,540,-1.00,-1.0
2282,16964,-60,524,-1.00,-1.0
2284,17008,-44,616,-1.00,-1.0
2286,16964,-88,424,-1.00,-1.0
2288,17068,-148,468,-1.00,-1.0
2290,17136,32,460,-1.00,-1.0
2292,16984,68,596,-1.00,-1.0
2296,16928,32,728,-1.00,-1.0
2298,17060,-112,560,-1.00,-1.0
2300,17012,-24,484,-1.00,-1.0
2302,17036,-52,620,-1.00,-1.0
2304,16980,-88,536,-1.00,-1.0
2306,17064,-60,704,-1.00,-1.0
2308,16968,-20,740,-1.00,-1.0
2309,17024,-32,776,-1.00,-1.0
2312,17000,52,728,-1.00,-1.0
2313,17068,-28,760,-1.00,-1.0
2315,16936,-16,532,-1.00,-1.0
2317,16920,-64,608,-1.00,-1.0
2319,16904,-40,688,-1.00,-1.0
2321,16976,40,556,-1.00,-1.0
2323,16888,-36,768,-1.00,-1.0
2325,17052,-64,628,-1.00,-1.0
2327,17144,36,528,-1.00,-1.0
2331,16976,-64,532,-1.00,-1.0
2333,17104,-16,632,-1.00,-1.0
2335,17044,36,584,-1.00,-1.0
2337,16928,-92,684,-1.00,-1.0
2339,17024,-76,656,-1.00,-1.0
2341,17004,-80,676,-1.00,-1.0
2343,16996,-36,724,-1.00,-1.0
2345,17032,-52,804,-1.00,-1.0
2347,16936,-100,576,-1.00,-1.0
2349,16964,-4,656,-1.00,-1.0
2351,16968,-60,460,-1.00,-1.0
2352,16988,12,580,-1.00,-1.0
2354,16904,-88,688,-1.00,-1.0
2356,17072,32,588,-1.00,-1.0
2358,17052,-76,692,-1.00,-1.0
2360,17004,-28,676,-1.00,-1.0
2362,17004,-124,740,-1.00,-1.0
2366,16944,-108,584,-1.00,-1.0
2368,17036,-60,568,-1.00,-1.0
2370,17072,-76,632,-1.00,-1.0
2372,16984,-100,600,-1.00,-1.0
2374,17028,48,652,-1.00,-1.0
2376,16944,-24,560,-1.00,-1.0
2378,17060,-64,656,-1.00,-1.0
2380,17064,-4,588,-1.00,-1.0
2382,17040,-28,592,-1.00,-1.0
2384,17028,-56,564,-1.00,-1.0
2386,16940,-100,680,-1.00,-1.0
2388,17040,-92,608,-1.00,-1.0
2390,17024,36,532,-1.00,-1.0
2392,17024,-60,540,-1.00,-1.0
2394,16996,-184,636,-1.00,-1.0
2395,17040,-212,536,-1.00,-1.0
2397,17056,-164,588,-1.00,-1.0
2402,17068,76,572,-1.00,-1.0
2404,17020,-28,684,-1.00,-1.0
2405,17104,0,676,-1.00,-1.0
2407,17100,40,632,-1.00,-1.0
2409,17044,-124,600,-1.00,-1.0
2411,16980,24,620,-1.00,-1.0
2413,17072,-148,716,-1.00,-1.0
2415,16984,-60,668,-1.00,-1.0
2417,16876,-64,488,-1.00,-1.0
2419,16904,-76,584,-1.00,-1.0
2421,17008,-76,564,-1.00,-1.0
2423,17040,-76,544,-1.00,-1.0
2425,16940,-20,720,-1.00,-1.0
2427,17012,-64,508,-1.00,-1.0
2429,16952,-104,600,-1.00,-1.0
2431,17016,-28,500,-1.00,-1.0
2433,16952,-68,568,-1.00,-1.0
2437,17008,44,632,-1.00,-1.0
2439,16948,-84,556,-1.00,-1.0
2441,16940,-68,632,-1.00,-1.0
2443,17020,-88,528,-1.00,-1.0
2445,17060,-4,664,-1.00,-1.0
2447,17088,-124,532,-1.00,-1.0
2449,16976,-112,612,-1.00,-1.0
2450,16944,-40,616,-1.00,-1.0
2452,17036,-64,632,-1.00,-1.0
2454,17040,-132,644,-1.00,-1.0
2456,17036,-60,604,-1.00,-1.0
2458,16968,12,560,-1.00,-1.0
2460,17072,-120,664,-1.00,-1.0
2462,17068,28,696,-1.00,-1.0
2464,16980,-12,696,-1.00,-1.0
2466,16964,-112,700,-1.00,-1.0
2468,16888,-68,720,-1.00,-1.0
2472,17056,-76,676,-1.00,-1.0
2474,17032,16,512,-1.00,-1.0
2476,17008,-52,656,-1.00,-1.0
2478,17028,-36,680,-1.00,-1.0
2480,17036,-80,676,-1.00,-1.0
2482,17060,-12,684,-1.00,-1.0
2484,16984,-44,576,-1.00,-1.0
2486,17040,-108,536,-1.00,-1.0
2488,16992,-44,552,-1.00,-1.0
2490,16928,16,644,-1.00,-1.0
2492,17056,28,584,-1.00,-1.0
2494,17124,24,576,-1.00,-1.0
2495,17132,0,568,-1.00,-1.0
2498,17012,-4,572,-1.00,-1.0
2500,17052,16,524,-1.00,-1.0
2501,16984,-80,632,-1.00,-1.0
2503,17088,-116,520,-1.00,-1.0
2505,17052,12,532,-1.00,-1.0
2509,17020,40,708,-1.00,-1.0
2511,16988,32,704,-1.00,-1.0
2513,16992,-128,548,-1.00,-1.0
2515,16992,16,620,-1.00,-1.0
2517,16904,24,580,-1.00,-1.0
2519,17052,-28,448,-1.00,-1.0
2521,17004,-44,564,-1.00,-1.0
2523,17140,32,508,-1.00,-1.0
2525,16988,-76,624,-1.00,-1.0
2527,16892,-36,640,-1.00,-1.0
2529,16976,-120,452,-1.00,-1.0
2531,16956,20,632,-1.00,-1.0
2533,16976,-80,616,-1.00,-1.0
2535,16992,-84,600,-1.00,-1.0
2537,16988,-4,624,-1.00,-1.0
2539,16952,-72,500,-1.00,-1.0
2540,17012,52,692,-1.00,-1.0
2545,17088,40,632,-1.00,-1.0
2547,16868,-36,644,-1.00,-1.0
2548,17072,12,484,-1.00,-1.0
2550,16952,-40,488,-1.00,-1.0
2552,17060,-72,580,-1.00,-1.0
2554,16964,0,528,-1.00,-1.0
2556,17028,-76,636,-1.00,-1.0
2558,16988,-20,656,-1.00,-1.0
2560,16980,20,584,-1.00,-1.0
2562,17000,-8,576,-1.00,-1.0
2564,17140,-8,652,-1.00,-1.0
2566,16976,-44,600,-1.00,-1.0
2568,16976,-20,756,-1.00,-1.0
2570,16876,112,620,-1.00,-1.0
2572,16980,-44,612,-1.00,-1.0
2574,17064,-32,580,-1.00,-1.0
2576,17076,-32,604,-1.00,-1.0
2580,16952,12,652,-1.00,-1.0
2581,16968,-60,572,-1.00,-1.0
2583,17120,-112,652,-1.00,-1.0
2585,17060,-72,592,-1.00,-1.0
2587,16952,48,752,-1.00,-1.0
2589,17000,24,524,-1.00,-1.0
2591,16956,-72,580,-1.00,-1.0
2593,17056,-20,780,-1.00,-1.0
2595,16980,-64,644,-1.00,-1.0
2597,17008,-52,644,-1.00,-1.0
2599,17004,-48,484,-1.00,-1.0
2601,17140,-12,476,-1.00,-1.0
2603,16992,0,444,-1.00,-1.0
2605,16932,-92,652,-1.00,-1.0
2607,16980,-84,572,-1.00,-1.0
2609,16940,-88,568,-1.00,-1.0
2611,16956,-132,604,-1.00,-1.0
2615,17044,-20,612,-1.00,-1.0
2617,16928,-12,488,-1.00,-1.0
2619,17060,-48,424,-1.00,-1.0
2621,17012,-12,668,-1.00,-1.0
2622,16996,-4,584,-1.00,-1.0
2624,17004,-60,644,-1.00,-1.0
2626,16984,-68,776,-1.00,-1.0
2628,17008,-148,588,-1.00,-1.0
2630,16964,-196,576,-1.00,-1.0
2632,17088,-16,512,-1.00,-1.0
2634,16984,60,536,-1.00,-1.0
2636,16908,12,528,-1.00,-1.0
2638,17044,-44,628,-1.00,-1.0
2640,16972,-80,592,-1.00,-1.0
2642,17104,-76,600,-1.00,-1.0
2644,17096,0,596,-1.00,-1.0
2646,17104,8,504,-1.00,-1.0
2648,17020,-16,640,-1.00,-1.0
2652,16972,-40,764,-1.00,-1.0
2654,16940,-20,652,-1.00,-1.0
2656,17064,4,656,-1.00,-1.0
2658,17036,-24,680,-1.00,-1.0
2660,17032,-32,496,-1.00,-1.0
2662,16932,8,636,-1.00,-1.0
2664,16956,-32,616,-1.00,-1.0
2666,17008,24,616,-1.00,-1.0
2668,17012,8,672,-1.00,-1.0
2670,16972,-48,736,-1.00,-1.0
2672,17016,-36,724,-1.00,-1.0
2674,17012,-8,568,-1.00,-1.0
2675,16932,-40,684,-1.00,-1.0
2677,16964,-148,844,-1.00,-1.0
2679,17032,-12,572,-1.00,-1.0
2681,17044,-72,536,-1.00,-1.0
2683,17036,-12,432,-1.00,-1.0
2687,17000,24,584,-1.00,-1.0
2689,17020,-64,664,-1.00,-1.0
2691,16988,76,564,-1.00,-1.0
2693,16940,-44,600,-1.00,-1.0
2695,16992,-164,624,-1.00,-1.0
2697,16924,-108,636,-1.00,-1.0
2699,17028,-64,612,-1.00,-1.0
2701,17024,-12,620,-1.00,-1.0
2703,17016,0,564,-1.00,-1.0
2705,16920,-112,604,-1.00,-1.0
2707,17020,-20,624,-1.00,-1.0
2709,16964,-40,616,-1.00,-1.0
2711,17004,24,652,-1.00,-1.0
2713,17080,-44,580,-1.00,-1.0
2715,16924,-44,416,-1.00,-1.0
2717,16992,-76,532,-1.00,-1.0
2718,16912,-72,616,-1.00,-1.0
2723,16936,-56,628,-1.00,-1.0
2725,17056,-28,484,-1.00,-1.0
2727,17012,28,596,-1.00,-1.0
2728,16944,-8,596,-1.00,-1.0
2730,16940,-16,668,-1.00,-1.0
2732,17020,76,796,-1.00,-1.0
2734,17036,-88,552,-1.00,-1.0
2736,16992,-16,620,-1.00,-1.0
2738,17048,-96,532,-1.00,-1.0
2740,16912,16,492,-1.00,-1.0
2742,16928,8,608,-1.00,-1.0
2744,16964,-28,624,-1.00,-1.0
2746,17036,-60,552,-1.00,-1.0
2748,17064,-52,672,-1.00,-1.0
2750,16964,48,684,-1.00,-1.0
2752,17060,-60,624,-1.00,-1.0
2754,16960,-4,464,-1.00,-1.0
2758,17068,-96,456,-1.00,-1.0
2760,16984,-12,688,-1.00,-1.0
2762,17044,-148,696,-1.00,-1.0
2764,17080,-108,700,-1.00,-1.0
2766,16960,-80,608,-1.00,-1.0
2768,17044,-20,552,-1.00,-1.0
2770,16948,-112,600,-1.00,-1.0
2771,17000,-112,672,-1.00,-1.0
2773,17016,40,572,-1.00,-1.0
2775,17088,-36,720,-1.00,-1.0
2777,16992,-60,624,-1.00,-1.0
2779,16976,-104,564,-1.00,-1.0
2781,17004,20,448,-1.00,-1.0
2783,16972,-68,516,-1.00,-1.0
2785,17044,-32,764,-1.00,-1.0
2787,17000,12,528,-1.00,-1.0
2789,16980,-160,820,-1.00,-1.0
2793,17136,-80,668,-1.00,-1.0
2795,16952,24,484,-1.00,-1.0
2797,16920,-28,628,-1.00,-1.0
2799,17008,-8,640,-1.00,-1.0
2801,16960,76,604,-1.00,-1.0
2803,17040,-88,592,-1.00,-1.0
2805,17028,-124,776,-1.00,-1.0
2807,16936,-96,672,-1.00,-1.0
2809,16904,-120,544,-1.00,-1.0
2811,17024,-8,592,-1.00,-1.0
2813,17104,-20,708,-1.00,-1.0
2814,16984,-32,580,-1.00,-1.0
2816,16852,-48,632,-1.00,-1.0
2818,16980,72,604,-1.00,-1.0
2820,16844,-40,628,-1.00,-1.0
2822,17044,-76,740,-1.00,-1.0
2824,17096,60,544,-1.00,-1.0
2828,16972,-44,524,-1.00,-1.0
2830,16980,-60,592,-1.00,-1.0
2832,17020,0,604,-1.00,-1.0
2834,16912,-36,632,-1.00,-1.0
2836,16980,-164,652,-1.00,-1.0
2838,16940,-44,544,-1.00,-1.0
2840,17064,20,628,-1.00,-1.0
2842,17012,12,460,-1.00,-1.0
2844,16900,44,584,-1.00,-1.0
2846,17044,-52,620,-1.00,-1.0
2848,16960,56,744,-1.00,-1.0
2850,17012,36,540,-1.00,-1.0
2851,16976,-56,456,-1.00,-1.0
2853,17068,-100,556,-1.00,-1.0
2855,17072,-88,524,-1.00,-1.0
2857,17000,-160,612,-1.00,-1.0
2859,17028,56,668,-1.00,-1.0
2861,16940,20,552,-1.00,-1.0
2865,17016,-44,740,-1.00,-1.0
2867,17104,-44,552,-1.00,-1.0
2869,17000,40,520,-1.00,-1.0
2871,17044,-68,564,-1.00,-1.0
2873,16884,4,724,-1.00,-1.0
2875,17084,-32,736,-1.00,-1.0
2877,17032,88,620,-1.00,-1.0
2879,16960,-44,536,-1.00,-1.0
2881,17044,-80,548,-1.00,-1.0
2883,17076,48,556,-1.00,-1.0
2885,17020,-32,704,-1.00,-1.0
2886,17036,-36,632,-1.00,-1.0
2888,16984,-140,512,-1.00,-1.0
2890,16900,-12,368,-1.00,-1.0
2892,16924,-76,528,-1.00,-1.0
2894,17180,-12,648,-1.00,-1.0
2896,17040,20,864,-1.00,-1.0
2900,16912,-28,476,-1.00,-1.0
2902,16892,56,400,-1.00,-1.0
2904,17008,-72,600,-1.00,-1.0
2906,17120,-100,792,-1.00,-1.0
2908,16988,-140,748,-1.00,-1.0
2910,16932,-16,448,-1.00,-1.0
2912,17080,-12,652,-1.00,-1.0
2914,17076,-120,660,-1.00,-1.0
2916,16948,96,516,-1.00,-1.0
2918,16864,-48,436,-1.00,-1.0
2920,17272,-692,1792,-1.00,-1.0
2922,15732,1448,-2156,-1.00,-1.0
2924,15720,2276,-7352,-1.00,-1.0
2926,21688,-3856,13276,-1.00,-1.0
2928,14728,1464,-5340,-1.00,-1.0
2929,15104,1240,-648,-1.00,-1.0
2934,9416,9532,-17928,-1.00,-1.0
2936,15232,1856,2096,-1.00,-1.0
2938,24008,-4928,15876,-1.00,-1.0
2939,16148,5144,-2740,-1.00,-1.0
2942,15432,1388,-8848,-1.00,-1.0
2944,19504,-1376,13804,-1.00,-1.0
2945,14484,-212,-9432,-1.00,-1.0
2947,15620,6756,-6356,-1.00,-1.0
2949,21768,-7788,16912,-1.00,-1.0
2951,15132,508,-6688,-1.00,-1.0
2953,13488,4124,-9000,-1.00,-1.0
2955,21708,-8088,9784,-1.00,-1.0
2957,15548,2900,1356,-1.00,-1.0
2959,14004,-72,-8568,-1.00,-1.0
2961,21748,-3920,15112,-1.00,-1.0
2963,13148,6292,-5488,-1.00,-1.0
2967,19420,-3044,9024,-1.00,-1.0
2969,17820,-2232,236,-1.00,-1.0
2971,14744,5244,-4688,-1.00,-1.0
2973,18048,-1980,4744,-1.00,-1.0
2975,14768,3384,-8120,-1.00,-1.0
2977,17620,284,3208,-1.00,-1.0
2979,18996,-2712,3612,-1.00,-1.0
2981,16260,2068,-840,-1.00,-1.0
2983,16004,120,-436,-1.00,-1.0
2985,17176,-420,2164,-1.00,-1.0
2987,16608,-492,680,-1.00,-1.0
2988,17076,-40,1068,-1.00,-1.0
2991,16876,436,408,-1.00,-1.0
2993,15920,768,-3200,-1.00,-1.0
2994,17448,-348,3000,-1.00,-1.0
2996,17304,172,-508,-1.00,-1.0
3001,19308,-3112,6516,-1.00,-1.0
3003,16844,52,1256,-1.00,-1.0
3004,14476,2004,-3036,-1.00,-1.0
3006,18708,-2664,5560,-1.00,-1.0
3008,16636,1080,1440,-1.00,-1.0
3010,14456,2120,-8772,-1.00,-1.0
3012,19744,-2124,8168,-1.00,-1.0
3014,18284,-2524,6244,-1.00,-1.0
3016,13704,3748,-8608,-1.00,-1.0
3018,18220,-2552,7588,-1.00,-1.0
3020,16596,-732,-1084,-1.00,-1.0
3022,19104,804,5420,-1.00,-1.0
3024,17324,-112,-7760,-1.00,-1.0
3026,13672,4264,-5176,-1.00,-1.0
3028,15128,1188,856,-1.00,-1.0
3030,19100,-3832,2392,-1.00,-1.0
3034,14776,3936,-7080,-1.00,-1.0
3036,21396,-3496,18012,-1.00,-1.0
3038,17600,-5172,5532,-1.00,-1.0
3040,12664,4716,-7736,-1.00,-1.0
3042,18116,-5712,6576,-1.00,-1.0
3044,17704,-1208,-1796,-1.00,-1.0
3046,15636,5028,-4768,-1.00,-1.0
3048,17316,708,-10936,-1.00,-1.0
3050,19396,1460,10128,-1.00,-1.0
3052,16376,-2012,-10712,-1.00,-1.0
3053,18356,3640,8160,-1.00,-1.0
3055,18428,-4420,6008,-1.00,-1.0
3057,15276,3360,-2712,-1.00,-1.0
3059,16208,-1892,2972,-1.00,-1.0
3061,17644,-384,-3228,-1.00,-1.0
3065,17536,-2376,-3728,-1.00,-1.0
3067,17716,752,6544,-1.00,-1.0
3069,15400,-1180,-6144,-1.00,-1.0
3071,13712,5884,-7724,-1.00,-1.0
3073,20728,-6828,12672,-1.00,-1.0
3075,19132,-168,5552,-1.00,-1.0
3077,14276,3072,-1232,-1.00,-1.0
3079,15824,-1036,-4180,-1.00,-1.0
3081,17412,792,6908,-1.00,-1.0
3083,13308,2340,-18452,-1.00,-1.0
3085,19708,2612,7256,-1.00,-1.0
3087,12788,2344,-3600,-1.00,-1.0
3089,13652,4632,-2928,-1.00,-1.0
3091,21432,-232,11876,-1.00,-1.0
3093,15156,576,-15716,-1.00,-1.0
3095,14240,5552,-1528,-1.00,-1.0
3099,19632,-940,14416,-1.00,-1.0
3101,16836,-5492,1844,-1.00,-1.0
3103,16176,-364,5000,-1.00,-1.0
3105,18088,-7196,8332,-1.00,-1.0
3107,14016,4692,-11656,-1.00,-1.0
3109,16092,3960,-2532,-1.00,-1.0
3110,19748,-3108,-4120,-1.00,-1.0
3112,17752,4716,7824,-1.00,-1.0
3114,14016,-944,-14940,-1.00,-1.0
3116,18940,300,15704,-1.00,-1.0
3118,18184,-8100,6928,-1.00,-1.0
3120,15264,4652,12,-1.00,-1.0
3122,17148,-3672,1748,-1.00,-1.0
3124,17284,824,-6336,-1.00,-1.0
3126,18536,2108,5724,-1.00,-1.0
3130,19084,6720,9080,-1.00,-1.0
3132,19360,-6268,-680,-1.00,-1.0
3134,13336,8416,-1220,-1.00,-1.0
3136,21364,-3808,14416,-1.00,-1.0
3138,13884,1192,-17720,-1.00,-1.0
3140,15584,7820,1060,-1.00,-1.0
3142,19556,-7456,-592,-1.00,-1.0
3144,16592,5816,6108,-1.00,-1.0
3146,15108,-2008,-7528,-1.00,-1.0
3148,18164,1524,8932,-1.00,-1.0
3149,17844,-2872,9540,-1.00,-1.0
3151,14972,2604,-9780,-1.00,-1.0
3153,17856,-700,8156,-1.00,-1.0
3155,19432,-5648,-2348,-1.00,-1.0
3157,18024,5020,5528,-1.00,-1.0
3159,12912,1124,-20152,-1.00,-1.0
3163,18340,-3420,-4528,-1.00,-1.0
3165,15692,6996,-236,-1.00,-1.0
3167,19880,-3704,9976,-1.00,-1.0
3169,18584,-816,2728,-1.00,-1.0
3171,14356,1224,-424,-1.00,-1.0
3173,17292,-4668,-3980,-1.00,-1.0
3175,21260,-2536,16360,-1.00,-1.0
3177,14784,-6224,-7612,-1.00,-1.0
3179,13700,5800,-212,-1.00,-1.0
3181,18348,-8188,1972,-1.00,-1.0
3183,15036,2744,-1556,-1.00,-1.0
3185,20504,-236,17740,-1.00,-1.0
3187,15580,-4628,-5896,-1.00,-1.0
3189,12472,10452,-9348,-1.00,-1.0
3191,17712,-4260,-4696,-1.00,-1.0
3195,18960,-6824,-240,-1.00,-1.0
3197,17188,6272,2956,-1.00,-1.0
3199,16496,-3428,-7384,-1.00,-1.0
3201,18728,1300,13516,-1.00,-1.0
3203,14460,-2196,-6680,-1.00,-1.0
3205,13656,3152,-3056,-1.00,-1.0
3207,20656,-5620,16724,-1.00,-1.0
3209,13840,-884,-14544,-1.00,-1.0
3211,18116,1972,9908,-1.00,-1.0
3213,18660,-6764,2456,-1.00,-1.0
3215,15416,2156,2880,-1.00,-1.0
3217,17344,-2780,632,-1.00,-1.0
3219,19936,-1948,8720,-1.00,-1.0
3221,16240,12,1836,-1.00,-1.0
3222,15084,3244,-11960,-1.00,-1.0
3224,21292,-900,14716,-1.00,-1.0
3229,13312,9024,-1556,-1.00,-1.0
3231,17272,-6704,-1376,-1.00,-1.0
3232,18576,1048,9408,-1.00,-1.0
3234,16920,-4136,1192,-1.00,-1.0
3236,15496,2692,-1808,-1.00,-1.0
3238,19284,-3268,14940,-1.00,-1.0
3240,15596,1444,-10592,-1.00,-1.0
3242,16156,6460,-412,-1.00,-1.0
3244,19248,-6444,-4216,-1.00,-1.0
3246,18200,5480,8548,-1.00,-1.0
3248,13312,156,-16996,-1.00,-1.0
3250,17800,1696,11848,-1.00,-1.0
3252,20136,-10276,9596,-1.00,-1.0
3254,11668,8748,-11128,-1.00,-1.0
3256,16936,680,10116,-1.00,-1.0
3260,16392,8040,2488,-1.00,-1.0
3262,17108,-5404,-14424,-1.00,-1.0
3264,20984,-716,16460,-1.00,-1.0
3266,13676,-7236,-11268,-1.00,-1.0
3268,12048,8628,1048,-1.00,-1.0
3270,17960,-6536,1648,-1.00,-1.0
3272,12132,1428,-25760,-1.00,-1.0
3274,15852,8212,6784,-1.00,-1.0
3276,17648,-7224,-8748,-1.00,-1.0
3278,18404,7356,12440,-1.00,-1.0
3279,17556,-4344,-644,-1.00,-1.0
3281,13984,1724,-1596,-1.00,-1.0
3283,16600,-2736,4884,-1.00,-1.0
3285,15404,3420,-12984,-1.00,-1.0
3287,19428,2404,9480,-1.00,-1.0
3289,20160,-5480,-3784,-1.00,-1.0
3293,15548,-5760,-12336,-1.00,-1.0
3295,18956,3336,15620,-1.00,-1.0
3297,14476,-596,-9592,-1.00,-1.0
3299,16948,1620,3952,-1.00,-1.0
3301,20780,-6184,14296,-1.00,-1.0
3303,14044,1196,-9412,-1.00,-1.0
3305,16076,1368,3128,-1.00,-1.0
3307,18464,-3780,-7012,-1.00,-1.0
3309,19880,2512,13776,-1.00,-1.0
3311,15288,-2676,-19992,-1.00,-1.0
3313,20060,4720,20148,-1.00,-1.0
3315,17512,-8856,-2296,-1.00,-1.0
3317,12736,6960,-1788,-1.00,-1.0
3319,18688,-5800,11112,-1.00,-1.0
3321,18052,-3096,1732,-1.00,-1.0
3325,14920,-508,-8624,-1.00,-1.0
3327,15364,1972,4080,-1.00,-1.0
3329,13884,-1664,-13992,-1.00,-1.0
3331,18228,3440,12068,-1.00,-1.0
3333,18632,-9424,-1632,-1.00,-1.0
3335,15596,4596,6972,-1.00,-1.0
3337,19360,2980,9224,-1.00,-1.0
3338,18560,-2788,-8804,-1.00,-1.0
3341,17176,5696,7096,-1.00,-1.0
3342,13708,-6960,-12744,-1.00,-1.0
3344,16628,4100,11780,-1.00,-1.0
3346,16876,-6400,624,-1.00,-1.0
3348,15756,4296,3064,-1.00,-1.0
3350,20400,-5032,12704,-1.00,-1.0
3352,14972,784,-14388,-1.00,-1.0
3354,15244,4828,2496,-1.00,-1.0
3359,18368,-4936,8516,-1.00,-1.0
3361,17456,-1880,-7440,-1.00,-1.0
3363,16784,4660,3664,-1.00,-1.0
3365,19616,-9736,5808,-1.00,-1.0
3367,21620,2816,22840,-1.00,-1.0
3369,17788,-156,7616,-1.00,-1.0
3370,19808,-1560,-5056,-1.00,-1.0
3373,17608,8412,7680,-1.00,-1.0
3375,16928,-5780,-17308,-1.00,-1.0
3376,20148,3368,18092,-1.00,-1.0
3378,16824,-14720,512,-1.00,-1.0
3380,11232,7364,3444,-1.00,-1.0
3382,15124,-7392,-720,-1.00,-1.0
3384,17812,-4228,7456,-1.00,-1.0
3386,16944,76,6148,-1.00,-1.0
3390,19924,4956,14612,-1.00,-1.0
3392,17604,-8516,-13828,-1.00,-1.0
3394,16584,10032,7904,-1.00,-1.0
3396,18840,-14516,2632,-1.00,-1.0
3398,16216,796,13656,-1.00,-1.0
3400,9396,-1288,-8992,-1.00,-1.0
3402,12184,3436,-11544,-1.00,-1.0
3404,23284,-976,23496,-1.00,-1.0
3406,13780,-2244,-31400,-1.00,-1.0
3408,19396,11264,19480,-1.00,-1.0
3410,21392,-10152,-7536,-1.00,-1.0
3411,14704,-2036,-5732,-1.00,-1.0
3414,21476,-3400,23432,-1.00,-1.0
3416,11868,-1808,-27468,-1.00,-1.0
3417,15968,10372,4980,-1.00,-1.0
3422,20020,3416,18792,-1.00,-1.0
3424,18272,-2200,-26872,-1.00,-1.0
3426,14108,1084,16256,-1.00,-1.0
3427,13776,-1720,-592,-1.00,-1.0
3429,14132,108,-12636,-1.00,-1.0
3431,22760,356,21532,-1.00,-1.0
3433,15288,-40,-28884,-1.00,-1.0
3435,18108,9984,9516,-1.00,-1.0
3437,17184,-7800,-17040,-1.00,-1.0
3439,20000,8428,19372,-1.00,-1.0
3441,16184,-6112,-7472,-1.00,-1.0
3443,17148,2816,16396,-1.00,-1.0
3445,16856,-2712,5220,-1.00,-1.0
3447,12468,3020,-17920,-1.00,-1.0
3449,20556,2308,14620,-1.00,-1.0
3451,18976,-6348,-16808,-1.00,-1.0
3455,16016,-9780,-13332,-1.00,-1.0
3457,18396,5452,22268,-1.00,-1.0
3459,15612,-10300,-2728,-1.00,-1.0
3461,12420,6032,840,-1.00,-1.0
3463,18484,-704,13244,-1.00,-1.0
3465,16252,-1292,-18440,-1.00,-1.0
3467,18032,7648,10372,-1.00,-1.0
3469,18464,-8180,-14560,-1.00,-1.0
3471,20656,7536,20492,-1.00,-1.0
3473,13524,-9048,-16916,-1.00,-1.0
3475,17876,-2776,-14672,-1.00,-1.0
3477,17112,-6788,-1036,-1.00,-1.0
3479,13004,4912,-11568,-1.00,-1.0
3480,18128,9996,17524,-1.00,-1.0
3482,14792,-11408,-9728,-1.00,-1.0
3487,17596,-10992,-12064,-1.00,-1.0
3489,18064,8464,13788,-1.00,-1.0
3490,17400,4296,7748,-1.00,-1.0
3492,19584,-8272,-9856,-1.00,-1.0
3494,22428,6688,22380,-1.00,-1.0
3496,13216,-7708,-21452,-1.00,-1.0
3498,17480,8864,17408,-1.00,-1.0
3500,20004,-12144,6452,-1.00,-1.0
3502,14812,4080,-1104,-1.00,-1.0
3504,17304,3888,5896,-1.00,-1.0
3506,17384,-6480,-8436,-1.00,-1.0
3508,16980,6284,10756,-1.00,-1.0
3510,15864,-9668,-16160,-1.00,-1.0
3512,21268,2560,26416,-1.00,-1.0
3514,15092,-14504,-5176,-1.00,-1.0
3518,17712,-4228,6108,-1.00,-1.0
3520,13872,1132,-18772,-1.00,-1.0
3522,20944,8164,17408,-1.00,-1.0
3524,21596,-8440,-7040,-1.00,-1.0
3526,17284,11464,8508,-1.00,-1.0
3528,13256,-5156,-19288,-1.00,-1.0
3530,19124,5388,14912,-1.00,-1.0
3532,19732,-9648,5640,-1.00,-1.0
3534,12948,9236,-9528,-1.00,-1.0
3536,17260,2292,10516,-1.00,-1.0
3538,15952,-340,-18540,-1.00,-1.0
3540,19872,9768,10872,-1.00,-1.0
3542,20636,-11412,-5904,-1.00,-1.0
3544,16712,10028,8904,-1.00,-1.0
3545,14244,-8640,-10804,-1.00,-1.0
3550,16288,-6188,-4776,-1.00,-1.0
3552,14188,544,-3804,-1.00,-1.0
3554,19916,-2584,14740,-1.00,-1.0
3555,13600,-1456,-20080,-1.00,-1.0
3558,18772,5060,17528,-1.00,-1.0
3560,19764,-15068,-4968,-1.00,-1.0
3561,14152,3772,-13636,-1.00,-1.0
3563,21852,1884,16104,-1.00,-1.0
3565,18368,-7640,-10160,-1.00,-1.0
3567,16048,11808,5848,-1.00,-1.0
3569,16684,-13148,-8576,-1.00,-1.0
3571,18748,3256,20536,-1.00,-1.0
3573,14376,-4448,-11520,-1.00,-1.0
3575,13300,8376,-13044,-1.00,-1.0
3577,20844,1620,16664,-1.00,-1.0
3581,20856,10916,18232,-1.00,-1.0
3583,18912,-15656,-2408,-1.00,-1.0
3585,11312,11372,2424,-1.00,-1.0
3587,15484,-8120,-4864,-1.00,-1.0
3589,20380,-812,7880,-1.00,-1.0
3591,15864,2156,2184,-1.00,-1.0
3593,15072,1492,-21268,-1.00,-1.0
3595,26396,2476,32767,-1.00,-1.0
3597,15560,-14120,-18852,-1.00,-1.0
3599,13148,15472,11672,-1.00,-1.0
3601,18948,-10560,-1120,-1.00,-1.0
3603,16348,4044,-532,-1.00,-1.0
3605,16152,1040,368,-1.00,-1.0
3607,18636,-640,-8772,-1.00,-1.0
3609,21900,3312,23076,-1.00,-1.0
3610,9916,-2024,-32768,-1.00,-1.0
3615,20208,-15068,-4072,-1.00,-1.0
3617,13196,10944,1496,-1.00,-1.0
3618,17680,-3824,4072,-1.00,-1.0
3620,14016,-7436,-23052,-1.00,-1.0
3622,17404,3408,9440,-1.00,-1.0
3624,18340,-10120,-2812,-1.00,-1.0
3626,15340,10640,-6964,-1.00,-1.0
3628,18932,1452,8956,-1.00,-1.0
3630,23744,-8908,9788,-1.00,-1.0
3632,19728,9724,14444,-1.00,-1.0
3634,11828,-6316,-27300,-1.00,-1.0
3636,18516,5548,18776,-1.00,-1.0
3638,16984,-8552,-8992,-1.00,-1.0
3640,15548,6404,1428,-1.00,-1.0
3642,21740,-11300,20980,-1.00,-1.0
3646,13452,9116,5680,-1.00,-1.0
3648,15628,-6760,-15164,-1.00,-1.0
3650,20116,9732,18044,-1.00,-1.0
3652,20076,-9080,-14592,-1.00,-1.0
3654,15680,8608,5428,-1.00,-1.0
3656,16872,-5664,2356,-1.00,-1.0
3658,16352,3000,-1860,-1.00,-1.0
3659,17316,6440,10316,-1.00,-1.0
3661,14160,-3016,-20556,-1.00,-1.0
3663,18800,8464,18988,-1.00,-1.0
3665,17104,-2468,5624,-1.00,-1.0
3667,15820,-2024,-512,-1.00,-1.0
3669,18516,8224,15276,-1.00,-1.0
3671,10488,1788,-32768,-1.00,-1.0
3673,20072,10568,21220,-1.00,-1.0
3677,16816,10972,7164,-1.00,-1.0
3679,16968,-4820,2236,-1.00,-1.0
3681,17212,-3936,540,-1.00,-1.0
3683,14860,5492,4700,-1.00,-1.0
3685,12436,-2248,-28512,-1.00,-1.0
3687,21192,8768,25956,-1.00,-1.0
3689,20380,-15248,-9356,-1.00,-1.0
3691,16260,8980,8964,-1.00,-1.0
3693,17940,-10148,6376,-1.00,-1.0
3695,14596,-1096,-1908,-1.00,-1.0
3697,16732,6976,8928,-1.00,-1.0
3699,16680,-7888,-12584,-1.00,-1.0
3701,15732,10800,10012,-1.00,-1.0
3703,17164,-8220,-23428,-1.00,-1.0
3705,22800,5028,20012,-1.00,-1.0
3706,16608,-5832,-4024,-1.00,-1.0
3711,24148,524,26708,-1.00,-1.0
3713,10172,-748,-32768,-1.00,-1.0
3715,16212,17348,18716,-1.00,-1.0
3717,27024,-15732,4488,-1.00,-1.0
3719,15996,15412,684,-1.00,-1.0
3721,16148,-6936,-488,-1.00,-1.0
3722,17676,-2136,6972,-1.00,-1.0
3725,14888,7456,984,-1.00,-1.0
3727,11744,592,-32768,-1.00,-1.0
3728,22780,8480,30984,-1.00,-1.0
3730,13128,304,1708,-1.00,-1.0
3732,16480,9004,16956,-1.00,-1.0
3734,17876,-13028,3924,-1.00,-1.0
3736,18140,-8056,-24108,-1.00,-1.0
3738,21664,9428,25724,-1.00,-1.0
3743,21796,9632,24928,-1.00,-1.0
3745,18400,-14860,-13336,-1.00,-1.0
3746,14444,12644,9216,-1.00,-1.0
3748,19420,-14612,5004,-1.00,-1.0
3750,13692,152,1068,-1.00,-1.0
3752,13228,7680,988,-1.00,-1.0
3754,21188,-18520,2740,-1.00,-1.0
3756,13240,10044,5384,-1.00,-1.0
3758,14232,-3324,-3024,-1.00,-1.0
3760,15124,-4092,-3348,-1.00,-1.0
3762,16872,6164,10220,-1.00,-1.0
3764,14656,-2232,-31624,-1.00,-1.0
3766,24016,7708,29440,-1.00,-1.0
3768,21824,-19568,-1020,-1.00,-1.0
3770,12668,13568,2496,-1.00,-1.0
3774,15092,2204,-12660,-1.00,-1.0
3776,16356,11008,9968,-1.00,-1.0
3778,17072,-5852,-21740,-1.00,-1.0
3780,22608,5048,31936,-1.00,-1.0
3782,15536,-16444,-16872,-1.00,-1.0
3784,13608,9192,16012,-1.00,-1.0
3786,16828,-11988,4148,-1.00,-1.0
3788,8152,9220,-24340,-1.00,-1.0
3790,18616,4840,17096,-1.00,-1.0
3792,21860,-14496,-5980,-1.00,-1.0
3794,18744,14584,19692,-1.00,-1.0
3795,19204,-18960,-8988,-1.00,-1.0
3797,15296,6956,7304,-1.00,-1.0
3799,11016,-3108,-11276,-1.00,-1.0
3801,11548,9080,-26988,-1.00,-1.0
3806,20320,-17164,-11232,-1.00,-1.0
3808,17740,16212,21152,-1.00,-1.0
3809,17468,-19000,-3524,-1.00,-1.0
3811,13800,7844,-728,-1.00,-1.0
3813,15496,1688,-3044,-1.00,-1.0
3815,17540,-3880,-6796,-1.00,-1.0
3817,15188,10936,8644,-1.00,-1.0
3819,18476,-12136,3984,-1.00,-1.0
3821,6252,19852,-32768,-1.00,-1.0
3823,18716,11276,19784,-1.00,-1.0
3825,28700,-18444,8792,-1.00,-1.0
3827,15340,20488,8404,-1.00,-1.0
3829,14568,-14156,-18368,-1.00,-1.0
3831,16016,5032,8520,-1.00,-1.0
3833,14008,-2564,-5380,-1.00,-1.0
3835,16208,-624,-8060,-1.00,-1.0
3839,14004,-10480,-18064,-1.00,-1.0
3841,19268,10708,17612,-1.00,-1.0
3843,19692,-17780,4952,-1.00,-1.0
3845,9712,17288,-17544,-1.00,-1.0
3847,16220,4412,1904,-1.00,-1.0
3849,18520,-5076,-6880,-1.00,-1.0
3851,18544,11468,16808,-1.00,-1.0
3853,17404,-11620,-13916,-1.00,-1.0
3855,19312,5672,20300,-1.00,-1.0
3857,15928,-15268,-7088,-1.00,-1.0
3858,11648,10320,-8812,-1.00,-1.0
3861,16400,-316,-348,-1.00,-1.0
3862,18448,-8112,2636,-1.00,-1.0
3864,18924,10156,17904,-1.00,-1.0
3866,14636,-9796,-21672,-1.00,-1.0
3870,16148,-8596,-10308,-1.00,-1.0
3872,12732,14252,-12432,-1.00,-1.0
3874,22428,-1636,17628,-1.00,-1.0
3876,19788,-8996,-7316,-1.00,-1.0
3878,15872,11536,12404,-1.00,-1.0
3880,19292,-5860,11912,-1.00,-1.0
3882,17936,-1140,-7692,-1.00,-1.0
3884,19764,8480,15636,-1.00,-1.0
3886,19780,-19240,112,-1.00,-1.0
3888,12908,10896,-1448,-1.00,-1.0
3890,12884,-5716,-6464,-1.00,-1.0
3892,19584,3496,11508,-1.00,-1.0
3894,20936,4788,8184,-1.00,-1.0
3896,16420,-5004,-8300,-1.00,-1.0
3898,16808,6072,5600,-1.00,-1.0
3902,15852,10732,5568,-1.00,-1.0
3904,16904,-7372,1032,-1.00,-1.0
3905,12520,7272,-9484,-1.00,-1.0
3907,19848,756,17636,-1.00,-1.0
3909,19068,-9452,-6600,-1.00,-1.0
3911,20524,9112,24372,-1.00,-1.0
3913,15412,-7160,-23540,-1.00,-1.0
3915,15232,4348,3680,-1.00,-1.0
3917,14344,-4436,-3240,-1.00,-1.0
3919,20136,-1416,-5508,-1.00,-1.0
3921,9044,22436,-23608,-1.00,-1.0
3923,14508,452,-2280,-1.00,-1.0
3925,19836,372,-5852,-1.00,-1.0
3927,23712,8016,25672,-1.00,-1.0
3929,16704,-11608,-10556,-1.00,-1.0
3933,15088,-11660,-7672,-1.00,-1.0
3935,13432,6848,-5004,-1.00,-1.0
3937,13996,416,-3868,-1.00,-1.0
3939,24012,-9568,372,-1.00,-1.0
3941,23828,-348,30204,-1.00,-1.0
3943,6740,-7560,-30516,-1.00,-1.0
3945,13084,11116,8280,-1.00,-1.0
3947,24436,-12608,16684,-1.00,-1.0
3949,8696,7724,-31388,-1.00,-1.0
3951,19064,5380,23052,-1.00,-1.0
3953,26288,-19424,12876,-1.00,-1.0
3955,12056,15024,-1992,-1.00,-1.0
3957,15572,-11564,-7280,-1.00,-1.0
3959,17472,1488,6448,-1.00,-1.0
3960,14016,3496,-1584,-1.00,-1.0
3962,17060,-4924,-13244,-1.00,-1.0
3967,16224,-15704,-13288,-1.00,-1.0
3969,10152,13528,224,-1.00,-1.0
3970,15904,-12176,3208,-1.00,-1.0
3973,14016,8220,-11104,-1.00,-1.0
3975,18560,5920,11072,-1.00,-1.0
3976,19980,-9824,-9648,-1.00,-1.0
3978,19668,8088,18944,-1.00,-1.0
3980,18304,-15436,-9208,-1.00,-1.0
3982,16140,9568,9960,-1.00,-1.0
3984,14064,-8108,-3256,-1.00,-1.0
3986,13272,4052,-15256,-1.00,-1.0
3988,21220,-1124,24592,-1.00,-1.0
3990,16496,-13452,-15196,-1.00,-1.0
3992,18832,5224,6572,-1.00,-1.0
3994,22216,3296,14952,-1.00,-1.0
3998,16924,-4700,5020,-1.00,-1.0
4000,13696,2696,-18976,-1.00,-1.0
4002,15844,14192,1764,-1.00,-1.0
4004,11256,-2640,-10172,-1.00,-1.0
4006,20096,-1832,2172,-1.00,-1.0
4008,25152,-2572,32492,-1.00,-1.0
4010,10976,-10092,-27744,-1.00,-1.0
4012,14976,9716,18456,-1.00,-1.0
4014,19956,-12876,-920,-1.00,-1.0
4016,16772,7488,-4760,-1.00,-1.0
4018,16920,-3680,7844,-1.00,-1.0
4020,14536,556,-17092,-1.00,-1.0
4022,19800,4476,21000,-1.00,-1.0
4024,19592,-15300,-7132,-1.00,-1.0
4025,11228,18336,-5564,-1.00,-1.0
4030,18640,-1180,4516,-1.00,-1.0
4032,20980,3872,21692,-1.00,-1.0
4034,17228,-5640,-12480,-1.00,-1.0
4035,16968,4864,11008,-1.00,-1.0
4037,13460,-5356,-16508,-1.00,-1.0
4039,12476,22844,-30900,-1.00,-1.0
4041,24324,564,17808,-1.00,-1.0
4043,23772,-9204,4632,-1.00,-1.0
4045,19832,12000,26032,-1.00,-1.0
4047,12092,-6672,-19632,-1.00,-1.0
4049,10760,12788,-7240,-1.00,-1.0
4051,19292,-4800,2196,-1.00,-1.0
4053,20588,516,1072,-1.00,-1.0
4055,19160,4132,13536,-1.00,-1.0
4057,15284,-10388,-5960,-1.00,-1.0
4061,7364,-1952,-21884,-1.00,-1.0
4063,22728,2996,8912,-1.00,-1.0
4065,26748,-5088,30592,-1.00,-1.0
4067,15376,-3680,-15744,-1.00,-1.0
4069,17180,6444,-6336,-1.00,-1.0
4071,19972,1432,11596,-1.00,-1.0
4073,20832,-5500,3536,-1.00,-1.0
4075,18356,3972,19092,-1.00,-1.0
4077,15140,-10448,-17912,-1.00,-1.0
4079,16392,10760,7192,-1.00,-1.0
4081,13744,-5152,-11428,-1.00,-1.0
4083,16456,10124,-12520,-1.00,-1.0
4085,25340,-1748,29152,-1.00,-1.0
4087,18944,-16184,-2812,-1.00,-1.0
4089,10896,9808,10444,-1.00,-1.0
4093,14904,10808,-5784,-1.00,-1.0
4095,18860,-3508,8308,-1.00,-1.0
4097,19812,-6668,-776,-1.00,-1.0
4099,21088,1136,26720,-1.00,-1.0
4101,14520,-14096,-12356,-1.00,-1.0
4103,12280,13448,-240,-1.00,-1.0
4104,15516,-10432,-6116,-1.00,-1.0
4106,17000,1664,-6100,-1.00,-1.0
4108,22220,-1020,22316,-1.00,-1.0
4110,15928,-9736,-7872,-1.00,-1.0
4112,15096,7864,21616,-1.00,-1.0
4114,13080,-9872,-20212,-1.00,-1.0
4116,18260,5040,6436,-1.00,-1.0
4118,18332,-4652,1476,-1.00,-1.0
4120,17940,-3868,-2172,-1.00,-1.0
4124,11824,-10300,-17168,-1.00,-1.0
4126,9332,20812,-11972,-1.00,-1.0
4128,23584,-11824,11224,-1.00,-1.0
4130,8904,-3512,-31672,-1.00,-1.0
4132,18176,7520,19884,-1.00,-1.0
4134,19848,-11256,-2464,-1.00,-1.0
4136,16488,7188,-4704,-1.00,-1.0
4138,16160,-2272,3828,-1.00,-1.0
4140,18124,-6716,-3136,-1.00,-1.0
4142,15576,7004,10536,-1.00,-1.0
4144,9856,-2204,-20448,-1.00,-1.0
4146,14540,18044,-16936,-1.00,-1.0
4148,27012,-7544,23188,-1.00,-1.0
4150,18892,-6648,-440,-1.00,-1.0
4151,15564,8360,19072,-1.00,-1.0
4153,16068,-6896,-12616,-1.00,-1.0
4157,16956,-5852,-4932,-1.00,-1.0
4159,19256,4960,-3800,-1.00,-1.0
4161,21052,1388,15292,-1.00,-1.0
4163,17584,-7904,-10596,-1.00,-1.0
4165,15060,11964,9352,-1.00,-1.0
4167,12304,-5732,-17232,-1.00,-1.0
4169,18944,-9684,-3900,-1.00,-1.0
4171,23952,-2460,15160,-1.00,-1.0
4173,13372,-7256,-22236,-1.00,-1.0
4175,17088,6652,6672,-1.00,-1.0
4177,16908,-7380,-1292,-1.00,-1.0
4179,16544,3232,-10712,-1.00,-1.0
4181,21244,-3556,26304,-1.00,-1.0
4183,16756,-10332,-13300,-1.00,-1.0
4185,11232,19652,-5156,-1.00,-1.0
4189,18384,4212,2436,-1.00,-1.0
4191,20080,616,13776,-1.00,-1.0
4193,18212,-3168,-8380,-1.00,-1.0
4195,16008,4580,16836,-1.00,-1.0
4197,13876,-6908,-20868,-1.00,-1.0
4199,17896,13536,988,-1.00,-1.0
4201,21096,-9316,8048,-1.00,-1.0
4203,17608,2644,-1336,-1.00,-1.0
4205,17492,404,19700,-1.00,-1.0
4206,15324,-5404,-16100,-1.00,-1.0
4208,12888,17032,-7768,-1.00,-1.0
4210,18868,-9404,-1808,-1.00,-1.0
4212,19368,8708,-1428,-1.00,-1.0
4214,19524,-1432,13580,-1.00,-1.0
4216,17260,-3256,-7200,-1.00,-1.0
4220,15788,-9976,-9432,-1.00,-1.0
4222,17564,13272,-2704,-1.00,-1.0
4224,17124,-1836,-4888,-1.00,-1.0
4226,18240,2576,-4724,-1.00,-1.0
4228,21528,76,25324,-1.00,-1.0
4230,13624,-5324,-16344,-1.00,-1.0
4232,15832,14988,8348,-1.00,-1.0
4234,19612,-10652,-5852,-1.00,-1.0
4236,18500,5392,3308,-1.00,-1.0
4238,15532,152,-3832,-1.00,-1.0
4240,19972,-5416,6836,-1.00,-1.0
4242,17340,4140,16300,-1.00,-1.0
4244,8596,-1876,-27400,-1.00,-1.0
4246,19284,-2080,1520,-1.00,-1.0
4248,11960,9004,6252,-1.00,-1.0
4252,20988,-7144,25856,-1.00,-1.0
4254,13644,-2800,-11328,-1.00,-1.0
4256,14932,7048,9320,-1.00,-1.0
4258,18076,-8116,-12192,-1.00,-1.0
4260,16968,9880,-4916,-1.00,-1.0
4262,21096,-5312,5796,-1.00,-1.0
4264,13500,-8404,-6580,-1.00,-1.0
4266,15536,15148,-13612,-1.00,-1.0
4268,21288,-4504,2036,-1.00,-1.0
4270,21336,-1656,744,-1.00,-1.0
4272,19016,708,21792,-1.00,-1.0
4274,14828,-5464,-6932,-1.00,-1.0
4276,14368,10280,1772,-1.00,-1.0
4278,16104,-9828,-5896,-1.00,-1.0
4279,18864,4064,3844,-1.00,-1.0
4281,15984,284,-4948,-1.00,-1.0
4286,18932,-644,24652,-1.00,-1.0
4288,7684,-2844,-24412,-1.00,-1.0
4289,13828,12176,-4024,-1.00,-1.0
4292,22928,-7488,1284,-1.00,-1.0
4293,18172,2032,88,-1.00,-1.0
4295,18812,792,13764,-1.00,-1.0
4297,16068,-5216,-8924,-1.00,-1.0
4299,15532,4380,14444,-1.00,-1.0
4301,12540,-4004,-20852,-1.00,-1.0
4303,18740,9280,2740,-1.00,-1.0
4305,24220,-8808,12332,-1.00,-1.0
4307,13528,4096,-13404,-1.00,-1.0
4309,18700,-540,25872,-1.00,-1.0
4311,16184,-7596,-14640,-1.00,-1.0
4313,13488,12436,5620,-1.00,-1.0
4317,17704,7068,1580,-1.00,-1.0
4319,18068,-4020,8588,-1.00,-1.0
4321,18152,-1188,-5120,-1.00,-1.0
4323,15728,2876,19464,-1.00,-1.0
4325,13956,-6192,-14912,-1.00,-1.0
4327,12040,18096,-16032,-1.00,-1.0
4329,19028,-232,21644,-1.00,-1.0
4331,13588,-8220,-8904,-1.00,-1.0
4333,11700,11064,1284,-1.00,-1.0
4335,15356,-3376,-15120,-1.00,-1.0
4337,18540,5416,-2604,-1.00,-1.0
4339,22088,-660,12660,-1.00,-1.0
4341,17360,-1948,-11136,-1.00,-1.0
4343,18660,-1628,31608,-1.00,-1.0
4344,12800,-9400,-16420,-1.00,-1.0
4349,20924,-6260,1912,-1.00,-1.0
4351,18668,4704,-12660,-1.00,-1.0
4353,21868,4016,24144,-1.00,-1.0
4354,17028,-6212,-14368,-1.00,-1.0
4357,15176,6220,18972,-1.00,-1.0
4358,15564,-10796,-9184,-1.00,-1.0
4360,13348,16268,-12688,-1.00,-1.0
4362,19764,-5704,2088,-1.00,-1.0
4364,22300,-3536,-216,-1.00,-1.0
4366,17988,5680,15252,-1.00,-1.0
4368,17428,-13540,1956,-1.00,-1.0
4370,13568,10260,10016,-1.00,-1.0
4372,10756,-5192,-15572,-1.00,-1.0
4374,14508,10780,-18704,-1.00,-1.0
4376,22896,-4368,16944,-1.00,-1.0
4381,18692,-1940,-2468,-1.00,-1.0
4383,17796,4160,-16880,-1.00,-1.0
4385,22984,-1184,31288,-1.00,-1.0
4387,13764,-2048,-14636,-1.00,-1.0
4389,11212,12616,8664,-1.00,-1.0
4391,23728,1776,18176,-1.00,-1.0
4393,18816,-7484,-4864,-1.00,-1.0
4395,17680,7552,21992,-1.00,-1.0
4397,12080,-9476,-16468,-1.00,-1.0
4399,15644,7316,4364,-1.00,-1.0
4400,17328,-3976,-5040,-1.00,-1.0
4402,15972,3992,-13296,-1.00,-1.0
4404,25016,-5648,32668,-1.00,-1.0
4406,16956,-12560,-4992,-1.00,-1.0
4408,10672,14600,2824,-1.00,-1.0
4412,17612,5644,2084,-1.00,-1.0
4414,17276,-1332,1680,-1.00,-1.0
4416,17016,396,-11432,-1.00,-1.0
4418,19112,764,25304,-1.00,-1.0
4420,12952,-5164,-17012,-1.00,-1.0
4422,14528,13096,-2764,-1.00,-1.0
4424,21524,-9436,4380,-1.00,-1.0
4426,16736,7452,-11968,-1.00,-1.0
4428,18380,-1252,13220,-1.00,-1.0
4430,20928,-8748,5240,-1.00,-1.0
4432,13624,7248,10628,-1.00,-1.0
4434,23956,-5000,16816,-1.00,-1.0
4436,15944,8952,-5168,-1.00,-1.0
4438,18612,-5100,3132,-1.00,-1.0
4440,15288,-8424,-6608,-1.00,-1.0
4442,15240,5672,4524,-1.00,-1.0
4446,13600,10820,-1536,-1.00,-1.0
4448,13600,-2536,-7464,-1.00,-1.0
4450,19912,-9416,3416,-1.00,-1.0
4452,13148,6884,12452,-1.00,-1.0
4454,13296,-5564,-7460,-1.00,-1.0
4456,15856,5688,-2148,-1.00,-1.0
4457,18432,-2456,1712,-1.00,-1.0
4459,17356,2340,-15328,-1.00,-1.0
4461,22684,-7108,32767,-1.00,-1.0
4463,15824,-14856,1020,-1.00,-1.0
4465,7360,17704,-21124,-1.00,-1.0
4467,20396,-10204,9484,-1.00,-1.0
4469,19916,1828,-5720,-1.00,-1.0
4471,18260,8456,8816,-1.00,-1.0
4473,19172,-6148,-6676,-1.00,-1.0
4477,15388,-10472,-1528,-1.00,-1.0
4479,14724,8592,724,-1.00,-1.0
4481,15380,-2792,-10236,-1.00,-1.0
4483,21636,-3420,1128,-1.00,-1.0
4485,17580,2840,10848,-1.00,-1.0
4487,13980,-5060,-7020,-1.00,-1.0
4489,17860,5656,14732,-1.00,-1.0
4491,16420,-6776,-4108,-1.00,-1.0
4493,14356,6132,-13152,-1.00,-1.0
4495,19256,-4376,10816,-1.00,-1.0
4497,18532,-1220,-6480,-1.00,-1.0
4499,15328,8088,7612,-1.00,-1.0
4501,16120,-10064,24,-1.00,-1.0
4503,17816,3964,7224,-1.00,-1.0
4505,14988,7952,2204,-1.00,-1.0
4507,17668,-7836,1416,-1.00,-1.0
4511,12912,-6172,-14104,-1.00,-1.0
4513,14876,4308,6712,-1.00,-1.0
4515,16776,4528,5220,-1.00,-1.0
4517,17744,1564,-1588,-1.00,-1.0
4519,17524,-1528,7012,-1.00,-1.0
4521,18608,-8896,1448,-1.00,-1.0
4522,16504,4872,-348,-1.00,-1.0
4525,14772,1016,-1680,-1.00,-1.0
4526,17720,-5968,-5824,-1.00,-1.0
4528,18824,-1868,25748,-1.00,-1.0
4530,10956,-4204,-20712,-1.00,-1.0
4532,15804,6096,6564,-1.00,-1.0
4534,19472,-9556,9016,-1.00,-1.0
4536,16060,5016,-21724,-1.00,-1.0
4538,21864,-2000,22640,-1.00,-1.0
4542,9268,18236,-11544,-1.00,-1.0
4544,16996,-6112,3836,-1.00,-1.0
4546,21948,-6432,6028,-1.00,-1.0
4548,18976,3300,15208,-1.00,-1.0
4550,17396,-8048,-8156,-1.00,-1.0
4552,19052,-704,25036,-1.00,-1.0
4554,12196,-8844,-14400,-1.00,-1.0
4556,14408,7504,-3636,-1.00,-1.0
4558,18516,-4756,5912,-1.00,-1.0
4560,18304,-2984,-12156,-1.00,-1.0
4562,20384,1988,19340,-1.00,-1.0
4564,14824,-10524,-5800,-1.00,-1.0
4566,12116,12568,-1432,-1.00,-1.0
4568,18852,-7224,7704,-1.00,-1.0
4570,17320,1684,-11416,-1.00,-1.0
4574,19232,-2740,-14428,-1.00,-1.0
4576,18056,9720,6992,-1.00,-1.0
4578,16660,-7836,-4336,-1.00,-1.0
4580,12688,11356,-3340,-1.00,-1.0
4582,12372,6376,-8648,-1.00,-1.0
4584,21428,-6648,164,-1.00,-1.0
4586,5836,21960,-32564,-1.00,-1.0
4587,18616,2672,7240,-1.00,-1.0
4589,24160,-6428,4476,-1.00,-1.0
4591,17992,9040,10272,-1.00,-1.0
4593,14024,-2908,-20836,-1.00,-1.0
4595,17288,4436,13332,-1.00,-1.0
4597,15132,-10592,-5808,-1.00,-1.0
4599,16144,5284,-1376,-1.00,-1.0
4601,19316,-2616,8060,-1.00,-1.0
4605,5920,17640,-24356,-1.00,-1.0
4607,14312,3644,-4000,-1.00,-1.0
4609,25508,-3416,11920,-1.00,-1.0
4611,19868,1776,13464,-1.00,-1.0
4613,11488,1532,-22300,-1.00,-1.0
4615,17848,-2884,18672,-1.00,-1.0
4617,14680,-9240,-10912,-1.00,-1.0
4619,13868,14860,-11452,-1.00,-1.0
4621,21316,-7764,9304,-1.00,-1.0
4623,20844,-5000,3580,-1.00,-1.0
4625,12180,16796,-18952,-1.00,-1.0
4627,20352,-6548,10388,-1.00,-1.0
4629,18148,4468,836,-1.00,-1.0
4631,14312,6340,-3364,-1.00,-1.0
4633,17624,-2204,-2084,-1.00,-1.0
4635,13100,6440,-6492,-1.00,-1.0
4639,13056,13404,-10224,-1.00,-1.0
4641,15628,-1908,-10472,-1.00,-1.0
4642,15504,-10736,1420,-1.00,-1.0
4645,22104,5948,10252,-1.00,-1.0
4647,22076,-10984,10036,-1.00,-1.0
4648,13976,9856,-24796,-1.00,-1.0
4650,27368,-3680,26732,-1.00,-1.0
4652,18948,-3392,-10336,-1.00,-1.0
4654,13192,12340,-2728,-1.00,-1.0
4656,17912,-8280,1880,-1.00,-1.0
4658,12476,16736,-24400,-1.00,-1.0
4660,19832,1832,5772,-1.00,-1.0
4662,30416,-18928,32767,-1.00,-1.0
4664,11568,12860,-6252,-1.00,-1.0
4666,7576,3116,-19352,-1.00,-1.0
4670,22164,1068,13696,-1.00,-1.0
4672,17396,756,-17736,-1.00,-1.0
4674,23324,-444,32108,-1.00,-1.0
4676,13368,-8076,-15672,-1.00,-1.0
4678,12684,12552,-3936,-1.00,-1.0
4680,17596,-5632,-3224,-1.00,-1.0
4682,19040,2076,-6208,-1.00,-1.0
4684,20128,5348,7540,-1.00,-1.0
4686,18696,-10272,6696,-1.00,-1.0
4688,12916,11868,1232,-1.00,-1.0
4689,24044,-1888,26388,-1.00,-1.0
4691,17276,-7652,-8524,-1.00,-1.0
4693,11616,5620,2716,-1.00,-1.0
4695,13412,-8932,-8584,-1.00,-1.0
4697,19396,3916,2080,-1.00,-1.0
4701,21996,-14776,18144,-1.00,-1.0
4703,16160,-2376,22816,-1.00,-1.0
4705,6372,-2792,-20424,-1.00,-1.0
4707,9024,15604,-32768,-1.00,-1.0
4709,29976,-5760,29128,-1.00,-1.0
4711,22068,-8560,-1536,-1.00,-1.0
4713,12496,12952,10968,-1.00,-1.0
4715,15084,-10252,-7488,-1.00,-1.0
4717,15800,7936,-412,-1.00,-1.0
4719,15624,-2552,-6436,-1.00,-1.0
4721,21456,-2748,2256,-1.00,-1.0
4723,20012,2672,12848,-1.00,-1.0
4725,13332,-7216,-3520,-1.00,-1.0
4727,10948,13224,-13440,-1.00,-1.0
4729,20808,-5752,10816,-1.00,-1.0
4733,17564,2880,11556,-1.00,-1.0
4735,15244,-6016,-9036,-1.00,-1.0
4737,16636,-360,12468,-1.00,-1.0
4739,13376,-5744,-9524,-1.00,-1.0
4741,15052,8432,-17048,-1.00,-1.0
4743,24912,-8704,22544,-1.00,-1.0
4745,18764,-11212,4116,-1.00,-1.0
4747,6876,17528,-17560,-1.00,-1.0
4749,17208,-5028,4836,-1.00,-1.0
4751,20416,72,-3400,-1.00,-1.0
4752,20680,3356,12892,-1.00,-1.0
4754,15984,-6280,-3844,-1.00,-1.0
4756,13900,6260,-9456,-1.00,-1.0
4758,17888,-6396,6276,-1.00,-1.0
4760,22220,-11024,16392,-1.00,-1.0
4764,20228,-3056,-608,-1.00,-1.0
4766,19260,6720,13236,-1.00,-1.0
4768,16172,564,-3056,-1.00,-1.0
4770,21788,-5264,-4572,-1.00,-1.0
4772,22256,-2708,31740,-1.00,-1.0
4774,10984,-5020,-17372,-1.00,-1.0
4776,12924,3620,8604,-1.00,-1.0
4778,14336,-11196,1520,-1.00,-1.0
4780,17732,3068,-10980,-1.00,-1.0
4782,21856,-2520,13412,-1.00,-1.0
4784,19764,-13632,14312,-1.00,-1.0
4786,10128,10832,-9388,-1.00,-1.0
4788,14928,-2900,996,-1.00,-1.0
4790,19604,-2820,-7488,-1.00,-1.0
4792,21032,1684,13960,-1.00,-1.0
4794,19532,-6192,-812,-1.00,-1.0
4798,11156,-4324,-12044,-1.00,-1.0
4800,13508,9208,-15348,-1.00,-1.0
4802,21744,-5756,12996,-1.00,-1.0
4804,22960,-11280,7244,-1.00,-1.0
4806,14844,8708,6508,-1.00,-1.0
4808,14736,-8524,4448,-1.00,-1.0
4810,11284,10952,-21088,-1.00,-1.0
4812,21964,-1044,14436,-1.00,-1.0
4814,23688,-4788,-7652,-1.00,-1.0
4816,17172,8940,12372,-1.00,-1.0
4818,14792,-7240,-9592,-1.00,-1.0
4820,12492,13492,-11136,-1.00,-1.0
4822,14256,-2832,-3144,-1.00,-1.0
4824,23452,-4408,1388,-1.00,-1.0
4825,24068,-1232,30652,-1.00,-1.0
4830,3912,14068,-23232,-1.00,-1.0
4832,17128,-5160,4652,-1.00,-1.0
4834,24420,-6132,988,-1.00,-1.0
4835,19312,5180,13292,-1.00,-1.0
4837,15044,-6672,-10448,-1.00,-1.0
4839,15168,3824,7764,-1.00,-1.0
4841,18824,1876,7948,-1.00,-1.0
4843,21388,-14388,17436,-1.00,-1.0
4845,10972,13684,-9636,-1.00,-1.0
4847,12488,1108,-12568,-1.00,-1.0
4849,24728,-4992,6552,-1.00,-1.0
4851,19752,3816,10068,-1.00,-1.0
4853,13016,-948,-9084,-1.00,-1.0
4855,15844,7624,5516,-1.00,-1.0
4857,14884,-3056,-5748,-1.00,-1.0
4861,19300,1636,1888,-1.00,-1.0
4863,22536,-12580,22120,-1.00,-1.0
4865,11436,8388,-1376,-1.00,-1.0
4867,8604,4384,-17280,-1.00,-1.0
4869,21972,-1020,120,-1.00,-1.0
4871,20916,3200,9228,-1.00,-1.0
4873,14556,692,-10644,-1.00,-1.0
4875,16572,5996,13748,-1.00,-1.0
4877,14964,-2064,-8068,-1.00,-1.0
4879,15532,7700,-12616,-1.00,-1.0
4881,21024,-6572,13616,-1.00,-1.0
4883,18484,-3564,2876,-1.00,-1.0
4885,12596,8116,-1428,-1.00,-1.0
4887,14668,-5100,-1656,-1.00,-1.0
4888,11308,14404,-32768,-1.00,-1.0
4890,15628,2664,17656,-1.00,-1.0
4894,12584,10472,8220,-1.00,-1.0
4896,14532,-5128,-13940,-1.00,-1.0
4898,15312,-792,-6396,-1.00,-1.0
4900,16884,-7824,496,-1.00,-1.0
4902,16444,-4764,1268,-1.00,-1.0
4904,18000,5356,-3388,-1.00,-1.0
4906,18176,2356,-3560,-1.00,-1.0
4908,20456,-3508,10148,-1.00,-1.0
4910,18716,2876,4256,-1.00,-1.0
4912,13008,2032,-6348,-1.00,-1.0
4914,15340,1848,-8844,-1.00,-1.0
4916,21188,-5224,15336,-1.00,-1.0
4918,19720,-3960,6736,-1.00,-1.0
4920,13424,4232,3500,-1.00,-1.0
4922,11788,-412,-11208,-1.00,-1.0
4926,24060,-3724,13708,-1.00,-1.0
4928,23032,-5972,3568,-1.00,-1.0
4929,16352,6132,8552,-1.00,-1.0
4931,13920,-6384,-1812,-1.00,-1.0
4933,10408,10876,-21804,-1.00,-1.0
4935,22976,-4628,18576,-1.00,-1.0
4937,8180,1556,-19236,-1.00,-1.0
4939,16092,1300,3872,-1.00,-1.0
4941,20928,-9476,9296,-1.00,-1.0
4943,18848,-5848,6360,-1.00,-1.0
4945,17948,-428,12764,-1.00,-1.0
4947,8812,-3228,-15596,-1.00,-1.0
4949,10076,10396,-17100,-1.00,-1.0
4951,22504,-6312,8124,-1.00,-1.0
4953,23960,-5376,11488,-1.00,-1.0
4957,10288,-704,-15760,-1.00,-1.0
4959,16988,4104,7508,-1.00,-1.0
4961,20588,-10712,4148,-1.00,-1.0
4963,16012,4472,-7984,-1.00,-1.0
4965,15848,-1000,8524,-1.00,-1.0
4967,16536,-5312,1908,-1.00,-1.0
4969,9132,16516,-25552,-1.00,-1.0
4971,20400,-3932,5160,-1.00,-1.0
4973,26352,-6124,15728,-1.00,-1.0
4975,13168,8416,-5060,-1.00,-1.0
4977,12152,2072,-13144,-1.00,-1.0
4979,20184,3836,2992,-1.00,-1.0
4981,21148,-6364,6876,-1.00,-1.0
4983,17480,4956,-7232,-1.00,-1.0
4984,15976,-756,5880,-1.00,-1.0
4986,16520,-5864,2872,-1.00,-1.0
4991,19720,-1688,1252,-1.00,-1.0
4993,25504,-6380,14736,-1.00,-1.0
4994,14436,9584,-3380,-1.00,-1.0
4996,11700,3868,-16224,-1.00,-1.0
4998,18508,4036,1960,-1.00,-1.0
5000,21068,-2996,-512,-1.00,-1.0
5002,19728,3448,3720,-1.00,-1.0
5004,14840,6428,-4512,-1.00,-1.0
5006,19064,-8192,788,-1.00,-1.0
5008,23068,-1112,13016,-1.00,-1.0
5010,15632,-532,4724,-1.00,-1.0
5012,14004,-5764,7512,-1.00,-1.0
5014,8748,11524,-22456,-1.00,-1.0
5016,16880,-668,-4144,-1.00,-1.0
5018,27180,-6640,14040,-1.00,-1.0
5022,9500,748,-17832,-1.00,-1.0
5024,17056,804,9772,-1.00,-1.0
5026,17832,-10672,1832,-1.00,-1.0
5028,20848,-36,1964,-1.00,-1.0
5030,19100,-4744,12344,-1.00,-1.0
5032,11324,-5464,492,-1.00,-1.0
5034,7872,12496,-25772,-1.00,-1.0
5036,20484,-4100,8376,-1.00,-1.0
5038,23976,-8176,7768,-1.00,-1.0
5040,15520,3924,7324,-1.00,-1.0
5041,12680,-180,-6888,-1.00,-1.0
5043,14272,4044,1492,-1.00,-1.0
5045,16700,-2752,-8528,-1.00,-1.0
5047,21612,2764,1336,-1.00,-1.0
5049,23264,-6732,18952,-1.00,-1.0
5051,13452,-1360,-10088,-1.00,-1.0
5055,16088,-3896,-2200,-1.00,-1.0
5057,20472,2264,-7620,-1.00,-1.0
5059,23788,-2828,24324,-1.00,-1.0
5061,14208,-2620,-7932,-1.00,-1.0
5063,10772,7364,556,-1.00,-1.0
5065,18908,540,3380,-1.00,-1.0
5067,15236,-2956,-2284,-1.00,-1.0
5069,16716,2868,8328,-1.00,-1.0
5071,8732,2156,-23192,-1.00,-1.0
5073,18760,6708,-5696,-1.00,-1.0
5075,29800,-11804,29156,-1.00,-1.0
5077,17288,-9216,8568,-1.00,-1.0
5079,1756,16480,-20676,-1.00,-1.0
5081,15808,-3416,-2136,-1.00,-1.0
5083,25208,124,7800,-1.00,-1.0
5087,12544,2708,-18268,-1.00,-1.0
5089,13760,1688,11540,-1.00,-1.0
5091,17888,-9456,-1632,-1.00,-1.0
5093,15824,11728,-10648,-1.00,-1.0
5095,22616,-11512,19188,-1.00,-1.0
5097,16424,-2316,-1712,-1.00,-1.0
5099,6416,14160,-22864,-1.00,-1.0
5100,23300,-8832,13928,-1.00,-1.0
5103,19992,2628,-9040,-1.00,-1.0
5105,18168,-904,16452,-1.00,-1.0
5106,16744,456,-8428,-1.00,-1.0
5108,11352,5536,268,-1.00,-1.0
5110,18300,-6320,2636,-1.00,-1.0
5112,16672,11412,-17812,-1.00,-1.0
5114,20640,-1652,11648,-1.00,-1.0
5116,12116,-1244,-8376,-1.00,-1.0
5120,13172,-3140,-8420,-1.00,-1.0
5122,21940,800,-324,-1.00,-1.0
5124,21572,-1788,20008,-1.00,-1.0
5126,16304,-3556,-464,-1.00,-1.0
5128,15220,8496,-1112,-1.00,-1.0
5130,15748,-8324,-1900,-1.00,-1.0
5132,13008,6836,-20800,-1.00,-1.0
5134,15328,3520,11136,-1.00,-1.0
5136,21492,-9476,3436,-1.00,-1.0
5138,14080,9904,-13932,-1.00,-1.0
5140,23132,-12288,28396,-1.00,-1.0
5142,12764,484,-11892,-1.00,-1.0
5144,8708,13856,-17064,-1.00,-1.0
5146,29028,-10164,17576,-1.00,-1.0
5148,16424,2932,-7928,-1.00,-1.0
5152,15756,2844,-12304,-1.00,-1.0
5154,15572,2636,3436,-1.00,-1.0
5156,22312,-6532,5180,-1.00,-1.0
5158,20892,716,9208,-1.00,-1.0
5160,13720,-2820,8268,-1.00,-1.0
5162,13300,-4428,-2412,-1.00,-1.0
5163,12936,3228,-9472,-1.00,-1.0
5165,21848,-9412,18824,-1.00,-1.0
5167,20452,-1240,-1168,-1.00,-1.0
5169,11684,4288,3464,-1.00,-1.0
5171,17512,-6032,1008,-1.00,-1.0
5173,14468,6800,-11352,-1.00,-1.0
5175,20068,-7120,16144,-1.00,-1.0
5177,20100,2068,-4068,-1.00,-1.0
5179,20964,-3572,14816,-1.00,-1.0
5183,14088,-1736,1036,-1.00,-1.0
5185,16768,5852,-6680,-1.00,-1.0
5187,13560,1948,-14508,-1.00,-1.0
5189,26292,-9192,25836,-1.00,-1.0
5191,16860,656,3316,-1.00,-1.0
5193,9584,324,-5444,-1.00,-1.0
5195,18972,-540,5596,-1.00,-1.0
5197,15624,-2808,-7804,-1.00,-1.0
5199,20780,-1820,10748,-1.00,-1.0
5201,18172,-1684,6756,-1.00,-1.0
5202,8060,5648,-17156,-1.00,-1.0
5204,19364,2352,-1316,-1.00,-1.0
5206,23380,-4264,5260,-1.00,-1.0
5208,17068,-1208,6088,-1.00,-1.0
5210,14856,6792,-4552,-1.00,-1.0
5212,14140,-1128,-1196,-1.00,-1.0
5216,17000,1448,-5752,-1.00,-1.0
5218,16880,-5736,7468,-1.00,-1.0
5220,15308,4608,-6496,-1.00,-1.0
5222,11616,2416,-16536,-1.00,-1.0
5224,26640,-9564,23532,-1.00,-1.0
5226,17856,588,3424,-1.00,-1.0
5228,22668,-7208,10452,-1.00,-1.0
5230,20504,-1840,-1312,-1.00,-1.0
5232,15844,1888,15172,-1.00,-1.0
5234,12708,1656,-16020,-1.00,-1.0
5236,16436,2252,6428,-1.00,-1.0
5238,20936,-6336,6928,-1.00,-1.0
5240,15556,3348,-10776,-1.00,-1.0
5242,17424,-1612,13500,-1.00,-1.0
5244,17492,-5128,724,-1.00,-1.0
5248,19080,-5860,11332,-1.00,-1.0
5250,18172,-2276,1032,-1.00,-1.0
5252,9284,9240,-8872,-1.00,-1.0
5254,17944,1160,-6288,-1.00,-1.0
5256,20152,664,3756,-1.00,-1.0
5258,19660,-3432,13872,-1.00,-1.0
5260,11664,8488,-23608,-1.00,-1.0
5261,18112,156,18872,-1.00,-1.0
5263,21440,-7896,3672,-1.00,-1.0
5265,14688,6040,-6180,-1.00,-1.0
5267,19708,-6392,15716,-1.00,-1.0
5269,10472,4804,-22496,-1.00,-1.0
5271,18660,380,4628,-1.00,-1.0
5273,25608,-9144,21404,-1.00,-1.0
5275,10744,3644,-13712,-1.00,-1.0
5277,15104,2108,4876,-1.00,-1.0
5281,18812,-1016,6404,-1.00,-1.0
5283,16348,644,-4252,-1.00,-1.0
5285,12980,3820,-5472,-1.00,-1.0
5287,16516,212,-296,-1.00,-1.0
5289,17372,2888,-4688,-1.00,-1.0
5291,17524,2256,-1824,-1.00,-1.0
5293,12932,5048,-13356,-1.00,-1.0
5295,19028,-8404,16964,-1.00,-1.0
5297,19604,-2528,2704,-1.00,-1.0
5299,10824,7928,-6308,-1.00,-1.0
5301,17768,-3728,-1904,-1.00,-1.0
5303,17720,4660,-5124,-1.00,-1.0
5305,20004,-3324,14072,-1.00,-1.0
5307,17124,5044,-9836,-1.00,-1.0
5309,14936,4488,496,-1.00,-1.0
5313,16068,4692,-12144,-1.00,-1.0
5315,18860,-3536,4932,-1.00,-1.0
5317,11180,4652,-20068,-1.00,-1.0
5319,14520,8488,-13388,-1.00,-1.0
5321,26972,-8080,22420,-1.00,-1.0
5323,16376,556,-11544,-1.00,-1.0
5325,14328,7848,5464,-1.00,-1.0
5327,17316,-2204,-8000,-1.00,-1.0
5329,17980,3128,3576,-1.00,-1.0
5331,21776,-6120,15828,-1.00,-1.0
5332,14800,3816,-2288,-1.00,-1.0
5334,9396,9956,-19152,-1.00,-1.0
5336,19308,-1656,1696,-1.00,-1.0
5338,21448,-3548,5528,-1.00,-1.0
5340,16864,7212,3440,-1.00,-1.0
5342,13364,4292,-15812,-1.00,-1.0
5346,17288,-2236,-6784,-1.00,-1.0
5348,14756,1856,-2100,-1.00,-1.0
5350,15748,1120,-2508,-1.00,-1.0
5352,13536,1360,-12144,-1.00,-1.0
5354,23428,-5384,13264,-1.00,-1.0
5356,18648,644,8548,-1.00,-1.0
5358,10624,2756,-10104,-1.00,-1.0
5360,15544,6788,-8444,-1.00,-1.0
5362,22572,-5584,13312,-1.00,-1.0
5364,18540,-2192,-1060,-1.00,-1.0
5366,17748,2172,6468,-1.00,-1.0
5368,18796,-4844,1440,-1.00,-1.0
5370,18064,1312,-3496,-1.00,-1.0
5372,17040,1020,5244,-1.00,-1.0
5374,15340,-2872,-5232,-1.00,-1.0
5378,15512,3180,-4388,-1.00,-1.0
5380,14884,5240,-7924,-1.00,-1.0
5382,15364,6744,-8648,-1.00,-1.0
5384,21396,360,4740,-1.00,-1.0
5386,18724,2436,-1676,-1.00,-1.0
5388,17980,1484,5748,-1.00,-1.0
5390,13024,2580,-14620,-1.00,-1.0
5391,19020,-1096,7600,-1.00,-1.0
5393,18664,-2808,3376,-1.00,-1.0
5395,17040,-1208,-680,-1.00,-1.0
5397,15604,4064,-3576,-1.00,-1.0
5399,13148,-832,-10680,-1.00,-1.0
5401,20492,-2656,6472,-1.00,-1.0
5403,20004,-2004,17092,-1.00,-1.0
5405,12172,1168,-13844,-1.00,-1.0
5407,17688,1480,12232,-1.00,-1.0
5412,16516,2364,628,-1.00,-1.0
5414,12156,3548,-12044,-1.00,-1.0
5416,15768,756,-3212,-1.00,-1.0
5418,20052,1440,-6732,-1.00,-1.0
5420,20720,-784,12688,-1.00,-1.0
5422,16084,1548,-8576,-1.00,-1.0
5423,16940,7108,-1616,-1.00,-1.0
5426,18900,-5020,5460,-1.00,-1.0
5428,20396,-1016,2036,-1.00,-1.0
5429,16924,1776,7380,-1.00,-1.0
5431,16536,-5336,2832,-1.00,-1.0
5433,14400,4460,-5892,-1.00,-1.0
5435,16872,-4676,2152,-1.00,-1.0
5437,21172,-3644,6144,-1.00,-1.0
5439,12884,7236,-10780,-1.00,-1.0
5443,20144,-2900,5428,-1.00,-1.0
5445,17584,-2412,14216,-1.00,-1.0
5447,14052,-1712,-4992,-1.00,-1.0
5449,20992,-3620,6484,-1.00,-1.0
5451,20096,-4856,7616,-1.00,-1.0
5453,17628,2792,-6700,-1.00,-1.0
5455,17060,384,6812,-1.00,-1.0
5457,15916,-5148,-1768,-1.00,-1.0
5459,18204,-92,2992,-1.00,-1.0
5461,17080,1448,3164,-1.00,-1.0
5463,11540,4224,-16916,-1.00,-1.0
5464,18204,3260,-8996,-1.00,-1.0
5467,22652,-2928,16608,-1.00,-1.0
5469,16388,-2636,-6616,-1.00,-1.0
5470,16216,8552,6424,-1.00,-1.0
5472,20784,-10232,13108,-1.00,-1.0
5477,11168,5704,-9832,-1.00,-1.0
5479,22636,-5180,11792,-1.00,-1.0
5480,18016,3224,-3796,-1.00,-1.0
5482,17032,-3796,6640,-1.00,-1.0
5484,16600,-5680,8128,-1.00,-1.0
5486,11000,5264,-18492,-1.00,-1.0
5488,20312,-3912,15948,-1.00,-1.0
5490,17716,-6416,448,-1.00,-1.0
5492,15208,8468,4924,-1.00,-1.0
5494,15896,-1736,-10580,-1.00,-1.0
5496,20176,-2400,9792,-1.00,-1.0
5498,15092,-2264,-3780,-1.00,-1.0
5500,16924,-2124,740,-1.00,-1.0
5502,18320,2308,860,-1.00,-1.0
5504,16408,-2636,1072,-1.00,-1.0
5508,17100,9324,-9536,-1.00,-1.0
5510,18984,204,-1952,-1.00,-1.0
5512,25136,-5864,18092,-1.00,-1.0
5514,16824,2300,7404,-1.00,-1.0
5516,13128,-2304,-1788,-1.00,-1.0
5518,15156,2076,-3784,-1.00,-1.0
5520,19264,176,12520,-1.00,-1.0
5522,12640,784,-13304,-1.00,-1.0
5524,18056,-2868,6204,-1.00,-1.0
5526,19492,-8268,13276,-1.00,-1.0
5528,15972,-5412,5300,-1.00,-1.0
5529,12648,7724,-12040,-1.00,-1.0
5532,16724,-3804,692,-1.00,-1.0
5534,23044,-8712,13352,-1.00,-1.0
5535,14804,2588,2940,-1.00,-1.0
5537,14460,-3044,-6012,-1.00,-1.0
5542,16444,-8364,2524,-1.00,-1.0
5544,13056,3012,-8876,-1.00,-1.0
5545,13568,3572,-13024,-1.00,-1.0
5547,22132,-6060,14628,-1.00,-1.0
5549,23140,-10408,17932,-1.00,-1.0
5551,11656,5436,-3044,-1.00,-1.0
5553,14188,-2072,4516,-1.00,-1.0
5555,18088,-5828,7252,-1.00,-1.0
5557,14796,3188,2096,-1.00,-1.0
5559,10444,8248,-30196,-1.00,-1.0
5561,24644,-560,18348,-1.00,-1.0
5563,22660,-9028,6064,-1.00,-1.0
5565,12960,3040,-3016,-1.00,-1.0
5567,15820,-424,1896,-1.00,-1.0
5569,12220,120,-9260,-1.00,-1.0
5573,22092,852,15000,-1.00,-1.0
5575,14576,-1028,-2700,-1.00,-1.0
5577,16148,4180,2784,-1.00,-1.0
5579,22052,-8484,21584,-1.00,-1.0
5581,8968,4152,-32128,-1.00,-1.0
5583,16616,8480,1272,-1.00,-1.0
5585,24900,-7436,10764,-1.00,-1.0
5587,14932,144,4124,-1.00,-1.0
5589,12720,5920,-17504,-1.00,-1.0
5591,16204,-3708,4312,-1.00,-1.0
5593,14240,1192,-11036,-1.00,-1.0
5595,16184,5612,-2824,-1.00,-1.0
5597,22208,-7448,12396,-1.00,-1.0
5599,17888,-2424,672,-1.00,-1.0
5600,10332,6000,-6408,-1.00,-1.0
5602,17728,-2172,4760,-1.00,-1.0
5607,19472,1700,8648,-1.00,-1.0
5609,13924,4472,-21124,-1.00,-1.0
5610,18916,4652,-1628,-1.00,-1.0
5613,21152,-5952,13496,-1.00,-1.0
5614,16364,-3252,4344,-1.00,-1.0
5616,13992,7228,-2844,-1.00,-1.0
5618,20040,-10476,14824,-1.00,-1.0
5620,12976,-1760,-13512,-1.00,-1.0
5622,13540,9908,-14072,-1.00,-1.0
5624,24940,-2368,12252,-1.00,-1.0
5626,22260,-756,10664,-1.00,-1.0
5628,10788,11292,-22400,-1.00,-1.0
5630,16396,1368,3668,-1.00,-1.0
5632,24224,-8996,12968,-1.00,-1.0
5634,12272,6844,-2416,-1.00,-1.0
5638,18376,3920,-4168,-1.00,-1.0
5640,16436,32,1952,-1.00,-1.0
5642,22136,-8836,3364,-1.00,-1.0
5644,20168,2164,9748,-1.00,-1.0
5646,13892,-6444,3916,-1.00,-1.0
5648,11336,3588,-7836,-1.00,-1.0
5650,12044,5704,-14040,-1.00,-1.0
5652,22188,1752,8976,-1.00,-1.0
5654,24124,-3512,8020,-1.00,-1.0
5656,16232,5824,712,-1.00,-1.0
5658,21476,-4912,20372,-1.00,-1.0
5659,14416,3264,-28076,-1.00,-1.0
5662,19516,5816,-2980,-1.00,-1.0
5664,22364,-6456,11908,-1.00,-1.0
5665,17272,1056,10320,-1.00,-1.0
5669,21844,-5128,29456,-1.00,-1.0
5671,15592,-3848,-12352,-1.00,-1.0
5673,10648,17752,-12924,-1.00,-1.0
5675,20948,1356,-600,-1.00,-1.0
5677,24856,-3560,16428,-1.00,-1.0
5679,11092,6892,-18728,-1.00,-1.0
5681,16080,604,8852,-1.00,-1.0
5683,25940,-13456,22068,-1.00,-1.0
5685,8248,4020,-6200,-1.00,-1.0
5687,9416,248,-6612,-1.00,-1.0
5689,24596,-9456,26928,-1.00,-1.0
5691,13164,320,-16848,-1.00,-1.0
5693,12560,6436,-10296,-1.00,-1.0
5695,22784,-10224,4728,-1.00,-1.0
5697,17916,3224,16144,-1.00,-1.0
5699,15372,-1792,-8912,-1.00,-1.0
5703,12708,18876,-18616,-1.00,-1.0
5705,23436,-4168,6344,-1.00,-1.0
5706,27172,-228,23280,-1.00,-1.0
5708,6896,16512,-32768,-1.00,-1.0
5710,19480,1476,20860,-1.00,-1.0
5712,18816,1424,-16960,-1.00,-1.0
5714,14004,15976,-10132,-1.00,-1.0
5716,20784,-1340,-2004,-1.00,-1.0
5718,24768,-2984,26176,-1.00,-1.0
5720,7784,11440,-32768,-1.00,-1.0
5722,20908,960,21492,-1.00,-1.0
5724,18284,-3548,-16944,-1.00,-1.0
5726,14432,13708,204,-1.00,-1.0
5728,19232,-2420,-5452,-1.00,-1.0
5730,23560,-4520,20860,-1.00,-1.0
5734,19548,3116,17764,-1.00,-1.0
5736,19116,312,-14852,-1.00,-1.0
5738,19140,6148,8860,-1.00,-1.0
5740,19864,-4352,1884,-1.00,-1.0
5742,13268,7724,-11016,-1.00,-1.0
5744,12196,11964,-27772,-1.00,-1.0
5746,28340,-2196,24340,-1.00,-1.0
5748,21020,-4756,1376,-1.00,-1.0
5750,9716,8192,-12908,-1.00,-1.0
5752,19516,-4724,11396,-1.00,-1.0
5754,16676,-4596,-9856,-1.00,-1.0
5756,19372,-624,7032,-1.00,-1.0
5758,22128,-6604,6576,-1.00,-1.0
5760,14152,9656,-11184,-1.00,-1.0
5761,23844,-7092,23128,-1.00,-1.0
5766,15972,-9028,-9864,-1.00,-1.0
5768,16672,-664,14676,-1.00,-1.0
5770,20984,-15364,17672,-1.00,-1.0
5771,16388,6596,-30132,-1.00,-1.0
5774,25048,-2220,31352,-1.00,-1.0
5775,13136,676,-31380,-1.00,-1.0
5777,19696,10148,15856,-1.00,-1.0
5779,17724,-4824,-13144,-1.00,-1.0
5781,14548,11504,-5500,-1.00,-1.0
5783,21068,-2160,-800,-1.00,-1.0
5785,20760,-5760,13060,-1.00,-1.0
5787,12528,7952,-18888,-1.00,-1.0
5789,24108,-5620,21876,-1.00,-1.0
5791,19520,-8524,5432,-1.00,-1.0
5793,11744,440,-12516,-1.00,-1.0
5797,17404,-6900,2852,-1.00,-1.0
5799,19188,-7644,13108,-1.00,-1.0
5801,21000,-4936,24088,-1.00,-1.0
5803,7992,100,-20044,-1.00,-1.0
5805,14512,-6976,19028,-1.00,-1.0
5807,16952,-4552,1352,-1.00,-1.0
5809,16044,1148,-3144,-1.00,-1.0
5811,17680,-9984,3380,-1.00,-1.0
5813,13304,1848,-464,-1.00,-1.0
5815,10560,7288,-14872,-1.00,-1.0
5817,20840,-7188,20092,-1.00,-1.0
5819,12648,11124,-23764,-1.00,-1.0
5821,20916,2748,7212,-1.00,-1.0
5823,17968,-552,-11372,-1.00,-1.0
5824,15988,-1220,14904,-1.00,-1.0
5826,22856,-12700,17976,-1.00,-1.0
5831,15764,-3484,-19472,-1.00,-1.0
5833,20932,6916,17732,-1.00,-1.0
5834,17944,2528,14920,-1.00,-1.0
5837,16836,7080,-2664,-1.00,-1.0
5839,14216,6204,7860,-1.00,-1.0
5840,10516,2532,-31340,-1.00,-1.0
5842,17972,3520,11080,-1.00,-1.0
5844,18532,4544,-8480,-1.00,-1.0
5846,16532,16604,-18288,-1.00,-1.0
5848,24232,-1484,20984,-1.00,-1.0
5850,18508,-3216,-11772,-1.00,-1.0
5852,16468,17072,1116,-1.00,-1.0
5854,16516,-2464,-15972,-1.00,-1.0
5856,21432,5648,6276,-1.00,-1.0
5858,24208,-7876,19180,-1.00,-1.0
5862,14524,-256,8596,-1.00,-1.0
5864,18968,-10540,10916,-1.00,-1.0
5866,17080,-3996,796,-1.00,-1.0
5868,18248,-16616,10884,-1.00,-1.0
5870,15036,-7448,6848,-1.00,-1.0
5872,7900,3568,-20296,-1.00,-1.0
5874,20812,-14744,28152,-1.00,-1.0
5876,14152,-4280,-724,-1.00,-1.0
5878,10432,2704,-10904,-1.00,-1.0
5880,17120,-5084,4864,-1.00,-1.0
5882,18108,788,9480,-1.00,-1.0
5884,10844,13432,-30748,-1.00,-1.0
5886,21444,-488,23260,-1.00,-1.0
5888,15760,1172,-13116,-1.00,-1.0
5890,16344,11316,8400,-1.00,-1.0
5894,18592,6912,9340,-1.00,-1.0
5896,16004,5352,-16824,-1.00,-1.0
5898,20120,3988,3168,-1.00,-1.0
5900,20920,456,10336,-1.00,-1.0
5902,17732,5148,-4528,-1.00,-1.0
5904,18784,5076,616,-1.00,-1.0
5906,20848,-8380,6720,-1.00,-1.0
5907,13104,4388,-13440,-1.00,-1.0
5909,10440,4476,-14996,-1.00,-1.0
5911,21844,-12896,9956,-1.00,-1.0
5913,9636,10236,-7040,-1.00,-1.0
5915,10980,1332,-10596,-1.00,-1.0
5917,22408,-8564,20804,-1.00,-1.0
5919,13432,2840,-4484,-1.00,-1.0
5921,11456,7360,-16780,-1.00,-1.0
5923,18420,2364,-1292,-1.00,-1.0
5927,17204,7860,-3560,-1.00,-1.0
5929,19036,-484,9628,-1.00,-1.0
5931,12928,6364,-9472,-1.00,-1.0
5933,18440,4272,5880,-1.00,-1.0
5935,18392,124,-4044,-1.00,-1.0
5937,16364,10136,-3704,-1.00,-1.0
5939,20012,592,1504,-1.00,-1.0
5941,18512,2816,1584,-1.00,-1.0
5943,13476,9680,-4784,-1.00,-1.0
5945,18800,7240,-1936,-1.00,-1.0
5947,21108,1664,7896,-1.00,-1.0
5949,16732,-1592,-1972,-1.00,-1.0
5951,18664,6112,4532,-1.00,-1.0
5953,13732,1280,-4120,-1.00,-1.0
5954,13556,7108,-5440,-1.00,-1.0
5958,11020,-252,-19756,-1.00,-1.0
5960,13668,-8096,6708,-1.00,-1.0
5962,14960,-3076,-3376,-1.00,-1.0
5964,17196,3260,-3596,-1.00,-1.0
5966,24560,-16252,14180,-1.00,-1.0
5968,13604,-2352,-2944,-1.00,-1.0
5970,6384,7720,-20668,-1.00,-1.0
5972,18796,-9836,12044,-1.00,-1.0
5974,19856,-5672,21416,-1.00,-1.0
5976,15980,-3900,-10340,-1.00,-1.0
5978,18352,-6484,10864,-1.00,-1.0
5980,15648,-7932,-4236,-1.00,-1.0
5982,11420,9976,-19352,-1.00,-1.0
5984,21132,-7940,14368,-1.00,-1.0
5986,16516,-1480,-1060,-1.00,-1.0
5990,20760,-11696,1812,-1.00,-1.0
5992,17628,1772,10820,-1.00,-1.0
5994,13184,-3564,-16120,-1.00,-1.0
5996,22676,-9568,17556,-1.00,-1.0
5998,17136,-13616,10960,-1.00,-1.0
6000,10016,2232,-12896,-1.00,-1.0
6002,16440,-3244,4116,-1.00,-1.0
6003,16464,-1452,-1760,-1.00,-1.0
6006,15868,6228,-6348,-1.00,-1.0
6007,22000,-9044,4748,-1.00,-1.0
6009,8984,8608,-15224,-1.00,-1.0
6011,19112,-496,13296,-1.00,-1.0
6013,20592,-3044,-1004,-1.00,-1.0
6015,12716,11892,-11176,-1.00,-1.0
6017,21300,-6052,14948,-1.00,-1.0
6019,20988,-2128,5996,-1.00,-1.0
6023,16428,2536,6968,-1.00,-1.0
6025,26144,-11156,20888,-1.00,-1.0
6027,12752,584,-4748,-1.00,-1.0
6029,13028,3752,-8236,-1.00,-1.0
6031,16680,204,-13260,-1.00,-1.0
6033,15212,4004,240,-1.00,-1.0
6035,18160,516,1328,-1.00,-1.0
6037,23176,-168,16584,-1.00,-1.0
6039,15936,-5108,2776,-1.00,-1.0
6041,11112,728,-10572,-1.00,-1.0
6043,14804,-800,-1248,-1.00,-1.0
6045,22600,-10868,13544,-1.00,-1.0
6047,16740,-1008,-308,-1.00,-1.0
6049,12576,-2100,-10732,-1.00,-1.0
6051,15216,-6140,6572,-1.00,-1.0
6055,13856,-1052,-10480,-1.00,-1.0
6057,15536,-1700,8372,-1.00,-1.0
6059,18776,-6956,2676,-1.00,-1.0
6061,21316,-5612,9728,-1.00,-1.0
6063,16528,-2628,-1144,-1.00,-1.0
6065,13964,1380,-9644,-1.00,-1.0
6067,18696,-6716,9548,-1.00,-1.0
6068,15592,-980,4396,-1.00,-1.0
6070,11960,6416,-10512,-1.00,-1.0
6072,21084,-712,8832,-1.00,-1.0
6074,20948,-2036,12960,-1.00,-1.0
6076,18440,-5660,4916,-1.00,-1.0
6078,18820,-5816,6316,-1.00,-1.0
6080,10092,2344,-17148,-1.00,-1.0
6082,16180,1084,2880,-1.00,-1.0
6084,25836,-11008,14056,-1.00,-1.0
6088,10708,2488,-10512,-1.00,-1.0
6090,19952,-4852,9840,-1.00,-1.0
6092,16184,-3308,8248,-1.00,-1.0
6094,15880,2032,-9684,-1.00,-1.0
6096,21868,-5432,16492,-1.00,-1.0
6098,15824,-2624,-716,-1.00,-1.0
6100,12788,9344,-9640,-1.00,-1.0
6102,23068,-4144,10548,-1.00,-1.0
6104,20868,-3732,13224,-1.00,-1.0
6106,12848,5148,-10360,-1.00,-1.0
6108,12760,3464,-8272,-1.00,-1.0
6110,17476,952,6344,-1.00,-1.0
6112,17556,5032,-2184,-1.00,-1.0
6114,14796,9036,-10748,-1.00,-1.0
6116,20752,-860,14596,-1.00,-1.0
6120,13056,10256,-17340,-1.00,-1.0
6122,20620,-5040,10408,-1.00,-1.0
6124,22088,-6176,6596,-1.00,-1.0
6126,10260,5056,-8556,-1.00,-1.0
6128,14632,-4068,-1132,-1.00,-1.0
6130,19980,-6136,10908,-1.00,-1.0
6131,14972,-3040,-7112,-1.00,-1.0
6134,14964,-304,1552,-1.00,-1.0
6135,22752,-6260,4556,-1.00,-1.0
6137,16320,744,912,-1.00,-1.0
6139,10788,6160,-10048,-1.00,-1.0
6141,18280,4100,-5160,-1.00,-1.0
6143,21952,-1068,20292,-1.00,-1.0
6145,12464,-2464,-7600,-1.00,-1.0
6147,18160,-3020,900,-1.00,-1.0
6151,11776,2252,-7812,-1.00,-1.0
6153,15184,2592,-5100,-1.00,-1.0
6155,14376,6280,248,-1.00,-1.0
6157,13700,1288,-8608,-1.00,-1.0
6159,16272,1356,1272,-1.00,-1.0
6161,15588,896,2240,-1.00,-1.0
6163,17884,4744,2612,-1.00,-1.0
6165,20540,1452,1088,-1.00,-1.0
6167,17416,2840,1356,-1.00,-1.0
6169,19676,992,7444,-1.00,-1.0
6171,17952,4296,-5032,-1.00,-1.0
6173,14656,976,3576,-1.00,-1.0
6175,16156,-2880,-4400,-1.00,-1.0
6177,15936,20,3520,-1.00,-1.0
6179,13320,-1336,-6940,-1.00,-1.0
6180,16208,-1708,1608,-1.00,-1.0
6185,14896,-2876,5432,-1.00,-1.0
6187,14068,1360,-6868,-1.00,-1.0
6188,18856,-2156,7716,-1.00,-1.0
6190,19020,-6016,11708,-1.00,-1.0
6192,18560,-1388,-5300,-1.00,-1.0
6194,20184,248,4180,-1.00,-1.0
6196,21092,-1944,10564,-1.00,-1.0
6198,18008,-3148,7436,-1.00,-1.0
6200,22848,-5848,8116,-1.00,-1.0
6202,14444,-2220,-1196,-1.00,-1.0
6204,14184,1872,-15768,-1.00,-1.0
6206,17696,-248,2816,-1.00,-1.0
6208,19328,-4688,9272,-1.00,-1.0
6210,17020,-84,-460,-1.00,-1.0
6212,17760,316,-1308,-1.00,-1.0
6214,19264,-6412,12668,-1.00,-1.0
6218,13428,4844,-6464,-1.00,-1.0
6220,16036,-2528,6548,-1.00,-1.0
6222,15164,2104,-8916,-1.00,-1.0
6223,17516,3360,11132,-1.00,-1.0
6225,19196,-2428,-228,-1.00,-1.0
6227,13000,9632,-9196,-1.00,-1.0
6229,14752,224,-2072,-1.00,-1.0
6231,15276,-4680,-3384,-1.00,-1.0
6233,16336,4968,1852,-1.00,-1.0
6235,16880,-3464,-5004,-1.00,-1.0
6237,14936,1896,-6176,-1.00,-1.0
6239,15768,3588,2092,-1.00,-1.0
6241,16904,-508,7308,-1.00,-1.0
6243,15540,3420,2752,-1.00,-1.0
6245,16748,2400,-6208,-1.00,-1.0
6249,20240,-3764,-5744,-1.00,-1.0
6251,18080,12,916,-1.00,-1.0
6253,14816,-3928,-12,-1.00,-1.0
6255,14848,-1196,-3164,-1.00,-1.0
6257,12788,308,-6044,-1.00,-1.0
6259,14892,-1852,3780,-1.00,-1.0
6261,19648,-4340,992,-1.00,-1.0
6263,18944,-704,9708,-1.00,-1.0
6265,13616,-2764,-7228,-1.00,-1.0
6267,14176,860,-2840,-1.00,-1.0
6269,19228,-5928,14156,-1.00,-1.0
6270,19372,628,6384,-1.00,-1.0
6273,17052,2852,-4104,-1.00,-1.0
6275,13544,6844,-7876,-1.00,-1.0
6276,19812,120,12860,-1.00,-1.0
6278,20648,3344,-1064,-1.00,-1.0
6283,19376,-5540,-1192,-1.00,-1.0
6285,13180,2708,-7780,-1.00,-1.0
6286,13240,-2088,-3016,-1.00,-1.0
6288,16088,-2208,788,-1.00,-1.0
6290,15724,-192,-3632,-1.00,-1.0
6292,17316,-7632,11272,-1.00,-1.0
6294,17052,-2320,-900,-1.00,-1.0
6296,22136,440,7444,-1.00,-1.0
6298,16900,-2908,824,-1.00,-1.0
6300,15848,-1824,-4868,-1.00,-1.0
6302,16800,-4428,-888,-1.00,-1.0
6304,11692,-1972,-2688,-1.00,-1.0
6306,16268,-5408,756,-1.00,-1.0
6308,16180,-3364,-1408,-1.00,-1.0
6310,13892,-2724,4412,-1.00,-1.0
6312,14696,-304,-7100,-1.00,-1.0
6316,17212,-1276,-4872,-1.00,-1.0
6318,16904,3968,-7768,-1.00,-1.0
6320,21060,-2584,10672,-1.00,-1.0
6322,22500,-884,11908,-1.00,-1.0
6324,15880,5380,-4612,-1.00,-1.0
6326,9264,10236,-13748,-1.00,-1.0
6328,19928,244,12472,-1.00,-1.0
6330,23548,-3936,12660,-1.00,-1.0
6332,17612,3016,1336,-1.00,-1.0
6334,16996,-3996,-8568,-1.00,-1.0
6335,13164,-200,-7544,-1.00,-1.0
6338,8300,4484,-16808,-1.00,-1.0
6339,17732,-1396,12124,-1.00,-1.0
6341,22732,-2024,5228,-1.00,-1.0
6343,18112,-3584,8888,-1.00,-1.0
6348,16184,4092,-1372,-1.00,-1.0
6349,16196,1332,-5292,-1.00,-1.0
6351,16560,3968,-1028,-1.00,-1.0
6353,14820,7276,-2452,-1.00,-1.0
6355,21280,-1652,17976,-1.00,-1.0
6357,20216,1968,68,-1.00,-1.0
6359,16960,4228,-1596,-1.00,-1.0
6361,17948,-1668,-7812,-1.00,-1.0
6363,18116,-1500,700,-1.00,-1.0
6365,12004,-1036,364,-1.00,-1.0
6367,20616,668,5700,-1.00,-1.0
6369,17120,10084,-15568,-1.00,-1.0
6371,20992,5800,14644,-1.00,-1.0
6373,21440,-4424,6008,-1.00,-1.0
6375,14816,8420,-1248,-1.00,-1.0
6377,14508,-7176,1188,-1.00,-1.0
6381,15616,8032,-8528,-1.00,-1.0
6383,16188,8020,8692,-1.00,-1.0
6385,18944,-10584,2180,-1.00,-1.0
6387,22404,3420,16172,-1.00,-1.0
6389,17056,-3080,-12884,-1.00,-1.0
6391,16376,600,-2064,-1.00,-1.0
6393,18320,4812,9876,-1.00,-1.0
6395,18264,8196,-9388,-1.00,-1.0
6397,17936,9672,-5580,-1.00,-1.0
6399,18848,4348,6956,-1.00,-1.0
6401,18644,296,7576,-1.00,-1.0
6403,16500,3816,-2628,-1.00,-1.0
6405,14588,-4888,3228,-1.00,-1.0
6407,10496,-2400,-18744,-1.00,-1.0
6408,15828,656,8944,-1.00,-1.0
6413,16176,-476,1492,-1.00,-1.0
6415,12908,3936,-21960,-1.00,-1.0
6417,21632,-976,19828,-1.00,-1.0
6418,21936,-372,-6024,-1.00,-1.0
6421,18168,9968,128,-1.00,-1.0
6423,16964,-1408,2584,-1.00,-1.0
6424,15076,1008,-1180,-1.00,-1.0
6426,12432,5672,2980,-1.00,-1.0
6428,16168,-7896,7260,-1.00,-1.0
6430,17852,-3932,5896,-1.00,-1.0
6432,15392,-6920,772,-1.00,-1.0
6434,16776,-7340,-1800,-1.00,-1.0
6436,11504,5208,-14868,-1.00,-1.0
6438,17464,-3192,4524,-1.00,-1.0
6440,13496,2140,-15352,-1.00,-1.0
6442,14884,1548,788,-1.00,-1.0
6447,19604,3092,-3752,-1.00,-1.0
6449,16476,10484,-3524,-1.00,-1.0
6451,17840,1368,1540,-1.00,-1.0
6453,19860,6056,2628,-1.00,-1.0
6455,17384,-3540,12716,-1.00,-1.0
6457,14800,-3608,-9152,-1.00,-1.0
6458,13320,2444,-5408,-1.00,-1.0
6460,16932,-9724,6168,-1.00,-1.0
6462,17796,-5088,-28,-1.00,-1.0
6464,14180,2380,-9376,-1.00,-1.0
6466,20396,-9288,12664,-1.00,-1.0
6468,16200,-396,-4788,-1.00,-1.0
6470,14824,6604,-2408,-1.00,-1.0
6472,19596,84,5180,-1.00,-1.0
6474,19048,648,840,-1.00,-1.0
6478,20464,-2420,10788,-1.00,-1.0
6480,16796,3276,-3560,-1.00,-1.0
6482,13100,-1308,636,-1.00,-1.0
6484,18496,-4672,2756,-1.00,-1.0
6486,14460,1884,4896,-1.00,-1.0
6488,19788,6272,8812,-1.00,-1.0
6490,18596,-636,-1780,-1.00,-1.0
6492,16336,7224,-3828,-1.00,-1.0
6494,13592,-104,2840,-1.00,-1.0
6496,15576,-2260,1548,-1.00,-1.0
6498,13064,3048,-464,-1.00,-1.0
6500,15948,-7220,7132,-1.00,-1.0
6502,19072,-10044,1412,-1.00,-1.0
6504,14748,1304,-8664,-1.00,-1.0
6505,14612,-3956,-248,-1.00,-1.0
6507,21776,-9400,-5420,-1.00,-1.0
6512,12304,-1092,-14096,-1.00,-1.0
6514,17404,7140,1244,-1.00,-1.0
6515,19916,-272,17072,-1.00,-1.0
6517,16952,2316,-12732,-1.00,-1.0
6519,14996,11676,-8,-1.00,-1.0
6521,18724,-2856,9512,-1.00,-1.0
6523,20156,1560,7440,-1.00,-1.0
6525,10296,10200,-11320,-1.00,-1.0
6527,16556,-3900,11272,-1.00,-1.0
6529,21136,-8828,7364,-1.00,-1.0
6531,13940,4600,-1724,-1.00,-1.0
6533,15308,-3948,-7940,-1.00,-1.0
6535,21340,-8600,2688,-1.00,-1.0
6537,12444,-48,-3168,-1.00,-1.0
6539,21412,-5984,21044,-1.00,-1.0
6543,18072,2296,6152,-1.00,-1.0
6545,17148,2756,-12184,-1.00,-1.0
6547,15660,-2204,-996,-1.00,-1.0
6549,10816,236,-3420,-1.00,-1.0
6551,16156,-6864,-5000,-1.00,-1.0
6553,18396,880,4300,-1.00,-1.0
6555,18456,-5132,5404,-1.00,-1.0
6557,18436,1940,104,-1.00,-1.0
6559,14520,9632,-20980,-1.00,-1.0
6561,22320,-2944,21548,-1.00,-1.0
6563,17800,340,-12408,-1.00,-1.0
6564,14868,10960,-1232,-1.00,-1.0
6566,19652,-8268,10980,-1.00,-1.0
6568,19228,-4548,11256,-1.00,-1.0
6570,11140,4112,1668,-1.00,-1.0
6572,15888,-5916,6516,-1.00,-1.0
6576,9820,2808,-8976,-1.00,-1.0
6578,14976,-4104,460,-1.00,-1.0
6580,22024,-3124,10732,-1.00,-1.0
6582,17084,1032,4140,-1.00,-1.0
6584,15996,-3372,-6252,-1.00,-1.0
6586,20736,3480,1060,-1.00,-1.0
6588,19736,-2096,5788,-1.00,-1.0
6590,18308,3548,-6992,-1.00,-1.0
6592,13176,11808,-6508,-1.00,-1.0
6594,16792,-6076,16416,-1.00,-1.0
6596,15932,-3996,-8180,-1.00,-1.0
6598,19984,-1296,-428,-1.00,-1.0
6600,18964,-4632,14032,-1.00,-1.0
6602,13172,144,-13732,-1.00,-1.0
6604,15468,5880,6196,-1.00,-1.0
6608,16312,536,1120,-1.00,-1.0
6610,17496,-7504,16176,-1.00,-1.0
6612,18908,-1088,4296,-1.00,-1.0
6614,19552,1304,8164,-1.00,-1.0
6616,10500,9888,-14088,-1.00,-1.0
6618,16548,-792,10804,-1.00,-1.0
6620,26080,-5200,20400,-1.00,-1.0
6621,16200,5688,-7784,-1.00,-1.0
6624,14512,-1348,-10456,-1.00,-1.0
6626,23752,-10104,8408,-1.00,-1.0
6627,10284,2168,-5628,-1.00,-1.0
6629,10444,1400,-6776,-1.00,-1.0
6631,19228,-460,7464,-1.00,-1.0
6633,21036,-5508,16792,-1.00,-1.0
6635,14788,-844,-18972,-1.00,-1.0
6637,19312,5600,3836,-1.00,-1.0
6641,16832,7588,-8856,-1.00,-1.0
6643,13632,6948,-5040,-1.00,-1.0
6645,20756,-5464,17384,-1.00,-1.0
6647,17472,1616,-7292,-1.00,-1.0
6649,8460,13172,-12264,-1.00,-1.0
6651,18264,-5612,12060,-1.00,-1.0
6653,23024,-9068,10924,-1.00,-1.0
6655,12172,2708,888,-1.00,-1.0
6657,13072,-6296,-6676,-1.00,-1.0
6659,18788,736,3140,-1.00,-1.0
6661,14136,9844,4724,-1.00,-1.0
6663,18452,-11480,11464,-1.00,-1.0
6665,17352,2376,-4896,-1.00,-1.0
6667,11224,6312,-9604,-1.00,-1.0
6669,17932,-8760,11216,-1.00,-1.0
6673,19784,168,8428,-1.00,-1.0
6675,16564,5052,-8744,-1.00,-1.0
6677,20116,-7612,2280,-1.00,-1.0
6679,13860,-60,-256,-1.00,-1.0
6681,13188,424,-8940,-1.00,-1.0
6683,17080,2844,-4188,-1.00,-1.0
6685,21676,-2676,18356,-1.00,-1.0
6686,17036,-488,-10172,-1.00,-1.0
6688,18028,7524,3732,-1.00,-1.0
6690,21848,-5904,10280,-1.00,-1.0
6692,17092,6956,-11164,-1.00,-1.0
6694,12192,10580,-11944,-1.00,-1.0
6696,18916,-396,8816,-1.00,-1.0
6698,20800,2372,5056,-1.00,-1.0
6700,8388,13268,-13708,-1.00,-1.0
6702,19004,-4352,18104,-1.00,-1.0
6706,12872,4680,16,-1.00,-1.0
6708,15900,-4232,-9332,-1.00,-1.0
6710,22424,-10928,20512,-1.00,-1.0
6712,14468,-8124,2864,-1.00,-1.0
6714,13656,-3356,6720,-1.00,-1.0
6716,16128,-7160,-8180,-1.00,-1.0
6718,13604,10020,-8904,-1.00,-1.0
6720,18900,-1960,17300,-1.00,-1.0
6722,19480,1100,-3148,-1.00,-1.0
6724,10504,12896,-12904,-1.00,-1.0
6726,18076,-3432,7296,-1.00,-1.0
6728,20368,284,-140,-1.00,-1.0
6730,11928,9920,-1092,-1.00,-1.0
6732,16388,-3568,792,-1.00,-1.0
6733,23836,-6236,15684,-1.00,-1.0
6737,13508,-2732,-3576,-1.00,-1.0
6739,18676,-5164,660,-1.00,-1.0
6741,12132,2708,3280,-1.00,-1.0
6743,12900,-3860,-1332,-1.00,-1.0
6745,19928,-7576,9784,-1.00,-1.0
6747,18308,-6724,13656,-1.00,-1.0
6749,14784,-6696,-5556,-1.00,-1.0
6751,12260,-1760,-5932,-1.00,-1.0
6753,19780,-12344,20884,-1.00,-1.0
6755,14960,-4624,-8580,-1.00,-1.0
6757,13528,2076,-7412,-1.00,-1.0
6759,13124,6332,-10564,-1.00,-1.0
6761,17228,108,-2008,-1.00,-1.0
6763,24392,-3696,13468,-1.00,-1.0
6765,14528,3868,-2436,-1.00,-1.0
6767,11516,6200,-11652,-1.00,-1.0
6771,17192,-520,-1240,-1.00,-1.0
6773,13496,-3792,-7912,-1.00,-1.0
6775,22304,-1832,3988,-1.00,-1.0
6777,21292,-956,8824,-1.00,-1.0
6779,12076,1756,-13756,-1.00,-1.0
6781,14448,3616,-6712,-1.00,-1.0
6782,15748,3572,10592,-1.00,-1.0
6785,18608,2964,1152,-1.00,-1.0
6787,20360,-1376,12112,-1.00,-1.0
6788,16328,-3948,7628,-1.00,-1.0
6790,11748,8888,-18136,-1.00,-1.0
6792,14504,2348,-2160,-1.00,-1.0
6794,16544,1808,5012,-1.00,-1.0
6796,19204,1636,13248,-1.00,-1.0
6798,19232,-4164,5088,-1.00,-1.0
6802,12716,4712,-9036,-1.00,-1.0
6804,19464,-1572,3156,-1.00,-1.0
6806,16112,2796,4684,-1.00,-1.0
6808,16688,2240,7212,-1.00,-1.0
6810,17800,120,4548,-1.00,-1.0
6812,13284,940,2908,-1.00,-1.0
6814,17000,1044,-1624,-1.00,-1.0
6816,19996,-1208,260,-1.00,-1.0
6818,18316,-2896,9568,-1.00,-1.0
6820,15408,5288,-5932,-1.00,-1.0
6822,11096,7320,-10404,-1.00,-1.0
6824,13812,2932,4320,-1.00,-1.0
6826,22320,2260,12188,-1.00,-1.0
6828,21548,-808,2464,-1.00,-1.0
6830,14108,-1472,-4232,-1.00,-1.0
6832,21356,624,12956,-1.00,-1.0
6836,15972,2156,8156,-1.00,-1.0
6838,19868,-416,6660,-1.00,-1.0
6840,14628,1068,-11056,-1.00,-1.0
6842,16744,-2768,3692,-1.00,-1.0
6844,23392,-8976,21232,-1.00,-1.0
6846,16280,-4876,3300,-1.00,-1.0
6847,10612,-6988,-8224,-1.00,-1.0
6850,14100,-2676,3072,-1.00,-1.0
6851,17672,-6296,-1476,-1.00,-1.0
6853,18132,-1000,924,-1.00,-1.0
6855,20356,-7096,14660,-1.00,-1.0
6857,15840,-1444,-8036,-1.00,-1.0
6859,14608,-4936,1824,-1.00,-1.0
6861,18556,-7688,9640,-1.00,-1.0
6863,14244,4268,-4232,-1.00,-1.0
6867,17720,-4568,15596,-1.00,-1.0
6869,15720,2116,-428,-1.00,-1.0
6871,17784,-944,3880,-1.00,-1.0
6873,17480,3716,4996,-1.00,-1.0
6875,12700,6320,-6984,-1.00,-1.0
6877,16040,7136,1792,-1.00,-1.0
6879,17644,6256,9540,-1.00,-1.0
6881,19572,7008,4964,-1.00,-1.0
6883,20336,4288,3940,-1.00,-1.0
6885,16476,7944,-2280,-1.00,-1.0
6887,15496,12528,-12172,-1.00,-1.0
6889,19288,3760,4072,-1.00,-1.0
6891,21652,4036,6820,-1.00,-1.0
6893,19108,6148,104,-1.00,-1.0
6895,16624,-3156,508,-1.00,-1.0
6897,13296,1104,-3300,-1.00,-1.0
6901,21276,-4204,5500,-1.00,-1.0
6903,17780,-5040,916,-1.00,-1.0
6905,16924,-5880,-1424,-1.00,-1.0
6907,17692,8632,-3060,-1.00,-1.0
6909,20868,3832,8912,-1.00,-1.0
6911,20220,5144,4248,-1.00,-1.0
6912,17320,7820,3176,-1.00,-1.0
6914,17508,2564,-7864,-1.00,-1.0
6916,20224,5752,3392,-1.00,-1.0
6918,18280,3244,-12476,-1.00,-1.0
6920,19132,144,2348,-1.00,-1.0
6922,21064,-5048,3496,-1.00,-1.0
6924,15364,1400,-4204,-1.00,-1.0
6926,14808,-5420,-5084,-1.00,-1.0
6928,15440,-5460,2768,-1.00,-1.0
6930,13884,-900,2636,-1.00,-1.0
6934,16740,-6856,15048,-1.00,-1.0
6936,15424,-1488,-1652,-1.00,-1.0
6938,14268,332,364,-1.00,-1.0
6940,15276,-1208,-1712,-1.00,-1.0
6942,20456,3224,9032,-1.00,-1.0
6944,22024,2412,-5076,-1.00,-1.0
6946,17616,4716,-6500,-1.00,-1.0
6948,20004,2204,-7300,-1.00,-1.0
6950,17028,5384,-4500,-1.00,-1.0
6952,16304,-1948,-972,-1.00,-1.0
6954,17012,-2504,8320,-1.00,-1.0
6956,15772,-3796,12076,-1.00,-1.0
6958,8532,-4912,-7680,-1.00,-1.0
6960,11988,312,8084,-1.00,-1.0
6962,20148,-3796,9352,-1.00,-1.0
6966,16028,1152,-4748,-1.00,-1.0
6968,20624,1108,-5372,-1.00,-1.0
6970,21460,2360,-264,-1.00,-1.0
6971,13720,-7012,12032,-1.00,-1.0
6974,19788,1272,10644,-1.00,-1.0
6976,17080,7684,-4632,-1.00,-1.0
6977,20144,-2392,-9128,-1.00,-1.0
6979,21640,-4704,4660,-1.00,-1.0
6981,21388,-1656,-5460,-1.00,-1.0
6983,14616,5060,-5772,-1.00,-1.0
6985,13776,-8756,9552,-1.00,-1.0
6987,12428,-2780,7748,-1.00,-1.0
6989,12312,8540,-2308,-1.00,-1.0
6991,16924,1408,-6176,-1.00,-1.0
6993,21276,-364,3428,-1.00,-1.0
6995,24228,504,-4096,-1.00,-1.0
6999,13588,-3080,1208,-1.00,-1.0
7001,13376,-408,10028,-1.00,-1.0
7003,13752,5364,6764,-1.00,-1.0
7005,15944,988,-4292,-1.00,-1.0
7007,20268,56,1608,-1.00,-1.0
7009,26332,-5312,-1540,-1.00,-1.0
7010,9608,7768,-7880,-1.00,-1.0
7012,17852,-2944,14408,-1.00,-1.0
7014,21256,-2804,-3280,-1.00,-1.0
7016,24392,6800,-64,-1.00,-1.0
7018,16324,-736,-16012,-1.00,-1.0
7020,12344,-868,4240,-1.00,-1.0
7022,14548,-1972,15860,-1.00,-1.0
7024,11256,7292,-716,-1.00,-1.0
7026,16856,28,-624,-1.00,-1.0
7030,24536,-400,232,-1.00,-1.0
7032,15028,6296,-18132,-1.00,-1.0
7034,12772,-4868,15884,-1.00,-1.0
7036,13452,-4464,7428,-1.00,-1.0
7038,13744,4920,-1916,-1.00,-1.0
7040,22068,-6024,3504,-1.00,-1.0
7042,21240,-3404,-2004,-1.00,-1.0
7044,15984,2856,-7084,-1.00,-1.0
7046,10848,5136,-5828,-1.00,-1.0
7048,13684,-4844,24384,-1.00,-1.0
7050,18740,-5028,10588,-1.00,-1.0
7052,20780,3400,-7252,-1.00,-1.0
7054,17832,-2196,-15748,-1.00,-1.0
7056,15956,-60,-144,-1.00,-1.0
7058,13580,4048,2820,-1.00,-1.0
7059,17316,1848,7216,-1.00,-1.0
7064,17296,428,-15720,-1.00,-1.0
7066,14844,5848,-9208,-1.00,-1.0
7068,13752,-1924,2156,-1.00,-1.0
7069,13604,-1216,6168,-1.00,-1.0
7072,20308,-4240,16308,-1.00,-1.0
7074,25456,-8436,5104,-1.00,-1.0
7075,13656,4504,196,-1.00,-1.0
7077,24448,-4836,22948,-1.00,-1.0
7079,20984,-6356,2600,-1.00,-1.0
7081,15836,-820,-6196,-1.00,-1.0
7083,10472,1512,-17360,-1.00,-1.0
7085,13036,-5076,13480,-1.00,-1.0
7087,21084,-7504,9660,-1.00,-1.0
7089,21428,944,-3836,-1.00,-1.0
7091,19448,-4124,4276,-1.00,-1.0
7095,10172,9856,-13480,-1.00,-1.0
7097,20540,-376,7536,-1.00,-1.0
7099,22260,-3108,10980,-1.00,-1.0
7101,14764,2600,-4756,-1.00,-1.0
7103,16920,1068,2940,-1.00,-1.0
7105,16688,420,-3288,-1.00,-1.0
7107,16812,184,1320,-1.00,-1.0
7109,21512,-3496,9356,-1.00,-1.0
7111,18180,4168,888,-1.00,-1.0
7113,10280,3676,-11388,-1.00,-1.0
7115,15200,-7064,7304,-1.00,-1.0
7117,17744,3424,388,-1.00,-1.0
7119,19784,2548,2924,-1.00,-1.0
7121,16104,-784,-4780,-1.00,-1.0
7122,14396,-1404,444,-1.00,-1.0
7124,17488,-5052,8972,-1.00,-1.0
7129,14720,-1140,-4528,-1.00,-1.0
7131,13884,-1788,820,-1.00,-1.0
7132,17528,2144,5940,-1.00,-1.0
7134,19368,840,6268,-1.00,-1.0
7136,16040,808,-1684,-1.00,-1.0
7138,18156,-3684,9332,-1.00,-1.0
7140,16468,872,-3044,-1.00,-1.0
7142,18900,-1284,8824,-1.00,-1.0
7144,14196,-40,-10132,-1.00,-1.0
7146,15268,-568,4368,-1.00,-1.0
7148,21980,-7688,9900,-1.00,-1.0
7150,17456,5216,-4904,-1.00,-1.0
7152,11876,2980,-13108,-1.00,-1.0
7154,19656,-11372,18684,-1.00,-1.0
7156,17188,2272,4468,-1.00,-1.0
7158,13036,7168,-12040,-1.00,-1.0
7162,18732,-5800,8172,-1.00,-1.0
7164,17208,-444,3580,-1.00,-1.0
7166,15568,2008,-6392,-1.00,-1.0
7168,12280,-392,-3448,-1.00,-1.0
7170,17080,-6148,7120,-1.00,-1.0
7172,19900,3736,2000,-1.00,-1.0
7174,14380,1472,-7504,-1.00,-1.0
7176,15540,-1748,-724,-1.00,-1.0
7178,18436,36,4352,-1.00,-1.0
7180,18808,-2192,4236,-1.00,-1.0
7181,17060,2612,-6572,-1.00,-1.0
7183,15432,4480,-9660,-1.00,-1.0
7185,16080,-3056,3876,-1.00,-1.0
7187,17148,1228,1076,-1.00,-1.0
7189,19624,-1128,5888,-1.00,-1.0
7191,16144,452,-12756,-1.00,-1.0
7195,15820,1076,880,-1.00,-1.0
7197,16964,4496,112,-1.00,-1.0
7199,16796,2748,-4164,-1.00,-1.0
7201,18172,-1280,8704,-1.00,-1.0
7203,16780,5692,-7824,-1.00,-1.0
7205,21128,-524,12020,-1.00,-1.0
7207,17180,316,-10848,-1.00,-1.0
7209,14720,1876,2628,-1.00,-1.0
7211,17344,-2216,4836,-1.00,-1.0
7213,16564,1256,4368,-1.00,-1.0
7215,13784,1512,-8452,-1.00,-1.0
7217,18524,-76,2080,-1.00,-1.0
7219,16508,2500,76,-1.00,-1.0
7221,19472,84,-1596,-1.00,-1.0
7223,18376,4280,-6612,-1.00,-1.0
7227,16668,576,-1308,-1.00,-1.0
7229,18360,-308,6204,-1.00,-1.0
7231,15448,-2216,-4572,-1.00,-1.0
7233,13328,2128,-4052,-1.00,-1.0
7235,15588,-664,4164,-1.00,-1.0
7237,23088,-2272,6032,-1.00,-1.0
7238,16936,4396,-6540,-1.00,-1.0
7240,16148,140,-424,-1.00,-1.0
7242,18788,-484,196,-1.00,-1.0
7244,17672,1732,1252,-1.00,-1.0
7246,17952,1688,-6220,-1.00,-1.0
7248,18684,-4768,4100,-1.00,-1.0
7250,18220,972,-2156,-1.00,-1.0
7252,15912,2668,4992,-1.00,-1.0
7254,14628,-2492,-3584,-1.00,-1.0
7256,17132,1616,-824,-1.00,-1.0
7260,17224,-1168,-812,-1.00,-1.0
7262,18408,1444,-3328,-1.00,-1.0
7264,18040,-7072,8844,-1.00,-1.0
7266,14816,-68,-6176,-1.00,-1.0
7268,13488,5976,528,-1.00,-1.0
7270,18468,-2716,512,-1.00,-1.0
7272,19600,740,780,-1.00,-1.0
7273,18348,-2852,12136,-1.00,-1.0
7275,18696,316,-2640,-1.00,-1.0
7277,16880,2620,-5476,-1.00,-1.0
7279,14264,-3908,-388,-1.00,-1.0
7281,15824,2400,-2892,-1.00,-1.0
7283,18676,-4408,12372,-1.00,-1.0
7285,16504,80,-3504,-1.00,-1.0
7287,14848,4840,-7132,-1.00,-1.0
7289,20212,-7528,10440,-1.00,-1.0
7293,16340,4144,4788,-1.00,-1.0
7295,15564,-788,-12744,-1.00,-1.0
7297,16216,4528,1088,-1.00,-1.0
7299,16636,-2604,9044,-1.00,-1.0
7301,20032,-852,5796,-1.00,-1.0
7303,17440,12,-2404,-1.00,-1.0
7305,14896,-5116,3172,-1.00,-1.0
7307,15728,-2952,-2952,-1.00,-1.0
7309,17272,-2232,6024,-1.00,-1.0
7311,17092,-2548,-4068,-1.00,-1.0
7313,14440,3080,-7268,-1.00,-1.0
7315,17324,-3360,12304,-1.00,-1.0
7317,21744,-4452,4704,-1.00,-1.0
7319,15056,8300,-14588,-1.00,-1.0
7320,13816,836,-2780,-1.00,-1.0
7325,16676,7524,-4296,-1.00,-1.0
7327,16916,-16,-40,-1.00,-1.0
7329,17364,-3100,-2028,-1.00,-1.0
7330,15132,2508,1764,-1.00,-1.0
7333,17688,628,-2532,-1.00,-1.0
7334,19596,-2320,3048,-1.00,-1.0
7336,15052,4228,-2536,-1.00,-1.0
7338,14936,1492,-4220,-1.00,-1.0
7340,18392,5196,-1308,-1.00,-1.0
7342,22548,-1276,11876,-1.00,-1.0
7344,13352,-868,-13492,-1.00,-1.0
7346,14900,984,3140,-1.00,-1.0
7348,17500,-4936,7436,-1.00,-1.0
7350,18856,1340,-332,-1.00,-1.0
7352,17296,-20,-152,-1.00,-1.0
7354,13096,-1276,-6104,-1.00,-1.0
7358,19788,916,3688,-1.00,-1.0
7360,19344,1188,-2640,-1.00,-1.0
7362,17628,3264,48,-1.00,-1.0
7364,17288,2988,-7428,-1.00,-1.0
7366,18896,2500,436,-1.00,-1.0
7368,19584,-5284,8112,-1.00,-1.0
7370,13420,5832,-12608,-1.00,-1.0
7372,16948,-964,6840,-1.00,-1.0
7374,21860,-6444,11756,-1.00,-1.0
7376,13108,3600,-15892,-1.00,-1.0
7378,13220,3320,-10092,-1.00,-1.0
7380,24048,-9444,27544,-1.00,-1.0
7382,17608,-4340,-2304,-1.00,-1.0
7384,10384,6440,-8676,-1.00,-1.0
7385,16644,-3052,-504,-1.00,-1.0
7387,24776,-8816,21152,-1.00,-1.0
7392,11004,7416,-3416,-1.00,-1.0
7394,20284,-4108,9736,-1.00,-1.0
7395,20028,-5276,18200,-1.00,-1.0
7397,9480,5620,-19144,-1.00,-1.0
7399,15128,3072,4244,-1.00,-1.0
7401,23248,-11984,8308,-1.00,-1.0
7403,16564,4628,-7036,-1.00,-1.0
7405,12160,5580,-8140,-1.00,-1.0
7407,20904,-4280,14652,-1.00,-1.0
7409,20180,-4224,2776,-1.00,-1.0
7411,17192,-996,-3384,-1.00,-1.0
7413,19596,-3404,11824,-1.00,-1.0
7415,15060,2944,-3592,-1.00,-1.0
7417,13988,6032,-1904,-1.00,-1.0
7419,17824,-1948,3052,-1.00,-1.0
7423,12220,8820,-25232,-1.00,-1.0
7425,16044,6016,9036,-1.00,-1.0
7427,21564,-5300,-6260,-1.00,-1.0
7429,16840,10336,1024,-1.00,-1.0
7431,19536,-720,10428,-1.00,-1.0
7433,19080,2548,-1656,-1.00,-1.0
7435,16396,-64,-2344,-1.00,-1.0
7437,14152,-2876,-3788,-1.00,-1.0
7439,15788,2984,3308,-1.00,-1.0
7441,19840,-5620,9932,-1.00,-1.0
7443,18228,-2264,976,-1.00,-1.0
7445,11840,3692,-14748,-1.00,-1.0
7447,17528,-4328,13808,-1.00,-1.0
7449,22204,-6208,8820,-1.00,-1.0
7450,12488,7992,-14312,-1.00,-1.0
7452,15092,-928,3368,-1.00,-1.0
7457,14912,9424,-7424,-1.00,-1.0
7459,14432,-560,-5644,-1.00,-1.0
7461,19396,-5244,6100,-1.00,-1.0
7463,17844,-832,7944,-1.00,-1.0
7465,12536,3704,-11508,-1.00,-1.0
7467,17652,1572,3000,-1.00,-1.0
7468,19124,-3812,2984,-1.00,-1.0
7471,15276,1232,4360,-1.00,-1.0
7472,14120,6756,-16272,-1.00,-1.0
7474,20852,2560,11288,-1.00,-1.0
7476,18920,-5472,-4964,-1.00,-1.0
7478,15324,6872,-3812,-1.00,-1.0
7480,16104,-1916,4572,-1.00,-1.0
7482,20096,-5116,9836,-1.00,-1.0
7484,17800,5280,-2000,-1.00,-1.0
7489,18820,-2220,9544,-1.00,-1.0
7491,19192,-2756,5900,-1.00,-1.0
7493,14744,4912,-8308,-1.00,-1.0
7495,14640,-424,2072,-1.00,-1.0
7497,16800,-1664,-3056,-1.00,-1.0
7499,21836,576,15780,-1.00,-1.0
7501,17124,-364,-14880,-1.00,-1.0
7503,14796,6132,-5704,-1.00,-1.0
7505,18592,-3724,9532,-1.00,-1.0
7507,20948,-4080,9984,-1.00,-1.0
7508,13480,6732,-14856,-1.00,-1.0
7510,13532,788,1500,-1.00,-1.0
7512,19404,-3568,5388,-1.00,-1.0
7514,21396,108,10904,-1.00,-1.0
7516,15536,-452,-11484,-1.00,-1.0
7518,15868,2056,-3728,-1.00,-1.0
7522,18000,-1080,5176,-1.00,-1.0
7524,18048,1712,-8900,-1.00,-1.0
7526,14988,1548,-1344,-1.00,-1.0
7528,16632,-7008,6364,-1.00,-1.0
7530,18628,3344,3368,-1.00,-1.0
7532,16008,2348,-4612,-1.00,-1.0
7534,14392,-3536,-3284,-1.00,-1.0
7536,16228,708,4928,-1.00,-1.0
7538,20876,-4668,12556,-1.00,-1.0
7540,15908,3732,-13324,-1.00,-1.0
7542,13056,824,-1344,-1.00,-1.0
7544,18952,-10148,12096,-1.00,-1.0
7546,22360,-2924,15716,-1.00,-1.0
7548,14508,1540,-14240,-1.00,-1.0
7549,12484,-904,-540,-1.00,-1.0
7554,19612,3108,8824,-1.00,-1.0
7556,16828,-276,-5956,-1.00,-1.0
7558,15900,440,-1616,-1.00,-1.0
7559,16096,2216,6536,-1.00,-1.0
7561,16932,1104,-9108,-1.00,-1.0
7563,18568,5452,720,-1.00,-1.0
7565,18708,-6024,7572,-1.00,-1.0
7567,17160,5512,-2868,-1.00,-1.0
7569,16268,5380,-6036,-1.00,-1.0
7571,15816,-5224,1112,-1.00,-1.0
7573,15748,1172,464,-1.00,-1.0
7575,17412,-2404,5808,-1.00,-1.0
7577,17444,664,-5840,-1.00,-1.0
7579,18136,3768,-356,-1.00,-1.0
7581,19720,-7552,14372,-1.00,-1.0
7583,14140,4296,-8032,-1.00,-1.0
7587,19232,-6348,4328,-1.00,-1.0
7589,19520,-1468,4544,-1.00,-1.0
7591,18028,-4892,8788,-1.00,-1.0
7593,16864,388,-460,-1.00,-1.0
7595,11904,-88,-10032,-1.00,-1.0
7597,17292,-1452,-1568,-1.00,-1.0
7599,24160,-1880,18252,-1.00,-1.0
7601,16884,-1800,1440,-1.00,-1.0
7603,12360,228,-6836,-1.00,-1.0
7605,16060,-964,2960,-1.00,-1.0
7607,17984,4744,-4728,-1.00,-1.0
7608,16028,2876,-3320,-1.00,-1.0
7610,18608,-3312,7244,-1.00,-1.0
7612,22648,-6932,18940,-1.00,-1.0
7614,11332,8696,-18580,-1.00,-1.0
7619,18364,-2844,-4568,-1.00,-1.0
7621,24528,2060,21476,-1.00,-1.0
7622,17240,-2148,-4600,-1.00,-1.0
7624,14732,-68,-216,-1.00,-1.0
7626,15884,-4584,1936,-1.00,-1.0
7628,14304,6824,-13900,-1.00,-1.0
7630,16384,2772,2428,-1.00,-1.0
7632,19740,-7792,8160,-1.00,-1.0
7634,22052,-1972,18948,-1.00,-1.0
7636,13528,-384,-9240,-1.00,-1.0
7638,12216,976,-7428,-1.00,-1.0
7640,17916,-592,8884,-1.00,-1.0
7642,19708,-3632,5640,-1.00,-1.0
7644,15560,4804,-7052,-1.00,-1.0
7646,13240,-3456,-1956,-1.00,-1.0
7648,15104,3696,-8832,-1.00,-1.0
7652,19548,-4620,6776,-1.00,-1.0
7654,14768,-1064,1416,-1.00,-1.0
7656,16932,-4776,3564,-1.00,-1.0
7658,17184,2460,-5036,-1.00,-1.0
7660,15484,-1116,-3156,-1.00,-1.0
7662,15868,928,-3984,-1.00,-1.0
7664,21684,-2372,16488,-1.00,-1.0
7665,16584,-2608,284,-1.00,-1.0
7668,14720,-1860,428,-1.00,-1.0
7670,18336,-296,-744,-1.00,-1.0
7671,16712,3024,-7900,-1.00,-1.0
7673,16208,1380,-4876,-1.00,-1.0
7675,15776,1044,3072,-1.00,-1.0
7677,18400,-1352,6564,-1.00,-1.0
7679,17964,2236,7488,-1.00,-1.0
7681,16868,-6200,3044,-1.00,-1.0
7685,16124,5948,-14168,-1.00,-1.0
7687,17400,492,-1076,-1.00,-1.0
7689,17176,1896,4440,-1.00,-1.0
7691,16720,3932,-3852,-1.00,-1.0
7693,18708,1228,15220,-1.00,-1.0
7695,17360,-8100,2512,-1.00,-1.0
7697,15540,6600,-6580,-1.00,-1.0
7699,16328,3568,-16708,-1.00,-1.0
7701,18984,-456,2208,-1.00,-1.0
7703,14876,720,3188,-1.00,-1.0
7705,20432,-8824,7340,-1.00,-1.0
7707,16272,5940,-14556,-1.00,-1.0
7709,15000,-588,-2352,-1.00,-1.0
7711,17984,-2236,-28,-1.00,-1.0
7713,19872,2108,13140,-1.00,-1.0
7717,14920,864,5268,-1.00,-1.0
7719,19076,-3860,5608,-1.00,-1.0
7721,17764,4816,-5432,-1.00,-1.0
7723,16784,-1988,-2600,-1.00,-1.0
7725,17656,1132,-1944,-1.00,-1.0
7727,18796,632,3288,-1.00,-1.0
7728,14744,-1516,-364,-1.00,-1.0
7730,17116,-2140,6176,-1.00,-1.0
7732,18636,752,4704,-1.00,-1.0
7734,15992,-1168,804,-1.00,-1.0
7736,14964,-516,-7280,-1.00,-1.0
7738,20064,-1952,9376,-1.00,-1.0
7740,18416,3264,-12556,-1.00,-1.0
7742,15060,-1512,3208,-1.00,-1.0
7744,15716,-3948,2264,-1.00,-1.0
7746,19124,2104,13168,-1.00,-1.0
7750,15920,-3572,2176,-1.00,-1.0
7752,19700,-3140,5948,-1.00,-1.0
7754,16812,5300,-3928,-1.00,-1.0
7756,15792,688,7864,-1.00,-1.0
7758,16644,-5684,3052,-1.00,-1.0
7760,18888,3924,4488,-1.00,-1.0
7762,17036,1508,-9680,-1.00,-1.0
7764,17208,-840,-2724,-1.00,-1.0
7766,19296,-3456,8948,-1.00,-1.0
7768,16280,7588,-13236,-1.00,-1.0
7769,15064,-64,2684,-1.00,-1.0
7771,16768,-6768,4036,-1.00,-1.0
7773,18676,4784,9332,-1.00,-1.0
7775,14660,-1076,-6624,-1.00,-1.0
7777,15756,-2764,2228,-1.00,-1.0
7781,16640,4656,-8992,-1.00,-1.0
7783,16572,-2476,-4348,-1.00,-1.0
7785,20288,-5760,16088,-1.00,-1.0
7787,15288,7736,-15056,-1.00,-1.0
7789,13372,880,-360,-1.00,-1.0
7791,17356,-7372,6124,-1.00,-1.0
7793,17252,1376,-4852,-1.00,-1.0
7795,18036,6520,-4408,-1.00,-1.0
7797,15208,-2848,-5784,-1.00,-1.0
7799,18512,-3000,14600,-1.00,-1.0
7801,16588,6788,-2724,-1.00,-1.0
7803,14536,1628,4724,-1.00,-1.0
7805,15908,-5856,-456,-1.00,-1.0
7807,20288,2508,9072,-1.00,-1.0
7808,18232,1552,-6500,-1.00,-1.0
7810,15076,-3320,-6280,-1.00,-1.0
7815,16792,7164,-9160,-1.00,-1.0
