timestamp_ms,accel_x,accel_y,accel_z,voltage,soc
2,17036,-20,648,-1.00,-1.0
4,17008,-88,676,-1.00,-1.0
6,16984,-64,632,-1.00,-1.0
12,16964,12,684,-1.00,-1.0
14,17040,-32,608,-1.00,-1.0
16,16952,-84,740,-1.00,-1.0
18,16860,-24,708,-1.00,-1.0
20,17012,-80,736,-1.00,-1.0
22,16948,-36,708,-1.00,-1.0
24,16924,-140,556,-1.00,-1.0
26,17000,-12,644,-1.00,-1.0
27,16976,-16,600,-1.00,-1.0
29,16860,-48,644,-1.00,-1.0
31,16976,-76,516,-1.00,-1.0
33,16980,-56,648,-1.00,-1.0
35,17048,-144,468,-1.00,-1.0
37,16932,8,564,-1.00,-1.0
39,16956,56,760,-1.00,-1.0
41,16964,-64,644,-1.00,-1.0
43,17024,-112,620,-1.00,-1.0
45,16932,-48,476,-1.00,-1.0
47,16976,-60,712,-1.00,-1.0
51,16996,-32,672,-1.00,-1.0
53,17052,-44,572,-1.00,-1.0
55,16996,-20,636,-1.00,-1.0
57,17044,-36,552,-1.00,-1.0
59,16948,-100,564,-1.00,-1.0
61,16980,32,584,-1.00,-1.0
63,17036,-84,704,-1.00,-1.0
64,16992,-108,640,-1.00,-1.0
66,16940,-28,692,-1.00,-1.0
68,16964,40,508,-1.00,-1.0
70,17072,16,724,-1.00,-1.0
72,17020,-120,732,-1.00,-1.0
74,17040,28,652,-1.00,-1.0
76,17016,40,600,-1.00,-1.0
78,17004,-16,516,-1.00,-1.0
80,17076,12,528,-1.00,-1.0
82,17052,-72,548,-1.00,-1.0
84,17040,-148,544,-1.00,-1.0
88,17028,-20,544,-1.00,-1.0
90,17048,-52,600,-1.00,-1.0
92,17020,8,652,-1.00,-1.0
94,16980,-24,572,-1.00,-1.0
96,16936,-20,712,-1.00,-1.0
98,16916,-116,588,-1.00,-1.0
100,16996,44,680,-1.00,-1.0
102,17008,-12,620,-1.00,-1.0
103,16984,12,572,-1.00,-1.0
106,16992,0,684,-1.00,-1.0
108,16980,-116,580,-1.00,-1.0
109,17036,-48,496,-1.00,-1.0
111,16980,-160,520,-1.00,-1.0
113,16964,-52,512,-1.00,-1.0
115,16956,-20,468,-1.00,-1.0
117,17036,-32,716,-1.00,-1.0
119,17032,-4,740,-1.00,-1.0
121,16964,20,544,-1.00,-1.0
125,17056,-16,692,-1.00,-1.0
127,16996,-36,720,-1.00,-1.0
129,16992,-36,628,-1.00,-1.0
131,17016,-84,584,-1.00,-1.0
133,16988,-92,604,-1.00,-1.0
135,16948,-112,736,-1.00,-1.0
137,17008,-112,644,-1.00,-1.0
139,17108,28,792,-1.00,-1.0
141,16940,-76,600,-1.00,-1.0
143,16864,-100,724,-1.00,-1.0
145,17052,-92,600,-1.00,-1.0
147,16976,-92,660,-1.00,-1.0
148,16980,-80,604,-1.00,-1.0
151,16924,24,552,-1.00,-1.0
152,17036,-76,568,-1.00,-1.0
154,16976,-12,708,-1.00,-1.0
156,17004,-104,700,-1.00,-1.0
158,17064,8,568,-1.00,-1.0
162,17116,12,644,-1.00,-1.0
164,16988,-64,796,-1.00,-1.0
166,16956,-20,668,-1.00,-1.0
168,17120,-32,752,-1.00,-1.0
170,17004,-20,612,-1.00,-1.0
172,17076,-44,552,-1.00,-1.0
174,16952,112,672,-1.00,-1.0
176,16948,-16,660,-1.00,-1.0
178,17024,-20,564,-1.00,-1.0
180,16984,-92,524,-1.00,-1.0
182,16984,-76,612,-1.00,-1.0
184,17072,56,568,-1.00,-1.0
186,16976,-24,652,-1.00,-1.0
188,16980,-68,408,-1.00,-1.0
190,16916,-40,576,-1.00,-1.0
191,17004,-108,616,-1.00,-1.0
193,16972,-56,652,-1.00,-1.0
198,17036,-36,532,-1.00,-1.0
200,16984,36,672,-1.00,-1.0
201,17160,-92,668,-1.00,-1.0
203,17084,-136,668,-1.00,-1.0
205,16944,-72,672,-1.00,-1.0
207,16976,-8,504,-1.00,-1.0
209,16952,-136,524,-1.00,-1.0
211,16960,-52,656,-1.00,-1.0
213,17068,64,692,-1.00,-1.0
215,17024,-20,600,-1.00,-1.0
217,16960,-64,484,-1.00,-1.0
219,16956,-24,608,-1.00,-1.0
221,16936,-16,592,-1.00,-1.0
223,16980,-76,484,-1.00,-1.0
225,17048,-12,456,-1.00,-1.0
227,17000,-40,568,-1.00,-1.0
229,16888,12,696,-1.00,-1.0
231,16952,-96,588,-1.00,-1.0
235,16976,-52,520,-1.00,-1.0
237,17044,-16,712,-1.00,-1.0
239,16936,84,716,-1.00,-1.0
241,17056,-76,400,-1.00,-1.0
242,16996,-132,712,-1.00,-1.0
244,17020,4,532,-1.00,-1.0
246,16964,12,572,-1.00,-1.0
248,17044,40,652,-1.00,-1.0
250,16976,76,684,-1.00,-1.0
252,17012,-88,660,-1.00,-1.0
254,17044,0,624,-1.00,-1.0
256,16976,-88,476,-1.00,-1.0
258,16944,-40,584,-1.00,-1.0
260,16896,-64,708,-1.00,-1.0
262,17020,-76,772,-1.00,-1.0
264,16976,-40,536,-1.00,-1.0
266,17072,-88,448,-1.00,-1.0
268,17032,-36,368,-1.00,-1.0
272,16972,28,508,-1.00,-1.0
274,16980,24,628,-1.00,-1.0
276,16972,104,648,-1.00,-1.0
278,16972,-4,556,-1.00,-1.0
280,17020,-120,692,-1.00,-1.0
282,17100,-40,624,-1.00,-1.0
284,17044,-4,536,-1.00,-1.0
286,16968,-20,600,-1.00,-1.0
288,17052,40,668,-1.00,-1.0
290,17020,-48,744,-1.00,-1.0
292,16956,-128,556,-1.00,-1.0
294,17000,0,592,-1.00,-1.0
295,17008,-124,696,-1.00,-1.0
297,17000,-8,780,-1.00,-1.0
299,17068,-148,560,-1.00,-1.0
301,16924,-8,604,-1.00,-1.0
303,17036,8,648,-1.00,-1.0
305,17020,-20,680,-1.00,-1.0
309,17028,-64,648,-1.00,-1.0
311,16976,-96,532,-1.00,-1.0
313,17088,-60,628,-1.00,-1.0
315,16996,-24,652,-1.00,-1.0
317,16976,-44,648,-1.00,-1.0
319,16944,-60,620,-1.00,-1.0
321,16944,-72,640,-1.00,-1.0
323,16976,80,528,-1.00,-1.0
325,17016,-52,732,-1.00,-1.0
327,16940,-132,572,-1.00,-1.0
329,16920,4,472,-1.00,-1.0
331,16960,-24,668,-1.00,-1.0
332,17008,-8,860,-1.00,-1.0
334,16988,-52,696,-1.00,-1.0
336,16980,-16,660,-1.00,-1.0
338,16908,-80,628,-1.00,-1.0
340,17092,-12,540,-1.00,-1.0
342,17044,-8,744,-1.00,-1.0
346,16908,-16,748,-1.00,-1.0
348,17080,-132,576,-1.00,-1.0
350,16960,-12,660,-1.00,-1.0
352,16996,-52,524,-1.00,-1.0
354,17028,-68,512,-1.00,-1.0
356,16980,80,464,-1.00,-1.0
358,16956,8,564,-1.00,-1.0
360,16940,-16,628,-1.00,-1.0
361,17048,4,712,-1.00,-1.0
363,17012,-100,664,-1.00,-1.0
365,17096,28,628,-1.00,-1.0
367,17000,-100,428,-1.00,-1.0
369,16988,-28,628,-1.00,-1.0
371,17028,-68,532,-1.00,-1.0
373,17020,-64,560,-1.00,-1.0
375,16972,20,576,-1.00,-1.0
377,16972,32,536,-1.00,-1.0
379,16948,44,852,-1.00,-1.0
383,16928,-68,584,-1.00,-1.0
385,16932,-24,664,-1.00,-1.0
387,17024,28,492,-1.00,-1.0
389,17024,-24,672,-1.00,-1.0
391,16980,-76,612,-1.00,-1.0
393,17024,-40,632,-1.00,-1.0
395,17012,68,652,-1.00,-1.0
397,16940,28,664,-1.00,-1.0
399,17008,-40,656,-1.00,-1.0
401,17000,-40,608,-1.00,-1.0
403,17012,-52,580,-1.00,-1.0
404,17076,-32,716,-1.00,-1.0
406,16996,-100,660,-1.00,-1.0
408,16936,-28,524,-1.00,-1.0
410,16956,48,600,-1.00,-1.0
412,17000,-8,652,-1.00,-1.0
414,17060,-84,680,-1.00,-1.0
418,16992,24,556,-1.00,-1.0
420,17076,4,488,-1.00,-1.0
422,17100,-112,600,-1.00,-1.0
424,17012,-20,536,-1.00,-1.0
426,16984,-80,804,-1.00,-1.0
428,17036,24,584,-1.00,-1.0
430,16988,-64,484,-1.00,-1.0
432,16848,-140,496,-1.00,-1.0
434,16936,-116,688,-1.00,-1.0
436,17012,-16,592,-1.00,-1.0
438,16988,-252,728,-1.00,-1.0
440,17024,-128,592,-1.00,-1.0
442,16940,-56,556,-1.00,-1.0
443,16956,-96,568,-1.00,-1.0
446,16960,48,568,-1.00,-1.0
448,16924,-36,572,-1.00,-1.0
449,17044,-112,688,-1.00,-1.0
451,17000,-44,720,-1.00,-1.0
456,17020,48,628,-1.00,-1.0
457,16928,-112,512,-1.00,-1.0
459,16904,-92,696,-1.00,-1.0
461,17008,8,712,-1.00,-1.0
463,17068,-20,696,-1.00,-1.0
465,17012,-40,532,-1.00,-1.0
467,17032,-48,624,-1.00,-1.0
469,16964,-84,608,-1.00,-1.0
471,17080,64,636,-1.00,-1.0
473,17016,-28,600,-1.00,-1.0
475,16892,12,624,-1.00,-1.0
477,16984,-28,588,-1.00,-1.0
479,16984,-52,612,-1.00,-1.0
481,16932,-36,656,-1.00,-1.0
483,16940,-40,652,-1.00,-1.0
485,16968,24,524,-1.00,-1.0
487,17028,-20,712,-1.00,-1.0
488,17008,-44,676,-1.00,-1.0
493,16984,0,556,-1.00,-1.0
495,17028,-52,584,-1.00,-1.0
496,17124,-80,512,-1.00,-1.0
498,17052,-68,548,-1.00,-1.0
500,16972,92,652,-1.00,-1.0
502,16876,60,616,-1.00,-1.0
504,17008,0,576,-1.00,-1.0
506,16940,-112,568,-1.00,-1.0
508,16988,-52,564,-1.00,-1.0
510,16940,-104,772,-1.00,-1.0
512,16992,-28,564,-1.00,-1.0
514,16936,-72,608,-1.00,-1.0
516,17120,-76,620,-1.00,-1.0
518,16940,-8,544,-1.00,-1.0
520,16996,-52,432,-1.00,-1.0
522,17156,-68,720,-1.00,-1.0
524,17148,16,564,-1.00,-1.0
526,16960,-12,572,-1.00,-1.0
530,16940,-116,620,-1.00,-1.0
532,17068,-28,672,-1.00,-1.0
534,17052,-32,632,-1.00,-1.0
536,16992,-104,540,-1.00,-1.0
538,16940,-32,708,-1.00,-1.0
540,16968,0,576,-1.00,-1.0
541,16976,0,676,-1.00,-1.0
543,17044,-48,628,-1.00,-1.0
545,17032,-40,656,-1.00,-1.0
547,16988,-28,512,-1.00,-1.0
549,16964,-44,832,-1.00,-1.0
551,17032,-68,712,-1.00,-1.0
553,16964,60,648,-1.00,-1.0
555,17036,-56,704,-1.00,-1.0
557,16944,-76,724,-1.00,-1.0
559,17032,-36,640,-1.00,-1.0
561,16964,-160,728,-1.00,-1.0
565,16924,-44,628,-1.00,-1.0
567,16940,-124,512,-1.00,-1.0
569,16944,-44,644,-1.00,-1.0
571,17020,-96,664,-1.00,-1.0
573,16900,-112,604,-1.00,-1.0
575,16968,40,616,-1.00,-1.0
577,16964,-20,740,-1.00,-1.0
579,16980,52,696,-1.00,-1.0
580,16972,-44,528,-1.00,-1.0
583,16940,4,572,-1.00,-1.0
584,16980,-72,508,-1.00,-1.0
586,16988,-4,668,-1.00,-1.0
588,16976,76,708,-1.00,-1.0
590,17064,-84,612,-1.00,-1.0
592,17020,-36,616,-1.00,-1.0
594,16984,-52,560,-1.00,-1.0
596,16956,80,688,-1.00,-1.0
598,17084,-76,556,-1.00,-1.0
602,16968,92,588,-1.00,-1.0
604,17112,-16,692,-1.00,-1.0
606,17128,56,756,-1.00,-1.0
608,16972,-124,528,-1.00,-1.0
610,17032,-124,732,-1.00,-1.0
612,16932,-12,668,-1.00,-1.0
614,17024,56,760,-1.00,-1.0
616,17128,0,616,-1.00,-1.0
617,16980,44,704,-1.00,-1.0
620,16964,-40,644,-1.00,-1.0
622,17056,-128,592,-1.00,-1.0
623,17024,-84,696,-1.00,-1.0
625,17052,-48,728,-1.00,-1.0
627,17052,-128,760,-1.00,-1.0
629,17032,48,720,-1.00,-1.0
631,16992,16,840,-1.00,-1.0
633,16980,-104,668,-1.00,-1.0
635,17052,-48,644,-1.00,-1.0
639,16980,-148,632,-1.00,-1.0
641,16904,-132,604,-1.00,-1.0
643,16968,-68,624,-1.00,-1.0
645,17036,-88,660,-1.00,-1.0
647,16972,-72,636,-1.00,-1.0
649,16952,-4,572,-1.00,-1.0
651,16880,-32,528,-1.00,-1.0
652,16980,-76,628,-1.00,-1.0
654,17012,-100,648,-1.00,-1.0
656,17068,20,652,-1.00,-1.0
658,16960,-28,556,-1.00,-1.0
660,16940,-108,632,-1.00,-1.0
662,16896,-148,636,-1.00,-1.0
664,16940,-72,548,-1.00,-1.0
666,17060,44,764,-1.00,-1.0
668,17032,-188,744,-1.00,-1.0
670,16968,44,732,-1.00,-1.0
672,16948,-28,632,-1.00,-1.0
676,16988,-56,672,-1.00,-1.0
678,17084,-100,520,-1.00,-1.0
680,16924,-72,608,-1.00,-1.0
682,16996,-100,512,-1.00,-1.0
684,17000,-8,576,-1.00,-1.0
686,16972,4,588,-1.00,-1.0
688,17096,16,552,-1.00,-1.0
690,16964,-120,708,-1.00,-1.0
692,17092,24,584,-1.00,-1.0
694,17124,-64,680,-1.00,-1.0
695,17072,-88,740,-1.00,-1.0
697,16960,-72,524,-1.00,-1.0
699,17036,-24,672,-1.00,-1.0
701,17012,-36,636,-1.00,-1.0
703,17000,20,712,-1.00,-1.0
705,16980,4,548,-1.00,-1.0
707,16980,-8,640,-1.00,-1.0
711,17052,-80,768,-1.00,-1.0
713,17052,60,672,-1.00,-1.0
715,17004,12,632,-1.00,-1.0
717,16944,-44,528,-1.00,-1.0
719,16964,-8,564,-1.00,-1.0
721,16928,-52,748,-1.00,-1.0
723,17048,20,520,-1.00,-1.0
725,17040,64,644,-1.00,-1.0
727,16944,-28,672,-1.00,-1.0
729,17020,-36,712,-1.00,-1.0
731,16992,-40,456,-1.00,-1.0
733,16984,36,532,-1.00,-1.0
734,17000,-20,636,-1.00,-1.0
736,17008,-100,616,-1.00,-1.0
738,16992,0,616,-1.00,-1.0
740,16948,12,564,-1.00,-1.0
742,16968,-96,608,-1.00,-1.0
744,16952,-100,560,-1.00,-1.0
748,16956,-24,616,-1.00,-1.0
750,17004,-28,612,-1.00,-1.0
752,16984,-52,596,-1.00,-1.0
754,16968,-92,668,-1.00,-1.0
756,16932,-188,592,-1.00,-1.0
758,16980,-4,588,-1.00,-1.0
760,17000,32,744,-1.00,-1.0
762,16996,-100,756,-1.00,-1.0
764,16992,-52,636,-1.00,-1.0
766,16908,-8,732,-1.00,-1.0
768,17016,-16,556,-1.00,-1.0
770,17016,-108,540,-1.00,-1.0
772,17024,-40,648,-1.00,-1.0
774,16940,52,780,-1.00,-1.0
776,16940,-60,816,-1.00,-1.0
778,17068,-68,724,-1.00,-1.0
779,16960,-52,556,-1.00,-1.0
781,16960,-84,592,-1.00,-1.0
786,17056,-88,712,-1.00,-1.0
788,17024,-68,680,-1.00,-1.0
789,17072,-72,492,-1.00,-1.0
791,17004,-48,424,-1.00,-1.0
793,17040,-112,712,-1.00,-1.0
795,16908,-76,732,-1.00,-1.0
797,17016,-48,624,-1.00,-1.0
799,17080,-64,540,-1.00,-1.0
801,16920,-80,580,-1.00,-1.0
803,16968,-76,532,-1.00,-1.0
805,16984,-28,672,-1.00,-1.0
807,17104,-64,564,-1.00,-1.0
809,17036,4,660,-1.00,-1.0
811,16976,-132,712,-1.00,-1.0
813,17008,-48,624,-1.00,-1.0
815,17000,-88,736,-1.00,-1.0
817,17036,-16,692,-1.00,-1.0
818,16920,-56,572,-1.00,-1.0
823,16876,-100,720,-1.00,-1.0
825,16984,-44,604,-1.00,-1.0
827,17044,-40,572,-1.00,-1.0
828,16960,-40,520,-1.00,-1.0
831,17092,-84,628,-1.00,-1.0
833,17016,-96,496,-1.00,-1.0
834,16956,-112,776,-1.00,-1.0
836,17008,-76,608,-1.00,-1.0
838,16992,-112,484,-1.00,-1.0
840,16988,-128,660,-1.00,-1.0
842,16968,0,640,-1.00,-1.0
844,17028,-76,592,-1.00,-1.0
846,16944,12,696,-1.00,-1.0
848,16972,-96,680,-1.00,-1.0
850,17056,-116,620,-1.00,-1.0
852,17024,28,528,-1.00,-1.0
854,16948,16,616,-1.00,-1.0
858,17072,-64,468,-1.00,-1.0
860,16932,-32,652,-1.00,-1.0
862,17000,60,548,-1.00,-1.0
864,17008,-88,656,-1.00,-1.0
866,16984,40,560,-1.00,-1.0
868,17036,-132,624,-1.00,-1.0
870,16956,-76,632,-1.00,-1.0
872,17048,-56,492,-1.00,-1.0
874,16992,-20,660,-1.00,-1.0
876,16968,64,660,-1.00,-1.0
878,17020,-68,608,-1.00,-1.0
879,16960,-40,728,-1.00,-1.0
881,16956,12,740,-1.00,-1.0
883,16908,28,592,-1.00,-1.0
885,16996,-124,592,-1.00,-1.0
887,16972,48,616,-1.00,-1.0
889,16920,-52,636,-1.00,-1.0
891,17080,-60,624,-1.00,-1.0
895,16976,-88,536,-1.00,-1.0
897,17048,-88,600,-1.00,-1.0
899,17012,-104,644,-1.00,-1.0
901,16984,0,508,-1.00,-1.0
903,16972,4,668,-1.00,-1.0
905,16940,-8,596,-1.00,-1.0
907,16992,-12,572,-1.00,-1.0
909,16972,16,624,-1.00,-1.0
911,16976,-52,496,-1.00,-1.0
913,17004,-12,460,-1.00,-1.0
915,16972,8,632,-1.00,-1.0
916,16952,-76,552,-1.00,-1.0
918,17016,-16,680,-1.00,-1.0
920,17100,-4,688,-1.00,-1.0
922,17120,-52,676,-1.00,-1.0
924,16984,-68,492,-1.00,-1.0
926,17072,-52,516,-1.00,-1.0
928,17000,-40,588,-1.00,-1.0
932,17056,8,712,-1.00,-1.0
934,16924,-76,704,-1.00,-1.0
936,16976,-60,708,-1.00,-1.0
938,16976,-100,804,-1.00,-1.0
940,16984,-108,472,-1.00,-1.0
942,17352,-856,1320,-1.00,-1.0
944,16852,-1300,1748,-1.00,-1.0
946,19296,-5816,4936,-1.00,-1.0
947,20032,-4700,12504,-1.00,-1.0
949,16412,-6728,5284,-1.00,-1.0
951,14468,-1780,7644,-1.00,-1.0
953,13960,-5500,5496,-1.00,-1.0
955,19596,2016,-2776,-1.00,-1.0
957,18180,3748,536,-1.00,-1.0
959,16988,1624,-1664,-1.00,-1.0
961,17008,3484,-4292,-1.00,-1.0
963,17660,1860,-1324,-1.00,-1.0
967,18536,296,2404,-1.00,-1.0
969,16924,-1912,-1800,-1.00,-1.0
971,18056,-1580,2960,-1.00,-1.0
973,17488,-3592,2000,-1.00,-1.0
975,15568,-448,-2528,-1.00,-1.0
977,16780,-2920,1920,-1.00,-1.0
979,17968,-3652,1376,-1.00,-1.0
981,16280,-1740,-2056,-1.00,-1.0
983,17980,-3848,3808,-1.00,-1.0
985,18092,-3544,4648,-1.00,-1.0
987,15140,-692,-1380,-1.00,-1.0
989,15972,-1820,-824,-1.00,-1.0
991,17696,-1908,3236,-1.00,-1.0
993,16692,-672,-2328,-1.00,-1.0
995,17696,-1136,3064,-1.00,-1.0
996,17936,-2272,3532,-1.00,-1.0
1001,16304,-508,172,-1.00,-1.0
1003,17452,-892,1384,-1.00,-1.0
1004,16776,312,-872,-1.00,-1.0
1006,17292,-212,1068,-1.00,-1.0
1008,17524,-684,2512,-1.00,-1.0
1010,16260,332,-1264,-1.00,-1.0
1012,16540,-72,476,-1.00,-1.0
1014,16536,320,-444,-1.00,-1.0
1016,16424,272,0,-1.00,-1.0
1018,17128,-276,772,-1.00,-1.0
1020,16528,1012,-1680,-1.00,-1.0
1022,15860,2412,-5552,-1.00,-1.0
1024,18724,-228,3520,-1.00,-1.0
1026,18612,0,836,-1.00,-1.0
1028,17368,2116,276,-1.00,-1.0
1030,15528,2384,-3200,-1.00,-1.0
1034,15320,2912,-3312,-1.00,-1.0
1036,15408,3204,-3388,-1.00,-1.0
1038,18656,-976,3264,-1.00,-1.0
1040,18620,-2252,5248,-1.00,-1.0
1042,15940,636,-2456,-1.00,-1.0
1044,16128,-708,-1996,-1.00,-1.0
1046,18704,-2388,7440,-1.00,-1.0
1048,16380,192,-1948,-1.00,-1.0
1050,16540,2664,-2184,-1.00,-1.0
1052,16216,1584,-2796,-1.00,-1.0
1053,16668,1420,-324,-1.00,-1.0
1055,19844,-2404,6900,-1.00,-1.0
1057,16996,1464,956,-1.00,-1.0
1059,16420,-2120,196,-1.00,-1.0
1061,17544,-3640,7588,-1.00,-1.0
1063,17604,3132,-588,-1.00,-1.0
1067,16660,2012,-5684,-1.00,-1.0
1069,20072,-656,5104,-1.00,-1.0
1071,15112,-3256,356,-1.00,-1.0
1073,17576,-3192,8544,-1.00,-1.0
1075,15792,-1320,-1248,-1.00,-1.0
1077,15852,908,-3740,-1.00,-1.0
1079,16588,180,-1472,-1.00,-1.0
1081,18004,-788,3544,-1.00,-1.0
1083,16280,3212,-1476,-1.00,-1.0
1085,17188,1172,788,-1.00,-1.0
1087,18012,-852,3176,-1.00,-1.0
1089,17072,188,-1108,-1.00,-1.0
1091,16872,628,-1020,-1.00,-1.0
1093,16932,456,-1684,-1.00,-1.0
1095,18652,-540,4712,-1.00,-1.0
1097,18256,-1464,5176,-1.00,-1.0
1101,15028,-168,-1820,-1.00,-1.0
1103,17212,-1016,2024,-1.00,-1.0
1105,16736,1488,-4464,-1.00,-1.0
1107,18776,336,920,-1.00,-1.0
1109,17424,192,-340,-1.00,-1.0
1111,16592,1272,1352,-1.00,-1.0
1112,16276,540,28,-1.00,-1.0
1114,17860,-796,452,-1.00,-1.0
1116,18548,-428,2600,-1.00,-1.0
1118,15076,1972,-8752,-1.00,-1.0
1120,17968,412,4224,-1.00,-1.0
1122,16236,1036,-1704,-1.00,-1.0
1124,17392,692,-1988,-1.00,-1.0
1126,14364,1624,-3096,-1.00,-1.0
1128,15876,956,740,-1.00,-1.0
1130,17296,1700,3064,-1.00,-1.0
1134,16452,1000,-2472,-1.00,-1.0
1136,16644,2420,-4040,-1.00,-1.0
1138,19248,468,3112,-1.00,-1.0
1140,16508,3208,-2300,-1.00,-1.0
1142,15520,2968,-788,-1.00,-1.0
1144,18484,-2724,5296,-1.00,-1.0
1146,18032,1156,1492,-1.00,-1.0
1148,15532,2168,-6304,-1.00,-1.0
1150,17736,-260,1444,-1.00,-1.0
1152,16412,-104,3352,-1.00,-1.0
1154,15104,700,-3656,-1.00,-1.0
1155,18416,-312,3608,-1.00,-1.0
1158,18244,-1996,1716,-1.00,-1.0
1160,17720,-1120,2004,-1.00,-1.0
1161,15404,0,1268,-1.00,-1.0
1163,16872,-2864,1084,-1.00,-1.0
1167,16028,-1656,-1276,-1.00,-1.0
1169,17760,-2416,5028,-1.00,-1.0
1171,15628,-1916,3160,-1.00,-1.0
1173,19476,68,2976,-1.00,-1.0
1175,17688,-876,3776,-1.00,-1.0
1177,18560,-2808,3540,-1.00,-1.0
1179,15504,1028,-2708,-1.00,-1.0
1181,15924,2864,-5364,-1.00,-1.0
1183,19640,-2072,5460,-1.00,-1.0
1185,20828,-2792,8328,-1.00,-1.0
1187,14300,3424,-3152,-1.00,-1.0
1189,13996,-1728,-3756,-1.00,-1.0
1191,19384,-3640,8020,-1.00,-1.0
1193,16728,-840,-212,-1.00,-1.0
1195,16352,2568,-3864,-1.00,-1.0
1199,15540,-1336,-7368,-1.00,-1.0
1201,18592,1660,2784,-1.00,-1.0
1202,20000,-5028,8072,-1.00,-1.0
1204,17488,-36,2792,-1.00,-1.0
1206,14684,-12,-260,-1.00,-1.0
1208,13640,2696,-12100,-1.00,-1.0
1210,18164,1572,4244,-1.00,-1.0
1212,13860,1068,-2372,-1.00,-1.0
1214,17712,2364,1224,-1.00,-1.0
1216,15252,1132,-3472,-1.00,-1.0
1218,19696,-4680,4776,-1.00,-1.0
1220,19212,816,6312,-1.00,-1.0
1222,14860,-804,-1752,-1.00,-1.0
1224,13068,1820,-3364,-1.00,-1.0
1226,14084,1076,-132,-1.00,-1.0
1228,19404,-1276,-1096,-1.00,-1.0
1232,17868,-4108,1192,-1.00,-1.0
1234,13480,1692,2340,-1.00,-1.0
1236,14132,-1552,1540,-1.00,-1.0
1238,15700,2464,-8512,-1.00,-1.0
1240,18368,1172,2236,-1.00,-1.0
1242,22712,-7292,11616,-1.00,-1.0
1244,16392,2252,2316,-1.00,-1.0
1245,11908,1736,-9208,-1.00,-1.0
1248,15056,2052,-3664,-1.00,-1.0
1250,18100,460,5024,-1.00,-1.0
1251,19232,552,-2976,-1.00,-1.0
1253,20788,1104,5464,-1.00,-1.0
1255,19308,-4804,4744,-1.00,-1.0
1257,13004,3816,-3188,-1.00,-1.0
1259,13572,2216,-2968,-1.00,-1.0
1261,17312,1348,-4516,-1.00,-1.0
1265,19648,-5096,4396,-1.00,-1.0
1267,18296,352,2120,-1.00,-1.0
1269,17224,-2324,5188,-1.00,-1.0
1271,12104,2868,-9768,-1.00,-1.0
1273,15476,3312,2988,-1.00,-1.0
1275,19804,-1668,1968,-1.00,-1.0
1277,15116,-516,-428,-1.00,-1.0
1279,15472,-3396,2940,-1.00,-1.0
1281,15224,-564,-6372,-1.00,-1.0
1283,17200,1564,2592,-1.00,-1.0
1285,19712,-6664,7104,-1.00,-1.0
1287,19236,-2800,4480,-1.00,-1.0
1289,17736,-4640,6116,-1.00,-1.0
1291,13900,1428,-3808,-1.00,-1.0
1293,14280,1120,3780,-1.00,-1.0
1297,16184,2388,-2436,-1.00,-1.0
1299,18460,-3020,3276,-1.00,-1.0
1301,19748,-2664,9488,-1.00,-1.0
1303,14668,-456,784,-1.00,-1.0
1305,9524,7948,-17588,-1.00,-1.0
1307,17452,1904,4888,-1.00,-1.0
1309,21852,-2664,2940,-1.00,-1.0
1310,15020,8576,-8400,-1.00,-1.0
1312,18584,-2808,3496,-1.00,-1.0
1314,20180,-3736,12888,-1.00,-1.0
1316,13452,1756,-6428,-1.00,-1.0
1318,15380,2008,-4312,-1.00,-1.0
1320,18064,-2420,7516,-1.00,-1.0
1322,15912,-1392,-8816,-1.00,-1.0
1324,17152,2956,2044,-1.00,-1.0
1326,18192,-4628,5016,-1.00,-1.0
1330,18384,-3636,7248,-1.00,-1.0
1332,14488,2076,-6860,-1.00,-1.0
1334,14188,2700,-1964,-1.00,-1.0
1336,19084,-3784,3628,-1.00,-1.0
1338,16864,2972,-1396,-1.00,-1.0
1340,17428,-1160,292,-1.00,-1.0
1342,14972,104,-5872,-1.00,-1.0
1344,13440,6052,-8192,-1.00,-1.0
1346,20144,-3980,2096,-1.00,-1.0
1348,22216,-3080,11340,-1.00,-1.0
1350,16168,-604,-412,-1.00,-1.0
1352,16040,1120,924,-1.00,-1.0
1354,17160,-2480,4732,-1.00,-1.0
1356,14128,2056,-10508,-1.00,-1.0
1358,15632,3324,-2252,-1.00,-1.0
1359,19988,-3020,3496,-1.00,-1.0
1364,19360,-4460,8300,-1.00,-1.0
1366,18792,-2048,5296,-1.00,-1.0
1368,15624,1332,1320,-1.00,-1.0
1370,16612,-2072,548,-1.00,-1.0
1372,15188,-716,-552,-1.00,-1.0
1373,14904,-444,-7280,-1.00,-1.0
1375,19036,-2268,8816,-1.00,-1.0
1377,18540,-4176,6332,-1.00,-1.0
1379,17020,-400,3108,-1.00,-1.0
1381,14576,-920,-2776,-1.00,-1.0
1383,20276,-4588,7412,-1.00,-1.0
1385,19408,-3464,11628,-1.00,-1.0
1387,12036,-268,-10692,-1.00,-1.0
1389,14352,1004,6064,-1.00,-1.0
1391,19696,-7640,14484,-1.00,-1.0
1395,16688,-888,-144,-1.00,-1.0
1397,19108,-3800,6124,-1.00,-1.0
1399,15624,2892,-7752,-1.00,-1.0
1401,15976,3276,-2464,-1.00,-1.0
1403,18264,-2024,7788,-1.00,-1.0
1405,15468,2652,-2700,-1.00,-1.0
1407,17108,-496,5960,-1.00,-1.0
1409,20052,-4400,5164,-1.00,-1.0
1411,15724,1488,-3908,-1.00,-1.0
1413,17972,-3728,2940,-1.00,-1.0
1415,14988,3840,-8692,-1.00,-1.0
1417,19364,1380,2656,-1.00,-1.0
1419,22084,-5608,4092,-1.00,-1.0
1421,18312,664,6124,-1.00,-1.0
1423,13736,-316,-7192,-1.00,-1.0
1425,18748,-1584,11368,-1.00,-1.0
1429,12428,1936,-12040,-1.00,-1.0
1431,16728,-284,7416,-1.00,-1.0
1433,18616,-4676,4916,-1.00,-1.0
1434,12500,7712,-13972,-1.00,-1.0
1436,20776,-7848,11412,-1.00,-1.0
1438,20712,-3964,12772,-1.00,-1.0
1440,11904,5280,-8824,-1.00,-1.0
1442,17140,-2476,5172,-1.00,-1.0
1444,19184,-3208,10740,-1.00,-1.0
1446,11168,3920,-19692,-1.00,-1.0
1448,19140,-1140,12624,-1.00,-1.0
1450,19500,-2856,7416,-1.00,-1.0
1452,11420,8612,-16140,-1.00,-1.0
1454,20432,-3924,8960,-1.00,-1.0
1456,21476,-5212,9588,-1.00,-1.0
1460,21068,-4820,6132,-1.00,-1.0
1462,18516,1636,244,-1.00,-1.0
1464,15824,3124,-1932,-1.00,-1.0
1466,19048,-772,2844,-1.00,-1.0
1468,17944,-1384,7584,-1.00,-1.0
1470,12048,3828,-16004,-1.00,-1.0
1472,16800,4808,756,-1.00,-1.0
1473,21492,-5092,10348,-1.00,-1.0
1475,12784,9524,-17252,-1.00,-1.0
1477,16576,2768,-4348,-1.00,-1.0
1479,24456,-7848,16340,-1.00,-1.0
1481,15964,3324,-2360,-1.00,-1.0
1483,14208,4716,-7320,-1.00,-1.0
1485,20220,-3380,12300,-1.00,-1.0
1487,12832,3864,-17816,-1.00,-1.0
1489,14520,7084,-6788,-1.00,-1.0
1493,18672,-40,4820,-1.00,-1.0
1495,10444,6672,-14676,-1.00,-1.0
1497,16732,1932,388,-1.00,-1.0
1499,23028,-5616,13300,-1.00,-1.0
1501,15672,2752,-8380,-1.00,-1.0
1503,14196,5444,-2064,-1.00,-1.0
1505,19460,-5892,9512,-1.00,-1.0
1507,14396,3392,-5224,-1.00,-1.0
1509,15004,3828,-7232,-1.00,-1.0
1511,14100,-88,-8684,-1.00,-1.0
1513,14556,1180,-3532,-1.00,-1.0
1515,22188,-7908,15336,-1.00,-1.0
1517,14764,2568,-2112,-1.00,-1.0
1519,12176,4860,-11212,-1.00,-1.0
1521,22296,-3864,17192,-1.00,-1.0
1525,13056,4940,-10824,-1.00,-1.0
1527,20504,-5476,15204,-1.00,-1.0
1529,15860,244,-5736,-1.00,-1.0
1531,13132,5912,-6852,-1.00,-1.0
1533,16940,376,-4944,-1.00,-1.0
1535,20840,-124,11728,-1.00,-1.0
1536,16824,-964,-4080,-1.00,-1.0
1538,13236,7712,-7060,-1.00,-1.0
1540,19560,-4160,5304,-1.00,-1.0
1542,20176,-2516,7624,-1.00,-1.0
1544,13540,2456,-8768,-1.00,-1.0
1546,17680,-1344,3216,-1.00,-1.0
1548,19428,-3328,10704,-1.00,-1.0
1550,9008,7976,-26852,-1.00,-1.0
1552,18400,4232,4968,-1.00,-1.0
1554,24576,-8712,16208,-1.00,-1.0
1558,16860,1428,32,-1.00,-1.0
1560,24032,-7860,15340,-1.00,-1.0
1562,13400,3480,-9480,-1.00,-1.0
1564,14652,-388,-188,-1.00,-1.0
1566,20672,-5644,16044,-1.00,-1.0
1568,14820,-2320,-6484,-1.00,-1.0
1570,19844,-3600,5352,-1.00,-1.0
1572,16828,-328,-4092,-1.00,-1.0
1574,21276,176,9112,-1.00,-1.0
1576,14988,2356,2776,-1.00,-1.0
1578,19660,-8516,8076,-1.00,-1.0
1580,14312,4076,-5248,-1.00,-1.0
1582,13680,2532,-14016,-1.00,-1.0
1584,21920,-4184,15508,-1.00,-1.0
1585,18612,-4212,5656,-1.00,-1.0
1590,22772,-4996,18140,-1.00,-1.0
1592,19020,-7720,1968,-1.00,-1.0
1594,11876,7036,-8856,-1.00,-1.0
1595,19884,-7812,12808,-1.00,-1.0
1598,17124,-2012,2936,-1.00,-1.0
1599,9928,5224,-20172,-1.00,-1.0
1601,20068,-2800,12572,-1.00,-1.0
1603,22436,-5008,9808,-1.00,-1.0
1605,13920,6012,-9316,-1.00,-1.0
1607,13248,5144,-10316,-1.00,-1.0
1609,22412,-5612,13688,-1.00,-1.0
1611,21580,-6820,13480,-1.00,-1.0
1613,10264,2648,-13032,-1.00,-1.0
1615,14196,2996,7936,-1.00,-1.0
1617,19932,-7180,8188,-1.00,-1.0
1621,18780,2056,-2392,-1.00,-1.0
1623,26540,-8184,19292,-1.00,-1.0
1625,12628,3388,-11424,-1.00,-1.0
1627,12192,5860,-6372,-1.00,-1.0
1629,23452,-6480,23844,-1.00,-1.0
1631,12144,344,-19792,-1.00,-1.0
1633,13024,9120,-448,-1.00,-1.0
1635,22956,-7512,12880,-1.00,-1.0
1637,12796,7624,-15384,-1.00,-1.0
1639,17148,400,-480,-1.00,-1.0
1641,10256,2476,-22756,-1.00,-1.0
1643,15476,7176,2512,-1.00,-1.0
1645,21544,-5576,6788,-1.00,-1.0
1647,18820,4232,5684,-1.00,-1.0
1648,13772,5116,-10680,-1.00,-1.0
1650,15504,3604,-3296,-1.00,-1.0
1655,17916,2108,-916,-1.00,-1.0
1657,16448,2564,-1560,-1.00,-1.0
1658,17996,-4624,4836,-1.00,-1.0
1660,16252,1188,2784,-1.00,-1.0
1662,12068,5460,-17968,-1.00,-1.0
1664,21208,64,12480,-1.00,-1.0
1666,20212,-2684,6024,-1.00,-1.0
1668,12884,10456,-13776,-1.00,-1.0
1670,20568,-5872,10700,-1.00,-1.0
1672,19444,-5056,3428,-1.00,-1.0
1674,12280,5848,-8892,-1.00,-1.0
1676,18696,-5584,8864,-1.00,-1.0
1678,19132,-1236,9912,-1.00,-1.0
1680,11544,3132,-14284,-1.00,-1.0
1682,14284,5184,-6296,-1.00,-1.0
1686,16736,1096,-1408,-1.00,-1.0
1688,11016,4916,-6436,-1.00,-1.0
1690,18480,-3280,6232,-1.00,-1.0
1692,12076,8540,-12228,-1.00,-1.0
1694,12196,2188,-19572,-1.00,-1.0
1696,14736,6460,1220,-1.00,-1.0
1698,14420,-740,-1536,-1.00,-1.0
1699,14068,732,-5492,-1.00,-1.0
1702,22996,-5916,22036,-1.00,-1.0
1704,13292,-3168,-14200,-1.00,-1.0
1705,13492,8020,-2100,-1.00,-1.0
1707,23644,-11452,19132,-1.00,-1.0
1709,14724,1088,-4552,-1.00,-1.0
1711,12168,3992,-9468,-1.00,-1.0
1713,21388,-4592,15132,-1.00,-1.0
1715,17824,-888,-1040,-1.00,-1.0
1719,18260,-2516,5620,-1.00,-1.0
1721,20944,-7664,12620,-1.00,-1.0
1723,14656,1872,2072,-1.00,-1.0
1725,10968,2512,-14536,-1.00,-1.0
1727,18116,-784,10592,-1.00,-1.0
1729,18328,-3132,1328,-1.00,-1.0
1731,14068,6568,-15276,-1.00,-1.0
1733,21856,-4620,12676,-1.00,-1.0
1735,18168,-1424,-708,-1.00,-1.0
1737,20960,-4972,17544,-1.00,-1.0
1739,18960,-4380,7492,-1.00,-1.0
1741,10636,7764,-17948,-1.00,-1.0
1743,20064,-5024,12972,-1.00,-1.0
1744,20048,-4288,5148,-1.00,-1.0
1746,13312,4728,-7296,-1.00,-1.0
1751,17556,-1476,7556,-1.00,-1.0
1753,9944,3588,-18948,-1.00,-1.0
1754,19192,316,13260,-1.00,-1.0
1756,21120,-6108,9564,-1.00,-1.0
1758,14548,6628,-7060,-1.00,-1.0
1760,12736,3896,-9952,-1.00,-1.0
1762,18828,-528,2220,-1.00,-1.0
1764,20048,-2124,9644,-1.00,-1.0
1766,15656,2624,-5384,-1.00,-1.0
1768,18248,-1148,10660,-1.00,-1.0
1770,16864,-3856,356,-1.00,-1.0
1772,12892,7196,-7692,-1.00,-1.0
1774,18152,-1296,-3060,-1.00,-1.0
1776,20592,-72,7188,-1.00,-1.0
1778,12856,1312,-9308,-1.00,-1.0
1780,16900,704,1800,-1.00,-1.0
1784,12156,1204,-16600,-1.00,-1.0
1786,14972,4368,1956,-1.00,-1.0
1788,21884,-6248,8540,-1.00,-1.0
1790,15060,7852,-10240,-1.00,-1.0
1792,13276,5440,-12992,-1.00,-1.0
1794,21468,-2076,7688,-1.00,-1.0
1796,21464,-5672,12932,-1.00,-1.0
1798,10000,8588,-19524,-1.00,-1.0
1800,15836,4636,3388,-1.00,-1.0
1802,22384,-6904,8804,-1.00,-1.0
1803,14700,3372,4100,-1.00,-1.0
1806,22432,-10192,20724,-1.00,-1.0
1808,12936,432,-14016,-1.00,-1.0
1809,14032,3792,-584,-1.00,-1.0
1811,23268,-11692,17764,-1.00,-1.0
1816,11684,3128,-10388,-1.00,-1.0
1818,23428,-6188,23024,-1.00,-1.0
1819,15680,-320,-1656,-1.00,-1.0
1821,11828,6564,-13400,-1.00,-1.0
1823,22884,-7132,18808,-1.00,-1.0
1825,15916,-3332,-6172,-1.00,-1.0
1827,12304,6716,-8108,-1.00,-1.0
1829,20236,-4900,10396,-1.00,-1.0
1831,19056,-1680,9736,-1.00,-1.0
1833,12276,4128,-13888,-1.00,-1.0
1835,15436,6152,-6928,-1.00,-1.0
1837,22208,-6360,9820,-1.00,-1.0
1839,17652,1128,412,-1.00,-1.0
1841,14960,4516,-2000,-1.00,-1.0
1843,20536,-6172,13008,-1.00,-1.0
1847,11896,3876,-15124,-1.00,-1.0
1849,23664,-6732,18772,-1.00,-1.0
1851,17764,-2152,1952,-1.00,-1.0
1853,9676,8256,-17684,-1.00,-1.0
1855,20572,-6272,14780,-1.00,-1.0
1857,20224,-4292,5668,-1.00,-1.0
1859,12020,5136,-13512,-1.00,-1.0
1861,19336,-3704,11624,-1.00,-1.0
1863,19664,-3516,10400,-1.00,-1.0
1865,9364,7912,-20904,-1.00,-1.0
1867,18436,1140,10456,-1.00,-1.0
1868,11704,3848,-13468,-1.00,-1.0
1870,15656,708,620,-1.00,-1.0
1872,23908,-6780,19884,-1.00,-1.0
1874,14640,-60,-10368,-1.00,-1.0
1876,11024,7220,-8004,-1.00,-1.0
1880,19096,1964,1928,-1.00,-1.0
1882,13704,576,-11816,-1.00,-1.0
1884,18504,-1424,10976,-1.00,-1.0
1886,21372,-7804,16640,-1.00,-1.0
1888,12108,3456,-14692,-1.00,-1.0
1890,16252,2692,4324,-1.00,-1.0
1892,20020,-5716,4004,-1.00,-1.0
1894,13064,8944,-12784,-1.00,-1.0
1896,17880,-1652,-3120,-1.00,-1.0
1898,22920,-4528,16948,-1.00,-1.0
1900,14184,552,-6540,-1.00,-1.0
1902,15236,1916,1156,-1.00,-1.0
1904,21996,-7828,17048,-1.00,-1.0
1906,14344,-1088,-8832,-1.00,-1.0
1908,10600,6912,-9640,-1.00,-1.0
1912,20936,-1012,10444,-1.00,-1.0
1914,10068,1884,-15404,-1.00,-1.0
1916,16444,2424,7736,-1.00,-1.0
1918,21856,-5968,15300,-1.00,-1.0
1920,13296,2648,-18892,-1.00,-1.0
1922,15940,4172,4468,-1.00,-1.0
1924,23088,-8744,10060,-1.00,-1.0
1926,14636,7140,-8300,-1.00,-1.0
1928,11928,5676,-13208,-1.00,-1.0
1930,21748,-3520,16344,-1.00,-1.0
1932,16924,280,-2096,-1.00,-1.0
1934,14644,5392,-5576,-1.00,-1.0
1936,19732,-4960,9856,-1.00,-1.0
1938,14704,-756,-4872,-1.00,-1.0
1939,19448,-2312,7728,-1.00,-1.0
1941,15956,-2024,-1948,-1.00,-1.0
1945,19920,-5244,11388,-1.00,-1.0
1947,20060,-1992,6596,-1.00,-1.0
1949,12868,6872,-5068,-1.00,-1.0
1951,14736,56,-8700,-1.00,-1.0
1953,20712,-1016,13292,-1.00,-1.0
1955,16960,-2036,-3588,-1.00,-1.0
1957,15968,2364,-1664,-1.00,-1.0
1959,20592,-8572,14144,-1.00,-1.0
1961,12804,3680,-10964,-1.00,-1.0
1963,11664,8552,-13204,-1.00,-1.0
1965,22728,-3916,11308,-1.00,-1.0
1967,20812,824,10804,-1.00,-1.0
1969,13920,2820,-10592,-1.00,-1.0
1971,18476,-1136,10108,-1.00,-1.0
1973,16400,-2712,-948,-1.00,-1.0
1977,22412,-7984,15688,-1.00,-1.0
1979,16092,432,-3256,-1.00,-1.0
1980,12324,5328,-7880,-1.00,-1.0
1982,19140,-4312,4856,-1.00,-1.0
1984,14268,6820,-7336,-1.00,-1.0
1986,17784,-580,2020,-1.00,-1.0
1988,19324,-3840,5936,-1.00,-1.0
1990,14048,1524,-1608,-1.00,-1.0
1992,16448,2832,-5948,-1.00,-1.0
1994,21736,-2048,13412,-1.00,-1.0
1996,13900,728,-15664,-1.00,-1.0
1998,13784,5896,-4228,-1.00,-1.0
2000,22716,-9660,15088,-1.00,-1.0
2002,19576,184,12500,-1.00,-1.0
2004,11084,3168,-13544,-1.00,-1.0
2008,20232,-4596,10776,-1.00,-1.0
2010,12764,5924,-20040,-1.00,-1.0
2012,18392,1412,8904,-1.00,-1.0
2014,19564,-6344,4904,-1.00,-1.0
2016,14888,7468,-1908,-1.00,-1.0
2018,17640,-4028,-896,-1.00,-1.0
2020,20844,-136,11704,-1.00,-1.0
2022,15448,-168,-2564,-1.00,-1.0
2024,12372,5980,-18044,-1.00,-1.0
2026,20084,-964,12340,-1.00,-1.0
2028,18740,-4748,-1560,-1.00,-1.0
2029,14944,8368,-1368,-1.00,-1.0
2031,16584,-2644,-3144,-1.00,-1.0
2033,21612,-1236,13172,-1.00,-1.0
2035,14452,5012,-472,-1.00,-1.0
2037,22064,-9884,10536,-1.00,-1.0
2041,17656,-3228,-4660,-1.00,-1.0
2043,21664,432,17944,-1.00,-1.0
2045,21788,-7776,5300,-1.00,-1.0
2047,13520,6960,-4372,-1.00,-1.0
2049,16176,-2032,6420,-1.00,-1.0
2051,16576,-460,-2188,-1.00,-1.0
2053,14432,4704,-4588,-1.00,-1.0
2055,21132,-6464,3524,-1.00,-1.0
2057,19752,-1108,10264,-1.00,-1.0
2059,11508,-136,-13348,-1.00,-1.0
2061,15232,4300,-352,-1.00,-1.0
2063,18156,-3620,7888,-1.00,-1.0
2065,15608,6052,-8864,-1.00,-1.0
2067,19412,2240,6528,-1.00,-1.0
2069,18984,-1632,-2660,-1.00,-1.0
2073,16016,-1676,-3800,-1.00,-1.0
2075,21148,-2652,10668,-1.00,-1.0
2077,17764,-3168,-72,-1.00,-1.0
2079,14932,3340,-1020,-1.00,-1.0
2081,17052,-3452,7976,-1.00,-1.0
2083,16288,4472,-1724,-1.00,-1.0
2085,15668,2352,-5756,-1.00,-1.0
2086,18924,-1496,-2852,-1.00,-1.0
2089,17800,-432,4756,-1.00,-1.0
2090,14984,908,-6264,-1.00,-1.0
2092,20952,-3384,12924,-1.00,-1.0
2094,11356,5588,-14172,-1.00,-1.0
2096,17244,24,-1612,-1.00,-1.0
2098,22656,-3764,16020,-1.00,-1.0
2100,14532,3780,-10968,-1.00,-1.0
2102,16872,4300,6800,-1.00,-1.0
2106,15260,7316,-2940,-1.00,-1.0
2108,20180,-2208,1076,-1.00,-1.0
2110,18132,2228,-1096,-1.00,-1.0
2112,14676,-420,-1392,-1.00,-1.0
2114,13992,2992,-11680,-1.00,-1.0
2116,19180,1532,9020,-1.00,-1.0
2118,19556,-5944,1328,-1.00,-1.0
2120,18756,3076,10320,-1.00,-1.0
2122,15532,-3016,-4120,-1.00,-1.0
2124,14084,3592,-2988,-1.00,-1.0
2126,17720,-2600,60,-1.00,-1.0
2128,18388,3432,-5144,-1.00,-1.0
2130,17452,456,3324,-1.00,-1.0
2132,15652,-4,-4552,-1.00,-1.0
2134,16784,2252,9684,-1.00,-1.0
2138,16884,4088,4056,-1.00,-1.0
2140,17096,-2576,-5712,-1.00,-1.0
2142,17596,2188,2688,-1.00,-1.0
2144,17636,-3084,5680,-1.00,-1.0
2146,14564,4788,-12540,-1.00,-1.0
2148,16396,1628,1952,-1.00,-1.0
2149,19956,-6532,6544,-1.00,-1.0
2151,16644,4304,3592,-1.00,-1.0
2153,15948,-2172,-6216,-1.00,-1.0
2155,19876,-2936,14988,-1.00,-1.0
2157,14660,-1332,-9224,-1.00,-1.0
2159,20164,-4212,6888,-1.00,-1.0
2161,17784,2492,9388,-1.00,-1.0
2163,14208,-1208,-6956,-1.00,-1.0
2165,19072,340,15336,-1.00,-1.0
2167,16356,-2432,-3552,-1.00,-1.0
2171,17744,-2764,4372,-1.00,-1.0
2173,20376,-3300,284,-1.00,-1.0
2175,19384,-564,7588,-1.00,-1.0
2177,14732,-3188,-1804,-1.00,-1.0
2179,16308,1648,9916,-1.00,-1.0
2181,16872,-3284,-524,-1.00,-1.0
2183,15856,2772,-1044,-1.00,-1.0
2185,17320,-2760,-1532,-1.00,-1.0
2187,18196,-1488,2300,-1.00,-1.0
2189,16628,-3288,4692,-1.00,-1.0
2191,16720,-1140,-3120,-1.00,-1.0
2193,18484,-3084,12760,-1.00,-1.0
2195,14492,-3728,-6104,-1.00,-1.0
2197,17812,2072,14128,-1.00,-1.0
2198,16912,-4852,-1244,-1.00,-1.0
2203,19100,-4164,5480,-1.00,-1.0
2205,17524,816,-2124,-1.00,-1.0
2207,15236,2564,-5388,-1.00,-1.0
2208,17776,-1288,3592,-1.00,-1.0
2211,18568,-352,8000,-1.00,-1.0
2212,15676,1672,-6660,-1.00,-1.0
2214,17888,3276,12184,-1.00,-1.0
2216,15436,-1668,-8300,-1.00,-1.0
2218,17448,4352,3772,-1.00,-1.0
2220,18580,-2816,1572,-1.00,-1.0
2222,17376,-5980,-140,-1.00,-1.0
2224,14932,3540,2804,-1.00,-1.0
2226,15832,-4156,-7528,-1.00,-1.0
2228,18724,1020,3728,-1.00,-1.0
2230,15448,-1972,-1688,-1.00,-1.0
2232,15672,3076,-5904,-1.00,-1.0
2236,14824,-1892,-6376,-1.00,-1.0
2238,14720,5548,3360,-1.00,-1.0
2240,18136,-5148,-1732,-1.00,-1.0
2242,14332,7012,-2660,-1.00,-1.0
2244,17524,-2676,-5364,-1.00,-1.0
2246,20980,-208,6008,-1.00,-1.0
2248,14724,-328,-1784,-1.00,-1.0
2250,16756,-1304,-2004,-1.00,-1.0
2252,19436,-3268,15272,-1.00,-1.0
2254,13392,-1256,-14192,-1.00,-1.0
2255,17664,3912,10736,-1.00,-1.0
2257,18500,-3968,-2552,-1.00,-1.0
2259,15180,6708,-5776,-1.00,-1.0
2261,16980,-1400,-692,-1.00,-1.0
2263,20320,-2176,7352,-1.00,-1.0
2267,13868,2664,-9344,-1.00,-1.0
2269,16396,2000,4504,-1.00,-1.0
2271,16460,-220,-12352,-1.00,-1.0
2273,20048,4368,10148,-1.00,-1.0
2275,19412,-2100,-3836,-1.00,-1.0
2277,17068,3768,732,-1.00,-1.0
2279,18592,1088,8888,-1.00,-1.0
2281,17640,-2884,-6652,-1.00,-1.0
2283,16036,2816,2604,-1.00,-1.0
2285,15060,-420,-7228,-1.00,-1.0
2287,16684,4600,-4936,-1.00,-1.0
2289,20492,-2624,6640,-1.00,-1.0
2291,20780,-296,9784,-1.00,-1.0
2293,15340,884,500,-1.00,-1.0
2295,14492,-84,80,-1.00,-1.0
2297,17424,-428,8048,-1.00,-1.0
2301,19376,268,7812,-1.00,-1.0
2303,19396,-5596,4124,-1.00,-1.0
2305,14784,5004,-8628,-1.00,-1.0
2307,17904,-5396,8532,-1.00,-1.0
2309,17068,580,-84,-1.00,-1.0
2311,16484,3924,3636,-1.00,-1.0
2313,18064,-2392,-2416,-1.00,-1.0
2314,17260,2104,5000,-1.00,-1.0
2317,15712,-216,-11416,-1.00,-1.0
2318,18680,1156,5816,-1.00,-1.0
2320,18584,-3692,1800,-1.00,-1.0
2322,16176,5236,348,-1.00,-1.0
2324,15028,-1088,-4860,-1.00,-1.0
2326,15696,3832,-5820,-1.00,-1.0
2328,19144,572,10556,-1.00,-1.0
2330,16384,-6976,2056,-1.00,-1.0
2334,19584,-5852,416,-1.00,-1.0
2336,15248,6388,-5896,-1.00,-1.0
2338,17668,-4780,4040,-1.00,-1.0
2340,15772,-2760,-12092,-1.00,-1.0
2342,18852,2948,9236,-1.00,-1.0
2344,18244,-5172,-20,-1.00,-1.0
2346,16660,5724,672,-1.00,-1.0
2348,17784,-5028,6956,-1.00,-1.0
2350,14084,3748,-7380,-1.00,-1.0
2352,14908,3208,1116,-1.00,-1.0
2354,20316,-6212,1832,-1.00,-1.0
2356,16684,4252,7608,-1.00,-1.0
2358,16544,-1580,-12432,-1.00,-1.0
2360,21920,-2276,17228,-1.00,-1.0
2362,14600,-4276,-2892,-1.00,-1.0
2366,18924,-4488,11448,-1.00,-1.0
2368,13180,1700,-17428,-1.00,-1.0
2370,17236,3588,8140,-1.00,-1.0
2372,20688,-5504,2992,-1.00,-1.0
2374,16004,5864,204,-1.00,-1.0
2376,16344,-3120,-5080,-1.00,-1.0
2378,18856,656,4572,-1.00,-1.0
2379,17864,-2152,2128,-1.00,-1.0
2381,14040,5276,-8612,-1.00,-1.0
2383,16092,1644,7020,-1.00,-1.0
2385,18648,-3480,-4276,-1.00,-1.0
2387,19604,1440,13672,-1.00,-1.0
2389,15472,-472,-13052,-1.00,-1.0
2391,16820,4280,2412,-1.00,-1.0
2393,18052,-6396,6212,-1.00,-1.0
2395,18024,-3992,-4608,-1.00,-1.0
2399,21140,-6124,8520,-1.00,-1.0
2401,15196,1516,2296,-1.00,-1.0
2403,14128,468,-10212,-1.00,-1.0
2405,16004,5024,-4184,-1.00,-1.0
2407,15688,652,-2388,-1.00,-1.0
2409,20320,-848,8032,-1.00,-1.0
2411,18652,1016,5544,-1.00,-1.0
2413,15804,-516,-7144,-1.00,-1.0
2415,18028,-1252,8900,-1.00,-1.0
2417,13308,-1032,-8804,-1.00,-1.0
2419,16004,3648,-1700,-1.00,-1.0
2421,19728,-5712,9696,-1.00,-1.0
2423,14428,5584,-14416,-1.00,-1.0
2425,18664,640,10908,-1.00,-1.0
2427,20992,-4588,8052,-1.00,-1.0
2428,13784,6736,-4984,-1.00,-1.0
2433,17856,1144,7928,-1.00,-1.0
2435,13932,2432,-14332,-1.00,-1.0
2437,20248,3084,7096,-1.00,-1.0
2439,21328,-6808,12004,-1.00,-1.0
2441,17328,1348,-2392,-1.00,-1.0
2443,15128,412,6396,-1.00,-1.0
2445,14060,-2092,-8576,-1.00,-1.0
2447,17580,2500,10636,-1.00,-1.0
2449,17184,-4496,-1908,-1.00,-1.0
2450,15864,5220,-7940,-1.00,-1.0
2452,19016,-5496,7828,-1.00,-1.0
2454,16752,2552,-9392,-1.00,-1.0
2456,18204,1548,9832,-1.00,-1.0
2458,18292,-1232,-4080,-1.00,-1.0
2460,14464,7288,1904,-1.00,-1.0
2464,19288,992,9216,-1.00,-1.0
2466,15280,320,-6204,-1.00,-1.0
2468,18712,772,1260,-1.00,-1.0
2470,14320,5944,-2920,-1.00,-1.0
2472,14768,1256,-13056,-1.00,-1.0
2474,17368,968,9100,-1.00,-1.0
2476,15292,1692,-3820,-1.00,-1.0
2478,18520,-24,812,-1.00,-1.0
2480,18728,3340,1512,-1.00,-1.0
2482,17192,-968,-8480,-1.00,-1.0
2484,19816,-900,13932,-1.00,-1.0
2486,16456,-1536,-964,-1.00,-1.0
2488,17688,2372,6420,-1.00,-1.0
2490,18884,-6928,9348,-1.00,-1.0
2492,14808,808,-2252,-1.00,-1.0
2493,14360,76,-1896,-1.00,-1.0
2497,17088,388,6672,-1.00,-1.0
2499,17680,-3876,-5960,-1.00,-1.0
2501,17272,3700,4556,-1.00,-1.0
2503,19824,-7964,8232,-1.00,-1.0
2505,18480,-376,8912,-1.00,-1.0
2507,13416,888,-4828,-1.00,-1.0
2509,13436,4000,-11692,-1.00,-1.0
2511,18860,2148,11464,-1.00,-1.0
2513,16264,-4276,480,-1.00,-1.0
2515,16932,-760,9072,-1.00,-1.0
2517,13116,-1768,-4828,-1.00,-1.0
2519,11516,5564,-16816,-1.00,-1.0
2521,18072,-560,9908,-1.00,-1.0
2523,18696,-5440,-2924,-1.00,-1.0
2525,18312,3448,10356,-1.00,-1.0
2527,17916,-6232,2444,-1.00,-1.0
2531,15692,-2800,-1616,-1.00,-1.0
2533,13032,8692,-14704,-1.00,-1.0
2535,16668,3080,-724,-1.00,-1.0
2537,21488,-6564,884,-1.00,-1.0
2539,18036,5324,7912,-1.00,-1.0
2541,16036,-4784,-1860,-1.00,-1.0
2542,19536,-636,20508,-1.00,-1.0
2545,13436,-940,-8252,-1.00,-1.0
2547,13684,4056,-15196,-1.00,-1.0
2548,19896,-5252,12572,-1.00,-1.0
2550,13256,2480,-22652,-1.00,-1.0
2552,19232,2124,12944,-1.00,-1.0
2554,20992,-12296,9692,-1.00,-1.0
2556,15812,7720,1648,-1.00,-1.0
2558,18600,-6956,6952,-1.00,-1.0
2562,13604,4716,-2772,-1.00,-1.0
2564,19812,-5020,792,-1.00,-1.0
2566,17716,3768,5668,-1.00,-1.0
2568,17648,-7888,1076,-1.00,-1.0
2570,18804,1208,11308,-1.00,-1.0
2572,16668,-7048,6608,-1.00,-1.0
2574,11980,6424,-8472,-1.00,-1.0
2576,22764,1956,21620,-1.00,-1.0
2578,15580,1216,-20020,-1.00,-1.0
2580,13484,5688,4680,-1.00,-1.0
2582,12260,-608,-8772,-1.00,-1.0
2584,17688,1352,-4060,-1.00,-1.0
2586,16376,3236,980,-1.00,-1.0
2588,18124,-2896,-10708,-1.00,-1.0
2590,23140,-2344,22068,-1.00,-1.0
2591,16396,-5692,-800,-1.00,-1.0
2596,19056,-1036,736,-1.00,-1.0
2598,15816,5140,-14104,-1.00,-1.0
2600,14948,6980,-3016,-1.00,-1.0
2602,21964,-3428,3812,-1.00,-1.0
2604,21536,476,19260,-1.00,-1.0
2606,14960,-4144,-6580,-1.00,-1.0
2607,15896,1856,10344,-1.00,-1.0
2609,14960,-1928,-6136,-1.00,-1.0
2611,13780,8516,-16968,-1.00,-1.0
2613,18716,-1220,-444,-1.00,-1.0
2615,18604,108,-6896,-1.00,-1.0
2617,19800,164,13368,-1.00,-1.0
2619,21732,-9092,15212,-1.00,-1.0
2621,15748,4444,9888,-1.00,-1.0
2623,11092,572,-18508,-1.00,-1.0
2627,17988,-280,-684,-1.00,-1.0
2629,17932,5608,-12772,-1.00,-1.0
2631,22244,-2700,22172,-1.00,-1.0
2633,19404,-9088,4424,-1.00,-1.0
2635,13336,7588,7052,-1.00,-1.0
2637,13788,-2196,-14060,-1.00,-1.0
2639,19352,5976,3864,-1.00,-1.0
2641,16872,3772,15548,-1.00,-1.0
2643,16296,2092,-11976,-1.00,-1.0
2645,19648,-2972,18024,-1.00,-1.0
2647,14992,-1480,-14076,-1.00,-1.0
2649,17408,5612,-6976,-1.00,-1.0
2651,19600,-2960,7656,-1.00,-1.0
2653,17120,-4296,1960,-1.00,-1.0
2655,17392,604,15280,-1.00,-1.0
2657,16404,-8192,-3300,-1.00,-1.0
2661,13116,-2140,-15540,-1.00,-1.0
2663,15756,3584,-3944,-1.00,-1.0
2665,20580,-8452,14016,-1.00,-1.0
2667,13892,468,-10576,-1.00,-1.0
2669,15920,1592,10132,-1.00,-1.0
2671,18768,-10264,6700,-1.00,-1.0
2672,18412,4104,11432,-1.00,-1.0
2675,17716,-7588,-1656,-1.00,-1.0
2676,13748,6268,-10512,-1.00,-1.0
2678,16036,-3672,7512,-1.00,-1.0
2680,17176,-3200,4816,-1.00,-1.0
2682,15548,2848,6528,-1.00,-1.0
2684,16364,-4780,-4508,-1.00,-1.0
2686,16012,2140,5884,-1.00,-1.0
2688,16052,-1200,-16044,-1.00,-1.0
2692,18480,-676,-1312,-1.00,-1.0
2694,16756,4200,-7232,-1.00,-1.0
2696,21140,-4572,21288,-1.00,-1.0
2698,12788,-1444,-13840,-1.00,-1.0
2700,13484,8712,3988,-1.00,-1.0
2702,20288,-8280,-652,-1.00,-1.0
2704,18088,6952,-2000,-1.00,-1.0
2706,17892,-3028,-2768,-1.00,-1.0
2708,20560,-3940,11612,-1.00,-1.0
2710,16828,-3960,11492,-1.00,-1.0
2712,22304,-4916,-5272,-1.00,-1.0
2714,14720,2676,8552,-1.00,-1.0
2716,17540,-1236,468,-1.00,-1.0
2718,16620,864,1236,-1.00,-1.0
2720,17180,-1816,13784,-1.00,-1.0
2724,16940,4500,8976,-1.00,-1.0
2726,19652,-6388,-3272,-1.00,-1.0
2728,18704,6436,748,-1.00,-1.0
2729,17632,-3632,-2972,-1.00,-1.0
2731,16404,2568,-4284,-1.00,-1.0
2733,17604,-1856,11192,-1.00,-1.0
2735,16496,-2248,-2276,-1.00,-1.0
2737,16068,3072,12388,-1.00,-1.0
2739,16724,-5436,-11684,-1.00,-1.0
2741,18764,2832,5568,-1.00,-1.0
2743,18336,-4228,-2684,-1.00,-1.0
2745,17992,5676,432,-1.00,-1.0
2747,18580,-4220,12128,-1.00,-1.0
2749,13860,-280,-11500,-1.00,-1.0
2751,14624,4072,9300,-1.00,-1.0
2753,18312,-4520,4100,-1.00,-1.0
2757,15244,3108,7876,-1.00,-1.0
2759,17536,-5496,-5856,-1.00,-1.0
2761,16556,3928,6896,-1.00,-1.0
2762,18716,-6968,-2972,-1.00,-1.0
2764,18816,3804,8160,-1.00,-1.0
2766,16276,-4660,488,-1.00,-1.0
2768,13716,1324,-2576,-1.00,-1.0
2770,13600,-344,4788,-1.00,-1.0
2772,12052,3232,-25104,-1.00,-1.0
2774,22788,924,21648,-1.00,-1.0
2776,20888,-7984,-452,-1.00,-1.0
2778,14312,10636,-7120,-1.00,-1.0
2780,21196,-10152,11212,-1.00,-1.0
2782,14164,1988,-2656,-1.00,-1.0
2784,8260,8428,-13304,-1.00,-1.0
2788,21360,-216,20868,-1.00,-1.0
2790,14988,-5224,-12148,-1.00,-1.0
2792,18132,1032,11960,-1.00,-1.0
2794,17548,-7108,5288,-1.00,-1.0
2796,13284,5260,-2980,-1.00,-1.0
2798,14776,800,-2508,-1.00,-1.0
2800,16092,-924,-9612,-1.00,-1.0
2802,16148,2488,6276,-1.00,-1.0
2804,20116,-5596,-3736,-1.00,-1.0
2806,21260,3020,15292,-1.00,-1.0
2808,14956,1192,-344,-1.00,-1.0
2810,16984,-2024,-14192,-1.00,-1.0
2812,19848,2448,13268,-1.00,-1.0
2814,22044,-10112,3708,-1.00,-1.0
2815,20608,524,21600,-1.00,-1.0
2817,13024,-4652,-5616,-1.00,-1.0
2822,15772,-2312,1736,-1.00,-1.0
2824,14396,4076,-22396,-1.00,-1.0
2825,19732,2944,10844,-1.00,-1.0
2828,21692,-7180,-2960,-1.00,-1.0
2829,21416,4284,20212,-1.00,-1.0
2831,17232,-6844,-184,-1.00,-1.0
2833,12248,11912,-7004,-1.00,-1.0
2835,15100,-808,-540,-1.00,-1.0
2837,16548,2080,-16040,-1.00,-1.0
2839,17160,5700,4796,-1.00,-1.0
2841,20900,-7824,840,-1.00,-1.0
2843,21296,1680,21936,-1.00,-1.0
2845,16088,-7008,-5624,-1.00,-1.0
2847,14520,7820,-1492,-1.00,-1.0
2849,15184,-3648,-2476,-1.00,-1.0
2853,17672,1856,8852,-1.00,-1.0
2855,18540,-3492,-11332,-1.00,-1.0
2857,20488,2228,20560,-1.00,-1.0
2859,17888,-6832,-5920,-1.00,-1.0
2861,15440,9248,4384,-1.00,-1.0
2863,16472,-5584,-1948,-1.00,-1.0
2865,12940,10260,-21788,-1.00,-1.0
2867,15700,5352,-148,-1.00,-1.0
2869,20236,-2984,-9476,-1.00,-1.0
2871,22416,6724,21012,-1.00,-1.0
2873,14644,-1688,764,-1.00,-1.0
2875,15052,-560,-15628,-1.00,-1.0
2877,17932,2268,9212,-1.00,-1.0
2879,20284,-8748,-1116,-1.00,-1.0
2880,20500,3752,21164,-1.00,-1.0
2885,19760,3404,16536,-1.00,-1.0
2887,18912,-10460,-1404,-1.00,-1.0
2889,13100,6484,-20856,-1.00,-1.0
2890,19728,2988,11796,-1.00,-1.0
2893,22204,-10764,7344,-1.00,-1.0
2895,16224,6016,9992,-1.00,-1.0
2896,18152,-10976,488,-1.00,-1.0
2898,17028,2364,8540,-1.00,-1.0
2900,9836,2472,-16676,-1.00,-1.0
2902,14960,2524,-9660,-1.00,-1.0
2904,21124,-1584,16756,-1.00,-1.0
2906,16948,-6428,-6980,-1.00,-1.0
2908,17280,2796,16312,-1.00,-1.0
2910,19124,-11012,5648,-1.00,-1.0
2912,16380,4800,7452,-1.00,-1.0
2914,12936,-936,-13140,-1.00,-1.0
2918,16048,692,584,-1.00,-1.0
2920,15448,-288,-13628,-1.00,-1.0
2922,23348,-2548,26076,-1.00,-1.0
2924,19064,-11240,4568,-1.00,-1.0
2926,11324,10740,-2920,-1.00,-1.0
2928,17980,-8108,8816,-1.00,-1.0
2930,14208,3492,-16000,-1.00,-1.0
2932,14564,5328,128,-1.00,-1.0
2934,20552,-8936,2932,-1.00,-1.0
2936,16224,7000,7440,-1.00,-1.0
2938,14400,-3688,-13392,-1.00,-1.0
2940,22080,-2360,24520,-1.00,-1.0
2942,18228,-7444,-3216,-1.00,-1.0
2944,20264,-9168,1852,-1.00,-1.0
2945,20380,3220,21612,-1.00,-1.0
2950,16520,7688,9936,-1.00,-1.0
2952,18516,-9108,-6748,-1.00,-1.0
2954,17572,2540,15304,-1.00,-1.0
2956,14104,-5256,-5400,-1.00,-1.0
2958,17452,6912,-2100,-1.00,-1.0
2960,15984,2012,-976,-1.00,-1.0
2962,14332,1348,-20928,-1.00,-1.0
2963,14240,8088,-4644,-1.00,-1.0
2966,14592,-28,2520,-1.00,-1.0
2968,19108,128,-1224,-1.00,-1.0
2969,17940,7028,4960,-1.00,-1.0
2971,18364,-7284,-5280,-1.00,-1.0
2973,17680,304,16912,-1.00,-1.0
2975,12400,-4140,-11804,-1.00,-1.0
2977,16856,5864,5352,-1.00,-1.0
2979,19232,-7132,9812,-1.00,-1.0
2983,19220,2624,10108,-1.00,-1.0
2985,20616,-11152,-1300,-1.00,-1.0
2987,17816,7336,17872,-1.00,-1.0
2989,15296,-7216,-3168,-1.00,-1.0
2991,16076,4548,16,-1.00,-1.0
2993,12424,272,-7152,-1.00,-1.0
2995,16236,4560,-21348,-1.00,-1.0
2997,24112,1652,21192,-1.00,-1.0
2999,19820,-7960,-4732,-1.00,-1.0
3001,16484,8352,13892,-1.00,-1.0
3003,16816,-11316,5432,-1.00,-1.0
3005,11624,8896,-11860,-1.00,-1.0
3007,14572,5204,-4644,-1.00,-1.0
3009,21888,-4704,1284,-1.00,-1.0
3010,13668,8024,-612,-1.00,-1.0
3014,13236,7720,-25284,-1.00,-1.0
3016,22708,-64,13488,-1.00,-1.0
3018,23368,-11624,11908,-1.00,-1.0
3020,13120,9184,2700,-1.00,-1.0
3022,14864,-7100,-648,-1.00,-1.0
3024,14948,3288,-10932,-1.00,-1.0
3026,14908,3404,-5948,-1.00,-1.0
3028,22376,-2904,5832,-1.00,-1.0
3030,21024,-416,18660,-1.00,-1.0
3032,12752,-1492,-14616,-1.00,-1.0
3034,16268,1976,9600,-1.00,-1.0
3036,17600,-4532,1200,-1.00,-1.0
3038,13068,13500,-22208,-1.00,-1.0
3040,17908,2856,-2616,-1.00,-1.0
3042,21472,-3916,-952,-1.00,-1.0
3044,19492,748,18736,-1.00,-1.0
3048,16308,3028,11556,-1.00,-1.0
3050,13444,-3136,-7376,-1.00,-1.0
3052,15884,3552,-6892,-1.00,-1.0
3054,17932,1144,-2572,-1.00,-1.0
3056,20044,-3464,-1144,-1.00,-1.0
3058,19804,-4484,23236,-1.00,-1.0
3060,16004,-8540,1268,-1.00,-1.0
3062,13352,6812,824,-1.00,-1.0
3064,14800,-3652,-5456,-1.00,-1.0
3065,19064,-5492,-132,-1.00,-1.0
3067,17392,4808,17364,-1.00,-1.0
3069,14084,-2932,-8612,-1.00,-1.0
3071,15128,5740,-8920,-1.00,-1.0
3073,16720,-224,-6828,-1.00,-1.0
3075,19612,-1028,-4072,-1.00,-1.0
3079,15984,-9196,2800,-1.00,-1.0
3081,13216,7104,-3024,-1.00,-1.0
3083,16560,-5316,404,-1.00,-1.0
3085,15512,6932,-14604,-1.00,-1.0
3087,20100,1392,5324,-1.00,-1.0
3089,22392,-6936,7796,-1.00,-1.0
3091,14468,216,11776,-1.00,-1.0
3093,15164,-6692,1572,-1.00,-1.0
3095,16544,3372,6508,-1.00,-1.0
3097,12056,1680,-15064,-1.00,-1.0
3099,15416,6420,-17800,-1.00,-1.0
3101,23984,-3960,21952,-1.00,-1.0
3103,17936,-6632,-6724,-1.00,-1.0
3105,15644,3156,21088,-1.00,-1.0
3107,16312,-9364,3080,-1.00,-1.0
3109,13256,6996,-5456,-1.00,-1.0
3113,22320,-3820,4052,-1.00,-1.0
3115,17352,-96,6592,-1.00,-1.0
3117,16480,-6396,-3800,-1.00,-1.0
3119,18804,-2000,24960,-1.00,-1.0
3121,13180,-6944,-4440,-1.00,-1.0
3123,12564,8228,-8900,-1.00,-1.0
3125,18308,-748,-3616,-1.00,-1.0
3127,18496,-124,-6388,-1.00,-1.0
3129,17720,-88,11580,-1.00,-1.0
3130,20512,-9268,9008,-1.00,-1.0
3132,15020,7996,-16464,-1.00,-1.0
3134,21148,-2824,11772,-1.00,-1.0
3136,21280,-7600,5372,-1.00,-1.0
3138,13792,3964,7004,-1.00,-1.0
3140,14564,-6024,-3344,-1.00,-1.0
3144,15972,572,-8880,-1.00,-1.0
3146,18324,5716,-6040,-1.00,-1.0
3148,20348,-856,10384,-1.00,-1.0
3150,17184,-2392,-5324,-1.00,-1.0
3152,17064,3124,11092,-1.00,-1.0
3154,18144,-5520,2956,-1.00,-1.0
3156,12452,12284,-15968,-1.00,-1.0
3158,17328,-1432,-1108,-1.00,-1.0
3160,19832,-728,-5180,-1.00,-1.0
3162,18716,1816,13748,-1.00,-1.0
3164,19368,-9696,2680,-1.00,-1.0
3166,16576,312,17332,-1.00,-1.0
3168,12436,-5152,-6408,-1.00,-1.0
3170,15004,3904,-5696,-1.00,-1.0
3172,16384,536,-5132,-1.00,-1.0
3176,20972,-2344,23600,-1.00,-1.0
3178,21260,-10900,7308,-1.00,-1.0
3180,12444,14792,-6204,-1.00,-1.0
3182,15252,-2052,-2892,-1.00,-1.0
3184,18288,3192,-3036,-1.00,-1.0
3186,16964,3244,4456,-1.00,-1.0
3188,18220,-2828,-6476,-1.00,-1.0
3189,16948,1600,13688,-1.00,-1.0
3192,17200,-9884,4720,-1.00,-1.0
3194,14484,8248,-10472,-1.00,-1.0
3195,17208,-1096,-2448,-1.00,-1.0
3197,13640,-5048,-3644,-1.00,-1.0
3199,14036,8500,-11300,-1.00,-1.0
3201,18660,-1796,4892,-1.00,-1.0
3203,16748,2720,-15492,-1.00,-1.0
3205,19876,2912,17208,-1.00,-1.0
3209,18520,-3368,9224,-1.00,-1.0
3211,13152,-5768,-4488,-1.00,-1.0
3213,13588,752,-11324,-1.00,-1.0
3215,21352,-5980,22240,-1.00,-1.0
3217,16312,-6540,-456,-1.00,-1.0
3219,12940,3468,-11164,-1.00,-1.0
3221,16336,-6824,12420,-1.00,-1.0
3223,11608,-112,-17052,-1.00,-1.0
3225,16224,5028,7756,-1.00,-1.0
3227,22668,-8552,10196,-1.00,-1.0
3229,17056,292,720,-1.00,-1.0
3231,10392,7276,-16736,-1.00,-1.0
3233,17060,256,7036,-1.00,-1.0
3235,21668,280,5052,-1.00,-1.0
3237,17084,-1512,1320,-1.00,-1.0
3243,12980,-760,-1960,-1.00,-1.0
3245,21368,-520,6068,-1.00,-1.0
3247,20228,-3112,16008,-1.00,-1.0
3248,15144,148,-12216,-1.00,-1.0
3250,17552,-6468,10172,-1.00,-1.0
3252,15536,-7404,3584,-1.00,-1.0
3254,20716,1672,10896,-1.00,-1.0
3256,19116,6012,-8008,-1.00,-1.0
3258,15068,5444,2812,-1.00,-1.0
3260,21008,-4484,8108,-1.00,-1.0
3262,17796,-484,9740,-1.00,-1.0
3264,11560,920,-8724,-1.00,-1.0
3266,16264,-2656,1072,-1.00,-1.0
3268,17132,-1848,2284,-1.00,-1.0
3270,19288,-3556,3508,-1.00,-1.0
3272,19560,-2424,1620,-1.00,-1.0
3276,11744,3300,-13920,-1.00,-1.0
3278,16560,4496,-3520,-1.00,-1.0
3280,21852,-2952,14300,-1.00,-1.0
3282,17216,368,-2664,-1.00,-1.0
3284,12768,7904,-9800,-1.00,-1.0
3286,19348,-4836,20208,-1.00,-1.0
3287,16768,-1996,-3828,-1.00,-1.0
3290,13992,6764,-5572,-1.00,-1.0
3292,19448,-7540,12092,-1.00,-1.0
3293,17416,-3552,2572,-1.00,-1.0
3295,10696,4588,-11304,-1.00,-1.0
3297,20436,-8008,19028,-1.00,-1.0
3299,19124,-6936,6064,-1.00,-1.0
3301,20528,1552,6556,-1.00,-1.0
3303,19384,-1364,8444,-1.00,-1.0
3307,13684,-108,-3424,-1.00,-1.0
3309,13920,-712,-1228,-1.00,-1.0
3311,18664,-348,-1920,-1.00,-1.0
3313,11128,9520,-14276,-1.00,-1.0
3315,18124,-2060,16616,-1.00,-1.0
3317,18236,-2128,-1208,-1.00,-1.0
3319,14808,6108,3376,-1.00,-1.0
3321,17548,-4192,3832,-1.00,-1.0
3323,16912,-1820,1252,-1.00,-1.0
3325,11392,-588,-5092,-1.00,-1.0
3327,18080,-3672,13216,-1.00,-1.0
3329,21448,-8992,16416,-1.00,-1.0
3331,9972,180,-7420,-1.00,-1.0
3333,12624,-488,4144,-1.00,-1.0
3335,21380,-12916,13696,-1.00,-1.0
3337,15264,1724,7844,-1.00,-1.0
3341,16756,-1840,3032,-1.00,-1.0
3343,15872,-4400,7724,-1.00,-1.0
3345,17824,-556,-2716,-1.00,-1.0
3347,20036,-2836,5000,-1.00,-1.0
3349,14640,-892,-7004,-1.00,-1.0
3351,16060,2748,240,-1.00,-1.0
3353,21472,-5324,4384,-1.00,-1.0
3355,15756,7096,-2088,-1.00,-1.0
3357,17192,864,-4776,-1.00,-1.0
3358,20836,-1824,9352,-1.00,-1.0
3360,14212,7248,-10444,-1.00,-1.0
3362,17084,6528,-11860,-1.00,-1.0
3364,20176,3716,-4304,-1.00,-1.0
3366,17492,5208,1432,-1.00,-1.0
3368,18736,-8232,13396,-1.00,-1.0
3372,15896,1036,-296,-1.00,-1.0
3374,18020,-236,-3168,-1.00,-1.0
3376,15912,1404,4012,-1.00,-1.0
3378,18572,-2328,6064,-1.00,-1.0
3380,18656,-124,3528,-1.00,-1.0
3382,16904,5372,-13788,-1.00,-1.0
3384,17148,-520,8416,-1.00,-1.0
3386,17156,356,-4120,-1.00,-1.0
3388,15712,8064,-4232,-1.00,-1.0
3390,20988,-4152,13148,-1.00,-1.0
3392,17836,-1216,-3492,-1.00,-1.0
3394,13872,1912,-3792,-1.00,-1.0
3396,17188,-5272,7024,-1.00,-1.0
3398,19276,-4708,8568,-1.00,-1.0
3400,10732,7288,-19420,-1.00,-1.0
3402,15544,556,2680,-1.00,-1.0
3406,18428,6052,4612,-1.00,-1.0
3408,16932,-780,-5304,-1.00,-1.0
3410,16716,3788,-6756,-1.00,-1.0
3412,14544,1468,3028,-1.00,-1.0
3414,16884,2480,-3188,-1.00,-1.0
3416,21272,2128,7456,-1.00,-1.0
3418,20656,-5148,8468,-1.00,-1.0
3419,13240,128,-5204,-1.00,-1.0
3421,11524,3520,-12624,-1.00,-1.0
3423,19664,-6364,15112,-1.00,-1.0
3425,23668,-12364,8668,-1.00,-1.0
3427,14204,2948,636,-1.00,-1.0
3429,11032,-1116,-4408,-1.00,-1.0
3431,20456,-5572,9160,-1.00,-1.0
3433,14952,9768,-6600,-1.00,-1.0
3437,21528,-1432,11116,-1.00,-1.0
3439,18468,-3980,10332,-1.00,-1.0
3441,11580,3756,-11372,-1.00,-1.0
3443,23252,-5068,6784,-1.00,-1.0
3445,21780,-6712,14592,-1.00,-1.0
3447,12832,2460,-7656,-1.00,-1.0
3449,20384,-1188,6856,-1.00,-1.0
3451,18908,-3056,7168,-1.00,-1.0
3453,16492,-3540,-2100,-1.00,-1.0
3455,14532,4692,-5592,-1.00,-1.0
3457,17208,-5020,7044,-1.00,-1.0
3459,17612,-2320,-628,-1.00,-1.0
3461,16224,2852,2696,-1.00,-1.0
3463,18808,-5084,4256,-1.00,-1.0
3465,17696,1264,-2952,-1.00,-1.0
3467,13800,2728,-5424,-1.00,-1.0
3471,17936,1308,-4848,-1.00,-1.0
3473,19484,-3176,9460,-1.00,-1.0
3475,18700,-5356,-1216,-1.00,-1.0
3477,15300,4296,2584,-1.00,-1.0
3479,14780,-2316,-2924,-1.00,-1.0
3481,20060,-2676,7480,-1.00,-1.0
3482,15608,1616,192,-1.00,-1.0
3484,14836,60,-6832,-1.00,-1.0
3486,21192,-5436,8936,-1.00,-1.0
3488,17768,-6620,5208,-1.00,-1.0
3490,14580,416,-9124,-1.00,-1.0
3492,16512,-616,9140,-1.00,-1.0
3494,15504,-228,248,-1.00,-1.0
3496,19920,-2860,2564,-1.00,-1.0
3498,12456,5860,-13516,-1.00,-1.0
3502,15980,2004,4760,-1.00,-1.0
3504,20872,-5692,13720,-1.00,-1.0
3506,16616,-272,-6312,-1.00,-1.0
3508,11740,9088,-13992,-1.00,-1.0
3510,16560,1684,2452,-1.00,-1.0
3512,23992,-2892,6040,-1.00,-1.0
3514,11996,6244,-6708,-1.00,-1.0
3516,16664,-1476,2692,-1.00,-1.0
3518,20640,-840,-4224,-1.00,-1.0
3520,20316,1656,8316,-1.00,-1.0
3522,15668,-968,-3424,-1.00,-1.0
3524,15116,2560,5184,-1.00,-1.0
3526,15212,-2072,-1032,-1.00,-1.0
3528,19304,468,3572,-1.00,-1.0
3530,17200,-112,-128,-1.00,-1.0
3532,14304,1724,-6144,-1.00,-1.0
3535,21736,-4024,12408,-1.00,-1.0
3537,17776,1908,-6712,-1.00,-1.0
3539,15472,3864,2500,-1.00,-1.0
3541,15172,1584,-656,-1.00,-1.0
3543,17572,-1332,2820,-1.00,-1.0
3545,19744,-1644,8216,-1.00,-1.0
3547,15860,3312,-4304,-1.00,-1.0
3549,19572,-1332,5292,-1.00,-1.0
3551,18300,-556,2012,-1.00,-1.0
3553,17332,388,-308,-1.00,-1.0
3555,15680,1072,-4028,-1.00,-1.0
3557,14928,1416,-2108,-1.00,-1.0
3559,20416,-3144,4512,-1.00,-1.0
3561,19772,-2568,10212,-1.00,-1.0
3563,12488,1684,-7140,-1.00,-1.0
3565,14156,3820,-1200,-1.00,-1.0
3569,17228,-76,-7916,-1.00,-1.0
3571,15316,2544,1304,-1.00,-1.0
3573,17596,-776,3532,-1.00,-1.0
3575,16632,3476,-4568,-1.00,-1.0
3577,18220,-2264,5644,-1.00,-1.0
3579,21276,-3840,5936,-1.00,-1.0
3581,15580,1640,1716,-1.00,-1.0
3582,12900,-1728,-7960,-1.00,-1.0
3584,16152,1176,60,-1.00,-1.0
3586,17808,-760,1384,-1.00,-1.0
3588,20924,-1336,6952,-1.00,-1.0
3590,16200,2396,2728,-1.00,-1.0
3592,13128,360,-11212,-1.00,-1.0
3594,18020,208,4788,-1.00,-1.0
3596,18084,-1456,-620,-1.00,-1.0
3600,15896,444,60,-1.00,-1.0
3602,11872,912,-6924,-1.00,-1.0
3604,16108,4944,-8964,-1.00,-1.0
3606,23332,-1608,16468,-1.00,-1.0
3608,18608,1348,-4920,-1.00,-1.0
3610,15660,3024,1340,-1.00,-1.0
3612,17792,-2624,5712,-1.00,-1.0
3614,17868,-920,476,-1.00,-1.0
3616,16808,-1280,3312,-1.00,-1.0
3618,13596,-1136,-4432,-1.00,-1.0
3620,14840,7556,-11160,-1.00,-1.0
3622,21868,-2824,14264,-1.00,-1.0
3624,21840,-4512,3220,-1.00,-1.0
3626,11464,9036,-8368,-1.00,-1.0
3628,12404,336,-8980,-1.00,-1.0
3630,19428,-604,5752,-1.00,-1.0
3634,18616,-1004,-2348,-1.00,-1.0
3636,17200,-1836,4912,-1.00,-1.0
3638,12760,456,-11188,-1.00,-1.0
3640,13248,10728,-15776,-1.00,-1.0
3642,21500,-4124,13532,-1.00,-1.0
3644,22864,-5388,2096,-1.00,-1.0
3645,17404,6520,1488,-1.00,-1.0
3647,14776,-2668,-4700,-1.00,-1.0
3649,14768,4052,108,-1.00,-1.0
3651,15920,-1148,1984,-1.00,-1.0
3653,18332,2484,-4764,-1.00,-1.0
3655,19472,-912,7508,-1.00,-1.0
3657,20548,-6728,8016,-1.00,-1.0
3659,9656,11620,-18940,-1.00,-1.0
3661,13056,2692,-5756,-1.00,-1.0
3663,13632,-4000,-6164,-1.00,-1.0
3667,15164,300,-4248,-1.00,-1.0
3669,18320,112,6528,-1.00,-1.0
3671,14692,2264,-8172,-1.00,-1.0
3673,20096,-6272,8860,-1.00,-1.0
3675,16488,2180,3336,-1.00,-1.0
3677,13436,-1024,-9052,-1.00,-1.0
3679,16508,2440,-5788,-1.00,-1.0
3681,17760,-1040,3972,-1.00,-1.0
3683,18672,-2244,1728,-1.00,-1.0
3685,19256,3152,6376,-1.00,-1.0
3687,19068,-3172,4300,-1.00,-1.0
3689,13620,4312,-9816,-1.00,-1.0
3691,15040,1596,2260,-1.00,-1.0
3693,19708,-2548,356,-1.00,-1.0
3694,19920,748,11604,-1.00,-1.0
3699,14640,4200,-4928,-1.00,-1.0
3701,13456,148,-1996,-1.00,-1.0
3703,17476,-1332,-11856,-1.00,-1.0
3704,23708,136,21860,-1.00,-1.0
3706,19900,-9164,3848,-1.00,-1.0
3708,13480,3960,3496,-1.00,-1.0
3710,12940,-4684,-1164,-1.00,-1.0
3712,14900,2284,-5772,-1.00,-1.0
3714,18528,60,7512,-1.00,-1.0
3716,22712,-10836,9092,-1.00,-1.0
3718,14936,3128,1668,-1.00,-1.0
3720,12632,-1456,-4668,-1.00,-1.0
3722,14636,6084,-14668,-1.00,-1.0
3724,19924,996,5724,-1.00,-1.0
3726,22248,-8232,5108,-1.00,-1.0
3728,10904,6780,-19460,-1.00,-1.0
3732,17096,1384,6360,-1.00,-1.0
3734,15676,-680,-5140,-1.00,-1.0
3736,17900,-2332,-3920,-1.00,-1.0
3738,13628,2376,-4964,-1.00,-1.0
3740,15200,-1148,-3540,-1.00,-1.0
3742,19844,976,-10440,-1.00,-1.0
3744,22832,-3704,23016,-1.00,-1.0
3746,21968,-15688,12108,-1.00,-1.0
3748,7632,9268,-4396,-1.00,-1.0
3750,8924,1324,-12216,-1.00,-1.0
3752,21400,-1412,4184,-1.00,-1.0
3754,22044,1000,13228,-1.00,-1.0
3756,17000,-1884,-12372,-1.00,-1.0
3758,17940,-1292,18152,-1.00,-1.0
3759,12640,-3096,-11492,-1.00,-1.0
3764,22652,-5400,17272,-1.00,-1.0
3765,23144,-11652,2844,-1.00,-1.0
3767,17936,3296,20884,-1.00,-1.0
3769,10788,-6576,-5976,-1.00,-1.0
3771,14060,3032,4840,-1.00,-1.0
3773,17444,-3860,3384,-1.00,-1.0
3775,17260,-268,-11200,-1.00,-1.0
3777,18872,-304,11036,-1.00,-1.0
3779,22208,-14968,19276,-1.00,-1.0
3781,8760,10804,-11336,-1.00,-1.0
3783,10200,3300,-11836,-1.00,-1.0
3785,16444,-9960,1724,-1.00,-1.0
3787,18932,7096,8420,-1.00,-1.0
3789,16036,-2416,-8268,-1.00,-1.0
3791,14952,1956,-18004,-1.00,-1.0
3795,21804,-7828,8528,-1.00,-1.0
3797,16672,4904,5836,-1.00,-1.0
3799,14504,-2736,-6488,-1.00,-1.0
3800,14884,6988,-11748,-1.00,-1.0
3803,17444,288,-2812,-1.00,-1.0
3805,23312,-3760,972,-1.00,-1.0
3806,19768,6408,11312,-1.00,-1.0
3808,15268,-3692,152,-1.00,-1.0
3810,13112,5508,3400,-1.00,-1.0
3812,15436,1920,-6568,-1.00,-1.0
3814,19948,1140,-7404,-1.00,-1.0
3816,19760,780,6412,-1.00,-1.0
3818,20760,-9944,7884,-1.00,-1.0
3820,12352,6736,-108,-1.00,-1.0
3822,8316,4760,-18720,-1.00,-1.0
3824,15324,9928,-23404,-1.00,-1.0
3828,19500,-976,-13428,-1.00,-1.0
3830,15172,12516,5212,-1.00,-1.0
3832,19740,-6012,3496,-1.00,-1.0
3834,16012,6388,-160,-1.00,-1.0
3836,14868,1172,-8844,-1.00,-1.0
3838,21824,-1748,3900,-1.00,-1.0
3840,12588,8280,-7568,-1.00,-1.0
3842,16028,-3004,220,-1.00,-1.0
3844,19500,2468,-13704,-1.00,-1.0
3846,23568,-1668,23096,-1.00,-1.0
3848,16316,-5816,-5856,-1.00,-1.0
3850,13376,7800,4688,-1.00,-1.0
3852,17656,-7724,5652,-1.00,-1.0
3854,16608,1920,-7288,-1.00,-1.0
3855,15980,-112,2060,-1.00,-1.0
3857,22980,-11616,10956,-1.00,-1.0
3862,11496,-2852,-7040,-1.00,-1.0
3864,15152,5172,-1048,-1.00,-1.0
3865,15924,1352,3160,-1.00,-1.0
3868,19480,-3188,-10192,-1.00,-1.0
3870,22532,-324,23436,-1.00,-1.0
3871,13888,-4100,-11492,-1.00,-1.0
3873,15020,3760,6788,-1.00,-1.0
3875,15924,-6404,8032,-1.00,-1.0
3877,15708,2596,-15220,-1.00,-1.0
3879,20928,-2200,17312,-1.00,-1.0
3881,19804,-10912,3528,-1.00,-1.0
3883,10332,11908,-11524,-1.00,-1.0
3885,14428,-1940,-808,-1.00,-1.0
3887,17632,1380,-10012,-1.00,-1.0
3889,18840,2876,12212,-1.00,-1.0
3893,18296,5248,11044,-1.00,-1.0
3895,15312,-2908,-9580,-1.00,-1.0
3897,17764,2092,72,-1.00,-1.0
3899,15584,-1960,2132,-1.00,-1.0
3901,17820,-692,-8640,-1.00,-1.0
3903,21772,-1772,21128,-1.00,-1.0
3905,13692,-3624,-9848,-1.00,-1.0
3907,22300,-5384,10132,-1.00,-1.0
3909,18040,-3568,6788,-1.00,-1.0
3911,17144,-4436,292,-1.00,-1.0
3913,17388,2132,2368,-1.00,-1.0
3915,12196,6264,-13860,-1.00,-1.0
3917,18228,4500,-7032,-1.00,-1.0
3919,22132,-552,14528,-1.00,-1.0
3920,18272,-3520,1296,-1.00,-1.0
3925,14664,1848,-5576,-1.00,-1.0
3927,15212,5456,-15928,-1.00,-1.0
3929,20960,1636,15760,-1.00,-1.0
3930,22180,-6296,1104,-1.00,-1.0
3933,17328,5448,11356,-1.00,-1.0
3934,13604,-2096,-9988,-1.00,-1.0
3936,14868,-92,2820,-1.00,-1.0
3938,12624,1680,-6688,-1.00,-1.0
3940,19688,-924,-6752,-1.00,-1.0
3942,23316,-684,17848,-1.00,-1.0
3944,15660,-6092,-2424,-1.00,-1.0
3946,14308,1176,2984,-1.00,-1.0
3948,17020,-6432,3812,-1.00,-1.0
3950,12392,2720,-14828,-1.00,-1.0
3952,16984,-1352,7120,-1.00,-1.0
3954,21912,-9864,11444,-1.00,-1.0
3958,12092,688,-16324,-1.00,-1.0
3960,16196,2444,-6284,-1.00,-1.0
3962,19596,-2496,14668,-1.00,-1.0
3964,21700,-4764,-2544,-1.00,-1.0
3966,19876,4492,12664,-1.00,-1.0
3968,14596,-6364,-3884,-1.00,-1.0
3970,10296,8096,-14148,-1.00,-1.0
3972,17424,-1216,12176,-1.00,-1.0
3974,22228,-4936,-7012,-1.00,-1.0
3976,19592,3472,15668,-1.00,-1.0
3978,16000,-1940,1676,-1.00,-1.0
3980,19840,-3004,-5136,-1.00,-1.0
3982,19944,2756,10396,-1.00,-1.0
3984,15776,-7544,-3392,-1.00,-1.0
3985,13564,5476,3712,-1.00,-1.0
3990,15056,5872,-18220,-1.00,-1.0
3992,23396,-2540,26328,-1.00,-1.0
3994,19564,-7944,-1968,-1.00,-1.0
3995,10364,12892,-6688,-1.00,-1.0
3998,15000,-4052,-6660,-1.00,-1.0
4000,20728,-888,728,-1.00,-1.0
4001,15784,-1072,3544,-1.00,-1.0
4003,22460,-10644,9724,-1.00,-1.0
4005,16620,5228,8000,-1.00,-1.0
4007,9416,-1380,-19684,-1.00,-1.0
4009,16196,1656,2904,-1.00,-1.0
4011,19236,-5500,14532,-1.00,-1.0
4013,18724,-3760,-6004,-1.00,-1.0
4015,19660,520,20380,-1.00,-1.0
4017,14304,-5512,-9908,-1.00,-1.0
4021,14508,-248,-4432,-1.00,-1.0
4023,19804,2204,-8032,-1.00,-1.0
4025,25556,-4628,31792,-1.00,-1.0
4027,14628,-6608,-6052,-1.00,-1.0
4029,9200,11320,-10012,-1.00,-1.0
4031,18224,-5268,9976,-1.00,-1.0
4033,18448,-1924,-9772,-1.00,-1.0
4035,16216,2264,12092,-1.00,-1.0
4037,19708,-12308,8360,-1.00,-1.0
4039,13504,3060,300,-1.00,-1.0
4041,10996,668,-14524,-1.00,-1.0
4043,19936,-9012,6508,-1.00,-1.0
4045,20900,-1404,14948,-1.00,-1.0
4047,23392,-9172,6888,-1.00,-1.0
4049,13612,3760,-11208,-1.00,-1.0
4051,21208,-952,17916,-1.00,-1.0
4054,16688,8856,4752,-1.00,-1.0
4056,12808,-384,-10208,-1.00,-1.0
4058,13836,6124,-7488,-1.00,-1.0
4060,17624,-948,4704,-1.00,-1.0
4062,21820,-5352,1620,-1.00,-1.0
4064,19012,3980,9992,-1.00,-1.0
4066,12052,-5156,-9908,-1.00,-1.0
4068,18548,652,12696,-1.00,-1.0
4070,15768,-4088,800,-1.00,-1.0
4072,13452,4088,-14444,-1.00,-1.0
4074,18872,-1728,14852,-1.00,-1.0
4076,15500,-3568,-1512,-1.00,-1.0
4078,15112,8244,-4560,-1.00,-1.0
4080,17436,-6684,9104,-1.00,-1.0
4082,19396,-3944,-5940,-1.00,-1.0
4086,18000,-9488,2468,-1.00,-1.0
4088,15144,5180,4224,-1.00,-1.0
4090,10256,-1460,-7248,-1.00,-1.0
4092,18192,-2224,-6196,-1.00,-1.0
4094,19532,416,16548,-1.00,-1.0
4096,14264,-2020,-12024,-1.00,-1.0
4098,17272,7124,9096,-1.00,-1.0
4100,16572,2180,4996,-1.00,-1.0
4102,14884,-4796,-9424,-1.00,-1.0
4104,12468,8328,-1204,-1.00,-1.0
4105,15136,-1572,-4296,-1.00,-1.0
4107,19284,6524,-3236,-1.00,-1.0
4109,21832,3612,8404,-1.00,-1.0
4111,20276,-6544,-4696,-1.00,-1.0
4113,13596,11096,1176,-1.00,-1.0
4115,12800,452,-10464,-1.00,-1.0
4119,21484,-3536,12804,-1.00,-1.0
4121,13640,-1768,-11640,-1.00,-1.0
4123,14320,7192,-3112,-1.00,-1.0
4125,12564,-1896,-5820,-1.00,-1.0
4127,19152,8736,-10716,-1.00,-1.0
4129,26648,-5904,27740,-1.00,-1.0
4131,20168,-10788,4108,-1.00,-1.0
4133,12576,9092,-2444,-1.00,-1.0
4135,11536,-3500,-6440,-1.00,-1.0
4137,17972,3592,-4084,-1.00,-1.0
4139,21928,-5372,20392,-1.00,-1.0
4141,17932,-5092,-5096,-1.00,-1.0
4143,12616,8832,-4676,-1.00,-1.0
4145,13560,-2160,-7196,-1.00,-1.0
4147,18092,5996,-8152,-1.00,-1.0
4151,20344,-4244,-1016,-1.00,-1.0
4153,11940,9760,-3620,-1.00,-1.0
4155,15560,-3996,-1268,-1.00,-1.0
4157,17052,3768,-9264,-1.00,-1.0
4159,18316,-800,10564,-1.00,-1.0
4161,21980,-8624,11672,-1.00,-1.0
4163,13100,4000,3880,-1.00,-1.0
4164,23192,-3968,16996,-1.00,-1.0
4167,21300,-6896,7232,-1.00,-1.0
4169,15400,6700,3816,-1.00,-1.0
4170,9324,-2268,-13428,-1.00,-1.0
4172,15904,5224,-11224,-1.00,-1.0
4174,21532,-4164,12908,-1.00,-1.0
4176,23016,-9344,7148,-1.00,-1.0
4178,14392,9628,6320,-1.00,-1.0
4182,18472,2044,-2384,-1.00,-1.0
4184,19780,-3884,9436,-1.00,-1.0
4186,19952,-2692,-4000,-1.00,-1.0
4188,17060,4980,10124,-1.00,-1.0
4190,13284,-7312,-7676,-1.00,-1.0
4192,12160,13284,-16440,-1.00,-1.0
4194,20404,-5768,17384,-1.00,-1.0
4196,21664,-3492,-760,-1.00,-1.0
4198,13300,11036,484,-1.00,-1.0
4200,14880,-3832,-12104,-1.00,-1.0
4202,20392,2980,11004,-1.00,-1.0
4204,19080,-5396,3264,-1.00,-1.0
4206,18264,-3116,-104,-1.00,-1.0
4208,11484,2672,-200,-1.00,-1.0
4210,12920,-1720,-5164,-1.00,-1.0
4212,17744,5656,-4344,-1.00,-1.0
4216,17820,-1092,-9848,-1.00,-1.0
4218,12520,10272,-6100,-1.00,-1.0
4220,18304,-6124,8824,-1.00,-1.0
4222,18156,1476,-2164,-1.00,-1.0
4224,17848,2308,6416,-1.00,-1.0
4226,18476,-5060,2244,-1.00,-1.0
4228,11724,11832,-13740,-1.00,-1.0
4230,15420,-1784,1140,-1.00,-1.0
4232,24128,-1676,9744,-1.00,-1.0
4234,18804,2240,8528,-1.00,-1.0
4235,17484,-6348,3584,-1.00,-1.0
4237,15480,2804,-12276,-1.00,-1.0
4239,17880,2116,4336,-1.00,-1.0
4241,18184,-3760,-540,-1.00,-1.0
4243,11732,13896,-10404,-1.00,-1.0
4247,21848,-1892,3852,-1.00,-1.0
4249,19848,2908,7480,-1.00,-1.0
4251,14500,2704,-12448,-1.00,-1.0
4253,15984,10388,-4032,-1.00,-1.0
4255,17612,-4884,3048,-1.00,-1.0
4257,20160,-3176,1908,-1.00,-1.0
4259,17216,3144,6500,-1.00,-1.0
4261,11832,-112,-7800,-1.00,-1.0
4263,11952,14048,-13484,-1.00,-1.0
4265,20860,-3928,12444,-1.00,-1.0
4267,22016,-1148,-3652,-1.00,-1.0
4269,14736,8100,-1952,-1.00,-1.0
4271,16076,452,-4564,-1.00,-1.0
4273,13932,12552,-14976,-1.00,-1.0
4275,20876,-2292,15120,-1.00,-1.0
4281,12960,1596,-12340,-1.00,-1.0
4283,16468,2892,-480,-1.00,-1.0
4285,17532,-364,-1844,-1.00,-1.0
4287,22200,-6284,13628,-1.00,-1.0
4289,13468,5308,-4156,-1.00,-1.0
4291,9272,3708,-13916,-1.00,-1.0
4293,17392,2300,-3016,-1.00,-1.0
4295,25336,-4388,24052,-1.00,-1.0
4297,18640,-5312,-4616,-1.00,-1.0
4299,7960,14372,-11472,-1.00,-1.0
4300,11916,756,-2416,-1.00,-1.0
4302,18036,-5636,24,-1.00,-1.0
4304,9368,14708,-6228,-1.00,-1.0
4306,15640,-3600,-256,-1.00,-1.0
4308,24592,-6408,4768,-1.00,-1.0
4310,21580,-1876,16648,-1.00,-1.0
4314,10888,13544,-7204,-1.00,-1.0
4316,16900,-5456,748,-1.00,-1.0
4318,23232,-3600,5832,-1.00,-1.0
4320,20088,-268,14596,-1.00,-1.0
4322,13520,-3500,-13216,-1.00,-1.0
4324,12032,12172,-7792,-1.00,-1.0
4326,18500,-7684,5976,-1.00,-1.0
4328,22956,-5780,9780,-1.00,-1.0
4330,18148,4072,10480,-1.00,-1.0
4332,11000,-2596,-17072,-1.00,-1.0
4334,16308,5048,-4552,-1.00,-1.0
4336,21940,-8248,13212,-1.00,-1.0
4338,21056,-5272,3356,-1.00,-1.0
4340,13068,11300,1632,-1.00,-1.0
4342,11456,-6604,-1424,-1.00,-1.0
4346,18604,-2216,13528,-1.00,-1.0
4348,20004,-5656,-7692,-1.00,-1.0
4350,16424,8344,6624,-1.00,-1.0
4352,14120,-6456,-5460,-1.00,-1.0
4354,19844,2588,1732,-1.00,-1.0
4356,16408,2284,8472,-1.00,-1.0
4357,19032,-6488,-2376,-1.00,-1.0
4359,18176,2340,-6420,-1.00,-1.0
4361,21752,-228,21060,-1.00,-1.0
4363,16888,-7300,-5648,-1.00,-1.0
4365,14992,6528,-9936,-1.00,-1.0
4367,18436,-9420,14516,-1.00,-1.0
4369,17120,-4304,-12408,-1.00,-1.0
4371,12872,9312,1980,-1.00,-1.0
4373,17464,-11520,3524,-1.00,-1.0
4375,16444,2436,408,-1.00,-1.0
4379,19596,-9244,-2412,-1.00,-1.0
4381,18444,5728,8952,-1.00,-1.0
4383,13396,-5204,-6880,-1.00,-1.0
4385,17748,988,-3216,-1.00,-1.0
4387,19892,2280,15184,-1.00,-1.0
4389,15820,-5360,-3820,-1.00,-1.0
4391,15532,10348,-6244,-1.00,-1.0
4393,17672,-6540,16844,-1.00,-1.0
4395,18376,-6336,-9992,-1.00,-1.0
4397,18016,6784,6032,-1.00,-1.0
4399,17584,-8676,1508,-1.00,-1.0
4401,16212,4492,-12832,-1.00,-1.0
4403,13904,4112,4564,-1.00,-1.0
4405,18380,-7408,-1616,-1.00,-1.0
4406,21484,3436,14164,-1.00,-1.0
4411,14544,-544,-13084,-1.00,-1.0
4413,20164,-256,11348,-1.00,-1.0
4415,18028,-7476,3176,-1.00,-1.0
4416,17744,2080,-5300,-1.00,-1.0
4419,17968,-1644,10760,-1.00,-1.0
4421,12324,-3396,-7980,-1.00,-1.0
4422,13180,6332,-4144,-1.00,-1.0
4424,17780,6752,-772,-1.00,-1.0
4426,18700,-8496,-1164,-1.00,-1.0
4428,16964,1572,-7560,-1.00,-1.0
4430,16488,7284,2992,-1.00,-1.0
4432,18384,-1532,-5204,-1.00,-1.0
4434,20084,8084,3020,-1.00,-1.0
4436,15704,-80,3044,-1.00,-1.0
4438,16468,-6624,-3632,-1.00,-1.0
4442,13700,-4572,-1772,-1.00,-1.0
4444,17132,-720,-3512,-1.00,-1.0
4446,19496,2524,9356,-1.00,-1.0
4448,16780,-5904,-8724,-1.00,-1.0
4450,13464,12860,-15952,-1.00,-1.0
4452,15828,3352,7028,-1.00,-1.0
4454,22980,-11704,10008,-1.00,-1.0
4456,15772,9952,-656,-1.00,-1.0
4458,13008,-2088,1404,-1.00,-1.0
4460,21652,-8840,8864,-1.00,-1.0
4462,19632,1860,10536,-1.00,-1.0
4464,12280,-4036,-11896,-1.00,-1.0
4466,16556,488,-8284,-1.00,-1.0
4468,19176,-1656,8840,-1.00,-1.0
4470,14264,-28,-8192,-1.00,-1.0
4471,17088,6200,-3312,-1.00,-1.0
4476,19328,-9604,2052,-1.00,-1.0
4478,11936,12176,-10996,-1.00,-1.0
4480,13048,-856,7144,-1.00,-1.0
4481,23652,-11128,4580,-1.00,-1.0
4484,16140,6532,2096,-1.00,-1.0
4486,11200,-7208,-6568,-1.00,-1.0
4487,19528,-5576,4576,-1.00,-1.0
4489,18784,692,4616,-1.00,-1.0
4491,13356,-5224,-7732,-1.00,-1.0
4493,20316,1188,6148,-1.00,-1.0
4495,11600,13536,-9104,-1.00,-1.0
4497,14600,-4096,2880,-1.00,-1.0
4499,19564,-6584,3964,-1.00,-1.0
4501,16788,1648,-1560,-1.00,-1.0
4503,18520,-7752,8584,-1.00,-1.0
4507,16508,1440,2620,-1.00,-1.0
4509,14588,-8128,-240,-1.00,-1.0
4511,15888,5656,-9932,-1.00,-1.0
4513,18652,1776,15844,-1.00,-1.0
4515,20084,-5340,-1220,-1.00,-1.0
4517,12448,19824,-23216,-1.00,-1.0
4519,15948,6692,392,-1.00,-1.0
4521,25460,-1540,3784,-1.00,-1.0
4523,12500,19676,-17756,-1.00,-1.0
4525,14904,4604,5260,-1.00,-1.0
4527,27660,-14700,25296,-1.00,-1.0
4529,10316,9472,-15216,-1.00,-1.0
4531,4932,7712,-10076,-1.00,-1.0
4533,26020,-11260,14212,-1.00,-1.0
4535,21108,1044,8736,-1.00,-1.0
4537,7300,-876,-19976,-1.00,-1.0
4541,18504,-7288,12284,-1.00,-1.0
4543,11740,-7708,-2160,-1.00,-1.0
4544,16688,-2880,9808,-1.00,-1.0
4546,17980,-7440,11204,-1.00,-1.0
4548,16860,-4648,-6396,-1.00,-1.0
4550,15544,1948,-9552,-1.00,-1.0
4552,18520,-2492,8104,-1.00,-1.0
4554,20812,-6460,6516,-1.00,-1.0
4556,14316,10964,-20896,-1.00,-1.0
4558,16172,-1800,9544,-1.00,-1.0
4560,7112,-1512,-13616,-1.00,-1.0
4562,18352,-5208,7004,-1.00,-1.0
4564,20428,-5672,21660,-1.00,-1.0
4566,10680,-3108,-13488,-1.00,-1.0
4568,16076,-4508,-4368,-1.00,-1.0
4572,13160,-10020,-1780,-1.00,-1.0
4574,14248,-1608,212,-1.00,-1.0
4576,19680,-10880,23448,-1.00,-1.0
4578,16140,-12068,-3980,-1.00,-1.0
4580,15400,472,-10360,-1.00,-1.0
4582,22300,-7024,16756,-1.00,-1.0
4584,17600,-9844,-1384,-1.00,-1.0
4586,12076,2972,-11208,-1.00,-1.0
4588,21728,-10600,27160,-1.00,-1.0
4590,20600,-12816,1152,-1.00,-1.0
4592,9484,9740,-18312,-1.00,-1.0
4594,20284,-2632,10636,-1.00,-1.0
4596,29624,-14784,15228,-1.00,-1.0
4597,14348,5108,-16620,-1.00,-1.0
4599,16264,3760,5816,-1.00,-1.0
4604,13156,9636,-13500,-1.00,-1.0
4606,15372,6460,4848,-1.00,-1.0
4607,24200,-7296,14136,-1.00,-1.0
4609,11688,11168,-19008,-1.00,-1.0
4611,17532,10100,748,-1.00,-1.0
4613,25968,-808,2204,-1.00,-1.0
4615,14988,16124,-18724,-1.00,-1.0
4617,18724,-12300,21920,-1.00,-1.0
4619,24440,-2636,13080,-1.00,-1.0
4621,16884,-8528,-176,-1.00,-1.0
4623,23756,-11576,27880,-1.00,-1.0
4625,11556,-7228,-5060,-1.00,-1.0
4627,11784,-5244,2708,-1.00,-1.0
4629,20076,-11088,24340,-1.00,-1.0
4631,15580,-7196,-10720,-1.00,-1.0
4635,19736,-12076,21520,-1.00,-1.0
4637,11316,-6736,-3064,-1.00,-1.0
4639,13060,-8444,548,-1.00,-1.0
4641,20364,-10920,26064,-1.00,-1.0
4643,13680,-9492,-10076,-1.00,-1.0
4645,11420,-3044,-6556,-1.00,-1.0
4647,23548,-15932,22816,-1.00,-1.0
4649,17552,-9752,100,-1.00,-1.0
4651,11624,-9976,844,-1.00,-1.0
4653,14780,-4684,11824,-1.00,-1.0
4655,11440,288,-332,-1.00,-1.0
4656,14220,-9016,-8956,-1.00,-1.0
4659,20340,-2808,21208,-1.00,-1.0
4660,14980,-5004,-12248,-1.00,-1.0
4662,13544,-2920,-3632,-1.00,-1.0
4667,13252,3736,-2636,-1.00,-1.0
4669,14068,768,-7940,-1.00,-1.0
4670,17616,3444,9008,-1.00,-1.0
4672,15728,7624,-6136,-1.00,-1.0
4674,14632,692,-7312,-1.00,-1.0
4676,14172,12456,-2440,-1.00,-1.0
4678,15644,6012,-3888,-1.00,-1.0
4680,18276,1332,-4808,-1.00,-1.0
4682,17216,12180,568,-1.00,-1.0
4684,15512,10460,-15172,-1.00,-1.0
4686,17320,-9932,-288,-1.00,-1.0
4688,15104,-9240,4224,-1.00,-1.0
4690,13272,-444,-416,-1.00,-1.0
4692,12684,-6072,-1980,-1.00,-1.0
4694,12260,-5456,-1128,-1.00,-1.0
4696,19908,-2652,17032,-1.00,-1.0
4700,10092,3712,-11996,-1.00,-1.0
4702,17920,6424,4172,-1.00,-1.0
4704,18940,3556,3240,-1.00,-1.0
4706,11812,6320,-8024,-1.00,-1.0
4708,15832,13820,804,-1.00,-1.0
4710,18220,6928,-2960,-1.00,-1.0
4712,13724,8516,-12532,-1.00,-1.0
4714,20780,10916,3944,-1.00,-1.0
4716,22680,6876,3076,-1.00,-1.0
4718,17108,-764,1240,-1.00,-1.0
4719,21248,-1388,3484,-1.00,-1.0
4721,24092,3628,5952,-1.00,-1.0
4723,16184,-10192,-5856,-1.00,-1.0
4725,17128,-3600,5356,-1.00,-1.0
4727,15780,-1520,-2380,-1.00,-1.0
4731,19524,-13064,14056,-1.00,-1.0
4733,12448,1856,-9672,-1.00,-1.0
4735,9356,-5872,-7124,-1.00,-1.0
4737,14388,-8516,3084,-1.00,-1.0
4739,16128,6960,1440,-1.00,-1.0
4741,15360,40,-2212,-1.00,-1.0
4743,15028,-2076,9112,-1.00,-1.0
4745,21228,-5796,11472,-1.00,-1.0
4747,14392,11588,-11884,-1.00,-1.0
4749,12916,-8892,-1940,-1.00,-1.0
4751,11760,-11944,2624,-1.00,-1.0
4753,9340,5284,-8948,-1.00,-1.0
4755,9416,-2748,1100,-1.00,-1.0
4757,13752,-3248,-1228,-1.00,-1.0
4759,19956,9168,9876,-1.00,-1.0
4761,16744,3336,-9404,-1.00,-1.0
4765,21612,10736,-5180,-1.00,-1.0
4767,25908,4212,7904,-1.00,-1.0
4769,21836,-14736,13008,-1.00,-1.0
4771,18984,1328,1652,-1.00,-1.0
4773,13648,7196,-15180,-1.00,-1.0
4775,14692,-11936,-1648,-1.00,-1.0
4777,15460,-2736,-376,-1.00,-1.0
4779,12404,9428,-10924,-1.00,-1.0
4781,14212,-6152,6816,-1.00,-1.0
4782,12352,1916,-3996,-1.00,-1.0
4784,22008,7360,6392,-1.00,-1.0
4786,19396,612,-2440,-1.00,-1.0
4788,20220,-3104,9072,-1.00,-1.0
4790,26952,2616,7112,-1.00,-1.0
4792,19088,3000,-4936,-1.00,-1.0
4796,12344,5368,-7624,-1.00,-1.0
4798,8360,8284,-16840,-1.00,-1.0
4800,18812,-12236,20956,-1.00,-1.0
4802,14648,-3276,340,-1.00,-1.0
4804,11624,20448,-20664,-1.00,-1.0
4806,18088,4604,1552,-1.00,-1.0
4808,8748,-7344,-3596,-1.00,-1.0
4810,12672,-2236,7144,-1.00,-1.0
4812,14260,10472,-3068,-1.00,-1.0
4814,10032,2976,-6612,-1.00,-1.0
4816,17968,-4196,12944,-1.00,-1.0
4818,27336,4272,11456,-1.00,-1.0
4820,13324,6744,-25264,-1.00,-1.0
4822,20824,-8256,11644,-1.00,-1.0
4824,23920,2104,3452,-1.00,-1.0
4825,11528,13344,-20168,-1.00,-1.0
4829,12392,6220,-2564,-1.00,-1.0
4831,25672,516,15104,-1.00,-1.0
4833,20984,-10672,5932,-1.00,-1.0
4835,15416,-2408,-816,-1.00,-1.0
4837,18116,3804,-5668,-1.00,-1.0
4839,13528,1300,-11988,-1.00,-1.0
4841,16776,-9488,12916,-1.00,-1.0
4843,11740,14660,-8804,-1.00,-1.0
4845,22052,-252,10420,-1.00,-1.0
4847,6688,5624,-32768,-1.00,-1.0
4849,17152,-3560,20824,-1.00,-1.0
4851,18044,-1104,7932,-1.00,-1.0
4853,12028,9284,-5884,-1.00,-1.0
4855,17024,-8716,9672,-1.00,-1.0
4857,19540,-3724,7772,-1.00,-1.0
4861,9700,2492,-26736,-1.00,-1.0
4863,17256,-4140,16140,-1.00,-1.0
4865,10664,11272,-12288,-1.00,-1.0
4867,16040,2832,6072,-1.00,-1.0
4869,26736,-17872,31460,-1.00,-1.0
4871,18468,708,176,-1.00,-1.0
4873,15980,7644,-23772,-1.00,-1.0
4874,11032,5876,-19848,-1.00,-1.0
4877,16504,-1832,10776,-1.00,-1.0
4879,16184,8428,-1160,-1.00,-1.0
4880,22772,-1172,15072,-1.00,-1.0
4882,22948,-13060,14764,-1.00,-1.0
4884,14452,3488,-8076,-1.00,-1.0
4886,10436,14552,-32188,-1.00,-1.0
4888,15600,6464,-1380,-1.00,-1.0
4892,11280,7492,780,-1.00,-1.0
4894,25416,-8552,15916,-1.00,-1.0
4896,20744,-7408,-4404,-1.00,-1.0
4898,12212,11896,-16312,-1.00,-1.0
4900,15500,9948,-22900,-1.00,-1.0
4902,21560,2456,16632,-1.00,-1.0
4904,18228,-7488,15904,-1.00,-1.0
4906,15976,-1604,13800,-1.00,-1.0
4908,21560,-8424,8728,-1.00,-1.0
4910,10120,6204,-32768,-1.00,-1.0
4912,12732,14672,-9408,-1.00,-1.0
4914,17300,-8820,7324,-1.00,-1.0
4916,9668,7416,-32768,-1.00,-1.0
4918,12856,10952,-19780,-1.00,-1.0
4920,19892,-244,10860,-1.00,-1.0
4924,13428,11932,-16216,-1.00,-1.0
4926,17244,988,18232,-1.00,-1.0
4928,13356,-4860,-18664,-1.00,-1.0
4930,6332,25368,-32768,-1.00,-1.0
4932,24672,-736,20832,-1.00,-1.0
4934,28556,-16744,32767,-1.00,-1.0
4936,10692,-4056,6148,-1.00,-1.0
4938,5908,1616,-32768,-1.00,-1.0
4940,18968,9596,3108,-1.00,-1.0
4942,17060,-2148,-4736,-1.00,-1.0
4943,17108,7184,9068,-1.00,-1.0
4945,26840,-10324,26424,-1.00,-1.0
4947,15088,-1872,-10700,-1.00,-1.0
4949,5728,14164,-28728,-1.00,-1.0
4951,15408,12096,-11660,-1.00,-1.0
4953,29988,732,32767,-1.00,-1.0
4957,14436,-1332,-352,-1.00,-1.0
4959,9800,7280,-30852,-1.00,-1.0
4961,13196,6872,-21232,-1.00,-1.0
4963,22520,0,19872,-1.00,-1.0
4965,26508,-9664,30468,-1.00,-1.0
4967,17844,-2820,1380,-1.00,-1.0
4969,7528,3808,-26320,-1.00,-1.0
4971,12936,80,-7816,-1.00,-1.0
4973,19112,3300,3436,-1.00,-1.0
4975,28012,-7420,32767,-1.00,-1.0
4977,16644,-7408,-1724,-1.00,-1.0
4979,6160,7604,-18976,-1.00,-1.0
4981,13656,5260,-14964,-1.00,-1.0
4983,14388,-1484,-5392,-1.00,-1.0
4985,8620,4652,-15188,-1.00,-1.0
4989,13476,3240,-10276,-1.00,-1.0
4991,10120,6652,-27200,-1.00,-1.0
4993,17260,-2760,3024,-1.00,-1.0
4995,8132,3260,-11612,-1.00,-1.0
4997,12004,8804,-22116,-1.00,-1.0
4999,25980,-3808,15584,-1.00,-1.0
5001,22920,-9144,14996,-1.00,-1.0
5002,14204,244,8000,-1.00,-1.0
5005,8596,6472,-24356,-1.00,-1.0
5007,13304,5424,-12096,-1.00,-1.0
5008,22080,-6180,12544,-1.00,-1.0
5010,25148,-4980,23576,-1.00,-1.0
5012,16708,-128,4672,-1.00,-1.0
5014,6776,3156,-28444,-1.00,-1.0
5016,13180,4852,-8812,-1.00,-1.0
5020,24080,-5044,15912,-1.00,-1.0
5022,12316,1268,-544,-1.00,-1.0
5024,9464,-1924,-8608,-1.00,-1.0
5026,13020,10112,-19040,-1.00,-1.0
5028,24920,-5352,16504,-1.00,-1.0
5030,24592,-8340,20164,-1.00,-1.0
5032,13204,5120,3032,-1.00,-1.0
5034,6028,7868,-29652,-1.00,-1.0
5036,17108,3604,-1300,-1.00,-1.0
5038,26172,-8028,16260,-1.00,-1.0
5040,20028,-328,10832,-1.00,-1.0
5042,18436,2992,-2124,-1.00,-1.0
5044,7076,5744,-25032,-1.00,-1.0
5046,14716,4312,-1128,-1.00,-1.0
5048,12728,-1924,488,-1.00,-1.0
5050,8568,4356,-20104,-1.00,-1.0
5054,25796,-10440,30116,-1.00,-1.0
5056,23728,-9564,19364,-1.00,-1.0
5058,7224,6548,-20188,-1.00,-1.0
5059,8572,6564,-19344,-1.00,-1.0
5062,26288,-4368,18096,-1.00,-1.0
5063,25864,-5876,13692,-1.00,-1.0
5065,17232,464,6180,-1.00,-1.0
5067,6828,2464,-21652,-1.00,-1.0
5069,8848,4628,-9196,-1.00,-1.0
5071,24304,-4372,14916,-1.00,-1.0
5073,29032,-6800,21732,-1.00,-1.0
5075,12148,3424,-12276,-1.00,-1.0
5077,7976,2384,-8360,-1.00,-1.0
5079,17040,2208,-3560,-1.00,-1.0
5081,27628,-6500,21312,-1.00,-1.0
5085,7776,6912,-4104,-1.00,-1.0
5087,10588,6184,-21676,-1.00,-1.0
5089,25892,-4092,17212,-1.00,-1.0
5091,23912,-6280,8260,-1.00,-1.0
5093,10564,7272,-3024,-1.00,-1.0
5095,10796,6888,-17032,-1.00,-1.0
5097,20280,-3608,7604,-1.00,-1.0
5099,9452,1552,-11264,-1.00,-1.0
5101,10112,-544,-3264,-1.00,-1.0
5103,19500,-3032,5600,-1.00,-1.0
5105,25744,-5480,16792,-1.00,-1.0
5106,16400,-512,1732,-1.00,-1.0
5109,6368,2816,-5256,-1.00,-1.0
5111,14088,1332,-5080,-1.00,-1.0
5112,25452,-4612,12400,-1.00,-1.0
5114,19860,-2632,372,-1.00,-1.0
5119,14216,5036,-3668,-1.00,-1.0
5121,25148,-2772,9432,-1.00,-1.0
5122,20604,-4116,2864,-1.00,-1.0
5124,12012,4708,2016,-1.00,-1.0
5126,13020,5216,-14340,-1.00,-1.0
5128,21616,-1248,3984,-1.00,-1.0
5130,20780,-4604,7020,-1.00,-1.0
5132,14828,1992,-2508,-1.00,-1.0
5134,13232,5552,-10832,-1.00,-1.0
5136,21716,-4096,2620,-1.00,-1.0
5138,20808,-1024,3960,-1.00,-1.0
5140,15644,3632,-192,-1.00,-1.0
5142,14112,4692,-9836,-1.00,-1.0
5144,19764,-1712,3968,-1.00,-1.0
5146,19708,-2340,7164,-1.00,-1.0
5150,13508,5976,-9620,-1.00,-1.0
5152,19044,-1560,392,-1.00,-1.0
5154,19636,-1104,6852,-1.00,-1.0
5156,15500,5172,-3444,-1.00,-1.0
5158,14536,6776,-9320,-1.00,-1.0
5160,21088,-344,1256,-1.00,-1.0
5162,9872,2524,-12844,-1.00,-1.0
5164,12516,-1200,6136,-1.00,-1.0
5166,19324,-5620,5912,-1.00,-1.0
5168,22628,-3400,13312,-1.00,-1.0
5169,14040,1808,-16052,-1.00,-1.0
5171,13252,-200,6000,-1.00,-1.0
5173,21304,-7580,10272,-1.00,-1.0
5175,21660,-3756,14488,-1.00,-1.0
5177,10660,1476,-13052,-1.00,-1.0
5179,9720,2116,-104,-1.00,-1.0
5183,25088,-7484,18848,-1.00,-1.0
5185,10252,4288,-18480,-1.00,-1.0
5187,8940,6208,-5548,-1.00,-1.0
5189,24420,-7988,15164,-1.00,-1.0
5191,26572,-7692,16672,-1.00,-1.0
5193,9304,5168,-22056,-1.00,-1.0
5195,9456,4484,1360,-1.00,-1.0
5197,19660,-5256,5212,-1.00,-1.0
5199,22952,-2020,15992,-1.00,-1.0
5201,11060,2648,-14448,-1.00,-1.0
5203,13360,2772,3168,-1.00,-1.0
5205,21796,-5452,1676,-1.00,-1.0
5207,22548,-3524,7148,-1.00,-1.0
5209,10152,7240,-28712,-1.00,-1.0
5211,14516,4736,9532,-1.00,-1.0
5215,19460,-3788,4928,-1.00,-1.0
5217,6500,8964,-27744,-1.00,-1.0
5219,17392,1772,5728,-1.00,-1.0
5221,8016,4496,-10916,-1.00,-1.0
5223,19960,36,6916,-1.00,-1.0
5225,7816,8980,-29376,-1.00,-1.0
5227,21416,-4564,5108,-1.00,-1.0
5228,7844,7592,-14136,-1.00,-1.0
5231,14672,4148,-7488,-1.00,-1.0
5233,28004,-7808,23788,-1.00,-1.0
5234,17380,-3980,636,-1.00,-1.0
5236,7948,6248,-6148,-1.00,-1.0
5238,13764,708,-572,-1.00,-1.0
5240,23192,-4576,13092,-1.00,-1.0
5242,16128,1884,-932,-1.00,-1.0
5244,10780,4856,-2624,-1.00,-1.0
5248,26528,-7608,20028,-1.00,-1.0
5250,12816,2644,-15716,-1.00,-1.0
5252,10452,9204,-4356,-1.00,-1.0
5254,20920,-1592,9644,-1.00,-1.0
5256,23504,-5428,12544,-1.00,-1.0
5258,8336,8004,-25440,-1.00,-1.0
5260,13908,4868,3876,-1.00,-1.0
5262,24348,-5536,2300,-1.00,-1.0
5264,18260,3760,4812,-1.00,-1.0
5266,9028,7360,-27320,-1.00,-1.0
5268,18112,1344,21032,-1.00,-1.0
5270,20844,-8068,1524,-1.00,-1.0
5272,15004,6088,-4548,-1.00,-1.0
5274,13580,3220,-17504,-1.00,-1.0
5276,21228,-1792,15544,-1.00,-1.0
5280,12812,7976,-2736,-1.00,-1.0
5282,18280,2616,-9884,-1.00,-1.0
5284,21916,340,19924,-1.00,-1.0
5286,14616,2720,-13348,-1.00,-1.0
5288,14616,9064,-1508,-1.00,-1.0
5290,21232,-3032,-948,-1.00,-1.0
5292,9044,5452,-20108,-1.00,-1.0
5293,15740,-2008,11564,-1.00,-1.0
5295,23108,-10536,8176,-1.00,-1.0
5297,17156,312,3288,-1.00,-1.0
5299,11328,2688,-17136,-1.00,-1.0
5301,16888,-4680,14904,-1.00,-1.0
5303,17416,-4892,-140,-1.00,-1.0
5305,16816,1104,948,-1.00,-1.0
5307,13908,2772,-16264,-1.00,-1.0
5309,18744,-1880,13292,-1.00,-1.0
5315,16724,-2048,-12264,-1.00,-1.0
5317,20212,-3600,15556,-1.00,-1.0
5319,13580,-2588,-10692,-1.00,-1.0
5320,23240,-5152,14172,-1.00,-1.0
5323,20520,-1728,11428,-1.00,-1.0
5324,9312,4788,-24760,-1.00,-1.0
5326,15196,796,9456,-1.00,-1.0
5328,22828,-7196,9448,-1.00,-1.0
5330,16244,2132,-3872,-1.00,-1.0
5332,10696,5028,-18260,-1.00,-1.0
5334,20984,-3548,19392,-1.00,-1.0
5336,18304,-3764,-3932,-1.00,-1.0
5338,12896,6784,-4944,-1.00,-1.0
5340,15768,5760,-16252,-1.00,-1.0
5342,22136,276,13932,-1.00,-1.0
5346,15076,6776,-352,-1.00,-1.0
5348,20268,20,2864,-1.00,-1.0
5350,19452,-380,11532,-1.00,-1.0
5352,10760,4988,-20892,-1.00,-1.0
5354,18628,3768,13180,-1.00,-1.0
5356,22876,-4084,1244,-1.00,-1.0
5358,16840,3808,5464,-1.00,-1.0
5360,11616,660,-10184,-1.00,-1.0
5362,20680,-1272,13368,-1.00,-1.0
5364,21372,-7528,4192,-1.00,-1.0
5366,10780,6304,-9948,-1.00,-1.0
5368,13676,4,-3128,-1.00,-1.0
5370,21292,-2940,9972,-1.00,-1.0
5372,20304,-2308,4236,-1.00,-1.0
5373,18688,-1736,-6236,-1.00,-1.0
5375,17776,356,8428,-1.00,-1.0
5380,18064,3396,3140,-1.00,-1.0
5382,15156,4000,-15976,-1.00,-1.0
5383,12156,1836,-368,-1.00,-1.0
5385,11324,-504,-5652,-1.00,-1.0
5387,25176,-9352,24140,-1.00,-1.0
5389,19332,-3288,-4376,-1.00,-1.0
5391,8952,7144,-19180,-1.00,-1.0
5393,19392,-6336,10728,-1.00,-1.0
5395,22240,-8268,15904,-1.00,-1.0
5397,12544,3352,-10068,-1.00,-1.0
5399,14252,4244,-8184,-1.00,-1.0
5401,20500,-4732,16460,-1.00,-1.0
5403,14072,3736,-9884,-1.00,-1.0
5405,18444,2596,7204,-1.00,-1.0
5407,20528,-2908,4872,-1.00,-1.0
5411,11080,3900,-16276,-1.00,-1.0
5413,23612,-3620,20320,-1.00,-1.0
5415,17908,-1028,-11644,-1.00,-1.0
5417,12332,6792,-6044,-1.00,-1.0
5419,17172,-7360,4928,-1.00,-1.0
5421,23128,-5236,15320,-1.00,-1.0
5423,14896,3348,-18632,-1.00,-1.0
5425,14452,-352,-2376,-1.00,-1.0
5427,23120,-10144,17288,-1.00,-1.0
5429,16704,640,3440,-1.00,-1.0
5430,25672,-5264,19880,-1.00,-1.0
5432,19096,-1664,-12664,-1.00,-1.0
5434,11604,7824,-10236,-1.00,-1.0
5436,18812,-8064,5340,-1.00,-1.0
5438,21680,-3036,13076,-1.00,-1.0
5442,15876,-2192,4556,-1.00,-1.0
5444,17932,-5984,11080,-1.00,-1.0
5446,13304,1036,-5468,-1.00,-1.0
5448,17848,-2380,4576,-1.00,-1.0
5450,17268,-1044,-2016,-1.00,-1.0
5452,13180,3784,3228,-1.00,-1.0
5454,14428,-2568,-564,-1.00,-1.0
5456,21456,-2516,14964,-1.00,-1.0
5458,15928,572,-13456,-1.00,-1.0
5460,12620,4740,-6128,-1.00,-1.0
5462,21336,-6304,7228,-1.00,-1.0
5464,23300,-4900,17516,-1.00,-1.0
5466,15116,-848,-16584,-1.00,-1.0
5468,14540,196,5676,-1.00,-1.0
5470,20160,-9800,14628,-1.00,-1.0
5472,11180,5060,-10932,-1.00,-1.0
5476,20136,-4172,5016,-1.00,-1.0
5478,14268,3680,6944,-1.00,-1.0
5480,12620,636,-12728,-1.00,-1.0
5482,25812,-3204,19228,-1.00,-1.0
5484,16456,-316,-16600,-1.00,-1.0
5486,10340,8760,-7192,-1.00,-1.0
5488,22392,-9348,11668,-1.00,-1.0
5489,22988,-3764,19028,-1.00,-1.0
5492,10596,5160,-25148,-1.00,-1.0
5493,16548,2596,6648,-1.00,-1.0
5495,9896,8772,-6944,-1.00,-1.0
5497,13064,6600,-12624,-1.00,-1.0
5499,23456,-1688,20788,-1.00,-1.0
5501,14460,1196,-21140,-1.00,-1.0
5503,15748,4120,5684,-1.00,-1.0
5507,14536,3468,-2556,-1.00,-1.0
5509,15208,3792,-6704,-1.00,-1.0
5511,22664,-4360,12744,-1.00,-1.0
5513,14368,1248,1332,-1.00,-1.0
5515,10624,4124,-10412,-1.00,-1.0
5517,24844,-5372,22612,-1.00,-1.0
5519,17440,-2384,-11188,-1.00,-1.0
5521,12024,6576,-4608,-1.00,-1.0
5523,18732,-6792,-4,-1.00,-1.0
5525,20780,684,11636,-1.00,-1.0
5527,14628,1708,-11784,-1.00,-1.0
5529,17616,468,6784,-1.00,-1.0
5531,20380,-8052,17036,-1.00,-1.0
5533,13400,5176,-8440,-1.00,-1.0
5535,15800,3280,-1824,-1.00,-1.0
5537,22112,-6196,11868,-1.00,-1.0
5541,11740,1988,-8624,-1.00,-1.0
5543,23336,-3316,18028,-1.00,-1.0
5545,15184,-1908,-10980,-1.00,-1.0
5547,10620,7604,-5424,-1.00,-1.0
5549,18908,-5208,5224,-1.00,-1.0
5551,21796,-2080,18308,-1.00,-1.0
5553,12612,2032,-16768,-1.00,-1.0
5555,15644,4672,-2920,-1.00,-1.0
5557,22820,-6504,15672,-1.00,-1.0
5558,15452,5876,-11576,-1.00,-1.0
5560,23844,-5328,22104,-1.00,-1.0
5562,21808,-7620,14824,-1.00,-1.0
5564,10784,4700,-4892,-1.00,-1.0
5566,24940,-10776,18312,-1.00,-1.0
5568,16104,5048,-868,-1.00,-1.0
5572,23964,-6208,19444,-1.00,-1.0
5574,16476,-2232,5648,-1.00,-1.0
5576,6520,7552,-18704,-1.00,-1.0
5578,24304,-3292,19692,-1.00,-1.0
5580,21592,-5972,-1724,-1.00,-1.0
5582,8568,11528,-16288,-1.00,-1.0
5584,16084,-1212,-1440,-1.00,-1.0
5586,25976,-5884,26120,-1.00,-1.0
5588,12540,2712,-23248,-1.00,-1.0
5590,11544,8508,-4800,-1.00,-1.0
5592,22216,-9096,15816,-1.00,-1.0
5594,18324,2428,-3692,-1.00,-1.0
5596,13972,6572,-10436,-1.00,-1.0
5598,21856,-5076,8548,-1.00,-1.0
5600,18116,-3132,6364,-1.00,-1.0
5603,22244,-5664,14088,-1.00,-1.0
5605,19648,-7504,8532,-1.00,-1.0
5607,17384,3764,6664,-1.00,-1.0
5609,22792,-6652,11392,-1.00,-1.0
5611,12472,9640,-9400,-1.00,-1.0
5613,16024,1652,-7188,-1.00,-1.0
5615,25592,-5524,18000,-1.00,-1.0
5617,12140,1960,-9080,-1.00,-1.0
5619,8900,6748,-14976,-1.00,-1.0
5621,28892,-5824,28580,-1.00,-1.0
5623,19252,-6004,-5896,-1.00,-1.0
5625,3880,13496,-19404,-1.00,-1.0
5627,18296,-2512,7328,-1.00,-1.0
5629,26608,-6332,25888,-1.00,-1.0
5631,8024,7056,-32768,-1.00,-1.0
5635,25200,-10572,15512,-1.00,-1.0
5637,12864,8624,-13164,-1.00,-1.0
5639,13276,6848,-14788,-1.00,-1.0
5641,27004,-7876,32524,-1.00,-1.0
5643,16352,-4360,-4272,-1.00,-1.0
5645,7836,8496,-16068,-1.00,-1.0
5647,26688,-9568,18784,-1.00,-1.0
5649,20832,-3328,-316,-1.00,-1.0
5651,8964,7972,-9756,-1.00,-1.0
5653,16924,-7732,4684,-1.00,-1.0
5655,25016,-3060,23752,-1.00,-1.0
5657,9812,1116,-25068,-1.00,-1.0
5659,11644,7600,1896,-1.00,-1.0
5661,19760,-3336,4332,-1.00,-1.0
5662,20164,440,12260,-1.00,-1.0
5664,14204,4568,-25544,-1.00,-1.0
5669,19024,-6864,292,-1.00,-1.0
5671,14576,7208,-2972,-1.00,-1.0
5672,18644,-1800,2516,-1.00,-1.0
5674,19916,-5044,11844,-1.00,-1.0
5676,12004,-16,1500,-1.00,-1.0
5678,12640,1700,-10388,-1.00,-1.0
5680,16660,3860,5660,-1.00,-1.0
5682,10176,7272,-27036,-1.00,-1.0
5684,21276,-3044,21320,-1.00,-1.0
5686,21876,-9236,7184,-1.00,-1.0
5688,10740,9008,-18604,-1.00,-1.0
5690,19504,100,-940,-1.00,-1.0
5692,25424,-7496,25752,-1.00,-1.0
5694,8156,3764,-10532,-1.00,-1.0
5696,9868,2048,-11912,-1.00,-1.0
5700,11708,-5088,-20368,-1.00,-1.0
5702,-524,19416,-28980,-1.00,-1.0
5704,22940,-7620,21052,-1.00,-1.0
5706,27124,-11768,32767,-1.00,-1.0
5708,-1396,13260,-32768,-1.00,-1.0
5710,18856,10992,6120,-1.00,-1.0
5712,28588,-15900,26536,-1.00,-1.0
5714,7808,15412,-18028,-1.00,-1.0
5716,15280,10276,-28452,-1.00,-1.0
5718,32767,-12640,32767,-1.00,-1.0
5720,15556,-7044,-3828,-1.00,-1.0
5722,2512,13592,-32768,-1.00,-1.0
5724,32767,-12536,32767,-1.00,-1.0
5726,21820,-11220,16416,-1.00,-1.0
5727,-1048,16928,-32768,-1.00,-1.0
5732,32767,-15812,32767,-1.00,-1.0
5734,208,7324,-32768,-1.00,-1.0
5736,7324,15884,-11808,-1.00,-1.0
5737,30960,-16732,32767,-1.00,-1.0
5740,16184,604,10216,-1.00,-1.0
5741,4932,9936,-32768,-1.00,-1.0
5743,27960,-1772,30600,-1.00,-1.0
5745,24540,-13228,18780,-1.00,-1.0
5747,3372,13536,-32452,-1.00,-1.0
5749,24644,-5956,16528,-1.00,-1.0
5751,1244,13312,-32768,-1.00,-1.0
5753,2100,13976,-31360,-1.00,-1.0
5755,31436,-21092,32767,-1.00,-1.0
5757,3308,12296,-31516,-1.00,-1.0
5759,17992,6388,-15360,-1.00,-1.0
5763,7068,2788,-17576,-1.00,-1.0
5765,4912,11544,-32128,-1.00,-1.0
5767,32767,-19848,32767,-1.00,-1.0
5769,8400,-1968,-20296,-1.00,-1.0
5771,1736,22892,-32768,-1.00,-1.0
5773,31448,-17260,32767,-1.00,-1.0
5775,22720,-4872,31560,-1.00,-1.0
5777,-872,15112,-32768,-1.00,-1.0
5779,28520,-2664,32767,-1.00,-1.0
5781,24452,-18052,24592,-1.00,-1.0
5783,-712,18248,-32768,-1.00,-1.0
5785,23056,-5392,13620,-1.00,-1.0
5787,24112,-13144,32612,-1.00,-1.0
5789,124,12512,-32768,-1.00,-1.0
5791,16508,224,-380,-1.00,-1.0
5795,1372,10504,-32768,-1.00,-1.0
5797,10716,10188,-5032,-1.00,-1.0
5799,32767,-21556,32767,-1.00,-1.0
5800,12708,4268,-4676,-1.00,-1.0
5803,4176,10164,-32768,-1.00,-1.0
5805,27696,-5264,32767,-1.00,-1.0
5806,15084,-5604,-2732,-1.00,-1.0
5808,4800,13896,-26308,-1.00,-1.0
5810,28344,-11280,27944,-1.00,-1.0
5812,16892,-6564,6756,-1.00,-1.0
5814,4748,10100,-24956,-1.00,-1.0
5816,20796,-7964,10776,-1.00,-1.0
5818,26308,-9540,14984,-1.00,-1.0
5820,20796,-4460,13168,-1.00,-1.0
5822,19456,-3964,15116,-1.00,-1.0
5826,23216,-7516,15048,-1.00,-1.0
5828,26760,-8652,15452,-1.00,-1.0
5830,6040,10000,-32768,-1.00,-1.0
5832,19436,428,19820,-1.00,-1.0
5834,22532,-12888,13640,-1.00,-1.0
5836,9324,8908,-16324,-1.00,-1.0
5838,17364,-3060,2232,-1.00,-1.0
5840,17724,-3432,14212,-1.00,-1.0
5842,7420,5112,-27140,-1.00,-1.0
5844,24160,-888,19988,-1.00,-1.0
5846,23300,-8596,11708,-1.00,-1.0
5848,6892,10228,-25480,-1.00,-1.0
5850,22604,-568,17356,-1.00,-1.0
5852,23176,-11184,13968,-1.00,-1.0
5853,9652,8676,-20792,-1.00,-1.0
5855,17884,2020,584,-1.00,-1.0
5859,7396,7172,-25656,-1.00,-1.0
5861,24844,-568,23080,-1.00,-1.0
5863,22224,-8908,7676,-1.00,-1.0
5865,20640,-2668,6544,-1.00,-1.0
5867,18824,-2424,10924,-1.00,-1.0
5869,5664,8272,-29380,-1.00,-1.0
5871,24560,-4288,25172,-1.00,-1.0
5873,22896,-8496,6284,-1.00,-1.0
5875,5400,11200,-29824,-1.00,-1.0
5877,21108,-6140,17364,-1.00,-1.0
5879,24768,-8984,23172,-1.00,-1.0
5881,10024,7656,-23912,-1.00,-1.0
5883,19464,-1020,4304,-1.00,-1.0
5885,20840,-3852,19708,-1.00,-1.0
5887,5080,7844,-27228,-1.00,-1.0
5891,25892,-8932,19100,-1.00,-1.0
5893,6480,8848,-22160,-1.00,-1.0
5895,15424,268,3576,-1.00,-1.0
5897,22864,-3892,10552,-1.00,-1.0
5899,15148,8816,-24712,-1.00,-1.0
5901,24860,1100,11184,-1.00,-1.0
5902,17792,44,10028,-1.00,-1.0
5904,5420,10456,-30916,-1.00,-1.0
5906,29920,-4688,32767,-1.00,-1.0
5908,19152,-10512,-2928,-1.00,-1.0
5910,2460,17084,-30612,-1.00,-1.0
5912,24756,-8512,23172,-1.00,-1.0
5914,23112,-6496,17052,-1.00,-1.0
5916,6896,12496,-32768,-1.00,-1.0
5918,18552,-8072,3000,-1.00,-1.0
5922,3204,12236,-32768,-1.00,-1.0
5924,30824,-8300,32767,-1.00,-1.0
5926,18504,-9556,2184,-1.00,-1.0
5928,26748,-7648,32767,-1.00,-1.0
5930,30600,-11100,30744,-1.00,-1.0
5932,22996,-3424,15184,-1.00,-1.0
5934,30400,-15376,32767,-1.00,-1.0
5936,16924,-8860,-6472,-1.00,-1.0
5938,1224,23880,-32768,-1.00,-1.0
5940,29524,-17200,32767,-1.00,-1.0
5942,19240,-12,10052,-1.00,-1.0
5944,5504,16188,-32768,-1.00,-1.0
5946,27848,-12712,32767,-1.00,-1.0
5948,15264,-1696,3568,-1.00,-1.0
5950,2188,15008,-32768,-1.00,-1.0
5954,16532,-6424,-5824,-1.00,-1.0
5956,1604,25436,-32768,-1.00,-1.0
5958,28708,-19212,32767,-1.00,-1.0
5960,19244,304,4116,-1.00,-1.0
5962,5636,19748,-32768,-1.00,-1.0
5964,26348,-10612,32767,-1.00,-1.0
5966,17420,-3300,15028,-1.00,-1.0
5967,4884,11340,-32768,-1.00,-1.0
5970,28204,-11540,32767,-1.00,-1.0
5971,12352,-1168,-16716,-1.00,-1.0
5973,4996,21904,-32768,-1.00,-1.0
5975,30792,-15776,32767,-1.00,-1.0
5977,18416,-204,5272,-1.00,-1.0
5979,7132,13788,-32768,-1.00,-1.0
5981,28612,-8124,32767,-1.00,-1.0
5985,8536,10260,-31208,-1.00,-1.0
5987,32767,-14992,32767,-1.00,-1.0
5989,10304,2580,-26660,-1.00,-1.0
5991,8192,18856,-23540,-1.00,-1.0
5993,29964,-16380,32767,-1.00,-1.0
5995,13840,2896,5384,-1.00,-1.0
5997,7852,7256,-32768,-1.00,-1.0
5999,11128,4888,-24616,-1.00,-1.0
6001,9668,-3900,-12340,-1.00,-1.0
6003,31244,-20092,32767,-1.00,-1.0
6005,15156,2124,188,-1.00,-1.0
6007,10596,8244,-31052,-1.00,-1.0
6009,24096,-6544,32668,-1.00,-1.0
6011,10076,-216,-14264,-1.00,-1.0
6013,13336,8708,-14516,-1.00,-1.0
6015,28548,-11736,32767,-1.00,-1.0
6019,14228,17600,-5232,-1.00,-1.0
6021,26120,-12832,21628,-1.00,-1.0
6023,14024,9952,-3928,-1.00,-1.0
6025,16032,2388,-11980,-1.00,-1.0
6027,20012,-4664,23268,-1.00,-1.0
6029,7948,3900,-26288,-1.00,-1.0
6031,19572,3136,108,-1.00,-1.0
6033,26884,-8760,27128,-1.00,-1.0
6035,9128,8044,-32768,-1.00,-1.0
6036,17168,10884,5540,-1.00,-1.0
6038,22728,-13308,16948,-1.00,-1.0
6040,9896,11048,-17176,-1.00,-1.0
6042,19672,-1092,5572,-1.00,-1.0
6044,19352,-5752,16044,-1.00,-1.0
6046,8356,5376,-18932,-1.00,-1.0
6050,22192,-1196,8320,-1.00,-1.0
6052,13612,8200,-23996,-1.00,-1.0
6054,20488,-1304,19252,-1.00,-1.0
6056,13232,-2692,-500,-1.00,-1.0
6058,14144,8264,-9396,-1.00,-1.0
6060,22608,-7264,13704,-1.00,-1.0
6062,13124,1820,-4296,-1.00,-1.0
6064,13224,3352,-11652,-1.00,-1.0
6066,25560,-10068,26748,-1.00,-1.0
6068,14448,3284,-7724,-1.00,-1.0
6070,24512,-7452,18944,-1.00,-1.0
6072,22268,-6284,22004,-1.00,-1.0
6074,13796,1700,-3268,-1.00,-1.0
6076,26692,-11588,24652,-1.00,-1.0
6078,14116,4052,-9260,-1.00,-1.0
6082,17280,-1692,11944,-1.00,-1.0
6084,11100,768,-9012,-1.00,-1.0
6086,23068,-7776,25172,-1.00,-1.0
6088,17020,-1684,-1460,-1.00,-1.0
6090,11492,3412,-20580,-1.00,-1.0
6092,24984,-12748,21884,-1.00,-1.0
6093,14328,-2848,-2652,-1.00,-1.0
6095,10300,10184,-17040,-1.00,-1.0
6097,24620,-8488,25328,-1.00,-1.0
6099,12188,1584,-7000,-1.00,-1.0
6101,11516,6060,-21648,-1.00,-1.0
6103,29460,-11500,32767,-1.00,-1.0
6105,14416,1240,-12304,-1.00,-1.0
6107,10104,8896,-20436,-1.00,-1.0
6109,24272,-13420,31324,-1.00,-1.0
6113,15328,10036,-6932,-1.00,-1.0
6115,27036,-11284,25408,-1.00,-1.0
6117,10288,9372,-19572,-1.00,-1.0
6119,25336,-11756,32767,-1.00,-1.0
6121,13132,200,-19896,-1.00,-1.0
6123,19388,6024,9500,-1.00,-1.0
6125,22012,-10916,23228,-1.00,-1.0
6127,4404,12304,-23820,-1.00,-1.0
6129,18388,-1784,7228,-1.00,-1.0
6131,26268,-13268,29404,-1.00,-1.0
6132,6180,13736,-32768,-1.00,-1.0
6135,21176,3340,10104,-1.00,-1.0
6137,21172,-9136,26472,-1.00,-1.0
6138,5936,11040,-32768,-1.00,-1.0
6140,30268,-6164,32767,-1.00,-1.0
6145,-196,19888,-32768,-1.00,-1.0
6147,28568,-10256,28264,-1.00,-1.0
6149,21004,-8276,21140,-1.00,-1.0
6151,2216,17080,-32768,-1.00,-1.0
6153,25568,-352,28592,-1.00,-1.0
6155,17916,-5924,18688,-1.00,-1.0
6156,2992,14220,-32768,-1.00,-1.0
6158,32767,-4684,32767,-1.00,-1.0
6160,20144,-5724,1840,-1.00,-1.0
6162,3548,23896,-32768,-1.00,-1.0
6164,27024,-9400,31148,-1.00,-1.0
6166,17516,-2344,16552,-1.00,-1.0
6168,4456,15156,-32768,-1.00,-1.0
6170,28264,-7296,32767,-1.00,-1.0
6172,15356,-7388,5584,-1.00,-1.0
6176,32767,-12504,32767,-1.00,-1.0
6178,16328,-9272,1700,-1.00,-1.0
6180,596,23076,-32768,-1.00,-1.0
6182,27372,-10984,29984,-1.00,-1.0
6184,22116,-9940,24472,-1.00,-1.0
6186,704,16492,-32768,-1.00,-1.0
6188,22900,2172,29312,-1.00,-1.0
6190,23692,-16948,25244,-1.00,-1.0
6192,3480,14672,-32768,-1.00,-1.0
6194,29464,-6736,23464,-1.00,-1.0
6196,760,12156,-32768,-1.00,-1.0
6198,21824,5384,23192,-1.00,-1.0
6200,21840,-14364,29536,-1.00,-1.0
6202,348,17264,-32768,-1.00,-1.0
6204,29084,-932,14756,-1.00,-1.0
6208,32767,-22496,32767,-1.00,-1.0
6210,444,13524,-32768,-1.00,-1.0
6212,32767,-26924,32767,-1.00,-1.0
6214,-5260,9620,-32768,-1.00,-1.0
6216,8876,22428,-25568,-1.00,-1.0
6218,32767,-23088,32767,-1.00,-1.0
6220,6948,4704,-15724,-1.00,-1.0
6221,5548,20192,-32768,-1.00,-1.0
6223,32767,-11496,32767,-1.00,-1.0
6225,15244,-7072,5248,-1.00,-1.0
6227,208,19268,-32768,-1.00,-1.0
6229,32767,-16116,32767,-1.00,-1.0
6231,18492,-10444,17956,-1.00,-1.0
6233,-2952,21156,-32768,-1.00,-1.0
6235,25728,-9036,16972,-1.00,-1.0
6239,-3972,11396,-32768,-1.00,-1.0
6241,15220,12688,-3428,-1.00,-1.0
6243,32176,-18568,32767,-1.00,-1.0
6245,8052,5172,-10572,-1.00,-1.0
6247,6840,13852,-32768,-1.00,-1.0
6249,32767,-5724,32767,-1.00,-1.0
6251,17496,-8316,7300,-1.00,-1.0
6253,1032,17024,-32768,-1.00,-1.0
6255,30668,-2768,20544,-1.00,-1.0
6257,26272,-14400,32767,-1.00,-1.0
6259,1524,10976,-31968,-1.00,-1.0
6261,30948,-13924,32767,-1.00,-1.0
6263,32767,-16312,32767,-1.00,-1.0
6265,6968,13256,-32768,-1.00,-1.0
6267,31628,-3576,32767,-1.00,-1.0
6271,32767,-16332,32767,-1.00,-1.0
6273,-1588,6808,-32768,-1.00,-1.0
6275,31208,-9956,32767,-1.00,-1.0
6277,8504,3260,-15160,-1.00,-1.0
6279,5520,11580,-32768,-1.00,-1.0
6281,32767,-6780,32767,-1.00,-1.0
6283,20132,-8468,11560,-1.00,-1.0
6284,536,13204,-32768,-1.00,-1.0
6287,16432,5540,-7420,-1.00,-1.0
6288,32767,-14244,32767,-1.00,-1.0
6290,11620,-3840,-10436,-1.00,-1.0
6292,-476,12092,-27752,-1.00,-1.0
6294,22004,-4104,10312,-1.00,-1.0
6296,32767,-13548,32767,-1.00,-1.0
6298,4796,488,-26180,-1.00,-1.0
6302,26484,-7876,22612,-1.00,-1.0
6304,28604,-12264,32767,-1.00,-1.0
6306,1216,7964,-32768,-1.00,-1.0
6308,10780,11532,-4512,-1.00,-1.0
6310,29228,-14264,30520,-1.00,-1.0
6312,23964,-9020,23308,-1.00,-1.0
6314,2216,7196,-32768,-1.00,-1.0
6316,12012,4924,-5304,-1.00,-1.0
6318,26604,-10964,22808,-1.00,-1.0
6320,22964,-9656,30244,-1.00,-1.0
6322,1304,10408,-32768,-1.00,-1.0
6324,25064,-8916,19960,-1.00,-1.0
6326,27856,-14504,24576,-1.00,-1.0
6328,21932,-8484,24740,-1.00,-1.0
6330,29600,952,13284,-1.00,-1.0
6332,26396,-8580,20400,-1.00,-1.0
6336,21856,-3908,19232,-1.00,-1.0
6338,4868,10088,-32768,-1.00,-1.0
6340,15832,6584,6232,-1.00,-1.0
6342,25864,-11608,14252,-1.00,-1.0
6344,21792,-6840,20432,-1.00,-1.0
6346,3660,11876,-32768,-1.00,-1.0
6348,18644,9212,6112,-1.00,-1.0
6350,27292,-12432,20744,-1.00,-1.0
6352,19884,-4536,16284,-1.00,-1.0
6354,5088,8392,-32768,-1.00,-1.0
6356,14140,5676,4124,-1.00,-1.0
6358,25308,-10072,15744,-1.00,-1.0
6360,23612,-4844,23680,-1.00,-1.0
6362,5672,7028,-32768,-1.00,-1.0
6364,22176,-7784,12524,-1.00,-1.0
6368,20292,-8516,23368,-1.00,-1.0
6370,3408,5664,-30692,-1.00,-1.0
6372,25480,-6216,15636,-1.00,-1.0
6374,9860,5324,-17076,-1.00,-1.0
6376,9472,10148,-11592,-1.00,-1.0
6378,25920,-4644,13032,-1.00,-1.0
6379,22764,-5384,10576,-1.00,-1.0
6382,9412,6120,-12392,-1.00,-1.0
6383,11028,5508,-9804,-1.00,-1.0
6385,20068,6692,-7892,-1.00,-1.0
6387,23824,-1384,13736,-1.00,-1.0
6389,19916,476,-1116,-1.00,-1.0
6391,10920,10260,-8380,-1.00,-1.0
6393,16684,5532,-14716,-1.00,-1.0
6395,25492,-416,18028,-1.00,-1.0
6399,11808,3796,-3600,-1.00,-1.0
6401,13264,9244,-19756,-1.00,-1.0
6403,24104,-2896,16700,-1.00,-1.0
6405,21256,-4440,10776,-1.00,-1.0
6407,11100,1684,1648,-1.00,-1.0
6409,5748,8572,-23132,-1.00,-1.0
6411,19932,-84,8064,-1.00,-1.0
6413,26204,-8144,7904,-1.00,-1.0
6415,20264,-2008,12940,-1.00,-1.0
6417,5832,9360,-32768,-1.00,-1.0
6419,17124,8540,8672,-1.00,-1.0
6421,24616,-10568,11828,-1.00,-1.0
6423,23052,-4068,23356,-1.00,-1.0
6425,8380,1848,-15688,-1.00,-1.0
6427,9056,3416,-8328,-1.00,-1.0
6431,29060,-12304,29876,-1.00,-1.0
6433,11816,152,-12696,-1.00,-1.0
6435,6308,8756,-11668,-1.00,-1.0
6437,17696,-3004,-5712,-1.00,-1.0
6439,30984,-4868,21856,-1.00,-1.0
6441,20060,-5324,5196,-1.00,-1.0
6443,18060,500,4904,-1.00,-1.0
6444,23832,-5144,7052,-1.00,-1.0
6447,20744,-2888,19272,-1.00,-1.0
6448,7220,7848,-29416,-1.00,-1.0
6450,13160,7128,752,-1.00,-1.0
6452,21528,-6852,3588,-1.00,-1.0
6454,26292,-3920,24696,-1.00,-1.0
6456,11788,116,-8452,-1.00,-1.0
6458,7284,4396,-14244,-1.00,-1.0
6460,17492,-344,-1164,-1.00,-1.0
6464,20304,-2072,8556,-1.00,-1.0
6466,11496,-508,-5920,-1.00,-1.0
6468,10104,4352,-10652,-1.00,-1.0
6470,21436,-3656,3444,-1.00,-1.0
6472,24272,-5396,15592,-1.00,-1.0
6474,15532,340,-1996,-1.00,-1.0
6476,11820,1564,-5456,-1.00,-1.0
6478,13560,5684,-13396,-1.00,-1.0
6480,19628,796,6896,-1.00,-1.0
6482,21408,-1944,4212,-1.00,-1.0
6484,20872,-1788,15496,-1.00,-1.0
6486,9696,5900,-21372,-1.00,-1.0
6488,11864,5908,-5712,-1.00,-1.0
6490,19456,-2792,3828,-1.00,-1.0
6492,26536,-6148,25368,-1.00,-1.0
6496,7116,3692,-11396,-1.00,-1.0
6498,14756,1628,-8236,-1.00,-1.0
6500,26916,-5048,17996,-1.00,-1.0
6502,19592,-2560,1296,-1.00,-1.0
6504,11876,4704,-3256,-1.00,-1.0
6506,13820,1232,-7424,-1.00,-1.0
6508,25316,-8164,21276,-1.00,-1.0
6509,13620,-1932,-144,-1.00,-1.0
6512,6432,-1096,-10936,-1.00,-1.0
6513,13772,620,-6396,-1.00,-1.0
6515,25612,-7536,18172,-1.00,-1.0
6517,18592,-1968,-996,-1.00,-1.0
6519,11128,4988,-6536,-1.00,-1.0
6521,13784,2188,-5784,-1.00,-1.0
6523,17696,7424,-15192,-1.00,-1.0
6525,23940,700,12664,-1.00,-1.0
6529,15176,4052,-2036,-1.00,-1.0
6531,8596,8152,-17620,-1.00,-1.0
6533,15740,232,3316,-1.00,-1.0
6535,18688,104,520,-1.00,-1.0
6537,24404,-5108,17948,-1.00,-1.0
6539,14864,1256,-8064,-1.00,-1.0
6541,10252,2588,-6264,-1.00,-1.0
6543,15968,-664,-5976,-1.00,-1.0
6545,24640,-2356,13584,-1.00,-1.0
6547,19984,-4668,10668,-1.00,-1.0
6549,12584,-1180,-2964,-1.00,-1.0
6551,12372,1256,-5140,-1.00,-1.0
6553,17352,-224,-5036,-1.00,-1.0
6555,19072,1252,3476,-1.00,-1.0
6557,16816,1600,992,-1.00,-1.0
6561,9428,7932,-18172,-1.00,-1.0
6563,13420,4088,-5320,-1.00,-1.0
6565,23004,-2944,5604,-1.00,-1.0
6567,25360,-2772,18004,-1.00,-1.0
6569,12140,2956,-13252,-1.00,-1.0
6571,10836,3932,-1552,-1.00,-1.0
6573,16788,-2532,3076,-1.00,-1.0
6574,19740,-5020,12376,-1.00,-1.0
6576,22228,-1124,10784,-1.00,-1.0
6578,10056,788,-5048,-1.00,-1.0
6580,18388,-1484,2232,-1.00,-1.0
6582,24708,-5516,17932,-1.00,-1.0
6584,13376,-696,-6848,-1.00,-1.0
6586,9736,3972,-9924,-1.00,-1.0
6588,16336,496,1316,-1.00,-1.0
6590,21536,1428,-2864,-1.00,-1.0
6594,17228,-428,-272,-1.00,-1.0
6596,14468,3596,-1884,-1.00,-1.0
6598,11328,6252,-13160,-1.00,-1.0
6600,17732,-1684,5688,-1.00,-1.0
6602,21860,-784,4548,-1.00,-1.0
6604,21952,-2464,9164,-1.00,-1.0
6606,10996,3504,-15308,-1.00,-1.0
6608,11748,136,-2804,-1.00,-1.0
6610,16568,-156,-1292,-1.00,-1.0
6612,24584,392,2688,-1.00,-1.0
6614,23140,-4056,13728,-1.00,-1.0
6616,12180,964,-7592,-1.00,-1.0
6618,11492,3504,-7324,-1.00,-1.0
6620,18704,232,-628,-1.00,-1.0
6621,10696,3664,-13360,-1.00,-1.0
6623,9548,2220,-8480,-1.00,-1.0
6627,23980,876,-4216,-1.00,-1.0
6629,22752,-620,10220,-1.00,-1.0
6631,15816,-2096,-4380,-1.00,-1.0
6633,11908,3812,-3372,-1.00,-1.0
6635,13456,3048,-10492,-1.00,-1.0
6637,20648,-2436,11524,-1.00,-1.0
6639,19916,-668,2480,-1.00,-1.0
6641,21300,-4092,9888,-1.00,-1.0
6643,12668,1568,-6796,-1.00,-1.0
6645,8268,2224,-11940,-1.00,-1.0
6647,17540,1064,640,-1.00,-1.0
6649,25296,-1108,9160,-1.00,-1.0
6651,20768,-900,6400,-1.00,-1.0
6653,13284,3388,-10728,-1.00,-1.0
6655,12500,4800,-2100,-1.00,-1.0
6659,22736,-1032,17356,-1.00,-1.0
6661,19780,-1576,-1508,-1.00,-1.0
6663,18552,-400,9288,-1.00,-1.0
6665,10336,1616,-10980,-1.00,-1.0
6667,11808,420,236,-1.00,-1.0
6669,19544,-976,2952,-1.00,-1.0
6670,26228,-4544,16888,-1.00,-1.0
6672,12836,3408,-11712,-1.00,-1.0
6674,20288,-2464,13092,-1.00,-1.0
6676,20348,-2040,3812,-1.00,-1.0
6678,20152,-2828,6388,-1.00,-1.0
6680,12196,520,-5120,-1.00,-1.0
6682,8344,696,-11332,-1.00,-1.0
6684,18192,384,2376,-1.00,-1.0
6686,27564,-4396,16040,-1.00,-1.0
6688,16756,2432,-6732,-1.00,-1.0
6692,16704,-428,6204,-1.00,-1.0
6694,17948,3732,-7900,-1.00,-1.0
6696,19944,-816,9252,-1.00,-1.0
6698,20612,-2544,3404,-1.00,-1.0
6700,16792,1532,2620,-1.00,-1.0
6702,9808,4544,-16732,-1.00,-1.0
6704,15848,-3396,7184,-1.00,-1.0
6706,21784,-4336,10040,-1.00,-1.0
6708,23748,-1652,7912,-1.00,-1.0
6710,16200,-1144,-1552,-1.00,-1.0
6712,8784,-288,-10284,-1.00,-1.0
6714,15108,-132,388,-1.00,-1.0
6716,23740,-736,7220,-1.00,-1.0
6718,20024,-716,5288,-1.00,-1.0
6720,13412,3768,-11824,-1.00,-1.0
6724,14616,2128,-16016,-1.00,-1.0
6726,20800,-2064,12984,-1.00,-1.0
6728,21932,-4512,8196,-1.00,-1.0
6730,17672,932,4464,-1.00,-1.0
6732,10000,1576,-10740,-1.00,-1.0
6734,11516,-3660,-572,-1.00,-1.0
6736,19352,-1144,6880,-1.00,-1.0
6737,21740,880,2356,-1.00,-1.0
6739,16176,2488,-2568,-1.00,-1.0
6741,11004,1932,-11864,-1.00,-1.0
6743,20556,-3776,8396,-1.00,-1.0
6745,20088,-4096,9492,-1.00,-1.0
6747,10272,164,-7000,-1.00,-1.0
6749,9548,-1420,-5948,-1.00,-1.0
6751,19224,-4944,7972,-1.00,-1.0
6753,23400,-1292,6728,-1.00,-1.0
6757,12472,2216,-8616,-1.00,-1.0
6759,17500,-1684,7956,-1.00,-1.0
6761,17208,5360,-10100,-1.00,-1.0
6763,18536,84,4236,-1.00,-1.0
6765,20008,-1076,2740,-1.00,-1.0
6767,16600,3660,836,-1.00,-1.0
6769,11996,2632,-10156,-1.00,-1.0
6771,14988,-2432,4656,-1.00,-1.0
6773,20672,-2940,8568,-1.00,-1.0
6775,20108,2328,-108,-1.00,-1.0
6777,14536,2956,-7728,-1.00,-1.0
6779,11140,-1604,-7008,-1.00,-1.0
6781,19532,-2928,11740,-1.00,-1.0
6783,23380,924,264,-1.00,-1.0
6784,20808,-2020,8324,-1.00,-1.0
6786,13192,1136,-11436,-1.00,-1.0
6791,14780,2468,-6856,-1.00,-1.0
6793,20128,-3852,14608,-1.00,-1.0
6794,21680,-2220,7292,-1.00,-1.0
6797,19676,-72,5608,-1.00,-1.0
6798,10152,2036,-11012,-1.00,-1.0
6800,8784,64,-7316,-1.00,-1.0
6802,17564,-288,472,-1.00,-1.0
6804,27012,-5624,13308,-1.00,-1.0
6806,11416,6484,-13792,-1.00,-1.0
6808,21180,-5180,13936,-1.00,-1.0
6810,24748,-3444,12932,-1.00,-1.0
6812,21352,-60,8052,-1.00,-1.0
6814,7716,4352,-15212,-1.00,-1.0
6816,7344,1588,-10364,-1.00,-1.0
6818,21480,-3804,8632,-1.00,-1.0
6822,17048,-2000,-256,-1.00,-1.0
6824,4272,7144,-20288,-1.00,-1.0
6826,12752,1864,-1196,-1.00,-1.0
6828,23792,-776,-800,-1.00,-1.0
6830,25016,-4616,18908,-1.00,-1.0
6832,16064,-1692,828,-1.00,-1.0
6834,11716,4056,-4792,-1.00,-1.0
6836,11488,4428,-17768,-1.00,-1.0
6838,20080,-2036,6320,-1.00,-1.0
6840,25764,-5632,17384,-1.00,-1.0
6842,21832,-5252,18188,-1.00,-1.0
6844,1428,8292,-31732,-1.00,-1.0
6846,9384,6576,-13024,-1.00,-1.0
6848,32172,-11620,26176,-1.00,-1.0
6849,28076,-8468,23520,-1.00,-1.0
6851,956,7952,-27576,-1.00,-1.0
6855,24672,-3300,11716,-1.00,-1.0
6857,30084,-556,11888,-1.00,-1.0
6859,17228,-4964,10080,-1.00,-1.0
6861,5976,2312,-17100,-1.00,-1.0
6863,13116,4580,-3816,-1.00,-1.0
6865,18824,-1412,10548,-1.00,-1.0
6867,4160,10060,-31840,-1.00,-1.0
6869,16328,3268,2124,-1.00,-1.0
6871,28796,-7788,14696,-1.00,-1.0
6873,21220,1296,8904,-1.00,-1.0
6875,4744,7496,-23004,-1.00,-1.0
6877,13396,620,-780,-1.00,-1.0
6879,26192,-5260,17072,-1.00,-1.0
6881,21968,-2828,8860,-1.00,-1.0
6883,5832,8240,-21316,-1.00,-1.0
6887,22136,-1448,7476,-1.00,-1.0
6889,23888,1460,7352,-1.00,-1.0
6890,11060,3876,-15976,-1.00,-1.0
6892,13172,4684,-5856,-1.00,-1.0
6894,22732,-2144,8668,-1.00,-1.0
6896,23688,-2360,7812,-1.00,-1.0
6898,10792,3168,-12564,-1.00,-1.0
6900,22348,-5444,15908,-1.00,-1.0
6902,22088,-2660,12644,-1.00,-1.0
6904,15160,1576,2112,-1.00,-1.0
6906,18612,-1788,-5508,-1.00,-1.0
6908,20144,-3788,14244,-1.00,-1.0
6910,14588,-2720,-2084,-1.00,-1.0
6912,16356,1904,6044,-1.00,-1.0
6914,15448,-1260,-12416,-1.00,-1.0
6918,14304,828,-980,-1.00,-1.0
6920,14864,2140,2272,-1.00,-1.0
6922,19240,500,-13800,-1.00,-1.0
6924,23216,-3444,16860,-1.00,-1.0
6926,15772,-2140,-2248,-1.00,-1.0
6928,15984,2920,3304,-1.00,-1.0
6930,16912,-2036,-7008,-1.00,-1.0
6932,20176,-2648,13268,-1.00,-1.0
6934,11116,3916,-9712,-1.00,-1.0
6936,17248,316,10116,-1.00,-1.0
6938,21100,-3308,-8176,-1.00,-1.0
6940,20008,548,11932,-1.00,-1.0
6942,11608,-108,-12632,-1.00,-1.0
6944,17424,3344,5316,-1.00,-1.0
6945,22068,-4456,-1464,-1.00,-1.0
6947,19016,280,8220,-1.00,-1.0
6952,18240,236,13920,-1.00,-1.0
6954,24076,-6400,-4080,-1.00,-1.0
6955,17112,3724,3012,-1.00,-1.0
6957,9192,3364,-15552,-1.00,-1.0
6959,18460,1804,7360,-1.00,-1.0
6961,25432,-6700,896,-1.00,-1.0
6963,20080,812,3208,-1.00,-1.0
6965,17140,-1408,11620,-1.00,-1.0
6967,15224,1900,384,-1.00,-1.0
6969,18500,-408,8512,-1.00,-1.0
6971,10932,2668,-12616,-1.00,-1.0
6973,19168,-7128,15652,-1.00,-1.0
6975,20156,-6272,6272,-1.00,-1.0
6977,12980,2340,-5044,-1.00,-1.0
6979,10688,3176,-9412,-1.00,-1.0
6981,19980,-5720,16412,-1.00,-1.0
6985,16140,2820,-944,-1.00,-1.0
6987,15060,2312,-13840,-1.00,-1.0
6989,22920,-5848,20640,-1.00,-1.0
6991,18260,-4856,3516,-1.00,-1.0
6993,11540,4788,2716,-1.00,-1.0
6995,11312,676,-5708,-1.00,-1.0
6997,20336,-4080,17288,-1.00,-1.0
6999,19500,-2524,-2924,-1.00,-1.0
7001,16096,4020,384,-1.00,-1.0
7003,16656,916,-10048,-1.00,-1.0
7004,23280,-5476,21520,-1.00,-1.0
7007,15096,-3672,-2944,-1.00,-1.0
7009,12972,2980,5332,-1.00,-1.0
7010,14144,1648,-9780,-1.00,-1.0
7012,20944,-112,11584,-1.00,-1.0
7018,17008,-2464,-300,-1.00,-1.0
7020,21552,-4888,19712,-1.00,-1.0
7022,12380,6356,-6324,-1.00,-1.0
7024,21428,-4796,14848,-1.00,-1.0
7026,21160,-4384,3036,-1.00,-1.0
7028,11584,6164,-13168,-1.00,-1.0
7030,15724,-920,-2892,-1.00,-1.0
7032,21648,-1016,3724,-1.00,-1.0
7034,20224,-1864,3624,-1.00,-1.0
7036,15512,648,-5364,-1.00,-1.0
7038,15040,-3408,6564,-1.00,-1.0
7040,15652,-2196,-1924,-1.00,-1.0
7042,18816,-3244,1932,-1.00,-1.0
7044,15044,-284,-9396,-1.00,-1.0
7045,17860,-4780,7720,-1.00,-1.0
7050,16828,-432,-760,-1.00,-1.0
7052,15400,16,-4280,-1.00,-1.0
7054,17952,-5720,9056,-1.00,-1.0
7055,15648,-600,-516,-1.00,-1.0
7057,16124,2080,-1184,-1.00,-1.0
7059,18784,-232,-10824,-1.00,-1.0
7061,23264,-6688,17084,-1.00,-1.0
7063,15836,-2884,-3544,-1.00,-1.0
7065,13128,3668,-2512,-1.00,-1.0
7067,17040,-1808,-1404,-1.00,-1.0
7069,20892,-4236,20132,-1.00,-1.0
7071,14260,1780,-8572,-1.00,-1.0
7073,14344,3244,3764,-1.00,-1.0
7075,19236,-2324,3752,-1.00,-1.0
7077,11548,5192,-10152,-1.00,-1.0
7079,15564,-2396,5680,-1.00,-1.0
7083,23328,-6580,9552,-1.00,-1.0
7085,15632,180,7544,-1.00,-1.0
7087,20304,-3532,12256,-1.00,-1.0
7089,21936,-2244,3028,-1.00,-1.0
7091,15228,5296,8,-1.00,-1.0
7093,14324,1940,-12864,-1.00,-1.0
7095,23204,-3876,19840,-1.00,-1.0
7097,20300,-6988,4292,-1.00,-1.0
7099,11368,5944,-9492,-1.00,-1.0
7101,13992,4008,-8388,-1.00,-1.0
7103,24984,-8948,28352,-1.00,-1.0
7104,17868,-4896,-1436,-1.00,-1.0
7107,10980,6032,-8012,-1.00,-1.0
7109,19016,-3364,1716,-1.00,-1.0
7110,23208,-6652,20040,-1.00,-1.0
7115,14704,508,4504,-1.00,-1.0
7116,20108,-2652,-3372,-1.00,-1.0
7118,20672,-2848,15248,-1.00,-1.0
7120,13208,3988,-11024,-1.00,-1.0
7122,17352,1992,7968,-1.00,-1.0
7124,21104,-7616,6920,-1.00,-1.0
7126,17720,-3820,15484,-1.00,-1.0
7128,9552,2356,-14160,-1.00,-1.0
7130,17344,-840,8596,-1.00,-1.0
7132,21580,-7232,1296,-1.00,-1.0
7134,11384,6168,-8760,-1.00,-1.0
7136,18944,-6312,8196,-1.00,-1.0
7138,21412,-1880,9208,-1.00,-1.0
7140,12872,4560,-16420,-1.00,-1.0
7142,13064,4756,-3880,-1.00,-1.0
7144,20744,-5228,11220,-1.00,-1.0
7148,13876,7248,-12956,-1.00,-1.0
7150,12072,6780,-11636,-1.00,-1.0
7151,21032,-3952,9088,-1.00,-1.0
7153,23516,-2172,12808,-1.00,-1.0
7155,13588,6188,-13040,-1.00,-1.0
7157,10156,7320,-13232,-1.00,-1.0
7159,20520,-4756,11784,-1.00,-1.0
7161,24016,-3520,13308,-1.00,-1.0
7163,13936,4920,-12456,-1.00,-1.0
7165,9872,6132,-10076,-1.00,-1.0
7167,18336,-3172,7808,-1.00,-1.0
7169,22912,-2680,12048,-1.00,-1.0
7171,15388,4912,-13364,-1.00,-1.0
7173,10524,6416,-10200,-1.00,-1.0
7175,20008,-6004,13196,-1.00,-1.0
7179,18648,1956,-14148,-1.00,-1.0
7181,11892,6996,-6440,-1.00,-1.0
7183,14832,-1996,-3608,-1.00,-1.0
7185,15700,2684,-6560,-1.00,-1.0
7187,16132,1920,2036,-1.00,-1.0
7189,17872,-4904,-816,-1.00,-1.0
7191,19972,-5252,17176,-1.00,-1.0
7193,16956,-424,-1716,-1.00,-1.0
7195,14736,476,-228,-1.00,-1.0
7197,13372,-2244,-6464,-1.00,-1.0
7199,18488,-2520,7528,-1.00,-1.0
7201,22124,276,9276,-1.00,-1.0
7203,15208,3348,-11016,-1.00,-1.0
7205,13392,4668,-7516,-1.00,-1.0
7206,21624,-6664,12352,-1.00,-1.0
7208,22968,-1328,10096,-1.00,-1.0
7213,10228,7580,-10408,-1.00,-1.0
7215,19464,-3484,6120,-1.00,-1.0
7217,26228,-5740,18984,-1.00,-1.0
7219,18728,1744,-6152,-1.00,-1.0
7221,6604,9952,-20216,-1.00,-1.0
7223,12436,3688,-7232,-1.00,-1.0
7224,27020,-6372,20752,-1.00,-1.0
7227,23756,-3108,4884,-1.00,-1.0
7229,11096,1628,-6528,-1.00,-1.0
7230,7060,6780,-15044,-1.00,-1.0
7232,20024,-3028,9388,-1.00,-1.0
7234,25576,-7900,10532,-1.00,-1.0
7236,16728,-952,7852,-1.00,-1.0
7238,7960,8104,-20056,-1.00,-1.0
7240,15536,2320,6144,-1.00,-1.0
7244,21276,-2612,17704,-1.00,-1.0
7246,21204,-5584,6888,-1.00,-1.0
7248,12748,3164,-8388,-1.00,-1.0
7250,8964,3740,-17916,-1.00,-1.0
7252,19212,-5620,12832,-1.00,-1.0
7254,25448,-5816,19616,-1.00,-1.0
7256,18000,808,-6120,-1.00,-1.0
7258,19592,-508,-7520,-1.00,-1.0
7260,12964,-4300,-3784,-1.00,-1.0
7262,18664,2540,6904,-1.00,-1.0
7264,15316,2512,948,-1.00,-1.0
7266,10904,-336,-17256,-1.00,-1.0
7268,21344,-5916,17348,-1.00,-1.0
7270,24044,-5100,14380,-1.00,-1.0
7272,13496,6320,-16796,-1.00,-1.0
7276,16660,-5052,2532,-1.00,-1.0
7278,22424,-1392,12564,-1.00,-1.0
7280,23568,-1116,6824,-1.00,-1.0
7282,12932,-264,-7952,-1.00,-1.0
7284,9348,3780,-11396,-1.00,-1.0
7286,17812,-3632,12708,-1.00,-1.0
7288,21104,-828,368,-1.00,-1.0
7289,16512,-1248,4532,-1.00,-1.0
7291,19364,-2148,2800,-1.00,-1.0
7293,14564,6344,-7964,-1.00,-1.0
7295,11936,4484,-11988,-1.00,-1.0
7297,19152,-4176,3528,-1.00,-1.0
7299,27668,-4048,24420,-1.00,-1.0
7301,16632,5320,-19680,-1.00,-1.0
7303,9372,8820,-12452,-1.00,-1.0
7305,15064,-3744,4304,-1.00,-1.0
7309,20464,4380,-3016,-1.00,-1.0
7311,17244,-5384,2144,-1.00,-1.0
7313,14272,1888,-8988,-1.00,-1.0
7315,14468,6032,-6540,-1.00,-1.0
7317,19588,128,3576,-1.00,-1.0
7319,19396,-3812,8520,-1.00,-1.0
7321,21776,-692,9500,-1.00,-1.0
7323,19764,-1944,16276,-1.00,-1.0
7325,10272,3676,-7944,-1.00,-1.0
7327,18792,-5000,9852,-1.00,-1.0
7329,20892,-5212,2712,-1.00,-1.0
7331,12968,8216,-6424,-1.00,-1.0
7333,9872,3016,-10180,-1.00,-1.0
7335,15600,-3716,7224,-1.00,-1.0
7337,24624,-5868,18064,-1.00,-1.0
7341,14040,1328,-2400,-1.00,-1.0
7343,10020,72,-13028,-1.00,-1.0
7345,16316,3064,10012,-1.00,-1.0
7347,22992,-3492,8192,-1.00,-1.0
7349,21108,-5180,9236,-1.00,-1.0
7351,18516,256,-2668,-1.00,-1.0
7352,15076,664,-5032,-1.00,-1.0
7354,10400,1868,-1408,-1.00,-1.0
7356,14184,-5752,7620,-1.00,-1.0
7358,23052,-4620,19600,-1.00,-1.0
7360,18924,3940,-16300,-1.00,-1.0
7362,17788,-2552,-616,-1.00,-1.0
7364,10504,6504,-15000,-1.00,-1.0
7366,11688,9704,-4200,-1.00,-1.0
7368,20412,316,11360,-1.00,-1.0
7370,23708,-6464,14904,-1.00,-1.0
7375,18628,4236,-10404,-1.00,-1.0
7377,15872,196,2040,-1.00,-1.0
7379,9540,2788,-9796,-1.00,-1.0
7380,16644,-516,12052,-1.00,-1.0
7382,22016,-3956,5628,-1.00,-1.0
7384,19768,-3540,-1304,-1.00,-1.0
7386,19088,1776,-4132,-1.00,-1.0
7388,16844,-204,-1408,-1.00,-1.0
7390,10376,4768,-720,-1.00,-1.0
7392,10116,824,-3580,-1.00,-1.0
7394,21884,-4304,14328,-1.00,-1.0
7396,24672,-2144,1688,-1.00,-1.0
7398,21932,-5572,3348,-1.00,-1.0
7400,14112,5724,-15324,-1.00,-1.0
7402,14180,156,7084,-1.00,-1.0
7406,10488,2040,-4572,-1.00,-1.0
7408,22700,-6984,6868,-1.00,-1.0
7410,9252,11980,-10816,-1.00,-1.0
7412,12580,4020,692,-1.00,-1.0
7414,18708,-7504,12400,-1.00,-1.0
7416,23812,-4524,12020,-1.00,-1.0
7418,18080,2976,-19540,-1.00,-1.0
7419,17924,880,4480,-1.00,-1.0
7421,14104,2712,-11864,-1.00,-1.0
7423,15972,2476,13180,-1.00,-1.0
7425,14660,488,1956,-1.00,-1.0
7427,15692,1912,1444,-1.00,-1.0
7429,24756,-8144,8576,-1.00,-1.0
7431,19204,1900,-10428,-1.00,-1.0
7433,16908,132,1780,-1.00,-1.0
7435,13976,788,-844,-1.00,-1.0
7439,12476,3588,-7996,-1.00,-1.0
7441,17176,1380,304,-1.00,-1.0
7443,26540,-6668,7356,-1.00,-1.0
7445,22080,1908,-980,-1.00,-1.0
7447,13936,1108,-5096,-1.00,-1.0
7449,9740,4768,-5520,-1.00,-1.0
7451,18364,-5316,19792,-1.00,-1.0
7453,15444,104,-3544,-1.00,-1.0
7455,13552,5208,-10588,-1.00,-1.0
7457,26928,-9096,10040,-1.00,-1.0
7459,9032,9612,-12040,-1.00,-1.0
7461,17032,-8,5632,-1.00,-1.0
7463,18872,-5788,4492,-1.00,-1.0
7465,20100,5220,-2628,-1.00,-1.0
7466,18200,4392,-16004,-1.00,-1.0
7468,21128,-3564,17516,-1.00,-1.0
7473,10664,8632,-10056,-1.00,-1.0
7475,15408,-128,944,-1.00,-1.0
7476,15052,-2352,-5540,-1.00,-1.0
7478,23188,1160,10656,-1.00,-1.0
7480,18180,2248,-12536,-1.00,-1.0
7482,17636,-276,12172,-1.00,-1.0
7484,15844,-2224,1708,-1.00,-1.0
7486,16024,704,4108,-1.00,-1.0
7488,16664,-1488,7536,-1.00,-1.0
7490,11012,1216,-12180,-1.00,-1.0
7492,18980,308,4340,-1.00,-1.0
7494,18548,1908,-4908,-1.00,-1.0
7496,15324,4416,-9056,-1.00,-1.0
7498,20024,2800,4052,-1.00,-1.0
7500,17984,2904,-6192,-1.00,-1.0
7504,16668,-3808,2960,-1.00,-1.0
7506,21332,-1956,10192,-1.00,-1.0
7508,18316,-712,1356,-1.00,-1.0
7510,13244,-4788,-4108,-1.00,-1.0
7512,15508,4396,-740,-1.00,-1.0
7514,12476,7296,-22368,-1.00,-1.0
7516,20424,-4796,16744,-1.00,-1.0
7518,10968,1860,-7024,-1.00,-1.0
7520,15656,8008,-9352,-1.00,-1.0
7522,20872,-2752,10100,-1.00,-1.0
7524,12240,-1332,-6556,-1.00,-1.0
7526,19464,-3200,6416,-1.00,-1.0
7528,19908,0,4608,-1.00,-1.0
7530,16168,-2528,3724,-1.00,-1.0
7531,17476,-8392,11196,-1.00,-1.0
7533,21928,-3636,22320,-1.00,-1.0
7538,10876,-2260,-7832,-1.00,-1.0
7540,22512,-4864,11072,-1.00,-1.0
7541,16212,13428,-18780,-1.00,-1.0
7543,18508,-3408,6948,-1.00,-1.0
7545,20484,-6696,12976,-1.00,-1.0
7547,19312,3716,6408,-1.00,-1.0
7549,16444,964,1792,-1.00,-1.0
7551,12316,-3256,-4656,-1.00,-1.0
7553,22744,-5268,19680,-1.00,-1.0
7555,15820,4544,-7904,-1.00,-1.0
7557,7908,2152,-21420,-1.00,-1.0
7559,18672,532,3204,-1.00,-1.0
7561,17936,10384,-14404,-1.00,-1.0
7563,18320,416,888,-1.00,-1.0
7565,18308,-764,1412,-1.00,-1.0
7569,22440,-3440,12508,-1.00,-1.0
7571,15856,-8992,8436,-1.00,-1.0
7573,18716,-1576,15032,-1.00,-1.0
7575,14548,2344,-5760,-1.00,-1.0
7577,11152,-4312,-9148,-1.00,-1.0
7579,20548,-4328,7892,-1.00,-1.0
7581,11008,14272,-24484,-1.00,-1.0
7583,13264,4216,-9120,-1.00,-1.0
7585,19416,52,-1152,-1.00,-1.0
7587,20564,12216,-680,-1.00,-1.0
7589,14652,-196,-3640,-1.00,-1.0
7590,6120,3092,-25780,-1.00,-1.0
7593,15312,3640,-5780,-1.00,-1.0
7595,17712,11992,-18576,-1.00,-1.0
7596,20968,472,13492,-1.00,-1.0
7598,16072,824,-7996,-1.00,-1.0
7603,23428,-6084,13732,-1.00,-1.0
7605,19652,-9076,14800,-1.00,-1.0
7606,17820,-956,11636,-1.00,-1.0
7608,14288,1428,-3752,-1.00,-1.0
7610,10392,-4328,-10652,-1.00,-1.0
7612,21120,-8720,10888,-1.00,-1.0
7614,14188,9500,-12156,-1.00,-1.0
7616,10032,1552,-15216,-1.00,-1.0
7618,16316,2692,-8456,-1.00,-1.0
7620,17240,12228,-9764,-1.00,-1.0
7622,23008,-4252,10452,-1.00,-1.0
7624,20600,1776,3352,-1.00,-1.0
7626,16192,8384,-12456,-1.00,-1.0
7628,23596,-4048,20196,-1.00,-1.0
7630,18088,-15056,16056,-1.00,-1.0
7634,12364,544,-4600,-1.00,-1.0
7636,8068,-4672,-12092,-1.00,-1.0
7638,20504,-5364,8756,-1.00,-1.0
7640,13496,9348,-18120,-1.00,-1.0
7642,15664,-1628,1628,-1.00,-1.0
7644,17552,2784,-9692,-1.00,-1.0
7646,14400,16552,-21012,-1.00,-1.0
7648,16520,-5360,3508,-1.00,-1.0
7650,24568,-3148,23436,-1.00,-1.0
7652,14104,1240,-6088,-1.00,-1.0
7653,15328,7304,-18516,-1.00,-1.0
7656,21376,-6964,13832,-1.00,-1.0
7657,21928,-4204,3192,-1.00,-1.0
7659,12604,15424,-16636,-1.00,-1.0
7661,15836,160,572,-1.00,-1.0
7665,23908,2252,11332,-1.00,-1.0
7667,20620,-868,3792,-1.00,-1.0
7669,14196,-6464,7148,-1.00,-1.0
7671,20096,-9116,15000,-1.00,-1.0
7673,16252,964,3072,-1.00,-1.0
7675,12460,-7444,-1744,-1.00,-1.0
7677,13852,2696,-6124,-1.00,-1.0
7679,11212,8788,-18496,-1.00,-1.0
7681,18420,-6012,2480,-1.00,-1.0
7683,19500,5080,-1172,-1.00,-1.0
7685,12240,19500,-28924,-1.00,-1.0
7687,20328,9196,3160,-1.00,-1.0
7689,25164,-6580,11660,-1.00,-1.0
7691,23128,4052,8720,-1.00,-1.0
7692,15216,5416,-4104,-1.00,-1.0
7694,13396,1524,-9908,-1.00,-1.0
7699,10768,3612,-14400,-1.00,-1.0
