timestamp_ms,accel_x,accel_y,accel_z,voltage,soc
2,17024,-20,696,-1.00,-1.0
4,17044,-72,564,-1.00,-1.0
6,16976,4,652,-1.00,-1.0
11,17016,-140,652,-1.00,-1.0
13,17036,-16,576,-1.00,-1.0
15,17048,-52,624,-1.00,-1.0
17,16836,-216,612,-1.00,-1.0
19,17104,-136,512,-1.00,-1.0
21,16904,-24,700,-1.00,-1.0
23,16972,-52,544,-1.00,-1.0
25,16940,-12,556,-1.00,-1.0
27,17024,-48,656,-1.00,-1.0
29,17024,-68,624,-1.00,-1.0
31,16988,8,496,-1.00,-1.0
33,17036,4,592,-1.00,-1.0
35,16912,-132,564,-1.00,-1.0
37,17044,16,512,-1.00,-1.0
39,16972,-84,672,-1.00,-1.0
41,16944,-112,520,-1.00,-1.0
42,17084,28,508,-1.00,-1.0
44,16988,-60,536,-1.00,-1.0
46,16992,-64,448,-1.00,-1.0
50,17044,-20,544,-1.00,-1.0
52,17048,-12,588,-1.00,-1.0
54,17060,8,624,-1.00,-1.0
56,16976,-88,640,-1.00,-1.0
58,17060,-40,416,-1.00,-1.0
60,16976,12,632,-1.00,-1.0
62,17076,-80,448,-1.00,-1.0
64,17036,-116,592,-1.00,-1.0
66,17016,44,668,-1.00,-1.0
68,16948,60,612,-1.00,-1.0
70,16944,-136,608,-1.00,-1.0
72,16996,-68,568,-1.00,-1.0
74,17044,-20,576,-1.00,-1.0
75,16916,-12,504,-1.00,-1.0
78,17044,-72,556,-1.00,-1.0
79,17020,-72,648,-1.00,-1.0
81,16928,0,588,-1.00,-1.0
83,17076,-16,580,-1.00,-1.0
87,16940,0,580,-1.00,-1.0
89,17016,28,676,-1.00,-1.0
91,17000,-24,516,-1.00,-1.0
93,17024,-60,680,-1.00,-1.0
95,16916,-92,684,-1.00,-1.0
97,16972,-16,596,-1.00,-1.0
99,17040,-76,572,-1.00,-1.0
101,17020,16,448,-1.00,-1.0
103,16964,32,628,-1.00,-1.0
105,17036,-28,604,-1.00,-1.0
107,17052,76,604,-1.00,-1.0
109,17132,-28,488,-1.00,-1.0
111,17020,-16,628,-1.00,-1.0
113,17032,-4,704,-1.00,-1.0
115,16940,-248,620,-1.00,-1.0
117,17000,-12,604,-1.00,-1.0
119,16984,120,548,-1.00,-1.0
120,16968,20,596,-1.00,-1.0
125,17024,-92,628,-1.00,-1.0
127,16960,-124,604,-1.00,-1.0
129,16916,-12,572,-1.00,-1.0
130,16940,-40,740,-1.00,-1.0
132,17000,-112,620,-1.00,-1.0
134,17024,-72,592,-1.00,-1.0
136,17052,-56,724,-1.00,-1.0
138,17072,-36,384,-1.00,-1.0
140,17008,-40,540,-1.00,-1.0
142,16996,-40,596,-1.00,-1.0
144,17012,-24,576,-1.00,-1.0
146,17140,-24,508,-1.00,-1.0
148,17116,-120,620,-1.00,-1.0
150,17080,0,556,-1.00,-1.0
152,16992,-16,772,-1.00,-1.0
154,17048,-64,768,-1.00,-1.0
156,16900,-4,668,-1.00,-1.0
158,16948,-100,644,-1.00,-1.0
162,16832,-72,548,-1.00,-1.0
164,16888,-16,672,-1.00,-1.0
166,17008,16,532,-1.00,-1.0
168,16944,-108,684,-1.00,-1.0
170,17028,-28,664,-1.00,-1.0
172,17012,-32,680,-1.00,-1.0
173,17076,-28,576,-1.00,-1.0
175,16968,0,496,-1.00,-1.0
177,17088,-40,656,-1.00,-1.0
179,16976,-88,540,-1.00,-1.0
181,16968,-72,616,-1.00,-1.0
183,16908,-64,576,-1.00,-1.0
185,16944,-24,616,-1.00,-1.0
187,17008,-72,568,-1.00,-1.0
189,17056,-28,624,-1.00,-1.0
191,17096,-92,648,-1.00,-1.0
193,17008,-96,628,-1.00,-1.0
195,16996,-56,568,-1.00,-1.0
199,16988,80,700,-1.00,-1.0
201,17000,-96,544,-1.00,-1.0
203,17020,-200,600,-1.00,-1.0
205,16972,-96,648,-1.00,-1.0
207,17012,-88,668,-1.00,-1.0
209,17028,-12,540,-1.00,-1.0
211,17004,-28,580,-1.00,-1.0
213,17072,-16,716,-1.00,-1.0
214,17044,20,788,-1.00,-1.0
216,17068,28,616,-1.00,-1.0
218,17024,-20,692,-1.00,-1.0
220,16972,-52,588,-1.00,-1.0
222,17032,-36,636,-1.00,-1.0
224,17008,-48,684,-1.00,-1.0
226,17016,-52,664,-1.00,-1.0
228,16972,-60,568,-1.00,-1.0
230,17024,-84,656,-1.00,-1.0
234,17004,-64,524,-1.00,-1.0
236,17028,-40,676,-1.00,-1.0
238,17032,-112,556,-1.00,-1.0
240,17080,-16,580,-1.00,-1.0
242,17028,-28,516,-1.00,-1.0
244,16900,-36,668,-1.00,-1.0
246,16984,-8,572,-1.00,-1.0
248,17052,0,660,-1.00,-1.0
250,17020,-60,568,-1.00,-1.0
252,17004,-44,576,-1.00,-1.0
254,17064,-28,620,-1.00,-1.0
256,17016,12,524,-1.00,-1.0
258,17076,-20,692,-1.00,-1.0
259,16980,-40,740,-1.00,-1.0
261,16940,36,680,-1.00,-1.0
263,17000,-64,632,-1.00,-1.0
265,16936,-68,644,-1.00,-1.0
267,16980,-20,548,-1.00,-1.0
271,17060,-44,624,-1.00,-1.0
273,17088,48,440,-1.00,-1.0
275,16980,-64,576,-1.00,-1.0
277,17132,-52,524,-1.00,-1.0
279,17016,28,668,-1.00,-1.0
281,16956,12,644,-1.00,-1.0
283,16996,16,644,-1.00,-1.0
285,17028,0,592,-1.00,-1.0
287,16976,-40,520,-1.00,-1.0
289,16968,12,716,-1.00,-1.0
291,17048,36,564,-1.00,-1.0
293,16900,-44,692,-1.00,-1.0
295,16956,-56,664,-1.00,-1.0
297,17012,-4,632,-1.00,-1.0
299,16904,-88,492,-1.00,-1.0
301,17104,24,548,-1.00,-1.0
302,16984,44,724,-1.00,-1.0
304,17004,-12,748,-1.00,-1.0
308,17000,-80,588,-1.00,-1.0
310,16968,-40,640,-1.00,-1.0
312,17148,12,640,-1.00,-1.0
314,17012,20,640,-1.00,-1.0
316,17040,-36,464,-1.00,-1.0
318,16948,-72,644,-1.00,-1.0
320,17024,20,520,-1.00,-1.0
322,17028,-56,520,-1.00,-1.0
324,17056,-72,660,-1.00,-1.0
326,17008,-40,596,-1.00,-1.0
328,17028,-144,676,-1.00,-1.0
330,17012,20,616,-1.00,-1.0
332,17004,-36,588,-1.00,-1.0
334,17052,-40,636,-1.00,-1.0
336,17068,-104,624,-1.00,-1.0
338,17032,44,668,-1.00,-1.0
339,17036,-60,692,-1.00,-1.0
341,16976,0,564,-1.00,-1.0
345,17040,-132,592,-1.00,-1.0
347,17044,-96,536,-1.00,-1.0
349,17044,-68,608,-1.00,-1.0
351,16956,-40,520,-1.00,-1.0
353,17028,32,744,-1.00,-1.0
355,17104,48,528,-1.00,-1.0
357,17000,-72,616,-1.00,-1.0
359,16964,0,524,-1.00,-1.0
361,16916,8,572,-1.00,-1.0
363,16984,8,600,-1.00,-1.0
365,17052,-76,616,-1.00,-1.0
367,17012,4,584,-1.00,-1.0
369,17084,-36,616,-1.00,-1.0
370,16996,-120,684,-1.00,-1.0
373,16988,-96,756,-1.00,-1.0
375,17000,-48,648,-1.00,-1.0
376,17080,-136,580,-1.00,-1.0
378,17060,-40,588,-1.00,-1.0
383,16992,-68,720,-1.00,-1.0
385,16944,-12,592,-1.00,-1.0
386,17020,-56,580,-1.00,-1.0
388,16992,-80,576,-1.00,-1.0
390,16948,-16,736,-1.00,-1.0
392,16988,-64,624,-1.00,-1.0
394,17028,0,756,-1.00,-1.0
396,17028,-52,596,-1.00,-1.0
398,16944,-40,756,-1.00,-1.0
400,17000,-132,608,-1.00,-1.0
402,16972,-68,664,-1.00,-1.0
404,16936,-48,768,-1.00,-1.0
406,17064,-36,592,-1.00,-1.0
408,16940,-4,740,-1.00,-1.0
410,17040,-64,612,-1.00,-1.0
412,17032,-4,668,-1.00,-1.0
414,17040,-40,600,-1.00,-1.0
415,16976,60,508,-1.00,-1.0
420,17088,-56,652,-1.00,-1.0
422,16872,-32,480,-1.00,-1.0
424,16956,-28,584,-1.00,-1.0
425,16956,-144,592,-1.00,-1.0
428,16972,-116,680,-1.00,-1.0
430,17060,36,612,-1.00,-1.0
431,16960,-52,648,-1.00,-1.0
433,16976,4,684,-1.00,-1.0
435,16920,-108,584,-1.00,-1.0
437,16948,-12,644,-1.00,-1.0
439,17056,-64,632,-1.00,-1.0
441,16960,-124,644,-1.00,-1.0
443,16936,-92,640,-1.00,-1.0
445,17032,-64,504,-1.00,-1.0
447,16988,-48,552,-1.00,-1.0
449,16980,-80,544,-1.00,-1.0
451,17004,-4,524,-1.00,-1.0
455,17028,-36,496,-1.00,-1.0
457,17016,-28,660,-1.00,-1.0
459,16956,-4,624,-1.00,-1.0
461,16972,88,496,-1.00,-1.0
463,17076,12,696,-1.00,-1.0
465,17016,8,504,-1.00,-1.0
467,16992,-60,704,-1.00,-1.0
469,16996,-64,664,-1.00,-1.0
470,16992,-16,704,-1.00,-1.0
473,17060,-108,648,-1.00,-1.0
474,17052,-44,548,-1.00,-1.0
476,16996,44,668,-1.00,-1.0
478,17148,-28,604,-1.00,-1.0
480,17020,-168,660,-1.00,-1.0
482,17012,24,624,-1.00,-1.0
484,16984,-56,684,-1.00,-1.0
486,16936,56,576,-1.00,-1.0
488,16928,-28,528,-1.00,-1.0
492,16976,8,640,-1.00,-1.0
494,16920,-12,768,-1.00,-1.0
496,16952,-32,576,-1.00,-1.0
498,17064,0,628,-1.00,-1.0
500,17012,-32,704,-1.00,-1.0
502,17028,-68,632,-1.00,-1.0
504,17024,-56,624,-1.00,-1.0
506,16988,-12,680,-1.00,-1.0
508,16964,32,508,-1.00,-1.0
510,17000,20,508,-1.00,-1.0
512,16936,-12,732,-1.00,-1.0
514,17040,-52,536,-1.00,-1.0
515,17132,-48,600,-1.00,-1.0
517,17000,-44,680,-1.00,-1.0
519,16932,-40,532,-1.00,-1.0
521,17008,-4,576,-1.00,-1.0
523,17068,-88,568,-1.00,-1.0
525,17060,12,776,-1.00,-1.0
529,16992,-52,512,-1.00,-1.0
531,17080,-8,632,-1.00,-1.0
533,16928,8,544,-1.00,-1.0
535,17080,-48,632,-1.00,-1.0
537,17092,-8,672,-1.00,-1.0
539,16968,8,580,-1.00,-1.0
541,17060,-132,624,-1.00,-1.0
543,16976,-24,700,-1.00,-1.0
545,17000,40,772,-1.00,-1.0
547,16992,-52,596,-1.00,-1.0
549,17024,-56,572,-1.00,-1.0
551,16980,20,644,-1.00,-1.0
553,17096,-24,648,-1.00,-1.0
555,17012,-20,600,-1.00,-1.0
557,17044,-36,632,-1.00,-1.0
559,17020,-112,660,-1.00,-1.0
560,16940,-92,784,-1.00,-1.0
562,17028,-16,696,-1.00,-1.0
567,17104,-24,736,-1.00,-1.0
569,16936,52,500,-1.00,-1.0
571,17116,-20,600,-1.00,-1.0
573,16956,-4,584,-1.00,-1.0
574,16952,-76,636,-1.00,-1.0
577,17000,36,536,-1.00,-1.0
578,17016,8,712,-1.00,-1.0
580,17040,-44,736,-1.00,-1.0
582,17100,-24,616,-1.00,-1.0
584,17092,-20,592,-1.00,-1.0
586,16936,-88,688,-1.00,-1.0
588,17060,20,504,-1.00,-1.0
590,17060,-92,704,-1.00,-1.0
592,16968,68,664,-1.00,-1.0
594,16952,-16,664,-1.00,-1.0
596,16988,-100,716,-1.00,-1.0
598,17012,-28,572,-1.00,-1.0
600,17024,36,680,-1.00,-1.0
604,16988,32,600,-1.00,-1.0
606,16956,-108,680,-1.00,-1.0
608,16924,-44,568,-1.00,-1.0
610,17012,-84,616,-1.00,-1.0
612,17048,-4,612,-1.00,-1.0
614,17096,-56,632,-1.00,-1.0
616,17008,-96,596,-1.00,-1.0
617,17020,16,676,-1.00,-1.0
619,16960,-88,500,-1.00,-1.0
621,16996,-24,496,-1.00,-1.0
623,17080,-52,740,-1.00,-1.0
625,16980,-80,580,-1.00,-1.0
627,17064,-100,728,-1.00,-1.0
629,17040,-72,664,-1.00,-1.0
631,17012,-72,608,-1.00,-1.0
633,16976,-92,696,-1.00,-1.0
635,17004,-16,660,-1.00,-1.0
637,17008,12,676,-1.00,-1.0
641,16972,-8,632,-1.00,-1.0
643,16948,12,644,-1.00,-1.0
645,17032,-96,592,-1.00,-1.0
646,16980,0,612,-1.00,-1.0
649,16972,-60,588,-1.00,-1.0
651,16896,-32,636,-1.00,-1.0
652,17000,-52,688,-1.00,-1.0
654,17080,-64,684,-1.00,-1.0
656,17104,-52,652,-1.00,-1.0
658,16972,-56,516,-1.00,-1.0
660,16972,-104,716,-1.00,-1.0
662,17028,-20,600,-1.00,-1.0
664,16988,-28,668,-1.00,-1.0
666,17076,-24,660,-1.00,-1.0
668,17024,-8,612,-1.00,-1.0
670,16948,28,576,-1.00,-1.0
672,16932,20,632,-1.00,-1.0
674,16980,-48,696,-1.00,-1.0
678,17080,-16,572,-1.00,-1.0
680,17004,16,692,-1.00,-1.0
682,17040,-88,452,-1.00,-1.0
684,17004,-96,684,-1.00,-1.0
686,17028,60,644,-1.00,-1.0
688,16996,-40,644,-1.00,-1.0
690,17028,-52,588,-1.00,-1.0
691,17048,20,616,-1.00,-1.0
693,16964,-68,568,-1.00,-1.0
695,17048,-88,548,-1.00,-1.0
697,16932,-84,592,-1.00,-1.0
699,17036,-56,688,-1.00,-1.0
701,17004,-36,596,-1.00,-1.0
703,17048,-84,560,-1.00,-1.0
705,16992,-148,660,-1.00,-1.0
707,17076,-136,476,-1.00,-1.0
709,16992,-72,540,-1.00,-1.0
713,16872,-52,528,-1.00,-1.0
715,16936,-16,556,-1.00,-1.0
717,16896,-104,592,-1.00,-1.0
719,17008,-8,492,-1.00,-1.0
721,16940,-44,584,-1.00,-1.0
723,16992,-48,716,-1.00,-1.0
725,16976,-16,544,-1.00,-1.0
727,16972,-8,620,-1.00,-1.0
729,17024,-60,552,-1.00,-1.0
731,16996,-112,488,-1.00,-1.0
733,16976,-28,568,-1.00,-1.0
734,16920,-124,504,-1.00,-1.0
736,16984,-104,680,-1.00,-1.0
738,17032,-92,492,-1.00,-1.0
740,17000,-52,644,-1.00,-1.0
742,16944,-52,676,-1.00,-1.0
744,17096,-76,636,-1.00,-1.0
746,16860,-20,504,-1.00,-1.0
750,16908,-36,704,-1.00,-1.0
752,16992,-60,796,-1.00,-1.0
754,17140,-16,656,-1.00,-1.0
756,17016,-72,572,-1.00,-1.0
758,17000,-104,492,-1.00,-1.0
760,16880,-76,612,-1.00,-1.0
762,17096,-80,600,-1.00,-1.0
764,17080,-24,728,-1.00,-1.0
766,16940,-40,452,-1.00,-1.0
768,16968,-76,632,-1.00,-1.0
770,17012,-108,672,-1.00,-1.0
772,17016,-80,524,-1.00,-1.0
774,17092,-16,624,-1.00,-1.0
776,17016,-88,524,-1.00,-1.0
778,17008,24,512,-1.00,-1.0
779,16984,-68,512,-1.00,-1.0
781,16904,-100,592,-1.00,-1.0
786,16948,-4,712,-1.00,-1.0
788,16928,-80,628,-1.00,-1.0
789,17000,-84,660,-1.00,-1.0
791,17008,-12,660,-1.00,-1.0
793,17084,-80,472,-1.00,-1.0
795,16984,0,636,-1.00,-1.0
797,16964,-28,616,-1.00,-1.0
799,17084,-12,548,-1.00,-1.0
801,17072,-104,564,-1.00,-1.0
803,17092,-40,568,-1.00,-1.0
805,17048,-48,500,-1.00,-1.0
807,17052,-4,540,-1.00,-1.0
809,16876,-76,764,-1.00,-1.0
811,17040,4,628,-1.00,-1.0
813,16900,12,764,-1.00,-1.0
815,16976,-4,584,-1.00,-1.0
817,16968,-36,468,-1.00,-1.0
818,17072,-188,588,-1.00,-1.0
823,17008,-4,608,-1.00,-1.0
825,17028,4,684,-1.00,-1.0
827,17028,-72,528,-1.00,-1.0
828,17036,32,616,-1.00,-1.0
830,16976,-4,588,-1.00,-1.0
832,16964,-48,668,-1.00,-1.0
834,16968,-40,644,-1.00,-1.0
836,16972,-108,628,-1.00,-1.0
838,16952,-100,628,-1.00,-1.0
840,16860,-104,540,-1.00,-1.0
842,17068,-76,768,-1.00,-1.0
844,16984,-128,444,-1.00,-1.0
846,17032,-52,548,-1.00,-1.0
848,17024,-128,592,-1.00,-1.0
850,17004,-60,628,-1.00,-1.0
852,17048,-104,644,-1.00,-1.0
854,16884,28,576,-1.00,-1.0
856,16948,-28,600,-1.00,-1.0
860,16996,-68,780,-1.00,-1.0
862,16908,-48,480,-1.00,-1.0
864,16996,-28,712,-1.00,-1.0
866,17012,-28,608,-1.00,-1.0
868,17004,24,648,-1.00,-1.0
870,17052,-60,656,-1.00,-1.0
872,16984,-104,544,-1.00,-1.0
873,16928,-36,684,-1.00,-1.0
875,16964,-32,572,-1.00,-1.0
877,17008,-20,484,-1.00,-1.0
879,16944,-132,724,-1.00,-1.0
881,17000,-48,768,-1.00,-1.0
883,17044,0,836,-1.00,-1.0
885,16864,-48,476,-1.00,-1.0
887,17040,-52,508,-1.00,-1.0
889,17060,16,616,-1.00,-1.0
891,16996,-28,620,-1.00,-1.0
893,16980,24,636,-1.00,-1.0
897,16964,12,576,-1.00,-1.0
899,16908,-44,576,-1.00,-1.0
901,16996,-32,744,-1.00,-1.0
903,17024,-28,596,-1.00,-1.0
905,16900,-52,436,-1.00,-1.0
907,16964,-60,656,-1.00,-1.0
909,16972,-12,632,-1.00,-1.0
910,17012,-8,648,-1.00,-1.0
912,17028,-40,576,-1.00,-1.0
914,16996,-16,504,-1.00,-1.0
916,16904,-20,632,-1.00,-1.0
918,17028,-8,592,-1.00,-1.0
920,17112,-68,604,-1.00,-1.0
922,16896,-68,684,-1.00,-1.0
924,17044,-68,696,-1.00,-1.0
926,17048,-104,836,-1.00,-1.0
928,16968,-16,656,-1.00,-1.0
932,17052,-112,640,-1.00,-1.0
934,16972,-76,652,-1.00,-1.0
936,17008,-56,728,-1.00,-1.0
938,16972,28,692,-1.00,-1.0
940,17012,44,668,-1.00,-1.0
942,17016,-100,572,-1.00,-1.0
944,17032,-96,532,-1.00,-1.0
946,16964,32,584,-1.00,-1.0
947,16952,-20,528,-1.00,-1.0
949,16964,-60,540,-1.00,-1.0
951,16964,-32,568,-1.00,-1.0
953,17028,-48,536,-1.00,-1.0
955,17040,-36,696,-1.00,-1.0
957,17044,-124,768,-1.00,-1.0
959,17044,20,464,-1.00,-1.0
961,16988,-108,540,-1.00,-1.0
963,16984,-56,600,-1.00,-1.0
965,17020,-52,852,-1.00,-1.0
969,17020,-68,600,-1.00,-1.0
971,17052,-132,564,-1.00,-1.0
973,16964,-64,572,-1.00,-1.0
975,17052,-76,728,-1.00,-1.0
977,17056,-56,592,-1.00,-1.0
979,16912,-28,616,-1.00,-1.0
981,17016,-40,540,-1.00,-1.0
983,17008,-52,496,-1.00,-1.0
985,16992,20,600,-1.00,-1.0
987,17044,40,620,-1.00,-1.0
989,16956,-116,652,-1.00,-1.0
991,16964,-16,676,-1.00,-1.0
992,16964,-80,620,-1.00,-1.0
994,17000,24,612,-1.00,-1.0
996,17008,-36,640,-1.00,-1.0
998,16928,-88,552,-1.00,-1.0
1000,17056,16,668,-1.00,-1.0
1002,16964,-4,616,-1.00,-1.0
1006,16988,4,656,-1.00,-1.0
1008,16984,-128,620,-1.00,-1.0
1010,16948,-36,696,-1.00,-1.0
1012,16952,-92,632,-1.00,-1.0
1014,16992,-68,720,-1.00,-1.0
1016,17052,-100,608,-1.00,-1.0
1018,17048,-84,496,-1.00,-1.0
1020,17052,56,676,-1.00,-1.0
1022,16980,0,544,-1.00,-1.0
1024,17076,8,572,-1.00,-1.0
1026,16980,24,424,-1.00,-1.0
1028,17084,-48,632,-1.00,-1.0
1030,17044,-88,744,-1.00,-1.0
1032,16984,0,652,-1.00,-1.0
1034,16988,-12,556,-1.00,-1.0
1035,16988,-92,536,-1.00,-1.0
1037,16948,-44,564,-1.00,-1.0
1042,16956,12,612,-1.00,-1.0
1044,17008,8,688,-1.00,-1.0
1045,16980,0,668,-1.00,-1.0
1047,16984,-56,716,-1.00,-1.0
1049,17080,-36,568,-1.00,-1.0
1051,17052,-28,592,-1.00,-1.0
1053,16964,28,644,-1.00,-1.0
1055,16984,-140,712,-1.00,-1.0
1057,16968,12,660,-1.00,-1.0
1059,16924,-36,528,-1.00,-1.0
1061,17028,-160,636,-1.00,-1.0
1063,17052,-80,668,-1.00,-1.0
1065,17008,0,548,-1.00,-1.0
1067,16984,-128,660,-1.00,-1.0
1069,16984,40,592,-1.00,-1.0
1071,16912,-112,552,-1.00,-1.0
1073,16956,-48,512,-1.00,-1.0
1077,17028,-68,572,-1.00,-1.0
1079,16880,4,644,-1.00,-1.0
1081,17032,-40,524,-1.00,-1.0
1083,17076,-92,620,-1.00,-1.0
1085,16980,-16,680,-1.00,-1.0
1087,16988,-16,712,-1.00,-1.0
1089,16992,-52,580,-1.00,-1.0
1090,16992,-100,740,-1.00,-1.0
1092,17004,-40,568,-1.00,-1.0
1094,17044,-48,644,-1.00,-1.0
1096,17084,-28,584,-1.00,-1.0
1098,16940,20,572,-1.00,-1.0
1100,16968,0,636,-1.00,-1.0
1102,17004,-176,736,-1.00,-1.0
1104,17032,-64,580,-1.00,-1.0
1106,16988,-88,576,-1.00,-1.0
1108,16900,-12,556,-1.00,-1.0
1110,17032,-48,832,-1.00,-1.0
1114,16928,-60,548,-1.00,-1.0
1116,16908,-12,400,-1.00,-1.0
1118,17000,36,708,-1.00,-1.0
1120,17076,-36,788,-1.00,-1.0
1122,17028,-48,692,-1.00,-1.0
1124,17000,-48,616,-1.00,-1.0
1126,16936,-72,588,-1.00,-1.0
1128,17004,8,624,-1.00,-1.0
1130,17024,-148,596,-1.00,-1.0
1132,16976,16,616,-1.00,-1.0
1134,17104,-80,596,-1.00,-1.0
1135,16904,-28,648,-1.00,-1.0
1138,17016,-52,668,-1.00,-1.0
1140,16956,-4,684,-1.00,-1.0
1141,17132,-4,752,-1.00,-1.0
1143,17048,-4,800,-1.00,-1.0
1145,17020,-104,620,-1.00,-1.0
1150,16896,-188,640,-1.00,-1.0
1152,16924,-68,656,-1.00,-1.0
1153,17056,-56,436,-1.00,-1.0
1155,16980,-44,484,-1.00,-1.0
1157,16920,-36,584,-1.00,-1.0
1159,16968,-144,780,-1.00,-1.0
1161,17036,-32,520,-1.00,-1.0
1163,16940,-184,600,-1.00,-1.0
1165,17016,-44,660,-1.00,-1.0
1167,17040,-24,588,-1.00,-1.0
1169,17024,32,584,-1.00,-1.0
1171,16976,-88,568,-1.00,-1.0
1173,16952,-64,600,-1.00,-1.0
1175,17044,4,592,-1.00,-1.0
1177,17036,-48,688,-1.00,-1.0
1179,16984,-108,572,-1.00,-1.0
1181,16932,-60,664,-1.00,-1.0
1185,16992,-72,556,-1.00,-1.0
1187,16980,16,640,-1.00,-1.0
1189,16964,0,540,-1.00,-1.0
1190,16988,-88,616,-1.00,-1.0
1193,16940,16,604,-1.00,-1.0
1195,17020,-16,548,-1.00,-1.0
1196,16960,-60,504,-1.00,-1.0
1198,16964,-28,640,-1.00,-1.0
1200,17100,-32,568,-1.00,-1.0
1202,16956,-76,596,-1.00,-1.0
1204,17040,-64,676,-1.00,-1.0
1206,17008,-100,580,-1.00,-1.0
1208,17000,-116,712,-1.00,-1.0
1210,17100,-36,592,-1.00,-1.0
1212,17024,-32,680,-1.00,-1.0
1214,17004,12,636,-1.00,-1.0
1216,16908,8,640,-1.00,-1.0
1220,16992,-24,572,-1.00,-1.0
1222,17028,4,624,-1.00,-1.0
1224,17040,-24,460,-1.00,-1.0
1225,16880,-28,536,-1.00,-1.0
1228,16984,-40,664,-1.00,-1.0
1229,17096,-64,456,-1.00,-1.0
1231,16948,28,616,-1.00,-1.0
1233,16948,-68,580,-1.00,-1.0
1235,16988,-28,608,-1.00,-1.0
1237,16964,-20,548,-1.00,-1.0
1239,17016,-20,436,-1.00,-1.0
1241,17084,-44,664,-1.00,-1.0
1243,17028,0,548,-1.00,-1.0
1245,17056,-20,556,-1.00,-1.0
1247,16968,-68,512,-1.00,-1.0
1249,17008,-24,508,-1.00,-1.0
1251,16992,-28,560,-1.00,-1.0
1255,17076,-52,676,-1.00,-1.0
1257,17020,24,656,-1.00,-1.0
1259,16964,-16,588,-1.00,-1.0
1261,16976,-48,604,-1.00,-1.0
1263,16956,-60,584,-1.00,-1.0
1265,17076,12,676,-1.00,-1.0
1267,17080,-112,540,-1.00,-1.0
1269,16972,104,520,-1.00,-1.0
1270,16972,-112,560,-1.00,-1.0
1273,17068,0,592,-1.00,-1.0
1274,17084,24,536,-1.00,-1.0
1276,17052,-8,636,-1.00,-1.0
1278,16992,-68,604,-1.00,-1.0
1280,17024,-32,668,-1.00,-1.0
1282,17044,12,560,-1.00,-1.0
1284,16968,-24,588,-1.00,-1.0
1286,16992,4,600,-1.00,-1.0
1288,17068,88,668,-1.00,-1.0
1292,17016,-128,448,-1.00,-1.0
1294,16928,-20,668,-1.00,-1.0
1296,17068,20,644,-1.00,-1.0
1298,17036,-48,676,-1.00,-1.0
1300,16948,-140,520,-1.00,-1.0
1302,17016,24,556,-1.00,-1.0
1304,17036,-36,664,-1.00,-1.0
1306,16948,-80,656,-1.00,-1.0
1308,16936,-56,680,-1.00,-1.0
1310,16992,-56,616,-1.00,-1.0
1312,16944,-100,648,-1.00,-1.0
1314,16880,-68,608,-1.00,-1.0
1316,17012,-24,720,-1.00,-1.0
1318,17104,4,576,-1.00,-1.0
1319,17088,-124,744,-1.00,-1.0
1321,17104,36,596,-1.00,-1.0
1323,16928,44,604,-1.00,-1.0
1327,16972,8,616,-1.00,-1.0
1329,16952,-124,612,-1.00,-1.0
1331,17024,-52,520,-1.00,-1.0
1333,16940,-32,696,-1.00,-1.0
1335,17032,-92,580,-1.00,-1.0
1337,16960,-44,604,-1.00,-1.0
1339,16944,-36,592,-1.00,-1.0
1341,16864,-32,648,-1.00,-1.0
1343,17064,-96,664,-1.00,-1.0
1345,16904,-60,544,-1.00,-1.0
1347,16948,0,460,-1.00,-1.0
1349,17012,16,612,-1.00,-1.0
1351,17004,-16,736,-1.00,-1.0
1353,16912,-56,620,-1.00,-1.0
1355,17000,-64,520,-1.00,-1.0
1357,16968,-116,592,-1.00,-1.0
1358,17080,-108,680,-1.00,-1.0
1363,17020,-128,512,-1.00,-1.0
1365,17028,-20,548,-1.00,-1.0
1367,16972,-48,560,-1.00,-1.0
1368,16992,-112,676,-1.00,-1.0
1371,16988,4,624,-1.00,-1.0
1373,16956,-80,556,-1.00,-1.0
1374,16916,-80,592,-1.00,-1.0
1376,17004,48,744,-1.00,-1.0
1378,17004,32,500,-1.00,-1.0
1380,17028,76,600,-1.00,-1.0
1382,17024,-48,512,-1.00,-1.0
1384,16852,-28,540,-1.00,-1.0
1386,17044,-8,640,-1.00,-1.0
1388,17048,-16,628,-1.00,-1.0
1390,17036,-52,560,-1.00,-1.0
1392,17072,36,616,-1.00,-1.0
1394,16996,-64,640,-1.00,-1.0
1398,16972,-44,708,-1.00,-1.0
1400,16964,-92,644,-1.00,-1.0
1402,16948,-40,712,-1.00,-1.0
1404,16928,-148,712,-1.00,-1.0
1406,17032,-100,624,-1.00,-1.0
1408,16920,-28,672,-1.00,-1.0
1410,17024,-32,676,-1.00,-1.0
1412,17020,-56,504,-1.00,-1.0
1413,17076,72,432,-1.00,-1.0
1416,17000,28,512,-1.00,-1.0
1417,16940,-24,532,-1.00,-1.0
1419,16924,-52,704,-1.00,-1.0
1421,16940,-84,648,-1.00,-1.0
1423,17020,-32,732,-1.00,-1.0
1425,17008,0,652,-1.00,-1.0
1427,17012,-16,644,-1.00,-1.0
1429,17072,-68,600,-1.00,-1.0
1433,16988,-80,544,-1.00,-1.0
1435,16952,-100,720,-1.00,-1.0
1437,16992,16,604,-1.00,-1.0
1439,17056,-40,636,-1.00,-1.0
1441,16996,-12,600,-1.00,-1.0
1443,16912,24,572,-1.00,-1.0
1445,16984,-20,692,-1.00,-1.0
1447,17084,-88,688,-1.00,-1.0
1449,16920,-140,528,-1.00,-1.0
1451,16976,-44,584,-1.00,-1.0
1453,17044,-4,704,-1.00,-1.0
1455,17004,-88,520,-1.00,-1.0
1457,17012,-88,656,-1.00,-1.0
1459,16920,-36,608,-1.00,-1.0
1461,17020,-52,524,-1.00,-1.0
1462,16948,-60,548,-1.00,-1.0
1464,17040,-44,696,-1.00,-1.0
1468,16988,-60,528,-1.00,-1.0
1470,16996,-32,508,-1.00,-1.0
1472,17040,-28,624,-1.00,-1.0
1474,16992,-40,572,-1.00,-1.0
1476,17076,-28,636,-1.00,-1.0
1478,17056,-124,696,-1.00,-1.0
1480,17016,-148,672,-1.00,-1.0
1482,17044,-56,600,-1.00,-1.0
1484,16976,-40,580,-1.00,-1.0
1486,17120,-36,492,-1.00,-1.0
1488,17016,-4,612,-1.00,-1.0
1490,17020,-48,604,-1.00,-1.0
1492,16924,-20,572,-1.00,-1.0
1494,17008,-76,744,-1.00,-1.0
1496,16992,-16,616,-1.00,-1.0
1498,17032,68,672,-1.00,-1.0
1499,17080,12,584,-1.00,-1.0
1503,17092,72,672,-1.00,-1.0
1505,17052,-96,564,-1.00,-1.0
1507,16924,-60,624,-1.00,-1.0
1509,17044,-52,600,-1.00,-1.0
1511,17088,-24,548,-1.00,-1.0
1513,16896,-44,416,-1.00,-1.0
1515,17004,-40,484,-1.00,-1.0
1517,17096,8,600,-1.00,-1.0
1519,17056,-88,504,-1.00,-1.0
1521,16988,-32,532,-1.00,-1.0
1523,16996,-20,708,-1.00,-1.0
1525,17040,36,568,-1.00,-1.0
1527,16976,-84,616,-1.00,-1.0
1529,16996,-192,596,-1.00,-1.0
1531,17060,-84,640,-1.00,-1.0
1533,16992,-44,624,-1.00,-1.0
1534,16880,-16,500,-1.00,-1.0
1536,17024,-196,728,-1.00,-1.0
1541,16900,-4,640,-1.00,-1.0
1543,17008,-56,668,-1.00,-1.0
1544,16944,12,800,-1.00,-1.0
1546,16936,-64,732,-1.00,-1.0
1548,17140,-124,604,-1.00,-1.0
1550,16932,-48,500,-1.00,-1.0
1552,17008,-44,600,-1.00,-1.0
1554,17032,-56,608,-1.00,-1.0
1556,17008,-48,684,-1.00,-1.0
1558,17072,-88,524,-1.00,-1.0
1560,17124,24,676,-1.00,-1.0
1562,16908,-16,640,-1.00,-1.0
1564,16920,-32,612,-1.00,-1.0
1566,17068,-84,724,-1.00,-1.0
1568,16964,-20,700,-1.00,-1.0
1570,17000,-64,568,-1.00,-1.0
1572,17068,-72,512,-1.00,-1.0
1576,17104,-128,692,-1.00,-1.0
1578,16984,-8,588,-1.00,-1.0
1580,17016,-28,620,-1.00,-1.0
1582,17048,-36,684,-1.00,-1.0
1584,17048,52,504,-1.00,-1.0
1586,16976,-68,608,-1.00,-1.0
1588,17020,-60,572,-1.00,-1.0
1589,16948,-76,604,-1.00,-1.0
1591,17128,-36,660,-1.00,-1.0
1593,17012,-36,480,-1.00,-1.0
1595,16908,-124,732,-1.00,-1.0
1597,16992,-56,660,-1.00,-1.0
1599,16992,-92,740,-1.00,-1.0
1601,17040,44,720,-1.00,-1.0
1603,17016,16,644,-1.00,-1.0
1605,16948,-40,664,-1.00,-1.0
1607,16980,-56,764,-1.00,-1.0
1611,16920,72,676,-1.00,-1.0
1613,16940,-128,532,-1.00,-1.0
1615,17048,20,740,-1.00,-1.0
1617,16964,-16,640,-1.00,-1.0
1619,16936,-36,524,-1.00,-1.0
1621,16972,-116,704,-1.00,-1.0
1623,17028,-28,544,-1.00,-1.0
1625,16848,-8,584,-1.00,-1.0
1627,17000,-116,600,-1.00,-1.0
1629,16892,44,544,-1.00,-1.0
1631,16948,36,564,-1.00,-1.0
1633,16988,56,528,-1.00,-1.0
1634,17028,-112,644,-1.00,-1.0
1636,17080,-44,672,-1.00,-1.0
1638,16964,-132,640,-1.00,-1.0
1640,17040,24,652,-1.00,-1.0
1642,17088,-40,568,-1.00,-1.0
1646,16960,-52,628,-1.00,-1.0
1648,17008,-68,600,-1.00,-1.0
1650,17036,12,440,-1.00,-1.0
1652,16976,-56,720,-1.00,-1.0
1654,17028,-8,516,-1.00,-1.0
1656,17056,-112,372,-1.00,-1.0
1658,16916,-132,740,-1.00,-1.0
1660,17004,24,572,-1.00,-1.0
1662,17028,-20,548,-1.00,-1.0
1664,17028,-172,744,-1.00,-1.0
1666,16868,-4,728,-1.00,-1.0
1668,17060,-4,580,-1.00,-1.0
1670,16992,16,632,-1.00,-1.0
1672,16960,-72,604,-1.00,-1.0
1674,16956,4,728,-1.00,-1.0
1676,17004,68,584,-1.00,-1.0
1677,16976,-100,616,-1.00,-1.0
1682,16976,-120,636,-1.00,-1.0
1684,16944,-120,556,-1.00,-1.0
1686,16964,-84,616,-1.00,-1.0
1688,17036,-28,704,-1.00,-1.0
1690,16984,-20,756,-1.00,-1.0
1692,16900,-76,592,-1.00,-1.0
1693,16960,-44,536,-1.00,-1.0
1695,16972,116,412,-1.00,-1.0
1697,17040,-156,508,-1.00,-1.0
1699,17040,84,560,-1.00,-1.0
1701,17008,-52,648,-1.00,-1.0
1703,17016,-104,620,-1.00,-1.0
1705,16928,-100,424,-1.00,-1.0
1707,16912,8,664,-1.00,-1.0
1709,17024,-12,668,-1.00,-1.0
1711,17052,-56,492,-1.00,-1.0
1713,16876,-96,668,-1.00,-1.0
1717,17040,-88,496,-1.00,-1.0
1719,16988,-16,560,-1.00,-1.0
1721,17048,-80,600,-1.00,-1.0
1723,16976,-56,660,-1.00,-1.0
1725,16944,4,720,-1.00,-1.0
1727,17080,4,536,-1.00,-1.0
1729,17056,-64,556,-1.00,-1.0
1731,17052,-88,504,-1.00,-1.0
1733,17020,0,528,-1.00,-1.0
1735,17036,-40,668,-1.00,-1.0
1737,16988,-120,624,-1.00,-1.0
1739,16972,-104,524,-1.00,-1.0
1741,16984,36,684,-1.00,-1.0
1743,16996,44,768,-1.00,-1.0
1745,16968,-28,592,-1.00,-1.0
1746,16972,-60,540,-1.00,-1.0
1748,16964,80,632,-1.00,-1.0
1750,16992,-64,688,-1.00,-1.0
1754,16868,-72,620,-1.00,-1.0
1756,17056,-40,616,-1.00,-1.0
1758,16912,-64,648,-1.00,-1.0
1760,16980,-100,604,-1.00,-1.0
1762,17024,-20,572,-1.00,-1.0
1764,16852,-88,544,-1.00,-1.0
1766,17032,24,724,-1.00,-1.0
1768,17012,-12,600,-1.00,-1.0
1770,17016,-132,568,-1.00,-1.0
1772,16964,-148,616,-1.00,-1.0
1774,17036,-76,608,-1.00,-1.0
1776,16956,-80,656,-1.00,-1.0
1778,16936,-28,644,-1.00,-1.0
1780,17072,20,600,-1.00,-1.0
1782,16968,-60,572,-1.00,-1.0
1783,16908,-48,712,-1.00,-1.0
1785,16984,-32,664,-1.00,-1.0
1789,17072,-96,572,-1.00,-1.0
1791,17056,8,668,-1.00,-1.0
1793,16976,-124,652,-1.00,-1.0
1795,16988,60,672,-1.00,-1.0
1797,16904,16,740,-1.00,-1.0
1799,16940,0,656,-1.00,-1.0
1801,17056,-32,584,-1.00,-1.0
1803,16924,36,592,-1.00,-1.0
1805,16988,-12,600,-1.00,-1.0
1807,16972,-16,648,-1.00,-1.0
1809,16996,4,708,-1.00,-1.0
1811,17060,20,632,-1.00,-1.0
1813,17020,-48,696,-1.00,-1.0
1815,17092,-20,576,-1.00,-1.0
1817,16976,-76,600,-1.00,-1.0
1818,17048,32,640,-1.00,-1.0
1820,17032,-68,536,-1.00,-1.0
1825,16952,36,508,-1.00,-1.0
1827,16956,-144,548,-1.00,-1.0
1828,16996,-44,648,-1.00,-1.0
1830,17028,-148,608,-1.00,-1.0
1832,17000,-68,540,-1.00,-1.0
1834,16988,-80,616,-1.00,-1.0
1836,16932,0,700,-1.00,-1.0
1838,17032,-48,720,-1.00,-1.0
1840,17004,-48,504,-1.00,-1.0
1842,17008,-32,708,-1.00,-1.0
1844,16960,-96,664,-1.00,-1.0
1846,17008,88,708,-1.00,-1.0
1848,16928,-68,596,-1.00,-1.0
1850,17060,-20,544,-1.00,-1.0
1852,17044,-56,660,-1.00,-1.0
1854,16876,-28,532,-1.00,-1.0
1856,17096,-24,712,-1.00,-1.0
1860,16968,-92,592,-1.00,-1.0
1862,17028,-108,728,-1.00,-1.0
1864,17068,-60,644,-1.00,-1.0
1866,17072,-44,520,-1.00,-1.0
1868,17088,-52,556,-1.00,-1.0
1870,17004,16,608,-1.00,-1.0
1872,17048,36,704,-1.00,-1.0
1873,17020,-44,628,-1.00,-1.0
1875,16972,-56,560,-1.00,-1.0
1877,17028,-24,564,-1.00,-1.0
1879,16940,-88,572,-1.00,-1.0
1881,17000,0,744,-1.00,-1.0
1883,17000,-40,624,-1.00,-1.0
1885,16988,-96,580,-1.00,-1.0
1887,16980,-24,488,-1.00,-1.0
1889,17060,-148,632,-1.00,-1.0
1891,16948,-4,588,-1.00,-1.0
1895,17120,-8,588,-1.00,-1.0
1897,17096,-36,704,-1.00,-1.0
1899,16980,-56,596,-1.00,-1.0
1901,16904,-52,664,-1.00,-1.0
1903,17020,-52,748,-1.00,-1.0
1905,16980,16,584,-1.00,-1.0
1907,16944,-64,644,-1.00,-1.0
1909,16932,-8,644,-1.00,-1.0
1911,16996,-76,604,-1.00,-1.0
1913,16980,-40,632,-1.00,-1.0
1915,16988,-88,632,-1.00,-1.0
1917,16900,-152,472,-1.00,-1.0
1918,16896,-104,672,-1.00,-1.0
1920,16972,-128,676,-1.00,-1.0
1922,16972,-56,608,-1.00,-1.0
1924,16988,-76,708,-1.00,-1.0
1926,17024,36,672,-1.00,-1.0
1930,17008,-4,640,-1.00,-1.0
1932,16952,-28,620,-1.00,-1.0
1934,17084,-84,584,-1.00,-1.0
1936,17020,-16,488,-1.00,-1.0
1938,16992,-52,672,-1.00,-1.0
1940,17028,-4,612,-1.00,-1.0
1942,17104,-132,632,-1.00,-1.0
1944,17012,-116,580,-1.00,-1.0
1946,16964,-28,532,-1.00,-1.0
1948,17020,-44,588,-1.00,-1.0
1950,16988,-20,384,-1.00,-1.0
1952,16936,-48,548,-1.00,-1.0
1954,16900,28,560,-1.00,-1.0
1956,16976,-16,772,-1.00,-1.0
1958,16996,-52,616,-1.00,-1.0
1960,16976,-56,716,-1.00,-1.0
1961,17048,-44,592,-1.00,-1.0
1966,17076,-76,652,-1.00,-1.0
1968,17036,-52,796,-1.00,-1.0
1970,17080,-100,600,-1.00,-1.0
1971,17060,-144,592,-1.00,-1.0
1973,17036,4,488,-1.00,-1.0
1975,17036,60,524,-1.00,-1.0
1977,17060,56,516,-1.00,-1.0
1979,17016,4,568,-1.00,-1.0
1981,16964,-28,648,-1.00,-1.0
1983,16964,-48,672,-1.00,-1.0
1985,16940,-100,684,-1.00,-1.0
1987,16884,24,700,-1.00,-1.0
1989,16928,-64,560,-1.00,-1.0
1991,16924,-88,744,-1.00,-1.0
1993,16968,-8,656,-1.00,-1.0
1995,16992,-80,608,-1.00,-1.0
1997,17064,-24,640,-1.00,-1.0
1999,16972,-16,692,-1.00,-1.0
2003,16972,-56,548,-1.00,-1.0
2005,17052,52,624,-1.00,-1.0
2007,17008,-40,604,-1.00,-1.0
2009,16944,-76,632,-1.00,-1.0
2011,17008,104,600,-1.00,-1.0
2013,16936,8,600,-1.00,-1.0
2015,16944,-128,608,-1.00,-1.0
2016,17016,-84,716,-1.00,-1.0
2019,16888,-100,536,-1.00,-1.0
2020,17044,-16,524,-1.00,-1.0
2022,16964,8,524,-1.00,-1.0
2024,17096,-100,536,-1.00,-1.0
2026,17164,-16,584,-1.00,-1.0
2028,16896,-100,644,-1.00,-1.0
2030,17024,-60,544,-1.00,-1.0
2032,16892,-80,620,-1.00,-1.0
2034,16952,-128,536,-1.00,-1.0
2038,16996,-60,600,-1.00,-1.0
2040,17028,-84,736,-1.00,-1.0
2042,16984,-88,684,-1.00,-1.0
2044,16992,-24,628,-1.00,-1.0
2046,17040,4,672,-1.00,-1.0
2048,16960,16,764,-1.00,-1.0
2050,17092,4,656,-1.00,-1.0
2052,17016,24,560,-1.00,-1.0
2053,16992,-20,608,-1.00,-1.0
2056,16956,12,556,-1.00,-1.0
2058,17036,-4,648,-1.00,-1.0
2059,16952,-80,580,-1.00,-1.0
2061,16972,-72,636,-1.00,-1.0
2063,17016,-64,700,-1.00,-1.0
2065,16960,-40,608,-1.00,-1.0
2067,16880,-100,836,-1.00,-1.0
2069,16904,-96,704,-1.00,-1.0
2073,17004,-48,568,-1.00,-1.0
2075,17028,-28,620,-1.00,-1.0
2077,17016,-92,544,-1.00,-1.0
2079,16956,-72,576,-1.00,-1.0
2081,17008,-20,624,-1.00,-1.0
2083,17008,-80,604,-1.00,-1.0
2085,17012,-8,568,-1.00,-1.0
2087,17008,-4,776,-1.00,-1.0
2088,16976,-92,724,-1.00,-1.0
2091,16992,80,608,-1.00,-1.0
2093,16972,-80,708,-1.00,-1.0
2094,16964,-108,584,-1.00,-1.0
2096,17068,28,564,-1.00,-1.0
2098,16972,32,620,-1.00,-1.0
2100,17008,28,704,-1.00,-1.0
2102,16924,-40,596,-1.00,-1.0
2104,17036,-96,568,-1.00,-1.0
2108,17032,-48,572,-1.00,-1.0
2110,16944,0,556,-1.00,-1.0
2112,16964,8,608,-1.00,-1.0
2114,16968,0,620,-1.00,-1.0
2116,17016,-28,548,-1.00,-1.0
2118,17088,-88,644,-1.00,-1.0
2120,16908,56,672,-1.00,-1.0
2122,16948,-64,512,-1.00,-1.0
2124,17108,-28,552,-1.00,-1.0
2126,16984,28,720,-1.00,-1.0
2128,16936,0,700,-1.00,-1.0
2130,17024,-68,572,-1.00,-1.0
2132,17036,4,536,-1.00,-1.0
2134,16992,32,680,-1.00,-1.0
2136,17000,-28,644,-1.00,-1.0
2138,17052,16,564,-1.00,-1.0
2139,17004,-96,516,-1.00,-1.0
2141,16952,12,764,-1.00,-1.0
2146,16952,-60,504,-1.00,-1.0
2148,17004,0,584,-1.00,-1.0
2149,16984,16,652,-1.00,-1.0
2151,16980,-88,636,-1.00,-1.0
2153,16984,0,640,-1.00,-1.0
2155,16964,-32,640,-1.00,-1.0
2157,17028,-48,676,-1.00,-1.0
2159,17048,-60,764,-1.00,-1.0
2161,17072,-20,640,-1.00,-1.0
2163,17016,-8,596,-1.00,-1.0
2165,17060,-52,576,-1.00,-1.0
2167,17000,12,616,-1.00,-1.0
2169,17012,-104,568,-1.00,-1.0
2171,16996,-120,612,-1.00,-1.0
2173,16912,-112,616,-1.00,-1.0
2175,17044,36,632,-1.00,-1.0
2177,17048,-36,612,-1.00,-1.0
2181,17160,12,612,-1.00,-1.0
2183,17024,-24,784,-1.00,-1.0
2185,16944,-128,452,-1.00,-1.0
2187,17012,-36,700,-1.00,-1.0
2189,17012,-60,524,-1.00,-1.0
2191,17000,-80,460,-1.00,-1.0
2193,17060,-60,536,-1.00,-1.0
2194,17016,56,572,-1.00,-1.0
2196,16932,-56,544,-1.00,-1.0
2198,17012,-76,596,-1.00,-1.0
2200,17016,-84,620,-1.00,-1.0
2202,17040,-92,632,-1.00,-1.0
2204,17036,184,568,-1.00,-1.0
2206,16960,-12,528,-1.00,-1.0
2208,16964,-28,544,-1.00,-1.0
2210,17020,-56,624,-1.00,-1.0
2212,16944,-12,668,-1.00,-1.0
2216,17008,-40,656,-1.00,-1.0
2218,16960,-116,788,-1.00,-1.0
2220,16992,-108,728,-1.00,-1.0
2222,17072,-72,548,-1.00,-1.0
2224,17092,-44,764,-1.00,-1.0
2226,17044,-36,600,-1.00,-1.0
2228,16968,-168,560,-1.00,-1.0
2230,17032,-48,640,-1.00,-1.0
2232,17000,-12,628,-1.00,-1.0
2234,16964,-52,528,-1.00,-1.0
2236,17008,12,464,-1.00,-1.0
2238,17072,-96,616,-1.00,-1.0
2239,16996,-52,600,-1.00,-1.0
2242,17112,0,560,-1.00,-1.0
2243,17088,-180,580,-1.00,-1.0
2245,16944,-84,680,-1.00,-1.0
2247,16988,-20,820,-1.00,-1.0
2252,16964,-28,640,-1.00,-1.0
2254,16980,-12,512,-1.00,-1.0
2255,16956,-12,664,-1.00,-1.0
2257,16988,36,680,-1.00,-1.0
2259,17036,-80,588,-1.00,-1.0
2261,16932,-124,728,-1.00,-1.0
2263,16940,-52,416,-1.00,-1.0
2265,16980,-8,468,-1.00,-1.0
2267,16936,24,552,-1.00,-1.0
2269,16904,-28,656,-1.00,-1.0
2271,17000,32,496,-1.00,-1.0
2273,16952,-36,652,-1.00,-1.0
2275,16964,8,528,-1.00,-1.0
2277,16932,-12,652,-1.00,-1.0
2279,16984,0,684,-1.00,-1.0
2281,16960,-156,732,-1.00,-1.0
2283,16976,-76,576,-1.00,-1.0
2284,17044,-124,484,-1.00,-1.0
2289,16928,92,660,-1.00,-1.0
2291,16960,-20,800,-1.00,-1.0
2293,16964,68,664,-1.00,-1.0
2295,17060,48,640,-1.00,-1.0
2297,17048,12,464,-1.00,-1.0
2299,17032,-12,592,-1.00,-1.0
2301,16960,-44,532,-1.00,-1.0
2302,17036,-72,756,-1.00,-1.0
2305,17032,-12,520,-1.00,-1.0
2306,17048,-96,712,-1.00,-1.0
2308,16912,-132,692,-1.00,-1.0
2310,16976,-32,640,-1.00,-1.0
2312,16952,-88,628,-1.00,-1.0
2314,17072,-40,468,-1.00,-1.0
2316,17024,-20,736,-1.00,-1.0
2318,17036,-16,636,-1.00,-1.0
2320,17068,12,544,-1.00,-1.0
2335,16964,-136,668,-1.00,-1.0
2337,17008,-20,584,-1.00,-1.0
2339,17048,-52,428,-1.00,-1.0
2341,17072,-32,716,-1.00,-1.0
2343,17032,-60,696,-1.00,-1.0
2345,17040,24,524,-1.00,-1.0
2347,16940,32,604,-1.00,-1.0
2349,16988,44,708,-1.00,-1.0
2351,16904,-116,516,-1.00,-1.0
2353,16984,-88,616,-1.00,-1.0
2355,16968,-72,620,-1.00,-1.0
2356,16928,36,672,-1.00,-1.0
2358,16992,-52,664,-1.00,-1.0
2360,16956,-8,636,-1.00,-1.0
2362,16992,-28,672,-1.00,-1.0
2364,17060,-88,720,-1.00,-1.0
2366,17036,32,708,-1.00,-1.0
2370,16936,-8,740,-1.00,-1.0
2372,16968,-96,608,-1.00,-1.0
2374,17072,80,716,-1.00,-1.0
2376,17048,-36,624,-1.00,-1.0
2378,16984,-24,548,-1.00,-1.0
2380,17036,-56,660,-1.00,-1.0
2382,16980,-108,592,-1.00,-1.0
2384,17040,-108,756,-1.00,-1.0
2386,16956,-8,620,-1.00,-1.0
2388,17016,-24,748,-1.00,-1.0
2390,17060,-100,596,-1.00,-1.0
2392,16972,-8,696,-1.00,-1.0
2393,16988,-96,668,-1.00,-1.0
2395,16992,-20,636,-1.00,-1.0
2397,16952,-84,492,-1.00,-1.0
2399,17016,8,592,-1.00,-1.0
2401,16920,12,512,-1.00,-1.0
2405,17012,-12,776,-1.00,-1.0
2407,17028,-24,596,-1.00,-1.0
2409,16956,4,628,-1.00,-1.0
2411,16896,-4,544,-1.00,-1.0
2413,16960,-96,728,-1.00,-1.0
2415,16976,32,604,-1.00,-1.0
2417,16988,-24,760,-1.00,-1.0
2419,16992,-128,568,-1.00,-1.0
2421,17052,-80,504,-1.00,-1.0
2423,17000,-156,676,-1.00,-1.0
2425,16976,-24,704,-1.00,-1.0
2427,16952,-64,640,-1.00,-1.0
2429,16992,-4,616,-1.00,-1.0
2431,16996,-60,560,-1.00,-1.0
2433,16992,-32,516,-1.00,-1.0
2435,16944,-28,588,-1.00,-1.0
2437,16940,-64,668,-1.00,-1.0
2441,16992,-20,612,-1.00,-1.0
2443,17072,-76,580,-1.00,-1.0
2445,16920,48,504,-1.00,-1.0
2447,17112,-12,712,-1.00,-1.0
2448,16976,-12,676,-1.00,-1.0
2451,17000,16,564,-1.00,-1.0
2452,16968,-48,608,-1.00,-1.0
2454,17020,-168,496,-1.00,-1.0
2456,17004,-84,700,-1.00,-1.0
2458,16936,-64,628,-1.00,-1.0
2460,17000,-52,724,-1.00,-1.0
2462,16964,-80,488,-1.00,-1.0
2464,17016,-32,596,-1.00,-1.0
2466,16956,-40,660,-1.00,-1.0
2468,16992,-100,692,-1.00,-1.0
2470,17000,-8,592,-1.00,-1.0
2472,17116,-44,536,-1.00,-1.0
2476,16976,-28,696,-1.00,-1.0
2478,17104,4,636,-1.00,-1.0
2480,16968,80,652,-1.00,-1.0
2482,17008,-4,712,-1.00,-1.0
2484,17036,-104,584,-1.00,-1.0
2486,16980,-64,576,-1.00,-1.0
2488,16972,12,520,-1.00,-1.0
2490,16888,-128,540,-1.00,-1.0
2492,16980,-80,468,-1.00,-1.0
2494,17020,-64,636,-1.00,-1.0
2496,16952,-104,624,-1.00,-1.0
2497,16956,-60,532,-1.00,-1.0
2499,16952,-60,616,-1.00,-1.0
2501,17100,-156,600,-1.00,-1.0
2503,16964,-8,516,-1.00,-1.0
2505,17032,-72,564,-1.00,-1.0
2507,16940,-56,680,-1.00,-1.0
2511,16948,24,696,-1.00,-1.0
2513,17012,40,548,-1.00,-1.0
2515,17044,-60,684,-1.00,-1.0
2517,16964,-108,540,-1.00,-1.0
2519,16968,-48,588,-1.00,-1.0
2521,17020,16,584,-1.00,-1.0
2523,17104,-140,732,-1.00,-1.0
2525,17036,52,564,-1.00,-1.0
2527,17008,-4,768,-1.00,-1.0
2529,16952,4,468,-1.00,-1.0
2531,17052,-96,540,-1.00,-1.0
2533,17052,-4,536,-1.00,-1.0
2535,16988,-84,668,-1.00,-1.0
2537,17088,-40,528,-1.00,-1.0
2539,16988,16,644,-1.00,-1.0
2541,16924,-4,620,-1.00,-1.0
2542,17000,-28,480,-1.00,-1.0
2544,16908,-56,652,-1.00,-1.0
2549,17060,-20,584,-1.00,-1.0
2551,16964,-96,676,-1.00,-1.0
2552,17004,-16,668,-1.00,-1.0
2554,16940,48,596,-1.00,-1.0
2556,17024,-48,760,-1.00,-1.0
2558,17016,-68,680,-1.00,-1.0
2560,16920,-44,592,-1.00,-1.0
2562,16952,-128,648,-1.00,-1.0
2564,16992,-184,636,-1.00,-1.0
2566,16984,-36,580,-1.00,-1.0
2568,16984,-152,612,-1.00,-1.0
2570,17080,-44,564,-1.00,-1.0
2572,17068,0,656,-1.00,-1.0
2574,17068,-176,608,-1.00,-1.0
2576,17028,-4,640,-1.00,-1.0
2578,16992,-4,644,-1.00,-1.0
2580,16948,-8,576,-1.00,-1.0
2584,16944,-104,696,-1.00,-1.0
2586,16984,-52,672,-1.00,-1.0
2588,16972,-88,468,-1.00,-1.0
2590,16980,-52,492,-1.00,-1.0
2592,16944,-60,612,-1.00,-1.0
2594,17072,-32,532,-1.00,-1.0
2596,17016,-84,500,-1.00,-1.0
2597,17056,-120,612,-1.00,-1.0
2599,17056,72,652,-1.00,-1.0
2601,16972,12,600,-1.00,-1.0
2603,16980,-56,676,-1.00,-1.0
2605,16956,-88,792,-1.00,-1.0
2607,16900,-36,664,-1.00,-1.0
2609,17004,-100,592,-1.00,-1.0
2611,17008,-68,648,-1.00,-1.0
2613,17020,-56,668,-1.00,-1.0
2615,17092,-120,732,-1.00,-1.0
2619,16960,-96,596,-1.00,-1.0
2621,16940,-100,668,-1.00,-1.0
2623,16972,-52,560,-1.00,-1.0
2625,16928,-36,624,-1.00,-1.0
2627,17000,12,516,-1.00,-1.0
2629,16964,-48,644,-1.00,-1.0
2631,16916,-108,580,-1.00,-1.0
2633,16980,-92,728,-1.00,-1.0
2635,17072,-96,628,-1.00,-1.0
2637,17012,-16,684,-1.00,-1.0
2638,17004,-40,620,-1.00,-1.0
2640,17160,20,660,-1.00,-1.0
2642,16940,-100,488,-1.00,-1.0
2644,17064,-72,644,-1.00,-1.0
2646,17028,-52,592,-1.00,-1.0
2648,16944,44,572,-1.00,-1.0
2650,16948,-52,616,-1.00,-1.0
2654,17064,4,704,-1.00,-1.0
2656,17092,12,536,-1.00,-1.0
2658,17000,-92,560,-1.00,-1.0
2660,17012,-76,728,-1.00,-1.0
2662,16940,-40,584,-1.00,-1.0
2664,16940,-104,592,-1.00,-1.0
2666,17016,0,596,-1.00,-1.0
2668,17000,-84,680,-1.00,-1.0
2669,17000,-68,700,-1.00,-1.0
2671,16992,-4,568,-1.00,-1.0
2673,17032,-68,736,-1.00,-1.0
2675,17072,-108,648,-1.00,-1.0
2677,17024,-12,540,-1.00,-1.0
2679,17032,-32,628,-1.00,-1.0
2681,16972,28,808,-1.00,-1.0
2683,16996,-60,552,-1.00,-1.0
2685,16976,-200,600,-1.00,-1.0
2689,16912,-44,608,-1.00,-1.0
2691,16952,48,608,-1.00,-1.0
2693,16980,-76,592,-1.00,-1.0
2695,17004,-56,624,-1.00,-1.0
2697,16996,32,588,-1.00,-1.0
2699,17008,-112,724,-1.00,-1.0
2701,17028,-92,696,-1.00,-1.0
2703,17072,4,704,-1.00,-1.0
2705,16888,4,480,-1.00,-1.0
2707,17020,-20,564,-1.00,-1.0
2709,16988,60,528,-1.00,-1.0
2711,16976,32,572,-1.00,-1.0
2713,16956,12,628,-1.00,-1.0
2715,16972,-100,624,-1.00,-1.0
2717,17056,-160,592,-1.00,-1.0
2718,17000,-60,696,-1.00,-1.0
2720,17100,-52,608,-1.00,-1.0
2725,17060,40,604,-1.00,-1.0
2727,17020,-120,548,-1.00,-1.0
2729,17104,-140,592,-1.00,-1.0
2731,16904,24,640,-1.00,-1.0
2732,16924,-116,552,-1.00,-1.0
2734,17044,-4,712,-1.00,-1.0
2736,17112,-16,612,-1.00,-1.0
2738,16988,-36,684,-1.00,-1.0
2740,16968,24,800,-1.00,-1.0
2742,17000,-24,524,-1.00,-1.0
2744,16972,-68,592,-1.00,-1.0
2746,16964,-52,596,-1.00,-1.0
2748,16900,-44,580,-1.00,-1.0
2750,16988,-16,780,-1.00,-1.0
2752,17008,-12,548,-1.00,-1.0
2754,16976,-4,564,-1.00,-1.0
2756,17056,-144,592,-1.00,-1.0
2758,16920,24,608,-1.00,-1.0
2762,17012,-24,616,-1.00,-1.0
2764,17036,-160,660,-1.00,-1.0
2766,17012,-12,600,-1.00,-1.0
2768,17068,-28,568,-1.00,-1.0
2770,16880,24,612,-1.00,-1.0
2772,17068,-104,552,-1.00,-1.0
2774,16964,-48,568,-1.00,-1.0
2776,17008,-156,592,-1.00,-1.0
2778,17012,-96,592,-1.00,-1.0
2780,17028,-72,552,-1.00,-1.0
2781,17000,-4,484,-1.00,-1.0
2783,16984,-40,568,-1.00,-1.0
2785,16956,16,656,-1.00,-1.0
2787,16960,-124,824,-1.00,-1.0
2789,17044,-68,620,-1.00,-1.0
2791,16924,4,664,-1.00,-1.0
2793,17032,-48,652,-1.00,-1.0
2797,16928,-28,356,-1.00,-1.0
2799,17072,68,708,-1.00,-1.0
2801,17060,-52,572,-1.00,-1.0
2803,16956,0,684,-1.00,-1.0
2805,16932,-140,620,-1.00,-1.0
2807,16976,-12,592,-1.00,-1.0
2809,17028,-28,616,-1.00,-1.0
2811,16936,-8,676,-1.00,-1.0
2813,16908,-24,448,-1.00,-1.0
2815,16944,4,816,-1.00,-1.0
2817,16980,-52,708,-1.00,-1.0
2819,16904,-156,688,-1.00,-1.0
2820,16968,-32,684,-1.00,-1.0
2823,17008,32,712,-1.00,-1.0
2824,17040,-48,520,-1.00,-1.0
2826,17084,20,660,-1.00,-1.0
2828,16952,-136,600,-1.00,-1.0
2832,16956,-4,524,-1.00,-1.0
2834,16956,0,616,-1.00,-1.0
2836,17000,24,684,-1.00,-1.0
2838,17088,-36,656,-1.00,-1.0
2840,16956,-40,572,-1.00,-1.0
2842,16948,0,684,-1.00,-1.0
2844,17004,-12,600,-1.00,-1.0
2846,16960,4,668,-1.00,-1.0
2848,17064,64,560,-1.00,-1.0
2850,16996,-36,652,-1.00,-1.0
2852,16996,-36,644,-1.00,-1.0
2854,16924,-120,732,-1.00,-1.0
2856,16896,-16,744,-1.00,-1.0
2858,16968,-32,676,-1.00,-1.0
2860,17012,-60,732,-1.00,-1.0
2862,16932,-68,536,-1.00,-1.0
2864,17008,-52,432,-1.00,-1.0
2868,17020,-76,616,-1.00,-1.0
2870,17008,-84,624,-1.00,-1.0
2872,16960,-88,580,-1.00,-1.0
2873,17092,4,592,-1.00,-1.0
2875,17036,-28,576,-1.00,-1.0
2877,16992,-40,532,-1.00,-1.0
2879,17084,-72,712,-1.00,-1.0
2881,16988,48,696,-1.00,-1.0
2883,16956,-52,644,-1.00,-1.0
2885,17040,-16,548,-1.00,-1.0
2887,16940,0,528,-1.00,-1.0
2889,17040,-44,608,-1.00,-1.0
2891,16992,72,648,-1.00,-1.0
2893,16900,68,536,-1.00,-1.0
2895,16996,-44,496,-1.00,-1.0
2897,17004,-44,660,-1.00,-1.0
2899,17008,20,656,-1.00,-1.0
2901,16988,-112,636,-1.00,-1.0
2905,17072,-8,544,-1.00,-1.0
2907,17036,-120,532,-1.00,-1.0
2909,17000,-12,652,-1.00,-1.0
2911,16996,-44,676,-1.00,-1.0
2913,17000,56,436,-1.00,-1.0
2915,17004,4,748,-1.00,-1.0
2916,17032,-80,844,-1.00,-1.0
2918,17080,-12,572,-1.00,-1.0
2920,17076,-104,584,-1.00,-1.0
2922,16956,0,712,-1.00,-1.0
2924,17008,-4,656,-1.00,-1.0
2926,16980,44,712,-1.00,-1.0
2928,17120,0,656,-1.00,-1.0
2930,17008,-44,700,-1.00,-1.0
2932,16888,-44,680,-1.00,-1.0
2934,16964,-20,696,-1.00,-1.0
2936,17008,-156,588,-1.00,-1.0
2940,17052,-124,760,-1.00,-1.0
2942,17020,-92,552,-1.00,-1.0
2944,16948,-16,596,-1.00,-1.0
2946,17032,-40,600,-1.00,-1.0
2948,16956,-76,616,-1.00,-1.0
2950,17020,-40,580,-1.00,-1.0
2951,17044,-56,696,-1.00,-1.0
2953,16876,-132,560,-1.00,-1.0
2955,16984,4,644,-1.00,-1.0
2957,16996,-32,804,-1.00,-1.0
2959,16976,-44,688,-1.00,-1.0
2961,17028,-92,732,-1.00,-1.0
2963,16956,24,672,-1.00,-1.0
2965,16952,0,624,-1.00,-1.0
2967,17060,-64,696,-1.00,-1.0
2969,17044,24,716,-1.00,-1.0
2971,16976,-128,648,-1.00,-1.0
2975,16960,8,528,-1.00,-1.0
2977,17032,-60,556,-1.00,-1.0
2979,17004,-12,676,-1.00,-1.0
2981,16960,-40,536,-1.00,-1.0
2983,17036,-72,648,-1.00,-1.0
2985,16952,32,556,-1.00,-1.0
2987,16952,-84,676,-1.00,-1.0
2989,16928,52,636,-1.00,-1.0
2991,16976,-52,696,-1.00,-1.0
2993,16920,-68,644,-1.00,-1.0
2995,16992,8,560,-1.00,-1.0
2996,16992,52,564,-1.00,-1.0
2998,16956,-28,564,-1.00,-1.0
3000,17108,-28,652,-1.00,-1.0
3002,17044,16,644,-1.00,-1.0
3004,17148,-88,636,-1.00,-1.0
3006,17044,-100,772,-1.00,-1.0
3010,17016,-120,716,-1.00,-1.0
3012,17068,-108,704,-1.00,-1.0
3014,16960,-44,556,-1.00,-1.0
3016,16972,-20,512,-1.00,-1.0
3018,16984,-32,648,-1.00,-1.0
3020,16936,-72,608,-1.00,-1.0
3022,16964,-72,780,-1.00,-1.0
3024,16992,8,632,-1.00,-1.0
3026,17012,-48,664,-1.00,-1.0
3028,17040,-72,700,-1.00,-1.0
3030,17028,-100,604,-1.00,-1.0
3032,16952,-72,480,-1.00,-1.0
3034,17028,-68,728,-1.00,-1.0
3036,16936,-96,668,-1.00,-1.0
3038,17092,-76,644,-1.00,-1.0
3040,16948,-20,452,-1.00,-1.0
3041,16956,16,652,-1.00,-1.0
3046,16976,-76,616,-1.00,-1.0
3048,17100,-72,636,-1.00,-1.0
3050,17080,40,400,-1.00,-1.0
3051,16980,-24,640,-1.00,-1.0
3053,16964,-28,488,-1.00,-1.0
3055,16976,12,512,-1.00,-1.0
3057,17028,-24,656,-1.00,-1.0
3059,16984,28,620,-1.00,-1.0
3061,17060,-112,564,-1.00,-1.0
3063,16980,-4,548,-1.00,-1.0
3065,16888,-96,716,-1.00,-1.0
3067,16976,-28,576,-1.00,-1.0
3069,17024,-52,620,-1.00,-1.0
3071,17020,-32,656,-1.00,-1.0
3073,16916,8,564,-1.00,-1.0
3075,16996,24,600,-1.00,-1.0
3077,17024,24,668,-1.00,-1.0
3079,17004,24,500,-1.00,-1.0
3083,17012,-28,672,-1.00,-1.0
3085,16968,48,764,-1.00,-1.0
3087,17008,-140,512,-1.00,-1.0
3089,17040,-60,668,-1.00,-1.0
3091,17032,0,576,-1.00,-1.0
3093,17012,-4,684,-1.00,-1.0
3095,17004,-136,648,-1.00,-1.0
3097,16972,-24,596,-1.00,-1.0
3099,17060,-132,640,-1.00,-1.0
3101,17060,-20,692,-1.00,-1.0
3102,17096,-28,668,-1.00,-1.0
3104,16976,-52,584,-1.00,-1.0
3106,16872,-16,696,-1.00,-1.0
3108,16956,-56,580,-1.00,-1.0
3110,16960,-104,620,-1.00,-1.0
3112,16984,-100,672,-1.00,-1.0
3114,16992,-68,592,-1.00,-1.0
3118,17028,-100,604,-1.00,-1.0
3120,16916,-140,696,-1.00,-1.0
3122,16984,4,612,-1.00,-1.0
3124,17040,-124,624,-1.00,-1.0
3126,17036,-76,572,-1.00,-1.0
3128,16976,-108,652,-1.00,-1.0
3130,17028,-24,652,-1.00,-1.0
3132,17012,-92,552,-1.00,-1.0
3134,16984,36,592,-1.00,-1.0
3136,17000,-32,652,-1.00,-1.0
3138,16988,20,772,-1.00,-1.0
3140,17016,-32,632,-1.00,-1.0
3142,17064,-164,584,-1.00,-1.0
3144,16996,-80,460,-1.00,-1.0
3146,17016,36,512,-1.00,-1.0
3147,17052,-80,616,-1.00,-1.0
3149,17112,-4,608,-1.00,-1.0
3154,17144,-4,588,-1.00,-1.0
3156,17040,-64,512,-1.00,-1.0
3157,17024,-76,504,-1.00,-1.0
3159,17112,-28,592,-1.00,-1.0
3161,17000,-4,624,-1.00,-1.0
3163,17100,28,556,-1.00,-1.0
3165,16996,-44,568,-1.00,-1.0
3167,17000,-96,576,-1.00,-1.0
3169,16952,-104,668,-1.00,-1.0
3171,16960,-80,544,-1.00,-1.0
3173,17012,-132,596,-1.00,-1.0
3175,16968,-156,580,-1.00,-1.0
3177,16940,-44,540,-1.00,-1.0
3179,17080,24,624,-1.00,-1.0
3181,17028,-76,504,-1.00,-1.0
3183,16980,-80,596,-1.00,-1.0
3185,17024,-40,580,-1.00,-1.0
3189,16944,-172,556,-1.00,-1.0
3191,17052,-20,728,-1.00,-1.0
3193,16972,-64,596,-1.00,-1.0
3195,16964,-36,676,-1.00,-1.0
3197,17040,-120,572,-1.00,-1.0
3199,16940,-56,612,-1.00,-1.0
3200,16992,12,664,-1.00,-1.0
3202,17064,-132,604,-1.00,-1.0
3204,16992,56,548,-1.00,-1.0
3206,16988,56,632,-1.00,-1.0
3208,17024,0,668,-1.00,-1.0
3210,17016,-80,644,-1.00,-1.0
3212,17108,-76,524,-1.00,-1.0
3214,17060,20,528,-1.00,-1.0
3216,17024,-64,544,-1.00,-1.0
3218,16984,-64,680,-1.00,-1.0
3220,17092,16,664,-1.00,-1.0
3224,16932,4,464,-1.00,-1.0
3226,16952,76,584,-1.00,-1.0
3228,17016,-32,576,-1.00,-1.0
3230,16984,-32,572,-1.00,-1.0
3231,16932,-16,528,-1.00,-1.0
3233,16980,0,660,-1.00,-1.0
3235,16904,8,432,-1.00,-1.0
3237,17016,12,628,-1.00,-1.0
3239,16900,-8,704,-1.00,-1.0
3241,16928,12,684,-1.00,-1.0
3243,17004,-68,672,-1.00,-1.0
3245,16976,-72,716,-1.00,-1.0
3247,17052,-144,636,-1.00,-1.0
3249,17024,-36,628,-1.00,-1.0
3251,16976,-8,552,-1.00,-1.0
3253,17048,-72,664,-1.00,-1.0
3255,16992,-4,744,-1.00,-1.0
3257,17056,48,596,-1.00,-1.0
3261,17008,-64,688,-1.00,-1.0
3263,16884,-84,616,-1.00,-1.0
3265,17056,-60,576,-1.00,-1.0
3267,16984,-72,500,-1.00,-1.0
3269,16968,-16,528,-1.00,-1.0
3271,16988,-20,612,-1.00,-1.0
3273,16992,-36,696,-1.00,-1.0
3275,16944,-64,576,-1.00,-1.0
3277,16948,-44,636,-1.00,-1.0
3279,16984,-40,684,-1.00,-1.0
3280,17080,-84,768,-1.00,-1.0
3282,17004,-32,740,-1.00,-1.0
3284,16980,-52,804,-1.00,-1.0
3286,16992,-4,720,-1.00,-1.0
3288,17072,-48,608,-1.00,-1.0
3290,16992,-32,708,-1.00,-1.0
3292,17088,-68,608,-1.00,-1.0
3296,17004,0,512,-1.00,-1.0
3298,17000,-52,532,-1.00,-1.0
3300,17008,-8,568,-1.00,-1.0
3302,17028,-72,628,-1.00,-1.0
3304,16996,-32,656,-1.00,-1.0
3306,16884,8,572,-1.00,-1.0
3308,17048,-40,668,-1.00,-1.0
3310,16980,-88,468,-1.00,-1.0
3312,17012,-60,644,-1.00,-1.0
3314,17000,-32,728,-1.00,-1.0
3316,16908,52,700,-1.00,-1.0
3318,16972,32,712,-1.00,-1.0
3320,16992,-52,592,-1.00,-1.0
3322,16884,-40,596,-1.00,-1.0
3324,17044,-132,708,-1.00,-1.0
3326,17088,36,580,-1.00,-1.0
3328,16980,0,568,-1.00,-1.0
3332,17104,-60,588,-1.00,-1.0
3334,16876,-76,684,-1.00,-1.0
3336,16980,-68,668,-1.00,-1.0
3338,17044,-84,552,-1.00,-1.0
3340,17020,-64,624,-1.00,-1.0
3342,16996,-48,500,-1.00,-1.0
3343,16976,-20,496,-1.00,-1.0
3345,17008,-12,600,-1.00,-1.0
3347,17076,100,676,-1.00,-1.0
3349,16996,-92,596,-1.00,-1.0
3351,17076,-88,324,-1.00,-1.0
3353,16848,24,492,-1.00,-1.0
3355,16904,-68,656,-1.00,-1.0
3357,17020,-92,644,-1.00,-1.0
3359,16956,-60,616,-1.00,-1.0
3361,16948,-88,652,-1.00,-1.0
3363,17004,-100,640,-1.00,-1.0
3367,16984,-64,744,-1.00,-1.0
3369,16964,36,592,-1.00,-1.0
3371,16960,-64,668,-1.00,-1.0
3373,16992,-64,660,-1.00,-1.0
3375,16948,-36,604,-1.00,-1.0
3377,17000,-36,692,-1.00,-1.0
3379,17028,-72,624,-1.00,-1.0
3381,17036,-60,684,-1.00,-1.0
3382,17044,88,684,-1.00,-1.0
3385,17000,-4,656,-1.00,-1.0
3387,17024,-76,660,-1.00,-1.0
3388,17096,-124,580,-1.00,-1.0
3390,17024,72,704,-1.00,-1.0
3392,16924,-48,500,-1.00,-1.0
3394,17068,44,632,-1.00,-1.0
3396,16952,-8,780,-1.00,-1.0
3398,16952,-56,716,-1.00,-1.0
3402,17048,-80,764,-1.00,-1.0
3404,17016,-20,632,-1.00,-1.0
3406,17036,-68,612,-1.00,-1.0
3408,17008,-116,644,-1.00,-1.0
3410,16996,-52,628,-1.00,-1.0
3412,16956,-44,676,-1.00,-1.0
3414,17132,8,696,-1.00,-1.0
3416,16956,-72,712,-1.00,-1.0
3418,17012,-52,880,-1.00,-1.0
3420,17012,-72,576,-1.00,-1.0
3422,17000,-64,636,-1.00,-1.0
3424,16960,-36,696,-1.00,-1.0
3426,16924,-60,696,-1.00,-1.0
3428,17000,32,664,-1.00,-1.0
3430,16948,-108,564,-1.00,-1.0
3431,16960,-20,524,-1.00,-1.0
3433,16984,-76,504,-1.00,-1.0
3435,16952,-64,576,-1.00,-1.0
3439,17028,-40,572,-1.00,-1.0
3441,17068,-136,568,-1.00,-1.0
3443,17004,12,580,-1.00,-1.0
3445,16976,-4,608,-1.00,-1.0
3447,16964,-44,632,-1.00,-1.0
3449,17012,-100,744,-1.00,-1.0
3451,17084,-16,492,-1.00,-1.0
3453,16872,-48,580,-1.00,-1.0
3455,17040,0,632,-1.00,-1.0
3457,16984,16,556,-1.00,-1.0
3459,17048,-4,524,-1.00,-1.0
3461,17028,88,624,-1.00,-1.0
3463,16864,-52,600,-1.00,-1.0
3465,17008,-40,416,-1.00,-1.0
3467,17064,-112,612,-1.00,-1.0
3469,17052,-92,656,-1.00,-1.0
3471,16948,-60,728,-1.00,-1.0
3477,16940,-68,640,-1.00,-1.0
3479,17048,-116,612,-1.00,-1.0
3481,16932,-60,728,-1.00,-1.0
3482,17088,-96,552,-1.00,-1.0
3484,16992,-88,436,-1.00,-1.0
3486,17016,40,592,-1.00,-1.0
3488,17140,-72,728,-1.00,-1.0
3490,17024,-44,624,-1.00,-1.0
3492,17012,-96,652,-1.00,-1.0
3494,16984,-124,576,-1.00,-1.0
3496,17008,24,536,-1.00,-1.0
3498,16980,-16,612,-1.00,-1.0
3500,17008,0,536,-1.00,-1.0
3502,17068,-52,632,-1.00,-1.0
3504,17016,-72,684,-1.00,-1.0
3506,16980,20,612,-1.00,-1.0
3508,16992,-20,628,-1.00,-1.0
3512,17044,-28,684,-1.00,-1.0
3514,17032,-60,600,-1.00,-1.0
3516,17076,-52,548,-1.00,-1.0
3517,17024,-60,708,-1.00,-1.0
3519,16960,32,652,-1.00,-1.0
3521,16924,-24,676,-1.00,-1.0
3523,16992,-24,636,-1.00,-1.0
3525,17044,-24,476,-1.00,-1.0
3527,16992,-132,540,-1.00,-1.0
3529,16940,-104,604,-1.00,-1.0
3531,17060,-56,684,-1.00,-1.0
3533,16980,-16,668,-1.00,-1.0
3535,16976,-44,616,-1.00,-1.0
3537,17004,-40,544,-1.00,-1.0
3539,17044,-28,720,-1.00,-1.0
3541,17028,-112,760,-1.00,-1.0
3543,16972,-116,636,-1.00,-1.0
3547,16960,-20,556,-1.00,-1.0
3549,16996,-88,536,-1.00,-1.0
3551,17028,4,600,-1.00,-1.0
3553,16932,-76,768,-1.00,-1.0
3555,17132,-40,664,-1.00,-1.0
3557,16948,0,704,-1.00,-1.0
3559,16996,-40,464,-1.00,-1.0
3560,17004,-80,728,-1.00,-1.0
3562,17040,-36,748,-1.00,-1.0
3564,16988,-52,708,-1.00,-1.0
3566,16908,8,484,-1.00,-1.0
3568,16996,-60,648,-1.00,-1.0
3570,17044,-36,624,-1.00,-1.0
3572,16948,-24,564,-1.00,-1.0
3574,16984,-80,668,-1.00,-1.0
3576,17044,-84,572,-1.00,-1.0
3578,17020,32,632,-1.00,-1.0
3582,17004,-24,600,-1.00,-1.0
3584,16904,56,396,-1.00,-1.0
3586,16972,-48,616,-1.00,-1.0
3588,17012,-12,600,-1.00,-1.0
3590,16948,32,580,-1.00,-1.0
3592,16948,-4,512,-1.00,-1.0
3594,16904,-148,548,-1.00,-1.0
3596,16964,-68,596,-1.00,-1.0
3598,17028,-40,576,-1.00,-1.0
3600,17028,-28,596,-1.00,-1.0
3602,16920,-124,680,-1.00,-1.0
3604,16988,56,752,-1.00,-1.0
3605,16968,-16,672,-1.00,-1.0
3608,16984,-16,624,-1.00,-1.0
3609,16964,16,496,-1.00,-1.0
3611,17060,52,772,-1.00,-1.0
3613,16992,-104,620,-1.00,-1.0
3617,16924,-64,704,-1.00,-1.0
3619,16964,-84,556,-1.00,-1.0
3621,17000,-40,516,-1.00,-1.0
3623,17020,-24,572,-1.00,-1.0
3625,17052,-88,676,-1.00,-1.0
3627,16960,-56,580,-1.00,-1.0
3629,16968,28,528,-1.00,-1.0
3631,16984,-60,560,-1.00,-1.0
3633,16976,-36,564,-1.00,-1.0
3635,17040,-84,680,-1.00,-1.0
3637,17028,104,632,-1.00,-1.0
3639,16944,-8,676,-1.00,-1.0
3641,17024,40,444,-1.00,-1.0
3643,16972,-44,728,-1.00,-1.0
3645,16928,16,596,-1.00,-1.0
3647,16992,-76,564,-1.00,-1.0
3648,16980,-88,616,-1.00,-1.0
3650,16984,-48,624,-1.00,-1.0
3655,16988,-52,588,-1.00,-1.0
3657,16984,-88,752,-1.00,-1.0
3659,16940,-96,540,-1.00,-1.0
3660,16964,-24,492,-1.00,-1.0
3662,17008,-88,648,-1.00,-1.0
3664,16928,-36,632,-1.00,-1.0
3666,17028,-56,596,-1.00,-1.0
3668,16984,-76,572,-1.00,-1.0
3670,17100,-88,708,-1.00,-1.0
3672,17008,-4,672,-1.00,-1.0
3674,16996,0,624,-1.00,-1.0
3676,17008,-32,616,-1.00,-1.0
3678,16976,-36,576,-1.00,-1.0
3680,16992,80,624,-1.00,-1.0
3682,16948,-32,624,-1.00,-1.0
3684,17012,12,636,-1.00,-1.0
3686,17008,-72,632,-1.00,-1.0
3690,17000,-128,516,-1.00,-1.0
3692,17044,12,580,-1.00,-1.0
3694,17012,8,600,-1.00,-1.0
3696,17040,-4,652,-1.00,-1.0
3698,17008,-24,572,-1.00,-1.0
3700,17040,-140,604,-1.00,-1.0
3702,16968,-8,604,-1.00,-1.0
3703,16996,-52,604,-1.00,-1.0
3706,16936,-44,560,-1.00,-1.0
3707,17064,-64,484,-1.00,-1.0
3709,17052,-4,752,-1.00,-1.0
3711,16936,4,632,-1.00,-1.0
3713,17124,-124,528,-1.00,-1.0
3715,17000,-52,584,-1.00,-1.0
3717,17000,-84,576,-1.00,-1.0
3719,16976,-56,772,-1.00,-1.0
3721,17000,-112,612,-1.00,-1.0
3725,17100,-80,596,-1.00,-1.0
3727,16952,40,564,-1.00,-1.0
3729,16984,116,652,-1.00,-1.0
3731,17024,-68,572,-1.00,-1.0
3733,16988,-32,608,-1.00,-1.0
3735,17076,40,520,-1.00,-1.0
3737,17024,8,596,-1.00,-1.0
3739,17052,-4,636,-1.00,-1.0
3741,16952,-136,568,-1.00,-1.0
3743,17060,20,628,-1.00,-1.0
3745,16972,-36,680,-1.00,-1.0
3747,17104,-16,600,-1.00,-1.0
3748,16976,-28,564,-1.00,-1.0
3750,16992,-28,648,-1.00,-1.0
3752,16932,32,536,-1.00,-1.0
3754,16888,24,584,-1.00,-1.0
3756,17080,-32,580,-1.00,-1.0
3760,17024,-68,520,-1.00,-1.0
3762,16956,-120,644,-1.00,-1.0
3764,16980,-12,644,-1.00,-1.0
3766,16920,-60,620,-1.00,-1.0
3768,16996,-88,512,-1.00,-1.0
3770,17016,-64,616,-1.00,-1.0
3772,17004,-96,556,-1.00,-1.0
3774,16960,24,612,-1.00,-1.0
3776,16992,-40,660,-1.00,-1.0
3778,16972,-80,576,-1.00,-1.0
3780,16924,-36,632,-1.00,-1.0
3782,17048,-40,740,-1.00,-1.0
3784,17024,-16,624,-1.00,-1.0
3786,17112,-132,624,-1.00,-1.0
3788,16984,-20,732,-1.00,-1.0
3789,16940,-100,736,-1.00,-1.0
3791,17004,-56,488,-1.00,-1.0
3795,16996,-76,628,-1.00,-1.0
3797,16900,-112,624,-1.00,-1.0
3799,16872,-104,664,-1.00,-1.0
3801,17008,0,732,-1.00,-1.0
3803,16888,-56,580,-1.00,-1.0
3805,17020,-16,536,-1.00,-1.0
3807,17032,-48,696,-1.00,-1.0
3809,17008,12,696,-1.00,-1.0
3811,16948,-100,540,-1.00,-1.0
3813,16968,92,576,-1.00,-1.0
3815,16952,-16,552,-1.00,-1.0
3817,17032,-80,616,-1.00,-1.0
3819,17116,-148,628,-1.00,-1.0
3821,17020,12,632,-1.00,-1.0
3823,16976,-128,628,-1.00,-1.0
3824,17048,-72,568,-1.00,-1.0
3826,17000,-20,580,-1.00,-1.0
3831,17080,-92,708,-1.00,-1.0
3833,17056,28,564,-1.00,-1.0
3834,17036,-12,468,-1.00,-1.0
3836,16924,-32,636,-1.00,-1.0
3838,16988,-100,616,-1.00,-1.0
3840,17036,-96,600,-1.00,-1.0
3842,17048,-32,664,-1.00,-1.0
3844,17004,-4,564,-1.00,-1.0
3846,17052,-32,676,-1.00,-1.0
3848,16900,-64,592,-1.00,-1.0
3850,16984,-28,412,-1.00,-1.0
3852,17104,12,560,-1.00,-1.0
3854,17096,16,620,-1.00,-1.0
3856,17020,-16,696,-1.00,-1.0
3858,16976,-64,720,-1.00,-1.0
3860,17036,-80,520,-1.00,-1.0
3862,17112,-36,524,-1.00,-1.0
3866,16956,-40,600,-1.00,-1.0
3868,17048,-124,628,-1.00,-1.0
3870,17008,-28,608,-1.00,-1.0
3872,16972,-56,668,-1.00,-1.0
3874,16916,-16,672,-1.00,-1.0
3876,16956,12,616,-1.00,-1.0
3878,16988,-28,628,-1.00,-1.0
3879,16976,-168,544,-1.00,-1.0
3881,17028,-100,724,-1.00,-1.0
3883,16956,-24,588,-1.00,-1.0
3885,17012,-36,608,-1.00,-1.0
3887,16992,-60,708,-1.00,-1.0
3889,16944,36,616,-1.00,-1.0
3891,17060,-20,424,-1.00,-1.0
3893,17028,-96,652,-1.00,-1.0
3895,17036,-4,532,-1.00,-1.0
3897,16984,-88,592,-1.00,-1.0
3899,17004,4,520,-1.00,-1.0
3903,16980,20,704,-1.00,-1.0
3905,17076,-4,668,-1.00,-1.0
3907,17004,36,560,-1.00,-1.0
3909,16940,4,592,-1.00,-1.0
3911,17020,-44,452,-1.00,-1.0
3913,17028,-80,616,-1.00,-1.0
3915,17028,12,680,-1.00,-1.0
3917,16964,-64,612,-1.00,-1.0
3919,17072,-84,572,-1.00,-1.0
3921,16928,12,692,-1.00,-1.0
3923,17072,-96,720,-1.00,-1.0
3925,16964,-28,556,-1.00,-1.0
3927,17008,-32,624,-1.00,-1.0
3929,16920,-20,676,-1.00,-1.0
3931,16980,-40,572,-1.00,-1.0
3932,16924,-36,508,-1.00,-1.0
3934,16944,-36,780,-1.00,-1.0
3939,16924,20,608,-1.00,-1.0
3941,17020,-24,568,-1.00,-1.0
3942,16960,-132,504,-1.00,-1.0
3944,17064,-56,576,-1.00,-1.0
3946,17020,-64,616,-1.00,-1.0
3948,16968,4,604,-1.00,-1.0
3950,16956,40,672,-1.00,-1.0
3952,16988,-28,556,-1.00,-1.0
3954,16920,-92,780,-1.00,-1.0
3956,16988,-68,808,-1.00,-1.0
3958,16976,20,708,-1.00,-1.0
3960,17024,0,668,-1.00,-1.0
3962,17012,-64,628,-1.00,-1.0
3964,17004,-48,668,-1.00,-1.0
3966,17016,-4,588,-1.00,-1.0
3968,17072,-12,524,-1.00,-1.0
3970,16968,-68,596,-1.00,-1.0
3974,16932,-44,604,-1.00,-1.0
3976,17028,-100,640,-1.00,-1.0
3978,17004,-112,564,-1.00,-1.0
3980,16996,-36,484,-1.00,-1.0
3982,16952,56,568,-1.00,-1.0
3984,17048,-56,464,-1.00,-1.0
3986,17048,-68,580,-1.00,-1.0
3987,17020,-12,528,-1.00,-1.0
3989,16992,-28,544,-1.00,-1.0
3991,17020,-20,504,-1.00,-1.0
3993,16896,60,508,-1.00,-1.0
3995,17080,-20,680,-1.00,-1.0
3997,17064,-96,700,-1.00,-1.0
3999,17044,-16,584,-1.00,-1.0
4001,16980,-72,504,-1.00,-1.0
4003,16984,60,560,-1.00,-1.0
4005,16952,-52,548,-1.00,-1.0
4009,17068,-16,644,-1.00,-1.0
4011,16912,12,532,-1.00,-1.0
4013,16944,-48,608,-1.00,-1.0
4015,17004,-96,452,-1.00,-1.0
4017,17020,-52,516,-1.00,-1.0
4019,16944,-32,664,-1.00,-1.0
4021,16968,-72,548,-1.00,-1.0
4023,17004,4,644,-1.00,-1.0
4025,17000,-20,560,-1.00,-1.0
4027,17060,-80,788,-1.00,-1.0
4029,16956,36,544,-1.00,-1.0
4030,16992,-36,452,-1.00,-1.0
4032,16920,-124,656,-1.00,-1.0
4034,17056,-140,600,-1.00,-1.0
4036,17000,-8,644,-1.00,-1.0
4038,17008,-88,452,-1.00,-1.0
4040,16996,-52,512,-1.00,-1.0
4044,17044,-52,616,-1.00,-1.0
4046,16884,72,616,-1.00,-1.0
4048,17084,-52,616,-1.00,-1.0
4050,17004,-4,596,-1.00,-1.0
4052,16988,52,620,-1.00,-1.0
4054,17012,-80,648,-1.00,-1.0
4056,16932,-48,680,-1.00,-1.0
4058,17044,-28,552,-1.00,-1.0
4060,17040,88,652,-1.00,-1.0
4062,16944,12,548,-1.00,-1.0
4064,16992,0,660,-1.00,-1.0
4066,17008,92,712,-1.00,-1.0
4067,17000,-100,652,-1.00,-1.0
4069,17020,-20,660,-1.00,-1.0
4071,16960,-80,692,-1.00,-1.0
4073,16888,-56,668,-1.00,-1.0
4075,17048,-92,620,-1.00,-1.0
4077,17000,-32,604,-1.00,-1.0
4081,16944,28,528,-1.00,-1.0
4083,17000,-16,660,-1.00,-1.0
4085,17000,-52,608,-1.00,-1.0
4087,17012,12,628,-1.00,-1.0
4089,17040,-56,624,-1.00,-1.0
4091,17024,-68,580,-1.00,-1.0
4093,16988,56,628,-1.00,-1.0
4095,17048,-64,660,-1.00,-1.0
4097,17040,-40,640,-1.00,-1.0
4099,16960,-16,556,-1.00,-1.0
4101,16996,-100,632,-1.00,-1.0
4102,16860,-124,556,-1.00,-1.0
4104,17056,-144,512,-1.00,-1.0
4106,17028,-88,492,-1.00,-1.0
4108,16940,-28,564,-1.00,-1.0
4110,16992,-44,612,-1.00,-1.0
4112,16972,-88,616,-1.00,-1.0
4116,16896,-28,516,-1.00,-1.0
4118,17080,-24,624,-1.00,-1.0
4120,17052,-36,544,-1.00,-1.0
4122,17016,-16,628,-1.00,-1.0
4124,16904,-32,656,-1.00,-1.0
4126,17020,12,604,-1.00,-1.0
4128,16924,-40,604,-1.00,-1.0
4130,16972,-104,712,-1.00,-1.0
4132,16940,-144,632,-1.00,-1.0
4134,17012,32,516,-1.00,-1.0
4136,16984,-60,576,-1.00,-1.0
4138,16940,20,616,-1.00,-1.0
4140,17004,8,564,-1.00,-1.0
4142,17036,-100,624,-1.00,-1.0
4144,17208,-12,548,-1.00,-1.0
4146,16964,-8,584,-1.00,-1.0
4147,17000,52,628,-1.00,-1.0
4152,16996,-52,532,-1.00,-1.0
4154,17096,-24,580,-1.00,-1.0
4155,16984,-88,480,-1.00,-1.0
4157,16984,-100,572,-1.00,-1.0
4159,16936,-108,696,-1.00,-1.0
4161,17000,-148,572,-1.00,-1.0
4163,17052,-124,740,-1.00,-1.0
4165,17036,4,716,-1.00,-1.0
4167,17000,-148,616,-1.00,-1.0
4169,17060,-24,556,-1.00,-1.0
4171,17036,-56,504,-1.00,-1.0
4173,17008,-44,604,-1.00,-1.0
4175,16956,-104,524,-1.00,-1.0
4177,16944,52,452,-1.00,-1.0
4179,17044,-80,720,-1.00,-1.0
4181,16980,112,652,-1.00,-1.0
4183,16988,-64,756,-1.00,-1.0
4187,17092,-16,576,-1.00,-1.0
4189,17068,-44,668,-1.00,-1.0
4191,16944,-76,516,-1.00,-1.0
4193,16992,-92,588,-1.00,-1.0
4195,16932,64,636,-1.00,-1.0
4197,17052,-28,592,-1.00,-1.0
4199,16980,-92,452,-1.00,-1.0
4200,17004,-104,552,-1.00,-1.0
4202,17052,-128,780,-1.00,-1.0
4204,16996,48,568,-1.00,-1.0
4206,16988,4,588,-1.00,-1.0
4208,16980,-24,584,-1.00,-1.0
4210,16980,-28,664,-1.00,-1.0
4212,16924,-16,716,-1.00,-1.0
4214,16936,-16,592,-1.00,-1.0
4216,17032,-28,736,-1.00,-1.0
4218,17032,-36,648,-1.00,-1.0
4222,17012,-52,716,-1.00,-1.0
4224,16996,64,700,-1.00,-1.0
4226,17080,-40,692,-1.00,-1.0
4228,17048,44,400,-1.00,-1.0
4230,16924,20,628,-1.00,-1.0
4232,16964,-56,544,-1.00,-1.0
4234,16984,-140,556,-1.00,-1.0
4236,17028,-176,488,-1.00,-1.0
4238,16964,-64,680,-1.00,-1.0
4240,17008,-140,620,-1.00,-1.0
4242,17024,-48,636,-1.00,-1.0
4244,16948,-120,544,-1.00,-1.0
4245,16992,-20,508,-1.00,-1.0
4248,17008,-84,724,-1.00,-1.0
4249,17020,-124,584,-1.00,-1.0
4251,17016,68,768,-1.00,-1.0
4253,17020,96,564,-1.00,-1.0
4257,16916,28,508,-1.00,-1.0
4259,17032,-140,572,-1.00,-1.0
4261,17036,-8,616,-1.00,-1.0
4263,16920,-60,664,-1.00,-1.0
4265,16976,-112,520,-1.00,-1.0
4267,17036,-76,660,-1.00,-1.0
4269,16972,24,580,-1.00,-1.0
4271,16872,-104,584,-1.00,-1.0
4273,16976,-16,552,-1.00,-1.0
4275,17020,0,600,-1.00,-1.0
4277,17084,-60,688,-1.00,-1.0
4279,17060,-132,812,-1.00,-1.0
4281,16920,-20,564,-1.00,-1.0
4283,17004,32,552,-1.00,-1.0
4285,16952,-76,580,-1.00,-1.0
4287,16992,-20,556,-1.00,-1.0
4288,16940,-20,600,-1.00,-1.0
4293,16948,-48,744,-1.00,-1.0
4295,17040,-12,596,-1.00,-1.0
4297,16992,-48,552,-1.00,-1.0
4298,16972,-44,568,-1.00,-1.0
4300,17036,-40,780,-1.00,-1.0
4302,16992,-36,460,-1.00,-1.0
4304,17008,-88,600,-1.00,-1.0
4306,17028,-76,612,-1.00,-1.0
4308,16984,-28,664,-1.00,-1.0
4310,17068,-44,608,-1.00,-1.0
4312,16856,24,592,-1.00,-1.0
4314,17060,-64,516,-1.00,-1.0
4316,16996,-68,620,-1.00,-1.0
4318,16976,-60,588,-1.00,-1.0
4320,16956,44,612,-1.00,-1.0
4322,17004,84,700,-1.00,-1.0
4324,16956,-24,512,-1.00,-1.0
4326,16968,-56,596,-1.00,-1.0
4330,16968,-24,664,-1.00,-1.0
4332,16996,-44,548,-1.00,-1.0
4334,17036,0,656,-1.00,-1.0
4336,17056,-52,528,-1.00,-1.0
4338,16960,-44,604,-1.00,-1.0
4340,17036,-48,564,-1.00,-1.0
4341,17068,-80,700,-1.00,-1.0
4343,16976,0,560,-1.00,-1.0
4345,16948,-28,664,-1.00,-1.0
4347,16948,0,624,-1.00,-1.0
4349,16948,-16,572,-1.00,-1.0
4351,17104,-32,552,-1.00,-1.0
4353,16988,-4,652,-1.00,-1.0
4355,16976,-124,612,-1.00,-1.0
4357,17120,-100,616,-1.00,-1.0
4359,17164,-40,444,-1.00,-1.0
4361,17048,-64,744,-1.00,-1.0
4365,16992,-76,628,-1.00,-1.0
4367,16988,40,796,-1.00,-1.0
4369,16980,-60,536,-1.00,-1.0
4370,17024,-40,600,-1.00,-1.0
4373,16960,-12,596,-1.00,-1.0
4375,17068,-32,668,-1.00,-1.0
4376,17052,24,632,-1.00,-1.0
4378,16944,-28,608,-1.00,-1.0
4380,16984,-36,868,-1.00,-1.0
4382,17016,-36,568,-1.00,-1.0
4384,17108,-44,584,-1.00,-1.0
4386,16980,-36,608,-1.00,-1.0
4388,16952,-64,504,-1.00,-1.0
4390,17032,-60,756,-1.00,-1.0
4392,17016,-28,640,-1.00,-1.0
4394,16980,-8,656,-1.00,-1.0
4396,16928,-8,684,-1.00,-1.0
4400,17028,-52,488,-1.00,-1.0
4402,17036,-64,552,-1.00,-1.0
4404,16908,-16,628,-1.00,-1.0
4406,16936,0,580,-1.00,-1.0
4408,17048,-8,584,-1.00,-1.0
4410,16900,-116,612,-1.00,-1.0
4412,16992,-56,680,-1.00,-1.0
4414,17068,-56,624,-1.00,-1.0
4415,16896,48,636,-1.00,-1.0
4418,17044,-92,644,-1.00,-1.0
4419,16908,-124,748,-1.00,-1.0
4421,17012,-136,484,-1.00,-1.0
4423,17068,-48,576,-1.00,-1.0
4425,17044,-32,636,-1.00,-1.0
4427,17056,-68,532,-1.00,-1.0
4429,17016,-108,564,-1.00,-1.0
4431,16900,-12,548,-1.00,-1.0
4437,16940,-76,572,-1.00,-1.0
4439,17028,-124,640,-1.00,-1.0
4441,16932,-104,660,-1.00,-1.0
4443,16976,-72,644,-1.00,-1.0
4445,17084,-44,544,-1.00,-1.0
4447,16960,-52,556,-1.00,-1.0
4449,16876,-28,656,-1.00,-1.0
4450,16924,28,576,-1.00,-1.0
4452,17032,-124,636,-1.00,-1.0
4454,16964,-32,664,-1.00,-1.0
4456,17044,-16,588,-1.00,-1.0
4458,16928,-160,704,-1.00,-1.0
4460,16968,-148,524,-1.00,-1.0
4462,16988,-56,608,-1.00,-1.0
4464,16968,32,624,-1.00,-1.0
4466,17000,-48,572,-1.00,-1.0
4468,16984,-52,668,-1.00,-1.0
4472,17012,-100,484,-1.00,-1.0
4474,16976,-112,596,-1.00,-1.0
4476,16976,-112,524,-1.00,-1.0
4478,17036,-68,580,-1.00,-1.0
4480,16916,96,680,-1.00,-1.0
4482,16992,-52,604,-1.00,-1.0
4484,16968,-24,664,-1.00,-1.0
4486,16940,-16,608,-1.00,-1.0
4488,16928,-72,796,-1.00,-1.0
4490,16948,-28,564,-1.00,-1.0
4492,16984,-48,644,-1.00,-1.0
4494,17012,-88,584,-1.00,-1.0
4496,17024,-52,576,-1.00,-1.0
4498,16988,-124,576,-1.00,-1.0
4500,16976,-112,696,-1.00,-1.0
4502,16988,32,472,-1.00,-1.0
4503,16852,-100,672,-1.00,-1.0
4508,16988,-36,612,-1.00,-1.0
4510,17064,-144,600,-1.00,-1.0
4512,17000,-84,516,-1.00,-1.0
4513,17020,-56,572,-1.00,-1.0
4516,17032,-24,696,-1.00,-1.0
4517,16960,40,600,-1.00,-1.0
4519,17000,-20,628,-1.00,-1.0
4521,16976,-44,592,-1.00,-1.0
4523,16984,-8,584,-1.00,-1.0
4525,16964,32,624,-1.00,-1.0
4527,17100,4,700,-1.00,-1.0
4529,17000,0,652,-1.00,-1.0
4531,17044,0,688,-1.00,-1.0
4533,17004,12,612,-1.00,-1.0
4535,17024,-40,644,-1.00,-1.0
4537,16960,-40,548,-1.00,-1.0
4539,17068,-16,476,-1.00,-1.0
4543,17112,-92,528,-1.00,-1.0
4545,17020,-68,532,-1.00,-1.0
4547,17052,-8,700,-1.00,-1.0
4549,16952,-20,568,-1.00,-1.0
4551,16900,-24,616,-1.00,-1.0
4553,16952,88,564,-1.00,-1.0
4555,17012,-64,676,-1.00,-1.0
4556,16868,-28,876,-1.00,-1.0
4558,16948,-64,496,-1.00,-1.0
4560,16944,36,624,-1.00,-1.0
4562,17064,12,600,-1.00,-1.0
4564,16932,16,572,-1.00,-1.0
4566,17012,-24,500,-1.00,-1.0
4568,16948,-24,560,-1.00,-1.0
4570,17004,-28,748,-1.00,-1.0
4572,17044,-36,548,-1.00,-1.0
4574,17072,-28,532,-1.00,-1.0
4576,17000,-52,676,-1.00,-1.0
4580,17068,-40,644,-1.00,-1.0
4582,16924,68,556,-1.00,-1.0
4584,16984,28,668,-1.00,-1.0
4586,17040,-96,484,-1.00,-1.0
4588,17072,-80,404,-1.00,-1.0
4590,17012,-4,688,-1.00,-1.0
4592,16976,4,560,-1.00,-1.0
4594,16984,-68,652,-1.00,-1.0
4596,16980,-84,532,-1.00,-1.0
4598,16932,-44,552,-1.00,-1.0
4600,16964,-40,580,-1.00,-1.0
4601,17008,-164,584,-1.00,-1.0
4604,17000,-20,672,-1.00,-1.0
4606,17032,-60,772,-1.00,-1.0
4607,16936,-84,708,-1.00,-1.0
4609,16964,-64,468,-1.00,-1.0
4611,16988,-44,424,-1.00,-1.0
4623,16956,-16,668,-1.00,-1.0
4625,17080,48,584,-1.00,-1.0
4627,17012,-12,636,-1.00,-1.0
4629,17004,-92,456,-1.00,-1.0
4631,16872,60,656,-1.00,-1.0
4633,16988,-4,588,-1.00,-1.0
4635,16984,-32,540,-1.00,-1.0
4636,17080,24,428,-1.00,-1.0
4639,16992,-20,484,-1.00,-1.0
4641,17024,-72,548,-1.00,-1.0
4642,17048,-20,628,-1.00,-1.0
4644,16952,72,576,-1.00,-1.0
4646,17076,12,564,-1.00,-1.0
4648,17000,76,680,-1.00,-1.0
4650,16996,-72,796,-1.00,-1.0
4652,17036,-52,496,-1.00,-1.0
4654,16972,20,580,-1.00,-1.0
4658,16944,-128,592,-1.00,-1.0
4660,16968,8,640,-1.00,-1.0
4662,16960,48,760,-1.00,-1.0
4664,17052,-12,636,-1.00,-1.0
4666,17012,24,524,-1.00,-1.0
4668,16980,-116,604,-1.00,-1.0
4670,17016,32,516,-1.00,-1.0
4672,16988,20,672,-1.00,-1.0
4674,16952,-80,580,-1.00,-1.0
4676,17028,8,652,-1.00,-1.0
4678,16988,92,732,-1.00,-1.0
4679,16988,-68,520,-1.00,-1.0
4681,17024,28,632,-1.00,-1.0
4683,16904,-24,588,-1.00,-1.0
4685,17028,-80,528,-1.00,-1.0
4687,17000,16,584,-1.00,-1.0
4689,17068,-76,528,-1.00,-1.0
4693,16932,-28,456,-1.00,-1.0
4695,17080,-12,596,-1.00,-1.0
4697,17040,80,788,-1.00,-1.0
4699,17040,-24,520,-1.00,-1.0
4701,16988,-88,516,-1.00,-1.0
4703,16984,-68,548,-1.00,-1.0
4705,17032,-24,604,-1.00,-1.0
4707,17040,-92,600,-1.00,-1.0
4709,16940,-68,544,-1.00,-1.0
4711,16996,-48,652,-1.00,-1.0
4713,16992,12,724,-1.00,-1.0
4715,16936,-68,648,-1.00,-1.0
4717,17028,76,624,-1.00,-1.0
4719,17104,-80,664,-1.00,-1.0
4721,16952,-52,700,-1.00,-1.0
4723,16948,-100,688,-1.00,-1.0
4724,16960,-48,588,-1.00,-1.0
4726,16980,-80,664,-1.00,-1.0
4731,17024,-60,680,-1.00,-1.0
4733,17052,-88,684,-1.00,-1.0
4734,16988,-56,440,-1.00,-1.0
4736,17008,-88,620,-1.00,-1.0
4738,16960,32,620,-1.00,-1.0
4740,16988,12,580,-1.00,-1.0
4742,17032,-44,520,-1.00,-1.0
4744,16984,-76,592,-1.00,-1.0
4746,16980,-92,732,-1.00,-1.0
4748,17088,-8,592,-1.00,-1.0
4750,17056,-8,584,-1.00,-1.0
4752,16980,12,616,-1.00,-1.0
4754,17024,-60,588,-1.00,-1.0
4756,17096,40,560,-1.00,-1.0
4758,17056,-28,560,-1.00,-1.0
4760,16988,8,732,-1.00,-1.0
4762,16880,28,576,-1.00,-1.0
4766,17012,-8,640,-1.00,-1.0
4768,16992,-4,648,-1.00,-1.0
4770,17016,-124,608,-1.00,-1.0
4772,17052,4,548,-1.00,-1.0
4774,17064,-44,596,-1.00,-1.0
4776,16964,-56,628,-1.00,-1.0
4778,16964,-176,684,-1.00,-1.0
4779,16912,-8,624,-1.00,-1.0
4781,17020,88,604,-1.00,-1.0
4783,16964,-48,540,-1.00,-1.0
4785,17056,-28,668,-1.00,-1.0
4787,16996,-84,684,-1.00,-1.0
4789,17008,-68,612,-1.00,-1.0
4791,17000,-28,664,-1.00,-1.0
4793,16996,-4,652,-1.00,-1.0
4795,17056,-104,572,-1.00,-1.0
4797,17028,40,736,-1.00,-1.0
4801,17020,-72,704,-1.00,-1.0
4803,17044,-60,536,-1.00,-1.0
4805,17064,-88,592,-1.00,-1.0
4807,16992,-72,696,-1.00,-1.0
4809,17012,-108,636,-1.00,-1.0
4811,17000,-88,472,-1.00,-1.0
4813,16996,-48,640,-1.00,-1.0
4815,17008,-36,576,-1.00,-1.0
4817,17028,36,548,-1.00,-1.0
4819,17052,-4,692,-1.00,-1.0
4821,16928,-44,696,-1.00,-1.0
4822,17032,-60,600,-1.00,-1.0
4824,16992,-88,628,-1.00,-1.0
4826,17012,-108,720,-1.00,-1.0
4828,17036,24,668,-1.00,-1.0
4830,16944,-16,716,-1.00,-1.0
4832,17068,-36,520,-1.00,-1.0
4836,16956,-88,404,-1.00,-1.0
4838,17028,60,612,-1.00,-1.0
4840,17036,-4,632,-1.00,-1.0
4842,16980,-36,596,-1.00,-1.0
4844,16908,-24,516,-1.00,-1.0
4846,16976,-56,592,-1.00,-1.0
4848,17028,-144,716,-1.00,-1.0
4850,16992,36,592,-1.00,-1.0
4852,17008,-12,616,-1.00,-1.0
4854,16888,76,616,-1.00,-1.0
4856,16976,-48,740,-1.00,-1.0
4858,17028,-52,756,-1.00,-1.0
4860,17040,24,640,-1.00,-1.0
4862,17104,-80,708,-1.00,-1.0
4864,17072,68,632,-1.00,-1.0
4866,17120,12,608,-1.00,-1.0
4867,16968,-128,708,-1.00,-1.0
4872,16964,-40,556,-1.00,-1.0
4874,17072,24,580,-1.00,-1.0
4876,16916,16,572,-1.00,-1.0
4877,17060,-128,604,-1.00,-1.0
4879,16976,-56,600,-1.00,-1.0
4881,16964,36,624,-1.00,-1.0
4883,17080,44,776,-1.00,-1.0
4885,17008,-48,660,-1.00,-1.0
4887,16956,-52,652,-1.00,-1.0
4889,16976,-40,496,-1.00,-1.0
4891,16932,-40,548,-1.00,-1.0
4893,17036,20,684,-1.00,-1.0
4895,17024,-20,452,-1.00,-1.0
4897,17072,36,592,-1.00,-1.0
4899,16992,-80,468,-1.00,-1.0
4901,16968,-68,696,-1.00,-1.0
4903,17124,-64,492,-1.00,-1.0
4905,16932,-24,632,-1.00,-1.0
4909,16976,-100,540,-1.00,-1.0
4911,17028,-4,600,-1.00,-1.0
4913,16948,-80,636,-1.00,-1.0
4915,17020,-36,640,-1.00,-1.0
4917,16948,52,428,-1.00,-1.0
4919,16928,-48,680,-1.00,-1.0
4920,16900,-112,624,-1.00,-1.0
4922,17076,-64,760,-1.00,-1.0
4924,17016,-36,664,-1.00,-1.0
4926,16896,12,656,-1.00,-1.0
4928,16932,12,576,-1.00,-1.0
4930,17116,16,780,-1.00,-1.0
4932,17008,-140,508,-1.00,-1.0
4934,16968,-48,700,-1.00,-1.0
4936,16924,0,488,-1.00,-1.0
4938,16960,24,520,-1.00,-1.0
4940,16996,68,624,-1.00,-1.0
4944,16936,-100,720,-1.00,-1.0
4946,17016,-52,664,-1.00,-1.0
4948,17036,-56,668,-1.00,-1.0
4949,16984,-20,568,-1.00,-1.0
4952,16984,-20,664,-1.00,-1.0
4953,17000,-76,652,-1.00,-1.0
4955,16916,-52,624,-1.00,-1.0
4957,16964,-8,544,-1.00,-1.0
4959,17048,-112,744,-1.00,-1.0
4961,16908,-108,692,-1.00,-1.0
4963,17000,-64,720,-1.00,-1.0
4965,16992,4,516,-1.00,-1.0
4967,17052,-16,704,-1.00,-1.0
4969,16996,-12,560,-1.00,-1.0
4971,17076,-28,696,-1.00,-1.0
4973,16980,-88,572,-1.00,-1.0
4975,17032,0,504,-1.00,-1.0
4979,16992,-48,556,-1.00,-1.0
4981,17016,-36,636,-1.00,-1.0
4983,17020,28,560,-1.00,-1.0
4985,17060,-20,476,-1.00,-1.0
4987,17016,-80,652,-1.00,-1.0
4989,16896,-48,712,-1.00,-1.0
4991,16904,-36,756,-1.00,-1.0
4993,17044,4,524,-1.00,-1.0
4994,16932,-52,672,-1.00,-1.0
4996,17016,-104,588,-1.00,-1.0
4998,16936,-88,628,-1.00,-1.0
5000,16948,-104,660,-1.00,-1.0
5002,17000,-112,688,-1.00,-1.0
5004,16956,-52,652,-1.00,-1.0
5006,16940,52,592,-1.00,-1.0
5008,16892,80,620,-1.00,-1.0
5010,16992,-100,580,-1.00,-1.0
5014,16988,-64,584,-1.00,-1.0
5016,17044,-96,612,-1.00,-1.0
5018,16972,-32,552,-1.00,-1.0
5020,16972,8,520,-1.00,-1.0
5022,16960,4,512,-1.00,-1.0
5024,17072,-128,644,-1.00,-1.0
5026,17020,20,620,-1.00,-1.0
5028,17108,-140,536,-1.00,-1.0
5030,16992,-40,600,-1.00,-1.0
5032,17016,-28,668,-1.00,-1.0
5034,16972,24,548,-1.00,-1.0
5036,17088,-60,716,-1.00,-1.0
5038,16928,-100,568,-1.00,-1.0
5040,16948,-52,616,-1.00,-1.0
5042,17080,44,464,-1.00,-1.0
5044,17024,-24,540,-1.00,-1.0
5045,16944,-20,536,-1.00,-1.0
5050,16968,44,656,-1.00,-1.0
5052,17004,-28,668,-1.00,-1.0
5054,16948,-60,684,-1.00,-1.0
5055,16980,-20,712,-1.00,-1.0
5057,17064,-36,600,-1.00,-1.0
5059,16920,-72,764,-1.00,-1.0
5061,17016,-32,748,-1.00,-1.0
5063,17040,-28,488,-1.00,-1.0
5065,17000,44,640,-1.00,-1.0
5067,17000,-32,584,-1.00,-1.0
5069,17160,8,552,-1.00,-1.0
5071,16992,-80,624,-1.00,-1.0
5073,16972,-24,524,-1.00,-1.0
5075,16992,-76,528,-1.00,-1.0
5077,17016,-40,672,-1.00,-1.0
5079,16984,12,628,-1.00,-1.0
5081,16928,-48,636,-1.00,-1.0
5083,17044,-36,496,-1.00,-1.0
5087,17024,16,656,-1.00,-1.0
5089,17012,-20,608,-1.00,-1.0
5091,16948,-40,636,-1.00,-1.0
5093,16988,-44,596,-1.00,-1.0
5095,16968,56,680,-1.00,-1.0
5097,17044,-48,660,-1.00,-1.0
5099,17080,-124,620,-1.00,-1.0
5100,17008,-60,720,-1.00,-1.0
5103,17048,-68,652,-1.00,-1.0
5104,16976,28,504,-1.00,-1.0
5106,16924,-124,636,-1.00,-1.0
5108,16940,-28,768,-1.00,-1.0
5110,16992,-44,620,-1.00,-1.0
5112,16976,-72,660,-1.00,-1.0
5114,17016,-52,672,-1.00,-1.0
5116,16996,-52,484,-1.00,-1.0
5118,16992,8,584,-1.00,-1.0
5122,17040,-24,468,-1.00,-1.0
5124,16980,-64,588,-1.00,-1.0
5126,16960,40,620,-1.00,-1.0
5128,16968,-68,536,-1.00,-1.0
5130,17028,28,608,-1.00,-1.0
5132,17008,52,564,-1.00,-1.0
5134,16992,-48,636,-1.00,-1.0
5136,17016,-24,592,-1.00,-1.0
5138,16976,60,752,-1.00,-1.0
5140,16912,4,660,-1.00,-1.0
5142,16912,-72,564,-1.00,-1.0
5144,16980,-8,512,-1.00,-1.0
5145,16944,-60,748,-1.00,-1.0
5147,17020,-64,612,-1.00,-1.0
5149,17036,0,652,-1.00,-1.0
5151,16912,-48,596,-1.00,-1.0
5153,17036,-108,708,-1.00,-1.0
5157,17000,-28,592,-1.00,-1.0
5159,17000,-12,652,-1.00,-1.0
5161,17004,8,616,-1.00,-1.0
5163,16992,0,540,-1.00,-1.0
5165,17016,-136,500,-1.00,-1.0
5167,16976,-52,580,-1.00,-1.0
5169,16976,-8,428,-1.00,-1.0
5171,16964,16,596,-1.00,-1.0
5173,17104,-64,616,-1.00,-1.0
5175,16960,-16,596,-1.00,-1.0
5177,16956,-16,556,-1.00,-1.0
5179,16980,-76,628,-1.00,-1.0
5181,17072,56,640,-1.00,-1.0
5183,16972,44,572,-1.00,-1.0
5185,17000,-8,712,-1.00,-1.0
5187,17100,-12,500,-1.00,-1.0
5188,16972,-64,424,-1.00,-1.0
5193,16968,-108,540,-1.00,-1.0
5195,16924,-16,660,-1.00,-1.0
5196,17088,-108,660,-1.00,-1.0
5198,16968,-96,572,-1.00,-1.0
5200,17004,-80,760,-1.00,-1.0
5202,16976,-8,608,-1.00,-1.0
5204,16976,-48,588,-1.00,-1.0
5206,16988,-124,516,-1.00,-1.0
5208,17056,-40,592,-1.00,-1.0
5210,16944,20,552,-1.00,-1.0
5212,17052,28,704,-1.00,-1.0
5214,16960,-16,544,-1.00,-1.0
5216,16944,-4,632,-1.00,-1.0
5218,17052,-176,560,-1.00,-1.0
5220,16980,44,768,-1.00,-1.0
5222,16984,-28,516,-1.00,-1.0
5224,16976,-8,564,-1.00,-1.0
5225,16964,-68,656,-1.00,-1.0
5229,17000,-16,696,-1.00,-1.0
5231,16936,-184,644,-1.00,-1.0
5233,17044,-16,644,-1.00,-1.0
5235,16912,-20,608,-1.00,-1.0
5237,16988,-136,536,-1.00,-1.0
5239,16960,-88,648,-1.00,-1.0
5241,16960,-52,588,-1.00,-1.0
5243,17052,-116,536,-1.00,-1.0
5245,17028,-48,712,-1.00,-1.0
5247,17016,0,572,-1.00,-1.0
5249,16992,68,644,-1.00,-1.0
5251,16928,60,524,-1.00,-1.0
5253,17024,4,604,-1.00,-1.0
5255,16968,-88,592,-1.00,-1.0
5257,16952,-92,552,-1.00,-1.0
5259,17028,36,688,-1.00,-1.0
5260,17108,44,568,-1.00,-1.0
5265,17044,-128,528,-1.00,-1.0
5267,16988,-116,632,-1.00,-1.0
5269,16928,-8,724,-1.00,-1.0
5270,17028,-28,692,-1.00,-1.0
5272,17040,-52,700,-1.00,-1.0
5274,17052,-48,712,-1.00,-1.0
5276,17096,-72,524,-1.00,-1.0
5278,16952,-92,636,-1.00,-1.0
5280,17104,0,676,-1.00,-1.0
5282,16936,-60,520,-1.00,-1.0
5284,17056,-112,532,-1.00,-1.0
5286,16960,0,716,-1.00,-1.0
5288,17100,-100,544,-1.00,-1.0
5290,16928,20,664,-1.00,-1.0
5292,16936,-92,644,-1.00,-1.0
5294,16968,-48,572,-1.00,-1.0
5296,16832,-12,400,-1.00,-1.0
5300,17012,-176,628,-1.00,-1.0
5302,16984,-68,636,-1.00,-1.0
5304,17024,-76,648,-1.00,-1.0
5306,17072,-52,608,-1.00,-1.0
5308,16908,-52,704,-1.00,-1.0
5310,17068,-132,604,-1.00,-1.0
5312,17016,-36,680,-1.00,-1.0
5313,17108,-80,684,-1.00,-1.0
5316,16948,-52,632,-1.00,-1.0
5318,17008,-56,572,-1.00,-1.0
5319,17068,-28,612,-1.00,-1.0
5321,16952,-28,680,-1.00,-1.0
5323,17028,-112,576,-1.00,-1.0
5325,16948,-92,544,-1.00,-1.0
5327,17060,68,696,-1.00,-1.0
5329,17056,-56,600,-1.00,-1.0
5331,17020,-56,592,-1.00,-1.0
5335,17036,-40,648,-1.00,-1.0
5337,16996,-40,660,-1.00,-1.0
5339,17040,-68,592,-1.00,-1.0
5341,16960,-4,628,-1.00,-1.0
5343,17072,-104,792,-1.00,-1.0
5345,17080,-52,536,-1.00,-1.0
5347,17004,-20,536,-1.00,-1.0
5349,17032,-20,596,-1.00,-1.0
5351,16992,-84,708,-1.00,-1.0
5353,17092,-32,600,-1.00,-1.0
5355,17044,-12,552,-1.00,-1.0
5357,17072,-60,584,-1.00,-1.0
5358,17008,-20,548,-1.00,-1.0
5361,16984,36,608,-1.00,-1.0
5362,17064,-96,588,-1.00,-1.0
5364,17048,-132,548,-1.00,-1.0
5366,16964,-16,696,-1.00,-1.0
5371,16928,-88,580,-1.00,-1.0
5373,17104,-56,716,-1.00,-1.0
5374,17020,-48,516,-1.00,-1.0
5376,17012,-108,580,-1.00,-1.0
5378,17020,-60,648,-1.00,-1.0
5380,16960,-48,592,-1.00,-1.0
5382,16984,0,612,-1.00,-1.0
5384,17000,-68,664,-1.00,-1.0
5386,17036,-28,724,-1.00,-1.0
5388,16968,12,456,-1.00,-1.0
5390,17040,-28,656,-1.00,-1.0
5392,17072,-108,704,-1.00,-1.0
5394,16888,-56,576,-1.00,-1.0
5396,17012,-80,564,-1.00,-1.0
5398,17092,-64,636,-1.00,-1.0
5400,16984,-56,500,-1.00,-1.0
5402,16932,-100,560,-1.00,-1.0
5406,16952,-64,644,-1.00,-1.0
5408,17020,-4,544,-1.00,-1.0
5410,17048,-24,608,-1.00,-1.0
5412,16940,40,624,-1.00,-1.0
5414,17004,0,588,-1.00,-1.0
5416,16988,-92,484,-1.00,-1.0
5418,17004,4,580,-1.00,-1.0
5419,17048,-68,668,-1.00,-1.0
5421,17032,-52,740,-1.00,-1.0
5423,17088,-92,660,-1.00,-1.0
5425,17000,-100,608,-1.00,-1.0
5427,16944,-32,644,-1.00,-1.0
5429,16956,-40,692,-1.00,-1.0
5431,17032,96,588,-1.00,-1.0
5433,17096,-52,500,-1.00,-1.0
5435,16964,-12,500,-1.00,-1.0
5437,17032,-104,632,-1.00,-1.0
5441,17000,104,672,-1.00,-1.0
5443,16936,-76,684,-1.00,-1.0
5445,17012,-16,520,-1.00,-1.0
5447,16888,-4,480,-1.00,-1.0
5449,17044,24,584,-1.00,-1.0
5451,16972,-68,580,-1.00,-1.0
5453,16940,-80,652,-1.00,-1.0
5455,17020,0,612,-1.00,-1.0
5457,17020,-32,648,-1.00,-1.0
5459,16956,16,524,-1.00,-1.0
5461,17000,-44,680,-1.00,-1.0
5462,17072,-36,696,-1.00,-1.0
5464,17052,4,660,-1.00,-1.0
5466,16976,-28,504,-1.00,-1.0
5468,16936,-8,680,-1.00,-1.0
5470,16912,-36,724,-1.00,-1.0
5472,17016,-60,528,-1.00,-1.0
5474,17016,-136,616,-1.00,-1.0
5478,16940,-64,728,-1.00,-1.0
5480,17032,-24,556,-1.00,-1.0
5482,17008,-108,600,-1.00,-1.0
5484,17020,-40,648,-1.00,-1.0
5486,17020,-144,488,-1.00,-1.0
5488,16984,-112,672,-1.00,-1.0
5490,16880,-40,652,-1.00,-1.0
5492,16944,-72,512,-1.00,-1.0
5494,16964,16,508,-1.00,-1.0
5496,16988,-116,668,-1.00,-1.0
5498,16956,-84,532,-1.00,-1.0
5499,17060,-96,520,-1.00,-1.0
5502,16976,-44,576,-1.00,-1.0
5504,17060,0,616,-1.00,-1.0
5505,16932,-52,700,-1.00,-1.0
5507,17020,16,600,-1.00,-1.0
5509,16904,-60,556,-1.00,-1.0
5513,16968,32,572,-1.00,-1.0
5515,16976,36,688,-1.00,-1.0
5517,16948,-12,564,-1.00,-1.0
5519,17056,-64,560,-1.00,-1.0
5521,17008,16,496,-1.00,-1.0
5523,17044,-92,580,-1.00,-1.0
5525,17004,12,700,-1.00,-1.0
5527,17012,-64,668,-1.00,-1.0
5529,16924,32,532,-1.00,-1.0
5531,16984,-132,400,-1.00,-1.0
5533,16952,36,664,-1.00,-1.0
5534,16980,-128,620,-1.00,-1.0
5536,17012,-72,616,-1.00,-1.0
5538,17020,-112,532,-1.00,-1.0
5540,17052,-56,468,-1.00,-1.0
5542,16980,52,660,-1.00,-1.0
5544,17076,-8,616,-1.00,-1.0
5548,17024,-184,568,-1.00,-1.0
5550,16980,80,660,-1.00,-1.0
5552,17104,-84,612,-1.00,-1.0
5554,17052,-96,528,-1.00,-1.0
5556,17012,-24,668,-1.00,-1.0
5558,17088,-76,632,-1.00,-1.0
5560,16964,0,540,-1.00,-1.0
5562,17008,-16,628,-1.00,-1.0
5564,16952,-64,640,-1.00,-1.0
5566,17032,12,708,-1.00,-1.0
5568,17008,4,556,-1.00,-1.0
5570,16952,-176,464,-1.00,-1.0
5572,16976,24,516,-1.00,-1.0
5574,17092,-108,580,-1.00,-1.0
5576,16932,-16,632,-1.00,-1.0
5578,16940,-128,696,-1.00,-1.0
5579,16960,-76,684,-1.00,-1.0
5584,17080,-20,600,-1.00,-1.0
5586,16980,-60,624,-1.00,-1.0
5588,16920,-8,572,-1.00,-1.0
5590,17028,24,592,-1.00,-1.0
5592,17060,-4,664,-1.00,-1.0
5594,17056,-40,632,-1.00,-1.0
5596,17008,-8,532,-1.00,-1.0
5598,17020,-40,660,-1.00,-1.0
5599,16940,-64,764,-1.00,-1.0
5601,16988,-20,548,-1.00,-1.0
5603,17044,36,784,-1.00,-1.0
5605,16980,-40,704,-1.00,-1.0
5607,16948,-68,664,-1.00,-1.0
5609,17040,-64,600,-1.00,-1.0
5611,17060,-60,604,-1.00,-1.0
5613,17028,-60,660,-1.00,-1.0
5615,17032,44,600,-1.00,-1.0
5619,16964,-4,704,-1.00,-1.0
5621,16980,-48,668,-1.00,-1.0
5623,16948,-28,712,-1.00,-1.0
5625,16960,-80,612,-1.00,-1.0
5627,17004,-36,720,-1.00,-1.0
5629,17076,-72,560,-1.00,-1.0
5631,17000,-88,572,-1.00,-1.0
5633,17024,-32,612,-1.00,-1.0
5635,16996,-84,664,-1.00,-1.0
5637,16980,-40,704,-1.00,-1.0
5639,17008,-52,580,-1.00,-1.0
5641,16952,-52,572,-1.00,-1.0
5643,17068,-100,636,-1.00,-1.0
5645,17068,-64,676,-1.00,-1.0
5647,17036,-36,496,-1.00,-1.0
5648,16940,-52,504,-1.00,-1.0
5650,16988,-60,584,-1.00,-1.0
5655,16984,44,632,-1.00,-1.0
5657,17016,108,656,-1.00,-1.0
5658,17060,-52,540,-1.00,-1.0
5660,17076,116,588,-1.00,-1.0
5662,16920,-8,592,-1.00,-1.0
5664,16940,-112,600,-1.00,-1.0
5666,16976,-140,512,-1.00,-1.0
5668,16992,-140,604,-1.00,-1.0
5670,17024,-28,744,-1.00,-1.0
5672,17088,-92,824,-1.00,-1.0
5674,16964,-84,616,-1.00,-1.0
5676,17092,-72,584,-1.00,-1.0
5678,16952,-24,564,-1.00,-1.0
5680,17044,-56,632,-1.00,-1.0
5682,16936,-36,592,-1.00,-1.0
5684,17016,36,668,-1.00,-1.0
5686,17020,-136,536,-1.00,-1.0
5690,17036,-76,760,-1.00,-1.0
5692,16892,-116,468,-1.00,-1.0
5694,16972,-44,600,-1.00,-1.0
5696,17004,-64,808,-1.00,-1.0
5698,16872,-72,540,-1.00,-1.0
5700,16968,28,644,-1.00,-1.0
5702,16964,-32,460,-1.00,-1.0
5703,16968,-80,568,-1.00,-1.0
5705,16896,-116,624,-1.00,-1.0
5707,16984,8,592,-1.00,-1.0
5709,16948,-76,568,-1.00,-1.0
5711,17032,-40,528,-1.00,-1.0
5713,16924,-48,560,-1.00,-1.0
5715,17088,-24,452,-1.00,-1.0
5717,16936,-76,632,-1.00,-1.0
5719,17016,-116,712,-1.00,-1.0
5721,16944,-4,616,-1.00,-1.0
5723,17016,-28,700,-1.00,-1.0
5727,17004,-32,612,-1.00,-1.0
5729,17004,-80,608,-1.00,-1.0
5731,17040,-88,708,-1.00,-1.0
5733,16960,-16,552,-1.00,-1.0
5735,16980,-40,556,-1.00,-1.0
5737,16972,-112,716,-1.00,-1.0
5739,16932,-16,584,-1.00,-1.0
5741,16972,-8,572,-1.00,-1.0
5743,16984,-68,652,-1.00,-1.0
5745,16948,-100,776,-1.00,-1.0
5747,17004,-116,548,-1.00,-1.0
5748,17016,-32,720,-1.00,-1.0
5751,16940,-44,704,-1.00,-1.0
5753,16964,-112,628,-1.00,-1.0
5754,16956,-68,528,-1.00,-1.0
5756,16992,-72,640,-1.00,-1.0
5758,17024,-72,644,-1.00,-1.0
5764,17116,-156,548,-1.00,-1.0
5766,16964,-32,632,-1.00,-1.0
5768,16892,-8,644,-1.00,-1.0
5770,17008,-16,608,-1.00,-1.0
5772,16916,-16,468,-1.00,-1.0
5774,16988,24,588,-1.00,-1.0
5776,16952,-120,652,-1.00,-1.0
5778,17036,-148,608,-1.00,-1.0
5780,17072,-100,552,-1.00,-1.0
5782,17020,-16,656,-1.00,-1.0
5784,17040,24,524,-1.00,-1.0
5786,16992,-108,696,-1.00,-1.0
5788,16996,48,628,-1.00,-1.0
5790,16964,-84,704,-1.00,-1.0
5792,16984,44,612,-1.00,-1.0
5793,16872,-36,412,-1.00,-1.0
5795,16996,-76,460,-1.00,-1.0
5799,16996,96,580,-1.00,-1.0
5801,16992,-72,520,-1.00,-1.0
5803,16988,-64,688,-1.00,-1.0
5805,16928,40,612,-1.00,-1.0
5807,17040,-136,572,-1.00,-1.0
5809,16944,-32,704,-1.00,-1.0
5811,17024,-144,776,-1.00,-1.0
5813,17080,-96,528,-1.00,-1.0
5815,17024,-8,592,-1.00,-1.0
5817,16932,-44,600,-1.00,-1.0
5819,16920,-112,712,-1.00,-1.0
5821,17064,-116,568,-1.00,-1.0
5823,16992,-68,648,-1.00,-1.0
5825,16936,-60,716,-1.00,-1.0
5827,17044,-128,604,-1.00,-1.0
5828,16956,24,608,-1.00,-1.0
5830,17020,-80,620,-1.00,-1.0
5835,17080,-136,648,-1.00,-1.0
5837,17068,16,648,-1.00,-1.0
5838,17032,-136,592,-1.00,-1.0
5840,17000,-52,724,-1.00,-1.0
5842,16940,56,620,-1.00,-1.0
5844,16956,-28,600,-1.00,-1.0
5846,16964,-60,620,-1.00,-1.0
5848,17052,-108,664,-1.00,-1.0
5850,17080,-16,528,-1.00,-1.0
5852,16996,-64,552,-1.00,-1.0
5854,16988,56,396,-1.00,-1.0
5856,17008,-20,480,-1.00,-1.0
5858,17004,-88,648,-1.00,-1.0
5860,17036,-68,580,-1.00,-1.0
5862,16968,-24,664,-1.00,-1.0
5864,17044,-76,660,-1.00,-1.0
5866,17072,-48,668,-1.00,-1.0
5870,17052,-20,656,-1.00,-1.0
5872,16960,36,616,-1.00,-1.0
5874,17064,-80,496,-1.00,-1.0
5876,17008,-28,624,-1.00,-1.0
5878,16956,-80,712,-1.00,-1.0
5880,16972,80,564,-1.00,-1.0
5882,16932,-148,560,-1.00,-1.0
5883,17060,-80,572,-1.00,-1.0
5885,16940,-20,644,-1.00,-1.0
5887,16944,76,600,-1.00,-1.0
5889,16976,-32,592,-1.00,-1.0
5891,17032,-76,692,-1.00,-1.0
5893,17040,20,676,-1.00,-1.0
5895,17036,-12,584,-1.00,-1.0
5897,17032,-112,620,-1.00,-1.0
5899,16932,-4,504,-1.00,-1.0
5901,17032,-24,556,-1.00,-1.0
5905,17032,-60,604,-1.00,-1.0
5907,17112,-192,460,-1.00,-1.0
5909,17032,-64,572,-1.00,-1.0
5911,17032,-24,752,-1.00,-1.0
5913,16924,20,640,-1.00,-1.0
5915,17104,-8,536,-1.00,-1.0
5917,17096,32,476,-1.00,-1.0
5919,16968,-12,544,-1.00,-1.0
5921,16928,-152,528,-1.00,-1.0
5923,17048,-88,624,-1.00,-1.0
5925,16984,28,684,-1.00,-1.0
5926,16928,-152,672,-1.00,-1.0
5928,17000,-44,592,-1.00,-1.0
5930,16984,-124,372,-1.00,-1.0
5932,16916,-72,644,-1.00,-1.0
5934,16960,-12,524,-1.00,-1.0
5936,16944,-68,664,-1.00,-1.0
5940,16988,-36,588,-1.00,-1.0
5942,17004,-12,416,-1.00,-1.0
5944,16900,-100,620,-1.00,-1.0
5946,16916,-88,704,-1.00,-1.0
5948,17084,-4,584,-1.00,-1.0
5950,16948,-88,716,-1.00,-1.0
5952,16912,-76,584,-1.00,-1.0
5954,17012,-40,596,-1.00,-1.0
5956,16976,-92,608,-1.00,-1.0
5958,16900,-56,432,-1.00,-1.0
5960,16952,-76,628,-1.00,-1.0
5962,16984,-100,624,-1.00,-1.0
5964,17056,-72,620,-1.00,-1.0
5966,16940,-72,556,-1.00,-1.0
5968,17112,12,592,-1.00,-1.0
5970,16932,-52,516,-1.00,-1.0
5971,17024,36,772,-1.00,-1.0
5976,17140,-84,648,-1.00,-1.0
5978,17032,12,672,-1.00,-1.0
5980,16992,-8,748,-1.00,-1.0
5981,17012,-112,628,-1.00,-1.0
5984,16980,-68,580,-1.00,-1.0
5986,16952,52,576,-1.00,-1.0
5987,17076,-4,632,-1.00,-1.0
5989,16964,-68,688,-1.00,-1.0
5991,17032,24,548,-1.00,-1.0
5993,17072,44,540,-1.00,-1.0
5995,16996,72,684,-1.00,-1.0
5997,16956,-40,640,-1.00,-1.0
5999,16980,-40,636,-1.00,-1.0
6001,17008,-16,588,-1.00,-1.0
6003,17048,-12,564,-1.00,-1.0
6005,16972,-56,580,-1.00,-1.0
6007,17036,-68,540,-1.00,-1.0
6011,17056,-44,536,-1.00,-1.0
6013,17112,32,580,-1.00,-1.0
6015,17032,-20,796,-1.00,-1.0
6017,17056,48,608,-1.00,-1.0
6019,17080,-52,608,-1.00,-1.0
6021,16948,-48,636,-1.00,-1.0
6023,16924,-28,756,-1.00,-1.0
6025,17048,-72,728,-1.00,-1.0
6026,17000,-112,608,-1.00,-1.0
6028,16868,-32,488,-1.00,-1.0
6030,17008,-28,532,-1.00,-1.0
6032,16976,-52,704,-1.00,-1.0
6034,16944,-112,564,-1.00,-1.0
6036,17052,20,624,-1.00,-1.0
6038,16920,-104,572,-1.00,-1.0
6040,16940,72,712,-1.00,-1.0
6042,16936,-96,528,-1.00,-1.0
6046,16896,-112,588,-1.00,-1.0
6048,16940,8,632,-1.00,-1.0
6050,16972,-16,560,-1.00,-1.0
6052,16928,36,548,-1.00,-1.0
6054,16920,-12,680,-1.00,-1.0
6056,17068,16,500,-1.00,-1.0
6058,17096,56,524,-1.00,-1.0
6060,16948,48,500,-1.00,-1.0
6062,17020,-80,616,-1.00,-1.0
6064,17052,-116,656,-1.00,-1.0
6066,16984,-68,524,-1.00,-1.0
6068,16936,-92,664,-1.00,-1.0
6069,16988,-36,596,-1.00,-1.0
6071,17028,-100,712,-1.00,-1.0
6073,16848,-76,700,-1.00,-1.0
6075,17008,4,648,-1.00,-1.0
6077,17052,-124,616,-1.00,-1.0
6079,17024,-20,548,-1.00,-1.0
6083,17044,48,536,-1.00,-1.0
6085,17052,-72,624,-1.00,-1.0
6087,17008,16,576,-1.00,-1.0
6089,16968,-88,568,-1.00,-1.0
6091,17096,-28,556,-1.00,-1.0
6093,17004,-8,644,-1.00,-1.0
6095,16932,-20,648,-1.00,-1.0
6097,17004,-36,556,-1.00,-1.0
6099,17024,-36,580,-1.00,-1.0
6101,16976,-112,552,-1.00,-1.0
6103,16980,8,704,-1.00,-1.0
6104,17012,-132,596,-1.00,-1.0
6106,17060,-188,592,-1.00,-1.0
6108,16948,-84,720,-1.00,-1.0
6110,16892,-100,684,-1.00,-1.0
6112,17004,-16,552,-1.00,-1.0
6114,16968,-108,640,-1.00,-1.0
6118,16972,-44,432,-1.00,-1.0
6120,17016,-64,808,-1.00,-1.0
6122,16956,-12,536,-1.00,-1.0
6124,17068,36,608,-1.00,-1.0
6126,17084,-60,612,-1.00,-1.0
6128,17040,0,520,-1.00,-1.0
6130,16980,-120,592,-1.00,-1.0
6132,17072,-120,468,-1.00,-1.0
6134,17036,-60,596,-1.00,-1.0
6136,17008,4,520,-1.00,-1.0
6138,17012,-116,356,-1.00,-1.0
6140,17016,-140,464,-1.00,-1.0
6142,16944,-36,520,-1.00,-1.0
6144,17096,-16,516,-1.00,-1.0
6146,16936,0,672,-1.00,-1.0
6148,17044,-20,528,-1.00,-1.0
6149,16972,40,604,-1.00,-1.0
6154,16952,24,672,-1.00,-1.0
6156,17072,-64,564,-1.00,-1.0
6158,17004,-32,548,-1.00,-1.0
6159,17000,-96,656,-1.00,-1.0
6161,16904,-92,496,-1.00,-1.0
6163,17044,16,624,-1.00,-1.0
6165,17032,-52,656,-1.00,-1.0
6167,17064,-28,604,-1.00,-1.0
6169,16992,-76,616,-1.00,-1.0
6171,17036,-48,620,-1.00,-1.0
6173,17012,-32,688,-1.00,-1.0
6175,16932,-152,556,-1.00,-1.0
6177,16916,-88,672,-1.00,-1.0
6179,17080,-116,504,-1.00,-1.0
6181,16972,-116,668,-1.00,-1.0
6183,17040,88,608,-1.00,-1.0
6185,17028,-32,532,-1.00,-1.0
6189,16920,-28,536,-1.00,-1.0
6191,16976,-28,492,-1.00,-1.0
6193,17040,-32,496,-1.00,-1.0
6195,17008,-124,508,-1.00,-1.0
6197,17048,-32,580,-1.00,-1.0
6199,16956,-64,648,-1.00,-1.0
6201,17032,44,652,-1.00,-1.0
6203,17028,12,556,-1.00,-1.0
6205,16964,-24,604,-1.00,-1.0
6207,16976,-44,624,-1.00,-1.0
6209,16988,-16,528,-1.00,-1.0
6210,16972,-88,544,-1.00,-1.0
6212,16972,-44,572,-1.00,-1.0
6214,16984,-120,564,-1.00,-1.0
6216,16984,-52,600,-1.00,-1.0
6218,17036,84,444,-1.00,-1.0
6220,17048,-48,544,-1.00,-1.0
6224,16952,56,532,-1.00,-1.0
6226,17016,-56,728,-1.00,-1.0
6228,17020,-44,580,-1.00,-1.0
6230,16924,-104,692,-1.00,-1.0
6232,17048,-16,424,-1.00,-1.0
6234,17012,-80,444,-1.00,-1.0
6236,16992,56,632,-1.00,-1.0
6238,17016,-88,612,-1.00,-1.0
6240,17084,-128,560,-1.00,-1.0
6242,17032,-88,740,-1.00,-1.0
6244,16928,-100,596,-1.00,-1.0
6246,17072,-136,700,-1.00,-1.0
6248,17036,-24,788,-1.00,-1.0
6250,17080,12,636,-1.00,-1.0
6252,17092,-24,624,-1.00,-1.0
6254,17040,-64,696,-1.00,-1.0
6255,16940,-12,676,-1.00,-1.0
6260,16952,-16,628,-1.00,-1.0
6262,16988,-20,660,-1.00,-1.0
6264,16956,-20,724,-1.00,-1.0
6265,17000,-20,576,-1.00,-1.0
6268,17036,-20,640,-1.00,-1.0
6269,17020,20,596,-1.00,-1.0
6271,17028,-12,624,-1.00,-1.0
6273,16928,-36,552,-1.00,-1.0
6275,17064,-44,720,-1.00,-1.0
6277,17052,-84,656,-1.00,-1.0
6279,16972,-116,644,-1.00,-1.0
6281,17044,-16,564,-1.00,-1.0
6283,17000,-40,616,-1.00,-1.0
6285,17036,-124,704,-1.00,-1.0
6287,16976,-12,624,-1.00,-1.0
6289,17056,-100,468,-1.00,-1.0
6291,17016,-16,688,-1.00,-1.0
6295,17004,-100,592,-1.00,-1.0
6297,17016,-168,584,-1.00,-1.0
6299,16936,-88,728,-1.00,-1.0
6301,16980,-108,688,-1.00,-1.0
6303,16980,-28,688,-1.00,-1.0
6305,17044,-56,592,-1.00,-1.0
6307,16984,-8,532,-1.00,-1.0
6309,16964,-52,588,-1.00,-1.0
6310,17064,-132,716,-1.00,-1.0
6312,17092,-120,568,-1.00,-1.0
6314,16960,-88,664,-1.00,-1.0
6316,17004,-68,552,-1.00,-1.0
6318,16972,-48,440,-1.00,-1.0
6320,16984,-36,620,-1.00,-1.0
6322,17000,-28,596,-1.00,-1.0
6324,17032,-136,564,-1.00,-1.0
6326,17080,-20,684,-1.00,-1.0
6330,17084,-28,580,-1.00,-1.0
6332,17068,-32,656,-1.00,-1.0
6334,16976,-32,696,-1.00,-1.0
6336,17072,-132,704,-1.00,-1.0
6338,17044,16,668,-1.00,-1.0
6340,17056,-108,660,-1.00,-1.0
6342,16952,-108,596,-1.00,-1.0
6344,16948,12,520,-1.00,-1.0
6346,17008,-12,400,-1.00,-1.0
6348,17112,-60,440,-1.00,-1.0
6350,16976,36,764,-1.00,-1.0
6352,17032,-72,600,-1.00,-1.0
6353,16956,-120,732,-1.00,-1.0
6355,17004,60,600,-1.00,-1.0
6357,17004,12,588,-1.00,-1.0
6359,16936,-12,532,-1.00,-1.0
6361,16956,4,644,-1.00,-1.0
6365,17004,-40,580,-1.00,-1.0
6367,16956,-60,636,-1.00,-1.0
6369,17020,16,636,-1.00,-1.0
6371,16968,-60,572,-1.00,-1.0
6373,16936,-88,528,-1.00,-1.0
6375,16960,-20,652,-1.00,-1.0
6377,17056,-72,660,-1.00,-1.0
6379,16956,-60,588,-1.00,-1.0
6381,17004,-48,480,-1.00,-1.0
6383,16964,-28,500,-1.00,-1.0
6385,17060,-32,592,-1.00,-1.0
6387,17020,-96,644,-1.00,-1.0
6388,17028,-92,588,-1.00,-1.0
6390,16936,20,600,-1.00,-1.0
6392,16976,-40,440,-1.00,-1.0
6394,17096,-20,476,-1.00,-1.0
6396,16952,-20,748,-1.00,-1.0
6400,17144,44,676,-1.00,-1.0
6402,16904,-12,580,-1.00,-1.0
6404,17060,-52,652,-1.00,-1.0
6406,17056,-8,608,-1.00,-1.0
6408,16984,0,560,-1.00,-1.0
6410,16948,-84,540,-1.00,-1.0
6412,17008,-76,752,-1.00,-1.0
6414,16956,-52,764,-1.00,-1.0
6416,16948,4,440,-1.00,-1.0
6418,17056,80,616,-1.00,-1.0
6420,16996,-100,684,-1.00,-1.0
6422,16940,-16,664,-1.00,-1.0
6424,16936,-112,756,-1.00,-1.0
6426,17020,-48,472,-1.00,-1.0
6428,17000,-104,688,-1.00,-1.0
6430,16960,-60,532,-1.00,-1.0
6431,17052,8,588,-1.00,-1.0
6433,16964,-56,548,-1.00,-1.0
6438,16996,-196,508,-1.00,-1.0
6440,17064,-68,604,-1.00,-1.0
6441,16872,-60,660,-1.00,-1.0
6443,16996,0,684,-1.00,-1.0
6445,16988,4,704,-1.00,-1.0
6447,16944,-4,640,-1.00,-1.0
6449,16940,20,656,-1.00,-1.0
6451,17016,24,500,-1.00,-1.0
6453,16976,-56,432,-1.00,-1.0
6455,17036,-36,704,-1.00,-1.0
6457,17072,-52,536,-1.00,-1.0
6459,16936,-16,732,-1.00,-1.0
6461,16976,-96,624,-1.00,-1.0
6463,17012,-40,680,-1.00,-1.0
6465,17016,-12,660,-1.00,-1.0
6467,17044,-84,476,-1.00,-1.0
6469,16872,0,632,-1.00,-1.0
6473,16920,-112,596,-1.00,-1.0
6475,16964,-88,524,-1.00,-1.0
6477,16980,-40,668,-1.00,-1.0
6479,17104,-112,556,-1.00,-1.0
6481,17100,-36,688,-1.00,-1.0
6483,17044,-104,636,-1.00,-1.0
6485,17044,-88,656,-1.00,-1.0
6486,17020,-56,592,-1.00,-1.0
6488,16912,-28,644,-1.00,-1.0
6490,16948,-20,588,-1.00,-1.0
6492,16892,-76,556,-1.00,-1.0
6494,17004,36,632,-1.00,-1.0
6496,16980,24,512,-1.00,-1.0
6498,16912,-36,684,-1.00,-1.0
6500,17036,-68,676,-1.00,-1.0
6502,17028,20,676,-1.00,-1.0
6504,16872,-28,548,-1.00,-1.0
6508,16908,20,628,-1.00,-1.0
6510,16912,-44,652,-1.00,-1.0
6512,17028,-88,724,-1.00,-1.0
6514,16940,-76,696,-1.00,-1.0
6516,16992,48,608,-1.00,-1.0
6518,17012,0,552,-1.00,-1.0
6520,16904,4,592,-1.00,-1.0
6522,16956,28,516,-1.00,-1.0
6524,16976,-40,552,-1.00,-1.0
6526,17004,32,568,-1.00,-1.0
6528,16992,12,612,-1.00,-1.0
6529,17032,-28,664,-1.00,-1.0
6531,17040,-16,484,-1.00,-1.0
6533,17024,-48,468,-1.00,-1.0
6535,17012,-96,644,-1.00,-1.0
6537,17032,4,600,-1.00,-1.0
6539,17000,-20,624,-1.00,-1.0
6543,17040,-44,700,-1.00,-1.0
6545,16976,-44,616,-1.00,-1.0
6547,17052,-76,824,-1.00,-1.0
6549,16996,-44,592,-1.00,-1.0
6551,17036,-64,604,-1.00,-1.0
6553,17048,-56,736,-1.00,-1.0
6555,16944,-4,676,-1.00,-1.0
6557,17032,-40,552,-1.00,-1.0
6559,17064,-16,760,-1.00,-1.0
6561,17068,-16,716,-1.00,-1.0
6563,16892,-68,640,-1.00,-1.0
6565,16992,-28,632,-1.00,-1.0
6567,16948,-92,576,-1.00,-1.0
6569,17016,-136,748,-1.00,-1.0
6571,17056,-64,732,-1.00,-1.0
6573,16984,-40,556,-1.00,-1.0
6574,16964,-76,464,-1.00,-1.0
6579,16928,48,648,-1.00,-1.0
6581,16960,-12,684,-1.00,-1.0
6583,16948,-96,544,-1.00,-1.0
6584,17068,-64,800,-1.00,-1.0
6586,17052,12,668,-1.00,-1.0
6588,17040,-112,684,-1.00,-1.0
6590,17020,12,520,-1.00,-1.0
6592,17040,40,568,-1.00,-1.0
6594,16992,-32,508,-1.00,-1.0
6596,16936,-64,728,-1.00,-1.0
6598,16968,-40,656,-1.00,-1.0
6600,17016,-20,712,-1.00,-1.0
6602,16956,-24,580,-1.00,-1.0
6604,17044,-84,572,-1.00,-1.0
6606,16956,-72,660,-1.00,-1.0
6608,16920,-80,700,-1.00,-1.0
6610,16968,-32,664,-1.00,-1.0
6612,17008,-120,660,-1.00,-1.0
6616,16912,-64,736,-1.00,-1.0
6618,16932,24,724,-1.00,-1.0
6620,16944,-32,616,-1.00,-1.0
6622,16904,-16,804,-1.00,-1.0
6624,17000,12,668,-1.00,-1.0
6626,16944,44,544,-1.00,-1.0
6627,16936,-80,632,-1.00,-1.0
6629,16956,20,564,-1.00,-1.0
6631,17052,20,548,-1.00,-1.0
6633,17032,-76,500,-1.00,-1.0
6635,16952,-84,752,-1.00,-1.0
6637,16976,-64,572,-1.00,-1.0
6639,17076,-16,620,-1.00,-1.0
6641,16984,-140,712,-1.00,-1.0
6643,17064,28,472,-1.00,-1.0
6645,16896,-48,696,-1.00,-1.0
6647,16956,-108,644,-1.00,-1.0
6651,16976,-28,592,-1.00,-1.0
6653,17084,-56,496,-1.00,-1.0
6655,16972,-108,596,-1.00,-1.0
6656,17016,-160,636,-1.00,-1.0
6659,16916,60,660,-1.00,-1.0
6660,16984,76,712,-1.00,-1.0
6662,16924,4,416,-1.00,-1.0
6664,17016,-144,632,-1.00,-1.0
6666,16880,-24,692,-1.00,-1.0
6668,16916,-20,580,-1.00,-1.0
6670,17044,0,636,-1.00,-1.0
6672,16948,-112,584,-1.00,-1.0
6674,16932,-4,564,-1.00,-1.0
6676,16880,-4,644,-1.00,-1.0
6678,17000,-144,616,-1.00,-1.0
6680,16924,84,560,-1.00,-1.0
6682,16892,-132,640,-1.00,-1.0
6686,17000,-100,480,-1.00,-1.0
6688,17000,-76,764,-1.00,-1.0
6690,16900,-96,636,-1.00,-1.0
6692,17040,-8,572,-1.00,-1.0
6694,17068,36,672,-1.00,-1.0
6696,17008,-124,708,-1.00,-1.0
6698,16984,-8,644,-1.00,-1.0
6700,16852,-48,808,-1.00,-1.0
6701,16892,48,560,-1.00,-1.0
6703,16932,-60,608,-1.00,-1.0
6705,16988,-36,564,-1.00,-1.0
6707,17032,-52,676,-1.00,-1.0
6709,17096,-8,576,-1.00,-1.0
6711,17048,44,476,-1.00,-1.0
6713,16980,-44,468,-1.00,-1.0
6715,17048,72,464,-1.00,-1.0
6717,17092,-72,456,-1.00,-1.0
6721,16944,-12,620,-1.00,-1.0
6723,17024,-104,536,-1.00,-1.0
6725,17144,-8,628,-1.00,-1.0
6727,16988,-52,656,-1.00,-1.0
6729,17040,36,604,-1.00,-1.0
6731,16840,-100,740,-1.00,-1.0
6733,17008,-60,500,-1.00,-1.0
6735,17112,-60,640,-1.00,-1.0
6737,17040,-52,560,-1.00,-1.0
6739,16956,-116,580,-1.00,-1.0
6741,17008,-52,608,-1.00,-1.0
6743,17032,-100,564,-1.00,-1.0
6745,16988,-40,568,-1.00,-1.0
6747,17032,-196,552,-1.00,-1.0
6749,16984,12,524,-1.00,-1.0
6750,17024,-20,580,-1.00,-1.0
6752,16936,-112,608,-1.00,-1.0
6757,17048,-120,680,-1.00,-1.0
6759,17012,-12,628,-1.00,-1.0
6761,16992,-44,504,-1.00,-1.0
6763,17072,-44,656,-1.00,-1.0
6765,16980,-8,624,-1.00,-1.0
6767,16936,-40,700,-1.00,-1.0
6768,16984,-72,696,-1.00,-1.0
6770,16952,20,528,-1.00,-1.0
6772,16916,-52,592,-1.00,-1.0
6774,17064,-32,564,-1.00,-1.0
6776,17024,24,460,-1.00,-1.0
6778,17048,32,588,-1.00,-1.0
6780,16960,-48,508,-1.00,-1.0
6782,17012,0,580,-1.00,-1.0
6784,17044,-116,532,-1.00,-1.0
6786,17044,16,628,-1.00,-1.0
6788,16992,-32,496,-1.00,-1.0
6792,16988,36,692,-1.00,-1.0
6794,16956,-60,612,-1.00,-1.0
6796,17012,-60,588,-1.00,-1.0
6798,17096,-60,592,-1.00,-1.0
6800,17028,-16,636,-1.00,-1.0
6802,17052,-52,712,-1.00,-1.0
6804,16920,-100,728,-1.00,-1.0
6806,16956,-48,432,-1.00,-1.0
6808,17140,-88,600,-1.00,-1.0
6810,16960,-48,548,-1.00,-1.0
6812,17036,16,624,-1.00,-1.0
6813,17000,-8,612,-1.00,-1.0
6815,16916,56,496,-1.00,-1.0
6817,16960,-72,624,-1.00,-1.0
6819,16936,-16,672,-1.00,-1.0
6821,16940,24,568,-1.00,-1.0
6823,16984,-36,556,-1.00,-1.0
6825,16980,-76,624,-1.00,-1.0
6829,16928,-92,728,-1.00,-1.0
6831,17040,-4,704,-1.00,-1.0
6833,16912,-48,656,-1.00,-1.0
6835,16976,-24,532,-1.00,-1.0
6837,17000,-36,592,-1.00,-1.0
6839,17072,24,580,-1.00,-1.0
6841,16956,-132,672,-1.00,-1.0
6843,17016,-28,592,-1.00,-1.0
6845,16908,-44,632,-1.00,-1.0
6847,16976,-48,624,-1.00,-1.0
6849,16992,-8,464,-1.00,-1.0
6851,16972,-8,408,-1.00,-1.0
6853,16956,-28,676,-1.00,-1.0
6855,17004,-48,604,-1.00,-1.0
6857,16972,-16,628,-1.00,-1.0
6858,16964,-176,604,-1.00,-1.0
6860,16980,-108,544,-1.00,-1.0
6865,16988,-12,540,-1.00,-1.0
6867,17052,-92,732,-1.00,-1.0
6868,16864,-44,572,-1.00,-1.0
6870,17104,-100,572,-1.00,-1.0
6872,17132,-68,708,-1.00,-1.0
6874,17040,64,504,-1.00,-1.0
6876,16960,-52,692,-1.00,-1.0
6878,17016,-68,576,-1.00,-1.0
6880,16976,4,736,-1.00,-1.0
6882,17020,-76,556,-1.00,-1.0
6884,16980,-80,512,-1.00,-1.0
6886,17004,-136,564,-1.00,-1.0
6888,17052,-96,560,-1.00,-1.0
6890,17012,0,532,-1.00,-1.0
6892,17012,-32,652,-1.00,-1.0
6894,17024,-56,632,-1.00,-1.0
6896,16996,24,596,-1.00,-1.0
6901,16992,40,636,-1.00,-1.0
6903,17016,-112,752,-1.00,-1.0
6905,17012,-72,628,-1.00,-1.0
6907,17028,-56,508,-1.00,-1.0
6909,16940,24,592,-1.00,-1.0
6911,16980,-108,616,-1.00,-1.0
6913,16976,-72,616,-1.00,-1.0
6915,17028,84,668,-1.00,-1.0
6917,17016,-44,704,-1.00,-1.0
6919,17000,0,656,-1.00,-1.0
6921,17040,28,672,-1.00,-1.0
6923,16956,-120,680,-1.00,-1.0
6925,17060,-88,592,-1.00,-1.0
6927,16956,32,600,-1.00,-1.0
6929,16952,-20,712,-1.00,-1.0
6931,17012,-84,552,-1.00,-1.0
6932,17032,-88,616,-1.00,-1.0
6937,16980,-40,676,-1.00,-1.0
6939,17016,-56,632,-1.00,-1.0
6941,16980,-52,628,-1.00,-1.0
6943,16912,-36,536,-1.00,-1.0
6945,16980,-96,580,-1.00,-1.0
6947,17152,-84,504,-1.00,-1.0
6949,16980,-112,532,-1.00,-1.0
6950,16972,-136,372,-1.00,-1.0
6952,16980,-152,632,-1.00,-1.0
6954,16980,-124,608,-1.00,-1.0
6956,17048,-44,520,-1.00,-1.0
6958,16968,-76,632,-1.00,-1.0
6960,17064,16,596,-1.00,-1.0
6962,17192,-72,604,-1.00,-1.0
6964,16936,-72,472,-1.00,-1.0
6966,16996,32,480,-1.00,-1.0
6968,17016,8,648,-1.00,-1.0
6972,17036,-76,548,-1.00,-1.0
6974,17008,-140,560,-1.00,-1.0
6976,17008,-48,668,-1.00,-1.0
6978,17020,-76,580,-1.00,-1.0
6980,16952,-20,584,-1.00,-1.0
6982,16992,-32,660,-1.00,-1.0
6984,16984,12,572,-1.00,-1.0
6986,16900,-8,660,-1.00,-1.0
6988,16992,-64,588,-1.00,-1.0
6990,16924,-112,696,-1.00,-1.0
6992,16960,-136,484,-1.00,-1.0
6993,17060,44,652,-1.00,-1.0
6995,16964,-36,632,-1.00,-1.0
6997,16996,-20,612,-1.00,-1.0
6999,17148,-104,612,-1.00,-1.0
7001,17036,-108,608,-1.00,-1.0
7003,16944,24,612,-1.00,-1.0
7007,16956,-8,572,-1.00,-1.0
7009,17168,-72,636,-1.00,-1.0
7011,17012,-140,596,-1.00,-1.0
7013,17016,-104,724,-1.00,-1.0
7015,16924,36,592,-1.00,-1.0
7017,16996,-12,620,-1.00,-1.0
7019,17000,-36,616,-1.00,-1.0
7021,17024,84,536,-1.00,-1.0
7023,17028,-88,680,-1.00,-1.0
7025,17020,-88,688,-1.00,-1.0
7027,17084,-80,672,-1.00,-1.0
7029,17008,-72,668,-1.00,-1.0
7031,17016,-52,528,-1.00,-1.0
7033,16992,-36,584,-1.00,-1.0
7035,16936,44,628,-1.00,-1.0
7037,16944,-72,624,-1.00,-1.0
7038,17052,-40,676,-1.00,-1.0
7043,16948,-124,708,-1.00,-1.0
7045,17104,24,572,-1.00,-1.0
7047,16980,-88,692,-1.00,-1.0
7048,16988,-116,632,-1.00,-1.0
7050,16948,56,620,-1.00,-1.0
7052,16912,-32,556,-1.00,-1.0
7054,16904,12,812,-1.00,-1.0
7056,17064,-52,740,-1.00,-1.0
7058,17028,-48,596,-1.00,-1.0
7060,16932,-68,596,-1.00,-1.0
7062,16988,52,624,-1.00,-1.0
7064,16960,-76,508,-1.00,-1.0
7066,16956,-172,568,-1.00,-1.0
7068,17032,-32,728,-1.00,-1.0
7070,17028,-8,596,-1.00,-1.0
7072,17024,-72,544,-1.00,-1.0
7074,17008,0,632,-1.00,-1.0
7076,17048,24,748,-1.00,-1.0
7080,16980,-32,648,-1.00,-1.0
7082,17032,36,668,-1.00,-1.0
7084,16908,-52,744,-1.00,-1.0
7086,17024,-84,640,-1.00,-1.0
7088,17036,-44,616,-1.00,-1.0
7090,16968,-56,732,-1.00,-1.0
7092,16932,-108,612,-1.00,-1.0
7093,16972,-104,676,-1.00,-1.0
7096,16944,-88,620,-1.00,-1.0
7097,16984,-96,696,-1.00,-1.0
7099,16896,-88,676,-1.00,-1.0
7101,17020,-28,640,-1.00,-1.0
7103,16956,-56,608,-1.00,-1.0
7105,16996,-60,512,-1.00,-1.0
7107,17020,-80,552,-1.00,-1.0
7109,16948,0,588,-1.00,-1.0
7111,16960,8,592,-1.00,-1.0
7115,16900,-108,644,-1.00,-1.0
7117,17080,-28,608,-1.00,-1.0
7119,16980,28,684,-1.00,-1.0
7121,16960,-144,576,-1.00,-1.0
7123,17000,-36,540,-1.00,-1.0
7125,17072,-36,584,-1.00,-1.0
7127,17040,-40,520,-1.00,-1.0
7129,17000,-76,580,-1.00,-1.0
7131,17020,4,596,-1.00,-1.0
7133,17032,-24,512,-1.00,-1.0
7135,16856,-32,460,-1.00,-1.0
7137,17084,-64,644,-1.00,-1.0
7138,17064,-96,612,-1.00,-1.0
7140,16976,36,684,-1.00,-1.0
7142,17036,-88,740,-1.00,-1.0
7144,17016,-12,508,-1.00,-1.0
7146,16900,-60,548,-1.00,-1.0
7150,17008,-44,684,-1.00,-1.0
7152,17028,44,580,-1.00,-1.0
7154,16964,-32,600,-1.00,-1.0
7156,17052,-36,580,-1.00,-1.0
7158,17036,-4,608,-1.00,-1.0
7160,17044,-44,676,-1.00,-1.0
7162,17020,-88,616,-1.00,-1.0
7164,17016,-28,536,-1.00,-1.0
7166,16964,68,712,-1.00,-1.0
7168,17028,-4,696,-1.00,-1.0
7170,17052,-124,528,-1.00,-1.0
7172,17008,36,536,-1.00,-1.0
7174,17004,-32,672,-1.00,-1.0
7176,16892,-104,588,-1.00,-1.0
7178,16964,-108,600,-1.00,-1.0
7180,16944,-28,464,-1.00,-1.0
7181,16952,-8,644,-1.00,-1.0
7186,17032,4,656,-1.00,-1.0
7188,16992,-80,588,-1.00,-1.0
7189,16956,-60,620,-1.00,-1.0
7191,17036,8,640,-1.00,-1.0
7193,16944,-96,528,-1.00,-1.0
7195,17008,-84,544,-1.00,-1.0
7197,17068,-104,572,-1.00,-1.0
7199,16956,-152,668,-1.00,-1.0
7201,16916,0,560,-1.00,-1.0
7203,17096,40,488,-1.00,-1.0
7205,16952,-80,568,-1.00,-1.0
7207,17052,-188,596,-1.00,-1.0
7209,16984,-88,620,-1.00,-1.0
7211,17040,-112,728,-1.00,-1.0
7213,17084,-96,712,-1.00,-1.0
7215,17036,-24,632,-1.00,-1.0
7217,16984,-80,732,-1.00,-1.0
7221,16912,-48,448,-1.00,-1.0
7223,16924,-80,480,-1.00,-1.0
7224,17036,-132,652,-1.00,-1.0
7226,17120,-4,568,-1.00,-1.0
7228,16932,-52,580,-1.00,-1.0
7230,16952,52,756,-1.00,-1.0
7232,16892,8,612,-1.00,-1.0
7234,17012,-4,556,-1.00,-1.0
7236,17064,12,628,-1.00,-1.0
7238,17024,-64,624,-1.00,-1.0
7240,16884,-68,552,-1.00,-1.0
7242,16888,-112,760,-1.00,-1.0
7244,16932,-88,644,-1.00,-1.0
7246,17000,-80,400,-1.00,-1.0
7248,17020,-68,660,-1.00,-1.0
7250,16984,-20,732,-1.00,-1.0
7252,17008,-68,816,-1.00,-1.0
7256,16980,-144,584,-1.00,-1.0
7258,17052,-52,472,-1.00,-1.0
7260,16984,-60,484,-1.00,-1.0
7262,16980,-28,480,-1.00,-1.0
7264,16960,-108,588,-1.00,-1.0
7266,16980,-56,580,-1.00,-1.0
7268,16960,16,756,-1.00,-1.0
7269,16980,-100,564,-1.00,-1.0
7271,16960,-40,536,-1.00,-1.0
7273,16924,-32,692,-1.00,-1.0
7275,17052,-40,696,-1.00,-1.0
7277,17036,-28,636,-1.00,-1.0
7279,17020,-116,460,-1.00,-1.0
7281,16944,44,592,-1.00,-1.0
7283,17052,-120,644,-1.00,-1.0
7285,16984,-32,604,-1.00,-1.0
7287,17060,-100,600,-1.00,-1.0
7291,17024,-24,736,-1.00,-1.0
7293,16940,-52,592,-1.00,-1.0
7295,16964,-52,684,-1.00,-1.0
7297,16944,-36,756,-1.00,-1.0
7299,17092,-100,584,-1.00,-1.0
7301,16888,-52,496,-1.00,-1.0
7303,17004,88,600,-1.00,-1.0
7305,16972,12,612,-1.00,-1.0
7307,16960,-152,620,-1.00,-1.0
7309,17040,-152,568,-1.00,-1.0
7311,16944,-84,648,-1.00,-1.0
7313,17052,16,536,-1.00,-1.0
7314,16960,-32,584,-1.00,-1.0
7317,16920,-40,592,-1.00,-1.0
7319,17036,-152,644,-1.00,-1.0
7320,16932,-4,744,-1.00,-1.0
7322,17084,-76,676,-1.00,-1.0
7327,17096,16,608,-1.00,-1.0
7329,17096,36,652,-1.00,-1.0
7330,17044,-36,460,-1.00,-1.0
7332,16988,-20,632,-1.00,-1.0
7334,17040,-16,564,-1.00,-1.0
7336,16904,-28,548,-1.00,-1.0
7338,17008,-16,476,-1.00,-1.0
7340,17060,12,648,-1.00,-1.0
7342,17012,8,612,-1.00,-1.0
7344,16964,-20,608,-1.00,-1.0
7346,16972,40,508,-1.00,-1.0
7348,17016,-88,544,-1.00,-1.0
7350,16972,-32,540,-1.00,-1.0
7352,16968,-40,620,-1.00,-1.0
7354,16928,-60,492,-1.00,-1.0
7356,16992,-16,768,-1.00,-1.0
7358,16984,24,668,-1.00,-1.0
7360,17060,80,728,-1.00,-1.0
7364,17060,-128,572,-1.00,-1.0
7366,16972,-20,660,-1.00,-1.0
7368,17052,-64,676,-1.00,-1.0
7370,17020,-8,648,-1.00,-1.0
7372,16988,12,536,-1.00,-1.0
7374,16928,-128,556,-1.00,-1.0
7376,17000,-64,552,-1.00,-1.0
7378,17048,-116,592,-1.00,-1.0
7380,17060,-140,656,-1.00,-1.0
7382,17048,-72,584,-1.00,-1.0
7383,17020,-8,648,-1.00,-1.0
7385,17044,-96,504,-1.00,-1.0
7387,16980,0,528,-1.00,-1.0
7389,17004,-148,480,-1.00,-1.0
7391,17076,-124,620,-1.00,-1.0
7393,16956,16,696,-1.00,-1.0
7395,16992,-4,572,-1.00,-1.0
7399,16972,-88,724,-1.00,-1.0
7401,17044,-52,580,-1.00,-1.0
7403,17052,0,592,-1.00,-1.0
7405,17024,-132,776,-1.00,-1.0
7407,17052,-52,536,-1.00,-1.0
7409,17024,24,740,-1.00,-1.0
7411,16988,-60,496,-1.00,-1.0
7413,17008,-28,580,-1.00,-1.0
7415,16992,44,676,-1.00,-1.0
7417,16884,56,660,-1.00,-1.0
7419,16976,-68,768,-1.00,-1.0
7421,16992,-100,700,-1.00,-1.0
7422,16960,44,560,-1.00,-1.0
7425,17108,-40,632,-1.00,-1.0
7427,17028,-60,732,-1.00,-1.0
7428,16844,0,592,-1.00,-1.0
7430,17008,4,612,-1.00,-1.0
7434,17068,-76,592,-1.00,-1.0
7436,17024,-4,456,-1.00,-1.0
7438,16988,-80,664,-1.00,-1.0
7440,16980,-156,700,-1.00,-1.0
7442,16944,-40,604,-1.00,-1.0
7444,16992,-8,508,-1.00,-1.0
7446,16956,-100,644,-1.00,-1.0
7448,17108,28,668,-1.00,-1.0
7450,16964,-100,588,-1.00,-1.0
7452,16984,0,656,-1.00,-1.0
7454,16940,-36,728,-1.00,-1.0
7456,16976,-128,556,-1.00,-1.0
7458,17048,-12,516,-1.00,-1.0
7460,17076,-76,580,-1.00,-1.0
7462,17120,-68,640,-1.00,-1.0
7464,17020,-52,564,-1.00,-1.0
7466,17032,-56,692,-1.00,-1.0
7470,17008,-52,772,-1.00,-1.0
7472,16988,-16,712,-1.00,-1.0
7473,16976,-16,764,-1.00,-1.0
7475,16972,-36,668,-1.00,-1.0
7477,16936,-36,724,-1.00,-1.0
7479,16988,-24,520,-1.00,-1.0
7481,17028,-20,568,-1.00,-1.0
7483,17072,-60,644,-1.00,-1.0
7485,17088,-128,624,-1.00,-1.0
7487,16948,-68,528,-1.00,-1.0
7489,16960,-88,536,-1.00,-1.0
7491,16968,12,724,-1.00,-1.0
7493,17044,-104,528,-1.00,-1.0
7495,17012,-96,600,-1.00,-1.0
7497,17028,-32,464,-1.00,-1.0
7499,16920,-12,592,-1.00,-1.0
7501,17036,-120,520,-1.00,-1.0
7505,17000,12,536,-1.00,-1.0
7507,16920,-40,608,-1.00,-1.0
7508,17048,-64,604,-1.00,-1.0
7510,17012,-60,428,-1.00,-1.0
7512,16980,-88,660,-1.00,-1.0
7514,16992,-84,700,-1.00,-1.0
7516,17008,-48,588,-1.00,-1.0
7518,17036,-76,660,-1.00,-1.0
7520,16920,0,632,-1.00,-1.0
7522,16932,-48,648,-1.00,-1.0
7524,16920,-52,584,-1.00,-1.0
7526,17084,-8,532,-1.00,-1.0
7528,17052,-48,484,-1.00,-1.0
7530,16980,-104,484,-1.00,-1.0
7532,16884,-24,660,-1.00,-1.0
7534,16892,32,520,-1.00,-1.0
7536,17036,-24,700,-1.00,-1.0
7540,16932,-120,540,-1.00,-1.0
7542,17032,-76,588,-1.00,-1.0
7544,16956,-128,688,-1.00,-1.0
7546,16972,-96,592,-1.00,-1.0
7548,16952,-76,476,-1.00,-1.0
7550,17016,-52,644,-1.00,-1.0
7552,17044,-84,580,-1.00,-1.0
7553,17064,-40,560,-1.00,-1.0
7555,17048,-120,628,-1.00,-1.0
7557,17124,-20,432,-1.00,-1.0
7559,17056,-12,536,-1.00,-1.0
7561,17020,-36,736,-1.00,-1.0
7563,16996,-84,668,-1.00,-1.0
7565,16952,-40,580,-1.00,-1.0
7567,17068,-76,608,-1.00,-1.0
7569,16992,-28,684,-1.00,-1.0
7571,16980,-88,572,-1.00,-1.0
7575,16972,-64,608,-1.00,-1.0
7577,16948,-88,656,-1.00,-1.0
7579,16960,-4,608,-1.00,-1.0
7581,16996,-176,644,-1.00,-1.0
7583,17048,-76,624,-1.00,-1.0
7585,17108,-12,620,-1.00,-1.0
7587,16968,-36,808,-1.00,-1.0
7589,16976,8,712,-1.00,-1.0
7591,17036,-60,460,-1.00,-1.0
7593,17048,-148,564,-1.00,-1.0
7595,16940,-148,600,-1.00,-1.0
7597,16960,-100,540,-1.00,-1.0
7598,17004,-140,616,-1.00,-1.0
7601,16932,16,632,-1.00,-1.0
7602,17000,20,632,-1.00,-1.0
7604,17016,-56,652,-1.00,-1.0
7606,17020,24,668,-1.00,-1.0
7608,16956,-76,564,-1.00,-1.0
7612,16960,-4,552,-1.00,-1.0
7614,16964,-72,580,-1.00,-1.0
7616,17000,4,576,-1.00,-1.0
7618,17044,-140,464,-1.00,-1.0
7620,16992,-16,604,-1.00,-1.0
7622,17012,-52,520,-1.00,-1.0
7624,17000,-20,704,-1.00,-1.0
7626,17032,-68,668,-1.00,-1.0
7628,16976,0,724,-1.00,-1.0
7630,16968,-92,740,-1.00,-1.0
7632,17012,-68,692,-1.00,-1.0
7634,17088,-80,488,-1.00,-1.0
7636,16952,-92,616,-1.00,-1.0
7638,16956,-44,572,-1.00,-1.0
7640,17000,-28,544,-1.00,-1.0
7642,16920,-196,624,-1.00,-1.0
7643,16964,-88,528,-1.00,-1.0
7648,17040,-100,608,-1.00,-1.0
7650,16980,-56,536,-1.00,-1.0
7651,16952,0,528,-1.00,-1.0
7653,16912,-16,508,-1.00,-1.0
7655,16968,-60,684,-1.00,-1.0
7657,17104,8,568,-1.00,-1.0
7659,16904,-88,656,-1.00,-1.0
7661,16972,-56,688,-1.00,-1.0
7663,17100,-24,612,-1.00,-1.0
7665,16896,-100,536,-1.00,-1.0
7667,17060,24,564,-1.00,-1.0
7669,17008,-24,708,-1.00,-1.0
7671,16984,-28,584,-1.00,-1.0
7673,17048,68,724,-1.00,-1.0
7675,17088,-96,600,-1.00,-1.0
7677,16948,36,648,-1.00,-1.0
7679,16968,36,540,-1.00,-1.0
7683,17000,-28,636,-1.00,-1.0
7685,17020,-32,568,-1.00,-1.0
7687,16896,-12,496,-1.00,-1.0
7689,16932,0,644,-1.00,-1.0
7691,17036,4,556,-1.00,-1.0
7693,17108,-72,792,-1.00,-1.0
7695,16980,24,648,-1.00,-1.0
7696,16948,-4,476,-1.00,-1.0
7698,17004,-48,624,-1.00,-1.0
7700,16992,-72,520,-1.00,-1.0
7702,17016,-132,568,-1.00,-1.0
7704,17044,-32,732,-1.00,-1.0
7706,17048,-24,612,-1.00,-1.0
7708,16964,-48,572,-1.00,-1.0
7710,17068,-44,652,-1.00,-1.0
7712,17000,-76,580,-1.00,-1.0
7714,16904,-16,544,-1.00,-1.0
7718,16952,-36,600,-1.00,-1.0
7720,16972,-20,656,-1.00,-1.0
7722,17040,-72,520,-1.00,-1.0
7724,16984,36,572,-1.00,-1.0
7726,16896,-156,652,-1.00,-1.0
7728,17060,-36,548,-1.00,-1.0
7730,17048,-36,580,-1.00,-1.0
7732,17040,-32,852,-1.00,-1.0
7734,16976,-72,604,-1.00,-1.0
7736,17032,-132,652,-1.00,-1.0
7738,17028,72,764,-1.00,-1.0
7740,17004,-4,740,-1.00,-1.0
7741,16924,-8,520,-1.00,-1.0
7744,16944,-36,548,-1.00,-1.0
7745,16932,-44,712,-1.00,-1.0
7747,16980,-112,652,-1.00,-1.0
7749,16948,-24,424,-1.00,-1.0
7753,16984,16,596,-1.00,-1.0
7755,17004,0,612,-1.00,-1.0
7757,16936,-28,560,-1.00,-1.0
7759,17012,64,596,-1.00,-1.0
7761,17008,12,736,-1.00,-1.0
7763,16992,-28,492,-1.00,-1.0
7765,17000,-16,720,-1.00,-1.0
7767,17008,-56,532,-1.00,-1.0
7769,16984,-8,644,-1.00,-1.0
7771,16996,20,632,-1.00,-1.0
7773,16940,-20,648,-1.00,-1.0
7775,16972,-44,688,-1.00,-1.0
7777,16928,-72,616,-1.00,-1.0
7779,16832,-104,488,-1.00,-1.0
7781,17000,-84,488,-1.00,-1.0
7783,17056,-28,400,-1.00,-1.0
7784,16952,-80,520,-1.00,-1.0
7786,16932,-128,568,-1.00,-1.0
7790,16940,64,660,-1.00,-1.0
7792,17100,-68,536,-1.00,-1.0
7794,17048,-44,652,-1.00,-1.0
7796,17060,-64,560,-1.00,-1.0
7798,17016,28,528,-1.00,-1.0
7800,17064,32,528,-1.00,-1.0
7802,17076,-64,688,-1.00,-1.0
7804,16996,-4,416,-1.00,-1.0
7806,16944,-52,556,-1.00,-1.0
7808,17084,-28,412,-1.00,-1.0
7810,17024,0,592,-1.00,-1.0
7812,17032,32,572,-1.00,-1.0
7813,17036,60,560,-1.00,-1.0
7816,17060,-36,556,-1.00,-1.0
7818,16940,12,608,-1.00,-1.0
7819,17056,-92,556,-1.00,-1.0
7821,17012,-56,556,-1.00,-1.0
7826,16976,0,632,-1.00,-1.0
7828,17044,-40,516,-1.00,-1.0
7829,17008,-68,556,-1.00,-1.0
7831,17060,-28,596,-1.00,-1.0
7833,17044,36,636,-1.00,-1.0
7835,16964,8,592,-1.00,-1.0
7837,16980,28,640,-1.00,-1.0
7839,17084,-72,748,-1.00,-1.0
7841,16992,4,684,-1.00,-1.0
7843,17072,12,704,-1.00,-1.0
7845,16940,-88,664,-1.00,-1.0
7847,17012,-52,532,-1.00,-1.0
7849,17008,-16,496,-1.00,-1.0
7851,16988,-64,612,-1.00,-1.0
7853,17012,-96,628,-1.00,-1.0
7855,17020,-16,536,-1.00,-1.0
7857,17076,-32,784,-1.00,-1.0
7861,16980,-88,584,-1.00,-1.0
7863,17036,24,640,-1.00,-1.0
7865,16960,-64,544,-1.00,-1.0
7867,16912,-20,576,-1.00,-1.0
7868,17000,4,660,-1.00,-1.0
7871,17072,44,608,-1.00,-1.0
7872,16980,-36,640,-1.00,-1.0
7874,16868,-68,624,-1.00,-1.0
7876,16868,-56,564,-1.00,-1.0
7878,16980,48,708,-1.00,-1.0
7880,17032,-96,492,-1.00,-1.0
7882,16948,-24,580,-1.00,-1.0
7884,16912,-92,464,-1.00,-1.0
7886,17052,-96,692,-1.00,-1.0
7888,17016,28,576,-1.00,-1.0
7890,16888,-112,704,-1.00,-1.0
7892,17044,20,616,-1.00,-1.0
7894,16948,-60,628,-1.00,-1.0
7898,16924,-92,684,-1.00,-1.0
7900,16968,4,716,-1.00,-1.0
7902,17008,-40,696,-1.00,-1.0
7904,16920,-64,532,-1.00,-1.0
7906,16968,-4,668,-1.00,-1.0
7908,17072,-72,676,-1.00,-1.0
7910,16984,0,636,-1.00,-1.0
7912,16948,-12,692,-1.00,-1.0
7914,17036,-24,548,-1.00,-1.0
7916,17012,-48,644,-1.00,-1.0
7917,17056,0,616,-1.00,-1.0
7919,17004,-64,696,-1.00,-1.0
7921,16988,-88,708,-1.00,-1.0
7923,16992,24,604,-1.00,-1.0
7925,16924,-60,444,-1.00,-1.0
7927,16956,-96,396,-1.00,-1.0
7929,16952,-112,624,-1.00,-1.0
7934,17116,-4,536,-1.00,-1.0
7935,17020,-8,668,-1.00,-1.0
7937,16976,-32,612,-1.00,-1.0
7939,17020,-20,612,-1.00,-1.0
7941,16992,28,592,-1.00,-1.0
7943,17024,-100,652,-1.00,-1.0
7945,16964,12,660,-1.00,-1.0
7947,17028,-88,744,-1.00,-1.0
7949,16924,-76,496,-1.00,-1.0
7951,16980,-4,632,-1.00,-1.0
7953,16972,-92,540,-1.00,-1.0
7955,16992,-76,512,-1.00,-1.0
7957,17028,-88,640,-1.00,-1.0
7959,17028,-52,524,-1.00,-1.0
7961,16992,-76,656,-1.00,-1.0
7963,16920,-76,688,-1.00,-1.0
7965,17104,-60,744,-1.00,-1.0
7969,16972,-96,660,-1.00,-1.0
7971,16992,-104,556,-1.00,-1.0
7973,17052,-44,592,-1.00,-1.0
7975,17076,-56,372,-1.00,-1.0
7977,16948,-68,676,-1.00,-1.0
7979,16980,4,612,-1.00,-1.0
7980,16976,4,556,-1.00,-1.0
7982,16944,-36,660,-1.00,-1.0
7984,17016,-32,596,-1.00,-1.0
7986,17020,-12,636,-1.00,-1.0
7988,17072,-44,552,-1.00,-1.0
7990,17060,-24,596,-1.00,-1.0
7992,17052,-52,684,-1.00,-1.0
7994,17004,56,556,-1.00,-1.0
7996,17028,16,576,-1.00,-1.0
7998,16948,-40,680,-1.00,-1.0
8000,17108,60,752,-1.00,-1.0
8004,16984,4,684,-1.00,-1.0
8006,17000,40,684,-1.00,-1.0
8008,16956,-52,528,-1.00,-1.0
8010,17020,-8,564,-1.00,-1.0
8012,16928,24,688,-1.00,-1.0
8014,17044,4,476,-1.00,-1.0
8016,16984,72,528,-1.00,-1.0
8018,17028,-56,540,-1.00,-1.0
8020,17020,-104,632,-1.00,-1.0
8022,17048,-8,568,-1.00,-1.0
8024,17052,-20,720,-1.00,-1.0
8025,17064,-68,532,-1.00,-1.0
8027,17032,-44,688,-1.00,-1.0
8029,17000,-124,564,-1.00,-1.0
8031,16948,-56,724,-1.00,-1.0
8033,16996,-52,624,-1.00,-1.0
8035,16992,-80,608,-1.00,-1.0
8037,16924,-112,576,-1.00,-1.0
8042,16996,-44,696,-1.00,-1.0
8044,16992,-124,632,-1.00,-1.0
8046,16972,16,552,-1.00,-1.0
8047,17012,-16,764,-1.00,-1.0
8050,16972,-196,452,-1.00,-1.0
8051,16976,20,720,-1.00,-1.0
8053,16964,0,632,-1.00,-1.0
8055,17100,24,636,-1.00,-1.0
8057,17028,-92,620,-1.00,-1.0
8059,17064,44,592,-1.00,-1.0
8061,16940,-64,588,-1.00,-1.0
8063,16944,24,588,-1.00,-1.0
8065,16904,-80,504,-1.00,-1.0
8067,17004,-16,728,-1.00,-1.0
8069,17032,16,564,-1.00,-1.0
8071,17056,-76,716,-1.00,-1.0
8073,17060,-72,600,-1.00,-1.0
8077,16920,4,644,-1.00,-1.0
8079,17036,-120,504,-1.00,-1.0
8081,16956,-32,664,-1.00,-1.0
8082,16964,60,640,-1.00,-1.0
8085,17028,-8,616,-1.00,-1.0
8086,16892,-108,692,-1.00,-1.0
8088,16976,-40,600,-1.00,-1.0
8090,17008,-76,512,-1.00,-1.0
8092,17028,-152,632,-1.00,-1.0
8094,17040,-72,668,-1.00,-1.0
8096,16984,-4,624,-1.00,-1.0
8098,17040,16,652,-1.00,-1.0
8100,17064,-76,520,-1.00,-1.0
8102,16992,-96,652,-1.00,-1.0
8104,16976,-60,652,-1.00,-1.0
8106,16916,-84,576,-1.00,-1.0
8108,17036,-28,572,-1.00,-1.0
8112,17040,-60,716,-1.00,-1.0
8114,17040,44,564,-1.00,-1.0
8116,16984,12,700,-1.00,-1.0
8118,16980,-16,624,-1.00,-1.0
8120,16976,-28,516,-1.00,-1.0
8122,16960,20,696,-1.00,-1.0
8124,17088,-44,576,-1.00,-1.0
8125,16972,-100,608,-1.00,-1.0
8127,17032,-76,692,-1.00,-1.0
8129,17020,-92,620,-1.00,-1.0
8131,16968,-48,632,-1.00,-1.0
8133,16976,0,756,-1.00,-1.0
8135,17056,-32,476,-1.00,-1.0
8137,16964,-108,580,-1.00,-1.0
8139,17044,-48,396,-1.00,-1.0
8141,17016,-100,640,-1.00,-1.0
8143,16956,-112,684,-1.00,-1.0
8147,16912,12,444,-1.00,-1.0
8149,17008,-80,704,-1.00,-1.0
8151,17020,-20,588,-1.00,-1.0
8153,16988,-92,688,-1.00,-1.0
8155,17044,-116,632,-1.00,-1.0
8157,17000,-76,660,-1.00,-1.0
8159,17124,-48,716,-1.00,-1.0
8161,16948,12,720,-1.00,-1.0
8163,17020,8,624,-1.00,-1.0
8165,17024,-36,652,-1.00,-1.0
8167,16944,0,492,-1.00,-1.0
8169,17004,44,588,-1.00,-1.0
8171,16916,-56,520,-1.00,-1.0
8173,16964,-108,624,-1.00,-1.0
8175,17088,56,636,-1.00,-1.0
8176,17004,68,524,-1.00,-1.0
8178,16944,-20,524,-1.00,-1.0
8183,16940,-64,492,-1.00,-1.0
8185,16932,-88,616,-1.00,-1.0
8186,17020,-40,588,-1.00,-1.0
8188,17040,-64,672,-1.00,-1.0
8190,16976,-136,608,-1.00,-1.0
8192,16904,-64,744,-1.00,-1.0
8194,16908,0,704,-1.00,-1.0
8196,16896,-92,428,-1.00,-1.0
8198,16916,-56,568,-1.00,-1.0
8200,16988,32,540,-1.00,-1.0
8202,17000,12,720,-1.00,-1.0
8204,17144,-16,644,-1.00,-1.0
8206,16980,-64,496,-1.00,-1.0
8208,17052,-112,684,-1.00,-1.0
8210,17004,-28,600,-1.00,-1.0
8212,17032,-24,616,-1.00,-1.0
8214,17020,-160,476,-1.00,-1.0
8218,16992,-12,536,-1.00,-1.0
8220,17116,-28,576,-1.00,-1.0
8222,16932,-80,680,-1.00,-1.0
8224,16980,-32,792,-1.00,-1.0
8226,17020,-4,500,-1.00,-1.0
8228,17044,4,528,-1.00,-1.0
8230,17004,0,576,-1.00,-1.0
8231,16984,-32,580,-1.00,-1.0
8233,17044,-8,732,-1.00,-1.0
8235,17120,-16,500,-1.00,-1.0
8237,16992,-92,576,-1.00,-1.0
8239,16924,-124,756,-1.00,-1.0
8241,16980,-128,536,-1.00,-1.0
8243,17036,-4,612,-1.00,-1.0
8245,16972,-116,616,-1.00,-1.0
8247,16912,-84,580,-1.00,-1.0
8249,17000,-36,564,-1.00,-1.0
8251,16972,-124,524,-1.00,-1.0
8255,16940,-64,616,-1.00,-1.0
8257,16980,-24,572,-1.00,-1.0
8259,16976,-40,676,-1.00,-1.0
8261,16976,-52,600,-1.00,-1.0
8263,17116,-20,460,-1.00,-1.0
8265,16896,-112,660,-1.00,-1.0
8267,17000,-80,556,-1.00,-1.0
8269,16996,24,520,-1.00,-1.0
8271,17040,-60,472,-1.00,-1.0
8273,17044,-52,416,-1.00,-1.0
8275,17052,-16,688,-1.00,-1.0
8277,17060,64,728,-1.00,-1.0
8279,17116,-40,552,-1.00,-1.0
8281,16948,-204,632,-1.00,-1.0
8282,17016,-52,584,-1.00,-1.0
8284,17052,-96,704,-1.00,-1.0
8286,16984,-16,516,-1.00,-1.0
8290,16984,-24,592,-1.00,-1.0
8292,16944,-92,676,-1.00,-1.0
8294,17040,-144,524,-1.00,-1.0
8296,16956,48,604,-1.00,-1.0
8298,16984,-36,560,-1.00,-1.0
8300,16928,-44,612,-1.00,-1.0
8302,17000,-16,604,-1.00,-1.0
8304,17016,-24,516,-1.00,-1.0
8306,16908,-84,604,-1.00,-1.0
8308,17040,100,748,-1.00,-1.0
8310,17020,-112,608,-1.00,-1.0
8312,16996,-112,492,-1.00,-1.0
8314,16972,-44,484,-1.00,-1.0
8316,16984,-20,500,-1.00,-1.0
8318,17008,-76,624,-1.00,-1.0
8320,16996,-132,568,-1.00,-1.0
8322,17028,-160,644,-1.00,-1.0
8326,16932,-32,772,-1.00,-1.0
8328,16964,-28,556,-1.00,-1.0
8329,16988,40,604,-1.00,-1.0
8331,16936,-52,596,-1.00,-1.0
8333,17040,-72,584,-1.00,-1.0
8335,17004,-44,576,-1.00,-1.0
8337,17036,-40,632,-1.00,-1.0
8339,17004,-80,536,-1.00,-1.0
8341,16952,-36,664,-1.00,-1.0
8343,16968,-76,568,-1.00,-1.0
8345,16980,-112,504,-1.00,-1.0
8347,17008,-40,616,-1.00,-1.0
8349,16976,-52,508,-1.00,-1.0
8351,16992,-72,740,-1.00,-1.0
8353,16948,-100,580,-1.00,-1.0
8355,16964,-20,684,-1.00,-1.0
8357,17052,56,784,-1.00,-1.0
8361,17096,4,604,-1.00,-1.0
8363,17016,-48,668,-1.00,-1.0
8364,16900,-24,652,-1.00,-1.0
8366,17008,4,572,-1.00,-1.0
8368,16940,-4,688,-1.00,-1.0
8370,16984,-8,572,-1.00,-1.0
8372,17024,-56,652,-1.00,-1.0
8374,17020,-128,560,-1.00,-1.0
8376,16992,-92,628,-1.00,-1.0
8378,17012,-92,712,-1.00,-1.0
8380,17024,-124,568,-1.00,-1.0
8382,16912,-88,600,-1.00,-1.0
8384,17028,-72,564,-1.00,-1.0
8386,16936,-60,676,-1.00,-1.0
8388,16916,-144,588,-1.00,-1.0
8390,17052,-56,572,-1.00,-1.0
8392,17092,-24,528,-1.00,-1.0
8396,17088,-64,624,-1.00,-1.0
