timestamp_ms,accel_x,accel_y,accel_z,voltage,soc
2,21896,5148,6928,-1.00,-1.0
4,21328,-328,2404,-1.00,-1.0
6,14736,5628,-1484,-1.00,-1.0
12,20968,2804,-904,-1.00,-1.0
14,21004,1868,7376,-1.00,-1.0
16,18020,-1792,-1688,-1.00,-1.0
18,19328,-1836,-1520,-1.00,-1.0
20,17488,-1068,1408,-1.00,-1.0
22,20904,-4632,-540,-1.00,-1.0
24,15240,296,3020,-1.00,-1.0
26,14476,1264,9372,-1.00,-1.0
27,16680,1092,3388,-1.00,-1.0
30,16796,6132,-4168,-1.00,-1.0
32,15448,5944,-6408,-1.00,-1.0
33,19404,4028,4168,-1.00,-1.0
35,19184,1896,3640,-1.00,-1.0
37,16896,5748,9176,-1.00,-1.0
39,13096,5552,-744,-1.00,-1.0
41,16556,2756,10836,-1.00,-1.0
43,14800,5176,-5192,-1.00,-1.0
47,20640,1032,956,-1.00,-1.0
49,17248,6224,5032,-1.00,-1.0
51,15236,5880,-2456,-1.00,-1.0
53,17340,6512,-2240,-1.00,-1.0
55,15496,6464,-2752,-1.00,-1.0
57,20580,2280,12392,-1.00,-1.0
59,19732,2040,4916,-1.00,-1.0
61,17444,-5216,-1444,-1.00,-1.0
63,15216,3976,-8804,-1.00,-1.0
65,16964,-3428,3424,-1.00,-1.0
67,16068,-6508,10040,-1.00,-1.0
69,9844,2792,-4252,-1.00,-1.0
71,17000,-2476,2320,-1.00,-1.0
73,21592,-4988,2928,-1.00,-1.0
74,14084,8244,-12632,-1.00,-1.0
76,15616,5032,-3240,-1.00,-1.0
78,21000,-3316,22352,-1.00,-1.0
82,13532,3940,3256,-1.00,-1.0
84,18292,104,2540,-1.00,-1.0
86,11040,11116,-21168,-1.00,-1.0
88,20464,5456,1480,-1.00,-1.0
90,26708,-5692,24016,-1.00,-1.0
92,13480,5416,3792,-1.00,-1.0
94,10384,5120,-664,-1.00,-1.0
96,16396,2116,2000,-1.00,-1.0
98,12208,8728,-21440,-1.00,-1.0
100,24600,1292,13216,-1.00,-1.0
102,25368,-5560,16592,-1.00,-1.0
104,10228,10104,-12488,-1.00,-1.0
106,14000,948,1396,-1.00,-1.0
108,17460,1816,-7748,-1.00,-1.0
110,19936,-6284,19072,-1.00,-1.0
112,11080,-1908,1452,-1.00,-1.0
116,10368,5156,-13888,-1.00,-1.0
118,18452,-5024,13564,-1.00,-1.0
120,20036,-8896,11068,-1.00,-1.0
122,12888,-1384,-9316,-1.00,-1.0
124,17080,-2660,4064,-1.00,-1.0
126,20816,-6968,4084,-1.00,-1.0
128,18628,-5952,5688,-1.00,-1.0
130,13320,9016,-9712,-1.00,-1.0
132,17404,6524,-2772,-1.00,-1.0
134,20812,5984,4656,-1.00,-1.0
136,19884,2720,12040,-1.00,-1.0
137,16504,5356,3076,-1.00,-1.0
140,12572,8468,-8396,-1.00,-1.0
142,11624,12788,-22428,-1.00,-1.0
143,27636,2236,12000,-1.00,-1.0
145,26196,-516,4152,-1.00,-1.0
150,16012,-4284,9852,-1.00,-1.0
152,14952,-456,7004,-1.00,-1.0
153,12184,1424,-10036,-1.00,-1.0
155,23556,-6280,23540,-1.00,-1.0
157,17040,-3524,-656,-1.00,-1.0
159,12616,2132,-1612,-1.00,-1.0
161,18268,-6896,2488,-1.00,-1.0
163,17452,576,-1612,-1.00,-1.0
165,18120,-3884,-1580,-1.00,-1.0
167,20272,-4388,12408,-1.00,-1.0
169,16232,-6508,-3400,-1.00,-1.0
171,13052,120,-13532,-1.00,-1.0
173,17644,-5460,-3376,-1.00,-1.0
175,20132,-9404,-3164,-1.00,-1.0
177,16368,-3636,-2036,-1.00,-1.0
179,17368,5436,1788,-1.00,-1.0
183,13688,-4920,8300,-1.00,-1.0
185,15924,-4260,3788,-1.00,-1.0
187,18064,-1368,7808,-1.00,-1.0
189,14876,3836,-9900,-1.00,-1.0
191,16856,-488,4284,-1.00,-1.0
193,19280,1052,2060,-1.00,-1.0
195,16552,-732,-1956,-1.00,-1.0
196,14096,5552,-8856,-1.00,-1.0
199,17124,-2064,4796,-1.00,-1.0
200,16496,1264,-4300,-1.00,-1.0
202,15244,5360,-9368,-1.00,-1.0
204,20020,-1364,-5444,-1.00,-1.0
206,19936,640,-3260,-1.00,-1.0
208,16608,2824,-7672,-1.00,-1.0
210,18524,-3504,2148,-1.00,-1.0
212,17196,-3968,7860,-1.00,-1.0
216,14692,40,-1608,-1.00,-1.0
218,16956,-3356,72,-1.00,-1.0
220,17312,884,-2864,-1.00,-1.0
222,18336,-1000,-1312,-1.00,-1.0
224,18392,-3132,4268,-1.00,-1.0
226,15616,956,-588,-1.00,-1.0
228,15844,-1680,832,-1.00,-1.0
230,16460,-428,-2020,-1.00,-1.0
232,16812,2168,1288,-1.00,-1.0
234,18328,-2052,936,-1.00,-1.0
236,16956,852,-572,-1.00,-1.0
238,17496,380,4228,-1.00,-1.0
240,17156,-1272,-976,-1.00,-1.0
242,15272,3280,608,-1.00,-1.0
244,17104,1456,3396,-1.00,-1.0
245,17680,-2488,900,-1.00,-1.0
250,16964,-1456,1956,-1.00,-1.0
252,18636,-512,3176,-1.00,-1.0
254,17404,1464,2072,-1.00,-1.0
255,17248,884,236,-1.00,-1.0
258,17976,-2140,3532,-1.00,-1.0
260,16344,2716,-1080,-1.00,-1.0
261,16544,432,3220,-1.00,-1.0
263,17832,-1664,2400,-1.00,-1.0
265,15280,2556,-4232,-1.00,-1.0
267,16776,1552,-1796,-1.00,-1.0
269,19832,-2980,3632,-1.00,-1.0
271,15792,2780,-696,-1.00,-1.0
273,15624,260,244,-1.00,-1.0
275,18536,-2832,1260,-1.00,-1.0
277,15844,3368,-3352,-1.00,-1.0
279,17360,-964,-1980,-1.00,-1.0
281,19496,-2048,608,-1.00,-1.0
285,16224,-2484,2292,-1.00,-1.0
287,15896,2252,-5848,-1.00,-1.0
289,16460,0,2008,-1.00,-1.0
291,15676,-1640,1980,-1.00,-1.0
293,18696,2372,2344,-1.00,-1.0
295,17948,-3860,7248,-1.00,-1.0
297,16208,2832,-10832,-1.00,-1.0
298,19616,1916,-2208,-1.00,-1.0
300,19840,-1556,5856,-1.00,-1.0
302,16880,-420,1668,-1.00,-1.0
304,15660,372,2988,-1.00,-1.0
306,15972,-5572,8176,-1.00,-1.0
308,14968,148,4228,-1.00,-1.0
310,15040,32,-4276,-1.00,-1.0
312,17992,-652,744,-1.00,-1.0
314,18996,-1624,1932,-1.00,-1.0
318,16788,488,424,-1.00,-1.0
320,17848,-1220,3548,-1.00,-1.0
322,16692,292,636,-1.00,-1.0
324,16372,564,884,-1.00,-1.0
326,17284,-512,988,-1.00,-1.0
328,17456,72,1512,-1.00,-1.0
330,16460,-76,-84,-1.00,-1.0
331,17344,-792,1844,-1.00,-1.0
333,17320,704,888,-1.00,-1.0
335,16800,112,-348,-1.00,-1.0
337,17060,4,532,-1.00,-1.0
339,17296,-360,1080,-1.00,-1.0
341,16896,380,472,-1.00,-1.0
343,16540,336,-536,-1.00,-1.0
345,17128,-192,632,-1.00,-1.0
347,17080,-260,760,-1.00,-1.0
349,16880,232,264,-1.00,-1.0
353,17096,-508,580,-1.00,-1.0
355,16968,-168,728,-1.00,-1.0
357,16824,396,-412,-1.00,-1.0
359,16916,-288,424,-1.00,-1.0
361,17084,-280,644,-1.00,-1.0
363,17116,-32,988,-1.00,-1.0
365,16832,128,284,-1.00,-1.0
367,17124,-108,680,-1.00,-1.0
369,17152,52,832,-1.00,-1.0
371,16992,68,940,-1.00,-1.0
373,17092,316,936,-1.00,-1.0
374,17104,40,1052,-1.00,-1.0
376,16828,-12,536,-1.00,-1.0
378,16992,-60,1164,-1.00,-1.0
380,17272,72,956,-1.00,-1.0
382,16948,24,400,-1.00,-1.0
384,16936,-148,616,-1.00,-1.0
386,17092,-24,704,-1.00,-1.0
390,16924,24,540,-1.00,-1.0
392,17156,0,392,-1.00,-1.0
394,16956,-112,460,-1.00,-1.0
396,16824,-8,384,-1.00,-1.0
398,16928,-36,360,-1.00,-1.0
400,17080,-224,588,-1.00,-1.0
402,17048,16,756,-1.00,-1.0
404,16936,4,272,-1.00,-1.0
406,16856,-200,504,-1.00,-1.0
408,17024,-80,584,-1.00,-1.0
410,17100,92,944,-1.00,-1.0
412,16944,-4,720,-1.00,-1.0
414,16908,-100,568,-1.00,-1.0
416,16992,-64,728,-1.00,-1.0
418,16940,-28,856,-1.00,-1.0
419,16984,48,816,-1.00,-1.0
421,16924,-76,652,-1.00,-1.0
423,16904,-144,652,-1.00,-1.0
427,17168,-4,808,-1.00,-1.0
429,17016,-104,600,-1.00,-1.0
431,16924,-24,604,-1.00,-1.0
433,17024,-120,644,-1.00,-1.0
435,17080,-128,608,-1.00,-1.0
437,17052,-136,420,-1.00,-1.0
439,16924,-76,404,-1.00,-1.0
441,16912,-64,252,-1.00,-1.0
443,16948,-88,432,-1.00,-1.0
445,16956,-12,432,-1.00,-1.0
447,17004,-84,652,-1.00,-1.0
449,16996,-24,516,-1.00,-1.0
451,16920,16,356,-1.00,-1.0
453,16904,-96,304,-1.00,-1.0
455,16964,36,688,-1.00,-1.0
457,16912,128,784,-1.00,-1.0
458,16928,64,616,-1.00,-1.0
463,17076,-40,680,-1.00,-1.0
465,17012,52,852,-1.00,-1.0
467,17004,-76,1004,-1.00,-1.0
468,16872,-72,764,-1.00,-1.0
470,17036,-140,572,-1.00,-1.0
472,17112,-196,612,-1.00,-1.0
474,17080,-84,828,-1.00,-1.0
476,17072,-76,756,-1.00,-1.0
478,16960,-72,536,-1.00,-1.0
480,16972,-8,416,-1.00,-1.0
482,16996,-80,496,-1.00,-1.0
484,16916,-104,312,-1.00,-1.0
486,17020,-56,396,-1.00,-1.0
488,16908,-112,380,-1.00,-1.0
490,16956,-28,348,-1.00,-1.0
492,16868,-148,376,-1.00,-1.0
494,17008,-76,324,-1.00,-1.0
496,17064,44,264,-1.00,-1.0
500,16952,-80,628,-1.00,-1.0
502,17008,12,644,-1.00,-1.0
504,17008,84,612,-1.00,-1.0
506,16980,8,636,-1.00,-1.0
508,16988,-96,612,-1.00,-1.0
510,17088,48,660,-1.00,-1.0
512,17028,44,808,-1.00,-1.0
513,16976,60,904,-1.00,-1.0
515,17116,-36,1036,-1.00,-1.0
517,17088,112,864,-1.00,-1.0
519,16964,-84,800,-1.00,-1.0
521,17140,4,692,-1.00,-1.0
523,17000,-4,728,-1.00,-1.0
525,17068,20,820,-1.00,-1.0
527,16976,60,660,-1.00,-1.0
529,16976,-76,700,-1.00,-1.0
531,16952,-40,552,-1.00,-1.0
533,16872,-16,560,-1.00,-1.0
537,16984,40,464,-1.00,-1.0
539,17004,92,504,-1.00,-1.0
541,16968,60,412,-1.00,-1.0
543,16876,-100,476,-1.00,-1.0
545,16916,0,328,-1.00,-1.0
547,17072,-44,444,-1.00,-1.0
549,17048,-16,548,-1.00,-1.0
551,17004,-56,624,-1.00,-1.0
552,17064,-84,624,-1.00,-1.0
554,16956,16,676,-1.00,-1.0
556,17024,-24,704,-1.00,-1.0
558,17004,-100,712,-1.00,-1.0
560,16920,-92,844,-1.00,-1.0
562,17036,-68,800,-1.00,-1.0
564,16976,-92,592,-1.00,-1.0
566,17012,-112,640,-1.00,-1.0
568,16956,24,692,-1.00,-1.0
570,17068,52,640,-1.00,-1.0
574,16988,24,700,-1.00,-1.0
576,17028,64,528,-1.00,-1.0
578,16988,-8,516,-1.00,-1.0
580,17044,48,452,-1.00,-1.0
582,16960,-40,580,-1.00,-1.0
584,16956,-80,228,-1.00,-1.0
586,16980,84,472,-1.00,-1.0
588,16984,-60,528,-1.00,-1.0
589,16988,-36,552,-1.00,-1.0
592,16984,-84,364,-1.00,-1.0
593,16976,-160,448,-1.00,-1.0
595,17000,-136,524,-1.00,-1.0
597,16968,-72,372,-1.00,-1.0
599,16956,-164,592,-1.00,-1.0
601,16992,-252,556,-1.00,-1.0
603,17028,-96,580,-1.00,-1.0
605,16952,-64,656,-1.00,-1.0
609,17008,-60,712,-1.00,-1.0
611,16952,-44,648,-1.00,-1.0
613,17036,-40,684,-1.00,-1.0
615,17016,-32,652,-1.00,-1.0
617,16976,-32,812,-1.00,-1.0
619,17024,-12,800,-1.00,-1.0
621,16940,36,616,-1.00,-1.0
623,16960,-84,508,-1.00,-1.0
624,16892,-8,576,-1.00,-1.0
626,16952,72,516,-1.00,-1.0
628,16976,-24,592,-1.00,-1.0
630,16976,-104,504,-1.00,-1.0
632,16900,-44,372,-1.00,-1.0
634,17008,-12,580,-1.00,-1.0
636,16904,-60,596,-1.00,-1.0
638,16996,-32,540,-1.00,-1.0
640,16880,-44,568,-1.00,-1.0
642,16944,-92,548,-1.00,-1.0
646,16980,36,508,-1.00,-1.0
648,17052,-88,564,-1.00,-1.0
650,16960,-112,580,-1.00,-1.0
652,16944,20,584,-1.00,-1.0
654,17032,0,820,-1.00,-1.0
656,16968,-8,728,-1.00,-1.0
658,17028,96,616,-1.00,-1.0
660,16972,-8,696,-1.00,-1.0
662,16964,52,764,-1.00,-1.0
664,16956,-16,704,-1.00,-1.0
666,17036,-16,824,-1.00,-1.0
667,16988,28,620,-1.00,-1.0
669,17012,-116,676,-1.00,-1.0
671,17080,-28,776,-1.00,-1.0
673,16940,0,772,-1.00,-1.0
675,16992,-4,852,-1.00,-1.0
677,16984,36,632,-1.00,-1.0
679,16924,-28,808,-1.00,-1.0
683,16932,-32,656,-1.00,-1.0
685,16908,-92,664,-1.00,-1.0
687,17048,-100,572,-1.00,-1.0
689,16960,-116,568,-1.00,-1.0
691,16964,12,688,-1.00,-1.0
693,17008,-48,792,-1.00,-1.0
695,17040,-88,488,-1.00,-1.0
697,16956,-132,604,-1.00,-1.0
699,16964,-104,644,-1.00,-1.0
701,16892,-72,636,-1.00,-1.0
703,17000,8,624,-1.00,-1.0
705,16936,-88,564,-1.00,-1.0
707,16960,-120,684,-1.00,-1.0
709,16980,56,688,-1.00,-1.0
711,17000,-20,560,-1.00,-1.0
713,17016,12,600,-1.00,-1.0
715,16992,-4,548,-1.00,-1.0
716,16980,-168,600,-1.00,-1.0
721,17052,-212,640,-1.00,-1.0
723,16996,48,600,-1.00,-1.0
724,17000,36,548,-1.00,-1.0
726,17020,-108,576,-1.00,-1.0
728,17008,12,612,-1.00,-1.0
730,17000,-44,416,-1.00,-1.0
732,16944,-8,632,-1.00,-1.0
734,16976,-56,516,-1.00,-1.0
736,16980,-72,580,-1.00,-1.0
738,17008,12,504,-1.00,-1.0
740,17092,20,644,-1.00,-1.0
742,17004,-20,612,-1.00,-1.0
744,16980,-40,532,-1.00,-1.0
746,16920,-88,472,-1.00,-1.0
748,16968,-80,544,-1.00,-1.0
750,17064,96,668,-1.00,-1.0
752,17044,-180,660,-1.00,-1.0
754,17012,-80,592,-1.00,-1.0
758,17072,-116,520,-1.00,-1.0
760,17060,-44,576,-1.00,-1.0
762,16924,-36,724,-1.00,-1.0
764,17080,-52,516,-1.00,-1.0
766,16992,-16,756,-1.00,-1.0
768,16988,-100,748,-1.00,-1.0
769,16984,-28,652,-1.00,-1.0
771,16944,-184,660,-1.00,-1.0
773,16944,-16,632,-1.00,-1.0
775,16924,-36,668,-1.00,-1.0
777,17084,4,596,-1.00,-1.0
779,17004,-28,700,-1.00,-1.0
781,17008,-12,592,-1.00,-1.0
783,17000,-52,540,-1.00,-1.0
785,16976,-100,588,-1.00,-1.0
787,16900,-12,592,-1.00,-1.0
789,17056,-16,568,-1.00,-1.0
793,17024,24,460,-1.00,-1.0
795,17008,28,604,-1.00,-1.0
797,16904,-80,476,-1.00,-1.0
799,16980,-40,620,-1.00,-1.0
801,16996,-4,616,-1.00,-1.0
803,17020,-4,564,-1.00,-1.0
805,16980,0,696,-1.00,-1.0
807,17076,-100,588,-1.00,-1.0
808,16904,-48,656,-1.00,-1.0
811,16964,-52,608,-1.00,-1.0
812,16992,-8,588,-1.00,-1.0
814,16936,-68,564,-1.00,-1.0
816,16928,-64,672,-1.00,-1.0
818,16984,-20,684,-1.00,-1.0
820,17036,-112,668,-1.00,-1.0
822,17000,-56,604,-1.00,-1.0
824,17008,-32,512,-1.00,-1.0
826,17024,-8,544,-1.00,-1.0
830,16996,-88,708,-1.00,-1.0
832,16972,8,636,-1.00,-1.0
834,16948,-56,604,-1.00,-1.0
836,16972,-16,520,-1.00,-1.0
838,17080,-76,672,-1.00,-1.0
840,16932,-72,572,-1.00,-1.0
842,16960,-76,588,-1.00,-1.0
844,17036,-84,656,-1.00,-1.0
846,17040,-4,424,-1.00,-1.0
848,16992,-40,608,-1.00,-1.0
850,17024,-16,580,-1.00,-1.0
851,16968,-76,620,-1.00,-1.0
853,17044,120,660,-1.00,-1.0
855,16976,12,708,-1.00,-1.0
857,16968,-76,624,-1.00,-1.0
859,17036,-16,632,-1.00,-1.0
861,17040,48,564,-1.00,-1.0
863,17028,48,512,-1.00,-1.0
867,16964,-80,816,-1.00,-1.0
869,17024,-16,628,-1.00,-1.0
871,17016,-16,420,-1.00,-1.0
873,16908,-112,608,-1.00,-1.0
875,16992,-16,620,-1.00,-1.0
877,17036,-16,680,-1.00,-1.0
879,16984,-48,608,-1.00,-1.0
881,16976,64,668,-1.00,-1.0
883,16980,-28,520,-1.00,-1.0
885,17032,0,560,-1.00,-1.0
887,16980,-44,624,-1.00,-1.0
888,17016,-80,692,-1.00,-1.0
890,17016,-92,556,-1.00,-1.0
892,16860,12,616,-1.00,-1.0
894,16932,-36,740,-1.00,-1.0
896,16908,-32,728,-1.00,-1.0
898,17020,8,604,-1.00,-1.0
900,16912,-52,616,-1.00,-1.0
904,16896,-24,512,-1.00,-1.0
906,16932,-84,528,-1.00,-1.0
908,17156,16,576,-1.00,-1.0
910,17040,-60,420,-1.00,-1.0
912,17020,-100,616,-1.00,-1.0
914,16916,60,544,-1.00,-1.0
916,16920,0,576,-1.00,-1.0
918,16996,56,460,-1.00,-1.0
919,17052,-40,624,-1.00,-1.0
921,16976,-24,600,-1.00,-1.0
923,17028,-56,456,-1.00,-1.0
925,17032,-28,548,-1.00,-1.0
927,16920,-36,660,-1.00,-1.0
929,16980,4,676,-1.00,-1.0
931,17044,-200,556,-1.00,-1.0
933,17080,-20,544,-1.00,-1.0
935,16968,4,472,-1.00,-1.0
937,16940,16,616,-1.00,-1.0
941,16948,20,660,-1.00,-1.0
943,16944,-56,572,-1.00,-1.0
945,17000,-80,580,-1.00,-1.0
947,16956,-120,636,-1.00,-1.0
949,16896,72,716,-1.00,-1.0
951,17032,-64,700,-1.00,-1.0
953,17016,36,768,-1.00,-1.0
955,16952,-84,736,-1.00,-1.0
957,16988,92,592,-1.00,-1.0
959,17100,0,688,-1.00,-1.0
961,17012,-28,704,-1.00,-1.0
962,16932,-64,512,-1.00,-1.0
964,16956,-64,508,-1.00,-1.0
966,17024,-84,484,-1.00,-1.0
968,17032,-44,600,-1.00,-1.0
970,16960,-104,612,-1.00,-1.0
972,17008,8,504,-1.00,-1.0
976,16960,8,684,-1.00,-1.0
978,16984,-16,664,-1.00,-1.0
980,17124,-40,652,-1.00,-1.0
982,16984,-148,664,-1.00,-1.0
984,16940,-40,624,-1.00,-1.0
986,16928,-84,756,-1.00,-1.0
988,16928,-112,688,-1.00,-1.0
990,17024,-44,572,-1.00,-1.0
992,16964,-24,572,-1.00,-1.0
994,16976,-56,696,-1.00,-1.0
996,17004,-56,560,-1.00,-1.0
998,17008,-116,616,-1.00,-1.0
1000,17024,12,476,-1.00,-1.0
1001,17048,-56,604,-1.00,-1.0
1004,16884,0,676,-1.00,-1.0
1006,16976,-44,448,-1.00,-1.0
1007,16972,-108,516,-1.00,-1.0
1009,16888,-32,576,-1.00,-1.0
1014,17008,-40,564,-1.00,-1.0
1016,17020,-68,624,-1.00,-1.0
1017,16976,-88,552,-1.00,-1.0
1019,16972,-88,524,-1.00,-1.0
1021,17000,-44,620,-1.00,-1.0
1023,17048,-40,552,-1.00,-1.0
1025,16952,-84,552,-1.00,-1.0
1027,16984,-60,584,-1.00,-1.0
1029,17076,-16,596,-1.00,-1.0
1031,16976,-56,808,-1.00,-1.0
1033,16964,-12,596,-1.00,-1.0
1035,17000,-16,676,-1.00,-1.0
1037,17064,-68,636,-1.00,-1.0
1039,17016,-92,632,-1.00,-1.0
1041,16964,0,664,-1.00,-1.0
1043,17032,-28,600,-1.00,-1.0
1045,17048,-36,656,-1.00,-1.0
1049,16984,-44,608,-1.00,-1.0
1051,17028,-108,728,-1.00,-1.0
1053,16944,-16,624,-1.00,-1.0
1055,17020,-84,716,-1.00,-1.0
1057,17024,-40,680,-1.00,-1.0
1059,17052,-48,656,-1.00,-1.0
1060,16884,-88,532,-1.00,-1.0
1062,16912,-116,424,-1.00,-1.0
1064,16948,-4,648,-1.00,-1.0
1066,17044,8,612,-1.00,-1.0
1068,16980,-44,556,-1.00,-1.0
1070,16904,-88,368,-1.00,-1.0
1072,16948,-48,632,-1.00,-1.0
1074,16988,-16,644,-1.00,-1.0
1076,16980,72,692,-1.00,-1.0
1078,16996,20,508,-1.00,-1.0
1080,17012,-88,708,-1.00,-1.0
1084,17052,-60,724,-1.00,-1.0
1086,17004,36,548,-1.00,-1.0
1088,17056,-24,780,-1.00,-1.0
1090,17108,-56,580,-1.00,-1.0
1092,17048,-28,764,-1.00,-1.0
1094,16924,-40,740,-1.00,-1.0
1096,16984,-92,668,-1.00,-1.0
1098,17032,-16,672,-1.00,-1.0
1100,17012,-52,700,-1.00,-1.0
1102,17004,32,568,-1.00,-1.0
1104,16980,-4,660,-1.00,-1.0
1105,16944,-44,568,-1.00,-1.0
1107,17044,-20,668,-1.00,-1.0
1109,17000,60,592,-1.00,-1.0
1111,16948,64,508,-1.00,-1.0
1113,16948,-52,488,-1.00,-1.0
1115,17052,-16,492,-1.00,-1.0
1119,16972,8,660,-1.00,-1.0
1121,17012,-36,480,-1.00,-1.0
1123,17004,-12,504,-1.00,-1.0
1125,16932,-120,588,-1.00,-1.0
1127,17008,-68,644,-1.00,-1.0
1129,17092,-52,548,-1.00,-1.0
1131,16976,-28,480,-1.00,-1.0
1133,17028,-40,560,-1.00,-1.0
1135,17120,-80,496,-1.00,-1.0
1137,17088,-32,740,-1.00,-1.0
1139,17004,-132,452,-1.00,-1.0
1141,16952,-112,560,-1.00,-1.0
1143,16956,-48,656,-1.00,-1.0
1145,16960,36,560,-1.00,-1.0
1147,17036,-88,632,-1.00,-1.0
1149,17012,-80,652,-1.00,-1.0
1150,16960,-20,560,-1.00,-1.0
1152,16976,4,572,-1.00,-1.0
1156,17004,-24,560,-1.00,-1.0
1158,17020,-148,584,-1.00,-1.0
1160,17072,-96,432,-1.00,-1.0
1162,17028,-20,440,-1.00,-1.0
1164,17020,-40,576,-1.00,-1.0
1166,17004,-24,652,-1.00,-1.0
1168,16968,-52,644,-1.00,-1.0
1170,16988,-28,596,-1.00,-1.0
1172,16964,-44,676,-1.00,-1.0
1174,16972,-4,592,-1.00,-1.0
1176,16892,-44,644,-1.00,-1.0
1178,16944,-104,736,-1.00,-1.0
1180,17072,-56,772,-1.00,-1.0
1182,16888,-92,520,-1.00,-1.0
1184,16964,-20,656,-1.00,-1.0
1186,17016,64,520,-1.00,-1.0
1187,17040,-44,664,-1.00,-1.0
1191,16996,-84,604,-1.00,-1.0
1193,17004,24,584,-1.00,-1.0
1195,17068,-32,708,-1.00,-1.0
1197,16976,-92,728,-1.00,-1.0
1199,16968,-132,488,-1.00,-1.0
1201,17020,-80,552,-1.00,-1.0
1203,16920,8,372,-1.00,-1.0
1205,17004,-192,680,-1.00,-1.0
1207,17028,-4,628,-1.00,-1.0
1209,16884,-120,632,-1.00,-1.0
1211,16988,-88,556,-1.00,-1.0
1213,16968,-88,724,-1.00,-1.0
1215,16980,-68,748,-1.00,-1.0
1217,17008,-76,664,-1.00,-1.0
1219,17044,-68,684,-1.00,-1.0
1220,16988,-40,500,-1.00,-1.0
1222,16944,-72,560,-1.00,-1.0
1227,17096,-112,636,-1.00,-1.0
1229,17008,-136,576,-1.00,-1.0
1231,17044,-132,628,-1.00,-1.0
1232,17004,-72,540,-1.00,-1.0
1234,17044,-80,660,-1.00,-1.0
1236,16960,16,612,-1.00,-1.0
1238,17008,52,724,-1.00,-1.0
1240,17020,-8,548,-1.00,-1.0
1242,16980,-52,636,-1.00,-1.0
1244,17004,24,668,-1.00,-1.0
1246,16960,28,688,-1.00,-1.0
1248,16920,-40,580,-1.00,-1.0
1250,16944,28,572,-1.00,-1.0
1252,16956,-100,580,-1.00,-1.0
1254,16976,-4,524,-1.00,-1.0
1256,16952,-16,540,-1.00,-1.0
1258,16940,-32,580,-1.00,-1.0
1262,16972,-40,636,-1.00,-1.0
1264,17036,-32,604,-1.00,-1.0
1266,17056,-64,664,-1.00,-1.0
1268,16936,-76,616,-1.00,-1.0
1270,16900,-12,528,-1.00,-1.0
1272,16920,-4,620,-1.00,-1.0
1274,16896,-96,708,-1.00,-1.0
1276,16888,-72,592,-1.00,-1.0
1278,17000,-20,516,-1.00,-1.0
1280,16980,-24,600,-1.00,-1.0
1282,16948,-60,612,-1.00,-1.0
1283,16940,-12,580,-1.00,-1.0
1285,16996,-88,652,-1.00,-1.0
1287,16988,-32,696,-1.00,-1.0
1289,17028,-68,616,-1.00,-1.0
1291,17032,-68,576,-1.00,-1.0
1293,17032,-20,616,-1.00,-1.0
1297,17012,-16,548,-1.00,-1.0
1299,16964,-12,676,-1.00,-1.0
1301,17028,-12,692,-1.00,-1.0
1303,17008,-16,728,-1.00,-1.0
1305,17020,-32,716,-1.00,-1.0
1307,17004,-124,612,-1.00,-1.0
1309,17092,-40,728,-1.00,-1.0
1311,17036,-108,648,-1.00,-1.0
1313,16980,-88,580,-1.00,-1.0
1315,16876,76,480,-1.00,-1.0
1317,16984,92,552,-1.00,-1.0
1319,16948,12,668,-1.00,-1.0
1321,16936,-24,624,-1.00,-1.0
1323,16964,48,660,-1.00,-1.0
1325,16956,28,600,-1.00,-1.0
1327,17096,0,612,-1.00,-1.0
1328,16968,-80,640,-1.00,-1.0
1333,17056,-52,508,-1.00,-1.0
1335,17028,0,556,-1.00,-1.0
1336,17036,24,612,-1.00,-1.0
1338,16916,-16,520,-1.00,-1.0
1340,16964,-44,624,-1.00,-1.0
1342,16964,-28,548,-1.00,-1.0
1344,16952,-12,428,-1.00,-1.0
1346,16952,16,608,-1.00,-1.0
1348,16940,-64,616,-1.00,-1.0
1350,16988,16,664,-1.00,-1.0
1352,17012,-20,668,-1.00,-1.0
1354,16964,-48,656,-1.00,-1.0
1356,17036,0,668,-1.00,-1.0
1358,16904,44,772,-1.00,-1.0
1360,17056,40,664,-1.00,-1.0
1362,17052,-20,680,-1.00,-1.0
1364,17060,0,712,-1.00,-1.0
1366,17028,-20,636,-1.00,-1.0
1370,17028,40,528,-1.00,-1.0
1372,17060,-76,660,-1.00,-1.0
1374,17000,-84,584,-1.00,-1.0
1376,17048,-36,548,-1.00,-1.0
1378,16976,-96,532,-1.00,-1.0
1380,17008,-60,664,-1.00,-1.0
1381,16932,-32,588,-1.00,-1.0
1383,16996,-116,496,-1.00,-1.0
1385,16940,-80,476,-1.00,-1.0
1387,16960,-24,468,-1.00,-1.0
1389,17060,-16,596,-1.00,-1.0
1391,16968,8,644,-1.00,-1.0
1393,16980,-140,696,-1.00,-1.0
1395,16916,-36,656,-1.00,-1.0
1397,16892,20,624,-1.00,-1.0
1399,17016,-100,704,-1.00,-1.0
1401,16984,-92,676,-1.00,-1.0
1405,16904,-4,504,-1.00,-1.0
1407,16976,68,520,-1.00,-1.0
1409,16992,-76,540,-1.00,-1.0
1411,16984,-60,792,-1.00,-1.0
1413,16980,-64,704,-1.00,-1.0
1415,17016,-36,732,-1.00,-1.0
1417,17104,-72,668,-1.00,-1.0
1419,17016,-184,652,-1.00,-1.0
1421,16976,-180,600,-1.00,-1.0
1423,16936,-12,544,-1.00,-1.0
1424,17020,-104,696,-1.00,-1.0
1426,17052,-28,448,-1.00,-1.0
1428,17008,-68,528,-1.00,-1.0
1430,17016,-48,632,-1.00,-1.0
1432,16992,36,604,-1.00,-1.0
1434,16988,-68,636,-1.00,-1.0
1436,16960,-12,624,-1.00,-1.0
1440,17004,-36,756,-1.00,-1.0
1442,16980,-108,436,-1.00,-1.0
1444,16988,0,552,-1.00,-1.0
1446,17028,-116,712,-1.00,-1.0
1448,16952,-36,740,-1.00,-1.0
1450,17012,56,588,-1.00,-1.0
1452,16956,0,460,-1.00,-1.0
1454,17036,-36,528,-1.00,-1.0
1456,17008,-96,652,-1.00,-1.0
1458,17072,48,404,-1.00,-1.0
1460,16988,84,420,-1.00,-1.0
1462,16940,44,444,-1.00,-1.0
1463,16900,16,544,-1.00,-1.0
1465,17000,-28,476,-1.00,-1.0
1467,17024,44,636,-1.00,-1.0
1469,17036,-40,832,-1.00,-1.0
1471,17032,-108,580,-1.00,-1.0
1475,17036,-32,636,-1.00,-1.0
1477,17028,-44,576,-1.00,-1.0
1479,16908,24,688,-1.00,-1.0
1481,16940,4,764,-1.00,-1.0
1483,17064,116,556,-1.00,-1.0
1485,17072,12,588,-1.00,-1.0
1487,16968,0,580,-1.00,-1.0
1489,17040,-20,612,-1.00,-1.0
1491,17036,-116,656,-1.00,-1.0
1493,17008,-28,768,-1.00,-1.0
1495,16888,-80,684,-1.00,-1.0
1497,16896,-24,660,-1.00,-1.0
1498,17008,-84,672,-1.00,-1.0
1500,16960,12,548,-1.00,-1.0
1502,16944,8,424,-1.00,-1.0
1504,16900,-108,568,-1.00,-1.0
1506,17104,-32,536,-1.00,-1.0
1510,17016,-52,652,-1.00,-1.0
1512,16800,-4,660,-1.00,-1.0
1514,17020,-76,604,-1.00,-1.0
1516,17072,-64,512,-1.00,-1.0
1518,16960,8,704,-1.00,-1.0
1520,17052,-72,572,-1.00,-1.0
1522,17132,-108,716,-1.00,-1.0
1524,17000,56,600,-1.00,-1.0
1526,17100,-64,676,-1.00,-1.0
1528,17044,4,564,-1.00,-1.0
1530,17032,36,600,-1.00,-1.0
1532,17020,12,596,-1.00,-1.0
1534,16992,-148,676,-1.00,-1.0
1536,16892,-68,488,-1.00,-1.0
1538,16912,-20,652,-1.00,-1.0
1540,16836,-64,644,-1.00,-1.0
1541,16896,4,596,-1.00,-1.0
1543,16976,-80,664,-1.00,-1.0
1548,16952,-32,552,-1.00,-1.0
1550,17020,-4,664,-1.00,-1.0
1551,16928,60,620,-1.00,-1.0
1553,16960,-112,528,-1.00,-1.0
1555,16948,-104,612,-1.00,-1.0
1557,16944,-40,692,-1.00,-1.0
1559,17020,-48,532,-1.00,-1.0
1561,16956,-144,704,-1.00,-1.0
1563,16992,-24,652,-1.00,-1.0
1565,17072,12,508,-1.00,-1.0
1567,16960,-64,604,-1.00,-1.0
1569,16988,-36,520,-1.00,-1.0
1571,17084,-16,548,-1.00,-1.0
1573,16968,-28,572,-1.00,-1.0
1575,17000,-40,576,-1.00,-1.0
1577,17000,56,544,-1.00,-1.0
1579,17024,-68,624,-1.00,-1.0
1583,16940,0,592,-1.00,-1.0
1585,16928,-8,560,-1.00,-1.0
1587,16936,24,636,-1.00,-1.0
1589,17020,0,756,-1.00,-1.0
1591,17016,-20,644,-1.00,-1.0
1593,16924,-16,608,-1.00,-1.0
1595,17044,12,672,-1.00,-1.0
1596,17064,4,540,-1.00,-1.0
1598,17008,-12,644,-1.00,-1.0
1600,16960,-16,720,-1.00,-1.0
1602,16912,-132,660,-1.00,-1.0
1604,17076,-40,636,-1.00,-1.0
1606,16984,-124,660,-1.00,-1.0
1608,16968,-148,464,-1.00,-1.0
1610,17068,-44,632,-1.00,-1.0
1612,17056,-12,580,-1.00,-1.0
1614,17036,-44,620,-1.00,-1.0
1618,17072,-36,652,-1.00,-1.0
1620,17020,-24,540,-1.00,-1.0
1622,16972,-60,524,-1.00,-1.0
1624,17124,12,568,-1.00,-1.0
1626,16964,-44,504,-1.00,-1.0
1628,17032,-52,652,-1.00,-1.0
1630,17000,-152,456,-1.00,-1.0
1632,16932,-28,616,-1.00,-1.0
1634,17000,28,576,-1.00,-1.0
1636,16940,60,448,-1.00,-1.0
1638,16984,4,672,-1.00,-1.0
1639,17000,8,580,-1.00,-1.0
1641,16940,-84,748,-1.00,-1.0
1643,16976,-16,576,-1.00,-1.0
1645,17004,-28,564,-1.00,-1.0
1647,17120,-136,488,-1.00,-1.0
1649,17144,-52,708,-1.00,-1.0
1653,17012,-120,500,-1.00,-1.0
1655,16892,-52,600,-1.00,-1.0
1657,17020,48,716,-1.00,-1.0
1659,17004,56,636,-1.00,-1.0
1661,16948,-100,508,-1.00,-1.0
1663,16904,-100,572,-1.00,-1.0
1665,17008,-88,560,-1.00,-1.0
1667,16948,-100,792,-1.00,-1.0
1669,17132,92,652,-1.00,-1.0
1671,16976,-44,712,-1.00,-1.0
1673,16928,-16,488,-1.00,-1.0
1675,16872,48,604,-1.00,-1.0
1677,16968,-64,592,-1.00,-1.0
1679,17008,-12,664,-1.00,-1.0
1681,17100,-8,656,-1.00,-1.0
1683,16940,-36,492,-1.00,-1.0
1684,16972,-12,616,-1.00,-1.0
1686,16924,-100,788,-1.00,-1.0
1691,16992,-60,580,-1.00,-1.0
1693,17000,64,648,-1.00,-1.0
1694,16884,0,712,-1.00,-1.0
1696,16988,-16,720,-1.00,-1.0
1698,17004,-124,616,-1.00,-1.0
1700,16956,-84,600,-1.00,-1.0
1702,16928,-8,628,-1.00,-1.0
1704,16980,-44,464,-1.00,-1.0
1706,17004,-88,524,-1.00,-1.0
1708,17008,-44,564,-1.00,-1.0
1710,17080,-64,564,-1.00,-1.0
1712,17020,-92,684,-1.00,-1.0
1714,16964,-8,632,-1.00,-1.0
1716,17072,-52,684,-1.00,-1.0
1718,17016,-24,592,-1.00,-1.0
1720,16980,-12,680,-1.00,-1.0
1722,16944,-48,760,-1.00,-1.0
1726,17008,16,608,-1.00,-1.0
1728,16996,0,648,-1.00,-1.0
1730,16960,-20,792,-1.00,-1.0
1731,16896,-72,632,-1.00,-1.0
1733,17052,-4,736,-1.00,-1.0
1735,16936,0,600,-1.00,-1.0
1737,16920,20,544,-1.00,-1.0
1739,16992,-4,712,-1.00,-1.0
1741,16904,-124,664,-1.00,-1.0
1743,16972,-60,708,-1.00,-1.0
1745,16920,-28,560,-1.00,-1.0
1747,16900,-36,668,-1.00,-1.0
1749,17020,-28,492,-1.00,-1.0
1751,16896,-64,592,-1.00,-1.0
1753,16868,-52,728,-1.00,-1.0
1755,16904,-4,496,-1.00,-1.0
1757,16956,-72,656,-1.00,-1.0
1761,16912,-192,612,-1.00,-1.0
1763,16912,-96,492,-1.00,-1.0
1765,17124,-32,620,-1.00,-1.0
1766,16980,8,580,-1.00,-1.0
1768,17020,-112,484,-1.00,-1.0
1770,17032,-112,600,-1.00,-1.0
1772,16992,-128,632,-1.00,-1.0
1774,16972,24,592,-1.00,-1.0
1776,16944,24,548,-1.00,-1.0
1778,16912,-8,496,-1.00,-1.0
1780,16984,-16,648,-1.00,-1.0
1782,16984,-76,832,-1.00,-1.0
1784,16860,-32,496,-1.00,-1.0
1786,16916,-100,556,-1.00,-1.0
1788,16952,-96,544,-1.00,-1.0
1790,16988,-60,420,-1.00,-1.0
1792,17032,-104,516,-1.00,-1.0
1796,17024,-104,596,-1.00,-1.0
1798,17020,-16,536,-1.00,-1.0
1800,16900,-64,484,-1.00,-1.0
1802,17008,-24,564,-1.00,-1.0
1804,16860,-76,560,-1.00,-1.0
1806,17040,-100,552,-1.00,-1.0
1808,16948,-160,632,-1.00,-1.0
1809,17020,-52,516,-1.00,-1.0
1812,16948,-96,664,-1.00,-1.0
1813,16960,-24,620,-1.00,-1.0
1815,16928,-72,576,-1.00,-1.0
1817,16876,44,668,-1.00,-1.0
1819,16932,20,556,-1.00,-1.0
1821,17008,-52,628,-1.00,-1.0
1823,17024,-40,644,-1.00,-1.0
1825,17020,-80,704,-1.00,-1.0
1827,17036,-88,672,-1.00,-1.0
1831,16960,56,528,-1.00,-1.0
1833,17116,-72,560,-1.00,-1.0
1835,17088,36,568,-1.00,-1.0
1837,16984,-88,564,-1.00,-1.0
1839,17044,44,712,-1.00,-1.0
1841,17120,-120,580,-1.00,-1.0
1843,17096,-88,824,-1.00,-1.0
1845,16996,-88,632,-1.00,-1.0
1847,16908,52,524,-1.00,-1.0
1849,16972,0,676,-1.00,-1.0
1851,17104,-68,564,-1.00,-1.0
1853,16968,-40,468,-1.00,-1.0
1855,17172,-28,524,-1.00,-1.0
1857,16964,-96,572,-1.00,-1.0
1859,16948,-44,680,-1.00,-1.0
1860,16976,-72,632,-1.00,-1.0
1862,16964,-108,684,-1.00,-1.0
1867,17072,32,620,-1.00,-1.0
1869,16988,56,480,-1.00,-1.0
1870,16940,8,564,-1.00,-1.0
1872,17012,-108,660,-1.00,-1.0
1874,16984,-72,516,-1.00,-1.0
1876,16988,-100,532,-1.00,-1.0
1878,16984,-44,556,-1.00,-1.0
1880,16904,24,532,-1.00,-1.0
1882,16984,12,572,-1.00,-1.0
1884,17020,-4,648,-1.00,-1.0
1886,17060,28,496,-1.00,-1.0
1888,16992,-80,556,-1.00,-1.0
1890,17000,-72,564,-1.00,-1.0
1892,16944,-88,728,-1.00,-1.0
1894,17064,80,488,-1.00,-1.0
1896,17008,72,660,-1.00,-1.0
1898,17036,36,656,-1.00,-1.0
1900,16952,-60,460,-1.00,-1.0
1904,16992,-132,532,-1.00,-1.0
1906,16956,-40,596,-1.00,-1.0
1908,16984,-60,472,-1.00,-1.0
1910,16920,-68,652,-1.00,-1.0
1912,16972,-4,668,-1.00,-1.0
1914,17004,-40,724,-1.00,-1.0
1915,17032,-36,648,-1.00,-1.0
1917,17020,52,588,-1.00,-1.0
1919,16928,32,636,-1.00,-1.0
1921,16972,-128,652,-1.00,-1.0
1923,17032,-140,496,-1.00,-1.0
1925,16988,-44,552,-1.00,-1.0
1927,16980,-92,652,-1.00,-1.0
1929,17044,-8,472,-1.00,-1.0
1931,17028,-60,564,-1.00,-1.0
1933,17052,-32,584,-1.00,-1.0
1935,17000,-24,600,-1.00,-1.0
1939,16976,0,764,-1.00,-1.0
1941,17084,-144,452,-1.00,-1.0
1943,16976,-68,584,-1.00,-1.0
1945,16904,-144,644,-1.00,-1.0
1947,17064,20,552,-1.00,-1.0
1949,17012,-60,652,-1.00,-1.0
1951,17020,-24,368,-1.00,-1.0
1953,17064,16,808,-1.00,-1.0
1955,16940,-52,544,-1.00,-1.0
1957,17128,-40,636,-1.00,-1.0
1958,17008,-16,648,-1.00,-1.0
1960,17040,-24,536,-1.00,-1.0
1962,16980,56,480,-1.00,-1.0
1964,16984,16,628,-1.00,-1.0
1966,16932,-76,560,-1.00,-1.0
1968,17044,-68,604,-1.00,-1.0
1970,17016,-76,636,-1.00,-1.0
1974,17008,-88,524,-1.00,-1.0
1976,16944,-84,792,-1.00,-1.0
1978,17056,16,576,-1.00,-1.0
1980,16984,-56,568,-1.00,-1.0
1982,17060,12,628,-1.00,-1.0
1984,16908,-32,640,-1.00,-1.0
1986,17024,-28,644,-1.00,-1.0
1988,16996,-72,508,-1.00,-1.0
1990,16920,-24,756,-1.00,-1.0
1992,16972,4,576,-1.00,-1.0
1994,17072,-16,576,-1.00,-1.0
1996,17044,-108,672,-1.00,-1.0
1998,16936,-88,664,-1.00,-1.0
2000,17052,60,736,-1.00,-1.0
2002,16956,24,612,-1.00,-1.0
2003,17028,12,512,-1.00,-1.0
2005,17068,-80,540,-1.00,-1.0
2009,16892,-88,624,-1.00,-1.0
2011,16972,-4,588,-1.00,-1.0
2013,17008,-72,520,-1.00,-1.0
2015,17040,12,548,-1.00,-1.0
2017,17012,12,560,-1.00,-1.0
2019,16964,-56,536,-1.00,-1.0
2021,16904,-60,564,-1.00,-1.0
2023,16924,36,596,-1.00,-1.0
2025,16988,-68,740,-1.00,-1.0
2027,17000,12,556,-1.00,-1.0
2029,16880,-76,592,-1.00,-1.0
2031,16984,-88,768,-1.00,-1.0
2033,17044,40,632,-1.00,-1.0
2035,17036,-52,648,-1.00,-1.0
2037,17008,-48,552,-1.00,-1.0
2039,16900,-72,848,-1.00,-1.0
2040,16964,-76,612,-1.00,-1.0
2044,17004,-100,636,-1.00,-1.0
2046,16988,0,604,-1.00,-1.0
2048,17036,-44,608,-1.00,-1.0
2050,17000,-64,696,-1.00,-1.0
2052,17044,-52,728,-1.00,-1.0
2054,16948,48,504,-1.00,-1.0
2056,17020,24,696,-1.00,-1.0
2058,16980,-24,628,-1.00,-1.0
2060,17032,-80,648,-1.00,-1.0
2062,17032,28,416,-1.00,-1.0
2064,17044,-60,760,-1.00,-1.0
2066,16960,-160,628,-1.00,-1.0
2068,16976,-108,520,-1.00,-1.0
2070,16936,-60,512,-1.00,-1.0
2072,16960,16,616,-1.00,-1.0
2074,17008,-84,512,-1.00,-1.0
2075,16928,-112,440,-1.00,-1.0
2077,16968,-44,636,-1.00,-1.0
2082,17060,72,460,-1.00,-1.0
2084,17012,-32,628,-1.00,-1.0
2085,17044,-44,660,-1.00,-1.0
2087,17080,-28,696,-1.00,-1.0
2089,16920,72,560,-1.00,-1.0
2091,16980,-124,540,-1.00,-1.0
2093,16940,-12,596,-1.00,-1.0
2095,16992,-100,676,-1.00,-1.0
2097,16952,-4,444,-1.00,-1.0
2099,17000,-76,600,-1.00,-1.0
2101,16996,-16,648,-1.00,-1.0
2103,16984,-112,528,-1.00,-1.0
2105,17068,-104,640,-1.00,-1.0
2107,16988,-24,672,-1.00,-1.0
2109,16924,32,468,-1.00,-1.0
2111,16916,-76,644,-1.00,-1.0
2113,16996,52,604,-1.00,-1.0
2117,16976,-36,600,-1.00,-1.0
2119,17036,-72,588,-1.00,-1.0
2121,16968,24,564,-1.00,-1.0
2123,16888,-32,608,-1.00,-1.0
2125,16928,-44,520,-1.00,-1.0
2127,16988,-112,484,-1.00,-1.0
2128,17156,-76,640,-1.00,-1.0
2130,16988,68,728,-1.00,-1.0
2132,17124,-88,684,-1.00,-1.0
2134,16992,0,592,-1.00,-1.0
2136,17012,-48,676,-1.00,-1.0
2138,17004,-76,584,-1.00,-1.0
2140,16936,-52,516,-1.00,-1.0
2142,17020,-72,412,-1.00,-1.0
2144,16996,-96,620,-1.00,-1.0
2146,16904,16,480,-1.00,-1.0
2148,16912,-88,476,-1.00,-1.0
2152,16488,880,-996,-1.00,-1.0
2154,16352,964,-412,-1.00,-1.0
2156,17076,-656,896,-1.00,-1.0
2158,16584,448,-416,-1.00,-1.0
2160,15400,1148,-1292,-1.00,-1.0
2162,16648,136,84,-1.00,-1.0
2164,19080,-1476,5596,-1.00,-1.0
2166,17652,112,-176,-1.00,-1.0
2168,15884,1456,-3484,-1.00,-1.0
2170,16320,-552,1400,-1.00,-1.0
2172,17376,-36,1216,-1.00,-1.0
2173,17672,1364,88,-1.00,-1.0
2176,17496,304,648,-1.00,-1.0
2178,17104,196,-1024,-1.00,-1.0
2179,15584,1004,-1340,-1.00,-1.0
2181,17156,552,668,-1.00,-1.0
2186,16664,536,-1440,-1.00,-1.0
2188,16348,280,-1592,-1.00,-1.0
2189,16940,-36,720,-1.00,-1.0
2191,17848,248,668,-1.00,-1.0
2193,16952,412,700,-1.00,-1.0
2195,17444,-856,1952,-1.00,-1.0
2197,16840,-1488,1448,-1.00,-1.0
2199,16044,328,-1884,-1.00,-1.0
2201,16664,-556,2548,-1.00,-1.0
2203,17932,-1952,4120,-1.00,-1.0
2205,16980,-1384,3684,-1.00,-1.0
2207,18840,-688,3452,-1.00,-1.0
2209,18720,-228,4844,-1.00,-1.0
2211,15728,1024,-2788,-1.00,-1.0
2213,16588,200,-820,-1.00,-1.0
2215,16872,-212,1192,-1.00,-1.0
2219,16996,1112,-1192,-1.00,-1.0
2221,18268,-132,2164,-1.00,-1.0
2223,17464,-384,-892,-1.00,-1.0
2225,15660,2096,-2536,-1.00,-1.0
2227,17336,80,2104,-1.00,-1.0
2229,17760,-164,2664,-1.00,-1.0
2231,16952,1180,-12,-1.00,-1.0
2232,17516,-300,1884,-1.00,-1.0
2235,17100,-376,1980,-1.00,-1.0
2237,15192,1372,-1736,-1.00,-1.0
2238,16612,-1016,296,-1.00,-1.0
2240,19228,-1564,6224,-1.00,-1.0
2242,16916,-308,-1440,-1.00,-1.0
2244,16244,324,-936,-1.00,-1.0
2246,17724,-1716,2008,-1.00,-1.0
2248,15568,1532,-4224,-1.00,-1.0
2252,18680,-1272,2928,-1.00,-1.0
2254,15832,1828,-3704,-1.00,-1.0
2256,17384,-356,1048,-1.00,-1.0
2258,18000,-520,5056,-1.00,-1.0
2260,16948,448,992,-1.00,-1.0
2262,16240,-264,-244,-1.00,-1.0
2264,17072,-588,3272,-1.00,-1.0
2266,17208,320,-272,-1.00,-1.0
2268,15712,2464,-2348,-1.00,-1.0
2270,17204,-332,3424,-1.00,-1.0
2272,14852,368,-4148,-1.00,-1.0
2274,16644,512,3716,-1.00,-1.0
2276,17960,-2644,556,-1.00,-1.0
2278,16932,2692,-752,-1.00,-1.0
2280,16132,-520,-848,-1.00,-1.0
2281,16716,188,-1180,-1.00,-1.0
2286,16612,172,-3292,-1.00,-1.0
2288,17496,1356,3584,-1.00,-1.0
2290,17284,-2356,-1248,-1.00,-1.0
2291,16412,1968,-924,-1.00,-1.0
2294,17680,-1516,3364,-1.00,-1.0
2295,16708,-112,-1560,-1.00,-1.0
2297,16536,572,3048,-1.00,-1.0
2299,17572,-3792,-664,-1.00,-1.0
2301,16704,2136,2500,-1.00,-1.0
2303,16636,-3176,-784,-1.00,-1.0
2305,17176,144,-60,-1.00,-1.0
2307,17380,-1668,4556,-1.00,-1.0
2309,16396,-880,-2320,-1.00,-1.0
2311,15808,2196,-88,-1.00,-1.0
2313,18096,-3688,1400,-1.00,-1.0
2315,15752,484,-4280,-1.00,-1.0
2319,17208,468,1516,-1.00,-1.0
2321,14956,1340,280,-1.00,-1.0
2323,18808,-2808,880,-1.00,-1.0
2325,15168,2672,-4844,-1.00,-1.0
2327,17568,-2324,5668,-1.00,-1.0
2329,17012,-1256,-740,-1.00,-1.0
2331,14456,3860,-3984,-1.00,-1.0
2333,17556,-2508,1156,-1.00,-1.0
2335,17920,484,3404,-1.00,-1.0
2337,16440,-112,-2900,-1.00,-1.0
2338,19252,-1756,4804,-1.00,-1.0
2340,17128,-832,3560,-1.00,-1.0
2342,13364,1496,-7620,-1.00,-1.0
2344,18044,-872,8732,-1.00,-1.0
2346,16644,-556,-3232,-1.00,-1.0
2348,15988,3708,-3536,-1.00,-1.0
2352,18328,-628,2636,-1.00,-1.0
2354,12904,2328,-6176,-1.00,-1.0
2356,15528,-1320,388,-1.00,-1.0
2358,20572,-4624,13916,-1.00,-1.0
2360,15800,-1136,-4524,-1.00,-1.0
2362,14168,5024,-6148,-1.00,-1.0
2364,20332,-4508,7208,-1.00,-1.0
2366,17396,260,-676,-1.00,-1.0
2368,16040,368,-1788,-1.00,-1.0
2370,20200,-3504,8084,-1.00,-1.0
2372,15124,4784,-5512,-1.00,-1.0
2374,22372,-4380,11680,-1.00,-1.0
2376,18032,1072,508,-1.00,-1.0
2378,13808,2276,-4416,-1.00,-1.0
2380,16896,-3460,3952,-1.00,-1.0
2382,14632,2976,-2204,-1.00,-1.0
2386,16652,-40,4268,-1.00,-1.0
2388,20652,-4536,8676,-1.00,-1.0
2390,14360,5272,-6740,-1.00,-1.0
2392,21788,-5668,13240,-1.00,-1.0
2394,19164,-2656,9236,-1.00,-1.0
2396,13244,4560,-6888,-1.00,-1.0
2398,17368,-2564,4936,-1.00,-1.0
2400,18524,-1444,2572,-1.00,-1.0
2402,15768,1188,-5140,-1.00,-1.0
2404,17856,-200,1308,-1.00,-1.0
2405,19064,-2468,8072,-1.00,-1.0
2408,14576,1956,-5272,-1.00,-1.0
2410,16900,284,3372,-1.00,-1.0
2411,19480,-3764,7192,-1.00,-1.0
2413,14928,1192,-1280,-1.00,-1.0
2418,18760,-1468,3856,-1.00,-1.0
2420,15468,456,-4180,-1.00,-1.0
2421,16912,2236,-2228,-1.00,-1.0
2423,20348,-1940,9956,-1.00,-1.0
2425,17372,1200,1868,-1.00,-1.0
2427,14800,2184,-940,-1.00,-1.0
2429,15480,396,-3200,-1.00,-1.0
2431,16756,1840,2804,-1.00,-1.0
2433,14700,4328,-8648,-1.00,-1.0
2435,17716,3656,620,-1.00,-1.0
2437,20500,-792,4348,-1.00,-1.0
2439,15600,6108,-5752,-1.00,-1.0
2441,18056,-16,3524,-1.00,-1.0
2443,19160,-1064,6500,-1.00,-1.0
2445,14632,2504,-3660,-1.00,-1.0
2447,19664,-2968,4100,-1.00,-1.0
2451,12100,2936,-12640,-1.00,-1.0
2453,16616,2068,-1348,-1.00,-1.0
2455,21652,-4380,8240,-1.00,-1.0
2457,14580,32,-3280,-1.00,-1.0
2459,19264,-2864,10660,-1.00,-1.0
2461,13160,2056,-12212,-1.00,-1.0
2463,15668,4792,-3060,-1.00,-1.0
2464,22004,-6696,11308,-1.00,-1.0
2467,18512,464,1336,-1.00,-1.0
2469,14492,1392,-6152,-1.00,-1.0
2470,16696,88,4168,-1.00,-1.0
2472,20644,-6768,15688,-1.00,-1.0
2474,16104,-860,-1908,-1.00,-1.0
2476,13156,4600,-3948,-1.00,-1.0
2478,17392,-3596,2276,-1.00,-1.0
2480,17156,1012,4320,-1.00,-1.0
2484,19912,264,6576,-1.00,-1.0
2486,15692,-2220,-1084,-1.00,-1.0
2488,17060,980,1692,-1.00,-1.0
2490,19064,-3672,8608,-1.00,-1.0
2492,13700,2948,-10048,-1.00,-1.0
2494,16600,1184,4548,-1.00,-1.0
2496,18680,-5240,3664,-1.00,-1.0
2498,14452,6492,-6888,-1.00,-1.0
2500,17040,884,-4388,-1.00,-1.0
2502,20428,-1544,10320,-1.00,-1.0
2504,18908,-4236,3812,-1.00,-1.0
2506,16680,2072,-2840,-1.00,-1.0
2508,13224,1744,-5016,-1.00,-1.0
2510,20404,-3968,5252,-1.00,-1.0
2512,15680,5180,-6200,-1.00,-1.0
2516,18588,3716,3344,-1.00,-1.0
2518,20196,-3796,4620,-1.00,-1.0
2520,15508,7012,-7404,-1.00,-1.0
2522,17132,-92,5136,-1.00,-1.0
2524,11708,2652,-15144,-1.00,-1.0
2526,19848,-252,9124,-1.00,-1.0
2528,20708,-3576,3444,-1.00,-1.0
2529,13684,6776,-11400,-1.00,-1.0
2531,19324,-6160,10004,-1.00,-1.0
2533,20004,-4952,7260,-1.00,-1.0
2535,12960,3516,-6848,-1.00,-1.0
2537,15284,-1864,-1272,-1.00,-1.0
2539,17576,144,6784,-1.00,-1.0
2541,15456,-1244,-6752,-1.00,-1.0
2543,17300,2820,1652,-1.00,-1.0
2545,18328,-3480,848,-1.00,-1.0
2549,15884,-1860,-340,-1.00,-1.0
2551,15440,1088,-4252,-1.00,-1.0
2553,19920,-5632,13628,-1.00,-1.0
2555,13120,724,-7732,-1.00,-1.0
2557,12500,6964,-7976,-1.00,-1.0
2559,20844,-4536,7756,-1.00,-1.0
2561,18100,3636,300,-1.00,-1.0
2563,18696,-4560,11500,-1.00,-1.0
2565,22188,-4364,14692,-1.00,-1.0
2567,13840,5924,-9268,-1.00,-1.0
2569,22352,-6440,9904,-1.00,-1.0
2570,17584,3180,-3260,-1.00,-1.0
2572,14520,2144,-7720,-1.00,-1.0
2574,22228,-5224,14824,-1.00,-1.0
2576,17192,-828,2916,-1.00,-1.0
2580,15040,3216,636,-1.00,-1.0
2582,19848,-5148,6404,-1.00,-1.0
2584,20176,2024,1232,-1.00,-1.0
2586,14040,3992,-12712,-1.00,-1.0
2588,17584,1676,3044,-1.00,-1.0
2590,20592,-4684,7284,-1.00,-1.0
2592,14852,4636,-7916,-1.00,-1.0
2594,18268,-3468,10492,-1.00,-1.0
2596,17744,-3248,2676,-1.00,-1.0
2598,12388,5152,-6400,-1.00,-1.0
2600,16920,-2340,-972,-1.00,-1.0
2602,19232,1436,3296,-1.00,-1.0
2604,16224,-676,-4608,-1.00,-1.0
2606,19708,-988,4792,-1.00,-1.0
2608,13572,5280,-5216,-1.00,-1.0
2609,19708,-4748,6836,-1.00,-1.0
2614,20272,-4844,5236,-1.00,-1.0
2616,15896,4056,-1312,-1.00,-1.0
2618,19968,-4032,9112,-1.00,-1.0
2619,18636,1176,-1120,-1.00,-1.0
2622,14512,4340,-1084,-1.00,-1.0
2624,16292,-444,-656,-1.00,-1.0
2625,18532,240,6456,-1.00,-1.0
2627,14776,852,-9500,-1.00,-1.0
2629,18752,2724,592,-1.00,-1.0
2631,21260,-4564,8772,-1.00,-1.0
2633,14592,4752,-5764,-1.00,-1.0
2635,17440,-2112,5336,-1.00,-1.0
2637,20616,-5032,11868,-1.00,-1.0
2639,13724,1432,-3448,-1.00,-1.0
2641,14040,-888,-5408,-1.00,-1.0
2643,19512,-4204,14024,-1.00,-1.0
2647,17072,2292,1272,-1.00,-1.0
2649,23108,-8860,12576,-1.00,-1.0
2651,16076,3724,-4020,-1.00,-1.0
2653,14112,536,-5188,-1.00,-1.0
2655,19136,-3312,7492,-1.00,-1.0
2657,19100,-1336,7448,-1.00,-1.0
2659,12612,3848,-13100,-1.00,-1.0
2661,16340,3860,1120,-1.00,-1.0
2663,20688,-6164,7428,-1.00,-1.0
2665,14688,6524,-6208,-1.00,-1.0
2667,17120,392,-2360,-1.00,-1.0
2669,22452,-4076,14920,-1.00,-1.0
2671,15580,-504,-3196,-1.00,-1.0
2673,20924,-6456,8572,-1.00,-1.0
2674,17276,3928,-392,-1.00,-1.0
2679,15396,5792,-2264,-1.00,-1.0
2681,19540,-2380,2352,-1.00,-1.0
2683,18284,5024,-256,-1.00,-1.0
2684,16780,-2992,6216,-1.00,-1.0
2687,13740,-1340,-5928,-1.00,-1.0
2688,16004,1192,1424,-1.00,-1.0
2690,17052,-2124,-2632,-1.00,-1.0
2692,17956,2016,692,-1.00,-1.0
2694,17512,-436,-1884,-1.00,-1.0
2696,17576,2824,1028,-1.00,-1.0
2698,22120,-6544,14644,-1.00,-1.0
2700,17664,-296,4016,-1.00,-1.0
2702,12268,3696,-7940,-1.00,-1.0
2704,17156,-4568,6024,-1.00,-1.0
2706,17532,-1776,7760,-1.00,-1.0
2708,12292,3312,-15208,-1.00,-1.0
2712,20348,-5632,4580,-1.00,-1.0
2714,16996,3924,-2744,-1.00,-1.0
2716,18236,-3764,4880,-1.00,-1.0
2718,16932,-1260,3740,-1.00,-1.0
2720,14104,2384,-108,-1.00,-1.0
2722,15088,-1076,-3360,-1.00,-1.0
2724,18280,1188,7228,-1.00,-1.0
2726,15728,352,-8736,-1.00,-1.0
2728,16620,3156,-212,-1.00,-1.0
2730,20212,-5360,6388,-1.00,-1.0
2732,17908,2964,-1228,-1.00,-1.0
2733,18540,-236,8744,-1.00,-1.0
2736,17256,-2432,3476,-1.00,-1.0
2738,17892,-532,7772,-1.00,-1.0
2739,18340,-3328,5056,-1.00,-1.0
2744,20072,-3712,3212,-1.00,-1.0
2746,18004,3848,-68,-1.00,-1.0
2748,17352,-392,-1440,-1.00,-1.0
2749,14920,-1700,-3840,-1.00,-1.0
2751,15768,5160,-2004,-1.00,-1.0
2753,19768,-3220,1036,-1.00,-1.0
2755,18516,1228,2020,-1.00,-1.0
2757,15980,-972,-3276,-1.00,-1.0
2759,18184,316,2680,-1.00,-1.0
2761,18392,-3376,6932,-1.00,-1.0
2763,14540,632,-4360,-1.00,-1.0
2765,15468,592,2236,-1.00,-1.0
2767,15516,-2624,-1120,-1.00,-1.0
2769,15636,4152,-4224,-1.00,-1.0
2771,17588,-2356,-1240,-1.00,-1.0
2773,21700,-2000,9384,-1.00,-1.0
2777,13372,4388,-8968,-1.00,-1.0
2779,16644,-3124,6980,-1.00,-1.0
2781,16680,-1136,272,-1.00,-1.0
2783,15520,4104,192,-1.00,-1.0
2785,16968,-1624,-1968,-1.00,-1.0
2787,19480,816,6992,-1.00,-1.0
2789,15456,172,-6124,-1.00,-1.0
2791,17976,2388,188,-1.00,-1.0
2793,22592,-7308,14240,-1.00,-1.0
2795,17456,-204,224,-1.00,-1.0
2797,12576,1636,-4288,-1.00,-1.0
2798,20732,-2148,3972,-1.00,-1.0
2800,17820,-140,7024,-1.00,-1.0
2802,18536,-2812,5448,-1.00,-1.0
2804,18936,-4068,7828,-1.00,-1.0
2806,14316,936,-2772,-1.00,-1.0
2810,19972,-5320,15572,-1.00,-1.0
2812,15616,-3132,-4084,-1.00,-1.0
2814,13200,6892,-9416,-1.00,-1.0
2816,19700,-4460,4020,-1.00,-1.0
2818,19388,488,5140,-1.00,-1.0
2820,16316,-476,-4600,-1.00,-1.0
2822,16740,2068,168,-1.00,-1.0
2824,18284,-4408,8504,-1.00,-1.0
2826,15104,444,-900,-1.00,-1.0
2828,13268,5720,-5304,-1.00,-1.0
2830,17168,-2872,-12,-1.00,-1.0
2832,19904,1496,7244,-1.00,-1.0
2834,15564,1976,-9568,-1.00,-1.0
2836,17964,3788,316,-1.00,-1.0
2838,20308,-4288,6928,-1.00,-1.0
2839,15912,3892,-5276,-1.00,-1.0
2843,16424,-3128,-3716,-1.00,-1.0
2845,17976,1488,1056,-1.00,-1.0
2847,19780,-4664,4824,-1.00,-1.0
2849,14840,2540,-4784,-1.00,-1.0
2851,16884,-2632,6456,-1.00,-1.0
2853,17112,-1576,3764,-1.00,-1.0
2855,14692,2944,-972,-1.00,-1.0
2857,14956,-1496,-3180,-1.00,-1.0
2859,17152,1676,5116,-1.00,-1.0
2861,16676,-452,-4432,-1.00,-1.0
2863,19284,2560,2092,-1.00,-1.0
2865,20432,-4436,3480,-1.00,-1.0
2867,17480,2024,44,-1.00,-1.0
2869,16536,-1292,3976,-1.00,-1.0
2871,14400,1392,-2084,-1.00,-1.0
2875,14864,-88,-4044,-1.00,-1.0
2877,17716,3300,3552,-1.00,-1.0
2879,18032,-1752,-2264,-1.00,-1.0
2881,16800,4720,-3800,-1.00,-1.0
2883,19712,-4288,5312,-1.00,-1.0
2885,19208,-192,6372,-1.00,-1.0
2887,15564,-428,168,-1.00,-1.0
2888,14916,-1572,-1352,-1.00,-1.0
2891,16564,-540,5676,-1.00,-1.0
2893,13048,2140,-10964,-1.00,-1.0
2894,18036,2672,4688,-1.00,-1.0
2896,13656,1100,-5096,-1.00,-1.0
2898,15456,-2420,64,-1.00,-1.0
2900,19488,-2212,12840,-1.00,-1.0
2902,12812,2664,-10744,-1.00,-1.0
2904,14864,4664,-2168,-1.00,-1.0
2909,16272,-684,6308,-1.00,-1.0
2911,12988,-852,-7772,-1.00,-1.0
2912,15416,4888,-2560,-1.00,-1.0
2914,16668,-1652,3748,-1.00,-1.0
2916,13324,1232,-4916,-1.00,-1.0
2918,15704,1448,4508,-1.00,-1.0
2920,16396,-2640,-904,-1.00,-1.0
2922,16428,3072,940,-1.00,-1.0
2924,15432,-24,-9220,-1.00,-1.0
2926,19812,768,3388,-1.00,-1.0
2928,20180,-3868,3236,-1.00,-1.0
2930,15000,5208,-7812,-1.00,-1.0
2932,18272,-2848,8076,-1.00,-1.0
2934,17876,-3296,5212,-1.00,-1.0
2936,13604,4372,-4148,-1.00,-1.0
2938,14672,340,-6156,-1.00,-1.0
2942,17312,-2092,-2696,-1.00,-1.0
2944,18080,2856,-1036,-1.00,-1.0
2946,20004,-4816,5744,-1.00,-1.0
2948,15388,2752,-3536,-1.00,-1.0
2950,15388,-728,2496,-1.00,-1.0
2952,17740,-3144,3804,-1.00,-1.0
2954,17892,1332,7576,-1.00,-1.0
2955,12756,1856,-12460,-1.00,-1.0
2958,16272,2236,2684,-1.00,-1.0
2959,22628,-7944,11896,-1.00,-1.0
2961,16188,5144,-7832,-1.00,-1.0
2963,14884,3572,-5392,-1.00,-1.0
2965,20632,-3336,12052,-1.00,-1.0
2967,12840,7564,-7280,-1.00,-1.0
2969,19948,-4788,4816,-1.00,-1.0
2973,16680,-3288,-1780,-1.00,-1.0
2975,15612,5312,-4168,-1.00,-1.0
2977,16208,-324,3620,-1.00,-1.0
2979,13676,-40,-6244,-1.00,-1.0
2981,17300,2104,6384,-1.00,-1.0
2983,17332,-1812,-3024,-1.00,-1.0
2985,17152,3604,-1380,-1.00,-1.0
2987,20624,-5712,5796,-1.00,-1.0
2989,19404,1584,2032,-1.00,-1.0
2991,14580,1748,-5796,-1.00,-1.0
2993,15908,-1292,184,-1.00,-1.0
2995,18272,-812,10028,-1.00,-1.0
2997,12824,3380,-13656,-1.00,-1.0
2999,17764,4120,3752,-1.00,-1.0
3001,21624,-4952,6304,-1.00,-1.0
3003,15756,7416,-7932,-1.00,-1.0
3007,20784,-2576,10960,-1.00,-1.0
3009,15764,-128,196,-1.00,-1.0
3011,14196,-760,-3904,-1.00,-1.0
3013,16240,-568,8200,-1.00,-1.0
3015,14740,-2112,-5268,-1.00,-1.0
3017,16508,3628,744,-1.00,-1.0
3018,20680,-5968,4316,-1.00,-1.0
3020,19208,1536,4032,-1.00,-1.0
3022,17068,-2484,1380,-1.00,-1.0
3024,15968,-888,1708,-1.00,-1.0
3026,15620,-60,4924,-1.00,-1.0
3028,20080,-4060,2088,-1.00,-1.0
3030,18776,920,3012,-1.00,-1.0
3032,15928,-1664,352,-1.00,-1.0
3034,15804,-2472,2232,-1.00,-1.0
3036,16880,-1812,9176,-1.00,-1.0
3040,15056,3780,-1340,-1.00,-1.0
3042,21568,-5512,6020,-1.00,-1.0
3044,16136,8768,-10212,-1.00,-1.0
3046,18264,928,-1136,-1.00,-1.0
3048,20840,-2060,9896,-1.00,-1.0
3050,16428,1284,2316,-1.00,-1.0
3052,13420,2248,-6368,-1.00,-1.0
3054,16664,1384,5724,-1.00,-1.0
3056,17076,-3576,-1412,-1.00,-1.0
3058,16200,5352,-2620,-1.00,-1.0
3060,19060,-3180,568,-1.00,-1.0
3062,17332,3312,-544,-1.00,-1.0
3064,16780,-1604,2856,-1.00,-1.0
3066,18600,-2516,4840,-1.00,-1.0
3067,16484,1672,5164,-1.00,-1.0
3072,17296,1208,7124,-1.00,-1.0
3074,21376,-7468,7792,-1.00,-1.0
3075,16532,5916,-7000,-1.00,-1.0
3077,16888,-604,1412,-1.00,-1.0
3079,18796,-2256,4500,-1.00,-1.0
3081,14356,944,-72,-1.00,-1.0
3083,21864,-8164,8532,-1.00,-1.0
3085,17892,3592,-196,-1.00,-1.0
3087,15128,1084,-3960,-1.00,-1.0
3089,17792,-1008,3924,-1.00,-1.0
3091,17320,-728,8336,-1.00,-1.0
3093,14852,-1140,-6192,-1.00,-1.0
3095,17672,1376,6592,-1.00,-1.0
3097,16972,-3004,-3840,-1.00,-1.0
3099,16592,3188,-1908,-1.00,-1.0
3101,20692,-6596,7804,-1.00,-1.0
3105,14044,744,-3316,-1.00,-1.0
3107,15508,-3928,2080,-1.00,-1.0
3108,16344,124,6416,-1.00,-1.0
3110,13152,2224,-14508,-1.00,-1.0
3112,20092,1076,7872,-1.00,-1.0
3114,22788,-7532,8756,-1.00,-1.0
3116,15104,6992,-8920,-1.00,-1.0
3118,19240,-936,12916,-1.00,-1.0
3120,18904,-3260,7228,-1.00,-1.0
3122,14656,3348,396,-1.00,-1.0
3124,21028,-7184,6264,-1.00,-1.0
3126,17652,3004,-1524,-1.00,-1.0
3128,15012,896,-1684,-1.00,-1.0
3130,17300,-1812,1316,-1.00,-1.0
3132,16444,956,5904,-1.00,-1.0
3134,12276,3688,-14556,-1.00,-1.0
3138,22136,-6428,9192,-1.00,-1.0
3140,16612,6260,-4928,-1.00,-1.0
3142,18208,-1368,2396,-1.00,-1.0
3144,17040,-288,3076,-1.00,-1.0
3146,11632,5660,-6080,-1.00,-1.0
3148,17576,-2252,1840,-1.00,-1.0
3150,21492,-512,13572,-1.00,-1.0
3152,13496,2488,-17128,-1.00,-1.0
3154,16604,3200,488,-1.00,-1.0
3156,20348,-6344,5744,-1.00,-1.0
3157,17004,3856,-4792,-1.00,-1.0
3160,18480,-2072,8364,-1.00,-1.0
3161,17760,-3908,3140,-1.00,-1.0
3163,13208,2796,-2144,-1.00,-1.0
3165,13824,-460,-8752,-1.00,-1.0
3169,19608,-3636,2504,-1.00,-1.0
3171,16076,3588,-4220,-1.00,-1.0
3173,18512,-4464,7424,-1.00,-1.0
3175,15416,-728,-2888,-1.00,-1.0
3177,15184,1412,52,-1.00,-1.0
3179,18248,-4468,3792,-1.00,-1.0
3181,13424,4236,-2676,-1.00,-1.0
3183,21028,-4248,12668,-1.00,-1.0
3185,20036,220,7864,-1.00,-1.0
3187,13948,3268,284,-1.00,-1.0
3189,17660,-5096,1828,-1.00,-1.0
3191,16480,4784,-84,-1.00,-1.0
3193,18772,-3676,628,-1.00,-1.0
3195,19624,-356,6352,-1.00,-1.0
3197,15788,-504,-1932,-1.00,-1.0
3199,13540,1308,-7124,-1.00,-1.0
3203,17500,-2616,-1584,-1.00,-1.0
3205,16196,5320,1072,-1.00,-1.0
3207,18192,-5620,180,-1.00,-1.0
3209,17228,2644,3464,-1.00,-1.0
3211,16044,-912,-1368,-1.00,-1.0
3213,19100,-584,2144,-1.00,-1.0
3215,18624,-648,9508,-1.00,-1.0
3216,12036,3756,-15292,-1.00,-1.0
3219,17128,2516,4856,-1.00,-1.0
3221,19428,-4292,3612,-1.00,-1.0
3222,14676,9264,-6844,-1.00,-1.0
3224,18044,-1408,2320,-1.00,-1.0
3226,19480,-72,5008,-1.00,-1.0
3228,14832,4216,-4660,-1.00,-1.0
3230,16304,2140,-5164,-1.00,-1.0
3232,18572,1488,7072,-1.00,-1.0
3236,17336,4440,3716,-1.00,-1.0
3238,19856,-5096,3548,-1.00,-1.0
3240,17528,3216,664,-1.00,-1.0
3242,17244,-2664,424,-1.00,-1.0
3244,18580,-2268,4640,-1.00,-1.0
3246,14212,1388,-3588,-1.00,-1.0
3248,21472,-5528,8624,-1.00,-1.0
3250,17060,2752,-2796,-1.00,-1.0
3252,16048,-352,-1020,-1.00,-1.0
3254,17668,-1516,2492,-1.00,-1.0
3256,14888,1896,2260,-1.00,-1.0
3258,15856,-1572,-6396,-1.00,-1.0
3260,20876,-1440,14544,-1.00,-1.0
3262,18012,-4476,-716,-1.00,-1.0
3264,14148,3760,-3724,-1.00,-1.0
3268,16328,-1924,-128,-1.00,-1.0
3270,11136,5304,-9740,-1.00,-1.0
3272,18712,-4784,2724,-1.00,-1.0
3274,19000,36,9356,-1.00,-1.0
3276,13152,2680,-16080,-1.00,-1.0
3278,21172,1388,14816,-1.00,-1.0
3280,20860,-6048,7964,-1.00,-1.0
3281,13196,7644,-13156,-1.00,-1.0
3283,18428,-2776,9956,-1.00,-1.0
3285,17248,-2068,-988,-1.00,-1.0
3287,15628,4712,44,-1.00,-1.0
3289,20484,-7408,5216,-1.00,-1.0
3291,16320,3488,2848,-1.00,-1.0
3293,15216,-3028,-3288,-1.00,-1.0
3295,21160,-3684,12832,-1.00,-1.0
3297,13764,7996,-5060,-1.00,-1.0
3301,17104,-560,10712,-1.00,-1.0
3303,17944,-4320,-2036,-1.00,-1.0
3305,13508,8844,-8080,-1.00,-1.0
3307,18172,-2304,7996,-1.00,-1.0
3309,20284,-832,8760,-1.00,-1.0
3311,18856,624,11820,-1.00,-1.0
3313,21100,-8036,6444,-1.00,-1.0
3315,12424,9164,-11892,-1.00,-1.0
3317,18456,-4412,3376,-1.00,-1.0
3319,20892,-2260,8788,-1.00,-1.0
3321,13296,4084,-7928,-1.00,-1.0
3323,17336,-1928,-2676,-1.00,-1.0
3325,18260,380,11928,-1.00,-1.0
3327,12448,1444,-16008,-1.00,-1.0
3328,20108,832,11972,-1.00,-1.0
3330,21004,-6560,9456,-1.00,-1.0
3335,15096,1160,-10300,-1.00,-1.0
3337,18364,2540,5424,-1.00,-1.0
3339,20632,-4368,6664,-1.00,-1.0
3341,11908,7908,-13340,-1.00,-1.0
3343,18036,-100,7540,-1.00,-1.0
3345,10528,3768,-18888,-1.00,-1.0
3347,15476,3432,-2888,-1.00,-1.0
3349,24236,-9572,20492,-1.00,-1.0
3351,12188,5220,-20064,-1.00,-1.0
3353,15032,5404,5928,-1.00,-1.0
3355,22700,-8920,13236,-1.00,-1.0
3357,12332,8708,-11136,-1.00,-1.0
3359,18588,-4268,3192,-1.00,-1.0
3361,22388,-5548,18676,-1.00,-1.0
3362,11172,2532,-15108,-1.00,-1.0
3366,18148,-712,10136,-1.00,-1.0
3368,13884,1608,-14512,-1.00,-1.0
3370,22372,-924,17048,-1.00,-1.0
3372,16796,-2208,-3740,-1.00,-1.0
3374,10692,9684,-15608,-1.00,-1.0
3376,20508,-5092,13040,-1.00,-1.0
3378,22092,-4336,2232,-1.00,-1.0
3380,12708,7844,-7528,-1.00,-1.0
3382,18628,-5096,5780,-1.00,-1.0
3384,20276,-1952,12628,-1.00,-1.0
3386,19740,-1228,12588,-1.00,-1.0
3388,19164,-424,9808,-1.00,-1.0
3390,10584,10496,-16476,-1.00,-1.0
3392,20280,-6908,9116,-1.00,-1.0
3394,21392,-5492,17072,-1.00,-1.0
3398,10616,11640,-16580,-1.00,-1.0
3400,18392,-3608,7532,-1.00,-1.0
3402,9444,6492,-26260,-1.00,-1.0
3404,23828,-4312,24592,-1.00,-1.0
3406,17688,-6524,-1580,-1.00,-1.0
3408,11048,8652,-10192,-1.00,-1.0
3410,21204,-8608,16636,-1.00,-1.0
3412,13868,1836,-9320,-1.00,-1.0
3414,14608,4808,-3768,-1.00,-1.0
3416,23360,-10496,16932,-1.00,-1.0
3417,15148,5068,-3184,-1.00,-1.0
3419,10636,3772,-17092,-1.00,-1.0
3421,24200,-5856,22240,-1.00,-1.0
3423,18344,-5500,1296,-1.00,-1.0
3425,8328,10592,-22660,-1.00,-1.0
3429,17332,-3048,-6040,-1.00,-1.0
3431,9716,11916,-14060,-1.00,-1.0
3433,25812,-11328,24728,-1.00,-1.0
3435,16288,408,-1368,-1.00,-1.0
3437,9992,6652,-17160,-1.00,-1.0
3439,24244,-7900,23636,-1.00,-1.0
3441,13816,2500,-11224,-1.00,-1.0
3443,14036,3060,-11980,-1.00,-1.0
3445,24984,-7556,30100,-1.00,-1.0
3447,12740,-424,-17596,-1.00,-1.0
3449,16968,3600,2876,-1.00,-1.0
3451,11652,7384,-13184,-1.00,-1.0
3453,10516,6996,-18856,-1.00,-1.0
3455,21516,-4560,16216,-1.00,-1.0
3457,10856,4040,-16972,-1.00,-1.0
3459,14596,3192,-940,-1.00,-1.0
3463,24176,-6652,20500,-1.00,-1.0
3465,12452,2020,-11528,-1.00,-1.0
3467,12344,4560,-10584,-1.00,-1.0
3469,22508,-5516,24172,-1.00,-1.0
3471,12144,1880,-21908,-1.00,-1.0
3473,16912,7548,1468,-1.00,-1.0
3475,9480,5888,-17180,-1.00,-1.0
3477,10088,8408,-19040,-1.00,-1.0
3479,23656,-5716,22416,-1.00,-1.0
3481,10000,4340,-24784,-1.00,-1.0
3483,20236,384,12748,-1.00,-1.0
3485,19908,-4508,5908,-1.00,-1.0
3487,11752,7984,-17180,-1.00,-1.0
3489,21192,-3852,17860,-1.00,-1.0
3490,16168,-648,-4708,-1.00,-1.0
3496,15836,2464,-568,-1.00,-1.0
3498,10272,5264,-16856,-1.00,-1.0
3500,21396,-3884,13524,-1.00,-1.0
3502,19944,-3864,7996,-1.00,-1.0
3504,9960,7908,-21412,-1.00,-1.0
3506,22420,-968,16884,-1.00,-1.0
3508,19668,-4544,-252,-1.00,-1.0
3510,21216,-4192,16976,-1.00,-1.0
3512,23120,-9404,22144,-1.00,-1.0
3514,13304,2232,-8716,-1.00,-1.0
3516,25464,-6408,26160,-1.00,-1.0
3518,14364,-588,-9840,-1.00,-1.0
3520,13168,7888,-10416,-1.00,-1.0
3522,21364,-4792,17768,-1.00,-1.0
3524,13476,3484,-15264,-1.00,-1.0
3528,19152,-2148,3324,-1.00,-1.0
3530,12180,8636,-14208,-1.00,-1.0
3532,21640,-4824,14312,-1.00,-1.0
3534,15636,3784,-6748,-1.00,-1.0
3536,12168,9708,-11868,-1.00,-1.0
3538,22384,-6804,12832,-1.00,-1.0
3539,20404,-812,10156,-1.00,-1.0
3541,9512,7016,-24584,-1.00,-1.0
3543,19652,856,11404,-1.00,-1.0
3545,21496,-6400,11016,-1.00,-1.0
3547,10872,6632,-21420,-1.00,-1.0
3549,20420,-1836,14324,-1.00,-1.0
3551,18584,-4816,2032,-1.00,-1.0
3553,10248,9560,-17184,-1.00,-1.0
3555,22316,-6800,16292,-1.00,-1.0
3559,14368,5108,-8672,-1.00,-1.0
3561,22476,-6312,17668,-1.00,-1.0
3563,12548,6164,-10732,-1.00,-1.0
3565,16992,-140,-3392,-1.00,-1.0
3567,20200,-1396,13348,-1.00,-1.0
3569,13236,2500,-11740,-1.00,-1.0
3571,19984,-824,9336,-1.00,-1.0
3573,16480,1020,-552,-1.00,-1.0
3575,12372,5708,-11780,-1.00,-1.0
3577,19700,-3064,12272,-1.00,-1.0
3579,19508,-2656,4820,-1.00,-1.0
3581,18404,-4244,6432,-1.00,-1.0
3583,19564,-4748,10992,-1.00,-1.0
3585,12220,3696,-14524,-1.00,-1.0
3587,20432,-840,11380,-1.00,-1.0
3588,18960,-4304,6372,-1.00,-1.0
3593,23436,-7656,18492,-1.00,-1.0
3595,16564,-1352,-2372,-1.00,-1.0
3596,11464,6288,-9396,-1.00,-1.0
3598,20968,-7132,15172,-1.00,-1.0
3600,15292,2912,-2220,-1.00,-1.0
3602,16792,-1160,-4068,-1.00,-1.0
3604,18100,-104,6232,-1.00,-1.0
3606,13100,2132,-7852,-1.00,-1.0
3608,19716,-3660,9080,-1.00,-1.0
3610,15968,2916,1232,-1.00,-1.0
3612,14988,1148,-8880,-1.00,-1.0
3614,21660,-5184,17184,-1.00,-1.0
3616,15028,-1632,-4968,-1.00,-1.0
3618,10856,7004,-14836,-1.00,-1.0
3620,21916,-6128,17368,-1.00,-1.0
3624,10180,9832,-14092,-1.00,-1.0
3626,21524,-4988,12440,-1.00,-1.0
3628,11568,3752,-15144,-1.00,-1.0
3630,20276,-2196,15668,-1.00,-1.0
3632,15892,-1572,-4504,-1.00,-1.0
3634,13800,6160,-10184,-1.00,-1.0
3635,23452,-9120,22600,-1.00,-1.0
3637,13268,2632,-10644,-1.00,-1.0
3639,15560,3236,-856,-1.00,-1.0
3641,19164,-4424,7828,-1.00,-1.0
3643,13636,7496,-9068,-1.00,-1.0
3645,20584,-4052,7804,-1.00,-1.0
3647,15984,3164,-2656,-1.00,-1.0
3649,16192,1928,-2640,-1.00,-1.0
3651,19680,-1644,6196,-1.00,-1.0
3655,17156,1216,-2844,-1.00,-1.0
3657,23396,-2928,12852,-1.00,-1.0
3659,14872,5756,-8332,-1.00,-1.0
3661,15184,3192,-7164,-1.00,-1.0
3663,23664,-4144,19308,-1.00,-1.0
3665,12828,2008,-16384,-1.00,-1.0
3667,13976,6700,-5056,-1.00,-1.0
3669,22936,-8284,20636,-1.00,-1.0
3671,12232,5320,-18764,-1.00,-1.0
3673,18812,1876,4256,-1.00,-1.0
3675,21352,-5460,7852,-1.00,-1.0
3677,18800,-2332,7936,-1.00,-1.0
3679,20400,-5520,9368,-1.00,-1.0
3681,17080,672,1252,-1.00,-1.0
3683,21016,-2988,15580,-1.00,-1.0
3685,15352,-1120,-4884,-1.00,-1.0
3689,16656,-1988,-3660,-1.00,-1.0
3691,18604,188,7468,-1.00,-1.0
3693,18516,72,7228,-1.00,-1.0
3695,17284,-1168,-1692,-1.00,-1.0
3697,12376,9412,-9408,-1.00,-1.0
3699,19488,-5044,8628,-1.00,-1.0
3700,20900,-1616,9792,-1.00,-1.0
3702,11796,6784,-13412,-1.00,-1.0
3704,19324,-2568,5472,-1.00,-1.0
3706,19360,-1276,10500,-1.00,-1.0
3708,10424,4844,-18916,-1.00,-1.0
3710,19648,-960,9688,-1.00,-1.0
3712,20088,-2952,10448,-1.00,-1.0
3714,11792,6768,-18156,-1.00,-1.0
3716,20512,-876,15372,-1.00,-1.0
3720,15884,5192,-4068,-1.00,-1.0
3722,19576,-4744,9324,-1.00,-1.0
3724,15320,2724,-4916,-1.00,-1.0
3726,17280,-896,3500,-1.00,-1.0
3728,15732,636,-4896,-1.00,-1.0
3730,18348,1384,2588,-1.00,-1.0
3732,19620,-2956,5412,-1.00,-1.0
3734,13024,5764,-10652,-1.00,-1.0
3736,17532,-488,2324,-1.00,-1.0
3738,21036,-3740,6936,-1.00,-1.0
3740,14292,7820,-5548,-1.00,-1.0
3742,16248,-52,-4204,-1.00,-1.0
3744,23856,-5728,19484,-1.00,-1.0
3746,13624,724,-10280,-1.00,-1.0
3748,23348,-9196,15848,-1.00,-1.0
3750,14128,5812,-11036,-1.00,-1.0
3754,18944,1344,6184,-1.00,-1.0
3756,20268,-5836,8432,-1.00,-1.0
3758,13000,5744,-13012,-1.00,-1.0
3760,17760,1888,4616,-1.00,-1.0
3762,16216,-1420,-6540,-1.00,-1.0
3764,18468,372,7808,-1.00,-1.0
3765,12644,2928,-8584,-1.00,-1.0
3767,17452,-296,-56,-1.00,-1.0
3769,20180,-792,9120,-1.00,-1.0
3771,16792,100,-5432,-1.00,-1.0
3773,18548,356,6524,-1.00,-1.0
3775,13544,1504,-7596,-1.00,-1.0
3777,11972,7328,-13896,-1.00,-1.0
3779,22824,-4016,15784,-1.00,-1.0
3781,20904,-1556,5476,-1.00,-1.0
3783,13316,7092,-11672,-1.00,-1.0
3787,13084,3296,-8580,-1.00,-1.0
3789,12620,5272,-8588,-1.00,-1.0
3791,24496,-8428,19652,-1.00,-1.0
3793,17476,3820,-1408,-1.00,-1.0
3795,15172,2456,-11576,-1.00,-1.0
3797,18244,1176,6716,-1.00,-1.0
3799,14260,1848,-6084,-1.00,-1.0
3801,18804,792,2856,-1.00,-1.0
3803,19168,608,7444,-1.00,-1.0
3805,17952,-2476,-3424,-1.00,-1.0
3807,16592,2732,4144,-1.00,-1.0
3809,10880,3832,-14732,-1.00,-1.0
3811,18816,372,2700,-1.00,-1.0
3813,21268,-1396,11256,-1.00,-1.0
3814,16772,-4156,5616,-1.00,-1.0
3819,17820,-5240,1388,-1.00,-1.0
3821,8764,9376,-19904,-1.00,-1.0
3823,21620,-6884,17212,-1.00,-1.0
3825,8984,6592,-24876,-1.00,-1.0
3827,11724,8580,-11540,-1.00,-1.0
3829,19008,-6416,3936,-1.00,-1.0
3830,14732,1996,-11284,-1.00,-1.0
3832,21560,-2704,17576,-1.00,-1.0
3834,14560,-2240,-9160,-1.00,-1.0
3836,11700,7560,-10828,-1.00,-1.0
3838,19832,-6988,14292,-1.00,-1.0
3840,15716,2280,-6124,-1.00,-1.0
3842,19152,1016,8092,-1.00,-1.0
3844,16980,-4052,-2860,-1.00,-1.0
3846,14660,5476,-2580,-1.00,-1.0
3850,15312,3612,-4504,-1.00,-1.0
3852,21304,-3032,13692,-1.00,-1.0
3854,18856,-2640,-2452,-1.00,-1.0
3856,13328,6472,-6356,-1.00,-1.0
3858,18024,-5680,4240,-1.00,-1.0
3860,18316,364,4288,-1.00,-1.0
3862,12700,4652,-8316,-1.00,-1.0
3864,21796,-6436,10880,-1.00,-1.0
3866,20056,-2028,13864,-1.00,-1.0
3868,8144,5640,-23096,-1.00,-1.0
3870,19328,-740,11832,-1.00,-1.0
3872,11264,10472,-16376,-1.00,-1.0
3874,11908,4984,-17832,-1.00,-1.0
3876,21648,-1888,18324,-1.00,-1.0
3877,13080,3688,-10528,-1.00,-1.0
3879,20428,-4216,11372,-1.00,-1.0
3883,16704,-1896,-6116,-1.00,-1.0
3885,15732,4544,-1632,-1.00,-1.0
3887,15200,-1184,-5412,-1.00,-1.0
3889,20660,-1536,10052,-1.00,-1.0
3891,18124,1180,3880,-1.00,-1.0
3893,16680,332,-6272,-1.00,-1.0
3895,15548,3988,2276,-1.00,-1.0
3897,12972,-24,-6836,-1.00,-1.0
3899,19056,1336,4624,-1.00,-1.0
3901,24436,-6104,17744,-1.00,-1.0
3903,13908,3580,-14652,-1.00,-1.0
3905,13492,5024,-1624,-1.00,-1.0
3907,19084,-9380,7412,-1.00,-1.0
3909,13064,5768,-11928,-1.00,-1.0
3911,20896,-4080,12064,-1.00,-1.0
3915,12012,8804,-10800,-1.00,-1.0
3917,18848,-5376,2388,-1.00,-1.0
3919,15524,5264,-492,-1.00,-1.0
3921,16516,-1196,-632,-1.00,-1.0
3923,21164,-3620,11512,-1.00,-1.0
3925,16812,2744,2072,-1.00,-1.0
3926,15000,-1696,-10592,-1.00,-1.0
3928,18168,384,-912,-1.00,-1.0
3930,18548,412,7392,-1.00,-1.0
3932,15540,-3432,-7160,-1.00,-1.0
3934,13620,6472,-3500,-1.00,-1.0
3936,18012,-5640,2896,-1.00,-1.0
3938,17996,3548,1060,-1.00,-1.0
3940,19572,-1668,8844,-1.00,-1.0
3942,18612,-5696,-764,-1.00,-1.0
3944,12568,6248,-6688,-1.00,-1.0
3948,21196,-528,12728,-1.00,-1.0
3950,17060,84,2396,-1.00,-1.0
3952,17304,-3132,-1912,-1.00,-1.0
3954,16980,516,6012,-1.00,-1.0
3956,11856,1268,-17888,-1.00,-1.0
3958,18312,3836,4816,-1.00,-1.0
3960,20956,-6264,12540,-1.00,-1.0
3962,16304,988,-5452,-1.00,-1.0
3964,16572,2060,3616,-1.00,-1.0
3966,13276,-396,-13412,-1.00,-1.0
3968,16556,4712,3396,-1.00,-1.0
3970,20060,-5068,9148,-1.00,-1.0
3972,18080,1944,-312,-1.00,-1.0
3974,17728,-1012,6420,-1.00,-1.0
3975,14104,-2488,-7996,-1.00,-1.0
3980,19112,-6576,5836,-1.00,-1.0
3982,17792,3404,1676,-1.00,-1.0
3984,16396,-1356,3404,-1.00,-1.0
3986,16396,-4288,-24,-1.00,-1.0
3988,13552,5284,-4844,-1.00,-1.0
3990,17160,-2440,-3484,-1.00,-1.0
3992,21108,244,11784,-1.00,-1.0
3993,16216,1416,-564,-1.00,-1.0
3996,16048,-1100,-2084,-1.00,-1.0
3998,16180,3192,3908,-1.00,-1.0
3999,15668,436,-10756,-1.00,-1.0
4001,14112,76,-5668,-1.00,-1.0
4003,13024,3076,-5352,-1.00,-1.0
4005,20752,-6832,5944,-1.00,-1.0
4007,18036,3200,3932,-1.00,-1.0
4009,17772,-4396,3252,-1.00,-1.0
4013,13960,640,-4760,-1.00,-1.0
4015,17740,-2420,-4180,-1.00,-1.0
4017,19308,2216,7084,-1.00,-1.0
4019,20296,-6836,6776,-1.00,-1.0
4021,16276,956,2120,-1.00,-1.0
4023,12760,292,-3720,-1.00,-1.0
4025,14756,-988,-5460,-1.00,-1.0
4027,20572,-352,12724,-1.00,-1.0
4029,16568,-2544,-2992,-1.00,-1.0
4031,14824,4972,-5232,-1.00,-1.0
4033,19336,-5188,6836,-1.00,-1.0
4035,13372,3588,-14768,-1.00,-1.0
4037,19140,2760,4920,-1.00,-1.0
4039,22120,-7972,11940,-1.00,-1.0
4041,12344,7684,-10820,-1.00,-1.0
4042,15720,-656,556,-1.00,-1.0
4047,17664,2348,2900,-1.00,-1.0
4049,21396,-7776,9372,-1.00,-1.0
4051,16244,3408,-1268,-1.00,-1.0
4052,14032,-2472,-5076,-1.00,-1.0
4055,14984,-624,-1000,-1.00,-1.0
4056,18524,-2320,10324,-1.00,-1.0
4058,20176,-4820,1860,-1.00,-1.0
4060,15236,5332,-2568,-1.00,-1.0
4062,13500,-1188,-7888,-1.00,-1.0
4064,19968,-1744,1320,-1.00,-1.0
4066,14440,6824,-3936,-1.00,-1.0
4068,15520,-4828,-524,-1.00,-1.0
4070,13680,4112,-3512,-1.00,-1.0
4072,17144,1376,860,-1.00,-1.0
4074,24320,-6824,11644,-1.00,-1.0
4078,13764,-1036,-5864,-1.00,-1.0
4080,16184,212,6196,-1.00,-1.0
4082,16852,-756,784,-1.00,-1.0
4084,20704,-3100,5348,-1.00,-1.0
4086,16308,3152,644,-1.00,-1.0
4088,13672,-2932,-7476,-1.00,-1.0
4090,15836,2904,2452,-1.00,-1.0
4092,17140,-1980,236,-1.00,-1.0
4094,21796,-2716,5940,-1.00,-1.0
4096,16784,1904,4524,-1.00,-1.0
4098,13400,-2504,-8136,-1.00,-1.0
4100,16132,1532,7508,-1.00,-1.0
4102,15616,-2136,-3860,-1.00,-1.0
4104,19468,-868,3124,-1.00,-1.0
4106,22904,-5532,16860,-1.00,-1.0
4107,11844,468,-12636,-1.00,-1.0
4111,21180,-9772,15608,-1.00,-1.0
4113,17272,-380,-5228,-1.00,-1.0
4115,19548,244,8376,-1.00,-1.0
4117,15052,-1396,-7772,-1.00,-1.0
4119,21488,-704,8104,-1.00,-1.0
4121,17468,1172,6072,-1.00,-1.0
4123,13752,-840,-10108,-1.00,-1.0
4125,16280,2188,6832,-1.00,-1.0
4127,13664,-724,-13768,-1.00,-1.0
4129,20948,3696,5360,-1.00,-1.0
4131,20292,-3952,20776,-1.00,-1.0
4133,9416,9828,-31568,-1.00,-1.0
4135,17940,6808,21352,-1.00,-1.0
4137,19500,-10908,-6756,-1.00,-1.0
4139,13204,13528,-12244,-1.00,-1.0
4143,11860,1704,-22936,-1.00,-1.0
4145,14632,9184,8232,-1.00,-1.0
4147,25964,-18832,9424,-1.00,-1.0
4148,10372,16352,-11728,-1.00,-1.0
4151,15108,-6160,13880,-1.00,-1.0
4153,22168,-10572,9416,-1.00,-1.0
4154,9892,16720,-10896,-1.00,-1.0
4156,20404,-9312,-13728,-1.00,-1.0
4158,23868,3912,20132,-1.00,-1.0
4160,15700,-8288,-3852,-1.00,-1.0
4162,20732,-14224,-7104,-1.00,-1.0
4164,15636,19868,-8524,-1.00,-1.0
4166,24560,-19868,28964,-1.00,-1.0
4168,11644,5184,-20232,-1.00,-1.0
4170,14476,9728,10372,-1.00,-1.0
4174,14836,5848,6700,-1.00,-1.0
4176,22524,-19752,22076,-1.00,-1.0
4178,13224,3588,-14536,-1.00,-1.0
4180,13988,7288,5420,-1.00,-1.0
4182,19148,-12724,-8932,-1.00,-1.0
4184,14516,14664,560,-1.00,-1.0
4186,21068,-17588,16460,-1.00,-1.0
4188,19148,816,1484,-1.00,-1.0
4190,10204,9792,-5464,-1.00,-1.0
4192,16648,-9768,-14132,-1.00,-1.0
4194,20712,6652,20632,-1.00,-1.0
4196,15576,-10184,-9344,-1.00,-1.0
4198,18240,4160,3052,-1.00,-1.0
4200,17408,-44,10352,-1.00,-1.0
4202,14628,-1940,-19016,-1.00,-1.0
4204,18652,8664,17120,-1.00,-1.0
4208,20384,3744,10368,-1.00,-1.0
4210,18112,-4168,12136,-1.00,-1.0
4212,12176,936,-20488,-1.00,-1.0
4214,17880,6576,14652,-1.00,-1.0
4216,15260,-10088,-7940,-1.00,-1.0
4218,16664,7244,704,-1.00,-1.0
4219,19584,-7312,16124,-1.00,-1.0
4222,13872,1420,-16544,-1.00,-1.0
4224,16116,6972,7080,-1.00,-1.0
4225,15092,-5900,-11672,-1.00,-1.0
4227,19256,5820,7048,-1.00,-1.0
4229,25392,-12208,25820,-1.00,-1.0
4231,12532,2412,-16348,-1.00,-1.0
4233,10176,10444,-3424,-1.00,-1.0
4235,16516,380,-1576,-1.00,-1.0
4239,17592,-5544,10580,-1.00,-1.0
4241,18628,-5888,1300,-1.00,-1.0
4243,12516,10096,-7344,-1.00,-1.0
4245,17420,-5076,12740,-1.00,-1.0
4247,15520,6848,-764,-1.00,-1.0
4249,20072,3920,17904,-1.00,-1.0
4251,16352,-5908,-12840,-1.00,-1.0
4253,17888,9468,748,-1.00,-1.0
4255,20448,-9512,22232,-1.00,-1.0
4257,12388,4140,-24216,-1.00,-1.0
4259,15700,8636,9012,-1.00,-1.0
4261,19368,-14116,-316,-1.00,-1.0
4263,16444,12780,-6328,-1.00,-1.0
4265,17412,-3596,10736,-1.00,-1.0
4267,18416,-2276,-10448,-1.00,-1.0
4271,18444,-13940,-2088,-1.00,-1.0
4273,11240,14932,-9476,-1.00,-1.0
4275,19432,-7972,18768,-1.00,-1.0
4277,19028,-5252,-7036,-1.00,-1.0
4279,11548,14212,84,-1.00,-1.0
4281,20936,-19280,5456,-1.00,-1.0
4283,16580,6212,-1480,-1.00,-1.0
4285,16920,-3592,9040,-1.00,-1.0
4287,17392,-5740,-9584,-1.00,-1.0
4289,14008,10660,6964,-1.00,-1.0
4290,18084,-16844,4944,-1.00,-1.0
4292,15280,9788,-9692,-1.00,-1.0
4294,19260,-4080,15372,-1.00,-1.0
4296,16216,-4708,-15504,-1.00,-1.0
4298,13596,13124,1416,-1.00,-1.0
4300,15632,1372,7548,-1.00,-1.0
4304,16452,1956,9192,-1.00,-1.0
4306,14416,-6744,-18724,-1.00,-1.0
4308,15416,11476,3364,-1.00,-1.0
4310,19484,-13984,14332,-1.00,-1.0
4312,16480,6100,-14972,-1.00,-1.0
4314,13116,6304,5704,-1.00,-1.0
4316,18200,-10224,10540,-1.00,-1.0
4318,17680,1704,-5676,-1.00,-1.0
4320,13728,5992,6728,-1.00,-1.0
4322,13196,-7632,-14756,-1.00,-1.0
4324,19276,9112,3848,-1.00,-1.0
4326,18652,-3844,8256,-1.00,-1.0
4328,18244,3904,-14668,-1.00,-1.0
4330,15556,7796,10596,-1.00,-1.0
4332,14976,-10032,-8932,-1.00,-1.0
4336,18700,-4488,12472,-1.00,-1.0
4338,14300,2140,-19708,-1.00,-1.0
4340,11596,10208,5960,-1.00,-1.0
4342,20376,-17608,10448,-1.00,-1.0
4344,20552,3108,2172,-1.00,-1.0
4346,13312,1288,2204,-1.00,-1.0
4348,18268,-6128,-7696,-1.00,-1.0
4350,14696,7520,5020,-1.00,-1.0
4352,20396,-12056,9124,-1.00,-1.0
4354,21180,316,6888,-1.00,-1.0
4355,9024,5096,-4592,-1.00,-1.0
4358,12960,-5448,-10444,-1.00,-1.0
4359,20452,2140,10544,-1.00,-1.0
4361,18964,-4284,2188,-1.00,-1.0
4363,15592,6632,-15412,-1.00,-1.0
4368,14652,-1916,-12104,-1.00,-1.0
4370,12780,7736,-1204,-1.00,-1.0
4372,15412,-524,7996,-1.00,-1.0
4374,17032,-4268,-8480,-1.00,-1.0
4376,11712,8212,200,-1.00,-1.0
4378,19288,-10020,6084,-1.00,-1.0
4380,22456,-372,5552,-1.00,-1.0
4382,11768,5420,-3208,-1.00,-1.0
4384,16816,-10148,-2464,-1.00,-1.0
4386,17564,2224,7104,-1.00,-1.0
4388,19272,-7556,10408,-1.00,-1.0
4390,16616,616,-12312,-1.00,-1.0
4392,13212,5520,6988,-1.00,-1.0
4394,19244,-14040,6864,-1.00,-1.0
4395,16688,6444,-7564,-1.00,-1.0
4397,17720,-2484,10664,-1.00,-1.0
4401,11964,10552,-3640,-1.00,-1.0
4403,19944,-11320,10176,-1.00,-1.0
4405,19924,1876,-3276,-1.00,-1.0
4407,12504,6252,-416,-1.00,-1.0
4409,17060,-10804,-1576,-1.00,-1.0
4411,18024,4680,4332,-1.00,-1.0
4413,19516,-5612,9536,-1.00,-1.0
4415,15584,1852,-13476,-1.00,-1.0
4417,13512,5392,6668,-1.00,-1.0
4419,15276,2800,-2440,-1.00,-1.0
4421,17744,40,-9064,-1.00,-1.0
4423,16452,6748,5104,-1.00,-1.0
4425,21008,-10828,9096,-1.00,-1.0
4427,18420,5132,-4020,-1.00,-1.0
4429,11828,6080,-3332,-1.00,-1.0
4433,19848,1944,6652,-1.00,-1.0
4435,21756,-7580,13108,-1.00,-1.0
4437,14268,1736,-14376,-1.00,-1.0
4439,11100,7268,-500,-1.00,-1.0
4441,21292,-14224,13060,-1.00,-1.0
4443,19140,1840,-3728,-1.00,-1.0
4445,13608,3152,-384,-1.00,-1.0
4447,15712,-2840,-3592,-1.00,-1.0
4449,15624,8472,-2376,-1.00,-1.0
4451,24440,-10276,19900,-1.00,-1.0
4452,18556,2252,-8284,-1.00,-1.0
4454,10488,9088,-724,-1.00,-1.0
4456,18024,-9820,7060,-1.00,-1.0
4458,17336,5160,-436,-1.00,-1.0
4460,20000,-3712,10260,-1.00,-1.0
4462,13512,1088,-13368,-1.00,-1.0
4466,23640,-13104,17300,-1.00,-1.0
4468,21504,200,-5108,-1.00,-1.0
4470,12372,8364,-1888,-1.00,-1.0
4472,13656,-2124,-9828,-1.00,-1.0
4474,21104,3476,14524,-1.00,-1.0
4476,19380,-7460,2696,-1.00,-1.0
4478,15816,2156,-10884,-1.00,-1.0
4480,13676,4984,6700,-1.00,-1.0
4482,16652,-6720,-7708,-1.00,-1.0
4484,14768,1212,-10500,-1.00,-1.0
4486,6908,14748,-17092,-1.00,-1.0
4488,24932,-15180,20004,-1.00,-1.0
4490,25468,-3008,7128,-1.00,-1.0
4492,11696,7136,-7296,-1.00,-1.0
4494,14968,-3492,-1048,-1.00,-1.0
4498,22952,-14096,16628,-1.00,-1.0
4500,16336,60,-7440,-1.00,-1.0
4502,8912,6128,-5216,-1.00,-1.0
4504,18336,-11588,2784,-1.00,-1.0
4506,18952,4576,-3104,-1.00,-1.0
4508,20620,-3580,12756,-1.00,-1.0
4510,14168,1980,-15204,-1.00,-1.0
4511,10544,11420,-4368,-1.00,-1.0
4514,22260,-13272,17908,-1.00,-1.0
4516,19800,2960,-10164,-1.00,-1.0
4517,11748,10396,1808,-1.00,-1.0
4519,15624,-2760,-9524,-1.00,-1.0
4521,21320,6340,10052,-1.00,-1.0
4523,21328,-6148,9428,-1.00,-1.0
4525,15748,2412,-9624,-1.00,-1.0
4530,18340,-9396,5332,-1.00,-1.0
4532,19544,4928,-4352,-1.00,-1.0
4534,18784,936,18120,-1.00,-1.0
4535,13172,2908,-20044,-1.00,-1.0
4538,14428,12888,4428,-1.00,-1.0
4539,22168,-11096,10296,-1.00,-1.0
4541,18700,5100,-9648,-1.00,-1.0
4543,11144,10856,-3124,-1.00,-1.0
4545,17708,-5268,-2144,-1.00,-1.0
4547,21040,4644,4144,-1.00,-1.0
4549,17612,-968,2216,-1.00,-1.0
4551,14928,3832,-13372,-1.00,-1.0
4553,14924,8900,2540,-1.00,-1.0
4555,23052,-13348,12220,-1.00,-1.0
4557,19048,2948,-3144,-1.00,-1.0
4559,18320,3064,9220,-1.00,-1.0
4563,19068,3736,1256,-1.00,-1.0
4565,22432,-8232,16068,-1.00,-1.0
4567,14616,908,-15752,-1.00,-1.0
4569,10856,9208,-3456,-1.00,-1.0
4571,20744,-13420,10564,-1.00,-1.0
4573,13496,3592,-15832,-1.00,-1.0
4575,12988,8448,-672,-1.00,-1.0
4577,21804,-11776,10152,-1.00,-1.0
4579,22388,-824,4380,-1.00,-1.0
4581,12620,5160,-1660,-1.00,-1.0
4583,9236,1264,-22192,-1.00,-1.0
4585,18840,4704,9248,-1.00,-1.0
4587,22916,-8508,8180,-1.00,-1.0
4588,17504,3796,-9848,-1.00,-1.0
4590,11712,10320,-396,-1.00,-1.0
4595,24472,-408,18028,-1.00,-1.0
4597,18392,-2820,6892,-1.00,-1.0
4598,9308,6304,-22576,-1.00,-1.0
4600,12700,10880,1744,-1.00,-1.0
4602,28316,-19424,22872,-1.00,-1.0
4604,19064,348,-2516,-1.00,-1.0
4606,7380,10136,-9580,-1.00,-1.0
4608,17848,-7472,604,-1.00,-1.0
4610,20736,3288,6480,-1.00,-1.0
4612,22812,-10696,15208,-1.00,-1.0
4614,12176,2400,-15724,-1.00,-1.0
4616,4876,14344,-19064,-1.00,-1.0
4618,24032,-14684,15376,-1.00,-1.0
4620,27456,-3272,15556,-1.00,-1.0
4622,11224,11756,5860,-1.00,-1.0
4626,18664,6328,10424,-1.00,-1.0
4628,27664,-19068,22720,-1.00,-1.0
4630,12168,3788,-19748,-1.00,-1.0
4632,23820,7364,14280,-1.00,-1.0
4634,26400,-9248,16712,-1.00,-1.0
4636,12560,7492,-15268,-1.00,-1.0
4638,7116,13048,-6180,-1.00,-1.0
4640,21376,-9652,7408,-1.00,-1.0
4642,26232,-3020,16356,-1.00,-1.0
4644,17000,-4120,6172,-1.00,-1.0
4645,7304,4916,-25336,-1.00,-1.0
4647,12972,10088,592,-1.00,-1.0
4649,28152,-16604,19492,-1.00,-1.0
4651,21084,-1596,2440,-1.00,-1.0
4653,7568,8260,-8972,-1.00,-1.0
4655,11844,392,-13660,-1.00,-1.0
4659,27076,-13716,19720,-1.00,-1.0
4661,8460,4964,-24280,-1.00,-1.0
4663,6204,14320,-8996,-1.00,-1.0
4665,19284,-1992,8468,-1.00,-1.0
4667,25060,-3412,10172,-1.00,-1.0
4669,14492,-404,3256,-1.00,-1.0
4671,26064,-13348,13852,-1.00,-1.0
4673,23068,-2060,9524,-1.00,-1.0
4675,7476,8916,-11904,-1.00,-1.0
4677,10196,4224,-15412,-1.00,-1.0
4679,22264,3960,12552,-1.00,-1.0
4681,26004,-9504,15492,-1.00,-1.0
4683,13064,3192,-14148,-1.00,-1.0
4684,6964,13308,-11280,-1.00,-1.0
4686,21388,-10340,7844,-1.00,-1.0
4691,15912,-144,968,-1.00,-1.0
4693,9164,5656,-19504,-1.00,-1.0
4695,15876,8980,3632,-1.00,-1.0
4696,28904,-16432,26984,-1.00,-1.0
4698,15872,80,-9980,-1.00,-1.0
4700,4756,15096,-16248,-1.00,-1.0
4702,18468,-4104,356,-1.00,-1.0
4704,26964,-16,16196,-1.00,-1.0
4706,20828,-7256,10212,-1.00,-1.0
4708,5680,7168,-24872,-1.00,-1.0
4710,9732,15696,-10556,-1.00,-1.0
4712,32284,-18900,32767,-1.00,-1.0
4714,23924,-5060,3040,-1.00,-1.0
4716,5024,8776,-12500,-1.00,-1.0
4718,13036,-2300,-10272,-1.00,-1.0
4722,27176,-15016,24372,-1.00,-1.0
4724,12932,-1432,-9960,-1.00,-1.0
4726,2368,14940,-21820,-1.00,-1.0
4728,21476,-9228,5592,-1.00,-1.0
4730,29380,-5244,17792,-1.00,-1.0
4732,13116,2696,-11852,-1.00,-1.0
4734,30396,-21548,32767,-1.00,-1.0
4736,17732,-1368,-6520,-1.00,-1.0
4738,3648,8488,-13788,-1.00,-1.0
4740,16840,-4980,-5488,-1.00,-1.0
4742,21972,6860,12820,-1.00,-1.0
4743,23876,-14544,18584,-1.00,-1.0
4746,12784,1980,-12240,-1.00,-1.0
4748,5184,14448,-17020,-1.00,-1.0
4749,24080,-13744,11352,-1.00,-1.0
4754,13560,-1520,-2024,-1.00,-1.0
4756,10112,1836,-20392,-1.00,-1.0
4758,17364,8092,10220,-1.00,-1.0
4759,29216,-21984,28256,-1.00,-1.0
4761,16232,1620,-8628,-1.00,-1.0
4763,2928,11112,-13808,-1.00,-1.0
4765,17764,-8440,-2936,-1.00,-1.0
4767,26308,1704,17460,-1.00,-1.0
4769,20796,-9388,13112,-1.00,-1.0
4771,8740,5816,-24244,-1.00,-1.0
4773,9604,13120,-3920,-1.00,-1.0
4775,24232,-14704,16176,-1.00,-1.0
4777,23328,1040,7700,-1.00,-1.0
4779,11176,4412,2072,-1.00,-1.0
4781,8764,5032,-21392,-1.00,-1.0
4783,20220,6780,13692,-1.00,-1.0
4787,11972,1380,-15808,-1.00,-1.0
4789,3444,15828,-16196,-1.00,-1.0
4791,23584,-9924,11156,-1.00,-1.0
4793,25692,-1752,8836,-1.00,-1.0
4795,16836,-152,7452,-1.00,-1.0
4797,8792,4036,-22048,-1.00,-1.0
4799,25648,-3400,13500,-1.00,-1.0
4801,27188,-13828,22860,-1.00,-1.0
4803,23256,-5160,7580,-1.00,-1.0
4805,18064,5900,6776,-1.00,-1.0
4807,31460,-18968,32767,-1.00,-1.0
4809,13572,-3580,-15144,-1.00,-1.0
4811,1816,16020,-19812,-1.00,-1.0
4812,20216,-7440,7536,-1.00,-1.0
4814,29572,-4204,21160,-1.00,-1.0
4819,3916,6616,-31776,-1.00,-1.0
4821,13824,12464,1260,-1.00,-1.0
4823,29204,-16452,26624,-1.00,-1.0
4824,19536,-3092,1464,-1.00,-1.0
4826,4544,13368,-22960,-1.00,-1.0
4828,13804,2368,-9380,-1.00,-1.0
4830,27432,1468,18092,-1.00,-1.0
4832,24928,-9976,21188,-1.00,-1.0
4834,10368,1112,-19716,-1.00,-1.0
4836,5644,14104,-15452,-1.00,-1.0
4838,21624,-8160,4308,-1.00,-1.0
4840,30052,-7716,20864,-1.00,-1.0
4842,11720,3244,-13256,-1.00,-1.0
4844,5820,8008,-27420,-1.00,-1.0
4846,21092,6296,11476,-1.00,-1.0
4850,16820,-148,-8112,-1.00,-1.0
4852,8608,8532,-10368,-1.00,-1.0
4854,13560,-2416,-13464,-1.00,-1.0
4856,25280,908,15916,-1.00,-1.0
4858,25052,-8920,18976,-1.00,-1.0
4860,9452,1936,-12932,-1.00,-1.0
4862,9760,9140,-2940,-1.00,-1.0
4864,26228,-16540,29072,-1.00,-1.0
4866,20648,-6088,-1028,-1.00,-1.0
4868,9768,3272,-6436,-1.00,-1.0
4870,25124,-7524,17148,-1.00,-1.0
4872,19712,-92,3096,-1.00,-1.0
4874,11012,6660,-10036,-1.00,-1.0
4876,10884,2132,-15680,-1.00,-1.0
4877,23172,-428,9120,-1.00,-1.0
4879,24104,-6380,15552,-1.00,-1.0
4883,7012,14144,-7948,-1.00,-1.0
4885,25908,-12508,23188,-1.00,-1.0
4887,25788,-7864,11572,-1.00,-1.0
4889,8768,6120,-14232,-1.00,-1.0
4891,7876,6636,-21680,-1.00,-1.0
4893,23012,3472,18300,-1.00,-1.0
4895,26976,-12476,23940,-1.00,-1.0
4897,13080,-4460,-648,-1.00,-1.0
4899,3300,9512,-23892,-1.00,-1.0
4901,16176,-332,-1612,-1.00,-1.0
4903,32292,-8248,27928,-1.00,-1.0
4905,24576,-11136,17132,-1.00,-1.0
4907,1596,3228,-32768,-1.00,-1.0
4909,5220,14428,-17568,-1.00,-1.0
4911,29764,-8888,28884,-1.00,-1.0
4915,15216,14228,-8108,-1.00,-1.0
4917,32767,-11728,32767,-1.00,-1.0
4919,20016,-13824,3304,-1.00,-1.0
4920,4700,3792,-18668,-1.00,-1.0
4922,13336,-3668,-9164,-1.00,-1.0
4924,17020,4172,-4832,-1.00,-1.0
4926,26728,-1764,24132,-1.00,-1.0
4928,19504,-4476,9572,-1.00,-1.0
4930,1984,18352,-32768,-1.00,-1.0
4932,16552,6288,4920,-1.00,-1.0
4934,32767,-13328,30024,-1.00,-1.0
4936,15344,5892,-11968,-1.00,-1.0
4938,1904,11756,-27660,-1.00,-1.0
4940,20008,8880,-676,-1.00,-1.0
4942,31132,-6552,32767,-1.00,-1.0
4946,8652,9364,-14888,-1.00,-1.0
4948,13240,-3536,-5184,-1.00,-1.0
4950,24820,-4828,12356,-1.00,-1.0
4952,25712,-10668,28688,-1.00,-1.0
4954,13004,-8916,-10404,-1.00,-1.0
4956,4668,8184,-13060,-1.00,-1.0
4958,19520,-10160,12636,-1.00,-1.0
4960,25624,-16720,22956,-1.00,-1.0
4962,12508,1428,-10352,-1.00,-1.0
4964,984,8096,-24620,-1.00,-1.0
4966,24004,1900,19612,-1.00,-1.0
4968,30704,-12868,30552,-1.00,-1.0
4970,10132,1836,-27744,-1.00,-1.0
4972,24776,-2992,20796,-1.00,-1.0
4973,19936,-2336,6788,-1.00,-1.0
4978,22112,-7284,19492,-1.00,-1.0
4980,13556,-1760,-13512,-1.00,-1.0
4982,9860,5152,-5968,-1.00,-1.0
4983,20588,2780,9616,-1.00,-1.0
4986,13720,3648,-12924,-1.00,-1.0
4987,12380,12644,-12744,-1.00,-1.0
4989,20148,-2756,7916,-1.00,-1.0
4991,24324,380,6740,-1.00,-1.0
4993,17276,3176,8016,-1.00,-1.0
4995,14160,-2072,-5828,-1.00,-1.0
4997,12820,4768,-3368,-1.00,-1.0
4999,18552,-4844,7956,-1.00,-1.0
5001,21620,-488,3292,-1.00,-1.0
5003,18456,1364,8764,-1.00,-1.0
5005,14984,-3700,-3988,-1.00,-1.0
5007,13784,5368,-1684,-1.00,-1.0
5011,18500,-2348,-3256,-1.00,-1.0
5013,9736,12612,-13228,-1.00,-1.0
5015,17420,-5352,5008,-1.00,-1.0
5017,19248,1404,-540,-1.00,-1.0
5019,20076,-1368,8508,-1.00,-1.0
5021,18432,-4636,-1588,-1.00,-1.0
5023,13332,6660,-4544,-1.00,-1.0
5025,13980,-3560,-5744,-1.00,-1.0
5027,16892,5712,-4164,-1.00,-1.0
5029,21516,-2096,15960,-1.00,-1.0
5031,18764,-2800,-3728,-1.00,-1.0
5033,13588,7608,-2372,-1.00,-1.0
5035,15172,-4744,-2784,-1.00,-1.0
5037,16612,4260,-3416,-1.00,-1.0
5038,14640,4816,528,-1.00,-1.0
5043,13848,7328,-4940,-1.00,-1.0
5045,14560,-4596,-3472,-1.00,-1.0
5047,19124,672,1796,-1.00,-1.0
5049,19968,16,11708,-1.00,-1.0
5051,17068,-2740,-7528,-1.00,-1.0
5053,12944,6772,-3296,-1.00,-1.0
5055,15512,-4388,-3756,-1.00,-1.0
5056,17880,-4216,-2300,-1.00,-1.0
5058,11852,7224,-6912,-1.00,-1.0
5060,14824,-4640,-2132,-1.00,-1.0
5062,20172,36,3664,-1.00,-1.0
5064,22064,-1832,18412,-1.00,-1.0
5066,17780,-4784,16,-1.00,-1.0
5068,9548,8924,-9980,-1.00,-1.0
5070,11768,-2528,-8016,-1.00,-1.0
5072,19548,1024,656,-1.00,-1.0
5076,20356,-5744,1756,-1.00,-1.0
5078,11696,8424,-6600,-1.00,-1.0
5080,10844,-952,-10572,-1.00,-1.0
5082,18480,564,-1204,-1.00,-1.0
5084,25048,-1676,21284,-1.00,-1.0
5086,20544,-5980,808,-1.00,-1.0
5088,11616,8244,-4128,-1.00,-1.0
5090,11516,-3120,-6980,-1.00,-1.0
5092,15644,3952,-7508,-1.00,-1.0
5094,22568,-304,15116,-1.00,-1.0
5096,21680,-6020,2108,-1.00,-1.0
5098,16012,4920,2428,-1.00,-1.0
5100,12048,-3624,-6476,-1.00,-1.0
5102,13912,4240,-8156,-1.00,-1.0
5104,20048,152,9192,-1.00,-1.0
5108,17004,4640,2472,-1.00,-1.0
5110,13872,-3960,-4104,-1.00,-1.0
5112,15396,2644,-2884,-1.00,-1.0
5114,18444,-44,6248,-1.00,-1.0
5116,20236,-3740,1992,-1.00,-1.0
5118,15956,4780,1552,-1.00,-1.0
5119,19676,-1252,7388,-1.00,-1.0
5121,19708,-2364,1856,-1.00,-1.0
5123,17440,924,6508,-1.00,-1.0
5125,13796,-952,-2532,-1.00,-1.0
5127,12956,2748,-9004,-1.00,-1.0
5129,18508,-1148,3356,-1.00,-1.0
5131,20644,-1904,4388,-1.00,-1.0
5133,19500,388,5040,-1.00,-1.0
5135,15616,-700,800,-1.00,-1.0
5137,13788,-36,-3632,-1.00,-1.0
5141,19572,-2232,7044,-1.00,-1.0
5143,18864,-2472,4716,-1.00,-1.0
5145,15504,1136,1496,-1.00,-1.0
5147,14096,-1376,-3376,-1.00,-1.0
5149,15004,3688,-5912,-1.00,-1.0
5151,18676,-1396,5408,-1.00,-1.0
5153,21208,-3368,4556,-1.00,-1.0
5155,18056,2428,6464,-1.00,-1.0
5157,14488,-3476,-2092,-1.00,-1.0
5159,14360,2680,-4684,-1.00,-1.0
5160,17756,-1688,5044,-1.00,-1.0
5162,15156,-2716,-1716,-1.00,-1.0
5164,17068,4832,3380,-1.00,-1.0
5166,17480,-264,3148,-1.00,-1.0
5168,19856,-3940,1252,-1.00,-1.0
5170,17220,4520,2860,-1.00,-1.0
5174,15956,220,-2620,-1.00,-1.0
5176,17176,1172,3380,-1.00,-1.0
5178,18740,-4108,-328,-1.00,-1.0
5180,17388,4744,2432,-1.00,-1.0
5182,15452,-2688,436,-1.00,-1.0
5184,15132,1404,-6164,-1.00,-1.0
5186,17432,1852,3828,-1.00,-1.0
5188,18984,-4192,-192,-1.00,-1.0
5190,16796,6540,-3160,-1.00,-1.0
5192,17040,-2180,2020,-1.00,-1.0
5194,17988,-1792,-564,-1.00,-1.0
5196,17232,3624,4148,-1.00,-1.0
5198,16780,-4072,-528,-1.00,-1.0
5200,16528,2772,-192,-1.00,-1.0
5201,16384,-2544,2640,-1.00,-1.0
5206,15928,5224,1096,-1.00,-1.0
5208,16576,-2864,-680,-1.00,-1.0
5210,17356,776,1288,-1.00,-1.0
5211,16976,1084,3180,-1.00,-1.0
5213,15924,-140,-3940,-1.00,-1.0
5215,15212,5744,-5064,-1.00,-1.0
5217,16440,1912,3220,-1.00,-1.0
5219,14648,-2500,-4272,-1.00,-1.0
5221,16392,-76,3700,-1.00,-1.0
5223,17100,-3176,4212,-1.00,-1.0
5225,17768,-1564,-252,-1.00,-1.0
5227,16260,3248,-836,-1.00,-1.0
5229,16552,-2648,1164,-1.00,-1.0
5231,17964,-1332,4388,-1.00,-1.0
5233,17972,940,5016,-1.00,-1.0
5235,15608,812,-3760,-1.00,-1.0
5239,17852,-2760,6544,-1.00,-1.0
5241,19228,-1608,592,-1.00,-1.0
5243,16344,5928,-6212,-1.00,-1.0
5245,16864,-544,-944,-1.00,-1.0
5247,18908,-1308,5544,-1.00,-1.0
5249,14732,3904,-3824,-1.00,-1.0
5251,16212,1328,-5100,-1.00,-1.0
5253,20996,-5960,13300,-1.00,-1.0
5255,16956,-2820,1572,-1.00,-1.0
5257,14016,1828,-4868,-1.00,-1.0
5258,15608,-2076,1044,-1.00,-1.0
5260,16812,-2568,1200,-1.00,-1.0
5262,16144,1316,-2180,-1.00,-1.0
5264,17716,-500,-184,-1.00,-1.0
5266,15276,956,-4544,-1.00,-1.0
5268,15328,544,-1508,-1.00,-1.0
5272,16112,1932,-560,-1.00,-1.0
5274,17992,-164,3908,-1.00,-1.0
5276,15540,-324,-1776,-1.00,-1.0
5278,17096,-472,684,-1.00,-1.0
5280,16364,276,48,-1.00,-1.0
5282,16748,2008,-3192,-1.00,-1.0
5284,17420,-680,3488,-1.00,-1.0
5286,17412,148,-128,-1.00,-1.0
5288,16540,256,104,-1.00,-1.0
5290,16992,468,-1196,-1.00,-1.0
5292,17620,-1288,2960,-1.00,-1.0
5294,16212,456,-1360,-1.00,-1.0
5296,17060,-580,1344,-1.00,-1.0
5298,16404,492,304,-1.00,-1.0
5300,17188,-748,320,-1.00,-1.0
5302,16948,300,1100,-1.00,-1.0
5306,16704,604,876,-1.00,-1.0
5308,17132,-500,-408,-1.00,-1.0
5310,16824,300,2428,-1.00,-1.0
5312,17324,-244,-392,-1.00,-1.0
5314,16984,108,2196,-1.00,-1.0
5316,17216,-308,-828,-1.00,-1.0
5317,16668,228,1668,-1.00,-1.0
5319,16976,184,-588,-1.00,-1.0
5321,16772,60,1784,-1.00,-1.0
5323,20152,584,1356,-1.00,-1.0
5325,20528,-10616,14888,-1.00,-1.0
5327,27788,-13948,22500,-1.00,-1.0
5329,7372,4624,-29832,-1.00,-1.0
5331,10284,8080,-6044,-1.00,-1.0
5333,28968,-13640,32767,-1.00,-1.0
5335,17984,-3800,-1908,-1.00,-1.0
5339,17784,-4272,6600,-1.00,-1.0
5341,20048,-1900,4776,-1.00,-1.0
5343,18680,704,1292,-1.00,-1.0
5345,18232,-1028,6948,-1.00,-1.0
5347,13996,284,-5692,-1.00,-1.0
5349,15132,-136,-2888,-1.00,-1.0
5351,19256,-1808,2348,-1.00,-1.0
5353,18560,-300,84,-1.00,-1.0
5355,15976,-24,-12,-1.00,-1.0
5357,16296,-2460,3940,-1.00,-1.0
5359,14416,1328,-2848,-1.00,-1.0
5361,18236,-1080,2280,-1.00,-1.0
5363,19100,-1296,4512,-1.00,-1.0
5365,16348,364,-4388,-1.00,-1.0
5366,15936,1424,-1480,-1.00,-1.0
5368,18408,-124,3016,-1.00,-1.0
5373,17504,432,872,-1.00,-1.0
5375,17040,292,3096,-1.00,-1.0
5376,16208,776,-2040,-1.00,-1.0
5378,16632,1640,1068,-1.00,-1.0
5380,17380,1068,496,-1.00,-1.0
5382,17484,676,2828,-1.00,-1.0
5384,16684,576,104,-1.00,-1.0
5386,16744,772,368,-1.00,-1.0
5388,17376,-180,-192,-1.00,-1.0
5390,16904,-220,1096,-1.00,-1.0
5392,16756,-348,-720,-1.00,-1.0
5394,16656,-188,1684,-1.00,-1.0
5396,16708,-240,-1080,-1.00,-1.0
5398,16960,-528,816,-1.00,-1.0
5400,17476,-704,-580,-1.00,-1.0
5402,17312,-756,712,-1.00,-1.0
5407,17268,-368,468,-1.00,-1.0
5408,17220,-216,1328,-1.00,-1.0
5410,17180,-444,836,-1.00,-1.0
5412,16808,312,788,-1.00,-1.0
5414,17088,364,896,-1.00,-1.0
5416,17112,372,1496,-1.00,-1.0
5418,16996,180,1276,-1.00,-1.0
5420,17032,492,1256,-1.00,-1.0
5422,17112,264,1524,-1.00,-1.0
5424,17000,260,800,-1.00,-1.0
5426,17032,248,396,-1.00,-1.0
5428,16808,184,364,-1.00,-1.0
5430,17000,124,448,-1.00,-1.0
5432,17040,284,536,-1.00,-1.0
5434,16956,-24,448,-1.00,-1.0
5436,16836,-84,188,-1.00,-1.0
5438,16884,-212,-232,-1.00,-1.0
5442,17092,-432,224,-1.00,-1.0
5443,17040,-244,236,-1.00,-1.0
5445,17000,-252,368,-1.00,-1.0
5447,17048,-252,524,-1.00,-1.0
5449,16860,-276,500,-1.00,-1.0
5451,17080,-168,788,-1.00,-1.0
5453,17084,-28,908,-1.00,-1.0
5455,17032,-12,768,-1.00,-1.0
5457,17164,-132,732,-1.00,-1.0
5459,17200,56,1236,-1.00,-1.0
5461,16976,120,984,-1.00,-1.0
5463,16952,156,1268,-1.00,-1.0
5465,16972,124,748,-1.00,-1.0
5467,16956,192,1048,-1.00,-1.0
5469,16980,208,952,-1.00,-1.0
5471,16992,124,764,-1.00,-1.0
5473,16888,128,676,-1.00,-1.0
5477,16940,-76,440,-1.00,-1.0
5479,16756,-32,124,-1.00,-1.0
5481,16948,-68,264,-1.00,-1.0
5483,16996,-28,192,-1.00,-1.0
5485,17000,-64,104,-1.00,-1.0
5487,16920,-276,80,-1.00,-1.0
5488,17000,-236,436,-1.00,-1.0
5490,17036,-352,400,-1.00,-1.0
5492,16896,-360,660,-1.00,-1.0
5494,16976,-240,432,-1.00,-1.0
5496,16972,-164,692,-1.00,-1.0
5498,17024,-168,696,-1.00,-1.0
5500,16908,-52,676,-1.00,-1.0
5502,16956,-184,712,-1.00,-1.0
5504,16920,-100,752,-1.00,-1.0
5506,17096,100,540,-1.00,-1.0
5510,17060,-116,1436,-1.00,-1.0
5512,17132,256,1016,-1.00,-1.0
5514,17176,28,1324,-1.00,-1.0
5516,17112,60,892,-1.00,-1.0
5518,16784,92,724,-1.00,-1.0
5520,16868,92,1020,-1.00,-1.0
5522,16832,272,220,-1.00,-1.0
5524,16720,384,-300,-1.00,-1.0
5526,17316,176,444,-1.00,-1.0
5528,17324,408,564,-1.00,-1.0
5530,16684,748,-364,-1.00,-1.0
5532,17008,-64,924,-1.00,-1.0
5533,17096,72,392,-1.00,-1.0
5535,16788,188,148,-1.00,-1.0
5537,17228,-56,576,-1.00,-1.0
5539,17200,-388,600,-1.00,-1.0
5541,16844,-92,296,-1.00,-1.0
5545,17088,-264,1052,-1.00,-1.0
5547,17036,-424,424,-1.00,-1.0
5549,16960,-220,224,-1.00,-1.0
5551,17116,-60,492,-1.00,-1.0
5553,17024,-36,444,-1.00,-1.0
5555,17112,-208,700,-1.00,-1.0
5557,16976,40,512,-1.00,-1.0
5559,17040,-64,732,-1.00,-1.0
5561,16744,36,108,-1.00,-1.0
5563,17088,-408,1020,-1.00,-1.0
5565,17124,-276,1588,-1.00,-1.0
5567,16280,476,-868,-1.00,-1.0
5569,16952,-524,1320,-1.00,-1.0
5571,17764,-1224,3312,-1.00,-1.0
5573,16196,392,-448,-1.00,-1.0
5575,16428,-108,912,-1.00,-1.0
5577,17452,-1376,3464,-1.00,-1.0
5581,16356,332,-352,-1.00,-1.0
5583,17464,-1100,2632,-1.00,-1.0
5585,17504,-696,2460,-1.00,-1.0
5587,16076,736,-792,-1.00,-1.0
5589,16740,80,128,-1.00,-1.0
5591,18256,-1332,3664,-1.00,-1.0
5592,17048,-52,320,-1.00,-1.0
5594,16448,652,-280,-1.00,-1.0
5596,17200,-796,2108,-1.00,-1.0
5598,17160,-520,2124,-1.00,-1.0
5600,16628,324,-116,-1.00,-1.0
5602,16832,168,448,-1.00,-1.0
5604,17152,-400,1060,-1.00,-1.0
5606,17288,-192,1396,-1.00,-1.0
5608,16832,520,-408,-1.00,-1.0
5610,16932,-108,1104,-1.00,-1.0
5614,16824,-56,584,-1.00,-1.0
5616,16116,868,-804,-1.00,-1.0
5618,16868,-164,528,-1.00,-1.0
5620,17140,304,276,-1.00,-1.0
5622,16984,128,16,-1.00,-1.0
5624,17324,76,472,-1.00,-1.0
5626,17316,-328,1712,-1.00,-1.0
5628,16800,224,320,-1.00,-1.0
5630,17492,188,872,-1.00,-1.0
5632,17320,-116,932,-1.00,-1.0
5634,17176,-192,904,-1.00,-1.0
5636,16944,-68,724,-1.00,-1.0
5638,16900,-396,1812,-1.00,-1.0
5640,16836,-280,1288,-1.00,-1.0
5642,16776,-24,384,-1.00,-1.0
5643,17200,-308,712,-1.00,-1.0
5645,17188,-272,40,-1.00,-1.0
5650,16944,-120,180,-1.00,-1.0
5652,17008,-208,1240,-1.00,-1.0
5653,17068,-92,836,-1.00,-1.0
5655,16708,68,188,-1.00,-1.0
5657,16940,-80,-68,-1.00,-1.0
5659,17168,-60,460,-1.00,-1.0
5661,17092,48,252,-1.00,-1.0
5663,16976,-40,660,-1.00,-1.0
5665,17016,-84,948,-1.00,-1.0
5667,16984,56,668,-1.00,-1.0
5669,16852,152,124,-1.00,-1.0
5671,17040,28,692,-1.00,-1.0
5673,16820,-208,732,-1.00,-1.0
5675,17024,32,496,-1.00,-1.0
5677,16984,-196,1208,-1.00,-1.0
5679,16912,24,572,-1.00,-1.0
5681,16912,-304,1460,-1.00,-1.0
5685,17024,-12,116,-1.00,-1.0
5687,16864,-32,-156,-1.00,-1.0
5689,17128,-164,504,-1.00,-1.0
5690,17108,-88,792,-1.00,-1.0
5692,17024,-76,868,-1.00,-1.0
5694,16872,-12,104,-1.00,-1.0
5696,17056,-496,1540,-1.00,-1.0
5698,16764,-88,868,-1.00,-1.0
5700,16520,324,504,-1.00,-1.0
5702,16912,28,896,-1.00,-1.0
5704,17116,156,636,-1.00,-1.0
5706,16996,432,196,-1.00,-1.0
5708,16932,-100,1364,-1.00,-1.0
5710,16744,72,552,-1.00,-1.0
5712,16884,100,184,-1.00,-1.0
5714,17204,-64,956,-1.00,-1.0
5716,17040,40,548,-1.00,-1.0
5720,16932,-108,932,-1.00,-1.0
5722,16996,-312,844,-1.00,-1.0
5723,17128,-228,944,-1.00,-1.0
5725,16976,-288,676,-1.00,-1.0
5727,16952,-224,684,-1.00,-1.0
5729,16956,-148,888,-1.00,-1.0
5731,17016,-96,640,-1.00,-1.0
5733,17024,-156,888,-1.00,-1.0
5735,16948,-40,616,-1.00,-1.0
5737,16920,-8,708,-1.00,-1.0
5739,17012,-72,720,-1.00,-1.0
5741,17028,24,504,-1.00,-1.0
5743,17044,172,576,-1.00,-1.0
5745,17008,108,652,-1.00,-1.0
5747,16912,96,472,-1.00,-1.0
5749,17036,0,544,-1.00,-1.0
5751,16976,-20,616,-1.00,-1.0
5755,16988,-52,532,-1.00,-1.0
5757,17000,-36,408,-1.00,-1.0
5759,16596,240,-424,-1.00,-1.0
5761,16764,-520,12,-1.00,-1.0
5763,19036,-2548,5600,-1.00,-1.0
5765,17168,-508,392,-1.00,-1.0
5767,15312,864,-1800,-1.00,-1.0
5768,17272,-2244,4164,-1.00,-1.0
5770,16948,-224,992,-1.00,-1.0
5772,16132,872,-2476,-1.00,-1.0
5774,18072,-1484,3464,-1.00,-1.0
5776,18144,-1688,3604,-1.00,-1.0
5778,15464,1532,-3048,-1.00,-1.0
5780,16496,-100,340,-1.00,-1.0
5782,17880,-1076,2880,-1.00,-1.0
5784,16900,324,-1128,-1.00,-1.0
5788,17520,-864,1428,-1.00,-1.0
5790,16492,100,288,-1.00,-1.0
5792,16284,404,-780,-1.00,-1.0
5794,16988,-8,980,-1.00,-1.0
5796,17448,-408,968,-1.00,-1.0
5798,16948,164,508,-1.00,-1.0
5800,17084,-308,748,-1.00,-1.0
5802,17072,24,716,-1.00,-1.0
5804,16868,84,324,-1.00,-1.0
5806,17120,-36,828,-1.00,-1.0
5808,17020,-184,688,-1.00,-1.0
5810,16872,36,892,-1.00,-1.0
5811,16616,396,-624,-1.00,-1.0
5814,17380,-640,1680,-1.00,-1.0
5815,17796,-796,2032,-1.00,-1.0
5817,16664,308,284,-1.00,-1.0
5819,16800,-200,1164,-1.00,-1.0
5823,16448,616,-804,-1.00,-1.0
5825,16720,280,288,-1.00,-1.0
5827,18060,-696,1956,-1.00,-1.0
5829,17124,264,400,-1.00,-1.0
5831,16552,292,-612,-1.00,-1.0
5833,17080,-400,1632,-1.00,-1.0
5835,16944,-68,156,-1.00,-1.0
5837,16504,184,188,-1.00,-1.0
5839,17040,-280,452,-1.00,-1.0
5841,17264,-408,1084,-1.00,-1.0
5843,16820,-32,-164,-1.00,-1.0
5845,16920,-28,416,-1.00,-1.0
5847,17112,-208,572,-1.00,-1.0
5849,17064,-256,912,-1.00,-1.0
5851,17116,-12,248,-1.00,-1.0
5853,17052,-52,1028,-1.00,-1.0
5857,17024,36,648,-1.00,-1.0
5859,16976,192,860,-1.00,-1.0
5861,17060,72,912,-1.00,-1.0
5863,16884,128,484,-1.00,-1.0
5865,16972,84,776,-1.00,-1.0
5867,17092,36,912,-1.00,-1.0
5869,17036,52,808,-1.00,-1.0
5870,16912,32,568,-1.00,-1.0
5872,16992,-184,644,-1.00,-1.0
5874,16896,-44,384,-1.00,-1.0
5876,16932,-92,536,-1.00,-1.0
5878,16984,-84,656,-1.00,-1.0
5880,16960,-212,480,-1.00,-1.0
5882,16984,-228,512,-1.00,-1.0
5884,16948,-176,304,-1.00,-1.0
5886,16960,-240,460,-1.00,-1.0
5888,16996,-232,580,-1.00,-1.0
5892,16984,-160,544,-1.00,-1.0
5894,16904,-40,604,-1.00,-1.0
5896,17040,-76,508,-1.00,-1.0
5898,16960,28,624,-1.00,-1.0
5900,17140,8,688,-1.00,-1.0
5902,17120,32,720,-1.00,-1.0
5904,16928,76,656,-1.00,-1.0
5906,16996,92,828,-1.00,-1.0
5908,16944,72,816,-1.00,-1.0
5910,17040,196,688,-1.00,-1.0
5912,16984,36,572,-1.00,-1.0
5914,17016,48,440,-1.00,-1.0
5915,17028,-48,544,-1.00,-1.0
5917,17044,24,536,-1.00,-1.0
5919,16928,-16,340,-1.00,-1.0
5921,16956,-12,432,-1.00,-1.0
5923,17004,-156,368,-1.00,-1.0
5925,16992,-124,484,-1.00,-1.0
5929,16860,-84,408,-1.00,-1.0
5931,16948,-184,428,-1.00,-1.0
5933,16964,-68,512,-1.00,-1.0
5935,16988,-4,608,-1.00,-1.0
5937,16980,-80,504,-1.00,-1.0
5939,16976,-16,616,-1.00,-1.0
5941,17036,16,624,-1.00,-1.0
5943,17012,44,696,-1.00,-1.0
5945,17012,20,812,-1.00,-1.0
5947,17060,40,884,-1.00,-1.0
5949,17044,12,780,-1.00,-1.0
5951,16984,72,844,-1.00,-1.0
5953,17048,-60,808,-1.00,-1.0
5955,17080,36,776,-1.00,-1.0
5957,17080,12,704,-1.00,-1.0
5958,17052,-4,808,-1.00,-1.0
5960,17084,56,672,-1.00,-1.0
5964,17032,-56,532,-1.00,-1.0
5966,16908,36,504,-1.00,-1.0
5968,16884,-136,420,-1.00,-1.0
5970,17028,-16,340,-1.00,-1.0
5972,16928,-140,408,-1.00,-1.0
5974,16964,-4,344,-1.00,-1.0
5976,16964,-224,500,-1.00,-1.0
5978,16956,-136,596,-1.00,-1.0
5980,17084,-100,468,-1.00,-1.0
5982,16924,-68,520,-1.00,-1.0
5984,17044,-116,628,-1.00,-1.0
5986,17000,-104,616,-1.00,-1.0
5988,17040,-44,648,-1.00,-1.0
5990,17044,-100,652,-1.00,-1.0
5992,16940,4,620,-1.00,-1.0
5994,16928,-24,672,-1.00,-1.0
5996,17040,-12,884,-1.00,-1.0
5999,16968,16,800,-1.00,-1.0
6001,16924,-32,708,-1.00,-1.0
6003,16868,-64,504,-1.00,-1.0
6005,16948,-44,680,-1.00,-1.0
6007,17020,-12,440,-1.00,-1.0
6009,17028,44,452,-1.00,-1.0
6011,16944,-64,468,-1.00,-1.0
6013,16984,-20,516,-1.00,-1.0
6015,17068,0,428,-1.00,-1.0
6017,17004,-84,512,-1.00,-1.0
6019,16896,-48,468,-1.00,-1.0
6021,17072,-12,576,-1.00,-1.0
6023,17016,-28,564,-1.00,-1.0
6025,16972,92,516,-1.00,-1.0
6027,16940,56,676,-1.00,-1.0
6029,16924,52,540,-1.00,-1.0
6031,16980,-156,752,-1.00,-1.0
6035,16960,68,656,-1.00,-1.0
6037,17068,-12,856,-1.00,-1.0
6039,17032,16,712,-1.00,-1.0
6041,16992,-44,748,-1.00,-1.0
6042,17044,-132,664,-1.00,-1.0
6045,16996,-56,788,-1.00,-1.0
6046,16972,-80,760,-1.00,-1.0
6048,16904,-4,556,-1.00,-1.0
6050,16912,-32,672,-1.00,-1.0
6052,16992,8,508,-1.00,-1.0
6054,17100,-60,460,-1.00,-1.0
6056,16916,-88,324,-1.00,-1.0
6058,17008,-68,400,-1.00,-1.0
6060,16956,-112,504,-1.00,-1.0
6062,16924,-76,460,-1.00,-1.0
6064,17044,-116,576,-1.00,-1.0
6066,16976,-112,476,-1.00,-1.0
6070,17072,-8,548,-1.00,-1.0
6072,17004,-100,632,-1.00,-1.0
6074,17080,-36,656,-1.00,-1.0
6076,17028,-128,584,-1.00,-1.0
6078,16972,32,652,-1.00,-1.0
6080,16980,20,680,-1.00,-1.0
6082,17060,-144,740,-1.00,-1.0
6084,17020,-124,516,-1.00,-1.0
6086,16928,-40,616,-1.00,-1.0
6088,17044,-96,660,-1.00,-1.0
6090,16960,32,764,-1.00,-1.0
6091,17044,68,576,-1.00,-1.0
6093,16932,-104,640,-1.00,-1.0
6095,16944,-40,660,-1.00,-1.0
6097,16984,-48,492,-1.00,-1.0
6099,16960,-48,444,-1.00,-1.0
6101,16880,4,604,-1.00,-1.0
6103,17040,16,564,-1.00,-1.0
6107,16996,28,616,-1.00,-1.0
6109,16912,40,468,-1.00,-1.0
6111,16956,-56,536,-1.00,-1.0
6113,16876,-8,744,-1.00,-1.0
6115,16936,4,564,-1.00,-1.0
6117,16992,-76,684,-1.00,-1.0
6119,17056,-76,712,-1.00,-1.0
6121,17028,-92,628,-1.00,-1.0
6123,17012,-28,800,-1.00,-1.0
6125,16984,-40,752,-1.00,-1.0
6127,17004,40,848,-1.00,-1.0
6129,17020,-12,712,-1.00,-1.0
6130,17036,-60,756,-1.00,-1.0
6133,17068,-64,688,-1.00,-1.0
6135,16992,-24,552,-1.00,-1.0
6136,17000,-40,668,-1.00,-1.0
6138,16924,-104,556,-1.00,-1.0
6143,16916,-84,620,-1.00,-1.0
6145,16996,-20,676,-1.00,-1.0
6146,17112,60,576,-1.00,-1.0
6148,17072,-92,736,-1.00,-1.0
6150,17004,28,624,-1.00,-1.0
6152,16976,68,632,-1.00,-1.0
6154,17040,-8,696,-1.00,-1.0
6156,17060,-96,572,-1.00,-1.0
6158,17008,36,652,-1.00,-1.0
6160,17048,-64,480,-1.00,-1.0
6162,16900,-80,612,-1.00,-1.0
6164,16948,-36,604,-1.00,-1.0
6166,17020,8,676,-1.00,-1.0
6168,16972,-56,652,-1.00,-1.0
6170,17068,-104,696,-1.00,-1.0
6172,17088,-24,716,-1.00,-1.0
6174,16976,24,624,-1.00,-1.0
6178,17040,96,600,-1.00,-1.0
6180,17036,-56,588,-1.00,-1.0
6182,17016,-52,508,-1.00,-1.0
6184,17060,-92,564,-1.00,-1.0
6186,16880,20,572,-1.00,-1.0
6188,17016,-132,576,-1.00,-1.0
6190,17016,-8,520,-1.00,-1.0
6192,16876,-100,612,-1.00,-1.0
6193,16932,-72,492,-1.00,-1.0
6195,17004,-40,532,-1.00,-1.0
6197,17004,4,496,-1.00,-1.0
6199,16940,16,560,-1.00,-1.0
6201,16976,4,372,-1.00,-1.0
6203,16996,-12,480,-1.00,-1.0
6205,17000,-16,644,-1.00,-1.0
6207,17024,-148,580,-1.00,-1.0
6209,17032,-52,592,-1.00,-1.0
6213,16892,4,672,-1.00,-1.0
6215,17076,-64,560,-1.00,-1.0
6217,17020,-40,600,-1.00,-1.0
6219,17000,-16,700,-1.00,-1.0
6221,16976,-108,612,-1.00,-1.0
6223,16912,-48,620,-1.00,-1.0
6225,17016,28,644,-1.00,-1.0
6227,16956,-100,632,-1.00,-1.0
6229,17000,84,608,-1.00,-1.0
6231,16900,-12,468,-1.00,-1.0
6233,16964,48,616,-1.00,-1.0
6235,17052,-92,628,-1.00,-1.0
6236,16996,12,668,-1.00,-1.0
6239,16924,4,740,-1.00,-1.0
6241,17008,0,624,-1.00,-1.0
6242,17080,-52,604,-1.00,-1.0
6244,16944,12,740,-1.00,-1.0
6246,16944,12,696,-1.00,-1.0
6250,17048,-80,752,-1.00,-1.0
6252,17032,-48,448,-1.00,-1.0
6254,17196,-40,612,-1.00,-1.0
6256,17068,-12,728,-1.00,-1.0
6258,16964,-128,544,-1.00,-1.0
6260,16936,-44,524,-1.00,-1.0
6262,16972,28,584,-1.00,-1.0
6264,16980,-36,416,-1.00,-1.0
6266,16920,-84,516,-1.00,-1.0
6268,16912,-136,636,-1.00,-1.0
6270,17064,-72,748,-1.00,-1.0
6272,17068,-76,740,-1.00,-1.0
6274,17048,-84,596,-1.00,-1.0
6276,16964,-136,536,-1.00,-1.0
6278,17028,-88,540,-1.00,-1.0
6279,16952,-76,536,-1.00,-1.0
6281,16992,-196,612,-1.00,-1.0
6285,17020,-64,740,-1.00,-1.0
6287,17036,-200,660,-1.00,-1.0
6289,16956,-120,512,-1.00,-1.0
6291,16972,-100,548,-1.00,-1.0
6293,16928,-64,656,-1.00,-1.0
6295,16980,8,660,-1.00,-1.0
6297,16948,-76,516,-1.00,-1.0
6299,16936,24,764,-1.00,-1.0
6301,16976,32,560,-1.00,-1.0
6303,16992,-8,684,-1.00,-1.0
6305,17028,20,596,-1.00,-1.0
6307,17008,-8,744,-1.00,-1.0
6309,16964,-24,648,-1.00,-1.0
6311,16904,24,716,-1.00,-1.0
6313,16980,-76,808,-1.00,-1.0
6314,16964,-100,500,-1.00,-1.0
6316,17068,-60,504,-1.00,-1.0
6321,17004,-40,580,-1.00,-1.0
6323,17000,-52,612,-1.00,-1.0
6324,17064,-4,540,-1.00,-1.0
6326,17040,-56,520,-1.00,-1.0
6328,16948,-68,500,-1.00,-1.0
6330,16960,-64,676,-1.00,-1.0
6332,16988,-68,612,-1.00,-1.0
6334,16960,-52,660,-1.00,-1.0
6336,17048,-16,708,-1.00,-1.0
6338,17108,-48,664,-1.00,-1.0
6340,16984,-92,600,-1.00,-1.0
6342,16952,-20,624,-1.00,-1.0
6344,17076,-60,644,-1.00,-1.0
6346,17040,-40,796,-1.00,-1.0
6348,16960,32,660,-1.00,-1.0
6350,17124,-44,736,-1.00,-1.0
6352,16992,-40,592,-1.00,-1.0
6356,16988,-72,596,-1.00,-1.0
6358,16968,-96,572,-1.00,-1.0
6360,17068,-132,712,-1.00,-1.0
6362,17068,-96,572,-1.00,-1.0
6364,16992,-108,448,-1.00,-1.0
6366,16952,4,648,-1.00,-1.0
6367,17100,-112,568,-1.00,-1.0
6369,16988,-172,620,-1.00,-1.0
6371,17108,-176,756,-1.00,-1.0
6373,17012,16,560,-1.00,-1.0
6375,17036,-24,636,-1.00,-1.0
6377,16924,-92,712,-1.00,-1.0
6379,16984,-24,640,-1.00,-1.0
6381,17104,-96,612,-1.00,-1.0
6383,17088,-104,696,-1.00,-1.0
6385,16964,-60,568,-1.00,-1.0
6387,17036,24,684,-1.00,-1.0
6391,17020,-16,548,-1.00,-1.0
6393,16896,-44,768,-1.00,-1.0
6395,17016,20,688,-1.00,-1.0
6397,16944,-16,528,-1.00,-1.0
6399,16936,52,596,-1.00,-1.0
6401,16936,-52,596,-1.00,-1.0
6403,16952,-32,488,-1.00,-1.0
6405,16912,-72,548,-1.00,-1.0
6407,16992,-8,560,-1.00,-1.0
6409,16932,72,564,-1.00,-1.0
6411,16960,-96,480,-1.00,-1.0
6412,16996,-32,400,-1.00,-1.0
6414,17008,-84,452,-1.00,-1.0
6416,17040,-88,580,-1.00,-1.0
6418,16980,-108,548,-1.00,-1.0
6420,16984,-128,612,-1.00,-1.0
6422,16932,8,616,-1.00,-1.0
6426,17096,-32,432,-1.00,-1.0
6428,16912,40,684,-1.00,-1.0
6430,16912,44,608,-1.00,-1.0
6432,17008,56,644,-1.00,-1.0
6434,16888,-60,532,-1.00,-1.0
6436,16932,-44,540,-1.00,-1.0
6438,16992,-64,428,-1.00,-1.0
6440,17084,-84,628,-1.00,-1.0
6442,16992,60,700,-1.00,-1.0
6444,16940,-40,680,-1.00,-1.0
6446,17044,-100,652,-1.00,-1.0
6448,17088,52,556,-1.00,-1.0
6450,17080,-16,548,-1.00,-1.0
6452,16968,-88,708,-1.00,-1.0
6454,17056,-80,584,-1.00,-1.0
6456,16996,-128,520,-1.00,-1.0
6457,17032,-24,612,-1.00,-1.0
6462,17088,-32,580,-1.00,-1.0
6464,17016,-112,716,-1.00,-1.0
6466,17032,-124,624,-1.00,-1.0
6467,16980,8,624,-1.00,-1.0
6469,16928,-44,648,-1.00,-1.0
6471,16984,-128,684,-1.00,-1.0
6473,17064,-64,716,-1.00,-1.0
6475,17076,-124,800,-1.00,-1.0
6477,17036,4,792,-1.00,-1.0
6479,17064,60,712,-1.00,-1.0
6481,16904,-24,564,-1.00,-1.0
6483,16940,-124,660,-1.00,-1.0
6485,17056,48,692,-1.00,-1.0
6487,16940,-80,620,-1.00,-1.0
6489,16988,-44,700,-1.00,-1.0
6491,17008,-88,536,-1.00,-1.0
6493,16960,4,676,-1.00,-1.0
6495,16948,-48,624,-1.00,-1.0
6499,17020,-56,516,-1.00,-1.0
6501,17016,-24,464,-1.00,-1.0
6503,17012,-36,544,-1.00,-1.0
6505,16972,-60,696,-1.00,-1.0
6507,16996,-124,684,-1.00,-1.0
6509,17048,-60,604,-1.00,-1.0
6511,16984,-28,580,-1.00,-1.0
6512,16968,-172,604,-1.00,-1.0
6514,16976,-52,604,-1.00,-1.0
6516,16948,-104,528,-1.00,-1.0
6518,16932,8,684,-1.00,-1.0
6520,17016,-20,640,-1.00,-1.0
6522,16996,-20,596,-1.00,-1.0
6524,17000,-44,712,-1.00,-1.0
6526,16984,-24,616,-1.00,-1.0
6528,17044,76,628,-1.00,-1.0
6530,17072,-64,580,-1.00,-1.0
6535,16960,0,580,-1.00,-1.0
6537,17020,-52,512,-1.00,-1.0
6539,16960,-168,740,-1.00,-1.0
6541,16908,-140,552,-1.00,-1.0
6543,16860,4,712,-1.00,-1.0
6545,16984,36,612,-1.00,-1.0
6546,17036,-88,544,-1.00,-1.0
6548,16964,-80,664,-1.00,-1.0
6550,16932,-20,540,-1.00,-1.0
6552,16920,-56,588,-1.00,-1.0
6554,17072,-52,640,-1.00,-1.0
6556,17100,-52,676,-1.00,-1.0
6558,17120,-36,732,-1.00,-1.0
6560,17100,44,648,-1.00,-1.0
6562,17044,-120,556,-1.00,-1.0
6564,16924,0,504,-1.00,-1.0
6566,17040,-92,700,-1.00,-1.0
6570,17060,-20,520,-1.00,-1.0
6572,16956,56,608,-1.00,-1.0
6574,17016,0,696,-1.00,-1.0
6576,16920,52,660,-1.00,-1.0
6578,17036,-132,556,-1.00,-1.0
6580,16996,-100,528,-1.00,-1.0
6582,16988,-108,668,-1.00,-1.0
6583,16932,-4,780,-1.00,-1.0
6586,17028,32,656,-1.00,-1.0
6587,16960,-40,560,-1.00,-1.0
6589,17000,8,712,-1.00,-1.0
6591,16940,-112,652,-1.00,-1.0
6593,16928,-104,596,-1.00,-1.0
6595,17020,-44,524,-1.00,-1.0
6597,16944,-64,616,-1.00,-1.0
6599,16964,-8,820,-1.00,-1.0
6601,16904,-8,592,-1.00,-1.0
6605,17052,-60,520,-1.00,-1.0
6607,16932,28,600,-1.00,-1.0
6609,17020,-32,580,-1.00,-1.0
6611,16964,8,760,-1.00,-1.0
6613,16896,124,576,-1.00,-1.0
6615,17020,-12,760,-1.00,-1.0
6617,17048,-124,576,-1.00,-1.0
6619,16988,-56,560,-1.00,-1.0
6621,17040,-112,436,-1.00,-1.0
6623,17048,-44,632,-1.00,-1.0
6625,17024,-16,516,-1.00,-1.0
6626,16992,-92,680,-1.00,-1.0
6628,17040,-136,516,-1.00,-1.0
6630,17060,-100,616,-1.00,-1.0
6632,16980,-76,660,-1.00,-1.0
6634,16884,-60,400,-1.00,-1.0
6636,17036,-176,544,-1.00,-1.0
6640,17000,0,564,-1.00,-1.0
6642,16988,-48,668,-1.00,-1.0
6644,16836,-72,708,-1.00,-1.0
6646,16936,-60,712,-1.00,-1.0
6648,17000,-8,576,-1.00,-1.0
6650,16968,36,660,-1.00,-1.0
6652,17040,48,632,-1.00,-1.0
6654,16948,-16,804,-1.00,-1.0
6656,17004,0,640,-1.00,-1.0
6658,17072,-76,792,-1.00,-1.0
6660,17060,-88,496,-1.00,-1.0
6662,17016,-84,640,-1.00,-1.0
6664,16976,-12,512,-1.00,-1.0
6666,17044,-44,496,-1.00,-1.0
6668,17088,-124,668,-1.00,-1.0
6670,17004,-52,524,-1.00,-1.0
6671,16992,-64,512,-1.00,-1.0
6676,16976,-44,492,-1.00,-1.0
6678,17056,-64,588,-1.00,-1.0
6680,16996,-88,536,-1.00,-1.0
6681,17028,24,584,-1.00,-1.0
6683,16932,-32,484,-1.00,-1.0
6685,17052,-44,412,-1.00,-1.0
6687,17096,-44,512,-1.00,-1.0
6689,16956,-4,588,-1.00,-1.0
6691,17028,-64,568,-1.00,-1.0
6693,16944,12,648,-1.00,-1.0
6695,16980,84,684,-1.00,-1.0
6697,17036,-36,564,-1.00,-1.0
6699,16904,-100,608,-1.00,-1.0
6701,17020,-8,588,-1.00,-1.0
6703,16984,-132,500,-1.00,-1.0
6705,17048,28,492,-1.00,-1.0
6707,17040,-24,564,-1.00,-1.0
6709,17048,-32,724,-1.00,-1.0
6713,17052,-72,552,-1.00,-1.0
6715,17036,-52,616,-1.00,-1.0
6717,17024,12,536,-1.00,-1.0
6719,17032,0,640,-1.00,-1.0
6721,17044,-88,596,-1.00,-1.0
6723,17036,-108,756,-1.00,-1.0
6724,16952,-28,472,-1.00,-1.0
6726,16936,-24,564,-1.00,-1.0
6728,16932,-96,576,-1.00,-1.0
6730,17004,28,592,-1.00,-1.0
6732,17072,-48,520,-1.00,-1.0
6734,17088,0,668,-1.00,-1.0
6736,17008,-44,508,-1.00,-1.0
6738,17032,-88,480,-1.00,-1.0
6740,17060,-60,536,-1.00,-1.0
6742,16964,-64,580,-1.00,-1.0
6744,16924,-168,520,-1.00,-1.0
6748,17020,-108,644,-1.00,-1.0
6750,17060,-92,464,-1.00,-1.0
6752,17060,-16,580,-1.00,-1.0
6754,17000,-4,508,-1.00,-1.0
6756,17004,-80,676,-1.00,-1.0
6758,17004,-16,456,-1.00,-1.0
6760,17060,52,596,-1.00,-1.0
6762,16956,-88,524,-1.00,-1.0
6764,16992,-76,532,-1.00,-1.0
6766,16948,-36,596,-1.00,-1.0
6768,16900,-24,556,-1.00,-1.0
6769,16884,-56,620,-1.00,-1.0
6771,17012,-112,696,-1.00,-1.0
6773,16940,-72,760,-1.00,-1.0
6775,17064,12,624,-1.00,-1.0
6777,17020,-16,412,-1.00,-1.0
6779,16940,-64,640,-1.00,-1.0
6784,16928,20,596,-1.00,-1.0
6786,16900,-100,628,-1.00,-1.0
6787,16944,-80,540,-1.00,-1.0
6789,17028,-84,616,-1.00,-1.0
6791,16964,-16,672,-1.00,-1.0
6793,17004,-120,640,-1.00,-1.0
6795,17064,-108,704,-1.00,-1.0
6797,17044,-48,792,-1.00,-1.0
6799,16972,-36,592,-1.00,-1.0
6801,17068,76,588,-1.00,-1.0
6803,16996,-52,532,-1.00,-1.0
6805,16976,-16,436,-1.00,-1.0
6807,16968,12,600,-1.00,-1.0
6809,16976,-20,600,-1.00,-1.0
6811,17084,-120,460,-1.00,-1.0
6813,16952,16,512,-1.00,-1.0
6815,17044,-4,496,-1.00,-1.0
6819,17048,20,704,-1.00,-1.0
6821,16968,36,756,-1.00,-1.0
6823,16964,-36,660,-1.00,-1.0
6824,16968,-44,708,-1.00,-1.0
6826,16944,4,540,-1.00,-1.0
6828,16972,20,612,-1.00,-1.0
6830,16968,-128,588,-1.00,-1.0
6832,17028,-16,624,-1.00,-1.0
6834,17028,-64,592,-1.00,-1.0
6836,17072,36,564,-1.00,-1.0
6838,17012,-92,496,-1.00,-1.0
6840,16932,4,532,-1.00,-1.0
6842,16900,-60,620,-1.00,-1.0
6844,17004,-44,588,-1.00,-1.0
6846,16980,-28,576,-1.00,-1.0
6848,16968,-112,600,-1.00,-1.0
6850,16972,36,604,-1.00,-1.0
6854,17008,-60,600,-1.00,-1.0
6856,16992,-108,320,-1.00,-1.0
6857,16912,48,672,-1.00,-1.0
6859,17052,-48,608,-1.00,-1.0
6861,16996,-172,648,-1.00,-1.0
6863,16972,72,500,-1.00,-1.0
6865,17016,-108,728,-1.00,-1.0
6867,16976,-148,696,-1.00,-1.0
6869,16904,-92,704,-1.00,-1.0
6871,16952,-4,668,-1.00,-1.0
6873,17072,-80,572,-1.00,-1.0
6875,16988,-68,680,-1.00,-1.0
6877,16948,-52,720,-1.00,-1.0
6879,16932,-36,616,-1.00,-1.0
6881,16988,-48,608,-1.00,-1.0
6883,17080,56,672,-1.00,-1.0
6885,17036,8,620,-1.00,-1.0
6889,16996,-72,628,-1.00,-1.0
6891,17092,-100,644,-1.00,-1.0
6893,16988,-56,572,-1.00,-1.0
6895,17020,0,684,-1.00,-1.0
6896,16972,-60,852,-1.00,-1.0
6899,17004,-132,732,-1.00,-1.0
6901,17008,-128,652,-1.00,-1.0
6902,17028,-48,548,-1.00,-1.0
6904,16928,-40,596,-1.00,-1.0
6906,16976,-20,600,-1.00,-1.0
6908,17040,-8,492,-1.00,-1.0
6910,17076,-128,736,-1.00,-1.0
6912,17068,-92,724,-1.00,-1.0
6914,17008,48,528,-1.00,-1.0
6916,16908,-60,384,-1.00,-1.0
6918,17028,-52,592,-1.00,-1.0
6920,16944,-92,676,-1.00,-1.0
6924,16976,-16,576,-1.00,-1.0
6926,16900,-60,612,-1.00,-1.0
6928,16924,-28,520,-1.00,-1.0
6930,17020,-120,624,-1.00,-1.0
6932,16968,-84,604,-1.00,-1.0
6934,16984,-12,548,-1.00,-1.0
6936,17080,-56,592,-1.00,-1.0
6938,17024,20,516,-1.00,-1.0
6940,17112,88,596,-1.00,-1.0
6942,16932,-64,508,-1.00,-1.0
6944,16956,-40,696,-1.00,-1.0
6945,16992,72,528,-1.00,-1.0
6947,16972,-16,572,-1.00,-1.0
6949,16920,-84,608,-1.00,-1.0
6951,16988,-40,624,-1.00,-1.0
6953,16928,-80,576,-1.00,-1.0
6955,17012,12,540,-1.00,-1.0
6957,17024,24,616,-1.00,-1.0
6961,16992,84,580,-1.00,-1.0
6963,17084,-56,580,-1.00,-1.0
6965,16940,-124,700,-1.00,-1.0
6967,16976,12,400,-1.00,-1.0
6969,17032,-88,600,-1.00,-1.0
6971,17060,8,748,-1.00,-1.0
6973,17096,-44,588,-1.00,-1.0
6975,16996,-84,636,-1.00,-1.0
6977,17008,-128,580,-1.00,-1.0
6979,17024,-164,664,-1.00,-1.0
6981,17016,-84,800,-1.00,-1.0
6983,16992,-212,620,-1.00,-1.0
6985,16868,-56,560,-1.00,-1.0
6987,16952,-132,568,-1.00,-1.0
6989,16988,-16,744,-1.00,-1.0
6990,16956,8,632,-1.00,-1.0
6992,16992,36,580,-1.00,-1.0
6997,17092,-32,744,-1.00,-1.0
6999,17004,-12,596,-1.00,-1.0
7000,17072,-88,608,-1.00,-1.0
7002,16908,-60,624,-1.00,-1.0
7004,16944,-16,624,-1.00,-1.0
7006,17024,-68,632,-1.00,-1.0
7008,17136,-64,720,-1.00,-1.0
7010,17012,-68,732,-1.00,-1.0
7012,16968,44,676,-1.00,-1.0
7014,16936,112,556,-1.00,-1.0
7016,17072,-76,528,-1.00,-1.0
7018,17064,92,660,-1.00,-1.0
7020,17028,16,408,-1.00,-1.0
7022,17012,-112,516,-1.00,-1.0
7024,17084,0,536,-1.00,-1.0
7026,16884,8,564,-1.00,-1.0
7028,16980,12,600,-1.00,-1.0
7032,16940,-88,660,-1.00,-1.0
7034,16880,-16,572,-1.00,-1.0
7036,16924,4,724,-1.00,-1.0
7038,16996,-28,628,-1.00,-1.0
7040,17088,-44,468,-1.00,-1.0
7042,16940,-80,644,-1.00,-1.0
7043,17004,-12,556,-1.00,-1.0
7045,16964,-48,784,-1.00,-1.0
7047,16992,-40,616,-1.00,-1.0
7049,17096,-28,388,-1.00,-1.0
7051,16972,-76,492,-1.00,-1.0
7053,17032,-24,656,-1.00,-1.0
7055,16964,-208,672,-1.00,-1.0
7057,17024,-84,664,-1.00,-1.0
7059,16972,-60,644,-1.00,-1.0
7061,16960,-44,592,-1.00,-1.0
7063,16928,-72,532,-1.00,-1.0
7067,17056,32,540,-1.00,-1.0
7069,16888,-108,528,-1.00,-1.0
7071,17028,-44,644,-1.00,-1.0
7073,17072,-44,628,-1.00,-1.0
7075,16976,-60,452,-1.00,-1.0
7077,17052,60,752,-1.00,-1.0
7079,17060,-28,624,-1.00,-1.0
7081,17080,64,496,-1.00,-1.0
7083,16908,-40,476,-1.00,-1.0
7085,17032,12,604,-1.00,-1.0
7087,17008,-76,800,-1.00,-1.0
7088,16912,-92,692,-1.00,-1.0
7090,17056,64,612,-1.00,-1.0
7092,17144,-88,524,-1.00,-1.0
7094,16964,128,624,-1.00,-1.0
7096,17044,32,596,-1.00,-1.0
7098,17036,-124,568,-1.00,-1.0
7102,17024,-88,704,-1.00,-1.0
7104,16936,-120,452,-1.00,-1.0
7106,16944,-92,544,-1.00,-1.0
7108,17088,-80,580,-1.00,-1.0
7110,16984,64,624,-1.00,-1.0
7112,16936,-36,680,-1.00,-1.0
7114,17076,-12,592,-1.00,-1.0
7116,17020,-140,620,-1.00,-1.0
7118,17008,-88,788,-1.00,-1.0
7120,17000,24,512,-1.00,-1.0
7122,17112,-52,424,-1.00,-1.0
7124,17068,-52,584,-1.00,-1.0
7126,17036,-76,596,-1.00,-1.0
7128,17064,-40,720,-1.00,-1.0
7130,17020,8,560,-1.00,-1.0
7131,17052,-52,660,-1.00,-1.0
7133,17104,-40,592,-1.00,-1.0
7135,16876,-20,644,-1.00,-1.0
7139,17040,-24,612,-1.00,-1.0
7141,17048,-84,528,-1.00,-1.0
7143,17044,-168,560,-1.00,-1.0
7145,16936,-136,544,-1.00,-1.0
7147,16972,-152,660,-1.00,-1.0
7149,17048,-16,696,-1.00,-1.0
7151,16924,-100,648,-1.00,-1.0
7153,16980,-52,692,-1.00,-1.0
7155,16960,-88,616,-1.00,-1.0
7157,17008,-28,584,-1.00,-1.0
7159,17064,120,600,-1.00,-1.0
7161,16980,-4,636,-1.00,-1.0
7163,17008,-120,624,-1.00,-1.0
7165,17000,-52,656,-1.00,-1.0
7166,17032,24,596,-1.00,-1.0
7168,17020,-124,628,-1.00,-1.0
7173,17016,0,588,-1.00,-1.0
7175,17076,-36,640,-1.00,-1.0
7176,16956,20,524,-1.00,-1.0
7178,17036,76,660,-1.00,-1.0
7180,17096,12,596,-1.00,-1.0
7182,16964,-64,780,-1.00,-1.0
7184,16964,-12,756,-1.00,-1.0
7186,16900,28,568,-1.00,-1.0
7188,16924,24,536,-1.00,-1.0
7190,17036,52,664,-1.00,-1.0
7192,17056,-40,692,-1.00,-1.0
7194,16996,36,564,-1.00,-1.0
7196,17020,-80,552,-1.00,-1.0
7198,17076,-140,596,-1.00,-1.0
7200,16904,-108,660,-1.00,-1.0
7202,17052,-72,644,-1.00,-1.0
7204,17056,-140,660,-1.00,-1.0
7205,16968,-68,608,-1.00,-1.0
7210,17004,52,428,-1.00,-1.0
7212,17016,-76,556,-1.00,-1.0
7214,16916,12,520,-1.00,-1.0
7215,16932,-156,684,-1.00,-1.0
7218,16940,-100,752,-1.00,-1.0
7219,16964,20,504,-1.00,-1.0
7221,16972,-124,492,-1.00,-1.0
7223,16864,0,588,-1.00,-1.0
7225,16996,-44,660,-1.00,-1.0
7227,16956,-56,520,-1.00,-1.0
7229,17032,-100,556,-1.00,-1.0
7231,17072,-64,636,-1.00,-1.0
7233,17076,24,560,-1.00,-1.0
7235,16992,28,636,-1.00,-1.0
7237,17008,-104,688,-1.00,-1.0
7239,16924,-112,580,-1.00,-1.0
7241,16940,-68,696,-1.00,-1.0
7245,17000,-8,656,-1.00,-1.0
7247,17052,-16,676,-1.00,-1.0
7249,17036,52,556,-1.00,-1.0
7251,17140,92,784,-1.00,-1.0
7253,17424,-272,1736,-1.00,-1.0
7255,16732,484,780,-1.00,-1.0
7257,17916,-3428,6484,-1.00,-1.0
7259,15152,4408,-10532,-1.00,-1.0
7261,18176,3964,-1480,-1.00,-1.0
7263,20112,2564,3348,-1.00,-1.0
7264,16792,3924,876,-1.00,-1.0
7266,14296,1156,3796,-1.00,-1.0
7268,16440,-5864,9524,-1.00,-1.0
7270,20316,-6036,8304,-1.00,-1.0
7272,16608,-3404,1976,-1.00,-1.0
7274,9868,6712,-27900,-1.00,-1.0
7278,28876,-11636,15616,-1.00,-1.0
7280,13780,6232,-5636,-1.00,-1.0
7282,10944,5180,-3644,-1.00,-1.0
7284,22720,-12424,17980,-1.00,-1.0
7286,18760,-3004,4316,-1.00,-1.0
7288,9784,-424,-13780,-1.00,-1.0
7290,15872,2256,-6300,-1.00,-1.0
7292,20976,-2740,5456,-1.00,-1.0
7294,21200,-6636,908,-1.00,-1.0
7296,16668,4484,6932,-1.00,-1.0
7298,11228,340,-7220,-1.00,-1.0
7300,17104,-2036,792,-1.00,-1.0
7302,19216,-3176,6564,-1.00,-1.0
7304,17972,-2532,-5440,-1.00,-1.0
7306,16992,1476,3536,-1.00,-1.0
7308,16580,2064,428,-1.00,-1.0
7312,15664,2100,-4736,-1.00,-1.0
7314,17384,-2296,188,-1.00,-1.0
7316,19724,-484,2408,-1.00,-1.0
7318,15064,2536,-5772,-1.00,-1.0
7320,18248,272,2316,-1.00,-1.0
7322,17900,344,5236,-1.00,-1.0
7323,18508,-556,4816,-1.00,-1.0
7325,17768,-1416,4492,-1.00,-1.0
7327,15776,1464,-960,-1.00,-1.0
7329,15276,872,908,-1.00,-1.0
7331,20124,-6064,8420,-1.00,-1.0
7333,18748,-1480,8448,-1.00,-1.0
7335,12004,5484,-10664,-1.00,-1.0
7337,9260,13228,-26832,-1.00,-1.0
7339,21172,1248,10080,-1.00,-1.0
7343,17280,8032,1152,-1.00,-1.0
7345,16120,-1848,9996,-1.00,-1.0
7347,14404,2300,-14588,-1.00,-1.0
7349,16804,3860,2892,-1.00,-1.0
7351,17812,-1936,-6272,-1.00,-1.0
7353,20840,2176,9044,-1.00,-1.0
7355,17640,-5356,7968,-1.00,-1.0
7357,14444,376,-19412,-1.00,-1.0
7359,22468,-3088,15040,-1.00,-1.0
7361,18620,-10756,7088,-1.00,-1.0
7363,12856,8404,-5808,-1.00,-1.0
7365,17716,-7184,13680,-1.00,-1.0
7367,16972,-6760,-2144,-1.00,-1.0
7369,12428,6312,-5552,-1.00,-1.0
7371,17532,-6040,-196,-1.00,-1.0
7373,20836,-2952,14136,-1.00,-1.0
7377,13684,1792,-10388,-1.00,-1.0
7379,16852,372,4716,-1.00,-1.0
7381,17884,-2980,-5260,-1.00,-1.0
7382,18412,-4416,3196,-1.00,-1.0
7385,19344,-2816,9000,-1.00,-1.0
7387,19468,-5064,5712,-1.00,-1.0
7388,16248,4576,-2144,-1.00,-1.0
7390,17808,-932,4764,-1.00,-1.0
7392,18004,-1592,-5628,-1.00,-1.0
7394,17108,4580,3124,-1.00,-1.0
7396,19284,-5116,4200,-1.00,-1.0
7398,17100,3036,-792,-1.00,-1.0
7400,11708,928,-4492,-1.00,-1.0
7402,20404,-12148,10840,-1.00,-1.0
7404,22876,-3644,20676,-1.00,-1.0
7408,10492,7272,-15096,-1.00,-1.0
7410,17236,548,12196,-1.00,-1.0
7412,18672,-4420,-14548,-1.00,-1.0
7414,18536,8348,7364,-1.00,-1.0
7416,21580,-9704,8628,-1.00,-1.0
7418,15412,4328,-1196,-1.00,-1.0
7420,10804,2464,-7456,-1.00,-1.0
7421,20812,-10476,2612,-1.00,-1.0
7424,27692,-6100,31440,-1.00,-1.0
7426,13244,-10500,-296,-1.00,-1.0
7427,28912,-10676,14644,-1.00,-1.0
7429,23276,8052,14920,-1.00,-1.0
7431,14856,-2244,-8488,-1.00,-1.0
7433,14344,1856,56,-1.00,-1.0
7435,12968,2792,-7256,-1.00,-1.0
7437,17896,-1824,-4988,-1.00,-1.0
7441,13316,-2632,-12136,-1.00,-1.0
7443,15256,6572,-13304,-1.00,-1.0
7445,18176,-4884,8704,-1.00,-1.0
7447,18836,-2404,-8280,-1.00,-1.0
7449,19592,5956,17468,-1.00,-1.0
7451,17700,-6904,-904,-1.00,-1.0
7453,14984,232,-2728,-1.00,-1.0
7455,12604,-1256,-5752,-1.00,-1.0
7457,18212,-5696,-2528,-1.00,-1.0
7459,24384,-3464,25336,-1.00,-1.0
7461,13120,-936,-7856,-1.00,-1.0
7463,32,27224,-32768,-1.00,-1.0
7465,21660,10236,9904,-1.00,-1.0
7467,31112,-12336,16192,-1.00,-1.0
7469,21176,12788,12744,-1.00,-1.0
7473,16452,-440,-908,-1.00,-1.0
7475,9528,5888,-12096,-1.00,-1.0
7477,18920,-9440,-4344,-1.00,-1.0
7479,25352,-4976,31216,-1.00,-1.0
7481,15856,-15128,4620,-1.00,-1.0
7483,8244,8608,-11928,-1.00,-1.0
7485,9916,2976,-2960,-1.00,-1.0
7486,21348,-7896,-8064,-1.00,-1.0
7488,25244,2792,28860,-1.00,-1.0
7490,16736,-10012,-6056,-1.00,-1.0
7492,21256,-5408,-6352,-1.00,-1.0
7494,18312,11596,6780,-1.00,-1.0
7496,19452,-10620,3084,-1.00,-1.0
7498,13852,8364,-8544,-1.00,-1.0
7500,11180,1880,-11148,-1.00,-1.0
7504,22104,8780,10596,-1.00,-1.0
7506,20464,-8380,-368,-1.00,-1.0
7508,18180,6544,5944,-1.00,-1.0
7510,13472,-1436,-3196,-1.00,-1.0
7512,14484,2192,-12316,-1.00,-1.0
7514,20796,1376,15908,-1.00,-1.0
7516,17172,-6656,-2936,-1.00,-1.0
7518,16072,6724,1852,-1.00,-1.0
7520,16568,-5904,4216,-1.00,-1.0
7522,14668,3464,-21344,-1.00,-1.0
7524,20484,828,13256,-1.00,-1.0
7526,23164,-14120,11140,-1.00,-1.0
7528,15356,10520,2560,-1.00,-1.0
7530,12952,-1960,-1040,-1.00,-1.0
7532,12768,3580,-19412,-1.00,-1.0
7534,19580,2816,11680,-1.00,-1.0
7538,17984,11388,4532,-1.00,-1.0
7540,16044,-5836,752,-1.00,-1.0
7542,12628,7004,-17120,-1.00,-1.0
7544,15596,3516,3264,-1.00,-1.0
7546,26820,-16136,14604,-1.00,-1.0
7548,21592,5332,17480,-1.00,-1.0
7549,9272,-2924,-12276,-1.00,-1.0
7552,8652,9324,-14824,-1.00,-1.0
7553,17228,2612,10784,-1.00,-1.0
7555,23660,-11616,-1908,-1.00,-1.0
7557,9068,10844,-21000,-1.00,-1.0
7559,13712,-8096,-8252,-1.00,-1.0
7561,23372,-8860,1840,-1.00,-1.0
7563,17968,12048,7860,-1.00,-1.0
7565,19368,-13864,4072,-1.00,-1.0
7569,7108,7988,-23636,-1.00,-1.0
7571,21400,-2256,-3632,-1.00,-1.0
7573,28776,220,32767,-1.00,-1.0
7575,18040,-15264,-6264,-1.00,-1.0
7577,11040,9332,-644,-1.00,-1.0
7579,14928,-4900,-812,-1.00,-1.0
7581,14488,3980,-17232,-1.00,-1.0
7583,20488,3336,19864,-1.00,-1.0
7585,25132,-24980,17036,-1.00,-1.0
7587,14688,6312,6364,-1.00,-1.0
7589,7372,-5400,-9484,-1.00,-1.0
7591,10940,4980,-18368,-1.00,-1.0
7593,20204,2624,18316,-1.00,-1.0
7595,21992,-12624,-3592,-1.00,-1.0
7597,16896,12084,6432,-1.00,-1.0
7601,11148,10400,-14096,-1.00,-1.0
7603,9888,11764,-15640,-1.00,-1.0
7605,23756,-7784,1492,-1.00,-1.0
7607,26592,5652,25568,-1.00,-1.0
7609,19552,-17920,9716,-1.00,-1.0
7611,7412,12760,-13328,-1.00,-1.0
7613,9828,6736,-6688,-1.00,-1.0
7614,20716,-6624,-6272,-1.00,-1.0
7616,20728,8008,20636,-1.00,-1.0
7618,18468,-15552,-4820,-1.00,-1.0
7620,11700,10876,-2100,-1.00,-1.0
7622,22112,4604,21668,-1.00,-1.0
7624,20980,-18440,6244,-1.00,-1.0
7626,12172,16688,-4040,-1.00,-1.0
7628,13004,-4352,-10112,-1.00,-1.0
7634,20448,-7416,-4688,-1.00,-1.0
7636,22808,5544,21664,-1.00,-1.0
7638,16440,-7184,-6568,-1.00,-1.0
7640,15108,3856,-3452,-1.00,-1.0
7642,14136,-196,3740,-1.00,-1.0
7644,15572,-2244,-20120,-1.00,-1.0
7646,26316,-452,32088,-1.00,-1.0
7648,19812,-20108,14556,-1.00,-1.0
7650,6208,16792,-18796,-1.00,-1.0
7652,13260,5888,4628,-1.00,-1.0
7654,18524,-3944,-23164,-1.00,-1.0
7656,21948,8512,22240,-1.00,-1.0
7658,22136,-15764,2960,-1.00,-1.0
7660,15084,11868,1168,-1.00,-1.0
7661,14796,664,-8760,-1.00,-1.0
7663,12644,8820,-24620,-1.00,-1.0
7667,29528,-20420,16308,-1.00,-1.0
7669,26556,2368,29860,-1.00,-1.0
7671,18672,11904,15788,-1.00,-1.0
7673,28724,-18036,7564,-1.00,-1.0
7675,19004,12704,10220,-1.00,-1.0
7677,18028,-12876,2796,-1.00,-1.0
7679,12208,6136,-10520,-1.00,-1.0
7681,11604,11040,-9528,-1.00,-1.0
7683,22192,-8320,-3156,-1.00,-1.0
7685,21400,9468,16796,-1.00,-1.0
7687,20964,-21944,11732,-1.00,-1.0
7689,13596,7200,3588,-1.00,-1.0
7691,5796,8416,-19724,-1.00,-1.0
7693,16572,-1468,-16748,-1.00,-1.0
7695,25196,4608,31664,-1.00,-1.0
7699,17204,10016,11384,-1.00,-1.0
7701,20404,-9692,2804,-1.00,-1.0
7703,5884,16376,-32768,-1.00,-1.0
7705,18936,9244,12812,-1.00,-1.0
7707,29016,-23976,18184,-1.00,-1.0
7709,16876,14152,-532,-1.00,-1.0
7711,13220,-12456,4508,-1.00,-1.0
7713,16084,8,812,-1.00,-1.0
7715,12956,10296,3744,-1.00,-1.0
7717,18108,-7592,-13332,-1.00,-1.0
7718,15872,10632,6404,-1.00,-1.0
7720,22252,-15944,6588,-1.00,-1.0
7722,13072,10012,-3988,-1.00,-1.0
7724,9908,11144,-19824,-1.00,-1.0
7726,24236,-8436,8272,-1.00,-1.0
7730,14920,-9916,-728,-1.00,-1.0
7732,18500,2300,16340,-1.00,-1.0
7734,14892,2576,-3716,-1.00,-1.0
7736,15620,-1876,-13296,-1.00,-1.0
7738,18352,1496,18828,-1.00,-1.0
7740,19632,-17704,2748,-1.00,-1.0
7742,14032,7820,-24480,-1.00,-1.0
7744,21476,8360,11732,-1.00,-1.0
7746,29960,-22988,19704,-1.00,-1.0
7748,21168,7732,15724,-1.00,-1.0
7750,5844,-5148,-12288,-1.00,-1.0
7752,9788,4424,-13944,-1.00,-1.0
7754,23052,-792,32767,-1.00,-1.0
7756,19552,-16860,-18404,-1.00,-1.0
7758,15576,13336,17000,-1.00,-1.0
7762,15036,9728,-6044,-1.00,-1.0
7764,18196,2208,10056,-1.00,-1.0
7766,21872,-8748,-9624,-1.00,-1.0
7768,23144,7404,25932,-1.00,-1.0
7770,15904,-18824,5380,-1.00,-1.0
7772,8048,15848,-14228,-1.00,-1.0
7774,15816,1704,8912,-1.00,-1.0
7776,19416,-7748,-18424,-1.00,-1.0
7778,19676,10644,19464,-1.00,-1.0
7780,18680,-16020,-3080,-1.00,-1.0
7781,14308,12012,4248,-1.00,-1.0
7783,15932,-4100,-4216,-1.00,-1.0
7785,16744,3904,-17084,-1.00,-1.0
7787,18600,7548,11412,-1.00,-1.0
7789,27556,-23320,14588,-1.00,-1.0
7791,17436,10364,15380,-1.00,-1.0
7795,13536,1652,-5012,-1.00,-1.0
7797,20512,648,21080,-1.00,-1.0
7799,20156,-14568,-11536,-1.00,-1.0
7801,19868,8068,20844,-1.00,-1.0
7803,13248,-12932,-3904,-1.00,-1.0
7805,8592,11764,-20868,-1.00,-1.0
7807,19268,13576,14264,-1.00,-1.0
7809,19972,-8740,-20164,-1.00,-1.0
7811,11140,8540,-7728,-1.00,-1.0
7813,12228,7496,-4512,-1.00,-1.0
7815,21328,-9612,-7712,-1.00,-1.0
7817,25384,7296,30172,-1.00,-1.0
7819,15644,-13716,-15648,-1.00,-1.0
7821,12048,11904,-3712,-1.00,-1.0
7823,15916,-2292,2376,-1.00,-1.0
7827,25524,5232,31156,-1.00,-1.0
7829,25140,-30820,16188,-1.00,-1.0
7831,10556,17092,-7804,-1.00,-1.0
7833,11208,-7576,2412,-1.00,-1.0
7835,16872,-4828,-8052,-1.00,-1.0
7837,18480,12132,17560,-1.00,-1.0
7839,18716,-12816,-12824,-1.00,-1.0
7841,17400,10860,7536,-1.00,-1.0
7843,21164,-13780,7492,-1.00,-1.0
7845,9880,11408,-21748,-1.00,-1.0
7846,17044,9192,4164,-1.00,-1.0
7849,25656,-18716,14168,-1.00,-1.0
7850,13344,18144,-6572,-1.00,-1.0
7852,15112,-9824,2880,-1.00,-1.0
7854,21628,-2576,13248,-1.00,-1.0
7859,16596,-5560,-15120,-1.00,-1.0
7861,20988,1312,22896,-1.00,-1.0
7862,18540,-16436,-2320,-1.00,-1.0
7864,11376,13032,-4296,-1.00,-1.0
7866,11896,-2316,-2508,-1.00,-1.0
7868,6008,14532,-32768,-1.00,-1.0
7870,23880,12604,19488,-1.00,-1.0
7872,31212,-23008,13548,-1.00,-1.0
7874,12468,23036,-4828,-1.00,-1.0
7876,13788,-1520,-3960,-1.00,-1.0
7878,15640,-12528,-30156,-1.00,-1.0
7880,16384,5560,2564,-1.00,-1.0
7882,20288,-13348,4600,-1.00,-1.0
7884,13372,14724,-16044,-1.00,-1.0
7886,17332,6600,4692,-1.00,-1.0
7890,13592,5196,3384,-1.00,-1.0
7892,23552,-12596,812,-1.00,-1.0
7894,10956,14052,-11400,-1.00,-1.0
7896,18860,-3672,15736,-1.00,-1.0
7898,17904,-8772,-14844,-1.00,-1.0
7900,15584,11144,11864,-1.00,-1.0
7902,22092,-20716,5732,-1.00,-1.0
7904,13128,11852,1636,-1.00,-1.0
7906,8312,1156,-13268,-1.00,-1.0
7908,15604,4588,-17948,-1.00,-1.0
7910,24132,6144,23656,-1.00,-1.0
7912,25488,-20968,-152,-1.00,-1.0
7914,16828,11472,15356,-1.00,-1.0
7916,11508,-6936,-9732,-1.00,-1.0
7917,15864,-1724,3428,-1.00,-1.0
7921,15520,-9016,-20140,-1.00,-1.0
7923,25548,-912,32044,-1.00,-1.0
7925,13280,-16448,-4556,-1.00,-1.0
7927,4508,21512,-32768,-1.00,-1.0
7929,23688,668,25104,-1.00,-1.0
7931,22656,-10312,-15476,-1.00,-1.0
7933,19004,14980,15316,-1.00,-1.0
7935,14764,1180,936,-1.00,-1.0
7937,16120,-768,-15876,-1.00,-1.0
7939,22872,4948,29004,-1.00,-1.0
7941,16856,-12660,-14264,-1.00,-1.0
7943,13484,13700,-3332,-1.00,-1.0
7945,14492,-4860,-4068,-1.00,-1.0
7947,14996,6904,-16768,-1.00,-1.0
7949,22060,5472,20988,-1.00,-1.0
7953,16072,9724,9520,-1.00,-1.0
