timestamp_ms,accel_x,accel_y,accel_z,voltage,soc
2,17080,-76,724,-1.00,-1.0
4,16932,-136,580,-1.00,-1.0
6,16960,-100,636,-1.00,-1.0
11,16948,0,716,-1.00,-1.0
13,17076,-88,476,-1.00,-1.0
15,16972,-76,656,-1.00,-1.0
17,16924,-24,640,-1.00,-1.0
19,16972,48,512,-1.00,-1.0
21,16948,44,600,-1.00,-1.0
23,17000,-72,552,-1.00,-1.0
25,17056,-156,564,-1.00,-1.0
27,16976,-28,644,-1.00,-1.0
29,16980,-16,452,-1.00,-1.0
31,17052,-16,728,-1.00,-1.0
33,17036,0,488,-1.00,-1.0
35,16932,36,484,-1.00,-1.0
37,16980,-32,652,-1.00,-1.0
39,16932,-52,648,-1.00,-1.0
41,16988,-124,596,-1.00,-1.0
42,16928,20,624,-1.00,-1.0
44,16948,-4,552,-1.00,-1.0
46,16924,-68,696,-1.00,-1.0
50,16940,-8,676,-1.00,-1.0
52,17028,-4,644,-1.00,-1.0
54,16904,0,756,-1.00,-1.0
56,17040,24,572,-1.00,-1.0
58,16904,-44,644,-1.00,-1.0
60,17036,-24,576,-1.00,-1.0
62,17012,-56,580,-1.00,-1.0
64,16948,-68,512,-1.00,-1.0
66,16992,-52,696,-1.00,-1.0
68,17080,-68,536,-1.00,-1.0
70,16928,28,440,-1.00,-1.0
72,17052,36,588,-1.00,-1.0
74,17020,-64,528,-1.00,-1.0
75,17048,-28,664,-1.00,-1.0
77,16952,-24,588,-1.00,-1.0
79,16896,28,636,-1.00,-1.0
81,17024,64,604,-1.00,-1.0
83,16952,8,696,-1.00,-1.0
85,16844,-8,572,-1.00,-1.0
89,16952,0,680,-1.00,-1.0
91,16968,44,600,-1.00,-1.0
93,16948,88,544,-1.00,-1.0
95,17016,-56,540,-1.00,-1.0
97,17020,-8,564,-1.00,-1.0
99,17052,-104,736,-1.00,-1.0
101,16996,-148,600,-1.00,-1.0
103,16968,-16,632,-1.00,-1.0
105,16988,60,640,-1.00,-1.0
107,17020,-68,628,-1.00,-1.0
109,16996,-88,644,-1.00,-1.0
111,16940,116,640,-1.00,-1.0
113,16980,-12,508,-1.00,-1.0
115,17108,-40,720,-1.00,-1.0
117,16988,-84,704,-1.00,-1.0
118,16892,-56,720,-1.00,-1.0
120,17004,-60,732,-1.00,-1.0
122,17044,-120,612,-1.00,-1.0
126,17044,-32,564,-1.00,-1.0
128,17044,-44,704,-1.00,-1.0
130,17024,-60,580,-1.00,-1.0
132,17136,-144,640,-1.00,-1.0
134,17048,-108,528,-1.00,-1.0
136,16928,-92,488,-1.00,-1.0
138,17092,-4,520,-1.00,-1.0
140,16944,-28,584,-1.00,-1.0
142,16924,-88,636,-1.00,-1.0
144,16924,-108,700,-1.00,-1.0
146,16984,-88,516,-1.00,-1.0
148,17000,-44,668,-1.00,-1.0
150,16924,-68,548,-1.00,-1.0
152,16892,-8,624,-1.00,-1.0
154,16976,-24,684,-1.00,-1.0
156,16996,-176,528,-1.00,-1.0
157,16948,52,712,-1.00,-1.0
162,17020,64,680,-1.00,-1.0
164,17088,-60,508,-1.00,-1.0
166,17024,12,644,-1.00,-1.0
167,17000,-40,704,-1.00,-1.0
169,16924,100,496,-1.00,-1.0
171,17020,12,600,-1.00,-1.0
173,17000,60,744,-1.00,-1.0
175,17076,-164,636,-1.00,-1.0
177,17020,48,660,-1.00,-1.0
179,17008,-68,632,-1.00,-1.0
181,16996,-16,648,-1.00,-1.0
183,17040,-48,596,-1.00,-1.0
185,16952,-52,704,-1.00,-1.0
187,16948,4,708,-1.00,-1.0
189,17060,80,592,-1.00,-1.0
191,16948,68,704,-1.00,-1.0
193,17068,-60,484,-1.00,-1.0
195,17020,-84,616,-1.00,-1.0
199,17048,-92,652,-1.00,-1.0
201,16888,-16,716,-1.00,-1.0
203,16968,-4,656,-1.00,-1.0
205,17044,24,612,-1.00,-1.0
207,16896,-72,700,-1.00,-1.0
209,17096,-60,536,-1.00,-1.0
211,17000,-52,772,-1.00,-1.0
212,16972,4,564,-1.00,-1.0
214,16904,80,688,-1.00,-1.0
216,17132,16,756,-1.00,-1.0
218,16956,-60,668,-1.00,-1.0
220,16968,0,672,-1.00,-1.0
222,17036,-80,660,-1.00,-1.0
224,17020,-104,524,-1.00,-1.0
226,16936,-72,500,-1.00,-1.0
228,17128,-44,624,-1.00,-1.0
230,17016,-36,468,-1.00,-1.0
232,17024,0,524,-1.00,-1.0
236,17060,-56,460,-1.00,-1.0
238,17048,-68,636,-1.00,-1.0
240,16964,72,576,-1.00,-1.0
242,16940,-12,564,-1.00,-1.0
244,16936,-96,504,-1.00,-1.0
246,17020,20,528,-1.00,-1.0
248,17100,-56,652,-1.00,-1.0
250,17048,-16,588,-1.00,-1.0
252,17008,52,648,-1.00,-1.0
254,16980,-52,600,-1.00,-1.0
256,16944,-64,504,-1.00,-1.0
257,16972,8,684,-1.00,-1.0
259,17028,120,644,-1.00,-1.0
261,16964,36,764,-1.00,-1.0
263,16928,-8,492,-1.00,-1.0
265,16924,-96,568,-1.00,-1.0
267,17020,-4,552,-1.00,-1.0
269,17008,40,700,-1.00,-1.0
273,16920,-64,652,-1.00,-1.0
275,17000,0,604,-1.00,-1.0
277,17076,-44,520,-1.00,-1.0
279,17128,-108,664,-1.00,-1.0
281,17008,-112,760,-1.00,-1.0
283,17012,80,556,-1.00,-1.0
285,17052,4,464,-1.00,-1.0
287,16980,-36,712,-1.00,-1.0
289,17104,-68,684,-1.00,-1.0
291,17160,-24,628,-1.00,-1.0
293,17052,48,652,-1.00,-1.0
295,16948,60,636,-1.00,-1.0
296,17060,-148,740,-1.00,-1.0
299,17012,-120,556,-1.00,-1.0
301,16904,-124,716,-1.00,-1.0
302,17004,-88,632,-1.00,-1.0
304,17056,-140,648,-1.00,-1.0
306,16992,-48,632,-1.00,-1.0
310,16948,-152,548,-1.00,-1.0
312,17056,16,592,-1.00,-1.0
314,17012,-108,752,-1.00,-1.0
316,16880,-32,588,-1.00,-1.0
318,16992,52,592,-1.00,-1.0
320,17028,-100,592,-1.00,-1.0
322,17012,-64,560,-1.00,-1.0
324,16948,-8,676,-1.00,-1.0
326,16968,-40,768,-1.00,-1.0
328,16916,-80,704,-1.00,-1.0
330,16972,16,524,-1.00,-1.0
332,17032,-68,528,-1.00,-1.0
334,16976,-64,692,-1.00,-1.0
336,16924,-80,556,-1.00,-1.0
338,17004,-8,616,-1.00,-1.0
340,16956,-96,620,-1.00,-1.0
342,17036,4,596,-1.00,-1.0
343,17064,-108,624,-1.00,-1.0
347,16972,-28,576,-1.00,-1.0
349,17000,-88,736,-1.00,-1.0
351,16940,-96,692,-1.00,-1.0
353,17000,-28,828,-1.00,-1.0
355,16952,-104,612,-1.00,-1.0
357,16972,-16,620,-1.00,-1.0
359,16928,-104,560,-1.00,-1.0
361,17008,-80,596,-1.00,-1.0
363,17056,-76,716,-1.00,-1.0
365,17000,68,600,-1.00,-1.0
367,16924,-40,520,-1.00,-1.0
369,16940,0,676,-1.00,-1.0
371,16984,-40,532,-1.00,-1.0
373,17064,-4,528,-1.00,-1.0
375,16900,32,656,-1.00,-1.0
377,16888,-36,584,-1.00,-1.0
379,16968,-28,584,-1.00,-1.0
383,17008,-76,632,-1.00,-1.0
385,17008,-32,632,-1.00,-1.0
387,17000,-56,632,-1.00,-1.0
389,17044,-60,548,-1.00,-1.0
390,16908,4,532,-1.00,-1.0
392,16952,-88,736,-1.00,-1.0
394,16936,72,636,-1.00,-1.0
396,16944,8,520,-1.00,-1.0
398,16940,-8,600,-1.00,-1.0
400,17060,4,552,-1.00,-1.0
402,17028,20,780,-1.00,-1.0
404,17012,-64,808,-1.00,-1.0
406,17036,16,676,-1.00,-1.0
408,16932,28,652,-1.00,-1.0
410,16940,-28,624,-1.00,-1.0
412,17020,-72,592,-1.00,-1.0
414,17064,-32,560,-1.00,-1.0
416,17020,-36,564,-1.00,-1.0
420,16952,-120,516,-1.00,-1.0
422,16924,-40,548,-1.00,-1.0
424,16936,-44,684,-1.00,-1.0
426,16992,-76,608,-1.00,-1.0
428,17032,4,724,-1.00,-1.0
430,17008,-68,572,-1.00,-1.0
432,16984,-84,656,-1.00,-1.0
433,16984,-76,608,-1.00,-1.0
435,16948,60,704,-1.00,-1.0
437,16948,28,644,-1.00,-1.0
439,17016,4,584,-1.00,-1.0
441,17004,-72,692,-1.00,-1.0
443,16960,-76,616,-1.00,-1.0
445,17000,-104,612,-1.00,-1.0
447,17068,44,820,-1.00,-1.0
449,16984,-80,524,-1.00,-1.0
451,16996,-48,652,-1.00,-1.0
453,17112,4,604,-1.00,-1.0
457,16948,-84,712,-1.00,-1.0
459,17052,20,556,-1.00,-1.0
461,17008,-40,668,-1.00,-1.0
463,17068,60,608,-1.00,-1.0
465,16992,-52,528,-1.00,-1.0
467,16924,-8,496,-1.00,-1.0
469,17036,-28,780,-1.00,-1.0
471,17036,-136,636,-1.00,-1.0
473,16900,8,556,-1.00,-1.0
475,16984,-28,576,-1.00,-1.0
477,16936,-8,620,-1.00,-1.0
478,17052,0,672,-1.00,-1.0
480,16940,-92,688,-1.00,-1.0
482,17104,-44,616,-1.00,-1.0
484,17064,-112,788,-1.00,-1.0
486,16996,-68,628,-1.00,-1.0
488,16944,-100,608,-1.00,-1.0
490,16984,-36,580,-1.00,-1.0
494,17000,-48,716,-1.00,-1.0
496,16948,-84,596,-1.00,-1.0
498,16956,-20,632,-1.00,-1.0
500,16940,-100,568,-1.00,-1.0
502,17020,32,608,-1.00,-1.0
504,17072,-152,796,-1.00,-1.0
506,16968,-64,604,-1.00,-1.0
508,16964,-100,496,-1.00,-1.0
510,16940,-8,588,-1.00,-1.0
512,17012,-80,728,-1.00,-1.0
514,16972,-44,572,-1.00,-1.0
516,17028,-76,528,-1.00,-1.0
517,16900,16,372,-1.00,-1.0
520,16976,-80,824,-1.00,-1.0
521,16992,-80,636,-1.00,-1.0
523,17000,-48,608,-1.00,-1.0
525,17052,-64,696,-1.00,-1.0
527,16996,-84,580,-1.00,-1.0
531,17036,-16,636,-1.00,-1.0
533,17020,-88,664,-1.00,-1.0
535,16904,52,608,-1.00,-1.0
537,17032,36,736,-1.00,-1.0
539,16956,0,656,-1.00,-1.0
541,16936,-84,688,-1.00,-1.0
543,16956,-16,608,-1.00,-1.0
545,17024,0,520,-1.00,-1.0
547,16984,0,688,-1.00,-1.0
549,17100,-100,592,-1.00,-1.0
551,17020,-68,664,-1.00,-1.0
553,16960,52,688,-1.00,-1.0
555,16936,-64,712,-1.00,-1.0
557,17032,-40,496,-1.00,-1.0
559,16988,-60,612,-1.00,-1.0
560,17016,0,624,-1.00,-1.0
562,17024,-36,564,-1.00,-1.0
564,17112,-60,532,-1.00,-1.0
568,16896,-24,688,-1.00,-1.0
570,17092,-116,604,-1.00,-1.0
572,16984,8,592,-1.00,-1.0
574,16956,112,652,-1.00,-1.0
576,16948,-88,744,-1.00,-1.0
578,17060,4,628,-1.00,-1.0
580,16976,-84,776,-1.00,-1.0
582,16972,-60,732,-1.00,-1.0
584,17112,-4,568,-1.00,-1.0
586,17068,-24,600,-1.00,-1.0
588,17036,76,680,-1.00,-1.0
590,16968,88,532,-1.00,-1.0
592,16960,12,728,-1.00,-1.0
594,16916,-100,632,-1.00,-1.0
596,16900,0,688,-1.00,-1.0
598,16972,-36,684,-1.00,-1.0
599,16944,-84,652,-1.00,-1.0
601,16956,-100,604,-1.00,-1.0
605,16968,-64,580,-1.00,-1.0
607,17028,-36,624,-1.00,-1.0
609,17068,48,628,-1.00,-1.0
611,17000,-56,576,-1.00,-1.0
613,16968,-52,704,-1.00,-1.0
615,17052,96,660,-1.00,-1.0
617,16900,-16,580,-1.00,-1.0
619,16920,-20,676,-1.00,-1.0
621,17024,-52,584,-1.00,-1.0
623,16944,-100,508,-1.00,-1.0
625,16968,-40,504,-1.00,-1.0
627,16924,-48,692,-1.00,-1.0
629,16976,4,616,-1.00,-1.0
631,16988,-92,564,-1.00,-1.0
633,17016,-28,628,-1.00,-1.0
635,16988,-44,656,-1.00,-1.0
636,17064,-116,772,-1.00,-1.0
641,16928,-88,520,-1.00,-1.0
643,17024,-128,600,-1.00,-1.0
644,16960,-20,576,-1.00,-1.0
646,17124,-92,572,-1.00,-1.0
648,17064,-104,652,-1.00,-1.0
650,17080,-100,588,-1.00,-1.0
652,16956,4,532,-1.00,-1.0
654,17088,-108,496,-1.00,-1.0
656,17088,-92,608,-1.00,-1.0
658,17076,-108,660,-1.00,-1.0
660,17120,-64,600,-1.00,-1.0
662,17100,-28,552,-1.00,-1.0
664,17024,-48,808,-1.00,-1.0
666,16984,-12,572,-1.00,-1.0
668,16924,-72,528,-1.00,-1.0
670,16972,32,596,-1.00,-1.0
672,17044,-44,704,-1.00,-1.0
673,17036,-28,572,-1.00,-1.0
678,16960,-32,528,-1.00,-1.0
680,17020,-88,652,-1.00,-1.0
682,16992,12,716,-1.00,-1.0
683,16908,4,628,-1.00,-1.0
686,17000,8,648,-1.00,-1.0
687,16888,52,684,-1.00,-1.0
689,17000,-80,588,-1.00,-1.0
691,16972,-40,628,-1.00,-1.0
693,17020,-104,624,-1.00,-1.0
695,16976,-64,580,-1.00,-1.0
697,17020,-52,616,-1.00,-1.0
699,17068,48,628,-1.00,-1.0
701,17020,12,672,-1.00,-1.0
703,17124,-48,672,-1.00,-1.0
705,17132,-16,664,-1.00,-1.0
707,17024,-28,576,-1.00,-1.0
709,16980,-40,580,-1.00,-1.0
711,16992,64,484,-1.00,-1.0
715,17092,-32,684,-1.00,-1.0
717,16980,-64,660,-1.00,-1.0
719,16960,-24,580,-1.00,-1.0
721,17012,-16,660,-1.00,-1.0
723,17020,-80,676,-1.00,-1.0
725,17016,40,580,-1.00,-1.0
727,16984,4,584,-1.00,-1.0
728,17064,12,532,-1.00,-1.0
730,17004,16,616,-1.00,-1.0
732,17028,8,576,-1.00,-1.0
734,16960,12,600,-1.00,-1.0
736,16924,-40,476,-1.00,-1.0
738,16940,-48,624,-1.00,-1.0
740,17032,-60,568,-1.00,-1.0
742,17044,72,716,-1.00,-1.0
744,16948,12,568,-1.00,-1.0
746,17072,-48,460,-1.00,-1.0
748,17048,-60,672,-1.00,-1.0
752,16984,-104,672,-1.00,-1.0
754,16860,-16,428,-1.00,-1.0
756,16964,4,628,-1.00,-1.0
758,17056,-76,624,-1.00,-1.0
760,16924,16,540,-1.00,-1.0
762,17084,0,792,-1.00,-1.0
764,17020,-144,692,-1.00,-1.0
766,16896,-52,668,-1.00,-1.0
767,16996,-96,736,-1.00,-1.0
769,17096,20,664,-1.00,-1.0
771,17012,12,520,-1.00,-1.0
773,16944,-196,580,-1.00,-1.0
775,16980,-68,640,-1.00,-1.0
777,17048,-52,492,-1.00,-1.0
779,17064,76,644,-1.00,-1.0
781,16944,-68,664,-1.00,-1.0
783,16908,-84,632,-1.00,-1.0
785,17040,-68,684,-1.00,-1.0
789,17016,24,588,-1.00,-1.0
791,17052,-96,616,-1.00,-1.0
793,17008,-76,568,-1.00,-1.0
795,16948,-108,636,-1.00,-1.0
797,17008,-120,728,-1.00,-1.0
799,16968,88,656,-1.00,-1.0
801,16964,-24,496,-1.00,-1.0
803,16984,-16,660,-1.00,-1.0
805,16988,-88,604,-1.00,-1.0
807,17024,-100,664,-1.00,-1.0
809,16976,-72,684,-1.00,-1.0
810,16928,-28,560,-1.00,-1.0
812,16996,-52,828,-1.00,-1.0
814,17040,-88,644,-1.00,-1.0
816,16996,-28,580,-1.00,-1.0
818,17036,-32,632,-1.00,-1.0
820,17132,-52,608,-1.00,-1.0
824,17020,20,648,-1.00,-1.0
826,16960,-36,604,-1.00,-1.0
828,17068,-64,668,-1.00,-1.0
830,16996,36,600,-1.00,-1.0
832,16932,24,624,-1.00,-1.0
834,16984,-100,712,-1.00,-1.0
836,16892,-44,604,-1.00,-1.0
838,17032,-20,536,-1.00,-1.0
840,17072,12,580,-1.00,-1.0
842,17012,-12,756,-1.00,-1.0
844,17092,-40,668,-1.00,-1.0
846,17080,-56,632,-1.00,-1.0
848,16936,12,536,-1.00,-1.0
850,17008,-60,484,-1.00,-1.0
852,17092,-72,572,-1.00,-1.0
854,16968,48,600,-1.00,-1.0
855,16976,-8,560,-1.00,-1.0
857,16972,-48,656,-1.00,-1.0
862,16948,-12,656,-1.00,-1.0
864,16968,-76,640,-1.00,-1.0
865,17028,-60,536,-1.00,-1.0
867,16924,-4,668,-1.00,-1.0
869,17036,-88,652,-1.00,-1.0
871,17040,-28,748,-1.00,-1.0
873,17036,44,472,-1.00,-1.0
875,16968,-92,560,-1.00,-1.0
877,17080,76,528,-1.00,-1.0
879,16980,-32,504,-1.00,-1.0
881,16868,-36,636,-1.00,-1.0
883,17012,0,588,-1.00,-1.0
885,16920,-44,616,-1.00,-1.0
887,16988,-56,628,-1.00,-1.0
889,16908,48,552,-1.00,-1.0
891,17092,-32,664,-1.00,-1.0
893,16992,-96,604,-1.00,-1.0
895,16860,-88,604,-1.00,-1.0
899,17092,0,572,-1.00,-1.0
901,17096,16,592,-1.00,-1.0
903,17072,168,868,-1.00,-1.0
905,16764,396,96,-1.00,-1.0
906,16808,736,548,-1.00,-1.0
909,15596,2888,-2972,-1.00,-1.0
910,14692,4192,-4944,-1.00,-1.0
912,15252,3836,-4140,-1.00,-1.0
914,17396,3196,-4876,-1.00,-1.0
916,18500,2808,-3652,-1.00,-1.0
918,19080,500,-1636,-1.00,-1.0
920,17752,1208,-3860,-1.00,-1.0
922,17600,-512,-148,-1.00,-1.0
924,16876,-1600,-2580,-1.00,-1.0
926,15616,-1356,-1332,-1.00,-1.0
928,16132,-2692,-116,-1.00,-1.0
930,15928,-1700,-2044,-1.00,-1.0
934,16828,-1996,-572,-1.00,-1.0
936,17696,-1288,1432,-1.00,-1.0
938,17048,-1196,780,-1.00,-1.0
940,17200,120,2544,-1.00,-1.0
942,17004,-724,816,-1.00,-1.0
944,16892,128,1552,-1.00,-1.0
946,16832,504,-1484,-1.00,-1.0
948,16372,704,-436,-1.00,-1.0
950,17800,-916,2548,-1.00,-1.0
952,17428,212,284,-1.00,-1.0
953,16096,1732,168,-1.00,-1.0
955,17008,-328,1684,-1.00,-1.0
957,17368,708,2160,-1.00,-1.0
959,16392,836,-484,-1.00,-1.0
961,17428,108,1080,-1.00,-1.0
963,17972,-316,2252,-1.00,-1.0
967,16424,832,-68,-1.00,-1.0
969,18172,-820,3848,-1.00,-1.0
971,17152,108,1120,-1.00,-1.0
973,16512,540,708,-1.00,-1.0
975,16948,64,1020,-1.00,-1.0
977,17512,-664,2392,-1.00,-1.0
979,16828,48,1256,-1.00,-1.0
981,16760,-548,920,-1.00,-1.0
983,17104,-252,2952,-1.00,-1.0
985,17336,-1132,2088,-1.00,-1.0
987,17348,-756,3968,-1.00,-1.0
989,16780,1156,-468,-1.00,-1.0
991,16116,2160,-3512,-1.00,-1.0
993,16696,1920,-932,-1.00,-1.0
995,15832,3180,-5116,-1.00,-1.0
997,17088,1148,204,-1.00,-1.0
998,17940,568,32,-1.00,-1.0
1003,16380,888,-308,-1.00,-1.0
1005,17308,-704,2908,-1.00,-1.0
1007,17216,-1136,4392,-1.00,-1.0
1008,14928,-416,-1680,-1.00,-1.0
1010,20248,-7636,12220,-1.00,-1.0
1012,17452,-2284,3168,-1.00,-1.0
1014,14984,-848,-4580,-1.00,-1.0
1016,16836,-536,6904,-1.00,-1.0
1018,19364,-4956,8792,-1.00,-1.0
1020,14764,3104,-2136,-1.00,-1.0
1022,16008,180,-3248,-1.00,-1.0
1024,20840,-2312,11352,-1.00,-1.0
1026,16932,752,-7268,-1.00,-1.0
1028,15844,4432,-348,-1.00,-1.0
1030,17908,20,-5620,-1.00,-1.0
1032,19428,1396,10472,-1.00,-1.0
1036,17480,2760,4480,-1.00,-1.0
1038,16736,336,-3344,-1.00,-1.0
1040,18376,-916,9192,-1.00,-1.0
1042,14424,1680,-8480,-1.00,-1.0
1044,16668,172,4388,-1.00,-1.0
1046,18728,-4628,4896,-1.00,-1.0
1048,16764,-1444,3768,-1.00,-1.0
1050,18488,672,1636,-1.00,-1.0
1052,18368,-2700,5356,-1.00,-1.0
1054,15852,3020,-3236,-1.00,-1.0
1056,16596,1876,948,-1.00,-1.0
1057,19824,-3784,9296,-1.00,-1.0
1059,15364,556,-1424,-1.00,-1.0
1061,16416,-3808,1704,-1.00,-1.0
1063,17960,-2616,6008,-1.00,-1.0
1065,17064,-3712,180,-1.00,-1.0
1069,17556,-2572,-2456,-1.00,-1.0
1071,18596,1312,6368,-1.00,-1.0
1073,15552,1628,-9276,-1.00,-1.0
1075,18576,2832,6868,-1.00,-1.0
1077,15572,2852,-9228,-1.00,-1.0
1079,18528,1804,9916,-1.00,-1.0
1081,16388,252,-5356,-1.00,-1.0
1083,18880,-1344,11024,-1.00,-1.0
1085,15140,-1216,-5000,-1.00,-1.0
1087,18376,-4236,6600,-1.00,-1.0
1089,17732,-3936,3296,-1.00,-1.0
1091,16128,-1008,-2816,-1.00,-1.0
1093,13588,4368,-8988,-1.00,-1.0
1095,18108,480,3188,-1.00,-1.0
1097,18904,772,5168,-1.00,-1.0
1101,16928,1968,4508,-1.00,-1.0
1103,19412,-3464,3708,-1.00,-1.0
1105,17420,-1388,6204,-1.00,-1.0
1107,14712,-236,-9044,-1.00,-1.0
1109,17608,-1192,2028,-1.00,-1.0
1111,17480,-1560,488,-1.00,-1.0
1113,15932,736,1588,-1.00,-1.0
1114,19856,-5720,4828,-1.00,-1.0
1117,17852,-1512,6984,-1.00,-1.0
1119,13420,1436,-12800,-1.00,-1.0
1120,17280,2388,-984,-1.00,-1.0
1122,19580,-1728,6360,-1.00,-1.0
1124,17964,516,2496,-1.00,-1.0
1126,14444,4824,-8480,-1.00,-1.0
1128,18372,-1756,8052,-1.00,-1.0
1130,18352,-3612,3284,-1.00,-1.0
1134,16028,-1172,-2716,-1.00,-1.0
1136,17732,-240,-604,-1.00,-1.0
1138,16636,1844,1556,-1.00,-1.0
1140,17244,-856,1220,-1.00,-1.0
1142,17384,900,3428,-1.00,-1.0
1144,17616,-2284,4044,-1.00,-1.0
1146,17456,-1920,3200,-1.00,-1.0
1148,16256,-416,832,-1.00,-1.0
1150,16520,-1244,2688,-1.00,-1.0
1152,17288,-212,-464,-1.00,-1.0
1154,17592,472,3976,-1.00,-1.0
1156,17444,-912,1896,-1.00,-1.0
1158,18064,-808,2892,-1.00,-1.0
1160,16236,132,-92,-1.00,-1.0
1162,15780,908,-4668,-1.00,-1.0
1163,17320,-1044,432,-1.00,-1.0
1168,17852,-3196,3568,-1.00,-1.0
1170,16844,-956,-8,-1.00,-1.0
1171,16060,556,1796,-1.00,-1.0
1173,16976,-20,568,-1.00,-1.0
1175,16840,1192,4604,-1.00,-1.0
1177,16504,-800,180,-1.00,-1.0
1179,17032,1084,1352,-1.00,-1.0
1181,16484,1064,-3824,-1.00,-1.0
1183,18136,1020,564,-1.00,-1.0
1185,17808,1756,-1964,-1.00,-1.0
1187,19676,-1380,6964,-1.00,-1.0
1189,15792,1652,-1664,-1.00,-1.0
1191,15740,-580,2452,-1.00,-1.0
1193,16172,-2428,1444,-1.00,-1.0
1195,17348,-1528,1720,-1.00,-1.0
1197,17844,-992,1748,-1.00,-1.0
1201,18616,-1584,10388,-1.00,-1.0
1203,16980,-1176,-2308,-1.00,-1.0
1205,15836,2708,620,-1.00,-1.0
1207,17128,128,-768,-1.00,-1.0
1209,17444,1556,208,-1.00,-1.0
1211,16580,1224,1844,-1.00,-1.0
1212,16588,-1300,752,-1.00,-1.0
1214,16488,1008,-3012,-1.00,-1.0
1216,16628,1260,3476,-1.00,-1.0
1218,18496,-4040,4260,-1.00,-1.0
1220,17740,-340,2920,-1.00,-1.0
1222,16292,104,-1312,-1.00,-1.0
1224,15900,3136,-5392,-1.00,-1.0
1226,15472,3916,-1400,-1.00,-1.0
1228,17840,-1716,6508,-1.00,-1.0
1230,17192,812,-1428,-1.00,-1.0
1234,17152,1064,-5172,-1.00,-1.0
1236,18896,612,4628,-1.00,-1.0
1238,15340,620,-2080,-1.00,-1.0
1240,18012,-2712,1692,-1.00,-1.0
1242,17640,-296,2268,-1.00,-1.0
1244,15148,12,-8188,-1.00,-1.0
1246,17236,492,4236,-1.00,-1.0
1248,17688,-3236,5408,-1.00,-1.0
1250,16180,664,-104,-1.00,-1.0
1252,16796,312,-1808,-1.00,-1.0
1254,18224,-716,3784,-1.00,-1.0
1256,16756,112,356,-1.00,-1.0
1258,15368,1456,2704,-1.00,-1.0
1260,17124,-1768,232,-1.00,-1.0
1261,15852,1588,-4224,-1.00,-1.0
1263,16448,124,2792,-1.00,-1.0
1268,15876,-1320,516,-1.00,-1.0
1270,17400,-624,3444,-1.00,-1.0
1271,17360,-1388,1072,-1.00,-1.0
1273,16908,1292,832,-1.00,-1.0
1275,15396,2752,-8344,-1.00,-1.0
1277,18500,248,4568,-1.00,-1.0
1279,14688,724,-2884,-1.00,-1.0
1281,17364,-2364,2056,-1.00,-1.0
1283,20000,-1292,4012,-1.00,-1.0
1285,14948,2156,-9692,-1.00,-1.0
1287,16376,-1616,3632,-1.00,-1.0
1289,18856,-5620,10844,-1.00,-1.0
1291,14108,3268,-11420,-1.00,-1.0
1293,16844,584,600,-1.00,-1.0
1295,18752,-4052,7120,-1.00,-1.0
1297,16904,-1268,3428,-1.00,-1.0
1301,15940,3452,-7900,-1.00,-1.0
1303,17668,-792,8708,-1.00,-1.0
1305,17476,-4104,2900,-1.00,-1.0
1307,16932,4080,-2620,-1.00,-1.0
1309,16812,888,-8964,-1.00,-1.0
1311,21056,-4548,10928,-1.00,-1.0
1313,15136,1756,88,-1.00,-1.0
1315,13412,2760,-11692,-1.00,-1.0
1317,20136,-1184,11596,-1.00,-1.0
1319,14700,-984,-1432,-1.00,-1.0
1320,16860,-4276,4028,-1.00,-1.0
1323,19604,-1232,5304,-1.00,-1.0
1325,13700,3492,-15136,-1.00,-1.0
1326,20028,-3396,5716,-1.00,-1.0
1328,13140,7964,-14564,-1.00,-1.0
1333,19228,-1320,5020,-1.00,-1.0
1335,22848,-8304,17168,-1.00,-1.0
1336,12856,3936,-14300,-1.00,-1.0
1338,20604,-3244,12864,-1.00,-1.0
1340,15200,-768,-2904,-1.00,-1.0
1342,16028,1508,-4268,-1.00,-1.0
1344,21544,-2652,7268,-1.00,-1.0
1346,16620,-1096,4612,-1.00,-1.0
1348,12444,1404,-5784,-1.00,-1.0
1350,18828,-1876,13468,-1.00,-1.0
1352,14508,1748,-7376,-1.00,-1.0
1354,17592,-700,9936,-1.00,-1.0
1356,21192,-5612,5756,-1.00,-1.0
1358,15112,6024,-12424,-1.00,-1.0
1360,17932,-1244,-1144,-1.00,-1.0
1362,20596,-4428,11616,-1.00,-1.0
1366,15940,-932,-3184,-1.00,-1.0
1368,17144,1068,4880,-1.00,-1.0
1370,17496,-1568,1668,-1.00,-1.0
1372,18604,1700,2656,-1.00,-1.0
1374,16744,532,2284,-1.00,-1.0
1376,15832,-1008,-6112,-1.00,-1.0
1378,19892,-2584,13624,-1.00,-1.0
1380,15772,-1488,-2612,-1.00,-1.0
1382,13708,5696,-4020,-1.00,-1.0
1384,17696,-2688,1488,-1.00,-1.0
1385,21660,-2048,7484,-1.00,-1.0
1388,15244,4240,-6028,-1.00,-1.0
1390,14704,964,-6588,-1.00,-1.0
1391,20480,-1712,13736,-1.00,-1.0
1393,15276,1356,-2152,-1.00,-1.0
1398,18180,-592,448,-1.00,-1.0
1400,15816,4016,-8164,-1.00,-1.0
1401,17416,-1196,2156,-1.00,-1.0
1403,15464,-1276,-4876,-1.00,-1.0
1405,16524,3584,-948,-1.00,-1.0
1407,17688,-1460,228,-1.00,-1.0
1409,15184,4840,-9892,-1.00,-1.0
1411,19428,-1964,8680,-1.00,-1.0
1413,19716,-2792,5344,-1.00,-1.0
1415,13856,6280,-7860,-1.00,-1.0
1417,18500,-3444,2300,-1.00,-1.0
1419,19044,-1240,6208,-1.00,-1.0
1421,14996,3188,-3840,-1.00,-1.0
1423,14592,4276,-4164,-1.00,-1.0
1425,17340,-252,8760,-1.00,-1.0
1427,18780,-5236,5416,-1.00,-1.0
1431,15712,180,-1596,-1.00,-1.0
1433,19004,-1660,7556,-1.00,-1.0
1435,16268,468,-3744,-1.00,-1.0
1437,19580,-1312,7472,-1.00,-1.0
1439,17440,260,-272,-1.00,-1.0
1441,14432,1420,-5108,-1.00,-1.0
1443,19660,-4968,11928,-1.00,-1.0
1445,15432,1684,-6352,-1.00,-1.0
1447,13548,4772,-4484,-1.00,-1.0
1449,22380,-7472,11576,-1.00,-1.0
1450,18568,-716,4352,-1.00,-1.0
1452,11072,6460,-22208,-1.00,-1.0
1454,20524,-1024,11032,-1.00,-1.0
1456,20996,-3564,7796,-1.00,-1.0
1458,16056,-300,-2168,-1.00,-1.0
1462,16692,2276,4284,-1.00,-1.0
1464,16064,1576,-2984,-1.00,-1.0
1466,16124,-612,-4308,-1.00,-1.0
1468,18372,40,7756,-1.00,-1.0
1470,16744,1696,964,-1.00,-1.0
1472,13712,5352,-8364,-1.00,-1.0
1474,16776,2156,3700,-1.00,-1.0
1476,19728,-4284,1728,-1.00,-1.0
1478,19488,372,6920,-1.00,-1.0
1480,14628,1932,-7856,-1.00,-1.0
1482,16232,576,-3184,-1.00,-1.0
1484,18620,-3128,11276,-1.00,-1.0
1486,15936,-232,-2040,-1.00,-1.0
1488,13360,3840,-6432,-1.00,-1.0
1490,19424,-4788,6736,-1.00,-1.0
1491,20004,-1744,7476,-1.00,-1.0
1496,16948,1844,6552,-1.00,-1.0
1498,18892,-5072,3492,-1.00,-1.0
1500,18644,-912,4896,-1.00,-1.0
1501,13916,1156,-3360,-1.00,-1.0
1504,14848,1120,-3664,-1.00,-1.0
1506,18764,-12,11044,-1.00,-1.0
1507,16180,244,-688,-1.00,-1.0
1509,16380,3104,-2528,-1.00,-1.0
1511,21436,-4412,13528,-1.00,-1.0
1513,14616,1412,-10268,-1.00,-1.0
1515,19580,-948,7164,-1.00,-1.0
1517,14776,664,-6536,-1.00,-1.0
1519,17072,520,5244,-1.00,-1.0
1521,20224,-2580,660,-1.00,-1.0
1523,16104,2256,-448,-1.00,-1.0
1525,16264,-2532,-2284,-1.00,-1.0
1529,13352,1420,-7304,-1.00,-1.0
1531,16764,-892,400,-1.00,-1.0
1533,18960,-2520,9188,-1.00,-1.0
1535,15688,-448,-2724,-1.00,-1.0
1537,17444,2464,1536,-1.00,-1.0
1539,19132,-1284,1324,-1.00,-1.0
1541,17876,-1116,-20,-1.00,-1.0
1543,16716,1500,2816,-1.00,-1.0
1545,15864,184,-2304,-1.00,-1.0
1547,16748,-256,4564,-1.00,-1.0
1549,14216,1184,-2188,-1.00,-1.0
1551,17416,-272,852,-1.00,-1.0
1553,20172,-2700,4668,-1.00,-1.0
1555,16596,1644,-4724,-1.00,-1.0
1556,17044,-56,-6480,-1.00,-1.0
1558,20500,-2516,12376,-1.00,-1.0
1563,12364,3916,-9272,-1.00,-1.0
1565,17172,-3244,10600,-1.00,-1.0
1566,15912,1292,-1888,-1.00,-1.0
1568,16776,2996,-2660,-1.00,-1.0
1570,19848,-4308,5932,-1.00,-1.0
1572,16172,-380,-956,-1.00,-1.0
1574,17788,-72,-3040,-1.00,-1.0
1576,17676,-664,4372,-1.00,-1.0
1578,15824,-324,-2412,-1.00,-1.0
1580,18048,-2484,-288,-1.00,-1.0
1582,17856,68,10244,-1.00,-1.0
1584,17436,36,-9360,-1.00,-1.0
1586,17296,-60,1428,-1.00,-1.0
1588,19368,-6236,11892,-1.00,-1.0
1590,12320,6440,-14956,-1.00,-1.0
1594,25356,-13220,23896,-1.00,-1.0
1596,13884,7228,-13328,-1.00,-1.0
1598,11996,5468,-13348,-1.00,-1.0
1600,25248,-8860,22004,-1.00,-1.0
1602,18216,552,1200,-1.00,-1.0
1604,8764,6712,-19572,-1.00,-1.0
1606,21048,-6216,14208,-1.00,-1.0
1608,19728,-2232,7796,-1.00,-1.0
1610,14572,4372,-6812,-1.00,-1.0
1612,16020,60,-5316,-1.00,-1.0
1614,17368,1208,5096,-1.00,-1.0
1615,20344,-3120,5228,-1.00,-1.0
1617,14016,4136,-9636,-1.00,-1.0
1619,15004,1164,4864,-1.00,-1.0
1621,21836,-7040,6024,-1.00,-1.0
1623,13848,3856,-2652,-1.00,-1.0
1627,21512,-1244,8744,-1.00,-1.0
1629,15256,12,-6464,-1.00,-1.0
1631,15156,1248,3912,-1.00,-1.0
1633,19788,-1188,380,-1.00,-1.0
1635,15364,3568,580,-1.00,-1.0
1637,14716,60,-2652,-1.00,-1.0
1639,16136,20,-9796,-1.00,-1.0
1641,16284,1048,5680,-1.00,-1.0
1643,19068,-1840,-52,-1.00,-1.0
1645,13908,4576,-10808,-1.00,-1.0
1647,16200,-1188,8196,-1.00,-1.0
1649,17020,-828,-2156,-1.00,-1.0
1651,17036,3608,1260,-1.00,-1.0
1653,16608,-3620,692,-1.00,-1.0
1655,16764,824,424,-1.00,-1.0
1657,18580,976,200,-1.00,-1.0
1661,16168,-236,380,-1.00,-1.0
1663,16876,-1232,2396,-1.00,-1.0
1665,15128,-1212,864,-1.00,-1.0
1667,16712,-1464,4564,-1.00,-1.0
1669,17320,180,696,-1.00,-1.0
1671,14956,1824,-9364,-1.00,-1.0
1672,18268,1204,9436,-1.00,-1.0
1674,19720,-1212,-1892,-1.00,-1.0
1676,16124,3900,-3008,-1.00,-1.0
1678,16164,-1628,1160,-1.00,-1.0
1680,18944,-44,5932,-1.00,-1.0
1682,17448,-268,5204,-1.00,-1.0
1684,16556,-2036,3704,-1.00,-1.0
1686,16028,1364,-3652,-1.00,-1.0
1688,17840,-2528,5356,-1.00,-1.0
1690,16468,2924,-5328,-1.00,-1.0
1694,16816,-272,328,-1.00,-1.0
1696,15340,4052,-820,-1.00,-1.0
1698,19744,-968,532,-1.00,-1.0
1700,15376,1748,-1092,-1.00,-1.0
1702,16696,-2644,5512,-1.00,-1.0
1704,16408,2204,-5584,-1.00,-1.0
1706,16192,-912,6188,-1.00,-1.0
1707,18112,-5344,4424,-1.00,-1.0
1710,16972,2372,-1796,-1.00,-1.0
1712,15416,616,-6992,-1.00,-1.0
1713,18112,-1184,8028,-1.00,-1.0
1715,17600,1872,-3492,-1.00,-1.0
1717,15048,2708,-6456,-1.00,-1.0
1719,18236,-2048,8212,-1.00,-1.0
1721,17392,1164,396,-1.00,-1.0
1723,17044,-1400,7656,-1.00,-1.0
1727,17420,1864,-2880,-1.00,-1.0
1729,15264,276,-1928,-1.00,-1.0
1731,17812,-676,3440,-1.00,-1.0
1733,18728,2232,4320,-1.00,-1.0
1735,14888,1360,-5624,-1.00,-1.0
1737,17316,-320,5680,-1.00,-1.0
1739,17884,196,2560,-1.00,-1.0
1741,13236,3880,-15952,-1.00,-1.0
1743,20084,-3284,15864,-1.00,-1.0
1745,18640,-1856,-5308,-1.00,-1.0
1746,16048,3556,44,-1.00,-1.0
1749,18380,-6260,4548,-1.00,-1.0
1750,18256,-836,9024,-1.00,-1.0
1752,11864,4276,-18448,-1.00,-1.0
1754,19132,-3092,13332,-1.00,-1.0
1758,14260,4232,-10132,-1.00,-1.0
1760,19252,-2820,8424,-1.00,-1.0
1762,18512,-1960,3644,-1.00,-1.0
1764,15108,5224,-2796,-1.00,-1.0
1766,16396,724,-2100,-1.00,-1.0
1768,17548,-608,5668,-1.00,-1.0
1770,16128,3020,-2812,-1.00,-1.0
1772,16552,2852,-5624,-1.00,-1.0
1774,19832,-2532,9460,-1.00,-1.0
1776,14636,764,-3868,-1.00,-1.0
1778,20116,-2376,11420,-1.00,-1.0
1780,16156,544,-5912,-1.00,-1.0
1782,16592,1712,-436,-1.00,-1.0
1784,19324,-4128,7032,-1.00,-1.0
1786,14468,2828,-3684,-1.00,-1.0
1788,14588,3852,-3672,-1.00,-1.0
1792,14380,4224,-6740,-1.00,-1.0
1794,16924,-360,-6008,-1.00,-1.0
1796,22136,-3000,12700,-1.00,-1.0
1798,16008,-1312,1856,-1.00,-1.0
1800,10108,4520,-8948,-1.00,-1.0
1802,17512,-1344,3776,-1.00,-1.0
1804,19096,-3108,8452,-1.00,-1.0
1805,14676,2892,-6048,-1.00,-1.0
1808,16604,1716,-6984,-1.00,-1.0
1810,21164,-2528,11264,-1.00,-1.0
1811,16976,-1040,3372,-1.00,-1.0
1813,13140,2960,-12704,-1.00,-1.0
1815,19148,-2868,12616,-1.00,-1.0
1817,14612,-656,-13376,-1.00,-1.0
1819,18572,1784,11996,-1.00,-1.0
1823,15584,5956,-5552,-1.00,-1.0
1825,19788,-5952,9796,-1.00,-1.0
1827,19528,-716,3116,-1.00,-1.0
1829,10092,7412,-14156,-1.00,-1.0
1831,17828,-7172,12564,-1.00,-1.0
1833,19664,-3464,12636,-1.00,-1.0
1835,12556,4368,-20688,-1.00,-1.0
1837,19312,-1648,9652,-1.00,-1.0
1839,22796,-8256,7852,-1.00,-1.0
1841,14724,2936,-1524,-1.00,-1.0
1843,21228,-2612,15480,-1.00,-1.0
1845,19980,-1592,-5236,-1.00,-1.0
1847,12752,9160,-14896,-1.00,-1.0
1849,20172,-5512,13472,-1.00,-1.0
1851,18380,-1824,2924,-1.00,-1.0
1853,11476,4460,-2120,-1.00,-1.0
1857,18300,296,8000,-1.00,-1.0
1859,15900,-1848,-8448,-1.00,-1.0
1861,20388,-956,9164,-1.00,-1.0
1863,16012,2024,-7756,-1.00,-1.0
1865,14588,3940,-3528,-1.00,-1.0
1867,21176,-3664,15512,-1.00,-1.0
1869,14052,3244,-5716,-1.00,-1.0
1871,12988,5988,-7712,-1.00,-1.0
1873,23480,-4592,8424,-1.00,-1.0
1875,18804,1288,-604,-1.00,-1.0
1876,13900,1888,-10376,-1.00,-1.0
1879,18772,-1740,1540,-1.00,-1.0
1880,19712,-2472,10268,-1.00,-1.0
1882,11632,2212,-12188,-1.00,-1.0
1884,16120,-1112,5604,-1.00,-1.0
1889,13800,4748,-9672,-1.00,-1.0
1890,16652,-580,1400,-1.00,-1.0
1892,19444,-2628,9564,-1.00,-1.0
1894,15096,816,-4220,-1.00,-1.0
1896,16236,848,976,-1.00,-1.0
1898,18000,-1088,2644,-1.00,-1.0
1900,17824,-716,-3612,-1.00,-1.0
1902,18980,-1620,12572,-1.00,-1.0
1904,14956,1380,-10300,-1.00,-1.0
1906,15704,3472,-1452,-1.00,-1.0
1908,21636,-7868,17692,-1.00,-1.0
1910,16692,-1548,-7660,-1.00,-1.0
1912,15192,5068,-2372,-1.00,-1.0
1914,16044,-3908,-1840,-1.00,-1.0
1916,13612,4412,-6720,-1.00,-1.0
1918,20368,-2368,4636,-1.00,-1.0
1922,21296,-268,-2132,-1.00,-1.0
1924,15660,2220,-1800,-1.00,-1.0
1926,18880,1364,4776,-1.00,-1.0
1928,17500,-1304,52,-1.00,-1.0
1930,17572,-1872,3000,-1.00,-1.0
1932,16800,1000,2408,-1.00,-1.0
1934,14876,1256,-17288,-1.00,-1.0
1936,19972,-1232,19756,-1.00,-1.0
1938,17240,-5384,-9720,-1.00,-1.0
1940,17088,4416,1808,-1.00,-1.0
1941,17656,-2224,-4308,-1.00,-1.0
1944,18184,1820,2344,-1.00,-1.0
1945,16252,120,128,-1.00,-1.0
1947,16896,-1572,3540,-1.00,-1.0
1949,13032,2504,-4292,-1.00,-1.0
1954,17156,1988,1820,-1.00,-1.0
1956,14140,5076,-12100,-1.00,-1.0
1957,17364,152,1104,-1.00,-1.0
1959,20332,-2564,14244,-1.00,-1.0
1961,14928,2560,-16556,-1.00,-1.0
1963,15592,2500,1280,-1.00,-1.0
1965,20804,-7620,11972,-1.00,-1.0
1967,16104,2732,-5648,-1.00,-1.0
1969,15464,592,-184,-1.00,-1.0
1971,17264,-912,2648,-1.00,-1.0
1973,14104,1924,5636,-1.00,-1.0
1975,13420,560,-5224,-1.00,-1.0
1977,18800,2352,7040,-1.00,-1.0
1979,20184,-1208,-10272,-1.00,-1.0
1981,12824,288,-2648,-1.00,-1.0
1983,13200,2304,3456,-1.00,-1.0
1987,20984,540,7368,-1.00,-1.0
1989,19824,-2864,-3364,-1.00,-1.0
1990,13952,8228,-9680,-1.00,-1.0
1992,13100,2748,4272,-1.00,-1.0
1994,17936,-5200,4724,-1.00,-1.0
1996,17460,2468,4508,-1.00,-1.0
1998,15912,32,-16540,-1.00,-1.0
2000,21608,-720,5008,-1.00,-1.0
2002,20296,-6452,10300,-1.00,-1.0
2004,10724,4512,-9516,-1.00,-1.0
2006,12528,1456,1564,-1.00,-1.0
2008,20816,-9516,11056,-1.00,-1.0
2010,16668,2068,-144,-1.00,-1.0
2012,16940,704,-10528,-1.00,-1.0
2014,16944,6436,-3532,-1.00,-1.0
2016,16700,1320,10576,-1.00,-1.0
2020,14428,6808,612,-1.00,-1.0
2022,17840,-4440,-5000,-1.00,-1.0
2024,20384,748,9544,-1.00,-1.0
2026,14236,3808,5676,-1.00,-1.0
2028,20592,-8448,3856,-1.00,-1.0
2030,18580,5544,-1312,-1.00,-1.0
2032,17488,3508,-11216,-1.00,-1.0
2034,19284,2192,4352,-1.00,-1.0
2036,14132,1912,3620,-1.00,-1.0
2038,15592,-3564,5216,-1.00,-1.0
2039,14756,5080,-4164,-1.00,-1.0
2042,19956,-3092,640,-1.00,-1.0
2044,19168,-1136,5968,-1.00,-1.0
2045,16848,-1536,392,-1.00,-1.0
2047,14496,2188,-9076,-1.00,-1.0
2052,20332,-8324,4932,-1.00,-1.0
2054,14100,4872,-5564,-1.00,-1.0
2055,18332,-1908,-436,-1.00,-1.0
2057,17372,4900,-2484,-1.00,-1.0
2059,13904,2080,6372,-1.00,-1.0
2061,15716,-1512,-7072,-1.00,-1.0
2063,19672,4360,11392,-1.00,-1.0
2065,16380,932,-17664,-1.00,-1.0
2067,18804,4196,6236,-1.00,-1.0
2069,15968,-408,480,-1.00,-1.0
2071,14092,2920,-11536,-1.00,-1.0
2073,18184,1196,11848,-1.00,-1.0
2075,19120,-6588,-1532,-1.00,-1.0
2077,14876,6680,-4412,-1.00,-1.0
2079,16024,-912,-5492,-1.00,-1.0
2081,15664,-3032,-5560,-1.00,-1.0
2085,17596,-3364,-984,-1.00,-1.0
2087,18720,740,3400,-1.00,-1.0
2089,16636,384,-8160,-1.00,-1.0
2091,17900,-5740,660,-1.00,-1.0
2093,18948,-528,6700,-1.00,-1.0
2095,18088,-1556,-11224,-1.00,-1.0
2097,17008,1296,4936,-1.00,-1.0
2098,17908,-5564,5692,-1.00,-1.0
2101,14076,1964,-2432,-1.00,-1.0
2103,13924,2880,2764,-1.00,-1.0
2104,19132,-2636,-5400,-1.00,-1.0
2106,19048,2880,8048,-1.00,-1.0
2108,18700,-4120,-5864,-1.00,-1.0
2110,17456,4724,552,-1.00,-1.0
2112,16408,-1360,8364,-1.00,-1.0
2116,15104,4044,6272,-1.00,-1.0
2118,19684,-3464,-4320,-1.00,-1.0
2120,17088,7168,-2288,-1.00,-1.0
2122,16420,-1884,5204,-1.00,-1.0
2124,16816,-1728,3328,-1.00,-1.0
2126,16544,4636,5824,-1.00,-1.0
2128,16528,1208,-11468,-1.00,-1.0
2130,17200,3356,3752,-1.00,-1.0
2132,21344,-6100,11796,-1.00,-1.0
2134,13092,6068,-15596,-1.00,-1.0
2136,16988,3492,12340,-1.00,-1.0
2138,19036,-5468,-2684,-1.00,-1.0
2140,13508,5092,6740,-1.00,-1.0
2142,17516,-4384,-8920,-1.00,-1.0
2144,13956,-924,-8036,-1.00,-1.0
2146,13508,4216,6876,-1.00,-1.0
2150,13740,3548,4968,-1.00,-1.0
2152,17504,-5208,-7316,-1.00,-1.0
2154,14440,400,-8460,-1.00,-1.0
2156,14972,4488,8720,-1.00,-1.0
2158,18600,-5548,-1196,-1.00,-1.0
2160,16696,5448,2404,-1.00,-1.0
2161,17044,-4860,5368,-1.00,-1.0
2163,18484,-2700,304,-1.00,-1.0
2165,15040,4212,2568,-1.00,-1.0
2167,17684,-4920,-4040,-1.00,-1.0
2169,16796,3576,8240,-1.00,-1.0
2171,15416,-3840,-2764,-1.00,-1.0
2173,21124,-2572,7608,-1.00,-1.0
2175,16132,5152,-2504,-1.00,-1.0
2177,12864,2328,-16284,-1.00,-1.0
2179,20844,-2196,24892,-1.00,-1.0
2183,15736,8904,-8616,-1.00,-1.0
2185,21460,-332,2644,-1.00,-1.0
2187,15524,1032,1428,-1.00,-1.0
2189,11640,2240,9492,-1.00,-1.0
2191,15912,-4904,-7100,-1.00,-1.0
2193,21024,2080,7004,-1.00,-1.0
2195,23088,-6912,5972,-1.00,-1.0
2197,12464,6140,-10156,-1.00,-1.0
2199,10728,3492,6572,-1.00,-1.0
2201,18068,-7020,-3668,-1.00,-1.0
2203,21016,3148,14772,-1.00,-1.0
2205,18428,-4200,-12764,-1.00,-1.0
2207,17000,6952,-64,-1.00,-1.0
2209,17712,3436,10480,-1.00,-1.0
2211,21204,-8544,328,-1.00,-1.0
2215,15688,-2172,18044,-1.00,-1.0
2217,14240,8432,-1160,-1.00,-1.0
2219,21092,3612,22148,-1.00,-1.0
2220,23348,-13272,-10508,-1.00,-1.0
2223,14948,9044,-4160,-1.00,-1.0
2225,14788,-2408,8160,-1.00,-1.0
2226,15540,-1396,-15532,-1.00,-1.0
2228,18172,4224,15480,-1.00,-1.0
2230,23624,-13292,872,-1.00,-1.0
2232,11384,14032,-16748,-1.00,-1.0
2234,17424,-5392,23144,-1.00,-1.0
2236,16132,-5596,-8644,-1.00,-1.0
2238,13452,11892,7596,-1.00,-1.0
2240,19336,-11228,-12536,-1.00,-1.0
2242,21712,4692,9992,-1.00,-1.0
2246,16160,-2440,-12152,-1.00,-1.0
2248,18864,4656,21516,-1.00,-1.0
2250,18584,-9400,-13232,-1.00,-1.0
2252,14204,12444,-3912,-1.00,-1.0
2254,15948,-1300,5620,-1.00,-1.0
2256,18968,-4572,300,-1.00,-1.0
2258,12128,12120,4440,-1.00,-1.0
2260,17440,-6536,-14720,-1.00,-1.0
2262,20676,7592,9504,-1.00,-1.0
2264,15880,-3764,3568,-1.00,-1.0
2266,15520,-768,-12684,-1.00,-1.0
2268,16156,10664,2652,-1.00,-1.0
2270,20276,-12204,-9852,-1.00,-1.0
2272,16892,11636,3824,-1.00,-1.0
2273,17924,4276,24108,-1.00,-1.0
2275,19492,-11680,-16072,-1.00,-1.0
2280,15572,-7840,-20616,-1.00,-1.0
2282,19172,8524,5536,-1.00,-1.0
2284,8416,13856,2956,-1.00,-1.0
2286,10448,5116,-28236,-1.00,-1.0
2288,20932,7344,10412,-1.00,-1.0
2289,13736,908,-11744,-1.00,-1.0
2291,19928,-2600,-136,-1.00,-1.0
2293,15748,4152,14772,-1.00,-1.0
2295,18868,-12264,-7796,-1.00,-1.0
2297,14100,15728,-14780,-1.00,-1.0
2299,21488,-7480,12660,-1.00,-1.0
2301,14604,1512,-11680,-1.00,-1.0
2303,10796,11980,9876,-1.00,-1.0
2305,21708,-12392,-11828,-1.00,-1.0
2307,17588,14312,-1084,-1.00,-1.0
2311,13872,2888,-21884,-1.00,-1.0
2313,15956,6296,22140,-1.00,-1.0
2315,22752,-14860,-20308,-1.00,-1.0
2317,15064,17996,-5956,-1.00,-1.0
2319,19444,-13848,22132,-1.00,-1.0
2321,14216,-4328,-13172,-1.00,-1.0
2323,10568,14748,6592,-1.00,-1.0
2325,19692,-11316,-22280,-1.00,-1.0
2327,21344,10644,8716,-1.00,-1.0
2329,14164,-8096,21032,-1.00,-1.0
2331,12276,-872,-32768,-1.00,-1.0
2333,17740,17892,16676,-1.00,-1.0
2335,26524,-22060,156,-1.00,-1.0
2337,13944,10944,-3872,-1.00,-1.0
2339,7392,4028,10268,-1.00,-1.0
2343,15912,21816,4692,-1.00,-1.0
2345,21004,-18484,7096,-1.00,-1.0
2347,15904,2092,-14984,-1.00,-1.0
2349,11048,8816,15128,-1.00,-1.0
2351,22688,-17400,-24956,-1.00,-1.0
2353,16724,19404,3468,-1.00,-1.0
2354,15952,10840,26404,-1.00,-1.0
2357,17744,-3656,-2972,-1.00,-1.0
2359,12600,12688,12268,-1.00,-1.0
2360,16776,-8328,9984,-1.00,-1.0
2362,16528,-3932,-6852,-1.00,-1.0
2364,14544,13048,17640,-1.00,-1.0
2366,16488,-10352,-30636,-1.00,-1.0
2368,21164,13548,8092,-1.00,-1.0
2370,20156,-10988,20124,-1.00,-1.0
2374,13512,16604,10552,-1.00,-1.0
2376,18900,-16952,-7884,-1.00,-1.0
2378,16916,10164,-1700,-1.00,-1.0
2380,17752,-3320,24060,-1.00,-1.0
2382,18764,-15436,-17636,-1.00,-1.0
2384,14932,19804,8548,-1.00,-1.0
2386,14960,-7312,-16844,-1.00,-1.0
2388,24444,-2132,15240,-1.00,-1.0
2390,17164,552,25676,-1.00,-1.0
2392,9784,-7128,-20840,-1.00,-1.0
2394,8096,27648,-22800,-1.00,-1.0
2396,28360,-14308,32767,-1.00,-1.0
2398,25160,-18120,12464,-1.00,-1.0
2400,4976,21116,-15848,-1.00,-1.0
2402,13584,716,-32768,-1.00,-1.0
2406,21608,-17176,32767,-1.00,-1.0
2408,-6712,5652,-32768,-1.00,-1.0
2410,14268,25984,-8480,-1.00,-1.0
2412,32767,-22972,32767,-1.00,-1.0
2414,16388,-6820,10840,-1.00,-1.0
2416,-96,11480,-18708,-1.00,-1.0
2418,15952,588,-29744,-1.00,-1.0
2420,31420,1832,32767,-1.00,-1.0
2422,20436,-16600,11632,-1.00,-1.0
2424,4120,11952,-29864,-1.00,-1.0
2425,12156,10972,-760,-1.00,-1.0
2428,30868,-16284,13244,-1.00,-1.0
2430,14660,5168,12784,-1.00,-1.0
2431,22288,4992,28608,-1.00,-1.0
2433,28340,-18896,11828,-1.00,-1.0
2438,23032,-17712,7948,-1.00,-1.0
2440,7468,16480,-30192,-1.00,-1.0
2441,17208,5652,22700,-1.00,-1.0
2443,14428,-11260,1968,-1.00,-1.0
2445,13944,9880,-27136,-1.00,-1.0
2447,17540,6404,22216,-1.00,-1.0
2449,25480,-13768,-3396,-1.00,-1.0
2451,12220,13020,2704,-1.00,-1.0
2453,12964,-5564,16164,-1.00,-1.0
2455,15888,5368,-32768,-1.00,-1.0
2457,16704,14592,23452,-1.00,-1.0
2459,21928,-19808,15584,-1.00,-1.0
2461,14292,11868,-24248,-1.00,-1.0
2463,10960,12336,7656,-1.00,-1.0
2465,28396,-16660,-8044,-1.00,-1.0
2469,10132,-10516,4692,-1.00,-1.0
2471,14828,3392,-32768,-1.00,-1.0
2473,19196,13688,21856,-1.00,-1.0
2475,28956,-29824,30152,-1.00,-1.0
2477,5180,10960,-25596,-1.00,-1.0
2479,7132,10528,3040,-1.00,-1.0
2481,27640,-10276,-19272,-1.00,-1.0
2483,26728,7340,32767,-1.00,-1.0
2485,13788,-14744,8976,-1.00,-1.0
2487,1976,16824,-32768,-1.00,-1.0
2489,18988,10320,23744,-1.00,-1.0
2491,30020,-19736,10116,-1.00,-1.0
2493,14256,11772,3404,-1.00,-1.0
2495,7768,-2120,-1260,-1.00,-1.0
2496,16776,340,-32768,-1.00,-1.0
2500,23380,-21880,8064,-1.00,-1.0
2502,5920,12288,-21872,-1.00,-1.0
2504,26420,2104,32767,-1.00,-1.0
2506,16008,-16208,4328,-1.00,-1.0
2508,4044,13552,-32768,-1.00,-1.0
2510,16572,10640,-2460,-1.00,-1.0
2512,32767,-15024,22060,-1.00,-1.0
2514,17472,-1372,8600,-1.00,-1.0
2516,5004,2164,-3416,-1.00,-1.0
2518,11496,11432,-32768,-1.00,-1.0
2520,32767,-3932,32767,-1.00,-1.0
2522,18420,-18112,18520,-1.00,-1.0
2524,-3500,20204,-32768,-1.00,-1.0
2526,17596,10640,-5008,-1.00,-1.0
2528,32767,-22496,32767,-1.00,-1.0
2532,-984,20488,-32768,-1.00,-1.0
2534,32767,-1700,1728,-1.00,-1.0
2536,32767,-17248,32767,-1.00,-1.0
2538,496,-5540,-10076,-1.00,-1.0
2540,264,21284,-32768,-1.00,-1.0
2542,32767,-336,32767,-1.00,-1.0
2544,30172,-27960,32767,-1.00,-1.0
2546,-11048,15972,-32768,-1.00,-1.0
2548,9256,19656,-30420,-1.00,-1.0
2550,32767,-17240,32767,-1.00,-1.0
2552,15664,-6512,24480,-1.00,-1.0
2554,-8244,15604,-32768,-1.00,-1.0
2556,22272,12876,-24884,-1.00,-1.0
2557,32767,-14696,32767,-1.00,-1.0
2559,5340,-2464,-13708,-1.00,-1.0
2564,29180,-10716,32767,-1.00,-1.0
2566,28008,-19224,32767,-1.00,-1.0
2567,-2668,12960,-32768,-1.00,-1.0
2569,17356,8212,-88,-1.00,-1.0
2571,32767,-15512,32472,-1.00,-1.0
2573,11320,792,4540,-1.00,-1.0
2575,29244,-6660,30048,-1.00,-1.0
2577,26532,-15388,27084,-1.00,-1.0
2579,932,11128,-32768,-1.00,-1.0
2581,15816,7600,3620,-1.00,-1.0
2583,32767,-16016,26316,-1.00,-1.0
2585,12460,3644,-5164,-1.00,-1.0
2587,4744,10588,-23340,-1.00,-1.0
2589,28272,-6676,11496,-1.00,-1.0
2591,18036,-8704,24488,-1.00,-1.0
2595,15308,9640,-32768,-1.00,-1.0
2597,32767,-11368,32767,-1.00,-1.0
2599,15560,-7700,3020,-1.00,-1.0
2601,3972,15652,-32768,-1.00,-1.0
2603,22372,-5332,21884,-1.00,-1.0
2605,29564,-16220,26400,-1.00,-1.0
2607,2652,11304,-27656,-1.00,-1.0
2609,12216,6612,-11032,-1.00,-1.0
2611,32767,-9172,25836,-1.00,-1.0
2613,13292,3416,-6384,-1.00,-1.0
2615,7040,7916,-18412,-1.00,-1.0
2617,24360,-2160,6956,-1.00,-1.0
2619,22708,-11792,29032,-1.00,-1.0
2621,1988,11492,-32768,-1.00,-1.0
2622,21920,1572,1620,-1.00,-1.0
2627,13156,3396,-3088,-1.00,-1.0
2629,9868,5268,-22932,-1.00,-1.0
2631,27696,-8644,28224,-1.00,-1.0
2632,19100,-5092,8632,-1.00,-1.0
2635,6828,6008,-25976,-1.00,-1.0
2636,16724,840,10028,-1.00,-1.0
2638,25812,-5216,17332,-1.00,-1.0
2640,16488,-3992,-9868,-1.00,-1.0
2642,14760,7924,-6064,-1.00,-1.0
2644,10412,804,-12612,-1.00,-1.0
2646,14708,3248,-11184,-1.00,-1.0
2648,22720,-4736,13492,-1.00,-1.0
2650,20108,-2404,12136,-1.00,-1.0
2652,10752,5428,-23076,-1.00,-1.0
2654,20592,-3688,15496,-1.00,-1.0
2656,24508,-9600,18548,-1.00,-1.0
2660,14604,6764,-3164,-1.00,-1.0
2662,27404,-7388,16500,-1.00,-1.0
2664,12508,3224,2248,-1.00,-1.0
2666,4200,11824,-24836,-1.00,-1.0
2668,22856,-1216,16076,-1.00,-1.0
2670,21676,-2788,-604,-1.00,-1.0
2672,12940,8052,-5936,-1.00,-1.0
2674,19772,-184,-7488,-1.00,-1.0
2676,21040,-4492,14540,-1.00,-1.0
2678,9000,5560,-13140,-1.00,-1.0
2680,16364,-3016,2612,-1.00,-1.0
2682,20404,-11332,23752,-1.00,-1.0
2684,12096,168,-1804,-1.00,-1.0
2685,11068,7532,-25876,-1.00,-1.0
2687,29696,-10312,27988,-1.00,-1.0
2692,7120,6724,-23956,-1.00,-1.0
2694,20848,-4940,13276,-1.00,-1.0
2695,25512,-4916,13816,-1.00,-1.0
2697,12168,3116,-7976,-1.00,-1.0
2699,14260,3036,-9116,-1.00,-1.0
2701,23344,376,17076,-1.00,-1.0
2703,12412,5140,-22104,-1.00,-1.0
2705,16148,-3520,212,-1.00,-1.0
2707,19048,-4976,-908,-1.00,-1.0
2709,11272,6896,-13500,-1.00,-1.0
2711,23936,-10288,23140,-1.00,-1.0
2713,9688,7580,-11988,-1.00,-1.0
2715,13188,3564,-19420,-1.00,-1.0
2717,30696,-14556,32767,-1.00,-1.0
2719,15620,-2432,-5856,-1.00,-1.0
2723,23904,-7180,9464,-1.00,-1.0
2725,23328,-2980,17236,-1.00,-1.0
2727,8528,5652,-32768,-1.00,-1.0
2729,25120,-11016,32767,-1.00,-1.0
2731,16160,-2300,-9192,-1.00,-1.0
2733,6828,12904,-22088,-1.00,-1.0
2735,24476,-4344,2872,-1.00,-1.0
2737,29004,-7552,27844,-1.00,-1.0
2739,4308,7628,-27456,-1.00,-1.0
2741,13028,3272,7416,-1.00,-1.0
2742,26160,-5484,19840,-1.00,-1.0
2744,11456,8916,-22660,-1.00,-1.0
2746,18020,3656,-5568,-1.00,-1.0
2748,27600,-11100,25292,-1.00,-1.0
2750,8312,4640,-9712,-1.00,-1.0
2754,28228,-8896,29676,-1.00,-1.0
2756,13576,608,-7388,-1.00,-1.0
2758,10840,8980,-21108,-1.00,-1.0
2760,17748,-1512,2936,-1.00,-1.0
2762,4828,9556,-17116,-1.00,-1.0
2764,21868,-3000,7120,-1.00,-1.0
2766,25972,748,10696,-1.00,-1.0
2768,14284,4924,-15568,-1.00,-1.0
2770,22588,-9772,29008,-1.00,-1.0
2772,14816,-1392,-3868,-1.00,-1.0
2774,6524,9820,-15820,-1.00,-1.0
2776,21476,-2000,576,-1.00,-1.0
2778,28384,-3580,23372,-1.00,-1.0
2780,11460,6052,-27260,-1.00,-1.0
2782,21236,-1100,13520,-1.00,-1.0
2784,21116,-5528,9132,-1.00,-1.0
2788,15616,1660,-1292,-1.00,-1.0
2790,24628,-3804,5128,-1.00,-1.0
2792,17368,-304,6640,-1.00,-1.0
2794,17528,-6284,4352,-1.00,-1.0
2796,13772,5332,-660,-1.00,-1.0
2798,14748,5048,-16780,-1.00,-1.0
2799,25688,-7624,31412,-1.00,-1.0
2801,20624,-6684,2672,-1.00,-1.0
2803,7540,11076,-15604,-1.00,-1.0
2805,17808,3768,-11260,-1.00,-1.0
2807,28996,-11780,32767,-1.00,-1.0
2809,5520,-108,-18516,-1.00,-1.0
2811,12420,2240,-1176,-1.00,-1.0
2813,23436,-2624,-2136,-1.00,-1.0
2815,6904,5056,-12772,-1.00,-1.0
2819,15816,1756,9056,-1.00,-1.0
2821,13288,1564,-17128,-1.00,-1.0
2823,24192,-740,20488,-1.00,-1.0
2825,13924,4980,-13004,-1.00,-1.0
2827,12560,-800,9792,-1.00,-1.0
2829,12264,3632,-25352,-1.00,-1.0
2831,16956,1780,1848,-1.00,-1.0
2833,7344,5864,-16260,-1.00,-1.0
2835,21544,-3496,12288,-1.00,-1.0
2837,18792,2580,-7220,-1.00,-1.0
2839,17584,-268,6152,-1.00,-1.0
2841,16788,-5612,5180,-1.00,-1.0
2843,13588,4648,-4472,-1.00,-1.0
2845,10780,3820,-17756,-1.00,-1.0
2847,29028,-6576,20004,-1.00,-1.0
2848,17760,1756,-7804,-1.00,-1.0
2853,12900,-1604,1576,-1.00,-1.0
2855,13404,5940,-7964,-1.00,-1.0
2857,12884,3644,-8220,-1.00,-1.0
2859,25012,-4524,15884,-1.00,-1.0
2861,16164,6828,-13432,-1.00,-1.0
2863,15356,2540,-3616,-1.00,-1.0
2864,21296,-6464,13276,-1.00,-1.0
2867,13444,4140,-8888,-1.00,-1.0
2868,10800,2568,-7388,-1.00,-1.0
2870,22020,-3756,6432,-1.00,-1.0
2872,18340,3584,-6452,-1.00,-1.0
2874,18036,-3064,3944,-1.00,-1.0
2876,16392,-4500,5500,-1.00,-1.0
2878,10232,6500,-20608,-1.00,-1.0
2880,19940,-4032,8880,-1.00,-1.0
2884,13424,2400,-3596,-1.00,-1.0
2886,9872,2176,-1036,-1.00,-1.0
2888,18280,-3160,-2720,-1.00,-1.0
2890,17708,-3392,3612,-1.00,-1.0
2892,22460,-9064,12064,-1.00,-1.0
2894,14188,-1692,-7168,-1.00,-1.0
2896,25052,-3780,32767,-1.00,-1.0
2898,15824,-1016,1248,-1.00,-1.0
2900,8112,9736,-10488,-1.00,-1.0
2902,20356,2372,-9180,-1.00,-1.0
2904,25272,-948,17728,-1.00,-1.0
2906,16652,1068,-16740,-1.00,-1.0
2908,17116,744,15912,-1.00,-1.0
2910,12520,5256,-19068,-1.00,-1.0
2912,15524,4032,4980,-1.00,-1.0
2916,16640,6516,-1240,-1.00,-1.0
2918,14460,-716,-15956,-1.00,-1.0
2920,20412,-4188,17900,-1.00,-1.0
2922,13976,4640,-18800,-1.00,-1.0
2924,16256,-104,6160,-1.00,-1.0
2926,19196,-5944,1208,-1.00,-1.0
2928,13600,3560,-4712,-1.00,-1.0
2929,16904,-4356,-5052,-1.00,-1.0
2932,17784,-2144,388,-1.00,-1.0
2933,16428,-912,-4580,-1.00,-1.0
2935,21696,-8564,18116,-1.00,-1.0
2937,11856,-2736,-10376,-1.00,-1.0
2939,14656,2404,-5112,-1.00,-1.0
2941,22788,-8004,12172,-1.00,-1.0
2943,16756,-1820,6308,-1.00,-1.0
2945,12628,552,-2692,-1.00,-1.0
2949,14408,652,-9232,-1.00,-1.0
2951,20176,1200,6852,-1.00,-1.0
2953,22484,-2988,10496,-1.00,-1.0
2955,12456,2420,-4224,-1.00,-1.0
2957,13768,2288,-5844,-1.00,-1.0
2959,19984,908,14616,-1.00,-1.0
2961,15008,1976,-9456,-1.00,-1.0
2963,17880,-4692,-1556,-1.00,-1.0
2965,21212,-4632,7904,-1.00,-1.0
2967,17868,-3652,5120,-1.00,-1.0
2969,10688,-248,-8232,-1.00,-1.0
2971,17124,-976,6400,-1.00,-1.0
2973,20100,-2388,16848,-1.00,-1.0
2975,11404,2808,-10912,-1.00,-1.0
2977,17664,2692,3880,-1.00,-1.0
2981,15612,2360,-1488,-1.00,-1.0
2983,16792,-920,1156,-1.00,-1.0
2985,17872,2240,10020,-1.00,-1.0
2987,11392,4152,-7608,-1.00,-1.0
2989,18148,-3972,13560,-1.00,-1.0
2991,15996,6420,-7648,-1.00,-1.0
2993,16872,1428,-1640,-1.00,-1.0
2994,19352,-496,-604,-1.00,-1.0
2997,19884,2472,1844,-1.00,-1.0
2998,16312,700,-4868,-1.00,-1.0
3000,17752,-1780,-2672,-1.00,-1.0
3002,16700,1908,-4996,-1.00,-1.0
3004,20540,-5396,9720,-1.00,-1.0
3006,12592,-540,-8892,-1.00,-1.0
3008,15552,2104,-6572,-1.00,-1.0
3010,22460,-5396,9776,-1.00,-1.0
3014,11668,200,-8508,-1.00,-1.0
3016,13320,4444,-2632,-1.00,-1.0
3018,19604,-3468,2832,-1.00,-1.0
3020,12752,-176,-2496,-1.00,-1.0
3022,14904,6908,-12044,-1.00,-1.0
3024,21668,-1888,3520,-1.00,-1.0
3026,20336,-3560,-984,-1.00,-1.0
3028,17116,-348,-5680,-1.00,-1.0
3030,17520,-3732,9040,-1.00,-1.0
3032,11904,480,-16760,-1.00,-1.0
3034,18724,-3348,11104,-1.00,-1.0
3036,19384,-5872,9576,-1.00,-1.0
3038,12532,-2280,9268,-1.00,-1.0
3040,12904,1832,-9832,-1.00,-1.0
3041,19776,2136,7992,-1.00,-1.0
3046,17852,-4340,10180,-1.00,-1.0
3048,11672,12728,-11588,-1.00,-1.0
3050,18080,2160,-7176,-1.00,-1.0
3051,24760,-7272,24688,-1.00,-1.0
3054,13904,3772,-7180,-1.00,-1.0
3055,9896,7040,-13600,-1.00,-1.0
3057,20292,-136,-3288,-1.00,-1.0
3059,22364,-1300,7852,-1.00,-1.0
3061,19552,-3132,-984,-1.00,-1.0
3063,12092,-624,-8584,-1.00,-1.0
3065,16920,-1300,-3976,-1.00,-1.0
3067,23052,-8488,17148,-1.00,-1.0
3069,14504,-3572,-60,-1.00,-1.0
3071,12456,2364,-4636,-1.00,-1.0
3073,17556,80,13540,-1.00,-1.0
3075,16344,980,-9432,-1.00,-1.0
3079,20364,84,5596,-1.00,-1.0
3081,15500,-1456,7796,-1.00,-1.0
3083,13592,1924,-4180,-1.00,-1.0
3085,21340,-4124,6164,-1.00,-1.0
3087,20036,-2160,5224,-1.00,-1.0
3089,11928,1292,-13672,-1.00,-1.0
3091,20560,-3388,14776,-1.00,-1.0
3093,17820,-1624,11076,-1.00,-1.0
3095,8584,3212,-10356,-1.00,-1.0
3097,17252,2628,2056,-1.00,-1.0
3099,22048,-1984,9952,-1.00,-1.0
3101,16168,1136,4652,-1.00,-1.0
3103,13184,1008,-4732,-1.00,-1.0
3105,14836,9552,-8120,-1.00,-1.0
3106,21592,-2524,3204,-1.00,-1.0
3111,12176,7756,-19620,-1.00,-1.0
3113,15532,2132,-6920,-1.00,-1.0
3115,23540,-8084,10268,-1.00,-1.0
3116,17648,-488,-4188,-1.00,-1.0
3119,15068,520,-7516,-1.00,-1.0
3120,17680,-4528,-764,-1.00,-1.0
3122,21264,-5200,10296,-1.00,-1.0
3124,15556,-1400,4752,-1.00,-1.0
3126,9784,-692,-2124,-1.00,-1.0
3128,17356,-2184,12572,-1.00,-1.0
3130,15552,4388,2956,-1.00,-1.0
3132,14320,2432,-8964,-1.00,-1.0
3134,21932,-1652,11056,-1.00,-1.0
3136,18344,5780,-3880,-1.00,-1.0
3138,14264,3244,-4860,-1.00,-1.0
3140,19064,-2596,9140,-1.00,-1.0
3144,15704,3132,-6036,-1.00,-1.0
3146,21632,-5360,3892,-1.00,-1.0
3148,19532,1984,-10180,-1.00,-1.0
3150,14080,5636,3388,-1.00,-1.0
3152,16164,-6384,-2012,-1.00,-1.0
3154,16164,-1032,3988,-1.00,-1.0
3156,18008,5776,-4092,-1.00,-1.0
3158,16592,2760,-3652,-1.00,-1.0
3160,19176,-288,192,-1.00,-1.0
3162,16640,5908,-9740,-1.00,-1.0
3164,21624,-3724,1180,-1.00,-1.0
3165,17776,-3884,-728,-1.00,-1.0
3168,14720,1744,-11068,-1.00,-1.0
3170,19676,-4584,10880,-1.00,-1.0
3171,15136,-6212,4336,-1.00,-1.0
3176,15816,-632,6956,-1.00,-1.0
3178,14716,-2576,1108,-1.00,-1.0
3180,18012,-428,9884,-1.00,-1.0
3181,16460,2868,6336,-1.00,-1.0
3183,12324,928,-768,-1.00,-1.0
3185,17000,2320,3592,-1.00,-1.0
3187,16788,7992,-7784,-1.00,-1.0
3189,23356,-1300,4068,-1.00,-1.0
3191,19916,-3732,4852,-1.00,-1.0
3193,12260,8968,-22872,-1.00,-1.0
3195,18408,1796,-8844,-1.00,-1.0
3197,24856,-11076,18484,-1.00,-1.0
3199,15756,-2172,-3388,-1.00,-1.0
3201,11700,820,-7788,-1.00,-1.0
3203,15676,-4276,2488,-1.00,-1.0
3205,21892,-5196,10644,-1.00,-1.0
3209,8552,1548,-12216,-1.00,-1.0
3211,18996,-976,16724,-1.00,-1.0
3213,17760,1756,1396,-1.00,-1.0
3215,14528,2208,852,-1.00,-1.0
3217,17396,-484,484,-1.00,-1.0
3219,16588,5388,-2328,-1.00,-1.0
3221,16276,-2284,6928,-1.00,-1.0
3223,12148,-2012,960,-1.00,-1.0
3225,15620,-912,12684,-1.00,-1.0
3227,14060,3840,1528,-1.00,-1.0
3229,11928,4024,-5928,-1.00,-1.0
3231,21756,-2584,7620,-1.00,-1.0
3233,20444,5072,-2964,-1.00,-1.0
3235,18580,948,-8092,-1.00,-1.0
3236,18792,-3728,8756,-1.00,-1.0
3238,14976,4840,-10056,-1.00,-1.0
3244,20368,-2316,4132,-1.00,-1.0
3246,17352,-1720,-532,-1.00,-1.0
3248,12840,-1140,-8152,-1.00,-1.0
3250,19652,-3280,13984,-1.00,-1.0
3252,15260,-1484,8024,-1.00,-1.0
3254,7208,3684,-6360,-1.00,-1.0
3256,17460,1532,4344,-1.00,-1.0
3258,21588,1600,4840,-1.00,-1.0
3260,16388,3708,-5472,-1.00,-1.0
3262,16744,-52,-1124,-1.00,-1.0
3264,18128,3440,-128,-1.00,-1.0
3266,18532,-24,-4432,-1.00,-1.0
3268,17688,-2988,3476,-1.00,-1.0
3270,15668,2980,-12372,-1.00,-1.0
3272,16784,2372,2800,-1.00,-1.0
3276,18256,-12,-2192,-1.00,-1.0
3278,15408,-2572,3608,-1.00,-1.0
3280,17440,5320,-14252,-1.00,-1.0
3282,21076,-1424,-264,-1.00,-1.0
3284,22244,1460,-3584,-1.00,-1.0
3286,18216,-96,-1616,-1.00,-1.0
3287,15008,2160,-9512,-1.00,-1.0
3289,17836,-2524,3092,-1.00,-1.0
3291,19672,-5972,13580,-1.00,-1.0
3293,11184,-1716,-5220,-1.00,-1.0
3295,15364,-1112,4716,-1.00,-1.0
3297,17332,-2844,10880,-1.00,-1.0
3299,14064,-984,28,-1.00,-1.0
3301,19284,-2152,11360,-1.00,-1.0
3303,15284,5320,492,-1.00,-1.0
3305,12008,5468,-3032,-1.00,-1.0
3309,18736,5900,-5704,-1.00,-1.0
3311,22364,704,-4820,-1.00,-1.0
3313,21408,-2208,-1880,-1.00,-1.0
3315,18704,1372,-5880,-1.00,-1.0
3317,18116,-3656,3276,-1.00,-1.0
3319,15540,-4196,1660,-1.00,-1.0
3321,16516,-556,2048,-1.00,-1.0
3323,15980,-1540,8980,-1.00,-1.0
3325,11912,-1012,-1160,-1.00,-1.0
3327,16796,-1256,12160,-1.00,-1.0
3329,13244,6620,-7936,-1.00,-1.0
3331,20628,-4692,7032,-1.00,-1.0
3333,16908,-4768,-560,-1.00,-1.0
3335,18972,-3032,6616,-1.00,-1.0
3336,15492,-1632,6116,-1.00,-1.0
3341,19500,3500,-10160,-1.00,-1.0
3343,19604,-4396,1532,-1.00,-1.0
3345,12992,2572,-7776,-1.00,-1.0
3347,19268,2480,5172,-1.00,-1.0
3349,18368,4868,-6464,-1.00,-1.0
3351,21928,-412,-108,-1.00,-1.0
3352,18872,324,-6348,-1.00,-1.0
3354,19372,2756,-9100,-1.00,-1.0
3356,22336,-5820,8668,-1.00,-1.0
3358,18568,-8324,16564,-1.00,-1.0
3360,11480,-544,-3940,-1.00,-1.0
3362,12396,2476,4592,-1.00,-1.0
3364,14636,-3808,9904,-1.00,-1.0
3366,13896,2604,6172,-1.00,-1.0
3368,10252,12740,-15780,-1.00,-1.0
3370,19288,1852,-8740,-1.00,-1.0
3374,19700,5452,-16340,-1.00,-1.0
3376,18748,-2716,-3044,-1.00,-1.0
3378,19300,-6304,7460,-1.00,-1.0
3380,17264,-3960,6380,-1.00,-1.0
3382,12716,288,-2244,-1.00,-1.0
3384,11824,-2932,7760,-1.00,-1.0
3386,16196,-2944,18216,-1.00,-1.0
3388,9480,8864,-7360,-1.00,-1.0
3390,10652,11148,-22136,-1.00,-1.0
3392,27136,-1248,3748,-1.00,-1.0
3394,26836,44,-432,-1.00,-1.0
3396,10144,3968,5944,-1.00,-1.0
3398,14004,-2292,10132,-1.00,-1.0
3400,16712,5728,2324,-1.00,-1.0
3401,15876,12024,-18364,-1.00,-1.0
3406,13168,64,9704,-1.00,-1.0
3408,13352,4192,2684,-1.00,-1.0
3410,18064,-2508,-5272,-1.00,-1.0
3411,19000,-10264,5652,-1.00,-1.0
3414,19812,-7976,22248,-1.00,-1.0
3415,8252,-3760,8396,-1.00,-1.0
3417,704,4260,668,-1.00,-1.0
3419,14460,2408,932,-1.00,-1.0
3421,19932,10092,-7304,-1.00,-1.0
3423,19604,5876,-20604,-1.00,-1.0
3425,28900,-2488,3284,-1.00,-1.0
3427,27620,-5704,1932,-1.00,-1.0
3429,18376,-6500,2896,-1.00,-1.0
3431,13408,-7440,8600,-1.00,-1.0
3433,14040,-5940,18080,-1.00,-1.0
3435,7948,1016,9524,-1.00,-1.0
3439,13548,5220,-2852,-1.00,-1.0
3441,22480,3924,-6616,-1.00,-1.0
3443,26428,596,-17388,-1.00,-1.0
3445,32032,-6868,5184,-1.00,-1.0
3447,25408,-4836,6120,-1.00,-1.0
3449,12728,-5016,16488,-1.00,-1.0
3451,3256,-1340,3716,-1.00,-1.0
3453,6380,6344,4660,-1.00,-1.0
3455,11496,7288,-9048,-1.00,-1.0
3457,20348,1592,-8288,-1.00,-1.0
3459,28376,-2912,5552,-1.00,-1.0
3461,10104,952,11352,-1.00,-1.0
3463,21308,-4356,1496,-1.00,-1.0
3465,16324,-6408,10284,-1.00,-1.0
3466,22508,348,-1196,-1.00,-1.0
3468,26472,4556,-17468,-1.00,-1.0
3473,19224,1928,-900,-1.00,-1.0
3475,27572,2172,-14156,-1.00,-1.0
3476,1712,2568,1376,-1.00,-1.0
3478,5496,2820,-1376,-1.00,-1.0
3480,18116,1376,1196,-1.00,-1.0
3482,23696,6732,-24032,-1.00,-1.0
3484,30892,-5176,3380,-1.00,-1.0
3486,25188,-8500,12012,-1.00,-1.0
3488,11296,3296,1284,-1.00,-1.0
3490,5344,1464,6260,-1.00,-1.0
3492,7064,1300,6600,-1.00,-1.0
3494,14372,1464,3788,-1.00,-1.0
3496,20184,6716,-18780,-1.00,-1.0
3498,29312,-2524,-3052,-1.00,-1.0
3500,29508,-8076,9680,-1.00,-1.0
3504,5104,2264,4532,-1.00,-1.0
3506,3760,3056,4364,-1.00,-1.0
3508,12776,828,11984,-1.00,-1.0
3510,17564,6072,-13880,-1.00,-1.0
3512,24352,2508,-15904,-1.00,-1.0
3514,31924,-4608,3672,-1.00,-1.0
3516,26176,-4216,9568,-1.00,-1.0
3518,8580,232,4776,-1.00,-1.0
3520,1820,2780,-628,-1.00,-1.0
3522,11252,-1808,13764,-1.00,-1.0
3523,22656,-804,240,-1.00,-1.0
3525,14420,-3652,15184,-1.00,-1.0
3527,4024,872,7392,-1.00,-1.0
3529,8356,1692,9348,-1.00,-1.0
3531,13600,3980,-4360,-1.00,-1.0
3533,19744,3704,-13284,-1.00,-1.0
3537,31528,-3820,6472,-1.00,-1.0
3539,18708,-6328,18416,-1.00,-1.0
3541,-100,-408,4924,-1.00,-1.0
3543,4368,1908,6668,-1.00,-1.0
3545,13784,4468,-8040,-1.00,-1.0
3547,23096,3064,-12824,-1.00,-1.0
3549,31236,-3248,2356,-1.00,-1.0
3551,26304,-2092,-4356,-1.00,-1.0
3553,15668,-704,1740,-1.00,-1.0
3555,9284,-3824,14136,-1.00,-1.0
3557,8572,-2548,20228,-1.00,-1.0
3559,5856,5152,-4064,-1.00,-1.0
3561,12452,7844,-19536,-1.00,-1.0
3563,31296,-720,-4064,-1.00,-1.0
3565,32767,-1736,-3644,-1.00,-1.0
3567,22168,-3816,7260,-1.00,-1.0
3571,7416,-1960,15500,-1.00,-1.0
3573,7192,1700,3188,-1.00,-1.0
3575,11376,4364,-9228,-1.00,-1.0
3577,24304,-64,-2120,-1.00,-1.0
3579,28736,1724,-14368,-1.00,-1.0
3581,23996,2028,-13132,-1.00,-1.0
3582,20080,-3872,4232,-1.00,-1.0
3584,15928,4856,-7932,-1.00,-1.0
3586,25172,5436,-17484,-1.00,-1.0
3588,30312,-2520,-492,-1.00,-1.0
3590,23404,-472,-2020,-1.00,-1.0
3592,16940,-596,2156,-1.00,-1.0
3594,12032,-6284,24584,-1.00,-1.0
3596,4132,-1212,7768,-1.00,-1.0
3598,7120,4436,100,-1.00,-1.0
3600,17892,5728,-13920,-1.00,-1.0
3604,27304,-96,-10568,-1.00,-1.0
3606,23348,1724,-6344,-1.00,-1.0
3608,19132,-6892,12188,-1.00,-1.0
3610,10384,-5092,13920,-1.00,-1.0
3612,6268,1392,3788,-1.00,-1.0
3614,9048,2764,3172,-1.00,-1.0
3616,15040,1192,-3464,-1.00,-1.0
3618,22008,220,316,-1.00,-1.0
3620,23416,4816,-12164,-1.00,-1.0
3622,24372,-2612,-2208,-1.00,-1.0
3624,19340,1000,-4760,-1.00,-1.0
3626,18084,-2504,8392,-1.00,-1.0
3628,14436,-6424,23212,-1.00,-1.0
3630,2996,-164,-372,-1.00,-1.0
3632,10796,2244,316,-1.00,-1.0
3636,21252,-1604,1512,-1.00,-1.0
3638,19808,1788,-7120,-1.00,-1.0
3640,19668,9584,-22900,-1.00,-1.0
3642,27592,-4296,9452,-1.00,-1.0
3644,20184,-6956,8076,-1.00,-1.0
3646,14280,-1248,10068,-1.00,-1.0
3647,7928,-36,6296,-1.00,-1.0
3649,24732,1376,-7784,-1.00,-1.0
3651,23956,-4552,3712,-1.00,-1.0
3653,18340,-1248,4888,-1.00,-1.0
3655,13476,-2392,7592,-1.00,-1.0
3657,9236,-3252,8168,-1.00,-1.0
3659,12516,-360,10924,-1.00,-1.0
3661,13892,2544,6984,-1.00,-1.0
3663,11600,7328,-20332,-1.00,-1.0
3665,21548,1984,-4200,-1.00,-1.0
3669,24700,-2816,-2376,-1.00,-1.0
3671,19832,-4880,-1080,-1.00,-1.0
3673,17224,-5076,10296,-1.00,-1.0
3675,12868,-7656,19216,-1.00,-1.0
3677,5624,-1804,-1304,-1.00,-1.0
3679,11288,7180,-8032,-1.00,-1.0
3681,22596,-720,16316,-1.00,-1.0
3683,17748,-4416,3256,-1.00,-1.0
3685,13904,6148,-9700,-1.00,-1.0
3687,16668,9196,-21188,-1.00,-1.0
3689,27604,-2344,6012,-1.00,-1.0
3691,23540,-9200,10144,-1.00,-1.0
3693,11164,8548,-24924,-1.00,-1.0
3695,17436,-48,3740,-1.00,-1.0
3696,21848,-15448,31096,-1.00,-1.0
3701,7468,6560,-6248,-1.00,-1.0
3703,16868,-2388,5348,-1.00,-1.0
3705,21484,-4836,15484,-1.00,-1.0
3706,13712,10740,-21168,-1.00,-1.0
3709,16792,7836,-23524,-1.00,-1.0
3710,30896,-13848,25516,-1.00,-1.0
3712,19168,460,-4264,-1.00,-1.0
3714,21180,784,14380,-1.00,-1.0
3716,19032,-4484,9472,-1.00,-1.0
3718,14824,4124,-6692,-1.00,-1.0
3720,15304,9780,-10836,-1.00,-1.0
3722,19464,300,-2752,-1.00,-1.0
3724,21668,-4584,3200,-1.00,-1.0
3726,17384,7608,-21488,-1.00,-1.0
3728,20496,-772,-6556,-1.00,-1.0
3732,15072,-3020,3804,-1.00,-1.0
3734,8148,4376,-1624,-1.00,-1.0
3736,11292,-2460,2324,-1.00,-1.0
3738,19228,-3284,11932,-1.00,-1.0
3740,17356,1600,10252,-1.00,-1.0
3742,10068,4308,-14676,-1.00,-1.0
3744,17852,1636,2480,-1.00,-1.0
3746,23144,-404,10132,-1.00,-1.0
3748,16916,2776,-7664,-1.00,-1.0
3750,16480,528,-9196,-1.00,-1.0
3752,20720,3720,-5584,-1.00,-1.0
3754,22364,-1108,-3980,-1.00,-1.0
3756,21740,-6700,8004,-1.00,-1.0
3758,14212,2356,-9104,-1.00,-1.0
3759,15408,-3096,12696,-1.00,-1.0
3761,12916,-496,3276,-1.00,-1.0
3765,13252,1136,11584,-1.00,-1.0
3767,7896,2992,-6648,-1.00,-1.0
3769,17448,3236,-8956,-1.00,-1.0
3771,13032,-12,6000,-1.00,-1.0
3773,7692,2956,-6888,-1.00,-1.0
3775,15136,-2988,5468,-1.00,-1.0
3777,22796,-6068,15288,-1.00,-1.0
3779,16312,-2492,16776,-1.00,-1.0
3781,7120,4716,-11764,-1.00,-1.0
3783,16920,3452,792,-1.00,-1.0
3785,21708,2252,12160,-1.00,-1.0
3787,17272,-2964,6728,-1.00,-1.0
3789,15384,1872,-6548,-1.00,-1.0
3791,15112,10664,-16612,-1.00,-1.0
3793,24124,-2104,2932,-1.00,-1.0
3795,21328,-5036,8512,-1.00,-1.0
3799,20340,2332,-1348,-1.00,-1.0
3801,22896,-14964,17388,-1.00,-1.0
3803,12168,2772,-6240,-1.00,-1.0
3805,13044,2076,-3488,-1.00,-1.0
3807,17720,-6528,9724,-1.00,-1.0
3809,18288,-4152,5288,-1.00,-1.0
3810,15604,-1728,16212,-1.00,-1.0
3812,9368,-1408,-5120,-1.00,-1.0
3814,16776,-212,11684,-1.00,-1.0
3816,17020,6356,-2432,-1.00,-1.0
3818,17880,2280,-1612,-1.00,-1.0
3820,21360,-3784,48,-1.00,-1.0
3822,17940,9116,-8088,-1.00,-1.0
3824,17136,-4920,16144,-1.00,-1.0
3826,11552,740,-2220,-1.00,-1.0
3830,16072,3192,-5888,-1.00,-1.0
3832,19772,-10136,5672,-1.00,-1.0
3834,15328,3312,-3248,-1.00,-1.0
3836,18304,8624,-8844,-1.00,-1.0
3838,21800,1476,-5240,-1.00,-1.0
3840,23204,-7900,12032,-1.00,-1.0
3842,15384,4636,-4792,-1.00,-1.0
3844,12420,4484,-16132,-1.00,-1.0
3846,19388,-5236,4224,-1.00,-1.0
3848,20452,-3252,528,-1.00,-1.0
3850,18340,-8,1156,-1.00,-1.0
3852,12324,-2648,-11360,-1.00,-1.0
3854,16280,-2568,2064,-1.00,-1.0
3856,21256,-7444,24324,-1.00,-1.0
3858,9100,-2732,1188,-1.00,-1.0
3859,12200,3088,-2224,-1.00,-1.0
3864,19328,-268,2336,-1.00,-1.0
3866,18632,748,2232,-1.00,-1.0
3868,16192,9024,-5472,-1.00,-1.0
3870,16600,5136,-7832,-1.00,-1.0
3872,21760,-7988,17096,-1.00,-1.0
3874,15668,5304,-8460,-1.00,-1.0
3875,13004,8108,-20012,-1.00,-1.0
3878,22272,-4928,1844,-1.00,-1.0
3879,22744,-5028,7696,-1.00,-1.0
3881,16988,-56,-5444,-1.00,-1.0
3883,13396,-6248,-2828,-1.00,-1.0
3885,15056,-1708,-3376,-1.00,-1.0
3887,19320,-6980,15704,-1.00,-1.0
3889,14076,7720,-18476,-1.00,-1.0
3891,21968,-2256,7788,-1.00,-1.0
3895,18244,-1856,12640,-1.00,-1.0
3897,18472,-1904,10044,-1.00,-1.0
3899,13224,8544,-3824,-1.00,-1.0
3901,20324,-6552,8312,-1.00,-1.0
3903,15812,-5672,4636,-1.00,-1.0
3905,9916,3232,-13764,-1.00,-1.0
3907,17224,-852,6568,-1.00,-1.0
3909,21752,-10016,18236,-1.00,-1.0
3911,14856,-3216,8816,-1.00,-1.0
3913,11412,5120,-5428,-1.00,-1.0
3915,14852,4152,-116,-1.00,-1.0
3917,24616,-3404,17732,-1.00,-1.0
3919,19556,3128,9380,-1.00,-1.0
3921,10224,9972,-18024,-1.00,-1.0
3923,16808,1712,228,-1.00,-1.0
3927,15540,5784,-11124,-1.00,-1.0
3929,17096,-2028,5676,-1.00,-1.0
3931,13796,7180,-16092,-1.00,-1.0
3933,16112,3688,-8768,-1.00,-1.0
3935,24264,-8028,744,-1.00,-1.0
3937,19428,292,-1516,-1.00,-1.0
3939,15984,-1936,-12728,-1.00,-1.0
3940,18900,-8436,11300,-1.00,-1.0
3943,14348,72,-5428,-1.00,-1.0
3944,15700,-2440,8016,-1.00,-1.0
3946,16456,-3980,-816,-1.00,-1.0
3948,17568,-372,4132,-1.00,-1.0
3950,17400,-1196,4716,-1.00,-1.0
3952,15860,-3164,6696,-1.00,-1.0
3954,17444,-1312,12304,-1.00,-1.0
3956,18356,3664,-8752,-1.00,-1.0
3960,22740,-2920,13040,-1.00,-1.0
3962,20160,4320,7628,-1.00,-1.0
3964,11536,5496,-11076,-1.00,-1.0
3966,21340,-11008,8468,-1.00,-1.0
3968,17732,8612,-9616,-1.00,-1.0
3970,15240,-4464,8708,-1.00,-1.0
3972,11372,340,-2536,-1.00,-1.0
3974,17000,1252,5956,-1.00,-1.0
3976,21088,380,17036,-1.00,-1.0
3978,12800,4136,-7148,-1.00,-1.0
3980,16472,4252,4924,-1.00,-1.0
3982,20192,3956,11676,-1.00,-1.0
3984,11704,7716,-15756,-1.00,-1.0
3986,19044,256,8748,-1.00,-1.0
3988,18648,8908,-14912,-1.00,-1.0
3990,17284,5168,-12556,-1.00,-1.0
3994,17268,3876,-9808,-1.00,-1.0
3996,15312,-740,-9048,-1.00,-1.0
3998,18948,-10276,9688,-1.00,-1.0
4000,12900,3596,-12260,-1.00,-1.0
4002,16580,-3680,472,-1.00,-1.0
4004,19664,-8812,3792,-1.00,-1.0
4005,16984,-672,228,-1.00,-1.0
4008,16976,-5068,5424,-1.00,-1.0
4010,12896,-2148,-20,-1.00,-1.0
4011,15628,-3740,8760,-1.00,-1.0
4013,20128,-4516,19784,-1.00,-1.0
4015,11160,3232,-5908,-1.00,-1.0
4017,18148,2128,352,-1.00,-1.0
4019,25692,-2452,21736,-1.00,-1.0
4021,12560,4872,-9284,-1.00,-1.0
4025,20256,4764,3420,-1.00,-1.0
4027,18516,2644,-6664,-1.00,-1.0
4029,21068,-3132,5044,-1.00,-1.0
4031,15124,1812,-492,-1.00,-1.0
4033,19928,-1968,15160,-1.00,-1.0
4035,19040,-7152,11512,-1.00,-1.0
4037,14632,4108,1192,-1.00,-1.0
4039,14024,5736,-3104,-1.00,-1.0
4041,17756,1672,3584,-1.00,-1.0
4043,21656,-1476,15004,-1.00,-1.0
4045,15360,6948,-580,-1.00,-1.0
4047,10464,7396,-18644,-1.00,-1.0
4049,21688,-680,12024,-1.00,-1.0
4051,19620,4916,-4240,-1.00,-1.0
4052,14428,5244,-14228,-1.00,-1.0
4054,20644,-5696,3968,-1.00,-1.0
4059,11828,1724,-14196,-1.00,-1.0
4061,18540,-6376,6116,-1.00,-1.0
4062,17600,1424,-8844,-1.00,-1.0
4065,15660,1620,-11152,-1.00,-1.0
4067,18072,-6256,-96,-1.00,-1.0
4068,20168,-4532,14304,-1.00,-1.0
4070,14136,-1908,-5220,-1.00,-1.0
4072,14128,-3104,2228,-1.00,-1.0
4074,17432,-280,728,-1.00,-1.0
4076,20876,-4648,16580,-1.00,-1.0
4078,16288,-2856,2148,-1.00,-1.0
4080,14788,2756,1752,-1.00,-1.0
4082,17740,2344,6460,-1.00,-1.0
4084,17232,-1340,3868,-1.00,-1.0
4086,16428,-6348,144,-1.00,-1.0
4090,13536,2936,-5876,-1.00,-1.0
4092,16312,2500,1140,-1.00,-1.0
4094,14868,3200,-10536,-1.00,-1.0
4096,16512,-724,-6760,-1.00,-1.0
4098,23860,-10308,17784,-1.00,-1.0
4100,15720,-404,3400,-1.00,-1.0
4102,11568,980,384,-1.00,-1.0
4104,15276,-2168,1116,-1.00,-1.0
4106,19776,-812,11200,-1.00,-1.0
4108,20032,-652,10624,-1.00,-1.0
4110,15724,-1604,-1148,-1.00,-1.0
4112,15284,5976,-3836,-1.00,-1.0
4114,21996,-740,10880,-1.00,-1.0
4116,18260,-2756,4640,-1.00,-1.0
4117,15300,1500,740,-1.00,-1.0
4119,18548,1360,6864,-1.00,-1.0
4124,18704,-3804,17320,-1.00,-1.0
4126,15828,588,5136,-1.00,-1.0
4127,9984,5064,-11248,-1.00,-1.0
4129,18892,184,2840,-1.00,-1.0
4131,24772,-228,15032,-1.00,-1.0
4133,15008,1856,-10508,-1.00,-1.0
4135,15140,440,3076,-1.00,-1.0
4137,17000,3492,4404,-1.00,-1.0
4139,14872,2168,-6492,-1.00,-1.0
4141,16584,-1072,6508,-1.00,-1.0
4143,15988,3824,848,-1.00,-1.0
4145,20268,-2128,3516,-1.00,-1.0
4147,19556,-6904,9688,-1.00,-1.0
4149,13220,3312,-304,-1.00,-1.0
4151,15676,776,2344,-1.00,-1.0
4153,19240,-4836,6192,-1.00,-1.0
4157,22208,-3624,14616,-1.00,-1.0
4159,16684,-3664,-1136,-1.00,-1.0
4161,13484,4772,-728,-1.00,-1.0
4163,19380,-292,9784,-1.00,-1.0
4165,17932,-2760,-820,-1.00,-1.0
4167,17036,-84,5168,-1.00,-1.0
4169,21668,-3128,11160,-1.00,-1.0
4171,16264,-2836,2356,-1.00,-1.0
4173,13232,3896,-2912,-1.00,-1.0
4175,20700,-688,9936,-1.00,-1.0
4176,17312,-1264,628,-1.00,-1.0
4178,16872,-2424,14952,-1.00,-1.0
4180,16172,2768,4304,-1.00,-1.0
4182,13616,1392,-9764,-1.00,-1.0
4184,19900,1184,5572,-1.00,-1.0
4188,18308,-3848,1316,-1.00,-1.0
4190,12512,3588,-3012,-1.00,-1.0
4192,17028,432,10520,-1.00,-1.0
4194,16128,-1708,-7148,-1.00,-1.0
4196,18644,-1368,16260,-1.00,-1.0
4198,18276,-1048,4476,-1.00,-1.0
4200,14448,-616,-3408,-1.00,-1.0
4202,15416,1800,1920,-1.00,-1.0
4204,22180,-596,10280,-1.00,-1.0
4206,18512,-4068,2092,-1.00,-1.0
4208,14436,2108,-124,-1.00,-1.0
4210,16192,4560,-1952,-1.00,-1.0
4212,16392,336,-8144,-1.00,-1.0
4214,17152,-1464,1024,-1.00,-1.0
4216,17176,2572,828,-1.00,-1.0
4218,17088,304,-8996,-1.00,-1.0
4222,17892,-1724,13692,-1.00,-1.0
4224,16260,-2216,-6792,-1.00,-1.0
4226,14812,516,-5904,-1.00,-1.0
4228,18168,2928,-1216,-1.00,-1.0
4230,18872,-1088,-528,-1.00,-1.0
4232,14852,-500,-1492,-1.00,-1.0
4234,14292,4608,-2724,-1.00,-1.0
4235,16988,2988,-9700,-1.00,-1.0
4238,20096,-5452,11148,-1.00,-1.0
4239,14656,6440,-2880,-1.00,-1.0
4241,12940,4352,-16544,-1.00,-1.0
4243,18468,-812,3108,-1.00,-1.0
4245,19912,-1200,13000,-1.00,-1.0
4247,13628,712,-10692,-1.00,-1.0
4249,12176,3460,-11320,-1.00,-1.0
4255,14684,360,1248,-1.00,-1.0
4257,12352,6160,-9804,-1.00,-1.0
4259,20288,-3032,7864,-1.00,-1.0
4261,14964,-1792,-7000,-1.00,-1.0
4263,13144,5480,-5436,-1.00,-1.0
4265,23488,-3128,6104,-1.00,-1.0
4267,20244,-4892,956,-1.00,-1.0
4269,11492,5972,-9472,-1.00,-1.0
4271,19108,-2664,4048,-1.00,-1.0
4273,17808,-3448,-3212,-1.00,-1.0
4274,14704,1424,-3036,-1.00,-1.0
4276,19760,-3480,3652,-1.00,-1.0
4278,16940,-4756,908,-1.00,-1.0
4280,10568,7012,-12044,-1.00,-1.0
4282,19636,-1420,-1444,-1.00,-1.0
4284,21668,-5044,3460,-1.00,-1.0
4290,16020,-1936,-2052,-1.00,-1.0
4292,12796,4380,-9272,-1.00,-1.0
4294,21656,-2316,-608,-1.00,-1.0
4296,11536,3388,-8212,-1.00,-1.0
4298,16428,-656,8284,-1.00,-1.0
4300,20456,852,7720,-1.00,-1.0
4302,16724,716,-11532,-1.00,-1.0
4304,20684,-2684,6108,-1.00,-1.0
4306,21792,-4792,20780,-1.00,-1.0
4308,9592,1264,-11764,-1.00,-1.0
4309,13936,1148,5972,-1.00,-1.0
4312,21292,-1480,12436,-1.00,-1.0
4314,13676,3052,-18264,-1.00,-1.0
4315,20216,-3064,9112,-1.00,-1.0
4317,24916,-7836,20868,-1.00,-1.0
4322,10720,4076,-5164,-1.00,-1.0
4324,25976,-9316,26592,-1.00,-1.0
4326,14116,2700,-14144,-1.00,-1.0
4327,13732,3640,-4716,-1.00,-1.0
4330,26756,-6696,21748,-1.00,-1.0
4332,14092,440,-11224,-1.00,-1.0
4333,13068,4548,-11196,-1.00,-1.0
4335,25236,-9056,25184,-1.00,-1.0
4337,16400,-8400,6876,-1.00,-1.0
4339,7632,6152,-10364,-1.00,-1.0
4341,19396,-3652,6520,-1.00,-1.0
4343,19284,-1772,-10612,-1.00,-1.0
4345,19168,1456,-2832,-1.00,-1.0
4347,25028,-10980,24568,-1.00,-1.0
4349,11048,-1652,-10352,-1.00,-1.0
4353,24996,-9416,22788,-1.00,-1.0
4355,17376,-4232,1084,-1.00,-1.0
4357,8344,10908,-26300,-1.00,-1.0
4359,27924,-6984,21216,-1.00,-1.0
4361,22412,-7024,2464,-1.00,-1.0
4363,10396,6180,-9260,-1.00,-1.0
4365,19752,-7128,12556,-1.00,-1.0
4367,15756,-1256,-5328,-1.00,-1.0
4369,14572,1240,1144,-1.00,-1.0
4371,21660,-3748,7556,-1.00,-1.0
4373,15772,256,-2420,-1.00,-1.0
4375,21080,-4992,12456,-1.00,-1.0
4377,13804,9288,-5560,-1.00,-1.0
4379,13168,5292,-17264,-1.00,-1.0
4381,23176,-4400,15996,-1.00,-1.0
4382,15252,6152,-10804,-1.00,-1.0
4387,21400,-6456,15260,-1.00,-1.0
4389,11652,8536,-6644,-1.00,-1.0
4391,12216,2672,-7220,-1.00,-1.0
4392,20964,-5736,12332,-1.00,-1.0
4394,13552,9060,-8420,-1.00,-1.0
4396,14984,6624,-22276,-1.00,-1.0
4398,26204,-6852,14572,-1.00,-1.0
4400,16668,5332,-5360,-1.00,-1.0
4402,13856,704,-9324,-1.00,-1.0
4404,16988,-360,-480,-1.00,-1.0
4406,13144,9316,-17492,-1.00,-1.0
4408,22920,-3732,5556,-1.00,-1.0
4410,19420,-7532,9496,-1.00,-1.0
4412,6388,13012,-21080,-1.00,-1.0
4414,17544,-440,-5904,-1.00,-1.0
4418,10492,12076,-25736,-1.00,-1.0
4420,18916,1052,-9188,-1.00,-1.0
4422,23080,-3848,-2816,-1.00,-1.0
4424,16236,5596,-18120,-1.00,-1.0
4426,23068,-6764,8876,-1.00,-1.0
4428,14800,-8628,3708,-1.00,-1.0
4430,4840,10936,-23428,-1.00,-1.0
4432,20204,-4860,-332,-1.00,-1.0
4434,25500,-9444,9128,-1.00,-1.0
4436,13144,2960,-11096,-1.00,-1.0
4438,19488,4300,7112,-1.00,-1.0
4440,15096,6472,-13144,-1.00,-1.0
4442,23012,-7108,27096,-1.00,-1.0
4444,12768,7244,-6956,-1.00,-1.0
4446,8228,9628,-18216,-1.00,-1.0
4450,26928,-10164,27776,-1.00,-1.0
4452,13912,-6384,3092,-1.00,-1.0
4454,29028,-10852,25692,-1.00,-1.0
4456,16396,7692,-64,-1.00,-1.0
4458,6264,8900,-27696,-1.00,-1.0
4460,20212,-1812,9196,-1.00,-1.0
4461,19300,5504,-2656,-1.00,-1.0
4463,19244,-3980,3112,-1.00,-1.0
4465,18692,-8420,15868,-1.00,-1.0
4467,3848,15736,-32768,-1.00,-1.0
4469,17680,7284,-18204,-1.00,-1.0
4471,31784,-12240,20188,-1.00,-1.0
4473,15028,7360,-11768,-1.00,-1.0
4475,12012,-1548,-10904,-1.00,-1.0
4477,18020,-5652,4648,-1.00,-1.0
4479,11948,8608,-22708,-1.00,-1.0
4483,21376,-13856,12064,-1.00,-1.0
4485,6160,12628,-30520,-1.00,-1.0
4487,18796,-1852,-5668,-1.00,-1.0
4489,27808,-13148,18852,-1.00,-1.0
4491,15276,-1184,2204,-1.00,-1.0
4493,13432,-4372,-432,-1.00,-1.0
4495,11652,-1128,-6544,-1.00,-1.0
4497,17328,2456,-12172,-1.00,-1.0
4499,30320,-10236,23348,-1.00,-1.0
4501,17228,-6480,-2200,-1.00,-1.0
4503,9924,5876,-13360,-1.00,-1.0
4505,23036,-7096,21924,-1.00,-1.0
4507,16608,-7956,9636,-1.00,-1.0
4509,23844,-5052,8668,-1.00,-1.0
4510,18000,5652,2832,-1.00,-1.0
4515,14976,2876,-3492,-1.00,-1.0
4517,21188,-5924,17468,-1.00,-1.0
4519,14504,3664,-13824,-1.00,-1.0
4521,20516,-4908,6876,-1.00,-1.0
4523,15988,3704,-1204,-1.00,-1.0
4525,15464,-712,-5336,-1.00,-1.0
4526,18524,-5272,-108,-1.00,-1.0
4528,15216,7972,-16756,-1.00,-1.0
4530,21300,-4240,-776,-1.00,-1.0
4532,20440,-6064,6936,-1.00,-1.0
4534,10184,8200,-22844,-1.00,-1.0
4536,21660,-4168,7656,-1.00,-1.0
4538,19384,-11220,12584,-1.00,-1.0
4540,7524,10224,-21812,-1.00,-1.0
4542,19612,-3844,1136,-1.00,-1.0
4546,12404,6908,-21368,-1.00,-1.0
4548,21752,-5564,744,-1.00,-1.0
4550,22072,-11804,15200,-1.00,-1.0
4552,9108,3700,-11548,-1.00,-1.0
4554,16788,-5436,9092,-1.00,-1.0
4556,16864,-4408,-3364,-1.00,-1.0
4558,16164,4504,-6860,-1.00,-1.0
4560,23916,-4988,10012,-1.00,-1.0
4562,17076,-4868,-496,-1.00,-1.0
4564,11300,6544,-17452,-1.00,-1.0
4566,24732,-6352,13668,-1.00,-1.0
4568,9360,5832,-19308,-1.00,-1.0
4570,21556,-2208,13604,-1.00,-1.0
4572,18464,7004,788,-1.00,-1.0
4573,14192,3480,-8204,-1.00,-1.0
4578,9448,10772,-12244,-1.00,-1.0
4579,12984,6624,-16472,-1.00,-1.0
4581,28004,-8624,20280,-1.00,-1.0
4583,16672,8872,-800,-1.00,-1.0
4585,10588,4032,-18028,-1.00,-1.0
4587,20216,-712,8184,-1.00,-1.0
4589,16156,8248,-3536,-1.00,-1.0
4591,17124,276,-6164,-1.00,-1.0
4593,20576,-5568,17608,-1.00,-1.0
4595,8252,13560,-25324,-1.00,-1.0
4597,16060,4392,-6776,-1.00,-1.0
4599,26452,-13836,30540,-1.00,-1.0
4601,6396,14480,-23736,-1.00,-1.0
4603,11068,7896,-26876,-1.00,-1.0
4605,32767,-16176,32767,-1.00,-1.0
4607,14672,7928,-5120,-1.00,-1.0
4611,22904,-7952,18628,-1.00,-1.0
4613,16812,5524,380,-1.00,-1.0
4615,16184,-1400,-2848,-1.00,-1.0
4617,20768,-6840,18928,-1.00,-1.0
4619,5004,17236,-32768,-1.00,-1.0
4621,17352,8664,-16852,-1.00,-1.0
4623,32767,-14420,28640,-1.00,-1.0
4625,13504,3664,7292,-1.00,-1.0
4627,2720,3368,-20880,-1.00,-1.0
4629,17872,-4556,8016,-1.00,-1.0
4631,16048,8284,-15804,-1.00,-1.0
4633,23292,-2532,1756,-1.00,-1.0
4635,23024,-10956,14360,-1.00,-1.0
4637,7000,12156,-19252,-1.00,-1.0
4638,28220,-8944,29492,-1.00,-1.0
4643,17416,108,12180,-1.00,-1.0
4645,8684,-412,-15880,-1.00,-1.0
4647,23388,-4484,1364,-1.00,-1.0
4648,15564,444,1940,-1.00,-1.0
4650,18588,-5852,17592,-1.00,-1.0
4652,10820,872,-10780,-1.00,-1.0
4654,14196,2496,1072,-1.00,-1.0
4656,22988,-1152,5548,-1.00,-1.0
4658,21160,-4288,2384,-1.00,-1.0
4660,15432,2380,-2068,-1.00,-1.0
4662,18392,-4380,12624,-1.00,-1.0
4664,14724,-1976,-6428,-1.00,-1.0
4666,13524,6420,-6132,-1.00,-1.0
4668,23476,-6700,14428,-1.00,-1.0
4670,18912,-5096,336,-1.00,-1.0
4672,12080,2820,-788,-1.00,-1.0
4676,17592,-1012,-10588,-1.00,-1.0
4678,18192,4132,-5740,-1.00,-1.0
4680,24780,-9680,17536,-1.00,-1.0
4682,16000,-6168,2376,-1.00,-1.0
4684,7932,5652,-10460,-1.00,-1.0
4686,18448,-1132,2572,-1.00,-1.0
4688,21300,-8680,5596,-1.00,-1.0
4690,15940,0,-704,-1.00,-1.0
4692,17976,-2048,3724,-1.00,-1.0
4694,14568,-1984,-12520,-1.00,-1.0
4696,17160,1444,-2432,-1.00,-1.0
4698,26596,-10572,18284,-1.00,-1.0
4700,16044,-5424,420,-1.00,-1.0
4702,6800,7092,-12404,-1.00,-1.0
4703,19724,3164,6560,-1.00,-1.0
4708,18128,1456,904,-1.00,-1.0
4710,24068,-7256,12032,-1.00,-1.0
4711,13456,-160,-11792,-1.00,-1.0
4713,23720,-6080,19788,-1.00,-1.0
4715,13092,7392,-460,-1.00,-1.0
4717,11148,4628,-16560,-1.00,-1.0
4719,23676,-3436,14816,-1.00,-1.0
4721,19568,5064,5648,-1.00,-1.0
4723,12076,3944,-15852,-1.00,-1.0
4725,20688,-6196,21404,-1.00,-1.0
4727,13956,3964,4948,-1.00,-1.0
4729,10444,3628,-10852,-1.00,-1.0
4731,21904,-4676,19156,-1.00,-1.0
4733,15460,7920,1744,-1.00,-1.0
4735,10812,7192,-23276,-1.00,-1.0
4739,21088,2188,14004,-1.00,-1.0
4741,6420,8356,-24620,-1.00,-1.0
4743,19212,-2528,19344,-1.00,-1.0
4745,19016,3828,7656,-1.00,-1.0
4747,9080,11308,-26592,-1.00,-1.0
4749,25596,-8504,26356,-1.00,-1.0
4751,16312,4520,720,-1.00,-1.0
4753,6532,9284,-26324,-1.00,-1.0
4755,25628,-10608,26396,-1.00,-1.0
4757,18912,1272,15056,-1.00,-1.0
4759,2760,11748,-32768,-1.00,-1.0
4761,22084,-2820,14900,-1.00,-1.0
4763,23992,-1344,16960,-1.00,-1.0
4765,10132,4016,-17096,-1.00,-1.0
4766,20760,-8136,27148,-1.00,-1.0
4768,12140,8040,-17792,-1.00,-1.0
4773,24144,-4732,9552,-1.00,-1.0
4775,21940,632,17724,-1.00,-1.0
4776,7776,5156,-22864,-1.00,-1.0
4778,22376,-3688,2348,-1.00,-1.0
4780,12360,10944,-24472,-1.00,-1.0
4782,28020,-10220,27704,-1.00,-1.0
4784,16520,-9316,3792,-1.00,-1.0
4786,4608,12272,-21068,-1.00,-1.0
4788,21392,-7476,13716,-1.00,-1.0
4790,21988,-9320,8688,-1.00,-1.0
4792,12336,5332,-9704,-1.00,-1.0
4794,20684,-8404,8588,-1.00,-1.0
4796,18752,-6744,6968,-1.00,-1.0
4798,12728,2448,-4452,-1.00,-1.0
4800,20560,-5760,16228,-1.00,-1.0
4804,14484,3644,-2224,-1.00,-1.0
4806,24844,-5708,20964,-1.00,-1.0
4808,14092,-2504,-72,-1.00,-1.0
4810,9568,8616,-17128,-1.00,-1.0
4812,26256,-6492,21096,-1.00,-1.0
4814,21056,-6768,3584,-1.00,-1.0
4816,12032,4228,-2448,-1.00,-1.0
4818,18800,-6028,14176,-1.00,-1.0
4820,13580,76,-5892,-1.00,-1.0
4822,16748,-480,8000,-1.00,-1.0
4823,21964,-2204,10264,-1.00,-1.0
4825,16104,-884,-2980,-1.00,-1.0
4827,14596,4572,924,-1.00,-1.0
4829,14664,7344,-11284,-1.00,-1.0
4831,16196,-400,-14940,-1.00,-1.0
4833,21756,-6708,10580,-1.00,-1.0
4837,17752,-1400,-2568,-1.00,-1.0
4839,17688,-7396,4228,-1.00,-1.0
4841,13696,3164,-7860,-1.00,-1.0
4843,19556,-7004,7856,-1.00,-1.0
4845,14768,-3648,-7352,-1.00,-1.0
4847,13292,6888,-20068,-1.00,-1.0
4849,27824,-10184,14040,-1.00,-1.0
4851,22308,-12600,16100,-1.00,-1.0
4853,7116,5848,-15548,-1.00,-1.0
4855,15932,-3840,5820,-1.00,-1.0
4857,17260,-4116,736,-1.00,-1.0
4859,19500,-1936,5776,-1.00,-1.0
4861,20708,-4728,9372,-1.00,-1.0
4863,12344,-1784,-10404,-1.00,-1.0
4865,16508,1244,2384,-1.00,-1.0
4869,13464,-3536,1188,-1.00,-1.0
4871,10812,4968,-9008,-1.00,-1.0
4873,23080,-6740,25380,-1.00,-1.0
4875,14360,-1612,-6052,-1.00,-1.0
4877,18908,-2348,9880,-1.00,-1.0
4879,20504,-120,11984,-1.00,-1.0
4880,11624,1384,-5640,-1.00,-1.0
4882,18844,-1748,16720,-1.00,-1.0
4884,19208,700,12472,-1.00,-1.0
4886,10868,4568,-11964,-1.00,-1.0
4888,19992,-6596,8964,-1.00,-1.0
4890,21016,2672,8968,-1.00,-1.0
4892,19552,-7440,9672,-1.00,-1.0
4894,19844,-10188,12780,-1.00,-1.0
4896,7552,12708,-32768,-1.00,-1.0
4900,15168,636,9428,-1.00,-1.0
4902,13980,2640,-10436,-1.00,-1.0
4904,16468,-7364,13752,-1.00,-1.0
4906,12152,-6880,4916,-1.00,-1.0
4908,8708,8040,-17420,-1.00,-1.0
4910,27564,-10628,23320,-1.00,-1.0
4912,20032,-7076,4552,-1.00,-1.0
4914,10932,6304,-12172,-1.00,-1.0
4916,21364,-6032,17968,-1.00,-1.0
4918,13136,2032,-13032,-1.00,-1.0
4920,19052,-1476,8692,-1.00,-1.0
4922,24276,-8276,23580,-1.00,-1.0
4924,11296,-1896,-4824,-1.00,-1.0
4926,12084,5044,-8960,-1.00,-1.0
4928,25204,-6784,26064,-1.00,-1.0
4932,14144,1560,8104,-1.00,-1.0
4934,17708,2152,11988,-1.00,-1.0
4936,13580,2656,-8024,-1.00,-1.0
4938,17628,4312,-908,-1.00,-1.0
4940,23896,1352,13388,-1.00,-1.0
4942,17592,-2356,2592,-1.00,-1.0
4944,15668,1300,7744,-1.00,-1.0
4945,13248,5812,3896,-1.00,-1.0
4947,12820,4488,-10264,-1.00,-1.0
4949,19124,996,9040,-1.00,-1.0
4951,20896,4464,3912,-1.00,-1.0
4953,17632,-7020,6588,-1.00,-1.0
4955,21024,-5212,22472,-1.00,-1.0
4957,14192,4584,1164,-1.00,-1.0
4959,26284,-6656,16696,-1.00,-1.0
4961,19744,-12856,16372,-1.00,-1.0
4965,14040,884,-15240,-1.00,-1.0
4967,15856,-1092,8820,-1.00,-1.0
4969,17156,3652,-4640,-1.00,-1.0
4971,21944,-4828,11436,-1.00,-1.0
4973,15912,-2756,-2064,-1.00,-1.0
4975,15484,656,4264,-1.00,-1.0
4977,18108,2516,-636,-1.00,-1.0
4979,17504,-5116,4612,-1.00,-1.0
4981,17804,-592,17612,-1.00,-1.0
4983,14500,-424,11300,-1.00,-1.0
4985,9968,4700,-12020,-1.00,-1.0
4987,20588,-372,14304,-1.00,-1.0
4989,22124,1044,11796,-1.00,-1.0
4991,14056,3564,-9544,-1.00,-1.0
4993,17740,768,8476,-1.00,-1.0
4995,21160,1880,14200,-1.00,-1.0
4999,14748,3748,3260,-1.00,-1.0
5001,19632,2804,11120,-1.00,-1.0
5003,15544,1568,-2872,-1.00,-1.0
5005,14096,3880,-2492,-1.00,-1.0
5007,18048,6428,-272,-1.00,-1.0
5009,20200,-2696,-912,-1.00,-1.0
5010,20560,-2112,13788,-1.00,-1.0
5013,11864,8184,-11180,-1.00,-1.0
5014,14940,-400,1172,-1.00,-1.0
5016,18756,-3464,11528,-1.00,-1.0
5018,14284,8956,-4008,-1.00,-1.0
5020,14384,3228,-16144,-1.00,-1.0
5022,22988,-3916,16184,-1.00,-1.0
5024,17804,4460,-1596,-1.00,-1.0
5026,21972,-5256,14840,-1.00,-1.0
5030,10444,9180,-12176,-1.00,-1.0
5032,15884,1808,-6452,-1.00,-1.0
5034,22400,-5964,5528,-1.00,-1.0
5036,13680,2560,6276,-1.00,-1.0
5038,19552,-4204,16904,-1.00,-1.0
5040,12532,84,-6132,-1.00,-1.0
5042,16688,2716,5392,-1.00,-1.0
5044,24304,-4396,13884,-1.00,-1.0
5046,13148,5420,-15672,-1.00,-1.0
5048,17228,-816,7288,-1.00,-1.0
5050,25180,-7892,28676,-1.00,-1.0
5052,7240,5132,-17696,-1.00,-1.0
5054,17072,-2252,12416,-1.00,-1.0
5056,23476,-6028,27376,-1.00,-1.0
5058,6640,6792,-21764,-1.00,-1.0
5060,17608,1776,2820,-1.00,-1.0
5064,11384,2616,-16196,-1.00,-1.0
5066,14116,4812,-1076,-1.00,-1.0
5067,21104,776,11480,-1.00,-1.0
5070,15104,716,-6256,-1.00,-1.0
5072,21368,-9148,26564,-1.00,-1.0
5073,13488,5824,-3388,-1.00,-1.0
5075,8468,8912,-20784,-1.00,-1.0
5077,23036,-4248,11440,-1.00,-1.0
5079,23980,-328,17628,-1.00,-1.0
5081,9312,5104,-22204,-1.00,-1.0
5083,16504,-2228,12852,-1.00,-1.0
5085,16912,2832,3108,-1.00,-1.0
5087,13924,4360,-15364,-1.00,-1.0
5089,16200,-6528,6328,-1.00,-1.0
5091,9904,6960,-7372,-1.00,-1.0
5095,20856,-5308,4292,-1.00,-1.0
5097,19292,-736,7608,-1.00,-1.0
5099,18324,-3344,4208,-1.00,-1.0
5101,12208,832,-5752,-1.00,-1.0
5103,16480,-480,8564,-1.00,-1.0
5105,21952,-5344,20452,-1.00,-1.0
5107,9484,3804,-18056,-1.00,-1.0
5109,17524,2544,3236,-1.00,-1.0
5111,28544,-7880,26828,-1.00,-1.0
5113,11004,2104,-5284,-1.00,-1.0
5115,7924,7984,-15952,-1.00,-1.0
5116,25576,-3280,28204,-1.00,-1.0
5118,16008,-1432,-6480,-1.00,-1.0
5120,13876,4472,-104,-1.00,-1.0
5122,21320,-3068,15012,-1.00,-1.0
5124,15872,-2464,4,-1.00,-1.0
5129,18556,5284,2228,-1.00,-1.0
5131,18988,-7276,15316,-1.00,-1.0
5133,13312,1332,532,-1.00,-1.0
5134,12596,11688,-11892,-1.00,-1.0
5136,19688,-344,-6216,-1.00,-1.0
5138,23784,-3952,16768,-1.00,-1.0
5140,15432,5244,-8948,-1.00,-1.0
5142,13840,2644,-11860,-1.00,-1.0
5144,21700,-8072,20588,-1.00,-1.0
5146,13828,8420,-9776,-1.00,-1.0
5148,11876,4576,-17916,-1.00,-1.0
5150,21988,-5364,10892,-1.00,-1.0
5152,17588,5828,-3460,-1.00,-1.0
5154,20068,-2980,12088,-1.00,-1.0
5156,17224,-4704,7508,-1.00,-1.0
5160,17404,-4564,-2736,-1.00,-1.0
5162,14976,-1620,844,-1.00,-1.0
5164,20760,-572,16132,-1.00,-1.0
5166,16280,3452,-2336,-1.00,-1.0
5168,14600,-992,2860,-1.00,-1.0
5170,18464,-2992,16132,-1.00,-1.0
5172,16276,5012,2228,-1.00,-1.0
5174,13400,3552,-13240,-1.00,-1.0
5176,22736,-1384,9804,-1.00,-1.0
5178,22868,-1168,17792,-1.00,-1.0
5180,9228,3228,-20196,-1.00,-1.0
5182,17968,-5136,17096,-1.00,-1.0
5184,17436,228,12492,-1.00,-1.0
5186,11100,256,-4612,-1.00,-1.0
5187,16128,936,2924,-1.00,-1.0
5189,18028,9656,-4368,-1.00,-1.0
5194,23724,-2244,13032,-1.00,-1.0
5196,16564,5564,-1872,-1.00,-1.0
5197,10576,4328,-15984,-1.00,-1.0
5200,20204,-9316,22572,-1.00,-1.0
5202,13548,7532,-8808,-1.00,-1.0
5203,11996,5124,-18832,-1.00,-1.0
5205,24924,-11544,25212,-1.00,-1.0
5207,13832,8508,-12144,-1.00,-1.0
5209,11760,5192,-24272,-1.00,-1.0
5211,27880,-12056,23164,-1.00,-1.0
5213,15436,8064,-8588,-1.00,-1.0
5215,11624,1756,-15948,-1.00,-1.0
5217,20252,-8292,17908,-1.00,-1.0
5219,13248,6092,-9712,-1.00,-1.0
5221,22804,-2048,13484,-1.00,-1.0
5225,9584,11924,-26352,-1.00,-1.0
5227,20464,-2048,2028,-1.00,-1.0
5229,8024,5836,-18664,-1.00,-1.0
5231,17748,-660,4608,-1.00,-1.0
5233,27564,-6292,29960,-1.00,-1.0
5235,8524,5968,-25420,-1.00,-1.0
5237,15212,1412,5816,-1.00,-1.0
5239,23956,-1636,18704,-1.00,-1.0
5241,12172,5404,-13180,-1.00,-1.0
5243,15808,3620,-4924,-1.00,-1.0
5245,24008,1300,13440,-1.00,-1.0
5247,17168,-3076,-2440,-1.00,-1.0
5249,14032,2216,2056,-1.00,-1.0
5251,14868,4752,-1164,-1.00,-1.0
5252,16404,-76,-2488,-1.00,-1.0
5257,14412,8896,-11640,-1.00,-1.0
5259,17112,308,-12524,-1.00,-1.0
5261,24164,-9260,22956,-1.00,-1.0
5262,13160,6192,-11868,-1.00,-1.0
5264,11944,3540,-15236,-1.00,-1.0
5266,24352,-11748,19184,-1.00,-1.0
5268,15764,6664,-632,-1.00,-1.0
5270,10996,1688,-15280,-1.00,-1.0
5272,20116,-6744,18052,-1.00,-1.0
5274,13992,8524,-11924,-1.00,-1.0
5276,14920,3552,-16340,-1.00,-1.0
5278,22920,-6604,10888,-1.00,-1.0
5280,18620,-476,4956,-1.00,-1.0
5282,14476,-1980,-6052,-1.00,-1.0
5284,19844,-4984,8188,-1.00,-1.0
5288,21132,-7448,6124,-1.00,-1.0
5290,17352,-4500,6528,-1.00,-1.0
5292,11844,4792,-7832,-1.00,-1.0
5294,19992,1460,2152,-1.00,-1.0
5296,17464,-5284,7336,-1.00,-1.0
5298,18264,-3036,9892,-1.00,-1.0
5300,16400,6172,-2108,-1.00,-1.0
5302,13432,780,-10176,-1.00,-1.0
5304,19836,-3636,12164,-1.00,-1.0
5306,16560,5092,804,-1.00,-1.0
5308,11604,3676,-16204,-1.00,-1.0
5310,18824,-3080,1224,-1.00,-1.0
5312,21700,3600,3724,-1.00,-1.0
5314,18916,-5060,-2904,-1.00,-1.0
5315,14896,-1368,6412,-1.00,-1.0
5317,12216,5220,-9448,-1.00,-1.0
5322,17096,-2160,12776,-1.00,-1.0
5324,18176,-968,12076,-1.00,-1.0
5326,19176,-2788,-5204,-1.00,-1.0
5328,21332,-10152,20624,-1.00,-1.0
5330,9852,7900,-11576,-1.00,-1.0
5332,13116,276,-3324,-1.00,-1.0
5334,18408,-4388,10260,-1.00,-1.0
5336,13772,9660,-20740,-1.00,-1.0
5338,24224,-200,-2292,-1.00,-1.0
5340,24808,-11272,8940,-1.00,-1.0
5342,13400,4696,-2304,-1.00,-1.0
5344,13908,-5088,912,-1.00,-1.0
5346,14232,-3312,1356,-1.00,-1.0
5347,15036,3052,-1536,-1.00,-1.0
5349,24360,-7776,11544,-1.00,-1.0
5353,10360,8512,-17560,-1.00,-1.0
5355,22768,-5168,14048,-1.00,-1.0
5357,19164,-3164,1652,-1.00,-1.0
5359,14188,5232,-8568,-1.00,-1.0
5361,21996,-3516,14564,-1.00,-1.0
5363,14036,-5044,2484,-1.00,-1.0
5365,11280,4632,-3072,-1.00,-1.0
5367,23640,-7248,23088,-1.00,-1.0
5369,14744,-956,-7176,-1.00,-1.0
5371,12996,7876,-6636,-1.00,-1.0
5373,24228,-3144,14304,-1.00,-1.0
5375,13768,-820,-8840,-1.00,-1.0
5377,18152,-2748,9224,-1.00,-1.0
5379,24180,-7000,23012,-1.00,-1.0
5381,18004,2636,-8004,-1.00,-1.0
5383,27432,-13940,22748,-1.00,-1.0
5387,18212,840,-9448,-1.00,-1.0
5389,17576,-956,9200,-1.00,-1.0
5391,14652,4832,-12444,-1.00,-1.0
5393,21320,-2296,1748,-1.00,-1.0
5395,22216,-12464,14100,-1.00,-1.0
5397,12384,6576,-4668,-1.00,-1.0
5399,13624,-532,-2128,-1.00,-1.0
5401,18012,-1756,1176,-1.00,-1.0
5403,17496,5124,-4948,-1.00,-1.0
5405,22232,-3612,3140,-1.00,-1.0
5406,19348,-5628,8296,-1.00,-1.0
5409,12396,5532,-10308,-1.00,-1.0
5410,17920,-3504,9344,-1.00,-1.0
5412,14316,-1192,-4832,-1.00,-1.0
5414,16976,1788,1980,-1.00,-1.0
5419,16916,-5424,5420,-1.00,-1.0
5421,11316,5960,-12676,-1.00,-1.0
5422,22412,-4024,18756,-1.00,-1.0
5424,17984,-5340,-192,-1.00,-1.0
5426,13524,4840,-5712,-1.00,-1.0
5428,20316,-4356,11908,-1.00,-1.0
5430,15880,-2936,2272,-1.00,-1.0
5432,12944,3128,-3424,-1.00,-1.0
5434,20448,2448,7572,-1.00,-1.0
5436,17180,-7024,8308,-1.00,-1.0
5438,12004,3768,-1956,-1.00,-1.0
5440,16556,5264,1540,-1.00,-1.0
5442,16744,1432,-11288,-1.00,-1.0
5444,21180,-2924,12336,-1.00,-1.0
5446,13252,3200,-7336,-1.00,-1.0
5450,16664,-1408,-512,-1.00,-1.0
5452,18348,7888,-7560,-1.00,-1.0
5454,18600,-3996,-2412,-1.00,-1.0
5456,13132,380,-7092,-1.00,-1.0
5458,10684,6408,-9092,-1.00,-1.0
5460,11700,3380,-14844,-1.00,-1.0
5462,16448,-4488,3496,-1.00,-1.0
5464,9532,6716,-8452,-1.00,-1.0
5466,17512,1368,9800,-1.00,-1.0
5468,19420,-5012,6048,-1.00,-1.0
5470,17008,2496,4596,-1.00,-1.0
5471,14380,7276,-7864,-1.00,-1.0
5474,17676,-392,5392,-1.00,-1.0
5475,18108,-2144,2512,-1.00,-1.0
5477,17336,9532,-3828,-1.00,-1.0
5479,16064,-1060,-11780,-1.00,-1.0
5484,12560,4940,-4852,-1.00,-1.0
5486,10340,3772,-11688,-1.00,-1.0
5487,20796,-7232,17828,-1.00,-1.0
5489,15804,7128,-11512,-1.00,-1.0
5491,18508,4048,-11460,-1.00,-1.0
5493,23736,-7668,5380,-1.00,-1.0
5495,17400,7696,-4244,-1.00,-1.0
5497,17252,-4916,772,-1.00,-1.0
5499,16020,-3020,4540,-1.00,-1.0
5501,13156,3492,-5632,-1.00,-1.0
5503,20056,-4792,5576,-1.00,-1.0
5505,17744,-6456,7432,-1.00,-1.0
5507,13764,3028,-7032,-1.00,-1.0
5509,19420,-3916,8860,-1.00,-1.0
5511,15288,-408,-6108,-1.00,-1.0
5515,23020,-5204,23756,-1.00,-1.0
5517,10584,-680,-336,-1.00,-1.0
5519,9896,7216,-9244,-1.00,-1.0
5521,23692,-1976,24176,-1.00,-1.0
5523,15380,-1188,-6620,-1.00,-1.0
5525,15068,6264,-2936,-1.00,-1.0
5527,16996,948,3544,-1.00,-1.0
5529,13316,2180,-8912,-1.00,-1.0
5531,14184,-3640,-1944,-1.00,-1.0
5533,19484,-1528,4076,-1.00,-1.0
5535,22280,-5800,11464,-1.00,-1.0
5536,12524,-3500,-7728,-1.00,-1.0
5538,13276,3128,-8020,-1.00,-1.0
5540,24624,-10092,26064,-1.00,-1.0
5542,12252,756,-7212,-1.00,-1.0
5544,11760,3132,68,-1.00,-1.0
5548,16112,-1532,2908,-1.00,-1.0
5550,14228,4856,-8784,-1.00,-1.0
5552,21120,4924,5924,-1.00,-1.0
5554,20888,-6572,6808,-1.00,-1.0
5556,18132,-3256,13516,-1.00,-1.0
5558,10188,8212,-7908,-1.00,-1.0
5560,11400,6756,-16268,-1.00,-1.0
5562,25056,-5240,15704,-1.00,-1.0
5564,20452,7312,-6656,-1.00,-1.0
5566,16708,-992,-8328,-1.00,-1.0
5568,20192,-4796,12756,-1.00,-1.0
5570,12812,7880,-14020,-1.00,-1.0
5572,15028,4016,-13636,-1.00,-1.0
5574,25608,-14100,18448,-1.00,-1.0
5576,15516,5800,-9464,-1.00,-1.0
5580,17464,-6272,8848,-1.00,-1.0
5582,14184,2596,-9568,-1.00,-1.0
5584,16564,4768,-4336,-1.00,-1.0
5586,12820,6208,-15684,-1.00,-1.0
5588,23188,-5736,13440,-1.00,-1.0
5590,18700,4816,-2464,-1.00,-1.0
5592,12272,5676,-21680,-1.00,-1.0
5593,22576,-6184,5220,-1.00,-1.0
5595,19824,5960,-6116,-1.00,-1.0
5597,16324,-3504,-1184,-1.00,-1.0
5599,17024,-7968,12780,-1.00,-1.0
5601,12328,1772,-4364,-1.00,-1.0
5603,13044,4436,-4748,-1.00,-1.0
5605,17532,-6928,6764,-1.00,-1.0
5607,21616,-2400,12116,-1.00,-1.0
5609,15736,1284,956,-1.00,-1.0
5613,20324,-2600,11460,-1.00,-1.0
5615,21520,-1888,17100,-1.00,-1.0
5617,10996,-572,-3216,-1.00,-1.0
5619,11808,3716,-3788,-1.00,-1.0
5621,20568,5312,8560,-1.00,-1.0
5623,19884,-1952,-2868,-1.00,-1.0
5625,16808,4884,-3312,-1.00,-1.0
5627,18636,3848,-5756,-1.00,-1.0
5629,20228,-704,3744,-1.00,-1.0
5631,16040,-1716,-11564,-1.00,-1.0
5633,19848,-4752,16992,-1.00,-1.0
5635,16372,3040,6608,-1.00,-1.0
5637,10212,3816,-15480,-1.00,-1.0
5638,22016,-592,16816,-1.00,-1.0
5640,21212,2608,8532,-1.00,-1.0
5645,21504,-6348,23084,-1.00,-1.0
5647,15632,4272,-116,-1.00,-1.0
5648,9048,10528,-21832,-1.00,-1.0
5650,22928,-4596,5512,-1.00,-1.0
5652,22120,5520,172,-1.00,-1.0
5654,17368,-2608,-6076,-1.00,-1.0
5656,18656,-3780,4908,-1.00,-1.0
5658,12748,6992,-16532,-1.00,-1.0
5660,18856,-3220,-1100,-1.00,-1.0
5662,21816,-11508,17540,-1.00,-1.0
5664,13012,2012,-8168,-1.00,-1.0
5666,13628,-1400,524,-1.00,-1.0
5668,15120,-4792,1852,-1.00,-1.0
5670,17764,-2328,7440,-1.00,-1.0
5672,15780,3324,2832,-1.00,-1.0
5676,17164,-2216,13280,-1.00,-1.0
5678,15756,4648,12948,-1.00,-1.0
5680,10084,5472,-22044,-1.00,-1.0
5682,23116,3256,10752,-1.00,-1.0
5684,23540,2084,-268,-1.00,-1.0
5686,16844,4444,-8376,-1.00,-1.0
5688,17552,-12,-2936,-1.00,-1.0
5690,16492,9324,-14520,-1.00,-1.0
5692,19972,-2356,2676,-1.00,-1.0
5694,21388,-10392,14528,-1.00,-1.0
5696,6160,17408,-32768,-1.00,-1.0
5698,17176,2912,-10892,-1.00,-1.0
5700,27628,-12016,20728,-1.00,-1.0
5702,14840,972,-3168,-1.00,-1.0
5704,23016,2552,2968,-1.00,-1.0
5705,18568,7080,-15848,-1.00,-1.0
5710,14812,4140,880,-1.00,-1.0
5712,17628,-3768,-584,-1.00,-1.0
5714,13924,-2828,1392,-1.00,-1.0
5715,14012,4024,-10684,-1.00,-1.0
5718,21056,-5760,8320,-1.00,-1.0
5720,17240,-8468,7416,-1.00,-1.0
5721,11144,860,-2952,-1.00,-1.0
5723,14948,-5168,18724,-1.00,-1.0
5725,8452,248,-10912,-1.00,-1.0
5727,18088,1804,7800,-1.00,-1.0
5729,23120,-2156,13456,-1.00,-1.0
5731,13232,5268,-7416,-1.00,-1.0
5733,15768,4452,-12800,-1.00,-1.0
5735,21848,8484,2768,-1.00,-1.0
5737,19692,-1424,-9780,-1.00,-1.0
5741,13884,5940,-19840,-1.00,-1.0
5743,15868,-356,-7908,-1.00,-1.0
5745,24552,-13900,24124,-1.00,-1.0
5747,14128,1564,-7392,-1.00,-1.0
5749,8876,4844,-18144,-1.00,-1.0
5751,18832,-11800,17108,-1.00,-1.0
5753,17908,-2584,10056,-1.00,-1.0
5755,14448,-2200,13732,-1.00,-1.0
5757,7312,1520,-13564,-1.00,-1.0
5759,17648,3640,4316,-1.00,-1.0
5761,24172,-556,8084,-1.00,-1.0
5763,19080,1944,-4008,-1.00,-1.0
5765,18700,968,-4536,-1.00,-1.0
5767,18036,9956,-14712,-1.00,-1.0
5769,20428,-2372,-1236,-1.00,-1.0
5770,8940,1368,-10960,-1.00,-1.0
5775,15380,3492,-13064,-1.00,-1.0
5777,25660,-15076,26512,-1.00,-1.0
5779,12496,2060,-5144,-1.00,-1.0
5781,8664,-60,1088,-1.00,-1.0
5783,12800,-7964,7928,-1.00,-1.0
5785,16520,-1544,11164,-1.00,-1.0
5786,21128,492,2956,-1.00,-1.0
5789,19320,-412,3176,-1.00,-1.0
5790,13256,-5544,3280,-1.00,-1.0
5792,16828,-1664,10160,-1.00,-1.0
5794,17316,-6160,15596,-1.00,-1.0
5796,7808,-944,-964,-1.00,-1.0
5798,12944,5796,-6236,-1.00,-1.0
5800,22804,364,17124,-1.00,-1.0
5802,16120,-288,-4544,-1.00,-1.0
5806,14812,7896,-11396,-1.00,-1.0
5808,15444,7260,-13932,-1.00,-1.0
5810,26824,-5936,7736,-1.00,-1.0
5812,20952,5492,-4812,-1.00,-1.0
5814,17208,-5432,2164,-1.00,-1.0
5816,14512,-5324,7788,-1.00,-1.0
5818,11676,1828,-5848,-1.00,-1.0
5820,18584,-2876,9060,-1.00,-1.0
5822,16056,-6088,5944,-1.00,-1.0
5824,13928,3280,-2608,-1.00,-1.0
5826,16696,3368,4112,-1.00,-1.0
5828,13864,-1656,244,-1.00,-1.0
5830,19256,-2352,12464,-1.00,-1.0
5832,17480,3892,876,-1.00,-1.0
5834,15752,3864,-9332,-1.00,-1.0
5836,22672,-1696,2792,-1.00,-1.0
5840,22320,-2272,-4960,-1.00,-1.0
5842,22436,-6676,14524,-1.00,-1.0
5843,12516,1712,-3356,-1.00,-1.0
5845,23008,2964,-924,-1.00,-1.0
5847,20808,-52,-124,-1.00,-1.0
5849,19620,-1284,6024,-1.00,-1.0
5851,10852,16504,-25384,-1.00,-1.0
5853,19936,452,-2020,-1.00,-1.0
5855,27780,-13728,26960,-1.00,-1.0
5857,8740,13856,-31804,-1.00,-1.0
5859,13752,3160,-17276,-1.00,-1.0
5861,25616,-11948,23008,-1.00,-1.0
5863,17132,-4076,8592,-1.00,-1.0
5865,7776,3296,-8024,-1.00,-1.0
5867,10080,-4116,2716,-1.00,-1.0
5871,17800,3308,3492,-1.00,-1.0
5873,13956,-1460,-9476,-1.00,-1.0
5875,24376,-3260,15516,-1.00,-1.0
5877,17108,5064,724,-1.00,-1.0
5879,11740,6296,-16056,-1.00,-1.0
5881,24572,-4948,16664,-1.00,-1.0
5883,18360,8372,-12164,-1.00,-1.0
5885,18564,-324,-4452,-1.00,-1.0
5887,19720,-4472,7296,-1.00,-1.0
5889,15340,5252,-10192,-1.00,-1.0
5890,17020,-580,-1536,-1.00,-1.0
5892,14288,3324,-6772,-1.00,-1.0
5894,20300,-788,2804,-1.00,-1.0
5896,19436,8876,-1720,-1.00,-1.0
5898,19280,-832,-5668,-1.00,-1.0
5900,20220,-324,5208,-1.00,-1.0
5904,21860,-4184,1056,-1.00,-1.0
5906,23924,-13372,23144,-1.00,-1.0
5908,9400,4616,-18260,-1.00,-1.0
5910,12788,104,-3224,-1.00,-1.0
5912,18184,-13936,17396,-1.00,-1.0
5914,13968,2036,3080,-1.00,-1.0
5916,14044,-1876,5468,-1.00,-1.0
5918,12492,-1204,-4428,-1.00,-1.0
5920,19488,384,7560,-1.00,-1.0
5922,21084,644,6396,-1.00,-1.0
5924,16296,2240,-3228,-1.00,-1.0
5926,18516,12,5040,-1.00,-1.0
5928,15564,12712,-14864,-1.00,-1.0
5930,19628,1496,-7580,-1.00,-1.0
5932,27068,-8180,20412,-1.00,-1.0
5936,13032,4696,-19644,-1.00,-1.0
5938,26820,-14476,22520,-1.00,-1.0
5940,15268,3312,-6740,-1.00,-1.0
5942,11544,-4852,64,-1.00,-1.0
5944,14244,-8080,7196,-1.00,-1.0
5946,15084,-1560,4912,-1.00,-1.0
5948,13628,2684,-2992,-1.00,-1.0
5949,15704,-4108,7756,-1.00,-1.0
5952,18248,-2128,10524,-1.00,-1.0
5954,15924,8056,668,-1.00,-1.0
5955,12860,4944,-14340,-1.00,-1.0
5957,15944,-9044,10776,-1.00,-1.0
5959,10072,3340,-10984,-1.00,-1.0
5961,15828,-3124,12124,-1.00,-1.0
5963,12828,-3492,-3808,-1.00,-1.0
5965,19748,-5064,18536,-1.00,-1.0
5969,10436,2676,-7112,-1.00,-1.0
5971,17984,1240,1720,-1.00,-1.0
5973,21572,7116,4048,-1.00,-1.0
5975,16884,2728,-13228,-1.00,-1.0
5977,23624,-1204,14632,-1.00,-1.0
5979,15168,7712,-16436,-1.00,-1.0
5981,15128,3488,-15660,-1.00,-1.0
5983,27852,-15032,30480,-1.00,-1.0
5985,15204,1928,-10748,-1.00,-1.0
5987,10428,1688,-6644,-1.00,-1.0
5989,14660,-4356,868,-1.00,-1.0
5991,18656,-3596,10704,-1.00,-1.0
5993,15320,-840,8208,-1.00,-1.0
5995,10728,-3080,1952,-1.00,-1.0
5997,15412,96,9632,-1.00,-1.0
6001,14304,4424,-17684,-1.00,-1.0
6003,27612,404,13420,-1.00,-1.0
6005,21344,4132,-10624,-1.00,-1.0
6007,17752,2764,-6272,-1.00,-1.0
6009,18452,-2676,-616,-1.00,-1.0
6011,15112,6888,-12168,-1.00,-1.0
6013,21100,-7688,12920,-1.00,-1.0
6014,16640,-9692,11360,-1.00,-1.0
6017,5852,12860,-31092,-1.00,-1.0
6019,20440,-5724,12396,-1.00,-1.0
6020,19900,-9632,17188,-1.00,-1.0
6022,12236,652,3388,-1.00,-1.0
6024,10748,3224,-4024,-1.00,-1.0
6026,13776,2364,-1524,-1.00,-1.0
6028,16688,-7932,7900,-1.00,-1.0
6032,19020,-1420,-6308,-1.00,-1.0
6034,20552,-228,5996,-1.00,-1.0
6036,14344,8176,-16024,-1.00,-1.0
6038,16752,-676,7616,-1.00,-1.0
6040,20032,-5920,7656,-1.00,-1.0
6042,21804,-4160,17328,-1.00,-1.0
6044,18544,6752,-7088,-1.00,-1.0
6046,17300,3636,-14720,-1.00,-1.0
6048,26880,-4100,15296,-1.00,-1.0
6050,16744,8768,-17912,-1.00,-1.0
6052,15872,3384,-10848,-1.00,-1.0
6054,21212,-10140,14792,-1.00,-1.0
6056,16140,-496,5812,-1.00,-1.0
6058,11976,-2904,5204,-1.00,-1.0
6060,7268,-864,-4560,-1.00,-1.0
6062,17976,-3136,10752,-1.00,-1.0
6066,6036,8688,-26596,-1.00,-1.0
6068,20948,1244,5456,-1.00,-1.0
6070,25012,1584,9576,-1.00,-1.0
6072,14048,4232,-10632,-1.00,-1.0
6074,20108,1624,-6060,-1.00,-1.0
6076,20048,9540,-8460,-1.00,-1.0
6078,20960,-5104,972,-1.00,-1.0
6080,18844,-6008,13024,-1.00,-1.0
6082,10308,3504,-10028,-1.00,-1.0
6084,15828,-2036,9700,-1.00,-1.0
6085,15392,-9284,15104,-1.00,-1.0
6088,12992,756,2476,-1.00,-1.0
6089,14512,6164,-1980,-1.00,-1.0
6091,13200,2392,-8096,-1.00,-1.0
6093,17056,-6236,6536,-1.00,-1.0
6097,10148,8180,-24708,-1.00,-1.0
6099,25748,-3512,10896,-1.00,-1.0
6101,9688,2864,-6412,-1.00,-1.0
6103,15420,-144,9196,-1.00,-1.0
6105,13084,-2212,-3060,-1.00,-1.0
6107,20580,-360,10320,-1.00,-1.0
6109,17668,6060,-10232,-1.00,-1.0
6111,17844,4376,-11180,-1.00,-1.0
6113,27520,-6564,14124,-1.00,-1.0
6115,17076,8616,-15440,-1.00,-1.0
6117,15648,-520,-7728,-1.00,-1.0
6119,21484,-10196,20904,-1.00,-1.0
6121,11304,4336,-8336,-1.00,-1.0
6123,13216,-1232,1688,-1.00,-1.0
6125,13356,-3860,-1220,-1.00,-1.0
6127,20624,-7436,16780,-1.00,-1.0
6131,6580,2484,-12644,-1.00,-1.0
6133,17012,1636,940,-1.00,-1.0
6135,21416,7612,-6028,-1.00,-1.0
6137,21936,816,-7932,-1.00,-1.0
6139,25244,-2852,13900,-1.00,-1.0
6140,14032,4912,-9676,-1.00,-1.0
6142,13852,504,-4420,-1.00,-1.0
6144,18660,-6836,10116,-1.00,-1.0
6146,15076,5012,-12504,-1.00,-1.0
6148,18156,-1184,3652,-1.00,-1.0
6150,14024,2256,-8212,-1.00,-1.0
6152,13996,-3288,10232,-1.00,-1.0
6154,21460,5900,-9820,-1.00,-1.0
6156,19732,328,-5636,-1.00,-1.0
6158,19948,-8176,7720,-1.00,-1.0
6162,20224,1816,-15092,-1.00,-1.0
6164,27044,-2856,13720,-1.00,-1.0
6166,14928,-1316,7284,-1.00,-1.0
6168,19000,1568,7036,-1.00,-1.0
6170,14456,4556,-11472,-1.00,-1.0
6172,23800,-2432,14484,-1.00,-1.0
6174,15080,11376,-16892,-1.00,-1.0
6176,15508,4552,-10064,-1.00,-1.0
6178,28620,-10748,25132,-1.00,-1.0
6180,13360,11680,-21532,-1.00,-1.0
6182,13024,4072,-21588,-1.00,-1.0
6184,24704,-8596,19176,-1.00,-1.0
6186,18244,-4540,10140,-1.00,-1.0
6188,10204,204,-2952,-1.00,-1.0
6190,9272,-3628,1388,-1.00,-1.0
6194,18912,-1796,12300,-1.00,-1.0
6196,11096,1792,-13400,-1.00,-1.0
6198,20848,1876,4176,-1.00,-1.0
6200,21656,2764,2532,-1.00,-1.0
6202,16988,2832,-10888,-1.00,-1.0
6204,24068,-1384,10416,-1.00,-1.0
6206,15776,9860,-21044,-1.00,-1.0
6208,21080,-3624,7516,-1.00,-1.0
6210,17992,-5832,9224,-1.00,-1.0
6212,8092,7616,-16980,-1.00,-1.0
6214,18384,-7044,20536,-1.00,-1.0
6216,15248,-11560,19020,-1.00,-1.0
6218,9400,1640,-1280,-1.00,-1.0
6220,13092,4752,-276,-1.00,-1.0
6221,16976,1008,-5360,-1.00,-1.0
6223,28184,-1328,16056,-1.00,-1.0
6228,15632,6584,-20820,-1.00,-1.0
6230,31184,-10852,32104,-1.00,-1.0
6231,11336,8372,-23516,-1.00,-1.0
6234,11436,4772,-16124,-1.00,-1.0
6235,25368,-15568,24512,-1.00,-1.0
6237,13504,2564,1008,-1.00,-1.0
6239,9968,-2600,4508,-1.00,-1.0
6241,8868,-1456,-3776,-1.00,-1.0
6243,19056,604,4868,-1.00,-1.0
6245,22160,-916,4768,-1.00,-1.0
6247,13572,1092,-1144,-1.00,-1.0
6249,21244,-1196,4268,-1.00,-1.0
6251,16064,-2860,8272,-1.00,-1.0
6253,16772,-3280,10856,-1.00,-1.0
6255,7276,3164,-12512,-1.00,-1.0
6259,25572,-4844,22440,-1.00,-1.0
6261,9024,6116,-21088,-1.00,-1.0
6263,19496,2592,-1820,-1.00,-1.0
6265,23452,6472,-3780,-1.00,-1.0
6267,20332,496,-11312,-1.00,-1.0
6269,22424,-3268,11696,-1.00,-1.0
6271,14288,-1380,2176,-1.00,-1.0
6273,11348,256,5584,-1.00,-1.0
6275,11396,-5608,10376,-1.00,-1.0
6277,13788,-1844,8432,-1.00,-1.0
6279,19076,-808,12596,-1.00,-1.0
6281,11252,4408,-15864,-1.00,-1.0
6283,21476,4264,-3240,-1.00,-1.0
6285,25368,3016,1740,-1.00,-1.0
6286,18516,1512,-11704,-1.00,-1.0
6288,20880,-12,3148,-1.00,-1.0
6293,19288,-356,5248,-1.00,-1.0
6295,22496,-16708,31348,-1.00,-1.0
6296,7644,1304,-468,-1.00,-1.0
6299,7532,2220,-4256,-1.00,-1.0
6301,14376,-172,-2720,-1.00,-1.0
6302,26120,-3228,12264,-1.00,-1.0
6304,20076,3772,-3876,-1.00,-1.0
6306,8740,10716,-30892,-1.00,-1.0
6308,26544,-4464,17516,-1.00,-1.0
6310,21180,3372,-8404,-1.00,-1.0
6312,13868,3748,-13660,-1.00,-1.0
6314,20248,-9116,19476,-1.00,-1.0
6316,12076,-2684,9660,-1.00,-1.0
6318,26232,3224,-2868,-1.00,-1.0
6320,19512,708,-7840,-1.00,-1.0
6324,18648,7180,-8992,-1.00,-1.0
6326,17464,4724,-25240,-1.00,-1.0
6328,9668,-4440,10072,-1.00,-1.0
6330,10672,3400,-752,-1.00,-1.0
6332,17296,7088,-9356,-1.00,-1.0
6334,19336,6364,-11856,-1.00,-1.0
6336,24536,-204,6120,-1.00,-1.0
6338,18084,9300,-16696,-1.00,-1.0
6340,17976,376,-2092,-1.00,-1.0
6342,20844,-9604,16584,-1.00,-1.0
6344,9788,5700,-13780,-1.00,-1.0
6346,16524,-8068,21244,-1.00,-1.0
6348,12960,-6036,7940,-1.00,-1.0
6350,10072,9052,-17356,-1.00,-1.0
6351,19456,6176,-14792,-1.00,-1.0
6356,18180,-6188,17864,-1.00,-1.0
6358,19300,-1240,3240,-1.00,-1.0
6360,13420,8200,-27592,-1.00,-1.0
6362,27412,1268,320,-1.00,-1.0
6364,28768,-3628,11084,-1.00,-1.0
6366,15120,-2352,-524,-1.00,-1.0
6368,20448,52,-3148,-1.00,-1.0
6370,29396,-3708,12460,-1.00,-1.0
6372,17408,11244,-29028,-1.00,-1.0
6374,17376,640,-7604,-1.00,-1.0
6376,23284,-12308,31612,-1.00,-1.0
6378,7180,1372,-1516,-1.00,-1.0
6380,6932,1164,-576,-1.00,-1.0
6382,16968,-5700,16136,-1.00,-1.0
6384,16568,4160,-6864,-1.00,-1.0
6386,17068,15112,-32768,-1.00,-1.0
6390,28816,-11584,32136,-1.00,-1.0
6392,7060,292,-3344,-1.00,-1.0
6394,2348,4296,-9848,-1.00,-1.0
6395,13040,2536,-5004,-1.00,-1.0
6397,27760,-3912,13308,-1.00,-1.0
6399,22232,3800,-8584,-1.00,-1.0
6401,12300,6192,-22872,-1.00,-1.0
6403,24508,-10836,23972,-1.00,-1.0
6405,15196,-3080,17928,-1.00,-1.0
6407,-1580,8340,-26936,-1.00,-1.0
6409,15712,1324,-2860,-1.00,-1.0
6411,29624,-1504,8284,-1.00,-1.0
6413,24508,-384,-8436,-1.00,-1.0
6415,16512,-3552,7544,-1.00,-1.0
6417,20188,3532,-3380,-1.00,-1.0
6421,8724,9540,-30716,-1.00,-1.0
6423,24344,2740,-284,-1.00,-1.0
6425,30980,-4932,15480,-1.00,-1.0
6427,10392,2948,-5864,-1.00,-1.0
6429,844,4648,-11820,-1.00,-1.0
6431,32767,-5316,16836,-1.00,-1.0
6433,25960,-8460,20836,-1.00,-1.0
6435,6788,3792,-2160,-1.00,-1.0
6437,4132,4484,-10356,-1.00,-1.0
6439,18488,-1612,7976,-1.00,-1.0
6441,24176,1160,-4088,-1.00,-1.0
6443,27576,-3772,6460,-1.00,-1.0
6445,16780,-4492,11224,-1.00,-1.0
6447,5464,-2148,3112,-1.00,-1.0
6448,7980,4000,-12784,-1.00,-1.0
6450,24312,4432,-9100,-1.00,-1.0
6455,20756,-7480,23740,-1.00,-1.0
6457,6532,-828,4584,-1.00,-1.0
6458,748,12644,-32768,-1.00,-1.0
6460,25684,-2484,10516,-1.00,-1.0
6462,30592,-3736,4028,-1.00,-1.0
6464,15464,7488,-16864,-1.00,-1.0
6466,12796,-540,-5416,-1.00,-1.0
6468,16348,-6428,9116,-1.00,-1.0
6470,17528,336,-4256,-1.00,-1.0
6472,23520,-5156,10292,-1.00,-1.0
6474,13500,-5956,11616,-1.00,-1.0
6476,3732,1416,-5156,-1.00,-1.0
6478,17600,2532,-6128,-1.00,-1.0
6480,28244,1196,-3300,-1.00,-1.0
6482,1172,6720,-23720,-1.00,-1.0
6486,8084,9576,-10792,-1.00,-1.0
6488,20856,2000,-13484,-1.00,-1.0
6490,24676,-3080,11544,-1.00,-1.0
6492,17308,-72,10232,-1.00,-1.0
6494,12944,-1184,6912,-1.00,-1.0
6496,18520,4788,-3808,-1.00,-1.0
6498,11116,400,-6872,-1.00,-1.0
6500,17748,-5236,13520,-1.00,-1.0
6502,21476,-1984,8940,-1.00,-1.0
6504,19084,-2096,7880,-1.00,-1.0
6506,9560,164,-9472,-1.00,-1.0
6508,15608,2376,4272,-1.00,-1.0
6510,21112,4184,-2368,-1.00,-1.0
6512,18148,7880,-24692,-1.00,-1.0
6513,22520,-8132,24044,-1.00,-1.0
6515,14380,-8776,11184,-1.00,-1.0
6520,16000,-1064,-5164,-1.00,-1.0
6522,10360,5412,-17560,-1.00,-1.0
6523,20908,-608,9040,-1.00,-1.0
6525,30124,-8044,18932,-1.00,-1.0
6527,14840,460,-1280,-1.00,-1.0
6529,4996,-2912,-1744,-1.00,-1.0
6531,15784,-2228,9228,-1.00,-1.0
6533,25732,676,12808,-1.00,-1.0
6535,13996,1636,-18740,-1.00,-1.0
6537,11808,4008,-8384,-1.00,-1.0
6539,24544,-8100,21268,-1.00,-1.0
6541,22632,-6108,24460,-1.00,-1.0
6543,-232,9920,-32136,-1.00,-1.0
6545,13900,1496,-8496,-1.00,-1.0
6547,7316,4196,-15952,-1.00,-1.0
6551,-2368,10072,-32768,-1.00,-1.0
6553,15448,9244,-9228,-1.00,-1.0
6555,31620,-8048,21648,-1.00,-1.0
6557,20556,-3556,32767,-1.00,-1.0
6559,-2628,10728,-32768,-1.00,-1.0
6561,15528,6264,-17664,-1.00,-1.0
6563,5848,2380,-12484,-1.00,-1.0
6565,10972,7660,-2200,-1.00,-1.0
6567,32767,-11388,32767,-1.00,-1.0
6569,14320,-6812,7464,-1.00,-1.0
6571,-208,10372,-25604,-1.00,-1.0
6573,21052,3216,-6276,-1.00,-1.0
6575,32767,-11084,32767,-1.00,-1.0
6577,7896,-6308,-8828,-1.00,-1.0
6578,4280,7344,-18624,-1.00,-1.0
6583,27224,-12152,32767,-1.00,-1.0
6585,-284,6992,-32768,-1.00,-1.0
6587,13548,13464,-26936,-1.00,-1.0
6589,32767,-12952,32767,-1.00,-1.0
6591,15896,-772,23760,-1.00,-1.0
6593,-2372,20796,-32768,-1.00,-1.0
6594,29392,2948,4568,-1.00,-1.0
6596,30524,-15496,32767,-1.00,-1.0
6598,2968,2852,6440,-1.00,-1.0
6600,9252,6872,-32768,-1.00,-1.0
6602,30568,-2860,16932,-1.00,-1.0
6604,15540,-2352,-5928,-1.00,-1.0
6606,11472,14460,-19180,-1.00,-1.0
6608,32767,-14088,31000,-1.00,-1.0
6610,12752,-12792,12548,-1.00,-1.0
6614,22500,-3176,180,-1.00,-1.0
6616,32767,-11020,32767,-1.00,-1.0
6618,928,2588,-31008,-1.00,-1.0
6620,8796,6724,-10120,-1.00,-1.0
6622,28716,-11680,31456,-1.00,-1.0
6624,15940,-1380,20204,-1.00,-1.0
6626,6424,7864,-32768,-1.00,-1.0
6628,11200,-3236,-4712,-1.00,-1.0
6630,2520,6108,-12028,-1.00,-1.0
6632,22152,-4172,8648,-1.00,-1.0
6634,26280,-5636,27608,-1.00,-1.0
6636,5596,1808,-25196,-1.00,-1.0
6638,14940,952,992,-1.00,-1.0
6640,23120,-3880,7468,-1.00,-1.0
6641,16436,3920,10144,-1.00,-1.0
6643,14148,676,-25012,-1.00,-1.0
6647,17088,-4456,2808,-1.00,-1.0
6649,13004,2980,5956,-1.00,-1.0
6651,19508,20,-10456,-1.00,-1.0
6653,18736,2284,-8356,-1.00,-1.0
6655,14608,2400,-5740,-1.00,-1.0
6657,20016,-2120,17496,-1.00,-1.0
6659,21980,-2888,8116,-1.00,-1.0
6661,8088,5204,-19412,-1.00,-1.0
6663,12636,1176,2656,-1.00,-1.0
6665,23348,-6888,17760,-1.00,-1.0
6667,18724,1252,13548,-1.00,-1.0
6669,8104,-652,-18532,-1.00,-1.0
6671,14900,3324,-8756,-1.00,-1.0
6673,27208,-5632,21040,-1.00,-1.0
6675,13604,2336,488,-1.00,-1.0
6679,23108,-2564,7528,-1.00,-1.0
6681,15288,168,-3920,-1.00,-1.0
6683,14340,5620,-508,-1.00,-1.0
6685,15740,1304,11976,-1.00,-1.0
6687,19164,-4032,4004,-1.00,-1.0
6689,5056,3768,-8800,-1.00,-1.0
6691,30324,-8340,24548,-1.00,-1.0
6693,11864,6876,-5948,-1.00,-1.0
6695,9732,9560,-32768,-1.00,-1.0
6697,28532,-6028,16592,-1.00,-1.0
6698,18424,-3868,10468,-1.00,-1.0
6700,7524,6740,-7556,-1.00,-1.0
6702,21480,304,-14176,-1.00,-1.0
6704,25908,-6220,14532,-1.00,-1.0
6706,12572,-5264,4600,-1.00,-1.0
6708,11760,1012,716,-1.00,-1.0
6712,17288,-1704,-312,-1.00,-1.0
6714,9224,4316,-12356,-1.00,-1.0
6716,19372,3396,8904,-1.00,-1.0
6718,27440,-5608,23976,-1.00,-1.0
6720,9348,-72,-9104,-1.00,-1.0
6722,4120,12076,-22876,-1.00,-1.0
6724,25708,-1396,15276,-1.00,-1.0
6726,27640,-5684,26428,-1.00,-1.0
6728,4048,6024,-29368,-1.00,-1.0
6730,11400,8108,-18972,-1.00,-1.0
6732,31204,-8656,31320,-1.00,-1.0
6734,21272,-5768,17472,-1.00,-1.0
6736,2968,9300,-32768,-1.00,-1.0
6738,16052,3828,-9016,-1.00,-1.0
6740,6336,4512,-13332,-1.00,-1.0
6744,212,13684,-32768,-1.00,-1.0
6746,22744,2512,816,-1.00,-1.0
6748,32767,-16280,32767,-1.00,-1.0
6750,6800,3164,-2096,-1.00,-1.0
6752,3640,15632,-32768,-1.00,-1.0
6754,31084,-7512,29600,-1.00,-1.0
6756,20648,-10092,24132,-1.00,-1.0
6758,2788,9064,-12540,-1.00,-1.0
6760,14960,8764,-32768,-1.00,-1.0
6762,32767,-8020,30636,-1.00,-1.0
6764,1472,16000,-31788,-1.00,-1.0
6766,31828,-7476,26560,-1.00,-1.0
6768,29792,-8240,30324,-1.00,-1.0
6770,1400,4576,-28648,-1.00,-1.0
6771,7560,8620,-18988,-1.00,-1.0
6773,27232,-2572,21724,-1.00,-1.0
6778,7268,2548,-21656,-1.00,-1.0
6780,5928,10060,-18332,-1.00,-1.0
6781,24788,-3980,18308,-1.00,-1.0
6783,29348,-9760,27892,-1.00,-1.0
6785,6296,4752,-30740,-1.00,-1.0
6787,9584,7340,-18524,-1.00,-1.0
6789,28124,-7112,30304,-1.00,-1.0
6791,23984,-7912,20908,-1.00,-1.0
6793,4828,4192,-27444,-1.00,-1.0
6795,8560,8124,-16080,-1.00,-1.0
6797,25900,-6380,23520,-1.00,-1.0
6799,26936,-5916,19872,-1.00,-1.0
6801,10444,2920,-22272,-1.00,-1.0
6803,10840,2872,-6448,-1.00,-1.0
6805,20972,-5596,21516,-1.00,-1.0
6809,16028,2348,-14020,-1.00,-1.0
6811,13004,-1240,-6520,-1.00,-1.0
6813,16364,1008,14276,-1.00,-1.0
6815,20128,1764,-8856,-1.00,-1.0
6817,23764,-5632,10304,-1.00,-1.0
6819,11228,-2196,3104,-1.00,-1.0
6821,7968,3252,-152,-1.00,-1.0
6823,21552,1520,-752,-1.00,-1.0
6825,25404,-6920,7036,-1.00,-1.0
6827,14144,1044,-7396,-1.00,-1.0
6829,12804,1736,11284,-1.00,-1.0
6831,17016,3484,-15892,-1.00,-1.0
6833,24648,-1188,3456,-1.00,-1.0
6835,6448,5208,-14252,-1.00,-1.0
6836,20956,-5228,12592,-1.00,-1.0
6841,17952,1528,-4264,-1.00,-1.0
6843,22416,-2952,2404,-1.00,-1.0
6845,14372,-1000,10480,-1.00,-1.0
6846,19004,3568,-13580,-1.00,-1.0
6849,26112,-2932,6068,-1.00,-1.0
6851,15804,-4388,6020,-1.00,-1.0
6852,7956,4148,5384,-1.00,-1.0
6854,11172,9892,-20804,-1.00,-1.0
6856,24004,1560,-3264,-1.00,-1.0
6858,25348,-3816,7712,-1.00,-1.0
6860,20512,-4864,27296,-1.00,-1.0
6862,3868,6092,-18948,-1.00,-1.0
6864,9532,7324,-20168,-1.00,-1.0
6866,26768,-4192,7664,-1.00,-1.0
6868,26900,-416,6032,-1.00,-1.0
6870,19916,-8812,17680,-1.00,-1.0
6874,5848,4776,-12712,-1.00,-1.0
6876,26200,-1168,7476,-1.00,-1.0
6878,29996,-8152,22348,-1.00,-1.0
6880,8904,-1400,-7736,-1.00,-1.0
6882,7976,1360,7640,-1.00,-1.0
6884,13912,8072,-19760,-1.00,-1.0
6886,24080,7460,-12000,-1.00,-1.0
6888,29648,-9712,16500,-1.00,-1.0
6890,20568,-7780,28676,-1.00,-1.0
6892,-744,9464,-16796,-1.00,-1.0
6894,30824,-7408,18860,-1.00,-1.0
6896,28056,-2684,10504,-1.00,-1.0
6898,30216,-8632,18324,-1.00,-1.0
6899,9492,9216,-22640,-1.00,-1.0
6901,23324,3836,564,-1.00,-1.0
6905,18828,-2448,9572,-1.00,-1.0
6907,6816,7036,-7956,-1.00,-1.0
6909,10592,480,-5140,-1.00,-1.0
6911,18148,-1324,304,-1.00,-1.0
6913,23628,2612,-10332,-1.00,-1.0
6915,27100,-4776,15624,-1.00,-1.0
6917,13056,-4424,9276,-1.00,-1.0
6919,4372,2652,-1272,-1.00,-1.0
6921,9720,12224,-23800,-1.00,-1.0
6923,25324,5164,-5452,-1.00,-1.0
6925,30616,-6552,14652,-1.00,-1.0
6927,21092,-4348,15284,-1.00,-1.0
6929,3752,6756,-11420,-1.00,-1.0
6931,7720,1548,-1792,-1.00,-1.0
6933,18948,-3444,3128,-1.00,-1.0
6935,22508,7500,-19380,-1.00,-1.0
6939,17928,-11024,24576,-1.00,-1.0
6941,-1200,4688,-9948,-1.00,-1.0
6943,8208,9928,-25880,-1.00,-1.0
6945,32767,-4592,20200,-1.00,-1.0
6947,24972,-5076,8248,-1.00,-1.0
6949,15788,1784,5456,-1.00,-1.0
6951,9320,3212,-5388,-1.00,-1.0
6953,8420,6536,-8624,-1.00,-1.0
6955,20944,-5376,11328,-1.00,-1.0
6957,23576,3320,-11116,-1.00,-1.0
6958,8112,3124,4256,-1.00,-1.0
6960,7812,5404,-17032,-1.00,-1.0
6962,20680,4760,-6576,-1.00,-1.0
6964,28460,3372,-5776,-1.00,-1.0
6966,27440,-4076,13012,-1.00,-1.0
6970,2880,-972,2680,-1.00,-1.0
6972,8536,11640,-27120,-1.00,-1.0
6974,28612,1092,904,-1.00,-1.0
6976,28768,-4500,6784,-1.00,-1.0
6978,18368,540,10000,-1.00,-1.0
6980,8920,-1668,8764,-1.00,-1.0
6982,4304,4736,-5408,-1.00,-1.0
6984,13404,4384,-8780,-1.00,-1.0
6986,26248,6588,-14488,-1.00,-1.0
6988,30780,1652,1600,-1.00,-1.0
6990,20424,-2716,3836,-1.00,-1.0
6992,15612,-14032,32767,-1.00,-1.0
6994,-1516,4060,-13864,-1.00,-1.0
6996,6260,12200,-24220,-1.00,-1.0
6998,28724,-3144,-5220,-1.00,-1.0
7000,32767,-2568,13972,-1.00,-1.0
7004,4132,2004,464,-1.00,-1.0
7006,8752,-1124,6508,-1.00,-1.0
7008,17104,4116,-6180,-1.00,-1.0
7010,22176,4188,-10532,-1.00,-1.0
7012,23968,-428,-816,-1.00,-1.0
7014,24108,-4884,14468,-1.00,-1.0
7016,11572,-1392,7508,-1.00,-1.0
7018,3436,4160,-8156,-1.00,-1.0
7020,14284,-792,436,-1.00,-1.0
7022,24152,2700,-5364,-1.00,-1.0
7023,5596,2328,-2656,-1.00,-1.0
7026,20128,-2576,1348,-1.00,-1.0
7027,22520,-16212,32767,-1.00,-1.0
7029,21852,13092,-31376,-1.00,-1.0
7031,32767,-5276,19376,-1.00,-1.0
7036,32767,-6892,13912,-1.00,-1.0
7037,18240,-2860,5528,-1.00,-1.0
7039,20416,7508,-12740,-1.00,-1.0
7041,28184,2664,-8112,-1.00,-1.0
7043,29608,-2548,3480,-1.00,-1.0
7045,19860,-8564,22220,-1.00,-1.0
7047,1740,-1184,1992,-1.00,-1.0
7049,9356,-7264,26344,-1.00,-1.0
7051,10196,7836,-21572,-1.00,-1.0
7053,19224,15160,-32768,-1.00,-1.0
7055,32767,-5004,15164,-1.00,-1.0
7057,29328,-15688,32767,-1.00,-1.0
7059,-84,-52,-8048,-1.00,-1.0
7061,1484,5844,-17464,-1.00,-1.0
7063,23780,-7964,12724,-1.00,-1.0
7065,23304,7844,-24088,-1.00,-1.0
7069,23976,-12736,29104,-1.00,-1.0
7071,9984,-8208,24548,-1.00,-1.0
7073,-3352,8052,-24040,-1.00,-1.0
7075,11960,11484,-25616,-1.00,-1.0
7077,32767,-2832,13196,-1.00,-1.0
7079,28412,-872,-1344,-1.00,-1.0
7081,15848,-1268,4260,-1.00,-1.0
7083,8816,-2580,8296,-1.00,-1.0
7085,10592,-2916,15500,-1.00,-1.0
7087,10296,9648,-26444,-1.00,-1.0
7088,22700,7452,-11616,-1.00,-1.0
7091,28816,-3340,3836,-1.00,-1.0
7093,24516,-3920,17884,-1.00,-1.0
7094,11000,-7220,14672,-1.00,-1.0
7096,25608,6260,-16292,-1.00,-1.0
7101,26000,3140,-11776,-1.00,-1.0
7103,32767,-7172,17604,-1.00,-1.0
7104,16936,-4340,4184,-1.00,-1.0
7107,9668,-1732,5956,-1.00,-1.0
7109,12064,-3088,14128,-1.00,-1.0
7110,9404,4028,-6408,-1.00,-1.0
7112,20980,-10032,18948,-1.00,-1.0
7114,17364,-12080,32767,-1.00,-1.0
7116,-1072,4152,-15652,-1.00,-1.0
7118,1484,19972,-32768,-1.00,-1.0
7120,32767,0,15988,-1.00,-1.0
7122,32767,-14156,30828,-1.00,-1.0
7124,3532,7972,-13600,-1.00,-1.0
7126,3312,920,-2676,-1.00,-1.0
7128,17872,-9592,26864,-1.00,-1.0
7132,25568,6340,-19960,-1.00,-1.0
7134,32767,-10416,25212,-1.00,-1.0
7136,19320,-10436,23008,-1.00,-1.0
7138,108,-1448,5584,-1.00,-1.0
7140,-532,4984,-15404,-1.00,-1.0
7142,19644,2264,-2816,-1.00,-1.0
7144,26908,8520,-20288,-1.00,-1.0
7146,29468,-496,-2044,-1.00,-1.0
7148,23156,-10748,29720,-1.00,-1.0
7150,5756,-6488,17088,-1.00,-1.0
7152,-2024,9752,-27912,-1.00,-1.0
7154,19232,5396,-9720,-1.00,-1.0
7156,32767,-4772,8752,-1.00,-1.0
7157,25432,2572,-4420,-1.00,-1.0
7159,16320,-6528,20412,-1.00,-1.0
7163,4508,3528,60,-1.00,-1.0
7165,15552,11480,-29100,-1.00,-1.0
7167,5980,-7768,15016,-1.00,-1.0
7169,-2004,-72,-2560,-1.00,-1.0
7171,9596,2660,-1196,-1.00,-1.0
7173,22708,9920,-32720,-1.00,-1.0
7175,32767,4336,4420,-1.00,-1.0
7177,25736,-11512,21372,-1.00,-1.0
7179,8476,-4684,26856,-1.00,-1.0
7181,-1972,3376,-14220,-1.00,-1.0
7183,10616,8092,-19924,-1.00,-1.0
7185,31088,-960,9636,-1.00,-1.0
7187,31156,-7160,9016,-1.00,-1.0
7189,17148,-1880,8192,-1.00,-1.0
7191,2612,1640,-10004,-1.00,-1.0
7193,12880,-4688,22724,-1.00,-1.0
7197,21296,10040,-26816,-1.00,-1.0
7199,32196,-5808,14380,-1.00,-1.0
7201,22432,-10376,26856,-1.00,-1.0
7203,2584,-380,5192,-1.00,-1.0
7205,1624,5120,-16688,-1.00,-1.0
7207,20804,1924,-8052,-1.00,-1.0
7209,28260,10068,-23556,-1.00,-1.0
7211,32767,-5968,19848,-1.00,-1.0
7213,13800,-8256,22352,-1.00,-1.0
7215,-2336,1648,2932,-1.00,-1.0
7216,5288,8560,-29720,-1.00,-1.0
7219,26764,6676,-2724,-1.00,-1.0
7221,31284,-4180,2676,-1.00,-1.0
7222,24732,-3096,9812,-1.00,-1.0
7224,10248,-1748,8776,-1.00,-1.0
7229,13168,-4948,18436,-1.00,-1.0
7231,12608,13068,-32768,-1.00,-1.0
7232,27888,9420,-20940,-1.00,-1.0
7234,32767,-14200,32767,-1.00,-1.0
7236,12644,-7680,19028,-1.00,-1.0
7238,-3632,8728,-30484,-1.00,-1.0
7240,27896,-3380,19624,-1.00,-1.0
7242,6260,-1596,-132,-1.00,-1.0
7244,9304,-6704,17388,-1.00,-1.0
7246,10864,7156,-20152,-1.00,-1.0
7248,19664,10680,-30004,-1.00,-1.0
7250,32767,-8620,22356,-1.00,-1.0
7252,26820,-13728,32767,-1.00,-1.0
7254,-2492,1064,-5024,-1.00,-1.0
7256,-3616,14864,-32768,-1.00,-1.0
7260,3528,3360,-11232,-1.00,-1.0
7262,13480,8576,-15748,-1.00,-1.0
7264,11708,-6048,10128,-1.00,-1.0
7266,8924,-5052,19080,-1.00,-1.0
7268,7020,9016,-26228,-1.00,-1.0
7270,20520,8336,-19212,-1.00,-1.0
7272,32767,-8348,14584,-1.00,-1.0
7274,26028,-6664,23396,-1.00,-1.0
7276,5524,-3712,4048,-1.00,-1.0
7278,-1764,9348,-23884,-1.00,-1.0
7280,19472,228,5532,-1.00,-1.0
7282,29032,-3460,-2876,-1.00,-1.0
7284,29264,-7660,17948,-1.00,-1.0
7286,11708,-5644,2852,-1.00,-1.0
7288,7424,-200,9952,-1.00,-1.0
7290,10924,2448,-7880,-1.00,-1.0
7294,27156,1144,-13932,-1.00,-1.0
7296,31772,-1696,17332,-1.00,-1.0
7298,18804,-13568,30808,-1.00,-1.0
7300,-5524,5604,-18832,-1.00,-1.0
7302,7796,6928,-11236,-1.00,-1.0
7304,31716,-8728,7496,-1.00,-1.0
7306,28964,-2132,9480,-1.00,-1.0
7308,14008,-2828,-1376,-1.00,-1.0
7310,12920,-2752,19428,-1.00,-1.0
7311,4708,7252,-14784,-1.00,-1.0
7313,11692,10608,-18912,-1.00,-1.0
7315,28868,-352,2220,-1.00,-1.0
7317,30176,-3424,6524,-1.00,-1.0
7319,19604,-6532,25356,-1.00,-1.0
7321,19284,11396,-30112,-1.00,-1.0
7325,15384,9772,-28972,-1.00,-1.0
7327,28220,7904,-20916,-1.00,-1.0
7329,32767,-10808,32767,-1.00,-1.0
7331,12152,6560,-11640,-1.00,-1.0
7333,-3312,11968,-24856,-1.00,-1.0
7335,11620,4768,-10048,-1.00,-1.0
7337,10788,-2156,2044,-1.00,-1.0
7339,9792,-3868,18452,-1.00,-1.0
7341,8220,6912,-13656,-1.00,-1.0
7343,15804,10500,-30196,-1.00,-1.0
7345,32767,-1788,4080,-1.00,-1.0
7347,32016,-10028,23012,-1.00,-1.0
7349,9816,-5948,16280,-1.00,-1.0
7351,-2836,2056,-5392,-1.00,-1.0
7353,8284,4488,-6252,-1.00,-1.0
7357,32767,1784,13276,-1.00,-1.0
7359,23448,-14204,26444,-1.00,-1.0
7361,7108,-5148,24512,-1.00,-1.0
7363,-2932,11484,-32768,-1.00,-1.0
7365,17592,8788,-18796,-1.00,-1.0
7367,32767,-7944,29892,-1.00,-1.0
7369,21408,-2848,2520,-1.00,-1.0
7371,5532,10496,-14228,-1.00,-1.0
7373,10872,-708,3596,-1.00,-1.0
7375,16976,-1496,8844,-1.00,-1.0
7376,15824,10912,-32768,-1.00,-1.0
7379,32700,-2856,7440,-1.00,-1.0
7381,26116,-12848,32100,-1.00,-1.0
7382,2044,-3076,6460,-1.00,-1.0
7384,2628,6348,-13276,-1.00,-1.0
7389,26908,5100,-20820,-1.00,-1.0
7391,32767,-6376,23468,-1.00,-1.0
7393,20516,-20996,32767,-1.00,-1.0
7395,-11532,8696,-27740,-1.00,-1.0
7397,7872,9556,-16396,-1.00,-1.0
7399,32767,-6680,528,-1.00,-1.0
7401,28952,1508,9068,-1.00,-1.0
7403,14732,-5388,3376,-1.00,-1.0
7405,11944,-3404,21880,-1.00,-1.0
7407,1972,9816,-20548,-1.00,-1.0
7409,12144,11468,-21488,-1.00,-1.0
7410,31040,-1688,68,-1.00,-1.0
7412,30644,-2876,8096,-1.00,-1.0
7414,21000,-16180,32767,-1.00,-1.0
7416,-4852,2508,-19744,-1.00,-1.0
7420,32767,-12392,19524,-1.00,-1.0
7422,27316,-1288,14768,-1.00,-1.0
7424,9176,-684,-6008,-1.00,-1.0
7426,14172,-6368,23364,-1.00,-1.0
7428,8700,10348,-15992,-1.00,-1.0
7430,14472,13044,-32768,-1.00,-1.0
7432,32767,-7920,27600,-1.00,-1.0
7434,2700,10008,-16272,-1.00,-1.0
7436,1060,6624,-8456,-1.00,-1.0
7438,32064,-2304,8932,-1.00,-1.0
7440,20720,-7024,9716,-1.00,-1.0
7442,10648,-1844,15772,-1.00,-1.0
7444,1644,8300,-17636,-1.00,-1.0
7446,11576,11540,-21908,-1.00,-1.0
7448,32484,-5396,17052,-1.00,-1.0
7450,26828,-6872,5432,-1.00,-1.0
7454,7424,-2228,-988,-1.00,-1.0
7456,13768,-644,10804,-1.00,-1.0
7458,14816,9800,-25556,-1.00,-1.0
7460,30104,-3656,2292,-1.00,-1.0
7462,26076,-8808,22328,-1.00,-1.0
7464,7056,1484,-8540,-1.00,-1.0
7466,5904,10160,-18596,-1.00,-1.0
7468,19324,736,320,-1.00,-1.0
7470,24532,-3236,3868,-1.00,-1.0
7472,23740,-3120,3860,-1.00,-1.0
7473,17552,-6260,16516,-1.00,-1.0
7476,4320,1328,-5804,-1.00,-1.0
7477,10968,2612,-3864,-1.00,-1.0
7479,21284,8432,-22044,-1.00,-1.0
7481,32767,-7520,18184,-1.00,-1.0
7486,1972,4368,-15440,-1.00,-1.0
7487,11644,4656,-9300,-1.00,-1.0
7489,25144,-5128,15296,-1.00,-1.0
7491,21136,-3380,4028,-1.00,-1.0
7493,19288,-756,1372,-1.00,-1.0
7495,15404,-444,5280,-1.00,-1.0
7497,7628,4844,-5088,-1.00,-1.0
7499,16216,-1484,8332,-1.00,-1.0
7501,21404,3216,-6560,-1.00,-1.0
7503,20764,3112,-7116,-1.00,-1.0
7505,9892,1720,-9492,-1.00,-1.0
7507,17220,3572,-6424,-1.00,-1.0
7509,23544,4636,-10724,-1.00,-1.0
7511,29284,-9336,22124,-1.00,-1.0
7513,11808,-4436,8760,-1.00,-1.0
7515,3976,1872,-7276,-1.00,-1.0
7519,22104,-1448,3328,-1.00,-1.0
7521,17512,1264,-11044,-1.00,-1.0
7523,24580,-4292,19632,-1.00,-1.0
7525,15616,-5856,17452,-1.00,-1.0
7527,-1164,10256,-21488,-1.00,-1.0
7529,16004,2056,-624,-1.00,-1.0
7531,29468,-832,-3408,-1.00,-1.0
7533,24984,3160,-6332,-1.00,-1.0
7535,19560,-8464,16268,-1.00,-1.0
7537,13516,-12016,32708,-1.00,-1.0
7538,1212,6728,-22028,-1.00,-1.0
7541,12780,12700,-24324,-1.00,-1.0
7543,32767,-7724,13268,-1.00,-1.0
7544,30432,-8132,23184,-1.00,-1.0
7546,8180,208,-5976,-1.00,-1.0
7551,20892,-5840,21868,-1.00,-1.0
7553,23584,-5196,12624,-1.00,-1.0
7554,10928,12676,-27088,-1.00,-1.0
7556,19040,16,-3116,-1.00,-1.0
7558,29616,-13596,32767,-1.00,-1.0
7560,5508,5296,-17224,-1.00,-1.0
7562,3660,13120,-29152,-1.00,-1.0
7564,29092,-8944,19920,-1.00,-1.0
7566,28564,-9564,16416,-1.00,-1.0
7568,7852,10236,-19800,-1.00,-1.0
7570,11052,428,-2020,-1.00,-1.0
7572,21564,-7364,26008,-1.00,-1.0
7574,11960,8592,-19876,-1.00,-1.0
7576,18808,-6572,14720,-1.00,-1.0
7578,5372,7180,-12612,-1.00,-1.0
7582,6616,8412,-15812,-1.00,-1.0
7584,15460,-1836,4492,-1.00,-1.0
7586,19716,-2728,3212,-1.00,-1.0
7588,19956,-6040,20684,-1.00,-1.0
7590,9632,6800,-12168,-1.00,-1.0
7592,9952,7348,-16884,-1.00,-1.0
7594,24384,-6128,10940,-1.00,-1.0
7596,24796,-2812,-616,-1.00,-1.0
7598,19384,-7136,17220,-1.00,-1.0
7600,5896,1920,-12888,-1.00,-1.0
7602,13148,1760,4372,-1.00,-1.0
7604,25284,-9064,16628,-1.00,-1.0
7606,17924,4288,-4028,-1.00,-1.0
7608,12400,4732,-14332,-1.00,-1.0
7609,23392,-5268,25072,-1.00,-1.0
7611,15504,344,10112,-1.00,-1.0
7616,23796,-228,11748,-1.00,-1.0
7618,29232,-8296,14088,-1.00,-1.0
7620,12968,5800,-5816,-1.00,-1.0
7622,8912,2764,-5720,-1.00,-1.0
7624,18564,-3732,17836,-1.00,-1.0
7625,13672,8532,-22896,-1.00,-1.0
7627,22120,872,-2752,-1.00,-1.0
7629,25688,-9320,19460,-1.00,-1.0
7631,13816,-488,-1572,-1.00,-1.0
7633,9196,7448,-13744,-1.00,-1.0
7635,17036,-1088,1624,-1.00,-1.0
7637,22744,-7628,12132,-1.00,-1.0
7639,18020,4192,-10200,-1.00,-1.0
7641,19184,-3412,7048,-1.00,-1.0
7643,14424,-1508,2576,-1.00,-1.0
7647,18592,-1036,-256,-1.00,-1.0
7649,21536,-3244,5876,-1.00,-1.0
7651,18380,-4216,2168,-1.00,-1.0
7653,21092,-3788,16000,-1.00,-1.0
7655,14528,-188,5148,-1.00,-1.0
7657,9116,5092,-13372,-1.00,-1.0
7659,22300,-10368,21284,-1.00,-1.0
7661,15384,-5816,20356,-1.00,-1.0
7663,988,14640,-31876,-1.00,-1.0
7665,13912,14620,-31132,-1.00,-1.0
7667,32767,-11572,32767,-1.00,-1.0
7669,19452,-5644,4760,-1.00,-1.0
7671,-1788,19440,-32768,-1.00,-1.0
7673,15108,760,1824,-1.00,-1.0
7674,26416,-8644,26560,-1.00,-1.0
7679,18568,-668,-4656,-1.00,-1.0
7681,22980,-10140,21348,-1.00,-1.0
7682,11772,124,-2612,-1.00,-1.0
7684,9632,8672,-16508,-1.00,-1.0
7686,19656,-2084,-504,-1.00,-1.0
7688,23956,-8076,13320,-1.00,-1.0
7690,18380,-888,-632,-1.00,-1.0
7692,14480,-912,2716,-1.00,-1.0
7694,8656,4744,-12520,-1.00,-1.0
7696,18616,392,11400,-1.00,-1.0
7698,24616,-4672,10160,-1.00,-1.0
7700,14232,6740,-10512,-1.00,-1.0
7702,11880,2176,-8272,-1.00,-1.0
7704,21780,-5128,20320,-1.00,-1.0
7706,13848,6180,-7944,-1.00,-1.0
7708,19916,-3544,9144,-1.00,-1.0
7712,24704,-10224,12204,-1.00,-1.0
