timestamp_ms,accel_x,accel_y,accel_z,voltage,soc
1,17008,-24,608,-1.00,-1.0
3,16984,72,512,-1.00,-1.0
5,17008,-20,668,-1.00,-1.0
11,16912,-172,676,-1.00,-1.0
13,16956,20,864,-1.00,-1.0
15,16920,-140,748,-1.00,-1.0
17,16908,-8,540,-1.00,-1.0
19,16952,-8,564,-1.00,-1.0
21,17028,16,752,-1.00,-1.0
23,16972,-28,596,-1.00,-1.0
25,17072,0,572,-1.00,-1.0
26,17092,16,712,-1.00,-1.0
28,16996,48,584,-1.00,-1.0
30,17016,56,760,-1.00,-1.0
32,17024,44,560,-1.00,-1.0
34,17028,12,780,-1.00,-1.0
36,16908,-20,708,-1.00,-1.0
38,16948,36,724,-1.00,-1.0
40,16992,-60,616,-1.00,-1.0
42,17004,-60,536,-1.00,-1.0
44,16928,20,676,-1.00,-1.0
46,16952,-24,676,-1.00,-1.0
50,17048,-24,856,-1.00,-1.0
52,16944,84,624,-1.00,-1.0
54,17064,36,696,-1.00,-1.0
56,17028,-24,580,-1.00,-1.0
58,16964,60,604,-1.00,-1.0
60,16992,-72,616,-1.00,-1.0
62,16924,-16,556,-1.00,-1.0
63,17036,-8,608,-1.00,-1.0
65,16972,-48,576,-1.00,-1.0
67,16988,60,564,-1.00,-1.0
69,17052,48,568,-1.00,-1.0
71,17052,-44,632,-1.00,-1.0
73,17088,36,688,-1.00,-1.0
75,17056,-56,804,-1.00,-1.0
77,16932,24,628,-1.00,-1.0
79,16940,76,716,-1.00,-1.0
81,17008,-44,732,-1.00,-1.0
83,17020,100,728,-1.00,-1.0
85,17020,72,684,-1.00,-1.0
89,16932,40,668,-1.00,-1.0
91,16896,84,600,-1.00,-1.0
93,17016,-64,652,-1.00,-1.0
95,17040,-100,792,-1.00,-1.0
97,16892,20,644,-1.00,-1.0
99,16956,60,616,-1.00,-1.0
101,16992,32,716,-1.00,-1.0
102,16952,12,696,-1.00,-1.0
104,16912,84,584,-1.00,-1.0
106,16932,-48,740,-1.00,-1.0
108,17048,80,612,-1.00,-1.0
110,16960,60,660,-1.00,-1.0
112,16932,-76,684,-1.00,-1.0
114,16992,-28,640,-1.00,-1.0
116,17012,-4,624,-1.00,-1.0
118,16968,52,640,-1.00,-1.0
120,16976,52,704,-1.00,-1.0
122,17012,28,548,-1.00,-1.0
126,16956,84,672,-1.00,-1.0
128,16968,-28,624,-1.00,-1.0
130,16848,16,528,-1.00,-1.0
132,17028,32,780,-1.00,-1.0
134,16976,40,672,-1.00,-1.0
136,16924,-20,692,-1.00,-1.0
138,16896,8,496,-1.00,-1.0
140,16912,-4,628,-1.00,-1.0
142,16992,0,564,-1.00,-1.0
144,17104,-60,692,-1.00,-1.0
146,17068,-44,656,-1.00,-1.0
147,16992,4,684,-1.00,-1.0
149,17036,-32,604,-1.00,-1.0
151,16940,-92,572,-1.00,-1.0
153,17016,24,660,-1.00,-1.0
155,17056,-52,604,-1.00,-1.0
157,17048,-28,696,-1.00,-1.0
159,16972,-48,528,-1.00,-1.0
163,17112,32,624,-1.00,-1.0
165,17048,-20,648,-1.00,-1.0
167,17036,8,528,-1.00,-1.0
169,16964,16,568,-1.00,-1.0
171,16968,44,668,-1.00,-1.0
173,17024,-36,624,-1.00,-1.0
175,17016,-16,624,-1.00,-1.0
177,17020,-60,620,-1.00,-1.0
179,16960,60,656,-1.00,-1.0
181,16920,12,552,-1.00,-1.0
183,16972,0,564,-1.00,-1.0
185,17088,44,640,-1.00,-1.0
186,16928,-40,716,-1.00,-1.0
188,17024,28,772,-1.00,-1.0
190,16976,32,760,-1.00,-1.0
192,16976,-40,472,-1.00,-1.0
194,16936,16,712,-1.00,-1.0
196,16988,-112,572,-1.00,-1.0
200,16912,-40,660,-1.00,-1.0
202,16952,-64,568,-1.00,-1.0
204,17008,-60,616,-1.00,-1.0
206,16968,4,656,-1.00,-1.0
208,16996,-68,632,-1.00,-1.0
210,16900,-88,680,-1.00,-1.0
212,16984,-52,572,-1.00,-1.0
214,16924,36,624,-1.00,-1.0
216,17008,0,748,-1.00,-1.0
218,16956,-24,672,-1.00,-1.0
220,17008,40,628,-1.00,-1.0
222,16952,4,620,-1.00,-1.0
224,17016,28,632,-1.00,-1.0
226,16952,12,588,-1.00,-1.0
228,16968,52,684,-1.00,-1.0
230,17004,-112,636,-1.00,-1.0
231,16948,4,580,-1.00,-1.0
233,16868,-4,516,-1.00,-1.0
238,17004,80,792,-1.00,-1.0
240,17044,-40,528,-1.00,-1.0
241,17036,40,596,-1.00,-1.0
243,17068,92,584,-1.00,-1.0
245,16888,72,516,-1.00,-1.0
247,16960,-76,492,-1.00,-1.0
249,17092,-32,580,-1.00,-1.0
251,17008,-28,676,-1.00,-1.0
253,17092,84,596,-1.00,-1.0
255,16976,-116,728,-1.00,-1.0
257,16952,24,512,-1.00,-1.0
259,16932,36,640,-1.00,-1.0
261,16984,-96,600,-1.00,-1.0
263,17000,-12,768,-1.00,-1.0
265,16952,44,620,-1.00,-1.0
267,16948,-40,772,-1.00,-1.0
269,16924,-56,640,-1.00,-1.0
271,16984,56,484,-1.00,-1.0
275,16976,-48,756,-1.00,-1.0
277,17060,76,572,-1.00,-1.0
279,16984,-40,720,-1.00,-1.0
281,17000,-76,676,-1.00,-1.0
282,16936,28,572,-1.00,-1.0
284,17020,24,612,-1.00,-1.0
286,16996,-36,608,-1.00,-1.0
288,16956,-40,532,-1.00,-1.0
290,16984,-36,604,-1.00,-1.0
292,16952,-72,656,-1.00,-1.0
294,16992,12,560,-1.00,-1.0
296,17076,-28,644,-1.00,-1.0
298,17060,-24,556,-1.00,-1.0
300,17008,-20,488,-1.00,-1.0
302,16948,-16,740,-1.00,-1.0
304,16940,-64,820,-1.00,-1.0
306,16972,12,740,-1.00,-1.0
308,16988,32,632,-1.00,-1.0
312,16940,32,580,-1.00,-1.0
314,16960,-8,564,-1.00,-1.0
316,17012,-32,572,-1.00,-1.0
318,16964,-48,768,-1.00,-1.0
319,16976,76,712,-1.00,-1.0
322,17000,-32,832,-1.00,-1.0
324,16956,-124,632,-1.00,-1.0
325,16992,28,728,-1.00,-1.0
327,16964,-8,740,-1.00,-1.0
329,17104,12,512,-1.00,-1.0
331,16912,20,684,-1.00,-1.0
333,16968,16,644,-1.00,-1.0
335,16920,-8,592,-1.00,-1.0
337,17056,16,784,-1.00,-1.0
339,16944,-104,612,-1.00,-1.0
341,16984,-40,720,-1.00,-1.0
343,16908,-56,508,-1.00,-1.0
345,16872,0,684,-1.00,-1.0
349,16980,-32,552,-1.00,-1.0
351,16968,80,572,-1.00,-1.0
353,16988,56,564,-1.00,-1.0
355,16968,-8,704,-1.00,-1.0
356,16908,136,608,-1.00,-1.0
359,17068,-28,644,-1.00,-1.0
361,17044,-24,568,-1.00,-1.0
362,16980,120,756,-1.00,-1.0
364,17040,-48,756,-1.00,-1.0
366,16996,44,548,-1.00,-1.0
368,17020,44,664,-1.00,-1.0
370,17028,-24,712,-1.00,-1.0
372,16960,8,616,-1.00,-1.0
374,16996,20,692,-1.00,-1.0
376,17040,36,500,-1.00,-1.0
378,16948,-12,748,-1.00,-1.0
380,17072,28,684,-1.00,-1.0
382,16948,-32,700,-1.00,-1.0
386,16956,8,564,-1.00,-1.0
388,17012,136,600,-1.00,-1.0
390,16932,-8,672,-1.00,-1.0
392,16988,-52,564,-1.00,-1.0
394,17072,8,652,-1.00,-1.0
396,17024,-32,580,-1.00,-1.0
398,16916,-24,580,-1.00,-1.0
400,16896,12,616,-1.00,-1.0
401,16972,-88,596,-1.00,-1.0
404,17020,-44,616,-1.00,-1.0
406,17064,-32,544,-1.00,-1.0
407,17096,24,544,-1.00,-1.0
409,16912,-20,732,-1.00,-1.0
411,16956,0,664,-1.00,-1.0
413,17020,-68,488,-1.00,-1.0
415,16920,-12,676,-1.00,-1.0
417,16976,-28,624,-1.00,-1.0
419,17040,28,692,-1.00,-1.0
423,17100,48,716,-1.00,-1.0
425,16992,-40,648,-1.00,-1.0
427,17052,-8,472,-1.00,-1.0
429,17000,80,660,-1.00,-1.0
431,16904,8,692,-1.00,-1.0
433,16964,-28,736,-1.00,-1.0
435,16992,0,668,-1.00,-1.0
437,16964,56,516,-1.00,-1.0
439,16980,12,696,-1.00,-1.0
441,16968,-100,576,-1.00,-1.0
443,16956,-56,624,-1.00,-1.0
445,16956,-48,660,-1.00,-1.0
446,16984,-68,608,-1.00,-1.0
448,16948,12,552,-1.00,-1.0
450,17000,84,692,-1.00,-1.0
452,17020,-64,692,-1.00,-1.0
454,16972,-104,536,-1.00,-1.0
456,16944,-92,640,-1.00,-1.0
460,16976,-16,628,-1.00,-1.0
462,16940,-24,592,-1.00,-1.0
464,16948,0,572,-1.00,-1.0
466,17012,48,772,-1.00,-1.0
468,17076,-124,648,-1.00,-1.0
470,16960,64,516,-1.00,-1.0
472,16960,-156,636,-1.00,-1.0
474,16956,-48,608,-1.00,-1.0
476,16932,60,624,-1.00,-1.0
478,16984,20,648,-1.00,-1.0
480,17048,-20,528,-1.00,-1.0
482,16884,-32,720,-1.00,-1.0
484,17012,-68,524,-1.00,-1.0
486,16980,40,640,-1.00,-1.0
488,17020,-28,640,-1.00,-1.0
490,16928,-68,628,-1.00,-1.0
491,16980,-80,604,-1.00,-1.0
493,16964,-60,572,-1.00,-1.0
498,16976,-108,540,-1.00,-1.0
500,16984,16,700,-1.00,-1.0
502,16992,16,628,-1.00,-1.0
504,17036,88,740,-1.00,-1.0
506,16960,20,556,-1.00,-1.0
508,17024,-28,668,-1.00,-1.0
509,17000,-88,752,-1.00,-1.0
511,17032,-164,804,-1.00,-1.0
513,16980,-28,664,-1.00,-1.0
515,17048,-32,604,-1.00,-1.0
517,16932,-28,624,-1.00,-1.0
519,16892,0,756,-1.00,-1.0
521,16996,-12,584,-1.00,-1.0
523,16984,-28,728,-1.00,-1.0
525,16940,-56,676,-1.00,-1.0
527,16944,-36,672,-1.00,-1.0
529,16956,12,648,-1.00,-1.0
531,17044,-12,640,-1.00,-1.0
535,16964,56,708,-1.00,-1.0
537,16924,-60,564,-1.00,-1.0
539,16992,-8,656,-1.00,-1.0
541,16980,-16,524,-1.00,-1.0
543,17060,8,648,-1.00,-1.0
545,16964,64,672,-1.00,-1.0
547,16948,-120,628,-1.00,-1.0
549,17116,-24,524,-1.00,-1.0
550,16988,-68,676,-1.00,-1.0
552,17056,-88,748,-1.00,-1.0
554,16920,72,536,-1.00,-1.0
556,16908,-28,572,-1.00,-1.0
558,17016,-100,576,-1.00,-1.0
560,17016,32,560,-1.00,-1.0
562,16896,-8,556,-1.00,-1.0
564,16944,32,468,-1.00,-1.0
566,16928,88,548,-1.00,-1.0
568,17040,-20,688,-1.00,-1.0
572,16876,84,660,-1.00,-1.0
574,17044,32,648,-1.00,-1.0
576,16964,84,680,-1.00,-1.0
578,16952,-44,584,-1.00,-1.0
580,17016,12,640,-1.00,-1.0
582,17040,32,492,-1.00,-1.0
584,16948,-12,684,-1.00,-1.0
586,16936,-76,604,-1.00,-1.0
588,17024,-68,648,-1.00,-1.0
590,16976,-28,656,-1.00,-1.0
592,16996,-140,692,-1.00,-1.0
594,16968,-16,560,-1.00,-1.0
595,17084,60,632,-1.00,-1.0
597,17012,-20,668,-1.00,-1.0
599,16976,16,696,-1.00,-1.0
601,17040,-88,612,-1.00,-1.0
603,16984,-48,540,-1.00,-1.0
607,17016,56,644,-1.00,-1.0
609,17052,32,648,-1.00,-1.0
611,16996,12,652,-1.00,-1.0
613,16940,52,512,-1.00,-1.0
615,17028,36,648,-1.00,-1.0
617,17040,72,616,-1.00,-1.0
619,17000,-56,728,-1.00,-1.0
621,16952,-28,672,-1.00,-1.0
623,16940,-12,584,-1.00,-1.0
625,17064,20,660,-1.00,-1.0
627,16980,-56,756,-1.00,-1.0
629,16988,-44,752,-1.00,-1.0
631,16952,-60,632,-1.00,-1.0
632,17036,-16,548,-1.00,-1.0
634,17028,24,672,-1.00,-1.0
636,16964,4,532,-1.00,-1.0
638,17036,0,636,-1.00,-1.0
640,16948,4,656,-1.00,-1.0
642,16984,-68,680,-1.00,-1.0
646,16948,-40,700,-1.00,-1.0
648,16980,60,560,-1.00,-1.0
650,17068,64,648,-1.00,-1.0
652,17032,36,544,-1.00,-1.0
654,16980,-32,548,-1.00,-1.0
656,17028,20,584,-1.00,-1.0
658,17012,-8,552,-1.00,-1.0
660,16968,52,664,-1.00,-1.0
662,17004,-64,696,-1.00,-1.0
664,17000,12,640,-1.00,-1.0
666,16980,44,636,-1.00,-1.0
667,17008,88,552,-1.00,-1.0
669,17040,-100,644,-1.00,-1.0
671,17032,-12,652,-1.00,-1.0
673,16956,20,596,-1.00,-1.0
675,17000,-104,620,-1.00,-1.0
677,17068,-32,608,-1.00,-1.0
679,16972,-108,664,-1.00,-1.0
683,16816,-92,700,-1.00,-1.0
685,16972,-104,712,-1.00,-1.0
687,16964,24,676,-1.00,-1.0
689,16976,36,596,-1.00,-1.0
691,17032,76,760,-1.00,-1.0
693,17004,96,544,-1.00,-1.0
695,16964,12,548,-1.00,-1.0
697,16948,28,700,-1.00,-1.0
699,16992,-12,744,-1.00,-1.0
701,17116,-104,620,-1.00,-1.0
703,17020,8,604,-1.00,-1.0
705,16980,8,528,-1.00,-1.0
707,16940,64,636,-1.00,-1.0
709,17048,16,512,-1.00,-1.0
711,17032,28,500,-1.00,-1.0
712,16996,28,628,-1.00,-1.0
714,17044,-12,556,-1.00,-1.0
716,17036,8,560,-1.00,-1.0
720,16964,32,632,-1.00,-1.0
722,16960,-4,680,-1.00,-1.0
724,16976,-20,620,-1.00,-1.0
726,16944,16,592,-1.00,-1.0
728,17012,0,696,-1.00,-1.0
730,16924,32,628,-1.00,-1.0
732,16904,-60,572,-1.00,-1.0
734,17016,-52,660,-1.00,-1.0
736,16980,124,660,-1.00,-1.0
738,16940,20,720,-1.00,-1.0
740,17004,-12,712,-1.00,-1.0
742,17004,-4,600,-1.00,-1.0
744,17048,48,716,-1.00,-1.0
746,16972,28,604,-1.00,-1.0
748,17016,-136,524,-1.00,-1.0
750,16964,-64,688,-1.00,-1.0
751,17056,0,568,-1.00,-1.0
753,16992,4,704,-1.00,-1.0
758,16956,-56,660,-1.00,-1.0
760,16896,-80,588,-1.00,-1.0
761,16928,-36,660,-1.00,-1.0
763,17060,100,744,-1.00,-1.0
765,16976,-32,608,-1.00,-1.0
767,17008,-4,680,-1.00,-1.0
769,17000,60,640,-1.00,-1.0
771,17016,12,636,-1.00,-1.0
773,16940,12,680,-1.00,-1.0
775,16988,-80,536,-1.00,-1.0
777,17016,8,692,-1.00,-1.0
779,17140,-72,728,-1.00,-1.0
781,16900,-16,652,-1.00,-1.0
783,16948,-28,660,-1.00,-1.0
785,17004,-72,688,-1.00,-1.0
787,17032,-96,476,-1.00,-1.0
789,16992,-84,504,-1.00,-1.0
791,17004,32,704,-1.00,-1.0
795,16956,36,656,-1.00,-1.0
797,16984,12,624,-1.00,-1.0
799,16976,-28,744,-1.00,-1.0
801,17052,16,520,-1.00,-1.0
803,17032,-8,692,-1.00,-1.0
805,16984,-4,580,-1.00,-1.0
806,16956,-8,624,-1.00,-1.0
808,17000,-40,660,-1.00,-1.0
810,17100,12,644,-1.00,-1.0
812,17036,28,696,-1.00,-1.0
814,17020,-40,712,-1.00,-1.0
816,17004,44,652,-1.00,-1.0
818,16956,-40,712,-1.00,-1.0
820,16940,-28,640,-1.00,-1.0
822,17020,-44,540,-1.00,-1.0
824,16944,-32,708,-1.00,-1.0
826,16992,-28,740,-1.00,-1.0
828,17044,8,556,-1.00,-1.0
832,17088,76,684,-1.00,-1.0
834,17000,0,652,-1.00,-1.0
836,16944,-48,584,-1.00,-1.0
838,16980,-16,624,-1.00,-1.0
840,17032,20,624,-1.00,-1.0
842,17008,52,528,-1.00,-1.0
844,16972,40,592,-1.00,-1.0
846,17012,-72,392,-1.00,-1.0
847,16980,-16,636,-1.00,-1.0
849,16972,8,604,-1.00,-1.0
851,17032,80,568,-1.00,-1.0
853,16940,64,592,-1.00,-1.0
855,16976,16,748,-1.00,-1.0
857,16808,16,676,-1.00,-1.0
859,16972,-52,612,-1.00,-1.0
861,17028,-4,644,-1.00,-1.0
863,16956,-20,668,-1.00,-1.0
865,16984,-24,732,-1.00,-1.0
869,16984,-84,616,-1.00,-1.0
871,16964,72,648,-1.00,-1.0
873,16880,-68,556,-1.00,-1.0
875,17032,28,636,-1.00,-1.0
877,16952,-4,680,-1.00,-1.0
879,16892,-48,676,-1.00,-1.0
881,17028,0,660,-1.00,-1.0
883,16920,-36,636,-1.00,-1.0
885,16964,-60,660,-1.00,-1.0
887,16988,104,668,-1.00,-1.0
889,16940,-16,548,-1.00,-1.0
891,16924,24,720,-1.00,-1.0
892,16980,20,492,-1.00,-1.0
894,17028,-80,644,-1.00,-1.0
896,17012,-36,772,-1.00,-1.0
898,16960,-104,548,-1.00,-1.0
900,17052,-44,472,-1.00,-1.0
902,16984,-8,504,-1.00,-1.0
906,16912,36,636,-1.00,-1.0
908,16996,-40,660,-1.00,-1.0
910,17112,80,636,-1.00,-1.0
912,17008,16,808,-1.00,-1.0
914,17080,32,612,-1.00,-1.0
916,16916,48,636,-1.00,-1.0
918,16980,0,536,-1.00,-1.0
920,17000,28,768,-1.00,-1.0
922,16928,-44,780,-1.00,-1.0
924,16956,-36,596,-1.00,-1.0
926,17008,8,644,-1.00,-1.0
928,16892,32,572,-1.00,-1.0
929,17020,-40,744,-1.00,-1.0
931,16940,84,640,-1.00,-1.0
933,16948,-12,632,-1.00,-1.0
935,16876,60,492,-1.00,-1.0
937,17020,112,556,-1.00,-1.0
939,17032,48,640,-1.00,-1.0
943,16964,40,696,-1.00,-1.0
945,16940,-32,648,-1.00,-1.0
947,17068,-52,712,-1.00,-1.0
949,17032,4,800,-1.00,-1.0
951,16944,-68,560,-1.00,-1.0
953,17024,-20,512,-1.00,-1.0
955,16964,24,516,-1.00,-1.0
957,17000,-48,540,-1.00,-1.0
959,17004,-64,596,-1.00,-1.0
961,17048,-12,520,-1.00,-1.0
963,17064,0,476,-1.00,-1.0
965,17096,-76,648,-1.00,-1.0
966,16952,-60,556,-1.00,-1.0
968,16972,60,660,-1.00,-1.0
970,17092,-112,696,-1.00,-1.0
972,17036,40,632,-1.00,-1.0
974,16980,-48,600,-1.00,-1.0
976,17000,20,676,-1.00,-1.0
980,16980,-16,644,-1.00,-1.0
982,17072,28,676,-1.00,-1.0
984,16952,-60,704,-1.00,-1.0
986,17028,-32,684,-1.00,-1.0
988,16968,60,600,-1.00,-1.0
990,16968,-52,784,-1.00,-1.0
992,16944,-4,712,-1.00,-1.0
994,16992,44,608,-1.00,-1.0
996,17008,-16,620,-1.00,-1.0
998,16828,8,688,-1.00,-1.0
1000,16908,-24,712,-1.00,-1.0
1002,17032,-56,768,-1.00,-1.0
1004,16992,92,708,-1.00,-1.0
1006,17020,-44,556,-1.00,-1.0
1008,16988,56,692,-1.00,-1.0
1009,16984,4,516,-1.00,-1.0
1011,16932,-56,744,-1.00,-1.0
1013,16968,-88,712,-1.00,-1.0
1017,16964,-52,660,-1.00,-1.0
1019,17052,88,784,-1.00,-1.0
1021,16924,-28,764,-1.00,-1.0
1023,17016,24,540,-1.00,-1.0
1025,16992,36,624,-1.00,-1.0
1027,16992,16,720,-1.00,-1.0
1029,16956,-44,672,-1.00,-1.0
1031,17036,20,656,-1.00,-1.0
1033,17020,-12,620,-1.00,-1.0
1035,16972,16,640,-1.00,-1.0
1037,16928,124,660,-1.00,-1.0
1039,17084,-52,716,-1.00,-1.0
1041,16984,-60,544,-1.00,-1.0
1043,16936,-40,652,-1.00,-1.0
1045,17028,-20,652,-1.00,-1.0
1047,17068,76,720,-1.00,-1.0
1049,17072,36,624,-1.00,-1.0
1053,16956,-8,684,-1.00,-1.0
1055,17032,52,552,-1.00,-1.0
1057,16936,20,752,-1.00,-1.0
1059,16952,-16,724,-1.00,-1.0
1061,16976,-28,636,-1.00,-1.0
1063,16968,12,600,-1.00,-1.0
1064,16996,-24,544,-1.00,-1.0
1066,16992,-84,712,-1.00,-1.0
1068,16920,-96,684,-1.00,-1.0
1070,16936,-40,636,-1.00,-1.0
1072,17092,56,672,-1.00,-1.0
1074,16980,28,684,-1.00,-1.0
1076,16932,-8,552,-1.00,-1.0
1078,17068,20,548,-1.00,-1.0
1080,16948,56,596,-1.00,-1.0
1082,16916,-20,636,-1.00,-1.0
1084,16944,-36,520,-1.00,-1.0
1088,17020,-84,544,-1.00,-1.0
1090,16940,24,612,-1.00,-1.0
1092,16880,0,612,-1.00,-1.0
1094,16976,80,648,-1.00,-1.0
1096,17064,60,696,-1.00,-1.0
1098,17088,-8,620,-1.00,-1.0
1100,16960,-40,616,-1.00,-1.0
1102,16992,-28,684,-1.00,-1.0
1104,17020,-52,676,-1.00,-1.0
1106,17020,12,556,-1.00,-1.0
1108,16928,28,644,-1.00,-1.0
1110,16888,60,596,-1.00,-1.0
1112,17000,0,520,-1.00,-1.0
1114,16916,-12,620,-1.00,-1.0
1116,17044,-24,736,-1.00,-1.0
1117,16936,0,604,-1.00,-1.0
1119,17112,0,704,-1.00,-1.0
1121,17052,-4,456,-1.00,-1.0
1125,16864,-40,500,-1.00,-1.0
1127,16952,-20,732,-1.00,-1.0
1129,17080,-32,648,-1.00,-1.0
1131,16932,-16,604,-1.00,-1.0
1133,16968,-80,700,-1.00,-1.0
1135,17088,-48,564,-1.00,-1.0
1137,16996,-60,612,-1.00,-1.0
1139,17028,-32,684,-1.00,-1.0
1141,17032,16,612,-1.00,-1.0
1143,17144,-72,652,-1.00,-1.0
1145,16976,-12,812,-1.00,-1.0
1147,17052,-80,624,-1.00,-1.0
1149,17044,-36,760,-1.00,-1.0
1151,16952,-12,772,-1.00,-1.0
1153,16960,64,660,-1.00,-1.0
1155,16880,112,684,-1.00,-1.0
1157,16952,-24,596,-1.00,-1.0
1161,17060,-16,692,-1.00,-1.0
1163,17024,28,720,-1.00,-1.0
1165,16952,-44,468,-1.00,-1.0
1167,16956,-40,576,-1.00,-1.0
1169,16888,-8,756,-1.00,-1.0
1171,17012,-64,588,-1.00,-1.0
1172,16988,0,764,-1.00,-1.0
1174,16876,32,612,-1.00,-1.0
1176,17036,64,572,-1.00,-1.0
1178,16924,80,648,-1.00,-1.0
1180,17072,-64,564,-1.00,-1.0
1182,16980,-12,580,-1.00,-1.0
1184,16984,-40,680,-1.00,-1.0
1186,17004,20,616,-1.00,-1.0
1188,16920,-4,692,-1.00,-1.0
1190,16824,-112,648,-1.00,-1.0
1192,16964,28,764,-1.00,-1.0
1196,17000,40,636,-1.00,-1.0
1198,17028,16,672,-1.00,-1.0
1200,17028,0,536,-1.00,-1.0
1202,16944,12,712,-1.00,-1.0
1204,16948,-116,528,-1.00,-1.0
1206,16972,36,712,-1.00,-1.0
1208,17024,-20,576,-1.00,-1.0
1209,17072,-16,660,-1.00,-1.0
1211,17008,28,652,-1.00,-1.0
1213,16956,68,620,-1.00,-1.0
1215,16984,76,652,-1.00,-1.0
1217,16920,-116,576,-1.00,-1.0
1219,16948,24,472,-1.00,-1.0
1221,16980,-108,684,-1.00,-1.0
1223,16996,0,564,-1.00,-1.0
1225,17020,120,616,-1.00,-1.0
1227,17028,116,624,-1.00,-1.0
1229,16968,-20,624,-1.00,-1.0
1233,16968,-52,464,-1.00,-1.0
1235,17000,-28,624,-1.00,-1.0
1237,17032,60,652,-1.00,-1.0
1239,16984,-56,528,-1.00,-1.0
1241,16844,128,640,-1.00,-1.0
1243,17020,-72,660,-1.00,-1.0
1245,17004,-92,676,-1.00,-1.0
1246,17012,-88,532,-1.00,-1.0
1249,17064,-40,648,-1.00,-1.0
1250,17060,-60,624,-1.00,-1.0
1252,17008,140,600,-1.00,-1.0
1254,17016,-88,604,-1.00,-1.0
1256,17060,-52,636,-1.00,-1.0
1258,16972,-4,676,-1.00,-1.0
1260,16916,-52,648,-1.00,-1.0
1262,16960,-16,568,-1.00,-1.0
1264,17076,24,704,-1.00,-1.0
1268,16964,-56,736,-1.00,-1.0
1270,16936,24,536,-1.00,-1.0
1272,17028,24,608,-1.00,-1.0
1274,17000,-48,560,-1.00,-1.0
1276,16948,-100,676,-1.00,-1.0
1278,16960,12,664,-1.00,-1.0
1280,16992,28,504,-1.00,-1.0
1282,16944,-36,632,-1.00,-1.0
1284,17000,32,716,-1.00,-1.0
1286,16956,8,684,-1.00,-1.0
1288,17000,72,740,-1.00,-1.0
1290,17024,64,732,-1.00,-1.0
1291,17088,52,588,-1.00,-1.0
1293,17064,0,576,-1.00,-1.0
1295,17004,-40,608,-1.00,-1.0
1297,17024,96,536,-1.00,-1.0
1299,16888,-12,548,-1.00,-1.0
1303,17076,92,644,-1.00,-1.0
1305,17048,108,648,-1.00,-1.0
1307,17016,-92,572,-1.00,-1.0
1309,16928,60,744,-1.00,-1.0
1311,17024,-60,696,-1.00,-1.0
1313,16996,-88,624,-1.00,-1.0
1315,17028,28,796,-1.00,-1.0
1317,17004,116,692,-1.00,-1.0
1319,17052,44,568,-1.00,-1.0
1321,17052,-112,784,-1.00,-1.0
1323,17020,12,648,-1.00,-1.0
1325,16948,84,500,-1.00,-1.0
1327,17016,40,660,-1.00,-1.0
1329,17000,4,572,-1.00,-1.0
1331,16816,-116,688,-1.00,-1.0
1333,16888,12,612,-1.00,-1.0
1334,16972,-100,624,-1.00,-1.0
1336,17020,-40,712,-1.00,-1.0
1341,16968,52,676,-1.00,-1.0
1343,17056,-56,708,-1.00,-1.0
1344,16976,20,724,-1.00,-1.0
1346,17036,4,704,-1.00,-1.0
1348,16996,-32,628,-1.00,-1.0
1350,17048,-36,620,-1.00,-1.0
1352,17024,-72,536,-1.00,-1.0
1354,17096,-36,668,-1.00,-1.0
1356,17008,-104,656,-1.00,-1.0
1358,16992,-68,660,-1.00,-1.0
1360,16904,-124,584,-1.00,-1.0
1362,16992,-12,660,-1.00,-1.0
1364,16924,68,516,-1.00,-1.0
1366,16988,64,596,-1.00,-1.0
1368,16912,24,728,-1.00,-1.0
1370,16964,24,568,-1.00,-1.0
1372,17012,-84,676,-1.00,-1.0
1376,16940,8,812,-1.00,-1.0
1378,17056,-88,568,-1.00,-1.0
1380,16984,-16,528,-1.00,-1.0
1382,16996,8,652,-1.00,-1.0
1384,16928,16,644,-1.00,-1.0
1386,16972,68,636,-1.00,-1.0
1388,17000,36,600,-1.00,-1.0
1389,17032,52,672,-1.00,-1.0
1391,16964,68,592,-1.00,-1.0
1393,17068,-40,648,-1.00,-1.0
1395,16816,88,800,-1.00,-1.0
1397,16928,-28,528,-1.00,-1.0
1399,16996,-76,692,-1.00,-1.0
1401,16948,-108,580,-1.00,-1.0
1403,17044,0,592,-1.00,-1.0
1405,17028,-20,720,-1.00,-1.0
1407,16976,-84,812,-1.00,-1.0
1411,17020,-4,648,-1.00,-1.0
1413,16948,84,656,-1.00,-1.0
1415,16984,-8,616,-1.00,-1.0
1417,17036,-84,676,-1.00,-1.0
1419,16980,-28,728,-1.00,-1.0
1421,17052,-40,484,-1.00,-1.0
1423,17024,-16,608,-1.00,-1.0
1425,17040,-64,716,-1.00,-1.0
1427,16996,-4,608,-1.00,-1.0
1429,17020,28,400,-1.00,-1.0
1431,17000,0,528,-1.00,-1.0
1433,17036,-52,616,-1.00,-1.0
1434,16984,108,648,-1.00,-1.0
1436,16864,0,672,-1.00,-1.0
1438,17016,-56,632,-1.00,-1.0
1440,17008,-56,660,-1.00,-1.0
1442,16996,-100,656,-1.00,-1.0
1444,16936,-56,684,-1.00,-1.0
1448,16940,56,756,-1.00,-1.0
1450,16988,-36,712,-1.00,-1.0
1452,16996,-8,684,-1.00,-1.0
1454,17012,12,696,-1.00,-1.0
1456,16936,-16,536,-1.00,-1.0
1458,17048,0,728,-1.00,-1.0
1460,17040,64,676,-1.00,-1.0
1462,16972,-44,700,-1.00,-1.0
1464,16920,-92,536,-1.00,-1.0
1466,17040,-44,620,-1.00,-1.0
1468,16964,-8,560,-1.00,-1.0
1470,16956,32,668,-1.00,-1.0
1472,16996,-12,536,-1.00,-1.0
1474,16928,24,764,-1.00,-1.0
1476,16956,-56,544,-1.00,-1.0
1477,17012,52,644,-1.00,-1.0
1479,17008,-120,636,-1.00,-1.0
1483,16948,28,744,-1.00,-1.0
1485,16916,-16,700,-1.00,-1.0
1487,16928,-28,704,-1.00,-1.0
1489,16976,56,632,-1.00,-1.0
1491,16972,36,544,-1.00,-1.0
1493,16936,-4,652,-1.00,-1.0
1495,17008,92,624,-1.00,-1.0
1497,16972,16,556,-1.00,-1.0
1499,17012,120,696,-1.00,-1.0
1501,17036,0,536,-1.00,-1.0
1503,16988,-56,592,-1.00,-1.0
1505,16980,24,736,-1.00,-1.0
1507,17020,-12,704,-1.00,-1.0
1509,16976,44,600,-1.00,-1.0
1511,17004,-16,616,-1.00,-1.0
1513,16996,-56,632,-1.00,-1.0
1514,16972,16,776,-1.00,-1.0
1519,17028,-92,660,-1.00,-1.0
1521,16864,52,708,-1.00,-1.0
1522,16920,36,556,-1.00,-1.0
1524,16836,32,624,-1.00,-1.0
1526,16940,4,676,-1.00,-1.0
1528,16972,-28,832,-1.00,-1.0
1530,16936,12,636,-1.00,-1.0
1532,17056,0,592,-1.00,-1.0
1534,16968,4,708,-1.00,-1.0
1536,16960,-4,576,-1.00,-1.0
1538,17028,-84,764,-1.00,-1.0
1540,17024,64,572,-1.00,-1.0
1542,16944,-76,588,-1.00,-1.0
1544,17080,0,520,-1.00,-1.0
1546,16952,-20,680,-1.00,-1.0
1548,16948,12,600,-1.00,-1.0
1550,16944,20,492,-1.00,-1.0
1552,16976,-16,624,-1.00,-1.0
1556,16984,-76,636,-1.00,-1.0
1558,17008,48,608,-1.00,-1.0
1560,17012,-4,688,-1.00,-1.0
1562,16912,4,736,-1.00,-1.0
1564,17068,-76,604,-1.00,-1.0
1566,17016,8,656,-1.00,-1.0
1567,17048,-68,724,-1.00,-1.0
1569,16988,0,612,-1.00,-1.0
1571,17040,-52,756,-1.00,-1.0
1573,16996,-60,652,-1.00,-1.0
1575,17016,-44,624,-1.00,-1.0
1577,16952,-24,616,-1.00,-1.0
1579,16952,12,500,-1.00,-1.0
1581,16944,12,416,-1.00,-1.0
1583,16920,8,712,-1.00,-1.0
1585,16988,12,720,-1.00,-1.0
1587,17032,8,696,-1.00,-1.0
1589,17076,4,596,-1.00,-1.0
1593,16964,-20,740,-1.00,-1.0
1595,16956,12,496,-1.00,-1.0
1597,17036,-48,604,-1.00,-1.0
1599,16960,-4,580,-1.00,-1.0
1601,16920,52,532,-1.00,-1.0
1603,16884,-92,668,-1.00,-1.0
1605,17088,-56,540,-1.00,-1.0
1607,17020,36,536,-1.00,-1.0
1609,17012,-20,724,-1.00,-1.0
1611,16940,12,636,-1.00,-1.0
1612,16956,-112,656,-1.00,-1.0
1614,17008,132,532,-1.00,-1.0
1616,17060,-36,668,-1.00,-1.0
1618,17052,-40,684,-1.00,-1.0
1620,16920,-24,432,-1.00,-1.0
1622,17056,-4,488,-1.00,-1.0
1624,17040,-4,556,-1.00,-1.0
1628,16972,-64,768,-1.00,-1.0
1630,17020,-16,660,-1.00,-1.0
1632,17088,-12,816,-1.00,-1.0
1634,16984,24,612,-1.00,-1.0
1636,16932,-36,560,-1.00,-1.0
1638,16956,-56,680,-1.00,-1.0
1640,16892,-116,528,-1.00,-1.0
1642,16960,-136,856,-1.00,-1.0
1644,16980,-92,744,-1.00,-1.0
1646,16940,-24,632,-1.00,-1.0
1648,16964,32,752,-1.00,-1.0
1650,16984,68,612,-1.00,-1.0
1652,17020,40,536,-1.00,-1.0
1654,17032,-72,688,-1.00,-1.0
1656,16968,60,680,-1.00,-1.0
1657,17036,-36,524,-1.00,-1.0
1659,16976,-60,752,-1.00,-1.0
1664,16980,4,704,-1.00,-1.0
1666,16896,-92,724,-1.00,-1.0
1668,16984,-76,660,-1.00,-1.0
1670,17088,-16,628,-1.00,-1.0
1672,16976,28,676,-1.00,-1.0
1674,17028,12,476,-1.00,-1.0
1675,16912,-24,580,-1.00,-1.0
1677,16992,100,568,-1.00,-1.0
1679,16940,-80,648,-1.00,-1.0
1681,16992,-40,672,-1.00,-1.0
1683,16896,-124,640,-1.00,-1.0
1685,16948,48,652,-1.00,-1.0
1687,16980,4,588,-1.00,-1.0
1689,17068,-28,672,-1.00,-1.0
1691,17052,24,676,-1.00,-1.0
1693,16980,8,572,-1.00,-1.0
1695,17016,52,528,-1.00,-1.0
1697,16888,-76,716,-1.00,-1.0
1701,17016,-32,700,-1.00,-1.0
1703,16988,60,540,-1.00,-1.0
1705,16976,36,532,-1.00,-1.0
1707,17004,-12,676,-1.00,-1.0
1709,16940,-64,652,-1.00,-1.0
1711,16964,12,660,-1.00,-1.0
1713,16960,-32,504,-1.00,-1.0
1715,16888,-20,592,-1.00,-1.0
1717,17020,-48,592,-1.00,-1.0
1719,17028,-116,504,-1.00,-1.0
1720,16972,8,456,-1.00,-1.0
1722,17044,-28,528,-1.00,-1.0
1724,17008,-28,608,-1.00,-1.0
1726,16996,-72,628,-1.00,-1.0
1728,16924,-68,608,-1.00,-1.0
1730,16980,-28,784,-1.00,-1.0
1732,17032,-16,676,-1.00,-1.0
1736,17000,40,700,-1.00,-1.0
1738,16956,-76,504,-1.00,-1.0
1740,16976,64,568,-1.00,-1.0
1742,17020,-40,524,-1.00,-1.0
1744,17132,-16,528,-1.00,-1.0
1746,16976,-48,644,-1.00,-1.0
1748,17032,-12,648,-1.00,-1.0
1750,17028,0,608,-1.00,-1.0
1752,17052,16,652,-1.00,-1.0
1754,17036,96,724,-1.00,-1.0
1756,17016,48,540,-1.00,-1.0
1758,16884,16,632,-1.00,-1.0
1759,16940,-68,724,-1.00,-1.0
1762,16908,-40,808,-1.00,-1.0
1763,17040,-80,644,-1.00,-1.0
1765,16976,-60,672,-1.00,-1.0
1767,16976,-24,668,-1.00,-1.0
1771,16984,-16,704,-1.00,-1.0
1773,17072,-76,668,-1.00,-1.0
1775,17040,-20,648,-1.00,-1.0
1777,16964,-124,708,-1.00,-1.0
1779,16992,-12,816,-1.00,-1.0
1781,16948,0,624,-1.00,-1.0
1783,16992,-8,736,-1.00,-1.0
1785,17040,4,736,-1.00,-1.0
1787,17008,100,696,-1.00,-1.0
1789,16948,-8,520,-1.00,-1.0
1791,16996,-48,564,-1.00,-1.0
1793,17048,-8,600,-1.00,-1.0
1795,16888,-28,504,-1.00,-1.0
1797,17100,-76,716,-1.00,-1.0
1799,17040,-116,584,-1.00,-1.0
1801,17016,36,592,-1.00,-1.0
1802,16996,28,776,-1.00,-1.0
1806,16912,8,624,-1.00,-1.0
1808,16928,-36,668,-1.00,-1.0
1810,17012,32,752,-1.00,-1.0
1812,16948,4,524,-1.00,-1.0
1814,16972,-4,660,-1.00,-1.0
1816,16956,0,600,-1.00,-1.0
1818,17028,48,532,-1.00,-1.0
1820,17028,-4,616,-1.00,-1.0
1822,16904,-8,684,-1.00,-1.0
1824,17056,-12,704,-1.00,-1.0
1826,16996,96,660,-1.00,-1.0
1828,17024,-12,496,-1.00,-1.0
1830,16976,-40,696,-1.00,-1.0
1832,17124,28,696,-1.00,-1.0
1834,16976,4,596,-1.00,-1.0
1836,16944,20,592,-1.00,-1.0
1837,17032,-48,580,-1.00,-1.0
1839,17028,24,668,-1.00,-1.0
1844,16952,0,560,-1.00,-1.0
1846,16956,92,608,-1.00,-1.0
1847,17084,124,620,-1.00,-1.0
1849,16992,68,636,-1.00,-1.0
1851,16984,-64,624,-1.00,-1.0
1853,17024,100,624,-1.00,-1.0
1855,16928,-56,644,-1.00,-1.0
1857,16940,12,616,-1.00,-1.0
1859,16976,88,644,-1.00,-1.0
1861,16940,28,648,-1.00,-1.0
1863,17036,-44,524,-1.00,-1.0
1865,17032,4,460,-1.00,-1.0
1867,17048,12,632,-1.00,-1.0
1869,17056,-84,796,-1.00,-1.0
1871,16940,44,720,-1.00,-1.0
1873,17068,16,576,-1.00,-1.0
1875,17032,100,640,-1.00,-1.0
1879,16960,-48,620,-1.00,-1.0
1881,16908,12,488,-1.00,-1.0
1883,17044,-44,688,-1.00,-1.0
1885,17072,68,524,-1.00,-1.0
1886,17088,-28,660,-1.00,-1.0
1889,16992,-56,720,-1.00,-1.0
1891,16952,-64,752,-1.00,-1.0
1892,17048,-52,620,-1.00,-1.0
1894,17052,-36,700,-1.00,-1.0
1896,17000,24,600,-1.00,-1.0
1898,16984,8,732,-1.00,-1.0
1900,17036,8,680,-1.00,-1.0
1902,17064,-112,656,-1.00,-1.0
1904,16976,124,680,-1.00,-1.0
1906,16928,-92,588,-1.00,-1.0
1908,16976,-88,592,-1.00,-1.0
1910,17004,-64,692,-1.00,-1.0
1912,16992,-52,772,-1.00,-1.0
1916,17000,48,540,-1.00,-1.0
1918,17032,0,748,-1.00,-1.0
1920,16960,8,760,-1.00,-1.0
1922,16956,112,624,-1.00,-1.0
1924,16964,-64,560,-1.00,-1.0
1926,16964,20,656,-1.00,-1.0
1928,16976,-44,668,-1.00,-1.0
1930,16920,12,464,-1.00,-1.0
1932,17008,72,624,-1.00,-1.0
1934,17048,24,780,-1.00,-1.0
1935,16996,-28,536,-1.00,-1.0
1937,16904,8,588,-1.00,-1.0
1939,17000,24,504,-1.00,-1.0
1941,16944,36,672,-1.00,-1.0
1943,16892,56,696,-1.00,-1.0
1945,16944,32,572,-1.00,-1.0
1947,16968,-20,552,-1.00,-1.0
1951,16968,60,724,-1.00,-1.0
1953,16964,0,692,-1.00,-1.0
1955,16924,12,644,-1.00,-1.0
1957,16940,-28,600,-1.00,-1.0
1959,16880,-48,668,-1.00,-1.0
1961,16952,-88,656,-1.00,-1.0
1963,16956,48,708,-1.00,-1.0
1965,16992,44,604,-1.00,-1.0
1967,16964,-12,532,-1.00,-1.0
1969,17076,-36,672,-1.00,-1.0
1971,17068,-80,668,-1.00,-1.0
1973,16956,-60,664,-1.00,-1.0
1975,16960,60,608,-1.00,-1.0
1977,17004,8,616,-1.00,-1.0
1979,16980,-24,708,-1.00,-1.0
1980,16968,64,664,-1.00,-1.0
1982,17036,4,712,-1.00,-1.0
1984,16956,16,636,-1.00,-1.0
1988,16964,-100,600,-1.00,-1.0
1990,16904,-36,636,-1.00,-1.0
1992,17020,52,676,-1.00,-1.0
1994,17036,-48,548,-1.00,-1.0
1996,16956,8,548,-1.00,-1.0
1998,16940,-40,552,-1.00,-1.0
2000,17036,-4,580,-1.00,-1.0
2002,16932,-60,540,-1.00,-1.0
2004,16996,-84,604,-1.00,-1.0
2006,17020,-20,752,-1.00,-1.0
2008,17040,60,584,-1.00,-1.0
2010,17020,-16,728,-1.00,-1.0
2012,17060,44,636,-1.00,-1.0
2014,16920,4,700,-1.00,-1.0
2016,17028,-56,652,-1.00,-1.0
2018,16936,-56,656,-1.00,-1.0
2020,17024,-4,516,-1.00,-1.0
2024,17000,-12,660,-1.00,-1.0
2026,17032,64,612,-1.00,-1.0
2028,16988,-120,744,-1.00,-1.0
2030,16996,-92,532,-1.00,-1.0
2032,16996,-28,732,-1.00,-1.0
2034,16964,-8,568,-1.00,-1.0
2035,16944,52,456,-1.00,-1.0
2037,17020,-112,592,-1.00,-1.0
2039,16960,-68,656,-1.00,-1.0
2041,17008,-20,572,-1.00,-1.0
2043,17020,48,648,-1.00,-1.0
2045,16948,48,608,-1.00,-1.0
2047,16932,-20,644,-1.00,-1.0
2049,17084,40,728,-1.00,-1.0
2051,17016,72,616,-1.00,-1.0
2053,16948,96,648,-1.00,-1.0
2055,17016,52,560,-1.00,-1.0
2059,17084,24,752,-1.00,-1.0
2061,17008,-28,736,-1.00,-1.0
2063,17020,-4,592,-1.00,-1.0
2065,17008,-28,704,-1.00,-1.0
2067,16964,28,580,-1.00,-1.0
2069,16872,-44,508,-1.00,-1.0
2071,16976,60,524,-1.00,-1.0
2072,17004,-28,728,-1.00,-1.0
2074,17032,0,588,-1.00,-1.0
2076,17068,-4,680,-1.00,-1.0
2078,16912,44,604,-1.00,-1.0
2080,17064,0,764,-1.00,-1.0
2082,17096,8,748,-1.00,-1.0
2084,17068,36,760,-1.00,-1.0
2086,17032,32,688,-1.00,-1.0
2088,17004,0,608,-1.00,-1.0
2090,16984,48,600,-1.00,-1.0
2092,16980,40,544,-1.00,-1.0
2096,17020,-76,600,-1.00,-1.0
2098,16920,-80,568,-1.00,-1.0
2100,16952,-48,624,-1.00,-1.0
2102,17000,-12,608,-1.00,-1.0
2104,16988,-20,688,-1.00,-1.0
2106,17072,52,716,-1.00,-1.0
2108,16956,-64,556,-1.00,-1.0
2109,17020,68,604,-1.00,-1.0
2111,16972,20,656,-1.00,-1.0
2113,16968,-32,652,-1.00,-1.0
2115,17008,28,692,-1.00,-1.0
2117,16972,-84,652,-1.00,-1.0
2119,17016,-44,640,-1.00,-1.0
2121,16988,-36,512,-1.00,-1.0
2123,16972,-16,616,-1.00,-1.0
2125,16956,-56,524,-1.00,-1.0
2127,17088,-28,604,-1.00,-1.0
2131,17052,44,616,-1.00,-1.0
2133,16984,60,540,-1.00,-1.0
2135,16896,-44,592,-1.00,-1.0
2137,16904,-60,656,-1.00,-1.0
2139,16844,-24,684,-1.00,-1.0
2141,16988,4,500,-1.00,-1.0
2143,17072,-28,616,-1.00,-1.0
2145,17048,-96,652,-1.00,-1.0
2147,17060,-12,860,-1.00,-1.0
2149,17084,16,612,-1.00,-1.0
2151,16960,20,708,-1.00,-1.0
2153,16920,-48,664,-1.00,-1.0
2155,16984,-16,704,-1.00,-1.0
2157,16956,-72,792,-1.00,-1.0
2159,17044,-100,700,-1.00,-1.0
2160,17032,-76,556,-1.00,-1.0
2162,16932,12,556,-1.00,-1.0
2164,16960,28,672,-1.00,-1.0
2168,17024,16,720,-1.00,-1.0
2170,17076,-16,684,-1.00,-1.0
2172,16972,0,700,-1.00,-1.0
2174,16992,-92,648,-1.00,-1.0
2176,16988,20,596,-1.00,-1.0
2178,16960,80,716,-1.00,-1.0
2180,16928,24,628,-1.00,-1.0
2182,16964,-64,596,-1.00,-1.0
2184,16928,32,740,-1.00,-1.0
2186,16952,36,736,-1.00,-1.0
2188,16984,-24,596,-1.00,-1.0
2190,16956,-24,764,-1.00,-1.0
2192,17052,0,528,-1.00,-1.0
2194,16972,56,532,-1.00,-1.0
2196,16968,-100,676,-1.00,-1.0
2198,16968,-48,640,-1.00,-1.0
2200,16952,36,744,-1.00,-1.0
2204,16980,0,600,-1.00,-1.0
2206,17012,-12,596,-1.00,-1.0
2208,17016,-12,764,-1.00,-1.0
2210,17060,52,724,-1.00,-1.0
2212,17052,-44,668,-1.00,-1.0
2214,17020,44,576,-1.00,-1.0
2215,16900,-76,708,-1.00,-1.0
2217,17008,-56,576,-1.00,-1.0
2219,16940,132,668,-1.00,-1.0
2221,16944,-72,576,-1.00,-1.0
2223,16956,0,628,-1.00,-1.0
2225,16888,-88,424,-1.00,-1.0
2227,16988,4,652,-1.00,-1.0
2229,17064,36,644,-1.00,-1.0
2231,16976,-4,652,-1.00,-1.0
2233,17028,-36,584,-1.00,-1.0
2235,17020,32,508,-1.00,-1.0
2239,17092,-36,648,-1.00,-1.0
2241,16972,-28,732,-1.00,-1.0
2243,16976,-40,544,-1.00,-1.0
2245,16896,16,604,-1.00,-1.0
2247,17012,28,664,-1.00,-1.0
2249,17008,88,616,-1.00,-1.0
2251,16968,36,496,-1.00,-1.0
2253,16916,-76,632,-1.00,-1.0
2255,17020,-16,524,-1.00,-1.0
2257,16980,-32,564,-1.00,-1.0
2259,16868,-76,632,-1.00,-1.0
2261,16988,-100,572,-1.00,-1.0
2263,17004,-72,640,-1.00,-1.0
2265,16948,-76,616,-1.00,-1.0
2267,16996,-40,628,-1.00,-1.0
2268,16968,60,612,-1.00,-1.0
2270,16980,12,652,-1.00,-1.0
2272,17064,24,640,-1.00,-1.0
2276,17080,-40,468,-1.00,-1.0
2278,17104,-100,612,-1.00,-1.0
2280,17084,20,632,-1.00,-1.0
2282,16972,-16,612,-1.00,-1.0
2284,17020,-4,788,-1.00,-1.0
2286,16980,-92,640,-1.00,-1.0
2288,16912,-20,600,-1.00,-1.0
2290,16944,60,600,-1.00,-1.0
2292,16944,-52,656,-1.00,-1.0
2294,17000,-28,616,-1.00,-1.0
2296,16988,-48,676,-1.00,-1.0
2298,17068,-112,632,-1.00,-1.0
2300,17052,76,640,-1.00,-1.0
2302,16940,-100,728,-1.00,-1.0
2304,17020,8,688,-1.00,-1.0
2306,16996,-44,540,-1.00,-1.0
2307,16976,-28,560,-1.00,-1.0
2312,16972,-28,548,-1.00,-1.0
2314,16992,-44,684,-1.00,-1.0
2316,16936,-12,544,-1.00,-1.0
2317,17020,24,400,-1.00,-1.0
2320,17124,32,532,-1.00,-1.0
2321,17112,0,624,-1.00,-1.0
2323,16888,-12,696,-1.00,-1.0
2325,16900,-44,676,-1.00,-1.0
2327,17008,-24,764,-1.00,-1.0
2329,16984,-40,712,-1.00,-1.0
2331,16948,8,700,-1.00,-1.0
2333,17036,48,660,-1.00,-1.0
2335,16940,-56,692,-1.00,-1.0
2337,16912,60,552,-1.00,-1.0
2339,17048,-80,724,-1.00,-1.0
2341,16924,-144,712,-1.00,-1.0
2343,16912,-16,644,-1.00,-1.0
2347,17008,-12,572,-1.00,-1.0
2349,16888,-84,688,-1.00,-1.0
2351,17032,-116,576,-1.00,-1.0
2353,17072,-12,540,-1.00,-1.0
2355,17000,-28,660,-1.00,-1.0
2357,16936,-56,620,-1.00,-1.0
2359,17060,-16,624,-1.00,-1.0
2360,16980,-100,684,-1.00,-1.0
2362,16860,44,544,-1.00,-1.0
2364,16940,-4,588,-1.00,-1.0
2366,17072,32,784,-1.00,-1.0
2368,16904,52,588,-1.00,-1.0
2370,16972,4,688,-1.00,-1.0
2372,16992,-120,648,-1.00,-1.0
2374,17020,-64,496,-1.00,-1.0
2376,16988,-52,528,-1.00,-1.0
2378,16960,-48,640,-1.00,-1.0
2382,17004,-4,708,-1.00,-1.0
2384,16984,12,608,-1.00,-1.0
2386,17068,-28,488,-1.00,-1.0
2388,17052,-72,624,-1.00,-1.0
2390,17004,84,636,-1.00,-1.0
2392,17020,28,584,-1.00,-1.0
2394,17008,-24,752,-1.00,-1.0
2396,16920,76,608,-1.00,-1.0
2398,16948,-36,644,-1.00,-1.0
2400,17048,52,528,-1.00,-1.0
2402,16988,-24,712,-1.00,-1.0
2403,16976,8,684,-1.00,-1.0
2405,16980,60,712,-1.00,-1.0
2407,17000,28,688,-1.00,-1.0
2409,17072,-8,592,-1.00,-1.0
2411,16920,64,616,-1.00,-1.0
2413,17012,8,524,-1.00,-1.0
2415,16932,28,724,-1.00,-1.0
2419,17048,28,744,-1.00,-1.0
2421,16976,-64,696,-1.00,-1.0
2423,16920,-28,668,-1.00,-1.0
2425,17024,-28,544,-1.00,-1.0
2427,17028,-64,588,-1.00,-1.0
2429,17092,-20,652,-1.00,-1.0
2431,16964,-68,668,-1.00,-1.0
2433,17056,-32,664,-1.00,-1.0
2435,17080,-88,580,-1.00,-1.0
2437,16980,-12,624,-1.00,-1.0
2439,17032,44,600,-1.00,-1.0
2441,16996,-60,624,-1.00,-1.0
2442,17040,-52,656,-1.00,-1.0
2444,17052,40,644,-1.00,-1.0
2446,16968,-40,688,-1.00,-1.0
2448,16940,-36,660,-1.00,-1.0
2450,16932,-104,588,-1.00,-1.0
2454,17012,-16,696,-1.00,-1.0
2456,16964,52,788,-1.00,-1.0
2458,16956,-4,780,-1.00,-1.0
2460,16952,-40,572,-1.00,-1.0
2462,16960,4,604,-1.00,-1.0
2464,17068,-56,696,-1.00,-1.0
2466,16896,12,724,-1.00,-1.0
2468,17040,-16,652,-1.00,-1.0
2470,16988,-28,768,-1.00,-1.0
2472,16968,32,660,-1.00,-1.0
2474,16896,28,504,-1.00,-1.0
2476,16912,-68,584,-1.00,-1.0
2478,17052,-4,628,-1.00,-1.0
2480,17004,-104,520,-1.00,-1.0
2482,16992,-36,500,-1.00,-1.0
2484,17008,52,636,-1.00,-1.0
2486,16888,-52,628,-1.00,-1.0
2490,17028,84,668,-1.00,-1.0
2492,17052,-12,592,-1.00,-1.0
2494,16940,-24,580,-1.00,-1.0
2496,16976,12,676,-1.00,-1.0
2497,16984,16,612,-1.00,-1.0
2499,16972,-48,800,-1.00,-1.0
2501,16964,-48,660,-1.00,-1.0
2503,16924,28,656,-1.00,-1.0
2505,16960,-16,588,-1.00,-1.0
2507,16940,44,512,-1.00,-1.0
2509,16844,84,616,-1.00,-1.0
2511,16932,-40,640,-1.00,-1.0
2513,16912,-100,464,-1.00,-1.0
2515,16908,36,736,-1.00,-1.0
2517,16836,-4,596,-1.00,-1.0
2519,16992,-40,612,-1.00,-1.0
2521,16972,-60,544,-1.00,-1.0
2523,16928,24,760,-1.00,-1.0
2527,17000,0,556,-1.00,-1.0
2529,17028,144,668,-1.00,-1.0
2531,17028,-24,600,-1.00,-1.0
2533,16968,4,672,-1.00,-1.0
2535,16972,-80,572,-1.00,-1.0
2537,16980,24,696,-1.00,-1.0
2539,17044,-80,724,-1.00,-1.0
2541,17004,-24,740,-1.00,-1.0
2543,16980,12,528,-1.00,-1.0
2545,17052,-32,640,-1.00,-1.0
2546,16964,-88,664,-1.00,-1.0
2548,16888,24,736,-1.00,-1.0
2550,16916,88,628,-1.00,-1.0
2552,16984,-28,628,-1.00,-1.0
2554,16920,76,644,-1.00,-1.0
2556,16992,-52,644,-1.00,-1.0
2558,16936,104,556,-1.00,-1.0
2562,17052,20,748,-1.00,-1.0
2564,16996,64,532,-1.00,-1.0
2566,17036,-36,632,-1.00,-1.0
2568,17092,12,616,-1.00,-1.0
2570,16984,-108,676,-1.00,-1.0
2572,16900,-40,556,-1.00,-1.0
2574,17020,-76,628,-1.00,-1.0
2576,16928,-32,644,-1.00,-1.0
2578,17000,-20,620,-1.00,-1.0
2580,16884,-48,596,-1.00,-1.0
2582,16980,-96,608,-1.00,-1.0
2584,16928,12,692,-1.00,-1.0
2586,16980,-8,668,-1.00,-1.0
2588,16972,-48,580,-1.00,-1.0
2590,17064,-136,620,-1.00,-1.0
2591,17008,8,756,-1.00,-1.0
2593,16928,-164,652,-1.00,-1.0
2598,16936,4,584,-1.00,-1.0
2600,17020,28,516,-1.00,-1.0
2601,16980,-60,672,-1.00,-1.0
2603,16988,-4,732,-1.00,-1.0
2605,16996,8,624,-1.00,-1.0
2607,17040,-96,580,-1.00,-1.0
2609,17008,-88,568,-1.00,-1.0
2611,16920,-96,712,-1.00,-1.0
2613,16988,0,584,-1.00,-1.0
2615,16984,120,632,-1.00,-1.0
2617,16948,20,700,-1.00,-1.0
2619,17060,-28,660,-1.00,-1.0
2621,17024,-48,528,-1.00,-1.0
2623,16968,-68,624,-1.00,-1.0
2625,17004,24,812,-1.00,-1.0
2627,16968,-148,536,-1.00,-1.0
2629,17016,-88,520,-1.00,-1.0
2631,17060,-96,528,-1.00,-1.0
2635,17032,64,684,-1.00,-1.0
2637,16976,-96,608,-1.00,-1.0
2638,17000,0,700,-1.00,-1.0
2640,16980,0,636,-1.00,-1.0
2642,16924,-12,492,-1.00,-1.0
2644,17004,-100,528,-1.00,-1.0
2646,16836,24,600,-1.00,-1.0
2648,17008,-32,596,-1.00,-1.0
2650,17120,32,520,-1.00,-1.0
2652,17004,8,564,-1.00,-1.0
2654,16940,-52,776,-1.00,-1.0
2656,16992,-40,668,-1.00,-1.0
2658,17024,52,704,-1.00,-1.0
2660,16924,-16,532,-1.00,-1.0
2662,17004,4,532,-1.00,-1.0
2664,17064,-4,584,-1.00,-1.0
2666,16940,-28,660,-1.00,-1.0
2670,16964,-44,736,-1.00,-1.0
2672,17036,-160,604,-1.00,-1.0
2674,16992,-16,636,-1.00,-1.0
2675,17024,84,612,-1.00,-1.0
2678,17124,28,764,-1.00,-1.0
2679,17084,-24,508,-1.00,-1.0
2681,16988,-44,732,-1.00,-1.0
2683,16984,32,628,-1.00,-1.0
2685,17036,-60,584,-1.00,-1.0
2687,17012,-48,592,-1.00,-1.0
2689,17024,-24,740,-1.00,-1.0
2691,17032,0,732,-1.00,-1.0
2693,16972,12,712,-1.00,-1.0
2695,17076,-20,636,-1.00,-1.0
2697,17036,16,740,-1.00,-1.0
2699,17048,-92,616,-1.00,-1.0
2701,16920,-64,620,-1.00,-1.0
2705,16948,-8,664,-1.00,-1.0
2707,16896,60,668,-1.00,-1.0
2709,16964,76,708,-1.00,-1.0
2711,16996,44,604,-1.00,-1.0
2713,16992,4,704,-1.00,-1.0
2715,17072,76,624,-1.00,-1.0
2717,16964,-4,584,-1.00,-1.0
2719,16960,88,664,-1.00,-1.0
2720,16944,84,704,-1.00,-1.0
2723,17004,-56,644,-1.00,-1.0
2724,16972,32,672,-1.00,-1.0
2726,17040,32,704,-1.00,-1.0
2728,16992,24,696,-1.00,-1.0
2730,16980,72,644,-1.00,-1.0
2732,16976,-32,592,-1.00,-1.0
2734,17020,-44,544,-1.00,-1.0
2736,17004,40,556,-1.00,-1.0
2738,16936,-56,600,-1.00,-1.0
2742,17044,32,588,-1.00,-1.0
2744,17044,-48,616,-1.00,-1.0
2746,16984,-8,616,-1.00,-1.0
2748,16980,-48,724,-1.00,-1.0
2750,16996,88,744,-1.00,-1.0
2752,17132,8,680,-1.00,-1.0
2754,17040,52,664,-1.00,-1.0
2756,17024,-64,564,-1.00,-1.0
2758,16992,108,600,-1.00,-1.0
2760,17000,60,684,-1.00,-1.0
2762,16912,120,600,-1.00,-1.0
2764,16940,0,652,-1.00,-1.0
2765,17048,-32,588,-1.00,-1.0
2768,16984,-16,580,-1.00,-1.0
2770,16900,-48,632,-1.00,-1.0
2771,16996,12,652,-1.00,-1.0
2773,16956,4,548,-1.00,-1.0
2778,17124,-68,652,-1.00,-1.0
2780,16944,88,604,-1.00,-1.0
2781,17012,16,824,-1.00,-1.0
2783,16940,-68,804,-1.00,-1.0
2785,16912,-48,668,-1.00,-1.0
2787,16988,72,580,-1.00,-1.0
2789,16976,-116,580,-1.00,-1.0
2791,16860,-40,732,-1.00,-1.0
2793,16904,-72,776,-1.00,-1.0
2795,17044,4,652,-1.00,-1.0
2797,17028,-36,572,-1.00,-1.0
2799,16944,20,660,-1.00,-1.0
2801,16956,-8,568,-1.00,-1.0
2803,16956,56,632,-1.00,-1.0
2805,16976,-28,632,-1.00,-1.0
2807,17040,-12,628,-1.00,-1.0
2809,16908,52,712,-1.00,-1.0
2811,16908,0,656,-1.00,-1.0
2815,17012,4,468,-1.00,-1.0
2817,16992,0,712,-1.00,-1.0
2819,17000,-12,764,-1.00,-1.0
2821,16956,116,668,-1.00,-1.0
2823,16984,72,676,-1.00,-1.0
2825,17084,84,736,-1.00,-1.0
2827,16988,-120,580,-1.00,-1.0
2829,17056,-24,644,-1.00,-1.0
2830,17020,40,608,-1.00,-1.0
2832,16932,4,504,-1.00,-1.0
2834,16920,-60,648,-1.00,-1.0
2836,17000,-32,764,-1.00,-1.0
2838,16888,-40,532,-1.00,-1.0
2840,17000,-32,672,-1.00,-1.0
2842,17008,-4,564,-1.00,-1.0
2844,16980,-72,784,-1.00,-1.0
2846,16936,-32,608,-1.00,-1.0
2850,17092,-68,788,-1.00,-1.0
2852,17036,-76,588,-1.00,-1.0
2854,16984,-32,696,-1.00,-1.0
2856,16904,12,496,-1.00,-1.0
2858,17020,52,612,-1.00,-1.0
2860,17028,100,656,-1.00,-1.0
2862,16988,64,584,-1.00,-1.0
2864,17020,8,676,-1.00,-1.0
2866,17068,36,500,-1.00,-1.0
2868,17040,-32,612,-1.00,-1.0
2870,17036,-44,508,-1.00,-1.0
2872,16932,-12,608,-1.00,-1.0
2874,16992,32,492,-1.00,-1.0
2876,16996,28,648,-1.00,-1.0
2878,16876,-16,640,-1.00,-1.0
2879,16972,-84,600,-1.00,-1.0
2881,17024,-96,660,-1.00,-1.0
2883,16948,36,616,-1.00,-1.0
2887,16988,32,720,-1.00,-1.0
2889,16996,-32,492,-1.00,-1.0
2891,16992,64,588,-1.00,-1.0
2893,17000,-16,644,-1.00,-1.0
2895,17052,72,748,-1.00,-1.0
2897,16896,48,648,-1.00,-1.0
2899,16976,32,588,-1.00,-1.0
2901,17020,-16,720,-1.00,-1.0
2903,16960,32,576,-1.00,-1.0
2905,17076,40,600,-1.00,-1.0
2907,16952,76,584,-1.00,-1.0
2909,16948,-96,652,-1.00,-1.0
2911,17064,8,664,-1.00,-1.0
2913,17076,16,588,-1.00,-1.0
2915,16968,24,616,-1.00,-1.0
2917,17016,8,624,-1.00,-1.0
2918,16992,-108,584,-1.00,-1.0
2923,16960,0,664,-1.00,-1.0
2925,16976,20,664,-1.00,-1.0
2926,17020,56,588,-1.00,-1.0
2928,16980,28,472,-1.00,-1.0
2930,16984,-32,704,-1.00,-1.0
2932,16956,24,716,-1.00,-1.0
2934,16936,-28,576,-1.00,-1.0
2936,16956,-112,728,-1.00,-1.0
2938,16980,-16,724,-1.00,-1.0
2940,17072,16,816,-1.00,-1.0
2942,16976,-160,616,-1.00,-1.0
2944,16944,-156,720,-1.00,-1.0
2946,17040,-32,600,-1.00,-1.0
2948,17036,-4,660,-1.00,-1.0
2950,16920,-112,656,-1.00,-1.0
2952,16932,-24,700,-1.00,-1.0
2954,16896,12,608,-1.00,-1.0
2958,16984,112,624,-1.00,-1.0
2960,17076,36,680,-1.00,-1.0
2961,17044,-8,556,-1.00,-1.0
2963,17012,-36,664,-1.00,-1.0
2965,16880,-4,524,-1.00,-1.0
2967,16824,-24,572,-1.00,-1.0
2969,17080,-24,496,-1.00,-1.0
2971,16976,-112,580,-1.00,-1.0
2973,17020,-48,644,-1.00,-1.0
2975,17024,96,740,-1.00,-1.0
2977,17020,-44,548,-1.00,-1.0
2979,16888,-52,692,-1.00,-1.0
2981,16920,80,620,-1.00,-1.0
2983,17008,36,760,-1.00,-1.0
2985,16932,32,656,-1.00,-1.0
2987,16964,-28,680,-1.00,-1.0
2989,16988,40,592,-1.00,-1.0
2991,16892,36,688,-1.00,-1.0
2995,17040,0,584,-1.00,-1.0
2997,16964,-96,656,-1.00,-1.0
2999,16960,-8,592,-1.00,-1.0
3001,17000,-48,672,-1.00,-1.0
3003,16996,-36,700,-1.00,-1.0
3005,16952,36,584,-1.00,-1.0
3006,16984,4,700,-1.00,-1.0
3008,17076,0,424,-1.00,-1.0
3010,17012,12,628,-1.00,-1.0
3012,16972,-64,612,-1.00,-1.0
3014,16972,0,844,-1.00,-1.0
3016,16992,8,692,-1.00,-1.0
3018,17028,-20,632,-1.00,-1.0
3020,17008,52,724,-1.00,-1.0
3022,16944,0,664,-1.00,-1.0
3024,16996,-20,672,-1.00,-1.0
3026,16968,-64,652,-1.00,-1.0
3030,17016,12,640,-1.00,-1.0
3032,17000,-76,656,-1.00,-1.0
3034,17004,44,700,-1.00,-1.0
3036,16972,36,752,-1.00,-1.0
3038,17016,-148,432,-1.00,-1.0
3040,17028,-56,720,-1.00,-1.0
3042,16996,8,548,-1.00,-1.0
3044,17076,-32,512,-1.00,-1.0
3045,16888,-32,608,-1.00,-1.0
3048,16976,-108,604,-1.00,-1.0
3050,17136,-12,504,-1.00,-1.0
3051,17040,-212,588,-1.00,-1.0
3053,16912,-56,712,-1.00,-1.0
3055,16924,-44,628,-1.00,-1.0
3057,16984,48,608,-1.00,-1.0
3059,17048,24,644,-1.00,-1.0
3061,16904,-8,468,-1.00,-1.0
3065,16920,56,496,-1.00,-1.0
3067,17056,64,572,-1.00,-1.0
3069,17028,-28,544,-1.00,-1.0
3071,16976,-12,604,-1.00,-1.0
3073,17052,-40,632,-1.00,-1.0
3075,16960,-44,800,-1.00,-1.0
3077,16948,-20,708,-1.00,-1.0
3079,16936,52,536,-1.00,-1.0
3081,17036,-8,708,-1.00,-1.0
3083,17016,-8,744,-1.00,-1.0
3085,17036,-16,704,-1.00,-1.0
3087,17132,0,644,-1.00,-1.0
3089,17008,-4,680,-1.00,-1.0
3090,17004,12,676,-1.00,-1.0
3093,17012,-28,600,-1.00,-1.0
3095,17048,48,688,-1.00,-1.0
3096,16996,-24,708,-1.00,-1.0
3098,16996,-40,572,-1.00,-1.0
3103,17000,-48,572,-1.00,-1.0
3105,17056,-48,644,-1.00,-1.0
3106,16984,-12,704,-1.00,-1.0
3108,16968,-64,852,-1.00,-1.0
3110,17020,-24,648,-1.00,-1.0
3112,17080,-48,792,-1.00,-1.0
3114,16980,-64,672,-1.00,-1.0
3116,16988,16,656,-1.00,-1.0
3118,16996,4,788,-1.00,-1.0
3120,16848,4,572,-1.00,-1.0
3122,16996,-96,596,-1.00,-1.0
3124,17060,68,608,-1.00,-1.0
3126,16976,-36,592,-1.00,-1.0
3128,16952,-24,732,-1.00,-1.0
3130,17004,64,636,-1.00,-1.0
3132,16928,116,748,-1.00,-1.0
3134,16956,8,720,-1.00,-1.0
3138,17004,-24,540,-1.00,-1.0
3140,17040,60,816,-1.00,-1.0
3142,17076,-4,796,-1.00,-1.0
3144,17052,-52,652,-1.00,-1.0
3145,17056,0,544,-1.00,-1.0
3148,17040,68,772,-1.00,-1.0
3150,16908,-64,728,-1.00,-1.0
3151,16936,-52,600,-1.00,-1.0
3153,16960,-32,564,-1.00,-1.0
3155,17024,-48,656,-1.00,-1.0
3157,16956,-8,580,-1.00,-1.0
3159,16972,-64,636,-1.00,-1.0
3161,17036,0,708,-1.00,-1.0
3163,17012,-108,552,-1.00,-1.0
3165,16984,8,596,-1.00,-1.0
3167,16992,40,608,-1.00,-1.0
3169,16964,-48,776,-1.00,-1.0
3171,16956,-60,700,-1.00,-1.0
3175,16932,24,620,-1.00,-1.0
3177,16960,4,588,-1.00,-1.0
3179,16976,-80,700,-1.00,-1.0
3181,16972,-16,600,-1.00,-1.0
3183,17008,12,552,-1.00,-1.0
3185,16968,-72,524,-1.00,-1.0
3187,16904,116,516,-1.00,-1.0
3189,17004,48,680,-1.00,-1.0
3191,16984,44,684,-1.00,-1.0
3193,17092,8,696,-1.00,-1.0
3195,16936,36,676,-1.00,-1.0
3196,16968,44,676,-1.00,-1.0
3198,17028,76,600,-1.00,-1.0
3200,16968,24,504,-1.00,-1.0
3202,17056,40,624,-1.00,-1.0
3204,16944,-84,548,-1.00,-1.0
3206,17020,4,692,-1.00,-1.0
3210,17008,-28,616,-1.00,-1.0
3212,16992,-36,612,-1.00,-1.0
3214,17004,0,600,-1.00,-1.0
3216,17000,-72,708,-1.00,-1.0
3218,16968,-16,600,-1.00,-1.0
3220,17000,16,660,-1.00,-1.0
3222,16932,4,632,-1.00,-1.0
3224,16956,-40,748,-1.00,-1.0
3226,17032,-20,704,-1.00,-1.0
3228,16992,48,644,-1.00,-1.0
3230,16932,0,776,-1.00,-1.0
3232,16976,132,680,-1.00,-1.0
3233,16976,-52,468,-1.00,-1.0
3236,16940,4,604,-1.00,-1.0
3237,17048,8,512,-1.00,-1.0
3239,17004,-20,580,-1.00,-1.0
3241,16936,-96,608,-1.00,-1.0
3243,17144,-24,476,-1.00,-1.0
3247,17028,-16,624,-1.00,-1.0
3249,17036,8,640,-1.00,-1.0
3251,16996,-32,652,-1.00,-1.0
3253,17048,-68,660,-1.00,-1.0
3255,17028,-116,652,-1.00,-1.0
3257,17024,-16,688,-1.00,-1.0
3259,16988,-24,544,-1.00,-1.0
3261,16988,-20,684,-1.00,-1.0
3263,17028,-96,720,-1.00,-1.0
3265,16996,0,704,-1.00,-1.0
3267,17072,-72,544,-1.00,-1.0
3269,17120,72,648,-1.00,-1.0
3270,16952,36,644,-1.00,-1.0
3273,16984,24,560,-1.00,-1.0
3274,17004,-8,640,-1.00,-1.0
3276,17040,0,632,-1.00,-1.0
3278,17040,4,764,-1.00,-1.0
3283,16952,-84,704,-1.00,-1.0
3285,16920,24,676,-1.00,-1.0
3286,16872,-4,684,-1.00,-1.0
3288,17052,-32,680,-1.00,-1.0
3290,16936,24,676,-1.00,-1.0
3292,16940,72,624,-1.00,-1.0
3294,17048,-40,592,-1.00,-1.0
3296,17036,0,636,-1.00,-1.0
3298,17084,-32,684,-1.00,-1.0
3300,16956,64,664,-1.00,-1.0
3302,16988,-28,676,-1.00,-1.0
3304,17032,-28,644,-1.00,-1.0
3306,16964,32,668,-1.00,-1.0
3308,16992,12,712,-1.00,-1.0
3310,16964,-36,712,-1.00,-1.0
3312,16948,-132,664,-1.00,-1.0
3314,16952,0,636,-1.00,-1.0
3318,17000,60,684,-1.00,-1.0
3320,16880,16,580,-1.00,-1.0
3322,17104,-52,628,-1.00,-1.0
3324,16920,-20,572,-1.00,-1.0
3325,16928,-28,524,-1.00,-1.0
3328,17016,36,624,-1.00,-1.0
3329,16956,-88,756,-1.00,-1.0
3331,17076,16,684,-1.00,-1.0
3333,16976,-56,536,-1.00,-1.0
3335,16964,-40,616,-1.00,-1.0
3337,16952,8,528,-1.00,-1.0
3339,17028,72,588,-1.00,-1.0
3341,16984,-48,484,-1.00,-1.0
3343,16988,64,616,-1.00,-1.0
3345,17048,-16,744,-1.00,-1.0
3347,16980,-40,616,-1.00,-1.0
3349,16952,-128,756,-1.00,-1.0
3351,16948,-24,676,-1.00,-1.0
3355,17048,40,472,-1.00,-1.0
3357,17000,-4,636,-1.00,-1.0
3359,17132,68,816,-1.00,-1.0
3361,16956,-100,524,-1.00,-1.0
3363,16964,52,608,-1.00,-1.0
3365,17060,-56,588,-1.00,-1.0
3367,16932,72,504,-1.00,-1.0
3369,17024,28,680,-1.00,-1.0
3371,16964,36,704,-1.00,-1.0
3373,16996,-36,640,-1.00,-1.0
3374,16936,12,652,-1.00,-1.0
3376,16992,0,688,-1.00,-1.0
3378,17012,-100,536,-1.00,-1.0
3380,16980,-96,648,-1.00,-1.0
3382,17036,36,504,-1.00,-1.0
3384,16992,-12,668,-1.00,-1.0
3386,17004,-56,688,-1.00,-1.0
3391,17004,-4,580,-1.00,-1.0
3393,17004,-52,704,-1.00,-1.0
3394,16980,16,668,-1.00,-1.0
3396,17028,-4,748,-1.00,-1.0
3398,17032,-40,640,-1.00,-1.0
3400,16980,-20,620,-1.00,-1.0
3402,17064,-4,708,-1.00,-1.0
3404,16952,-20,732,-1.00,-1.0
3406,16960,0,504,-1.00,-1.0
3408,17036,12,560,-1.00,-1.0
3410,16972,-116,676,-1.00,-1.0
3412,16928,24,736,-1.00,-1.0
3414,17056,-40,712,-1.00,-1.0
3416,17024,12,688,-1.00,-1.0
3418,16924,-100,808,-1.00,-1.0
3420,16944,16,556,-1.00,-1.0
3422,16912,36,704,-1.00,-1.0
3423,16972,-60,648,-1.00,-1.0
3428,17000,-12,728,-1.00,-1.0
3430,17028,52,688,-1.00,-1.0
3432,16992,4,436,-1.00,-1.0
3433,17024,-76,424,-1.00,-1.0
3435,16972,0,448,-1.00,-1.0
3437,17044,44,576,-1.00,-1.0
3439,17060,-36,708,-1.00,-1.0
3441,16924,-8,648,-1.00,-1.0
3443,16960,16,652,-1.00,-1.0
3445,16960,24,592,-1.00,-1.0
3447,17060,-28,620,-1.00,-1.0
3449,17064,-12,600,-1.00,-1.0
3451,17056,-60,644,-1.00,-1.0
3453,16924,24,644,-1.00,-1.0
3455,16972,-96,576,-1.00,-1.0
3457,17072,12,752,-1.00,-1.0
3459,17020,20,632,-1.00,-1.0
3463,16952,-36,692,-1.00,-1.0
3465,16996,-16,612,-1.00,-1.0
3467,17000,-28,520,-1.00,-1.0
3469,16956,52,780,-1.00,-1.0
3471,17004,20,412,-1.00,-1.0
3473,16936,28,572,-1.00,-1.0
3475,16964,-48,724,-1.00,-1.0
3476,17000,-84,652,-1.00,-1.0
3478,17028,-36,660,-1.00,-1.0
3480,17008,92,740,-1.00,-1.0
3482,17000,-24,768,-1.00,-1.0
3484,16984,-100,712,-1.00,-1.0
3486,16988,-28,416,-1.00,-1.0
3488,16988,32,704,-1.00,-1.0
3490,17032,-4,564,-1.00,-1.0
3492,16912,-28,668,-1.00,-1.0
3494,16984,-24,652,-1.00,-1.0
3499,17000,0,736,-1.00,-1.0
3501,17020,36,588,-1.00,-1.0
3503,16932,-32,548,-1.00,-1.0
3504,16896,32,624,-1.00,-1.0
3506,16980,24,608,-1.00,-1.0
3508,16992,-88,688,-1.00,-1.0
3510,16956,-44,700,-1.00,-1.0
3512,16936,-4,704,-1.00,-1.0
3514,16932,-48,636,-1.00,-1.0
3516,17036,-8,632,-1.00,-1.0
3518,16948,-40,516,-1.00,-1.0
3520,16936,-40,692,-1.00,-1.0
3522,17004,-28,772,-1.00,-1.0
3524,16992,-44,452,-1.00,-1.0
3526,16912,-4,496,-1.00,-1.0
3528,16976,0,692,-1.00,-1.0
3530,17072,-72,700,-1.00,-1.0
3532,16968,72,652,-1.00,-1.0
3536,16976,16,524,-1.00,-1.0
3538,17032,16,812,-1.00,-1.0
3540,17076,156,648,-1.00,-1.0
3541,16968,4,588,-1.00,-1.0
3543,17032,96,648,-1.00,-1.0
3545,17016,-84,564,-1.00,-1.0
3547,17092,-24,624,-1.00,-1.0
3549,17052,4,728,-1.00,-1.0
3551,17068,56,740,-1.00,-1.0
3553,16836,-52,776,-1.00,-1.0
3555,17012,16,640,-1.00,-1.0
3557,16968,-12,600,-1.00,-1.0
3559,16988,-108,720,-1.00,-1.0
3561,16912,-52,580,-1.00,-1.0
3563,17028,76,616,-1.00,-1.0
3565,17040,-16,612,-1.00,-1.0
3567,17016,60,660,-1.00,-1.0
3571,16840,20,596,-1.00,-1.0
3573,16976,36,536,-1.00,-1.0
3575,17012,36,796,-1.00,-1.0
3577,16960,72,552,-1.00,-1.0
3579,17048,-28,544,-1.00,-1.0
3581,17044,88,656,-1.00,-1.0
3583,16892,-80,720,-1.00,-1.0
3584,17080,12,588,-1.00,-1.0
3586,17012,-60,628,-1.00,-1.0
3588,16924,0,776,-1.00,-1.0
3590,17036,100,616,-1.00,-1.0
3592,17064,64,672,-1.00,-1.0
3594,16960,-28,752,-1.00,-1.0
3596,16928,96,572,-1.00,-1.0
3598,17040,68,512,-1.00,-1.0
3600,16992,-4,596,-1.00,-1.0
3602,16952,140,752,-1.00,-1.0
3604,16976,-8,636,-1.00,-1.0
3608,16916,12,624,-1.00,-1.0
3610,16984,16,648,-1.00,-1.0
3612,16900,-32,628,-1.00,-1.0
3614,16952,12,620,-1.00,-1.0
3616,16976,-76,640,-1.00,-1.0
3618,17008,44,620,-1.00,-1.0
3620,16976,-28,576,-1.00,-1.0
3622,17016,-36,632,-1.00,-1.0
3624,17004,-40,696,-1.00,-1.0
3626,17060,-48,700,-1.00,-1.0
3628,17000,-100,684,-1.00,-1.0
3629,16988,-112,628,-1.00,-1.0
3632,17060,-48,668,-1.00,-1.0
3634,17004,-120,592,-1.00,-1.0
3635,17012,-56,568,-1.00,-1.0
3637,16932,-4,652,-1.00,-1.0
3639,17012,-28,708,-1.00,-1.0
3643,17020,24,620,-1.00,-1.0
3645,17032,48,620,-1.00,-1.0
3647,17096,-72,600,-1.00,-1.0
3649,16980,4,652,-1.00,-1.0
3651,16920,-80,576,-1.00,-1.0
3653,17012,76,536,-1.00,-1.0
3655,17004,32,680,-1.00,-1.0
3657,17032,-16,584,-1.00,-1.0
3659,17032,16,564,-1.00,-1.0
3661,16992,12,592,-1.00,-1.0
3663,17060,4,612,-1.00,-1.0
3665,17068,-36,660,-1.00,-1.0
3667,16904,0,604,-1.00,-1.0
3669,16964,12,652,-1.00,-1.0
3671,16904,-12,484,-1.00,-1.0
3673,16980,-88,672,-1.00,-1.0
3674,16964,-40,652,-1.00,-1.0
3679,17012,-40,668,-1.00,-1.0
3681,17004,72,644,-1.00,-1.0
3683,17036,-52,760,-1.00,-1.0
3684,16916,-12,620,-1.00,-1.0
3687,17012,-32,796,-1.00,-1.0
3688,17012,56,772,-1.00,-1.0
3690,17012,-44,636,-1.00,-1.0
3692,16900,-20,648,-1.00,-1.0
3694,16964,44,612,-1.00,-1.0
3696,16936,-100,644,-1.00,-1.0
3698,16996,68,600,-1.00,-1.0
3700,16972,80,460,-1.00,-1.0
3702,17020,-64,672,-1.00,-1.0
3704,17000,-56,676,-1.00,-1.0
3706,17124,52,676,-1.00,-1.0
3708,17104,20,548,-1.00,-1.0
3710,16960,68,728,-1.00,-1.0
3714,16888,16,632,-1.00,-1.0
3716,17008,56,568,-1.00,-1.0
3718,17048,16,588,-1.00,-1.0
3720,17008,-76,680,-1.00,-1.0
3722,17000,56,644,-1.00,-1.0
3724,16928,-12,688,-1.00,-1.0
3726,17036,-88,708,-1.00,-1.0
3727,16996,4,568,-1.00,-1.0
3729,16992,0,644,-1.00,-1.0
3731,16968,28,780,-1.00,-1.0
3733,16956,-36,756,-1.00,-1.0
3735,16900,52,628,-1.00,-1.0
3737,16980,-44,588,-1.00,-1.0
3739,17032,-40,480,-1.00,-1.0
3741,16936,0,740,-1.00,-1.0
3743,17036,-56,672,-1.00,-1.0
3745,16948,36,580,-1.00,-1.0
3747,17052,-20,716,-1.00,-1.0
3751,17096,-12,588,-1.00,-1.0
3753,16936,-96,552,-1.00,-1.0
3755,17056,-40,628,-1.00,-1.0
3757,17032,116,576,-1.00,-1.0
3759,16952,-52,872,-1.00,-1.0
3761,16876,-88,616,-1.00,-1.0
3763,17004,-16,548,-1.00,-1.0
3765,16980,-32,576,-1.00,-1.0
3767,16948,44,744,-1.00,-1.0
3769,16904,-8,576,-1.00,-1.0
3771,16980,-40,740,-1.00,-1.0
3772,16872,20,524,-1.00,-1.0
3774,16920,-16,576,-1.00,-1.0
3776,16960,-40,576,-1.00,-1.0
3778,16968,28,808,-1.00,-1.0
3780,17048,-40,860,-1.00,-1.0
3782,16972,-84,624,-1.00,-1.0
3786,16968,-80,792,-1.00,-1.0
3788,17008,-96,704,-1.00,-1.0
3790,17060,0,612,-1.00,-1.0
3792,16996,-40,504,-1.00,-1.0
3794,16964,-76,668,-1.00,-1.0
3796,16956,-8,628,-1.00,-1.0
3798,16960,-8,492,-1.00,-1.0
3800,16968,-36,548,-1.00,-1.0
3802,17064,208,672,-1.00,-1.0
3804,17016,0,704,-1.00,-1.0
3806,16992,-8,684,-1.00,-1.0
3808,16992,-48,776,-1.00,-1.0
3810,16964,-104,640,-1.00,-1.0
3812,17044,-24,676,-1.00,-1.0
3814,17036,-48,432,-1.00,-1.0
3815,16964,56,544,-1.00,-1.0
3817,17024,0,592,-1.00,-1.0
3819,16956,-4,572,-1.00,-1.0
3823,16972,-16,648,-1.00,-1.0
3825,17044,-12,592,-1.00,-1.0
3827,17088,-40,684,-1.00,-1.0
3829,17148,-56,688,-1.00,-1.0
3831,17008,76,696,-1.00,-1.0
3833,17040,12,864,-1.00,-1.0
3835,17024,-36,544,-1.00,-1.0
3837,16960,-52,684,-1.00,-1.0
3839,17028,4,720,-1.00,-1.0
3841,16964,60,600,-1.00,-1.0
3843,16944,-68,640,-1.00,-1.0
3845,16920,32,576,-1.00,-1.0
3847,17020,-88,644,-1.00,-1.0
3849,16964,0,748,-1.00,-1.0
3851,17008,-28,708,-1.00,-1.0
3852,16988,-76,740,-1.00,-1.0
3854,16896,96,668,-1.00,-1.0
3859,16964,-36,572,-1.00,-1.0
3861,16916,28,496,-1.00,-1.0
3862,16952,36,524,-1.00,-1.0
3864,17112,-48,540,-1.00,-1.0
3866,17028,0,616,-1.00,-1.0
3868,17040,-64,652,-1.00,-1.0
3870,17000,52,624,-1.00,-1.0
3872,17008,20,536,-1.00,-1.0
3874,16948,-44,688,-1.00,-1.0
3876,16912,-40,484,-1.00,-1.0
3878,17020,56,684,-1.00,-1.0
3880,17004,116,704,-1.00,-1.0
3882,16944,24,452,-1.00,-1.0
3884,16976,36,592,-1.00,-1.0
3886,16980,-60,652,-1.00,-1.0
3888,16996,-48,544,-1.00,-1.0
3890,16944,-12,624,-1.00,-1.0
3894,16984,-40,652,-1.00,-1.0
3896,17060,-28,764,-1.00,-1.0
3898,16940,24,624,-1.00,-1.0
3900,16936,-20,504,-1.00,-1.0
3902,17020,56,600,-1.00,-1.0
3904,17000,0,628,-1.00,-1.0
3906,16988,-8,556,-1.00,-1.0
3907,16984,20,748,-1.00,-1.0
3909,17048,-8,600,-1.00,-1.0
3911,16956,-28,616,-1.00,-1.0
3913,16916,120,664,-1.00,-1.0
3915,16936,-40,612,-1.00,-1.0
3917,17056,-52,676,-1.00,-1.0
3919,16920,64,548,-1.00,-1.0
3921,16984,8,620,-1.00,-1.0
3923,16904,-12,688,-1.00,-1.0
3925,17024,-48,648,-1.00,-1.0
3927,16948,-52,496,-1.00,-1.0
3931,16972,-8,616,-1.00,-1.0
3933,16956,20,588,-1.00,-1.0
3935,17020,28,724,-1.00,-1.0
3937,16988,36,596,-1.00,-1.0
3939,16892,0,668,-1.00,-1.0
3941,17036,-108,708,-1.00,-1.0
3943,16992,-80,640,-1.00,-1.0
3945,16972,-136,604,-1.00,-1.0
3947,16924,120,668,-1.00,-1.0
3949,17024,-4,668,-1.00,-1.0
3951,16972,-8,628,-1.00,-1.0
3952,16992,8,664,-1.00,-1.0
3954,17096,-40,724,-1.00,-1.0
3956,17048,56,512,-1.00,-1.0
3958,16960,4,644,-1.00,-1.0
3960,16988,24,496,-1.00,-1.0
3962,16896,-48,676,-1.00,-1.0
3966,16936,4,696,-1.00,-1.0
3968,16976,16,608,-1.00,-1.0
3970,17044,-36,724,-1.00,-1.0
3972,16992,20,660,-1.00,-1.0
3974,17036,12,588,-1.00,-1.0
3976,16968,-20,684,-1.00,-1.0
3978,16936,40,484,-1.00,-1.0
3980,16964,-100,568,-1.00,-1.0
3982,17008,16,484,-1.00,-1.0
3984,17000,-40,612,-1.00,-1.0
3986,16964,-28,512,-1.00,-1.0
3988,17064,-44,668,-1.00,-1.0
3990,16988,-60,704,-1.00,-1.0
3992,16912,-28,572,-1.00,-1.0
3994,16980,36,652,-1.00,-1.0
3996,17032,-76,592,-1.00,-1.0
3997,17020,4,608,-1.00,-1.0
3999,17036,-52,732,-1.00,-1.0
4004,16976,-76,492,-1.00,-1.0
4006,16928,-48,544,-1.00,-1.0
4008,16988,-8,600,-1.00,-1.0
4010,16960,-40,600,-1.00,-1.0
4012,17036,12,580,-1.00,-1.0
4014,17048,76,576,-1.00,-1.0
4015,17016,-112,644,-1.00,-1.0
4017,16912,0,628,-1.00,-1.0
4019,16968,-56,548,-1.00,-1.0
4021,16968,-100,784,-1.00,-1.0
4023,17028,-40,568,-1.00,-1.0
4025,17112,12,608,-1.00,-1.0
4027,17008,-8,588,-1.00,-1.0
4029,16968,-44,580,-1.00,-1.0
4031,16964,-156,692,-1.00,-1.0
4033,16992,-28,548,-1.00,-1.0
4035,16892,-16,580,-1.00,-1.0
4039,17036,-12,640,-1.00,-1.0
4041,17000,-4,640,-1.00,-1.0
4043,16852,84,632,-1.00,-1.0
4045,16964,-28,680,-1.00,-1.0
4047,16964,-12,532,-1.00,-1.0
4049,16940,-76,528,-1.00,-1.0
4051,17032,-16,600,-1.00,-1.0
4053,16996,-148,612,-1.00,-1.0
4055,17004,4,608,-1.00,-1.0
4057,17044,-44,620,-1.00,-1.0
4058,16988,-36,712,-1.00,-1.0
4060,16852,40,632,-1.00,-1.0
4062,16952,-8,560,-1.00,-1.0
4064,17016,-100,652,-1.00,-1.0
4066,17024,12,716,-1.00,-1.0
4068,17000,116,672,-1.00,-1.0
4070,16956,-36,576,-1.00,-1.0
4074,16912,80,824,-1.00,-1.0
4076,16984,20,692,-1.00,-1.0
4078,17048,44,596,-1.00,-1.0
4080,16936,0,660,-1.00,-1.0
4082,16956,36,668,-1.00,-1.0
4084,17000,-28,696,-1.00,-1.0
4086,17028,64,704,-1.00,-1.0
4088,16964,40,624,-1.00,-1.0
4090,17048,60,632,-1.00,-1.0
4092,16980,-28,604,-1.00,-1.0
4094,17032,-28,408,-1.00,-1.0
4095,16992,-12,532,-1.00,-1.0
4097,17012,-32,640,-1.00,-1.0
4099,16932,32,624,-1.00,-1.0
4101,17020,-52,688,-1.00,-1.0
4103,17016,-100,576,-1.00,-1.0
4105,17024,0,616,-1.00,-1.0
4109,17060,-124,672,-1.00,-1.0
4111,17052,32,740,-1.00,-1.0
4113,17004,-56,756,-1.00,-1.0
4115,17048,28,688,-1.00,-1.0
4117,16984,-28,472,-1.00,-1.0
4119,16980,24,584,-1.00,-1.0
4121,16980,116,684,-1.00,-1.0
4123,16996,16,660,-1.00,-1.0
4125,16932,-36,576,-1.00,-1.0
4127,16952,60,612,-1.00,-1.0
4129,16980,84,508,-1.00,-1.0
4131,16984,-60,544,-1.00,-1.0
4133,17040,-8,564,-1.00,-1.0
4135,17008,28,672,-1.00,-1.0
4137,16984,-112,720,-1.00,-1.0
4138,16896,-56,584,-1.00,-1.0
4140,16948,48,592,-1.00,-1.0
4142,16936,-24,568,-1.00,-1.0
4146,16964,-60,596,-1.00,-1.0
4148,16980,-80,728,-1.00,-1.0
4150,16956,-20,548,-1.00,-1.0
4152,16956,-8,524,-1.00,-1.0
4154,17052,-32,668,-1.00,-1.0
4156,16976,-60,636,-1.00,-1.0
4158,16992,24,668,-1.00,-1.0
4160,17008,64,660,-1.00,-1.0
4162,16964,-88,816,-1.00,-1.0
4164,17028,72,624,-1.00,-1.0
4166,17052,84,472,-1.00,-1.0
4168,17020,28,528,-1.00,-1.0
4170,16992,52,656,-1.00,-1.0
4172,16984,-60,624,-1.00,-1.0
4174,16960,48,632,-1.00,-1.0
4176,17008,24,484,-1.00,-1.0
4177,16988,-56,504,-1.00,-1.0
4182,17104,-24,628,-1.00,-1.0
4184,16996,-64,684,-1.00,-1.0
4186,16976,28,624,-1.00,-1.0
4187,16992,12,584,-1.00,-1.0
4190,16992,-24,572,-1.00,-1.0
4191,16984,-40,644,-1.00,-1.0
4193,16996,24,792,-1.00,-1.0
4195,17084,32,636,-1.00,-1.0
4197,16904,0,680,-1.00,-1.0
4199,16916,-40,580,-1.00,-1.0
4201,16984,40,560,-1.00,-1.0
4203,16932,36,700,-1.00,-1.0
4205,17052,36,596,-1.00,-1.0
4207,16988,-24,680,-1.00,-1.0
4209,17008,28,560,-1.00,-1.0
4211,16948,-72,632,-1.00,-1.0
4213,16972,32,548,-1.00,-1.0
4215,17036,-8,556,-1.00,-1.0
4219,16892,64,736,-1.00,-1.0
4221,16968,12,636,-1.00,-1.0
4223,17040,-8,548,-1.00,-1.0
4225,17008,56,696,-1.00,-1.0
4227,16936,-52,624,-1.00,-1.0
4229,16972,76,504,-1.00,-1.0
4231,16996,20,600,-1.00,-1.0
4232,16952,4,720,-1.00,-1.0
4234,17012,-56,620,-1.00,-1.0
4236,16952,-16,696,-1.00,-1.0
4238,16976,-28,544,-1.00,-1.0
4240,17100,48,672,-1.00,-1.0
4242,17072,84,708,-1.00,-1.0
4244,17008,-32,624,-1.00,-1.0
4246,17064,-20,544,-1.00,-1.0
4248,17016,-48,704,-1.00,-1.0
4250,16952,-28,632,-1.00,-1.0
4254,16912,28,740,-1.00,-1.0
4256,16896,0,604,-1.00,-1.0
4258,17012,8,580,-1.00,-1.0
4260,16972,12,536,-1.00,-1.0
4262,16984,-8,556,-1.00,-1.0
4264,17044,-12,664,-1.00,-1.0
4266,17024,-36,544,-1.00,-1.0
4268,16872,-28,548,-1.00,-1.0
4270,16988,44,624,-1.00,-1.0
4272,16972,28,552,-1.00,-1.0
4274,16916,-56,592,-1.00,-1.0
4275,17056,-64,728,-1.00,-1.0
4277,16976,-76,628,-1.00,-1.0
4279,16996,-68,664,-1.00,-1.0
4281,17024,12,680,-1.00,-1.0
4283,16988,-32,632,-1.00,-1.0
4285,16972,-88,832,-1.00,-1.0
4289,17008,132,584,-1.00,-1.0
4291,17056,-68,664,-1.00,-1.0
4293,17084,-88,708,-1.00,-1.0
4295,16956,-76,748,-1.00,-1.0
4297,17052,12,692,-1.00,-1.0
4299,16984,96,644,-1.00,-1.0
4301,17060,76,612,-1.00,-1.0
4303,16944,20,664,-1.00,-1.0
4305,17008,40,644,-1.00,-1.0
4307,16860,72,628,-1.00,-1.0
4309,17048,80,564,-1.00,-1.0
4311,16952,-4,612,-1.00,-1.0
4313,16940,24,600,-1.00,-1.0
4315,17016,16,532,-1.00,-1.0
4317,17036,16,572,-1.00,-1.0
4319,17068,80,664,-1.00,-1.0
4320,16904,-60,592,-1.00,-1.0
4322,16980,68,648,-1.00,-1.0
4327,16960,-88,480,-1.00,-1.0
4329,17068,0,712,-1.00,-1.0
4330,16904,-44,676,-1.00,-1.0
4332,17064,8,680,-1.00,-1.0
4334,17016,-48,616,-1.00,-1.0
4336,16992,-8,668,-1.00,-1.0
4338,16920,-36,576,-1.00,-1.0
4340,16940,16,696,-1.00,-1.0
4342,17036,-40,664,-1.00,-1.0
4344,17040,-12,612,-1.00,-1.0
4346,17036,0,676,-1.00,-1.0
4348,17040,48,728,-1.00,-1.0
4350,16932,-28,588,-1.00,-1.0
4352,16952,-76,492,-1.00,-1.0
4354,17064,16,548,-1.00,-1.0
4356,16968,-4,624,-1.00,-1.0
4358,17004,-4,612,-1.00,-1.0
4362,16976,-52,680,-1.00,-1.0
4364,17064,-56,736,-1.00,-1.0
4366,16996,-80,704,-1.00,-1.0
4367,17064,-88,540,-1.00,-1.0
4369,17064,-24,664,-1.00,-1.0
4371,16976,4,632,-1.00,-1.0
4373,16992,120,564,-1.00,-1.0
4375,16952,-64,708,-1.00,-1.0
4377,16948,-84,668,-1.00,-1.0
4379,16976,24,864,-1.00,-1.0
4381,16992,-32,540,-1.00,-1.0
4383,16964,-76,696,-1.00,-1.0
4385,17052,-52,584,-1.00,-1.0
4387,16888,-44,688,-1.00,-1.0
4389,17088,-52,656,-1.00,-1.0
4391,16972,-60,728,-1.00,-1.0
4393,16932,0,628,-1.00,-1.0
4395,17044,28,616,-1.00,-1.0
4399,16944,-4,660,-1.00,-1.0
4401,16872,24,652,-1.00,-1.0
4403,17052,32,612,-1.00,-1.0
4405,17036,-28,536,-1.00,-1.0
4407,16948,-4,592,-1.00,-1.0
4409,17000,48,504,-1.00,-1.0
4410,17020,-44,516,-1.00,-1.0
4412,17028,-32,640,-1.00,-1.0
4414,16964,-40,564,-1.00,-1.0
4416,16836,56,628,-1.00,-1.0
4418,16960,28,632,-1.00,-1.0
4420,16936,24,648,-1.00,-1.0
4422,16928,-52,564,-1.00,-1.0
4424,16964,80,724,-1.00,-1.0
4426,17036,8,652,-1.00,-1.0
4428,17040,-48,708,-1.00,-1.0
4430,17012,12,648,-1.00,-1.0
4434,17020,-68,620,-1.00,-1.0
4436,16892,-44,696,-1.00,-1.0
4438,16936,40,492,-1.00,-1.0
4440,16936,0,512,-1.00,-1.0
4442,16936,-8,700,-1.00,-1.0
4444,16924,44,564,-1.00,-1.0
4446,16932,-4,588,-1.00,-1.0
4448,17020,-4,720,-1.00,-1.0
4450,16976,-60,732,-1.00,-1.0
4452,16988,-92,716,-1.00,-1.0
4454,16924,24,680,-1.00,-1.0
4455,16964,-60,620,-1.00,-1.0
4457,16892,16,652,-1.00,-1.0
4459,17028,36,920,-1.00,-1.0
4461,16960,0,668,-1.00,-1.0
4463,16940,-100,560,-1.00,-1.0
4465,16956,44,576,-1.00,-1.0
4467,17072,16,536,-1.00,-1.0
4471,16936,-16,764,-1.00,-1.0
4473,17020,4,608,-1.00,-1.0
4475,16928,-20,548,-1.00,-1.0
4477,16972,0,544,-1.00,-1.0
4479,17052,-60,680,-1.00,-1.0
4481,17000,40,700,-1.00,-1.0
4483,17000,12,592,-1.00,-1.0
4485,16920,-120,716,-1.00,-1.0
4487,16932,64,648,-1.00,-1.0
4489,16924,-60,816,-1.00,-1.0
4491,17032,-24,500,-1.00,-1.0
4493,16976,64,688,-1.00,-1.0
4495,17024,28,684,-1.00,-1.0
4497,17004,24,748,-1.00,-1.0
4499,17020,48,740,-1.00,-1.0
4500,17020,48,692,-1.00,-1.0
4502,16992,64,664,-1.00,-1.0
4507,17004,-24,664,-1.00,-1.0
4509,16996,-16,556,-1.00,-1.0
4510,17056,4,704,-1.00,-1.0
4512,17100,-52,724,-1.00,-1.0
4514,17020,-64,588,-1.00,-1.0
4516,16980,8,604,-1.00,-1.0
4518,17012,28,736,-1.00,-1.0
4520,17000,0,576,-1.00,-1.0
4522,16948,48,756,-1.00,-1.0
4524,16992,-4,596,-1.00,-1.0
4526,17024,-60,572,-1.00,-1.0
4528,16956,0,664,-1.00,-1.0
4530,16932,84,640,-1.00,-1.0
4532,16916,-64,600,-1.00,-1.0
4534,17056,-28,480,-1.00,-1.0
4536,17016,104,656,-1.00,-1.0
4538,16856,56,716,-1.00,-1.0
4540,16912,-92,640,-1.00,-1.0
4544,17020,24,740,-1.00,-1.0
4546,17008,60,712,-1.00,-1.0
4548,17016,48,640,-1.00,-1.0
4550,17032,-56,740,-1.00,-1.0
4552,17048,-128,672,-1.00,-1.0
4554,16992,80,656,-1.00,-1.0
4555,16940,-48,520,-1.00,-1.0
4557,16920,-28,608,-1.00,-1.0
4559,16996,-4,680,-1.00,-1.0
4561,17044,104,648,-1.00,-1.0
4563,16916,-72,544,-1.00,-1.0
4565,16912,72,600,-1.00,-1.0
4567,17016,-16,544,-1.00,-1.0
4569,16984,8,480,-1.00,-1.0
4571,17024,48,496,-1.00,-1.0
4573,16988,68,572,-1.00,-1.0
4575,17028,-44,720,-1.00,-1.0
4579,17008,32,624,-1.00,-1.0
4581,16960,12,676,-1.00,-1.0
4583,16916,84,600,-1.00,-1.0
4585,16964,44,556,-1.00,-1.0
4587,17000,60,672,-1.00,-1.0
4589,16980,-88,660,-1.00,-1.0
4591,17004,-108,592,-1.00,-1.0
4593,16976,-44,792,-1.00,-1.0
4595,16972,-32,592,-1.00,-1.0
4597,17036,36,608,-1.00,-1.0
4599,16976,36,628,-1.00,-1.0
4601,17052,-132,732,-1.00,-1.0
4603,16964,-40,772,-1.00,-1.0
4605,17044,-80,488,-1.00,-1.0
4607,17072,-32,496,-1.00,-1.0
4608,16928,-56,632,-1.00,-1.0
4610,17028,-88,560,-1.00,-1.0
4615,17016,-40,596,-1.00,-1.0
4617,17128,60,696,-1.00,-1.0
4618,17004,-24,488,-1.00,-1.0
4620,17000,-12,640,-1.00,-1.0
4622,17108,16,708,-1.00,-1.0
4624,16964,-8,556,-1.00,-1.0
4626,17008,12,412,-1.00,-1.0
4628,16924,-24,652,-1.00,-1.0
4630,16924,-4,608,-1.00,-1.0
4632,16988,-12,628,-1.00,-1.0
4634,17028,120,532,-1.00,-1.0
4636,16964,-92,568,-1.00,-1.0
4638,17056,0,616,-1.00,-1.0
4640,16976,28,624,-1.00,-1.0
4642,16928,44,616,-1.00,-1.0
4644,16952,24,704,-1.00,-1.0
4646,16968,-4,556,-1.00,-1.0
4647,16956,-52,672,-1.00,-1.0
4652,17064,-36,744,-1.00,-1.0
4654,17056,-4,760,-1.00,-1.0
4656,17080,16,660,-1.00,-1.0
4658,16964,-20,700,-1.00,-1.0
4660,17004,-16,728,-1.00,-1.0
4662,16984,16,608,-1.00,-1.0
4664,16992,-52,592,-1.00,-1.0
4666,16968,4,684,-1.00,-1.0
4668,17100,28,536,-1.00,-1.0
4670,16948,92,552,-1.00,-1.0
4672,17012,-12,724,-1.00,-1.0
4674,17068,-96,600,-1.00,-1.0
4676,16960,16,612,-1.00,-1.0
4678,16892,28,516,-1.00,-1.0
4680,17048,-4,652,-1.00,-1.0
4681,16972,16,724,-1.00,-1.0
4683,17028,-12,736,-1.00,-1.0
4687,16956,16,504,-1.00,-1.0
4689,16984,0,608,-1.00,-1.0
4691,17008,-76,644,-1.00,-1.0
4693,16972,-20,716,-1.00,-1.0
4695,16852,80,740,-1.00,-1.0
4697,16992,8,556,-1.00,-1.0
4699,17088,12,696,-1.00,-1.0
4701,16888,-56,632,-1.00,-1.0
4703,16984,12,508,-1.00,-1.0
4705,16976,92,704,-1.00,-1.0
4707,16992,-124,668,-1.00,-1.0
4709,16968,48,652,-1.00,-1.0
4711,17012,4,536,-1.00,-1.0
4713,17020,-52,776,-1.00,-1.0
4715,17060,80,624,-1.00,-1.0
4717,16912,-40,692,-1.00,-1.0
4718,16956,-76,784,-1.00,-1.0
4723,16936,-60,588,-1.00,-1.0
4725,16904,-64,572,-1.00,-1.0
4727,16940,-60,776,-1.00,-1.0
4728,16976,12,580,-1.00,-1.0
4730,17028,12,816,-1.00,-1.0
4732,16984,-12,624,-1.00,-1.0
4734,17012,-28,696,-1.00,-1.0
4736,17028,-24,648,-1.00,-1.0
4738,16960,-12,764,-1.00,-1.0
4740,16892,-8,620,-1.00,-1.0
4742,16924,116,620,-1.00,-1.0
4744,16964,24,528,-1.00,-1.0
4746,17024,32,604,-1.00,-1.0
4748,16972,-16,576,-1.00,-1.0
4750,16808,0,660,-1.00,-1.0
4752,17016,-68,692,-1.00,-1.0
4754,16988,-20,592,-1.00,-1.0
4756,16940,-8,636,-1.00,-1.0
4760,16940,-24,664,-1.00,-1.0
4762,17020,76,588,-1.00,-1.0
4764,16976,-20,672,-1.00,-1.0
4766,16920,0,632,-1.00,-1.0
4768,17016,36,612,-1.00,-1.0
4770,17028,40,628,-1.00,-1.0
4772,17000,36,584,-1.00,-1.0
4773,17064,-132,772,-1.00,-1.0
4776,17172,-132,660,-1.00,-1.0
4777,17012,-4,736,-1.00,-1.0
4779,16928,-40,640,-1.00,-1.0
4781,16884,-8,488,-1.00,-1.0
4783,16904,12,536,-1.00,-1.0
4785,16992,-52,644,-1.00,-1.0
4787,16924,28,592,-1.00,-1.0
4789,16932,16,628,-1.00,-1.0
4791,16952,-24,680,-1.00,-1.0
4795,16992,100,724,-1.00,-1.0
4797,17132,12,712,-1.00,-1.0
4799,17004,52,628,-1.00,-1.0
4801,16848,24,596,-1.00,-1.0
4803,17008,132,632,-1.00,-1.0
4805,16920,60,624,-1.00,-1.0
4807,16956,24,692,-1.00,-1.0
4809,16980,8,600,-1.00,-1.0
4811,17028,-52,664,-1.00,-1.0
4813,16944,72,596,-1.00,-1.0
4815,17052,20,528,-1.00,-1.0
4817,16968,56,736,-1.00,-1.0
4818,16968,76,616,-1.00,-1.0
4820,17036,-64,652,-1.00,-1.0
4822,16992,0,612,-1.00,-1.0
4824,16948,-44,520,-1.00,-1.0
4826,16972,16,632,-1.00,-1.0
4828,16988,0,608,-1.00,-1.0
4832,17068,-28,628,-1.00,-1.0
4834,17048,-20,692,-1.00,-1.0
4836,17016,-4,680,-1.00,-1.0
4838,16992,52,724,-1.00,-1.0
4840,16936,24,648,-1.00,-1.0
4842,16924,36,496,-1.00,-1.0
4844,17004,-28,544,-1.00,-1.0
4846,16940,-4,520,-1.00,-1.0
4848,17028,-64,636,-1.00,-1.0
4850,16940,36,724,-1.00,-1.0
4852,16972,36,660,-1.00,-1.0
4854,16944,-128,672,-1.00,-1.0
4856,16960,108,652,-1.00,-1.0
4858,17084,24,596,-1.00,-1.0
4860,17104,-12,632,-1.00,-1.0
4861,17052,-4,748,-1.00,-1.0
4863,16972,-12,584,-1.00,-1.0
4868,17040,4,588,-1.00,-1.0
4870,16976,-100,488,-1.00,-1.0
4871,16924,-72,668,-1.00,-1.0
4873,17000,-40,864,-1.00,-1.0
4875,17040,40,756,-1.00,-1.0
4877,16952,60,552,-1.00,-1.0
4879,17028,-16,692,-1.00,-1.0
4881,16936,20,592,-1.00,-1.0
4883,16976,-28,576,-1.00,-1.0
4885,17128,24,584,-1.00,-1.0
4887,17008,-4,532,-1.00,-1.0
4889,16972,-80,724,-1.00,-1.0
4891,16932,-28,496,-1.00,-1.0
4893,16900,-88,656,-1.00,-1.0
4895,17008,-28,640,-1.00,-1.0
4897,17028,-100,640,-1.00,-1.0
4899,17092,40,660,-1.00,-1.0
4903,16980,60,636,-1.00,-1.0
4905,16984,-40,568,-1.00,-1.0
4907,16980,-36,600,-1.00,-1.0
4909,17004,48,780,-1.00,-1.0
4910,16952,-68,712,-1.00,-1.0
4913,17008,4,524,-1.00,-1.0
4915,17044,12,652,-1.00,-1.0
4916,17036,-8,712,-1.00,-1.0
4918,16968,76,616,-1.00,-1.0
4920,16836,20,620,-1.00,-1.0
4922,17104,-52,576,-1.00,-1.0
4924,17164,-4,532,-1.00,-1.0
4926,17036,20,552,-1.00,-1.0
4928,16980,-68,628,-1.00,-1.0
4930,16996,-40,564,-1.00,-1.0
4932,17056,-16,648,-1.00,-1.0
4934,16968,-100,720,-1.00,-1.0
4936,17132,-16,560,-1.00,-1.0
4940,16968,84,584,-1.00,-1.0
4942,16976,-4,720,-1.00,-1.0
4944,17100,-36,704,-1.00,-1.0
4946,16968,8,632,-1.00,-1.0
4948,17016,-80,508,-1.00,-1.0
4950,17036,20,632,-1.00,-1.0
4952,16912,-24,648,-1.00,-1.0
4953,16904,92,676,-1.00,-1.0
4955,16976,-16,700,-1.00,-1.0
4957,17052,-4,720,-1.00,-1.0
4959,17052,-24,624,-1.00,-1.0
4961,16948,-84,576,-1.00,-1.0
4963,17004,-68,624,-1.00,-1.0
4965,17016,68,468,-1.00,-1.0
4967,17028,40,580,-1.00,-1.0
4969,17000,20,560,-1.00,-1.0
4971,16976,-116,600,-1.00,-1.0
4975,16904,-52,696,-1.00,-1.0
4977,16984,12,808,-1.00,-1.0
4979,16928,76,728,-1.00,-1.0
4981,17016,-20,760,-1.00,-1.0
4983,17048,-16,756,-1.00,-1.0
4985,17068,-12,568,-1.00,-1.0
4987,16976,4,652,-1.00,-1.0
4989,16976,-4,616,-1.00,-1.0
4990,16980,-12,528,-1.00,-1.0
4992,17008,-32,644,-1.00,-1.0
4994,17044,-40,652,-1.00,-1.0
4996,16924,-40,556,-1.00,-1.0
4998,16976,-24,648,-1.00,-1.0
5000,17064,-100,816,-1.00,-1.0
5002,17076,-52,608,-1.00,-1.0
5004,16920,-16,532,-1.00,-1.0
5006,16980,-8,608,-1.00,-1.0
5010,16912,-20,600,-1.00,-1.0
5012,17000,72,612,-1.00,-1.0
5014,16932,-4,656,-1.00,-1.0
5016,16972,-20,672,-1.00,-1.0
5018,16904,-56,688,-1.00,-1.0
5020,16968,-16,692,-1.00,-1.0
5022,16976,28,596,-1.00,-1.0
5024,17008,36,472,-1.00,-1.0
5026,16968,-16,584,-1.00,-1.0
5028,16932,-28,572,-1.00,-1.0
5030,16992,16,592,-1.00,-1.0
5032,16984,-100,604,-1.00,-1.0
5034,17048,4,540,-1.00,-1.0
5036,17000,64,600,-1.00,-1.0
5038,17024,108,460,-1.00,-1.0
5039,17024,-80,652,-1.00,-1.0
5041,16988,16,560,-1.00,-1.0
5043,17044,16,620,-1.00,-1.0
5047,17028,-20,704,-1.00,-1.0
5049,17036,-32,580,-1.00,-1.0
5051,16924,-140,612,-1.00,-1.0
5053,16952,0,708,-1.00,-1.0
5055,17000,-44,580,-1.00,-1.0
5057,16964,48,552,-1.00,-1.0
5059,17028,28,736,-1.00,-1.0
5061,17060,100,612,-1.00,-1.0
5063,16992,0,812,-1.00,-1.0
5065,17020,24,596,-1.00,-1.0
5067,17096,12,560,-1.00,-1.0
5069,16956,0,572,-1.00,-1.0
5071,16980,-16,764,-1.00,-1.0
5073,17028,4,712,-1.00,-1.0
5075,16928,16,504,-1.00,-1.0
5077,16920,-24,668,-1.00,-1.0
5078,17024,0,612,-1.00,-1.0
5083,16976,-48,552,-1.00,-1.0
5085,17048,108,724,-1.00,-1.0
5087,17004,60,616,-1.00,-1.0
5089,16992,-28,620,-1.00,-1.0
5090,16972,80,616,-1.00,-1.0
5092,17084,-40,684,-1.00,-1.0
5094,17056,-108,672,-1.00,-1.0
5096,16952,48,628,-1.00,-1.0
5098,16948,24,636,-1.00,-1.0
5100,16948,-24,656,-1.00,-1.0
5102,16976,28,692,-1.00,-1.0
5104,16976,16,752,-1.00,-1.0
5106,17088,16,696,-1.00,-1.0
5108,17000,12,708,-1.00,-1.0
5110,17004,8,472,-1.00,-1.0
5112,16932,12,608,-1.00,-1.0
5114,17028,24,604,-1.00,-1.0
5116,16976,88,548,-1.00,-1.0
5120,17076,-4,564,-1.00,-1.0
5122,17016,8,564,-1.00,-1.0
5124,16956,52,540,-1.00,-1.0
5126,17048,-112,528,-1.00,-1.0
5128,16956,-140,708,-1.00,-1.0
5130,16992,-84,596,-1.00,-1.0
5132,16976,8,724,-1.00,-1.0
5134,16964,12,740,-1.00,-1.0
5136,17048,-132,620,-1.00,-1.0
5138,17028,-52,676,-1.00,-1.0
5139,17000,52,636,-1.00,-1.0
5141,16892,-28,608,-1.00,-1.0
5143,17048,-56,696,-1.00,-1.0
5145,16944,-48,600,-1.00,-1.0
5147,17000,0,572,-1.00,-1.0
5149,16976,-32,748,-1.00,-1.0
5151,16896,-56,544,-1.00,-1.0
5155,17036,-64,616,-1.00,-1.0
5157,17024,-76,708,-1.00,-1.0
5159,16916,36,700,-1.00,-1.0
5161,16956,-8,488,-1.00,-1.0
5163,17068,24,468,-1.00,-1.0
5165,17020,-24,724,-1.00,-1.0
5167,16976,20,660,-1.00,-1.0
5169,17044,92,584,-1.00,-1.0
5171,16940,-36,724,-1.00,-1.0
5173,17020,8,600,-1.00,-1.0
5175,16932,104,600,-1.00,-1.0
5177,17012,12,532,-1.00,-1.0
5179,16976,-28,640,-1.00,-1.0
5181,16972,32,648,-1.00,-1.0
5183,16916,40,656,-1.00,-1.0
5184,17028,12,660,-1.00,-1.0
5186,16956,-8,536,-1.00,-1.0
5191,16964,-32,700,-1.00,-1.0
5193,16976,-80,616,-1.00,-1.0
5195,16944,-68,756,-1.00,-1.0
5197,16968,36,740,-1.00,-1.0
5198,17076,44,644,-1.00,-1.0
5200,16924,-84,600,-1.00,-1.0
5202,16904,20,532,-1.00,-1.0
5204,17020,-28,692,-1.00,-1.0
5206,17008,-28,580,-1.00,-1.0
5208,17084,52,576,-1.00,-1.0
5210,16972,64,632,-1.00,-1.0
5212,17012,12,684,-1.00,-1.0
5214,17044,-24,584,-1.00,-1.0
5216,16932,-16,628,-1.00,-1.0
5218,16920,-88,532,-1.00,-1.0
5220,16988,-80,584,-1.00,-1.0
5222,17016,-52,732,-1.00,-1.0
5224,17096,-52,728,-1.00,-1.0
5228,16916,48,604,-1.00,-1.0
5230,17024,8,460,-1.00,-1.0
5232,17040,-40,632,-1.00,-1.0
5234,16944,-52,636,-1.00,-1.0
5236,17012,-28,556,-1.00,-1.0
5238,16976,8,568,-1.00,-1.0
5239,16936,-76,644,-1.00,-1.0
5241,16940,-68,604,-1.00,-1.0
5243,17040,48,648,-1.00,-1.0
5245,16888,-72,680,-1.00,-1.0
5247,17020,-32,652,-1.00,-1.0
5249,17028,48,676,-1.00,-1.0
5251,16976,-20,648,-1.00,-1.0
5253,17000,0,656,-1.00,-1.0
5255,16932,0,564,-1.00,-1.0
5257,16972,64,700,-1.00,-1.0
5259,16964,32,812,-1.00,-1.0
5263,16988,-16,652,-1.00,-1.0
5265,16956,-8,584,-1.00,-1.0
5267,16956,0,708,-1.00,-1.0
5269,16996,32,732,-1.00,-1.0
5271,17036,32,616,-1.00,-1.0
5273,17004,-84,612,-1.00,-1.0
5275,16972,16,600,-1.00,-1.0
5276,16932,16,628,-1.00,-1.0
5278,16940,-112,732,-1.00,-1.0
5280,16972,0,652,-1.00,-1.0
5282,17028,-16,596,-1.00,-1.0
5284,16960,-68,580,-1.00,-1.0
5286,17004,-16,552,-1.00,-1.0
5288,16980,-52,592,-1.00,-1.0
5290,16988,44,584,-1.00,-1.0
5292,17032,20,636,-1.00,-1.0
5294,17032,12,592,-1.00,-1.0
5296,17100,52,672,-1.00,-1.0
5300,16988,-64,724,-1.00,-1.0
5302,16956,-28,528,-1.00,-1.0
5304,17016,16,508,-1.00,-1.0
5306,17032,72,600,-1.00,-1.0
5308,16976,28,372,-1.00,-1.0
5310,17008,16,592,-1.00,-1.0
5312,16920,36,604,-1.00,-1.0
5314,16944,-40,656,-1.00,-1.0
5316,17036,20,660,-1.00,-1.0
5318,16908,-60,672,-1.00,-1.0
5320,16964,-12,744,-1.00,-1.0
5321,17032,-20,476,-1.00,-1.0
5323,16944,-40,672,-1.00,-1.0
5325,17008,20,812,-1.00,-1.0
5327,16920,-52,624,-1.00,-1.0
5329,16984,-8,692,-1.00,-1.0
5331,16992,-84,556,-1.00,-1.0
5335,17036,-100,580,-1.00,-1.0
5337,16988,-16,700,-1.00,-1.0
5339,16972,64,532,-1.00,-1.0
5341,17000,4,612,-1.00,-1.0
5343,16988,-16,640,-1.00,-1.0
5345,17036,-28,444,-1.00,-1.0
5347,17028,0,616,-1.00,-1.0
5349,17036,12,660,-1.00,-1.0
5351,17052,40,776,-1.00,-1.0
5353,17096,48,704,-1.00,-1.0
5355,17060,128,704,-1.00,-1.0
5357,16852,-40,572,-1.00,-1.0
5359,16912,-88,576,-1.00,-1.0
5361,16964,-16,716,-1.00,-1.0
5363,16900,4,744,-1.00,-1.0
5365,16984,40,672,-1.00,-1.0
5366,16876,20,748,-1.00,-1.0
5371,16800,-100,644,-1.00,-1.0
5373,16984,80,624,-1.00,-1.0
5374,17000,-44,624,-1.00,-1.0
5376,16980,-156,596,-1.00,-1.0
5378,17000,-40,684,-1.00,-1.0
5380,16888,-4,748,-1.00,-1.0
5382,16996,8,560,-1.00,-1.0
5384,17040,-104,616,-1.00,-1.0
5386,16880,-56,644,-1.00,-1.0
5388,16968,-36,800,-1.00,-1.0
5390,16948,68,608,-1.00,-1.0
5392,16968,-68,596,-1.00,-1.0
5394,17004,60,664,-1.00,-1.0
5396,17016,-36,608,-1.00,-1.0
5398,16956,-20,768,-1.00,-1.0
5400,17072,28,664,-1.00,-1.0
5402,16964,60,680,-1.00,-1.0
5404,16972,40,620,-1.00,-1.0
5408,16952,-116,684,-1.00,-1.0
5410,16936,-36,624,-1.00,-1.0
5412,17016,-28,492,-1.00,-1.0
5414,17020,-36,668,-1.00,-1.0
5416,17000,12,636,-1.00,-1.0
5418,17000,0,600,-1.00,-1.0
5419,16968,-24,616,-1.00,-1.0
5421,16960,-56,692,-1.00,-1.0
5423,16940,-44,672,-1.00,-1.0
5425,17028,8,812,-1.00,-1.0
5427,17084,-4,836,-1.00,-1.0
5429,16984,16,752,-1.00,-1.0
5431,16940,12,692,-1.00,-1.0
5433,16972,36,564,-1.00,-1.0
5435,17028,-20,632,-1.00,-1.0
5437,17064,4,536,-1.00,-1.0
5439,16956,40,592,-1.00,-1.0
5443,16996,0,572,-1.00,-1.0
5445,16968,-40,708,-1.00,-1.0
5447,17048,-96,696,-1.00,-1.0
5449,17016,-40,596,-1.00,-1.0
5451,16972,80,608,-1.00,-1.0
5453,16924,32,660,-1.00,-1.0
5455,16852,60,740,-1.00,-1.0
5457,16892,-96,564,-1.00,-1.0
5459,16984,-20,632,-1.00,-1.0
5461,17036,4,620,-1.00,-1.0
5463,17000,48,568,-1.00,-1.0
5464,16980,-20,532,-1.00,-1.0
5466,16968,-64,692,-1.00,-1.0
5468,16968,4,652,-1.00,-1.0
5470,16948,20,740,-1.00,-1.0
5472,16980,60,664,-1.00,-1.0
5474,16976,-40,740,-1.00,-1.0
5476,17060,0,592,-1.00,-1.0
5480,17036,-20,680,-1.00,-1.0
5482,16904,-4,612,-1.00,-1.0
5484,16896,-16,608,-1.00,-1.0
5486,17060,72,620,-1.00,-1.0
5488,17020,-48,704,-1.00,-1.0
5490,17036,-32,644,-1.00,-1.0
5492,16972,-24,588,-1.00,-1.0
5494,16932,-56,620,-1.00,-1.0
5496,17004,100,544,-1.00,-1.0
5498,17116,96,676,-1.00,-1.0
5500,16944,-28,596,-1.00,-1.0
5502,17024,32,584,-1.00,-1.0
5504,17052,-4,660,-1.00,-1.0
5506,16972,36,612,-1.00,-1.0
5508,16976,-36,684,-1.00,-1.0
5509,16916,12,832,-1.00,-1.0
5511,17060,72,640,-1.00,-1.0
5515,17052,-32,588,-1.00,-1.0
5517,16864,-52,648,-1.00,-1.0
5519,17004,36,660,-1.00,-1.0
5521,16948,-64,688,-1.00,-1.0
5523,16988,-4,624,-1.00,-1.0
5525,16992,32,624,-1.00,-1.0
5527,16992,32,504,-1.00,-1.0
5529,16924,48,772,-1.00,-1.0
5531,16920,-12,660,-1.00,-1.0
5533,16996,-40,488,-1.00,-1.0
5535,17056,-24,652,-1.00,-1.0
5537,17068,-80,596,-1.00,-1.0
5539,17044,-8,692,-1.00,-1.0
5541,16980,24,580,-1.00,-1.0
5543,16852,12,608,-1.00,-1.0
5545,16956,-8,804,-1.00,-1.0
5546,16932,-52,580,-1.00,-1.0
5551,16924,24,652,-1.00,-1.0
5553,17012,-28,672,-1.00,-1.0
5554,17008,16,764,-1.00,-1.0
5556,17004,-20,716,-1.00,-1.0
5558,17004,8,476,-1.00,-1.0
5560,16928,-52,620,-1.00,-1.0
5562,16972,0,680,-1.00,-1.0
5564,16948,-44,512,-1.00,-1.0
5566,17060,-36,724,-1.00,-1.0
5568,16960,-124,600,-1.00,-1.0
5570,16988,-44,664,-1.00,-1.0
5572,16944,0,684,-1.00,-1.0
5574,17004,8,512,-1.00,-1.0
5576,16984,8,744,-1.00,-1.0
5578,17072,-16,648,-1.00,-1.0
5580,17032,-12,604,-1.00,-1.0
5582,16976,100,736,-1.00,-1.0
5583,17004,-24,540,-1.00,-1.0
5588,16988,0,716,-1.00,-1.0
5590,17072,-80,620,-1.00,-1.0
5592,17020,-48,660,-1.00,-1.0
5594,16960,-16,760,-1.00,-1.0
5596,16976,-52,564,-1.00,-1.0
5598,16996,72,736,-1.00,-1.0
5599,17016,-56,668,-1.00,-1.0
5601,16988,-8,640,-1.00,-1.0
5603,16980,64,536,-1.00,-1.0
5605,16960,32,616,-1.00,-1.0
5607,17080,8,696,-1.00,-1.0
5609,16960,56,792,-1.00,-1.0
5611,16976,0,712,-1.00,-1.0
5613,17000,-16,568,-1.00,-1.0
5615,17012,-40,632,-1.00,-1.0
5617,16984,32,556,-1.00,-1.0
5619,16928,-76,644,-1.00,-1.0
5623,16992,-128,568,-1.00,-1.0
5625,17076,28,520,-1.00,-1.0
5627,16880,-68,648,-1.00,-1.0
5629,16960,-64,640,-1.00,-1.0
5631,16956,-40,648,-1.00,-1.0
5633,16908,-84,608,-1.00,-1.0
5635,17044,48,752,-1.00,-1.0
5637,16988,-12,696,-1.00,-1.0
5638,16968,-36,612,-1.00,-1.0
5641,16988,-20,648,-1.00,-1.0
5643,16972,28,620,-1.00,-1.0
5644,16924,28,768,-1.00,-1.0
5646,17048,16,720,-1.00,-1.0
5648,16972,-88,644,-1.00,-1.0
5650,16940,-20,660,-1.00,-1.0
5652,17004,-48,768,-1.00,-1.0
5654,17048,-64,784,-1.00,-1.0
5658,16920,-76,500,-1.00,-1.0
5660,16996,32,456,-1.00,-1.0
5662,17028,28,684,-1.00,-1.0
5664,16996,-92,604,-1.00,-1.0
5666,16980,36,644,-1.00,-1.0
5668,16980,12,620,-1.00,-1.0
5670,17080,84,556,-1.00,-1.0
5672,17056,-16,712,-1.00,-1.0
5674,16992,-20,652,-1.00,-1.0
5676,17000,12,548,-1.00,-1.0
5678,17048,4,684,-1.00,-1.0
5680,16956,132,560,-1.00,-1.0
5682,16996,-16,504,-1.00,-1.0
5683,16932,-24,732,-1.00,-1.0
5686,16980,44,740,-1.00,-1.0
5687,17016,-8,564,-1.00,-1.0
5689,16952,-68,536,-1.00,-1.0
5691,16956,-76,620,-1.00,-1.0
5696,17016,52,748,-1.00,-1.0
5698,17048,-24,656,-1.00,-1.0
5699,16956,-100,620,-1.00,-1.0
5701,16892,-172,644,-1.00,-1.0
5703,16884,-24,656,-1.00,-1.0
5705,16976,-120,740,-1.00,-1.0
5707,17036,-32,496,-1.00,-1.0
5709,17012,-40,552,-1.00,-1.0
5711,17044,-64,508,-1.00,-1.0
5713,16916,28,584,-1.00,-1.0
5715,16936,24,512,-1.00,-1.0
5717,16956,-4,488,-1.00,-1.0
5719,17008,24,644,-1.00,-1.0
5721,16932,28,688,-1.00,-1.0
5723,16988,-100,608,-1.00,-1.0
5725,16916,-40,596,-1.00,-1.0
5727,16952,-8,596,-1.00,-1.0
5731,16964,24,700,-1.00,-1.0
5733,16972,40,640,-1.00,-1.0
5735,16992,28,624,-1.00,-1.0
5737,16896,-32,704,-1.00,-1.0
5739,16936,-24,664,-1.00,-1.0
5741,16988,16,612,-1.00,-1.0
5743,16880,84,640,-1.00,-1.0
5744,17036,-68,672,-1.00,-1.0
5746,17072,-88,572,-1.00,-1.0
5748,16980,64,608,-1.00,-1.0
5750,16952,-40,716,-1.00,-1.0
5752,16936,-64,660,-1.00,-1.0
5754,16976,-8,692,-1.00,-1.0
5756,16928,24,640,-1.00,-1.0
5758,17036,72,748,-1.00,-1.0
5760,16972,0,632,-1.00,-1.0
5762,17020,-68,624,-1.00,-1.0
5766,16924,-40,672,-1.00,-1.0
5768,16984,-24,564,-1.00,-1.0
5770,16996,-12,752,-1.00,-1.0
5772,17008,16,796,-1.00,-1.0
5774,16904,-48,620,-1.00,-1.0
5776,17008,40,644,-1.00,-1.0
5778,16880,24,588,-1.00,-1.0
5780,16992,-52,636,-1.00,-1.0
5782,17028,76,624,-1.00,-1.0
5784,17040,-24,664,-1.00,-1.0
5786,16976,-4,592,-1.00,-1.0
5788,17024,72,636,-1.00,-1.0
5790,17032,-68,692,-1.00,-1.0
5792,16948,16,644,-1.00,-1.0
5794,17096,76,708,-1.00,-1.0
5795,16976,24,708,-1.00,-1.0
5797,17040,-60,564,-1.00,-1.0
5799,16896,-52,624,-1.00,-1.0
5804,17020,72,632,-1.00,-1.0
5806,16968,-20,664,-1.00,-1.0
5808,16956,32,572,-1.00,-1.0
5810,17080,64,776,-1.00,-1.0
5812,17028,12,568,-1.00,-1.0
5814,17084,4,612,-1.00,-1.0
5816,17020,60,684,-1.00,-1.0
5818,16992,0,680,-1.00,-1.0
5820,16896,-24,592,-1.00,-1.0
5822,16968,-76,568,-1.00,-1.0
5824,16936,-76,744,-1.00,-1.0
5825,17088,12,624,-1.00,-1.0
5827,16912,28,672,-1.00,-1.0
5829,17104,-36,728,-1.00,-1.0
5831,17028,-64,712,-1.00,-1.0
5833,17044,48,668,-1.00,-1.0
5835,16976,4,744,-1.00,-1.0
5839,16936,24,624,-1.00,-1.0
5841,16904,4,760,-1.00,-1.0
5843,16812,48,616,-1.00,-1.0
5845,16960,-24,624,-1.00,-1.0
5847,16976,-28,616,-1.00,-1.0
5849,17000,-12,604,-1.00,-1.0
5851,16964,44,640,-1.00,-1.0
5853,16956,44,724,-1.00,-1.0
5855,16876,0,584,-1.00,-1.0
5857,17032,72,672,-1.00,-1.0
5859,16976,92,560,-1.00,-1.0
5861,17000,36,620,-1.00,-1.0
5863,16972,-68,724,-1.00,-1.0
5864,16996,-4,660,-1.00,-1.0
5866,17080,44,636,-1.00,-1.0
5868,16892,-88,644,-1.00,-1.0
5870,17036,64,532,-1.00,-1.0
5872,16952,136,600,-1.00,-1.0
5876,16984,32,652,-1.00,-1.0
5878,16988,96,752,-1.00,-1.0
5880,17036,12,596,-1.00,-1.0
5882,16920,-68,800,-1.00,-1.0
5884,16884,-80,684,-1.00,-1.0
5886,16992,-20,720,-1.00,-1.0
5888,16992,-40,608,-1.00,-1.0
5890,17060,8,672,-1.00,-1.0
5892,16976,72,676,-1.00,-1.0
5894,16980,-20,628,-1.00,-1.0
5896,16980,-56,652,-1.00,-1.0
5898,16984,44,592,-1.00,-1.0
5900,16992,4,552,-1.00,-1.0
5902,16972,-12,640,-1.00,-1.0
5904,16952,-32,648,-1.00,-1.0
5906,16996,-96,580,-1.00,-1.0
5907,16920,-32,660,-1.00,-1.0
5912,17000,12,692,-1.00,-1.0
5914,17052,44,680,-1.00,-1.0
5916,16876,-28,580,-1.00,-1.0
5918,17024,60,556,-1.00,-1.0
5919,16956,28,728,-1.00,-1.0
5921,17020,-56,520,-1.00,-1.0
5923,16940,60,704,-1.00,-1.0
5925,17060,92,632,-1.00,-1.0
5927,16912,68,608,-1.00,-1.0
5929,17004,32,644,-1.00,-1.0
5931,16980,-8,708,-1.00,-1.0
5933,16912,-84,820,-1.00,-1.0
5935,16976,-16,708,-1.00,-1.0
5937,16992,-52,608,-1.00,-1.0
5939,16948,-24,628,-1.00,-1.0
5941,16924,48,676,-1.00,-1.0
5943,17032,-64,508,-1.00,-1.0
5945,17012,44,684,-1.00,-1.0
5949,16940,8,652,-1.00,-1.0
5951,17016,-28,580,-1.00,-1.0
5953,17048,-68,632,-1.00,-1.0
5955,16956,-64,688,-1.00,-1.0
5957,16856,32,756,-1.00,-1.0
5959,17056,48,664,-1.00,-1.0
5961,16984,0,680,-1.00,-1.0
5962,16952,20,600,-1.00,-1.0
5965,16988,-80,696,-1.00,-1.0
5967,16968,-100,656,-1.00,-1.0
5968,16984,96,672,-1.00,-1.0
5970,16964,48,696,-1.00,-1.0
5972,17004,12,608,-1.00,-1.0
5974,16984,-36,656,-1.00,-1.0
5976,17080,8,644,-1.00,-1.0
5978,16948,-76,592,-1.00,-1.0
5980,16940,-116,668,-1.00,-1.0
5984,17056,16,652,-1.00,-1.0
5986,16916,60,672,-1.00,-1.0
5988,16960,68,744,-1.00,-1.0
5990,16956,-20,772,-1.00,-1.0
5992,17016,-44,660,-1.00,-1.0
5994,17000,-128,672,-1.00,-1.0
5996,17052,24,632,-1.00,-1.0
5998,17088,-88,576,-1.00,-1.0
6000,16956,-32,668,-1.00,-1.0
6002,17020,-112,548,-1.00,-1.0
6004,17000,16,720,-1.00,-1.0
6006,16992,4,700,-1.00,-1.0
6007,17024,8,712,-1.00,-1.0
6010,16984,48,728,-1.00,-1.0
6011,17004,20,728,-1.00,-1.0
6013,17032,-20,604,-1.00,-1.0
6015,17048,32,520,-1.00,-1.0
6017,17104,4,616,-1.00,-1.0
6021,16956,-28,656,-1.00,-1.0
6023,17044,64,584,-1.00,-1.0
6025,16968,-32,812,-1.00,-1.0
6027,17040,0,768,-1.00,-1.0
6029,17064,-36,600,-1.00,-1.0
6031,16904,-88,648,-1.00,-1.0
6033,16936,-64,604,-1.00,-1.0
6035,16892,-40,628,-1.00,-1.0
6037,16916,-4,444,-1.00,-1.0
6039,17000,-56,584,-1.00,-1.0
6041,17048,12,520,-1.00,-1.0
6043,16924,-68,624,-1.00,-1.0
6045,16968,-28,652,-1.00,-1.0
6047,16940,36,604,-1.00,-1.0
6049,17056,36,620,-1.00,-1.0
6050,16948,-4,468,-1.00,-1.0
6052,16996,-20,632,-1.00,-1.0
6057,16940,-52,636,-1.00,-1.0
6059,16904,-68,536,-1.00,-1.0
6060,16956,-36,628,-1.00,-1.0
6062,16996,-20,624,-1.00,-1.0
6064,17048,-48,616,-1.00,-1.0
6066,16996,-24,720,-1.00,-1.0
6068,17024,-16,572,-1.00,-1.0
6070,16988,-40,612,-1.00,-1.0
6072,16992,-4,596,-1.00,-1.0
6074,16940,-32,608,-1.00,-1.0
6076,17008,0,660,-1.00,-1.0
6078,16936,12,736,-1.00,-1.0
6080,17008,44,740,-1.00,-1.0
6082,17044,24,544,-1.00,-1.0
6084,17056,-52,640,-1.00,-1.0
6086,16952,-64,644,-1.00,-1.0
6088,16996,-16,608,-1.00,-1.0
6092,16968,68,744,-1.00,-1.0
6094,16928,28,640,-1.00,-1.0
6096,17020,24,640,-1.00,-1.0
6097,17028,40,652,-1.00,-1.0
6099,17064,-16,728,-1.00,-1.0
6101,16948,-12,524,-1.00,-1.0
6103,16984,-36,692,-1.00,-1.0
6105,17064,-4,736,-1.00,-1.0
6107,16976,-32,616,-1.00,-1.0
6109,16896,-40,676,-1.00,-1.0
6111,16980,8,512,-1.00,-1.0
6113,16936,72,568,-1.00,-1.0
6115,17016,-20,528,-1.00,-1.0
6117,17036,8,680,-1.00,-1.0
6119,17024,-8,640,-1.00,-1.0
6121,16916,-52,540,-1.00,-1.0
6123,17004,-20,704,-1.00,-1.0
6125,16976,-4,772,-1.00,-1.0
6129,16940,16,612,-1.00,-1.0
6131,17036,-80,568,-1.00,-1.0
6133,17016,-28,656,-1.00,-1.0
6134,16892,-64,712,-1.00,-1.0
6137,16936,-20,600,-1.00,-1.0
6138,16952,-8,668,-1.00,-1.0
6140,16940,68,568,-1.00,-1.0
6142,16980,-40,648,-1.00,-1.0
6144,17012,-48,596,-1.00,-1.0
6146,16980,-84,544,-1.00,-1.0
6148,16908,0,644,-1.00,-1.0
6150,16972,20,480,-1.00,-1.0
6152,17000,-88,640,-1.00,-1.0
6154,17124,-44,532,-1.00,-1.0
6156,16804,-84,740,-1.00,-1.0
6158,16896,-104,580,-1.00,-1.0
6160,16984,-52,636,-1.00,-1.0
6164,17012,-12,576,-1.00,-1.0
6166,17044,8,712,-1.00,-1.0
6168,16956,12,556,-1.00,-1.0
6170,16972,-188,772,-1.00,-1.0
6172,16984,28,560,-1.00,-1.0
6174,16992,-4,624,-1.00,-1.0
6176,16960,-60,604,-1.00,-1.0
6178,16952,24,580,-1.00,-1.0
6179,17032,-52,540,-1.00,-1.0
6181,17028,-28,680,-1.00,-1.0
6183,17040,52,608,-1.00,-1.0
6185,16988,-48,700,-1.00,-1.0
6187,16980,-28,640,-1.00,-1.0
6189,16972,8,484,-1.00,-1.0
6191,16960,132,636,-1.00,-1.0
6193,17012,12,652,-1.00,-1.0
6195,16992,36,548,-1.00,-1.0
6199,16972,4,688,-1.00,-1.0
6201,16904,-76,708,-1.00,-1.0
6203,16948,-100,720,-1.00,-1.0
6205,16940,-104,700,-1.00,-1.0
6207,17028,-72,652,-1.00,-1.0
6209,17044,-28,776,-1.00,-1.0
6211,17008,-48,520,-1.00,-1.0
6213,16968,-80,648,-1.00,-1.0
6215,16960,0,636,-1.00,-1.0
6217,16980,-52,660,-1.00,-1.0
6219,16992,56,696,-1.00,-1.0
6221,17056,-48,556,-1.00,-1.0
6223,16968,16,436,-1.00,-1.0
6225,16948,-108,776,-1.00,-1.0
6227,17008,-68,580,-1.00,-1.0
6228,16928,44,676,-1.00,-1.0
6230,17000,124,632,-1.00,-1.0
6235,16988,56,612,-1.00,-1.0
6237,16868,132,564,-1.00,-1.0
6238,17012,12,428,-1.00,-1.0
6240,16904,0,652,-1.00,-1.0
6242,17000,92,416,-1.00,-1.0
6244,17004,-8,672,-1.00,-1.0
6246,16904,-44,684,-1.00,-1.0
6248,16964,-16,636,-1.00,-1.0
6250,16884,-12,548,-1.00,-1.0
6252,16880,0,696,-1.00,-1.0
6254,16916,-4,676,-1.00,-1.0
6256,16940,-148,628,-1.00,-1.0
6258,17008,20,624,-1.00,-1.0
6260,16980,64,704,-1.00,-1.0
6262,16988,-72,632,-1.00,-1.0
6264,17000,-144,660,-1.00,-1.0
6266,17076,28,688,-1.00,-1.0
6268,16900,-80,700,-1.00,-1.0
6272,16948,20,520,-1.00,-1.0
6274,17088,8,684,-1.00,-1.0
6276,16968,44,568,-1.00,-1.0
6278,16964,60,668,-1.00,-1.0
6280,16936,12,688,-1.00,-1.0
6282,17064,16,680,-1.00,-1.0
6283,17080,64,760,-1.00,-1.0
6285,17012,-52,608,-1.00,-1.0
6287,16988,-76,580,-1.00,-1.0
6289,16980,-28,632,-1.00,-1.0
6291,17020,20,624,-1.00,-1.0
6293,17024,-8,624,-1.00,-1.0
6295,16960,-20,488,-1.00,-1.0
6297,16940,-8,628,-1.00,-1.0
6299,16932,-40,632,-1.00,-1.0
6301,17060,-44,612,-1.00,-1.0
6303,16964,12,612,-1.00,-1.0
6307,17016,32,632,-1.00,-1.0
6309,17076,24,668,-1.00,-1.0
6311,16872,-32,616,-1.00,-1.0
6313,16944,-36,616,-1.00,-1.0
6315,17004,-24,644,-1.00,-1.0
6317,16976,40,716,-1.00,-1.0
6319,16984,52,596,-1.00,-1.0
6321,16948,40,572,-1.00,-1.0
6323,17036,48,628,-1.00,-1.0
6325,17020,-20,564,-1.00,-1.0
6327,17004,-8,644,-1.00,-1.0
6328,17060,24,668,-1.00,-1.0
6330,16992,12,668,-1.00,-1.0
6332,17064,-52,548,-1.00,-1.0
6334,17004,-52,452,-1.00,-1.0
6336,16944,52,596,-1.00,-1.0
6338,16944,48,600,-1.00,-1.0
6340,16860,48,604,-1.00,-1.0
6344,17020,68,576,-1.00,-1.0
6346,16980,20,596,-1.00,-1.0
6348,17012,-48,600,-1.00,-1.0
6350,16884,-100,532,-1.00,-1.0
6352,17084,48,584,-1.00,-1.0
6354,16936,24,608,-1.00,-1.0
6356,17064,24,636,-1.00,-1.0
6358,17024,-4,656,-1.00,-1.0
6360,17016,-72,504,-1.00,-1.0
6362,17008,88,744,-1.00,-1.0
6364,17064,0,644,-1.00,-1.0
6366,17080,32,628,-1.00,-1.0
6367,17100,-68,652,-1.00,-1.0
6370,16956,-76,688,-1.00,-1.0
6372,17048,0,660,-1.00,-1.0
6373,16924,36,676,-1.00,-1.0
6375,17052,52,696,-1.00,-1.0
6380,16944,48,648,-1.00,-1.0
6382,17004,56,656,-1.00,-1.0
6383,16996,-4,616,-1.00,-1.0
6385,16964,-40,680,-1.00,-1.0
6387,17088,-60,660,-1.00,-1.0
6389,16964,28,644,-1.00,-1.0
6391,16980,-4,568,-1.00,-1.0
6393,16968,16,604,-1.00,-1.0
6395,16964,24,640,-1.00,-1.0
6397,16932,148,572,-1.00,-1.0
6399,16984,-8,584,-1.00,-1.0
6401,17120,56,692,-1.00,-1.0
6403,16840,68,624,-1.00,-1.0
6405,16992,72,652,-1.00,-1.0
6407,17012,-52,688,-1.00,-1.0
6409,16944,56,568,-1.00,-1.0
6411,17072,-12,576,-1.00,-1.0
6413,17044,-80,580,-1.00,-1.0
6417,16960,-32,532,-1.00,-1.0
6419,16996,-88,672,-1.00,-1.0
6420,17020,4,588,-1.00,-1.0
6422,16960,-56,624,-1.00,-1.0
6424,16908,-16,644,-1.00,-1.0
6426,16932,-48,636,-1.00,-1.0
6428,16992,-80,592,-1.00,-1.0
6430,17024,-88,720,-1.00,-1.0
6432,17044,-72,476,-1.00,-1.0
6434,17092,-68,620,-1.00,-1.0
6436,17024,-40,728,-1.00,-1.0
6438,16992,4,800,-1.00,-1.0
6440,17004,44,548,-1.00,-1.0
6442,17028,12,564,-1.00,-1.0
6444,16924,-40,504,-1.00,-1.0
6446,16944,12,604,-1.00,-1.0
6448,17020,16,620,-1.00,-1.0
6452,16960,32,700,-1.00,-1.0
6454,16984,-132,512,-1.00,-1.0
6456,16984,56,772,-1.00,-1.0
6458,17036,48,756,-1.00,-1.0
6460,16936,-100,588,-1.00,-1.0
6462,17044,-120,748,-1.00,-1.0
6464,16992,-64,684,-1.00,-1.0
6465,16912,0,452,-1.00,-1.0
6467,17056,-72,700,-1.00,-1.0
6469,16992,-36,680,-1.00,-1.0
6471,17032,4,696,-1.00,-1.0
6473,16996,-32,656,-1.00,-1.0
6475,16984,-28,380,-1.00,-1.0
6477,17008,-12,596,-1.00,-1.0
6479,16968,36,800,-1.00,-1.0
6481,16948,-92,584,-1.00,-1.0
6483,17044,20,568,-1.00,-1.0
6487,16976,-68,576,-1.00,-1.0
6489,16976,48,684,-1.00,-1.0
6491,17016,-52,620,-1.00,-1.0
6493,16976,-80,744,-1.00,-1.0
6495,17032,64,552,-1.00,-1.0
6497,17056,64,700,-1.00,-1.0
6499,17020,0,676,-1.00,-1.0
6501,17012,60,644,-1.00,-1.0
6503,16968,-8,668,-1.00,-1.0
6505,16956,40,592,-1.00,-1.0
6507,17012,-60,820,-1.00,-1.0
6508,17044,-104,740,-1.00,-1.0
6510,16876,12,700,-1.00,-1.0
6512,17032,-16,628,-1.00,-1.0
6514,17028,-76,696,-1.00,-1.0
6516,16984,-48,660,-1.00,-1.0
6518,16940,-68,688,-1.00,-1.0
6520,16928,-28,504,-1.00,-1.0
6524,17028,-28,604,-1.00,-1.0
6526,17028,-48,688,-1.00,-1.0
6528,16960,60,660,-1.00,-1.0
6530,17036,-12,544,-1.00,-1.0
6532,17000,20,536,-1.00,-1.0
6534,16952,-40,656,-1.00,-1.0
6536,16980,12,468,-1.00,-1.0
6538,17088,48,528,-1.00,-1.0
6540,17076,44,632,-1.00,-1.0
6542,16936,-68,672,-1.00,-1.0
6544,17000,-32,724,-1.00,-1.0
6546,16944,-28,596,-1.00,-1.0
6548,16920,12,696,-1.00,-1.0
6550,16956,0,516,-1.00,-1.0
6552,16940,4,608,-1.00,-1.0
6553,16972,-24,612,-1.00,-1.0
6555,17044,56,696,-1.00,-1.0
6560,16928,20,668,-1.00,-1.0
6562,16996,100,628,-1.00,-1.0
6563,17004,92,696,-1.00,-1.0
6565,17124,-4,556,-1.00,-1.0
6567,17008,0,528,-1.00,-1.0
6569,16964,140,572,-1.00,-1.0
6571,16940,92,692,-1.00,-1.0
6573,17044,12,564,-1.00,-1.0
6575,16928,72,540,-1.00,-1.0
6577,17036,-88,500,-1.00,-1.0
6579,17152,-104,544,-1.00,-1.0
6581,16876,-24,532,-1.00,-1.0
6583,16956,20,656,-1.00,-1.0
6585,16916,8,536,-1.00,-1.0
6587,16952,48,784,-1.00,-1.0
6589,16916,-48,660,-1.00,-1.0
6591,17072,-4,720,-1.00,-1.0
6593,16848,48,588,-1.00,-1.0
6597,16992,0,696,-1.00,-1.0
6599,16984,32,864,-1.00,-1.0
6601,17012,60,620,-1.00,-1.0
6603,17036,-76,644,-1.00,-1.0
6605,17016,32,628,-1.00,-1.0
6607,16944,-20,668,-1.00,-1.0
6608,17064,60,688,-1.00,-1.0
6610,16952,-36,572,-1.00,-1.0
6612,16992,36,548,-1.00,-1.0
6614,17048,80,616,-1.00,-1.0
6616,16992,-56,676,-1.00,-1.0
6618,16956,4,556,-1.00,-1.0
6620,17064,-28,668,-1.00,-1.0
6622,16892,-132,680,-1.00,-1.0
6624,16960,24,520,-1.00,-1.0
6626,17052,4,748,-1.00,-1.0
6628,16920,36,688,-1.00,-1.0
6632,17004,8,620,-1.00,-1.0
6634,16900,20,660,-1.00,-1.0
6636,16992,0,604,-1.00,-1.0
6638,16936,0,628,-1.00,-1.0
6640,17020,-64,588,-1.00,-1.0
6642,17036,-48,652,-1.00,-1.0
6644,16952,36,624,-1.00,-1.0
6646,17004,-52,740,-1.00,-1.0
6648,16856,0,648,-1.00,-1.0
6650,17016,-96,540,-1.00,-1.0
6652,16888,20,620,-1.00,-1.0
6653,16976,12,532,-1.00,-1.0
6655,16956,32,588,-1.00,-1.0
6657,16960,0,636,-1.00,-1.0
6659,17072,36,536,-1.00,-1.0
6661,16992,-136,628,-1.00,-1.0
6663,16984,-148,712,-1.00,-1.0
6665,16900,36,520,-1.00,-1.0
6669,16944,-20,732,-1.00,-1.0
6671,16932,20,704,-1.00,-1.0
6673,17036,-52,728,-1.00,-1.0
6675,17004,28,660,-1.00,-1.0
6677,16976,-128,680,-1.00,-1.0
6679,16940,-12,752,-1.00,-1.0
6681,16976,68,536,-1.00,-1.0
6683,17012,-8,620,-1.00,-1.0
6685,17012,32,744,-1.00,-1.0
6687,16940,36,688,-1.00,-1.0
6689,16976,-16,500,-1.00,-1.0
6690,17004,-20,564,-1.00,-1.0
6692,17048,-64,636,-1.00,-1.0
6694,17080,64,556,-1.00,-1.0
6696,16980,-80,592,-1.00,-1.0
6698,16980,-132,616,-1.00,-1.0
6700,16920,-76,724,-1.00,-1.0
6704,16932,12,732,-1.00,-1.0
6706,16992,-60,660,-1.00,-1.0
6708,17044,44,628,-1.00,-1.0
6710,17008,-16,588,-1.00,-1.0
6712,17004,-124,460,-1.00,-1.0
6714,16944,36,564,-1.00,-1.0
6716,16972,52,504,-1.00,-1.0
6718,16960,96,612,-1.00,-1.0
6720,17016,24,572,-1.00,-1.0
6722,16992,24,468,-1.00,-1.0
6724,17064,28,696,-1.00,-1.0
6726,16976,-44,616,-1.00,-1.0
6727,17020,104,528,-1.00,-1.0
6730,17000,-68,640,-1.00,-1.0
6732,17040,28,712,-1.00,-1.0
6733,16996,52,588,-1.00,-1.0
6735,16992,16,580,-1.00,-1.0
6740,16964,-76,580,-1.00,-1.0
6742,16892,-36,536,-1.00,-1.0
6743,17044,16,532,-1.00,-1.0
6745,17036,-84,664,-1.00,-1.0
6747,16984,48,628,-1.00,-1.0
6749,17088,-16,572,-1.00,-1.0
6751,17044,-12,552,-1.00,-1.0
6753,16972,44,604,-1.00,-1.0
6755,17028,-28,652,-1.00,-1.0
6757,16960,-28,664,-1.00,-1.0
6759,16992,-48,688,-1.00,-1.0
6761,17044,-120,532,-1.00,-1.0
6763,17056,-64,548,-1.00,-1.0
6765,16972,48,560,-1.00,-1.0
6767,17000,52,656,-1.00,-1.0
6769,16944,-4,640,-1.00,-1.0
6771,17004,-76,572,-1.00,-1.0
6773,17000,24,604,-1.00,-1.0
6777,17072,0,652,-1.00,-1.0
6779,17020,-28,708,-1.00,-1.0
6781,16980,64,712,-1.00,-1.0
6783,17020,-32,668,-1.00,-1.0
6785,16980,-32,768,-1.00,-1.0
6787,16944,16,564,-1.00,-1.0
6788,16992,-56,564,-1.00,-1.0
6790,16960,-4,624,-1.00,-1.0
6792,16984,-80,784,-1.00,-1.0
6794,17040,4,692,-1.00,-1.0
6796,17012,64,716,-1.00,-1.0
6798,16964,0,592,-1.00,-1.0
6800,16900,16,584,-1.00,-1.0
6802,16996,-4,640,-1.00,-1.0
6804,17000,-36,516,-1.00,-1.0
6806,17036,-48,684,-1.00,-1.0
6808,17060,84,512,-1.00,-1.0
6812,17020,28,736,-1.00,-1.0
6814,16980,-32,608,-1.00,-1.0
6816,16924,72,616,-1.00,-1.0
6818,17036,-4,692,-1.00,-1.0
6820,17024,-24,680,-1.00,-1.0
6822,16960,32,604,-1.00,-1.0
6824,16992,-12,516,-1.00,-1.0
6826,17020,-16,656,-1.00,-1.0
6828,16900,44,644,-1.00,-1.0
6830,16972,0,480,-1.00,-1.0
6832,16976,-32,684,-1.00,-1.0
6833,16956,-52,624,-1.00,-1.0
6835,17028,60,820,-1.00,-1.0
6837,17020,52,476,-1.00,-1.0
6839,16956,-16,540,-1.00,-1.0
6841,17004,-80,508,-1.00,-1.0
6843,17024,12,628,-1.00,-1.0
6845,16976,44,628,-1.00,-1.0
6849,16828,0,656,-1.00,-1.0
6851,16976,-8,568,-1.00,-1.0
6853,16940,36,644,-1.00,-1.0
6855,17028,-12,620,-1.00,-1.0
6857,17000,-44,668,-1.00,-1.0
6859,16976,104,776,-1.00,-1.0
6861,17028,-36,720,-1.00,-1.0
6863,16992,52,616,-1.00,-1.0
6865,16944,-40,572,-1.00,-1.0
6867,17036,-88,616,-1.00,-1.0
6869,16920,-28,660,-1.00,-1.0
6871,17056,16,708,-1.00,-1.0
6873,16940,-44,612,-1.00,-1.0
6875,16900,-44,648,-1.00,-1.0
6877,17024,108,528,-1.00,-1.0
6878,16980,92,468,-1.00,-1.0
6880,16992,-12,492,-1.00,-1.0
6885,17000,-28,592,-1.00,-1.0
6887,16920,44,592,-1.00,-1.0
6888,16928,-136,616,-1.00,-1.0
6890,16992,20,664,-1.00,-1.0
6892,16968,108,616,-1.00,-1.0
6894,16956,76,524,-1.00,-1.0
6896,16920,8,608,-1.00,-1.0
6898,17028,40,632,-1.00,-1.0
6900,16984,28,708,-1.00,-1.0
6902,16980,-64,716,-1.00,-1.0
6904,17060,12,712,-1.00,-1.0
6906,16988,-120,752,-1.00,-1.0
6908,16972,-36,564,-1.00,-1.0
6910,16968,-88,580,-1.00,-1.0
6912,16896,-72,712,-1.00,-1.0
6914,16892,8,572,-1.00,-1.0
6916,17044,32,624,-1.00,-1.0
6920,16948,-8,608,-1.00,-1.0
6922,16980,24,712,-1.00,-1.0
6924,16952,56,668,-1.00,-1.0
6926,17052,-4,644,-1.00,-1.0
6928,16964,4,624,-1.00,-1.0
6930,16960,-16,636,-1.00,-1.0
6932,17032,-28,676,-1.00,-1.0
6933,17032,36,748,-1.00,-1.0
6935,16940,-112,592,-1.00,-1.0
6937,16992,-12,668,-1.00,-1.0
6939,17016,-36,540,-1.00,-1.0
6941,16972,36,552,-1.00,-1.0
6943,16972,8,584,-1.00,-1.0
6945,17092,-36,660,-1.00,-1.0
6947,17080,-44,772,-1.00,-1.0
6949,16920,12,684,-1.00,-1.0
6951,17068,-72,680,-1.00,-1.0
6953,16960,4,640,-1.00,-1.0
6958,17012,-88,648,-1.00,-1.0
6960,17036,16,568,-1.00,-1.0
6962,16976,-60,600,-1.00,-1.0
6964,16964,-28,600,-1.00,-1.0
6966,16928,-28,656,-1.00,-1.0
6968,16976,32,804,-1.00,-1.0
6970,17044,44,796,-1.00,-1.0
6971,16980,52,576,-1.00,-1.0
6974,16948,20,600,-1.00,-1.0
6976,17008,28,584,-1.00,-1.0
6977,16912,28,616,-1.00,-1.0
6979,16896,-80,576,-1.00,-1.0
6981,16980,-152,576,-1.00,-1.0
6983,16936,-104,728,-1.00,-1.0
6985,16984,4,612,-1.00,-1.0
6987,16972,-44,756,-1.00,-1.0
6989,17052,-12,740,-1.00,-1.0
6993,16924,-44,584,-1.00,-1.0
6995,17012,-24,684,-1.00,-1.0
6997,16964,-92,504,-1.00,-1.0
6999,17032,44,664,-1.00,-1.0
7001,17004,4,616,-1.00,-1.0
7003,16952,-20,564,-1.00,-1.0
7005,17000,12,632,-1.00,-1.0
7007,17028,-16,656,-1.00,-1.0
7009,16948,-76,652,-1.00,-1.0
7011,16996,52,712,-1.00,-1.0
7013,16976,-36,600,-1.00,-1.0
7014,16944,-44,608,-1.00,-1.0
7016,17028,4,724,-1.00,-1.0
7018,17024,-52,636,-1.00,-1.0
7020,16984,0,660,-1.00,-1.0
7022,16908,40,548,-1.00,-1.0
7024,17024,24,660,-1.00,-1.0
7028,16940,24,692,-1.00,-1.0
7030,16944,-124,496,-1.00,-1.0
7032,16976,24,668,-1.00,-1.0
7034,16960,4,520,-1.00,-1.0
7036,16936,-12,696,-1.00,-1.0
7038,17064,-56,620,-1.00,-1.0
7040,17112,-76,536,-1.00,-1.0
7042,17076,-16,556,-1.00,-1.0
7044,16980,12,668,-1.00,-1.0
7046,16928,36,608,-1.00,-1.0
7048,16944,16,608,-1.00,-1.0
7050,17004,-60,600,-1.00,-1.0
7052,17008,-76,584,-1.00,-1.0
7054,16944,-4,712,-1.00,-1.0
7056,17012,-48,764,-1.00,-1.0
7058,16932,-20,612,-1.00,-1.0
7059,16936,80,600,-1.00,-1.0
7061,17040,44,692,-1.00,-1.0
7066,16960,72,592,-1.00,-1.0
7068,17024,32,608,-1.00,-1.0
7069,16948,-8,636,-1.00,-1.0
7071,16932,-64,696,-1.00,-1.0
7073,17020,28,632,-1.00,-1.0
7075,16956,68,684,-1.00,-1.0
7077,17008,16,660,-1.00,-1.0
7079,16972,-20,756,-1.00,-1.0
7081,17012,-60,608,-1.00,-1.0
7083,16948,0,748,-1.00,-1.0
7085,16972,-28,768,-1.00,-1.0
7087,16940,88,696,-1.00,-1.0
7089,16872,-60,508,-1.00,-1.0
7091,16912,64,644,-1.00,-1.0
7093,16908,-128,668,-1.00,-1.0
7095,16920,68,580,-1.00,-1.0
7097,17016,80,680,-1.00,-1.0
7101,17012,-64,660,-1.00,-1.0
7103,17112,-8,656,-1.00,-1.0
7105,17016,0,532,-1.00,-1.0
7107,17000,76,624,-1.00,-1.0
7108,16976,-40,536,-1.00,-1.0
7111,16988,36,640,-1.00,-1.0
7113,17096,80,608,-1.00,-1.0
7114,17028,28,704,-1.00,-1.0
7116,16992,12,588,-1.00,-1.0
7118,16916,-36,616,-1.00,-1.0
7120,16940,-4,684,-1.00,-1.0
7122,17084,-24,572,-1.00,-1.0
7124,16952,-72,616,-1.00,-1.0
7126,16988,40,552,-1.00,-1.0
7128,17012,48,692,-1.00,-1.0
7130,17000,68,444,-1.00,-1.0
7132,17020,-4,532,-1.00,-1.0
7134,17020,-36,576,-1.00,-1.0
7138,17008,-96,608,-1.00,-1.0
7140,16936,0,596,-1.00,-1.0
7142,16904,44,656,-1.00,-1.0
7144,16996,-28,788,-1.00,-1.0
7146,16976,-28,672,-1.00,-1.0
7148,16904,24,660,-1.00,-1.0
7150,16964,-4,660,-1.00,-1.0
7152,16932,-28,632,-1.00,-1.0
7154,17008,40,564,-1.00,-1.0
7156,16996,-12,568,-1.00,-1.0
7157,16992,48,572,-1.00,-1.0
7159,16980,4,548,-1.00,-1.0
7161,16920,48,540,-1.00,-1.0
7163,17020,56,696,-1.00,-1.0
7165,17008,-28,560,-1.00,-1.0
7167,16980,-36,528,-1.00,-1.0
7169,16968,-4,692,-1.00,-1.0
7173,17000,-12,592,-1.00,-1.0
7175,17008,-132,616,-1.00,-1.0
7177,16940,0,540,-1.00,-1.0
7179,16892,20,640,-1.00,-1.0
7181,16968,0,584,-1.00,-1.0
7183,16976,-44,608,-1.00,-1.0
7185,16960,-52,668,-1.00,-1.0
7187,17016,-64,580,-1.00,-1.0
7189,17028,-60,684,-1.00,-1.0
7191,17044,0,676,-1.00,-1.0
7193,16928,68,604,-1.00,-1.0
7195,16940,-4,548,-1.00,-1.0
7197,16992,-8,616,-1.00,-1.0
7199,17016,-4,500,-1.00,-1.0
7201,17088,48,556,-1.00,-1.0
7202,16956,36,564,-1.00,-1.0
7204,16936,-68,500,-1.00,-1.0
7206,17080,8,560,-1.00,-1.0
7210,17052,-52,584,-1.00,-1.0
7212,16968,36,656,-1.00,-1.0
7214,16924,-8,572,-1.00,-1.0
7216,16952,-44,692,-1.00,-1.0
7218,17000,76,612,-1.00,-1.0
7220,16972,64,700,-1.00,-1.0
7222,16940,72,604,-1.00,-1.0
7224,17108,12,660,-1.00,-1.0
7226,17028,44,556,-1.00,-1.0
7228,16888,56,568,-1.00,-1.0
7230,16976,-44,632,-1.00,-1.0
7232,16888,-52,588,-1.00,-1.0
7234,17080,-124,536,-1.00,-1.0
7236,16888,-36,548,-1.00,-1.0
7238,16912,-56,668,-1.00,-1.0
7240,16940,16,684,-1.00,-1.0
7241,16964,56,660,-1.00,-1.0
7246,17048,0,752,-1.00,-1.0
7248,16940,-4,616,-1.00,-1.0
7249,16996,28,608,-1.00,-1.0
7251,17068,-56,472,-1.00,-1.0
7253,17000,-80,596,-1.00,-1.0
7255,16976,-28,668,-1.00,-1.0
7257,16964,12,728,-1.00,-1.0
7259,17076,-108,528,-1.00,-1.0
7261,17008,-24,732,-1.00,-1.0
7263,16916,-60,624,-1.00,-1.0
7265,17008,112,728,-1.00,-1.0
7267,17092,-4,644,-1.00,-1.0
7269,17036,-48,688,-1.00,-1.0
7271,16968,-36,548,-1.00,-1.0
7273,16976,-44,656,-1.00,-1.0
7275,16896,-8,704,-1.00,-1.0
7277,16984,56,536,-1.00,-1.0
7281,17048,36,688,-1.00,-1.0
7283,17040,36,532,-1.00,-1.0
7285,17072,-80,704,-1.00,-1.0
7286,16960,-52,564,-1.00,-1.0
7288,16956,24,576,-1.00,-1.0
7290,17068,12,676,-1.00,-1.0
7292,17036,-36,648,-1.00,-1.0
7294,17000,0,616,-1.00,-1.0
7296,17016,20,536,-1.00,-1.0
7298,17024,-52,600,-1.00,-1.0
7300,17024,-76,468,-1.00,-1.0
7302,17008,-44,740,-1.00,-1.0
7304,17000,88,676,-1.00,-1.0
7306,17012,-16,528,-1.00,-1.0
7308,16992,64,632,-1.00,-1.0
7310,16924,20,744,-1.00,-1.0
7312,16932,-16,652,-1.00,-1.0
7314,16968,-136,424,-1.00,-1.0
7318,16944,44,564,-1.00,-1.0
7320,17080,56,596,-1.00,-1.0
7322,16956,-52,692,-1.00,-1.0
7324,17000,16,464,-1.00,-1.0
7326,16956,60,684,-1.00,-1.0
7328,16992,-24,692,-1.00,-1.0
7329,16984,32,696,-1.00,-1.0
7331,16880,-84,596,-1.00,-1.0
7333,17032,-88,564,-1.00,-1.0
7335,16984,64,752,-1.00,-1.0
7337,16976,24,608,-1.00,-1.0
7339,17060,-64,784,-1.00,-1.0
7341,16976,88,736,-1.00,-1.0
7343,16976,-56,808,-1.00,-1.0
7345,17028,-12,560,-1.00,-1.0
7347,16952,32,668,-1.00,-1.0
7349,17048,-24,676,-1.00,-1.0
7353,17044,-56,624,-1.00,-1.0
7355,17028,-28,796,-1.00,-1.0
7357,16928,72,528,-1.00,-1.0
7359,16964,4,604,-1.00,-1.0
7361,17068,-40,600,-1.00,-1.0
7363,16912,0,600,-1.00,-1.0
7365,17096,40,684,-1.00,-1.0
7367,17140,124,692,-1.00,-1.0
7369,17032,48,528,-1.00,-1.0
7371,17004,32,696,-1.00,-1.0
7373,17028,4,796,-1.00,-1.0
7374,16936,-40,672,-1.00,-1.0
7376,17020,12,496,-1.00,-1.0
7378,17036,36,748,-1.00,-1.0
7380,16936,-24,644,-1.00,-1.0
7382,17028,-76,544,-1.00,-1.0
7384,16924,32,484,-1.00,-1.0
7386,17032,-92,696,-1.00,-1.0
7390,16896,-48,676,-1.00,-1.0
7392,16984,-44,672,-1.00,-1.0
7394,17064,-112,704,-1.00,-1.0
7396,16980,-80,560,-1.00,-1.0
7398,16956,-56,516,-1.00,-1.0
7400,16932,16,744,-1.00,-1.0
7402,16892,-8,692,-1.00,-1.0
7404,17020,-100,636,-1.00,-1.0
7406,17048,20,720,-1.00,-1.0
7408,16948,12,600,-1.00,-1.0
7410,17032,-4,668,-1.00,-1.0
7412,17060,8,620,-1.00,-1.0
7414,16972,-52,520,-1.00,-1.0
7416,17036,-32,536,-1.00,-1.0
7418,16964,-64,632,-1.00,-1.0
7419,16928,-28,644,-1.00,-1.0
7421,16920,40,536,-1.00,-1.0
7426,16984,24,564,-1.00,-1.0
7428,16920,-20,624,-1.00,-1.0
7429,17000,8,512,-1.00,-1.0
7431,17132,-188,536,-1.00,-1.0
7433,17024,-40,652,-1.00,-1.0
7435,16940,0,588,-1.00,-1.0
7437,16916,24,652,-1.00,-1.0
7439,16892,-76,760,-1.00,-1.0
7441,17028,80,640,-1.00,-1.0
7443,16932,60,692,-1.00,-1.0
7445,17012,0,680,-1.00,-1.0
7447,17028,48,652,-1.00,-1.0
7449,16916,8,784,-1.00,-1.0
7451,17032,24,600,-1.00,-1.0
7453,17000,32,644,-1.00,-1.0
7455,16984,-24,788,-1.00,-1.0
7457,17012,-52,824,-1.00,-1.0
7461,16976,20,624,-1.00,-1.0
7463,17024,-172,728,-1.00,-1.0
7465,16992,48,628,-1.00,-1.0
7467,16972,4,564,-1.00,-1.0
7469,16928,-16,716,-1.00,-1.0
7471,16972,-4,644,-1.00,-1.0
7473,16920,-32,780,-1.00,-1.0
7474,17092,-32,532,-1.00,-1.0
7476,16992,-24,544,-1.00,-1.0
7478,17016,28,600,-1.00,-1.0
7480,16940,92,784,-1.00,-1.0
7482,16980,-32,576,-1.00,-1.0
7484,17044,36,660,-1.00,-1.0
7486,16912,-28,684,-1.00,-1.0
7488,17004,0,556,-1.00,-1.0
7490,17020,44,664,-1.00,-1.0
7492,16956,-16,696,-1.00,-1.0
7494,17008,36,748,-1.00,-1.0
7498,17036,64,644,-1.00,-1.0
7500,16960,-28,632,-1.00,-1.0
7502,16940,-4,688,-1.00,-1.0
7504,17064,-24,564,-1.00,-1.0
7506,16996,56,736,-1.00,-1.0
7508,16936,-88,640,-1.00,-1.0
7510,16992,-28,684,-1.00,-1.0
7512,16992,-92,584,-1.00,-1.0
7514,16960,112,624,-1.00,-1.0
7516,17032,-108,696,-1.00,-1.0
7518,17056,-88,724,-1.00,-1.0
7519,16956,-36,748,-1.00,-1.0
7521,16932,16,720,-1.00,-1.0
7523,16876,-40,728,-1.00,-1.0
7525,16932,-44,488,-1.00,-1.0
7527,16956,36,548,-1.00,-1.0
7529,16972,4,624,-1.00,-1.0
7533,16936,84,704,-1.00,-1.0
7535,17060,-28,712,-1.00,-1.0
7537,16996,12,616,-1.00,-1.0
7539,17000,-16,752,-1.00,-1.0
7541,17024,60,580,-1.00,-1.0
7543,17060,-80,600,-1.00,-1.0
7545,16980,136,728,-1.00,-1.0
7547,16984,-68,668,-1.00,-1.0
7549,17012,16,588,-1.00,-1.0
7551,16908,20,628,-1.00,-1.0
7553,16972,8,528,-1.00,-1.0
7555,16952,-88,464,-1.00,-1.0
7557,17000,68,528,-1.00,-1.0
7559,16920,52,528,-1.00,-1.0
7561,17100,-92,572,-1.00,-1.0
7562,16988,-92,564,-1.00,-1.0
7564,17004,36,752,-1.00,-1.0
7566,16948,-56,468,-1.00,-1.0
7570,16996,-48,716,-1.00,-1.0
7572,17008,8,496,-1.00,-1.0
7574,17024,-4,568,-1.00,-1.0
7576,16976,120,536,-1.00,-1.0
7578,16984,-56,768,-1.00,-1.0
7580,17040,16,580,-1.00,-1.0
7582,17020,12,616,-1.00,-1.0
7584,16940,80,560,-1.00,-1.0
7586,16932,76,616,-1.00,-1.0
7588,16920,-16,772,-1.00,-1.0
7590,16952,-108,660,-1.00,-1.0
7592,17000,-56,664,-1.00,-1.0
7594,16940,-36,520,-1.00,-1.0
7596,16864,44,556,-1.00,-1.0
7598,16976,-32,676,-1.00,-1.0
7600,16984,-56,748,-1.00,-1.0
7601,16924,-56,696,-1.00,-1.0
7606,16976,-60,576,-1.00,-1.0
7608,17008,24,572,-1.00,-1.0
7610,16956,-188,656,-1.00,-1.0
7611,17032,-112,748,-1.00,-1.0
7614,17088,-24,592,-1.00,-1.0
7616,17068,-56,636,-1.00,-1.0
7617,16960,12,608,-1.00,-1.0
7619,17064,-68,468,-1.00,-1.0
7621,16904,-128,528,-1.00,-1.0
7623,17024,12,644,-1.00,-1.0
7625,17072,-60,516,-1.00,-1.0
7627,16980,36,600,-1.00,-1.0
7629,17036,4,608,-1.00,-1.0
7631,16972,-40,616,-1.00,-1.0
7633,16964,-24,672,-1.00,-1.0
7635,16988,32,548,-1.00,-1.0
7637,17048,44,728,-1.00,-1.0
7641,17088,-36,648,-1.00,-1.0
7643,17064,28,572,-1.00,-1.0
7645,16956,8,704,-1.00,-1.0
7647,16964,108,720,-1.00,-1.0
7649,16944,152,600,-1.00,-1.0
7651,17000,-68,864,-1.00,-1.0
7653,16956,0,564,-1.00,-1.0
7654,16956,28,692,-1.00,-1.0
7656,16984,-8,524,-1.00,-1.0
7658,16952,-68,656,-1.00,-1.0
7660,16976,-96,532,-1.00,-1.0
7662,17052,56,616,-1.00,-1.0
7664,17052,0,636,-1.00,-1.0
7666,17032,-8,680,-1.00,-1.0
7668,17028,-20,584,-1.00,-1.0
7670,16888,0,644,-1.00,-1.0
7672,16984,68,592,-1.00,-1.0
7674,16928,-20,704,-1.00,-1.0
7678,17036,12,652,-1.00,-1.0
7680,16964,36,672,-1.00,-1.0
7682,17016,-32,640,-1.00,-1.0
7684,16952,-40,672,-1.00,-1.0
7686,17084,24,588,-1.00,-1.0
7688,16988,88,624,-1.00,-1.0
7690,16996,-136,668,-1.00,-1.0
7692,16976,52,688,-1.00,-1.0
7694,17012,24,556,-1.00,-1.0
7696,17044,12,696,-1.00,-1.0
7698,17028,52,632,-1.00,-1.0
7699,17008,-36,548,-1.00,-1.0
7701,17032,-32,636,-1.00,-1.0
7703,17104,-56,560,-1.00,-1.0
7705,17036,40,724,-1.00,-1.0
7707,17064,-12,568,-1.00,-1.0
7709,17024,-84,692,-1.00,-1.0
7713,16944,84,600,-1.00,-1.0
7715,16928,28,536,-1.00,-1.0
7717,17032,-8,580,-1.00,-1.0
7719,16996,0,500,-1.00,-1.0
7721,16988,24,572,-1.00,-1.0
7723,17028,-28,588,-1.00,-1.0
7725,17016,-4,708,-1.00,-1.0
7727,16924,-8,672,-1.00,-1.0
7729,16952,-72,684,-1.00,-1.0
7731,17008,0,636,-1.00,-1.0
7733,16896,112,620,-1.00,-1.0
7735,17060,-16,576,-1.00,-1.0
7737,16984,92,720,-1.00,-1.0
7739,16976,56,688,-1.00,-1.0
7741,16960,84,692,-1.00,-1.0
7743,17032,84,800,-1.00,-1.0
7744,16916,-24,600,-1.00,-1.0
7749,17004,-36,548,-1.00,-1.0
7751,16956,40,476,-1.00,-1.0
7753,16984,68,512,-1.00,-1.0
7754,17000,-48,648,-1.00,-1.0
7756,16952,-20,660,-1.00,-1.0
7758,16924,-96,616,-1.00,-1.0
7760,16932,-28,648,-1.00,-1.0
7762,16904,-104,676,-1.00,-1.0
7764,16896,-16,780,-1.00,-1.0
7766,16944,108,520,-1.00,-1.0
7768,17040,-4,604,-1.00,-1.0
7770,16984,24,704,-1.00,-1.0
7772,17044,-56,664,-1.00,-1.0
7774,16948,-32,620,-1.00,-1.0
7776,17032,-80,680,-1.00,-1.0
7778,16996,24,656,-1.00,-1.0
7780,16944,-92,660,-1.00,-1.0
7782,16948,8,784,-1.00,-1.0
7786,17036,-48,596,-1.00,-1.0
7788,17052,8,704,-1.00,-1.0
7790,16972,4,636,-1.00,-1.0
7792,17056,4,652,-1.00,-1.0
7794,16996,-76,632,-1.00,-1.0
7796,17036,-28,608,-1.00,-1.0
7798,17056,0,692,-1.00,-1.0
7799,16944,-8,608,-1.00,-1.0
7801,17048,-80,572,-1.00,-1.0
7803,16964,32,652,-1.00,-1.0
7805,16996,-88,704,-1.00,-1.0
7807,16936,-20,720,-1.00,-1.0
7809,16944,-40,616,-1.00,-1.0
7811,16972,-20,704,-1.00,-1.0
7813,17000,-56,660,-1.00,-1.0
7815,17056,-4,672,-1.00,-1.0
7817,16972,-88,732,-1.00,-1.0
7821,16936,-188,592,-1.00,-1.0
7823,16992,20,644,-1.00,-1.0
7825,17024,-72,616,-1.00,-1.0
7827,16992,52,640,-1.00,-1.0
7829,16972,-64,592,-1.00,-1.0
7831,16992,-52,616,-1.00,-1.0
7833,17044,64,712,-1.00,-1.0
7835,16968,-96,640,-1.00,-1.0
7837,17072,-16,648,-1.00,-1.0
7839,16956,96,644,-1.00,-1.0
7841,17048,-112,688,-1.00,-1.0
7842,17028,-4,460,-1.00,-1.0
7844,16960,-96,536,-1.00,-1.0
7846,16984,-72,652,-1.00,-1.0
7848,17000,-88,772,-1.00,-1.0
7850,16908,-48,680,-1.00,-1.0
7852,17020,-32,692,-1.00,-1.0
7856,17000,-8,608,-1.00,-1.0
7858,17012,-84,660,-1.00,-1.0
7860,17020,-56,696,-1.00,-1.0
7862,17052,28,536,-1.00,-1.0
7864,16964,48,592,-1.00,-1.0
7866,16992,44,512,-1.00,-1.0
7868,16960,-92,580,-1.00,-1.0
7870,17020,-12,580,-1.00,-1.0
7872,16972,-60,560,-1.00,-1.0
7874,17020,8,496,-1.00,-1.0
7876,17076,-52,552,-1.00,-1.0
7878,16988,16,600,-1.00,-1.0
7879,16964,-16,600,-1.00,-1.0
7882,16940,-124,472,-1.00,-1.0
7883,16980,-56,560,-1.00,-1.0
7885,16984,112,544,-1.00,-1.0
7887,16932,4,736,-1.00,-1.0
7889,16972,52,660,-1.00,-1.0
7893,16948,-68,552,-1.00,-1.0
7895,17000,-12,668,-1.00,-1.0
7897,16940,-4,720,-1.00,-1.0
7899,16940,-40,520,-1.00,-1.0
7901,16956,-64,624,-1.00,-1.0
7903,17032,-92,620,-1.00,-1.0
7905,16992,128,668,-1.00,-1.0
7907,16928,32,740,-1.00,-1.0
7909,17056,0,612,-1.00,-1.0
7911,16976,-72,608,-1.00,-1.0
7913,17056,-52,712,-1.00,-1.0
7915,16972,-48,684,-1.00,-1.0
7917,16940,-40,704,-1.00,-1.0
7919,17000,-28,700,-1.00,-1.0
7921,16944,16,636,-1.00,-1.0
7923,17032,32,500,-1.00,-1.0
7924,17052,68,624,-1.00,-1.0
7929,17032,-8,604,-1.00,-1.0
7931,17088,0,528,-1.00,-1.0
7933,17008,-44,672,-1.00,-1.0
7934,17068,-16,684,-1.00,-1.0
7937,16944,-12,632,-1.00,-1.0
7938,17040,8,640,-1.00,-1.0
7940,16984,-136,624,-1.00,-1.0
7942,17076,8,640,-1.00,-1.0
7944,17052,-44,604,-1.00,-1.0
7946,17012,-72,516,-1.00,-1.0
7948,17028,60,704,-1.00,-1.0
7950,17000,-24,560,-1.00,-1.0
7952,16976,-96,536,-1.00,-1.0
7954,17048,36,688,-1.00,-1.0
7956,16964,-48,628,-1.00,-1.0
7958,16968,-32,472,-1.00,-1.0
7960,16952,56,624,-1.00,-1.0
7964,17100,56,728,-1.00,-1.0
7966,16912,0,728,-1.00,-1.0
7968,16972,88,720,-1.00,-1.0
7970,16932,-4,628,-1.00,-1.0
7972,17068,12,528,-1.00,-1.0
7974,17040,84,580,-1.00,-1.0
7976,16956,-48,468,-1.00,-1.0
7978,16996,92,568,-1.00,-1.0
7979,16960,-20,632,-1.00,-1.0
7982,16908,88,684,-1.00,-1.0
7983,17028,40,640,-1.00,-1.0
7985,16964,0,580,-1.00,-1.0
7987,17068,56,536,-1.00,-1.0
7989,17076,68,688,-1.00,-1.0
7991,17020,24,764,-1.00,-1.0
7993,17080,116,732,-1.00,-1.0
7995,16972,-4,616,-1.00,-1.0
7997,16980,-28,632,-1.00,-1.0
8001,17004,-44,584,-1.00,-1.0
8003,16972,76,540,-1.00,-1.0
8005,16972,48,680,-1.00,-1.0
8007,16968,-68,572,-1.00,-1.0
8009,17016,-24,720,-1.00,-1.0
8011,16960,-16,616,-1.00,-1.0
8013,17008,-8,628,-1.00,-1.0
8015,16948,-60,608,-1.00,-1.0
8017,17036,-80,592,-1.00,-1.0
8019,16992,-48,528,-1.00,-1.0
8021,16976,40,668,-1.00,-1.0
8023,16984,-52,572,-1.00,-1.0
8024,16920,0,624,-1.00,-1.0
8027,16992,48,528,-1.00,-1.0
8028,16996,-120,668,-1.00,-1.0
8030,16980,44,652,-1.00,-1.0
8032,16988,16,576,-1.00,-1.0
8036,16928,-36,608,-1.00,-1.0
8038,17016,-60,700,-1.00,-1.0
8040,16996,-44,628,-1.00,-1.0
8042,16956,20,612,-1.00,-1.0
8044,16972,-28,736,-1.00,-1.0
8046,16932,-20,592,-1.00,-1.0
8048,16900,96,632,-1.00,-1.0
8050,17020,56,672,-1.00,-1.0
8052,16904,-20,668,-1.00,-1.0
8054,17044,-76,596,-1.00,-1.0
8056,17000,-40,572,-1.00,-1.0
8058,17060,-68,564,-1.00,-1.0
8060,16956,-68,736,-1.00,-1.0
8062,17008,12,608,-1.00,-1.0
8064,17012,-116,740,-1.00,-1.0
8066,16944,40,644,-1.00,-1.0
8068,16800,48,616,-1.00,-1.0
8069,16976,-36,608,-1.00,-1.0
8074,17000,-52,732,-1.00,-1.0
8076,17020,-12,600,-1.00,-1.0
8078,16984,12,624,-1.00,-1.0
8079,16980,-16,696,-1.00,-1.0
8081,17044,-64,704,-1.00,-1.0
8083,17020,48,684,-1.00,-1.0
8085,16920,20,624,-1.00,-1.0
8087,17028,-64,564,-1.00,-1.0
8089,16964,12,660,-1.00,-1.0
8091,17072,-16,588,-1.00,-1.0
8093,16960,-16,600,-1.00,-1.0
8095,16960,-64,624,-1.00,-1.0
8097,16964,-44,644,-1.00,-1.0
8099,17008,0,596,-1.00,-1.0
8101,16892,108,788,-1.00,-1.0
8103,17052,-96,688,-1.00,-1.0
8105,16956,-88,468,-1.00,-1.0
8110,16904,-32,624,-1.00,-1.0
8112,17020,52,580,-1.00,-1.0
8113,17052,-60,616,-1.00,-1.0
8115,16988,-8,612,-1.00,-1.0
8117,16964,8,624,-1.00,-1.0
8119,17036,-56,696,-1.00,-1.0
8121,16956,32,592,-1.00,-1.0
8123,16912,-52,720,-1.00,-1.0
8125,16984,36,692,-1.00,-1.0
8127,16988,-16,572,-1.00,-1.0
8129,16904,-48,580,-1.00,-1.0
8131,17048,-8,644,-1.00,-1.0
8133,16904,108,684,-1.00,-1.0
8135,16920,-72,668,-1.00,-1.0
8137,16984,-88,704,-1.00,-1.0
8139,16984,-84,628,-1.00,-1.0
8141,16928,-16,716,-1.00,-1.0
8145,17044,48,724,-1.00,-1.0
8147,16916,56,460,-1.00,-1.0
8149,17080,40,652,-1.00,-1.0
8150,16892,48,748,-1.00,-1.0
8152,16992,32,700,-1.00,-1.0
8154,16960,12,696,-1.00,-1.0
8156,16976,40,588,-1.00,-1.0
8158,17056,76,696,-1.00,-1.0
8160,17004,-4,736,-1.00,-1.0
8162,17008,12,636,-1.00,-1.0
8164,16988,-60,648,-1.00,-1.0
8166,16972,-32,504,-1.00,-1.0
8168,16948,-64,572,-1.00,-1.0
8170,17052,0,676,-1.00,-1.0
8172,17012,-4,624,-1.00,-1.0
8174,16956,-80,592,-1.00,-1.0
8176,16964,40,672,-1.00,-1.0
8178,16904,-44,696,-1.00,-1.0
8183,17044,-48,572,-1.00,-1.0
8185,16992,-16,572,-1.00,-1.0
8187,16976,-12,564,-1.00,-1.0
8189,16948,-76,616,-1.00,-1.0
8191,17032,-28,660,-1.00,-1.0
8193,16976,0,580,-1.00,-1.0
8195,17036,-108,556,-1.00,-1.0
8197,17048,-48,768,-1.00,-1.0
8199,17036,-112,604,-1.00,-1.0
8201,17112,0,608,-1.00,-1.0
8203,17092,-80,708,-1.00,-1.0
8205,16976,-72,672,-1.00,-1.0
8207,16972,-108,588,-1.00,-1.0
8209,17008,28,672,-1.00,-1.0
8211,16944,-100,696,-1.00,-1.0
8213,16956,-16,556,-1.00,-1.0
8215,16892,56,680,-1.00,-1.0
8219,17076,68,608,-1.00,-1.0
8221,16984,-4,688,-1.00,-1.0
8223,16956,24,676,-1.00,-1.0
8225,17060,-24,580,-1.00,-1.0
8227,17004,8,628,-1.00,-1.0
8229,16900,-16,712,-1.00,-1.0
8230,16992,-72,668,-1.00,-1.0
8232,16964,-60,572,-1.00,-1.0
8234,17032,-24,576,-1.00,-1.0
8236,16980,20,628,-1.00,-1.0
8238,17048,44,652,-1.00,-1.0
8240,17004,-28,580,-1.00,-1.0
8242,16976,-28,516,-1.00,-1.0
8244,16880,48,728,-1.00,-1.0
8246,17044,-20,572,-1.00,-1.0
8248,17044,-56,620,-1.00,-1.0
8250,16956,12,680,-1.00,-1.0
8254,16952,-64,536,-1.00,-1.0
8256,16980,-16,668,-1.00,-1.0
8258,16948,20,504,-1.00,-1.0
8260,17032,16,720,-1.00,-1.0
8262,16956,8,680,-1.00,-1.0
8264,17012,-24,596,-1.00,-1.0
8266,16960,-4,684,-1.00,-1.0
8268,17048,0,480,-1.00,-1.0
8269,17020,-80,668,-1.00,-1.0
8272,17024,20,460,-1.00,-1.0
8273,16888,84,668,-1.00,-1.0
8275,16976,0,632,-1.00,-1.0
8277,17052,-16,564,-1.00,-1.0
8279,17012,-88,728,-1.00,-1.0
8281,16988,84,452,-1.00,-1.0
8283,16968,92,548,-1.00,-1.0
8285,16932,-36,664,-1.00,-1.0
8287,17044,0,644,-1.00,-1.0
8291,16892,-24,592,-1.00,-1.0
8293,16996,-20,764,-1.00,-1.0
8295,16960,12,576,-1.00,-1.0
8297,17004,4,580,-1.00,-1.0
8299,16980,-64,544,-1.00,-1.0
8301,17028,20,696,-1.00,-1.0
8303,16992,-128,608,-1.00,-1.0
8305,17076,-16,560,-1.00,-1.0
8307,17020,-68,660,-1.00,-1.0
8309,16992,0,572,-1.00,-1.0
8311,17024,32,720,-1.00,-1.0
8313,16908,-44,584,-1.00,-1.0
8314,16972,36,516,-1.00,-1.0
8316,16932,44,576,-1.00,-1.0
8318,17092,-8,652,-1.00,-1.0
8320,16972,-32,684,-1.00,-1.0
8322,17036,-16,696,-1.00,-1.0
8326,16932,84,584,-1.00,-1.0
8328,16880,-12,568,-1.00,-1.0
8330,16880,8,696,-1.00,-1.0
8332,17000,-40,664,-1.00,-1.0
8334,17012,-20,612,-1.00,-1.0
8336,16960,-84,664,-1.00,-1.0
8338,17092,-68,656,-1.00,-1.0
8340,17056,-80,560,-1.00,-1.0
8342,16972,-32,600,-1.00,-1.0
8344,16980,-76,460,-1.00,-1.0
8346,16976,-8,432,-1.00,-1.0
8348,17052,-76,548,-1.00,-1.0
8350,17068,-12,576,-1.00,-1.0
8352,16952,16,780,-1.00,-1.0
8354,17016,68,736,-1.00,-1.0
8356,16976,-12,700,-1.00,-1.0
8358,16968,-52,528,-1.00,-1.0
8362,16944,40,704,-1.00,-1.0
8364,17036,24,576,-1.00,-1.0
8366,17012,-36,576,-1.00,-1.0
8368,16952,-32,532,-1.00,-1.0
8369,17080,-20,556,-1.00,-1.0
8371,17060,44,584,-1.00,-1.0
8373,16908,-56,732,-1.00,-1.0
8375,17060,8,636,-1.00,-1.0
8377,16908,28,640,-1.00,-1.0
8379,16932,32,660,-1.00,-1.0
8381,17004,136,528,-1.00,-1.0
8383,17016,-4,432,-1.00,-1.0
8385,17024,-20,700,-1.00,-1.0
8387,16932,-24,752,-1.00,-1.0
8389,16924,-28,628,-1.00,-1.0
8391,17004,12,664,-1.00,-1.0
8393,16964,68,564,-1.00,-1.0
8395,17024,48,724,-1.00,-1.0
8399,16968,88,676,-1.00,-1.0
8401,16956,-152,608,-1.00,-1.0
8403,16948,-76,640,-1.00,-1.0
8405,17008,-92,764,-1.00,-1.0
8407,16992,36,572,-1.00,-1.0
8409,16956,16,592,-1.00,-1.0
8410,17008,56,552,-1.00,-1.0
8412,16948,24,668,-1.00,-1.0
8414,16924,-64,612,-1.00,-1.0
8416,16932,-44,624,-1.00,-1.0
8418,16836,-20,572,-1.00,-1.0
8420,16912,28,572,-1.00,-1.0
8422,17028,-8,800,-1.00,-1.0
8424,17028,108,528,-1.00,-1.0
8426,16924,24,532,-1.00,-1.0
8428,17008,-100,632,-1.00,-1.0
8430,17072,20,548,-1.00,-1.0
8434,17000,4,632,-1.00,-1.0
8436,17000,88,600,-1.00,-1.0
8438,16980,88,680,-1.00,-1.0
8440,16976,76,676,-1.00,-1.0
8442,16976,-64,664,-1.00,-1.0
8444,17028,20,624,-1.00,-1.0
8446,17008,-104,720,-1.00,-1.0
8447,16960,16,648,-1.00,-1.0
8449,16944,-16,704,-1.00,-1.0
8451,16984,-80,732,-1.00,-1.0
8453,16944,-116,656,-1.00,-1.0
8455,17004,56,752,-1.00,-1.0
8457,17048,-104,724,-1.00,-1.0
8459,17072,60,572,-1.00,-1.0
8461,17024,28,480,-1.00,-1.0
8463,16936,-80,720,-1.00,-1.0
8465,16948,52,576,-1.00,-1.0
8469,16988,12,428,-1.00,-1.0
8471,17008,-16,664,-1.00,-1.0
