timestamp_ms,accel_x,accel_y,accel_z,voltage,soc
2,16932,-52,620,-1.00,-1.0
4,17032,8,508,-1.00,-1.0
6,16952,-40,608,-1.00,-1.0
12,16924,60,484,-1.00,-1.0
14,17036,24,504,-1.00,-1.0
15,16932,-164,544,-1.00,-1.0
17,17020,36,660,-1.00,-1.0
19,16976,-28,516,-1.00,-1.0
21,17080,8,696,-1.00,-1.0
23,17060,-80,668,-1.00,-1.0
25,17020,-116,588,-1.00,-1.0
27,16988,-88,476,-1.00,-1.0
29,16984,-92,572,-1.00,-1.0
31,17012,-28,672,-1.00,-1.0
33,16996,-48,564,-1.00,-1.0
35,16940,32,616,-1.00,-1.0
37,17056,-12,596,-1.00,-1.0
39,16980,16,592,-1.00,-1.0
41,17012,-76,468,-1.00,-1.0
43,17168,12,624,-1.00,-1.0
45,17016,-28,504,-1.00,-1.0
46,17088,-52,516,-1.00,-1.0
51,17024,-48,556,-1.00,-1.0
53,16860,4,676,-1.00,-1.0
54,17052,44,616,-1.00,-1.0
56,17008,-12,592,-1.00,-1.0
58,16968,-52,512,-1.00,-1.0
60,16976,-112,544,-1.00,-1.0
62,16980,-104,584,-1.00,-1.0
64,16964,144,636,-1.00,-1.0
66,17100,-72,744,-1.00,-1.0
68,16988,-20,688,-1.00,-1.0
70,17044,0,672,-1.00,-1.0
72,16948,-76,580,-1.00,-1.0
74,17000,4,424,-1.00,-1.0
76,16972,32,608,-1.00,-1.0
78,16992,-88,504,-1.00,-1.0
80,16976,-100,576,-1.00,-1.0
82,17072,0,608,-1.00,-1.0
83,17004,-8,568,-1.00,-1.0
85,17032,56,672,-1.00,-1.0
90,16872,-60,612,-1.00,-1.0
92,16928,-68,528,-1.00,-1.0
93,17008,-148,624,-1.00,-1.0
95,17000,-52,496,-1.00,-1.0
97,17044,-96,600,-1.00,-1.0
99,16940,80,740,-1.00,-1.0
101,16984,-8,544,-1.00,-1.0
103,16976,-4,584,-1.00,-1.0
105,16904,-64,564,-1.00,-1.0
107,16992,36,516,-1.00,-1.0
109,16968,-92,608,-1.00,-1.0
111,17008,-148,476,-1.00,-1.0
113,16920,76,568,-1.00,-1.0
115,16944,-64,680,-1.00,-1.0
117,16940,-68,612,-1.00,-1.0
119,17056,-64,612,-1.00,-1.0
121,17024,-104,552,-1.00,-1.0
122,17044,-100,544,-1.00,-1.0
127,17048,-28,648,-1.00,-1.0
129,16932,-64,528,-1.00,-1.0
131,16976,-84,528,-1.00,-1.0
132,17008,-64,640,-1.00,-1.0
135,17064,12,556,-1.00,-1.0
136,16952,-44,540,-1.00,-1.0
138,17036,-52,712,-1.00,-1.0
140,17048,48,656,-1.00,-1.0
142,17004,-16,580,-1.00,-1.0
144,17088,-52,516,-1.00,-1.0
146,16956,52,680,-1.00,-1.0
148,16912,20,576,-1.00,-1.0
150,16936,-76,700,-1.00,-1.0
152,17028,-96,488,-1.00,-1.0
154,16964,-44,492,-1.00,-1.0
156,16968,-48,576,-1.00,-1.0
158,17028,-144,444,-1.00,-1.0
162,17004,24,536,-1.00,-1.0
164,16976,-20,596,-1.00,-1.0
166,17052,-40,576,-1.00,-1.0
168,16992,-60,552,-1.00,-1.0
170,17028,-60,656,-1.00,-1.0
172,17044,-56,624,-1.00,-1.0
174,17148,-148,748,-1.00,-1.0
175,16996,-40,508,-1.00,-1.0
177,17012,-8,624,-1.00,-1.0
179,17040,-8,652,-1.00,-1.0
181,16984,24,672,-1.00,-1.0
183,16996,32,416,-1.00,-1.0
185,17008,-40,600,-1.00,-1.0
187,16932,-60,416,-1.00,-1.0
189,17016,-128,720,-1.00,-1.0
191,17036,-76,720,-1.00,-1.0
193,16940,-52,684,-1.00,-1.0
195,16960,-112,452,-1.00,-1.0
199,17016,12,508,-1.00,-1.0
201,17016,-88,572,-1.00,-1.0
203,17008,-116,548,-1.00,-1.0
205,17000,-124,540,-1.00,-1.0
207,17044,24,472,-1.00,-1.0
209,16980,-24,584,-1.00,-1.0
211,16936,36,460,-1.00,-1.0
213,16976,44,580,-1.00,-1.0
215,16992,-76,424,-1.00,-1.0
217,16984,112,584,-1.00,-1.0
219,16992,-80,712,-1.00,-1.0
220,17052,-60,624,-1.00,-1.0
222,17028,24,544,-1.00,-1.0
224,17028,-132,548,-1.00,-1.0
226,16960,28,572,-1.00,-1.0
228,16940,20,588,-1.00,-1.0
230,16956,-108,444,-1.00,-1.0
232,16916,-84,492,-1.00,-1.0
236,16856,-32,652,-1.00,-1.0
238,16972,-12,616,-1.00,-1.0
240,17016,80,684,-1.00,-1.0
242,17032,4,520,-1.00,-1.0
244,17016,-68,644,-1.00,-1.0
246,16964,-64,592,-1.00,-1.0
248,17008,40,680,-1.00,-1.0
250,17000,92,628,-1.00,-1.0
252,16924,-4,640,-1.00,-1.0
254,16952,-52,480,-1.00,-1.0
256,16928,-8,628,-1.00,-1.0
258,17008,-72,412,-1.00,-1.0
259,17028,-64,412,-1.00,-1.0
262,16972,-56,544,-1.00,-1.0
264,17052,12,704,-1.00,-1.0
265,16948,84,732,-1.00,-1.0
267,16996,36,600,-1.00,-1.0
269,16940,-76,516,-1.00,-1.0
273,16940,72,500,-1.00,-1.0
275,17108,-48,472,-1.00,-1.0
277,16988,68,660,-1.00,-1.0
279,17060,-12,580,-1.00,-1.0
281,17072,-88,568,-1.00,-1.0
283,17088,-48,564,-1.00,-1.0
285,16980,-28,584,-1.00,-1.0
287,16928,-80,548,-1.00,-1.0
289,17004,40,664,-1.00,-1.0
291,16972,-52,484,-1.00,-1.0
293,17028,20,512,-1.00,-1.0
295,17032,-12,460,-1.00,-1.0
297,16956,-48,624,-1.00,-1.0
299,17088,-16,584,-1.00,-1.0
301,17028,-8,592,-1.00,-1.0
303,16984,-132,468,-1.00,-1.0
304,17060,0,708,-1.00,-1.0
306,16924,-40,560,-1.00,-1.0
310,17032,0,476,-1.00,-1.0
312,16988,4,616,-1.00,-1.0
314,16980,-52,500,-1.00,-1.0
316,16936,-36,656,-1.00,-1.0
318,17064,-20,520,-1.00,-1.0
320,16956,60,512,-1.00,-1.0
322,17020,-20,548,-1.00,-1.0
324,17008,-12,368,-1.00,-1.0
326,16916,-20,672,-1.00,-1.0
328,16960,84,524,-1.00,-1.0
330,17052,8,548,-1.00,-1.0
332,17060,-76,648,-1.00,-1.0
334,17008,-88,520,-1.00,-1.0
336,17012,-72,648,-1.00,-1.0
338,17020,-76,660,-1.00,-1.0
340,17060,24,596,-1.00,-1.0
341,17000,-8,816,-1.00,-1.0
343,16924,-108,456,-1.00,-1.0
347,16972,-8,536,-1.00,-1.0
349,17060,76,548,-1.00,-1.0
351,16948,-40,568,-1.00,-1.0
353,16992,-84,532,-1.00,-1.0
355,17040,40,568,-1.00,-1.0
357,16960,-12,612,-1.00,-1.0
359,17076,-24,636,-1.00,-1.0
361,16976,28,540,-1.00,-1.0
363,17016,80,632,-1.00,-1.0
365,17016,-52,616,-1.00,-1.0
367,16948,-16,648,-1.00,-1.0
369,16964,-64,608,-1.00,-1.0
371,17044,-8,608,-1.00,-1.0
373,16980,-36,568,-1.00,-1.0
375,16932,-80,520,-1.00,-1.0
376,17048,92,772,-1.00,-1.0
378,17040,-76,576,-1.00,-1.0
383,17060,-80,468,-1.00,-1.0
385,16956,-84,500,-1.00,-1.0
386,17024,-40,584,-1.00,-1.0
388,16972,60,660,-1.00,-1.0
390,16920,-4,520,-1.00,-1.0
392,17052,0,556,-1.00,-1.0
394,17108,-64,556,-1.00,-1.0
396,16952,4,696,-1.00,-1.0
398,16992,40,592,-1.00,-1.0
400,17000,-56,560,-1.00,-1.0
402,16968,-56,492,-1.00,-1.0
404,16960,-72,516,-1.00,-1.0
406,16952,24,608,-1.00,-1.0
408,16996,-24,560,-1.00,-1.0
410,16920,36,664,-1.00,-1.0
412,16992,-72,552,-1.00,-1.0
414,16940,-16,508,-1.00,-1.0
416,17024,-20,580,-1.00,-1.0
420,17028,16,556,-1.00,-1.0
422,17012,0,428,-1.00,-1.0
424,17068,-24,576,-1.00,-1.0
426,17036,-40,580,-1.00,-1.0
427,17036,4,552,-1.00,-1.0
430,17028,-72,676,-1.00,-1.0
432,17020,-16,688,-1.00,-1.0
433,17000,-136,420,-1.00,-1.0
435,16956,-20,648,-1.00,-1.0
437,17024,16,532,-1.00,-1.0
439,16996,12,728,-1.00,-1.0
441,17036,0,624,-1.00,-1.0
443,16924,-4,624,-1.00,-1.0
445,17060,-28,556,-1.00,-1.0
447,16964,-160,460,-1.00,-1.0
449,16896,68,728,-1.00,-1.0
451,17012,-56,580,-1.00,-1.0
453,16948,28,488,-1.00,-1.0
457,17044,-108,528,-1.00,-1.0
459,17028,16,712,-1.00,-1.0
461,17092,24,560,-1.00,-1.0
463,17096,-168,644,-1.00,-1.0
465,17052,36,480,-1.00,-1.0
467,17004,20,584,-1.00,-1.0
469,16940,-32,572,-1.00,-1.0
471,17004,36,604,-1.00,-1.0
472,16940,16,612,-1.00,-1.0
475,17024,-40,616,-1.00,-1.0
477,16964,-4,516,-1.00,-1.0
478,17048,44,580,-1.00,-1.0
480,16992,-52,628,-1.00,-1.0
482,16992,-108,528,-1.00,-1.0
484,17040,8,632,-1.00,-1.0
486,17052,-48,760,-1.00,-1.0
488,17112,-72,640,-1.00,-1.0
490,16972,-20,624,-1.00,-1.0
494,16908,-52,512,-1.00,-1.0
496,17048,-40,624,-1.00,-1.0
498,17036,-12,560,-1.00,-1.0
500,16928,-24,624,-1.00,-1.0
502,16984,-36,608,-1.00,-1.0
504,16992,-8,704,-1.00,-1.0
506,17016,-28,540,-1.00,-1.0
508,17088,-36,556,-1.00,-1.0
510,16940,-68,544,-1.00,-1.0
512,17056,-64,580,-1.00,-1.0
514,16968,20,512,-1.00,-1.0
516,17012,-124,688,-1.00,-1.0
518,16948,-56,588,-1.00,-1.0
520,16992,-28,588,-1.00,-1.0
522,16932,-56,584,-1.00,-1.0
524,16984,-68,720,-1.00,-1.0
525,17008,-28,664,-1.00,-1.0
527,16988,-36,596,-1.00,-1.0
532,16992,-56,568,-1.00,-1.0
534,17008,-92,580,-1.00,-1.0
535,17052,-4,624,-1.00,-1.0
537,17144,-80,484,-1.00,-1.0
539,17032,-24,616,-1.00,-1.0
541,16980,4,560,-1.00,-1.0
543,17024,60,600,-1.00,-1.0
545,17000,-72,612,-1.00,-1.0
547,17008,-40,548,-1.00,-1.0
549,16924,-12,652,-1.00,-1.0
551,17108,-4,628,-1.00,-1.0
553,16976,-52,516,-1.00,-1.0
555,16960,-12,440,-1.00,-1.0
557,17000,-164,412,-1.00,-1.0
559,16916,-28,592,-1.00,-1.0
561,17108,4,520,-1.00,-1.0
563,16936,24,620,-1.00,-1.0
564,17008,4,548,-1.00,-1.0
569,16980,128,496,-1.00,-1.0
571,16960,28,580,-1.00,-1.0
573,17064,32,580,-1.00,-1.0
574,16960,-92,440,-1.00,-1.0
577,17044,-48,596,-1.00,-1.0
578,17004,-84,564,-1.00,-1.0
580,16980,-36,536,-1.00,-1.0
582,16920,-40,620,-1.00,-1.0
584,17028,-28,652,-1.00,-1.0
586,17024,0,704,-1.00,-1.0
588,17028,36,608,-1.00,-1.0
590,17060,4,580,-1.00,-1.0
592,16976,-4,684,-1.00,-1.0
594,17136,-12,548,-1.00,-1.0
596,16972,-56,512,-1.00,-1.0
598,16960,-120,676,-1.00,-1.0
600,17044,12,524,-1.00,-1.0
602,17056,-32,548,-1.00,-1.0
606,16916,-120,516,-1.00,-1.0
608,16928,24,744,-1.00,-1.0
610,17004,-72,524,-1.00,-1.0
611,17008,-88,656,-1.00,-1.0
614,17008,-40,544,-1.00,-1.0
615,16900,-48,480,-1.00,-1.0
617,16856,-16,528,-1.00,-1.0
619,16968,-4,572,-1.00,-1.0
621,17024,-164,428,-1.00,-1.0
623,16992,-48,548,-1.00,-1.0
625,17028,92,560,-1.00,-1.0
627,16984,0,628,-1.00,-1.0
629,17032,-16,596,-1.00,-1.0
631,17036,-36,664,-1.00,-1.0
633,16956,-36,440,-1.00,-1.0
635,17044,-8,548,-1.00,-1.0
637,16956,-16,572,-1.00,-1.0
639,17088,4,668,-1.00,-1.0
643,16980,4,572,-1.00,-1.0
645,17036,28,556,-1.00,-1.0
646,16988,-8,572,-1.00,-1.0
648,17036,-36,576,-1.00,-1.0
650,16980,-68,480,-1.00,-1.0
652,17036,-4,564,-1.00,-1.0
654,17000,-52,484,-1.00,-1.0
656,17068,-8,664,-1.00,-1.0
658,17156,-32,436,-1.00,-1.0
660,16980,48,720,-1.00,-1.0
662,16996,-100,532,-1.00,-1.0
664,17020,-48,648,-1.00,-1.0
666,17036,4,680,-1.00,-1.0
668,17028,-4,692,-1.00,-1.0
670,16956,-96,732,-1.00,-1.0
672,16916,-8,600,-1.00,-1.0
674,16984,0,744,-1.00,-1.0
676,17008,-8,632,-1.00,-1.0
680,16884,-40,608,-1.00,-1.0
682,17020,-80,536,-1.00,-1.0
684,16948,-108,652,-1.00,-1.0
686,17080,12,524,-1.00,-1.0
688,17012,-88,536,-1.00,-1.0
690,17024,-16,612,-1.00,-1.0
691,17028,-68,552,-1.00,-1.0
693,16940,0,620,-1.00,-1.0
695,16932,-68,652,-1.00,-1.0
697,16952,84,604,-1.00,-1.0
699,17032,-20,676,-1.00,-1.0
701,17032,-16,652,-1.00,-1.0
703,16924,-60,636,-1.00,-1.0
705,17048,88,608,-1.00,-1.0
707,16988,68,660,-1.00,-1.0
709,16992,-72,616,-1.00,-1.0
711,17000,-76,536,-1.00,-1.0
713,17028,-40,572,-1.00,-1.0
717,17112,-32,644,-1.00,-1.0
719,16956,-40,628,-1.00,-1.0
721,16952,-28,660,-1.00,-1.0
723,16988,24,696,-1.00,-1.0
725,16988,-28,524,-1.00,-1.0
727,16948,-64,568,-1.00,-1.0
729,17052,-56,556,-1.00,-1.0
730,16964,-128,556,-1.00,-1.0
732,16960,-52,608,-1.00,-1.0
734,17040,48,548,-1.00,-1.0
736,17060,-32,552,-1.00,-1.0
738,16976,-44,560,-1.00,-1.0
740,17036,36,424,-1.00,-1.0
742,17048,24,492,-1.00,-1.0
744,17036,-40,468,-1.00,-1.0
746,16972,-68,592,-1.00,-1.0
748,16904,-20,588,-1.00,-1.0
752,17052,52,560,-1.00,-1.0
754,16932,-56,504,-1.00,-1.0
756,17048,-44,548,-1.00,-1.0
758,16948,-28,592,-1.00,-1.0
760,17000,-44,604,-1.00,-1.0
762,17012,32,492,-1.00,-1.0
764,16992,4,444,-1.00,-1.0
766,17044,-44,668,-1.00,-1.0
768,16996,-128,624,-1.00,-1.0
770,17080,-120,536,-1.00,-1.0
772,16936,-100,536,-1.00,-1.0
774,17068,-16,652,-1.00,-1.0
775,17004,16,496,-1.00,-1.0
777,17000,-60,416,-1.00,-1.0
779,16936,-16,604,-1.00,-1.0
781,17028,-116,556,-1.00,-1.0
783,17024,-136,640,-1.00,-1.0
785,16944,-20,496,-1.00,-1.0
789,17056,72,524,-1.00,-1.0
791,17056,-16,644,-1.00,-1.0
793,17044,-64,620,-1.00,-1.0
795,17004,-20,684,-1.00,-1.0
797,17060,24,572,-1.00,-1.0
799,16972,-172,632,-1.00,-1.0
801,16988,-72,616,-1.00,-1.0
803,17000,-60,600,-1.00,-1.0
805,17088,-52,664,-1.00,-1.0
807,17024,-72,596,-1.00,-1.0
809,17040,28,488,-1.00,-1.0
811,16968,-92,504,-1.00,-1.0
813,17024,-28,572,-1.00,-1.0
815,17020,-96,548,-1.00,-1.0
817,16920,36,320,-1.00,-1.0
819,17048,24,496,-1.00,-1.0
820,17036,-64,704,-1.00,-1.0
822,17000,-12,520,-1.00,-1.0
827,16988,-64,620,-1.00,-1.0
829,16928,-20,680,-1.00,-1.0
830,17100,-92,444,-1.00,-1.0
832,16992,16,676,-1.00,-1.0
834,17056,0,604,-1.00,-1.0
836,17076,0,616,-1.00,-1.0
838,17004,-72,532,-1.00,-1.0
840,17012,36,656,-1.00,-1.0
842,16976,40,504,-1.00,-1.0
844,17008,-44,596,-1.00,-1.0
846,16972,-12,712,-1.00,-1.0
848,16996,-40,652,-1.00,-1.0
850,17016,-40,664,-1.00,-1.0
852,17020,-48,720,-1.00,-1.0
854,16940,-64,548,-1.00,-1.0
856,17028,-16,572,-1.00,-1.0
858,17060,12,516,-1.00,-1.0
859,17028,28,680,-1.00,-1.0
864,16912,32,624,-1.00,-1.0
866,17000,-108,512,-1.00,-1.0
868,17012,56,536,-1.00,-1.0
869,17028,-92,508,-1.00,-1.0
872,16952,8,644,-1.00,-1.0
874,16916,-104,552,-1.00,-1.0
875,16992,8,620,-1.00,-1.0
877,17008,-24,408,-1.00,-1.0
879,17012,-20,680,-1.00,-1.0
881,17036,-12,728,-1.00,-1.0
883,17036,-92,536,-1.00,-1.0
885,17120,-120,472,-1.00,-1.0
887,17048,-76,396,-1.00,-1.0
889,17020,-84,488,-1.00,-1.0
891,16916,-32,624,-1.00,-1.0
893,16896,-28,576,-1.00,-1.0
895,16952,-140,536,-1.00,-1.0
897,17012,48,456,-1.00,-1.0
901,16992,-44,612,-1.00,-1.0
903,17044,-132,608,-1.00,-1.0
905,17032,-48,664,-1.00,-1.0
907,17004,0,580,-1.00,-1.0
909,17068,-8,548,-1.00,-1.0
911,17096,-76,460,-1.00,-1.0
912,16980,-16,508,-1.00,-1.0
914,16984,20,560,-1.00,-1.0
916,16960,68,584,-1.00,-1.0
918,16992,-80,556,-1.00,-1.0
920,16956,-180,580,-1.00,-1.0
922,16992,-88,596,-1.00,-1.0
924,17040,-32,624,-1.00,-1.0
926,17108,-108,752,-1.00,-1.0
928,16932,-136,720,-1.00,-1.0
930,17000,56,492,-1.00,-1.0
932,17096,24,536,-1.00,-1.0
936,17068,0,484,-1.00,-1.0
938,16984,-52,612,-1.00,-1.0
940,16900,12,500,-1.00,-1.0
942,17032,88,528,-1.00,-1.0
943,17052,-40,504,-1.00,-1.0
946,16960,-20,424,-1.00,-1.0
948,17036,100,512,-1.00,-1.0
949,17016,32,684,-1.00,-1.0
951,16964,-28,464,-1.00,-1.0
953,17028,-132,624,-1.00,-1.0
955,16980,-20,412,-1.00,-1.0
957,16960,20,592,-1.00,-1.0
959,17020,88,596,-1.00,-1.0
961,16976,-36,460,-1.00,-1.0
963,16944,-76,564,-1.00,-1.0
965,17068,-88,600,-1.00,-1.0
967,16952,-28,596,-1.00,-1.0
969,16976,-52,432,-1.00,-1.0
973,16932,-76,584,-1.00,-1.0
975,17008,60,544,-1.00,-1.0
977,17044,-32,616,-1.00,-1.0
979,17000,-68,460,-1.00,-1.0
981,16976,-40,628,-1.00,-1.0
983,17040,-68,592,-1.00,-1.0
985,16996,52,484,-1.00,-1.0
987,17000,64,576,-1.00,-1.0
989,17020,-36,564,-1.00,-1.0
991,16956,-72,564,-1.00,-1.0
993,16928,-100,592,-1.00,-1.0
994,16908,-56,344,-1.00,-1.0
996,17000,68,652,-1.00,-1.0
998,16988,-96,648,-1.00,-1.0
1000,17008,-56,540,-1.00,-1.0
1002,17004,-92,720,-1.00,-1.0
1004,17000,-84,532,-1.00,-1.0
1006,16992,-72,640,-1.00,-1.0
1010,16940,-32,512,-1.00,-1.0
1012,16944,-12,680,-1.00,-1.0
1014,16960,-56,568,-1.00,-1.0
1016,16968,8,624,-1.00,-1.0
1018,17000,-52,604,-1.00,-1.0
1020,16984,16,672,-1.00,-1.0
1022,17000,-16,660,-1.00,-1.0
1024,17020,36,656,-1.00,-1.0
1026,17040,-8,564,-1.00,-1.0
1028,16960,-68,540,-1.00,-1.0
1030,17020,-48,492,-1.00,-1.0
1032,16972,-4,704,-1.00,-1.0
1034,17004,-20,640,-1.00,-1.0
1036,16944,-52,704,-1.00,-1.0
1038,17092,-40,472,-1.00,-1.0
1039,16940,-52,664,-1.00,-1.0
1041,16932,4,684,-1.00,-1.0
1046,16988,-60,528,-1.00,-1.0
1048,17080,-16,552,-1.00,-1.0
1049,17036,-36,644,-1.00,-1.0
1051,16960,12,620,-1.00,-1.0
1053,16924,-16,624,-1.00,-1.0
1055,16900,-48,548,-1.00,-1.0
1057,16916,-84,772,-1.00,-1.0
1059,17136,-100,656,-1.00,-1.0
1061,16992,-68,552,-1.00,-1.0
1063,16924,-40,584,-1.00,-1.0
1065,16960,-92,740,-1.00,-1.0
1067,16996,-124,708,-1.00,-1.0
1069,16964,0,572,-1.00,-1.0
1071,17064,-20,512,-1.00,-1.0
1073,17064,24,652,-1.00,-1.0
1075,16968,96,560,-1.00,-1.0
1077,16900,68,648,-1.00,-1.0
1081,17064,48,512,-1.00,-1.0
1083,16992,-20,596,-1.00,-1.0
1085,17016,-16,552,-1.00,-1.0
1087,17048,16,608,-1.00,-1.0
1089,16968,-28,644,-1.00,-1.0
1091,17000,-8,576,-1.00,-1.0
1093,17004,-124,544,-1.00,-1.0
1095,16956,-52,576,-1.00,-1.0
1097,17000,12,660,-1.00,-1.0
1099,17008,-4,620,-1.00,-1.0
1101,16996,60,504,-1.00,-1.0
1102,17044,-32,572,-1.00,-1.0
1104,16940,-52,592,-1.00,-1.0
1106,16940,-16,708,-1.00,-1.0
1108,16996,-52,648,-1.00,-1.0
1110,16968,20,492,-1.00,-1.0
1112,17008,-36,500,-1.00,-1.0
1114,17080,-40,528,-1.00,-1.0
1118,17096,-80,592,-1.00,-1.0
1120,16988,-24,596,-1.00,-1.0
1122,16972,-8,632,-1.00,-1.0
1124,17004,52,552,-1.00,-1.0
1126,16940,-40,476,-1.00,-1.0
1128,16956,60,696,-1.00,-1.0
1130,17032,-28,580,-1.00,-1.0
1132,16932,40,568,-1.00,-1.0
1134,17008,24,528,-1.00,-1.0
1136,16980,-44,560,-1.00,-1.0
1138,16988,-64,608,-1.00,-1.0
1140,17072,28,496,-1.00,-1.0
1141,16980,-20,580,-1.00,-1.0
1143,17008,-16,536,-1.00,-1.0
1145,16968,-104,660,-1.00,-1.0
1147,17032,40,548,-1.00,-1.0
1149,16976,-72,492,-1.00,-1.0
1153,17040,-96,500,-1.00,-1.0
1155,17064,-28,420,-1.00,-1.0
1157,17008,4,508,-1.00,-1.0
1159,17012,-68,564,-1.00,-1.0
1161,16968,36,512,-1.00,-1.0
1163,17064,-36,560,-1.00,-1.0
1165,16988,20,688,-1.00,-1.0
1167,16948,-48,696,-1.00,-1.0
1169,17016,-36,636,-1.00,-1.0
1171,17112,52,684,-1.00,-1.0
1173,16972,-24,744,-1.00,-1.0
1175,16972,-4,684,-1.00,-1.0
1177,16948,-36,556,-1.00,-1.0
1179,16940,-52,608,-1.00,-1.0
1181,17016,12,496,-1.00,-1.0
1183,16940,-100,604,-1.00,-1.0
1184,17080,-48,640,-1.00,-1.0
1189,17004,-28,648,-1.00,-1.0
1191,16916,52,604,-1.00,-1.0
1192,17048,-28,460,-1.00,-1.0
1194,17084,-40,492,-1.00,-1.0
1196,17072,-4,580,-1.00,-1.0
1198,16996,-60,492,-1.00,-1.0
1200,16968,0,620,-1.00,-1.0
1202,16940,-24,548,-1.00,-1.0
1204,16936,-92,592,-1.00,-1.0
1206,16964,-12,696,-1.00,-1.0
1208,17004,-20,596,-1.00,-1.0
1210,16956,0,584,-1.00,-1.0
1212,16976,-40,664,-1.00,-1.0
1214,17008,40,588,-1.00,-1.0
1216,16944,-52,572,-1.00,-1.0
1218,16968,-20,492,-1.00,-1.0
1220,16960,-52,548,-1.00,-1.0
1222,16992,116,616,-1.00,-1.0
1226,17072,40,476,-1.00,-1.0
1228,16936,48,512,-1.00,-1.0
1229,17072,36,664,-1.00,-1.0
1231,17020,-52,656,-1.00,-1.0
1233,16992,-64,596,-1.00,-1.0
1235,16980,-32,680,-1.00,-1.0
1237,16960,0,576,-1.00,-1.0
1239,16956,-8,692,-1.00,-1.0
1241,16928,-72,608,-1.00,-1.0
1243,17132,-88,688,-1.00,-1.0
1245,17032,72,432,-1.00,-1.0
1247,17044,4,684,-1.00,-1.0
1249,16988,-12,684,-1.00,-1.0
1251,16952,-68,704,-1.00,-1.0
1253,16956,16,448,-1.00,-1.0
1255,17068,-36,516,-1.00,-1.0
1257,16996,-112,660,-1.00,-1.0
1261,17044,-16,552,-1.00,-1.0
1263,16984,100,660,-1.00,-1.0
1265,16964,8,636,-1.00,-1.0
1267,17028,-28,504,-1.00,-1.0
1269,17036,-44,532,-1.00,-1.0
1271,17128,-112,528,-1.00,-1.0
1272,16988,124,556,-1.00,-1.0
1274,16864,16,472,-1.00,-1.0
1276,16992,-56,460,-1.00,-1.0
1278,17060,64,628,-1.00,-1.0
1280,17080,-80,612,-1.00,-1.0
1282,16988,-52,580,-1.00,-1.0
1284,16924,0,648,-1.00,-1.0
1286,17076,-72,596,-1.00,-1.0
1288,17044,-116,668,-1.00,-1.0
1290,17044,-64,552,-1.00,-1.0
1292,17068,-104,660,-1.00,-1.0
1296,17032,100,572,-1.00,-1.0
1298,16936,-84,560,-1.00,-1.0
1300,17028,-40,640,-1.00,-1.0
1302,16948,40,632,-1.00,-1.0
1304,17012,-36,568,-1.00,-1.0
1306,16976,-12,624,-1.00,-1.0
1308,17040,8,524,-1.00,-1.0
1310,16980,-108,580,-1.00,-1.0
1312,16992,-104,524,-1.00,-1.0
1314,16952,-92,564,-1.00,-1.0
1316,17096,-20,576,-1.00,-1.0
1317,16972,-100,576,-1.00,-1.0
1319,17024,12,572,-1.00,-1.0
1321,17044,-52,644,-1.00,-1.0
1323,16940,-28,468,-1.00,-1.0
1325,16996,-36,696,-1.00,-1.0
1327,16976,68,600,-1.00,-1.0
1331,16972,-32,728,-1.00,-1.0
1333,17028,-56,608,-1.00,-1.0
1335,16992,-8,560,-1.00,-1.0
1337,17000,-24,548,-1.00,-1.0
1339,16880,-108,480,-1.00,-1.0
1341,17032,-16,504,-1.00,-1.0
1343,17024,16,600,-1.00,-1.0
1345,17000,0,568,-1.00,-1.0
1347,17024,76,684,-1.00,-1.0
1349,16952,56,716,-1.00,-1.0
1351,16972,-12,564,-1.00,-1.0
1353,16968,-64,632,-1.00,-1.0
1355,17000,44,528,-1.00,-1.0
1357,17028,24,572,-1.00,-1.0
1359,17008,48,644,-1.00,-1.0
1361,17028,-16,552,-1.00,-1.0
1362,16976,-76,648,-1.00,-1.0
1364,16996,-4,572,-1.00,-1.0
1369,17088,-88,568,-1.00,-1.0
1370,17012,8,556,-1.00,-1.0
1372,17160,-24,508,-1.00,-1.0
1374,17020,-16,604,-1.00,-1.0
1376,17008,-76,520,-1.00,-1.0
1378,16960,-60,484,-1.00,-1.0
1380,17020,56,452,-1.00,-1.0
1382,16952,-52,680,-1.00,-1.0
1384,16980,-8,728,-1.00,-1.0
1386,17088,-52,696,-1.00,-1.0
1388,16960,48,608,-1.00,-1.0
1390,16904,-64,704,-1.00,-1.0
1392,16884,-48,628,-1.00,-1.0
1394,16948,36,636,-1.00,-1.0
1396,16936,88,760,-1.00,-1.0
1398,17000,-28,664,-1.00,-1.0
1400,17004,24,544,-1.00,-1.0
1404,16948,44,396,-1.00,-1.0
1406,17024,-40,644,-1.00,-1.0
1408,17020,-92,568,-1.00,-1.0
1410,17008,-16,648,-1.00,-1.0
1412,17060,-12,500,-1.00,-1.0
1414,16964,24,504,-1.00,-1.0
1415,16992,-104,540,-1.00,-1.0
1417,17100,76,536,-1.00,-1.0
1419,17004,40,628,-1.00,-1.0
1421,17032,-24,408,-1.00,-1.0
1423,16900,-20,696,-1.00,-1.0
1425,17000,-96,556,-1.00,-1.0
1427,16964,-128,660,-1.00,-1.0
1429,16928,12,536,-1.00,-1.0
1431,16976,-16,616,-1.00,-1.0
1433,16864,-80,548,-1.00,-1.0
1435,17000,-8,580,-1.00,-1.0
1439,16972,40,668,-1.00,-1.0
1441,17116,-72,564,-1.00,-1.0
1443,16960,24,636,-1.00,-1.0
1445,16964,-60,524,-1.00,-1.0
1447,16996,-64,580,-1.00,-1.0
1449,17044,0,528,-1.00,-1.0
1451,17040,-48,636,-1.00,-1.0
1453,16984,16,648,-1.00,-1.0
1455,17008,-48,464,-1.00,-1.0
1457,17044,-52,748,-1.00,-1.0
1459,16940,-24,580,-1.00,-1.0
1460,17112,-96,548,-1.00,-1.0
1462,17060,-40,592,-1.00,-1.0
1464,17004,-12,528,-1.00,-1.0
1466,16972,-88,524,-1.00,-1.0
1468,16924,-56,580,-1.00,-1.0
1470,16996,-92,592,-1.00,-1.0
1474,16976,-4,352,-1.00,-1.0
1476,16936,-16,524,-1.00,-1.0
1478,16992,-112,500,-1.00,-1.0
1480,16968,-48,600,-1.00,-1.0
1482,17028,-32,488,-1.00,-1.0
1484,17004,-44,604,-1.00,-1.0
1486,16984,-112,580,-1.00,-1.0
1488,17036,92,696,-1.00,-1.0
1490,17020,-144,620,-1.00,-1.0
1492,16900,-8,652,-1.00,-1.0
1494,17132,-16,692,-1.00,-1.0
1496,17044,-40,548,-1.00,-1.0
1498,17000,-48,640,-1.00,-1.0
1500,17004,12,520,-1.00,-1.0
1502,16872,0,516,-1.00,-1.0
1503,17024,-20,684,-1.00,-1.0
1505,17000,56,648,-1.00,-1.0
1507,17008,-60,640,-1.00,-1.0
1511,17064,-36,600,-1.00,-1.0
1513,17008,-176,552,-1.00,-1.0
1515,17028,-4,660,-1.00,-1.0
1517,17028,4,672,-1.00,-1.0
1519,17044,-56,548,-1.00,-1.0
1521,17096,4,564,-1.00,-1.0
1523,16944,-40,564,-1.00,-1.0
1525,16968,16,648,-1.00,-1.0
1527,16960,-52,476,-1.00,-1.0
1529,17044,4,616,-1.00,-1.0
1531,16988,-24,512,-1.00,-1.0
1533,17020,36,592,-1.00,-1.0
1535,17080,-40,608,-1.00,-1.0
1537,16940,20,552,-1.00,-1.0
1539,17136,-60,516,-1.00,-1.0
1540,16884,44,728,-1.00,-1.0
1542,16964,-88,468,-1.00,-1.0
1547,16984,-44,600,-1.00,-1.0
1549,17060,-52,580,-1.00,-1.0
1550,16920,-68,504,-1.00,-1.0
1552,17068,-16,668,-1.00,-1.0
1554,17072,-8,600,-1.00,-1.0
1556,16984,48,604,-1.00,-1.0
1558,17000,-100,512,-1.00,-1.0
1560,16968,-28,456,-1.00,-1.0
1562,17036,-20,532,-1.00,-1.0
1564,17012,-64,672,-1.00,-1.0
1566,16928,44,572,-1.00,-1.0
1568,16984,-28,644,-1.00,-1.0
1570,17036,-40,520,-1.00,-1.0
1572,16956,-24,604,-1.00,-1.0
1574,16944,0,548,-1.00,-1.0
1576,16976,32,564,-1.00,-1.0
1578,16976,-108,452,-1.00,-1.0
1582,17052,-40,572,-1.00,-1.0
1584,17044,-104,604,-1.00,-1.0
1586,16968,-24,652,-1.00,-1.0
1588,16920,36,684,-1.00,-1.0
1590,16984,-100,500,-1.00,-1.0
1592,17020,-80,548,-1.00,-1.0
1594,16948,-64,624,-1.00,-1.0
1595,17016,4,560,-1.00,-1.0
1597,16976,-96,536,-1.00,-1.0
1599,16968,-44,692,-1.00,-1.0
1601,17048,-56,536,-1.00,-1.0
1603,16976,-52,580,-1.00,-1.0
1605,16916,24,628,-1.00,-1.0
1607,17076,-44,480,-1.00,-1.0
1609,16936,-12,580,-1.00,-1.0
1611,17072,-64,508,-1.00,-1.0
1613,17072,-100,420,-1.00,-1.0
1617,17044,-104,516,-1.00,-1.0
1619,16988,-112,576,-1.00,-1.0
1621,16996,16,616,-1.00,-1.0
1623,16932,52,572,-1.00,-1.0
1625,17028,-28,632,-1.00,-1.0
1627,16892,-64,484,-1.00,-1.0
1629,16956,40,488,-1.00,-1.0
1631,16984,-136,528,-1.00,-1.0
1633,17016,-20,536,-1.00,-1.0
1635,16984,52,616,-1.00,-1.0
1637,16980,-68,592,-1.00,-1.0
1639,17020,76,656,-1.00,-1.0
1640,17000,-44,684,-1.00,-1.0
1642,17000,60,552,-1.00,-1.0
1644,17012,4,624,-1.00,-1.0
1646,16992,0,564,-1.00,-1.0
1648,16984,-76,528,-1.00,-1.0
1650,17068,-24,508,-1.00,-1.0
1654,16984,-60,624,-1.00,-1.0
1656,17000,56,520,-1.00,-1.0
1658,17000,-24,628,-1.00,-1.0
1660,16988,-56,600,-1.00,-1.0
1662,16884,-4,672,-1.00,-1.0
1664,17124,-60,528,-1.00,-1.0
1666,16980,-116,588,-1.00,-1.0
1668,17092,-92,596,-1.00,-1.0
1670,16920,-36,568,-1.00,-1.0
1672,16932,-88,704,-1.00,-1.0
1674,16980,-116,504,-1.00,-1.0
1676,16940,-12,600,-1.00,-1.0
1678,16984,12,628,-1.00,-1.0
1680,16984,-76,620,-1.00,-1.0
1682,16992,28,608,-1.00,-1.0
1684,17000,-32,620,-1.00,-1.0
1686,17044,-92,608,-1.00,-1.0
1690,16996,-12,632,-1.00,-1.0
1692,17000,-124,608,-1.00,-1.0
1694,17052,72,572,-1.00,-1.0
1696,17036,0,556,-1.00,-1.0
1698,16992,-88,548,-1.00,-1.0
1700,16952,40,664,-1.00,-1.0
1701,17072,-32,560,-1.00,-1.0
1703,17048,24,624,-1.00,-1.0
1705,17092,-56,660,-1.00,-1.0
1707,16948,108,624,-1.00,-1.0
1709,16992,92,560,-1.00,-1.0
1711,16988,-176,568,-1.00,-1.0
1713,17000,8,636,-1.00,-1.0
1715,17020,-84,616,-1.00,-1.0
1717,17016,-16,648,-1.00,-1.0
1719,16920,-64,440,-1.00,-1.0
1721,16924,-28,668,-1.00,-1.0
1725,16976,-20,456,-1.00,-1.0
1727,16960,-56,512,-1.00,-1.0
1729,17016,20,588,-1.00,-1.0
1731,17064,-32,512,-1.00,-1.0
1733,16964,68,568,-1.00,-1.0
1735,16992,-48,632,-1.00,-1.0
1737,17020,-76,600,-1.00,-1.0
1739,17084,-148,592,-1.00,-1.0
1741,17004,0,560,-1.00,-1.0
1743,17096,8,580,-1.00,-1.0
1744,16872,-4,584,-1.00,-1.0
1746,17004,-80,520,-1.00,-1.0
1748,17024,-116,584,-1.00,-1.0
1750,16940,-84,664,-1.00,-1.0
1752,17020,-36,512,-1.00,-1.0
1754,16992,12,416,-1.00,-1.0
1756,17024,24,572,-1.00,-1.0
1760,17076,-124,472,-1.00,-1.0
1762,16932,-20,424,-1.00,-1.0
1764,17072,36,468,-1.00,-1.0
1766,17068,-40,528,-1.00,-1.0
1768,16972,-4,568,-1.00,-1.0
1770,16956,-100,612,-1.00,-1.0
1772,16976,-76,508,-1.00,-1.0
1774,17024,-76,564,-1.00,-1.0
1776,17020,-44,584,-1.00,-1.0
1778,16924,-68,612,-1.00,-1.0
1780,16904,-20,512,-1.00,-1.0
1781,17060,-80,644,-1.00,-1.0
1783,17096,-112,708,-1.00,-1.0
1785,17012,-28,572,-1.00,-1.0
1787,16988,-64,544,-1.00,-1.0
1789,17080,-20,520,-1.00,-1.0
1791,16960,92,576,-1.00,-1.0
1795,17060,-52,548,-1.00,-1.0
1797,16936,-20,588,-1.00,-1.0
1799,16976,36,592,-1.00,-1.0
1801,17148,-32,512,-1.00,-1.0
1803,16964,-64,544,-1.00,-1.0
1805,17028,64,520,-1.00,-1.0
1807,16992,-72,596,-1.00,-1.0
1809,16960,-72,464,-1.00,-1.0
1811,17116,-196,508,-1.00,-1.0
1813,17004,-32,580,-1.00,-1.0
1815,17004,40,592,-1.00,-1.0
1817,17072,-52,496,-1.00,-1.0
1819,17036,-20,644,-1.00,-1.0
1821,17044,-24,496,-1.00,-1.0
1823,17024,-40,604,-1.00,-1.0
1824,16984,-20,644,-1.00,-1.0
1826,16956,-56,592,-1.00,-1.0
1831,17052,36,524,-1.00,-1.0
1833,17032,24,524,-1.00,-1.0
1834,17092,-48,620,-1.00,-1.0
1836,16980,24,560,-1.00,-1.0
1838,17048,12,580,-1.00,-1.0
1840,16984,-24,636,-1.00,-1.0
1842,17044,-60,564,-1.00,-1.0
1844,16936,-64,692,-1.00,-1.0
1846,17032,-8,440,-1.00,-1.0
1848,16912,-20,564,-1.00,-1.0
1850,17064,-100,708,-1.00,-1.0
1852,17024,-32,616,-1.00,-1.0
1854,17032,-36,596,-1.00,-1.0
1856,17000,-76,692,-1.00,-1.0
1858,16992,-76,504,-1.00,-1.0
1860,16988,36,564,-1.00,-1.0
1862,17032,36,576,-1.00,-1.0
1864,17056,-76,536,-1.00,-1.0
1868,17012,-16,592,-1.00,-1.0
1870,16992,24,608,-1.00,-1.0
1872,17016,56,448,-1.00,-1.0
1874,16928,4,512,-1.00,-1.0
1876,16936,32,628,-1.00,-1.0
1878,16936,-76,556,-1.00,-1.0
1879,17000,36,564,-1.00,-1.0
1881,17140,32,592,-1.00,-1.0
1883,17048,12,692,-1.00,-1.0
1885,17096,-12,508,-1.00,-1.0
1887,17040,-32,512,-1.00,-1.0
1889,17020,-84,648,-1.00,-1.0
1891,16920,-88,456,-1.00,-1.0
1893,16936,-12,468,-1.00,-1.0
1895,16940,-76,556,-1.00,-1.0
1897,16996,-100,488,-1.00,-1.0
1899,17044,-16,572,-1.00,-1.0
1903,16968,-32,568,-1.00,-1.0
1905,16992,-40,620,-1.00,-1.0
1907,17020,-96,536,-1.00,-1.0
1909,17024,-4,764,-1.00,-1.0
1911,17000,-4,600,-1.00,-1.0
1913,17092,-64,452,-1.00,-1.0
1915,17040,-44,516,-1.00,-1.0
1917,16996,-28,624,-1.00,-1.0
1918,17028,-128,560,-1.00,-1.0
1921,17080,-52,604,-1.00,-1.0
1923,16988,24,536,-1.00,-1.0
1924,16996,-60,512,-1.00,-1.0
1926,16964,-16,720,-1.00,-1.0
1928,16912,-88,444,-1.00,-1.0
1930,16976,-4,696,-1.00,-1.0
1932,16880,32,604,-1.00,-1.0
1934,16900,-36,552,-1.00,-1.0
1938,17068,-12,536,-1.00,-1.0
1940,16964,-32,724,-1.00,-1.0
1942,16984,-20,592,-1.00,-1.0
1944,16992,-20,540,-1.00,-1.0
1946,16988,-136,652,-1.00,-1.0
1948,16924,16,484,-1.00,-1.0
1950,17012,-20,476,-1.00,-1.0
1952,17012,28,680,-1.00,-1.0
1954,16900,-56,416,-1.00,-1.0
1956,16940,-60,588,-1.00,-1.0
1958,16916,-60,500,-1.00,-1.0
1960,17072,-76,612,-1.00,-1.0
1962,17080,-64,700,-1.00,-1.0
1964,16964,-132,564,-1.00,-1.0
1966,16992,-56,648,-1.00,-1.0
1967,16916,0,588,-1.00,-1.0
1969,17020,-108,592,-1.00,-1.0
1974,16992,-8,608,-1.00,-1.0
1976,16996,-80,576,-1.00,-1.0
1977,17032,-48,560,-1.00,-1.0
1979,17008,-4,468,-1.00,-1.0
1981,16940,-52,632,-1.00,-1.0
1983,16940,8,564,-1.00,-1.0
1985,17028,32,580,-1.00,-1.0
1987,17056,16,516,-1.00,-1.0
1989,17088,12,500,-1.00,-1.0
1991,16924,16,472,-1.00,-1.0
1993,16936,-16,600,-1.00,-1.0
1995,16936,-28,544,-1.00,-1.0
1997,17016,-96,568,-1.00,-1.0
1999,17044,-32,480,-1.00,-1.0
2001,17000,84,640,-1.00,-1.0
2003,16956,-20,592,-1.00,-1.0
2005,16988,-12,556,-1.00,-1.0
2007,16940,-28,484,-1.00,-1.0
2011,17092,36,592,-1.00,-1.0
2013,16924,68,548,-1.00,-1.0
2015,16940,-4,588,-1.00,-1.0
2017,16940,-96,640,-1.00,-1.0
2019,16996,-28,628,-1.00,-1.0
2021,16984,-64,500,-1.00,-1.0
2022,17028,-40,524,-1.00,-1.0
2024,16948,-48,692,-1.00,-1.0
2026,17044,-28,696,-1.00,-1.0
2028,17076,-40,664,-1.00,-1.0
2030,17088,68,600,-1.00,-1.0
2032,16988,-68,608,-1.00,-1.0
2034,17032,24,484,-1.00,-1.0
2036,17052,-20,512,-1.00,-1.0
2038,16952,72,584,-1.00,-1.0
2040,16932,-76,576,-1.00,-1.0
2042,17132,-36,548,-1.00,-1.0
2046,16972,-44,560,-1.00,-1.0
2048,16996,-52,612,-1.00,-1.0
2050,16980,0,632,-1.00,-1.0
2052,17028,-32,648,-1.00,-1.0
2054,17004,-48,532,-1.00,-1.0
2056,17004,-148,512,-1.00,-1.0
2058,17076,8,452,-1.00,-1.0
2059,16960,-40,508,-1.00,-1.0
2061,17040,-112,608,-1.00,-1.0
2063,16972,-24,536,-1.00,-1.0
2065,17024,20,556,-1.00,-1.0
2067,17020,-28,520,-1.00,-1.0
2069,17112,64,524,-1.00,-1.0
2071,16972,-60,796,-1.00,-1.0
2073,17032,16,604,-1.00,-1.0
2075,17044,-104,416,-1.00,-1.0
2077,17036,84,476,-1.00,-1.0
2081,17032,28,624,-1.00,-1.0
2083,16988,-132,464,-1.00,-1.0
2085,16956,-32,636,-1.00,-1.0
2087,17044,-140,432,-1.00,-1.0
2089,16988,-16,640,-1.00,-1.0
2091,16948,56,484,-1.00,-1.0
2093,17052,72,632,-1.00,-1.0
2095,17044,-12,496,-1.00,-1.0
2096,16976,136,464,-1.00,-1.0
2098,16996,-16,696,-1.00,-1.0
2100,16968,40,656,-1.00,-1.0
2102,16944,-76,612,-1.00,-1.0
2104,17008,16,420,-1.00,-1.0
2106,17020,12,444,-1.00,-1.0
2108,16988,-72,560,-1.00,-1.0
2110,17000,16,648,-1.00,-1.0
2112,17024,-36,688,-1.00,-1.0
2116,17016,-32,524,-1.00,-1.0
2118,16964,-28,600,-1.00,-1.0
2120,16992,-80,540,-1.00,-1.0
2122,16992,-48,360,-1.00,-1.0
2124,17076,-32,476,-1.00,-1.0
2126,16896,60,692,-1.00,-1.0
2128,16916,-8,504,-1.00,-1.0
2130,16988,-16,588,-1.00,-1.0
2132,16972,-84,728,-1.00,-1.0
2134,16976,28,572,-1.00,-1.0
2136,17028,40,592,-1.00,-1.0
2138,17000,-48,620,-1.00,-1.0
2140,17004,-20,624,-1.00,-1.0
2142,17000,0,560,-1.00,-1.0
2144,16976,-32,540,-1.00,-1.0
2145,17096,28,632,-1.00,-1.0
2147,16960,32,528,-1.00,-1.0
2149,17044,0,620,-1.00,-1.0
2153,17032,-72,720,-1.00,-1.0
2155,16988,8,588,-1.00,-1.0
2157,17016,-8,496,-1.00,-1.0
2159,17028,0,528,-1.00,-1.0
2161,16900,80,740,-1.00,-1.0
2163,16900,-68,528,-1.00,-1.0
2165,17064,-92,484,-1.00,-1.0
2167,17024,0,544,-1.00,-1.0
2169,17004,60,600,-1.00,-1.0
2171,17032,-128,656,-1.00,-1.0
2173,16924,-68,524,-1.00,-1.0
2175,16992,-52,612,-1.00,-1.0
2177,16964,12,400,-1.00,-1.0
2179,16988,-100,596,-1.00,-1.0
2181,17020,-16,684,-1.00,-1.0
2183,17032,-68,540,-1.00,-1.0
2184,16960,40,544,-1.00,-1.0
2189,17016,-4,620,-1.00,-1.0
2191,17016,-24,696,-1.00,-1.0
2193,17044,-120,540,-1.00,-1.0
2194,16956,-76,612,-1.00,-1.0
2197,17032,0,628,-1.00,-1.0
2199,16984,12,564,-1.00,-1.0
2200,16968,-76,556,-1.00,-1.0
2202,16996,-16,676,-1.00,-1.0
2204,16976,-68,484,-1.00,-1.0
2206,17072,-124,628,-1.00,-1.0
2208,17024,-152,576,-1.00,-1.0
2210,17020,68,584,-1.00,-1.0
2212,17020,84,524,-1.00,-1.0
2214,17016,-124,708,-1.00,-1.0
2216,16944,52,516,-1.00,-1.0
2218,17012,124,560,-1.00,-1.0
2220,17084,-140,652,-1.00,-1.0
2224,17048,24,496,-1.00,-1.0
2226,16968,-96,500,-1.00,-1.0
2228,16984,-24,580,-1.00,-1.0
2230,16984,-112,560,-1.00,-1.0
2232,16980,-40,728,-1.00,-1.0
2234,17016,-60,564,-1.00,-1.0
2236,16944,60,692,-1.00,-1.0
2238,17024,24,552,-1.00,-1.0
2240,17028,20,500,-1.00,-1.0
2242,16968,-76,508,-1.00,-1.0
2244,16984,-28,664,-1.00,-1.0
2246,17020,32,444,-1.00,-1.0
2248,17088,-32,584,-1.00,-1.0
2250,17052,-56,600,-1.00,-1.0
2252,16912,0,520,-1.00,-1.0
2253,16964,44,704,-1.00,-1.0
2255,17092,148,588,-1.00,-1.0
2257,17044,-52,676,-1.00,-1.0
2261,17048,-16,624,-1.00,-1.0
2263,16948,-88,716,-1.00,-1.0
2265,17068,-72,508,-1.00,-1.0
2267,17032,-64,604,-1.00,-1.0
2269,17036,56,660,-1.00,-1.0
2271,17040,24,560,-1.00,-1.0
2273,16932,-16,584,-1.00,-1.0
2275,16936,-4,468,-1.00,-1.0
2277,16968,28,604,-1.00,-1.0
2279,17028,16,608,-1.00,-1.0
2281,17020,-8,536,-1.00,-1.0
2283,17052,44,680,-1.00,-1.0
2285,16912,-84,604,-1.00,-1.0
2287,16900,-52,696,-1.00,-1.0
2289,17076,0,660,-1.00,-1.0
2291,17012,52,556,-1.00,-1.0
2292,17036,-128,652,-1.00,-1.0
2297,16984,-12,572,-1.00,-1.0
2299,17064,-32,608,-1.00,-1.0
2301,17020,-24,528,-1.00,-1.0
2303,16968,-40,600,-1.00,-1.0
2305,17036,0,548,-1.00,-1.0
2307,17000,-24,548,-1.00,-1.0
2308,16952,24,668,-1.00,-1.0
2310,16920,-24,628,-1.00,-1.0
2312,16928,-32,636,-1.00,-1.0
2314,16996,-36,520,-1.00,-1.0
2316,17080,-124,524,-1.00,-1.0
2318,16932,16,496,-1.00,-1.0
2320,17060,-16,784,-1.00,-1.0
2322,17100,-132,464,-1.00,-1.0
2324,16968,-96,520,-1.00,-1.0
2326,17060,-48,592,-1.00,-1.0
2328,16932,0,484,-1.00,-1.0
2332,17016,36,592,-1.00,-1.0
2334,16976,-56,672,-1.00,-1.0
2336,16928,-28,460,-1.00,-1.0
2338,17056,-20,520,-1.00,-1.0
2340,16968,-28,632,-1.00,-1.0
2342,16988,-24,648,-1.00,-1.0
2344,17088,-92,620,-1.00,-1.0
2346,17024,-64,616,-1.00,-1.0
2347,17020,-28,592,-1.00,-1.0
2349,16964,-20,488,-1.00,-1.0
2351,17032,-28,664,-1.00,-1.0
2353,16948,-32,520,-1.00,-1.0
2355,16904,-172,572,-1.00,-1.0
2357,17060,-168,476,-1.00,-1.0
2359,17008,-40,544,-1.00,-1.0
2361,17048,-44,624,-1.00,-1.0
2363,17024,-4,552,-1.00,-1.0
2367,16920,-76,556,-1.00,-1.0
2369,17044,-20,568,-1.00,-1.0
2371,17020,-24,520,-1.00,-1.0
2373,17000,4,580,-1.00,-1.0
2375,17052,-104,628,-1.00,-1.0
2377,17008,0,620,-1.00,-1.0
2379,16980,32,608,-1.00,-1.0
2381,17072,-96,636,-1.00,-1.0
2383,16920,-76,572,-1.00,-1.0
2385,17020,-16,532,-1.00,-1.0
2387,16976,0,532,-1.00,-1.0
2389,17000,8,528,-1.00,-1.0
2390,17000,32,684,-1.00,-1.0
2392,16984,-52,744,-1.00,-1.0
2394,17016,4,600,-1.00,-1.0
2396,17132,-28,552,-1.00,-1.0
2398,16964,16,472,-1.00,-1.0
2400,16932,-8,436,-1.00,-1.0
2404,17008,-52,580,-1.00,-1.0
2406,17016,16,704,-1.00,-1.0
2408,16956,-8,640,-1.00,-1.0
2410,17064,-92,516,-1.00,-1.0
2412,17036,-40,544,-1.00,-1.0
2414,16984,84,556,-1.00,-1.0
2416,17020,-52,388,-1.00,-1.0
2418,17056,20,568,-1.00,-1.0
2420,17008,-4,552,-1.00,-1.0
2422,17040,-36,528,-1.00,-1.0
2424,17028,-84,640,-1.00,-1.0
2426,16984,48,524,-1.00,-1.0
2428,17036,32,472,-1.00,-1.0
2430,16928,-64,612,-1.00,-1.0
2432,16932,24,512,-1.00,-1.0
2433,17004,-28,480,-1.00,-1.0
2435,17000,-28,620,-1.00,-1.0
2440,17000,-116,424,-1.00,-1.0
2442,16940,-104,572,-1.00,-1.0
2443,17020,44,700,-1.00,-1.0
2445,16988,-72,676,-1.00,-1.0
2447,17036,40,540,-1.00,-1.0
2449,16984,-52,620,-1.00,-1.0
2451,17048,-40,468,-1.00,-1.0
2453,17020,-20,528,-1.00,-1.0
2455,16960,80,648,-1.00,-1.0
2457,17096,12,588,-1.00,-1.0
2459,17068,-40,644,-1.00,-1.0
2461,17132,-4,532,-1.00,-1.0
2463,16896,80,604,-1.00,-1.0
2465,17044,-48,616,-1.00,-1.0
2467,16972,-20,596,-1.00,-1.0
2469,17012,-76,640,-1.00,-1.0
2471,16976,8,684,-1.00,-1.0
2475,17084,0,572,-1.00,-1.0
2477,16956,-112,648,-1.00,-1.0
2479,16976,-52,692,-1.00,-1.0
2481,16972,-112,464,-1.00,-1.0
2482,17012,-92,700,-1.00,-1.0
2485,17012,-36,616,-1.00,-1.0
2487,16932,44,572,-1.00,-1.0
2488,17044,-92,604,-1.00,-1.0
2490,17008,-80,656,-1.00,-1.0
2492,17088,20,564,-1.00,-1.0
2494,16956,-40,660,-1.00,-1.0
2496,16976,0,536,-1.00,-1.0
2498,16984,32,628,-1.00,-1.0
2500,17044,-72,568,-1.00,-1.0
2502,17016,-36,556,-1.00,-1.0
2504,17000,68,460,-1.00,-1.0
2506,16988,-60,544,-1.00,-1.0
2508,17064,-60,644,-1.00,-1.0
2512,17076,-44,460,-1.00,-1.0
2514,17020,-12,540,-1.00,-1.0
2516,16944,36,540,-1.00,-1.0
2518,16984,-48,620,-1.00,-1.0
2520,16932,52,532,-1.00,-1.0
2522,17088,36,556,-1.00,-1.0
2524,17052,32,540,-1.00,-1.0
2526,17060,28,588,-1.00,-1.0
2528,16920,-96,412,-1.00,-1.0
2530,16972,12,616,-1.00,-1.0
2532,16980,20,500,-1.00,-1.0
2533,17016,-116,688,-1.00,-1.0
2535,17036,-116,712,-1.00,-1.0
2537,17024,0,436,-1.00,-1.0
2539,17000,-64,464,-1.00,-1.0
2541,17008,-68,568,-1.00,-1.0
2543,17028,-60,704,-1.00,-1.0
2547,16952,-12,560,-1.00,-1.0
2549,17056,-60,616,-1.00,-1.0
2551,16948,4,592,-1.00,-1.0
2553,17028,12,480,-1.00,-1.0
2555,17036,-36,684,-1.00,-1.0
2557,16968,-56,580,-1.00,-1.0
2559,16932,-16,536,-1.00,-1.0
2561,16928,-164,560,-1.00,-1.0
2563,16932,-44,692,-1.00,-1.0
2565,17012,-48,660,-1.00,-1.0
2567,16956,12,556,-1.00,-1.0
2569,17036,-44,572,-1.00,-1.0
2571,16952,-32,684,-1.00,-1.0
2573,17028,52,576,-1.00,-1.0
2575,16936,-80,696,-1.00,-1.0
2576,17072,-24,476,-1.00,-1.0
2578,16984,12,676,-1.00,-1.0
2583,17044,-64,416,-1.00,-1.0
2585,16992,144,540,-1.00,-1.0
2586,17008,-104,716,-1.00,-1.0
2588,17020,24,456,-1.00,-1.0
2590,16976,-24,608,-1.00,-1.0
2592,17036,-12,580,-1.00,-1.0
2594,17024,-144,536,-1.00,-1.0
2596,17008,-20,516,-1.00,-1.0
2598,17024,-84,556,-1.00,-1.0
2600,17016,-104,604,-1.00,-1.0
2602,16984,-40,624,-1.00,-1.0
2604,17060,-28,496,-1.00,-1.0
2606,16888,-92,516,-1.00,-1.0
2608,17048,-60,576,-1.00,-1.0
2610,16980,-20,648,-1.00,-1.0
2612,17092,0,660,-1.00,-1.0
2614,17020,-4,668,-1.00,-1.0
2618,17008,24,436,-1.00,-1.0
2620,16976,8,668,-1.00,-1.0
2622,16924,-92,520,-1.00,-1.0
2624,16972,12,588,-1.00,-1.0
2625,16932,-40,584,-1.00,-1.0
2627,16960,32,724,-1.00,-1.0
2629,17028,-32,748,-1.00,-1.0
2631,16960,-88,520,-1.00,-1.0
2633,17000,-16,560,-1.00,-1.0
2635,16956,-36,580,-1.00,-1.0
2637,17012,-40,720,-1.00,-1.0
2639,16980,24,544,-1.00,-1.0
2641,17040,-40,604,-1.00,-1.0
2643,17012,-72,636,-1.00,-1.0
2645,17076,-72,600,-1.00,-1.0
2647,17032,-4,624,-1.00,-1.0
2649,16984,-24,540,-1.00,-1.0
2651,16992,60,500,-1.00,-1.0
2655,17052,-56,652,-1.00,-1.0
2657,16980,-36,568,-1.00,-1.0
2659,16928,-20,736,-1.00,-1.0
2661,16976,-116,700,-1.00,-1.0
2663,16920,-12,528,-1.00,-1.0
2665,17092,-124,692,-1.00,-1.0
2666,16976,-24,564,-1.00,-1.0
2668,17076,-16,552,-1.00,-1.0
2670,16940,-60,596,-1.00,-1.0
2672,16992,-80,664,-1.00,-1.0
2674,16964,0,620,-1.00,-1.0
2676,16976,8,672,-1.00,-1.0
2678,16984,16,728,-1.00,-1.0
2680,17052,-16,616,-1.00,-1.0
2682,17016,-80,620,-1.00,-1.0
2684,16992,-8,548,-1.00,-1.0
2686,16904,28,636,-1.00,-1.0
2690,16956,-80,592,-1.00,-1.0
2692,17052,-40,596,-1.00,-1.0
2694,17036,-36,532,-1.00,-1.0
2696,16932,20,576,-1.00,-1.0
2698,17012,-12,556,-1.00,-1.0
2700,16924,76,532,-1.00,-1.0
2702,16968,-92,544,-1.00,-1.0
2704,17036,16,412,-1.00,-1.0
2706,17000,-64,528,-1.00,-1.0
2708,16992,-44,504,-1.00,-1.0
2709,17056,-44,624,-1.00,-1.0
2711,17116,-16,616,-1.00,-1.0
2713,16984,-80,556,-1.00,-1.0
2715,16988,-128,544,-1.00,-1.0
2717,16928,-24,444,-1.00,-1.0
2719,16988,-188,612,-1.00,-1.0
2721,16992,-48,536,-1.00,-1.0
2725,16956,-76,664,-1.00,-1.0
2727,17012,56,612,-1.00,-1.0
2729,17112,-40,548,-1.00,-1.0
2731,16952,-56,556,-1.00,-1.0
2733,16988,72,532,-1.00,-1.0
2735,16876,-120,608,-1.00,-1.0
2737,16936,28,564,-1.00,-1.0
2739,17068,-24,596,-1.00,-1.0
2741,16868,-8,556,-1.00,-1.0
2743,17016,-152,520,-1.00,-1.0
2745,17016,-8,616,-1.00,-1.0
2747,17016,-20,488,-1.00,-1.0
2749,16888,32,516,-1.00,-1.0
2751,17032,-72,672,-1.00,-1.0
2753,17048,-28,648,-1.00,-1.0
2754,16976,-84,704,-1.00,-1.0
2756,16972,-84,540,-1.00,-1.0
2761,16924,-76,560,-1.00,-1.0
2763,16972,-116,600,-1.00,-1.0
2764,17004,-32,432,-1.00,-1.0
2766,17072,-12,620,-1.00,-1.0
2768,17020,-16,556,-1.00,-1.0
2770,16984,32,704,-1.00,-1.0
2772,17084,-16,736,-1.00,-1.0
2774,16940,-40,580,-1.00,-1.0
2776,16988,28,604,-1.00,-1.0
2778,16988,-24,632,-1.00,-1.0
2780,16960,72,700,-1.00,-1.0
2782,17052,12,576,-1.00,-1.0
2784,16948,16,512,-1.00,-1.0
2786,17116,-12,528,-1.00,-1.0
2788,17152,-56,456,-1.00,-1.0
2790,16992,20,728,-1.00,-1.0
2792,17012,-36,632,-1.00,-1.0
2796,16896,-12,676,-1.00,-1.0
2798,17020,-32,504,-1.00,-1.0
2800,17012,-52,576,-1.00,-1.0
2802,16924,-108,604,-1.00,-1.0
2804,17020,12,608,-1.00,-1.0
2806,16972,84,476,-1.00,-1.0
2808,17012,-56,616,-1.00,-1.0
2810,17068,-84,600,-1.00,-1.0
2812,16944,-76,624,-1.00,-1.0
2814,16964,-16,524,-1.00,-1.0
2816,17036,-52,660,-1.00,-1.0
2817,17060,-40,596,-1.00,-1.0
2819,17032,64,608,-1.00,-1.0
2821,16976,-176,632,-1.00,-1.0
2823,16952,-44,596,-1.00,-1.0
2825,16928,68,632,-1.00,-1.0
2827,17008,-24,400,-1.00,-1.0
2831,16944,-108,572,-1.00,-1.0
2833,16972,-56,592,-1.00,-1.0
2835,16940,16,760,-1.00,-1.0
2837,17060,-112,536,-1.00,-1.0
2839,17004,-88,616,-1.00,-1.0
2841,17012,-60,564,-1.00,-1.0
2843,17032,84,520,-1.00,-1.0
2845,16876,-72,704,-1.00,-1.0
2847,17060,48,588,-1.00,-1.0
2849,16948,-52,544,-1.00,-1.0
2851,17004,24,544,-1.00,-1.0
2853,16932,-64,524,-1.00,-1.0
2855,16988,-60,580,-1.00,-1.0
2857,16992,-68,704,-1.00,-1.0
2859,16916,-8,560,-1.00,-1.0
2860,16984,12,520,-1.00,-1.0
2862,17060,8,628,-1.00,-1.0
2864,17064,-28,532,-1.00,-1.0
2868,17016,-108,632,-1.00,-1.0
2870,17020,-140,648,-1.00,-1.0
2872,17052,-84,584,-1.00,-1.0
2874,16940,-60,496,-1.00,-1.0
2876,16984,-36,460,-1.00,-1.0
2878,16976,52,532,-1.00,-1.0
2880,17040,-48,592,-1.00,-1.0
2882,17056,-40,560,-1.00,-1.0
2884,17028,0,572,-1.00,-1.0
2886,16948,12,684,-1.00,-1.0
2888,17004,-16,624,-1.00,-1.0
2890,16964,-28,660,-1.00,-1.0
2892,17052,-112,392,-1.00,-1.0
2894,17040,-56,624,-1.00,-1.0
2896,17008,32,568,-1.00,-1.0
2898,17004,-4,548,-1.00,-1.0
2900,16964,-36,588,-1.00,-1.0
2904,17020,0,656,-1.00,-1.0
2906,16928,-24,584,-1.00,-1.0
2907,16932,96,512,-1.00,-1.0
2909,17080,-12,572,-1.00,-1.0
2911,17052,-92,528,-1.00,-1.0
2913,17052,-24,556,-1.00,-1.0
2915,16928,-84,624,-1.00,-1.0
2917,16868,20,516,-1.00,-1.0
2919,17016,-28,680,-1.00,-1.0
2921,16984,0,604,-1.00,-1.0
2923,16956,-156,540,-1.00,-1.0
2925,17048,16,600,-1.00,-1.0
2927,17016,-16,512,-1.00,-1.0
2929,17024,-64,436,-1.00,-1.0
2931,17024,0,464,-1.00,-1.0
2933,16904,-4,644,-1.00,-1.0
2935,17004,64,452,-1.00,-1.0
2939,17052,16,660,-1.00,-1.0
2941,16964,-40,568,-1.00,-1.0
2943,17036,16,752,-1.00,-1.0
2944,16952,-4,672,-1.00,-1.0
2946,17068,-44,560,-1.00,-1.0
2948,17020,16,536,-1.00,-1.0
2950,16984,-112,540,-1.00,-1.0
2952,16852,4,548,-1.00,-1.0
2954,17036,-128,572,-1.00,-1.0
2956,17052,-48,476,-1.00,-1.0
2958,16956,4,476,-1.00,-1.0
2960,16960,20,608,-1.00,-1.0
2962,16996,-28,608,-1.00,-1.0
2964,17112,-24,636,-1.00,-1.0
2966,17096,52,648,-1.00,-1.0
2968,17024,72,500,-1.00,-1.0
2970,17088,12,560,-1.00,-1.0
2972,16980,-144,688,-1.00,-1.0
2976,16940,-32,484,-1.00,-1.0
2978,16996,-92,584,-1.00,-1.0
2980,16988,-32,652,-1.00,-1.0
2982,17036,-44,580,-1.00,-1.0
2984,16964,-32,660,-1.00,-1.0
2986,16896,-32,712,-1.00,-1.0
2988,17040,0,624,-1.00,-1.0
2989,17004,-48,588,-1.00,-1.0
2991,17004,-24,540,-1.00,-1.0
2993,16860,-100,424,-1.00,-1.0
2995,17008,16,492,-1.00,-1.0
2997,16988,-8,564,-1.00,-1.0
2999,17068,-68,680,-1.00,-1.0
3001,16912,-40,556,-1.00,-1.0
3003,17012,52,544,-1.00,-1.0
3005,16964,-40,588,-1.00,-1.0
3007,16980,-44,592,-1.00,-1.0
3011,16976,-148,596,-1.00,-1.0
3013,17036,28,568,-1.00,-1.0
3015,16980,-24,632,-1.00,-1.0
3017,16968,-32,620,-1.00,-1.0
3019,16888,-92,628,-1.00,-1.0
3021,16908,-44,528,-1.00,-1.0
3023,17076,-108,504,-1.00,-1.0
3025,17016,-20,468,-1.00,-1.0
3027,17016,52,576,-1.00,-1.0
3029,16948,-44,508,-1.00,-1.0
3031,17028,-24,664,-1.00,-1.0
3032,17004,16,668,-1.00,-1.0
3034,16948,48,612,-1.00,-1.0
3036,16948,-8,592,-1.00,-1.0
3038,16944,-60,628,-1.00,-1.0
3040,17008,28,632,-1.00,-1.0
3042,17016,-112,616,-1.00,-1.0
3046,16860,40,448,-1.00,-1.0
3048,17052,-76,572,-1.00,-1.0
3050,17084,-20,600,-1.00,-1.0
3052,17092,0,572,-1.00,-1.0
3054,17052,24,556,-1.00,-1.0
3056,17056,-32,584,-1.00,-1.0
3058,16984,-32,508,-1.00,-1.0
3060,16984,48,584,-1.00,-1.0
3062,17004,-40,528,-1.00,-1.0
3064,16980,-64,580,-1.00,-1.0
3066,17096,-96,444,-1.00,-1.0
3068,17000,-52,568,-1.00,-1.0
3070,16988,24,644,-1.00,-1.0
3072,16964,-20,540,-1.00,-1.0
3074,16976,36,528,-1.00,-1.0
3076,16968,-20,520,-1.00,-1.0
3077,16972,72,552,-1.00,-1.0
3082,16964,72,528,-1.00,-1.0
3084,16960,8,572,-1.00,-1.0
3085,16896,-44,616,-1.00,-1.0
3087,16980,0,484,-1.00,-1.0
3089,16988,-80,596,-1.00,-1.0
3091,16972,24,556,-1.00,-1.0
3093,16976,0,780,-1.00,-1.0
3095,16988,84,640,-1.00,-1.0
3097,16932,8,564,-1.00,-1.0
3099,16996,40,504,-1.00,-1.0
3101,17000,-60,612,-1.00,-1.0
3103,17016,-76,576,-1.00,-1.0
3105,17088,-96,512,-1.00,-1.0
3107,17016,24,752,-1.00,-1.0
3109,17056,16,484,-1.00,-1.0
3111,17016,68,696,-1.00,-1.0
3113,17036,40,624,-1.00,-1.0
3115,16932,12,468,-1.00,-1.0
3119,16992,-16,496,-1.00,-1.0
3121,16948,56,576,-1.00,-1.0
3123,17004,-12,632,-1.00,-1.0
3125,16904,-64,576,-1.00,-1.0
3127,16888,-56,424,-1.00,-1.0
3129,16984,-92,556,-1.00,-1.0
3130,16992,-120,536,-1.00,-1.0
3132,17004,56,652,-1.00,-1.0
3134,17052,-80,440,-1.00,-1.0
3136,16960,-48,564,-1.00,-1.0
3138,16960,-28,672,-1.00,-1.0
3140,16980,44,748,-1.00,-1.0
3142,17148,20,680,-1.00,-1.0
3144,17164,12,604,-1.00,-1.0
3146,17076,-8,592,-1.00,-1.0
3148,17156,-60,500,-1.00,-1.0
3150,17088,-44,660,-1.00,-1.0
3154,17132,36,660,-1.00,-1.0
3156,17064,-88,512,-1.00,-1.0
3158,17044,-208,496,-1.00,-1.0
3160,16912,12,592,-1.00,-1.0
3162,16968,36,740,-1.00,-1.0
3164,16960,-44,576,-1.00,-1.0
3166,17084,-64,588,-1.00,-1.0
3168,16956,20,568,-1.00,-1.0
3170,16960,-36,688,-1.00,-1.0
3172,16928,4,584,-1.00,-1.0
3174,17052,-92,432,-1.00,-1.0
3175,17040,-8,568,-1.00,-1.0
3177,16984,-16,512,-1.00,-1.0
3179,17028,-52,484,-1.00,-1.0
3181,17004,24,584,-1.00,-1.0
3183,17044,-80,580,-1.00,-1.0
3185,17072,-12,512,-1.00,-1.0
3187,16924,104,548,-1.00,-1.0
3191,17028,20,544,-1.00,-1.0
3193,16920,-68,616,-1.00,-1.0
3195,17060,-16,676,-1.00,-1.0
3197,17040,-40,484,-1.00,-1.0
3199,17028,-24,488,-1.00,-1.0
3201,17032,48,616,-1.00,-1.0
3203,16980,-96,564,-1.00,-1.0
3205,16912,0,580,-1.00,-1.0
3207,17012,12,552,-1.00,-1.0
3209,17012,24,512,-1.00,-1.0
3211,17004,-92,668,-1.00,-1.0
3212,17036,80,420,-1.00,-1.0
3214,17016,-60,488,-1.00,-1.0
3216,17144,8,516,-1.00,-1.0
3218,16956,-44,692,-1.00,-1.0
3220,16948,-36,428,-1.00,-1.0
3222,17024,-32,612,-1.00,-1.0
3226,17044,-72,676,-1.00,-1.0
3228,17008,-52,600,-1.00,-1.0
3230,17012,-20,656,-1.00,-1.0
3232,16936,44,652,-1.00,-1.0
3234,16952,-40,528,-1.00,-1.0
3236,16916,-40,552,-1.00,-1.0
3238,16872,-68,596,-1.00,-1.0
3240,17032,12,544,-1.00,-1.0
3242,17044,0,580,-1.00,-1.0
3244,16992,-156,616,-1.00,-1.0
3246,17008,0,548,-1.00,-1.0
3248,16984,0,612,-1.00,-1.0
3249,17088,-56,540,-1.00,-1.0
3252,17000,-160,524,-1.00,-1.0
3253,16968,40,436,-1.00,-1.0
3255,17016,-16,464,-1.00,-1.0
3257,17028,-4,548,-1.00,-1.0
3262,17048,-100,620,-1.00,-1.0
3264,17024,24,588,-1.00,-1.0
3265,17060,-112,704,-1.00,-1.0
3267,17112,8,644,-1.00,-1.0
3269,16992,-64,664,-1.00,-1.0
3271,17088,-8,644,-1.00,-1.0
3273,16956,-60,652,-1.00,-1.0
3275,17004,-120,572,-1.00,-1.0
3277,16956,-16,488,-1.00,-1.0
3279,17000,76,624,-1.00,-1.0
3281,16952,0,492,-1.00,-1.0
3283,17024,-44,632,-1.00,-1.0
3285,16924,8,532,-1.00,-1.0
3287,16944,24,420,-1.00,-1.0
3289,17036,-8,548,-1.00,-1.0
3291,16996,-4,668,-1.00,-1.0
3293,17044,-20,488,-1.00,-1.0
3294,17036,-72,484,-1.00,-1.0
3299,17096,-92,512,-1.00,-1.0
3301,17032,-28,456,-1.00,-1.0
3303,17008,-116,456,-1.00,-1.0
3305,16972,-56,524,-1.00,-1.0
3307,16980,-40,692,-1.00,-1.0
3309,17032,-88,616,-1.00,-1.0
3310,16976,-12,604,-1.00,-1.0
3312,17108,-112,652,-1.00,-1.0
3314,17016,40,620,-1.00,-1.0
3316,17048,92,572,-1.00,-1.0
3318,16976,36,552,-1.00,-1.0
3320,17036,68,604,-1.00,-1.0
3322,16980,-16,624,-1.00,-1.0
3324,16980,-84,544,-1.00,-1.0
3326,17028,72,564,-1.00,-1.0
3328,16932,68,596,-1.00,-1.0
3330,17016,-12,692,-1.00,-1.0
3334,17000,88,372,-1.00,-1.0
3336,17028,104,468,-1.00,-1.0
3338,17028,-44,516,-1.00,-1.0
3340,16976,-80,656,-1.00,-1.0
3342,16932,-84,580,-1.00,-1.0
3344,16904,-8,472,-1.00,-1.0
3346,16996,-88,520,-1.00,-1.0
3348,16996,-48,680,-1.00,-1.0
3350,16984,-80,624,-1.00,-1.0
3352,16976,-124,596,-1.00,-1.0
3354,16940,-56,444,-1.00,-1.0
3355,16932,52,512,-1.00,-1.0
3357,17000,-32,704,-1.00,-1.0
3359,16980,-64,544,-1.00,-1.0
3361,17016,-128,608,-1.00,-1.0
3363,17056,-52,564,-1.00,-1.0
3365,16980,0,580,-1.00,-1.0
3370,17036,-12,544,-1.00,-1.0
3372,16988,-80,516,-1.00,-1.0
3373,16936,0,636,-1.00,-1.0
3375,16912,-36,484,-1.00,-1.0
3377,16992,-20,588,-1.00,-1.0
3379,17104,20,544,-1.00,-1.0
3381,17020,-120,576,-1.00,-1.0
3383,16972,-140,576,-1.00,-1.0
3385,16964,36,624,-1.00,-1.0
3387,16956,-12,628,-1.00,-1.0
3389,17096,48,600,-1.00,-1.0
3391,17024,-32,620,-1.00,-1.0
3393,17012,36,472,-1.00,-1.0
3395,17036,-20,536,-1.00,-1.0
3397,17000,16,524,-1.00,-1.0
3399,17020,0,524,-1.00,-1.0
3401,17032,-120,712,-1.00,-1.0
3405,16984,-60,592,-1.00,-1.0
3407,17024,-12,600,-1.00,-1.0
3409,17008,-116,720,-1.00,-1.0
3411,17000,-36,652,-1.00,-1.0
3413,16996,12,484,-1.00,-1.0
3415,16936,-244,544,-1.00,-1.0
3416,16940,-16,584,-1.00,-1.0
3418,17004,-4,636,-1.00,-1.0
3420,16976,-56,500,-1.00,-1.0
3422,16952,32,592,-1.00,-1.0
3424,17008,-68,684,-1.00,-1.0
3426,16932,0,632,-1.00,-1.0
3428,16948,-80,564,-1.00,-1.0
3430,17060,-44,640,-1.00,-1.0
3432,16976,-56,732,-1.00,-1.0
3434,17112,8,728,-1.00,-1.0
3436,17072,-52,632,-1.00,-1.0
3440,16988,-100,612,-1.00,-1.0
3442,17052,100,740,-1.00,-1.0
3444,17028,52,640,-1.00,-1.0
3446,16936,-28,696,-1.00,-1.0
3448,16992,-44,580,-1.00,-1.0
3450,17024,-52,540,-1.00,-1.0
3452,16976,60,720,-1.00,-1.0
3454,16880,-24,492,-1.00,-1.0
3455,16948,-88,456,-1.00,-1.0
3458,16996,-20,436,-1.00,-1.0
3460,16872,-84,624,-1.00,-1.0
3461,16900,-20,408,-1.00,-1.0
3463,17016,-4,528,-1.00,-1.0
3465,17008,12,592,-1.00,-1.0
3467,17036,-20,524,-1.00,-1.0
3469,17008,-28,512,-1.00,-1.0
3471,16996,-44,512,-1.00,-1.0
3473,16968,124,588,-1.00,-1.0
3478,17072,20,580,-1.00,-1.0
3480,17044,0,484,-1.00,-1.0
3482,16964,12,596,-1.00,-1.0
3483,16980,0,612,-1.00,-1.0
3485,16964,0,552,-1.00,-1.0
3487,16992,-56,460,-1.00,-1.0
3489,17100,-12,584,-1.00,-1.0
3491,17016,-56,532,-1.00,-1.0
3493,16940,-56,564,-1.00,-1.0
3495,16964,32,456,-1.00,-1.0
3497,17084,28,580,-1.00,-1.0
3499,16964,-16,540,-1.00,-1.0
3501,16984,-124,468,-1.00,-1.0
3503,16976,-88,584,-1.00,-1.0
3505,17072,-36,460,-1.00,-1.0
3507,16964,-100,572,-1.00,-1.0
3509,17020,16,556,-1.00,-1.0
3513,17056,-20,680,-1.00,-1.0
3515,16904,48,512,-1.00,-1.0
3517,16992,-36,668,-1.00,-1.0
3519,16972,24,688,-1.00,-1.0
3521,17004,-28,628,-1.00,-1.0
3523,16980,100,608,-1.00,-1.0
3524,16920,-44,492,-1.00,-1.0
3526,17048,-28,440,-1.00,-1.0
3528,16972,-64,668,-1.00,-1.0
3530,16980,-24,592,-1.00,-1.0
3532,17028,8,460,-1.00,-1.0
3534,16936,-56,596,-1.00,-1.0
3536,17032,-4,660,-1.00,-1.0
3538,17036,40,488,-1.00,-1.0
3540,17032,-40,536,-1.00,-1.0
3542,17024,56,576,-1.00,-1.0
3544,16960,36,528,-1.00,-1.0
3548,17020,-68,392,-1.00,-1.0
3550,17040,-96,556,-1.00,-1.0
3552,17072,-64,636,-1.00,-1.0
3554,17032,76,644,-1.00,-1.0
3556,17044,-32,520,-1.00,-1.0
3558,17040,-60,632,-1.00,-1.0
3560,16932,-28,612,-1.00,-1.0
3562,16936,72,520,-1.00,-1.0
3563,16932,-28,548,-1.00,-1.0
3566,17040,8,468,-1.00,-1.0
3568,16992,-20,396,-1.00,-1.0
3569,17044,-76,572,-1.00,-1.0
3571,17040,12,540,-1.00,-1.0
3573,16852,-48,488,-1.00,-1.0
3575,17060,56,704,-1.00,-1.0
3577,17028,0,504,-1.00,-1.0
3579,17072,-48,612,-1.00,-1.0
3581,16980,-16,540,-1.00,-1.0
3585,17024,0,596,-1.00,-1.0
3587,16908,16,588,-1.00,-1.0
3589,17040,-4,512,-1.00,-1.0
3591,16952,-20,516,-1.00,-1.0
3593,17044,-40,540,-1.00,-1.0
3595,17000,-16,436,-1.00,-1.0
3597,17036,48,616,-1.00,-1.0
3599,17116,-52,608,-1.00,-1.0
3601,16980,-72,492,-1.00,-1.0
3603,16928,-28,508,-1.00,-1.0
3605,16984,-48,576,-1.00,-1.0
3607,16936,-108,496,-1.00,-1.0
3608,16968,-80,436,-1.00,-1.0
3610,16976,40,604,-1.00,-1.0
3612,16992,0,512,-1.00,-1.0
3614,17048,-28,624,-1.00,-1.0
3616,16964,-136,440,-1.00,-1.0
3620,16952,-72,676,-1.00,-1.0
3622,16896,-28,592,-1.00,-1.0
3624,16984,8,528,-1.00,-1.0
3626,17008,-112,836,-1.00,-1.0
3628,16948,72,592,-1.00,-1.0
3630,17060,-40,576,-1.00,-1.0
3632,17052,-48,500,-1.00,-1.0
3634,17000,-24,548,-1.00,-1.0
3636,16956,76,612,-1.00,-1.0
3638,16964,-104,404,-1.00,-1.0
3640,17012,-76,512,-1.00,-1.0
3642,17048,-124,636,-1.00,-1.0
3644,17124,-24,632,-1.00,-1.0
3646,17040,4,556,-1.00,-1.0
3648,17028,-76,560,-1.00,-1.0
3650,16928,32,600,-1.00,-1.0
3651,17008,120,596,-1.00,-1.0
3656,17000,-28,772,-1.00,-1.0
3658,16996,-76,748,-1.00,-1.0
3660,17020,-60,672,-1.00,-1.0
3661,16980,-44,528,-1.00,-1.0
3664,17024,-76,408,-1.00,-1.0
3666,16896,-64,480,-1.00,-1.0
3667,17024,-32,504,-1.00,-1.0
3669,17060,-88,740,-1.00,-1.0
3671,17036,-16,624,-1.00,-1.0
3673,17004,-52,460,-1.00,-1.0
3675,17040,-20,560,-1.00,-1.0
3677,16900,-72,528,-1.00,-1.0
3679,17036,-64,652,-1.00,-1.0
3681,16940,-56,628,-1.00,-1.0
3683,16952,-8,624,-1.00,-1.0
3685,16964,-4,636,-1.00,-1.0
3687,16928,-76,604,-1.00,-1.0
3691,17052,36,552,-1.00,-1.0
3693,17000,-28,608,-1.00,-1.0
3695,17064,-80,560,-1.00,-1.0
3697,16984,-16,476,-1.00,-1.0
3699,16920,-52,640,-1.00,-1.0
3701,17000,-8,608,-1.00,-1.0
3703,17048,-44,536,-1.00,-1.0
3705,16972,4,384,-1.00,-1.0
3706,16872,-12,508,-1.00,-1.0
3708,17088,-68,536,-1.00,-1.0
3710,17076,28,708,-1.00,-1.0
3712,16920,32,488,-1.00,-1.0
3714,16948,-32,608,-1.00,-1.0
3716,17032,-56,496,-1.00,-1.0
3718,17008,-16,492,-1.00,-1.0
3720,16952,-48,584,-1.00,-1.0
3722,17040,0,732,-1.00,-1.0
3724,17012,44,544,-1.00,-1.0
3728,16992,-24,720,-1.00,-1.0
3730,17028,-20,520,-1.00,-1.0
3732,17060,28,564,-1.00,-1.0
3734,17000,-88,540,-1.00,-1.0
3736,17088,-20,536,-1.00,-1.0
3738,17028,84,628,-1.00,-1.0
3740,16992,20,660,-1.00,-1.0
3742,16960,20,596,-1.00,-1.0
3744,16888,40,608,-1.00,-1.0
3746,16912,-52,408,-1.00,-1.0
3748,16988,24,512,-1.00,-1.0
3749,16872,-16,644,-1.00,-1.0
3751,17088,-16,552,-1.00,-1.0
3753,16972,20,592,-1.00,-1.0
3755,16932,-40,596,-1.00,-1.0
3757,17040,-36,580,-1.00,-1.0
3759,17124,-16,624,-1.00,-1.0
3763,17044,-40,672,-1.00,-1.0
3765,16992,32,424,-1.00,-1.0
3767,17080,-40,592,-1.00,-1.0
3769,17008,36,648,-1.00,-1.0
3771,17052,-80,576,-1.00,-1.0
3773,17064,-60,644,-1.00,-1.0
3775,16928,8,592,-1.00,-1.0
3777,17064,36,468,-1.00,-1.0
3779,16996,-32,704,-1.00,-1.0
3781,16984,36,512,-1.00,-1.0
3783,16924,-48,560,-1.00,-1.0
3785,16932,-32,644,-1.00,-1.0
3786,16996,-20,492,-1.00,-1.0
3789,16956,-64,528,-1.00,-1.0
3791,16996,-48,600,-1.00,-1.0
3792,17008,-40,704,-1.00,-1.0
3794,16964,-56,616,-1.00,-1.0
3798,16972,-92,728,-1.00,-1.0
3800,16924,-24,540,-1.00,-1.0
3802,17060,-52,480,-1.00,-1.0
3804,16920,24,504,-1.00,-1.0
3806,17044,-12,572,-1.00,-1.0
3808,17056,4,600,-1.00,-1.0
3810,17024,36,564,-1.00,-1.0
3812,16948,8,496,-1.00,-1.0
3814,17028,-76,572,-1.00,-1.0
3816,17012,-64,528,-1.00,-1.0
3818,16900,28,600,-1.00,-1.0
3820,16924,-32,548,-1.00,-1.0
3822,17004,-52,520,-1.00,-1.0
3824,16936,24,528,-1.00,-1.0
3826,16904,-40,652,-1.00,-1.0
3827,16912,-48,568,-1.00,-1.0
3829,16916,-8,676,-1.00,-1.0
3831,16976,-28,608,-1.00,-1.0
3835,17048,-112,600,-1.00,-1.0
3837,17092,-64,624,-1.00,-1.0
3839,17068,-80,616,-1.00,-1.0
3841,17052,8,600,-1.00,-1.0
3843,16992,-52,568,-1.00,-1.0
3845,16980,-12,496,-1.00,-1.0
3847,16960,-60,600,-1.00,-1.0
3849,17016,-56,672,-1.00,-1.0
3851,16996,4,768,-1.00,-1.0
3853,17000,32,476,-1.00,-1.0
3855,16980,-88,508,-1.00,-1.0
3857,17008,-76,596,-1.00,-1.0
3859,17016,4,612,-1.00,-1.0
3861,17004,-52,512,-1.00,-1.0
3863,17084,40,572,-1.00,-1.0
3865,16956,-76,468,-1.00,-1.0
3867,16964,-40,608,-1.00,-1.0
3871,17000,68,628,-1.00,-1.0
3873,16988,-20,520,-1.00,-1.0
3875,17036,52,628,-1.00,-1.0
3877,16920,-8,596,-1.00,-1.0
3879,17008,4,760,-1.00,-1.0
3881,16992,8,372,-1.00,-1.0
3882,16996,-16,584,-1.00,-1.0
3884,16920,0,480,-1.00,-1.0
3886,17036,-32,564,-1.00,-1.0
3888,17028,-44,796,-1.00,-1.0
3890,17008,-60,504,-1.00,-1.0
3892,16936,-104,512,-1.00,-1.0
3894,16944,-52,404,-1.00,-1.0
3896,16944,64,608,-1.00,-1.0
3898,17008,-88,584,-1.00,-1.0
3900,17012,64,348,-1.00,-1.0
3902,16968,-28,580,-1.00,-1.0
3906,17036,48,512,-1.00,-1.0
3908,16964,16,616,-1.00,-1.0
3910,17024,-12,512,-1.00,-1.0
3912,16952,28,608,-1.00,-1.0
3914,16924,4,448,-1.00,-1.0
3916,16964,20,604,-1.00,-1.0
3918,17024,-4,664,-1.00,-1.0
3920,16984,-160,632,-1.00,-1.0
3922,17036,-104,668,-1.00,-1.0
3924,16952,48,596,-1.00,-1.0
3926,17000,28,584,-1.00,-1.0
3927,17080,-76,564,-1.00,-1.0
3929,17028,-8,676,-1.00,-1.0
3931,17020,0,488,-1.00,-1.0
3933,16972,-64,596,-1.00,-1.0
3935,16936,-12,620,-1.00,-1.0
3937,17020,-92,640,-1.00,-1.0
3939,16888,-52,568,-1.00,-1.0
3943,17036,32,520,-1.00,-1.0
3945,17048,-80,560,-1.00,-1.0
3947,16988,28,576,-1.00,-1.0
3949,17008,-104,572,-1.00,-1.0
3951,16988,60,588,-1.00,-1.0
3953,16984,-32,616,-1.00,-1.0
3955,17004,-56,660,-1.00,-1.0
3957,17024,52,612,-1.00,-1.0
3959,17048,60,560,-1.00,-1.0
3961,17024,-88,604,-1.00,-1.0
3963,17052,-76,440,-1.00,-1.0
3965,17004,20,484,-1.00,-1.0
3967,16936,-148,576,-1.00,-1.0
3969,17084,4,608,-1.00,-1.0
3971,16940,64,680,-1.00,-1.0
3972,17044,44,780,-1.00,-1.0
3974,17080,-56,620,-1.00,-1.0
3979,16996,-80,496,-1.00,-1.0
3981,17100,4,632,-1.00,-1.0
3983,16976,-24,528,-1.00,-1.0
3985,17008,-28,576,-1.00,-1.0
3987,16972,-4,488,-1.00,-1.0
3989,17080,-124,628,-1.00,-1.0
3990,16952,-44,544,-1.00,-1.0
3992,17020,16,628,-1.00,-1.0
3994,16980,-28,420,-1.00,-1.0
3996,16992,-80,536,-1.00,-1.0
3998,16960,-96,512,-1.00,-1.0
4000,16960,48,492,-1.00,-1.0
4002,17032,-92,480,-1.00,-1.0
4004,16992,-16,600,-1.00,-1.0
4006,17008,-44,716,-1.00,-1.0
4008,16936,-32,516,-1.00,-1.0
4010,17060,76,440,-1.00,-1.0
4014,17024,36,664,-1.00,-1.0
4016,16980,-40,520,-1.00,-1.0
4018,17020,72,460,-1.00,-1.0
4020,16960,-84,556,-1.00,-1.0
4022,17108,-52,580,-1.00,-1.0
4024,17036,-52,636,-1.00,-1.0
4026,16844,-36,476,-1.00,-1.0
4028,16988,-56,484,-1.00,-1.0
4030,17080,-104,668,-1.00,-1.0
4032,17076,-84,596,-1.00,-1.0
4034,17008,-28,644,-1.00,-1.0
4036,16972,0,584,-1.00,-1.0
4037,17048,-4,624,-1.00,-1.0
4039,16844,24,648,-1.00,-1.0
4041,16984,24,572,-1.00,-1.0
4043,17048,40,624,-1.00,-1.0
4045,16920,-8,532,-1.00,-1.0
4047,17036,-36,492,-1.00,-1.0
4051,16964,-40,616,-1.00,-1.0
4053,17000,-28,592,-1.00,-1.0
4055,16996,-28,600,-1.00,-1.0
4057,17000,-80,552,-1.00,-1.0
4059,16976,-4,508,-1.00,-1.0
4061,16964,64,648,-1.00,-1.0
4063,17060,-36,504,-1.00,-1.0
4065,16988,-24,496,-1.00,-1.0
4067,16956,-44,720,-1.00,-1.0
4069,17108,24,620,-1.00,-1.0
4071,16984,-80,612,-1.00,-1.0
4072,17032,-40,668,-1.00,-1.0
4075,17048,-48,568,-1.00,-1.0
4077,16928,-12,552,-1.00,-1.0
4078,17024,-16,696,-1.00,-1.0
4080,16928,-32,636,-1.00,-1.0
4082,16996,-124,544,-1.00,-1.0
4086,16996,12,600,-1.00,-1.0
4088,17056,-8,764,-1.00,-1.0
4090,16908,80,620,-1.00,-1.0
4092,16952,-48,664,-1.00,-1.0
4094,16960,-68,504,-1.00,-1.0
4096,17032,8,528,-1.00,-1.0
4098,16900,-80,496,-1.00,-1.0
4100,17032,-76,416,-1.00,-1.0
4102,16880,12,528,-1.00,-1.0
4104,16980,-68,676,-1.00,-1.0
4106,16960,-28,596,-1.00,-1.0
4108,16992,-32,500,-1.00,-1.0
4110,17000,-24,548,-1.00,-1.0
4112,17024,-32,548,-1.00,-1.0
4114,16940,24,628,-1.00,-1.0
4115,16960,84,672,-1.00,-1.0
4117,16980,68,720,-1.00,-1.0
4122,16952,-116,592,-1.00,-1.0
4124,17056,-96,524,-1.00,-1.0
4125,17040,-72,652,-1.00,-1.0
4127,17004,0,476,-1.00,-1.0
4129,17116,-116,564,-1.00,-1.0
4131,17000,60,616,-1.00,-1.0
4133,16964,76,700,-1.00,-1.0
4135,17060,-56,692,-1.00,-1.0
4137,16916,20,468,-1.00,-1.0
4139,16976,-80,516,-1.00,-1.0
4141,16936,20,444,-1.00,-1.0
4143,17112,0,600,-1.00,-1.0
4145,16968,56,632,-1.00,-1.0
4147,16996,-48,640,-1.00,-1.0
4149,17004,20,456,-1.00,-1.0
4151,16980,-16,568,-1.00,-1.0
4153,16976,20,648,-1.00,-1.0
4157,17000,36,476,-1.00,-1.0
4159,17052,-44,464,-1.00,-1.0
4161,17084,-28,616,-1.00,-1.0
4163,16948,12,476,-1.00,-1.0
4164,17072,-56,648,-1.00,-1.0
4167,17020,-88,488,-1.00,-1.0
4169,16996,-72,568,-1.00,-1.0
4170,16940,80,592,-1.00,-1.0
4172,17008,-64,532,-1.00,-1.0
4174,16964,-40,740,-1.00,-1.0
4176,17008,76,664,-1.00,-1.0
4178,17052,108,592,-1.00,-1.0
4180,17012,4,504,-1.00,-1.0
4182,17044,-8,496,-1.00,-1.0
4184,17044,8,548,-1.00,-1.0
4186,17028,-4,556,-1.00,-1.0
4188,16944,-60,660,-1.00,-1.0
4190,17036,-52,504,-1.00,-1.0
4194,16872,-8,600,-1.00,-1.0
4196,17032,-76,584,-1.00,-1.0
4198,17036,40,584,-1.00,-1.0
4200,16976,4,468,-1.00,-1.0
4202,17044,12,816,-1.00,-1.0
4204,17068,-28,608,-1.00,-1.0
4206,16912,-24,540,-1.00,-1.0
4208,16928,0,524,-1.00,-1.0
4209,16944,-52,668,-1.00,-1.0
4211,16964,-44,608,-1.00,-1.0
4213,16924,-16,552,-1.00,-1.0
4215,16964,-76,504,-1.00,-1.0
4217,17016,4,664,-1.00,-1.0
4219,16968,40,444,-1.00,-1.0
4221,16944,88,652,-1.00,-1.0
4223,16920,8,556,-1.00,-1.0
4225,17024,24,636,-1.00,-1.0
4229,16932,28,608,-1.00,-1.0
4231,17040,0,688,-1.00,-1.0
4233,17012,-64,552,-1.00,-1.0
4235,16984,-48,604,-1.00,-1.0
4237,17000,-20,620,-1.00,-1.0
4239,16940,-44,596,-1.00,-1.0
4241,17000,48,472,-1.00,-1.0
4243,16976,12,580,-1.00,-1.0
4245,17004,-104,580,-1.00,-1.0
4247,16984,-88,672,-1.00,-1.0
4249,16984,12,564,-1.00,-1.0
4251,16976,-28,552,-1.00,-1.0
4252,16976,-72,508,-1.00,-1.0
4255,17064,-72,536,-1.00,-1.0
4257,17044,-124,512,-1.00,-1.0
4258,17048,24,624,-1.00,-1.0
4260,16916,-56,492,-1.00,-1.0
4262,16996,-92,520,-1.00,-1.0
4266,16988,-16,544,-1.00,-1.0
4268,16992,32,564,-1.00,-1.0
4270,16984,56,540,-1.00,-1.0
4272,16940,-16,516,-1.00,-1.0
4274,17004,36,472,-1.00,-1.0
4276,16932,-28,516,-1.00,-1.0
4278,17032,-124,548,-1.00,-1.0
4280,17044,-4,604,-1.00,-1.0
4282,16960,52,496,-1.00,-1.0
4284,17020,-64,692,-1.00,-1.0
4286,17124,36,632,-1.00,-1.0
4288,17000,-20,560,-1.00,-1.0
4290,17000,-112,680,-1.00,-1.0
4292,16984,-40,536,-1.00,-1.0
4294,16976,-88,648,-1.00,-1.0
4296,17004,-4,504,-1.00,-1.0
4297,16984,-28,468,-1.00,-1.0
4302,16968,-76,500,-1.00,-1.0
4304,16984,-16,468,-1.00,-1.0
4306,17032,-48,564,-1.00,-1.0
4307,17044,-8,432,-1.00,-1.0
4310,16936,12,584,-1.00,-1.0
4311,17052,-40,524,-1.00,-1.0
4313,16964,-24,432,-1.00,-1.0
4315,17032,16,392,-1.00,-1.0
4317,16956,-64,568,-1.00,-1.0
4319,17008,12,576,-1.00,-1.0
4321,16968,-52,652,-1.00,-1.0
4323,17044,-68,580,-1.00,-1.0
4325,17028,24,560,-1.00,-1.0
4327,17088,48,744,-1.00,-1.0
4329,17100,-4,476,-1.00,-1.0
4331,17076,-60,668,-1.00,-1.0
4333,16976,56,692,-1.00,-1.0
4337,16972,20,468,-1.00,-1.0
4339,17004,24,684,-1.00,-1.0
4341,16944,36,524,-1.00,-1.0
4343,16916,-128,548,-1.00,-1.0
4345,17068,-76,616,-1.00,-1.0
4347,17044,-36,572,-1.00,-1.0
4348,17020,-40,644,-1.00,-1.0
4350,17012,-20,684,-1.00,-1.0
4352,16992,-84,560,-1.00,-1.0
4354,17004,-56,576,-1.00,-1.0
4356,16984,-20,652,-1.00,-1.0
4358,17024,-76,416,-1.00,-1.0
4360,17008,-44,424,-1.00,-1.0
4362,16960,-84,504,-1.00,-1.0
4364,17200,12,624,-1.00,-1.0
4366,17112,-44,616,-1.00,-1.0
4368,16900,52,600,-1.00,-1.0
4372,16952,16,484,-1.00,-1.0
4374,16996,-64,540,-1.00,-1.0
4376,17064,-76,640,-1.00,-1.0
4378,16884,8,584,-1.00,-1.0
4380,17036,-16,596,-1.00,-1.0
4382,16916,-60,516,-1.00,-1.0
4384,16984,24,624,-1.00,-1.0
4385,16896,-44,408,-1.00,-1.0
4387,17012,-68,492,-1.00,-1.0
4389,17008,0,476,-1.00,-1.0
4391,17028,-8,532,-1.00,-1.0
4393,17000,-12,560,-1.00,-1.0
4395,16936,-4,576,-1.00,-1.0
4397,17052,-68,532,-1.00,-1.0
4399,17000,-24,572,-1.00,-1.0
4401,17052,0,592,-1.00,-1.0
4403,16988,-20,612,-1.00,-1.0
4405,16944,0,716,-1.00,-1.0
4409,17040,-16,660,-1.00,-1.0
4411,16988,-52,644,-1.00,-1.0
4413,17084,-20,608,-1.00,-1.0
4415,17072,-96,564,-1.00,-1.0
4417,17024,-24,528,-1.00,-1.0
4419,16996,12,520,-1.00,-1.0
4421,16988,-68,572,-1.00,-1.0
4423,16928,32,528,-1.00,-1.0
4425,16968,-64,584,-1.00,-1.0
4427,16976,-48,480,-1.00,-1.0
4429,17040,-24,408,-1.00,-1.0
4430,17044,0,580,-1.00,-1.0
4432,16968,-76,444,-1.00,-1.0
4434,17004,16,648,-1.00,-1.0
4436,17024,88,544,-1.00,-1.0
4438,16972,8,644,-1.00,-1.0
4440,16964,-32,596,-1.00,-1.0
4444,17072,8,576,-1.00,-1.0
4446,16988,-16,720,-1.00,-1.0
4448,17048,48,528,-1.00,-1.0
4450,17096,48,508,-1.00,-1.0
4452,17060,0,444,-1.00,-1.0
4454,16980,-64,768,-1.00,-1.0
4456,16968,-112,684,-1.00,-1.0
4458,17068,-48,656,-1.00,-1.0
4460,16936,-16,492,-1.00,-1.0
4462,16992,12,724,-1.00,-1.0
4464,16932,-92,588,-1.00,-1.0
4466,17008,-64,520,-1.00,-1.0
4468,17068,-16,496,-1.00,-1.0
4470,17008,-60,576,-1.00,-1.0
4472,16964,128,592,-1.00,-1.0
4474,17068,-16,572,-1.00,-1.0
4475,16996,-60,516,-1.00,-1.0
4480,16916,-60,600,-1.00,-1.0
4482,16952,-12,672,-1.00,-1.0
4484,16984,-60,780,-1.00,-1.0
4485,17008,0,668,-1.00,-1.0
4487,17064,48,544,-1.00,-1.0
4489,17108,-112,576,-1.00,-1.0
4491,16960,-16,564,-1.00,-1.0
4493,16880,-28,652,-1.00,-1.0
4495,17028,-40,640,-1.00,-1.0
4497,17008,-44,724,-1.00,-1.0
4499,16968,52,556,-1.00,-1.0
4501,17020,-72,636,-1.00,-1.0
4503,17012,-128,772,-1.00,-1.0
4505,17084,-52,612,-1.00,-1.0
4507,16932,-100,488,-1.00,-1.0
4509,16996,-52,556,-1.00,-1.0
4511,17040,-24,632,-1.00,-1.0
4513,16976,-56,564,-1.00,-1.0
4517,17048,-76,356,-1.00,-1.0
4519,16976,-108,524,-1.00,-1.0
4521,16964,-80,660,-1.00,-1.0
4523,17024,-44,592,-1.00,-1.0
4525,17012,-80,620,-1.00,-1.0
4527,17084,-12,648,-1.00,-1.0
4529,16924,-8,664,-1.00,-1.0
4531,17000,-64,676,-1.00,-1.0
4533,17112,4,576,-1.00,-1.0
4535,17008,48,556,-1.00,-1.0
4536,17016,-108,624,-1.00,-1.0
4538,17036,0,564,-1.00,-1.0
4540,17020,-12,676,-1.00,-1.0
4542,17036,72,520,-1.00,-1.0
4544,17112,68,596,-1.00,-1.0
4546,17016,100,580,-1.00,-1.0
4548,17008,-100,656,-1.00,-1.0
4552,16940,-92,640,-1.00,-1.0
4554,17004,-24,676,-1.00,-1.0
4556,16928,-72,512,-1.00,-1.0
4558,17020,84,636,-1.00,-1.0
4560,16892,16,576,-1.00,-1.0
4562,17028,20,436,-1.00,-1.0
4564,17096,-40,488,-1.00,-1.0
4566,16908,-44,616,-1.00,-1.0
4568,17012,8,592,-1.00,-1.0
4570,17020,-32,520,-1.00,-1.0
4572,17024,-40,468,-1.00,-1.0
4574,17020,12,468,-1.00,-1.0
4576,16976,0,588,-1.00,-1.0
4578,17000,-52,572,-1.00,-1.0
4580,16940,-24,552,-1.00,-1.0
4582,16980,-28,624,-1.00,-1.0
4583,16996,32,684,-1.00,-1.0
4588,16928,-16,568,-1.00,-1.0
4590,17024,-48,604,-1.00,-1.0
4592,17036,-88,588,-1.00,-1.0
4593,16988,44,580,-1.00,-1.0
4595,17024,-24,596,-1.00,-1.0
4597,17012,-104,608,-1.00,-1.0
4599,16928,-48,596,-1.00,-1.0
4601,17080,84,644,-1.00,-1.0
4603,16932,24,672,-1.00,-1.0
4605,17052,84,580,-1.00,-1.0
4607,16980,-68,600,-1.00,-1.0
4609,16964,-56,720,-1.00,-1.0
4611,17008,-32,460,-1.00,-1.0
4613,17064,-68,476,-1.00,-1.0
4615,17032,-24,644,-1.00,-1.0
4617,17048,-28,608,-1.00,-1.0
4619,16972,-16,524,-1.00,-1.0
4623,16932,-72,644,-1.00,-1.0
4625,16956,16,564,-1.00,-1.0
4627,17012,0,668,-1.00,-1.0
4629,16948,8,448,-1.00,-1.0
4631,17052,-24,644,-1.00,-1.0
4633,17060,48,548,-1.00,-1.0
4635,17080,12,500,-1.00,-1.0
4637,16956,-28,628,-1.00,-1.0
4639,17088,-48,584,-1.00,-1.0
4641,16964,84,548,-1.00,-1.0
4643,17044,-76,768,-1.00,-1.0
4645,17004,-60,684,-1.00,-1.0
4647,16992,0,500,-1.00,-1.0
4649,17008,-32,812,-1.00,-1.0
4651,17068,-56,536,-1.00,-1.0
4653,17016,16,540,-1.00,-1.0
4655,17016,60,552,-1.00,-1.0
4656,17088,4,580,-1.00,-1.0
4660,17020,-48,548,-1.00,-1.0
4662,17000,-76,548,-1.00,-1.0
4664,16912,36,612,-1.00,-1.0
4666,17044,-216,604,-1.00,-1.0
4668,17052,-136,664,-1.00,-1.0
4670,17036,-76,484,-1.00,-1.0
4672,16948,-80,640,-1.00,-1.0
4674,16984,-88,620,-1.00,-1.0
4676,16960,-12,780,-1.00,-1.0
4678,16956,0,556,-1.00,-1.0
4680,16928,32,852,-1.00,-1.0
4682,17092,52,680,-1.00,-1.0
4684,17016,28,712,-1.00,-1.0
4686,16976,-60,644,-1.00,-1.0
4688,17068,-124,636,-1.00,-1.0
4690,16984,-52,456,-1.00,-1.0
4692,16992,68,524,-1.00,-1.0
4696,17072,-48,600,-1.00,-1.0
4698,17024,-64,624,-1.00,-1.0
4700,16964,-8,576,-1.00,-1.0
4702,17128,-4,592,-1.00,-1.0
4704,16936,4,572,-1.00,-1.0
4706,17008,40,608,-1.00,-1.0
4707,16988,-52,720,-1.00,-1.0
4709,17044,-84,700,-1.00,-1.0
4711,16996,-68,452,-1.00,-1.0
4713,17036,-80,592,-1.00,-1.0
4715,16972,-40,588,-1.00,-1.0
4717,16928,-32,496,-1.00,-1.0
4719,17068,68,600,-1.00,-1.0
4721,17000,40,440,-1.00,-1.0
4723,16976,12,584,-1.00,-1.0
4725,16964,-80,644,-1.00,-1.0
4727,17032,-84,792,-1.00,-1.0
4731,16968,0,608,-1.00,-1.0
4733,16968,52,520,-1.00,-1.0
4735,17020,-44,612,-1.00,-1.0
4737,17048,-36,652,-1.00,-1.0
4739,17144,68,624,-1.00,-1.0
4741,17008,8,552,-1.00,-1.0
4743,16996,16,512,-1.00,-1.0
4745,16980,-48,712,-1.00,-1.0
4746,17060,16,572,-1.00,-1.0
4749,16984,-64,584,-1.00,-1.0
4751,17096,-8,488,-1.00,-1.0
4752,17060,-24,380,-1.00,-1.0
4754,16948,-8,644,-1.00,-1.0
4756,17008,-52,632,-1.00,-1.0
4758,17032,-52,644,-1.00,-1.0
4760,16956,28,588,-1.00,-1.0
4762,17028,-108,592,-1.00,-1.0
4764,16948,0,592,-1.00,-1.0
4768,17104,36,564,-1.00,-1.0
4770,16904,8,616,-1.00,-1.0
4772,16984,4,704,-1.00,-1.0
4774,16988,64,676,-1.00,-1.0
4776,17072,-48,624,-1.00,-1.0
4778,16980,12,688,-1.00,-1.0
4780,16896,-16,576,-1.00,-1.0
4782,16976,-24,528,-1.00,-1.0
4784,16984,-40,676,-1.00,-1.0
4786,16996,32,536,-1.00,-1.0
4788,16964,36,464,-1.00,-1.0
4790,17044,-12,672,-1.00,-1.0
4791,16928,-80,464,-1.00,-1.0
4794,17036,12,504,-1.00,-1.0
4796,16988,4,588,-1.00,-1.0
4797,17044,-52,612,-1.00,-1.0
4799,16992,-32,680,-1.00,-1.0
4803,16956,20,656,-1.00,-1.0
4805,17048,-24,548,-1.00,-1.0
4807,16984,-64,452,-1.00,-1.0
4809,16984,-80,508,-1.00,-1.0
4811,17072,72,532,-1.00,-1.0
4813,16952,-60,644,-1.00,-1.0
4815,16888,-72,692,-1.00,-1.0
4817,16984,56,536,-1.00,-1.0
4819,17052,-12,604,-1.00,-1.0
4821,17088,0,572,-1.00,-1.0
4823,16948,-56,612,-1.00,-1.0
4825,17080,-48,572,-1.00,-1.0
4827,16924,-44,612,-1.00,-1.0
4829,16900,-72,500,-1.00,-1.0
4831,17012,-76,520,-1.00,-1.0
4833,16964,-112,592,-1.00,-1.0
4835,16992,-64,632,-1.00,-1.0
4839,16920,-28,680,-1.00,-1.0
4841,16912,-56,544,-1.00,-1.0
4843,16940,24,572,-1.00,-1.0
4845,16980,-48,572,-1.00,-1.0
4846,17008,-24,500,-1.00,-1.0
4848,17052,-24,580,-1.00,-1.0
4850,17064,136,620,-1.00,-1.0
4852,16996,-52,576,-1.00,-1.0
4854,17104,56,592,-1.00,-1.0
4856,16984,80,372,-1.00,-1.0
4858,16980,-32,652,-1.00,-1.0
4860,17084,52,624,-1.00,-1.0
4862,17064,0,548,-1.00,-1.0
4864,17048,-124,772,-1.00,-1.0
4866,17052,36,496,-1.00,-1.0
4868,16992,44,508,-1.00,-1.0
4870,16996,-40,520,-1.00,-1.0
4872,16984,-48,596,-1.00,-1.0
4876,17072,20,504,-1.00,-1.0
4878,17100,-88,584,-1.00,-1.0
4880,16920,-104,604,-1.00,-1.0
4882,16904,4,612,-1.00,-1.0
4884,16948,-68,484,-1.00,-1.0
4886,16992,-28,688,-1.00,-1.0
4888,16992,20,468,-1.00,-1.0
4889,17024,-96,596,-1.00,-1.0
4892,17084,-148,584,-1.00,-1.0
4894,17040,-64,528,-1.00,-1.0
4895,17068,-40,612,-1.00,-1.0
4897,16924,68,600,-1.00,-1.0
4899,16896,-4,604,-1.00,-1.0
4901,16956,-136,456,-1.00,-1.0
4903,17028,0,528,-1.00,-1.0
4905,16932,-32,508,-1.00,-1.0
4907,16956,-104,724,-1.00,-1.0
4911,16952,-36,524,-1.00,-1.0
4913,17052,-24,680,-1.00,-1.0
4915,17060,-32,580,-1.00,-1.0
4917,17112,-12,572,-1.00,-1.0
4919,16948,-28,556,-1.00,-1.0
4921,16924,-100,600,-1.00,-1.0
4923,16976,20,604,-1.00,-1.0
4925,16912,-16,664,-1.00,-1.0
4927,17064,-36,628,-1.00,-1.0
4929,17104,-28,584,-1.00,-1.0
4931,16972,-116,660,-1.00,-1.0
4932,17004,-76,484,-1.00,-1.0
4934,17036,0,552,-1.00,-1.0
4936,17068,-144,636,-1.00,-1.0
4938,17008,-12,512,-1.00,-1.0
4940,17068,-100,620,-1.00,-1.0
4942,16976,-12,668,-1.00,-1.0
4946,16988,-68,504,-1.00,-1.0
4948,17044,-80,484,-1.00,-1.0
4950,17000,-68,564,-1.00,-1.0
4952,17048,-12,468,-1.00,-1.0
4954,17008,48,608,-1.00,-1.0
4956,17000,-8,588,-1.00,-1.0
4958,17108,-48,556,-1.00,-1.0
4960,17016,-28,764,-1.00,-1.0
4962,17060,-112,572,-1.00,-1.0
4964,16940,-4,504,-1.00,-1.0
4966,17048,80,520,-1.00,-1.0
4968,17008,0,640,-1.00,-1.0
4969,17048,-120,632,-1.00,-1.0
4971,17016,-156,564,-1.00,-1.0
4973,16924,-52,684,-1.00,-1.0
4975,17020,-92,572,-1.00,-1.0
4977,17060,60,584,-1.00,-1.0
4981,17024,-12,484,-1.00,-1.0
4983,17052,68,556,-1.00,-1.0
4985,16940,32,696,-1.00,-1.0
4987,17060,-12,488,-1.00,-1.0
4989,17000,-76,712,-1.00,-1.0
4991,16992,-68,716,-1.00,-1.0
4993,16940,-20,656,-1.00,-1.0
4995,17024,24,644,-1.00,-1.0
4997,17040,-40,560,-1.00,-1.0
4999,16948,-76,544,-1.00,-1.0
5001,17032,-88,588,-1.00,-1.0
5003,17072,12,624,-1.00,-1.0
5005,16964,-88,572,-1.00,-1.0
5007,16968,-16,592,-1.00,-1.0
5009,16964,40,516,-1.00,-1.0
5011,17020,-68,468,-1.00,-1.0
5013,16992,16,596,-1.00,-1.0
5017,16888,-20,588,-1.00,-1.0
5019,17016,-48,648,-1.00,-1.0
5021,16896,-12,656,-1.00,-1.0
5023,17020,-96,536,-1.00,-1.0
5024,16936,36,564,-1.00,-1.0
5026,17004,-20,484,-1.00,-1.0
5028,17008,-104,572,-1.00,-1.0
5030,17084,-24,612,-1.00,-1.0
5032,17080,16,568,-1.00,-1.0
5034,17016,28,604,-1.00,-1.0
5036,17016,-32,656,-1.00,-1.0
5038,17016,-64,420,-1.00,-1.0
5040,16988,-16,532,-1.00,-1.0
5042,17092,-40,616,-1.00,-1.0
5044,17024,-108,576,-1.00,-1.0
5046,17024,0,628,-1.00,-1.0
5048,16976,-4,472,-1.00,-1.0
5050,17156,24,572,-1.00,-1.0
5054,17020,12,568,-1.00,-1.0
5056,16876,64,640,-1.00,-1.0
5058,17068,56,484,-1.00,-1.0
5060,17000,-12,536,-1.00,-1.0
5062,17072,0,572,-1.00,-1.0
5064,17056,-4,544,-1.00,-1.0
5066,16964,0,608,-1.00,-1.0
5068,17136,-76,556,-1.00,-1.0
5069,17012,-8,684,-1.00,-1.0
5071,17052,-12,584,-1.00,-1.0
5073,17116,8,628,-1.00,-1.0
5075,17084,-68,600,-1.00,-1.0
5077,17012,-184,600,-1.00,-1.0
5079,16964,-16,604,-1.00,-1.0
5081,17032,-44,712,-1.00,-1.0
5083,16908,32,600,-1.00,-1.0
5085,16952,12,640,-1.00,-1.0
5089,16964,-44,556,-1.00,-1.0
5091,17072,-52,520,-1.00,-1.0
5093,17012,-24,600,-1.00,-1.0
5095,16972,-48,624,-1.00,-1.0
5097,17040,-32,444,-1.00,-1.0
5099,17004,-32,440,-1.00,-1.0
5101,16976,84,720,-1.00,-1.0
5103,16960,-60,624,-1.00,-1.0
5105,17084,-112,608,-1.00,-1.0
5107,16960,-48,628,-1.00,-1.0
5109,16936,-64,520,-1.00,-1.0
5111,17008,84,540,-1.00,-1.0
5112,16968,-120,580,-1.00,-1.0
5115,16964,-136,472,-1.00,-1.0
5117,17004,-20,588,-1.00,-1.0
5118,16964,72,556,-1.00,-1.0
5120,16928,-12,432,-1.00,-1.0
5125,16960,-128,616,-1.00,-1.0
5127,16992,-128,640,-1.00,-1.0
5128,16944,28,660,-1.00,-1.0
5130,16932,-28,448,-1.00,-1.0
5132,17004,-28,640,-1.00,-1.0
5134,17104,48,592,-1.00,-1.0
5136,17072,-12,788,-1.00,-1.0
5138,17008,-16,584,-1.00,-1.0
5140,17004,-88,656,-1.00,-1.0
5142,16988,12,548,-1.00,-1.0
5144,17040,-16,636,-1.00,-1.0
5146,17056,-36,592,-1.00,-1.0
5148,17028,-32,776,-1.00,-1.0
5150,17024,-4,504,-1.00,-1.0
5152,17004,-8,688,-1.00,-1.0
5154,17092,12,556,-1.00,-1.0
5156,16932,-24,528,-1.00,-1.0
5160,17068,20,528,-1.00,-1.0
5162,17068,-80,408,-1.00,-1.0
5164,17052,0,636,-1.00,-1.0
5166,16960,48,648,-1.00,-1.0
5168,16944,-24,488,-1.00,-1.0
5170,17068,-88,552,-1.00,-1.0
5172,16924,4,556,-1.00,-1.0
5174,17000,8,644,-1.00,-1.0
5175,17020,16,584,-1.00,-1.0
5178,16948,-36,664,-1.00,-1.0
5180,17032,-60,664,-1.00,-1.0
5181,16992,-72,604,-1.00,-1.0
5183,17016,-120,536,-1.00,-1.0
5185,17076,-36,468,-1.00,-1.0
5187,17024,-12,536,-1.00,-1.0
5189,16992,-32,532,-1.00,-1.0
5191,16976,12,492,-1.00,-1.0
5193,17036,-20,428,-1.00,-1.0
5197,17036,56,504,-1.00,-1.0
5199,17024,-36,572,-1.00,-1.0
5201,16968,-20,580,-1.00,-1.0
5203,16944,-20,580,-1.00,-1.0
5205,17032,-80,652,-1.00,-1.0
5207,17056,-28,516,-1.00,-1.0
5209,16964,36,528,-1.00,-1.0
5211,16944,-36,592,-1.00,-1.0
5213,16996,-28,416,-1.00,-1.0
5215,16940,-44,680,-1.00,-1.0
5217,16956,0,672,-1.00,-1.0
5218,16956,76,492,-1.00,-1.0
5220,16908,-44,580,-1.00,-1.0
5222,17068,36,596,-1.00,-1.0
5224,17092,-4,620,-1.00,-1.0
5226,17052,-24,588,-1.00,-1.0
5228,16980,16,668,-1.00,-1.0
5232,16988,56,572,-1.00,-1.0
5234,16976,-44,560,-1.00,-1.0
5236,16992,-120,460,-1.00,-1.0
5238,17048,-32,640,-1.00,-1.0
5240,16944,-80,632,-1.00,-1.0
5242,16992,-40,624,-1.00,-1.0
5244,16956,-72,632,-1.00,-1.0
5246,16996,48,472,-1.00,-1.0
5248,16996,0,688,-1.00,-1.0
5250,17132,-144,608,-1.00,-1.0
5252,16960,56,752,-1.00,-1.0
5254,17004,36,748,-1.00,-1.0
5255,16984,-40,636,-1.00,-1.0
5258,17000,16,508,-1.00,-1.0
5259,16864,-44,560,-1.00,-1.0
5261,16968,12,488,-1.00,-1.0
5263,17020,-48,512,-1.00,-1.0
5268,16952,-92,580,-1.00,-1.0
5269,16984,-44,624,-1.00,-1.0
5271,17044,-36,488,-1.00,-1.0
5273,17048,-96,424,-1.00,-1.0
5275,17088,-72,656,-1.00,-1.0
5277,16956,0,524,-1.00,-1.0
5279,16964,-72,532,-1.00,-1.0
5281,16816,8,512,-1.00,-1.0
5283,17052,-92,628,-1.00,-1.0
5285,16916,-136,728,-1.00,-1.0
5287,17020,-44,560,-1.00,-1.0
5289,16996,-8,552,-1.00,-1.0
5291,16916,24,548,-1.00,-1.0
5293,17028,-44,564,-1.00,-1.0
5295,16924,-28,496,-1.00,-1.0
5297,16972,76,484,-1.00,-1.0
5299,16972,-48,420,-1.00,-1.0
5300,17032,-20,584,-1.00,-1.0
5305,17028,-28,564,-1.00,-1.0
5307,16972,-4,436,-1.00,-1.0
5309,17076,-80,496,-1.00,-1.0
5310,16980,-100,580,-1.00,-1.0
5312,16904,-16,644,-1.00,-1.0
5314,16980,4,564,-1.00,-1.0
5316,17028,68,492,-1.00,-1.0
5318,17104,-40,580,-1.00,-1.0
5320,16944,-112,708,-1.00,-1.0
5322,17116,-56,636,-1.00,-1.0
5324,16964,-20,556,-1.00,-1.0
5326,17052,-124,736,-1.00,-1.0
5328,16928,-56,612,-1.00,-1.0
5330,17068,-72,572,-1.00,-1.0
5332,16952,4,576,-1.00,-1.0
5334,16948,16,532,-1.00,-1.0
5336,16892,12,596,-1.00,-1.0
5340,17100,-12,600,-1.00,-1.0
5342,16912,-4,580,-1.00,-1.0
5344,17016,36,520,-1.00,-1.0
5346,17020,-84,760,-1.00,-1.0
5348,17048,8,544,-1.00,-1.0
5350,17032,-16,656,-1.00,-1.0
5352,16948,36,672,-1.00,-1.0
5353,16944,-48,556,-1.00,-1.0
5355,16916,-16,592,-1.00,-1.0
5357,16900,44,508,-1.00,-1.0
5359,17052,-88,544,-1.00,-1.0
5361,16872,-28,504,-1.00,-1.0
5363,16964,-8,552,-1.00,-1.0
5365,16944,-92,656,-1.00,-1.0
5367,17056,-52,560,-1.00,-1.0
5369,16992,24,488,-1.00,-1.0
5371,17000,-80,616,-1.00,-1.0
5375,16904,-20,616,-1.00,-1.0
5377,17096,-44,552,-1.00,-1.0
5379,16968,-28,476,-1.00,-1.0
5381,17008,-4,500,-1.00,-1.0
5383,17000,-96,612,-1.00,-1.0
5385,17016,-76,696,-1.00,-1.0
5387,17032,-72,504,-1.00,-1.0
5389,16964,-72,600,-1.00,-1.0
5391,16968,12,600,-1.00,-1.0
5393,17036,12,424,-1.00,-1.0
5395,16976,-36,588,-1.00,-1.0
5397,16928,8,496,-1.00,-1.0
5398,16880,40,612,-1.00,-1.0
5401,17044,-20,380,-1.00,-1.0
5403,17000,-20,680,-1.00,-1.0
5404,16896,96,440,-1.00,-1.0
5406,16976,-32,616,-1.00,-1.0
5408,16908,-76,436,-1.00,-1.0
5412,16912,-40,672,-1.00,-1.0
5414,17008,-128,572,-1.00,-1.0
5416,16964,-28,676,-1.00,-1.0
5418,16972,-36,600,-1.00,-1.0
5420,17016,-184,624,-1.00,-1.0
5422,16932,12,524,-1.00,-1.0
5424,17116,-40,632,-1.00,-1.0
5426,16976,-104,564,-1.00,-1.0
5428,17056,-32,664,-1.00,-1.0
5430,16924,4,628,-1.00,-1.0
5432,16980,-32,660,-1.00,-1.0
5434,17052,-4,652,-1.00,-1.0
5436,17012,-64,588,-1.00,-1.0
5438,17028,40,544,-1.00,-1.0
5440,16932,12,640,-1.00,-1.0
5442,16988,-88,740,-1.00,-1.0
5443,16940,80,644,-1.00,-1.0
5448,16992,20,732,-1.00,-1.0
5450,16920,28,452,-1.00,-1.0
5452,17048,-136,568,-1.00,-1.0
5453,17052,-48,564,-1.00,-1.0
5455,16984,16,584,-1.00,-1.0
5457,16960,-84,496,-1.00,-1.0
5459,16980,56,540,-1.00,-1.0
5461,16924,-60,464,-1.00,-1.0
5463,16980,4,484,-1.00,-1.0
5465,17032,-48,620,-1.00,-1.0
5467,16924,-64,572,-1.00,-1.0
5469,16924,-124,556,-1.00,-1.0
5471,16932,-80,532,-1.00,-1.0
5473,16976,-92,604,-1.00,-1.0
5475,17180,-12,488,-1.00,-1.0
5477,17000,-76,572,-1.00,-1.0
5479,17068,-120,668,-1.00,-1.0
5483,16988,-32,628,-1.00,-1.0
5485,16924,-12,596,-1.00,-1.0
5487,17044,-64,500,-1.00,-1.0
5489,17032,-164,512,-1.00,-1.0
5491,17080,-64,612,-1.00,-1.0
5493,17016,-44,604,-1.00,-1.0
5494,16948,-164,528,-1.00,-1.0
5496,16988,-4,536,-1.00,-1.0
5498,17056,8,652,-1.00,-1.0
5500,17020,0,508,-1.00,-1.0
5502,17052,40,468,-1.00,-1.0
5504,16876,-96,536,-1.00,-1.0
5506,16964,-132,544,-1.00,-1.0
5508,16960,44,624,-1.00,-1.0
5510,16960,-100,784,-1.00,-1.0
5512,17076,20,648,-1.00,-1.0
5514,16984,-64,604,-1.00,-1.0
5518,16956,-8,504,-1.00,-1.0
5520,16968,-48,644,-1.00,-1.0
5522,17060,-20,540,-1.00,-1.0
5524,17108,52,580,-1.00,-1.0
5526,17008,-44,608,-1.00,-1.0
5528,17056,-4,520,-1.00,-1.0
5529,17020,-80,576,-1.00,-1.0
5531,16940,36,608,-1.00,-1.0
5533,16980,-64,580,-1.00,-1.0
5535,17000,-12,752,-1.00,-1.0
5537,17032,-32,688,-1.00,-1.0
5539,16928,24,644,-1.00,-1.0
5541,16920,-32,528,-1.00,-1.0
5543,16940,-64,624,-1.00,-1.0
5545,17104,-8,460,-1.00,-1.0
5547,17000,-64,452,-1.00,-1.0
5549,16956,28,680,-1.00,-1.0
5553,17040,-88,592,-1.00,-1.0
5555,16984,0,448,-1.00,-1.0
5557,17116,-32,508,-1.00,-1.0
5559,16928,12,620,-1.00,-1.0
5561,16956,-52,580,-1.00,-1.0
5563,16984,-112,656,-1.00,-1.0
5565,17060,-64,572,-1.00,-1.0
5567,16904,-40,648,-1.00,-1.0
5569,17032,-72,716,-1.00,-1.0
5571,17132,-12,576,-1.00,-1.0
5573,16992,-116,652,-1.00,-1.0
5574,17016,-36,536,-1.00,-1.0
5576,17028,20,524,-1.00,-1.0
5578,16924,64,528,-1.00,-1.0
5580,17020,-52,520,-1.00,-1.0
5582,16960,-20,520,-1.00,-1.0
5584,17024,-16,592,-1.00,-1.0
5586,16968,-44,608,-1.00,-1.0
5590,16996,-68,456,-1.00,-1.0
5592,16944,-60,428,-1.00,-1.0
5594,16992,-96,524,-1.00,-1.0
5596,16908,-132,552,-1.00,-1.0
5598,16956,8,708,-1.00,-1.0
5600,16956,-28,536,-1.00,-1.0
5602,17060,68,548,-1.00,-1.0
5604,16944,44,712,-1.00,-1.0
5606,17044,-8,628,-1.00,-1.0
5608,17000,-4,544,-1.00,-1.0
5610,16992,48,564,-1.00,-1.0
5612,17000,40,496,-1.00,-1.0
5614,17028,-52,508,-1.00,-1.0
5616,16996,-60,760,-1.00,-1.0
5618,17080,4,536,-1.00,-1.0
5619,16936,-32,460,-1.00,-1.0
5621,16936,-16,612,-1.00,-1.0
5626,17012,-44,580,-1.00,-1.0
5628,17012,-40,548,-1.00,-1.0
5629,17032,0,564,-1.00,-1.0
5631,17012,68,508,-1.00,-1.0
5633,16956,-40,652,-1.00,-1.0
5635,16928,-76,704,-1.00,-1.0
5637,16996,-36,484,-1.00,-1.0
5639,17048,-96,428,-1.00,-1.0
5641,16968,-16,520,-1.00,-1.0
5643,17012,-68,644,-1.00,-1.0
5645,17012,24,664,-1.00,-1.0
5647,16912,96,656,-1.00,-1.0
5649,16892,-4,576,-1.00,-1.0
5651,16964,-48,644,-1.00,-1.0
5653,16940,-44,580,-1.00,-1.0
5655,17012,-28,476,-1.00,-1.0
5657,17072,56,800,-1.00,-1.0
5661,16928,-52,536,-1.00,-1.0
5663,16920,-12,572,-1.00,-1.0
5665,16948,-40,596,-1.00,-1.0
5667,16984,-20,500,-1.00,-1.0
5669,16952,-28,696,-1.00,-1.0
5671,16976,-60,592,-1.00,-1.0
5673,16988,44,568,-1.00,-1.0
5674,17028,48,572,-1.00,-1.0
5676,17060,-8,548,-1.00,-1.0
5678,16956,-40,520,-1.00,-1.0
5680,17096,-8,592,-1.00,-1.0
5682,17020,-24,616,-1.00,-1.0
5684,16964,-24,532,-1.00,-1.0
5686,17004,-20,484,-1.00,-1.0
5688,16968,-44,656,-1.00,-1.0
5690,17052,-124,536,-1.00,-1.0
5692,17008,32,564,-1.00,-1.0
5696,16976,-48,604,-1.00,-1.0
5698,16972,-40,612,-1.00,-1.0
5700,17024,-76,592,-1.00,-1.0
5702,16976,24,484,-1.00,-1.0
5704,17032,8,588,-1.00,-1.0
5706,16888,24,468,-1.00,-1.0
5708,16972,-48,632,-1.00,-1.0
5710,17080,12,508,-1.00,-1.0
5712,17028,-88,584,-1.00,-1.0
5714,17008,-92,612,-1.00,-1.0
5716,16908,-92,464,-1.00,-1.0
5718,17024,-92,608,-1.00,-1.0
5719,17056,52,636,-1.00,-1.0
5722,17048,-4,520,-1.00,-1.0
5724,17000,4,564,-1.00,-1.0
5725,17068,-40,456,-1.00,-1.0
5727,16968,12,600,-1.00,-1.0
5729,17072,-76,624,-1.00,-1.0
5734,16944,48,644,-1.00,-1.0
5736,17092,20,596,-1.00,-1.0
5737,17016,16,360,-1.00,-1.0
5739,17048,20,680,-1.00,-1.0
5741,16972,16,620,-1.00,-1.0
5743,17100,16,516,-1.00,-1.0
5745,17048,-88,424,-1.00,-1.0
5747,16964,-56,548,-1.00,-1.0
5749,16968,-52,524,-1.00,-1.0
5751,16976,-164,588,-1.00,-1.0
5753,17052,-40,484,-1.00,-1.0
5755,16976,-36,544,-1.00,-1.0
5757,16988,-28,564,-1.00,-1.0
5759,16964,-88,532,-1.00,-1.0
5761,17028,-88,624,-1.00,-1.0
5763,16960,12,652,-1.00,-1.0
5765,16912,16,492,-1.00,-1.0
5769,17016,-104,532,-1.00,-1.0
5771,16968,-36,512,-1.00,-1.0
5773,16944,-80,476,-1.00,-1.0
5775,17032,-48,712,-1.00,-1.0
5777,16996,-68,496,-1.00,-1.0
5779,17020,-72,580,-1.00,-1.0
5781,16940,36,504,-1.00,-1.0
5783,16936,4,528,-1.00,-1.0
5785,16964,-84,656,-1.00,-1.0
5787,16976,-84,560,-1.00,-1.0
5789,16952,-4,568,-1.00,-1.0
5791,17048,100,576,-1.00,-1.0
5793,17000,40,444,-1.00,-1.0
5795,17084,-36,604,-1.00,-1.0
5797,16976,-60,648,-1.00,-1.0
5799,16976,48,608,-1.00,-1.0
5800,16892,8,432,-1.00,-1.0
5805,17052,-68,660,-1.00,-1.0
5807,16960,-92,604,-1.00,-1.0
5808,16912,0,596,-1.00,-1.0
5810,16956,-56,560,-1.00,-1.0
5812,16932,-12,496,-1.00,-1.0
5814,16952,-12,520,-1.00,-1.0
5816,17028,16,664,-1.00,-1.0
5818,16976,-88,632,-1.00,-1.0
5820,17060,-52,512,-1.00,-1.0
5822,17068,20,684,-1.00,-1.0
5824,17020,-4,524,-1.00,-1.0
5826,17016,-88,552,-1.00,-1.0
5828,16992,-28,556,-1.00,-1.0
5830,17036,112,624,-1.00,-1.0
5832,16976,40,648,-1.00,-1.0
5834,17132,-48,612,-1.00,-1.0
5836,17004,-108,664,-1.00,-1.0
5838,17044,-88,688,-1.00,-1.0
5842,17024,-60,632,-1.00,-1.0
5844,17020,-88,556,-1.00,-1.0
5846,16952,4,444,-1.00,-1.0
5848,16872,16,452,-1.00,-1.0
5850,17008,-44,576,-1.00,-1.0
5852,17052,40,576,-1.00,-1.0
5853,16912,-8,440,-1.00,-1.0
5855,17112,-112,688,-1.00,-1.0
5857,17080,4,500,-1.00,-1.0
5859,17064,-48,580,-1.00,-1.0
5861,16888,-76,636,-1.00,-1.0
5863,16956,12,592,-1.00,-1.0
5865,17048,-4,476,-1.00,-1.0
5867,17116,-60,616,-1.00,-1.0
5869,17056,-20,580,-1.00,-1.0
5871,17032,24,508,-1.00,-1.0
5873,16996,-52,552,-1.00,-1.0
5877,16984,-100,728,-1.00,-1.0
5879,16948,32,688,-1.00,-1.0
5881,16972,-80,568,-1.00,-1.0
5883,17040,-36,604,-1.00,-1.0
5885,16996,-56,568,-1.00,-1.0
5887,17028,-40,540,-1.00,-1.0
5889,17048,-44,596,-1.00,-1.0
5891,17140,40,644,-1.00,-1.0
5892,16968,4,676,-1.00,-1.0
5895,17064,-124,568,-1.00,-1.0
5897,16912,-104,560,-1.00,-1.0
5898,16964,-52,712,-1.00,-1.0
5900,16892,-88,568,-1.00,-1.0
5902,16996,-60,596,-1.00,-1.0
5904,17000,16,544,-1.00,-1.0
5906,17028,-84,564,-1.00,-1.0
5908,17060,72,624,-1.00,-1.0
5912,17112,24,460,-1.00,-1.0
5914,16928,16,372,-1.00,-1.0
5916,17000,-24,480,-1.00,-1.0
5918,17072,16,656,-1.00,-1.0
5920,17020,-48,496,-1.00,-1.0
5922,16984,-40,616,-1.00,-1.0
5924,17056,48,628,-1.00,-1.0
5926,16984,-28,564,-1.00,-1.0
5928,16940,0,584,-1.00,-1.0
5930,16964,40,416,-1.00,-1.0
5932,16960,-76,552,-1.00,-1.0
5934,16976,-104,548,-1.00,-1.0
5936,16948,-60,504,-1.00,-1.0
5938,17020,-56,516,-1.00,-1.0
5940,17020,-60,528,-1.00,-1.0
5942,17048,-56,556,-1.00,-1.0
5943,17008,-60,488,-1.00,-1.0
5950,17032,-28,628,-1.00,-1.0
5952,17052,-32,656,-1.00,-1.0
5953,16956,0,600,-1.00,-1.0
5955,16940,-52,568,-1.00,-1.0
5957,17044,-28,592,-1.00,-1.0
5959,16984,8,460,-1.00,-1.0
5961,17100,16,656,-1.00,-1.0
5963,16964,-32,496,-1.00,-1.0
5965,17044,-52,680,-1.00,-1.0
5967,17024,-32,624,-1.00,-1.0
5969,17020,-44,496,-1.00,-1.0
5971,17056,-100,480,-1.00,-1.0
5973,17024,-44,508,-1.00,-1.0
5975,17000,-12,484,-1.00,-1.0
5977,17012,36,672,-1.00,-1.0
5979,17008,-28,496,-1.00,-1.0
5981,17076,-52,536,-1.00,-1.0
5983,17024,-52,668,-1.00,-1.0
5987,17000,-60,680,-1.00,-1.0
5989,16956,-60,456,-1.00,-1.0
5991,17020,-100,552,-1.00,-1.0
5993,17056,-44,612,-1.00,-1.0
5995,16940,32,572,-1.00,-1.0
5997,17040,-64,676,-1.00,-1.0
5998,17000,-16,592,-1.00,-1.0
6000,17052,-108,672,-1.00,-1.0
6002,17004,-68,500,-1.00,-1.0
6004,16976,32,556,-1.00,-1.0
6006,16992,44,588,-1.00,-1.0
6008,17012,-36,400,-1.00,-1.0
6010,16992,28,664,-1.00,-1.0
6012,17024,-60,696,-1.00,-1.0
6014,17000,-100,616,-1.00,-1.0
6016,16948,-52,672,-1.00,-1.0
6018,17024,-52,556,-1.00,-1.0
6022,17024,20,532,-1.00,-1.0
6024,16936,32,528,-1.00,-1.0
6026,16956,-84,592,-1.00,-1.0
6028,16924,-48,572,-1.00,-1.0
6030,17036,-76,560,-1.00,-1.0
6032,17052,-80,560,-1.00,-1.0
6034,16976,36,652,-1.00,-1.0
6036,17016,-52,668,-1.00,-1.0
6038,17068,-108,616,-1.00,-1.0
6040,17060,-24,560,-1.00,-1.0
6041,16936,-40,608,-1.00,-1.0
6043,16952,20,612,-1.00,-1.0
6045,17008,48,608,-1.00,-1.0
6047,16996,-124,612,-1.00,-1.0
6049,17040,-20,432,-1.00,-1.0
6051,17100,-80,636,-1.00,-1.0
6053,16984,-32,424,-1.00,-1.0
6057,17032,0,604,-1.00,-1.0
6059,16900,8,616,-1.00,-1.0
6061,17028,-16,564,-1.00,-1.0
6063,16980,-32,716,-1.00,-1.0
6065,17124,-80,444,-1.00,-1.0
6067,16960,-60,488,-1.00,-1.0
6069,16984,-44,556,-1.00,-1.0
6071,16912,-108,668,-1.00,-1.0
6073,16976,28,516,-1.00,-1.0
6075,17028,-80,652,-1.00,-1.0
6077,17024,-16,468,-1.00,-1.0
6079,16964,-28,516,-1.00,-1.0
6080,16988,76,680,-1.00,-1.0
6082,17004,-28,524,-1.00,-1.0
6084,17000,-140,500,-1.00,-1.0
6086,16980,-76,452,-1.00,-1.0
6088,16972,-68,592,-1.00,-1.0
6092,17020,-56,592,-1.00,-1.0
6094,16960,-56,632,-1.00,-1.0
6096,17068,-60,684,-1.00,-1.0
6098,17016,-52,732,-1.00,-1.0
6100,16912,-24,536,-1.00,-1.0
6102,17000,-24,528,-1.00,-1.0
6104,16992,-12,548,-1.00,-1.0
6106,17000,24,540,-1.00,-1.0
6108,17008,16,512,-1.00,-1.0
6110,17092,36,484,-1.00,-1.0
6112,16960,-92,660,-1.00,-1.0
6114,17016,-32,592,-1.00,-1.0
6116,17056,-36,412,-1.00,-1.0
6118,16888,-40,572,-1.00,-1.0
6120,16940,-84,520,-1.00,-1.0
6121,16964,-48,548,-1.00,-1.0
6123,17072,-40,600,-1.00,-1.0
6128,17000,12,708,-1.00,-1.0
6130,16988,-96,560,-1.00,-1.0
6131,16992,-44,448,-1.00,-1.0
6133,17032,108,528,-1.00,-1.0
6135,16972,-144,624,-1.00,-1.0
6137,16992,44,548,-1.00,-1.0
6139,17076,-88,572,-1.00,-1.0
6141,17032,-76,416,-1.00,-1.0
6143,17032,-28,520,-1.00,-1.0
6145,17064,4,680,-1.00,-1.0
6147,16940,-44,500,-1.00,-1.0
6149,17020,-52,552,-1.00,-1.0
6151,16984,-204,452,-1.00,-1.0
6153,17036,-8,664,-1.00,-1.0
6155,16988,-52,548,-1.00,-1.0
6157,16980,-48,564,-1.00,-1.0
6159,17020,-168,536,-1.00,-1.0
6163,16904,-60,860,-1.00,-1.0
6165,16976,-80,512,-1.00,-1.0
6167,16904,32,488,-1.00,-1.0
6169,16964,-28,552,-1.00,-1.0
6171,16904,-8,472,-1.00,-1.0
6173,16972,48,452,-1.00,-1.0
6175,17108,8,556,-1.00,-1.0
6176,17044,-16,512,-1.00,-1.0
6178,17028,-64,524,-1.00,-1.0
6180,16972,-32,740,-1.00,-1.0
6182,16948,-36,608,-1.00,-1.0
6184,17044,12,460,-1.00,-1.0
6186,16976,20,528,-1.00,-1.0
6188,17064,0,524,-1.00,-1.0
6190,17000,-128,540,-1.00,-1.0
6192,16988,0,452,-1.00,-1.0
6194,16920,8,608,-1.00,-1.0
6196,17024,80,544,-1.00,-1.0
6200,16952,36,576,-1.00,-1.0
6202,17048,-52,700,-1.00,-1.0
6204,16984,-84,504,-1.00,-1.0
6206,17088,-104,516,-1.00,-1.0
6208,16984,52,516,-1.00,-1.0
6210,16976,-64,412,-1.00,-1.0
6212,17024,56,408,-1.00,-1.0
6214,17084,-84,520,-1.00,-1.0
6216,17012,8,532,-1.00,-1.0
6218,17036,8,500,-1.00,-1.0
6220,17052,-36,428,-1.00,-1.0
6221,17040,56,476,-1.00,-1.0
6223,16924,-84,524,-1.00,-1.0
6225,16972,-8,536,-1.00,-1.0
6227,17028,-48,572,-1.00,-1.0
6229,16992,20,660,-1.00,-1.0
6231,16896,-48,656,-1.00,-1.0
6235,17052,-60,576,-1.00,-1.0
6237,17076,8,652,-1.00,-1.0
6239,16932,-48,596,-1.00,-1.0
6241,17044,-8,700,-1.00,-1.0
6243,17048,-60,588,-1.00,-1.0
6245,17016,20,596,-1.00,-1.0
6247,16900,0,604,-1.00,-1.0
6249,17012,-76,480,-1.00,-1.0
6251,16980,-44,508,-1.00,-1.0
6253,16996,-4,532,-1.00,-1.0
6255,17040,-56,636,-1.00,-1.0
6257,17064,-8,588,-1.00,-1.0
6259,16968,-84,564,-1.00,-1.0
6261,16988,8,600,-1.00,-1.0
6263,17112,144,604,-1.00,-1.0
6265,17012,-52,660,-1.00,-1.0
6266,16968,-40,584,-1.00,-1.0
6268,16936,-44,696,-1.00,-1.0
6273,16980,-20,508,-1.00,-1.0
6275,16984,-28,528,-1.00,-1.0
6276,16996,-48,560,-1.00,-1.0
6278,16924,-52,636,-1.00,-1.0
6280,17020,-20,584,-1.00,-1.0
6282,16976,-56,568,-1.00,-1.0
6284,17048,-124,528,-1.00,-1.0
6286,16928,-40,508,-1.00,-1.0
6288,17000,-140,524,-1.00,-1.0
6290,16996,-28,456,-1.00,-1.0
6292,17016,4,528,-1.00,-1.0
6294,17020,-40,604,-1.00,-1.0
6296,16992,-16,536,-1.00,-1.0
6298,16976,60,560,-1.00,-1.0
6300,16996,-8,660,-1.00,-1.0
6302,17044,-72,464,-1.00,-1.0
6304,16968,-44,652,-1.00,-1.0
6308,16936,0,580,-1.00,-1.0
6310,16956,-48,728,-1.00,-1.0
6312,16904,60,664,-1.00,-1.0
6314,16980,-44,616,-1.00,-1.0
6316,16936,-108,652,-1.00,-1.0
6318,16964,-72,584,-1.00,-1.0
6320,16992,-40,660,-1.00,-1.0
6321,16992,-40,620,-1.00,-1.0
6323,17024,-12,552,-1.00,-1.0
6325,17068,-28,580,-1.00,-1.0
6327,17048,-64,600,-1.00,-1.0
6329,17000,12,516,-1.00,-1.0
6331,16984,-64,556,-1.00,-1.0
6333,16876,-4,476,-1.00,-1.0
6335,16964,76,584,-1.00,-1.0
6337,16856,-8,456,-1.00,-1.0
6339,16952,-24,632,-1.00,-1.0
6343,17024,-28,608,-1.00,-1.0
6345,17024,-28,536,-1.00,-1.0
6347,17060,-32,600,-1.00,-1.0
6349,16988,-28,532,-1.00,-1.0
6351,17056,-4,612,-1.00,-1.0
6353,17080,-48,520,-1.00,-1.0
6355,17012,-36,644,-1.00,-1.0
6357,16936,20,480,-1.00,-1.0
6359,16944,32,564,-1.00,-1.0
6361,16948,100,608,-1.00,-1.0
6363,16920,-48,680,-1.00,-1.0
6364,17008,16,592,-1.00,-1.0
6366,17012,32,708,-1.00,-1.0
6368,17060,-4,608,-1.00,-1.0
6370,16976,-40,604,-1.00,-1.0
6372,16940,-20,660,-1.00,-1.0
6374,17044,-20,476,-1.00,-1.0
6378,17036,-76,564,-1.00,-1.0
6380,16972,-28,572,-1.00,-1.0
6382,16964,-72,608,-1.00,-1.0
6384,17024,36,532,-1.00,-1.0
6386,16940,-68,724,-1.00,-1.0
6388,16996,-36,664,-1.00,-1.0
6390,17032,-64,612,-1.00,-1.0
6392,17060,24,604,-1.00,-1.0
6394,16932,0,616,-1.00,-1.0
6396,16912,-60,584,-1.00,-1.0
6398,16968,-32,528,-1.00,-1.0
6400,17000,12,564,-1.00,-1.0
6401,17072,36,520,-1.00,-1.0
6403,17008,-36,588,-1.00,-1.0
6405,17028,-136,676,-1.00,-1.0
6407,17080,-52,700,-1.00,-1.0
6409,17016,24,736,-1.00,-1.0
6411,17008,24,560,-1.00,-1.0
6415,17040,72,660,-1.00,-1.0
6417,16972,-20,560,-1.00,-1.0
6419,17048,60,432,-1.00,-1.0
6421,16976,-80,740,-1.00,-1.0
6423,17052,-148,696,-1.00,-1.0
6425,16984,12,584,-1.00,-1.0
6427,16956,-96,656,-1.00,-1.0
6429,16984,28,640,-1.00,-1.0
6431,17048,112,648,-1.00,-1.0
6433,16996,24,508,-1.00,-1.0
6435,17052,64,612,-1.00,-1.0
6437,16944,-44,584,-1.00,-1.0
6439,17076,36,676,-1.00,-1.0
6441,17168,-60,588,-1.00,-1.0
6443,17064,-4,628,-1.00,-1.0
6444,17104,-124,592,-1.00,-1.0
6446,16964,-104,636,-1.00,-1.0
6451,17016,-92,632,-1.00,-1.0
6453,17000,-48,568,-1.00,-1.0
6454,17008,-100,544,-1.00,-1.0
6456,16992,4,532,-1.00,-1.0
6458,17000,20,440,-1.00,-1.0
6460,17048,0,552,-1.00,-1.0
6462,17000,-112,596,-1.00,-1.0
6464,17032,-56,592,-1.00,-1.0
6466,17016,-48,624,-1.00,-1.0
6468,16944,-68,576,-1.00,-1.0
6470,16996,-44,528,-1.00,-1.0
6472,16984,-72,656,-1.00,-1.0
6474,16948,-96,628,-1.00,-1.0
6476,16948,-72,768,-1.00,-1.0
6478,16964,12,584,-1.00,-1.0
6480,17024,-76,472,-1.00,-1.0
6482,17040,-16,552,-1.00,-1.0
6486,16944,-64,456,-1.00,-1.0
6488,17060,-12,596,-1.00,-1.0
6490,17004,12,712,-1.00,-1.0
6492,17096,-52,616,-1.00,-1.0
6494,17004,40,508,-1.00,-1.0
6496,17036,24,624,-1.00,-1.0
6498,16916,-36,628,-1.00,-1.0
6499,16988,-28,548,-1.00,-1.0
6501,17036,12,604,-1.00,-1.0
6503,16952,-36,536,-1.00,-1.0
6505,16988,32,592,-1.00,-1.0
6507,17024,8,448,-1.00,-1.0
6509,16952,-100,648,-1.00,-1.0
6511,17056,-28,528,-1.00,-1.0
6513,17000,-32,588,-1.00,-1.0
6515,17028,-92,604,-1.00,-1.0
6517,16976,-112,556,-1.00,-1.0
6521,16956,-24,472,-1.00,-1.0
6523,16956,-44,624,-1.00,-1.0
6525,17008,-72,560,-1.00,-1.0
6527,17016,-92,676,-1.00,-1.0
6529,16960,-64,736,-1.00,-1.0
6531,17020,-52,628,-1.00,-1.0
6533,17004,-16,528,-1.00,-1.0
6535,17020,88,544,-1.00,-1.0
6537,17068,-132,464,-1.00,-1.0
6539,16964,-12,600,-1.00,-1.0
6541,16996,32,508,-1.00,-1.0
6542,16976,-88,520,-1.00,-1.0
6544,16896,12,532,-1.00,-1.0
6546,16996,-60,500,-1.00,-1.0
6548,16980,-96,528,-1.00,-1.0
6550,17028,-4,564,-1.00,-1.0
6552,16936,-24,592,-1.00,-1.0
6554,16916,-52,676,-1.00,-1.0
6558,16976,-36,516,-1.00,-1.0
6560,17040,48,540,-1.00,-1.0
6562,17016,28,528,-1.00,-1.0
6564,16992,-112,616,-1.00,-1.0
6566,17004,-32,708,-1.00,-1.0
6568,16948,-104,660,-1.00,-1.0
6570,16924,-36,556,-1.00,-1.0
6572,16952,-64,712,-1.00,-1.0
6574,16940,-92,676,-1.00,-1.0
6576,16972,-52,380,-1.00,-1.0
6578,16984,-4,508,-1.00,-1.0
6580,16912,-32,568,-1.00,-1.0
6582,17060,-40,680,-1.00,-1.0
6584,16976,4,584,-1.00,-1.0
6586,17016,-72,756,-1.00,-1.0
6587,17036,-36,508,-1.00,-1.0
6589,17044,-40,624,-1.00,-1.0
6594,16968,-44,444,-1.00,-1.0
6596,17060,-28,508,-1.00,-1.0
6597,17020,0,416,-1.00,-1.0
6599,16960,-20,508,-1.00,-1.0
6601,17020,32,620,-1.00,-1.0
6603,16948,-128,596,-1.00,-1.0
6605,16992,80,468,-1.00,-1.0
6607,16948,-8,372,-1.00,-1.0
6609,17048,-104,560,-1.00,-1.0
6611,16996,72,536,-1.00,-1.0
6613,16992,52,556,-1.00,-1.0
6615,16964,16,572,-1.00,-1.0
6617,16964,-44,548,-1.00,-1.0
6619,16968,-52,540,-1.00,-1.0
6621,17020,-60,628,-1.00,-1.0
6623,17028,-76,536,-1.00,-1.0
6625,16984,-56,452,-1.00,-1.0
6629,16928,-136,656,-1.00,-1.0
6631,17060,-56,632,-1.00,-1.0
6633,17072,-56,496,-1.00,-1.0
6634,16940,-8,536,-1.00,-1.0
6636,16952,-36,444,-1.00,-1.0
6638,16992,8,560,-1.00,-1.0
6640,17028,-28,552,-1.00,-1.0
6642,16896,8,580,-1.00,-1.0
6644,17080,-40,608,-1.00,-1.0
6646,16944,72,624,-1.00,-1.0
6648,17004,-76,548,-1.00,-1.0
6650,16896,36,524,-1.00,-1.0
6652,16928,48,568,-1.00,-1.0
6654,16940,-32,512,-1.00,-1.0
6656,16916,-96,588,-1.00,-1.0
6658,17004,4,500,-1.00,-1.0
6660,16960,24,636,-1.00,-1.0
6664,16988,-36,536,-1.00,-1.0
6666,16968,-76,576,-1.00,-1.0
6668,16956,-168,536,-1.00,-1.0
6669,17060,-56,600,-1.00,-1.0
6671,17032,-24,608,-1.00,-1.0
6673,17008,-32,528,-1.00,-1.0
6675,16896,-24,540,-1.00,-1.0
6677,17072,-60,564,-1.00,-1.0
6679,16944,56,664,-1.00,-1.0
6681,16976,-56,652,-1.00,-1.0
6683,16940,-32,652,-1.00,-1.0
6685,17012,40,676,-1.00,-1.0
6687,16924,-120,592,-1.00,-1.0
6689,17020,-128,600,-1.00,-1.0
6691,17072,12,620,-1.00,-1.0
6693,17036,-12,580,-1.00,-1.0
6695,17024,52,536,-1.00,-1.0
6699,16912,-128,584,-1.00,-1.0
6701,16952,-8,564,-1.00,-1.0
6703,17000,4,536,-1.00,-1.0
6705,16984,28,624,-1.00,-1.0
6707,16996,60,576,-1.00,-1.0
6709,17020,-40,596,-1.00,-1.0
6711,16932,-68,584,-1.00,-1.0
6713,16988,-68,628,-1.00,-1.0
6715,17020,-64,660,-1.00,-1.0
6717,17000,0,644,-1.00,-1.0
6719,16968,-96,696,-1.00,-1.0
6720,17060,-28,600,-1.00,-1.0
6722,17072,-4,592,-1.00,-1.0
6724,17020,-68,624,-1.00,-1.0
6726,16964,-52,524,-1.00,-1.0
6728,16988,-40,540,-1.00,-1.0
6730,16904,60,664,-1.00,-1.0
6732,16928,-68,596,-1.00,-1.0
6736,17000,-40,548,-1.00,-1.0
6738,16976,-28,432,-1.00,-1.0
6740,17060,-4,484,-1.00,-1.0
6742,16952,-72,548,-1.00,-1.0
6744,17032,-76,576,-1.00,-1.0
6746,17072,-8,484,-1.00,-1.0
6748,17024,-52,436,-1.00,-1.0
6750,16928,16,664,-1.00,-1.0
6752,17056,4,672,-1.00,-1.0
6754,17048,-76,596,-1.00,-1.0
6756,17056,0,580,-1.00,-1.0
6758,16992,-64,556,-1.00,-1.0
6760,17052,-88,572,-1.00,-1.0
6762,16992,-56,468,-1.00,-1.0
6764,16840,-36,612,-1.00,-1.0
6765,17028,-8,496,-1.00,-1.0
6767,17008,-12,608,-1.00,-1.0
6772,17100,-28,516,-1.00,-1.0
6774,16976,-60,504,-1.00,-1.0
6775,17032,-64,576,-1.00,-1.0
6777,16956,-20,520,-1.00,-1.0
6779,16952,12,504,-1.00,-1.0
6781,16996,-68,676,-1.00,-1.0
6783,17024,-52,652,-1.00,-1.0
6785,17020,60,656,-1.00,-1.0
6787,17036,-112,524,-1.00,-1.0
6789,16952,-100,608,-1.00,-1.0
6791,17012,-8,596,-1.00,-1.0
6793,17000,0,564,-1.00,-1.0
6795,17008,24,584,-1.00,-1.0
6797,17004,-12,660,-1.00,-1.0
6799,17024,-12,648,-1.00,-1.0
6801,16956,-44,620,-1.00,-1.0
6803,16932,8,720,-1.00,-1.0
6807,16992,36,580,-1.00,-1.0
6809,17028,0,580,-1.00,-1.0
6811,16992,48,732,-1.00,-1.0
6813,16948,-112,504,-1.00,-1.0
6815,16992,-128,448,-1.00,-1.0
6817,17024,-92,708,-1.00,-1.0
6819,16900,-72,464,-1.00,-1.0
6820,17012,36,644,-1.00,-1.0
6822,17056,-84,468,-1.00,-1.0
6824,16992,-80,676,-1.00,-1.0
6826,16984,-96,756,-1.00,-1.0
6828,17072,-92,416,-1.00,-1.0
6830,17024,20,432,-1.00,-1.0
6832,16980,32,692,-1.00,-1.0
6834,17028,44,680,-1.00,-1.0
6836,16936,-48,564,-1.00,-1.0
6838,16932,-48,564,-1.00,-1.0
6840,16912,-100,580,-1.00,-1.0
6844,16960,-112,608,-1.00,-1.0
6846,17072,-44,596,-1.00,-1.0
6848,17008,-48,560,-1.00,-1.0
6850,16940,16,564,-1.00,-1.0
6852,17036,-16,592,-1.00,-1.0
6854,17028,-24,596,-1.00,-1.0
6856,17096,-72,604,-1.00,-1.0
6858,17028,28,552,-1.00,-1.0
6860,16984,64,500,-1.00,-1.0
6862,17032,-8,536,-1.00,-1.0
6864,17012,-40,576,-1.00,-1.0
6865,16924,92,696,-1.00,-1.0
6867,17000,0,388,-1.00,-1.0
6869,17036,-12,500,-1.00,-1.0
6871,16996,-28,628,-1.00,-1.0
6873,17028,0,552,-1.00,-1.0
6875,16964,0,496,-1.00,-1.0
6879,17020,-44,512,-1.00,-1.0
6881,16960,76,528,-1.00,-1.0
6883,16888,4,580,-1.00,-1.0
6885,16924,20,480,-1.00,-1.0
6887,16940,-24,524,-1.00,-1.0
6889,16912,-76,608,-1.00,-1.0
6891,16896,-104,660,-1.00,-1.0
6893,17012,-48,616,-1.00,-1.0
6895,16988,-136,540,-1.00,-1.0
6897,17020,28,576,-1.00,-1.0
6899,17004,-92,540,-1.00,-1.0
6901,17060,-24,484,-1.00,-1.0
6903,16992,56,572,-1.00,-1.0
6905,17008,-8,604,-1.00,-1.0
6907,17000,-28,600,-1.00,-1.0
6909,17028,-68,432,-1.00,-1.0
6910,16996,-8,536,-1.00,-1.0
6916,16996,-52,576,-1.00,-1.0
6918,17024,4,592,-1.00,-1.0
6919,17024,40,548,-1.00,-1.0
6921,17012,-72,552,-1.00,-1.0
6923,16948,-24,624,-1.00,-1.0
6925,17100,80,624,-1.00,-1.0
6927,17012,-16,540,-1.00,-1.0
6929,16976,52,444,-1.00,-1.0
6931,16988,-52,720,-1.00,-1.0
6933,16920,-112,504,-1.00,-1.0
6935,16896,-68,608,-1.00,-1.0
6937,16976,-88,448,-1.00,-1.0
6939,17088,-56,580,-1.00,-1.0
6941,16912,-80,580,-1.00,-1.0
6943,17032,-56,568,-1.00,-1.0
6945,17016,-32,536,-1.00,-1.0
6947,16988,48,480,-1.00,-1.0
6949,16860,-92,720,-1.00,-1.0
6953,17032,-132,544,-1.00,-1.0
6955,17004,4,596,-1.00,-1.0
6957,17096,-40,560,-1.00,-1.0
6958,16964,108,544,-1.00,-1.0
6960,16976,-8,544,-1.00,-1.0
6962,17020,-52,528,-1.00,-1.0
6964,16956,72,616,-1.00,-1.0
6966,17032,-28,460,-1.00,-1.0
6968,16964,60,616,-1.00,-1.0
6970,17080,-32,564,-1.00,-1.0
6972,17024,-44,580,-1.00,-1.0
6974,17052,-20,524,-1.00,-1.0
6976,16940,-32,656,-1.00,-1.0
6978,17024,-40,568,-1.00,-1.0
6980,16940,-112,632,-1.00,-1.0
6982,16968,4,592,-1.00,-1.0
6984,16904,56,636,-1.00,-1.0
6988,16976,0,532,-1.00,-1.0
6990,16996,-68,520,-1.00,-1.0
6992,16896,-144,544,-1.00,-1.0
6994,16912,-128,516,-1.00,-1.0
6996,16884,36,672,-1.00,-1.0
6998,17008,-24,536,-1.00,-1.0
7000,16976,-64,572,-1.00,-1.0
7001,16996,-60,528,-1.00,-1.0
7004,16948,-16,624,-1.00,-1.0
7005,16980,8,648,-1.00,-1.0
7007,16968,-52,508,-1.00,-1.0
7009,16936,-32,448,-1.00,-1.0
7011,16960,-88,576,-1.00,-1.0
7013,17032,32,648,-1.00,-1.0
7015,16928,-88,572,-1.00,-1.0
7017,16980,32,584,-1.00,-1.0
7019,16940,16,632,-1.00,-1.0
7023,17032,4,716,-1.00,-1.0
7025,17044,-20,528,-1.00,-1.0
7027,17016,16,676,-1.00,-1.0
7029,16944,-44,672,-1.00,-1.0
7031,16952,24,628,-1.00,-1.0
7033,17000,-20,584,-1.00,-1.0
7035,17024,-12,536,-1.00,-1.0
7037,16984,-16,508,-1.00,-1.0
7039,16944,-64,564,-1.00,-1.0
7041,17028,-24,440,-1.00,-1.0
7043,16940,16,592,-1.00,-1.0
7044,16964,16,600,-1.00,-1.0
7046,16948,-20,480,-1.00,-1.0
7048,17024,20,688,-1.00,-1.0
7050,16996,-56,612,-1.00,-1.0
7052,16916,-76,588,-1.00,-1.0
7054,16900,-36,528,-1.00,-1.0
7058,16996,-100,600,-1.00,-1.0
7060,16996,-8,588,-1.00,-1.0
7062,16940,44,700,-1.00,-1.0
7064,17028,-40,564,-1.00,-1.0
7066,17024,-40,572,-1.00,-1.0
7068,17084,12,516,-1.00,-1.0
7070,17052,-112,576,-1.00,-1.0
7072,16928,-60,540,-1.00,-1.0
7074,16952,0,496,-1.00,-1.0
7076,17032,-80,532,-1.00,-1.0
7078,17060,8,452,-1.00,-1.0
7080,16976,-104,544,-1.00,-1.0
7082,16996,-8,592,-1.00,-1.0
7084,17000,8,636,-1.00,-1.0
7086,17020,-48,632,-1.00,-1.0
7088,16940,12,640,-1.00,-1.0
7089,16988,-24,496,-1.00,-1.0
7091,16976,-100,716,-1.00,-1.0
7096,17060,-4,484,-1.00,-1.0
7098,16988,-48,540,-1.00,-1.0
7099,17112,-80,556,-1.00,-1.0
7101,16996,-32,376,-1.00,-1.0
7103,16984,-64,484,-1.00,-1.0
7105,16964,96,608,-1.00,-1.0
7107,16984,68,588,-1.00,-1.0
7109,16908,-32,588,-1.00,-1.0
7111,16968,-16,620,-1.00,-1.0
7113,16932,-88,512,-1.00,-1.0
7115,17036,-52,460,-1.00,-1.0
7117,16872,-76,456,-1.00,-1.0
7119,16952,-52,628,-1.00,-1.0
7121,16924,-96,548,-1.00,-1.0
7123,17052,8,564,-1.00,-1.0
7125,16988,-88,564,-1.00,-1.0
7127,16944,56,708,-1.00,-1.0
7131,17052,-88,712,-1.00,-1.0
7133,17040,-88,528,-1.00,-1.0
7135,16948,-56,600,-1.00,-1.0
7137,16932,-68,712,-1.00,-1.0
7139,16992,0,604,-1.00,-1.0
7141,16960,24,468,-1.00,-1.0
7142,16912,-80,568,-1.00,-1.0
7144,16888,-104,532,-1.00,-1.0
7146,17008,-4,644,-1.00,-1.0
7148,17080,-112,580,-1.00,-1.0
7150,17008,4,688,-1.00,-1.0
7152,17080,60,564,-1.00,-1.0
7154,17000,-48,564,-1.00,-1.0
7156,17040,-16,520,-1.00,-1.0
7158,17012,4,612,-1.00,-1.0
7160,17048,36,600,-1.00,-1.0
7162,17016,48,576,-1.00,-1.0
7166,17092,-92,624,-1.00,-1.0
7168,16988,-52,596,-1.00,-1.0
7170,17096,-88,464,-1.00,-1.0
7172,16988,-60,512,-1.00,-1.0
7174,16996,-68,644,-1.00,-1.0
7176,17036,-112,636,-1.00,-1.0
7178,17024,48,428,-1.00,-1.0
7180,17092,12,572,-1.00,-1.0
7182,17104,-52,524,-1.00,-1.0
7184,17044,4,572,-1.00,-1.0
7186,17040,4,616,-1.00,-1.0
7187,17024,0,612,-1.00,-1.0
7189,16856,-76,692,-1.00,-1.0
7191,16956,-88,488,-1.00,-1.0
7193,17052,48,616,-1.00,-1.0
7195,16996,20,660,-1.00,-1.0
7197,17028,-16,416,-1.00,-1.0
7199,17080,-92,660,-1.00,-1.0
7203,16840,32,460,-1.00,-1.0
7205,17040,-8,724,-1.00,-1.0
7207,17020,-20,656,-1.00,-1.0
7209,16992,-88,576,-1.00,-1.0
7211,16992,40,588,-1.00,-1.0
7213,16944,12,648,-1.00,-1.0
7215,17072,-152,648,-1.00,-1.0
7217,17080,-60,568,-1.00,-1.0
7219,16972,-96,644,-1.00,-1.0
7221,17080,-56,632,-1.00,-1.0
7223,17036,36,536,-1.00,-1.0
7224,17000,8,528,-1.00,-1.0
7226,16892,-4,560,-1.00,-1.0
7228,17076,-44,584,-1.00,-1.0
7230,16968,-40,492,-1.00,-1.0
7232,16964,-8,588,-1.00,-1.0
7234,17024,48,648,-1.00,-1.0
7238,17128,-112,520,-1.00,-1.0
7240,17020,16,544,-1.00,-1.0
7242,16984,36,564,-1.00,-1.0
7244,17092,-12,564,-1.00,-1.0
7246,17052,64,640,-1.00,-1.0
7248,16984,-72,584,-1.00,-1.0
7250,17064,4,656,-1.00,-1.0
7252,16944,-88,528,-1.00,-1.0
7254,16948,-104,676,-1.00,-1.0
7256,16984,72,592,-1.00,-1.0
7258,16948,36,484,-1.00,-1.0
7260,17024,-68,620,-1.00,-1.0
7261,17048,-40,604,-1.00,-1.0
7264,17008,-40,540,-1.00,-1.0
7266,16884,56,472,-1.00,-1.0
7267,16940,52,584,-1.00,-1.0
7269,16936,-44,548,-1.00,-1.0
7274,17032,-72,472,-1.00,-1.0
7276,17072,-88,632,-1.00,-1.0
7277,16912,-16,564,-1.00,-1.0
7279,17060,-72,484,-1.00,-1.0
7281,16956,64,688,-1.00,-1.0
7283,17000,-48,628,-1.00,-1.0
7285,16928,64,620,-1.00,-1.0
7287,16924,-4,412,-1.00,-1.0
7289,17036,-48,480,-1.00,-1.0
7291,17040,0,668,-1.00,-1.0
7293,17044,-8,472,-1.00,-1.0
7295,16940,32,516,-1.00,-1.0
7297,17036,4,484,-1.00,-1.0
7299,16916,-68,688,-1.00,-1.0
7301,17048,-56,592,-1.00,-1.0
7303,16956,-88,668,-1.00,-1.0
7305,16984,-100,580,-1.00,-1.0
7307,16952,-56,536,-1.00,-1.0
7311,17068,-20,464,-1.00,-1.0
7313,16904,0,640,-1.00,-1.0
7315,17052,28,420,-1.00,-1.0
7317,17028,-44,728,-1.00,-1.0
7319,17044,-8,620,-1.00,-1.0
7321,16976,-28,664,-1.00,-1.0
7322,16944,-52,684,-1.00,-1.0
7324,16920,44,676,-1.00,-1.0
7326,17024,-76,584,-1.00,-1.0
7328,16952,76,520,-1.00,-1.0
7330,17004,4,492,-1.00,-1.0
7332,17048,-116,440,-1.00,-1.0
7334,16928,56,372,-1.00,-1.0
7336,16892,-116,612,-1.00,-1.0
7338,16964,-56,492,-1.00,-1.0
7340,17024,-36,592,-1.00,-1.0
7342,17040,-76,480,-1.00,-1.0
7346,17072,-68,584,-1.00,-1.0
7348,16984,-44,644,-1.00,-1.0
7350,17108,-16,652,-1.00,-1.0
7352,17024,12,568,-1.00,-1.0
7354,17012,72,656,-1.00,-1.0
7356,17020,-44,672,-1.00,-1.0
7358,16980,-12,464,-1.00,-1.0
7360,17016,20,636,-1.00,-1.0
7362,17168,-36,536,-1.00,-1.0
7364,16960,-112,496,-1.00,-1.0
7366,16968,-16,544,-1.00,-1.0
7367,17008,-60,584,-1.00,-1.0
7369,16968,-140,648,-1.00,-1.0
7371,17056,-76,572,-1.00,-1.0
7373,17008,-80,592,-1.00,-1.0
7375,17020,-92,512,-1.00,-1.0
7377,16980,36,532,-1.00,-1.0
7381,16888,-76,556,-1.00,-1.0
7383,17072,-56,532,-1.00,-1.0
7385,16976,-56,544,-1.00,-1.0
7387,17052,32,484,-1.00,-1.0
7389,16984,12,452,-1.00,-1.0
7391,17008,-48,400,-1.00,-1.0
7393,16908,-52,580,-1.00,-1.0
7395,16996,68,640,-1.00,-1.0
7397,17048,32,620,-1.00,-1.0
7399,16956,16,488,-1.00,-1.0
7401,17072,-20,480,-1.00,-1.0
7403,17004,60,564,-1.00,-1.0
7405,17040,-96,664,-1.00,-1.0
7407,16992,24,528,-1.00,-1.0
7409,16992,24,536,-1.00,-1.0
7410,17008,60,500,-1.00,-1.0
7412,17104,12,728,-1.00,-1.0
7414,16988,-16,608,-1.00,-1.0
7419,16988,-8,624,-1.00,-1.0
7420,17020,20,508,-1.00,-1.0
7422,17028,-92,648,-1.00,-1.0
7424,17016,-28,584,-1.00,-1.0
7426,16976,-8,616,-1.00,-1.0
7428,16956,-28,580,-1.00,-1.0
7430,17016,-68,568,-1.00,-1.0
7432,16952,-88,568,-1.00,-1.0
7434,17004,-16,552,-1.00,-1.0
7436,17028,52,604,-1.00,-1.0
7438,16920,-16,580,-1.00,-1.0
7440,17100,48,568,-1.00,-1.0
7442,16968,-24,428,-1.00,-1.0
7444,17036,-8,568,-1.00,-1.0
7446,16932,-84,480,-1.00,-1.0
7448,17096,-20,576,-1.00,-1.0
7450,17044,-92,676,-1.00,-1.0
7454,16928,-64,512,-1.00,-1.0
7456,17092,-24,612,-1.00,-1.0
7458,16984,40,724,-1.00,-1.0
7460,16980,-56,536,-1.00,-1.0
7462,16952,-16,408,-1.00,-1.0
7464,17032,-56,504,-1.00,-1.0
7465,16968,-72,680,-1.00,-1.0
7467,16992,-32,556,-1.00,-1.0
7469,16952,56,744,-1.00,-1.0
7471,17088,-40,632,-1.00,-1.0
7473,17112,-24,536,-1.00,-1.0
7475,16928,80,564,-1.00,-1.0
7477,17044,-28,496,-1.00,-1.0
7479,16948,8,748,-1.00,-1.0
7481,17000,-20,616,-1.00,-1.0
7483,16908,-84,472,-1.00,-1.0
7485,17012,32,624,-1.00,-1.0
7489,17076,-16,656,-1.00,-1.0
7491,17020,-68,604,-1.00,-1.0
7493,17016,-20,604,-1.00,-1.0
7495,16920,32,596,-1.00,-1.0
7497,16956,-36,528,-1.00,-1.0
7499,17072,8,604,-1.00,-1.0
7501,16896,-48,548,-1.00,-1.0
7502,16956,-28,592,-1.00,-1.0
7504,16980,-48,600,-1.00,-1.0
7506,17088,-76,536,-1.00,-1.0
7508,16976,-56,480,-1.00,-1.0
7510,17052,8,508,-1.00,-1.0
7512,17056,52,688,-1.00,-1.0
7514,16964,-56,528,-1.00,-1.0
7516,17012,-16,612,-1.00,-1.0
7518,16992,-68,640,-1.00,-1.0
7520,17044,-52,640,-1.00,-1.0
7524,17052,-44,552,-1.00,-1.0
7526,16988,-204,564,-1.00,-1.0
7528,16952,-52,804,-1.00,-1.0
7530,16956,-100,552,-1.00,-1.0
7532,17096,-48,524,-1.00,-1.0
7534,17076,-40,608,-1.00,-1.0
7536,17048,0,504,-1.00,-1.0
7538,17024,116,492,-1.00,-1.0
7540,17004,-40,628,-1.00,-1.0
7542,16900,8,492,-1.00,-1.0
7544,16980,-24,580,-1.00,-1.0
7546,17012,-128,692,-1.00,-1.0
7547,16968,-40,612,-1.00,-1.0
7550,17012,12,592,-1.00,-1.0
7552,17028,-88,532,-1.00,-1.0
7553,17056,-52,404,-1.00,-1.0
7555,16988,-72,432,-1.00,-1.0
7560,17020,-96,656,-1.00,-1.0
7561,16960,-100,596,-1.00,-1.0
7563,17024,-68,560,-1.00,-1.0
7565,16880,-100,628,-1.00,-1.0
7567,16968,60,532,-1.00,-1.0
7569,17008,0,700,-1.00,-1.0
7571,16932,12,492,-1.00,-1.0
7573,17004,-60,660,-1.00,-1.0
7575,17080,-68,564,-1.00,-1.0
7577,17020,72,724,-1.00,-1.0
7579,16960,-32,640,-1.00,-1.0
7581,16976,-92,752,-1.00,-1.0
7583,17072,64,596,-1.00,-1.0
7585,16984,36,660,-1.00,-1.0
7587,17036,-64,524,-1.00,-1.0
7589,16976,100,544,-1.00,-1.0
7591,17020,-88,644,-1.00,-1.0
7592,17028,-28,484,-1.00,-1.0
7597,17036,-132,440,-1.00,-1.0
7599,17076,-44,596,-1.00,-1.0
7601,17024,-100,580,-1.00,-1.0
7602,16944,-80,592,-1.00,-1.0
7604,16996,20,616,-1.00,-1.0
7606,16924,-64,668,-1.00,-1.0
7608,16892,-60,532,-1.00,-1.0
7610,16904,-140,672,-1.00,-1.0
7612,17012,-4,616,-1.00,-1.0
7614,16968,-92,468,-1.00,-1.0
7616,16948,0,488,-1.00,-1.0
7618,17056,-140,660,-1.00,-1.0
7620,17096,-16,688,-1.00,-1.0
7622,16948,-176,556,-1.00,-1.0
7624,17052,0,560,-1.00,-1.0
7626,16900,-12,632,-1.00,-1.0
7628,17040,-96,568,-1.00,-1.0
7632,16988,-124,488,-1.00,-1.0
7634,16956,-52,556,-1.00,-1.0
7636,17076,-64,440,-1.00,-1.0
7638,16956,-20,604,-1.00,-1.0
7640,16936,-16,596,-1.00,-1.0
7642,16980,8,520,-1.00,-1.0
7644,16968,8,440,-1.00,-1.0
7645,17032,-88,468,-1.00,-1.0
7648,17000,0,720,-1.00,-1.0
7650,16948,-92,572,-1.00,-1.0
7651,17024,-40,628,-1.00,-1.0
7653,17012,-76,600,-1.00,-1.0
7655,17036,28,572,-1.00,-1.0
7657,16984,-16,716,-1.00,-1.0
7659,17024,-4,440,-1.00,-1.0
7661,16960,48,560,-1.00,-1.0
7663,17028,-16,504,-1.00,-1.0
7667,16952,-36,496,-1.00,-1.0
7669,17060,-52,668,-1.00,-1.0
7671,17028,-36,660,-1.00,-1.0
7673,16936,28,520,-1.00,-1.0
7675,17012,-36,616,-1.00,-1.0
7677,17076,-72,468,-1.00,-1.0
7679,17032,-68,500,-1.00,-1.0
7681,16988,8,604,-1.00,-1.0
7683,17008,-12,540,-1.00,-1.0
7685,16976,-68,568,-1.00,-1.0
7687,17056,-32,552,-1.00,-1.0
7689,16984,-84,616,-1.00,-1.0
7690,17064,-52,644,-1.00,-1.0
7693,17020,-32,572,-1.00,-1.0
7695,17020,24,636,-1.00,-1.0
7696,16912,-100,508,-1.00,-1.0
7698,17100,-24,584,-1.00,-1.0
7703,17020,-64,612,-1.00,-1.0
7704,16920,84,508,-1.00,-1.0
7706,17040,0,448,-1.00,-1.0
7708,17000,-12,700,-1.00,-1.0
7710,17016,-36,544,-1.00,-1.0
7712,16976,-44,504,-1.00,-1.0
7714,17024,12,516,-1.00,-1.0
7716,17052,60,520,-1.00,-1.0
7718,16944,-96,608,-1.00,-1.0
7720,16936,32,600,-1.00,-1.0
7722,17020,-48,528,-1.00,-1.0
7724,16976,-8,568,-1.00,-1.0
7726,16924,36,684,-1.00,-1.0
7728,16972,0,540,-1.00,-1.0
7730,17008,-100,600,-1.00,-1.0
7732,17040,-36,692,-1.00,-1.0
7734,17056,16,624,-1.00,-1.0
7735,17076,-24,480,-1.00,-1.0
7740,17100,16,496,-1.00,-1.0
7742,17028,-12,580,-1.00,-1.0
7744,17072,36,668,-1.00,-1.0
7745,17044,-160,568,-1.00,-1.0
7747,17068,60,392,-1.00,-1.0
7749,16988,-48,672,-1.00,-1.0
7751,17020,12,608,-1.00,-1.0
7753,16944,-108,500,-1.00,-1.0
7755,16972,20,608,-1.00,-1.0
7757,17076,88,460,-1.00,-1.0
7759,17060,-20,596,-1.00,-1.0
7761,17088,-136,608,-1.00,-1.0
7763,17008,4,692,-1.00,-1.0
7765,17020,12,632,-1.00,-1.0
7767,16996,-8,744,-1.00,-1.0
7769,17020,-76,616,-1.00,-1.0
7771,16952,-48,704,-1.00,-1.0
7775,16904,-12,596,-1.00,-1.0
7777,17000,-44,632,-1.00,-1.0
7779,16976,72,632,-1.00,-1.0
7781,16884,16,612,-1.00,-1.0
7783,17008,60,652,-1.00,-1.0
7785,16976,-40,704,-1.00,-1.0
7786,16984,-68,504,-1.00,-1.0
7788,16912,20,596,-1.00,-1.0
7790,16976,-24,532,-1.00,-1.0
7792,17104,-56,596,-1.00,-1.0
7794,16952,-72,720,-1.00,-1.0
7796,17072,0,664,-1.00,-1.0
7798,17040,20,628,-1.00,-1.0
7800,17084,-52,624,-1.00,-1.0
7802,16972,-68,676,-1.00,-1.0
7804,16996,36,616,-1.00,-1.0
7806,17104,-132,416,-1.00,-1.0
7810,16984,24,592,-1.00,-1.0
7812,17052,-52,644,-1.00,-1.0
7814,16976,24,616,-1.00,-1.0
7816,16956,-88,620,-1.00,-1.0
7818,16964,-40,640,-1.00,-1.0
7820,16964,-28,676,-1.00,-1.0
7822,16952,44,588,-1.00,-1.0
7823,17068,-36,524,-1.00,-1.0
7825,16984,-24,532,-1.00,-1.0
7827,17040,-8,620,-1.00,-1.0
7829,17012,12,548,-1.00,-1.0
7831,17012,20,564,-1.00,-1.0
7833,17020,-28,552,-1.00,-1.0
7835,16936,-124,576,-1.00,-1.0
7837,16924,40,476,-1.00,-1.0
7839,16992,-88,608,-1.00,-1.0
7841,16984,-48,632,-1.00,-1.0
7843,17020,-12,576,-1.00,-1.0
7847,17036,72,564,-1.00,-1.0
7849,17024,32,460,-1.00,-1.0
7851,17032,-56,508,-1.00,-1.0
7853,17056,-84,520,-1.00,-1.0
7855,16984,-20,596,-1.00,-1.0
7857,17072,-68,660,-1.00,-1.0
7859,16888,-84,456,-1.00,-1.0
7861,17008,0,564,-1.00,-1.0
7863,17016,-52,708,-1.00,-1.0
7865,16952,-112,532,-1.00,-1.0
7867,16980,-56,560,-1.00,-1.0
7868,17072,-92,584,-1.00,-1.0
7871,16940,-20,552,-1.00,-1.0
7872,17124,-116,688,-1.00,-1.0
7874,17088,-52,396,-1.00,-1.0
7876,16948,56,668,-1.00,-1.0
7878,17004,-68,568,-1.00,-1.0
7882,16964,-128,592,-1.00,-1.0
7884,17008,-72,572,-1.00,-1.0
7886,17024,-44,632,-1.00,-1.0
7888,17032,-28,608,-1.00,-1.0
7890,16896,-80,580,-1.00,-1.0
7892,16968,-88,568,-1.00,-1.0
7894,16968,-52,492,-1.00,-1.0
7896,16956,-84,592,-1.00,-1.0
7898,17084,-24,780,-1.00,-1.0
7900,16900,-52,536,-1.00,-1.0
7902,16980,8,648,-1.00,-1.0
7904,17072,32,620,-1.00,-1.0
7906,17088,24,508,-1.00,-1.0
7908,16940,-116,672,-1.00,-1.0
7910,16968,-32,492,-1.00,-1.0
7912,16896,32,620,-1.00,-1.0
7913,17020,-56,580,-1.00,-1.0
7918,17064,-20,628,-1.00,-1.0
7920,16976,-60,468,-1.00,-1.0
7922,17004,-44,644,-1.00,-1.0
7923,16996,-36,448,-1.00,-1.0
7926,16952,-52,504,-1.00,-1.0
7927,16952,-12,632,-1.00,-1.0
7929,17024,12,572,-1.00,-1.0
7931,16960,-80,564,-1.00,-1.0
7933,16888,-64,540,-1.00,-1.0
7935,16956,-64,508,-1.00,-1.0
7937,16928,-76,476,-1.00,-1.0
7939,16920,-92,640,-1.00,-1.0
7941,17004,8,540,-1.00,-1.0
7943,16976,76,700,-1.00,-1.0
7945,17052,-4,460,-1.00,-1.0
7947,16976,16,584,-1.00,-1.0
7949,17016,-24,280,-1.00,-1.0
7953,17052,-28,528,-1.00,-1.0
7955,16992,16,544,-1.00,-1.0
7957,16936,0,564,-1.00,-1.0
7959,16988,24,428,-1.00,-1.0
7961,16984,-52,744,-1.00,-1.0
7963,16948,36,484,-1.00,-1.0
7965,16964,-44,556,-1.00,-1.0
7967,16964,-16,448,-1.00,-1.0
7968,16940,-56,572,-1.00,-1.0
7970,17096,-64,540,-1.00,-1.0
7972,17016,-36,448,-1.00,-1.0
7974,16968,0,520,-1.00,-1.0
7976,17000,-44,564,-1.00,-1.0
7978,16904,60,632,-1.00,-1.0
7980,17136,12,712,-1.00,-1.0
7982,17040,-76,576,-1.00,-1.0
7984,16996,-24,628,-1.00,-1.0
7986,16972,-40,620,-1.00,-1.0
7990,16940,0,608,-1.00,-1.0
7992,17072,-24,660,-1.00,-1.0
7994,16988,48,652,-1.00,-1.0
7996,16880,24,492,-1.00,-1.0
7998,16976,-84,504,-1.00,-1.0
8000,16956,-40,568,-1.00,-1.0
8002,16996,-32,552,-1.00,-1.0
8004,16972,-12,520,-1.00,-1.0
8006,17040,-88,568,-1.00,-1.0
8008,16972,-60,536,-1.00,-1.0
8010,17004,-12,504,-1.00,-1.0
8012,17020,60,532,-1.00,-1.0
8014,16880,32,528,-1.00,-1.0
8016,16980,-72,572,-1.00,-1.0
8017,16984,-84,540,-1.00,-1.0
8019,16940,-8,540,-1.00,-1.0
8021,17008,-68,536,-1.00,-1.0
8025,16976,-64,576,-1.00,-1.0
8027,17072,88,680,-1.00,-1.0
8029,16992,-124,520,-1.00,-1.0
8031,16976,68,600,-1.00,-1.0
8033,16976,12,556,-1.00,-1.0
8035,17028,56,592,-1.00,-1.0
8037,17060,36,500,-1.00,-1.0
8039,16988,8,604,-1.00,-1.0
8041,16956,-8,532,-1.00,-1.0
8043,16956,-40,480,-1.00,-1.0
8045,17008,-64,672,-1.00,-1.0
8047,17080,-76,524,-1.00,-1.0
8049,17036,-44,500,-1.00,-1.0
8051,16896,-8,572,-1.00,-1.0
8053,16976,-36,580,-1.00,-1.0
8055,17032,-20,516,-1.00,-1.0
8056,16996,-40,520,-1.00,-1.0
8061,17008,-12,608,-1.00,-1.0
8063,17024,8,536,-1.00,-1.0
8065,17092,36,488,-1.00,-1.0
8067,16952,-68,632,-1.00,-1.0
8069,17080,-52,564,-1.00,-1.0
8071,17040,-12,640,-1.00,-1.0
8073,17012,8,548,-1.00,-1.0
8075,17016,-24,556,-1.00,-1.0
8077,17056,-44,632,-1.00,-1.0
8079,17092,-92,728,-1.00,-1.0
8081,16880,-20,568,-1.00,-1.0
8083,16968,12,568,-1.00,-1.0
8085,17024,28,660,-1.00,-1.0
8087,16920,-68,744,-1.00,-1.0
8089,16912,0,616,-1.00,-1.0
8090,17024,-4,564,-1.00,-1.0
8092,16940,24,704,-1.00,-1.0
8094,17008,-24,640,-1.00,-1.0
8098,17012,32,548,-1.00,-1.0
8100,17060,12,712,-1.00,-1.0
8102,17016,4,648,-1.00,-1.0
8104,17100,-136,536,-1.00,-1.0
8106,17048,4,500,-1.00,-1.0
8108,16960,-8,616,-1.00,-1.0
8110,17016,-52,500,-1.00,-1.0
8112,17020,-44,484,-1.00,-1.0
8114,17048,-32,596,-1.00,-1.0
8116,16976,-72,592,-1.00,-1.0
8118,17000,8,616,-1.00,-1.0
8120,16936,20,584,-1.00,-1.0
8122,17024,-112,504,-1.00,-1.0
8124,16956,44,540,-1.00,-1.0
8126,16980,-112,564,-1.00,-1.0
8127,16940,-76,712,-1.00,-1.0
8129,16924,-72,548,-1.00,-1.0
8134,16984,-104,544,-1.00,-1.0
8136,17020,0,548,-1.00,-1.0
8138,16988,44,504,-1.00,-1.0
8140,16932,-64,660,-1.00,-1.0
8142,17004,-124,676,-1.00,-1.0
8144,17056,-8,536,-1.00,-1.0
8145,16944,-104,708,-1.00,-1.0
8147,16852,-64,548,-1.00,-1.0
8149,17016,-24,528,-1.00,-1.0
8151,16964,16,572,-1.00,-1.0
8153,16996,-44,616,-1.00,-1.0
8155,17020,-112,560,-1.00,-1.0
8157,16976,-92,552,-1.00,-1.0
8159,16956,-20,676,-1.00,-1.0
8161,17004,-4,688,-1.00,-1.0
8163,16980,-88,624,-1.00,-1.0
8165,17004,8,724,-1.00,-1.0
8169,17020,44,548,-1.00,-1.0
8171,17008,-4,680,-1.00,-1.0
8173,17012,-20,564,-1.00,-1.0
8175,16956,-128,528,-1.00,-1.0
8177,16996,-76,648,-1.00,-1.0
8179,17040,-12,492,-1.00,-1.0
8181,16948,-36,644,-1.00,-1.0
8183,16940,-20,572,-1.00,-1.0
8185,16972,12,668,-1.00,-1.0
8187,16976,12,616,-1.00,-1.0
8189,16996,-80,476,-1.00,-1.0
8190,16940,72,544,-1.00,-1.0
8192,16976,-16,492,-1.00,-1.0
8194,16940,-8,564,-1.00,-1.0
8196,17052,-60,660,-1.00,-1.0
8198,17020,-68,592,-1.00,-1.0
8200,16976,-56,408,-1.00,-1.0
8204,16980,-16,488,-1.00,-1.0
8206,16980,4,504,-1.00,-1.0
8208,17088,28,416,-1.00,-1.0
8210,17004,16,648,-1.00,-1.0
8212,17024,20,660,-1.00,-1.0
8214,17020,80,620,-1.00,-1.0
8216,16968,-64,512,-1.00,-1.0
8218,16928,-64,692,-1.00,-1.0
8220,17028,-64,544,-1.00,-1.0
8222,17032,-56,664,-1.00,-1.0
8224,17084,-60,700,-1.00,-1.0
8226,16968,-48,452,-1.00,-1.0
8228,16904,-44,556,-1.00,-1.0
8230,17004,68,632,-1.00,-1.0
8232,17004,-20,676,-1.00,-1.0
8233,16956,-80,456,-1.00,-1.0
8235,17012,4,508,-1.00,-1.0
8237,16992,-44,468,-1.00,-1.0
8241,17008,-52,560,-1.00,-1.0
8243,17024,-52,444,-1.00,-1.0
8245,16992,-116,496,-1.00,-1.0
8247,17036,-72,572,-1.00,-1.0
8249,16948,-32,496,-1.00,-1.0
8251,17024,-80,560,-1.00,-1.0
8253,16944,-36,428,-1.00,-1.0
8255,16900,12,604,-1.00,-1.0
8257,16984,-20,524,-1.00,-1.0
8259,16976,-20,564,-1.00,-1.0
8261,17000,24,608,-1.00,-1.0
8263,17028,-20,668,-1.00,-1.0
8265,17024,-20,468,-1.00,-1.0
8267,16968,40,564,-1.00,-1.0
8269,16968,-120,588,-1.00,-1.0
8271,16988,-72,600,-1.00,-1.0
8273,16944,-108,580,-1.00,-1.0
8277,16932,8,580,-1.00,-1.0
8279,17016,8,496,-1.00,-1.0
8281,17072,-24,604,-1.00,-1.0
8283,17068,-116,624,-1.00,-1.0
8285,17048,-12,524,-1.00,-1.0
8287,17060,-36,584,-1.00,-1.0
8288,17044,-88,584,-1.00,-1.0
8290,16992,-52,580,-1.00,-1.0
8292,16992,32,624,-1.00,-1.0
8294,16984,-76,640,-1.00,-1.0
8296,17000,8,436,-1.00,-1.0
8298,17104,-16,592,-1.00,-1.0
8300,16952,36,596,-1.00,-1.0
8302,17004,-36,432,-1.00,-1.0
8304,16920,20,520,-1.00,-1.0
8306,17072,-52,692,-1.00,-1.0
8308,16980,-16,496,-1.00,-1.0
8312,17012,-4,520,-1.00,-1.0
8314,16988,64,556,-1.00,-1.0
8316,16936,-92,492,-1.00,-1.0
8318,17036,48,472,-1.00,-1.0
8320,17116,-4,644,-1.00,-1.0
8322,16972,8,696,-1.00,-1.0
8324,17052,40,696,-1.00,-1.0
8326,16992,-24,620,-1.00,-1.0
8327,16912,-84,572,-1.00,-1.0
8330,17004,16,560,-1.00,-1.0
8332,16976,-52,568,-1.00,-1.0
8333,16984,-68,632,-1.00,-1.0
8335,17068,-100,520,-1.00,-1.0
8337,16972,12,516,-1.00,-1.0
8339,16940,4,548,-1.00,-1.0
8341,16920,-52,456,-1.00,-1.0
8343,17068,-32,568,-1.00,-1.0
8345,17024,-100,648,-1.00,-1.0
8349,17044,44,648,-1.00,-1.0
8351,17060,20,608,-1.00,-1.0
8353,17064,-108,576,-1.00,-1.0
8355,16936,0,720,-1.00,-1.0
8357,16960,-116,588,-1.00,-1.0
8359,17000,-84,512,-1.00,-1.0
8361,17028,-40,568,-1.00,-1.0
8363,17008,-100,676,-1.00,-1.0
8365,16976,-72,588,-1.00,-1.0
8367,17068,20,484,-1.00,-1.0
8369,17032,-84,416,-1.00,-1.0
8370,17044,-116,520,-1.00,-1.0
8373,16920,28,596,-1.00,-1.0
8374,17016,-52,536,-1.00,-1.0
8376,17016,-4,564,-1.00,-1.0
8378,17048,-24,508,-1.00,-1.0
8380,17044,-16,580,-1.00,-1.0
8384,16956,-28,488,-1.00,-1.0
8386,16924,-20,456,-1.00,-1.0
8388,17052,-20,644,-1.00,-1.0
8390,17036,-76,572,-1.00,-1.0
8392,17004,16,476,-1.00,-1.0
8394,16872,24,500,-1.00,-1.0
8396,17048,-96,640,-1.00,-1.0
8398,17016,-88,640,-1.00,-1.0
8400,17036,4,572,-1.00,-1.0
8402,17096,24,720,-1.00,-1.0
8404,17036,12,552,-1.00,-1.0
8406,16960,-104,464,-1.00,-1.0
8407,16956,56,584,-1.00,-1.0
8409,16980,-32,576,-1.00,-1.0
8411,16968,20,560,-1.00,-1.0
8413,16880,56,656,-1.00,-1.0
8415,16984,-56,520,-1.00,-1.0
8419,16980,8,424,-1.00,-1.0
