timestamp_ms,global_ms,accel_x,accel_y,accel_z,accel_mag,temp_c,voltage,soc,loop_us
3,3,16924,1428,2124,17116.44,27.17,-1.00,-1.0,2491
9,9,16976,1552,1984,17161.86,27.21,-1.00,-1.0,2461
12,12,16932,1492,2092,17125.86,27.21,-1.00,-1.0,2360
14,14,16892,1580,2156,17102.18,27.21,-1.00,-1.0,2353
17,17,17000,1532,2220,17212.65,27.12,-1.00,-1.0,2419
20,20,17036,1420,2016,17213.54,27.02,-1.00,-1.0,2350
23,23,16896,1540,2004,17083.98,27.12,-1.00,-1.0,2425
25,25,16956,1400,2180,17152.79,27.17,-1.00,-1.0,2366
28,28,16976,1464,2088,17166.47,27.21,-1.00,-1.0,2348
31,31,17000,1552,1992,17186.53,27.12,-1.00,-1.0,2428
33,33,16932,1604,2064,17132.59,27.26,-1.00,-1.0,2367
38,38,17000,1612,2148,17210.82,27.17,-1.00,-1.0,2431
41,41,16928,1504,2132,17127.89,27.21,-1.00,-1.0,2361
44,44,16940,1516,2068,17132.96,27.17,-1.00,-1.0,2422
46,46,16844,1348,2196,17039.95,27.12,-1.00,-1.0,2368
49,49,16988,1400,2028,17165.81,27.17,-1.00,-1.0,2358
52,52,16964,1500,2080,17156.74,27.26,-1.00,-1.0,2421
54,54,16888,1552,2060,17083.82,27.12,-1.00,-1.0,2365
57,57,16900,1528,2088,17096.92,27.12,-1.00,-1.0,2426
60,60,16964,1564,2036,17157.18,27.31,-1.00,-1.0,2370
62,62,16956,1524,2216,17167.97,27.17,-1.00,-1.0,2354
67,67,16924,1392,2180,17120.51,27.17,-1.00,-1.0,2436
70,70,16900,1516,2044,17090.53,27.21,-1.00,-1.0,2367
73,73,16880,1444,1976,17056.50,27.12,-1.00,-1.0,2419
76,76,16936,1628,2052,17137.36,27.12,-1.00,-1.0,2363
78,78,16924,1512,2220,17135.82,27.12,-1.00,-1.0,2369
81,81,16992,1564,2156,17199.49,27.17,-1.00,-1.0,2422
84,84,16968,1460,2184,17170.16,27.21,-1.00,-1.0,2369
87,87,16976,1480,2016,17159.23,27.12,-1.00,-1.0,2424
90,90,16944,1536,2028,17133.92,27.12,-1.00,-1.0,2366
94,94,16932,1504,2076,17124.96,27.17,-1.00,-1.0,2434
97,97,16956,1484,2164,17157.83,27.17,-1.00,-1.0,2362
100,100,16968,1500,2096,17162.64,27.17,-1.00,-1.0,2355
103,103,16932,1420,2040,17113.46,27.17,-1.00,-1.0,2407
105,105,16964,1460,2128,17159.18,27.26,-1.00,-1.0,2364
108,108,17012,1492,2008,17194.95,27.26,-1.00,-1.0,2417
111,111,16944,1524,2136,17145.97,27.21,-1.00,-1.0,2378
114,114,16984,1424,2140,17177.42,27.02,-1.00,-1.0,2428
117,117,16856,1488,2112,17052.84,27.21,-1.00,-1.0,2376
120,120,16888,1456,2280,17103.30,27.21,-1.00,-1.0,2367
125,125,16920,1540,2120,17121.69,27.31,-1.00,-1.0,2435
127,127,16840,1424,2136,17034.55,27.26,-1.00,-1.0,2362
130,130,16952,1420,2092,17139.52,27.21,-1.00,-1.0,2421
133,133,16848,1396,2056,17030.30,27.17,-1.00,-1.0,2366
135,135,16984,1468,2016,17166.12,27.17,-1.00,-1.0,2405
138,138,17036,1444,2028,17216.95,27.21,-1.00,-1.0,2372
141,141,16916,1616,2124,17125.24,27.26,-1.00,-1.0,2362
144,144,16960,1512,2164,17164.23,27.17,-1.00,-1.0,2430
147,147,16968,1548,2100,17167.39,27.07,-1.00,-1.0,2372
152,152,16816,1452,2192,17020.31,27.12,-1.00,-1.0,2434
154,154,16948,1420,2056,17131.21,27.17,-1.00,-1.0,2348
157,157,17020,1520,2032,17208.13,27.12,-1.00,-1.0,2420
160,160,16876,1520,2268,17095.43,27.07,-1.00,-1.0,2365
162,162,16848,1548,2128,17052.27,27.17,-1.00,-1.0,2354
165,165,16952,1424,2264,17161.70,27.21,-1.00,-1.0,2419
168,168,16940,1428,2084,17127.34,27.07,-1.00,-1.0,2365
171,171,16864,1500,2200,17072.92,27.17,-1.00,-1.0,2418
174,174,16912,1556,2096,17112.28,27.17,-1.00,-1.0,2366
179,179,16976,1496,2164,17178.63,27.26,-1.00,-1.0,2435
181,181,16956,1548,2088,17154.07,27.21,-1.00,-1.0,2364
184,184,16940,1460,2156,17138.95,27.17,-1.00,-1.0,2366
187,187,16948,1340,2096,17129.61,27.17,-1.00,-1.0,2431
189,189,17048,1524,2148,17250.24,27.21,-1.00,-1.0,2363
192,192,16904,1544,2148,17109.74,27.17,-1.00,-1.0,2419
195,195,16936,1480,2080,17127.31,27.21,-1.00,-1.0,2365
198,198,16972,1496,2064,17162.37,27.21,-1.00,-1.0,2422
201,201,16832,1444,2120,17026.33,27.17,-1.00,-1.0,2365
204,204,16920,1456,2020,17102.24,27.17,-1.00,-1.0,2363
209,209,16896,1452,2060,17082.94,27.07,-1.00,-1.0,2436
211,211,16984,1444,2304,17200.29,27.12,-1.00,-1.0,2366
214,214,16940,1436,1992,17117.06,27.17,-1.00,-1.0,2421
217,217,16944,1512,2264,17161.32,27.12,-1.00,-1.0,2364
220,220,16992,1484,2164,17193.41,27.21,-1.00,-1.0,2417
222,222,16952,1376,1996,17124.48,27.17,-1.00,-1.0,2366
225,225,16904,1392,2088,17089.25,27.12,-1.00,-1.0,2369
228,228,16936,1464,2236,17145.59,27.12,-1.00,-1.0,2421
231,231,16944,1512,2148,17146.40,27.21,-1.00,-1.0,2363
235,235,16964,1492,2100,17158.48,27.12,-1.00,-1.0,2434
238,238,16972,1444,2152,17168.72,27.07,-1.00,-1.0,2364
241,241,16932,1440,2072,17118.98,27.12,-1.00,-1.0,2420
244,244,16952,1456,2064,17139.15,27.17,-1.00,-1.0,2375
246,246,16960,1468,2208,17166.01,27.21,-1.00,-1.0,2362
249,249,16772,1544,2160,16980.86,27.12,-1.00,-1.0,2420
252,252,16888,1484,2164,17090.63,27.21,-1.00,-1.0,2366
255,255,16928,1456,2124,17122.75,27.17,-1.00,-1.0,2429
258,258,16800,1536,2076,16997.33,27.21,-1.00,-1.0,2364
262,262,16900,1552,2068,17096.65,27.21,-1.00,-1.0,2435
265,265,16916,1468,2216,17123.57,27.26,-1.00,-1.0,2360
268,268,16912,1456,2104,17104.46,27.21,-1.00,-1.0,2355
271,271,16940,1508,2120,17138.61,27.17,-1.00,-1.0,2420
273,273,16896,1500,2108,17092.94,27.21,-1.00,-1.0,2363
276,276,16860,1460,2116,17054.87,27.21,-1.00,-1.0,2419
279,279,16988,1472,2080,17178.05,27.07,-1.00,-1.0,2366
282,282,16940,1396,2068,17122.76,27.26,-1.00,-1.0,2430
285,285,16888,1480,2124,17085.27,27.17,-1.00,-1.0,2364
288,288,16964,1516,2144,17166.02,27.17,-1.00,-1.0,2362
293,293,16908,1436,2028,17089.63,27.21,-1.00,-1.0,2434
295,295,16880,1552,2148,17086.75,27.21,-1.00,-1.0,2370
298,298,16904,1408,2160,17099.51,27.21,-1.00,-1.0,2420
301,301,16980,1472,2112,17174.04,27.12,-1.00,-1.0,2373
304,304,17008,1404,2136,17199.01,27.31,-1.00,-1.0,2425
306,306,17048,1384,2136,17236.95,27.17,-1.00,-1.0,2366
309,309,16916,1468,2208,17122.54,27.21,-1.00,-1.0,2361
312,312,16900,1472,2148,17099.44,27.26,-1.00,-1.0,2429
315,315,16804,1528,2248,17022.42,27.17,-1.00,-1.0,2372
320,320,16896,1576,1992,17085.86,27.26,-1.00,-1.0,2433
322,322,17080,1600,2140,17287.74,27.21,-1.00,-1.0,2367
325,325,17036,1456,2096,17226.10,27.17,-1.00,-1.0,2420
328,328,16924,1416,2096,17111.99,27.21,-1.00,-1.0,2366
330,330,16900,1496,2240,17113.32,27.12,-1.00,-1.0,2357
333,333,17060,1516,2208,17268.96,27.26,-1.00,-1.0,2419
336,336,16980,1480,2164,17181.20,27.12,-1.00,-1.0,2365
339,339,16944,1480,2068,17133.77,27.21,-1.00,-1.0,2425
342,342,16880,1500,2164,17084.12,27.17,-1.00,-1.0,2359
347,347,16904,1436,2100,17094.37,27.21,-1.00,-1.0,2462
350,350,17120,1444,2188,17319.55,27.21,-1.00,-1.0,2375
352,352,16904,1468,2180,17107.09,27.21,-1.00,-1.0,2357
355,355,17056,1488,2252,17268.26,27.07,-1.00,-1.0,2421
358,358,16964,1480,2024,17148.30,27.21,-1.00,-1.0,2368
360,360,16980,1468,2200,17184.74,27.12,-1.00,-1.0,2424
363,363,16992,1488,2080,17183.38,27.26,-1.00,-1.0,2372
366,366,16924,1496,2028,17110.60,27.21,-1.00,-1.0,2424
369,369,16932,1460,2184,17134.59,27.12,-1.00,-1.0,2372
372,372,16928,1432,2160,17125.23,27.12,-1.00,-1.0,2370
377,377,16940,1504,2088,17134.33,27.12,-1.00,-1.0,2441
379,379,16920,1452,2088,17110.07,27.17,-1.00,-1.0,2363
382,382,16924,1460,2164,17124.14,27.17,-1.00,-1.0,2420
385,385,16936,1476,2016,17119.31,27.17,-1.00,-1.0,2365
388,388,16868,1516,2104,17066.18,27.17,-1.00,-1.0,2417
390,390,16984,1428,2056,17167.49,27.21,-1.00,-1.0,2375
393,393,16960,1536,2120,17160.87,27.26,-1.00,-1.0,2361
396,396,16932,1384,2144,17123.22,27.26,-1.00,-1.0,2420
399,399,16888,1456,2208,17093.85,27.12,-1.00,-1.0,2352
404,404,16888,1492,2272,17105.34,27.12,-1.00,-1.0,2421
406,406,16928,1460,2112,17121.60,27.07,-1.00,-1.0,2365
409,409,16956,1580,2052,17152.64,27.21,-1.00,-1.0,2419
412,412,16976,1464,2152,17174.37,27.26,-1.00,-1.0,2365
415,415,16960,1556,2036,17152.49,27.17,-1.00,-1.0,2418
417,417,16880,1516,2252,17096.90,27.17,-1.00,-1.0,2373
420,420,16984,1552,2164,17191.51,27.17,-1.00,-1.0,2362
423,423,16956,1548,2188,17166.53,27.17,-1.00,-1.0,2422
426,426,16932,1464,2252,17143.73,27.17,-1.00,-1.0,2366
431,431,16980,1472,2196,17184.57,27.21,-1.00,-1.0,2442
434,434,16976,1472,2096,17168.13,27.21,-1.00,-1.0,2365
436,436,16888,1408,2208,17089.83,27.21,-1.00,-1.0,2422
439,439,17044,1376,2056,17222.62,27.17,-1.00,-1.0,2365
442,442,16936,1452,2204,17140.42,27.21,-1.00,-1.0,2357
444,444,16892,1496,2076,17084.71,27.21,-1.00,-1.0,2426
447,447,16920,1468,2164,17120.87,27.17,-1.00,-1.0,2368
450,450,16956,1492,2188,17161.57,27.17,-1.00,-1.0,2417
453,453,16956,1400,2152,17149.26,27.26,-1.00,-1.0,2368
458,458,16960,1500,2280,17178.18,27.21,-1.00,-1.0,2433
460,460,16960,1444,2164,17158.37,27.17,-1.00,-1.0,2366
463,463,16908,1464,2124,17103.66,27.26,-1.00,-1.0,2361
466,466,16956,1468,2128,17151.95,27.21,-1.00,-1.0,2422
468,468,16888,1524,2212,17100.29,27.17,-1.00,-1.0,2368
471,471,17044,1452,2220,17249.19,27.21,-1.00,-1.0,2421
474,474,16892,1480,2220,17101.42,27.07,-1.00,-1.0,2367
477,477,17000,1452,2164,17198.58,27.17,-1.00,-1.0,2424
480,480,16852,1368,2112,17038.83,27.26,-1.00,-1.0,2363
483,483,16996,1560,2080,17193.72,27.17,-1.00,-1.0,2349
488,488,16924,1496,2208,17132.87,27.26,-1.00,-1.0,2421
491,491,17036,1532,2268,17254.45,27.12,-1.00,-1.0,2364
493,493,16952,1464,2108,17145.18,27.26,-1.00,-1.0,2423
496,496,16844,1556,2156,17052.56,27.21,-1.00,-1.0,2366
499,499,16880,1396,2072,17063.89,27.21,-1.00,-1.0,2423
501,501,17000,1452,2168,17199.09,27.12,-1.00,-1.0,2366
504,504,16900,1468,2260,17113.52,27.21,-1.00,-1.0,2362
507,507,16888,1524,2144,17091.63,27.12,-1.00,-1.0,2420
510,510,17012,1492,2260,17226.20,27.12,-1.00,-1.0,2365
515,515,16952,1396,2096,17138.04,27.07,-1.00,-1.0,2440
518,518,16964,1480,2072,17154.03,27.17,-1.00,-1.0,2371
520,520,16940,1424,2120,17131.43,27.17,-1.00,-1.0,2430
523,523,16948,1568,2244,17167.67,27.17,-1.00,-1.0,2372
526,526,16856,1460,2216,17063.62,27.17,-1.00,-1.0,2361
528,528,16932,1472,2212,17139.21,27.21,-1.00,-1.0,2423
531,531,16976,1496,2116,17172.65,27.17,-1.00,-1.0,2378
534,534,17012,1532,2320,17237.68,27.07,-1.00,-1.0,2418
537,537,17004,1416,2188,17202.57,27.02,-1.00,-1.0,2365
542,542,16984,1608,2068,17184.83,27.21,-1.00,-1.0,2434
545,545,16824,1524,2084,17020.95,27.17,-1.00,-1.0,2373
547,547,16972,1500,2172,17176.04,27.21,-1.00,-1.0,2361
550,550,16980,1468,2184,17182.70,27.12,-1.00,-1.0,2419
553,553,16944,1428,2304,17159.45,27.12,-1.00,-1.0,2365
555,555,16892,1428,2080,17079.38,27.21,-1.00,-1.0,2419
558,558,16956,1492,2020,17140.96,27.17,-1.00,-1.0,2381
561,561,16936,1496,2276,17153.61,27.17,-1.00,-1.0,2421
564,564,16908,1588,2192,17123.29,27.26,-1.00,-1.0,2366
567,567,16924,1464,2096,17116.02,27.17,-1.00,-1.0,2363
572,572,16936,1452,2164,17135.32,27.21,-1.00,-1.0,2434
575,575,16976,1380,2216,17175.55,27.21,-1.00,-1.0,2363
577,577,16908,1560,2208,17122.77,27.21,-1.00,-1.0,2418
580,580,16984,1528,2176,17190.87,27.21,-1.00,-1.0,2381
583,583,16956,1456,2168,17155.94,27.17,-1.00,-1.0,2423
586,586,17012,1476,2180,17214.50,27.17,-1.00,-1.0,2367
588,588,16960,1576,2112,17163.51,27.12,-1.00,-1.0,2364
591,591,17108,1548,2128,17309.20,27.12,-1.00,-1.0,2434
594,594,16964,1440,2132,17157.98,27.26,-1.00,-1.0,2374
599,599,17096,1480,2144,17293.36,27.17,-1.00,-1.0,2435
602,602,16972,1492,2180,17176.36,27.21,-1.00,-1.0,2363
604,604,16988,1484,2252,17200.75,27.26,-1.00,-1.0,2416
607,607,16904,1480,2112,17099.60,27.21,-1.00,-1.0,2368
610,610,16980,1448,2040,17163.29,27.17,-1.00,-1.0,2362
612,612,16932,1448,2180,17133.06,27.17,-1.00,-1.0,2422
615,615,17092,1540,2020,17279.71,27.21,-1.00,-1.0,2366
618,618,16836,1484,2188,17042.31,27.12,-1.00,-1.0,2436
621,621,16924,1476,2052,17111.72,27.21,-1.00,-1.0,2372
626,626,16964,1508,2176,17169.34,27.26,-1.00,-1.0,2434
629,629,16960,1484,2216,17168.42,27.17,-1.00,-1.0,2362
631,631,16940,1452,2148,17137.26,27.17,-1.00,-1.0,2360
634,634,16988,1444,2264,17198.92,27.21,-1.00,-1.0,2420
637,637,16988,1380,2300,17198.45,27.17,-1.00,-1.0,2364
639,639,16964,1468,2224,17172.03,27.07,-1.00,-1.0,2417
642,642,16864,1468,2156,17064.52,27.07,-1.00,-1.0,2365
645,645,16932,1512,2208,17142.17,27.21,-1.00,-1.0,2429
648,648,16888,1480,2180,17092.32,27.12,-1.00,-1.0,2378
651,651,16908,1460,2064,17095.97,27.21,-1.00,-1.0,2377
656,656,16880,1500,2192,17087.69,27.12,-1.00,-1.0,2434
659,659,16920,1488,2260,17135.00,27.17,-1.00,-1.0,2364
661,661,16912,1524,2096,17109.40,27.17,-1.00,-1.0,2403
664,664,16912,1480,2004,17094.51,27.17,-1.00,-1.0,2366
667,667,16984,1468,2012,17165.65,27.26,-1.00,-1.0,2420
670,670,16992,1520,2112,17190.08,27.21,-1.00,-1.0,2373
672,672,16940,1552,2180,17150.06,27.17,-1.00,-1.0,2363
675,675,16920,1592,2052,17118.16,27.26,-1.00,-1.0,2420
678,678,16888,1532,2204,17099.98,27.12,-1.00,-1.0,2368
683,683,16860,1452,2184,17062.76,27.17,-1.00,-1.0,2436
686,686,17024,1500,2012,17207.98,27.21,-1.00,-1.0,2375
688,688,17000,1496,2124,17197.37,27.17,-1.00,-1.0,2428
691,691,16856,1420,2140,17050.54,27.21,-1.00,-1.0,2370
694,694,16888,1464,2288,17105.05,27.07,-1.00,-1.0,2359
696,696,16896,1440,2136,17091.25,27.07,-1.00,-1.0,2423
699,699,17012,1568,2304,17238.77,27.17,-1.00,-1.0,2365
702,702,17016,1440,2192,17216.93,27.17,-1.00,-1.0,2418
705,705,16912,1516,2240,17126.93,27.26,-1.00,-1.0,2365
710,710,16924,1516,2016,17110.94,27.17,-1.00,-1.0,2437
713,713,16912,1480,2236,17123.25,27.21,-1.00,-1.0,2369
715,715,16880,1452,2152,17078.46,27.07,-1.00,-1.0,2361
718,718,17028,1468,2124,17222.64,27.17,-1.00,-1.0,2420
721,721,17028,1400,2120,17216.48,27.26,-1.00,-1.0,2365
723,723,16840,1460,2144,17038.60,27.17,-1.00,-1.0,2420
726,726,16988,1580,2192,17201.55,27.17,-1.00,-1.0,2366
729,729,16904,1420,2216,17107.67,27.17,-1.00,-1.0,2409
732,732,16956,1520,2028,17144.36,27.26,-1.00,-1.0,2365
735,735,16940,1476,2148,17139.31,27.26,-1.00,-1.0,2362
740,740,16844,1500,2008,17029.46,27.17,-1.00,-1.0,2443
743,743,16972,1464,2132,17167.92,27.17,-1.00,-1.0,2371
746,746,16948,1524,2120,17147.94,27.17,-1.00,-1.0,2426
748,748,16948,1476,1988,17127.91,27.21,-1.00,-1.0,2367
751,751,17000,1508,2068,17191.59,27.21,-1.00,-1.0,2419
754,754,17044,1464,2088,17233.72,27.17,-1.00,-1.0,2366
756,756,17004,1564,2220,17219.48,27.26,-1.00,-1.0,2365
759,759,16792,1520,2168,16999.47,27.21,-1.00,-1.0,2419
762,762,16880,1560,2024,17072.33,27.21,-1.00,-1.0,2366
767,767,16940,1524,2088,17136.10,27.17,-1.00,-1.0,2435
770,770,16916,1424,2024,17096.06,27.17,-1.00,-1.0,2350
773,773,16952,1444,2076,17139.58,27.17,-1.00,-1.0,2427
775,775,16992,1388,2176,17186.90,27.21,-1.00,-1.0,2366
778,778,16936,1512,2136,17137.00,27.17,-1.00,-1.0,2362
781,781,16980,1596,2268,17204.98,27.17,-1.00,-1.0,2427
783,783,16984,1500,2120,17181.40,27.07,-1.00,-1.0,2368
786,786,16888,1488,2100,17082.99,27.12,-1.00,-1.0,2422
789,789,16888,1420,2184,17087.74,27.12,-1.00,-1.0,2365
794,794,16976,1468,2216,17182.85,27.12,-1.00,-1.0,2434
797,797,17000,1508,2128,17198.91,27.26,-1.00,-1.0,2362
800,800,16944,1552,2116,17146.00,27.17,-1.00,-1.0,2425
802,802,16968,1504,2040,17156.24,27.26,-1.00,-1.0,2368
805,805,16852,1516,2056,17044.51,27.21,-1.00,-1.0,2362
808,808,17016,1580,1976,17203.06,27.17,-1.00,-1.0,2421
810,810,16932,1512,2120,17131.06,27.17,-1.00,-1.0,2372
813,813,16928,1524,2148,17131.66,27.26,-1.00,-1.0,2421
816,816,16896,1484,2096,17090.06,27.17,-1.00,-1.0,2366
821,821,16840,1440,2044,17024.60,27.21,-1.00,-1.0,2433
824,824,17068,1484,2148,17266.52,27.21,-1.00,-1.0,2364
826,826,17020,1532,2072,17213.96,27.31,-1.00,-1.0,2358
829,829,16868,1520,2168,17074.54,27.26,-1.00,-1.0,2419
832,832,16984,1468,2200,17188.70,27.21,-1.00,-1.0,2366
835,835,16848,1476,2140,17047.38,27.21,-1.00,-1.0,2416
837,837,16924,1496,2224,17134.93,27.21,-1.00,-1.0,2373
840,840,16892,1520,1976,17074.97,27.17,-1.00,-1.0,2433
843,843,16956,1556,2048,17149.97,27.17,-1.00,-1.0,2369
846,846,16908,1388,2100,17094.36,27.17,-1.00,-1.0,2363
851,851,16936,1512,2180,17142.54,27.26,-1.00,-1.0,2435
854,854,16940,1468,1992,17119.78,27.21,-1.00,-1.0,2363
857,857,16948,1416,2120,17138.67,27.21,-1.00,-1.0,2419
859,859,16864,1528,2056,17057.45,27.31,-1.00,-1.0,2371
862,862,16928,1480,2144,17127.30,27.12,-1.00,-1.0,2421
865,865,16916,1488,2056,17105.33,27.26,-1.00,-1.0,2374
867,867,16896,1432,1992,17073.18,27.21,-1.00,-1.0,2364
870,870,16844,1500,2144,17046.03,27.21,-1.00,-1.0,2429
873,873,16928,1464,2056,17115.13,27.17,-1.00,-1.0,2371
878,878,16884,1428,2188,17084.96,27.17,-1.00,-1.0,2436
881,881,16904,1460,2168,17104.88,27.17,-1.00,-1.0,2363
884,884,16948,1456,2120,17142.03,27.17,-1.00,-1.0,2422
886,886,16860,1512,2208,17071.06,27.31,-1.00,-1.0,2368
889,889,17024,1516,2144,17225.32,27.17,-1.00,-1.0,2362
892,892,16884,1488,2080,17076.59,27.26,-1.00,-1.0,2423
894,894,16964,1484,2168,17166.24,27.26,-1.00,-1.0,2365
897,897,16864,1356,2044,17041.46,27.21,-1.00,-1.0,2428
900,900,16964,1440,2100,17154.04,27.12,-1.00,-1.0,2374
905,905,17032,1520,2192,17239.61,27.21,-1.00,-1.0,2433
908,908,16932,1492,2124,17129.80,27.12,-1.00,-1.0,2353
910,910,16956,1512,2128,17155.77,27.12,-1.00,-1.0,2357
913,913,16980,1540,2148,17184.47,27.17,-1.00,-1.0,2419
916,916,16928,1536,2044,17120.00,27.12,-1.00,-1.0,2353
919,919,16908,1484,2184,17112.94,27.12,-1.00,-1.0,2425
921,921,16944,1564,2264,17165.98,27.21,-1.00,-1.0,2373
924,924,16900,1576,2092,17101.76,27.17,-1.00,-1.0,2423
927,927,16876,1588,2036,17072.39,27.12,-1.00,-1.0,2372
930,930,16920,1644,2132,17132.85,27.21,-1.00,-1.0,2369
935,935,16888,1492,2148,17089.31,27.21,-1.00,-1.0,2447
938,938,17000,1452,2048,17184.37,27.17,-1.00,-1.0,2361
941,941,17016,1584,2128,17221.55,27.31,-1.00,-1.0,2425
943,943,16860,1572,2080,17060.40,27.17,-1.00,-1.0,2365
946,946,16892,1548,2016,17082.16,27.26,-1.00,-1.0,2425
949,949,16896,1392,2140,17087.78,27.17,-1.00,-1.0,2355
952,952,17028,1532,2180,17235.20,27.07,-1.00,-1.0,2363
954,954,16844,1540,2076,17041.18,27.17,-1.00,-1.0,2421
957,957,16964,1440,1916,17132.48,27.17,-1.00,-1.0,2368
962,962,16912,1424,2052,17095.45,27.12,-1.00,-1.0,2444
965,965,17008,1440,2148,17203.47,27.21,-1.00,-1.0,2361
968,968,16928,1592,2132,17135.84,27.12,-1.00,-1.0,2425
970,970,16944,1524,1984,17127.70,27.26,-1.00,-1.0,2365
973,973,16956,1564,2176,17166.45,27.12,-1.00,-1.0,2370
976,976,16880,1440,2124,17073.94,27.21,-1.00,-1.0,2431
979,979,16872,1488,2060,17062.30,27.17,-1.00,-1.0,2368
981,981,16896,1540,2124,17098.47,27.17,-1.00,-1.0,2421
984,984,16916,1472,2196,17121.34,27.07,-1.00,-1.0,2367
989,989,16816,1468,2032,17001.82,27.17,-1.00,-1.0,2442
992,992,16904,1496,2088,17098.04,27.21,-1.00,-1.0,2369
995,995,16940,1492,2192,17146.27,27.17,-1.00,-1.0,2357
997,997,16948,1444,2128,17142.00,27.17,-1.00,-1.0,2423
1000,1000,16912,1504,2128,17111.58,27.12,-1.00,-1.0,2379
1003,1003,16964,1448,2076,17151.79,27.17,-1.00,-1.0,2408
1006,1006,16988,1452,2176,17188.23,27.21,-1.00,-1.0,2366
1009,1009,16960,1512,2280,17179.24,27.26,-1.00,-1.0,2421
1011,1011,16988,1348,2008,17159.29,27.35,-1.00,-1.0,2366
1016,1016,16908,1464,2156,17107.66,27.26,-1.00,-1.0,2441
1019,1019,16872,1476,2044,17059.33,27.17,-1.00,-1.0,2376
1022,1022,16936,1532,2112,17135.80,27.17,-1.00,-1.0,2358
1024,1024,16904,1484,2064,17094.08,27.17,-1.00,-1.0,2420
1027,1027,16892,1500,2184,17098.52,27.26,-1.00,-1.0,2350
1030,1030,16976,1548,2048,17169.02,27.26,-1.00,-1.0,2424
1033,1033,17060,1560,2224,17274.94,27.12,-1.00,-1.0,2372
1036,1036,16972,1464,2088,17162.51,27.21,-1.00,-1.0,2421
1038,1038,17012,1416,2104,17200.00,27.26,-1.00,-1.0,2365
1043,1043,16960,1532,2148,17163.99,27.17,-1.00,-1.0,2436
1046,1046,17020,1532,2096,17216.87,27.17,-1.00,-1.0,2371
1049,1049,16880,1520,2140,17082.87,27.12,-1.00,-1.0,2356
1051,1051,17008,1508,2040,17196.15,27.17,-1.00,-1.0,2419
1054,1054,16968,1468,2036,17152.65,27.17,-1.00,-1.0,2366
1057,1057,16896,1532,2056,17089.44,27.26,-1.00,-1.0,2418
1060,1060,16956,1536,2072,17151.05,27.17,-1.00,-1.0,2376
1063,1063,16968,1428,2044,17150.22,27.17,-1.00,-1.0,2420
1066,1066,16968,1544,2068,17163.15,27.21,-1.00,-1.0,2366
1070,1070,16928,1476,2136,17125.95,27.21,-1.00,-1.0,2435
1073,1073,16928,1508,2124,17127.25,27.17,-1.00,-1.0,2364
1076,1076,16872,1368,2100,17057.13,27.21,-1.00,-1.0,2358
1079,1079,16832,1452,2124,17027.50,27.21,-1.00,-1.0,2420
1081,1081,16892,1512,2080,17086.61,27.12,-1.00,-1.0,2363
1084,1084,16900,1524,2040,17090.76,27.21,-1.00,-1.0,2406
1087,1087,16864,1488,2168,17067.77,27.17,-1.00,-1.0,2376
1090,1090,17000,1352,2044,17175.73,27.17,-1.00,-1.0,2427
1093,1093,17012,1500,2240,17224.28,27.17,-1.00,-1.0,2365
1097,1097,16976,1532,2076,17170.95,27.21,-1.00,-1.0,2434
1100,1100,16940,1448,2096,17130.48,27.21,-1.00,-1.0,2361
1103,1103,16980,1480,2064,17168.89,27.21,-1.00,-1.0,2365
1106,1106,16860,1652,2056,17065.05,27.26,-1.00,-1.0,2423
1108,1108,16948,1428,2124,17140.17,27.12,-1.00,-1.0,2363
1111,1111,16896,1548,2096,17095.74,27.12,-1.00,-1.0,2421
1114,1114,16900,1328,2072,17078.25,27.21,-1.00,-1.0,2367
1117,1117,16924,1500,2176,17129.12,27.17,-1.00,-1.0,2429
1120,1120,16976,1452,2188,17177.90,27.17,-1.00,-1.0,2372
1124,1124,16948,1496,1912,17120.99,27.26,-1.00,-1.0,2441
1127,1127,16988,1512,2232,17200.58,27.26,-1.00,-1.0,2370
1130,1130,17028,1488,2196,17233.38,27.12,-1.00,-1.0,2362
1132,1132,16932,1424,2112,17122.53,27.21,-1.00,-1.0,2421
1135,1135,16968,1424,2124,17159.61,27.26,-1.00,-1.0,2378
1138,1138,16848,1544,2264,17069.41,27.31,-1.00,-1.0,2406
1141,1141,16948,1464,2096,17139.76,27.17,-1.00,-1.0,2377
1144,1144,16996,1460,2156,17194.30,27.21,-1.00,-1.0,2426
1147,1147,16984,1492,2088,17176.79,27.21,-1.00,-1.0,2377
1151,1151,16988,1484,2140,17186.45,27.17,-1.00,-1.0,2443
1154,1154,16948,1488,1992,17129.42,27.26,-1.00,-1.0,2370
1157,1157,16940,1400,2108,17127.97,27.31,-1.00,-1.0,2359
1159,1159,16980,1516,2072,17173.00,27.21,-1.00,-1.0,2424
1162,1162,16832,1504,2204,17042.18,27.21,-1.00,-1.0,2371
1165,1165,16956,1400,2016,17132.72,27.12,-1.00,-1.0,2418
1168,1168,16872,1536,2028,17062.72,27.21,-1.00,-1.0,2368
1171,1171,16932,1524,2052,17123.84,27.12,-1.00,-1.0,2422
1174,1174,16964,1528,2128,17165.09,27.21,-1.00,-1.0,2366
1179,1179,16868,1420,2140,17062.40,27.12,-1.00,-1.0,2434
1181,1181,16872,1544,2064,17067.76,27.26,-1.00,-1.0,2361
1184,1184,16884,1504,2060,17075.57,27.21,-1.00,-1.0,2360
1187,1187,16944,1548,2144,17149.12,27.21,-1.00,-1.0,2429
1189,1189,16912,1536,2200,17123.52,27.17,-1.00,-1.0,2365
1192,1192,16872,1424,2124,17064.69,27.12,-1.00,-1.0,2426
1195,1195,16984,1460,2132,17179.44,27.17,-1.00,-1.0,2373
1198,1198,16956,1472,2088,17147.38,27.26,-1.00,-1.0,2422
1201,1201,16896,1492,2120,17093.72,27.26,-1.00,-1.0,2413
1206,1206,17008,1392,2156,17200.53,27.26,-1.00,-1.0,2436
1208,1208,16924,1492,2152,17125.39,27.12,-1.00,-1.0,2371
1211,1211,16940,1480,2244,17151.96,27.17,-1.00,-1.0,2361
1214,1214,16876,1476,2072,17066.67,27.17,-1.00,-1.0,2420
1216,1216,17044,1408,2196,17242.47,27.17,-1.00,-1.0,2367
1219,1219,16888,1476,2176,17091.46,27.17,-1.00,-1.0,2417
1222,1222,16920,1516,2160,17124.55,27.21,-1.00,-1.0,2370
1225,1225,16924,1416,2036,17104.74,27.17,-1.00,-1.0,2417
1228,1228,16920,1464,2016,17102.46,27.26,-1.00,-1.0,2364
1233,1233,16972,1572,2028,17164.87,27.21,-1.00,-1.0,2436
1235,1235,16980,1480,2084,17171.31,27.21,-1.00,-1.0,2364
1238,1238,16864,1404,2272,17074.18,27.17,-1.00,-1.0,2363
1241,1241,16852,1512,2080,17047.07,27.26,-1.00,-1.0,2421
1243,1243,16908,1476,2180,17111.73,27.21,-1.00,-1.0,2372
1246,1246,17024,1500,2060,17213.66,27.26,-1.00,-1.0,2418
1249,1249,16904,1536,2172,17112.04,27.21,-1.00,-1.0,2374
1252,1252,17056,1400,2272,17263.52,27.26,-1.00,-1.0,2424
1255,1255,16908,1588,2112,17113.23,27.17,-1.00,-1.0,2365
1260,1260,16968,1456,2156,17166.28,27.17,-1.00,-1.0,2434
1262,1262,16932,1488,2016,17116.40,27.21,-1.00,-1.0,2369
1265,1265,16932,1464,2160,17131.89,27.17,-1.00,-1.0,2359
1268,1268,16920,1500,2140,17120.63,27.17,-1.00,-1.0,2419
1270,1270,16964,1524,2264,17182.13,27.17,-1.00,-1.0,2371
1273,1273,17004,1480,2100,17196.99,27.26,-1.00,-1.0,2418
1276,1276,17016,1484,2052,17203.41,27.12,-1.00,-1.0,2369
1279,1279,16924,1484,2088,17116.77,27.21,-1.00,-1.0,2423
1282,1282,16872,1444,1948,17045.36,27.26,-1.00,-1.0,2365
1287,1287,16916,1440,2100,17106.57,27.17,-1.00,-1.0,2433
1289,1289,17036,1432,2204,17237.56,27.26,-1.00,-1.0,2373
1292,1292,17084,1500,2124,17280.75,27.17,-1.00,-1.0,2361
1295,1295,17008,1352,2040,17183.18,27.31,-1.00,-1.0,2421
1297,1297,16908,1488,2056,17097.42,27.26,-1.00,-1.0,2354
1300,1300,16880,1464,2080,17070.56,27.17,-1.00,-1.0,2418
1303,1303,16936,1484,2264,17150.98,27.17,-1.00,-1.0,2371
1306,1306,16920,1400,2044,17100.42,27.21,-1.00,-1.0,2430
1309,1309,16948,1468,2088,17139.12,27.12,-1.00,-1.0,2372
1314,1314,17008,1496,2152,17208.75,27.21,-1.00,-1.0,2434
1316,1316,16948,1456,2164,17147.52,27.17,-1.00,-1.0,2367
1319,1319,16896,1540,2168,17103.99,27.12,-1.00,-1.0,2358
1322,1322,16932,1416,2044,17113.61,27.21,-1.00,-1.0,2424
1324,1324,16896,1440,2168,17095.28,27.26,-1.00,-1.0,2366
1327,1327,16820,1416,1988,16996.16,27.17,-1.00,-1.0,2419
1330,1330,16960,1472,2084,17150.84,27.17,-1.00,-1.0,2354
1333,1333,16912,1428,2056,17096.26,27.17,-1.00,-1.0,2428
1336,1336,16996,1440,2096,17185.19,27.21,-1.00,-1.0,2367
1341,1341,16916,1488,2088,17109.21,27.17,-1.00,-1.0,2440
1343,1343,16948,1444,2012,17127.99,27.21,-1.00,-1.0,2363
1346,1346,16988,1428,2140,17181.70,27.17,-1.00,-1.0,2417
1349,1349,16928,1456,1992,17106.88,27.31,-1.00,-1.0,2366
1351,1351,16968,1440,2316,17185.76,27.12,-1.00,-1.0,2415
1354,1354,16904,1432,2132,17097.99,27.21,-1.00,-1.0,2430
1357,1357,16956,1384,2200,17154.05,27.21,-1.00,-1.0,2364
1360,1360,16968,1492,2092,17161.46,27.17,-1.00,-1.0,2425
1363,1363,16888,1468,2264,17102.20,27.17,-1.00,-1.0,2373
1368,1368,16908,1504,2164,17112.14,27.21,-1.00,-1.0,2435
1370,1370,16916,1460,1988,17094.88,27.12,-1.00,-1.0,2363
1373,1373,16908,1432,2144,17103.45,27.21,-1.00,-1.0,2419
1376,1376,16860,1488,2020,17045.65,27.12,-1.00,-1.0,2367
1378,1378,16960,1532,2184,17168.53,27.12,-1.00,-1.0,2357
1381,1381,16900,1416,2232,17105.46,27.21,-1.00,-1.0,2422
1384,1384,16948,1440,2176,17147.69,27.12,-1.00,-1.0,2364
1387,1387,16972,1488,2148,17171.98,27.17,-1.00,-1.0,2407
1390,1390,16868,1536,2224,17083.18,27.17,-1.00,-1.0,2368
1395,1395,16992,1496,2164,17194.45,27.26,-1.00,-1.0,2441
1397,1397,16884,1412,2060,17067.71,27.31,-1.00,-1.0,2365
1400,1400,16828,1480,2124,17025.96,27.21,-1.00,-1.0,2419
1403,1403,16872,1512,2192,17080.85,27.12,-1.00,-1.0,2365
1405,1405,16928,1340,2232,17127.01,27.21,-1.00,-1.0,2357
1408,1408,16944,1476,2216,17151.92,27.17,-1.00,-1.0,2420
1411,1411,16908,1436,2232,17115.03,27.12,-1.00,-1.0,2353
1414,1414,17172,1412,2172,17366.32,27.21,-1.00,-1.0,2419
1417,1417,16968,1428,2096,17156.50,27.17,-1.00,-1.0,2365
1422,1422,16824,1524,2148,17028.90,27.17,-1.00,-1.0,2442
1424,1424,16952,1524,2148,17155.37,27.21,-1.00,-1.0,2364
1427,1427,17000,1444,2140,17194.90,27.17,-1.00,-1.0,2421
1430,1430,16864,1508,2168,17069.53,27.21,-1.00,-1.0,2364
1433,1433,16844,1428,2004,17022.79,27.17,-1.00,-1.0,2360
1435,1435,16880,1396,2132,17071.28,27.26,-1.00,-1.0,2421
1438,1438,16764,1524,2056,16958.22,27.21,-1.00,-1.0,2364
1441,1441,16928,1528,2096,17125.57,27.21,-1.00,-1.0,2419
1444,1444,16956,1480,2244,17167.76,27.12,-1.00,-1.0,2367
1449,1449,16960,1428,2220,17164.18,27.17,-1.00,-1.0,2439
1452,1452,16924,1552,2152,17130.72,27.17,-1.00,-1.0,2364
1454,1454,16988,1496,2052,17176.75,27.17,-1.00,-1.0,2420
1457,1457,16880,1472,2004,17062.16,27.26,-1.00,-1.0,2364
1460,1460,17004,1480,2008,17186.00,27.17,-1.00,-1.0,2358
1462,1462,16984,1476,2128,17180.31,27.21,-1.00,-1.0,2425
1465,1465,17004,1496,2128,17201.81,27.17,-1.00,-1.0,2366
1468,1468,16944,1552,2124,17146.99,27.26,-1.00,-1.0,2416
1471,1471,16880,1552,2124,17083.75,27.21,-1.00,-1.0,2365
1476,1476,16928,1384,2172,17122.80,27.21,-1.00,-1.0,2435
1479,1479,16932,1484,2188,17137.16,27.17,-1.00,-1.0,2365
1481,1481,16836,1488,2052,17025.74,27.21,-1.00,-1.0,2429
1484,1484,17036,1560,2192,17247.14,27.17,-1.00,-1.0,2365
1487,1487,16972,1376,2032,17148.50,27.21,-1.00,-1.0,2359
1489,1489,16976,1476,2080,17166.52,27.21,-1.00,-1.0,2426
1492,1492,16976,1456,2068,17163.37,27.17,-1.00,-1.0,2364
1495,1495,16948,1492,2244,17160.89,27.26,-1.00,-1.0,2416
1498,1498,16880,1488,2072,17071.66,27.17,-1.00,-1.0,2365
1503,1503,16900,1540,2264,17120.38,27.12,-1.00,-1.0,2422
1506,1506,16972,1472,2140,17169.60,27.31,-1.00,-1.0,2366
1508,1508,17060,1388,2100,17244.71,27.21,-1.00,-1.0,2433
1511,1511,16908,1444,2124,17101.96,27.17,-1.00,-1.0,2365
1514,1514,16912,1464,2128,17108.11,27.21,-1.00,-1.0,2359
1516,1516,16908,1496,2116,17105.44,27.12,-1.00,-1.0,2427
1519,1519,16908,1364,2036,17084.68,27.17,-1.00,-1.0,2364
1522,1522,17004,1520,2156,17207.40,27.17,-1.00,-1.0,2416
1525,1525,16980,1480,2156,17180.20,27.17,-1.00,-1.0,2365
1530,1530,16804,1488,2268,17021.53,27.17,-1.00,-1.0,2437
1533,1533,16924,1460,2204,17129.24,27.31,-1.00,-1.0,2373
1535,1535,16904,1444,2032,17086.82,27.07,-1.00,-1.0,2427
1538,1538,16956,1488,2288,17174.25,27.21,-1.00,-1.0,2369
1541,1541,16956,1404,1996,17130.71,27.17,-1.00,-1.0,2360
1543,1543,16844,1668,2220,17071.35,27.17,-1.00,-1.0,2423
1546,1546,17004,1504,2180,17209.02,27.21,-1.00,-1.0,2377
1549,1549,17008,1496,2096,17201.84,27.17,-1.00,-1.0,2418
1552,1552,16840,1372,2128,17029.28,27.26,-1.00,-1.0,2364
1557,1557,16900,1484,2176,17104.01,27.21,-1.00,-1.0,2435
1559,1559,16920,1568,2052,17115.95,27.17,-1.00,-1.0,2364
1562,1562,16904,1504,2076,17097.28,27.21,-1.00,-1.0,2419
1565,1565,16936,1480,2176,17139.24,27.26,-1.00,-1.0,2364
1567,1567,16940,1396,2112,17128.13,27.17,-1.00,-1.0,2345
1570,1570,16888,1472,2096,17081.12,27.21,-1.00,-1.0,2418
1573,1573,16992,1512,1940,17169.09,27.26,-1.00,-1.0,2359
1576,1576,16964,1524,2128,17164.74,27.12,-1.00,-1.0,2423
1579,1579,16908,1440,2172,17107.65,27.26,-1.00,-1.0,2364
1584,1584,17008,1512,2144,17209.15,27.21,-1.00,-1.0,2421
1586,1586,16900,1468,2228,17109.32,27.26,-1.00,-1.0,2365
1589,1589,16924,1508,2080,17117.89,27.21,-1.00,-1.0,2418
1592,1592,17072,1424,2024,17250.44,27.07,-1.00,-1.0,2369
1594,1594,16972,1472,2096,17164.17,27.12,-1.00,-1.0,2357
1597,1597,16860,1524,2176,17068.02,27.21,-1.00,-1.0,2421
1600,1600,16932,1536,2172,17139.71,27.21,-1.00,-1.0,2372
1603,1603,16928,1472,2116,17123.12,27.26,-1.00,-1.0,2430
1606,1606,16884,1548,2012,17073.78,27.26,-1.00,-1.0,2429
1611,1611,16960,1440,2088,17148.61,27.17,-1.00,-1.0,2446
1614,1614,16916,1480,2144,17115.44,27.26,-1.00,-1.0,2369
1617,1617,16932,1540,2056,17125.75,27.17,-1.00,-1.0,2425
1619,1619,16968,1556,2128,17171.56,27.21,-1.00,-1.0,2369
1622,1622,17012,1428,2228,17216.60,27.17,-1.00,-1.0,2365
1625,1625,16924,1476,2088,17116.08,27.17,-1.00,-1.0,2422
1627,1627,17028,1496,2132,17226.03,27.26,-1.00,-1.0,2374
1630,1630,16868,1456,2136,17064.93,27.17,-1.00,-1.0,2415
1633,1633,16976,1476,2120,17171.42,27.17,-1.00,-1.0,2382
1638,1638,17012,1460,2100,17203.19,27.17,-1.00,-1.0,2433
1641,1641,16888,1476,2096,17081.46,27.21,-1.00,-1.0,2363
1644,1644,16944,1456,2164,17143.57,27.21,-1.00,-1.0,2399
1646,1646,17052,1392,2188,17248.06,27.26,-1.00,-1.0,2365
1649,1649,16908,1536,2144,17112.47,27.21,-1.00,-1.0,2366
1652,1652,17028,1432,2224,17232.22,27.12,-1.00,-1.0,2419
1654,1654,16880,1552,2176,17090.29,27.21,-1.00,-1.0,2364
1657,1657,16988,1488,2064,17177.50,27.26,-1.00,-1.0,2419
1660,1660,16828,1528,2256,17047.17,27.17,-1.00,-1.0,2371
1665,1665,16940,1456,1988,17118.29,27.07,-1.00,-1.0,2441
1668,1668,16892,1436,2096,17082.01,27.12,-1.00,-1.0,2372
1671,1671,17020,1512,2124,17218.54,27.26,-1.00,-1.0,2413
1673,1673,16964,1492,2232,17175.13,27.12,-1.00,-1.0,2367
1676,1676,16928,1488,2316,17150.37,27.17,-1.00,-1.0,2372
1679,1679,16964,1480,2088,17155.97,27.17,-1.00,-1.0,2423
1681,1681,16956,1540,2144,17160.25,27.31,-1.00,-1.0,2367
1684,1684,16912,1468,2096,17104.50,27.12,-1.00,-1.0,2417
1687,1687,16888,1528,2084,17084.57,27.17,-1.00,-1.0,2355
1692,1692,16928,1528,2100,17126.06,27.17,-1.00,-1.0,2449
1695,1695,17032,1540,2164,17237.85,27.17,-1.00,-1.0,2371
1698,1698,16900,1392,2116,17088.74,27.17,-1.00,-1.0,2415
1700,1700,16872,1420,2116,17063.36,27.31,-1.00,-1.0,2366
1703,1703,16932,1600,2020,17126.97,27.17,-1.00,-1.0,2370
1706,1706,16924,1452,2272,17137.45,27.17,-1.00,-1.0,2431
1708,1708,16956,1488,2228,17166.37,27.26,-1.00,-1.0,2368
1711,1711,16868,1480,2124,17065.50,27.12,-1.00,-1.0,2419
1714,1714,16964,1440,2196,17166.05,27.12,-1.00,-1.0,2366
1719,1719,16856,1488,2060,17046.48,27.31,-1.00,-1.0,2442
1722,1722,16924,1404,2088,17110.02,27.17,-1.00,-1.0,2371
1725,1725,16904,1512,2204,17114.00,27.26,-1.00,-1.0,2425
1727,1727,16896,1520,2056,17088.37,27.26,-1.00,-1.0,2370
1730,1730,16988,1468,2196,17192.14,27.17,-1.00,-1.0,2421
1733,1733,16836,1472,2040,17022.90,27.21,-1.00,-1.0,2366
1735,1735,17004,1472,2172,17205.24,27.17,-1.00,-1.0,2364
1738,1738,16932,1480,2132,17129.75,27.17,-1.00,-1.0,2419
1741,1741,16916,1568,2156,17124.78,27.21,-1.00,-1.0,2367
1746,1746,16984,1600,2124,17190.92,27.31,-1.00,-1.0,2440
1749,1749,16840,1480,2164,17042.86,27.17,-1.00,-1.0,2372
1752,1752,16984,1488,2012,17167.37,27.21,-1.00,-1.0,2423
1754,1754,16984,1536,2152,17188.56,27.17,-1.00,-1.0,2367
1757,1757,16924,1488,2136,17123.04,27.21,-1.00,-1.0,2426
1760,1760,16864,1408,2208,17066.11,27.17,-1.00,-1.0,2374
1762,1762,16908,1424,2152,17103.78,27.12,-1.00,-1.0,2372
1765,1765,16924,1600,2116,17130.65,27.17,-1.00,-1.0,2418
1768,1768,16896,1504,2096,17091.81,27.17,-1.00,-1.0,2367
1773,1773,16852,1548,2080,17050.30,27.21,-1.00,-1.0,2442
1776,1776,16872,1500,2112,17069.71,27.17,-1.00,-1.0,2373
1779,1779,16848,1504,2080,17042.40,27.17,-1.00,-1.0,2415
1781,1781,16964,1424,2148,17158.64,27.17,-1.00,-1.0,2365
1784,1784,16928,1564,2220,17144.44,27.17,-1.00,-1.0,2417
1787,1787,16888,1456,2144,17085.70,27.21,-1.00,-1.0,2368
1789,1789,17016,1568,2232,17233.24,27.26,-1.00,-1.0,2359
1792,1792,16972,1436,2224,17177.22,27.17,-1.00,-1.0,2423
1795,1795,16948,1528,2108,17146.81,27.26,-1.00,-1.0,2362
1800,1800,16924,1464,2116,17118.48,27.26,-1.00,-1.0,2433
1803,1803,16924,1600,2048,17122.38,27.21,-1.00,-1.0,2363
1806,1806,16980,1592,2180,17193.23,27.17,-1.00,-1.0,2417
1808,1808,16896,1524,2112,17095.55,27.31,-1.00,-1.0,2373
1811,1811,16944,1584,2116,17148.93,27.21,-1.00,-1.0,2425
1814,1814,16936,1512,2052,17126.73,27.21,-1.00,-1.0,2374
1816,1816,16944,1500,2092,17138.42,27.17,-1.00,-1.0,2356
1819,1819,16956,1532,2152,17160.54,27.21,-1.00,-1.0,2419
1822,1822,16956,1468,2148,17154.44,27.17,-1.00,-1.0,2368
1827,1827,16996,1520,2184,17203.03,27.17,-1.00,-1.0,2435
1830,1830,16876,1544,2324,17105.10,27.17,-1.00,-1.0,2364
1833,1833,17000,1364,2260,17203.72,27.17,-1.00,-1.0,2418
1835,1835,16944,1500,2184,17149.90,27.21,-1.00,-1.0,2374
1838,1838,16916,1468,2088,17107.48,27.17,-1.00,-1.0,2430
1841,1841,16976,1520,2048,17166.52,27.31,-1.00,-1.0,2371
1843,1843,16936,1440,1948,17108.37,27.26,-1.00,-1.0,2365
1846,1846,16992,1436,2160,17188.83,27.21,-1.00,-1.0,2437
1849,1849,16864,1464,2088,17055.72,27.21,-1.00,-1.0,2367
1854,1854,16988,1496,2132,17186.49,27.21,-1.00,-1.0,2434
1857,1857,16928,1408,2164,17123.74,27.17,-1.00,-1.0,2363
1860,1860,16884,1476,2088,17076.53,27.26,-1.00,-1.0,2418
1862,1862,16972,1488,2128,17169.49,27.26,-1.00,-1.0,2370
1865,1865,16992,1416,2064,17175.37,27.17,-1.00,-1.0,2420
1868,1868,16992,1468,2168,17192.54,27.21,-1.00,-1.0,2367
1870,1870,16892,1352,2140,17080.61,27.17,-1.00,-1.0,2364
1873,1873,16828,1472,2224,17038.03,27.26,-1.00,-1.0,2428
1876,1876,16992,1480,2080,17182.69,27.21,-1.00,-1.0,2368
1881,1881,17020,1552,2288,17243.09,27.21,-1.00,-1.0,2436
1884,1884,16964,1464,2324,17184.92,27.17,-1.00,-1.0,2363
1887,1887,16888,1536,2108,17088.23,27.17,-1.00,-1.0,2416
1889,1889,16984,1508,2096,17179.16,27.17,-1.00,-1.0,2369
1892,1892,16936,1428,2132,17129.29,27.17,-1.00,-1.0,2419
1895,1895,16944,1440,2108,17135.24,27.17,-1.00,-1.0,2370
1897,1897,16908,1432,2100,17097.98,27.26,-1.00,-1.0,2362
1900,1900,16900,1544,2100,17099.82,27.17,-1.00,-1.0,2427
1903,1903,16992,1512,1964,17171.82,27.17,-1.00,-1.0,2374
1908,1908,16892,1464,2164,17092.86,27.12,-1.00,-1.0,2435
1911,1911,16864,1508,2040,17053.74,27.21,-1.00,-1.0,2362
1914,1914,16916,1536,2124,17117.88,27.21,-1.00,-1.0,2425
1916,1916,16928,1484,2016,17112.09,27.17,-1.00,-1.0,2365
1919,1919,17020,1556,2132,17223.44,27.21,-1.00,-1.0,2420
1922,1922,16936,1428,2044,17118.56,27.17,-1.00,-1.0,2352
1924,1924,16988,1508,2052,17177.80,27.21,-1.00,-1.0,2362
1927,1927,16968,1588,2088,17169.58,27.26,-1.00,-1.0,2409
1930,1930,16984,1496,2220,17193.68,27.26,-1.00,-1.0,2372
1935,1935,17036,1508,2076,17228.15,27.26,-1.00,-1.0,2436
1938,1938,16928,1496,2296,17148.38,27.31,-1.00,-1.0,2362
1941,1941,16956,1492,2168,17159.03,27.21,-1.00,-1.0,2418
1943,1943,16960,1484,2140,17158.77,27.21,-1.00,-1.0,2366
1946,1946,17000,1488,2164,17201.66,27.21,-1.00,-1.0,2423
1949,1949,16984,1456,2176,17184.62,27.17,-1.00,-1.0,2366
1951,1951,16852,1368,2180,17047.40,27.21,-1.00,-1.0,2362
1954,1954,16924,1500,2192,17131.16,27.21,-1.00,-1.0,2420
1957,1957,16940,1524,2188,17148.57,27.12,-1.00,-1.0,2368
1962,1962,16964,1388,1944,17131.35,27.17,-1.00,-1.0,2442
1965,1965,17076,1504,2168,17278.66,27.17,-1.00,-1.0,2363
1968,1968,16940,1464,2072,17128.93,27.07,-1.00,-1.0,2424
1970,1970,16940,1432,2112,17131.11,27.21,-1.00,-1.0,2366
1973,1973,16928,1464,2236,17137.68,27.26,-1.00,-1.0,2419
1976,1976,16948,1468,2100,17140.59,27.21,-1.00,-1.0,2366
1979,1979,16892,1464,2008,17073.81,27.17,-1.00,-1.0,2362
1981,1981,16844,1400,2192,17043.63,27.21,-1.00,-1.0,2419
1984,1984,16916,1456,2096,17107.43,27.21,-1.00,-1.0,2366
1989,1989,16992,1452,2244,17200.93,27.21,-1.00,-1.0,2435
1992,1992,17004,1492,2124,17200.97,27.21,-1.00,-1.0,2363
1995,1995,16924,1484,2088,17116.77,27.21,-1.00,-1.0,2418
1997,1997,16972,1396,2156,17165.25,27.26,-1.00,-1.0,2374
2000,2000,16876,1492,2188,17082.53,27.21,-1.00,-1.0,2428
2003,2003,16956,1500,2212,17165.34,27.17,-1.00,-1.0,2372
2005,2005,16976,1436,2116,17167.53,27.21,-1.00,-1.0,2362
2009,2009,16928,1464,2108,17121.45,27.26,-1.00,-1.0,2420
2011,2011,16876,1460,2164,17076.71,27.21,-1.00,-1.0,2366
2016,2016,16956,1436,2120,17148.25,27.12,-1.00,-1.0,2434
2019,2019,16996,1516,2068,17188.34,27.12,-1.00,-1.0,2364
2022,2022,16884,1464,2112,17078.45,27.21,-1.00,-1.0,2417
2024,2024,16864,1400,2080,17049.37,27.12,-1.00,-1.0,2374
2027,2027,16936,1436,2000,17114.04,27.12,-1.00,-1.0,2429
2030,2030,16956,1532,2240,17171.79,27.17,-1.00,-1.0,2372
2032,2032,16892,1392,2076,17075.92,27.17,-1.00,-1.0,2362
2036,2036,17020,1440,2044,17202.67,27.26,-1.00,-1.0,2421
2038,2038,16888,1424,2124,17080.51,27.17,-1.00,-1.0,2365
2043,2043,16928,1440,2128,17121.89,27.21,-1.00,-1.0,2433
2046,2046,16896,1480,2132,17094.17,27.21,-1.00,-1.0,2365
2049,2049,16964,1508,2164,17167.83,27.21,-1.00,-1.0,2418
2052,2052,16880,1468,2068,17069.45,27.07,-1.00,-1.0,2370
2054,2054,16956,1372,2028,17131.87,27.21,-1.00,-1.0,2427
2057,2057,16968,1428,2240,17174.69,27.26,-1.00,-1.0,2366
2060,2060,16824,1508,2076,17018.54,27.21,-1.00,-1.0,2364
2063,2063,16952,1452,2168,17151.64,27.26,-1.00,-1.0,2418
2066,2066,16960,1500,2212,17169.29,27.17,-1.00,-1.0,2366
2070,2070,16948,1444,2156,17145.50,27.26,-1.00,-1.0,2435
2073,2073,16904,1464,2028,17088.04,27.21,-1.00,-1.0,2361
2076,2076,16984,1464,2156,17182.78,27.17,-1.00,-1.0,2417
2079,2079,16972,1452,2192,17174.46,27.21,-1.00,-1.0,2371
2081,2081,16904,1452,2132,17099.68,27.21,-1.00,-1.0,2427
2084,2084,16924,1536,2068,17118.93,27.31,-1.00,-1.0,2373
2087,2087,16916,1484,2236,17127.55,27.21,-1.00,-1.0,2362
2090,2090,16952,1476,2208,17158.79,27.21,-1.00,-1.0,2426
2093,2093,17020,1532,2152,17223.78,27.26,-1.00,-1.0,2365
2098,2098,16828,1448,2116,17022.21,27.17,-1.00,-1.0,2434
2100,2100,16940,1536,2064,17134.26,27.26,-1.00,-1.0,2361
2103,2103,16828,1488,2108,17024.67,27.17,-1.00,-1.0,2418
2106,2106,16928,1404,2084,17113.49,27.21,-1.00,-1.0,2368
2108,2108,16876,1472,2136,17074.21,27.17,-1.00,-1.0,2410
2111,2111,16912,1460,2104,17104.80,27.21,-1.00,-1.0,2373
2114,2114,16988,1368,2100,17171.88,27.21,-1.00,-1.0,2423
2117,2117,16932,1488,2148,17132.45,27.21,-1.00,-1.0,2372
2120,2120,16976,1432,2008,17154.22,27.21,-1.00,-1.0,2367
2125,2125,16956,1440,2116,17148.09,27.26,-1.00,-1.0,2435
2127,2127,16956,1456,2204,17160.52,27.17,-1.00,-1.0,2362
2130,2130,16968,1492,2124,17165.38,27.17,-1.00,-1.0,2416
2133,2133,16976,1528,2060,17168.66,27.26,-1.00,-1.0,2365
2135,2135,17024,1492,2072,17214.41,27.17,-1.00,-1.0,2419
2138,2138,16864,1508,2152,17067.50,27.21,-1.00,-1.0,2373
2141,2141,16992,1496,2004,17175.04,27.26,-1.00,-1.0,2422
2144,2144,16828,1528,2096,17026.73,27.21,-1.00,-1.0,2371
2147,2147,16896,1444,2144,17092.59,27.21,-1.00,-1.0,2362
2152,2152,16968,1488,2252,17181.35,27.31,-1.00,-1.0,2435
2154,2154,17008,1384,2144,17198.38,27.12,-1.00,-1.0,2361
2157,2157,16936,1532,2096,17133.84,27.12,-1.00,-1.0,2417
2160,2160,16972,1476,2200,17177.53,27.17,-1.00,-1.0,2365
2162,2162,16948,1508,2264,17164.92,27.26,-1.00,-1.0,2421
2165,2165,17032,1520,2232,17244.75,27.17,-1.00,-1.0,2368
2168,2168,16920,1500,2084,17113.72,27.07,-1.00,-1.0,2421
2171,2171,16904,1540,2064,17099.03,27.26,-1.00,-1.0,2366
2174,2174,16904,1480,2124,17101.08,27.26,-1.00,-1.0,2363
2179,2179,16932,1524,2324,17158.56,27.21,-1.00,-1.0,2435
2181,2181,16984,1556,2136,17188.37,27.21,-1.00,-1.0,2361
2184,2184,16844,1464,2248,17056.29,27.21,-1.00,-1.0,2413
2187,2187,16992,1528,2188,17200.30,27.17,-1.00,-1.0,2368
2189,2189,16920,1420,2012,17098.27,27.26,-1.00,-1.0,2420
2192,2192,16976,1464,2252,17187.19,27.17,-1.00,-1.0,2365
2195,2195,17008,1552,2184,17217.74,27.17,-1.00,-1.0,2421
2198,2198,16940,1492,2104,17135.24,27.26,-1.00,-1.0,2368
2201,2201,16980,1432,2276,17191.60,27.17,-1.00,-1.0,2364
2205,2205,16864,1500,2108,17061.31,27.17,-1.00,-1.0,2434
2208,2208,16864,1420,2140,17058.44,27.17,-1.00,-1.0,2350
2211,2211,16984,1420,2136,17176.59,27.17,-1.00,-1.0,2419
2214,2214,16920,1440,2144,17115.98,27.07,-1.00,-1.0,2374
2216,2216,16940,1364,2088,17122.61,27.26,-1.00,-1.0,2427
2219,2219,16960,1536,2156,17165.35,27.21,-1.00,-1.0,2366
2222,2222,16968,1408,2216,17169.92,27.17,-1.00,-1.0,2426
2225,2225,16832,1432,2180,17032.89,27.17,-1.00,-1.0,2366
2228,2228,16884,1552,2064,17080.35,27.12,-1.00,-1.0,2362
2233,2233,16972,1472,2156,17171.60,27.17,-1.00,-1.0,2440
2235,2235,16948,1476,2156,17148.22,27.26,-1.00,-1.0,2365
2238,2238,16852,1456,2124,17047.62,27.17,-1.00,-1.0,2432
2241,2241,16996,1556,2152,17202.22,27.21,-1.00,-1.0,2372
2244,2244,16956,1524,2140,17158.32,27.17,-1.00,-1.0,2420
2246,2246,16888,1432,2044,17071.41,27.21,-1.00,-1.0,2365
2249,2249,16880,1480,2132,17078.36,27.12,-1.00,-1.0,2420
2252,2252,16884,1440,2036,17067.17,27.31,-1.00,-1.0,2365
2255,2255,16864,1416,2164,17061.14,27.21,-1.00,-1.0,2362
2260,2260,16936,1600,1992,17127.64,27.17,-1.00,-1.0,2438
2262,2262,16948,1456,2136,17144.01,27.26,-1.00,-1.0,2364
2265,2265,16808,1576,2152,17018.34,27.17,-1.00,-1.0,2432
2268,2268,16980,1544,2112,17180.36,27.17,-1.00,-1.0,2368
2271,2271,16924,1460,2112,17117.65,27.17,-1.00,-1.0,2421
2273,2273,16984,1488,2164,17185.85,27.21,-1.00,-1.0,2365
2276,2276,16904,1476,2180,17107.78,27.17,-1.00,-1.0,2420
2279,2279,16972,1452,2152,17169.40,27.12,-1.00,-1.0,2365
2282,2282,16900,1432,2136,17094.54,27.21,-1.00,-1.0,2362
2287,2287,16912,1436,2104,17102.77,27.31,-1.00,-1.0,2435
2289,2289,16896,1508,2004,17081.13,27.17,-1.00,-1.0,2373
2292,2292,16932,1376,2048,17110.82,27.21,-1.00,-1.0,2427
2295,2295,16972,1536,2076,17167.35,27.26,-1.00,-1.0,2373
2298,2298,16924,1440,2064,17110.10,27.17,-1.00,-1.0,2432
2300,2300,16964,1360,2200,17160.04,27.17,-1.00,-1.0,2369
2303,2303,16888,1468,2120,17083.73,27.26,-1.00,-1.0,2418
2306,2306,16876,1492,2068,17067.57,27.17,-1.00,-1.0,2373
2309,2309,16880,1520,2080,17075.46,27.26,-1.00,-1.0,2369
2314,2314,16872,1564,2276,17096.51,27.12,-1.00,-1.0,2435
2316,2316,16908,1460,2196,17112.41,27.26,-1.00,-1.0,2370
2319,2319,16972,1512,2112,17169.61,27.12,-1.00,-1.0,2419
2322,2322,16852,1468,2080,17043.22,27.31,-1.00,-1.0,2367
2325,2325,16984,1468,2212,17190.24,27.21,-1.00,-1.0,2426
2327,2327,16948,1488,2276,17164.76,27.26,-1.00,-1.0,2369
2330,2330,16916,1524,2052,17108.02,27.21,-1.00,-1.0,2435
2333,2333,16952,1564,2304,17179.20,27.17,-1.00,-1.0,2368
2336,2336,16848,1500,2120,17046.98,27.26,-1.00,-1.0,2364
2341,2341,16844,1460,2308,17063.96,27.17,-1.00,-1.0,2433
2343,2343,16936,1368,2096,17119.95,27.21,-1.00,-1.0,2370
2346,2346,16920,1500,2072,17112.26,27.17,-1.00,-1.0,2419
2349,2349,16880,1412,2144,17074.10,27.21,-1.00,-1.0,2367
2352,2352,16824,1456,2156,17023.96,27.12,-1.00,-1.0,2424
2354,2354,16884,1356,2144,17073.52,27.07,-1.00,-1.0,2371
2357,2357,16964,1476,2104,17157.58,27.21,-1.00,-1.0,2435
2360,2360,16904,1524,2036,17094.24,27.21,-1.00,-1.0,2373
2363,2363,16940,1472,2180,17143.01,27.21,-1.00,-1.0,2369
2368,2368,17036,1540,2184,17244.33,27.26,-1.00,-1.0,2441
2370,2370,16992,1500,2172,17195.80,27.17,-1.00,-1.0,2365
2373,2373,16904,1512,2088,17099.45,27.17,-1.00,-1.0,2418
2376,2376,16968,1540,2196,17178.68,27.21,-1.00,-1.0,2352
2379,2379,16984,1464,2268,17197.19,27.21,-1.00,-1.0,2426
2381,2381,16892,1460,2032,17076.31,27.26,-1.00,-1.0,2371
2384,2384,16940,1496,1992,17122.20,27.12,-1.00,-1.0,2433
2387,2387,16956,1456,2116,17149.44,27.21,-1.00,-1.0,2369
2390,2390,16936,1516,2112,17134.38,27.31,-1.00,-1.0,2366
2395,2395,16932,1472,1984,17111.27,27.31,-1.00,-1.0,2442
2397,2397,16900,1536,2268,17120.55,27.17,-1.00,-1.0,2363
2400,2400,16924,1532,2156,17129.42,27.26,-1.00,-1.0,2419
2403,2403,17040,1424,2256,17247.58,27.35,-1.00,-1.0,2367
2406,2406,16912,1500,2120,17110.23,27.17,-1.00,-1.0,2418
2408,2408,16928,1404,2136,17119.90,27.21,-1.00,-1.0,2371
2411,2411,16888,1432,2168,17086.70,27.26,-1.00,-1.0,2420
2414,2414,16880,1624,2028,17078.78,27.21,-1.00,-1.0,2365
2417,2417,16964,1492,2116,17160.44,27.21,-1.00,-1.0,2363
2422,2422,16952,1500,2296,17172.42,27.26,-1.00,-1.0,2439
2424,2424,16908,1412,2000,17084.33,27.21,-1.00,-1.0,2369
2427,2427,16888,1520,2100,17085.81,27.17,-1.00,-1.0,2428
2430,2430,16932,1560,2092,17131.92,27.31,-1.00,-1.0,2376
2433,2433,16964,1436,2228,17169.84,27.21,-1.00,-1.0,2428
2435,2435,16924,1436,2108,17115.12,27.17,-1.00,-1.0,2365
2438,2438,16908,1352,2144,17096.93,27.17,-1.00,-1.0,2459
2441,2441,16912,1448,2288,17127.39,27.17,-1.00,-1.0,2370
2444,2444,16924,1524,2164,17129.72,27.17,-1.00,-1.0,2365
2449,2449,16888,1420,2260,17097.62,27.17,-1.00,-1.0,2437
2451,2451,17008,1472,2060,17195.42,27.26,-1.00,-1.0,2373
2454,2454,16964,1532,2044,17155.24,27.26,-1.00,-1.0,2426
2457,2457,16904,1440,2204,17107.79,27.21,-1.00,-1.0,2372
2460,2460,16936,1468,2084,17126.77,27.17,-1.00,-1.0,2432
2462,2462,16932,1580,2180,17144.72,27.21,-1.00,-1.0,2365
2465,2465,16836,1572,2044,17032.32,27.21,-1.00,-1.0,2429
2468,2468,16844,1496,2160,17047.70,27.17,-1.00,-1.0,2366
2471,2471,16988,1484,2140,17186.45,27.17,-1.00,-1.0,2363
2476,2476,16932,1396,2036,17111.01,27.17,-1.00,-1.0,2425
2479,2479,16996,1392,2268,17203.07,27.31,-1.00,-1.0,2363
2481,2481,16872,1576,2072,17071.65,27.17,-1.00,-1.0,2431
2484,2484,16836,1528,2240,17052.96,27.31,-1.00,-1.0,2364
2487,2487,16984,1528,2096,17180.93,27.12,-1.00,-1.0,2425
2489,2489,16936,1476,2180,17139.40,27.31,-1.00,-1.0,2365
2492,2492,16952,1520,2180,17159.05,27.17,-1.00,-1.0,2421
2495,2495,16904,1520,2092,17100.65,27.31,-1.00,-1.0,2366
2500,2500,16908,1476,2100,17101.73,27.17,-1.00,-1.0,2437
2503,2503,17008,1464,2208,17213.09,27.26,-1.00,-1.0,2367
2505,2505,16968,1536,2192,17177.81,27.26,-1.00,-1.0,2361
2508,2508,16880,1432,2156,17077.28,27.21,-1.00,-1.0,2419
2511,2511,16884,1420,2036,17065.50,27.26,-1.00,-1.0,2365
2513,2513,17020,1604,2272,17245.73,27.17,-1.00,-1.0,2425
2516,2516,16948,1524,2284,17168.98,27.17,-1.00,-1.0,2372
2519,2519,17036,1544,2072,17230.86,27.12,-1.00,-1.0,2422
2522,2522,17028,1476,2104,17220.87,27.21,-1.00,-1.0,2366
2527,2527,16940,1560,2132,17144.76,27.21,-1.00,-1.0,2434
2530,2530,17012,1488,2208,17219.10,27.17,-1.00,-1.0,2369
2532,2532,16860,1472,2124,17056.90,27.17,-1.00,-1.0,2357
2535,2535,16976,1460,2180,17177.56,27.21,-1.00,-1.0,2419
2538,2538,16956,1472,2152,17155.29,27.26,-1.00,-1.0,2366
2540,2540,16864,1552,2132,17068.94,27.21,-1.00,-1.0,2418
2543,2543,16944,1476,2112,17138.79,27.26,-1.00,-1.0,2381
2546,2546,16984,1444,2096,17173.66,27.17,-1.00,-1.0,2420
2549,2549,16932,1508,2096,17127.75,27.21,-1.00,-1.0,2366
2554,2554,16952,1428,2180,17151.15,27.31,-1.00,-1.0,2435
2557,2557,17028,1444,2192,17229.13,27.21,-1.00,-1.0,2366
2559,2559,16872,1504,2176,17078.10,27.12,-1.00,-1.0,2357
2562,2562,16952,1524,2264,17170.28,27.21,-1.00,-1.0,2422
2565,2565,16968,1468,2092,17159.38,27.21,-1.00,-1.0,2364
2567,2567,16976,1508,2136,17176.18,27.21,-1.00,-1.0,2417
2570,2570,16972,1532,1996,17157.50,27.17,-1.00,-1.0,2373
2573,2573,17044,1464,2188,17246.12,27.26,-1.00,-1.0,2429
2576,2576,16792,1512,2096,16989.72,27.17,-1.00,-1.0,2366
2581,2581,17000,1424,2232,17204.93,27.31,-1.00,-1.0,2434
2584,2584,16828,1460,2092,17020.27,27.21,-1.00,-1.0,2363
2586,2586,17040,1548,2320,17266.74,27.21,-1.00,-1.0,2354
2589,2589,16940,1428,2188,17140.31,27.26,-1.00,-1.0,2420
2592,2592,16904,1452,2112,17097.20,27.21,-1.00,-1.0,2364
2594,2594,16920,1452,2104,17112.03,27.21,-1.00,-1.0,2414
2597,2597,16880,1504,2080,17074.04,27.17,-1.00,-1.0,2372
2600,2600,16992,1564,2060,17187.72,27.26,-1.00,-1.0,2433
2603,2603,16932,1396,2236,17135.96,27.17,-1.00,-1.0,2373
2608,2608,16916,1540,2172,17124.26,27.17,-1.00,-1.0,2433
2611,2611,16984,1512,2204,17193.02,27.21,-1.00,-1.0,2362
2613,2613,16948,1420,2220,17151.66,27.26,-1.00,-1.0,2357
2616,2616,16956,1472,2204,17161.89,27.17,-1.00,-1.0,2419
2619,2619,16900,1508,2148,17102.57,27.17,-1.00,-1.0,2364
2622,2622,16948,1520,2024,17135.98,27.17,-1.00,-1.0,2416
2624,2624,16864,1468,2128,17061.01,27.12,-1.00,-1.0,2366
2627,2627,16872,1468,2284,17089.06,27.31,-1.00,-1.0,2429
2630,2630,16988,1456,2092,17178.14,27.26,-1.00,-1.0,2381
2636,2636,16968,1536,2088,17164.85,27.21,-1.00,-1.0,2440
2638,2638,16908,1488,2228,17118.96,27.17,-1.00,-1.0,2362
2641,2641,16980,1516,2148,17182.33,27.31,-1.00,-1.0,2357
2644,2644,16952,1480,2152,17152.02,27.21,-1.00,-1.0,2427
2646,2646,16960,1500,2200,17167.75,27.21,-1.00,-1.0,2367
2649,2649,16908,1552,2076,17105.52,27.21,-1.00,-1.0,2434
2652,2652,16956,1552,2204,17168.93,27.26,-1.00,-1.0,2366
2655,2655,16960,1416,2428,17191.33,27.12,-1.00,-1.0,2421
2657,2657,16972,1468,2272,17186.21,27.17,-1.00,-1.0,2366
2662,2662,16924,1476,2068,17113.65,27.17,-1.00,-1.0,2434
2665,2665,16880,1516,2032,17069.32,27.17,-1.00,-1.0,2363
2667,2667,16904,1440,2220,17109.86,27.35,-1.00,-1.0,2355
2670,2670,16888,1452,2200,17092.48,27.17,-1.00,-1.0,2427
2673,2673,16932,1556,2144,17137.98,27.17,-1.00,-1.0,2371
2676,2676,17036,1532,2176,17242.60,27.26,-1.00,-1.0,2418
2678,2678,16980,1552,2240,17197.29,27.17,-1.00,-1.0,2365
2681,2681,16964,1512,2172,17169.19,27.26,-1.00,-1.0,2422
2684,2684,16924,1480,2116,17119.86,27.21,-1.00,-1.0,2368
2689,2689,16976,1460,2156,17174.53,27.31,-1.00,-1.0,2437
2692,2692,17076,1412,2252,17281.64,27.26,-1.00,-1.0,2363
2695,2695,16968,1440,2136,17162.43,27.21,-1.00,-1.0,2357
2697,2697,16884,1464,2028,17068.26,27.21,-1.00,-1.0,2426
2700,2700,16896,1472,2328,17119.03,27.17,-1.00,-1.0,2367
2703,2703,16972,1464,2168,17172.43,27.21,-1.00,-1.0,2423
2705,2705,16916,1516,2252,17132.45,27.17,-1.00,-1.0,2366
2708,2708,16964,1440,2088,17152.57,27.17,-1.00,-1.0,2421
2711,2711,16864,1456,2128,17059.98,27.26,-1.00,-1.0,2366
2716,2716,16956,1512,2012,17141.77,27.21,-1.00,-1.0,2450
2719,2719,16868,1484,2204,17075.99,27.21,-1.00,-1.0,2365
2721,2721,16932,1504,2144,17133.34,27.21,-1.00,-1.0,2366
2724,2724,16992,1400,2012,17167.88,27.17,-1.00,-1.0,2420
2727,2727,16956,1440,2088,17144.66,27.31,-1.00,-1.0,2372
2730,2730,16888,1488,1912,17060.90,27.21,-1.00,-1.0,2427
2732,2732,16948,1532,2180,17156.17,27.12,-1.00,-1.0,2366
2735,2735,16912,1572,1980,17099.92,27.17,-1.00,-1.0,2422
2738,2738,16960,1468,2144,17157.89,27.26,-1.00,-1.0,2365
2743,2743,16852,1508,2296,17074.41,27.26,-1.00,-1.0,2443
2746,2746,16948,1392,2024,17125.10,27.21,-1.00,-1.0,2369
2748,2748,16952,1460,2204,17156.91,27.17,-1.00,-1.0,2365
2751,2751,16856,1472,2220,17065.17,27.26,-1.00,-1.0,2420
2754,2754,16912,1452,2112,17105.10,27.21,-1.00,-1.0,2352
2757,2757,16932,1476,2124,17128.41,27.26,-1.00,-1.0,2427
2759,2759,16888,1452,2100,17079.90,27.12,-1.00,-1.0,2367
2762,2762,16868,1456,2140,17065.43,27.21,-1.00,-1.0,2421
2765,2765,16952,1556,2212,17166.37,27.21,-1.00,-1.0,2366
2770,2770,16904,1524,2040,17094.72,27.17,-1.00,-1.0,2441
2773,2773,16948,1468,2100,17140.59,27.35,-1.00,-1.0,2366
2775,2775,16916,1432,2052,17100.07,27.17,-1.00,-1.0,2344
2778,2778,16872,1400,2212,17073.88,27.26,-1.00,-1.0,2419
2781,2781,16952,1540,2188,17161.85,27.17,-1.00,-1.0,2370
2784,2784,16964,1616,2164,17177.65,27.17,-1.00,-1.0,2424
2786,2786,16912,1508,2088,17107.00,27.12,-1.00,-1.0,2368
2789,2789,16920,1416,2044,17101.74,27.31,-1.00,-1.0,2421
2792,2792,16904,1548,2040,17096.88,27.21,-1.00,-1.0,2366
2797,2797,16780,1612,2136,16992.04,27.21,-1.00,-1.0,2459
2800,2800,16912,1520,2088,17108.06,27.21,-1.00,-1.0,2367
2803,2803,16968,1448,2180,17168.64,27.17,-1.00,-1.0,2355
2805,2805,16916,1440,2260,17126.95,27.26,-1.00,-1.0,2429
2808,2808,16872,1456,2108,17065.40,27.21,-1.00,-1.0,2362
2811,2811,17108,1396,2144,17298.24,27.17,-1.00,-1.0,2429
2813,2813,16980,1484,2052,17167.80,27.21,-1.00,-1.0,2365
2816,2816,16900,1524,2144,17103.49,27.26,-1.00,-1.0,2423
2819,2819,16956,1488,2104,17150.71,27.21,-1.00,-1.0,2368
2824,2824,16796,1464,2160,16997.49,27.21,-1.00,-1.0,2433
2827,2827,16876,1440,2124,17069.98,27.17,-1.00,-1.0,2366
2829,2829,16940,1452,2160,17138.77,27.40,-1.00,-1.0,2357
2832,2832,16912,1508,2120,17110.94,27.21,-1.00,-1.0,2419
2835,2835,16940,1456,2356,17164.91,27.26,-1.00,-1.0,2365
2838,2838,16956,1388,2132,17145.78,27.31,-1.00,-1.0,2418
2840,2840,17072,1508,2156,17273.55,27.17,-1.00,-1.0,2372
2843,2843,16796,1460,2072,16986.18,27.26,-1.00,-1.0,2432
2846,2846,16828,1428,2128,17022.02,27.26,-1.00,-1.0,2369
2851,2851,17044,1480,2128,17239.97,27.17,-1.00,-1.0,2450
2854,2854,16884,1348,2112,17068.89,27.17,-1.00,-1.0,2372
2856,2856,16944,1468,2104,17137.12,27.35,-1.00,-1.0,2368
2859,2859,16992,1492,2196,17198.15,27.21,-1.00,-1.0,2426
2862,2862,16948,1512,2096,17143.92,27.26,-1.00,-1.0,2372
2865,2865,17008,1416,2276,17217.94,27.17,-1.00,-1.0,2427
2867,2867,16976,1492,2108,17171.32,27.26,-1.00,-1.0,2370
2870,2870,16944,1488,2216,17152.96,27.21,-1.00,-1.0,2427
2873,2873,16800,1508,2184,17008.35,27.26,-1.00,-1.0,2370
2878,2878,17004,1416,2200,17204.10,27.26,-1.00,-1.0,2450
2881,2881,16928,1360,2016,17101.79,27.26,-1.00,-1.0,2364
2884,2884,16864,1396,2184,17062.04,27.26,-1.00,-1.0,2417
2886,2886,16936,1532,2080,17131.89,27.12,-1.00,-1.0,2352
2889,2889,16916,1436,2224,17121.90,27.26,-1.00,-1.0,2371
2892,2892,16980,1424,2096,17168.03,27.26,-1.00,-1.0,2425
2894,2894,16976,1384,2280,17184.25,27.31,-1.00,-1.0,2374
2897,2897,17000,1512,1932,17176.11,27.21,-1.00,-1.0,2427
2900,2900,16976,1452,2124,17169.87,27.21,-1.00,-1.0,2375
2905,2905,16948,1452,1984,17125.40,27.26,-1.00,-1.0,2436
2908,2908,16936,1468,2268,17150.13,27.17,-1.00,-1.0,2363
2911,2911,17020,1512,2144,17221.01,27.17,-1.00,-1.0,2423
2913,2913,17008,1428,2148,17202.47,27.31,-1.00,-1.0,2366
2916,2916,16920,1488,2252,17133.94,27.26,-1.00,-1.0,2361
2919,2919,16996,1476,2036,17181.03,27.26,-1.00,-1.0,2429
2921,2921,16980,1448,1984,17156.73,27.26,-1.00,-1.0,2365
2924,2924,16868,1512,2208,17078.96,27.21,-1.00,-1.0,2422
2927,2927,16916,1476,2148,17115.59,27.21,-1.00,-1.0,2373
2932,2932,16952,1464,2192,17155.71,27.21,-1.00,-1.0,2443
2935,2935,16960,1436,2104,17150.23,27.17,-1.00,-1.0,2362
2938,2938,16972,1460,2124,17166.59,27.35,-1.00,-1.0,2423
2940,2940,16896,1396,2104,17083.63,27.26,-1.00,-1.0,2366
2943,2943,16912,1464,2068,17100.75,27.31,-1.00,-1.0,2369
2946,2946,16912,1516,2068,17105.28,27.21,-1.00,-1.0,2426
2949,2949,17036,1592,2132,17242.54,27.17,-1.00,-1.0,2366
2951,2951,16988,1496,2224,17198.15,27.17,-1.00,-1.0,2419
2954,2954,16996,1460,2056,17182.05,27.12,-1.00,-1.0,2369
2959,2959,16916,1428,1972,17090.32,27.31,-1.00,-1.0,2444
2962,2962,16900,1468,2084,17091.17,27.31,-1.00,-1.0,2369
2965,2965,17004,1480,2048,17190.72,27.21,-1.00,-1.0,2425
2968,2968,16892,1512,2160,17096.53,27.26,-1.00,-1.0,2365
2970,2970,16932,1444,1968,17107.04,27.21,-1.00,-1.0,2376
2973,2973,16836,1428,2120,17028.93,27.21,-1.00,-1.0,2423
2976,2976,17044,1432,2184,17242.92,27.21,-1.00,-1.0,2365
2978,2978,16912,1528,2028,17101.56,27.17,-1.00,-1.0,2421
2981,2981,16924,1408,2212,17125.92,27.17,-1.00,-1.0,2365
2986,2986,16928,1440,2096,17117.94,27.26,-1.00,-1.0,2442
2989,2989,17000,1528,2088,17195.77,27.21,-1.00,-1.0,2375
2992,2992,16880,1360,1972,17049.13,27.31,-1.00,-1.0,2412
2995,2995,16860,1400,2004,17036.30,27.21,-1.00,-1.0,2365
2997,2997,16924,1504,2136,17124.44,27.12,-1.00,-1.0,2364
3000,3000,16960,1332,2216,17155.95,27.26,-1.00,-1.0,2420
3003,3003,16964,1448,2276,17177.14,27.21,-1.00,-1.0,2367
3006,3006,16904,1420,2136,17097.49,27.17,-1.00,-1.0,2421
3008,3008,16920,1444,2004,17099.34,27.17,-1.00,-1.0,2366
3013,3013,16940,1532,2172,17147.25,27.26,-1.00,-1.0,2436
3016,3016,16944,1476,2076,17134.39,27.31,-1.00,-1.0,2377
3019,3019,16916,1512,2188,17123.80,27.17,-1.00,-1.0,2417
3022,3022,16912,1496,2104,17107.91,27.21,-1.00,-1.0,2368
3024,3024,16800,1476,2180,17005.03,27.26,-1.00,-1.0,2363
3027,3027,16928,1532,2196,17138.46,27.26,-1.00,-1.0,2419
3030,3030,16952,1504,1908,17125.21,27.21,-1.00,-1.0,2371
3033,3033,16960,1352,2020,17133.30,27.21,-1.00,-1.0,2419
3035,3035,16932,1408,2160,17127.19,27.31,-1.00,-1.0,2366
3040,3040,16968,1476,2196,17173.06,27.17,-1.00,-1.0,2435
3043,3043,16996,1368,2184,17190.27,27.26,-1.00,-1.0,2355
3046,3046,17004,1524,2172,17209.77,27.26,-1.00,-1.0,2417
3049,3049,16932,1500,2224,17143.19,27.12,-1.00,-1.0,2372
3051,3051,16872,1476,2228,17082.36,27.35,-1.00,-1.0,2361
3054,3054,17000,1496,2036,17186.72,27.26,-1.00,-1.0,2419
3057,3057,16848,1420,2084,17035.69,27.17,-1.00,-1.0,2370
3060,3060,16984,1508,2096,17179.16,27.21,-1.00,-1.0,2421
3063,3063,16932,1520,2220,17144.43,27.21,-1.00,-1.0,2365
3067,3067,16920,1456,2172,17120.86,27.31,-1.00,-1.0,2434
3070,3070,16852,1588,2068,17052.52,27.31,-1.00,-1.0,2364
3073,3073,16928,1420,2112,17118.24,27.21,-1.00,-1.0,2422
3075,3075,16848,1348,2116,17033.78,27.31,-1.00,-1.0,2365
3078,3078,17012,1464,2260,17223.79,27.21,-1.00,-1.0,2363
3081,3081,16956,1532,2064,17149.72,27.21,-1.00,-1.0,2427
3084,3084,16836,1468,2196,17041.96,27.21,-1.00,-1.0,2366
3087,3087,16840,1500,2132,17040.57,27.26,-1.00,-1.0,2422
3090,3090,16928,1460,2176,17129.62,27.31,-1.00,-1.0,2366
3094,3094,16928,1464,2096,17119.98,27.26,-1.00,-1.0,2437
3097,3097,16856,1524,2108,17055.53,27.31,-1.00,-1.0,2364
3100,3100,16912,1476,2104,17106.17,27.12,-1.00,-1.0,2424
3102,3102,17008,1564,2228,17224.46,27.21,-1.00,-1.0,2365
3105,3105,16924,1460,2152,17122.63,27.21,-1.00,-1.0,2361
3108,3108,16852,1432,1964,17026.39,27.35,-1.00,-1.0,2429
3111,3111,16928,1532,2284,17149.95,27.26,-1.00,-1.0,2367
3114,3114,16900,1468,2168,17101.62,27.26,-1.00,-1.0,2432
3117,3117,16888,1452,2112,17081.38,27.17,-1.00,-1.0,2368
3122,3122,16928,1548,2128,17131.31,27.26,-1.00,-1.0,2464
3125,3125,16988,1464,2100,17179.80,27.26,-1.00,-1.0,2368
3127,3127,16932,1456,1996,17111.30,27.26,-1.00,-1.0,2430
3130,3130,16880,1532,2056,17073.62,27.12,-1.00,-1.0,2366
3133,3133,17008,1500,2036,17194.98,27.17,-1.00,-1.0,2362
3135,3135,16856,1428,2084,17044.27,27.26,-1.00,-1.0,2427
3138,3138,16944,1428,2304,17159.45,27.26,-1.00,-1.0,2371
3141,3141,16880,1528,2156,17085.59,27.26,-1.00,-1.0,2423
3144,3144,17000,1468,2072,17188.61,27.26,-1.00,-1.0,2376
3149,3149,16924,1408,2088,17110.35,27.26,-1.00,-1.0,2434
3151,3151,16912,1480,2056,17100.68,27.21,-1.00,-1.0,2362
3154,3154,16908,1460,2200,17112.92,27.26,-1.00,-1.0,2419
3157,3157,16960,1416,2152,17154.53,27.21,-1.00,-1.0,2364
3159,3159,16904,1476,2052,17091.94,27.17,-1.00,-1.0,2357
3162,3162,16848,1540,2112,17049.55,27.26,-1.00,-1.0,2420
3165,3165,16848,1476,2148,17048.39,27.21,-1.00,-1.0,2365
3168,3168,16956,1436,2060,17140.93,27.31,-1.00,-1.0,2422
3171,3171,16912,1460,2088,17102.84,27.26,-1.00,-1.0,2366
3176,3176,16948,1436,2056,17132.54,27.17,-1.00,-1.0,2434
3178,3178,16904,1484,2256,17118.32,27.26,-1.00,-1.0,2362
3181,3181,16984,1528,2124,17184.37,27.17,-1.00,-1.0,2417
3184,3184,16964,1428,2132,17156.98,27.21,-1.00,-1.0,2365
3186,3186,16940,1492,2184,17145.25,27.17,-1.00,-1.0,2363
3189,3189,17000,1388,2196,17197.35,27.17,-1.00,-1.0,2420
3192,3192,16968,1464,2108,17161.00,27.26,-1.00,-1.0,2365
3195,3195,16892,1552,2072,17089.22,27.21,-1.00,-1.0,2421
3198,3198,16952,1508,2144,17153.46,27.21,-1.00,-1.0,2364
3203,3203,16904,1480,2004,17086.59,27.17,-1.00,-1.0,2435
3205,3205,16932,1504,2008,17116.85,27.17,-1.00,-1.0,2365
3208,3208,16964,1468,2204,17169.45,27.17,-1.00,-1.0,2416
3211,3211,16868,1432,2276,17080.99,27.17,-1.00,-1.0,2366
3213,3213,16940,1492,2084,17132.80,27.17,-1.00,-1.0,2364
3216,3216,16996,1536,2252,17213.22,27.21,-1.00,-1.0,2434
3219,3219,16916,1456,2244,17126.19,27.17,-1.00,-1.0,2374
3222,3222,16844,1456,2104,17037.23,27.26,-1.00,-1.0,2421
3225,3225,16948,1548,2156,17154.57,27.21,-1.00,-1.0,2364
3230,3230,16844,1404,2112,17033.85,27.21,-1.00,-1.0,2439
3232,3232,17000,1520,2220,17211.59,27.26,-1.00,-1.0,2362
3235,3235,16928,1540,2128,17130.59,27.31,-1.00,-1.0,2426
3238,3238,16948,1564,2080,17146.64,27.26,-1.00,-1.0,2372
3240,3240,16980,1464,2132,17175.83,27.21,-1.00,-1.0,2362
3243,3243,16920,1556,2120,17123.14,27.21,-1.00,-1.0,2430
3246,3246,17024,1540,2288,17245.96,27.17,-1.00,-1.0,2362
3249,3249,16880,1492,2148,17081.40,27.26,-1.00,-1.0,2429
3252,3252,16948,1476,2088,17139.81,27.07,-1.00,-1.0,2364
3257,3257,16916,1392,2176,17112.09,27.21,-1.00,-1.0,2437
3259,3259,16928,1572,2176,17139.53,27.12,-1.00,-1.0,2363
3262,3262,16932,1484,2220,17141.27,27.31,-1.00,-1.0,2432
3265,3265,16908,1556,2192,17120.35,27.26,-1.00,-1.0,2371
3268,3268,16944,1500,2144,17144.85,27.17,-1.00,-1.0,2421
3270,3270,16920,1380,2288,17129.67,27.26,-1.00,-1.0,2365
3273,3273,17044,1496,2276,17260.25,27.21,-1.00,-1.0,2369
3276,3276,16932,1532,2236,17147.58,27.17,-1.00,-1.0,2428
3279,3279,16928,1504,2276,17146.41,27.26,-1.00,-1.0,2363
3284,3284,16908,1524,2124,17108.90,27.17,-1.00,-1.0,2420
3286,3286,16932,1488,2064,17122.12,27.17,-1.00,-1.0,2363
3289,3289,16940,1496,2012,17124.54,27.17,-1.00,-1.0,2416
3292,3292,16952,1512,2144,17153.81,27.26,-1.00,-1.0,2368
3294,3294,16884,1528,2232,17099.30,27.26,-1.00,-1.0,2422
3297,3297,16940,1356,2244,17141.70,27.31,-1.00,-1.0,2382
3300,3300,16932,1496,2140,17132.14,27.17,-1.00,-1.0,2370
3303,3303,16952,1536,2128,17153.95,27.21,-1.00,-1.0,2431
3306,3306,16936,1584,2188,17150.06,27.21,-1.00,-1.0,2370
3311,3311,16892,1528,2132,17094.44,27.17,-1.00,-1.0,2422
3313,3313,16984,1520,2176,17190.16,27.26,-1.00,-1.0,2361
3316,3316,16928,1428,2172,17126.41,27.26,-1.00,-1.0,2416
3319,3319,16976,1496,2140,17175.63,27.26,-1.00,-1.0,2366
3321,3321,16924,1460,2068,17112.28,27.17,-1.00,-1.0,2423
3324,3324,16904,1348,2152,17093.67,27.21,-1.00,-1.0,2380
3327,3327,17044,1524,2208,17253.86,27.31,-1.00,-1.0,2369
3330,3330,16988,1520,2192,17196.14,27.21,-1.00,-1.0,2429
3333,3333,16952,1520,2140,17154.02,27.21,-1.00,-1.0,2371
3338,3338,16976,1392,2144,17167.38,27.31,-1.00,-1.0,2433
3340,3340,16868,1536,2108,17068.46,27.17,-1.00,-1.0,2366
3343,3343,16896,1532,2088,17093.32,27.26,-1.00,-1.0,2419
3346,3346,16896,1560,2176,17106.82,27.17,-1.00,-1.0,2365
3349,3349,16976,1524,2084,17171.20,27.17,-1.00,-1.0,2425
3351,3351,17000,1492,2060,17189.23,27.31,-1.00,-1.0,2367
3354,3354,16888,1580,2128,17094.72,27.26,-1.00,-1.0,2364
3357,3357,16952,1500,2232,17163.98,27.17,-1.00,-1.0,2429
3360,3360,16852,1508,2232,17065.93,27.31,-1.00,-1.0,2371
3365,3365,17072,1488,2228,17280.95,27.31,-1.00,-1.0,2441
3367,3367,16904,1444,2120,17097.51,27.17,-1.00,-1.0,2365
3370,3370,16964,1440,2048,17147.75,27.21,-1.00,-1.0,2418
3373,3373,16952,1524,2000,17137.47,27.35,-1.00,-1.0,2367
3376,3376,16832,1588,2052,17030.81,27.17,-1.00,-1.0,2417
3378,3378,16916,1492,2104,17111.52,27.17,-1.00,-1.0,2375
3381,3381,16924,1436,2216,17128.76,27.21,-1.00,-1.0,2362
3384,3384,16992,1428,2060,17175.88,27.26,-1.00,-1.0,2423
3387,3387,16880,1452,2212,17086.12,27.17,-1.00,-1.0,2368
3392,3392,16904,1512,2244,17119.20,27.26,-1.00,-1.0,2459
3395,3395,16904,1516,2136,17105.73,27.26,-1.00,-1.0,2375
3397,3397,16956,1556,2044,17149.49,27.26,-1.00,-1.0,2427
3400,3400,16964,1516,2092,17159.60,27.17,-1.00,-1.0,2379
3403,3403,16932,1488,2132,17130.45,27.17,-1.00,-1.0,2412
3406,3406,16960,1452,2008,17140.07,27.21,-1.00,-1.0,2365
3408,3408,16892,1444,2132,17087.14,27.26,-1.00,-1.0,2369
3411,3411,16928,1552,2360,17162.04,27.31,-1.00,-1.0,2422
3414,3414,16916,1564,2132,17121.41,27.26,-1.00,-1.0,2366
3419,3419,16952,1484,2252,17165.20,27.26,-1.00,-1.0,2441
3422,3422,16784,1456,2084,16975.44,27.31,-1.00,-1.0,2363
3424,3424,16900,1536,2024,17089.94,27.26,-1.00,-1.0,2420
3427,3427,16880,1528,2148,17084.59,27.21,-1.00,-1.0,2364
3430,3430,16936,1464,2148,17134.33,27.21,-1.00,-1.0,2423
3432,3432,16928,1484,2148,17128.14,27.17,-1.00,-1.0,2353
3435,3435,16968,1444,2224,17173.94,27.12,-1.00,-1.0,2362
3438,3438,16872,1496,2100,17067.88,27.21,-1.00,-1.0,2420
3441,3441,16928,1560,2192,17140.47,27.31,-1.00,-1.0,2367
3446,3446,16896,1524,2112,17095.55,27.17,-1.00,-1.0,2444
3449,3449,16876,1544,2220,17091.28,27.26,-1.00,-1.0,2364
3451,3451,16912,1484,2216,17121.00,27.26,-1.00,-1.0,2422
3454,3454,16924,1524,2160,17129.21,27.26,-1.00,-1.0,2365
3457,3457,17016,1552,2176,17224.63,27.17,-1.00,-1.0,2424
3459,3459,16868,1584,2084,17069.90,27.21,-1.00,-1.0,2366
3462,3462,16872,1468,2260,17085.87,27.17,-1.00,-1.0,2362
3465,3465,16972,1448,2144,17168.06,27.31,-1.00,-1.0,2406
3468,3468,16940,1460,2100,17131.99,27.21,-1.00,-1.0,2366
3473,3473,16868,1480,2168,17071.03,27.21,-1.00,-1.0,2437
3476,3476,16932,1588,2064,17131.10,27.35,-1.00,-1.0,2365
3478,3478,16904,1532,2104,17103.19,27.35,-1.00,-1.0,2427
3481,3481,17028,1532,2156,17232.18,27.17,-1.00,-1.0,2363
3484,3484,16980,1460,2164,17179.49,27.17,-1.00,-1.0,2425
3486,3486,16940,1400,2076,17124.06,27.26,-1.00,-1.0,2366
3489,3489,16976,1524,2240,17190.83,27.26,-1.00,-1.0,2368
3492,3492,16964,1456,2204,17168.43,27.17,-1.00,-1.0,2420
3495,3495,16896,1552,2196,17108.65,27.21,-1.00,-1.0,2365
3501,3501,16948,1516,2052,17138.95,27.26,-1.00,-1.0,2443
3503,3503,16968,1500,2080,17160.69,27.26,-1.00,-1.0,2367
3506,3506,16936,1532,2020,17124.71,27.26,-1.00,-1.0,2417
3509,3509,16976,1496,2240,17188.37,27.21,-1.00,-1.0,2365
3511,3511,17040,1452,2208,17243.70,27.26,-1.00,-1.0,2420
3514,3514,16792,1512,2156,16997.23,27.21,-1.00,-1.0,2374
3517,3517,16976,1392,2176,17171.41,27.17,-1.00,-1.0,2362
3520,3520,16872,1552,2020,17063.22,27.35,-1.00,-1.0,2420
3522,3522,16920,1424,2136,17113.64,27.40,-1.00,-1.0,2366
3527,3527,17088,1460,2124,17281.28,27.26,-1.00,-1.0,2435
3530,3530,16912,1420,2252,17120.27,27.21,-1.00,-1.0,2363
3532,3532,16852,1440,2120,17045.76,27.26,-1.00,-1.0,2417
3535,3535,17004,1420,2140,17196.86,27.21,-1.00,-1.0,2380
3538,3538,16976,1492,2128,17173.79,27.21,-1.00,-1.0,2424
3541,3541,16884,1508,2128,17084.26,27.21,-1.00,-1.0,2369
3543,3543,16980,1444,2168,17178.64,27.21,-1.00,-1.0,2362
3546,3546,16904,1436,1988,17080.97,27.31,-1.00,-1.0,2421
3549,3549,16960,1464,2128,17155.56,27.17,-1.00,-1.0,2367
3554,3554,16900,1512,2060,17092.10,27.17,-1.00,-1.0,2421
3557,3557,16916,1488,2176,17120.17,27.31,-1.00,-1.0,2365
3559,3559,16848,1596,2224,17068.93,27.17,-1.00,-1.0,2420
3562,3562,16936,1560,2336,17167.37,27.21,-1.00,-1.0,2380
3565,3565,16904,1468,1948,17079.08,27.21,-1.00,-1.0,2410
3568,3568,16864,1552,2008,17053.89,27.31,-1.00,-1.0,2366
3570,3570,16948,1380,2116,17135.24,27.21,-1.00,-1.0,2369
3573,3573,16896,1436,2148,17092.42,27.31,-1.00,-1.0,2421
3576,3576,16976,1576,2060,17173.00,27.31,-1.00,-1.0,2365
3581,3581,16936,1460,2004,17116.53,27.26,-1.00,-1.0,2433
3584,3584,16840,1536,2252,17059.20,27.21,-1.00,-1.0,2366
3587,3587,16964,1440,2112,17155.51,27.17,-1.00,-1.0,2425
3589,3589,16896,1524,2012,17083.49,27.21,-1.00,-1.0,2369
3592,3592,16932,1448,2080,17120.62,27.21,-1.00,-1.0,2434
3595,3595,17040,1448,2192,17241.32,27.21,-1.00,-1.0,2368
3597,3597,17032,1496,2156,17232.97,27.26,-1.00,-1.0,2369
3600,3600,16944,1452,2228,17151.43,27.17,-1.00,-1.0,2420
3603,3603,16912,1608,2200,17130.13,27.21,-1.00,-1.0,2374
3608,3608,16860,1500,2136,17060.84,27.21,-1.00,-1.0,2436
3611,3611,16976,1548,2140,17180.23,27.26,-1.00,-1.0,2363
3613,3613,16944,1488,2140,17143.30,27.26,-1.00,-1.0,2414
3616,3616,16908,1452,2212,17113.79,27.26,-1.00,-1.0,2373
3619,3619,16888,1540,2176,17097.11,27.26,-1.00,-1.0,2422
3622,3622,16980,1576,2220,17196.88,27.21,-1.00,-1.0,2365
3624,3624,16916,1516,2040,17105.87,27.17,-1.00,-1.0,2363
3627,3627,16832,1492,2120,17030.46,27.17,-1.00,-1.0,2428
3630,3630,16972,1412,1924,17138.97,27.21,-1.00,-1.0,2373
3635,3635,16996,1588,2008,17187.72,27.31,-1.00,-1.0,2434
3638,3638,17036,1528,2080,17230.39,27.17,-1.00,-1.0,2365
3640,3640,16912,1524,2168,17118.37,27.12,-1.00,-1.0,2414
3643,3643,16900,1544,2088,17098.35,27.17,-1.00,-1.0,2352
3646,3646,16876,1448,2152,17074.17,27.26,-1.00,-1.0,2422
3649,3649,17004,1500,2100,17198.72,27.17,-1.00,-1.0,2366
3651,3651,16988,1480,2132,17185.11,27.26,-1.00,-1.0,2430
3654,3654,17000,1464,2164,17199.60,27.26,-1.00,-1.0,2376
3657,3657,16972,1448,2272,17184.51,27.26,-1.00,-1.0,2378
3662,3662,16876,1412,2160,17072.16,27.31,-1.00,-1.0,2434
3665,3665,16960,1488,2140,17159.12,27.21,-1.00,-1.0,2364
3668,3668,17064,1408,2032,17242.15,27.31,-1.00,-1.0,2415
3670,3670,16980,1500,2100,17174.99,27.26,-1.00,-1.0,2366
3673,3673,16916,1480,2116,17111.95,27.31,-1.00,-1.0,2407
3676,3676,17000,1400,2168,17194.77,27.17,-1.00,-1.0,2373
3678,3678,16896,1428,2072,17082.37,27.26,-1.00,-1.0,2427
3681,3681,16996,1496,2168,17198.90,27.26,-1.00,-1.0,2369
3684,3684,16920,1508,2184,17126.89,27.17,-1.00,-1.0,2365
3689,3689,16956,1496,2076,17147.99,27.26,-1.00,-1.0,2435
3692,3692,16984,1500,2296,17204.01,27.21,-1.00,-1.0,2369
3695,3695,16976,1500,2120,17173.50,27.21,-1.00,-1.0,2414
3697,3697,16912,1480,2000,17094.04,27.26,-1.00,-1.0,2366
3700,3700,16912,1544,2148,17117.64,27.21,-1.00,-1.0,2418
3703,3703,16932,1604,1968,17121.29,27.17,-1.00,-1.0,2368
3705,3705,16956,1504,2168,17160.07,27.21,-1.00,-1.0,2426
3708,3708,16872,1496,2216,17082.54,27.17,-1.00,-1.0,2365
3711,3711,16948,1384,2036,17125.87,27.17,-1.00,-1.0,2359
3716,3716,16908,1388,2148,17100.32,27.21,-1.00,-1.0,2436
3719,3719,16972,1420,2112,17161.75,27.26,-1.00,-1.0,2368
3721,3721,16928,1444,2196,17130.81,27.21,-1.00,-1.0,2428
3724,3724,16996,1520,2136,17197.00,27.26,-1.00,-1.0,2369
3727,3727,17016,1448,2148,17212.06,27.17,-1.00,-1.0,2422
3730,3730,16860,1428,2064,17045.79,27.26,-1.00,-1.0,2365
3732,3732,16888,1540,2192,17099.15,27.17,-1.00,-1.0,2424
3735,3735,16896,1464,2100,17088.83,27.21,-1.00,-1.0,2365
3738,3738,16992,1532,1956,17172.68,27.21,-1.00,-1.0,2362
3743,3743,16984,1536,2232,17198.76,27.31,-1.00,-1.0,2434
3746,3746,17000,1388,2140,17190.29,27.21,-1.00,-1.0,2363
3748,3748,16880,1536,2156,17086.31,27.31,-1.00,-1.0,2423
3751,3751,16924,1480,2044,17111.11,27.17,-1.00,-1.0,2373
3754,3754,16944,1468,2128,17140.09,27.31,-1.00,-1.0,2423
3757,3757,16968,1464,2176,17169.49,27.26,-1.00,-1.0,2367
3759,3759,16900,1496,2048,17089.25,27.26,-1.00,-1.0,2422
3762,3762,16912,1464,2092,17103.67,27.21,-1.00,-1.0,2365
3765,3765,16896,1600,2044,17094.23,27.31,-1.00,-1.0,2362
3770,3770,16884,1452,2088,17074.47,27.21,-1.00,-1.0,2443
3773,3773,16908,1516,1988,17091.84,27.17,-1.00,-1.0,2370
3776,3776,16920,1500,2184,17126.19,27.21,-1.00,-1.0,2426
3778,3778,16944,1532,2132,17146.18,27.17,-1.00,-1.0,2368
3781,3781,16952,1404,2072,17135.77,27.26,-1.00,-1.0,2429
3784,3784,17020,1464,2112,17212.91,27.26,-1.00,-1.0,2371
3787,3787,16932,1496,2144,17132.64,27.17,-1.00,-1.0,2421
3789,3789,16968,1360,2128,17154.91,27.26,-1.00,-1.0,2365
3792,3792,16988,1440,2292,17202.30,27.17,-1.00,-1.0,2362
3797,3797,17012,1444,2216,17216.38,27.21,-1.00,-1.0,2433
3800,3800,16940,1416,2036,17120.57,27.21,-1.00,-1.0,2368
3803,3803,16900,1460,2248,17111.26,27.21,-1.00,-1.0,2425
3805,3805,16916,1464,1964,17092.44,27.31,-1.00,-1.0,2368
3808,3808,16908,1492,2108,17104.10,27.21,-1.00,-1.0,2436
3811,3811,16952,1460,2140,17148.80,27.26,-1.00,-1.0,2372
3814,3814,16940,1448,2052,17125.16,27.21,-1.00,-1.0,2421
3816,3816,16924,1492,1856,17090.72,27.26,-1.00,-1.0,2365
3819,3819,16924,1496,2120,17121.75,27.26,-1.00,-1.0,2362
3824,3824,17000,1512,2060,17190.98,27.17,-1.00,-1.0,2421
3827,3827,16852,1320,2148,17039.55,27.21,-1.00,-1.0,2363
3830,3830,16960,1428,2084,17147.12,27.31,-1.00,-1.0,2418
3832,3832,16968,1444,2176,17167.79,27.21,-1.00,-1.0,2376
3835,3835,17008,1528,2168,17213.57,27.21,-1.00,-1.0,2420
3838,3838,16848,1424,2120,17040.46,27.21,-1.00,-1.0,2377
3841,3841,16964,1500,2092,17158.20,27.31,-1.00,-1.0,2426
3843,3843,16904,1592,2128,17111.63,27.21,-1.00,-1.0,2366
3846,3846,16848,1576,2180,17061.40,27.21,-1.00,-1.0,2363
3851,3851,16844,1548,2056,17039.48,27.26,-1.00,-1.0,2435
3854,3854,16996,1620,2304,17227.79,27.26,-1.00,-1.0,2362
3857,3857,16972,1524,2224,17184.80,27.26,-1.00,-1.0,2422
3859,3859,16904,1688,2064,17113.00,27.21,-1.00,-1.0,2371
3862,3862,16964,1608,2088,17167.49,27.26,-1.00,-1.0,2421
3865,3865,16992,1568,2084,17190.98,27.21,-1.00,-1.0,2368
3868,3868,16904,1676,2168,17124.67,27.21,-1.00,-1.0,2428
3870,3870,16888,1540,2212,17101.73,27.21,-1.00,-1.0,2370
3873,3873,16896,1536,2348,17127.38,27.21,-1.00,-1.0,2363
3878,3878,17008,1600,2240,17229.33,27.21,-1.00,-1.0,2435
3881,3881,17028,1428,2180,17226.27,27.26,-1.00,-1.0,2362
3884,3884,16912,1532,2288,17134.69,27.21,-1.00,-1.0,2425
3886,3886,17000,1500,2168,17203.20,27.26,-1.00,-1.0,2367
3889,3889,16968,1572,2220,17184.66,27.17,-1.00,-1.0,2420
3892,3892,16924,1520,2220,17136.53,27.35,-1.00,-1.0,2365
3895,3895,16948,1432,2060,17132.69,27.17,-1.00,-1.0,2424
3897,3897,17028,1608,2184,17242.63,27.31,-1.00,-1.0,2375
3900,3900,16932,1560,2364,17167.26,27.21,-1.00,-1.0,2370
3905,3905,16944,1580,2092,17145.61,27.21,-1.00,-1.0,2437
3908,3908,16892,1564,2064,17089.35,27.17,-1.00,-1.0,2363
3911,3911,17028,1408,2148,17220.60,27.21,-1.00,-1.0,2423
3913,3913,16996,1492,2176,17199.57,27.26,-1.00,-1.0,2366
3916,3916,17104,1460,2080,17291.76,27.21,-1.00,-1.0,2419
3919,3919,16936,1528,2324,17162.86,27.26,-1.00,-1.0,2370
3922,3922,16984,1488,2052,17172.10,27.17,-1.00,-1.0,2422
3924,3924,17020,1460,2112,17212.57,27.26,-1.00,-1.0,2372
3927,3927,17044,1596,2340,17277.75,27.17,-1.00,-1.0,2371
3932,3932,17024,1500,2192,17229.96,27.17,-1.00,-1.0,2435
3935,3935,16940,1476,2116,17135.33,27.26,-1.00,-1.0,2364
3938,3938,16884,1468,2172,17086.31,27.17,-1.00,-1.0,2425
3940,3940,16988,1480,2260,17201.46,27.21,-1.00,-1.0,2368
3943,3943,16856,1464,2196,17061.37,27.26,-1.00,-1.0,2435
3946,3946,16892,1496,2196,17099.71,27.21,-1.00,-1.0,2372
3949,3949,16928,1560,2200,17141.49,27.26,-1.00,-1.0,2421
3951,3951,16872,1612,2192,17089.99,27.26,-1.00,-1.0,2368
3954,3954,16868,1464,2176,17070.67,27.26,-1.00,-1.0,2364
3959,3959,16856,1520,2120,17056.66,27.26,-1.00,-1.0,2433
3962,3962,17108,1536,2052,17298.95,27.35,-1.00,-1.0,2368
3965,3965,16940,1444,1992,17117.73,27.26,-1.00,-1.0,2425
3967,3967,16848,1496,2184,17054.71,27.26,-1.00,-1.0,2369
3970,3970,17064,1532,1964,17244.84,27.17,-1.00,-1.0,2436
3973,3973,16944,1404,2148,17137.22,27.21,-1.00,-1.0,2368
3976,3976,16992,1404,1928,17158.57,27.26,-1.00,-1.0,2421
3978,3978,17104,1376,1988,17274.04,27.21,-1.00,-1.0,2368
3981,3981,17016,1276,1872,17166.15,27.31,-1.00,-1.0,2365
3986,3986,16936,1316,1956,17099.29,27.26,-1.00,-1.0,2441
3989,3989,17004,1340,2004,17174.04,27.26,-1.00,-1.0,2378
3992,3992,16992,1376,1968,17160.84,27.17,-1.00,-1.0,2405
3995,3995,16836,1272,2032,17005.82,27.26,-1.00,-1.0,2366
3997,3997,16940,1452,1820,17099.25,27.26,-1.00,-1.0,2422
4000,4000,16904,1476,2020,17088.13,27.21,-1.00,-1.0,2366
4003,4003,16924,1476,1908,17095.05,27.31,-1.00,-1.0,2427
4005,4005,16864,1480,2036,17050.81,27.21,-1.00,-1.0,2366
4008,4008,16892,1584,2104,17096.07,27.21,-1.00,-1.0,2362
4014,4014,16940,1444,2224,17146.28,27.26,-1.00,-1.0,2440
4016,4016,16840,1324,2180,17032.06,27.26,-1.00,-1.0,2364
4019,4019,16932,1368,2016,17106.38,27.26,-1.00,-1.0,2426
4022,4022,16924,1292,1992,17089.74,27.21,-1.00,-1.0,2373
4025,4025,16988,1416,2156,17182.71,27.17,-1.00,-1.0,2423
4027,4027,17000,1404,1964,17170.57,27.21,-1.00,-1.0,2365
4030,4030,17028,1352,2216,17224.73,27.31,-1.00,-1.0,2421
4033,4033,17024,1436,1952,17195.61,27.21,-1.00,-1.0,2366
4038,4038,17036,1532,2132,17237.10,27.17,-1.00,-1.0,2437
4040,4040,17036,1460,1952,17209.51,27.26,-1.00,-1.0,2362
4043,4043,16932,1472,2120,17127.57,27.26,-1.00,-1.0,2360
4046,4046,16896,1608,2072,17098.35,27.21,-1.00,-1.0,2429
4048,4048,16880,1492,2084,17073.47,27.17,-1.00,-1.0,2367
4051,4051,16852,1564,2148,17060.19,27.21,-1.00,-1.0,2435
4054,4054,17032,1568,2156,17239.37,27.17,-1.00,-1.0,2373
4057,4057,16900,1608,2316,17133.58,27.17,-1.00,-1.0,2421
4060,4060,16904,1652,2236,17131.08,27.26,-1.00,-1.0,2365
4066,4066,16924,1588,2136,17132.02,27.21,-1.00,-1.0,2444
4069,4069,16984,1452,2312,17202.03,27.17,-1.00,-1.0,2363
4072,4072,17012,1572,2140,17217.98,27.21,-1.00,-1.0,2359
4074,4074,16980,1468,2144,17177.66,27.21,-1.00,-1.0,2426
4077,4077,17044,1368,2072,17223.89,27.26,-1.00,-1.0,2370
4080,4080,17012,1436,2124,17204.12,27.26,-1.00,-1.0,2423
4082,4082,17028,1372,2180,17221.72,27.17,-1.00,-1.0,2352
4085,4085,16940,1448,2232,17147.66,27.26,-1.00,-1.0,2422
4088,4088,16944,1448,2032,17126.73,27.31,-1.00,-1.0,2366
4093,4093,16936,1448,2088,17125.55,27.21,-1.00,-1.0,2425
4096,4096,16904,1416,2140,17097.66,27.26,-1.00,-1.0,2363
4098,4098,16876,1548,2148,17082.44,27.31,-1.00,-1.0,2364
4101,4101,16936,1636,2264,17164.80,27.21,-1.00,-1.0,2423
4104,4104,16908,1488,2140,17107.72,27.31,-1.00,-1.0,2369
4106,4106,16976,1480,2192,17180.80,27.21,-1.00,-1.0,2428
4109,4109,16916,1520,2260,17133.86,27.31,-1.00,-1.0,2371
4112,4112,16956,1452,2212,17161.21,27.26,-1.00,-1.0,2425
4114,4114,16948,1472,2336,17171.44,27.26,-1.00,-1.0,2352
4119,4119,16956,1488,2104,17150.71,27.26,-1.00,-1.0,2436
4122,4122,16940,1452,2272,17153.25,27.12,-1.00,-1.0,2363
4125,4125,16904,1460,2080,17093.95,27.26,-1.00,-1.0,2359
4127,4127,17000,1316,2112,17181.16,27.26,-1.00,-1.0,2420
4130,4130,16944,1356,2344,17159.03,27.21,-1.00,-1.0,2363
4133,4133,16952,1496,2224,17162.59,27.26,-1.00,-1.0,2420
4136,4136,16896,1548,2020,17086.59,27.21,-1.00,-1.0,2373
4138,4138,16936,1504,2052,17126.03,27.31,-1.00,-1.0,2428
4141,4141,16944,1464,2148,17142.24,27.21,-1.00,-1.0,2373
4146,4146,16876,1616,2224,17098.45,27.21,-1.00,-1.0,2442
4149,4149,16808,1712,2120,17027.46,27.21,-1.00,-1.0,2364
4151,4151,16860,1608,2036,17058.45,27.31,-1.00,-1.0,2360
4154,4154,16868,1660,2184,17089.61,27.17,-1.00,-1.0,2421
4157,4157,16872,1696,2224,17102.25,27.21,-1.00,-1.0,2373
4159,4159,16864,1588,2108,17069.27,27.21,-1.00,-1.0,2426
4162,4162,16816,1512,2172,17022.97,27.31,-1.00,-1.0,2364
4165,4165,16852,1532,2052,17045.46,27.21,-1.00,-1.0,2423
4168,4168,17000,1508,2240,17213.12,27.21,-1.00,-1.0,2374
4173,4173,16924,1420,2220,17127.95,27.17,-1.00,-1.0,2459
4175,4175,17048,1440,2140,17242.03,27.26,-1.00,-1.0,2367
4178,4178,16924,1500,2148,17125.59,27.31,-1.00,-1.0,2370
4181,4181,16856,1500,2156,17059.40,27.21,-1.00,-1.0,2432
4183,4183,17040,1556,2144,17244.69,27.21,-1.00,-1.0,2364
4186,4186,16808,1448,2172,17009.50,27.21,-1.00,-1.0,2417
4189,4189,16904,1560,2164,17113.20,27.17,-1.00,-1.0,2365
4192,4192,16964,1624,2104,17170.95,27.26,-1.00,-1.0,2422
4195,4195,16956,1600,2164,17168.25,27.26,-1.00,-1.0,2365
4200,4200,17012,1500,2128,17210.07,27.31,-1.00,-1.0,2436
4202,4202,16924,1588,2292,17152.17,27.31,-1.00,-1.0,2363
4205,4205,16856,1560,2256,17077.70,27.21,-1.00,-1.0,2343
4208,4208,16900,1516,2140,17102.28,27.17,-1.00,-1.0,2432
4210,4210,16956,1568,2200,17169.87,27.21,-1.00,-1.0,2362
4213,4213,16896,1528,2172,17103.43,27.21,-1.00,-1.0,2419
4216,4216,17016,1320,2208,17209.36,27.26,-1.00,-1.0,2364
4219,4219,17020,1320,2132,17203.73,27.26,-1.00,-1.0,2421
4222,4222,17060,1316,2108,17240.04,27.26,-1.00,-1.0,2363
4227,4227,17148,1196,2224,17332.93,27.17,-1.00,-1.0,2436
4229,4229,17012,1244,2156,17193.14,27.21,-1.00,-1.0,2366
4232,4232,16880,1208,1976,17038.14,27.17,-1.00,-1.0,2361
4235,4235,16984,1232,2132,17161.57,27.17,-1.00,-1.0,2424
4237,4237,16916,1248,2108,17092.46,27.26,-1.00,-1.0,2372
4240,4240,16932,1468,1912,17102.73,27.26,-1.00,-1.0,2431
4243,4243,16848,1348,2180,17041.85,27.21,-1.00,-1.0,2376
4246,4246,16872,1600,2068,17073.40,27.21,-1.00,-1.0,2427
4249,4249,16864,1664,2140,17080.49,27.17,-1.00,-1.0,2368
4254,4254,16832,1680,2244,17063.83,27.17,-1.00,-1.0,2436
4256,4256,16824,1688,2236,17055.67,27.35,-1.00,-1.0,2371
4259,4259,16860,1732,2148,17084.30,27.31,-1.00,-1.0,2361
4262,4262,16992,1704,2172,17214.80,27.26,-1.00,-1.0,2421
4264,4264,16860,1692,2188,17085.37,27.26,-1.00,-1.0,2370
4267,4267,16924,1564,2192,17136.88,27.21,-1.00,-1.0,2420
4270,4270,16836,1500,2244,17050.99,27.26,-1.00,-1.0,2367
4273,4273,16944,1444,1956,17117.54,27.31,-1.00,-1.0,2426
4276,4276,16916,1500,2148,17117.68,27.31,-1.00,-1.0,2363
4281,4281,16992,1376,2160,17183.92,27.26,-1.00,-1.0,2433
4283,4283,16956,1340,2168,17146.48,27.17,-1.00,-1.0,2371
4286,4286,16936,1352,2224,17134.82,27.31,-1.00,-1.0,2360
4289,4289,16968,1416,2128,17159.44,27.31,-1.00,-1.0,2415
4291,4291,16892,1552,2148,17098.60,27.12,-1.00,-1.0,2373
4294,4294,17024,1512,2196,17231.52,27.21,-1.00,-1.0,2420
4297,4297,16920,1580,2144,17128.33,27.26,-1.00,-1.0,2368
4300,4300,16812,1548,2096,17012.73,27.26,-1.00,-1.0,2416
4303,4303,16904,1704,2304,17145.18,27.31,-1.00,-1.0,2371
4308,4308,16880,1432,2304,17096.59,27.21,-1.00,-1.0,2434
4310,4310,16896,1436,2284,17110.04,27.31,-1.00,-1.0,2372
4313,4313,16952,1452,2184,17153.67,27.21,-1.00,-1.0,2358
4316,4316,17004,1384,2236,17206.14,27.21,-1.00,-1.0,2422
4318,4318,16944,1368,2120,17130.82,27.21,-1.00,-1.0,2367
4321,4321,16972,1276,2124,17151.92,27.31,-1.00,-1.0,2420
4324,4324,16936,1192,2112,17108.76,27.31,-1.00,-1.0,2367
4327,4327,16912,1280,1984,17076.02,27.35,-1.00,-1.0,2428
4330,4330,16940,1348,1984,17108.97,27.17,-1.00,-1.0,2366
4335,4335,17004,1384,2000,17177.06,27.21,-1.00,-1.0,2435
4337,4337,16904,1504,1868,17073.27,27.21,-1.00,-1.0,2350
4340,4340,16940,1380,1980,17111.06,27.26,-1.00,-1.0,2361
4343,4343,16788,1448,2008,16969.55,27.26,-1.00,-1.0,2424
4345,4345,16868,1592,2024,17063.42,27.31,-1.00,-1.0,2365
4348,4348,16960,1552,2160,17167.29,27.21,-1.00,-1.0,2421
4351,4351,16832,1456,2144,17030.35,27.21,-1.00,-1.0,2353
4354,4354,16932,1600,2164,17144.55,27.21,-1.00,-1.0,2425
4357,4357,16892,1436,2180,17092.52,27.17,-1.00,-1.0,2374
4362,4362,16928,1480,2200,17134.40,27.21,-1.00,-1.0,2441
4365,4365,17000,1460,2076,17188.41,27.17,-1.00,-1.0,2369
4368,4368,16940,1480,2116,17135.68,27.31,-1.00,-1.0,2356
4370,4370,16896,1500,2064,17087.57,27.21,-1.00,-1.0,2423
4373,4373,16996,1524,2172,17201.87,27.31,-1.00,-1.0,2378
4376,4376,16900,1512,2068,17093.06,27.31,-1.00,-1.0,2410
4379,4379,16964,1436,2072,17150.29,27.26,-1.00,-1.0,2365
4381,4381,16956,1452,2048,17140.84,27.17,-1.00,-1.0,2423
4384,4384,16996,1496,2080,17188.03,27.26,-1.00,-1.0,2365
4389,4389,17012,1532,2032,17201.29,27.17,-1.00,-1.0,2437
4391,4391,16984,1520,2228,17196.82,27.17,-1.00,-1.0,2364
4394,4394,16924,1472,2048,17110.90,27.31,-1.00,-1.0,2368
4397,4397,17020,1464,2228,17227.53,27.21,-1.00,-1.0,2424
4400,4400,16972,1492,2244,17184.60,27.26,-1.00,-1.0,2366
4402,4402,16956,1504,2152,17158.06,27.26,-1.00,-1.0,2420
4405,4405,16840,1436,2172,17040.11,27.26,-1.00,-1.0,2366
4408,4408,16916,1488,2120,17113.14,27.21,-1.00,-1.0,2421
4411,4411,16940,1436,2084,17128.01,27.21,-1.00,-1.0,2366
4416,4416,16928,1396,2124,17117.75,27.21,-1.00,-1.0,2442
4419,4419,16988,1436,2080,17175.00,27.26,-1.00,-1.0,2363
4421,4421,16980,1424,2112,17169.99,27.31,-1.00,-1.0,2423
4424,4424,16888,1420,2000,17065.20,27.17,-1.00,-1.0,2364
4427,4427,17064,1476,2060,17251.15,27.26,-1.00,-1.0,2357
4429,4429,16896,1444,2168,17095.62,27.21,-1.00,-1.0,2425
4432,4432,16956,1348,1960,17122.05,27.26,-1.00,-1.0,2365
4435,4435,16968,1444,2224,17173.94,27.17,-1.00,-1.0,2419
4438,4438,16988,1488,1988,17168.53,27.21,-1.00,-1.0,2368
4443,4443,16964,1464,2056,17150.74,27.21,-1.00,-1.0,2441
4446,4446,16924,1492,2048,17112.63,27.26,-1.00,-1.0,2363
4448,4448,16876,1596,2136,17085.35,27.21,-1.00,-1.0,2435
4451,4451,16880,1576,2072,17079.56,27.26,-1.00,-1.0,2364
4454,4454,16952,1548,2132,17155.53,27.21,-1.00,-1.0,2359
4456,4456,17008,1488,2204,17214.64,27.21,-1.00,-1.0,2429
4459,4459,16872,1572,2052,17068.87,27.21,-1.00,-1.0,2363
4462,4462,16960,1664,2052,17164.53,27.26,-1.00,-1.0,2418
4465,4465,16956,1532,2156,17161.04,27.26,-1.00,-1.0,2366
4470,4470,16860,1540,2192,17071.50,27.21,-1.00,-1.0,2442
4473,4473,16876,1616,2028,17074.06,27.31,-1.00,-1.0,2371
4476,4476,17028,1544,2092,17225.37,27.21,-1.00,-1.0,2416
4478,4478,17004,1564,2260,17224.68,27.26,-1.00,-1.0,2366
4481,4481,16872,1532,2252,17090.43,27.21,-1.00,-1.0,2369
4484,4484,16864,1388,2280,17073.94,27.21,-1.00,-1.0,2422
4486,4486,16924,1452,2144,17120.95,27.31,-1.00,-1.0,2366
4489,4489,16864,1544,2068,17060.34,27.21,-1.00,-1.0,2420
4492,4492,17016,1500,2140,17215.51,27.26,-1.00,-1.0,2365
4497,4497,16960,1480,2292,17178.05,27.17,-1.00,-1.0,2423
4500,4500,16924,1492,2240,17136.67,27.21,-1.00,-1.0,2363
4502,4502,16956,1600,2328,17189.69,27.21,-1.00,-1.0,2423
4505,4505,16956,1476,2132,17153.13,27.21,-1.00,-1.0,2364
4508,4508,17016,1512,2316,17239.32,27.21,-1.00,-1.0,2359
4510,4510,16956,1472,2172,17157.81,27.26,-1.00,-1.0,2430
4513,4513,16976,1516,2304,17198.58,27.21,-1.00,-1.0,2363
4516,4516,16976,1460,2096,17167.10,27.31,-1.00,-1.0,2418
4519,4519,16880,1560,2204,17094.61,27.12,-1.00,-1.0,2365
4524,4524,16912,1464,2152,17111.11,27.26,-1.00,-1.0,2435
4527,4527,17020,1324,2172,17209.04,27.26,-1.00,-1.0,2368
4529,4529,16984,1416,2060,17166.97,27.26,-1.00,-1.0,2431
4532,4532,17000,1428,2048,17182.36,27.31,-1.00,-1.0,2372
4535,4535,16996,1420,2144,17189.45,27.26,-1.00,-1.0,2358
4537,4537,16992,1384,2056,17171.80,27.26,-1.00,-1.0,2423
4540,4540,17040,1456,2068,17226.67,27.35,-1.00,-1.0,2379
4543,4543,16988,1416,2180,17185.74,27.21,-1.00,-1.0,2419
4546,4546,16936,1388,2172,17131.03,27.21,-1.00,-1.0,2365
4551,4551,17012,1468,2224,17219.45,27.21,-1.00,-1.0,2435
4554,4554,16888,1456,2160,17087.72,27.26,-1.00,-1.0,2368
4556,4556,16832,1480,2428,17070.50,27.26,-1.00,-1.0,2418
4559,4559,16856,1532,2196,17067.34,27.26,-1.00,-1.0,2374
4562,4562,16940,1416,2368,17163.22,27.31,-1.00,-1.0,2362
4564,4564,16960,1452,2296,17176.19,27.26,-1.00,-1.0,2419
4567,4567,16912,1476,2176,17115.18,27.26,-1.00,-1.0,2368
4570,4570,16912,1552,2228,17128.59,27.26,-1.00,-1.0,2420
4573,4573,16888,1460,2144,17086.04,27.21,-1.00,-1.0,2366
4578,4578,16868,1488,2044,17056.42,27.26,-1.00,-1.0,2443
4580,4580,16968,1572,2004,17158.10,27.31,-1.00,-1.0,2363
4583,4583,17004,1508,2104,17199.91,27.26,-1.00,-1.0,2421
4586,4586,16932,1516,2016,17118.85,27.21,-1.00,-1.0,2364
4589,4589,16960,1524,2132,17161.28,27.26,-1.00,-1.0,2361
4591,4591,16912,1528,2284,17133.80,27.26,-1.00,-1.0,2423
4594,4594,16964,1476,2112,17158.57,27.26,-1.00,-1.0,2364
4597,4597,17016,1488,2256,17229.28,27.26,-1.00,-1.0,2432
4600,4600,17028,1440,2028,17208.70,27.26,-1.00,-1.0,2372
4605,4605,17016,1460,2064,17202.79,27.26,-1.00,-1.0,2441
4607,4607,16996,1408,2076,17180.11,27.31,-1.00,-1.0,2350
4610,4610,16908,1440,2124,17101.62,27.26,-1.00,-1.0,2422
4613,4613,16908,1496,2156,17110.43,27.12,-1.00,-1.0,2364
4616,4616,16900,1420,2120,17091.54,27.26,-1.00,-1.0,2357
4618,4618,16872,1412,2016,17050.58,27.26,-1.00,-1.0,2421
4621,4621,16940,1428,2112,17130.77,27.35,-1.00,-1.0,2372
4624,4624,16912,1488,2048,17100.41,27.21,-1.00,-1.0,2436
4627,4627,16976,1428,2008,17153.89,27.26,-1.00,-1.0,2372
4632,4632,16944,1404,2048,17124.97,27.26,-1.00,-1.0,2433
4635,4635,17028,1448,1956,17201.03,27.21,-1.00,-1.0,2363
4637,4637,17048,1480,2016,17230.47,27.26,-1.00,-1.0,2416
4640,4640,16992,1440,2132,17185.67,27.21,-1.00,-1.0,2367
4643,4643,16916,1480,2096,17109.49,27.26,-1.00,-1.0,2362
4646,4646,16852,1432,2204,17055.74,27.17,-1.00,-1.0,2420
4648,4648,16968,1512,2148,17170.12,27.21,-1.00,-1.0,2366
4651,4651,16924,1552,2124,17127.22,27.21,-1.00,-1.0,2427
4654,4654,17000,1520,2168,17204.96,27.21,-1.00,-1.0,2381
4659,4659,16904,1516,2080,17098.83,27.35,-1.00,-1.0,2435
4662,4662,16948,1540,2048,17140.61,27.26,-1.00,-1.0,2362
4665,4665,16988,1496,2232,17199.19,27.26,-1.00,-1.0,2401
4667,4667,16952,1520,2104,17149.56,27.21,-1.00,-1.0,2365
4670,4670,16936,1452,2044,17120.58,27.17,-1.00,-1.0,2367
4673,4673,16932,1476,2048,17119.16,27.26,-1.00,-1.0,2421
4675,4675,16964,1548,2056,17158.11,27.17,-1.00,-1.0,2363
4678,4678,16872,1460,1948,17046.72,27.21,-1.00,-1.0,2421
4681,4681,16964,1516,1936,17141.29,27.31,-1.00,-1.0,2365
4686,4686,16904,1504,2036,17092.47,27.31,-1.00,-1.0,2433
4689,4689,17016,1560,2080,17213.49,27.26,-1.00,-1.0,2369
4692,4692,16984,1548,2080,17180.77,27.17,-1.00,-1.0,2414
4694,4694,16976,1560,2116,17178.35,27.35,-1.00,-1.0,2365
4697,4697,16932,1632,2028,17130.93,27.26,-1.00,-1.0,2367
4700,4700,16916,1532,2152,17121.02,27.17,-1.00,-1.0,2421
4702,4702,16864,1484,2124,17061.89,27.26,-1.00,-1.0,2362
4705,4705,16944,1492,2152,17145.15,27.26,-1.00,-1.0,2421
4708,4708,17000,1480,2192,17204.51,27.21,-1.00,-1.0,2364
4713,4713,16940,1452,2096,17130.82,27.21,-1.00,-1.0,2449
4716,4716,16940,1488,2072,17130.99,27.21,-1.00,-1.0,2374
4719,4719,16912,1476,2120,17108.15,27.21,-1.00,-1.0,2418
4721,4721,16932,1528,2256,17149.84,27.17,-1.00,-1.0,2366
4724,4724,16896,1516,2136,17097.82,27.21,-1.00,-1.0,2364
4727,4727,16992,1500,2132,17190.80,27.21,-1.00,-1.0,2429
4729,4729,17008,1388,2036,17185.57,27.26,-1.00,-1.0,2368
4732,4732,16968,1508,2076,17160.91,27.17,-1.00,-1.0,2407
4735,4735,16860,1480,2228,17070.85,27.26,-1.00,-1.0,2365
4740,4740,16964,1464,2212,17170.13,27.26,-1.00,-1.0,2444
4743,4743,16920,1552,2128,17123.77,27.21,-1.00,-1.0,2370
4746,4746,17008,1592,2152,17217.37,27.31,-1.00,-1.0,2428
4748,4748,17008,1572,2160,17216.53,27.17,-1.00,-1.0,2368
4751,4751,16976,1532,2052,17168.06,27.31,-1.00,-1.0,2361
4754,4754,16916,1524,2168,17122.32,27.26,-1.00,-1.0,2428
4756,4756,16984,1620,2168,17198.28,27.21,-1.00,-1.0,2368
4759,4759,16932,1580,2140,17139.68,27.26,-1.00,-1.0,2420
4762,4762,17040,1560,1964,17223.60,27.26,-1.00,-1.0,2366
4767,4767,16944,1468,2188,17147.64,27.17,-1.00,-1.0,2434
4770,4770,16912,1528,2068,17106.35,27.21,-1.00,-1.0,2350
4773,4773,16884,1500,2244,17098.39,27.26,-1.00,-1.0,2428
4775,4775,16992,1476,2108,17185.76,27.31,-1.00,-1.0,2368
4778,4778,16920,1572,2196,17134.18,27.26,-1.00,-1.0,2349
4781,4781,16956,1544,2136,17159.62,27.26,-1.00,-1.0,2430
4783,4783,16860,1412,2168,17057.36,27.21,-1.00,-1.0,2367
4786,4786,16952,1544,2028,17142.55,27.21,-1.00,-1.0,2421
4789,4789,16952,1572,2112,17155.23,27.26,-1.00,-1.0,2366
4794,4794,16916,1516,2100,17113.13,27.21,-1.00,-1.0,2434
4797,4797,16956,1600,2184,17170.78,27.31,-1.00,-1.0,2363
4800,4800,16848,1496,2044,17037.34,27.21,-1.00,-1.0,2415
4802,4802,16928,1456,2048,17113.49,27.26,-1.00,-1.0,2366
4805,4805,16964,1472,1944,17138.36,27.26,-1.00,-1.0,2421
4808,4808,16868,1420,2164,17065.42,27.26,-1.00,-1.0,2369
4810,4810,16956,1488,2096,17149.73,27.31,-1.00,-1.0,2363
4813,4813,16944,1384,2236,17146.85,27.21,-1.00,-1.0,2422
4816,4816,16964,1368,1920,17127.03,27.31,-1.00,-1.0,2366
4821,4821,16904,1452,2152,17102.18,27.21,-1.00,-1.0,2435
4824,4824,16860,1520,2112,17059.62,27.21,-1.00,-1.0,2363
4827,4827,16924,1388,2116,17112.15,27.21,-1.00,-1.0,2417
4829,4829,16880,1472,2200,17086.29,27.26,-1.00,-1.0,2365
4832,4832,16904,1456,2180,17106.07,27.21,-1.00,-1.0,2408
4835,4835,16864,1504,2220,17075.86,27.26,-1.00,-1.0,2371
4837,4837,16920,1596,2080,17121.92,27.21,-1.00,-1.0,2363
4840,4840,16988,1420,2140,17181.04,27.26,-1.00,-1.0,2432
4843,4843,16908,1464,2208,17114.29,27.21,-1.00,-1.0,2368
4848,4848,16860,1376,2164,17053.91,27.21,-1.00,-1.0,2434
4851,4851,16904,1368,2336,17119.39,27.21,-1.00,-1.0,2350
4854,4854,17004,1496,2240,17216.03,27.21,-1.00,-1.0,2420
4856,4856,17088,1536,2180,17294.84,27.17,-1.00,-1.0,2372
4859,4859,16864,1524,2068,17058.54,27.17,-1.00,-1.0,2421
4862,4862,16916,1560,2100,17117.09,27.35,-1.00,-1.0,2368
4864,4864,17024,1512,2296,17244.54,27.12,-1.00,-1.0,2366
4867,4867,17012,1588,2080,17212.10,27.26,-1.00,-1.0,2430
4870,4870,16988,1512,2212,17198.00,27.26,-1.00,-1.0,2370
4875,4875,16928,1560,2132,17132.90,27.35,-1.00,-1.0,2434
4878,4878,16976,1452,2096,17166.42,27.31,-1.00,-1.0,2364
4881,4881,16960,1484,2104,17154.32,27.21,-1.00,-1.0,2422
4883,4883,16996,1548,2140,17200.00,27.21,-1.00,-1.0,2369
4886,4886,16900,1392,2000,17074.77,27.21,-1.00,-1.0,2420
4889,4889,16964,1408,2164,17159.33,27.17,-1.00,-1.0,2367
4891,4891,16900,1428,2180,17099.75,27.21,-1.00,-1.0,2362
4894,4894,16948,1424,2152,17143.32,27.21,-1.00,-1.0,2426
4897,4897,16872,1468,2272,17087.46,27.26,-1.00,-1.0,2373
4903,4903,16956,1556,2068,17152.37,27.26,-1.00,-1.0,2422
4905,4905,16948,1492,2148,17148.61,27.21,-1.00,-1.0,2361
4908,4908,16912,1508,2104,17108.96,27.21,-1.00,-1.0,2404
4911,4911,16924,1576,2036,17118.73,27.21,-1.00,-1.0,2371
4913,4913,16924,1480,2144,17123.34,27.21,-1.00,-1.0,2423
4916,4916,16868,1524,2136,17070.87,27.26,-1.00,-1.0,2374
4919,4919,16948,1476,2096,17140.79,27.21,-1.00,-1.0,2362
4921,4921,16860,1484,2068,17051.05,27.21,-1.00,-1.0,2421
4924,4924,16984,1516,2188,17191.33,27.31,-1.00,-1.0,2372
4929,4929,16912,1508,2124,17111.43,27.35,-1.00,-1.0,2434
4932,4932,16920,1556,2076,17117.75,27.26,-1.00,-1.0,2362
4935,4935,16756,1464,2244,16968.87,27.35,-1.00,-1.0,2418
4937,4937,16852,1464,2184,17055.88,27.21,-1.00,-1.0,2365
4940,4940,16980,1556,2132,17183.92,27.17,-1.00,-1.0,2421
4943,4943,16940,1576,2020,17132.65,27.21,-1.00,-1.0,2369
4945,4945,16908,1504,2084,17102.21,27.26,-1.00,-1.0,2362
4948,4948,16816,1476,2164,17018.79,27.31,-1.00,-1.0,2422
4951,4951,16972,1524,2096,17168.71,27.21,-1.00,-1.0,2372
4956,4956,17012,1528,2112,17210.56,27.21,-1.00,-1.0,2446
4959,4959,16952,1484,2108,17146.90,27.17,-1.00,-1.0,2363
4962,4962,16924,1588,2172,17136.54,27.21,-1.00,-1.0,2423
4964,4964,16984,1440,2076,17170.89,27.26,-1.00,-1.0,2366
4967,4967,16936,1504,2156,17138.80,27.26,-1.00,-1.0,2422
4970,4970,16876,1452,2032,17059.80,27.26,-1.00,-1.0,2366
4973,4973,16880,1524,2156,17085.24,27.26,-1.00,-1.0,2362
4975,4975,16888,1564,2140,17094.74,27.26,-1.00,-1.0,2419
4978,4978,16988,1396,2056,17168.81,27.21,-1.00,-1.0,2369
4983,4983,17052,1428,2104,17240.55,27.31,-1.00,-1.0,2443
4986,4986,16896,1448,2044,17080.68,27.26,-1.00,-1.0,2368
4989,4989,16896,1468,2028,17080.47,27.31,-1.00,-1.0,2426
4992,4992,16972,1596,2052,17169.94,27.26,-1.00,-1.0,2365
4994,4994,16936,1488,2184,17140.95,27.21,-1.00,-1.0,2422
4997,4997,17000,1476,1964,17176.61,27.26,-1.00,-1.0,2365
5000,5000,16888,1524,2168,17094.66,27.31,-1.00,-1.0,2362
5002,5002,16928,1436,2024,17108.94,27.26,-1.00,-1.0,2421
5005,5005,17068,1416,1988,17241.63,27.26,-1.00,-1.0,2366
5010,5010,16960,1416,2236,17165.27,27.26,-1.00,-1.0,2436
5013,5013,16928,1440,2168,17126.91,27.26,-1.00,-1.0,2363
5016,5016,16868,1552,2036,17061.17,27.26,-1.00,-1.0,2421
5018,5018,17060,1552,2100,17258.69,27.21,-1.00,-1.0,2371
5021,5021,16836,1524,2028,17026.05,27.17,-1.00,-1.0,2421
5024,5024,16948,1488,2060,17137.46,27.31,-1.00,-1.0,2368
5026,5026,16916,1508,2332,17142.44,27.26,-1.00,-1.0,2362
5030,5030,16856,1548,1856,17028.38,27.21,-1.00,-1.0,2421
5032,5032,16988,1404,2176,17184.25,27.26,-1.00,-1.0,2365
5037,5037,16912,1572,2024,17105.07,27.17,-1.00,-1.0,2434
5040,5040,16984,1508,2100,17179.65,27.17,-1.00,-1.0,2366
5043,5043,16964,1492,2136,17162.92,27.35,-1.00,-1.0,2417
5045,5045,16960,1472,2088,17151.33,27.26,-1.00,-1.0,2372
5048,5048,16948,1416,2208,17149.78,27.17,-1.00,-1.0,2420
5051,5051,16928,1488,2124,17125.50,27.21,-1.00,-1.0,2369
5053,5053,16988,1432,2072,17173.70,27.26,-1.00,-1.0,2348
5057,5057,16920,1480,2096,17113.45,27.31,-1.00,-1.0,2420
5060,5060,17048,1500,2084,17240.28,27.21,-1.00,-1.0,2365
5064,5064,16956,1540,2228,17170.95,27.26,-1.00,-1.0,2435
5067,5067,17020,1488,2260,17233.75,27.35,-1.00,-1.0,2363
5070,5070,16944,1488,2044,17131.59,27.26,-1.00,-1.0,2419
5073,5073,16900,1484,2008,17083.45,27.21,-1.00,-1.0,2370
5075,5075,16992,1468,2016,17174.03,27.17,-1.00,-1.0,2432
5078,5078,16932,1460,2044,17117.31,27.31,-1.00,-1.0,2372
5081,5081,16944,1328,2080,17122.77,27.26,-1.00,-1.0,2362
5084,5084,16996,1392,2124,17184.68,27.21,-1.00,-1.0,2421
5087,5087,16864,1448,2160,17063.32,27.31,-1.00,-1.0,2365
5091,5091,16900,1488,2080,17092.41,27.31,-1.00,-1.0,2434
5094,5094,16900,1376,2140,17090.44,27.17,-1.00,-1.0,2362
5097,5097,16948,1456,2200,17152.10,27.17,-1.00,-1.0,2418
5100,5100,16980,1428,2224,17184.46,27.26,-1.00,-1.0,2370
5102,5102,16928,1584,2044,17124.37,27.17,-1.00,-1.0,2429
5105,5105,16904,1492,2152,17105.62,27.26,-1.00,-1.0,2372
5108,5108,16932,1444,1860,17094.95,27.21,-1.00,-1.0,2418
5111,5111,16956,1476,2192,17160.69,27.17,-1.00,-1.0,2445
5114,5114,17056,1440,2184,17255.45,27.21,-1.00,-1.0,2365
5119,5119,16988,1436,2072,17174.03,27.21,-1.00,-1.0,2435
5121,5121,16920,1472,2172,17122.23,27.21,-1.00,-1.0,2362
5124,5124,16948,1428,2072,17133.80,27.31,-1.00,-1.0,2418
5127,5127,16984,1524,2120,17183.52,27.26,-1.00,-1.0,2365
5129,5129,16952,1384,2336,17168.07,27.17,-1.00,-1.0,2410
5132,5132,16940,1496,2016,17125.01,27.26,-1.00,-1.0,2380
5135,5135,16848,1516,2232,17062.68,27.21,-1.00,-1.0,2362
5138,5138,16988,1468,2092,17179.16,27.17,-1.00,-1.0,2435
5141,5141,16872,1420,2200,17073.98,27.26,-1.00,-1.0,2371
5146,5146,16992,1424,2272,17202.26,27.17,-1.00,-1.0,2434
5148,5148,16876,1456,2192,17079.94,27.21,-1.00,-1.0,2364
5151,5151,16972,1576,2092,17172.92,27.21,-1.00,-1.0,2417
5154,5154,17012,1572,2304,17239.13,27.31,-1.00,-1.0,2365
5156,5156,17044,1464,2184,17245.61,27.21,-1.00,-1.0,2414
5159,5159,16960,1488,2188,17165.17,27.17,-1.00,-1.0,2369
5162,5162,16956,1348,2080,17136.20,27.21,-1.00,-1.0,2362
5165,5165,16952,1628,2124,17161.94,27.21,-1.00,-1.0,2429
5168,5168,16948,1548,2236,17164.81,27.26,-1.00,-1.0,2372
5173,5173,16972,1484,2236,17182.86,27.26,-1.00,-1.0,2437
5175,5175,17076,1452,2292,17290.21,27.35,-1.00,-1.0,2364
5178,5178,16860,1524,2184,17069.04,27.26,-1.00,-1.0,2419
5181,5181,16796,1468,2176,16999.87,27.21,-1.00,-1.0,2364
5184,5184,16816,1560,2068,17014.35,27.21,-1.00,-1.0,2416
5186,5186,16844,1444,2020,17026.04,27.21,-1.00,-1.0,2366
5189,5189,17036,1340,2168,17225.60,27.21,-1.00,-1.0,2421
5192,5192,16804,1524,2224,17018.91,27.31,-1.00,-1.0,2368
5195,5195,17012,1572,2104,17213.54,27.21,-1.00,-1.0,2365
5200,5200,16864,1472,2080,17055.43,27.17,-1.00,-1.0,2437
5202,5202,16900,1564,1988,17088.25,27.26,-1.00,-1.0,2363
5205,5205,16944,1488,2240,17156.07,27.26,-1.00,-1.0,2417
5208,5208,16960,1464,2284,17175.61,27.21,-1.00,-1.0,2365
5211,5211,16980,1440,2220,17184.95,27.26,-1.00,-1.0,2408
5213,5213,16956,1456,2260,17167.80,27.21,-1.00,-1.0,2366
5216,5216,16932,1496,2260,17147.54,27.21,-1.00,-1.0,2421
5219,5219,16872,1468,2076,17062.51,27.21,-1.00,-1.0,2365
5222,5222,16992,1452,2124,17185.68,27.31,-1.00,-1.0,2363
5228,5228,16984,1576,2112,17187.22,27.26,-1.00,-1.0,2443
5231,5231,16984,1468,2100,17176.18,27.31,-1.00,-1.0,2366
5234,5234,16828,1448,2132,17024.21,27.26,-1.00,-1.0,2416
5237,5237,16932,1556,2084,17130.58,27.21,-1.00,-1.0,2365
5239,5239,16940,1428,2116,17131.27,27.21,-1.00,-1.0,2422
5242,5242,16960,1548,2096,17159.00,27.21,-1.00,-1.0,2380
5245,5245,16936,1388,2172,17131.03,27.21,-1.00,-1.0,2406
5248,5248,16964,1492,2232,17175.13,27.26,-1.00,-1.0,2367
5250,5250,16912,1432,2112,17103.42,27.21,-1.00,-1.0,2364
5255,5255,16916,1404,2112,17105.05,27.31,-1.00,-1.0,2435
5258,5258,16944,1392,2116,17132.26,27.21,-1.00,-1.0,2365
5260,5260,16964,1484,2184,17168.27,27.21,-1.00,-1.0,2423
5263,5263,16964,1448,2140,17159.65,27.31,-1.00,-1.0,2371
5266,5266,16972,1504,2076,17164.52,27.31,-1.00,-1.0,2423
5269,5269,16920,1408,2000,17095.87,27.17,-1.00,-1.0,2365
5271,5271,16952,1548,2160,17159.03,27.21,-1.00,-1.0,2421
5274,5274,16876,1412,2220,17079.86,27.26,-1.00,-1.0,2366
5277,5277,17028,1424,2256,17235.72,27.21,-1.00,-1.0,2364
5282,5282,16908,1500,2160,17111.29,27.26,-1.00,-1.0,2434
5284,5284,17000,1424,1988,17174.98,27.26,-1.00,-1.0,2361
5287,5287,17016,1532,2096,17212.92,27.26,-1.00,-1.0,2418
5290,5290,16876,1460,2140,17073.68,27.31,-1.00,-1.0,2366
5292,5292,16920,1508,2136,17120.83,27.26,-1.00,-1.0,2423
5295,5295,16892,1500,2244,17106.29,27.21,-1.00,-1.0,2379
5298,5298,16940,1568,2172,17150.50,27.31,-1.00,-1.0,2420
5301,5301,16988,1488,2076,17178.94,27.21,-1.00,-1.0,2367
5303,5303,17000,1468,2160,17199.44,27.31,-1.00,-1.0,2363
5308,5308,16984,1500,2176,17188.40,27.21,-1.00,-1.0,2449
5311,5311,16988,1464,2116,17181.76,27.26,-1.00,-1.0,2366
5314,5314,16880,1436,2160,17078.12,27.12,-1.00,-1.0,2414
5316,5316,16912,1424,2164,17109.25,27.26,-1.00,-1.0,2365
5319,5319,16920,1420,2104,17109.34,27.31,-1.00,-1.0,2419
5322,5322,16984,1552,2112,17185.04,27.35,-1.00,-1.0,2366
5324,5324,16896,1412,2080,17082.01,27.26,-1.00,-1.0,2418
5327,5327,16940,1484,2156,17141.01,27.26,-1.00,-1.0,2369
5330,5330,16948,1500,2124,17146.31,27.17,-1.00,-1.0,2369
5335,5335,16920,1440,2168,17119.00,27.26,-1.00,-1.0,2434
5337,5337,17032,1492,2128,17229.15,27.17,-1.00,-1.0,2365
5340,5340,16876,1452,2240,17085.82,27.26,-1.00,-1.0,2419
5343,5343,16980,1548,2164,17187.19,27.26,-1.00,-1.0,2365
5346,5346,16916,1492,2140,17115.98,27.26,-1.00,-1.0,2424
5348,5348,16984,1508,2412,17220.57,27.31,-1.00,-1.0,2367
5351,5351,16900,1516,2052,17091.49,27.26,-1.00,-1.0,2434
5354,5354,16872,1536,2112,17072.91,27.21,-1.00,-1.0,2373
5357,5357,16980,1536,2196,17190.18,27.21,-1.00,-1.0,2374
5362,5362,16828,1424,2244,17036.58,27.35,-1.00,-1.0,2434
5365,5365,16936,1508,2192,17143.72,27.26,-1.00,-1.0,2366
5367,5367,16904,1540,2204,17116.50,27.17,-1.00,-1.0,2419
5370,5370,16992,1544,2140,17195.69,27.35,-1.00,-1.0,2380
5373,5373,16960,1624,2124,17169.46,27.26,-1.00,-1.0,2407
5376,5376,16928,1444,2084,17116.82,27.21,-1.00,-1.0,2366
5378,5378,16928,1496,2200,17135.79,27.31,-1.00,-1.0,2421
5381,5381,16960,1488,2080,17151.74,27.21,-1.00,-1.0,2365
5384,5384,16952,1440,2128,17145.62,27.26,-1.00,-1.0,2370
5389,5389,16932,1596,2192,17147.73,27.31,-1.00,-1.0,2441
5391,5391,16936,1500,2140,17136.44,27.26,-1.00,-1.0,2364
5394,5394,16832,1572,2168,17043.70,27.21,-1.00,-1.0,2418
5397,5397,16932,1436,2268,17143.47,27.26,-1.00,-1.0,2371
5400,5400,17000,1376,2104,17184.88,27.26,-1.00,-1.0,2417
5402,5402,16976,1372,2164,17168.28,27.26,-1.00,-1.0,2373
5405,5405,16892,1540,2012,17080.97,27.26,-1.00,-1.0,2428
5408,5408,16988,1376,2056,17167.20,27.35,-1.00,-1.0,2370
5411,5411,16944,1452,2088,17133.80,27.26,-1.00,-1.0,2367
5416,5416,16912,1468,2096,17104.50,27.21,-1.00,-1.0,2437
5418,5418,16976,1444,2144,17171.68,27.31,-1.00,-1.0,2363
5421,5421,16960,1476,2080,17150.70,27.21,-1.00,-1.0,2420
5424,5424,16992,1512,2100,17187.91,27.26,-1.00,-1.0,2367
5427,5427,16996,1392,2156,17188.66,27.35,-1.00,-1.0,2419
5429,5429,16856,1584,2052,17054.16,27.26,-1.00,-1.0,2371
5432,5432,16964,1500,2164,17167.12,27.12,-1.00,-1.0,2420
5435,5435,16968,1456,2060,17154.49,27.21,-1.00,-1.0,2414
5438,5438,16884,1440,2152,17081.40,27.26,-1.00,-1.0,2372
5443,5443,16996,1452,2096,17186.20,27.17,-1.00,-1.0,2435
5445,5445,16872,1448,2240,17081.53,27.26,-1.00,-1.0,2372
5448,5448,16920,1476,2168,17122.07,27.31,-1.00,-1.0,2418
5451,5451,16860,1520,2000,17046.11,27.26,-1.00,-1.0,2360
5454,5454,16852,1460,2028,17036.26,27.35,-1.00,-1.0,2426
5456,5456,16960,1476,2152,17159.58,27.26,-1.00,-1.0,2366
5459,5459,16976,1504,2192,17182.88,27.17,-1.00,-1.0,2427
5462,5462,16900,1392,2120,17089.24,27.21,-1.00,-1.0,2367
5465,5465,16876,1544,2212,17090.24,27.21,-1.00,-1.0,2363
5470,5470,16920,1452,2172,17120.52,27.26,-1.00,-1.0,2436
5472,5472,16860,1456,2112,17054.03,27.35,-1.00,-1.0,2373
5475,5475,16980,1556,2164,17187.92,27.21,-1.00,-1.0,2426
5478,5478,16904,1420,2024,17083.86,27.26,-1.00,-1.0,2373
5481,5481,16812,1580,2168,17024.69,27.26,-1.00,-1.0,2434
5483,5483,16980,1532,2204,17190.84,27.17,-1.00,-1.0,2367
5486,5486,16920,1424,2244,17127.46,27.35,-1.00,-1.0,2419
5489,5489,16956,1388,2288,17165.88,27.21,-1.00,-1.0,2355
5492,5492,16932,1512,2212,17142.69,27.21,-1.00,-1.0,2352
5497,5497,17068,1592,2096,17269.75,27.21,-1.00,-1.0,2440
5500,5500,16908,1444,2084,17097.04,27.26,-1.00,-1.0,2365
5502,5502,17004,1500,2088,17197.26,27.26,-1.00,-1.0,2420
5505,5505,16848,1472,2104,17042.56,27.26,-1.00,-1.0,2367
5508,5508,16908,1500,2140,17108.77,27.26,-1.00,-1.0,2418
5510,5510,16852,1508,2128,17052.63,27.31,-1.00,-1.0,2367
5513,5513,16976,1528,2052,17167.70,27.17,-1.00,-1.0,2419
5516,5516,16924,1580,2028,17118.15,27.31,-1.00,-1.0,2367
5519,5519,16932,1560,2132,17136.85,27.21,-1.00,-1.0,2363
5524,5524,17120,1532,2228,17332.21,27.31,-1.00,-1.0,2435
5527,5527,16880,1388,2220,17081.84,27.26,-1.00,-1.0,2371
5529,5529,16928,1492,2312,17150.18,27.31,-1.00,-1.0,2429
5532,5532,16976,1540,2280,17197.52,27.26,-1.00,-1.0,2364
5535,5535,16996,1488,2128,17193.21,27.26,-1.00,-1.0,2424
5537,5537,16956,1552,2028,17147.23,27.26,-1.00,-1.0,2366
5540,5540,17028,1520,2144,17229.62,27.26,-1.00,-1.0,2420
5543,5543,16940,1496,2044,17128.33,27.26,-1.00,-1.0,2366
5546,5546,16908,1448,1984,17085.47,27.26,-1.00,-1.0,2362
5551,5551,16964,1396,1992,17137.51,27.31,-1.00,-1.0,2433
5554,5554,16936,1500,2032,17123.29,27.26,-1.00,-1.0,2370
5556,5556,16988,1392,2112,17175.28,27.31,-1.00,-1.0,2426
5559,5559,17016,1456,2136,17211.24,27.31,-1.00,-1.0,2372
5562,5562,16924,1516,2112,17122.52,27.21,-1.00,-1.0,2425
5565,5565,16996,1396,2092,17181.07,27.26,-1.00,-1.0,2366
5567,5567,17012,1628,2144,17223.68,27.31,-1.00,-1.0,2419
5570,5570,16992,1396,2148,17184.03,27.26,-1.00,-1.0,2366
5575,5575,16904,1500,1920,17078.69,27.26,-1.00,-1.0,2433
5578,5578,16964,1484,1964,17141.67,27.21,-1.00,-1.0,2364
5580,5580,16944,1500,2016,17129.31,27.26,-1.00,-1.0,2357
5583,5583,16852,1476,2072,17042.94,27.17,-1.00,-1.0,2418
5586,5586,16960,1476,2052,17147.33,27.31,-1.00,-1.0,2365
5588,5588,16948,1404,2188,17146.23,27.35,-1.00,-1.0,2417
5591,5591,17000,1432,2076,17186.05,27.31,-1.00,-1.0,2383
5594,5594,16940,1480,2128,17137.16,27.21,-1.00,-1.0,2432
5597,5597,16908,1532,2056,17101.30,27.31,-1.00,-1.0,2367
5602,5602,16940,1548,2112,17141.19,27.26,-1.00,-1.0,2437
5605,5605,16964,1512,2112,17161.70,27.26,-1.00,-1.0,2364
5607,5607,16872,1476,2088,17064.66,27.26,-1.00,-1.0,2353
5610,5610,17032,1456,2068,17218.76,27.21,-1.00,-1.0,2419
5613,5613,16920,1496,1988,17101.95,27.26,-1.00,-1.0,2365
5615,5615,16972,1444,2132,17166.23,27.26,-1.00,-1.0,2412
5618,5618,16904,1556,1932,17085.05,27.21,-1.00,-1.0,2368
5621,5621,16964,1528,2068,17157.76,27.21,-1.00,-1.0,2430
5624,5624,16984,1464,2048,17169.56,27.21,-1.00,-1.0,2369
5629,5629,16944,1452,1940,17116.40,27.21,-1.00,-1.0,2433
5632,5632,16992,1544,2028,17182.11,27.17,-1.00,-1.0,2364
5634,5634,17024,1456,2072,17211.32,27.21,-1.00,-1.0,2353
5637,5637,16968,1488,1952,17144.61,27.21,-1.00,-1.0,2418
5640,5640,16960,1436,2016,17139.66,27.26,-1.00,-1.0,2366
5642,5642,16916,1468,2208,17122.54,27.35,-1.00,-1.0,2412
5645,5645,16920,1504,2152,17122.49,27.26,-1.00,-1.0,2353
5648,5648,16912,1464,2192,17116.19,27.35,-1.00,-1.0,2429
5651,5651,16920,1492,2100,17114.98,27.26,-1.00,-1.0,2377
5656,5656,16968,1512,2036,17156.47,27.17,-1.00,-1.0,2434
5659,5659,16988,1480,2280,17204.10,27.21,-1.00,-1.0,2370
5661,5661,16976,1512,2104,17172.58,27.17,-1.00,-1.0,2360
5664,5664,16972,1476,2088,17163.54,27.26,-1.00,-1.0,2417
5667,5667,16912,1420,2196,17112.99,27.26,-1.00,-1.0,2371
5669,5669,16964,1532,2168,17170.46,27.26,-1.00,-1.0,2425
5672,5672,16980,1448,2092,17169.55,27.26,-1.00,-1.0,2367
5675,5675,16940,1524,1984,17123.74,27.26,-1.00,-1.0,2415
5678,5678,16880,1432,2060,17065.42,27.26,-1.00,-1.0,2369
5683,5683,17024,1476,2092,17215.45,27.35,-1.00,-1.0,2434
5686,5686,16960,1460,2172,17160.73,27.31,-1.00,-1.0,2367
5688,5688,16900,1544,2204,17112.91,27.26,-1.00,-1.0,2360
5691,5691,16876,1444,2148,17073.32,27.35,-1.00,-1.0,2419
5694,5694,17020,1504,2048,17208.62,27.26,-1.00,-1.0,2371
5696,5696,16976,1564,2056,17171.42,27.26,-1.00,-1.0,2426
5699,5699,16900,1484,2096,17094.02,27.35,-1.00,-1.0,2367
5702,5702,16940,1484,2152,17140.51,27.21,-1.00,-1.0,2416
5705,5705,16944,1456,2056,17130.27,27.26,-1.00,-1.0,2370
5710,5710,16908,1564,2184,17120.06,27.17,-1.00,-1.0,2447
5713,5713,17012,1608,2004,17204.94,27.26,-1.00,-1.0,2374
5715,5715,16980,1508,2200,17188.21,27.26,-1.00,-1.0,2365
5718,5718,16900,1520,2124,17100.64,27.21,-1.00,-1.0,2418
5721,5721,16988,1508,2076,17180.69,27.26,-1.00,-1.0,2368
5724,5724,16916,1504,2220,17127.21,27.26,-1.00,-1.0,2424
5726,5726,17044,1496,2036,17230.24,27.26,-1.00,-1.0,2367
5729,5729,16904,1544,2280,17126.81,27.31,-1.00,-1.0,2419
5732,5732,16932,1460,2320,17152.45,27.21,-1.00,-1.0,2366
5737,5737,16900,1540,2120,17101.93,27.26,-1.00,-1.0,2427
5740,5740,16908,1496,2104,17103.96,27.26,-1.00,-1.0,2375
5742,5742,16824,1544,2112,17026.20,27.35,-1.00,-1.0,2365
5745,5745,17016,1496,1984,17196.47,27.31,-1.00,-1.0,2418
5748,5748,17012,1480,2080,17202.47,27.35,-1.00,-1.0,2369
5751,5751,16964,1548,2108,17164.42,27.17,-1.00,-1.0,2424
5753,5753,16896,1592,1908,17077.76,27.17,-1.00,-1.0,2367
5756,5756,16808,1560,2172,17019.40,27.21,-1.00,-1.0,2421
5759,5759,16976,1484,2088,17168.19,27.31,-1.00,-1.0,2368
5764,5764,16880,1500,2112,17077.62,27.12,-1.00,-1.0,2440
5767,5767,16896,1560,2116,17099.29,27.17,-1.00,-1.0,2367
5769,5769,16924,1620,2060,17125.71,27.17,-1.00,-1.0,2360
5772,5772,16944,1512,2020,17130.84,27.21,-1.00,-1.0,2418
5775,5775,16912,1500,1984,17093.92,27.31,-1.00,-1.0,2366
5778,5778,16916,1428,2200,17118.13,27.31,-1.00,-1.0,2425
5780,5780,16976,1488,2088,17168.53,27.26,-1.00,-1.0,2372
5783,5783,17016,1520,1996,17199.96,27.35,-1.00,-1.0,2421
5786,5786,16904,1432,2092,17093.05,27.31,-1.00,-1.0,2366
5791,5791,16964,1568,2032,17157.07,27.26,-1.00,-1.0,2442
5794,5794,16984,1460,2188,17186.48,27.35,-1.00,-1.0,2370
5797,5797,16904,1516,2104,17101.76,27.31,-1.00,-1.0,2359
5799,5799,16896,1444,2156,17094.10,27.31,-1.00,-1.0,2421
5802,5802,16952,1384,2080,17135.12,27.31,-1.00,-1.0,2379
5805,5805,16916,1472,2084,17107.33,27.21,-1.00,-1.0,2407
5808,5808,16980,1476,2208,17186.46,27.26,-1.00,-1.0,2366
5810,5810,16856,1444,2160,17055.07,27.17,-1.00,-1.0,2425
5813,5813,16988,1488,2072,17178.46,27.35,-1.00,-1.0,2367
5818,5818,16924,1340,2216,17120.98,27.31,-1.00,-1.0,2433
5821,5821,17024,1432,2112,17214.17,27.21,-1.00,-1.0,2364
5823,5823,16908,1464,2248,17119.50,27.21,-1.00,-1.0,2358
5826,5826,16904,1480,2244,17116.40,27.26,-1.00,-1.0,2417
5829,5829,17000,1472,2140,17197.28,27.21,-1.00,-1.0,2367
5832,5832,16856,1432,2092,17045.58,27.21,-1.00,-1.0,2415
5834,5834,16848,1512,2176,17055.09,27.17,-1.00,-1.0,2376
5837,5837,16832,1492,2244,17046.34,27.26,-1.00,-1.0,2424
5840,5840,16952,1524,2092,17148.45,27.26,-1.00,-1.0,2369
5845,5845,16768,1464,2100,16962.29,27.35,-1.00,-1.0,2420
5848,5848,16980,1404,1932,17147.13,27.21,-1.00,-1.0,2364
5850,5850,17036,1440,2132,17229.17,27.26,-1.00,-1.0,2357
5853,5853,16948,1596,2112,17153.50,27.26,-1.00,-1.0,2419
5856,5856,16840,1476,2152,17040.99,27.31,-1.00,-1.0,2367
5859,5859,16964,1460,2196,17167.74,27.35,-1.00,-1.0,2417
5861,5861,16940,1464,2160,17139.79,27.21,-1.00,-1.0,2376
5864,5864,16892,1428,2184,17092.36,27.21,-1.00,-1.0,2427
5867,5867,21156,-8652,-4492,23294.02,27.26,-1.00,-1.0,2371
5872,5872,5576,2500,-7720,9845.82,27.21,-1.00,-1.0,2447
5875,5875,21680,-4848,13732,26116.92,27.21,-1.00,-1.0,2373
5878,5878,18952,12808,-648,22883.25,27.31,-1.00,-1.0,2420
5880,5880,12060,464,-8224,14604.56,27.26,-1.00,-1.0,2366
5883,5883,24280,332,11984,27078.49,27.31,-1.00,-1.0,2365
5886,5886,16848,3160,-11684,20745.04,27.21,-1.00,-1.0,2431
5888,5888,21320,6612,12192,25434.34,27.21,-1.00,-1.0,2367
5891,5891,12988,-940,-6916,14744.58,27.31,-1.00,-1.0,2428
5894,5894,20824,2368,16428,26629.41,27.21,-1.00,-1.0,2377
5899,5899,15956,3268,844,16309.08,27.21,-1.00,-1.0,2441
5902,5902,19336,-1564,6700,20523.57,27.21,-1.00,-1.0,2373
5905,5905,15076,1116,-4400,15744.56,27.31,-1.00,-1.0,2423
5907,5907,18620,2868,3892,19237.40,27.26,-1.00,-1.0,2368
5910,5910,17156,3196,6108,18489.20,27.21,-1.00,-1.0,2367
5913,5913,19332,1916,1932,19522.55,27.26,-1.00,-1.0,2428
5915,5915,16408,3220,-1528,16790.64,27.31,-1.00,-1.0,2378
5918,5918,16072,552,1800,16181.90,27.26,-1.00,-1.0,2425
5921,5921,17704,2488,3548,18226.63,27.26,-1.00,-1.0,2374
5926,5926,18140,444,4568,18711.58,27.21,-1.00,-1.0,2437
5929,5929,16588,2020,-148,16711.20,27.31,-1.00,-1.0,2363
5932,5932,17644,-208,6176,18694.84,27.31,-1.00,-1.0,2423
5934,5934,17020,2116,2932,17399.84,27.26,-1.00,-1.0,2366
5937,5937,16612,1600,2300,16846.62,27.21,-1.00,-1.0,2361
5940,5940,17180,988,5372,18027.39,27.12,-1.00,-1.0,2427
5942,5942,16400,3240,816,16736.89,27.31,-1.00,-1.0,2366
5945,5945,17492,1868,5396,18400.44,27.26,-1.00,-1.0,2423
5948,5948,15248,-204,-3876,15734.25,27.35,-1.00,-1.0,2374
5953,5953,17424,2012,3968,17983.02,27.26,-1.00,-1.0,2445
5956,5956,17036,948,1352,17115.84,27.21,-1.00,-1.0,2362
5959,5959,17160,532,2448,17341.89,27.31,-1.00,-1.0,2422
5961,5961,16984,1824,252,17083.52,27.21,-1.00,-1.0,2366
5964,5964,17192,1024,3492,17572.92,27.31,-1.00,-1.0,2369
5967,5967,17104,968,2144,17265.01,27.35,-1.00,-1.0,2428
5970,5970,16940,1200,1768,17074.23,27.31,-1.00,-1.0,2367
5972,5972,16848,2184,2924,17238.76,27.31,-1.00,-1.0,2418
5975,5975,16244,2368,2276,16572.72,27.35,-1.00,-1.0,2369
5980,5980,16476,1816,600,16586.63,27.26,-1.00,-1.0,2444
5983,5983,16948,2392,1748,17205.00,27.31,-1.00,-1.0,2370
5986,5986,17548,2316,3468,18036.72,27.26,-1.00,-1.0,2424
5989,5989,16916,1448,1816,17074.71,27.31,-1.00,-1.0,2366
5991,5991,16952,1496,1408,17076.03,27.35,-1.00,-1.0,2377
5994,5994,16668,1164,1064,16742.44,27.26,-1.00,-1.0,2410
5997,5997,17356,960,1672,17462.76,27.31,-1.00,-1.0,2366
5999,5999,16788,340,2424,16965.50,27.31,-1.00,-1.0,2419
6002,6002,16864,828,1288,16933.37,27.31,-1.00,-1.0,2366
6007,6007,16792,1180,2116,16965.88,27.26,-1.00,-1.0,2441
6010,6010,17280,1368,2548,17520.33,27.26,-1.00,-1.0,2369
6013,6013,17008,1700,3020,17357.49,27.35,-1.00,-1.0,2420
6016,6016,16792,2404,1944,17074.24,27.31,-1.00,-1.0,2366
6018,6018,16644,1780,2528,16928.73,27.26,-1.00,-1.0,2364
6021,6021,16440,1552,2584,16714.05,27.26,-1.00,-1.0,2421
6024,6024,16516,1556,2632,16796.63,27.26,-1.00,-1.0,2367
6027,6027,16744,1940,2000,16974.25,27.31,-1.00,-1.0,2419
6029,6029,17160,2332,1852,17416.48,27.31,-1.00,-1.0,2367
6034,6034,17148,876,2056,17293.02,27.31,-1.00,-1.0,2435
6037,6037,17216,1268,1392,17318.66,27.26,-1.00,-1.0,2371
6040,6040,17220,1020,1652,17329.11,27.21,-1.00,-1.0,2419
6043,6043,17264,1144,1844,17399.85,27.26,-1.00,-1.0,2369
6045,6045,17064,1176,1792,17198.09,27.35,-1.00,-1.0,2362
6048,6048,17168,1336,2888,17460.40,27.31,-1.00,-1.0,2420
6051,6051,16844,1636,1808,17019.57,27.26,-1.00,-1.0,2372
6054,6054,16416,1256,1344,16518.74,27.26,-1.00,-1.0,2418
6056,6056,16652,1268,2628,16905.72,27.31,-1.00,-1.0,2355
6061,6061,16940,2128,3216,17373.39,27.21,-1.00,-1.0,2434
6064,6064,16940,1812,2888,17279.68,27.26,-1.00,-1.0,2365
6067,6067,16804,1680,2152,17024.33,27.21,-1.00,-1.0,2419
6070,6070,16896,1908,2160,17140.04,27.17,-1.00,-1.0,2372
6072,6072,17392,1972,1776,17593.31,27.31,-1.00,-1.0,2362
6075,6075,16972,1460,1100,17070.16,27.31,-1.00,-1.0,2419
6078,6078,16968,1008,1688,17081.52,27.31,-1.00,-1.0,2370
6081,6081,16916,1328,2016,17087.39,27.17,-1.00,-1.0,2419
6084,6084,17200,1148,2836,17470.00,27.17,-1.00,-1.0,2367
6090,6090,17040,1256,1952,17197.37,27.35,-1.00,-1.0,2435
6093,6093,17008,1804,1440,17163.92,27.26,-1.00,-1.0,2363
6096,6096,16932,1848,1376,17088.04,27.26,-1.00,-1.0,2422
6098,6098,17032,1492,2716,17311.61,27.31,-1.00,-1.0,2366
6101,6101,16772,1604,2524,17036.53,27.26,-1.00,-1.0,2363
6104,6104,16720,1600,2792,17026.85,27.35,-1.00,-1.0,2428
6106,6106,16720,1460,3472,17138.98,27.26,-1.00,-1.0,2368
6109,6109,16688,1752,2332,16940.99,27.35,-1.00,-1.0,2418
6112,6112,16904,1856,2188,17145.77,27.31,-1.00,-1.0,2367
6117,6117,17088,1492,1884,17256.17,27.26,-1.00,-1.0,2441
6119,6119,16880,1180,1436,16982.02,27.21,-1.00,-1.0,2364
6122,6122,17144,1212,2368,17349.15,27.26,-1.00,-1.0,2418
6125,6125,17124,1068,2424,17327.66,27.21,-1.00,-1.0,2365
6127,6127,17124,1068,1688,17240.11,27.35,-1.00,-1.0,2357
6130,6130,17004,1232,1668,17129.98,27.26,-1.00,-1.0,2418
6133,6133,16992,1412,2052,17173.60,27.21,-1.00,-1.0,2368
6136,6136,16892,1552,1816,17060.08,27.21,-1.00,-1.0,2417
6138,6138,16976,1744,2360,17227.76,27.31,-1.00,-1.0,2375
6143,6143,16800,1672,2004,17001.52,27.21,-1.00,-1.0,2432
6146,6146,16816,1596,2228,17037.87,27.26,-1.00,-1.0,2363
6149,6149,16848,1676,2436,17105.50,27.26,-1.00,-1.0,2417
6151,6151,16804,1672,2408,17057.80,27.26,-1.00,-1.0,2366
6154,6154,16880,1684,2236,17110.52,27.26,-1.00,-1.0,2363
6157,6157,17000,1628,2076,17203.49,27.12,-1.00,-1.0,2429
6159,6159,17020,1396,1940,17187.00,27.35,-1.00,-1.0,2367
6162,6162,16888,1268,1760,17026.74,27.17,-1.00,-1.0,2418
6165,6165,16936,1192,1944,17088.83,27.26,-1.00,-1.0,2367
6170,6170,16972,1284,2028,17140.89,27.31,-1.00,-1.0,2424
6173,6173,16964,1328,1968,17129.33,27.21,-1.00,-1.0,2363
6175,6175,16956,1340,2112,17139.49,27.31,-1.00,-1.0,2433
6178,6178,17104,1404,2096,17289.05,27.26,-1.00,-1.0,2365
6181,6181,16988,1556,1888,17163.27,27.31,-1.00,-1.0,2357
6183,6183,16904,1616,1956,17093.35,27.21,-1.00,-1.0,2427
6186,6186,16964,1684,2176,17185.70,27.26,-1.00,-1.0,2364
6189,6189,16896,1512,2264,17113.93,27.31,-1.00,-1.0,2424
6192,6192,16848,1372,2540,17093.54,27.26,-1.00,-1.0,2366
6197,6197,16976,1440,2356,17199.10,27.31,-1.00,-1.0,2435
6199,6199,16960,1376,2276,17167.27,27.31,-1.00,-1.0,2365
6202,6202,16972,1504,2228,17183.56,27.31,-1.00,-1.0,2417
6205,6205,17008,1412,2164,17203.16,27.26,-1.00,-1.0,2366
6207,6207,16968,1292,1988,17132.85,27.12,-1.00,-1.0,2363
6210,6210,17000,1316,1964,17163.60,27.31,-1.00,-1.0,2435
6213,6213,17000,1324,2132,17184.25,27.31,-1.00,-1.0,2374
6216,6216,17092,1436,2060,17275.48,27.35,-1.00,-1.0,2421
6219,6219,17060,1600,1960,17246.60,27.26,-1.00,-1.0,2365
6224,6224,17012,1580,1956,17196.82,27.35,-1.00,-1.0,2438
6226,6226,16820,1600,1944,17007.40,27.31,-1.00,-1.0,2365
6229,6229,16840,1396,2184,17038.32,27.21,-1.00,-1.0,2429
6232,6232,16900,1492,2152,17101.67,27.40,-1.00,-1.0,2375
6234,6234,16904,1488,2324,17127.77,27.26,-1.00,-1.0,2370
6237,6237,16940,1576,2336,17172.78,27.26,-1.00,-1.0,2427
6240,6240,16820,1520,2204,17031.75,27.31,-1.00,-1.0,2375
6243,6243,16996,1524,2164,17200.86,27.31,-1.00,-1.0,2427
6246,6246,16996,1472,1936,17169.13,27.26,-1.00,-1.0,2364
6251,6251,16936,1576,2268,17159.71,27.26,-1.00,-1.0,2441
6254,6254,16932,1472,2360,17158.93,27.21,-1.00,-1.0,2364
6256,6256,16976,1456,2428,17210.45,27.31,-1.00,-1.0,2419
6259,6259,16980,1592,2120,17185.73,27.35,-1.00,-1.0,2366
6262,6262,16956,1636,2236,17180.87,27.21,-1.00,-1.0,2358
6264,6264,16952,1532,1868,17123.28,27.35,-1.00,-1.0,2432
6267,6267,16856,1372,1840,17011.55,27.21,-1.00,-1.0,2366
6270,6270,16940,1364,2188,17135.09,27.31,-1.00,-1.0,2418
6273,6273,16968,1456,2408,17199.75,27.21,-1.00,-1.0,2366
6278,6278,16888,1524,2488,17138.18,27.26,-1.00,-1.0,2435
6280,6280,16868,1484,2604,17132.21,27.26,-1.00,-1.0,2371
6283,6283,16920,1536,2372,17154.36,27.35,-1.00,-1.0,2425
6286,6286,16916,1628,2152,17129.87,27.21,-1.00,-1.0,2376
6288,6288,16828,1640,2016,17027.49,27.26,-1.00,-1.0,2370
6291,6291,16964,1484,2112,17159.26,27.21,-1.00,-1.0,2419
6294,6294,17048,1516,2196,17255.58,27.26,-1.00,-1.0,2369
6297,6297,17048,1548,2296,17271.43,27.31,-1.00,-1.0,2423
6300,6300,17020,1500,2036,17206.85,27.21,-1.00,-1.0,2371
6305,6305,16916,1336,1644,17048.13,27.31,-1.00,-1.0,2433
6307,6307,16944,1396,1984,17116.78,27.21,-1.00,-1.0,2363
6310,6310,16912,1372,1948,17079.02,27.21,-1.00,-1.0,2415
6313,6313,17052,1408,2152,17244.83,27.35,-1.00,-1.0,2367
6315,6315,16908,1452,2348,17131.90,27.31,-1.00,-1.0,2362
6318,6318,16956,1468,2316,17176.29,27.31,-1.00,-1.0,2418
6321,6321,16860,1436,2280,17073.96,27.31,-1.00,-1.0,2374
6324,6324,16940,1628,2208,17160.69,27.26,-1.00,-1.0,2427
6327,6327,16828,1592,2296,17058.36,27.26,-1.00,-1.0,2372
6332,6332,16916,1488,2308,17137.45,27.26,-1.00,-1.0,2434
6334,6334,16904,1408,2216,17106.68,27.21,-1.00,-1.0,2362
6337,6337,16956,1368,2096,17139.74,27.31,-1.00,-1.0,2417
6340,6340,16900,1384,2068,17082.21,27.21,-1.00,-1.0,2367
6342,6342,16912,1488,1836,17076.32,27.31,-1.00,-1.0,2362
6345,6345,17024,1500,1868,17191.74,27.26,-1.00,-1.0,2418
6348,6348,17020,1576,1924,17200.75,27.26,-1.00,-1.0,2377
6351,6351,16956,1540,2088,17153.35,27.35,-1.00,-1.0,2431
6354,6354,16944,1436,2016,17123.83,27.26,-1.00,-1.0,2375
