timestamp_ms,global_ms,accel_x,accel_y,accel_z,accel_mag,temp_c,voltage,soc,loop_us
2,2135002,17012,-92,1604,17087.70,29.85,-1.00,-1.0,2498
9,2135009,16900,-128,1164,16940.52,29.71,-1.00,-1.0,2474
11,2135011,17020,-252,1088,17056.60,29.71,-1.00,-1.0,2384
14,2135014,17112,-208,1072,17146.81,29.85,-1.00,-1.0,2434
17,2135017,17112,-372,1080,17150.08,29.75,-1.00,-1.0,2373
19,2135019,17116,-404,1092,17155.56,29.75,-1.00,-1.0,2370
22,2135022,17024,-268,1200,17068.35,29.71,-1.00,-1.0,2453
25,2135025,17036,-512,1300,17093.20,29.71,-1.00,-1.0,2385
28,2135028,16988,-380,1356,17046.27,29.80,-1.00,-1.0,2434
31,2135031,17120,-424,1368,17179.80,29.80,-1.00,-1.0,2381
35,2135035,17072,-184,1556,17143.75,29.80,-1.00,-1.0,2450
38,2135038,17060,-228,1440,17122.18,29.80,-1.00,-1.0,2381
41,2135041,17016,-228,1584,17091.09,29.85,-1.00,-1.0,2437
44,2135044,17080,-464,1676,17168.30,29.80,-1.00,-1.0,2385
46,2135046,17028,-516,1696,17120.03,29.75,-1.00,-1.0,2370
49,2135049,16908,-684,1420,16981.30,29.71,-1.00,-1.0,2433
52,2135052,17068,-612,1352,17132.40,29.75,-1.00,-1.0,2373
55,2135055,17112,-372,1388,17172.23,29.80,-1.00,-1.0,2434
57,2135057,17096,-444,1384,17157.68,29.71,-1.00,-1.0,2376
62,2135062,17020,-348,1304,17073.43,29.80,-1.00,-1.0,2450
65,2135065,17124,-364,1312,17178.04,29.75,-1.00,-1.0,2376
68,2135068,17080,-456,1488,17150.76,29.80,-1.00,-1.0,2439
70,2135070,16924,-424,1424,16989.09,29.80,-1.00,-1.0,2373
73,2135073,17028,-456,1224,17078.02,29.80,-1.00,-1.0,2447
76,2135076,17004,-372,1096,17043.35,29.80,-1.00,-1.0,2385
79,2135079,16980,-540,1036,17020.14,29.66,-1.00,-1.0,2371
81,2135081,17000,-396,1032,17035.90,29.75,-1.00,-1.0,2432
84,2135084,17052,-620,1112,17099.46,29.85,-1.00,-1.0,2374
89,2135089,17008,-420,704,17027.74,29.85,-1.00,-1.0,2447
92,2135092,16960,-296,872,16984.98,29.75,-1.00,-1.0,2376
95,2135095,17096,-236,1052,17129.96,29.75,-1.00,-1.0,2440
97,2135097,17192,-212,948,17219.42,29.85,-1.00,-1.0,2377
100,2135100,17028,60,1080,17062.32,29.89,-1.00,-1.0,2435
103,2135103,17020,-124,1024,17051.23,29.80,-1.00,-1.0,2376
106,2135106,16948,8,1044,16980.13,29.71,-1.00,-1.0,2440
108,2135108,16924,-32,1068,16957.70,29.80,-1.00,-1.0,2376
111,2135111,16856,-120,1092,16891.76,29.75,-1.00,-1.0,2377
116,2135116,17020,-108,1256,17066.62,29.66,-1.00,-1.0,2463
119,2135119,17020,-276,1328,17073.96,29.75,-1.00,-1.0,2378
122,2135122,17004,-236,1364,17060.25,29.75,-1.00,-1.0,2432
124,2135124,17112,-272,1352,17167.48,29.85,-1.00,-1.0,2376
127,2135127,16992,-360,1424,17055.36,29.80,-1.00,-1.0,2436
130,2135130,17136,-264,1456,17199.77,29.75,-1.00,-1.0,2363
133,2135133,17080,-152,1448,17141.94,29.89,-1.00,-1.0,2438
135,2135135,17072,-264,1488,17138.76,29.71,-1.00,-1.0,2373
140,2135140,17040,-292,1348,17095.73,29.71,-1.00,-1.0,2448
143,2135143,17024,-204,1328,17076.94,29.71,-1.00,-1.0,2375
146,2135146,17068,-344,1396,17128.45,29.71,-1.00,-1.0,2381
149,2135149,16928,-388,1432,16992.89,29.85,-1.00,-1.0,2442
151,2135151,17056,-444,1436,17122.10,29.75,-1.00,-1.0,2387
154,2135154,17056,-468,1344,17115.27,29.85,-1.00,-1.0,2434
157,2135157,17112,-620,1440,17183.67,29.75,-1.00,-1.0,2373
160,2135160,17044,-432,1252,17095.38,29.85,-1.00,-1.0,2432
162,2135162,17144,-480,1348,17203.61,29.75,-1.00,-1.0,2379
167,2135167,17056,-456,1172,17102.30,29.75,-1.00,-1.0,2438
170,2135170,16964,-284,1276,17014.29,29.75,-1.00,-1.0,2378
173,2135173,17020,-308,1404,17080.59,29.71,-1.00,-1.0,2433
176,2135176,17024,-264,1180,17066.89,29.75,-1.00,-1.0,2372
178,2135178,17040,-320,1344,17095.92,29.80,-1.00,-1.0,2436
181,2135181,17056,-456,1236,17106.80,29.80,-1.00,-1.0,2376
184,2135184,17076,-504,1276,17131.02,29.75,-1.00,-1.0,2379
187,2135187,17072,-340,1372,17130.42,29.75,-1.00,-1.0,2445
189,2135189,16940,-452,1312,16996.74,29.75,-1.00,-1.0,2383
194,2135194,17036,-260,1192,17079.63,29.75,-1.00,-1.0,2458
197,2135197,16956,-80,1060,16989.29,29.85,-1.00,-1.0,2380
200,2135200,17020,-332,1040,17054.98,29.80,-1.00,-1.0,2434
203,2135203,16964,-252,1268,17013.19,29.66,-1.00,-1.0,2372
205,2135205,16964,-300,1088,17001.50,29.80,-1.00,-1.0,2434
208,2135208,16948,-340,1112,16987.84,29.80,-1.00,-1.0,2374
211,2135211,17016,-236,1068,17051.12,29.66,-1.00,-1.0,2435
214,2135214,17052,-224,1100,17088.91,29.80,-1.00,-1.0,2374
219,2135219,16992,-196,1272,17040.67,29.85,-1.00,-1.0,2450
221,2135221,17020,-100,960,17047.35,29.75,-1.00,-1.0,2381
224,2135224,16964,-244,1012,16995.91,29.80,-1.00,-1.0,2375
227,2135227,16960,-72,956,16987.07,29.80,-1.00,-1.0,2432
229,2135229,16940,-256,968,16969.57,29.71,-1.00,-1.0,2373
232,2135232,17108,-284,1028,17141.21,29.75,-1.00,-1.0,2434
235,2135235,17064,-304,1152,17105.54,29.71,-1.00,-1.0,2375
238,2135238,17120,-520,1156,17166.86,29.75,-1.00,-1.0,2426
240,2135240,17152,-380,1372,17210.98,29.75,-1.00,-1.0,2373
245,2135245,17180,-524,1332,17239.52,29.80,-1.00,-1.0,2447
248,2135248,17068,-356,1332,17123.60,29.71,-1.00,-1.0,2374
251,2135251,17064,-356,1360,17121.81,29.75,-1.00,-1.0,2440
253,2135253,16944,-260,1364,17000.80,29.75,-1.00,-1.0,2375
256,2135256,16888,-192,1340,16942.17,29.75,-1.00,-1.0,2435
259,2135259,16952,-240,1340,17006.57,29.75,-1.00,-1.0,2374
262,2135262,17020,-316,1456,17085.09,29.75,-1.00,-1.0,2375
264,2135264,16984,-300,1380,17042.61,29.71,-1.00,-1.0,2422
267,2135267,17080,-404,1400,17142.04,29.80,-1.00,-1.0,2382
272,2135272,17052,-344,1580,17128.50,29.89,-1.00,-1.0,2458
275,2135275,17128,-452,1428,17193.37,29.71,-1.00,-1.0,2375
278,2135278,17052,-428,1256,17103.55,29.66,-1.00,-1.0,2433
280,2135280,17060,-344,1260,17109.93,29.80,-1.00,-1.0,2362
283,2135283,16996,-428,1252,17047.43,29.66,-1.00,-1.0,2422
286,2135286,17044,-272,1092,17081.11,29.71,-1.00,-1.0,2378
289,2135289,17052,-312,1096,17090.03,29.75,-1.00,-1.0,2438
291,2135291,17028,-296,1144,17068.95,29.75,-1.00,-1.0,2373
294,2135294,16992,-256,1104,17029.75,29.94,-1.00,-1.0,2370
299,2135299,17020,-308,1092,17057.78,29.75,-1.00,-1.0,2448
302,2135302,17072,-352,1080,17109.75,29.75,-1.00,-1.0,2375
305,2135305,17044,-236,1192,17087.26,29.85,-1.00,-1.0,2443
307,2135307,17080,-160,1180,17121.46,29.85,-1.00,-1.0,2374
310,2135310,17088,-236,980,17117.71,29.80,-1.00,-1.0,2449
313,2135313,17016,-244,1076,17051.73,29.80,-1.00,-1.0,2380
316,2135316,17012,-248,1092,17048.82,29.61,-1.00,-1.0,2436
319,2135319,17052,-276,1176,17094.73,29.80,-1.00,-1.0,2385
324,2135324,17088,-384,1204,17134.67,29.75,-1.00,-1.0,2447
326,2135326,17032,-324,1336,17087.39,29.89,-1.00,-1.0,2380
329,2135329,17108,-392,1188,17153.68,29.85,-1.00,-1.0,2440
332,2135332,17072,-228,1276,17121.14,29.80,-1.00,-1.0,2375
334,2135334,16996,-348,1488,17064.56,29.75,-1.00,-1.0,2370
337,2135337,17108,-228,1360,17163.49,29.85,-1.00,-1.0,2437
340,2135340,17028,-96,1360,17082.49,29.75,-1.00,-1.0,2374
343,2135343,16984,-140,1344,17037.67,29.71,-1.00,-1.0,2441
345,2135345,16936,-176,1308,16987.35,29.75,-1.00,-1.0,2377
350,2135350,17092,-164,1244,17138.00,29.75,-1.00,-1.0,2448
353,2135353,17152,-264,1320,17204.74,29.75,-1.00,-1.0,2379
356,2135356,17156,-504,1396,17220.08,29.80,-1.00,-1.0,2432
359,2135359,17104,-428,1332,17161.12,29.80,-1.00,-1.0,2381
362,2135362,17128,-456,1276,17181.52,29.75,-1.00,-1.0,2484
364,2135364,17008,-340,1212,17054.52,29.75,-1.00,-1.0,2358
367,2135367,17064,-280,1256,17112.45,29.80,-1.00,-1.0,2442
370,2135370,17052,-344,1200,17097.63,29.80,-1.00,-1.0,2370
373,2135373,17032,-324,1016,17065.35,29.75,-1.00,-1.0,2373
378,2135378,16992,-280,1212,17037.47,29.80,-1.00,-1.0,2453
380,2135380,17016,-168,1188,17058.25,29.75,-1.00,-1.0,2381
383,2135383,16976,-252,1348,17031.30,29.85,-1.00,-1.0,2438
386,2135386,17064,-248,1228,17109.93,29.85,-1.00,-1.0,2371
389,2135389,17148,-304,1200,17192.62,29.75,-1.00,-1.0,2435
391,2135391,16940,-304,1276,16990.71,29.66,-1.00,-1.0,2370
394,2135394,17036,-384,1236,17085.09,29.61,-1.00,-1.0,2440
397,2135397,17008,-316,1168,17050.99,29.80,-1.00,-1.0,2372
402,2135402,17068,-332,1268,17118.26,29.75,-1.00,-1.0,2451
405,2135405,17052,-436,1196,17099.45,29.75,-1.00,-1.0,2375
407,2135407,16968,-208,1176,17009.97,29.71,-1.00,-1.0,2434
410,2135410,16880,-372,1200,16926.69,29.80,-1.00,-1.0,2372
413,2135413,16984,-268,1252,17032.19,29.80,-1.00,-1.0,2377
416,2135416,16980,-236,1088,17016.46,29.75,-1.00,-1.0,2447
418,2135418,17052,-360,1180,17096.57,29.75,-1.00,-1.0,2381
421,2135421,17128,-200,1104,17164.71,29.94,-1.00,-1.0,2435
424,2135424,17088,-308,1100,17126.14,29.75,-1.00,-1.0,2372
429,2135429,17092,-140,1156,17131.62,29.80,-1.00,-1.0,2457
431,2135431,16980,-272,1248,17027.97,29.85,-1.00,-1.0,2371
434,2135434,16980,-324,1156,17022.39,29.80,-1.00,-1.0,2439
437,2135437,17028,-288,1132,17068.02,29.80,-1.00,-1.0,2373
440,2135440,16988,-312,1024,17021.69,29.75,-1.00,-1.0,2443
443,2135443,16980,-236,1376,17037.30,29.71,-1.00,-1.0,2372
445,2135445,17040,-340,1272,17090.79,29.75,-1.00,-1.0,2445
448,2135448,17008,-308,1432,17070.96,29.75,-1.00,-1.0,2389
451,2135451,16916,-412,1252,16967.27,29.80,-1.00,-1.0,2370
455,2135455,17008,-328,1140,17049.32,29.85,-1.00,-1.0,2460
458,2135458,17036,-320,1280,17087.02,29.75,-1.00,-1.0,2377
461,2135461,17084,-348,1480,17151.52,29.71,-1.00,-1.0,2435
464,2135464,17092,-248,1568,17165.56,29.75,-1.00,-1.0,2369
466,2135466,16976,-280,1512,17045.50,29.89,-1.00,-1.0,2437
469,2135469,17076,-312,1444,17139.79,29.71,-1.00,-1.0,2371
472,2135472,17044,-304,1448,17108.10,29.71,-1.00,-1.0,2436
475,2135475,16980,-448,1332,17038.05,29.71,-1.00,-1.0,2377
480,2135480,17136,-284,1400,17195.44,29.80,-1.00,-1.0,2451
482,2135482,17004,-376,1356,17062.12,29.80,-1.00,-1.0,2371
485,2135485,16996,-416,1228,17045.38,29.85,-1.00,-1.0,2485
488,2135488,17008,-376,1324,17063.60,29.71,-1.00,-1.0,2370
491,2135491,16948,-416,1256,16999.57,29.89,-1.00,-1.0,2376
494,2135494,17072,-280,1344,17127.11,29.75,-1.00,-1.0,2440
496,2135496,16996,-344,1192,17041.22,29.75,-1.00,-1.0,2377
499,2135499,17064,-340,1128,17104.62,29.75,-1.00,-1.0,2431
502,2135502,16992,-200,1052,17025.71,29.85,-1.00,-1.0,2374
507,2135507,17116,-288,1112,17154.50,29.75,-1.00,-1.0,2456
510,2135510,17008,-304,1144,17049.14,29.75,-1.00,-1.0,2372
512,2135512,17020,-192,1140,17059.22,29.75,-1.00,-1.0,2450
515,2135515,17004,-236,1080,17039.90,29.75,-1.00,-1.0,2377
518,2135518,17044,-224,1032,17076.68,29.80,-1.00,-1.0,2440
521,2135521,16988,-240,1224,17033.73,29.80,-1.00,-1.0,2372
523,2135523,17048,-288,1168,17090.39,29.80,-1.00,-1.0,2436
526,2135526,17064,-248,1316,17116.47,29.80,-1.00,-1.0,2370
529,2135529,16972,-280,1204,17016.96,29.66,-1.00,-1.0,2367
534,2135534,16940,-236,1416,17000.72,29.75,-1.00,-1.0,2455
536,2135536,17112,-392,1248,17161.93,29.71,-1.00,-1.0,2358
539,2135539,17040,-324,1344,17095.99,29.75,-1.00,-1.0,2446
542,2135542,17056,-344,1300,17108.93,29.66,-1.00,-1.0,2371
545,2135545,16996,-236,1284,17046.07,29.80,-1.00,-1.0,2446
548,2135548,16988,-284,1436,17050.95,29.85,-1.00,-1.0,2378
550,2135550,17008,-364,1464,17074.77,29.80,-1.00,-1.0,2446
553,2135553,17000,-300,1252,17048.68,29.80,-1.00,-1.0,2375
558,2135558,17084,-276,1364,17140.59,29.80,-1.00,-1.0,2458
561,2135561,17032,-404,1396,17093.89,29.66,-1.00,-1.0,2359
564,2135564,17028,-396,1284,17080.93,29.71,-1.00,-1.0,2454
566,2135566,17092,-468,1492,17163.38,29.80,-1.00,-1.0,2373
569,2135569,17056,-448,1460,17124.24,29.75,-1.00,-1.0,2370
572,2135572,16972,-424,1344,17030.41,29.75,-1.00,-1.0,2445
574,2135574,17012,-380,1324,17067.67,29.75,-1.00,-1.0,2372
577,2135577,17148,-404,1116,17189.03,29.85,-1.00,-1.0,2450
580,2135580,17064,-328,1240,17112.14,29.80,-1.00,-1.0,2378
585,2135585,17000,-260,1160,17041.51,29.75,-1.00,-1.0,2446
588,2135588,17060,-332,1060,17096.12,29.75,-1.00,-1.0,2377
591,2135591,16988,-356,1260,17038.38,29.80,-1.00,-1.0,2454
593,2135593,16956,-356,1072,16993.58,29.80,-1.00,-1.0,2380
596,2135596,17092,-288,1236,17139.05,29.75,-1.00,-1.0,2438
599,2135599,17088,-252,1372,17144.84,29.80,-1.00,-1.0,2372
601,2135601,17036,-260,1488,17102.84,29.85,-1.00,-1.0,2370
604,2135604,17084,-352,1212,17130.55,29.75,-1.00,-1.0,2444
607,2135607,16980,-348,1216,17027.04,29.85,-1.00,-1.0,2371
612,2135612,17104,-324,1124,17143.96,29.75,-1.00,-1.0,2448
615,2135615,16984,-232,1172,17025.97,29.75,-1.00,-1.0,2379
618,2135618,17020,-308,1220,17066.45,29.71,-1.00,-1.0,2448
620,2135620,16908,-256,1352,16963.90,29.80,-1.00,-1.0,2382
623,2135623,17108,-268,1220,17153.54,29.80,-1.00,-1.0,2446
626,2135626,16968,-136,1212,17011.77,29.61,-1.00,-1.0,2372
629,2135629,17020,-228,1276,17069.29,29.75,-1.00,-1.0,2436
631,2135631,16952,-272,1140,16992.46,29.85,-1.00,-1.0,2374
636,2135636,16980,-244,1188,17023.26,29.85,-1.00,-1.0,2447
639,2135639,17076,-308,1124,17115.72,29.85,-1.00,-1.0,2370
642,2135642,17072,-380,1332,17128.10,29.80,-1.00,-1.0,2372
644,2135644,16996,-436,1268,17048.81,29.75,-1.00,-1.0,2450
647,2135647,16968,-300,1316,17021.60,29.71,-1.00,-1.0,2374
650,2135650,16976,-332,1264,17026.23,29.75,-1.00,-1.0,2439
653,2135653,17032,-376,1292,17085.07,29.85,-1.00,-1.0,2369
655,2135655,17032,-352,1188,17077.01,29.75,-1.00,-1.0,2438
658,2135658,17004,-260,1404,17063.85,29.75,-1.00,-1.0,2371
663,2135663,16976,-420,1224,17025.25,29.71,-1.00,-1.0,2451
666,2135666,17052,-284,1204,17096.81,29.80,-1.00,-1.0,2380
668,2135668,17044,-360,1360,17101.96,29.75,-1.00,-1.0,2443
671,2135671,17112,-260,1368,17168.56,29.75,-1.00,-1.0,2370
674,2135674,17012,-396,1416,17075.42,29.85,-1.00,-1.0,2440
677,2135677,16924,-308,1344,16980.08,29.75,-1.00,-1.0,2371
679,2135679,17008,-336,1392,17068.18,29.75,-1.00,-1.0,2374
682,2135682,17060,-360,1304,17113.55,29.71,-1.00,-1.0,2451
685,2135685,16976,-360,1156,17019.12,29.71,-1.00,-1.0,2377
690,2135690,16920,-408,1464,16988.12,29.80,-1.00,-1.0,2455
693,2135693,17028,-300,1184,17071.75,29.71,-1.00,-1.0,2376
695,2135695,16896,-328,1144,16937.86,29.85,-1.00,-1.0,2451
698,2135698,17008,-260,1120,17046.82,29.75,-1.00,-1.0,2358
701,2135701,16980,-312,1196,17024.93,29.75,-1.00,-1.0,2438
704,2135704,17008,-316,1172,17051.26,29.85,-1.00,-1.0,2370
706,2135706,16940,-228,1020,16972.21,29.80,-1.00,-1.0,2439
709,2135709,16968,-260,1132,17007.71,29.75,-1.00,-1.0,2372
714,2135714,16984,-272,1164,17026.01,29.75,-1.00,-1.0,2456
717,2135717,17016,-124,1100,17051.97,29.85,-1.00,-1.0,2375
720,2135720,17100,-216,1152,17140.12,29.66,-1.00,-1.0,2371
723,2135723,17100,-348,1196,17145.31,29.71,-1.00,-1.0,2441
725,2135725,17128,-244,1184,17170.61,29.71,-1.00,-1.0,2372
728,2135728,17148,-272,1324,17201.19,29.75,-1.00,-1.0,2454
731,2135731,16976,-280,1136,17016.27,29.71,-1.00,-1.0,2379
734,2135734,17028,-272,1164,17069.90,29.75,-1.00,-1.0,2448
736,2135736,17048,-256,1176,17090.43,29.75,-1.00,-1.0,2377
741,2135741,17016,-256,1352,17071.55,29.75,-1.00,-1.0,2457
744,2135744,17100,-288,1288,17150.86,29.75,-1.00,-1.0,2385
747,2135747,17496,-696,3532,17862.52,29.75,-1.00,-1.0,2446
750,2135750,9776,4624,-32748,34487.43,29.85,-1.00,-1.0,2372
752,2135752,29904,-4824,14484,33575.38,29.80,-1.00,-1.0,2439
755,2135755,11372,-4844,-4212,13058.62,29.66,-1.00,-1.0,2370
758,2135758,17512,-1776,16488,24118.01,29.80,-1.00,-1.0,2439
761,2135761,17064,-11212,-2152,20530.96,29.71,-1.00,-1.0,2370
763,2135763,22764,21972,9628,33070.63,29.75,-1.00,-1.0,2374
768,2135768,19608,-7724,-4376,21524.02,29.75,-1.00,-1.0,2449
771,2135771,7592,-4984,680,9107.20,29.71,-1.00,-1.0,2372
774,2135774,21692,-11012,1600,24379.64,29.75,-1.00,-1.0,2449
777,2135777,14108,4496,-1908,14929.51,29.85,-1.00,-1.0,2378
779,2135779,16224,-7920,5980,19018.54,29.80,-1.00,-1.0,2441
782,2135782,20816,6244,4780,22251.78,29.75,-1.00,-1.0,2360
785,2135785,8468,-8504,844,12030.68,29.80,-1.00,-1.0,2436
788,2135788,24500,-7440,972,25623.20,29.80,-1.00,-1.0,2371
793,2135793,19528,-2704,5540,20477.94,29.75,-1.00,-1.0,2452
795,2135795,20684,5300,1416,21399.13,29.85,-1.00,-1.0,2380
798,2135798,13760,-8280,780,16078.07,29.80,-1.00,-1.0,2441
801,2135801,18168,4760,3804,19162.57,29.71,-1.00,-1.0,2359
803,2135803,16548,-84,-3040,16825.13,29.80,-1.00,-1.0,2369
806,2135806,16696,-5892,-104,17705.45,29.75,-1.00,-1.0,2451
809,2135809,18184,3908,2732,18798.78,29.66,-1.00,-1.0,2380
812,2135812,14100,-3724,-3512,15000.41,29.75,-1.00,-1.0,2427
815,2135815,15748,5548,-1708,16783.83,29.66,-1.00,-1.0,2379
820,2135820,17548,-1360,-1804,17692.83,29.85,-1.00,-1.0,2446
822,2135822,17836,3956,692,18282.55,29.85,-1.00,-1.0,2377
825,2135825,18244,-3452,1020,18595.71,29.85,-1.00,-1.0,2437
828,2135828,16200,5020,1964,17073.30,29.75,-1.00,-1.0,2377
831,2135831,16576,-4256,1296,17162.66,29.80,-1.00,-1.0,2443
833,2135833,17224,3272,1968,17642.14,29.61,-1.00,-1.0,2373
836,2135836,16676,-2824,2232,17060.06,29.80,-1.00,-1.0,2437
839,2135839,17588,2488,1656,17840.13,29.80,-1.00,-1.0,2371
844,2135844,18044,-3284,1968,18445.69,29.75,-1.00,-1.0,2455
846,2135846,16908,2296,1856,17163.82,29.71,-1.00,-1.0,2373
849,2135849,16908,-1732,432,17001.97,29.75,-1.00,-1.0,2378
852,2135852,16992,1392,1468,17112.01,29.80,-1.00,-1.0,2447
855,2135855,16540,652,1232,16598.63,29.80,-1.00,-1.0,2376
857,2135857,16988,-1540,1248,17103.25,29.80,-1.00,-1.0,2439
860,2135860,17452,652,620,17475.18,29.89,-1.00,-1.0,2371
863,2135863,16988,-1752,1032,17109.26,29.75,-1.00,-1.0,2439
866,2135866,17008,1192,540,17058.27,29.80,-1.00,-1.0,2371
870,2135870,16788,-308,832,16811.43,29.80,-1.00,-1.0,2454
873,2135873,17000,-176,696,17015.15,29.85,-1.00,-1.0,2378
876,2135876,17636,-1044,1520,17732.14,29.80,-1.00,-1.0,2443
879,2135879,16720,-596,2448,16908.76,29.80,-1.00,-1.0,2371
881,2135881,17232,-524,1700,17323.58,29.75,-1.00,-1.0,2438
884,2135884,17264,-692,1932,17385.54,29.75,-1.00,-1.0,2371
887,2135887,17392,84,2400,17557.01,29.75,-1.00,-1.0,2378
890,2135890,17304,-284,1448,17366.80,29.80,-1.00,-1.0,2445
892,2135892,17012,-604,912,17047.13,29.80,-1.00,-1.0,2381
897,2135897,16956,20,1344,17009.19,29.71,-1.00,-1.0,2450
900,2135900,16796,436,468,16808.17,29.75,-1.00,-1.0,2379
903,2135903,16860,-1120,1496,16963.25,29.71,-1.00,-1.0,2445
906,2135906,17260,-396,1340,17316.47,29.71,-1.00,-1.0,2379
908,2135908,17060,-156,1148,17099.29,29.75,-1.00,-1.0,2439
911,2135911,16976,-1060,1148,17047.76,29.80,-1.00,-1.0,2371
914,2135914,17156,-408,2112,17290.32,29.75,-1.00,-1.0,2436
917,2135917,17056,-212,1520,17124.91,29.75,-1.00,-1.0,2371
919,2135919,17076,-528,1776,17176.23,29.75,-1.00,-1.0,2370
924,2135924,17144,-1392,1280,17247.98,29.85,-1.00,-1.0,2447
927,2135927,16952,524,1488,17025.25,29.66,-1.00,-1.0,2371
930,2135930,17036,-944,876,17084.61,29.80,-1.00,-1.0,2449
932,2135932,16908,336,956,16938.34,29.85,-1.00,-1.0,2371
935,2135935,17060,-552,1068,17102.31,29.71,-1.00,-1.0,2444
938,2135938,17108,148,1156,17147.65,29.80,-1.00,-1.0,2379
941,2135941,17104,-360,556,17116.82,29.80,-1.00,-1.0,2440
944,2135944,17272,-424,644,17289.20,29.71,-1.00,-1.0,2380
949,2135949,17192,-416,668,17210.00,29.71,-1.00,-1.0,2450
951,2135951,17088,-228,1228,17133.58,29.80,-1.00,-1.0,2381
954,2135954,16936,-40,1076,16970.19,29.75,-1.00,-1.0,2370
957,2135957,17088,-492,1436,17155.29,29.85,-1.00,-1.0,2448
959,2135959,17140,-316,1304,17192.44,29.85,-1.00,-1.0,2359
962,2135962,16680,-856,1304,16752.78,29.80,-1.00,-1.0,2440
965,2135965,16892,36,1376,16947.99,29.75,-1.00,-1.0,2374
968,2135968,16924,-392,1580,17002.11,29.71,-1.00,-1.0,2444
971,2135971,17160,-516,1348,17220.60,29.71,-1.00,-1.0,2372
976,2135976,16960,-708,1624,17052.28,29.80,-1.00,-1.0,2447
978,2135978,17032,220,1592,17107.66,29.80,-1.00,-1.0,2374
981,2135981,17204,-92,1236,17248.59,29.71,-1.00,-1.0,2456
984,2135984,17016,-228,1276,17065.30,29.71,-1.00,-1.0,2374
987,2135987,17016,-372,1400,17077.55,29.75,-1.00,-1.0,2450
989,2135989,17012,-164,1564,17084.53,29.85,-1.00,-1.0,2378
992,2135992,17008,-276,1176,17050.84,29.85,-1.00,-1.0,2371
995,2135995,17048,-188,1560,17120.26,29.80,-1.00,-1.0,2446
997,2135997,17108,-724,1428,17182.75,29.80,-1.00,-1.0,2371
1002,2136002,16892,-560,896,16925.01,29.71,-1.00,-1.0,2448
1005,2136005,17072,-748,1168,17128.25,29.80,-1.00,-1.0,2371
1008,2136008,17168,-404,1528,17240.60,29.80,-1.00,-1.0,2443
1011,2136011,17112,-684,1100,17160.96,29.80,-1.00,-1.0,2379
1014,2136014,16972,-156,1040,17004.55,29.85,-1.00,-1.0,2449
1016,2136016,17016,-632,1164,17067.47,29.75,-1.00,-1.0,2380
1019,2136019,16860,-192,1084,16895.90,29.75,-1.00,-1.0,2439
1022,2136022,16916,-232,1192,16959.53,29.85,-1.00,-1.0,2372
1027,2136027,17068,44,1100,17103.47,29.75,-1.00,-1.0,2452
1030,2136030,17016,-68,1032,17047.40,29.75,-1.00,-1.0,2373
1032,2136032,17068,-112,1168,17108.29,29.80,-1.00,-1.0,2357
1035,2136035,17120,-436,1324,17176.65,29.71,-1.00,-1.0,2441
1038,2136038,16984,-100,1424,17043.88,29.80,-1.00,-1.0,2378
1041,2136041,17056,-600,1340,17119.08,29.66,-1.00,-1.0,2440
1043,2136043,17216,-152,1124,17253.32,29.80,-1.00,-1.0,2375
1046,2136046,17116,-652,1364,17182.64,29.85,-1.00,-1.0,2447
1049,2136049,17028,-264,1344,17083.00,29.75,-1.00,-1.0,2372
1054,2136054,16948,-384,1296,17001.82,29.85,-1.00,-1.0,2447
1056,2136056,16764,-308,1164,16807.19,29.75,-1.00,-1.0,2358
1059,2136059,17000,-232,1328,17053.37,29.80,-1.00,-1.0,2444
1062,2136062,17044,-356,1272,17095.11,29.85,-1.00,-1.0,2371
1065,2136065,17060,196,1276,17108.78,29.80,-1.00,-1.0,2445
1067,2136067,17048,-152,1248,17094.29,29.71,-1.00,-1.0,2370
1070,2136070,17116,-172,1416,17175.33,29.75,-1.00,-1.0,2440
1073,2136073,17024,-272,1080,17060.39,29.80,-1.00,-1.0,2372
1078,2136078,17112,-360,1208,17158.36,29.80,-1.00,-1.0,2448
1080,2136080,17100,-500,1200,17149.34,29.71,-1.00,-1.0,2374
1083,2136083,17036,-316,1296,17088.15,29.80,-1.00,-1.0,2371
1086,2136086,17064,-500,1080,17105.45,29.66,-1.00,-1.0,2451
1089,2136089,17016,-420,1024,17051.96,29.75,-1.00,-1.0,2377
1091,2136091,17056,-488,1220,17106.54,29.71,-1.00,-1.0,2440
1094,2136094,17000,-264,1288,17050.77,29.75,-1.00,-1.0,2362
1097,2136097,17048,-240,1104,17085.39,29.75,-1.00,-1.0,2436
1100,2136100,16948,-476,1404,17012.71,29.80,-1.00,-1.0,2370
1105,2136105,17000,-244,1356,17055.74,29.80,-1.00,-1.0,2449
1107,2136107,17020,-180,1300,17070.52,29.80,-1.00,-1.0,2379
1110,2136110,16924,-448,1200,16972.40,29.71,-1.00,-1.0,2441
1113,2136113,17048,-420,1068,17086.58,29.80,-1.00,-1.0,2372
1116,2136116,17140,-416,1184,17185.88,29.75,-1.00,-1.0,2439
1118,2136118,17044,-352,1116,17084.12,29.80,-1.00,-1.0,2373
1121,2136121,17012,-352,1360,17069.90,29.80,-1.00,-1.0,2462
1124,2136124,17028,-312,1196,17072.80,29.80,-1.00,-1.0,2370
1127,2136127,17000,-188,1196,17043.06,29.85,-1.00,-1.0,2377
1132,2136132,17064,-96,1256,17110.43,29.71,-1.00,-1.0,2434
1135,2136135,17016,-72,1092,17051.16,29.80,-1.00,-1.0,2372
1137,2136137,17016,-40,1208,17058.87,29.75,-1.00,-1.0,2442
1140,2136140,16908,-184,1120,16946.05,29.80,-1.00,-1.0,2369
1143,2136143,17016,-140,920,17041.43,29.75,-1.00,-1.0,2440
1146,2136146,17136,-280,1104,17173.81,29.75,-1.00,-1.0,2379
1149,2136149,17028,-148,1088,17063.37,29.75,-1.00,-1.0,2443
1151,2136151,17148,-284,1072,17183.82,29.85,-1.00,-1.0,2376
1156,2136156,17048,-396,1348,17105.79,29.75,-1.00,-1.0,2450
1159,2136159,17032,-384,1312,17086.77,29.75,-1.00,-1.0,2371
1162,2136162,16992,-444,1544,17067.78,29.75,-1.00,-1.0,2450
1165,2136165,16956,-160,1420,17016.11,29.89,-1.00,-1.0,2382
1167,2136167,17040,-328,1372,17098.29,29.71,-1.00,-1.0,2440
1170,2136170,17056,-224,1400,17114.83,29.71,-1.00,-1.0,2374
1173,2136173,17044,-356,1620,17124.52,29.75,-1.00,-1.0,2370
1176,2136176,17060,-508,1616,17143.89,29.75,-1.00,-1.0,2436
1178,2136178,17004,-552,1500,17078.96,29.66,-1.00,-1.0,2376
1183,2136183,17088,-520,1444,17156.79,29.85,-1.00,-1.0,2447
1186,2136186,17148,-296,1504,17216.38,29.66,-1.00,-1.0,2372
1189,2136189,17076,-404,1356,17134.52,29.71,-1.00,-1.0,2477
1192,2136192,17164,-248,1324,17216.78,29.80,-1.00,-1.0,2371
1194,2136194,17060,-348,1480,17127.61,29.66,-1.00,-1.0,2425
1197,2136197,16964,-404,1456,17031.16,29.75,-1.00,-1.0,2371
1200,2136200,16944,-412,1440,17010.07,29.85,-1.00,-1.0,2439
1203,2136203,17024,-428,1300,17078.93,29.85,-1.00,-1.0,2377
1208,2136208,17044,-384,1196,17090.22,29.75,-1.00,-1.0,2456
1210,2136210,16996,-372,992,17028.99,29.75,-1.00,-1.0,2372
1213,2136213,16884,-464,1060,16923.60,29.75,-1.00,-1.0,2445
1216,2136216,16952,-404,1092,16991.94,29.75,-1.00,-1.0,2371
1219,2136219,17036,-416,1048,17073.27,29.75,-1.00,-1.0,2445
1222,2136222,17044,-288,928,17071.67,29.80,-1.00,-1.0,2373
1224,2136224,17040,-232,940,17067.48,29.89,-1.00,-1.0,2372
1227,2136227,17052,-120,1076,17086.34,29.85,-1.00,-1.0,2421
1230,2136230,17172,-56,984,17200.26,29.71,-1.00,-1.0,2367
1235,2136235,16988,-56,976,17016.11,29.71,-1.00,-1.0,2453
1237,2136237,16936,-56,1100,16971.78,29.71,-1.00,-1.0,2380
1240,2136240,16852,-68,1160,16892.01,29.75,-1.00,-1.0,2442
1243,2136243,16856,-36,1128,16893.74,29.85,-1.00,-1.0,2372
1246,2136246,16980,-52,1096,17015.41,29.66,-1.00,-1.0,2444
1248,2136248,16924,-208,1256,16971.82,29.75,-1.00,-1.0,2372
1251,2136251,17056,-308,1068,17092.18,29.71,-1.00,-1.0,2438
1254,2136254,16960,-284,1392,17019.40,29.85,-1.00,-1.0,2375
1259,2136259,17096,-304,1256,17144.77,29.71,-1.00,-1.0,2454
1262,2136262,17048,-176,1320,17099.93,29.80,-1.00,-1.0,2373
1264,2136264,17036,-204,1280,17085.24,29.75,-1.00,-1.0,2372
1267,2136267,17008,-252,1280,17057.96,29.75,-1.00,-1.0,2439
1270,2136270,16976,-256,1132,17015.63,29.75,-1.00,-1.0,2371
1272,2136272,16964,-344,1224,17011.58,29.71,-1.00,-1.0,2439
1275,2136275,17044,-280,1188,17087.65,29.75,-1.00,-1.0,2372
1278,2136278,17028,-432,1304,17083.32,29.80,-1.00,-1.0,2438
1281,2136281,17028,-432,1216,17076.83,29.75,-1.00,-1.0,2377
1285,2136285,17052,-504,1280,17107.40,29.75,-1.00,-1.0,2446
1288,2136288,16920,-436,1452,16987.78,29.85,-1.00,-1.0,2370
1291,2136291,17104,-448,1172,17149.96,29.80,-1.00,-1.0,2443
1294,2136294,17088,-380,1136,17129.93,29.75,-1.00,-1.0,2372
1297,2136297,17084,-268,1288,17134.58,29.71,-1.00,-1.0,2439
1299,2136299,16968,-288,1372,17025.81,29.71,-1.00,-1.0,2373
1302,2136302,17024,-232,1376,17081.09,29.80,-1.00,-1.0,2454
1305,2136305,17176,-244,1340,17229.92,29.71,-1.00,-1.0,2379
1307,2136307,17100,-236,1364,17155.94,29.75,-1.00,-1.0,2357
1312,2136312,17072,-404,1316,17127.41,29.85,-1.00,-1.0,2458
1315,2136315,17108,-472,1212,17157.37,29.75,-1.00,-1.0,2375
1318,2136318,16988,-400,1380,17048.65,29.75,-1.00,-1.0,2442
1321,2136321,17048,-348,1364,17106.02,29.85,-1.00,-1.0,2370
1323,2136323,17024,-252,1140,17063.99,29.80,-1.00,-1.0,2439
1326,2136326,16976,-264,1232,17022.69,29.75,-1.00,-1.0,2371
1329,2136329,17072,-212,1208,17116.00,29.80,-1.00,-1.0,2437
1332,2136332,16984,-320,1104,17022.85,29.75,-1.00,-1.0,2377
1337,2136337,16964,-236,1284,17014.16,29.75,-1.00,-1.0,2454
1339,2136339,17020,-324,1204,17065.61,29.80,-1.00,-1.0,2371
1342,2136342,17068,-408,1232,17117.27,29.71,-1.00,-1.0,2444
1345,2136345,16956,-328,1180,17000.17,29.71,-1.00,-1.0,2371
1348,2136348,16988,-280,1268,17037.56,29.85,-1.00,-1.0,2445
1351,2136351,17004,-312,1140,17045.03,29.80,-1.00,-1.0,2373
1353,2136353,16996,-224,1112,17033.81,29.75,-1.00,-1.0,2447
1356,2136356,16960,-248,1088,16996.67,29.75,-1.00,-1.0,2388
1359,2136359,17084,-124,1104,17120.08,29.75,-1.00,-1.0,2370
1364,2136364,17056,-308,1048,17090.94,29.75,-1.00,-1.0,2448
1366,2136366,17132,-196,1148,17171.54,29.71,-1.00,-1.0,2373
1369,2136369,17052,-288,1240,17099.45,29.80,-1.00,-1.0,2441
1372,2136372,17048,-356,1476,17115.48,29.80,-1.00,-1.0,2373
1375,2136375,16980,-368,1264,17030.96,29.75,-1.00,-1.0,2448
1377,2136377,16976,-352,1480,17044.03,29.80,-1.00,-1.0,2373
1380,2136380,17060,-384,1392,17121.00,29.75,-1.00,-1.0,2451
1383,2136383,16992,-220,1348,17046.80,29.75,-1.00,-1.0,2378
1388,2136388,16900,-188,1368,16956.32,29.75,-1.00,-1.0,2447
1391,2136391,16976,-248,1424,17037.43,29.85,-1.00,-1.0,2377
1394,2136394,17080,-392,1332,17136.34,29.75,-1.00,-1.0,2453
1396,2136396,17048,-368,1420,17110.99,29.85,-1.00,-1.0,2379
1399,2136399,17024,-356,1456,17089.86,29.71,-1.00,-1.0,2438
1402,2136402,17100,-440,1432,17165.50,29.71,-1.00,-1.0,2372
1404,2136404,17096,-480,1488,17167.35,29.80,-1.00,-1.0,2370
1407,2136407,17076,-456,1540,17151.37,29.75,-1.00,-1.0,2445
1410,2136410,17060,-324,1304,17112.83,29.75,-1.00,-1.0,2372
1415,2136415,16944,-376,1232,16992.89,29.75,-1.00,-1.0,2448
1418,2136418,16944,-348,1144,16986.14,29.75,-1.00,-1.0,2374
1421,2136421,16988,-368,1108,17028.07,29.75,-1.00,-1.0,2454
1423,2136423,16972,-276,1136,17012.21,29.75,-1.00,-1.0,2378
1426,2136426,17104,-276,1048,17138.30,29.71,-1.00,-1.0,2447
1429,2136429,17036,-344,1184,17080.56,29.71,-1.00,-1.0,2373
1432,2136432,17112,-316,1228,17158.92,29.80,-1.00,-1.0,2436
1434,2136434,17164,-280,1356,17219.76,29.71,-1.00,-1.0,2370
1439,2136439,17016,-188,1192,17058.74,29.80,-1.00,-1.0,2436
1442,2136442,17028,-272,1236,17074.97,29.80,-1.00,-1.0,2371
1445,2136445,16980,-236,1036,17013.21,29.80,-1.00,-1.0,2443
1448,2136448,16968,-240,1020,17000.32,29.71,-1.00,-1.0,2374
1450,2136450,16992,-300,1268,17041.89,29.75,-1.00,-1.0,2438
1453,2136453,17052,-180,1144,17091.28,29.80,-1.00,-1.0,2370
1456,2136456,17080,-228,1288,17130.01,29.75,-1.00,-1.0,2377
1459,2136459,16996,-312,1068,17032.38,29.80,-1.00,-1.0,2449
1461,2136461,17036,-260,1288,17086.60,29.80,-1.00,-1.0,2378
1466,2136466,17032,-168,1248,17078.49,29.89,-1.00,-1.0,2436
1469,2136469,17016,-240,1264,17064.57,29.80,-1.00,-1.0,2360
1472,2136472,17028,-228,1328,17081.23,29.66,-1.00,-1.0,2447
1474,2136474,16940,-240,1300,16991.50,29.85,-1.00,-1.0,2371
1477,2136477,16916,-352,1276,16967.71,29.85,-1.00,-1.0,2440
1480,2136480,17048,-184,1264,17095.79,29.75,-1.00,-1.0,2372
1483,2136483,17068,-252,1364,17124.27,29.75,-1.00,-1.0,2443
1486,2136486,17064,-364,1232,17112.29,29.85,-1.00,-1.0,2372
1490,2136490,17068,-324,1336,17123.27,29.85,-1.00,-1.0,2446
1493,2136493,17108,-392,1292,17161.20,29.66,-1.00,-1.0,2372
1496,2136496,17072,-404,1272,17124.09,29.85,-1.00,-1.0,2452
1498,2136498,17060,-368,1180,17104.72,29.75,-1.00,-1.0,2372
1501,2136501,17044,-300,1236,17091.39,29.89,-1.00,-1.0,2372
1504,2136504,17024,-240,1304,17075.55,29.80,-1.00,-1.0,2437
1507,2136507,17092,-292,1336,17146.62,29.80,-1.00,-1.0,2372
1509,2136509,17020,-336,1264,17070.18,29.66,-1.00,-1.0,2437
1512,2136512,17032,-248,1188,17075.18,29.75,-1.00,-1.0,2373
1517,2136517,16996,-304,1320,17049.89,29.75,-1.00,-1.0,2448
1520,2136520,17012,-432,1476,17081.38,29.80,-1.00,-1.0,2373
1523,2136523,17072,-384,1252,17122.15,29.80,-1.00,-1.0,2476
1526,2136526,17072,-364,1304,17125.60,29.80,-1.00,-1.0,2380
1528,2136528,16932,-316,1216,16978.55,29.75,-1.00,-1.0,2445
1531,2136531,16940,-340,1164,16983.35,29.75,-1.00,-1.0,2371
1534,2136534,17012,-452,1236,17062.83,29.75,-1.00,-1.0,2437
1537,2136537,16964,-288,1384,17022.80,29.75,-1.00,-1.0,2369
1542,2136542,16972,-228,1276,17021.43,29.75,-1.00,-1.0,2441
1545,2136545,16968,-352,1232,17016.31,29.89,-1.00,-1.0,2377
1547,2136547,17060,-148,1232,17105.07,29.75,-1.00,-1.0,2444
1550,2136550,17092,-344,1364,17149.79,29.85,-1.00,-1.0,2371
1553,2136553,16940,-300,1244,16988.27,29.71,-1.00,-1.0,2381
1556,2136556,17072,-300,1068,17108.00,29.80,-1.00,-1.0,2447
1558,2136558,16984,-308,1280,17034.95,29.80,-1.00,-1.0,2379
1561,2136561,16972,-296,1208,17017.51,29.85,-1.00,-1.0,2439
1564,2136564,16992,-340,1196,17037.43,29.66,-1.00,-1.0,2374
1569,2136569,17032,-352,1236,17080.42,29.80,-1.00,-1.0,2445
1572,2136572,16984,-324,1304,17037.07,29.80,-1.00,-1.0,2385
1574,2136574,17028,-392,1244,17077.88,29.75,-1.00,-1.0,2441
1577,2136577,17000,-288,1400,17059.98,29.75,-1.00,-1.0,2370
1580,2136580,17056,-244,1356,17111.56,29.75,-1.00,-1.0,2439
1583,2136583,16988,-336,1360,17045.66,29.75,-1.00,-1.0,2372
1585,2136585,17052,-272,1312,17104.56,29.85,-1.00,-1.0,2438
1588,2136588,17040,-332,1440,17103.96,29.75,-1.00,-1.0,2373
1593,2136593,17032,-268,1372,17089.27,29.75,-1.00,-1.0,2428
1596,2136596,16992,-288,1352,17048.13,29.75,-1.00,-1.0,2370
1598,2136598,16992,-204,1432,17053.46,29.85,-1.00,-1.0,2371
1601,2136601,17036,-240,1240,17082.75,29.80,-1.00,-1.0,2463
1604,2136604,17040,-308,1400,17100.19,29.80,-1.00,-1.0,2386
1607,2136607,17100,-372,1416,17162.56,29.85,-1.00,-1.0,2442
1610,2136610,16976,-336,1332,17031.49,29.75,-1.00,-1.0,2371
1612,2136612,17148,-376,1412,17210.14,29.75,-1.00,-1.0,2438
1615,2136615,17036,-324,1276,17086.79,29.75,-1.00,-1.0,2371
1620,2136620,16976,-376,1200,17022.51,29.75,-1.00,-1.0,2451
1623,2136623,17024,-396,1172,17068.89,29.85,-1.00,-1.0,2374
1626,2136626,17012,-368,1256,17062.27,29.71,-1.00,-1.0,2446
1628,2136628,16972,-248,1236,17018.75,29.75,-1.00,-1.0,2370
1631,2136631,16996,-408,1164,17040.70,29.71,-1.00,-1.0,2439
1634,2136634,16968,-248,1084,17004.40,29.80,-1.00,-1.0,2373
1637,2136637,17012,-208,1224,17057.24,29.71,-1.00,-1.0,2444
1639,2136639,17116,-284,1184,17159.25,29.71,-1.00,-1.0,2370
1644,2136644,16992,-96,956,17019.14,29.66,-1.00,-1.0,2428
1647,2136647,16952,-140,1052,16985.19,29.80,-1.00,-1.0,2364
1650,2136650,16936,-152,1124,16973.94,29.71,-1.00,-1.0,2378
1653,2136653,17060,-240,1060,17094.58,29.85,-1.00,-1.0,2449
1655,2136655,16996,-312,1072,17032.63,29.75,-1.00,-1.0,2380
1658,2136658,17132,-192,1120,17169.64,29.80,-1.00,-1.0,2438
1661,2136661,16984,-204,1388,17041.84,29.85,-1.00,-1.0,2376
1664,2136664,16964,-380,1164,17008.13,29.80,-1.00,-1.0,2438
1666,2136666,17060,-336,1288,17111.85,29.75,-1.00,-1.0,2374
1671,2136671,17020,-260,1356,17075.91,29.75,-1.00,-1.0,2461
1674,2136674,16956,-332,1244,17004.81,29.75,-1.00,-1.0,2381
1677,2136677,17108,-300,1344,17163.33,29.75,-1.00,-1.0,2438
1680,2136680,17064,-384,1292,17117.15,29.85,-1.00,-1.0,2370
1682,2136682,17028,-388,1408,17090.52,29.66,-1.00,-1.0,2445
1685,2136685,16984,-312,1440,17047.79,29.80,-1.00,-1.0,2372
1688,2136688,17020,-356,1344,17076.69,29.71,-1.00,-1.0,2437
1691,2136691,16980,-308,1536,17052.11,29.71,-1.00,-1.0,2368
1693,2136693,17096,-408,1352,17154.23,29.75,-1.00,-1.0,2379
1698,2136698,17120,-436,1428,17184.98,29.80,-1.00,-1.0,2446
1701,2136701,17016,-384,1320,17071.44,29.80,-1.00,-1.0,2376
1704,2136704,17008,-308,1268,17057.98,29.75,-1.00,-1.0,2448
1706,2136706,17144,-324,1256,17193.00,29.66,-1.00,-1.0,2374
1709,2136709,17208,-352,1460,17273.41,29.71,-1.00,-1.0,2451
1712,2136712,17056,-276,1252,17104.12,29.75,-1.00,-1.0,2370
1715,2136715,17040,-328,1300,17092.66,29.71,-1.00,-1.0,2438
1717,2136717,17024,-276,1296,17075.49,29.75,-1.00,-1.0,2372
1722,2136722,16956,-296,1268,17005.92,29.75,-1.00,-1.0,2456
1725,2136725,17044,-340,1188,17088.74,29.75,-1.00,-1.0,2373
1728,2136728,17028,-216,1148,17068.02,29.71,-1.00,-1.0,2445
1731,2136731,16980,-292,1128,17019.93,29.80,-1.00,-1.0,2369
1733,2136733,17064,-204,1196,17107.08,29.71,-1.00,-1.0,2427
1736,2136736,17080,-240,1332,17133.54,29.71,-1.00,-1.0,2370
1739,2136739,17080,-236,1244,17126.87,29.85,-1.00,-1.0,2439
1742,2136742,16976,-236,1300,17027.34,29.80,-1.00,-1.0,2375
1744,2136744,17020,-232,1220,17065.25,29.75,-1.00,-1.0,2381
1749,2136749,16996,-200,1304,17047.12,29.75,-1.00,-1.0,2447
1752,2136752,16976,-228,1304,17027.54,29.75,-1.00,-1.0,2377
1755,2136755,16980,-136,1212,17023.74,29.71,-1.00,-1.0,2449
1758,2136758,16976,-200,1060,17010.24,29.61,-1.00,-1.0,2371
1760,2136760,17004,-268,1176,17046.72,29.71,-1.00,-1.0,2440
1763,2136763,17016,-296,1112,17054.87,29.80,-1.00,-1.0,2370
1766,2136766,16924,-348,1192,16969.49,29.71,-1.00,-1.0,2440
1769,2136769,17044,-304,1308,17096.82,29.80,-1.00,-1.0,2371
1774,2136774,16988,-296,1232,17035.19,29.71,-1.00,-1.0,2446
1776,2136776,17064,-348,1256,17113.70,29.71,-1.00,-1.0,2378
1779,2136779,16964,-388,1216,17011.95,29.75,-1.00,-1.0,2441
1782,2136782,17020,-324,1176,17063.66,29.66,-1.00,-1.0,2369
1785,2136785,17020,-328,1296,17072.42,29.85,-1.00,-1.0,2452
1787,2136787,17060,-348,1224,17107.39,29.66,-1.00,-1.0,2371
1790,2136790,16920,-392,1304,16974.70,29.80,-1.00,-1.0,2377
1793,2136793,17056,-328,1028,17090.10,29.71,-1.00,-1.0,2438
1796,2136796,16956,-392,1148,16999.34,29.71,-1.00,-1.0,2369
1801,2136801,17032,-376,1340,17088.77,29.80,-1.00,-1.0,2451
1803,2136803,16984,-320,1220,17030.77,29.80,-1.00,-1.0,2382
1806,2136806,16952,-332,1484,17020.07,29.75,-1.00,-1.0,2443
1809,2136809,17028,-396,1340,17085.23,29.85,-1.00,-1.0,2370
1812,2136812,17088,-292,1456,17152.40,29.75,-1.00,-1.0,2445
1814,2136814,15200,-1416,16720,22640.75,29.66,-1.00,-1.0,2369
1817,2136817,6488,24476,-32768,41411.48,29.66,-1.00,-1.0,2441
1820,2136820,23596,-12044,13968,29948.86,29.85,-1.00,-1.0,2370
1825,2136825,21816,25932,13604,36516.78,29.75,-1.00,-1.0,2446
1828,2136828,14212,-18240,-5472,23761.76,29.85,-1.00,-1.0,2379
1831,2136831,32720,32767,2612,nan,29.71,-1.00,-1.0,2447
1833,2136833,13848,-23808,17336,32544.20,29.75,-1.00,-1.0,2377
1836,2136836,29932,-5948,100,30517.43,29.71,-1.00,-1.0,2443
1839,2136839,7736,14008,6648,17328.18,29.80,-1.00,-1.0,2370
1842,2136842,32172,-3556,12624,34742.60,29.75,-1.00,-1.0,2441
1844,2136844,16448,9612,-2344,19194.31,29.80,-1.00,-1.0,2370
1847,2136847,11872,-10964,-12,16160.25,29.75,-1.00,-1.0,2367
1852,2136852,8976,7924,-4316,12727.38,29.85,-1.00,-1.0,2431
1855,2136855,26632,-4608,24,27027.72,29.75,-1.00,-1.0,2375
1857,2136857,10648,-1832,6516,12617.23,29.75,-1.00,-1.0,2437
1860,2136860,15844,-6780,8476,19205.29,29.75,-1.00,-1.0,2370
1863,2136863,20336,13844,3144,24801.09,29.80,-1.00,-1.0,2438
1866,2136866,10612,-13368,-1180,17108.78,29.80,-1.00,-1.0,2368
1869,2136869,20260,6512,6840,22353.06,29.80,-1.00,-1.0,2447
1871,2136871,17456,-152,-292,17459.10,29.71,-1.00,-1.0,2378
1876,2136876,18560,3336,3096,19109.88,29.75,-1.00,-1.0,2442
1879,2136879,12692,-1800,-5196,13832.04,29.85,-1.00,-1.0,2371
1882,2136882,14996,5072,-2232,15987.09,29.75,-1.00,-1.0,2447
1884,2136884,15800,-2308,348,15971.47,29.85,-1.00,-1.0,2372
1887,2136887,16500,-644,-1088,16548.37,29.66,-1.00,-1.0,2436
1890,2136890,18324,3788,496,18718.01,29.75,-1.00,-1.0,2371
1893,2136893,18284,-4596,544,18860.64,29.71,-1.00,-1.0,2442
1895,2136895,17876,3096,1708,18222.35,29.71,-1.00,-1.0,2370
1900,2136900,16956,1784,1264,17096.38,29.75,-1.00,-1.0,2430
1903,2136903,16624,1880,2164,16869.34,29.75,-1.00,-1.0,2373
1905,2136905,18204,-2576,968,18410.82,29.80,-1.00,-1.0,2370
1908,2136908,16376,1412,672,16450.49,29.75,-1.00,-1.0,2445
1911,2136911,17628,-176,1212,17670.49,29.71,-1.00,-1.0,2387
1914,2136914,17204,1532,1052,17304.08,29.75,-1.00,-1.0,2442
1917,2136917,17072,-28,760,17088.93,29.75,-1.00,-1.0,2372
1919,2136919,17356,-52,236,17357.68,29.75,-1.00,-1.0,2434
1922,2136922,16600,-1452,1228,16708.57,29.75,-1.00,-1.0,2371
1927,2136927,17252,1072,-96,17285.54,29.75,-1.00,-1.0,2442
1930,2136930,17080,76,1688,17163.38,29.85,-1.00,-1.0,2374
1933,2136933,16756,796,588,16785.20,29.71,-1.00,-1.0,2449
1935,2136935,15272,-1612,-928,15384.85,29.80,-1.00,-1.0,2373
1938,2136938,16304,236,-228,16307.30,29.80,-1.00,-1.0,2436
1941,2136941,16584,444,1776,16684.73,29.71,-1.00,-1.0,2372
1944,2136944,18080,-2144,1876,18303.07,29.75,-1.00,-1.0,2377
1946,2136946,16612,-344,1504,16683.49,29.85,-1.00,-1.0,2437
1949,2136949,16852,-1472,1972,17030.72,29.75,-1.00,-1.0,2372
1954,2136954,16764,-424,1276,16817.84,29.85,-1.00,-1.0,2452
1957,2136957,16940,-284,1228,16986.83,29.85,-1.00,-1.0,2392
1960,2136960,16808,180,576,16818.83,29.75,-1.00,-1.0,2439
1963,2136963,16872,-972,756,16916.88,29.75,-1.00,-1.0,2370
1965,2136965,17164,1156,1432,17262.38,29.80,-1.00,-1.0,2437
1968,2136968,17308,120,1396,17364.62,29.66,-1.00,-1.0,2373
1971,2136971,16828,-1504,1564,16967.31,29.80,-1.00,-1.0,2433
1974,2136974,17196,352,1384,17255.20,29.71,-1.00,-1.0,2375
1979,2136979,16696,-1664,1392,16836.36,29.80,-1.00,-1.0,2442
1981,2136981,17060,-316,2304,17217.78,29.80,-1.00,-1.0,2374
1984,2136984,17096,-388,1332,17152.20,29.80,-1.00,-1.0,2440
1987,2136987,17376,-584,2340,17542.58,29.71,-1.00,-1.0,2370
1990,2136990,16744,136,1784,16839.32,29.85,-1.00,-1.0,2441
1992,2136992,17556,-1268,1520,17667.24,29.71,-1.00,-1.0,2372
1995,2136995,16624,220,1036,16657.70,29.75,-1.00,-1.0,2364
1998,2136998,17172,-396,968,17203.82,29.80,-1.00,-1.0,2436
2001,2137001,16888,124,648,16900.88,29.66,-1.00,-1.0,2371
2006,2137006,17276,-408,1220,17323.83,29.85,-1.00,-1.0,2446
2008,2137008,17016,308,432,17024.27,29.75,-1.00,-1.0,2384
2011,2137011,17220,-452,724,17241.14,29.71,-1.00,-1.0,2436
2014,2137014,17024,448,568,17039.36,29.80,-1.00,-1.0,2371
2017,2137017,17032,-752,628,17060.16,29.80,-1.00,-1.0,2444
2019,2137019,17168,0,1264,17214.47,29.89,-1.00,-1.0,2373
2022,2137022,16996,-620,1100,17042.84,29.75,-1.00,-1.0,2434
2025,2137025,16904,-588,1080,16948.67,29.80,-1.00,-1.0,2371
2028,2137028,17004,44,1712,17090.02,29.75,-1.00,-1.0,2375
2033,2137033,16672,256,1056,16707.37,29.75,-1.00,-1.0,2442
2035,2137035,16964,-524,1856,17073.27,29.66,-1.00,-1.0,2377
2038,2137038,16860,128,1596,16935.86,29.66,-1.00,-1.0,2452
2041,2137041,16880,48,1460,16943.09,29.75,-1.00,-1.0,2371
2044,2137044,17188,-440,1772,17284.70,29.71,-1.00,-1.0,2436
2046,2137046,17000,336,1548,17073.64,29.71,-1.00,-1.0,2357
2049,2137049,16988,52,1156,17027.37,29.71,-1.00,-1.0,2422
2052,2137052,17112,-360,1332,17167.54,29.71,-1.00,-1.0,2372
2057,2137057,16728,-52,1200,16771.07,29.71,-1.00,-1.0,2448
2060,2137060,16976,-364,1012,17010.03,29.71,-1.00,-1.0,2379
2062,2137062,16940,-188,1600,17016.43,29.80,-1.00,-1.0,2438
2065,2137065,17248,-596,1504,17323.71,29.71,-1.00,-1.0,2369
2068,2137068,16908,-180,1020,16939.70,29.75,-1.00,-1.0,2437
2071,2137071,16868,-660,824,16901.01,29.80,-1.00,-1.0,2371
2073,2137073,17164,-824,1296,17232.57,29.75,-1.00,-1.0,2376
2076,2137076,17224,-444,1164,17269.00,29.75,-1.00,-1.0,2428
2079,2137079,17132,-648,1132,17181.58,29.75,-1.00,-1.0,2373
2084,2137084,17104,-504,1252,17157.17,29.71,-1.00,-1.0,2446
2086,2137086,17084,-148,884,17107.50,29.80,-1.00,-1.0,2377
2089,2137089,17024,-220,888,17048.56,29.85,-1.00,-1.0,2437
2092,2137092,16992,-164,1376,17048.41,29.80,-1.00,-1.0,2370
2095,2137095,17068,472,1200,17116.64,29.66,-1.00,-1.0,2443
2097,2137097,17004,-212,1020,17035.88,29.75,-1.00,-1.0,2357
2100,2137100,17056,-80,1268,17103.26,29.75,-1.00,-1.0,2438
2103,2137103,16984,-584,1528,17062.59,29.75,-1.00,-1.0,2370
2108,2137108,17044,-168,1340,17097.42,29.89,-1.00,-1.0,2443
2110,2137110,17088,-408,1420,17151.75,29.71,-1.00,-1.0,2377
2113,2137113,16904,-316,1672,16989.43,29.75,-1.00,-1.0,2439
2116,2137116,17116,-748,1440,17192.75,29.75,-1.00,-1.0,2375
2119,2137119,17048,-192,1476,17112.85,29.80,-1.00,-1.0,2374
2121,2137121,16856,-724,1316,16922.79,29.80,-1.00,-1.0,2440
2124,2137124,16860,-208,1452,16923.69,29.80,-1.00,-1.0,2375
2127,2137127,16956,-304,1324,17010.33,29.75,-1.00,-1.0,2434
2130,2137130,16968,-308,1224,17014.88,29.71,-1.00,-1.0,2369
2135,2137135,16992,-136,1364,17047.20,29.71,-1.00,-1.0,2448
2137,2137137,17156,-188,1256,17202.94,29.80,-1.00,-1.0,2382
2140,2137140,17124,-156,1124,17161.56,29.75,-1.00,-1.0,2439
2143,2137143,17100,-272,1104,17137.76,29.85,-1.00,-1.0,2370
2146,2137146,17112,-232,1120,17150.18,29.75,-1.00,-1.0,2443
2148,2137148,17152,-616,1296,17211.92,29.75,-1.00,-1.0,2370
2151,2137151,17020,-176,1044,17052.90,29.80,-1.00,-1.0,2439
2154,2137154,17052,-488,924,17083.99,29.75,-1.00,-1.0,2372
2159,2137159,17064,-384,1392,17124.99,29.66,-1.00,-1.0,2443
2162,2137162,17024,-272,1316,17076.96,29.66,-1.00,-1.0,2383
2164,2137164,16824,-196,1084,16860.03,29.80,-1.00,-1.0,2378
2167,2137167,17020,-484,1384,17083.04,29.75,-1.00,-1.0,2436
2170,2137170,17044,-160,1364,17099.24,29.71,-1.00,-1.0,2369
2173,2137173,17084,-232,1248,17131.09,29.75,-1.00,-1.0,2437
2175,2137175,17120,-256,984,17150.17,29.75,-1.00,-1.0,2372
2178,2137178,16972,-348,1056,17008.38,29.75,-1.00,-1.0,2436
2181,2137181,16964,-244,1108,17001.90,29.75,-1.00,-1.0,2369
2186,2137186,17144,-364,1012,17177.70,29.85,-1.00,-1.0,2428
2189,2137189,16968,-408,1272,17020.50,29.66,-1.00,-1.0,2374
2191,2137191,17068,-312,1216,17114.11,29.80,-1.00,-1.0,2439
2194,2137194,17020,-244,1272,17069.21,29.75,-1.00,-1.0,2371
2197,2137197,16984,-184,1224,17029.04,29.61,-1.00,-1.0,2436
2200,2137200,16976,-140,1344,17029.70,29.71,-1.00,-1.0,2373
2203,2137203,17084,-108,1304,17134.04,29.80,-1.00,-1.0,2448
2205,2137205,17012,36,1024,17042.83,29.80,-1.00,-1.0,2379
2208,2137208,17008,-100,1088,17043.06,29.85,-1.00,-1.0,2369
2213,2137213,17124,-212,988,17153.79,29.75,-1.00,-1.0,2447
2216,2137216,16996,-316,1116,17035.53,29.85,-1.00,-1.0,2378
2218,2137218,17116,-216,1100,17152.67,29.71,-1.00,-1.0,2438
2221,2137221,17020,-588,1244,17075.53,29.75,-1.00,-1.0,2369
2224,2137224,16948,-336,1252,16997.50,29.71,-1.00,-1.0,2437
2227,2137227,17012,-340,1568,17087.49,29.80,-1.00,-1.0,2379
2230,2137230,17064,-392,1760,17159.00,29.80,-1.00,-1.0,2436
2232,2137232,16992,-212,1552,17064.05,29.71,-1.00,-1.0,2373
2237,2137237,16996,-396,1504,17067.01,29.71,-1.00,-1.0,2444
2240,2137240,16976,-368,1580,17053.34,29.71,-1.00,-1.0,2374
2243,2137243,17124,-544,1632,17210.19,29.85,-1.00,-1.0,2444
2246,2137246,17056,-544,1532,17133.30,29.71,-1.00,-1.0,2377
2248,2137248,17116,-584,1484,17190.14,29.75,-1.00,-1.0,2439
2251,2137251,17004,-448,1340,17062.60,29.75,-1.00,-1.0,2376
2254,2137254,17044,-432,1564,17121.06,29.71,-1.00,-1.0,2370
2256,2137256,17056,-328,1428,17118.82,29.71,-1.00,-1.0,2434
2259,2137259,17012,-324,1456,17077.27,29.71,-1.00,-1.0,2370
2264,2137264,16996,-376,1404,17058.04,29.80,-1.00,-1.0,2442
2267,2137267,17000,-468,1272,17053.94,29.85,-1.00,-1.0,2376
2270,2137270,17000,-320,1320,17054.17,29.75,-1.00,-1.0,2445
2272,2137272,16944,-424,1128,16986.80,29.80,-1.00,-1.0,2373
2275,2137275,17028,-524,1036,17067.53,29.75,-1.00,-1.0,2446
2278,2137278,17020,-460,1216,17069.58,29.75,-1.00,-1.0,2388
2281,2137281,17080,-592,1076,17124.10,29.75,-1.00,-1.0,2437
2284,2137284,17060,-432,1100,17100.88,29.85,-1.00,-1.0,2371
2288,2137288,17120,-240,976,17149.48,29.71,-1.00,-1.0,2444
2291,2137291,17028,-204,988,17057.86,29.71,-1.00,-1.0,2378
2294,2137294,17148,-112,1072,17181.84,29.71,-1.00,-1.0,2437
2297,2137297,17108,56,1112,17144.19,29.71,-1.00,-1.0,2376
2299,2137299,17048,60,1036,17079.55,29.75,-1.00,-1.0,2377
2302,2137302,16940,56,960,16967.27,29.80,-1.00,-1.0,2437
2305,2137305,16880,28,968,16907.76,29.75,-1.00,-1.0,2372
2308,2137308,16792,0,1140,16830.65,29.71,-1.00,-1.0,2434
2310,2137310,16836,-4,1068,16869.84,29.80,-1.00,-1.0,2370
2315,2137315,16996,-208,1060,17030.29,29.75,-1.00,-1.0,2457
2318,2137318,17024,-188,1152,17063.97,29.75,-1.00,-1.0,2373
2321,2137321,16964,-408,1488,17034.02,29.80,-1.00,-1.0,2442
2323,2137323,17000,-264,1448,17063.60,29.80,-1.00,-1.0,2371
2326,2137326,17112,-252,1448,17175.00,29.80,-1.00,-1.0,2437
2329,2137329,17052,-220,1380,17109.16,29.80,-1.00,-1.0,2371
2332,2137332,17040,-212,1528,17109.69,29.85,-1.00,-1.0,2438
2334,2137334,17040,-252,1292,17090.77,29.80,-1.00,-1.0,2358
2337,2137337,16988,-356,1292,17040.78,29.75,-1.00,-1.0,2376
2342,2137342,16960,-304,1452,17024.76,29.75,-1.00,-1.0,2443
2345,2137345,17024,-336,1332,17079.34,29.66,-1.00,-1.0,2383
2348,2137348,17052,-456,1352,17111.59,29.71,-1.00,-1.0,2447
2350,2137350,17164,-532,1360,17226.01,29.80,-1.00,-1.0,2378
2353,2137353,17056,-512,1228,17107.81,29.80,-1.00,-1.0,2439
2356,2137356,17016,-524,1456,17086.21,29.71,-1.00,-1.0,2371
2359,2137359,16932,-516,1308,16990.28,29.80,-1.00,-1.0,2441
2361,2137361,17036,-396,1268,17087.71,29.71,-1.00,-1.0,2371
2367,2137367,17028,-336,1376,17086.81,29.71,-1.00,-1.0,2447
2369,2137369,16940,-356,1384,17000.17,29.80,-1.00,-1.0,2382
2372,2137372,16996,-348,1200,17041.86,29.80,-1.00,-1.0,2440
2375,2137375,17060,-272,1332,17114.08,29.80,-1.00,-1.0,2371
2378,2137378,17064,-344,1352,17120.93,29.75,-1.00,-1.0,2442
2380,2137380,17072,-376,1244,17121.39,29.75,-1.00,-1.0,2369
2383,2137383,17044,-484,1332,17102.82,29.75,-1.00,-1.0,2439
2386,2137386,17004,-392,1344,17061.54,29.75,-1.00,-1.0,2371
2389,2137389,17064,-328,1340,17119.68,29.80,-1.00,-1.0,2373
2394,2137394,16988,-164,1052,17021.33,29.75,-1.00,-1.0,2443
2396,2137396,17056,-196,1156,17096.25,29.85,-1.00,-1.0,2381
2399,2137399,16956,-228,1092,16992.66,29.71,-1.00,-1.0,2449
2402,2137402,16956,-232,1088,16992.46,29.80,-1.00,-1.0,2372
2405,2137405,17056,-276,1220,17101.80,29.85,-1.00,-1.0,2437
2407,2137407,17040,-284,1252,17088.29,29.80,-1.00,-1.0,2371
2410,2137410,17012,-320,1192,17056.71,29.85,-1.00,-1.0,2435
2413,2137413,17100,-308,1324,17153.95,29.75,-1.00,-1.0,2369
2418,2137418,17064,-276,1340,17118.76,29.71,-1.00,-1.0,2442
2421,2137421,16996,-308,1152,17037.78,29.80,-1.00,-1.0,2373
2423,2137423,17012,-172,1048,17045.12,29.75,-1.00,-1.0,2438
2426,2137426,16924,-164,988,16953.61,29.75,-1.00,-1.0,2358
2429,2137429,17016,-288,956,17045.27,29.75,-1.00,-1.0,2437
2432,2137432,16968,-268,996,16999.32,29.75,-1.00,-1.0,2377
2434,2137434,17132,-400,1176,17176.97,29.71,-1.00,-1.0,2380
2437,2137437,17124,-500,1208,17173.84,29.71,-1.00,-1.0,2443
2440,2137440,17184,-416,1264,17235.45,29.71,-1.00,-1.0,2357
2445,2137445,17132,-484,1400,17195.92,29.71,-1.00,-1.0,2450
2448,2137448,16964,-384,1476,17032.42,29.80,-1.00,-1.0,2383
2450,2137450,16996,-436,1516,17069.05,29.71,-1.00,-1.0,2426
2453,2137453,16940,-292,1120,16979.50,29.71,-1.00,-1.0,2373
2456,2137456,16928,-196,1276,16977.15,29.75,-1.00,-1.0,2436
2459,2137459,16992,-216,1272,17040.91,29.75,-1.00,-1.0,2370
2461,2137461,16948,-264,1416,17009.10,29.75,-1.00,-1.0,2437
2464,2137464,17016,-360,1424,17079.28,29.66,-1.00,-1.0,2372
2469,2137469,17156,-440,1404,17218.98,29.75,-1.00,-1.0,2443
2472,2137472,16952,-452,1400,17015.72,29.75,-1.00,-1.0,2378
2475,2137475,17032,-516,1488,17104.66,29.75,-1.00,-1.0,2443
2477,2137477,17116,-400,1380,17176.20,29.75,-1.00,-1.0,2370
2480,2137480,17056,-396,1372,17115.68,29.80,-1.00,-1.0,2377
2483,2137483,17028,-252,1128,17067.18,29.80,-1.00,-1.0,2441
2486,2137486,17116,-312,1156,17157.83,29.80,-1.00,-1.0,2382
2488,2137488,17028,-192,1008,17058.89,29.75,-1.00,-1.0,2437
2491,2137491,17016,-272,1160,17057.66,29.75,-1.00,-1.0,2370
2497,2137497,17128,-280,1208,17172.83,29.75,-1.00,-1.0,2443
2499,2137499,17028,-248,1272,17077.24,29.75,-1.00,-1.0,2375
2502,2137502,17096,-324,1140,17137.03,29.71,-1.00,-1.0,2438
2505,2137505,17064,-192,1136,17102.85,29.85,-1.00,-1.0,2370
2508,2137508,17020,-212,1164,17061.07,29.71,-1.00,-1.0,2444
2510,2137510,16928,-304,1116,16967.47,29.80,-1.00,-1.0,2371
2513,2137513,16940,-308,1148,16981.65,29.85,-1.00,-1.0,2444
2516,2137516,17048,-192,1112,17085.31,29.71,-1.00,-1.0,2386
2521,2137521,16992,-296,1240,17039.76,29.71,-1.00,-1.0,2450
2523,2137523,17072,-204,1072,17106.84,29.80,-1.00,-1.0,2377
2526,2137526,17084,-220,1284,17133.60,29.75,-1.00,-1.0,2446
2529,2137529,16996,-316,1260,17045.57,29.75,-1.00,-1.0,2386
2532,2137532,16992,-348,1304,17045.52,29.75,-1.00,-1.0,2368
2534,2137534,16948,-328,1364,17005.96,29.71,-1.00,-1.0,2435
2537,2137537,17020,-212,1212,17064.42,29.80,-1.00,-1.0,2371
2540,2137540,17008,-324,1380,17066.97,29.71,-1.00,-1.0,2435
2543,2137543,16956,-228,1336,17010.08,29.71,-1.00,-1.0,2378
2548,2137548,17164,-324,1212,17209.79,29.75,-1.00,-1.0,2451
2550,2137550,17084,-312,1200,17128.94,29.80,-1.00,-1.0,2375
2553,2137553,17072,-336,1268,17122.32,29.85,-1.00,-1.0,2452
2556,2137556,17092,-424,1372,17152.22,29.80,-1.00,-1.0,2377
2559,2137559,17044,-280,1320,17097.33,29.75,-1.00,-1.0,2439
2562,2137562,16972,-380,1332,17028.43,29.75,-1.00,-1.0,2382
2564,2137564,16912,-368,1328,16968.05,29.75,-1.00,-1.0,2437
2567,2137567,17004,-292,1276,17054.31,29.75,-1.00,-1.0,2371
2572,2137572,16976,-296,1172,17018.98,29.75,-1.00,-1.0,2437
2575,2137575,16956,-288,1236,17003.43,29.75,-1.00,-1.0,2376
2577,2137577,17004,-324,1280,17055.19,29.71,-1.00,-1.0,2374
2580,2137580,16992,-296,1344,17047.64,29.71,-1.00,-1.0,2439
2583,2137583,16956,-192,1400,17014.78,29.80,-1.00,-1.0,2372
2586,2137586,16992,-280,1208,17037.19,29.75,-1.00,-1.0,2444
2588,2137588,17052,-376,1348,17109.33,29.80,-1.00,-1.0,2371
2591,2137591,17004,-344,1224,17051.47,29.75,-1.00,-1.0,2444
2594,2137594,17076,-344,1280,17127.36,29.75,-1.00,-1.0,2385
2599,2137599,16992,-332,1192,17036.99,29.75,-1.00,-1.0,2443
2602,2137602,17044,-256,1268,17093.02,29.75,-1.00,-1.0,2378
2605,2137605,16956,-316,1208,17001.91,29.85,-1.00,-1.0,2452
2607,2137607,16864,-372,1068,16901.88,29.75,-1.00,-1.0,2378
2610,2137610,17036,-296,1220,17082.19,29.80,-1.00,-1.0,2436
2613,2137613,17120,-272,1016,17152.28,29.71,-1.00,-1.0,2369
2616,2137616,17008,-292,1080,17044.76,29.71,-1.00,-1.0,2443
2618,2137618,17052,-196,1124,17090.13,29.71,-1.00,-1.0,2373
2623,2137623,17008,-252,1320,17061.01,29.71,-1.00,-1.0,2443
2626,2137626,17072,-360,1256,17121.93,29.80,-1.00,-1.0,2375
2629,2137629,17096,-236,1156,17136.66,29.71,-1.00,-1.0,2377
2632,2137632,17076,-308,1408,17136.72,29.66,-1.00,-1.0,2448
2634,2137634,17060,-324,1312,17113.44,29.85,-1.00,-1.0,2378
2637,2137637,17060,-352,1268,17110.68,29.71,-1.00,-1.0,2444
2640,2137640,17084,-388,1228,17132.47,29.75,-1.00,-1.0,2375
2643,2137643,17132,-424,1196,17178.93,29.80,-1.00,-1.0,2434
2645,2137645,17020,-416,1216,17068.45,29.71,-1.00,-1.0,2371
2650,2137650,16924,-408,1260,16975.74,29.80,-1.00,-1.0,2428
2653,2137653,17024,-380,1248,17073.91,29.71,-1.00,-1.0,2372
2656,2137656,16980,-384,1248,17030.13,29.80,-1.00,-1.0,2444
2659,2137659,17096,-320,1316,17149.56,29.71,-1.00,-1.0,2371
2661,2137661,16940,-324,1356,16997.27,29.85,-1.00,-1.0,2436
2664,2137664,17020,-268,1528,17090.55,29.71,-1.00,-1.0,2369
2667,2137667,17008,-200,1380,17065.07,29.75,-1.00,-1.0,2436
2670,2137670,17060,-396,1572,17136.85,29.66,-1.00,-1.0,2378
2672,2137672,17076,-420,1320,17132.09,29.61,-1.00,-1.0,2376
2677,2137677,17016,-284,1456,17080.54,29.71,-1.00,-1.0,2451
2680,2137680,17036,-420,1364,17095.68,29.89,-1.00,-1.0,2383
2683,2137683,16948,-356,1312,17002.44,29.71,-1.00,-1.0,2438
2686,2137686,16992,-364,1304,17045.85,29.71,-1.00,-1.0,2369
2688,2137688,16944,-384,1128,16985.85,29.75,-1.00,-1.0,2437
2691,2137691,17088,-316,1140,17128.90,29.71,-1.00,-1.0,2371
2694,2137694,16984,-360,1236,17032.72,29.75,-1.00,-1.0,2435
2697,2137697,17028,-368,1156,17071.16,29.75,-1.00,-1.0,2376
2702,2137702,17092,-296,1152,17133.34,29.75,-1.00,-1.0,2442
2704,2137704,17020,-240,1164,17061.45,29.85,-1.00,-1.0,2381
2707,2137707,17056,-212,1100,17092.75,29.71,-1.00,-1.0,2445
2710,2137710,16936,-204,896,16960.91,29.80,-1.00,-1.0,2370
2713,2137713,17032,-204,1156,17072.40,29.80,-1.00,-1.0,2435
2715,2137715,17104,-292,1072,17140.05,29.71,-1.00,-1.0,2373
2718,2137718,17096,-160,1108,17132.62,29.66,-1.00,-1.0,2437
2721,2137721,17084,-200,1068,17118.52,29.71,-1.00,-1.0,2370
2723,2137723,17024,-260,1176,17066.55,29.75,-1.00,-1.0,2368
2728,2137728,17028,-196,1272,17076.57,29.66,-1.00,-1.0,2443
2731,2137731,17052,-192,1100,17088.52,29.75,-1.00,-1.0,2375
2734,2137734,17036,-208,1260,17083.80,29.75,-1.00,-1.0,2439
2736,2137736,16992,-236,1324,17045.14,29.75,-1.00,-1.0,2371
2739,2137739,17060,-328,1204,17105.58,29.71,-1.00,-1.0,2445
2742,2137742,17088,-336,1240,17136.23,29.75,-1.00,-1.0,2371
2745,2137745,16940,-328,1188,16984.77,29.80,-1.00,-1.0,2438
2748,2137748,16984,-228,1268,17032.79,29.75,-1.00,-1.0,2375
2753,2137753,16988,-336,1324,17042.83,29.75,-1.00,-1.0,2442
2755,2137755,17044,-356,1264,17094.51,29.80,-1.00,-1.0,2385
2758,2137758,16964,-312,1264,17013.89,29.71,-1.00,-1.0,2446
2761,2137761,17068,-424,1480,17137.29,29.71,-1.00,-1.0,2360
2764,2137764,17088,-336,1364,17145.64,29.85,-1.00,-1.0,2435
2766,2137766,17016,-456,1392,17078.93,29.80,-1.00,-1.0,2357
2769,2137769,17008,-344,1348,17064.80,29.85,-1.00,-1.0,2369
2772,2137772,17108,-364,1220,17155.31,29.80,-1.00,-1.0,2446
2774,2137774,17024,-264,1280,17074.09,29.75,-1.00,-1.0,2371
2779,2137779,17160,-264,1236,17206.48,29.75,-1.00,-1.0,2443
2782,2137782,17040,-376,1096,17079.35,29.75,-1.00,-1.0,2371
2785,2137785,17060,-316,1184,17103.96,29.71,-1.00,-1.0,2457
2788,2137788,17064,-256,1224,17109.76,29.71,-1.00,-1.0,2377
2791,2137791,17024,-352,1144,17066.03,29.75,-1.00,-1.0,2444
2793,2137793,17096,-232,1176,17137.97,29.71,-1.00,-1.0,2378
2796,2137796,17108,-324,1236,17155.65,29.75,-1.00,-1.0,2436
2799,2137799,17052,-412,1172,17097.19,29.75,-1.00,-1.0,2369
2804,2137804,17012,-316,1144,17053.35,29.71,-1.00,-1.0,2456
2807,2137807,16968,-372,1092,17007.17,29.71,-1.00,-1.0,2377
2810,2137810,16992,-208,1244,17038.75,29.66,-1.00,-1.0,2445
2812,2137812,17060,-224,1224,17105.32,29.75,-1.00,-1.0,2365
2815,2137815,17036,-220,1068,17070.86,29.75,-1.00,-1.0,2424
2818,2137818,17008,-104,1164,17048.10,29.75,-1.00,-1.0,2370
2820,2137820,16940,-136,1252,16986.75,29.75,-1.00,-1.0,2369
2823,2137823,16920,-200,1224,16965.39,29.71,-1.00,-1.0,2449
2826,2137826,17028,-296,1164,17070.30,29.71,-1.00,-1.0,2377
2831,2137831,16552,-356,5348,17398.18,29.71,-1.00,-1.0,2443
2834,2137834,12848,2704,-32768,35300.49,29.80,-1.00,-1.0,2383
2837,2137837,13956,-6284,15532,21806.00,29.66,-1.00,-1.0,2449
2839,2137839,20108,5812,-13480,24896.21,29.80,-1.00,-1.0,2380
2842,2137842,12464,10472,19136,25123.71,29.75,-1.00,-1.0,2437
2845,2137845,17264,-10632,-3936,20653.75,29.85,-1.00,-1.0,2373
2848,2137848,26020,24180,10472,37032.09,29.71,-1.00,-1.0,2434
2850,2137850,13804,-14336,2312,20035.38,29.75,-1.00,-1.0,2371
2855,2137855,7912,-7456,6112,12471.90,29.85,-1.00,-1.0,2444
2858,2137858,20224,-5160,2536,21025.39,29.75,-1.00,-1.0,2374
2861,2137861,17120,3828,-3952,17982.39,29.71,-1.00,-1.0,2438
2864,2137864,17020,-11200,4532,20872.46,29.75,-1.00,-1.0,2370
2866,2137866,23056,10680,7312,26440.63,29.80,-1.00,-1.0,2437
2869,2137869,11244,-8904,784,14363.96,29.80,-1.00,-1.0,2370
2872,2137872,21952,-7116,-1972,23160.67,29.71,-1.00,-1.0,2436
2875,2137875,15792,792,4288,16382.96,29.80,-1.00,-1.0,2366
2880,2137880,18200,5168,2720,19114.04,29.71,-1.00,-1.0,2450
2882,2137882,14440,-5352,1268,15452.03,29.71,-1.00,-1.0,2375
2885,2137885,20900,-5416,3200,21826.20,29.75,-1.00,-1.0,2383
2888,2137888,15964,1456,-364,16034.39,29.75,-1.00,-1.0,2440
2891,2137891,16416,-3648,1644,16896.62,29.75,-1.00,-1.0,2370
2893,2137893,16528,1824,1224,16673.33,29.85,-1.00,-1.0,2438
2896,2137896,18080,-1672,624,18167.87,29.80,-1.00,-1.0,2371
2899,2137899,16228,4072,-1016,16761.90,29.71,-1.00,-1.0,2434
2902,2137902,16104,-724,564,16130.13,29.80,-1.00,-1.0,2369
2907,2137907,17592,3240,104,17888.18,29.66,-1.00,-1.0,2443
2909,2137909,18360,-2312,1268,18548.39,29.71,-1.00,-1.0,2378
2912,2137912,16168,4112,456,16688.94,29.66,-1.00,-1.0,2448
2915,2137915,15728,-3428,496,16104.88,29.75,-1.00,-1.0,2358
2918,2137918,17440,2800,1472,17724.57,29.75,-1.00,-1.0,2444
2920,2137920,17192,-1736,1664,17359.36,29.75,-1.00,-1.0,2377
2923,2137923,18036,1076,1504,18130.56,29.80,-1.00,-1.0,2436
2926,2137926,15880,1252,148,15929.97,29.80,-1.00,-1.0,2371
2931,2137931,17112,1596,1424,17245.16,29.66,-1.00,-1.0,2448
2933,2137933,16708,-644,564,16729.92,29.75,-1.00,-1.0,2386
2936,2137936,16912,-1592,488,16993.77,29.80,-1.00,-1.0,2369
2939,2137939,16460,1672,1352,16599.85,29.75,-1.00,-1.0,2443
2941,2137941,17672,-2008,1912,17888.19,29.80,-1.00,-1.0,2370
2944,2137944,16972,1804,592,17077.87,29.75,-1.00,-1.0,2452
2947,2137947,16696,-1116,1132,16771.50,29.85,-1.00,-1.0,2380
2950,2137950,17016,1264,872,17085.15,29.66,-1.00,-1.0,2438
2953,2137953,16452,-1244,60,16499.07,29.75,-1.00,-1.0,2374
2958,2137958,16572,1172,940,16639.96,29.66,-1.00,-1.0,2443
2960,2137960,17892,-2084,2244,18152.20,29.75,-1.00,-1.0,2382
2963,2137963,17072,-284,1640,17152.94,29.80,-1.00,-1.0,2446
2966,2137966,17148,-948,1660,17254.22,29.80,-1.00,-1.0,2373
2969,2137969,17132,-776,1952,17260.30,29.80,-1.00,-1.0,2435
2971,2137971,16660,-652,1684,16757.58,29.71,-1.00,-1.0,2370
2974,2137974,17188,-416,1232,17237.12,29.66,-1.00,-1.0,2436
2977,2137977,16804,116,940,16830.67,29.71,-1.00,-1.0,2370
2980,2137980,16920,-476,1284,16975.32,29.66,-1.00,-1.0,2369
2984,2137984,16828,300,580,16840.66,29.66,-1.00,-1.0,2444
2987,2137987,17092,-1272,1716,17224.96,29.75,-1.00,-1.0,2376
2990,2137990,17160,-480,1396,17223.38,29.71,-1.00,-1.0,2452
2993,2137993,17060,-276,1004,17091.75,29.85,-1.00,-1.0,2376
2996,2137996,16792,-900,1408,16874.94,29.71,-1.00,-1.0,2444
2998,2137998,17164,-888,2084,17312.84,29.75,-1.00,-1.0,2378
3001,2138001,16924,-328,1468,16990.71,29.71,-1.00,-1.0,2435
3004,2138004,17124,-324,1916,17233.90,29.71,-1.00,-1.0,2370
3009,2138009,17116,-1280,1316,17214.17,29.71,-1.00,-1.0,2447
3012,2138012,16888,384,1324,16944.17,29.61,-1.00,-1.0,2374
3014,2138014,17008,-840,1060,17061.69,29.66,-1.00,-1.0,2438
3017,2138017,16796,288,1216,16842.42,29.71,-1.00,-1.0,2370
3020,2138020,16880,-620,1072,16925.37,29.75,-1.00,-1.0,2437
3023,2138023,17296,148,1232,17340.45,29.85,-1.00,-1.0,2371
3025,2138025,17092,116,808,17111.48,29.66,-1.00,-1.0,2376
3028,2138028,17100,-20,840,17120.63,29.80,-1.00,-1.0,2448
3031,2138031,16864,524,748,16888.71,29.80,-1.00,-1.0,2371
3036,2138036,17052,-284,1200,17096.53,29.80,-1.00,-1.0,2453
3039,2138039,16812,-84,1052,16845.09,29.80,-1.00,-1.0,2380
3041,2138041,17088,-924,1212,17155.83,29.71,-1.00,-1.0,2441
3044,2138044,17008,140,1288,17057.27,29.80,-1.00,-1.0,2375
3047,2138047,16960,-964,1068,17020.91,29.75,-1.00,-1.0,2437
3050,2138050,16820,284,1152,16861.79,29.85,-1.00,-1.0,2373
3052,2138052,16944,-600,1548,17025.14,29.66,-1.00,-1.0,2436
3055,2138055,17052,-32,1428,17111.72,29.75,-1.00,-1.0,2369
3060,2138060,17032,-456,1644,17117.23,29.75,-1.00,-1.0,2444
3063,2138063,17008,16,1456,17070.21,29.85,-1.00,-1.0,2373
3066,2138066,17124,-20,1168,17163.80,29.80,-1.00,-1.0,2374
3068,2138068,16936,-160,1360,16991.27,29.71,-1.00,-1.0,2446
3071,2138071,17100,-432,1668,17186.59,29.71,-1.00,-1.0,2376
3074,2138074,17064,-84,1592,17138.31,29.75,-1.00,-1.0,2437
3077,2138077,16960,-356,1152,17002.81,29.80,-1.00,-1.0,2371
3079,2138079,16992,-528,1608,17076.08,29.75,-1.00,-1.0,2436
3082,2138082,17192,-668,1552,17274.83,29.75,-1.00,-1.0,2370
3087,2138087,16868,-784,896,16909.96,29.85,-1.00,-1.0,2442
3090,2138090,17148,-1020,1188,17219.34,29.75,-1.00,-1.0,2374
3093,2138093,17296,-212,1548,17366.43,29.75,-1.00,-1.0,2444
3095,2138095,17292,-792,1172,17349.76,29.75,-1.00,-1.0,2372
3098,2138098,17048,-120,1152,17087.30,29.80,-1.00,-1.0,2439
3101,2138101,17044,-596,1036,17085.86,29.80,-1.00,-1.0,2371
3104,2138104,16956,-4,1036,16987.62,29.71,-1.00,-1.0,2444
3107,2138107,16928,-164,912,16953.34,29.71,-1.00,-1.0,2382
3109,2138109,16928,-404,1192,16974.72,29.85,-1.00,-1.0,2369
3114,2138114,16972,4,1068,17005.57,29.75,-1.00,-1.0,2444
3117,2138117,17028,-24,1056,17060.73,29.66,-1.00,-1.0,2371
3120,2138120,17020,-488,1292,17075.94,29.71,-1.00,-1.0,2442
3122,2138122,17164,-188,1356,17218.51,29.71,-1.00,-1.0,2373
3125,2138125,16976,-464,1004,17011.99,29.66,-1.00,-1.0,2448
3128,2138128,17008,-292,1048,17042.76,29.71,-1.00,-1.0,2373
3131,2138131,17000,-368,1468,17067.23,29.85,-1.00,-1.0,2445
3133,2138133,17088,-208,1128,17126.45,29.75,-1.00,-1.0,2372
3138,2138138,16900,-608,1144,16949.58,29.71,-1.00,-1.0,2442
3141,2138141,16900,-576,1264,16956.99,29.80,-1.00,-1.0,2382
3144,2138144,16912,-84,1512,16979.66,29.85,-1.00,-1.0,2449
3146,2138146,17052,-424,1356,17111.08,29.75,-1.00,-1.0,2378
3149,2138149,16964,76,1084,16998.77,29.66,-1.00,-1.0,2436
3152,2138152,17060,-348,1252,17109.42,29.66,-1.00,-1.0,2370
3154,2138154,17176,-308,1468,17241.37,29.71,-1.00,-1.0,2369
3157,2138157,17084,-488,1300,17140.34,29.66,-1.00,-1.0,2454
3160,2138160,16936,-320,1124,16976.27,29.71,-1.00,-1.0,2379
3165,2138165,17108,-532,1440,17176.74,29.80,-1.00,-1.0,2443
3168,2138168,17016,-340,1324,17070.82,29.80,-1.00,-1.0,2371
3171,2138171,16936,-536,1040,16976.37,29.85,-1.00,-1.0,2446
3173,2138173,16948,-432,1264,17000.56,29.75,-1.00,-1.0,2377
3176,2138176,17052,-332,1320,17106.24,29.85,-1.00,-1.0,2438
3179,2138179,16876,-348,1200,16922.19,29.66,-1.00,-1.0,2375
3182,2138182,16888,-308,1168,16931.14,29.80,-1.00,-1.0,2434
3184,2138184,16992,-580,1368,17056.84,29.75,-1.00,-1.0,2370
3189,2138189,17176,-312,1436,17238.75,29.75,-1.00,-1.0,2442
3192,2138192,17180,-204,1068,17214.37,29.85,-1.00,-1.0,2374
3195,2138195,17040,-384,1072,17078.00,29.89,-1.00,-1.0,2439
3198,2138198,17088,-376,980,17120.21,29.71,-1.00,-1.0,2371
3200,2138200,17044,-380,1084,17082.66,29.75,-1.00,-1.0,2376
3203,2138203,16988,-352,1124,17028.78,29.66,-1.00,-1.0,2448
3206,2138206,17044,-352,1248,17093.25,29.66,-1.00,-1.0,2370
3209,2138209,16888,-236,1332,16942.09,29.71,-1.00,-1.0,2435
3211,2138211,17016,-100,1328,17068.04,29.75,-1.00,-1.0,2373
3217,2138217,17024,-136,1308,17074.72,29.66,-1.00,-1.0,2444
3219,2138219,17024,112,1088,17059.10,29.75,-1.00,-1.0,2387
3222,2138222,16964,4,1184,17005.27,29.85,-1.00,-1.0,2438
3225,2138225,16864,-128,956,16891.56,29.66,-1.00,-1.0,2371
3228,2138228,16956,-112,1096,16991.75,29.80,-1.00,-1.0,2436
3230,2138230,16964,-280,1112,17002.71,29.71,-1.00,-1.0,2371
3233,2138233,17060,-236,984,17089.98,29.80,-1.00,-1.0,2435
3236,2138236,17052,-380,1184,17097.28,29.80,-1.00,-1.0,2370
3239,2138239,17032,-456,1252,17084.04,29.66,-1.00,-1.0,2371
3243,2138243,17068,-328,1248,17116.71,29.75,-1.00,-1.0,2442
3246,2138246,17076,-268,1320,17129.04,29.66,-1.00,-1.0,2375
3249,2138249,17012,-276,1332,17066.30,29.85,-1.00,-1.0,2453
3252,2138252,17044,-200,1420,17104.22,29.75,-1.00,-1.0,2373
3255,2138255,17048,-296,1308,17100.67,29.71,-1.00,-1.0,2449
3257,2138257,17016,-364,1512,17086.92,29.80,-1.00,-1.0,2373
3260,2138260,17004,-620,1728,17102.82,29.80,-1.00,-1.0,2437
3263,2138263,16988,-632,1348,17053.11,29.71,-1.00,-1.0,2371
3268,2138268,17100,-516,1460,17169.97,29.71,-1.00,-1.0,2453
3271,2138271,17192,-456,1460,17259.91,29.71,-1.00,-1.0,2377
3273,2138273,17016,-512,1528,17092.14,29.71,-1.00,-1.0,2438
3276,2138276,17060,-392,1452,17126.17,29.71,-1.00,-1.0,2370
3279,2138279,16992,-448,1508,17064.67,29.75,-1.00,-1.0,2438
3282,2138282,17004,-472,1464,17073.43,29.80,-1.00,-1.0,2377
3285,2138285,17084,-424,1464,17151.86,29.75,-1.00,-1.0,2434
3287,2138287,16976,-512,1528,17052.32,29.75,-1.00,-1.0,2371
3290,2138290,16904,-444,1260,16956.71,29.71,-1.00,-1.0,2369
3295,2138295,16908,-508,1240,16961.02,29.85,-1.00,-1.0,2450
3298,2138298,17036,-628,1400,17104.96,29.75,-1.00,-1.0,2383
3300,2138300,17000,-436,1172,17045.93,29.61,-1.00,-1.0,2428
3303,2138303,16932,-412,1024,16967.94,29.75,-1.00,-1.0,2373
3306,2138306,17060,-288,980,17090.55,29.80,-1.00,-1.0,2436
3309,2138309,17004,-116,1024,17035.20,29.71,-1.00,-1.0,2370
3311,2138311,17068,-84,1056,17100.84,29.75,-1.00,-1.0,2437
3314,2138314,17144,-96,1032,17175.30,29.71,-1.00,-1.0,2371
3320,2138320,16996,64,1000,17025.51,29.80,-1.00,-1.0,2464
3323,2138323,16940,-4,852,16961.41,29.71,-1.00,-1.0,2376
3325,2138325,16964,48,1004,16993.75,29.71,-1.00,-1.0,2446
3328,2138328,16916,44,1040,16948.00,29.61,-1.00,-1.0,2370
3331,2138331,16852,-28,1140,16890.54,29.75,-1.00,-1.0,2375
3334,2138334,17036,-172,1012,17066.90,29.75,-1.00,-1.0,2437
3336,2138336,17000,-188,896,17024.63,29.75,-1.00,-1.0,2373
3339,2138339,17140,-132,1164,17179.99,29.80,-1.00,-1.0,2451
3342,2138342,17072,-248,1264,17120.53,29.80,-1.00,-1.0,2378
3347,2138347,17052,-200,1296,17102.35,29.75,-1.00,-1.0,2443
3349,2138349,17012,-184,1268,17060.18,29.75,-1.00,-1.0,2376
3352,2138352,17056,-152,1336,17108.92,29.71,-1.00,-1.0,2452
3355,2138355,16988,-320,1324,17042.52,29.71,-1.00,-1.0,2373
3358,2138358,17060,-324,1128,17100.32,29.80,-1.00,-1.0,2446
3360,2138360,16984,-224,1352,17039.20,29.71,-1.00,-1.0,2378
3363,2138363,17072,-320,1372,17130.03,29.66,-1.00,-1.0,2422
3366,2138366,17136,-308,1328,17190.14,29.66,-1.00,-1.0,2369
3371,2138371,17044,-404,1532,17117.48,29.71,-1.00,-1.0,2445
3374,2138374,17096,-368,1516,17167.03,29.80,-1.00,-1.0,2376
3376,2138376,17108,-444,1356,17167.40,29.85,-1.00,-1.0,2357
3379,2138379,16980,-360,1484,17048.53,29.66,-1.00,-1.0,2439
3382,2138382,17104,-340,1276,17154.90,29.85,-1.00,-1.0,2377
3385,2138385,17176,-300,1232,17222.74,29.61,-1.00,-1.0,2437
3387,2138387,17056,-376,1356,17113.95,29.80,-1.00,-1.0,2373
3390,2138390,17056,-384,1276,17107.97,29.71,-1.00,-1.0,2446
3393,2138393,17060,-332,1320,17114.21,29.80,-1.00,-1.0,2374
3398,2138398,17008,-368,1308,17062.19,29.80,-1.00,-1.0,2449
3401,2138401,17084,-336,1316,17137.91,29.80,-1.00,-1.0,2371
3403,2138403,17132,-372,1252,17181.71,29.75,-1.00,-1.0,2449
3406,2138406,17104,-380,1288,17156.64,29.71,-1.00,-1.0,2376
3409,2138409,17076,-248,1256,17123.93,29.75,-1.00,-1.0,2438
3412,2138412,16936,-160,1204,16979.50,29.66,-1.00,-1.0,2371
3414,2138414,17024,-304,1028,17057.72,29.75,-1.00,-1.0,2435
3417,2138417,16916,-372,1176,16960.91,29.66,-1.00,-1.0,2369
3422,2138422,17112,-328,1264,17161.75,29.75,-1.00,-1.0,2448
3425,2138425,17044,-324,1420,17106.12,29.85,-1.00,-1.0,2372
3427,2138427,17048,-364,1300,17101.37,29.75,-1.00,-1.0,2373
3430,2138430,17028,-288,1228,17074.65,29.80,-1.00,-1.0,2454
3433,2138433,16940,-208,1140,16979.59,29.80,-1.00,-1.0,2378
3436,2138436,16960,-224,1168,17001.65,29.85,-1.00,-1.0,2440
3439,2138439,16960,-224,1208,17004.44,29.80,-1.00,-1.0,2375
3441,2138441,17128,-144,1260,17174.89,29.75,-1.00,-1.0,2438
3444,2138444,17012,-180,1000,17042.32,29.75,-1.00,-1.0,2374
3449,2138449,17036,-324,972,17066.78,29.66,-1.00,-1.0,2453
3452,2138452,17116,-308,1096,17153.82,29.75,-1.00,-1.0,2377
3455,2138455,17112,-324,1240,17159.93,29.75,-1.00,-1.0,2437
3457,2138457,17084,-316,1232,17131.28,29.75,-1.00,-1.0,2370
3460,2138460,17064,-352,1372,17122.69,29.61,-1.00,-1.0,2437
3463,2138463,17012,-296,1244,17059.99,29.75,-1.00,-1.0,2371
3466,2138466,17104,-264,1204,17148.36,29.80,-1.00,-1.0,2437
3468,2138468,17016,-276,1308,17068.43,29.80,-1.00,-1.0,2370
3471,2138471,16952,-148,1156,16992.01,29.75,-1.00,-1.0,2384
3476,2138476,17020,-240,1340,17074.36,29.75,-1.00,-1.0,2458
3479,2138479,16832,-408,1340,16890.18,29.75,-1.00,-1.0,2377
3482,2138482,17012,-232,1464,17076.45,29.66,-1.00,-1.0,2444
3484,2138484,17012,-388,1460,17078.94,29.75,-1.00,-1.0,2373
3487,2138487,17048,-444,1332,17105.72,29.80,-1.00,-1.0,2437
3490,2138490,17032,-484,1532,17107.61,29.75,-1.00,-1.0,2358
3493,2138493,17088,-396,1260,17138.97,29.89,-1.00,-1.0,2443
3495,2138495,16992,-356,1380,17051.66,29.71,-1.00,-1.0,2371
3500,2138500,17088,-316,1240,17135.85,29.71,-1.00,-1.0,2443
3503,2138503,16992,-280,1092,17029.36,29.71,-1.00,-1.0,2375
3506,2138506,17036,-244,1184,17078.84,29.71,-1.00,-1.0,2438
3509,2138509,16956,-396,1292,17009.76,29.71,-1.00,-1.0,2378
3512,2138512,17088,-280,1284,17138.46,29.75,-1.00,-1.0,2438
3514,2138514,17036,-500,1264,17090.14,29.61,-1.00,-1.0,2374
3517,2138517,17016,-476,1252,17068.64,29.75,-1.00,-1.0,2450
3520,2138520,17052,-332,1164,17094.91,29.75,-1.00,-1.0,2377
3522,2138522,17072,-292,1200,17116.61,29.71,-1.00,-1.0,2369
3527,2138527,17096,-276,1096,17133.32,29.71,-1.00,-1.0,2443
3530,2138530,16888,-256,1200,16932.52,29.71,-1.00,-1.0,2375
3533,2138533,16996,-256,1108,17034.00,29.75,-1.00,-1.0,2444
3536,2138536,16896,-284,1100,16934.15,29.66,-1.00,-1.0,2371
3538,2138538,17024,-308,1024,17057.55,29.75,-1.00,-1.0,2445
3541,2138541,17076,-280,1108,17114.20,29.85,-1.00,-1.0,2385
3544,2138544,17084,-304,1216,17129.92,29.66,-1.00,-1.0,2436
3547,2138547,17092,-200,1224,17136.94,29.75,-1.00,-1.0,2372
3551,2138551,17092,-276,1164,17133.81,29.66,-1.00,-1.0,2445
3554,2138554,17028,-144,1216,17071.97,29.75,-1.00,-1.0,2385
3557,2138557,16920,-192,1312,16971.88,29.75,-1.00,-1.0,2439
3560,2138560,17036,-248,1360,17092.00,29.75,-1.00,-1.0,2372
3562,2138562,16984,-188,1284,17033.50,29.61,-1.00,-1.0,2437
3565,2138565,17080,-308,1260,17129.18,29.71,-1.00,-1.0,2374
3568,2138568,16940,-248,1292,16991.01,29.80,-1.00,-1.0,2377
3571,2138571,17116,-348,1340,17171.90,29.66,-1.00,-1.0,2434
3573,2138573,17168,-376,1324,17223.08,29.75,-1.00,-1.0,2374
3578,2138578,16984,-508,1340,17044.35,29.75,-1.00,-1.0,2443
3581,2138581,16956,-392,1216,17004.07,29.75,-1.00,-1.0,2372
3584,2138584,17028,-368,1272,17079.41,29.75,-1.00,-1.0,2450
3587,2138587,17000,-260,1276,17049.80,29.85,-1.00,-1.0,2379
3589,2138589,17000,-340,1332,17055.49,29.71,-1.00,-1.0,2439
3592,2138592,17012,-236,1200,17055.90,29.71,-1.00,-1.0,2375
3595,2138595,16980,-248,1372,17037.14,29.71,-1.00,-1.0,2434
3598,2138598,17120,-308,1364,17177.01,29.80,-1.00,-1.0,2369
3603,2138603,17168,-308,1336,17222.66,29.71,-1.00,-1.0,2445
3605,2138605,16996,-328,1280,17047.29,29.71,-1.00,-1.0,2378
3608,2138608,17060,-356,1316,17114.38,29.75,-1.00,-1.0,2439
3611,2138611,17088,-348,1216,17134.75,29.80,-1.00,-1.0,2372
3614,2138614,17036,-424,1288,17089.88,29.75,-1.00,-1.0,2443
3616,2138616,16952,-356,1244,17001.31,29.85,-1.00,-1.0,2357
3619,2138619,17076,-348,1276,17127.14,29.75,-1.00,-1.0,2377
3622,2138622,17060,-232,1388,17117.94,29.80,-1.00,-1.0,2441
3625,2138625,16976,-280,1284,17026.79,29.80,-1.00,-1.0,2378
3630,2138630,17008,-236,1180,17050.52,29.71,-1.00,-1.0,2445
3632,2138632,16988,-252,1104,17025.70,29.71,-1.00,-1.0,2384
3635,2138635,17004,-224,1156,17044.72,29.75,-1.00,-1.0,2437
3638,2138638,17008,-280,1140,17048.46,29.71,-1.00,-1.0,2372
3641,2138641,17072,-348,1056,17108.17,29.75,-1.00,-1.0,2441
3643,2138643,16992,-296,1088,17029.37,29.66,-1.00,-1.0,2372
3646,2138646,17056,-200,1104,17092.86,29.75,-1.00,-1.0,2438
3649,2138649,17012,-292,1132,17052.12,29.75,-1.00,-1.0,2369
3654,2138654,17024,-264,1140,17064.17,29.80,-1.00,-1.0,2448
3657,2138657,17128,-336,1268,17178.16,29.80,-1.00,-1.0,2375
3660,2138660,17060,-348,1196,17105.41,29.66,-1.00,-1.0,2443
3662,2138662,16964,-360,1204,17010.48,29.75,-1.00,-1.0,2374
3665,2138665,17028,-252,1208,17072.65,29.75,-1.00,-1.0,2369
3668,2138668,16992,-296,1216,17038.03,29.71,-1.00,-1.0,2443
3671,2138671,16944,-320,1176,16987.78,29.71,-1.00,-1.0,2377
3673,2138673,17000,-332,1348,17056.59,29.80,-1.00,-1.0,2437
3676,2138676,17100,-268,1256,17148.16,29.71,-1.00,-1.0,2374
3681,2138681,17024,-308,1240,17071.88,29.71,-1.00,-1.0,2459
3684,2138684,16984,-276,1280,17034.40,29.71,-1.00,-1.0,2379
3687,2138687,16980,-368,1368,17038.99,29.66,-1.00,-1.0,2443
3689,2138689,17012,-376,1244,17061.57,29.75,-1.00,-1.0,2372
3692,2138692,17008,-248,1384,17066.02,29.75,-1.00,-1.0,2437
3695,2138695,16984,-256,1312,17036.52,29.85,-1.00,-1.0,2371
3698,2138698,17076,-396,1288,17129.08,29.75,-1.00,-1.0,2442
3700,2138700,17080,-360,1388,17140.09,29.75,-1.00,-1.0,2371
3705,2138705,17072,-384,1304,17126.04,29.66,-1.00,-1.0,2443
3708,2138708,16960,-328,1036,16994.78,29.66,-1.00,-1.0,2375
3711,2138711,17028,-332,1332,17083.24,29.71,-1.00,-1.0,2439
3714,2138714,17028,-336,1120,17068.10,29.75,-1.00,-1.0,2377
3716,2138716,17032,-304,1228,17078.92,29.71,-1.00,-1.0,2377
3719,2138719,17040,-324,1180,17083.88,29.75,-1.00,-1.0,2444
3722,2138722,17064,-200,1156,17104.28,29.66,-1.00,-1.0,2373
3725,2138725,17032,-312,1268,17081.98,29.75,-1.00,-1.0,2436
3727,2138727,17028,-376,1128,17069.46,29.75,-1.00,-1.0,2371
3732,2138732,17060,-148,1196,17102.51,29.71,-1.00,-1.0,2442
3735,2138735,16984,-240,1092,17020.76,29.75,-1.00,-1.0,2376
3738,2138738,17004,-248,1108,17041.87,29.71,-1.00,-1.0,2444
3740,2138740,17012,-256,1120,17050.75,29.80,-1.00,-1.0,2370
3743,2138743,17028,-284,1224,17074.30,29.75,-1.00,-1.0,2447
3746,2138746,17148,-336,1112,17187.30,29.71,-1.00,-1.0,2387
3749,2138749,17020,-228,1192,17063.21,29.75,-1.00,-1.0,2434
3752,2138752,17008,-208,1216,17052.68,29.66,-1.00,-1.0,2370
3756,2138756,17052,-268,1304,17103.89,29.80,-1.00,-1.0,2443
3759,2138759,17000,-172,1140,17039.05,29.71,-1.00,-1.0,2376
3762,2138762,17092,-208,1252,17139.06,29.75,-1.00,-1.0,2372
3764,2138764,17004,-208,1344,17058.30,29.66,-1.00,-1.0,2438
3767,2138767,17080,-304,1272,17130.00,29.75,-1.00,-1.0,2372
3770,2138770,17024,-408,1340,17081.53,29.71,-1.00,-1.0,2435
3773,2138773,17052,-416,1464,17119.79,29.75,-1.00,-1.0,2370
3776,2138776,17004,-428,1264,17056.29,29.80,-1.00,-1.0,2436
3778,2138778,16980,-384,1388,17040.96,29.71,-1.00,-1.0,2373
3783,2138783,17088,-376,1244,17137.35,29.71,-1.00,-1.0,2444
3786,2138786,17060,-280,1416,17120.95,29.71,-1.00,-1.0,2375
3789,2138789,17044,-468,1348,17103.63,29.71,-1.00,-1.0,2442
3791,2138791,17116,-336,1284,17167.38,29.80,-1.00,-1.0,2369
3794,2138794,17020,-432,1308,17075.65,29.75,-1.00,-1.0,2446
3797,2138797,17036,-360,1332,17091.79,29.66,-1.00,-1.0,2388
3800,2138800,17108,-304,1280,17158.51,29.66,-1.00,-1.0,2435
3803,2138803,17060,-312,1284,17111.10,29.75,-1.00,-1.0,2372
3808,2138808,17056,-324,1264,17105.84,29.75,-1.00,-1.0,2446
3810,2138810,17012,-224,1236,17058.31,29.75,-1.00,-1.0,2382
3813,2138813,16984,-272,1176,17026.84,29.80,-1.00,-1.0,2369
3816,2138816,17012,-316,1260,17061.52,29.80,-1.00,-1.0,2449
3818,2138818,17104,-216,1184,17146.29,29.71,-1.00,-1.0,2373
3821,2138821,16992,-228,992,17022.46,29.75,-1.00,-1.0,2450
3824,2138824,17096,-308,1240,17143.68,29.66,-1.00,-1.0,2379
3827,2138827,17032,-288,1184,17075.53,29.75,-1.00,-1.0,2424
3830,2138830,16940,-228,1184,16982.86,29.75,-1.00,-1.0,2379
3835,2138835,17004,-164,1220,17048.50,29.66,-1.00,-1.0,2443
3837,2138837,16956,-108,1100,16991.99,29.66,-1.00,-1.0,2385
3840,2138840,17012,-140,1164,17052.35,29.71,-1.00,-1.0,2445
3843,2138843,17000,-236,1020,17032.21,29.75,-1.00,-1.0,2372
3846,2138846,17012,-168,1252,17058.84,29.75,-1.00,-1.0,2434
3848,2138848,16932,-300,972,16962.53,29.71,-1.00,-1.0,2374
3851,2138851,17004,-296,1224,17050.57,29.80,-1.00,-1.0,2439
3854,2138854,17048,-312,1308,17100.95,29.71,-1.00,-1.0,2373
3856,2138856,16972,-260,1336,17026.49,29.75,-1.00,-1.0,2369
3861,2138861,16984,-344,1144,17025.96,29.66,-1.00,-1.0,2444
3864,2138864,17000,-424,1224,17049.28,29.71,-1.00,-1.0,2377
3867,2138867,31156,1908,-23664,39170.42,29.75,-1.00,-1.0,2451
3870,2138870,7372,-29744,32767,44863.44,29.75,-1.00,-1.0,2377
3873,2138873,6616,820,-8212,10577.37,29.66,-1.00,-1.0,2445
3875,2138875,20316,21028,11476,31410.43,29.80,-1.00,-1.0,2378
3878,2138878,10860,-32768,19824,39807.95,29.80,-1.00,-1.0,2436
3881,2138881,26196,7144,20456,33995.81,29.80,-1.00,-1.0,2370
3886,2138886,11456,-22544,3524,25532.14,29.71,-1.00,-1.0,2445
3889,2138889,24552,24656,12512,36976.60,29.85,-1.00,-1.0,2375
3891,2138891,17880,-7956,1448,19623.69,29.85,-1.00,-1.0,2440
3894,2138894,23776,-2236,4576,24315.38,29.80,-1.00,-1.0,2372
3897,2138897,15792,5800,7160,18283.68,29.75,-1.00,-1.0,2437
3900,2138900,19236,-10420,516,21883.02,29.75,-1.00,-1.0,2377
3903,2138903,11628,11120,-5564,17024.19,29.66,-1.00,-1.0,2436
3905,2138905,13996,-11888,8044,20047.90,29.75,-1.00,-1.0,2373
3910,2138910,19196,-2916,-1440,19469.54,29.85,-1.00,-1.0,2447
3913,2138913,17296,-10604,2756,20474.18,29.75,-1.00,-1.0,2376
3916,2138916,13784,7516,3848,16164.65,29.71,-1.00,-1.0,2445
3919,2138919,23032,-4240,4496,23846.69,29.66,-1.00,-1.0,2377
3921,2138921,14820,4680,1324,15597.68,29.71,-1.00,-1.0,2368
3924,2138924,18568,-280,6356,19627.73,29.75,-1.00,-1.0,2437
3927,2138927,19340,4384,2284,19961.76,29.75,-1.00,-1.0,2371
3930,2138930,13660,-1612,-5304,14742.00,29.75,-1.00,-1.0,2435
3932,2138932,20616,-16,1624,20679.87,29.66,-1.00,-1.0,2372
3937,2138937,16580,-2676,36,16794.60,29.80,-1.00,-1.0,2456
3940,2138940,16320,1004,-172,16351.76,29.71,-1.00,-1.0,2373
3943,2138943,14004,-3532,52,14442.64,29.71,-1.00,-1.0,2449
3945,2138945,15700,4116,1288,16281.60,29.71,-1.00,-1.0,2364
3948,2138948,17848,-1036,-308,17880.70,29.66,-1.00,-1.0,2437
3951,2138951,18428,-1632,2072,18615.79,29.71,-1.00,-1.0,2370
3954,2138954,16188,2280,1312,16400.34,29.75,-1.00,-1.0,2442
3956,2138956,17756,-3200,1040,18072.00,29.75,-1.00,-1.0,2372
3961,2138961,15776,-1852,-144,15884.99,29.61,-1.00,-1.0,2449
3964,2138964,16344,1760,108,16438.84,29.80,-1.00,-1.0,2376
3967,2138967,16984,960,1120,17047.94,29.75,-1.00,-1.0,2442
3969,2138969,16176,-1376,488,16241.75,29.66,-1.00,-1.0,2372
3972,2138972,17656,2476,1592,17899.70,29.85,-1.00,-1.0,2369
3975,2138975,18568,-1848,1296,18704.69,29.71,-1.00,-1.0,2444
3978,2138978,17860,24,1748,17945.35,29.75,-1.00,-1.0,2379
3980,2138980,17208,-404,1548,17282.21,29.71,-1.00,-1.0,2437
3983,2138983,15664,-1812,-832,15790.39,29.80,-1.00,-1.0,2374
3988,2138988,17388,-1900,452,17497.34,29.71,-1.00,-1.0,2452
3991,2138991,16452,1112,-456,16495.84,29.71,-1.00,-1.0,2379
3994,2138994,16764,-1092,1496,16866.01,29.85,-1.00,-1.0,2437
3996,2138996,16620,-332,2704,16841.80,29.85,-1.00,-1.0,2371
3999,2138999,17552,-1084,1372,17638.88,29.66,-1.00,-1.0,2437
4002,2139002,17376,-1440,1288,17483.08,29.75,-1.00,-1.0,2371
4005,2139005,17368,228,2804,17594.37,29.80,-1.00,-1.0,2442
4007,2139007,17840,-388,1508,17907.83,29.75,-1.00,-1.0,2357
4012,2139012,16732,-100,1892,16838.93,29.75,-1.00,-1.0,2442
4015,2139015,17100,-748,608,17127.15,29.85,-1.00,-1.0,2374
4018,2139018,17172,24,236,17173.64,29.71,-1.00,-1.0,2438
4021,2139021,17392,292,1740,17481.26,29.71,-1.00,-1.0,2378
4023,2139023,17292,-856,1724,17398.80,29.71,-1.00,-1.0,2377
4026,2139026,17080,404,864,17106.61,29.75,-1.00,-1.0,2437
4029,2139029,16200,-884,1144,16264.38,29.66,-1.00,-1.0,2373
4032,2139032,17432,-1176,2460,17643.96,29.75,-1.00,-1.0,2435
4034,2139034,17076,-188,1560,17148.14,29.75,-1.00,-1.0,2373
4039,2139039,17300,184,2156,17434.80,29.85,-1.00,-1.0,2443
4042,2139042,16620,-828,1232,16686.16,29.66,-1.00,-1.0,2375
4045,2139045,17252,-112,1900,17356.67,29.71,-1.00,-1.0,2437
4048,2139048,16844,-316,832,16867.50,29.71,-1.00,-1.0,2376
4051,2139051,17088,-188,772,17106.46,29.71,-1.00,-1.0,2438
4053,2139053,17104,-136,1120,17141.17,29.71,-1.00,-1.0,2373
4056,2139056,17176,-720,1172,17230.99,29.75,-1.00,-1.0,2450
4059,2139059,16828,416,628,16844.85,29.80,-1.00,-1.0,2377
4061,2139061,17164,-492,784,17188.94,29.75,-1.00,-1.0,2369
4067,2139067,17192,-248,632,17205.40,29.66,-1.00,-1.0,2448
4069,2139069,16996,-256,1124,17035.05,29.66,-1.00,-1.0,2383
4072,2139072,17088,36,1100,17123.41,29.66,-1.00,-1.0,2439
4075,2139075,17200,-568,1364,17263.35,29.75,-1.00,-1.0,2371
4078,2139078,17156,-244,1428,17217.06,29.80,-1.00,-1.0,2439
4080,2139080,16832,-956,1072,16893.17,29.66,-1.00,-1.0,2370
4083,2139083,16800,72,992,16829.42,29.71,-1.00,-1.0,2438
4086,2139086,17052,-88,1496,17117.72,29.71,-1.00,-1.0,2370
4091,2139091,17004,148,1452,17066.52,29.80,-1.00,-1.0,2444
4094,2139094,17084,-604,1456,17156.57,29.75,-1.00,-1.0,2372
4096,2139096,17136,92,1744,17224.76,29.80,-1.00,-1.0,2442
4099,2139099,17104,148,1016,17134.79,29.71,-1.00,-1.0,2371
4102,2139102,16956,-240,1244,17003.27,29.75,-1.00,-1.0,2371
4105,2139105,17076,-228,1440,17138.12,29.75,-1.00,-1.0,2443
4107,2139107,17040,-272,1376,17097.63,29.80,-1.00,-1.0,2418
4110,2139110,17116,-284,1156,17157.34,29.75,-1.00,-1.0,2428
4113,2139113,16860,-212,1580,16935.20,29.66,-1.00,-1.0,2400
4118,2139118,17196,-640,1276,17255.15,29.75,-1.00,-1.0,2462
4121,2139121,16856,-408,984,16889.62,29.75,-1.00,-1.0,2369
4124,2139124,17012,-1036,1108,17079.49,29.71,-1.00,-1.0,2469
4127,2139127,17088,28,1456,17149.94,29.66,-1.00,-1.0,2376
4129,2139129,16936,-912,868,16982.73,29.75,-1.00,-1.0,2444
4132,2139132,17072,-240,1076,17107.56,29.75,-1.00,-1.0,2378
4135,2139135,17048,-668,1136,17098.86,29.71,-1.00,-1.0,2436
4138,2139138,16928,-368,1108,16968.21,29.75,-1.00,-1.0,2369
4143,2139143,17020,-204,1156,17060.43,29.71,-1.00,-1.0,2440
4146,2139146,16892,348,992,16924.68,29.71,-1.00,-1.0,2375
4149,2139149,17044,-384,1076,17082.25,29.85,-1.00,-1.0,2371
4151,2139151,16904,16,1244,16949.72,29.75,-1.00,-1.0,2449
4154,2139154,17008,-436,1192,17055.29,29.75,-1.00,-1.0,2374
4157,2139157,17072,-184,1212,17115.96,29.71,-1.00,-1.0,2437
4160,2139160,17176,-524,1272,17231.01,29.71,-1.00,-1.0,2370
4162,2139162,17108,-280,1060,17143.09,29.71,-1.00,-1.0,2436
4165,2139165,17008,-632,1352,17073.35,29.71,-1.00,-1.0,2370
4170,2139170,17008,-224,1160,17048.98,29.80,-1.00,-1.0,2442
4173,2139173,16920,-516,1312,16978.63,29.66,-1.00,-1.0,2372
4175,2139175,16876,-68,1396,16933.78,29.71,-1.00,-1.0,2445
4178,2139178,16960,-148,1320,17011.93,29.71,-1.00,-1.0,2369
4181,2139181,16944,-276,1468,17009.71,29.75,-1.00,-1.0,2437
4184,2139184,16932,120,1316,16983.49,29.80,-1.00,-1.0,2378
4187,2139187,17156,-284,1460,17220.35,29.85,-1.00,-1.0,2436
4189,2139189,17140,-48,1396,17196.82,29.85,-1.00,-1.0,2371
4192,2139192,17000,-236,1136,17039.55,29.66,-1.00,-1.0,2370
4197,2139197,17096,-268,1280,17145.95,29.66,-1.00,-1.0,2447
4200,2139200,17036,-612,1372,17102.11,29.75,-1.00,-1.0,2374
4202,2139202,16984,-244,1224,17029.80,29.75,-1.00,-1.0,2448
4205,2139205,16940,-472,1068,16980.20,29.71,-1.00,-1.0,2359
4208,2139208,17032,-372,1200,17078.27,29.71,-1.00,-1.0,2437
4211,2139211,17112,-308,1232,17159.06,29.80,-1.00,-1.0,2370
4213,2139213,16940,-216,1168,16981.59,29.75,-1.00,-1.0,2437
4216,2139216,16940,-408,1224,16989.06,29.80,-1.00,-1.0,2371
4221,2139221,17072,-244,1420,17132.69,29.80,-1.00,-1.0,2440
4224,2139224,17056,-100,1360,17110.43,29.80,-1.00,-1.0,2372
4227,2139227,17080,-384,1176,17124.74,29.75,-1.00,-1.0,2449
4229,2139229,16940,-408,1184,16986.23,29.66,-1.00,-1.0,2371
4232,2139232,17080,-440,1124,17122.60,29.75,-1.00,-1.0,2437
4235,2139235,17016,-408,1156,17060.10,29.75,-1.00,-1.0,2371
4238,2139238,16992,-448,1028,17028.96,29.71,-1.00,-1.0,2374
4240,2139240,16976,-520,1112,17020.33,29.71,-1.00,-1.0,2438
4243,2139243,17020,-360,1304,17073.68,29.80,-1.00,-1.0,2357
4248,2139248,17136,-180,1436,17197.01,29.71,-1.00,-1.0,2456
4251,2139251,17036,-184,1248,17082.64,29.80,-1.00,-1.0,2379
4254,2139254,16960,20,1348,17013.50,29.80,-1.00,-1.0,2446
4256,2139256,16920,-40,1116,16956.81,29.71,-1.00,-1.0,2371
4259,2139259,16956,-152,1164,16996.59,29.75,-1.00,-1.0,2437
4262,2139262,16964,-256,1088,17000.78,29.75,-1.00,-1.0,2370
4265,2139265,16968,-200,1120,17006.10,29.75,-1.00,-1.0,2441
4267,2139267,17052,-148,1020,17083.12,29.75,-1.00,-1.0,2371
4272,2139272,17036,-356,1176,17080.25,29.75,-1.00,-1.0,2438
4275,2139275,17084,-396,1088,17123.19,29.75,-1.00,-1.0,2369
4278,2139278,16992,-240,1216,17037.14,29.75,-1.00,-1.0,2446
4281,2139281,17076,-200,1312,17127.50,29.75,-1.00,-1.0,2377
4283,2139283,17092,-148,1360,17146.66,29.71,-1.00,-1.0,2377
4286,2139286,17060,-136,1312,17110.92,29.75,-1.00,-1.0,2437
4289,2139289,17040,-260,1524,17109.99,29.71,-1.00,-1.0,2372
4292,2139292,17048,-428,1360,17107.52,29.75,-1.00,-1.0,2435
4294,2139294,17036,-432,1620,17118.30,29.66,-1.00,-1.0,2371
4299,2139299,17056,-596,1304,17116.15,29.66,-1.00,-1.0,2443
4302,2139302,17000,-488,1432,17067.18,29.71,-1.00,-1.0,2377
4305,2139305,17156,-532,1540,17233.19,29.66,-1.00,-1.0,2440
4308,2139308,17076,-508,1496,17148.93,29.75,-1.00,-1.0,2370
4310,2139310,17148,-312,1544,17220.20,29.71,-1.00,-1.0,2441
4313,2139313,17112,-240,1524,17181.41,29.85,-1.00,-1.0,2371
4316,2139316,17076,-436,1456,17143.51,29.80,-1.00,-1.0,2435
4319,2139319,17048,-416,1256,17099.27,29.80,-1.00,-1.0,2371
4324,2139324,16860,-472,1312,16917.56,29.80,-1.00,-1.0,2447
4326,2139326,17004,-576,1120,17050.58,29.85,-1.00,-1.0,2362
4329,2139329,16896,-432,1160,16941.28,29.71,-1.00,-1.0,2448
4332,2139332,16996,-552,1168,17045.03,29.80,-1.00,-1.0,2379
4335,2139335,17084,-496,1156,17130.25,29.75,-1.00,-1.0,2368
4337,2139337,17012,-432,972,17045.22,29.66,-1.00,-1.0,2436
4340,2139340,17072,-332,976,17103.10,29.75,-1.00,-1.0,2370
4343,2139343,17132,-172,872,17155.04,29.80,-1.00,-1.0,2439
4346,2139346,17112,-200,1092,17147.97,29.75,-1.00,-1.0,2371
4351,2139351,17008,-8,972,17035.75,29.71,-1.00,-1.0,2440
4353,2139353,16960,-92,868,16982.45,29.75,-1.00,-1.0,2378
4356,2139356,17072,96,1128,17109.49,29.75,-1.00,-1.0,2455
4359,2139359,16976,-88,876,16998.81,29.80,-1.00,-1.0,2372
4362,2139362,16868,-28,1088,16903.08,29.75,-1.00,-1.0,2450
4364,2139364,16948,-36,1140,16986.34,29.75,-1.00,-1.0,2374
4367,2139367,16984,-192,1196,17027.14,29.75,-1.00,-1.0,2436
4370,2139370,16912,-316,1276,16963.01,29.75,-1.00,-1.0,2369
4372,2139372,16996,-304,1308,17048.97,29.71,-1.00,-1.0,2368
4377,2139377,17044,-268,1360,17100.27,29.75,-1.00,-1.0,2439
4380,2139380,17064,-252,1436,17126.17,29.75,-1.00,-1.0,2370
4383,2139383,16976,-232,1324,17029.13,29.71,-1.00,-1.0,2449
4385,2139385,17072,-260,1288,17122.49,29.71,-1.00,-1.0,2372
4388,2139388,16952,-336,1416,17014.35,29.80,-1.00,-1.0,2437
4391,2139391,17040,-224,1332,17093.45,29.71,-1.00,-1.0,2370
4394,2139394,17112,-272,1288,17162.56,29.85,-1.00,-1.0,2441
4397,2139397,16980,-260,1548,17052.40,29.71,-1.00,-1.0,2372
4402,2139402,16948,-388,1232,16997.15,29.80,-1.00,-1.0,2441
4404,2139404,17076,-472,1540,17151.80,29.71,-1.00,-1.0,2381
4407,2139407,17100,-412,1456,17166.82,29.75,-1.00,-1.0,2453
4410,2139410,17120,-460,1248,17171.59,29.66,-1.00,-1.0,2372
4413,2139413,16996,-348,1360,17053.88,29.75,-1.00,-1.0,2445
4415,2139415,17108,-348,1288,17159.95,29.85,-1.00,-1.0,2378
4418,2139418,17028,-388,1300,17081.96,29.80,-1.00,-1.0,2369
4421,2139421,17068,-272,1304,17119.90,29.75,-1.00,-1.0,2443
4423,2139423,16984,-272,1212,17029.36,29.80,-1.00,-1.0,2370
4428,2139428,17056,-336,1492,17124.43,29.71,-1.00,-1.0,2439
4431,2139431,17048,-456,1368,17108.88,29.71,-1.00,-1.0,2374
4434,2139434,17060,-324,1296,17112.22,29.66,-1.00,-1.0,2448
4437,2139437,17040,-492,1220,17090.70,29.66,-1.00,-1.0,2376
4440,2139440,16992,-480,1280,17046.90,29.75,-1.00,-1.0,2447
4442,2139442,17124,-288,1216,17169.54,29.75,-1.00,-1.0,2381
4445,2139445,17044,-236,1248,17091.26,29.75,-1.00,-1.0,2437
4448,2139448,16968,-196,1260,17015.85,29.66,-1.00,-1.0,2371
4453,2139453,16980,-276,1148,17021.00,29.66,-1.00,-1.0,2444
4456,2139456,17068,-352,1248,17117.19,29.75,-1.00,-1.0,2377
4458,2139458,17032,-272,1268,17081.30,29.80,-1.00,-1.0,2440
4461,2139461,16916,-356,1404,16977.90,29.80,-1.00,-1.0,2370
4464,2139464,17104,-364,1192,17149.35,29.71,-1.00,-1.0,2438
4467,2139467,16984,-272,1384,17042.47,29.71,-1.00,-1.0,2378
4469,2139469,16960,-224,1204,17004.16,29.75,-1.00,-1.0,2375
4472,2139472,16960,-188,1112,16997.46,29.75,-1.00,-1.0,2442
4475,2139475,16984,-228,1032,17016.85,29.75,-1.00,-1.0,2370
4480,2139480,17008,-164,1028,17039.83,29.75,-1.00,-1.0,2448
4483,2139483,17084,-180,1016,17115.13,29.75,-1.00,-1.0,2387
4485,2139485,17052,-348,1208,17098.28,29.80,-1.00,-1.0,2442
4488,2139488,17080,-368,1176,17124.39,29.66,-1.00,-1.0,2371
4491,2139491,17136,-324,1308,17188.90,29.71,-1.00,-1.0,2435
4494,2139494,17080,-432,1384,17141.43,29.80,-1.00,-1.0,2370
4496,2139496,17116,-384,1428,17179.76,29.75,-1.00,-1.0,2438
4499,2139499,16984,-300,1568,17058.87,29.75,-1.00,-1.0,2371
4504,2139504,16984,-284,1328,17038.21,29.61,-1.00,-1.0,2443
4507,2139507,16912,-272,1288,16963.16,29.71,-1.00,-1.0,2376
4510,2139510,16972,-240,1420,17032.99,29.66,-1.00,-1.0,2440
4513,2139513,16988,-348,1432,17051.80,29.80,-1.00,-1.0,2370
4515,2139515,16964,-448,1548,17040.37,29.66,-1.00,-1.0,2375
4518,2139518,16996,-484,1460,17065.46,29.85,-1.00,-1.0,2448
4521,2139521,17044,-468,1428,17110.12,29.80,-1.00,-1.0,2375
4524,2139524,17028,-488,1588,17108.85,29.80,-1.00,-1.0,2442
4526,2139526,17044,-540,1560,17123.76,29.80,-1.00,-1.0,2371
4531,2139531,17088,-404,1360,17146.79,29.80,-1.00,-1.0,2448
4534,2139534,17136,-376,1284,17188.15,29.66,-1.00,-1.0,2385
4537,2139537,16984,-320,1376,17042.65,29.80,-1.00,-1.0,2447
4540,2139540,16964,-384,1080,17002.68,29.71,-1.00,-1.0,2371
4542,2139542,17016,-280,1076,17052.29,29.75,-1.00,-1.0,2436
4545,2139545,17036,-336,1024,17070.05,29.75,-1.00,-1.0,2355
4548,2139548,17132,-396,1260,17182.84,29.85,-1.00,-1.0,2436
4551,2139551,17152,-440,1244,17202.68,29.75,-1.00,-1.0,2378
4556,2139556,17036,-324,1084,17073.53,29.66,-1.00,-1.0,2441
4558,2139558,17068,-248,1140,17107.83,29.66,-1.00,-1.0,2377
4561,2139561,17100,-184,1072,17134.56,29.71,-1.00,-1.0,2451
4564,2139564,16976,-188,1044,17009.11,29.71,-1.00,-1.0,2374
4566,2139566,16940,-308,1088,16977.70,29.66,-1.00,-1.0,2369
4569,2139569,16972,-208,1016,17003.66,29.66,-1.00,-1.0,2441
4572,2139572,16944,-224,1136,16983.52,29.85,-1.00,-1.0,2371
4575,2139575,17084,-308,1248,17132.29,29.80,-1.00,-1.0,2444
4577,2139577,17120,-320,1260,17169.29,29.75,-1.00,-1.0,2370
4582,2139582,16968,-264,1176,17010.75,29.75,-1.00,-1.0,2439
4585,2139585,17144,-192,1388,17201.17,29.75,-1.00,-1.0,2371
4588,2139588,17036,-252,1232,17082.35,29.66,-1.00,-1.0,2452
4590,2139590,16876,-48,1376,16932.07,29.75,-1.00,-1.0,2360
4593,2139593,17036,-96,1328,17087.95,29.80,-1.00,-1.0,2438
4596,2139596,17008,-196,1224,17053.11,29.75,-1.00,-1.0,2372
4599,2139599,17024,-112,1272,17071.82,29.71,-1.00,-1.0,2442
4602,2139602,17008,-240,1344,17062.71,29.71,-1.00,-1.0,2372
4606,2139606,17124,-340,1268,17174.25,29.80,-1.00,-1.0,2441
4609,2139609,17076,-440,1392,17138.29,29.75,-1.00,-1.0,2380
4612,2139612,17096,-412,1236,17145.57,29.80,-1.00,-1.0,2371
4615,2139615,17040,-408,1288,17093.48,29.75,-1.00,-1.0,2440
4617,2139617,17000,-376,1300,17053.78,29.75,-1.00,-1.0,2374
4620,2139620,16956,-396,1244,17006.18,29.75,-1.00,-1.0,2436
4623,2139623,17108,-296,1268,17157.48,29.75,-1.00,-1.0,2373
4626,2139626,17068,-388,1180,17113.14,29.80,-1.00,-1.0,2442
4628,2139628,17060,-340,1136,17101.16,29.75,-1.00,-1.0,2372
4633,2139633,17004,-360,1232,17052.37,29.75,-1.00,-1.0,2440
4636,2139636,17000,-364,1400,17061.43,29.75,-1.00,-1.0,2372
4639,2139639,16988,-380,1392,17049.17,29.75,-1.00,-1.0,2440
4642,2139642,17080,-312,1304,17132.55,29.75,-1.00,-1.0,2381
4645,2139645,17012,-392,1272,17063.99,29.71,-1.00,-1.0,2435
4647,2139647,16948,-436,1076,16987.72,29.80,-1.00,-1.0,2373
4650,2139650,17064,-360,1324,17119.07,29.75,-1.00,-1.0,2446
4653,2139653,16992,-384,1260,17042.98,29.71,-1.00,-1.0,2374
4655,2139655,16964,-304,1176,17007.43,29.75,-1.00,-1.0,2370
4660,2139660,17080,-340,1252,17129.20,29.66,-1.00,-1.0,2448
4663,2139663,17024,-208,1340,17077.92,29.75,-1.00,-1.0,2378
4666,2139666,17080,-292,1156,17121.56,29.75,-1.00,-1.0,2440
4669,2139669,17136,-196,1356,17190.69,29.75,-1.00,-1.0,2369
4671,2139671,17068,-152,1324,17119.95,29.80,-1.00,-1.0,2437
4674,2139674,17084,-200,1124,17122.10,29.71,-1.00,-1.0,2374
4677,2139677,16976,-220,1236,17022.36,29.71,-1.00,-1.0,2436
4680,2139680,17008,-316,1380,17066.82,29.80,-1.00,-1.0,2372
4685,2139685,17024,-272,1260,17072.73,29.71,-1.00,-1.0,2446
4687,2139687,16976,-340,1196,17021.47,29.80,-1.00,-1.0,2374
4690,2139690,17072,-252,1220,17117.39,29.71,-1.00,-1.0,2447
4693,2139693,17012,-284,1324,17065.81,29.80,-1.00,-1.0,2371
4696,2139696,16976,-336,1196,17021.39,29.75,-1.00,-1.0,2439
4699,2139699,17000,-316,1268,17050.15,29.75,-1.00,-1.0,2375
4701,2139701,17000,-256,1204,17044.51,29.75,-1.00,-1.0,2438
4704,2139704,17072,-280,1268,17121.31,29.75,-1.00,-1.0,2373
4707,2139707,16988,-296,1168,17030.68,29.71,-1.00,-1.0,2369
4712,2139712,17060,-348,1200,17105.69,29.80,-1.00,-1.0,2441
4714,2139714,16980,-280,1400,17039.92,29.75,-1.00,-1.0,2374
4717,2139717,17036,-328,1208,17081.92,29.80,-1.00,-1.0,2445
4720,2139720,16988,-304,1276,17038.57,29.71,-1.00,-1.0,2370
4723,2139723,17008,-364,1364,17066.49,29.66,-1.00,-1.0,2444
4725,2139725,17024,-372,1280,17076.11,29.71,-1.00,-1.0,2371
4728,2139728,17040,-304,1276,17090.41,29.75,-1.00,-1.0,2444
4731,2139731,17224,-412,1316,17279.11,29.75,-1.00,-1.0,2385
4736,2139736,17016,-312,1396,17076.02,29.75,-1.00,-1.0,2445
4739,2139739,17048,-404,1392,17109.51,29.75,-1.00,-1.0,2381
4742,2139742,17100,-420,1356,17158.82,29.75,-1.00,-1.0,2447
4744,2139744,17032,-432,1160,17076.92,29.75,-1.00,-1.0,2378
4747,2139747,17028,-348,1284,17079.89,29.71,-1.00,-1.0,2423
4750,2139750,17016,-288,1284,17066.81,29.75,-1.00,-1.0,2372
4752,2139752,17088,-384,1200,17134.39,29.80,-1.00,-1.0,2370
4755,2139755,17048,-296,1156,17089.71,29.66,-1.00,-1.0,2453
4758,2139758,16960,-300,1244,17008.21,29.75,-1.00,-1.0,2377
4763,2139763,17160,-204,1052,17193.43,29.85,-1.00,-1.0,2441
4766,2139766,16992,-188,1184,17034.24,29.57,-1.00,-1.0,2384
4768,2139768,17072,-220,1260,17119.85,29.71,-1.00,-1.0,2440
4771,2139771,16948,-232,1244,16995.18,29.71,-1.00,-1.0,2369
4774,2139774,17028,-228,1196,17071.47,29.80,-1.00,-1.0,2438
4777,2139777,17008,-272,1192,17051.89,29.71,-1.00,-1.0,2371
4780,2139780,17060,-220,1220,17104.98,29.85,-1.00,-1.0,2434
4782,2139782,17032,-276,1076,17068.19,29.75,-1.00,-1.0,2372
4787,2139787,17044,-204,1284,17093.51,29.80,-1.00,-1.0,2441
4790,2139790,17124,-284,1252,17172.06,29.71,-1.00,-1.0,2371
4792,2139792,16972,-296,1088,17009.41,29.71,-1.00,-1.0,2434
4795,2139795,17016,-264,1316,17068.86,29.71,-1.00,-1.0,2370
4798,2139798,16948,-276,1156,16989.62,29.75,-1.00,-1.0,2436
4801,2139801,17044,-348,1412,17105.93,29.85,-1.00,-1.0,2378
4803,2139803,17080,-312,1436,17143.10,29.75,-1.00,-1.0,2380
4806,2139806,17020,-312,1192,17064.54,29.80,-1.00,-1.0,2436
4809,2139809,16952,-312,1344,17008.06,29.75,-1.00,-1.0,2373
4814,2139814,17000,-304,1372,17057.98,29.66,-1.00,-1.0,2446
4817,2139817,17092,-372,1376,17151.33,29.71,-1.00,-1.0,2380
4819,2139819,17004,-416,1332,17061.16,29.71,-1.00,-1.0,2439
4822,2139822,17060,-384,1296,17113.46,29.71,-1.00,-1.0,2369
4825,2139825,17060,-364,1272,17111.23,29.75,-1.00,-1.0,2438
4828,2139828,17044,-380,1324,17099.57,29.71,-1.00,-1.0,2372
4831,2139831,17052,-360,1176,17096.29,29.66,-1.00,-1.0,2435
4833,2139833,17100,-400,1348,17157.71,29.75,-1.00,-1.0,2369
4838,2139838,17164,-364,1160,17207.00,29.75,-1.00,-1.0,2439
4841,2139841,17060,-212,1112,17097.52,29.66,-1.00,-1.0,2370
4844,2139844,17028,-296,1172,17070.85,29.75,-1.00,-1.0,2452
4846,2139846,16888,-300,1148,16929.63,29.75,-1.00,-1.0,2371
4849,2139849,17008,-304,1216,17054.12,29.71,-1.00,-1.0,2372
4852,2139852,16976,-220,1200,17019.78,29.71,-1.00,-1.0,2435
4855,2139855,17020,-340,1312,17073.88,29.71,-1.00,-1.0,2370
4857,2139857,16976,-292,1276,17026.39,29.75,-1.00,-1.0,2436
4860,2139860,16912,-204,1272,16960.99,29.75,-1.00,-1.0,2370
4865,2139865,17004,-212,1328,17057.10,29.75,-1.00,-1.0,2441
4868,2139868,17004,-144,1320,17055.77,29.71,-1.00,-1.0,2376
4871,2139871,17020,-172,1228,17065.11,29.75,-1.00,-1.0,2446
4873,2139873,17000,-148,1132,17038.29,29.85,-1.00,-1.0,2357
4876,2139876,16964,-216,1288,17014.20,29.71,-1.00,-1.0,2438
4879,2139879,16956,-268,1192,16999.96,29.75,-1.00,-1.0,2371
4882,2139882,17032,-224,1248,17079.13,29.71,-1.00,-1.0,2444
4885,2139885,17096,-440,1208,17144.27,29.71,-1.00,-1.0,2374
4890,2139890,17100,-304,1328,17154.18,29.80,-1.00,-1.0,2439
4892,2139892,17008,-360,1316,17062.63,29.80,-1.00,-1.0,2375
4895,2139895,16984,-276,1220,17030.00,29.80,-1.00,-1.0,2448
4898,2139898,16976,-312,1352,17032.61,29.80,-1.00,-1.0,2374
4900,2139900,17024,-396,1192,17070.27,29.75,-1.00,-1.0,2369
4903,2139903,17028,-328,1224,17075.09,29.75,-1.00,-1.0,2439
4906,2139906,17000,-360,1312,17054.35,29.66,-1.00,-1.0,2371
4909,2139909,16928,-392,1248,16978.47,29.66,-1.00,-1.0,2443
4911,2139911,17148,-340,1180,17191.91,29.66,-1.00,-1.0,2370
4917,2139917,17128,-280,1336,17182.31,29.75,-1.00,-1.0,2440
4919,2139919,17120,-348,1344,17176.20,29.75,-1.00,-1.0,2377
4922,2139922,17072,-284,1364,17128.76,29.71,-1.00,-1.0,2439
4925,2139925,16988,-268,1248,17035.89,29.85,-1.00,-1.0,2372
4928,2139928,17180,-380,1292,17232.70,29.80,-1.00,-1.0,2445
4931,2139931,16976,-280,1384,17034.62,29.71,-1.00,-1.0,2372
4933,2139933,16924,-324,1332,16979.43,29.85,-1.00,-1.0,2471
4936,2139936,17068,-232,1256,17115.72,29.66,-1.00,-1.0,2371
4941,2139941,17036,-368,1268,17087.09,29.75,-1.00,-1.0,2440
4944,2139944,17124,-264,1316,17176.52,29.66,-1.00,-1.0,2376
4946,2139946,17080,-328,1192,17124.69,29.80,-1.00,-1.0,2370
4949,2139949,16868,-280,1312,16921.26,29.85,-1.00,-1.0,2450
4952,2139952,17068,-256,1184,17110.93,29.71,-1.00,-1.0,2378
4955,2139955,17040,-288,1168,17082.41,29.75,-1.00,-1.0,2436
4958,2139958,17012,-308,1252,17060.79,29.85,-1.00,-1.0,2370
4960,2139960,16988,-272,1124,17027.32,29.66,-1.00,-1.0,2437
4963,2139963,16940,-272,1088,16977.08,29.75,-1.00,-1.0,2372
4970,2139970,16940,-260,1252,16988.19,29.80,-1.00,-1.0,2457
4973,2139973,17044,-268,1140,17084.18,29.80,-1.00,-1.0,2381
4976,2139976,17104,-268,1264,17152.74,29.75,-1.00,-1.0,2447
4978,2139978,16996,-256,1348,17051.29,29.75,-1.00,-1.0,2381
4981,2139981,17000,-288,1136,17040.35,29.75,-1.00,-1.0,2438
4984,2139984,17076,-204,1168,17117.12,29.85,-1.00,-1.0,2373
4987,2139987,17000,-252,1196,17043.88,29.75,-1.00,-1.0,2438
4989,2139989,17052,-224,1144,17091.80,29.75,-1.00,-1.0,2370
4994,2139994,16972,-256,1208,17016.86,29.66,-1.00,-1.0,2448
4997,2139997,17056,-348,1328,17111.16,29.66,-1.00,-1.0,2377
4999,2139999,17064,-420,1308,17119.21,29.80,-1.00,-1.0,2356
5002,2140002,16952,-340,1220,16999.24,29.80,-1.00,-1.0,2441
5005,2140005,17044,-332,1320,17098.26,29.71,-1.00,-1.0,2371
5008,2140008,17020,-380,1184,17065.36,29.75,-1.00,-1.0,2443
5011,2140011,16992,-400,1184,17037.90,29.75,-1.00,-1.0,2378
5013,2140013,16992,-420,1196,17039.22,29.75,-1.00,-1.0,2442
5016,2140016,17016,-360,1264,17066.68,29.75,-1.00,-1.0,2374
5021,2140021,16984,-372,1188,17029.56,29.75,-1.00,-1.0,2459
5024,2140024,17000,-304,1164,17042.52,29.75,-1.00,-1.0,2375
5027,2140027,17024,-452,1244,17075.38,29.66,-1.00,-1.0,2450
5030,2140030,17040,-380,1268,17091.34,29.80,-1.00,-1.0,2434
5032,2140032,16988,-296,1144,17029.05,29.80,-1.00,-1.0,2423
5035,2140035,16992,-396,1244,17042.08,29.75,-1.00,-1.0,2387
5038,2140038,17000,-296,1124,17039.69,29.80,-1.00,-1.0,2419
5041,2140041,17000,-252,1188,17043.32,29.75,-1.00,-1.0,2385
5043,2140043,17060,-344,1408,17121.46,29.71,-1.00,-1.0,2370
5048,2140048,17024,-308,1268,17073.94,29.80,-1.00,-1.0,2442
5051,2140051,16976,-324,1176,17019.77,29.80,-1.00,-1.0,2374
5054,2140054,17044,-396,1228,17092.77,29.75,-1.00,-1.0,2445
5057,2140057,16896,-256,1244,16943.67,29.66,-1.00,-1.0,2370
5059,2140059,17104,-252,1264,17152.49,29.75,-1.00,-1.0,2447
5062,2140062,17056,-384,1132,17097.84,29.75,-1.00,-1.0,2386
5065,2140065,17124,-268,1136,17163.73,29.80,-1.00,-1.0,2436
5068,2140068,17152,-272,1312,17204.26,29.75,-1.00,-1.0,2371
5073,2140073,17132,-276,1164,17173.71,29.75,-1.00,-1.0,2447
5075,2140075,17036,-256,1284,17086.24,29.85,-1.00,-1.0,2381
5078,2140078,17048,-356,1380,17107.47,29.80,-1.00,-1.0,2441
5081,2140081,17088,-220,1344,17142.18,29.80,-1.00,-1.0,2375
5084,2140084,17024,-336,1344,17080.28,29.80,-1.00,-1.0,2444
5086,2140086,17000,-400,1404,17062.57,29.71,-1.00,-1.0,2373
5089,2140089,17032,-304,1252,17080.66,29.75,-1.00,-1.0,2435
5092,2140092,17100,-276,1408,17160.09,29.71,-1.00,-1.0,2371
5095,2140095,17104,-324,1212,17149.95,29.75,-1.00,-1.0,2370
5100,2140100,17088,-380,1260,17138.60,29.75,-1.00,-1.0,2442
5102,2140102,16976,-316,1200,17021.29,29.75,-1.00,-1.0,2374
5105,2140105,17012,-308,1192,17056.49,29.71,-1.00,-1.0,2451
5108,2140108,16992,-352,1200,17037.96,29.75,-1.00,-1.0,2378
5111,2140111,17020,-352,1252,17069.62,29.71,-1.00,-1.0,2441
5113,2140113,17052,-332,1168,17095.18,29.80,-1.00,-1.0,2378
5116,2140116,17008,-372,1208,17054.90,29.80,-1.00,-1.0,2423
5119,2140119,16956,-232,1472,17021.36,29.80,-1.00,-1.0,2372
5124,2140124,17004,-408,1340,17061.60,29.71,-1.00,-1.0,2431
5127,2140127,16912,-392,1216,16960.19,29.75,-1.00,-1.0,2385
5129,2140129,17048,-376,1288,17100.72,29.80,-1.00,-1.0,2437
5132,2140132,17096,-332,1388,17155.46,29.71,-1.00,-1.0,2369
5135,2140135,17052,-336,1400,17112.67,29.75,-1.00,-1.0,2438
5138,2140138,17060,-432,1332,17117.37,29.71,-1.00,-1.0,2372
5140,2140140,17004,-336,1248,17053.05,29.85,-1.00,-1.0,2373
5143,2140143,17036,-408,1224,17084.79,29.80,-1.00,-1.0,2449
5146,2140146,16988,-316,1308,17041.21,29.71,-1.00,-1.0,2372
5151,2140151,17064,-372,1244,17113.33,29.75,-1.00,-1.0,2448
5154,2140154,17024,-204,1304,17075.09,29.75,-1.00,-1.0,2374
5156,2140156,17104,-276,1144,17144.44,29.80,-1.00,-1.0,2446
5159,2140159,17060,-352,1100,17099.05,29.80,-1.00,-1.0,2378
5162,2140162,17068,-288,1128,17107.66,29.80,-1.00,-1.0,2437
5165,2140165,17052,-252,1280,17101.83,29.71,-1.00,-1.0,2370
5167,2140167,17016,-368,1264,17066.85,29.75,-1.00,-1.0,2436
5170,2140170,17076,-336,1284,17127.50,29.75,-1.00,-1.0,2370
5175,2140175,16944,-220,1148,16984.27,29.75,-1.00,-1.0,2444
5178,2140178,17000,-432,1144,17043.92,29.66,-1.00,-1.0,2382
5181,2140181,16972,-332,1036,17006.83,29.75,-1.00,-1.0,2441
5183,2140183,17064,-260,1140,17104.01,29.80,-1.00,-1.0,2377
5186,2140186,16984,-304,1132,17024.40,29.71,-1.00,-1.0,2446
5189,2140189,16944,-328,1088,16982.06,29.80,-1.00,-1.0,2372
5191,2140191,16992,-296,1104,17030.40,29.75,-1.00,-1.0,2369
5194,2140194,16956,-184,1220,17000.83,29.75,-1.00,-1.0,2437
5197,2140197,17052,-328,1196,17097.04,29.75,-1.00,-1.0,2370
5202,2140202,16984,-248,1244,17031.30,29.71,-1.00,-1.0,2445
5204,2140204,17024,-316,1416,17085.71,29.71,-1.00,-1.0,2382
5207,2140207,17044,-148,1248,17090.27,29.75,-1.00,-1.0,2437
5210,2140210,16976,-348,1320,17030.80,29.85,-1.00,-1.0,2372
5213,2140213,17024,-328,1348,17080.44,29.75,-1.00,-1.0,2443
5215,2140215,17000,-372,1224,17048.07,29.75,-1.00,-1.0,2372
5218,2140218,16896,-292,1336,16951.25,29.61,-1.00,-1.0,2439
5221,2140221,17016,-304,1400,17076.20,29.80,-1.00,-1.0,2372
5226,2140226,17028,-328,1424,17090.59,29.66,-1.00,-1.0,2443
5229,2140229,17080,-212,1248,17126.85,29.66,-1.00,-1.0,2382
5232,2140232,17124,-284,1320,17177.15,29.71,-1.00,-1.0,2441
5234,2140234,16988,-244,1264,17036.71,29.71,-1.00,-1.0,2378
5237,2140237,17012,-252,1300,17063.46,29.75,-1.00,-1.0,2373
5240,2140240,16964,-360,1396,17025.15,29.66,-1.00,-1.0,2437
5242,2140242,17052,-384,1264,17103.10,29.75,-1.00,-1.0,2371
5245,2140245,16960,-212,1308,17011.68,29.71,-1.00,-1.0,2436
5248,2140248,17044,-372,1460,17110.46,29.66,-1.00,-1.0,2369
5253,2140253,17028,-384,1332,17084.33,29.66,-1.00,-1.0,2429
5256,2140256,17020,-376,1264,17071.01,29.66,-1.00,-1.0,2376
5258,2140258,16956,-308,1340,17011.65,29.75,-1.00,-1.0,2438
5261,2140261,17016,-372,1284,17068.43,29.80,-1.00,-1.0,2371
5264,2140264,17040,-340,1316,17094.12,29.80,-1.00,-1.0,2435
5267,2140267,16944,-356,1136,16985.77,29.71,-1.00,-1.0,2377
5270,2140270,17056,-364,1284,17108.13,29.66,-1.00,-1.0,2446
5272,2140272,16964,-276,1192,17008.07,29.71,-1.00,-1.0,2384
5277,2140277,17044,-400,1208,17091.44,29.71,-1.00,-1.0,2445
5280,2140280,17060,-408,1308,17114.93,29.71,-1.00,-1.0,2383
5283,2140283,17116,-360,1184,17160.68,29.75,-1.00,-1.0,2444
5286,2140286,17112,-280,1252,17160.03,29.85,-1.00,-1.0,2370
5288,2140288,16952,-284,1288,17003.23,29.66,-1.00,-1.0,2368
5291,2140291,17032,-208,1288,17081.90,29.80,-1.00,-1.0,2439
5294,2140294,17044,-216,1228,17089.54,29.80,-1.00,-1.0,2379
5297,2140297,17056,-284,1168,17098.30,29.80,-1.00,-1.0,2436
5299,2140299,16972,-308,1276,17022.69,29.71,-1.00,-1.0,2373
5304,2140304,16940,-292,1264,16989.60,29.80,-1.00,-1.0,2445
5307,2140307,17028,-236,1204,17072.14,29.71,-1.00,-1.0,2370
5310,2140310,17080,-252,1284,17130.05,29.66,-1.00,-1.0,2451
5313,2140313,16952,-268,1116,16990.81,29.66,-1.00,-1.0,2383
5315,2140315,17072,-320,1252,17120.84,29.75,-1.00,-1.0,2439
5318,2140318,17004,-320,1156,17046.25,29.66,-1.00,-1.0,2376
5321,2140321,17080,-280,1324,17133.53,29.71,-1.00,-1.0,2433
5324,2140324,17036,-336,1164,17079.03,29.75,-1.00,-1.0,2367
5329,2140329,16984,-324,1264,17034.05,29.66,-1.00,-1.0,2446
5331,2140331,16988,-304,1256,17037.08,29.75,-1.00,-1.0,2385
5334,2140334,17072,-276,1316,17124.87,29.80,-1.00,-1.0,2370
5337,2140337,17004,-288,1180,17047.33,29.75,-1.00,-1.0,2445
5339,2140339,17004,-288,1408,17064.62,29.71,-1.00,-1.0,2372
5342,2140342,16980,-376,1292,17033.23,29.75,-1.00,-1.0,2473
5345,2140345,17016,-376,1268,17067.32,29.80,-1.00,-1.0,2358
5348,2140348,17088,-304,1304,17140.38,29.75,-1.00,-1.0,2436
5351,2140351,16944,-324,1268,16994.47,29.61,-1.00,-1.0,2379
5356,2140356,17084,-368,1264,17134.65,29.71,-1.00,-1.0,2443
5359,2140359,17028,-376,1296,17081.39,29.80,-1.00,-1.0,2375
5361,2140361,17064,-284,1208,17109.06,29.80,-1.00,-1.0,2437
5364,2140364,17064,-356,1324,17118.99,29.71,-1.00,-1.0,2369
5367,2140367,17028,-252,1220,17073.51,29.66,-1.00,-1.0,2438
5370,2140370,17160,-316,1260,17209.10,29.61,-1.00,-1.0,2379
5373,2140373,17036,-272,1220,17081.79,29.75,-1.00,-1.0,2442
5375,2140375,17080,-288,1252,17128.25,29.75,-1.00,-1.0,2378
5380,2140380,16872,-204,1168,16913.61,29.71,-1.00,-1.0,2451
5383,2140383,16944,-288,1268,16993.82,29.66,-1.00,-1.0,2362
5385,2140385,17060,-260,1128,17099.23,29.71,-1.00,-1.0,2368
5388,2140388,16988,-272,1176,17030.83,29.75,-1.00,-1.0,2442
5391,2140391,16980,-256,1156,17021.23,29.80,-1.00,-1.0,2371
5394,2140394,17124,-328,1328,17178.55,29.75,-1.00,-1.0,2443
5397,2140397,17008,-200,1084,17043.68,29.75,-1.00,-1.0,2370
5399,2140399,17008,-260,1152,17048.95,29.75,-1.00,-1.0,2445
5402,2140402,16996,-328,1144,17037.62,29.66,-1.00,-1.0,2387
5407,2140407,17120,-280,1180,17162.90,29.85,-1.00,-1.0,2451
5409,2140409,16996,-208,1308,17047.53,29.75,-1.00,-1.0,2377
5412,2140412,17044,-160,1228,17088.93,29.75,-1.00,-1.0,2449
5415,2140415,17056,-272,1156,17097.29,29.75,-1.00,-1.0,2378
5418,2140418,17024,-176,1356,17078.83,29.71,-1.00,-1.0,2436
5421,2140421,17116,-316,1256,17164.93,29.71,-1.00,-1.0,2382
5423,2140423,17020,-280,1240,17067.41,29.71,-1.00,-1.0,2434
5426,2140426,17016,-308,1188,17060.20,29.71,-1.00,-1.0,2372
5429,2140429,16996,-256,1212,17041.08,29.75,-1.00,-1.0,2376
5434,2140434,17004,-220,1408,17063.61,29.80,-1.00,-1.0,2442
5436,2140436,17072,-348,1252,17121.38,29.71,-1.00,-1.0,2371
5439,2140439,17080,-324,1292,17131.86,29.66,-1.00,-1.0,2443
5442,2140442,16924,-320,1248,16972.97,29.75,-1.00,-1.0,2372
5445,2140445,16880,-452,1300,16936.02,29.75,-1.00,-1.0,2443
5448,2140448,16984,-328,1284,17035.62,29.75,-1.00,-1.0,2372
5450,2140450,17008,-276,1368,17065.16,29.75,-1.00,-1.0,2468
5453,2140453,17068,-272,1244,17115.44,29.75,-1.00,-1.0,2370
5458,2140458,17064,-316,1160,17106.30,29.66,-1.00,-1.0,2449
5461,2140461,17072,-340,1240,17120.35,29.66,-1.00,-1.0,2373
5464,2140464,17056,-348,1372,17114.63,29.85,-1.00,-1.0,2439
5466,2140466,17028,-360,1156,17070.99,29.66,-1.00,-1.0,2371
5469,2140469,16968,-392,1228,17016.89,29.66,-1.00,-1.0,2453
5472,2140472,17024,-288,1320,17077.53,29.75,-1.00,-1.0,2379
5475,2140475,17012,-288,1288,17063.12,29.71,-1.00,-1.0,2422
5478,2140478,16996,-344,1320,17050.65,29.71,-1.00,-1.0,2374
5480,2140480,17056,-296,1232,17103.00,29.80,-1.00,-1.0,2368
5485,2140485,17140,-296,1352,17195.79,29.71,-1.00,-1.0,2443
5488,2140488,16988,-436,1280,17041.73,29.71,-1.00,-1.0,2373
5491,2140491,17092,-388,1268,17143.36,29.66,-1.00,-1.0,2438
5493,2140493,17016,-356,1296,17069.00,29.71,-1.00,-1.0,2373
5496,2140496,17076,-260,1232,17122.36,29.75,-1.00,-1.0,2435
5499,2140499,16992,-228,1292,17042.57,29.75,-1.00,-1.0,2370
5502,2140502,16876,-280,1372,16933.99,29.75,-1.00,-1.0,2442
5504,2140504,17008,-284,1364,17064.97,29.75,-1.00,-1.0,2372
5509,2140509,17044,-372,1260,17094.56,29.75,-1.00,-1.0,2448
5512,2140512,17060,-292,1240,17107.50,29.75,-1.00,-1.0,2371
5515,2140515,17052,-236,1272,17101.01,29.75,-1.00,-1.0,2437
5518,2140518,17080,-272,1136,17119.90,29.75,-1.00,-1.0,2375
5521,2140521,17072,-248,1112,17109.97,29.71,-1.00,-1.0,2438
5523,2140523,17084,-392,1232,17132.85,29.85,-1.00,-1.0,2372
5526,2140526,17080,-284,1180,17123.07,29.71,-1.00,-1.0,2370
5529,2140529,16928,-228,1076,16963.70,29.66,-1.00,-1.0,2434
5531,2140531,17076,-352,1128,17116.84,29.75,-1.00,-1.0,2372
5536,2140536,16956,-300,1248,17004.51,29.71,-1.00,-1.0,2455
5539,2140539,17052,-236,1340,17106.20,29.71,-1.00,-1.0,2372
5542,2140542,17084,-304,1148,17125.23,29.75,-1.00,-1.0,2426
5545,2140545,17120,-448,1224,17169.54,29.75,-1.00,-1.0,2371
5547,2140547,16856,14664,-26772,34869.72,29.75,-1.00,-1.0,2437
5550,2140550,32767,12068,6884,35590.76,29.75,-1.00,-1.0,2369
5553,2140553,7868,-15788,4212,18135.80,29.61,-1.00,-1.0,2436
5556,2140556,22920,14844,788,27318.34,29.75,-1.00,-1.0,2377
5561,2140561,20708,9816,4692,23392.09,29.85,-1.00,-1.0,2450
5563,2140563,25748,6732,6944,27504.52,29.75,-1.00,-1.0,2371
5566,2140566,17704,-11168,-2672,21102.02,29.61,-1.00,-1.0,2439
5569,2140569,11064,72,5208,12228.68,29.80,-1.00,-1.0,2369
5572,2140572,20112,-7180,68,21355.32,29.71,-1.00,-1.0,2443
5575,2140575,15836,1656,-976,15952.24,29.71,-1.00,-1.0,2373
5577,2140577,14956,-2100,5204,15974.15,29.66,-1.00,-1.0,2370
5580,2140580,16764,-11284,-1784,20286.52,29.75,-1.00,-1.0,2421
5583,2140583,18244,13276,-1144,22592.13,29.66,-1.00,-1.0,2370
5587,2140587,13132,7724,-1116,15275.96,29.71,-1.00,-1.0,2449
5590,2140590,17452,568,3928,17897.60,29.66,-1.00,-1.0,2370
5593,2140593,19060,-724,1728,19151.86,29.71,-1.00,-1.0,2438
5596,2140596,15976,6868,2684,17595.62,29.71,-1.00,-1.0,2378
5599,2140599,19036,-7000,2656,20455.41,29.75,-1.00,-1.0,2448
5601,2140601,16672,880,348,16698.83,29.75,-1.00,-1.0,2380
5604,2140604,16800,-3268,1212,17157.76,29.75,-1.00,-1.0,2444
5607,2140607,17156,-168,724,17172.09,29.66,-1.00,-1.0,2372
5612,2140612,18788,-1644,1804,18945.87,29.71,-1.00,-1.0,2448
5614,2140614,16444,2496,224,16633.86,29.71,-1.00,-1.0,2374
5617,2140617,17308,-2304,-1480,17523.29,29.75,-1.00,-1.0,2448
5620,2140620,16524,1956,788,16658.02,29.85,-1.00,-1.0,2359
5623,2140623,16000,-1716,0,16091.76,29.75,-1.00,-1.0,2446
5625,2140625,16372,1936,788,16504.89,29.66,-1.00,-1.0,2379
5628,2140628,17004,-2260,588,17163.61,29.80,-1.00,-1.0,2369
5631,2140631,17568,-1748,2092,17778.26,29.71,-1.00,-1.0,2436
5633,2140633,16492,2072,1268,16669.95,29.71,-1.00,-1.0,2369
5638,2140638,17164,3148,1416,17507.65,29.61,-1.00,-1.0,2449
5641,2140641,17680,-3280,888,18003.59,29.71,-1.00,-1.0,2370
5644,2140644,16948,2104,1464,17140.74,29.85,-1.00,-1.0,2439
5647,2140647,16848,-784,1592,16941.20,29.71,-1.00,-1.0,2373
5650,2140650,16200,-364,432,16209.85,29.66,-1.00,-1.0,2443
5652,2140652,16872,408,1536,16946.69,29.66,-1.00,-1.0,2376
5655,2140655,16760,-944,1900,16893.75,29.75,-1.00,-1.0,2444
5658,2140658,18404,416,660,18420.53,29.66,-1.00,-1.0,2373
5663,2140663,15524,-408,864,15553.38,29.75,-1.00,-1.0,2458
5666,2140666,16768,232,1956,16883.29,29.75,-1.00,-1.0,2381
5668,2140668,16380,-692,236,16396.31,29.71,-1.00,-1.0,2438
5671,2140671,16724,92,884,16747.60,29.75,-1.00,-1.0,2369
5674,2140674,17584,-140,1220,17626.83,29.80,-1.00,-1.0,2376
5677,2140677,16916,-1304,1832,17064.81,29.66,-1.00,-1.0,2438
5679,2140679,17084,-716,1592,17172.95,29.75,-1.00,-1.0,2372
5682,2140682,17264,-416,1760,17358.47,29.75,-1.00,-1.0,2450
5685,2140685,17128,112,1872,17230.36,29.57,-1.00,-1.0,2371
5690,2140690,16816,-272,1112,16854.92,29.66,-1.00,-1.0,2454
5693,2140693,17004,-372,1296,17057.38,29.75,-1.00,-1.0,2370
5695,2140695,16812,172,1308,16863.68,29.80,-1.00,-1.0,2474
5698,2140698,16764,-36,324,16767.17,29.80,-1.00,-1.0,2371
5701,2140701,16840,-300,1820,16940.72,29.75,-1.00,-1.0,2453
5704,2140704,17344,-724,1308,17408.31,29.66,-1.00,-1.0,2377
5707,2140707,17136,-132,1016,17166.60,29.71,-1.00,-1.0,2444
5709,2140709,16896,-728,980,16940.05,29.71,-1.00,-1.0,2378
5714,2140714,17240,-300,1680,17324.26,29.71,-1.00,-1.0,2457
5717,2140717,16912,-584,1652,17002.53,29.75,-1.00,-1.0,2374
5720,2140720,17244,-44,1848,17342.80,29.71,-1.00,-1.0,2370
5722,2140722,17100,-1032,1292,17179.76,29.75,-1.00,-1.0,2440
5725,2140725,16900,100,1212,16943.70,29.75,-1.00,-1.0,2369
5728,2140728,16820,-468,940,16852.75,29.75,-1.00,-1.0,2452
5731,2140731,16940,72,916,16964.90,29.66,-1.00,-1.0,2378
5734,2140734,17020,-344,912,17047.89,29.71,-1.00,-1.0,2446
5736,2140736,17060,-164,1040,17092.46,29.71,-1.00,-1.0,2378
5741,2140741,17184,-200,676,17198.46,29.80,-1.00,-1.0,2454
5744,2140744,16852,128,740,16868.72,29.75,-1.00,-1.0,2385
5747,2140747,17052,-420,736,17073.04,29.80,-1.00,-1.0,2441
5750,2140750,17156,-368,1224,17203.54,29.80,-1.00,-1.0,2370
5752,2140752,16992,-44,876,17014.62,29.75,-1.00,-1.0,2436
5755,2140755,17072,-568,1252,17127.27,29.71,-1.00,-1.0,2371
5758,2140758,17152,-352,1284,17203.59,29.66,-1.00,-1.0,2381
5761,2140761,16820,-572,1220,16873.88,29.71,-1.00,-1.0,2444
5763,2140763,16932,-308,1260,16981.61,29.71,-1.00,-1.0,2379
5768,2140768,17144,-484,1448,17211.85,29.75,-1.00,-1.0,2448
5771,2140771,17072,-52,1392,17128.73,29.75,-1.00,-1.0,2375
5774,2140774,17060,-488,1800,17161.64,29.75,-1.00,-1.0,2455
5777,2140777,17016,-24,1492,17081.30,29.71,-1.00,-1.0,2377
5780,2140780,17044,-60,1364,17098.60,29.71,-1.00,-1.0,2446
5782,2140782,16872,-112,1436,16933.37,29.71,-1.00,-1.0,2379
5785,2140785,17012,-264,1516,17081.46,29.75,-1.00,-1.0,2434
5788,2140788,17004,-280,1292,17055.31,29.71,-1.00,-1.0,2369
5795,2140795,16904,-424,1612,16985.98,29.75,-1.00,-1.0,2445
5797,2140797,17028,-512,1308,17085.84,29.75,-1.00,-1.0,2371
5800,2140800,16988,-376,1092,17027.21,29.66,-1.00,-1.0,2443
5803,2140803,17060,-896,1044,17115.38,29.66,-1.00,-1.0,2371
5806,2140806,17096,-408,1340,17153.29,29.71,-1.00,-1.0,2372
5808,2140808,17172,-584,1372,17236.62,29.75,-1.00,-1.0,2439
5811,2140811,17084,-292,1072,17120.09,29.80,-1.00,-1.0,2374
5814,2140814,17036,-572,1048,17077.79,29.75,-1.00,-1.0,2422
5817,2140817,17028,-416,1132,17070.65,29.66,-1.00,-1.0,2370
5821,2140821,17088,-216,1204,17131.72,29.80,-1.00,-1.0,2451
5824,2140824,16952,-128,1176,16993.22,29.71,-1.00,-1.0,2372
5827,2140827,17088,0,956,17114.72,29.75,-1.00,-1.0,2441
5830,2140830,17036,-264,1132,17075.61,29.66,-1.00,-1.0,2371
5832,2140832,17056,-300,1312,17109.02,29.75,-1.00,-1.0,2437
5835,2140835,17096,-280,1416,17156.83,29.75,-1.00,-1.0,2370
5838,2140838,16992,-348,1412,17054.12,29.66,-1.00,-1.0,2438
5841,2140841,17048,-532,1220,17099.88,29.75,-1.00,-1.0,2377
5846,2140846,17068,-556,1376,17132.40,29.61,-1.00,-1.0,2481
5849,2140849,17096,-172,1516,17163.95,29.71,-1.00,-1.0,2380
5851,2140851,16848,-408,1228,16897.62,29.66,-1.00,-1.0,2369
5854,2140854,16836,-392,1504,16907.59,29.75,-1.00,-1.0,2435
5857,2140857,16912,-140,1356,16966.85,29.85,-1.00,-1.0,2377
5860,2140860,16996,-348,1528,17068.10,29.71,-1.00,-1.0,2438
5862,2140862,16896,-36,1372,16951.65,29.71,-1.00,-1.0,2373
5865,2140865,17064,-168,1380,17120.54,29.80,-1.00,-1.0,2450
5868,2140868,17112,-136,1268,17159.45,29.71,-1.00,-1.0,2377
5873,2140873,17020,-308,992,17051.67,29.71,-1.00,-1.0,2458
5876,2140876,17092,-280,1140,17132.26,29.71,-1.00,-1.0,2370
5878,2140878,17060,-440,1108,17101.60,29.75,-1.00,-1.0,2446
5881,2140881,17092,-392,1068,17129.82,29.75,-1.00,-1.0,2373
5884,2140884,17000,-340,1092,17038.43,29.75,-1.00,-1.0,2435
5887,2140887,17032,-292,1032,17065.73,29.75,-1.00,-1.0,2370
5889,2140889,16980,-376,1216,17027.64,29.71,-1.00,-1.0,2437
5892,2140892,17000,-308,1192,17044.52,29.66,-1.00,-1.0,2371
5895,2140895,16888,-180,1116,16925.79,29.71,-1.00,-1.0,2372
5900,2140900,17028,-340,1492,17096.62,29.71,-1.00,-1.0,2458
5902,2140902,16992,-336,1468,17058.60,29.71,-1.00,-1.0,2371
5905,2140905,17084,-368,1356,17141.68,29.71,-1.00,-1.0,2440
5908,2140908,16984,-316,924,17012.05,29.80,-1.00,-1.0,2369
5911,2140911,17000,-400,1128,17042.08,29.75,-1.00,-1.0,2446
5914,2140914,17084,-348,1104,17123.17,29.71,-1.00,-1.0,2377
5916,2140916,17132,-408,1112,17172.90,29.75,-1.00,-1.0,2444
5919,2140919,17028,-328,1208,17073.95,29.75,-1.00,-1.0,2373
5924,2140924,17068,-356,1212,17114.68,29.85,-1.00,-1.0,2467
5927,2140927,16964,-340,1356,17021.51,29.75,-1.00,-1.0,2359
5930,2140930,17052,-244,1368,17108.53,29.75,-1.00,-1.0,2445
5932,2140932,16972,-184,1380,17029.01,29.66,-1.00,-1.0,2373
5935,2140935,16996,-48,1188,17037.54,29.71,-1.00,-1.0,2438
5938,2140938,17048,-164,1224,17092.67,29.66,-1.00,-1.0,2371
5940,2140940,16904,-204,1080,16939.69,29.80,-1.00,-1.0,2369
5943,2140943,17048,-296,940,17076.46,29.75,-1.00,-1.0,2448
5946,2140946,17036,-164,1128,17074.09,29.66,-1.00,-1.0,2377
5951,2140951,17116,-388,1264,17166.99,29.71,-1.00,-1.0,2450
5954,2140954,17092,-464,1448,17159.50,29.71,-1.00,-1.0,2373
5957,2140957,16956,-484,1372,17018.30,29.75,-1.00,-1.0,2447
5959,2140959,17080,-384,1276,17131.90,29.57,-1.00,-1.0,2384
5962,2140962,17024,-280,1464,17089.13,29.71,-1.00,-1.0,2443
5965,2140965,17120,-232,1384,17177.42,29.75,-1.00,-1.0,2357
5968,2140968,17080,-324,1528,17151.27,29.80,-1.00,-1.0,2439
5970,2140970,17028,-460,1492,17099.43,29.71,-1.00,-1.0,2373
5975,2140975,17096,-484,1572,17174.94,29.66,-1.00,-1.0,2459
5978,2140978,17044,-516,1548,17121.93,29.66,-1.00,-1.0,2374
5981,2140981,17020,-564,1492,17094.58,29.71,-1.00,-1.0,2435
5984,2140984,17020,-384,1340,17076.99,29.80,-1.00,-1.0,2369
5986,2140986,17048,-412,1416,17111.67,29.71,-1.00,-1.0,2425
5989,2140989,17040,-348,1272,17090.95,29.71,-1.00,-1.0,2372
5992,2140992,17112,-260,1408,17171.80,29.75,-1.00,-1.0,2378
5995,2140995,17112,-384,1428,17175.77,29.75,-1.00,-1.0,2444
5997,2140997,16968,-384,1308,17022.67,29.75,-1.00,-1.0,2379
6002,2141002,16968,-400,1316,17023.66,29.61,-1.00,-1.0,2450
6005,2141005,16904,-404,1108,16945.09,29.71,-1.00,-1.0,2369
6008,2141008,17036,-484,1076,17076.81,29.75,-1.00,-1.0,2443
6010,2141010,17088,-308,1072,17124.36,29.80,-1.00,-1.0,2372
6013,2141013,17040,-400,1188,17086.04,29.75,-1.00,-1.0,2436
6016,2141016,17024,-512,988,17060.33,29.66,-1.00,-1.0,2370
6019,2141019,17008,-316,1188,17052.37,29.75,-1.00,-1.0,2442
6022,2141022,17028,-236,1008,17059.44,29.75,-1.00,-1.0,2372
6026,2141026,17116,-40,1056,17148.59,29.71,-1.00,-1.0,2452
6029,2141029,17032,-56,976,17060.03,29.71,-1.00,-1.0,2374
6032,2141032,16988,-36,1060,17021.08,29.75,-1.00,-1.0,2444
6034,2141034,16972,44,752,16988.71,29.75,-1.00,-1.0,2373
6037,2141037,16920,-140,1024,16951.54,29.61,-1.00,-1.0,2376
6040,2141040,16840,-124,968,16868.25,29.71,-1.00,-1.0,2436
6043,2141043,16868,-20,1064,16901.54,29.80,-1.00,-1.0,2371
6045,2141045,16996,-132,1124,17033.64,29.71,-1.00,-1.0,2434
6048,2141048,17040,-296,1144,17080.92,29.71,-1.00,-1.0,2372
