timestamp_ms,global_ms,accel_x,accel_y,accel_z,accel_mag,temp_c,voltage,soc,loop_us
3,2135003,7684,-2316,-636,8050.60,24.01,-1.00,-1.0,2482
10,2135010,24340,2464,64,24464.48,24.06,-1.00,-1.0,2470
12,2135012,16388,-224,1036,16422.24,24.06,-1.00,-1.0,2363
15,2135015,27036,3080,928,27226.69,24.06,-1.00,-1.0,2361
18,2135018,2148,-2356,-464,3221.79,23.97,-1.00,-1.0,2446
20,2135020,29820,2720,1940,30006.57,23.97,-1.00,-1.0,2359
23,2135023,3104,-1860,1156,3798.78,24.11,-1.00,-1.0,2455
26,2135026,23584,2432,372,23711.98,24.06,-1.00,-1.0,2360
29,2135029,19664,1840,-320,19752.49,24.06,-1.00,-1.0,2446
31,2135031,22076,1200,-1268,22144.92,24.06,-1.00,-1.0,2358
36,2135036,21448,2788,-1828,21705.56,24.01,-1.00,-1.0,2457
39,2135039,22636,2368,1936,22841.72,24.01,-1.00,-1.0,2375
42,2135042,3780,-1024,2060,4424.99,24.01,-1.00,-1.0,2438
45,2135045,29772,3812,556,30020.20,24.01,-1.00,-1.0,2385
47,2135047,3184,-1964,-280,3751.47,24.06,-1.00,-1.0,2368
50,2135050,27168,3596,-588,27411.26,23.97,-1.00,-1.0,2432
53,2135053,14628,-1492,2828,14973.38,23.97,-1.00,-1.0,2366
55,2135055,25084,3292,-1276,25331.26,23.97,-1.00,-1.0,2430
58,2135058,13960,-632,-44,13974.37,24.06,-1.00,-1.0,2374
63,2135063,17360,1916,2724,17676.56,24.11,-1.00,-1.0,2455
66,2135066,6016,-476,716,6077.13,23.92,-1.00,-1.0,2362
69,2135069,32767,4960,-2064,33204.49,23.97,-1.00,-1.0,2450
71,2135071,1548,-3404,1784,4143.21,24.01,-1.00,-1.0,2365
74,2135074,32767,3668,-668,32978.43,24.01,-1.00,-1.0,2448
77,2135077,9528,-1076,-436,9598.47,24.11,-1.00,-1.0,2372
79,2135079,31200,3832,-356,31436.46,24.06,-1.00,-1.0,2350
82,2135082,16836,908,2184,17001.33,23.97,-1.00,-1.0,2436
85,2135085,7880,36,1592,8039.29,24.06,-1.00,-1.0,2364
90,2135090,6972,-712,-1240,7117.12,24.01,-1.00,-1.0,2440
93,2135093,30048,2684,2716,30289.65,24.01,-1.00,-1.0,2372
95,2135095,7180,-308,392,7197.29,24.06,-1.00,-1.0,2452
98,2135098,30984,4132,-1028,31275.21,24.11,-1.00,-1.0,2366
101,2135101,6312,-2896,1504,7105.64,24.06,-1.00,-1.0,2440
104,2135104,17788,1428,-740,17860.56,24.11,-1.00,-1.0,2376
106,2135106,8452,-1296,1292,8647.84,23.97,-1.00,-1.0,2368
109,2135109,12652,556,-688,12682.89,24.06,-1.00,-1.0,2433
112,2135112,29556,2636,1180,29696.77,23.97,-1.00,-1.0,2384
117,2135117,28940,3776,1068,29204.84,23.97,-1.00,-1.0,2453
119,2135119,9860,132,580,9877.93,23.97,-1.00,-1.0,2367
122,2135122,29136,4544,1968,29553.81,23.97,-1.00,-1.0,2437
125,2135125,2780,-3024,1148,4265.08,24.06,-1.00,-1.0,2364
128,2135128,24000,1160,-2244,24132.57,24.06,-1.00,-1.0,2438
130,2135130,2672,-2720,2004,4307.44,24.06,-1.00,-1.0,2360
133,2135133,17676,884,-688,17711.46,23.97,-1.00,-1.0,2439
136,2135136,29664,2572,-192,29775.91,24.06,-1.00,-1.0,2354
138,2135138,11776,232,-376,11784.29,23.97,-1.00,-1.0,2368
143,2135143,6600,-120,-376,6611.79,24.06,-1.00,-1.0,2445
146,2135146,32044,3088,-488,32196.15,24.06,-1.00,-1.0,2360
149,2135149,5972,-2992,1036,6759.45,24.06,-1.00,-1.0,2441
152,2135152,19580,1476,-1020,19662.03,23.97,-1.00,-1.0,2377
154,2135154,7684,-2588,392,8117.59,24.06,-1.00,-1.0,2442
157,2135157,21424,2300,-1304,21586.53,24.06,-1.00,-1.0,2360
160,2135160,22508,3472,4144,23148.17,24.06,-1.00,-1.0,2446
163,2135163,1468,-156,792,1675.30,24.06,-1.00,-1.0,2363
168,2135168,-1296,-3076,2952,4455.97,24.06,-1.00,-1.0,2458
170,2135170,32767,2996,456,32906.84,23.97,-1.00,-1.0,2369
173,2135173,4516,-2036,1040,5061.73,23.97,-1.00,-1.0,2365
176,2135176,22168,2956,-1456,22411.56,24.06,-1.00,-1.0,2440
178,2135178,5880,-2276,-24,6305.17,24.06,-1.00,-1.0,2360
181,2135181,21328,476,540,21340.14,24.11,-1.00,-1.0,2439
184,2135184,22012,4004,576,22380.62,24.06,-1.00,-1.0,2361
187,2135187,3244,-1960,2044,4306.17,24.06,-1.00,-1.0,2450
189,2135189,25748,1700,1696,25859.74,23.97,-1.00,-1.0,2354
194,2135194,30980,3412,1272,31193.27,23.97,-1.00,-1.0,2464
197,2135197,1312,-812,864,1768.38,24.06,-1.00,-1.0,2366
200,2135200,24392,3220,888,24619.64,24.06,-1.00,-1.0,2434
202,2135202,20960,1868,1140,21073.93,23.97,-1.00,-1.0,2358
205,2135205,21604,1656,-1224,21701.92,24.06,-1.00,-1.0,2366
208,2135208,23152,2280,1532,23314.38,24.01,-1.00,-1.0,2440
211,2135211,4264,-1652,256,4579.99,24.06,-1.00,-1.0,2377
213,2135213,31580,2764,-1084,31719.26,24.11,-1.00,-1.0,2441
216,2135216,1252,-1668,1200,2406.19,24.06,-1.00,-1.0,2360
221,2135221,-216,-1624,1652,2326.61,24.01,-1.00,-1.0,2453
224,2135224,27156,3412,-1136,27393.08,24.06,-1.00,-1.0,2383
226,2135226,20976,1232,2104,21117.22,24.01,-1.00,-1.0,2435
229,2135229,20928,1756,-1764,21075.49,24.11,-1.00,-1.0,2362
232,2135232,22844,272,4,22845.62,24.01,-1.00,-1.0,2435
235,2135235,3696,-2372,16,4391.70,24.01,-1.00,-1.0,2386
237,2135237,26048,2912,1552,26256.18,24.06,-1.00,-1.0,2359
240,2135240,5188,-520,972,5303.82,24.11,-1.00,-1.0,2449
243,2135243,29932,4312,-864,30253.34,23.97,-1.00,-1.0,2379
248,2135248,30860,2392,-1692,30998.78,24.01,-1.00,-1.0,2437
251,2135251,16412,1312,100,16464.66,23.97,-1.00,-1.0,2372
253,2135253,1936,-1144,2016,3020.11,24.01,-1.00,-1.0,2456
256,2135256,24728,1384,1244,24797.92,24.01,-1.00,-1.0,2366
259,2135259,236,-2008,232,2035.09,24.01,-1.00,-1.0,2440
262,2135262,31800,3304,-1992,32033.18,23.97,-1.00,-1.0,2379
264,2135264,13900,-592,776,13934.23,24.11,-1.00,-1.0,2446
267,2135267,27540,2732,1288,27705.13,24.01,-1.00,-1.0,2360
270,2135270,16564,872,312,16589.87,24.11,-1.00,-1.0,2381
275,2135275,17876,-628,1548,17953.89,24.01,-1.00,-1.0,2463
278,2135278,4992,-1604,-1016,5340.89,24.11,-1.00,-1.0,2368
281,2135281,32160,2744,-684,32284.10,24.11,-1.00,-1.0,2459
283,2135283,7712,-1720,572,7922.15,24.01,-1.00,-1.0,2368
286,2135286,30820,4360,512,31131.08,24.01,-1.00,-1.0,2446
289,2135289,11680,-1680,684,11820.01,24.01,-1.00,-1.0,2358
292,2135292,12604,-176,-664,12622.71,24.01,-1.00,-1.0,2456
294,2135294,29120,3624,2024,29414.36,24.01,-1.00,-1.0,2373
299,2135299,32340,3512,252,32531.11,24.11,-1.00,-1.0,2467
302,2135302,4580,-1412,1044,4905.11,24.01,-1.00,-1.0,2365
305,2135305,32767,3120,-804,32925.02,24.01,-1.00,-1.0,2362
307,2135307,5680,-2396,576,6191.53,23.97,-1.00,-1.0,2435
310,2135310,32767,4804,-2356,33200.98,24.01,-1.00,-1.0,2362
313,2135313,10352,-816,3508,10960.65,24.06,-1.00,-1.0,2435
316,2135316,9496,496,-72,9509.22,24.01,-1.00,-1.0,2364
318,2135318,32767,3500,-1060,32970.44,24.06,-1.00,-1.0,2442
321,2135321,3388,-1912,620,3939.38,24.01,-1.00,-1.0,2364
326,2135326,3308,-648,2432,4156.61,24.01,-1.00,-1.0,2448
329,2135329,30796,4096,-1956,31128.71,24.01,-1.00,-1.0,2372
332,2135332,8424,-2636,1496,8952.67,24.01,-1.00,-1.0,2458
334,2135334,16220,-388,84,16224.86,24.11,-1.00,-1.0,2366
337,2135337,9876,616,672,9917.98,23.97,-1.00,-1.0,2361
340,2135340,9416,-384,1236,9504.54,24.06,-1.00,-1.0,2454
342,2135342,32332,4104,72,32591.51,23.97,-1.00,-1.0,2372
345,2135345,6672,-752,172,6716.45,23.97,-1.00,-1.0,2436
348,2135348,29948,2944,8,30092.36,24.06,-1.00,-1.0,2369
353,2135353,28704,4064,1628,29035.95,24.06,-1.00,-1.0,2455
356,2135356,9212,-1320,1224,9386.24,24.01,-1.00,-1.0,2361
359,2135359,18064,1436,-436,18126.23,23.97,-1.00,-1.0,2444
361,2135361,25096,2920,1080,25288.38,24.06,-1.00,-1.0,2366
364,2135364,16076,-444,-1196,16126.54,24.06,-1.00,-1.0,2434
367,2135367,30824,3592,396,31035.11,24.01,-1.00,-1.0,2353
369,2135369,-1004,-2336,1428,2916.18,24.06,-1.00,-1.0,2370
372,2135372,25712,2348,-1036,25839.76,24.01,-1.00,-1.0,2444
375,2135375,2800,-1768,1356,3578.35,24.06,-1.00,-1.0,2369
380,2135380,7344,-1876,2192,7890.41,24.06,-1.00,-1.0,2441
383,2135383,14712,928,-1080,14780.75,24.06,-1.00,-1.0,2366
386,2135386,27188,1260,-900,27232.06,23.97,-1.00,-1.0,2460
388,2135388,4112,-2672,944,4993.92,24.06,-1.00,-1.0,2366
391,2135391,27716,3296,1104,27933.12,24.06,-1.00,-1.0,2421
394,2135394,5120,-1368,1188,5431.13,23.97,-1.00,-1.0,2367
397,2135397,26112,4248,200,26456.04,24.15,-1.00,-1.0,2445
399,2135399,18492,2092,2396,18763.56,24.06,-1.00,-1.0,2352
402,2135402,5392,-164,1020,5490.08,24.11,-1.00,-1.0,2362
407,2135407,2260,-3012,1304,3984.99,24.11,-1.00,-1.0,2457
410,2135410,26820,2040,1488,26938.60,24.06,-1.00,-1.0,2357
413,2135413,4260,-888,332,4364.21,24.01,-1.00,-1.0,2447
415,2135415,28448,3580,-132,28672.68,24.06,-1.00,-1.0,2358
418,2135418,13180,296,812,13208.31,24.11,-1.00,-1.0,2429
421,2135421,28700,2020,-408,28773.89,24.06,-1.00,-1.0,2360
424,2135424,20324,2348,80,20459.34,24.06,-1.00,-1.0,2442
426,2135426,1912,-668,2432,3164.90,24.15,-1.00,-1.0,2378
431,2135431,2188,-2200,-780,3199.33,24.06,-1.00,-1.0,2442
434,2135434,27276,2296,1364,27406.43,24.15,-1.00,-1.0,2360
437,2135437,1800,-752,916,2155.12,24.01,-1.00,-1.0,2362
439,2135439,29220,3468,284,29426.45,24.01,-1.00,-1.0,2435
442,2135442,1464,-2604,2216,3719.51,24.06,-1.00,-1.0,2364
445,2135445,25024,2220,-2332,25230.28,24.01,-1.00,-1.0,2433
448,2135448,21608,-12,1648,21670.76,24.06,-1.00,-1.0,2385
450,2135450,4036,-356,-884,4146.99,24.11,-1.00,-1.0,2437
453,2135453,31832,3080,20,31980.67,24.01,-1.00,-1.0,2379
458,2135458,28644,3360,400,28843.17,24.06,-1.00,-1.0,2463
461,2135461,1088,-2272,1892,3150.46,24.06,-1.00,-1.0,2375
463,2135463,29232,4144,-1852,29582.30,24.06,-1.00,-1.0,2376
466,2135466,17768,548,2968,18022.52,24.01,-1.00,-1.0,2437
469,2135469,23984,1556,-1220,24065.37,24.11,-1.00,-1.0,2367
472,2135472,21788,548,-1704,21861.40,24.01,-1.00,-1.0,2437
474,2135474,1508,-3432,936,3863.78,24.06,-1.00,-1.0,2359
477,2135477,32316,3468,-1320,32528.35,23.97,-1.00,-1.0,2440
480,2135480,8988,-1336,600,9106.54,24.06,-1.00,-1.0,2378
485,2135485,16880,760,3436,17242.91,23.97,-1.00,-1.0,2455
488,2135488,25388,1788,96,25451.06,24.06,-1.00,-1.0,2357
491,2135491,21260,876,-2020,21373.71,24.06,-1.00,-1.0,2447
493,2135493,2084,-3032,1480,3965.66,24.01,-1.00,-1.0,2358
496,2135496,32767,4188,92,33033.68,23.97,-1.00,-1.0,2447
499,2135499,1112,-2044,1088,2568.70,24.11,-1.00,-1.0,2356
502,2135502,30304,3952,-2252,30643.47,24.06,-1.00,-1.0,2376
504,2135504,14476,-912,852,14529.70,24.06,-1.00,-1.0,2444
507,2135507,6176,-2004,1016,6572.00,24.06,-1.00,-1.0,2383
512,2135512,4136,-1248,1592,4604.18,24.06,-1.00,-1.0,2464
515,2135515,23712,348,1480,23760.69,24.06,-1.00,-1.0,2365
518,2135518,684,-1960,-1228,2411.94,24.11,-1.00,-1.0,2431
521,2135521,31968,1948,-1660,32070.29,24.06,-1.00,-1.0,2358
523,2135523,13828,-348,120,13832.90,23.97,-1.00,-1.0,2451
526,2135526,27552,2500,-244,27666.27,24.06,-1.00,-1.0,2356
529,2135529,17940,252,360,17945.38,24.06,-1.00,-1.0,2453
531,2135531,4996,-748,-332,5062.58,23.97,-1.00,-1.0,2369
534,2135534,32767,3712,1048,32993.23,23.97,-1.00,-1.0,2369
539,2135539,32767,3312,-2532,33031.15,24.06,-1.00,-1.0,2456
542,2135542,-4100,-2964,3124,5945.98,24.06,-1.00,-1.0,2372
545,2135545,30720,1984,-2176,30860.81,24.01,-1.00,-1.0,2436
548,2135548,18040,-76,472,18046.33,24.06,-1.00,-1.0,2365
550,2135550,804,-1936,-80,2097.83,23.97,-1.00,-1.0,2446
553,2135553,26248,1720,1872,26370.82,24.06,-1.00,-1.0,2364
556,2135556,-12,-532,1276,1382.51,24.01,-1.00,-1.0,2440
558,2135558,31820,4080,-1000,32096.09,24.06,-1.00,-1.0,2370
563,2135563,28092,2160,-1408,28210.08,23.97,-1.00,-1.0,2448
566,2135566,18048,804,1128,18101.08,24.06,-1.00,-1.0,2364
569,2135569,23768,2572,-2684,24056.95,23.97,-1.00,-1.0,2368
572,2135572,23964,2696,1884,24188.66,23.97,-1.00,-1.0,2427
574,2135574,652,-1604,1968,2621.25,24.06,-1.00,-1.0,2371
577,2135577,32152,2768,-2688,32382.69,24.11,-1.00,-1.0,2436
580,2135580,-352,-2696,1832,3278.50,24.06,-1.00,-1.0,2373
583,2135583,28596,3688,-1924,28896.96,24.01,-1.00,-1.0,2432
585,2135585,18728,1148,2564,18937.53,24.01,-1.00,-1.0,2368
590,2135590,23792,1412,156,23834.37,24.01,-1.00,-1.0,2460
593,2135593,2864,-2548,648,3887.76,23.92,-1.00,-1.0,2363
596,2135596,25200,3408,940,25446.77,24.01,-1.00,-1.0,2438
599,2135599,832,-2192,2280,3270.40,24.01,-1.00,-1.0,2379
601,2135601,32356,3224,-1808,32566.45,24.06,-1.00,-1.0,2367
604,2135604,-1884,-2156,1528,3245.39,24.06,-1.00,-1.0,2448
607,2135607,25116,520,-320,25123.42,23.97,-1.00,-1.0,2366
609,2135609,24800,1808,-440,24869.71,24.06,-1.00,-1.0,2417
612,2135612,208,-2540,1344,2881.18,24.15,-1.00,-1.0,2373
617,2135617,4,-2464,2060,3211.68,23.97,-1.00,-1.0,2451
620,2135620,26336,2512,-340,26457.71,24.06,-1.00,-1.0,2369
623,2135623,3696,184,764,3778.62,23.97,-1.00,-1.0,2432
626,2135626,23228,1368,616,23276.40,24.15,-1.00,-1.0,2372
628,2135628,22752,2032,600,22850.44,23.97,-1.00,-1.0,2429
631,2135631,2620,-1444,1448,3323.59,24.11,-1.00,-1.0,2378
634,2135634,26060,2360,-100,26166.83,23.97,-1.00,-1.0,2365
636,2135636,-564,-3032,1784,3562.83,24.01,-1.00,-1.0,2435
639,2135639,29760,712,-2100,29842.50,24.06,-1.00,-1.0,2364
644,2135644,24552,1780,-1132,24642.45,24.06,-1.00,-1.0,2456
647,2135647,25808,2064,1196,25918.01,24.01,-1.00,-1.0,2352
650,2135650,17044,-308,-824,17066.69,24.01,-1.00,-1.0,2449
652,2135652,28880,2228,-336,28967.76,23.92,-1.00,-1.0,2357
655,2135655,164,-2016,1376,2446.33,24.01,-1.00,-1.0,2445
658,2135658,26308,1892,104,26376.15,24.01,-1.00,-1.0,2357
661,2135661,2228,-788,784,2489.90,24.01,-1.00,-1.0,2444
663,2135663,21920,236,-1280,21958.61,24.01,-1.00,-1.0,2366
666,2135666,25632,2788,892,25798.61,24.11,-1.00,-1.0,2372
671,2135671,31292,3092,732,31452.91,24.01,-1.00,-1.0,2455
674,2135674,-2280,-584,2140,3181.05,24.01,-1.00,-1.0,2356
677,2135677,32767,3000,-104,32904.21,24.11,-1.00,-1.0,2457
679,2135679,2500,-584,2608,3659.61,24.01,-1.00,-1.0,2369
682,2135682,17376,632,-480,17394.11,24.01,-1.00,-1.0,2440
685,2135685,28672,2732,980,28818.53,24.01,-1.00,-1.0,2364
688,2135688,13416,1092,-620,13474.64,24.11,-1.00,-1.0,2442
690,2135690,31828,4548,1152,32171.93,23.92,-1.00,-1.0,2365
695,2135695,32767,3724,-872,32989.46,24.01,-1.00,-1.0,2448
698,2135698,1508,-936,2752,3274.70,24.06,-1.00,-1.0,2364
701,2135701,32767,4280,-2456,33136.48,24.01,-1.00,-1.0,2370
704,2135704,9788,4,3012,10240.95,23.97,-1.00,-1.0,2434
706,2135706,8500,-256,16,8503.87,24.11,-1.00,-1.0,2378
709,2135709,32767,3224,-1472,32958.11,23.97,-1.00,-1.0,2450
712,2135712,4332,-2544,40,5023.92,24.06,-1.00,-1.0,2370
715,2135715,32767,3504,-1100,32972.18,24.06,-1.00,-1.0,2444
718,2135718,4040,-940,2404,4794.21,24.06,-1.00,-1.0,2375
723,2135723,11392,1680,3116,11929.36,24.01,-1.00,-1.0,2448
725,2135725,4304,-1400,1216,4686.48,24.01,-1.00,-1.0,2365
728,2135728,32767,2924,-3036,33037.00,24.06,-1.00,-1.0,2458
731,2135731,-1684,-1852,1808,3087.82,24.06,-1.00,-1.0,2366
733,2135733,32767,3584,-1624,33002.41,24.06,-1.00,-1.0,2369
736,2135736,12124,296,2188,12323.41,24.06,-1.00,-1.0,2442
739,2135739,28964,2372,-2996,29214.99,24.06,-1.00,-1.0,2357
742,2135742,18832,56,504,18838.83,23.97,-1.00,-1.0,2450
745,2135745,3200,-1920,104,3733.26,23.97,-1.00,-1.0,2370
750,2135750,692,-2520,2780,3815.45,24.06,-1.00,-1.0,2455
752,2135752,32767,3688,-2468,33066.12,24.06,-1.00,-1.0,2359
755,2135755,12548,1716,3036,13023.60,24.11,-1.00,-1.0,2461
758,2135758,3492,288,1580,3843.62,24.01,-1.00,-1.0,2352
761,2135761,22952,2400,864,23093.31,24.01,-1.00,-1.0,2431
763,2135763,-3496,-1152,3944,5394.84,24.11,-1.00,-1.0,2369
766,2135766,32767,3276,-2912,33058.86,24.11,-1.00,-1.0,2355
769,2135769,-1776,-1752,3984,4700.63,24.06,-1.00,-1.0,2439
772,2135772,27204,2420,-1348,27344.67,24.06,-1.00,-1.0,2373
777,2135777,21836,-752,-1620,21908.92,24.01,-1.00,-1.0,2455
779,2135779,27376,3696,-500,27628.89,24.06,-1.00,-1.0,2374
782,2135782,-2732,-2412,4156,5527.56,24.06,-1.00,-1.0,2443
785,2135785,32767,3868,28,32994.52,23.97,-1.00,-1.0,2371
788,2135788,-4228,-2268,3600,5998.32,24.01,-1.00,-1.0,2437
790,2135790,25752,-780,-2248,25861.70,23.97,-1.00,-1.0,2378
793,2135793,29380,2272,-1816,29523.62,24.11,-1.00,-1.0,2447
796,2135796,-6924,-2128,3988,8268.88,24.11,-1.00,-1.0,2355
801,2135801,68,-1372,3948,4180.16,24.11,-1.00,-1.0,2451
804,2135804,32767,3032,-1924,32963.18,24.06,-1.00,-1.0,2366
806,2135806,4124,-2016,816,4662.35,24.06,-1.00,-1.0,2357
809,2135809,15172,-2176,-532,15336.48,24.11,-1.00,-1.0,2442
812,2135812,10328,1328,2008,10604.87,24.01,-1.00,-1.0,2362
814,2135814,8156,-1176,236,8243.73,24.01,-1.00,-1.0,2444
817,2135817,32767,3816,-924,33001.39,24.11,-1.00,-1.0,2360
820,2135820,2228,52,2672,3479.41,24.01,-1.00,-1.0,2443
823,2135823,32767,1648,-2084,32874.54,24.11,-1.00,-1.0,2357
828,2135828,32524,2720,-1932,32694.67,24.01,-1.00,-1.0,2454
830,2135830,14528,1636,2624,14853.44,24.11,-1.00,-1.0,2366
833,2135833,2984,-1056,1244,3401.02,24.01,-1.00,-1.0,2450
836,2135836,32767,3748,-1848,33032.39,24.01,-1.00,-1.0,2361
838,2135838,-4552,-1944,1632,5211.84,24.01,-1.00,-1.0,2354
841,2135841,32767,1260,-2380,32877.47,24.06,-1.00,-1.0,2426
844,2135844,16920,1696,956,17031.64,24.01,-1.00,-1.0,2367
847,2135847,26532,988,-2176,26639.41,24.06,-1.00,-1.0,2445
850,2135850,26444,2472,908,26574.81,24.15,-1.00,-1.0,2361
855,2135855,32720,3144,1348,32898.33,24.06,-1.00,-1.0,2445
857,2135857,-2312,-588,1716,2938.66,24.01,-1.00,-1.0,2349
860,2135860,25176,-852,-12,25190.42,23.97,-1.00,-1.0,2438
863,2135863,27192,4024,-180,27488.72,24.11,-1.00,-1.0,2364
866,2135866,16628,72,-2144,16765.81,24.06,-1.00,-1.0,2439
868,2135868,32767,3152,852,32929.28,24.01,-1.00,-1.0,2356
871,2135871,-3952,-1280,2896,5063.94,23.97,-1.00,-1.0,2438
874,2135874,24932,-1548,-1492,25024.53,24.11,-1.00,-1.0,2366
877,2135877,776,1012,948,1589.03,24.06,-1.00,-1.0,2358
881,2135881,12516,-224,3116,12900.00,24.06,-1.00,-1.0,2450
884,2135884,4444,-596,-644,4529.80,24.06,-1.00,-1.0,2358
887,2135887,32767,3140,-960,32931.10,24.06,-1.00,-1.0,2442
890,2135890,-12,-1400,1272,1891.59,23.97,-1.00,-1.0,2362
892,2135892,32767,2576,-1416,32898.59,24.06,-1.00,-1.0,2433
895,2135895,10600,2552,2124,11107.84,23.97,-1.00,-1.0,2369
898,2135898,5612,-1456,312,5806.19,24.06,-1.00,-1.0,2447
901,2135901,19976,1428,3632,20353.65,24.06,-1.00,-1.0,2376
906,2135906,31880,2844,172,32007.07,24.06,-1.00,-1.0,2445
908,2135908,-7984,-1132,4828,9398.68,24.06,-1.00,-1.0,2364
911,2135911,27864,840,-2488,27987.46,24.06,-1.00,-1.0,2355
914,2135914,27708,2248,812,27810.90,24.01,-1.00,-1.0,2445
916,2135916,15820,-196,-1256,15870.99,24.06,-1.00,-1.0,2357
919,2135919,32767,2716,-248,32880.30,24.11,-1.00,-1.0,2445
922,2135922,-3896,-2432,2500,5229.10,23.97,-1.00,-1.0,2360
925,2135925,24692,-516,-2780,24853.36,24.11,-1.00,-1.0,2443
928,2135928,29028,3224,1160,29229.52,24.11,-1.00,-1.0,2370
933,2135933,32767,3820,-452,32992.02,24.11,-1.00,-1.0,2456
935,2135935,4424,-2056,452,4899.31,24.06,-1.00,-1.0,2360
938,2135938,32767,3036,-2316,32988.75,24.11,-1.00,-1.0,2443
941,2135941,3380,160,2028,3944.97,24.06,-1.00,-1.0,2359
943,2135943,32767,2744,-3252,33042.11,24.11,-1.00,-1.0,2347
946,2135946,13716,2112,2924,14182.35,24.01,-1.00,-1.0,2439
949,2135949,2376,-1196,1624,3116.60,24.01,-1.00,-1.0,2379
952,2135952,32767,3952,-2792,33122.35,24.06,-1.00,-1.0,2446
955,2135955,6564,1532,2908,7340.95,24.01,-1.00,-1.0,2359
960,2135960,17884,1648,424,17964.78,24.01,-1.00,-1.0,2452
962,2135962,24568,1600,-2588,24755.69,24.01,-1.00,-1.0,2365
965,2135965,27500,3400,2272,27802.37,24.11,-1.00,-1.0,2435
968,2135968,-2480,-1692,3812,4852.28,23.97,-1.00,-1.0,2364
971,2135971,29600,932,-3820,29860.02,24.01,-1.00,-1.0,2420
973,2135973,-376,-1296,1720,2186.18,24.06,-1.00,-1.0,2372
976,2135976,20884,-1416,-1084,20960.00,24.01,-1.00,-1.0,2432
979,2135979,26760,3148,724,26954.25,24.06,-1.00,-1.0,2369
982,2135982,-2144,-2228,2968,4285.99,24.15,-1.00,-1.0,2369
987,2135987,-1248,-628,3168,3462.39,24.01,-1.00,-1.0,2451
989,2135989,32767,2392,-2264,32932.11,24.11,-1.00,-1.0,2364
992,2135992,4772,244,2356,5327.50,24.01,-1.00,-1.0,2440
995,2135995,10940,-108,-656,10960.18,24.01,-1.00,-1.0,2365
998,2135998,32767,3944,-128,33003.75,24.15,-1.00,-1.0,2445
1000,2136000,1580,-1356,2012,2895.39,24.01,-1.00,-1.0,2351
1003,2136003,32767,3148,-2584,33019.13,24.06,-1.00,-1.0,2447
1006,2136006,8312,320,2160,8594.03,24.01,-1.00,-1.0,2373
1011,2136011,18984,2672,1520,19231.28,24.11,-1.00,-1.0,2455
1014,2136014,-1788,-1300,3224,3909.11,24.01,-1.00,-1.0,2361
1016,2136016,29048,3376,112,29243.74,24.01,-1.00,-1.0,2424
1019,2136019,-5792,-2624,4340,7698.59,24.11,-1.00,-1.0,2368
1022,2136022,30400,220,-3432,30593.90,24.01,-1.00,-1.0,2367
1025,2136025,-2720,212,2320,3581.30,24.06,-1.00,-1.0,2432
1027,2136027,18084,-1304,-408,18135.54,23.97,-1.00,-1.0,2372
1030,2136030,32767,2904,-1456,32927.64,23.97,-1.00,-1.0,2441
1033,2136033,-1592,-1892,3716,4463.49,24.06,-1.00,-1.0,2366
1038,2136038,2896,-704,1652,3407.57,24.06,-1.00,-1.0,2451
1041,2136041,32767,2392,-1512,32888.96,24.06,-1.00,-1.0,2367
1043,2136043,11604,1968,2200,11973.55,24.06,-1.00,-1.0,2446
1046,2136046,5192,-836,856,5328.09,24.06,-1.00,-1.0,2372
1049,2136049,32767,3792,-1544,33021.80,24.06,-1.00,-1.0,2439
1052,2136052,-1608,-1736,1096,2607.79,23.97,-1.00,-1.0,2370
1054,2136054,32132,724,-2244,32218.40,24.06,-1.00,-1.0,2444
1057,2136057,16800,1340,520,16861.38,24.06,-1.00,-1.0,2376
1062,2136062,23252,2640,1632,23458.23,24.06,-1.00,-1.0,2427
1065,2136065,-396,-1488,3052,3418.43,24.01,-1.00,-1.0,2382
1067,2136067,30920,3548,368,31125.07,24.11,-1.00,-1.0,2363
1070,2136070,-1952,-388,2936,3546.96,24.06,-1.00,-1.0,2441
1073,2136073,24228,-516,-1808,24300.85,24.01,-1.00,-1.0,2370
1075,2136075,2520,-144,3672,4455.86,23.97,-1.00,-1.0,2425
1078,2136078,13844,-496,-1416,13925.06,24.11,-1.00,-1.0,2369
1081,2136081,32767,3752,-1064,32998.27,24.06,-1.00,-1.0,2447
1084,2136084,-1092,-372,3876,4044.04,24.11,-1.00,-1.0,2370
1089,2136089,7248,876,688,7333.09,23.97,-1.00,-1.0,2445
1091,2136091,32767,1816,-2084,32883.39,24.11,-1.00,-1.0,2362
1094,2136094,17852,2608,2408,18201.48,23.97,-1.00,-1.0,2424
1097,2136097,0,-1360,2788,3102.02,24.11,-1.00,-1.0,2363
1100,2136100,32767,3804,-2840,33109.10,24.06,-1.00,-1.0,2435
1102,2136102,-6368,-2300,1976,7053.08,24.11,-1.00,-1.0,2370
1105,2136105,32420,-1200,-2984,32579.14,24.06,-1.00,-1.0,2354
1108,2136108,23184,2976,68,23374.32,23.97,-1.00,-1.0,2450
1111,2136111,-5868,-1588,3792,7164.81,23.97,-1.00,-1.0,2371
1116,2136116,-3352,-1972,4328,5818.61,24.11,-1.00,-1.0,2440
1119,2136119,25948,856,-2940,26128.05,24.01,-1.00,-1.0,2369
1121,2136121,1848,108,1344,2287.60,24.06,-1.00,-1.0,2429
1124,2136124,14520,-2268,-96,14696.38,24.11,-1.00,-1.0,2359
1127,2136127,32767,3840,-2672,33099.27,24.06,-1.00,-1.0,2444
1130,2136130,-3008,-2276,4284,5707.97,24.06,-1.00,-1.0,2380
1133,2136133,23896,-72,-3200,24109.42,24.11,-1.00,-1.0,2435
1135,2136135,3276,692,3440,4800.48,24.06,-1.00,-1.0,2374
1140,2136140,15964,2068,-248,16099.30,24.06,-1.00,-1.0,2444
1143,2136143,-1812,-2032,2348,3595.20,24.06,-1.00,-1.0,2366
1146,2136146,32767,2624,-3108,33018.50,23.97,-1.00,-1.0,2445
1148,2136148,-4784,-2136,3388,6239.21,24.06,-1.00,-1.0,2367
1151,2136151,31024,1716,-2536,31174.74,23.92,-1.00,-1.0,2360
1154,2136154,21996,3332,332,22249.41,24.11,-1.00,-1.0,2444
1156,2136156,-3780,-3004,5544,7351.76,24.01,-1.00,-1.0,2370
1159,2136159,32767,3776,-212,32984.53,24.11,-1.00,-1.0,2448
1162,2136162,-4128,-536,3020,5142.77,24.01,-1.00,-1.0,2379
1167,2136167,2516,272,3832,4592.22,24.01,-1.00,-1.0,2437
1170,2136170,15320,-704,-124,15336.67,24.06,-1.00,-1.0,2376
1173,2136173,32488,3768,-2936,32837.30,24.01,-1.00,-1.0,2439
1175,2136175,6416,-1092,248,6512.99,24.01,-1.00,-1.0,2373
1178,2136178,32767,3364,460,32942.44,24.01,-1.00,-1.0,2429
1181,2136181,4552,540,1844,4940.92,24.15,-1.00,-1.0,2377
1184,2136184,12652,-840,-1748,12799.77,24.11,-1.00,-1.0,2431
1186,2136186,13164,908,2776,13484.12,24.01,-1.00,-1.0,2371
1191,2136191,23796,2628,508,23946.07,24.01,-1.00,-1.0,2447
1194,2136194,-5796,-1796,3048,6790.40,23.97,-1.00,-1.0,2361
1196,2136196,32767,848,-2820,32899.05,24.01,-1.00,-1.0,2359
1199,2136199,-5464,-1088,5796,8039.44,24.06,-1.00,-1.0,2459
1202,2136202,23028,496,-3784,23342.10,24.01,-1.00,-1.0,2370
1205,2136205,30992,2208,-136,31070.85,23.97,-1.00,-1.0,2442
1208,2136208,-3808,-1664,4260,5951.25,24.01,-1.00,-1.0,2372
1210,2136210,32767,3848,-2596,33094.15,24.06,-1.00,-1.0,2457
1213,2136213,-564,-1880,3916,4380.36,24.15,-1.00,-1.0,2371
1218,2136218,8444,1428,2460,8910.21,24.15,-1.00,-1.0,2462
1221,2136221,5696,-1588,1200,6033.75,24.06,-1.00,-1.0,2383
1224,2136224,32767,4384,-2732,33171.67,24.06,-1.00,-1.0,2456
1226,2136226,292,-1048,3132,3315.57,24.06,-1.00,-1.0,2370
1229,2136229,32767,3732,-2000,33039.43,24.06,-1.00,-1.0,2439
1232,2136232,12076,332,2456,12327.69,24.06,-1.00,-1.0,2363
1235,2136235,6500,-1252,96,6620.18,24.06,-1.00,-1.0,2450
1237,2136237,20056,2436,-384,20207.04,24.06,-1.00,-1.0,2380
1240,2136240,-1224,-3172,3300,4738.12,24.06,-1.00,-1.0,2374
1245,2136245,-4040,-1540,3548,5592.99,24.15,-1.00,-1.0,2465
1248,2136248,30832,812,-2488,30942.88,24.15,-1.00,-1.0,2369
1251,2136251,22916,3400,1796,23236.37,23.97,-1.00,-1.0,2455
1253,2136253,20532,-1784,-1992,20705.40,23.97,-1.00,-1.0,2381
1256,2136256,32767,2696,-2140,32947.30,24.06,-1.00,-1.0,2444
1259,2136259,-4372,-1364,4404,6353.75,24.15,-1.00,-1.0,2373
1262,2136262,23740,244,-2044,23829.08,24.06,-1.00,-1.0,2451
1264,2136264,4472,308,2956,5369.50,24.06,-1.00,-1.0,2362
1269,2136269,11544,100,1608,11655.88,24.01,-1.00,-1.0,2455
1272,2136272,7552,-2596,-340,7992.97,24.06,-1.00,-1.0,2370
1275,2136275,32767,4088,-1956,33078.91,24.01,-1.00,-1.0,2443
1278,2136278,2312,-724,4520,5128.34,24.06,-1.00,-1.0,2370
1280,2136280,32767,3560,-1768,33007.21,24.01,-1.00,-1.0,2360
1283,2136283,10732,2036,2368,11177.14,24.11,-1.00,-1.0,2428
1286,2136286,5704,-1304,1464,6031.53,24.01,-1.00,-1.0,2369
1288,2136288,32767,4256,-2568,33141.88,24.01,-1.00,-1.0,2433
1291,2136291,472,-2556,2132,3361.75,24.01,-1.00,-1.0,2369
1296,2136296,-1748,-2016,3904,4728.74,24.15,-1.00,-1.0,2451
1299,2136299,31668,1644,-3384,31890.70,24.01,-1.00,-1.0,2374
1302,2136302,19820,2460,660,19982.98,23.97,-1.00,-1.0,2441
1304,2136304,23036,-1556,-256,23089.91,23.97,-1.00,-1.0,2366
1307,2136307,30836,3952,-1472,31123.04,24.06,-1.00,-1.0,2435
1310,2136310,-5780,-2260,4880,7894.96,24.06,-1.00,-1.0,2379
1313,2136313,29796,956,-3488,30014.69,24.06,-1.00,-1.0,2443
1315,2136315,-1176,-412,3988,4178.14,24.06,-1.00,-1.0,2372
1320,2136320,9196,1588,-112,9332.78,23.97,-1.00,-1.0,2452
1323,2136323,6936,-2180,2488,7684.44,24.06,-1.00,-1.0,2364
1326,2136326,32767,4144,-2020,33089.72,24.06,-1.00,-1.0,2449
1328,2136328,4728,-1956,2288,5604.90,23.97,-1.00,-1.0,2372
1331,2136331,32352,3468,-448,32540.43,24.01,-1.00,-1.0,2374
1334,2136334,7536,680,2532,7979.02,24.01,-1.00,-1.0,2436
1337,2136337,13084,-1956,-512,13239.30,24.06,-1.00,-1.0,2373
1339,2136339,32767,4328,-3136,33200.04,24.01,-1.00,-1.0,2425
1342,2136342,3808,-1708,2792,5021.29,24.11,-1.00,-1.0,2370
1347,2136347,-2336,-1024,976,2730.94,24.11,-1.00,-1.0,2455
1350,2136350,32767,1520,-2220,32877.27,24.01,-1.00,-1.0,2363
1353,2136353,16000,1612,1356,16138.07,24.01,-1.00,-1.0,2451
1355,2136355,948,-2376,1104,2786.20,24.11,-1.00,-1.0,2364
1358,2136358,24800,2792,-412,24960.07,24.01,-1.00,-1.0,2442
1361,2136361,-2228,-1884,4424,5299.55,24.01,-1.00,-1.0,2367
1364,2136364,32767,2612,-1788,32919.54,24.06,-1.00,-1.0,2448
1366,2136366,16348,2012,900,16495.92,24.01,-1.00,-1.0,2368
1371,2136371,24696,2788,1372,24890.72,24.01,-1.00,-1.0,2450
1374,2136374,17952,-864,-860,17993.34,24.01,-1.00,-1.0,2380
1377,2136377,31292,3576,-1964,31556.84,24.11,-1.00,-1.0,2360
1379,2136379,-4256,-2436,4352,6556.49,24.06,-1.00,-1.0,2442
1382,2136382,32767,2820,-420,32890.80,24.06,-1.00,-1.0,2366
1385,2136385,-476,-904,1884,2143.19,24.06,-1.00,-1.0,2438
1388,2136388,15968,-1356,-1444,16090.40,24.06,-1.00,-1.0,2365
1390,2136390,32767,3772,-276,32984.55,24.06,-1.00,-1.0,2439
1393,2136393,5968,-580,936,6068.73,24.06,-1.00,-1.0,2366
1398,2136398,-136,-2760,872,2897.67,24.06,-1.00,-1.0,2442
1401,2136401,32767,1920,-2304,32903.97,24.15,-1.00,-1.0,2370
1404,2136404,10612,1640,792,10767.14,24.06,-1.00,-1.0,2434
1406,2136406,6248,-2260,1004,6719.61,24.06,-1.00,-1.0,2367
1409,2136409,19276,1840,3188,19624.30,24.06,-1.00,-1.0,2437
1412,2136412,2288,-204,680,2395.61,24.06,-1.00,-1.0,2368
1414,2136414,32767,3036,-1212,32929.66,24.06,-1.00,-1.0,2354
1417,2136417,9140,2156,2780,9793.69,24.01,-1.00,-1.0,2450
1420,2136420,32767,600,-2796,32891.55,24.06,-1.00,-1.0,2363
1425,2136425,23676,1300,-3056,23907.78,24.15,-1.00,-1.0,2430
1428,2136428,28624,2272,2420,28815.82,24.15,-1.00,-1.0,2365
1431,2136431,-3104,-620,2944,4322.77,24.06,-1.00,-1.0,2434
1433,2136433,28368,804,-3100,28548.20,23.97,-1.00,-1.0,2363
1436,2136436,1732,-560,3628,4059.04,24.06,-1.00,-1.0,2440
1439,2136439,18680,-260,-200,18682.88,24.06,-1.00,-1.0,2369
1442,2136442,27204,2992,-444,27371.64,23.97,-1.00,-1.0,2430
1444,2136444,-552,-1740,3100,3597.54,24.06,-1.00,-1.0,2367
1449,2136449,100,-1776,3184,3647.20,24.06,-1.00,-1.0,2440
1452,2136452,32767,3460,-2520,33045.40,24.01,-1.00,-1.0,2381
1455,2136455,4960,-36,2636,5617.06,24.06,-1.00,-1.0,2442
1458,2136458,13224,-832,-324,13254.11,24.06,-1.00,-1.0,2377
1460,2136460,12144,612,1160,12214.62,24.15,-1.00,-1.0,2368
1463,2136463,6024,-1888,-20,6312.96,24.01,-1.00,-1.0,2443
1466,2136466,32767,3312,-1348,32961.54,24.06,-1.00,-1.0,2369
1468,2136468,4916,24,1872,5260.42,24.06,-1.00,-1.0,2434
1471,2136471,13000,-2284,-900,13229.76,24.01,-1.00,-1.0,2375
1476,2136476,30152,404,-4304,30460.31,23.97,-1.00,-1.0,2449
1479,2136479,20092,1440,1500,20199.31,24.06,-1.00,-1.0,2374
1482,2136482,-1908,-2388,1984,3644.07,24.06,-1.00,-1.0,2448
1484,2136484,32767,1148,-3092,32932.58,24.06,-1.00,-1.0,2378
1487,2136487,-5300,-236,3868,6565.60,24.06,-1.00,-1.0,2431
1490,2136490,29516,1172,-1936,29602.63,24.15,-1.00,-1.0,2375
1493,2136493,25888,2928,1336,26087.29,24.06,-1.00,-1.0,2450
1495,2136495,-3100,-1592,2784,4460.39,24.06,-1.00,-1.0,2369
1500,2136500,8088,656,872,8161.28,24.01,-1.00,-1.0,2446
1503,2136503,32767,4476,-276,33072.45,24.06,-1.00,-1.0,2367
1505,2136505,2760,-916,4120,5042.92,24.01,-1.00,-1.0,2366
1508,2136508,18052,28,-3396,18368.68,24.11,-1.00,-1.0,2448
1511,2136511,8040,-660,2788,8535.23,24.01,-1.00,-1.0,2370
1514,2136514,10364,-1408,-880,10496.16,24.06,-1.00,-1.0,2440
1516,2136516,32767,2916,-1856,32948.81,24.11,-1.00,-1.0,2369
1519,2136519,2796,-844,2664,3953.08,23.97,-1.00,-1.0,2434
1522,2136522,17356,-236,-1448,17417.90,24.06,-1.00,-1.0,2379
1527,2136527,9804,-1428,-220,9909.89,24.06,-1.00,-1.0,2458
1530,2136530,15268,1824,664,15390.90,24.06,-1.00,-1.0,2378
1533,2136533,744,-2160,768,2410.18,24.06,-1.00,-1.0,2445
1536,2136536,32767,2780,-1712,32929.25,23.97,-1.00,-1.0,2378
1538,2136538,8636,1020,3204,9267.50,23.97,-1.00,-1.0,2446
1541,2136541,32767,1560,-3692,33011.22,24.06,-1.00,-1.0,2349
1544,2136544,17504,1768,504,17600.28,24.01,-1.00,-1.0,2368
1546,2136546,-1996,-2332,3876,4944.25,24.06,-1.00,-1.0,2445
1549,2136549,32767,2588,-3644,33070.42,24.06,-1.00,-1.0,2362
1554,2136554,30624,664,-1216,30655.32,24.06,-1.00,-1.0,2457
1557,2136557,-744,-2036,4952,5405.66,24.15,-1.00,-1.0,2378
1560,2136560,21748,224,-3432,22018.27,24.01,-1.00,-1.0,2445
1563,2136563,27260,2652,-244,27389.78,24.06,-1.00,-1.0,2377
1565,2136565,-2224,-2668,3240,4749.95,24.06,-1.00,-1.0,2430
1568,2136568,32767,3872,968,33009.18,24.15,-1.00,-1.0,2372
1571,2136571,-680,136,2464,2559.73,24.11,-1.00,-1.0,2433
1574,2136574,21744,332,-1492,21797.66,24.11,-1.00,-1.0,2365
1579,2136579,10904,-1768,-1940,11215.46,24.11,-1.00,-1.0,2454
1581,2136581,32767,2660,-1900,32929.65,24.06,-1.00,-1.0,2374
1584,2136584,1708,-644,2132,2806.67,24.11,-1.00,-1.0,2452
1587,2136587,32767,3204,-192,32923.83,24.06,-1.00,-1.0,2357
1589,2136589,7920,980,2216,8282.36,24.01,-1.00,-1.0,2367
1592,2136592,11168,-404,-1220,11241.70,24.15,-1.00,-1.0,2443
1595,2136595,14344,716,2868,14645.42,24.11,-1.00,-1.0,2363
1598,2136598,3560,-1948,1236,4242.17,24.15,-1.00,-1.0,2435
1600,2136600,32767,2772,-3432,33062.65,24.01,-1.00,-1.0,2360
1605,2136605,32767,2792,-2948,33017.61,24.01,-1.00,-1.0,2445
1608,2136608,19276,1552,1532,19398.97,24.11,-1.00,-1.0,2373
1611,2136611,23940,-412,-1980,24025.27,24.11,-1.00,-1.0,2436
1614,2136614,28580,2704,-104,28707.82,24.01,-1.00,-1.0,2369
1616,2136616,-3436,-2240,3576,5441.64,24.11,-1.00,-1.0,2435
1619,2136619,31592,1720,-3092,31789.52,24.01,-1.00,-1.0,2373
1622,2136622,-2256,-908,4768,5352.37,24.01,-1.00,-1.0,2431
1625,2136625,22456,-1040,-2888,22664.82,24.11,-1.00,-1.0,2368
1630,2136630,13524,-1916,-1576,13749.67,24.20,-1.00,-1.0,2444
1632,2136632,32767,3140,-172,32917.55,23.92,-1.00,-1.0,2379
1635,2136635,3828,-516,1112,4019.50,24.01,-1.00,-1.0,2360
1638,2136638,32767,3076,-2916,33039.99,24.06,-1.00,-1.0,2432
1640,2136640,7436,-404,2616,7893.08,24.01,-1.00,-1.0,2373
1643,2136643,12336,-1592,-1120,12488.62,24.06,-1.00,-1.0,2431
1646,2136646,13496,1116,2004,13689.54,24.06,-1.00,-1.0,2420
1649,2136649,3676,-1508,144,3975.90,24.11,-1.00,-1.0,2440
1652,2136652,32767,3460,-1172,32970.01,24.11,-1.00,-1.0,2379
1657,2136657,32767,2244,-4148,33104.65,24.20,-1.00,-1.0,2450
1659,2136659,16152,1188,2380,16369.57,24.01,-1.00,-1.0,2371
1662,2136662,1332,-1940,1276,2676.94,24.15,-1.00,-1.0,2441
1665,2136665,26316,2204,444,26411.87,24.11,-1.00,-1.0,2364
1668,2136668,-3804,-404,3148,4954.14,23.97,-1.00,-1.0,2445
1670,2136670,30860,2132,-1500,30969.90,24.01,-1.00,-1.0,2384
1673,2136673,18320,1848,2088,18530.98,24.15,-1.00,-1.0,2443
1676,2136676,24016,1064,-3588,24305.85,24.06,-1.00,-1.0,2370
1681,2136681,16800,-588,-1448,16872.54,24.06,-1.00,-1.0,2456
1684,2136684,32767,4500,-976,33088.95,24.06,-1.00,-1.0,2367
1686,2136686,-3744,-1196,5052,6400.83,23.97,-1.00,-1.0,2369
1689,2136689,25472,60,-3964,25778.67,24.06,-1.00,-1.0,2453
1692,2136692,288,-876,3632,3747.23,24.01,-1.00,-1.0,2369
1695,2136695,12592,-1872,-1564,12826.10,24.15,-1.00,-1.0,2447
1697,2136697,32767,2856,-1308,32917.23,24.11,-1.00,-1.0,2381
1700,2136700,-2588,-416,3416,4305.79,24.15,-1.00,-1.0,2441
1703,2136703,32767,4428,-3116,33211.34,23.97,-1.00,-1.0,2375
1708,2136708,32767,428,-3540,32960.45,24.01,-1.00,-1.0,2455
1710,2136710,12904,992,1036,12983.47,24.06,-1.00,-1.0,2368
1713,2136713,-228,-2624,1148,2873.20,24.01,-1.00,-1.0,2443
1716,2136716,32767,1496,-2140,32870.87,24.11,-1.00,-1.0,2383
1719,2136719,-3276,-76,4888,5884.77,24.01,-1.00,-1.0,2446
1721,2136721,32767,2936,-3376,33071.04,24.01,-1.00,-1.0,2371
1724,2136724,19072,1980,1944,19272.80,24.11,-1.00,-1.0,2440
1727,2136727,-1380,-2076,3212,4065.85,24.11,-1.00,-1.0,2373
1730,2136730,27376,2216,-900,27480.29,23.97,-1.00,-1.0,2362
1735,2136735,32767,4036,336,33016.34,24.11,-1.00,-1.0,2448
1737,2136737,-2340,-460,5368,5873.89,24.11,-1.00,-1.0,2369
1740,2136740,20188,-228,-2240,20313.17,23.97,-1.00,-1.0,2453
1743,2136743,4800,480,1276,4989.85,24.06,-1.00,-1.0,2372
1746,2136746,12044,-1904,-776,12218.24,24.15,-1.00,-1.0,2449
1748,2136748,32767,3084,-220,32912.55,24.06,-1.00,-1.0,2382
1751,2136751,460,-1048,2388,2648.10,24.06,-1.00,-1.0,2441
1754,2136754,32767,3288,-2272,33009.84,24.06,-1.00,-1.0,2366
1759,2136759,32767,1908,-2920,32952.13,24.06,-1.00,-1.0,2455
1762,2136762,12020,1208,2400,12316.64,24.01,-1.00,-1.0,2368
1764,2136764,3432,-1392,-792,3787.29,24.06,-1.00,-1.0,2448
1767,2136767,32767,2724,-948,32893.70,24.06,-1.00,-1.0,2372
1770,2136770,-4256,-1996,3924,6123.34,23.97,-1.00,-1.0,2441
1773,2136773,32767,1884,-4784,33167.94,24.06,-1.00,-1.0,2376
1775,2136775,15732,708,1508,15819.96,24.06,-1.00,-1.0,2367
1778,2136778,-1252,-2312,2276,3477.50,24.11,-1.00,-1.0,2440
1781,2136781,28868,3400,1360,29099.33,24.11,-1.00,-1.0,2385
1786,2136786,32767,2904,-1072,32912.89,24.01,-1.00,-1.0,2451
1788,2136788,-680,-1872,4152,4604.99,24.06,-1.00,-1.0,2368
1791,2136791,23940,-224,-3516,24197.85,24.11,-1.00,-1.0,2441
1794,2136794,1368,-788,3624,3952.94,24.06,-1.00,-1.0,2365
1797,2136797,16444,-860,-1980,16585.09,24.11,-1.00,-1.0,2440
1799,2136799,32767,4200,360,33037.04,24.06,-1.00,-1.0,2360
1802,2136802,-4380,652,3544,5671.81,24.01,-1.00,-1.0,2435
1805,2136805,32767,2828,-3904,33119.71,24.06,-1.00,-1.0,2371
1810,2136810,32767,2284,-3628,33046.26,24.06,-1.00,-1.0,2439
1813,2136813,12084,1344,3008,12525.07,24.06,-1.00,-1.0,2378
1815,2136815,2248,-644,1152,2606.79,24.11,-1.00,-1.0,2446
1818,2136818,32767,3736,-1444,33010.89,24.06,-1.00,-1.0,2373
1821,2136821,-3760,-2380,2504,5106.08,24.11,-1.00,-1.0,2363
1823,2136823,32767,1840,-4652,33146.69,24.11,-1.00,-1.0,2435
1826,2136826,14972,1560,3452,15443.79,24.11,-1.00,-1.0,2374
1829,2136829,960,-2972,860,3239.44,24.11,-1.00,-1.0,2427
1832,2136832,26072,3056,1728,26307.30,24.11,-1.00,-1.0,2381
1837,2136837,32767,4240,-772,33049.20,24.11,-1.00,-1.0,2443
1839,2136839,-3764,-452,5344,6552.12,24.01,-1.00,-1.0,2377
1842,2136842,22948,-448,-3784,23262.20,24.01,-1.00,-1.0,2431
1845,2136845,30680,2180,1400,30789.20,23.92,-1.00,-1.0,2372
1848,2136848,10856,260,-316,10863.71,24.01,-1.00,-1.0,2445
1850,2136850,32767,4348,-1132,33073.60,24.11,-1.00,-1.0,2373
1853,2136853,-768,-1392,5324,5556.30,24.11,-1.00,-1.0,2416
1856,2136856,19620,-324,-3628,19955.24,24.11,-1.00,-1.0,2375
1861,2136861,10464,-1676,-1220,10667.37,24.01,-1.00,-1.0,2452
1864,2136864,16308,2564,3344,16843.61,24.11,-1.00,-1.0,2380
1866,2136866,3400,-820,1468,3793.08,24.11,-1.00,-1.0,2443
1869,2136869,32767,3600,-3768,33178.82,24.01,-1.00,-1.0,2368
1872,2136872,-1568,-3552,3132,4988.46,24.01,-1.00,-1.0,2360
1874,2136874,32140,888,-3176,32308.75,23.97,-1.00,-1.0,2434
1877,2136877,14100,1088,1468,14217.90,24.01,-1.00,-1.0,2366
1880,2136880,3548,-1352,272,3806.60,24.06,-1.00,-1.0,2439
1883,2136883,23680,2800,3092,24044.60,24.15,-1.00,-1.0,2364
1887,2136887,30044,3208,-3048,30368.13,24.06,-1.00,-1.0,2447
1890,2136890,-3092,-2736,3524,5428.14,24.15,-1.00,-1.0,2367
1893,2136893,26428,-820,-1960,26513.26,24.06,-1.00,-1.0,2436
1896,2136896,1676,1128,4508,4939.98,24.15,-1.00,-1.0,2373
1899,2136899,14028,92,-2100,14184.61,24.06,-1.00,-1.0,2435
1901,2136901,32767,3244,-560,32931.95,24.06,-1.00,-1.0,2368
1904,2136904,-1368,-1704,4532,5031.31,24.06,-1.00,-1.0,2439
1907,2136907,32767,4280,-3028,33183.79,24.06,-1.00,-1.0,2372
1912,2136912,32767,3320,-2796,33053.23,24.11,-1.00,-1.0,2448
1914,2136914,9288,1848,3748,10184.77,24.11,-1.00,-1.0,2373
1917,2136917,5380,-1520,176,5593.37,24.11,-1.00,-1.0,2348
1920,2136920,20268,2940,876,20498.85,23.97,-1.00,-1.0,2443
1922,2136922,-3416,-1892,3816,5459.91,24.01,-1.00,-1.0,2374
1925,2136925,32767,3032,-3412,33083.39,24.06,-1.00,-1.0,2436
1928,2136928,13128,2280,3920,13889.17,24.11,-1.00,-1.0,2370
1931,2136931,1184,-1056,660,1718.31,24.11,-1.00,-1.0,2449
1934,2136934,24436,2156,208,24531.81,24.06,-1.00,-1.0,2376
1939,2136939,32767,4264,-704,33050.77,24.06,-1.00,-1.0,2451
1941,2136941,-4548,-644,5384,7077.18,24.06,-1.00,-1.0,2370
1944,2136944,26480,636,-2800,26635.22,24.11,-1.00,-1.0,2447
1947,2136947,28116,2964,1916,28336.65,24.06,-1.00,-1.0,2363
1950,2136950,-4144,216,3404,5367.18,24.01,-1.00,-1.0,2447
1952,2136952,32767,2960,-2876,33025.89,24.11,-1.00,-1.0,2372
1955,2136955,-2060,-1932,5256,5966.72,24.11,-1.00,-1.0,2367
1958,2136958,23092,-600,-3648,23386.07,24.06,-1.00,-1.0,2436
1961,2136961,26344,2096,972,26445.12,24.11,-1.00,-1.0,2375
1966,2136966,32767,5024,496,33153.62,24.01,-1.00,-1.0,2446
1969,2136969,6684,-3504,308,7553.06,24.06,-1.00,-1.0,2437
1971,2136971,32767,3128,-3812,33135.96,24.06,-1.00,-1.0,2422
1974,2136974,2136,-132,3800,4361.18,24.06,-1.00,-1.0,2378
1977,2136977,14560,-1424,-1328,14689.62,24.15,-1.00,-1.0,2436
1980,2136980,11048,2040,2872,11596.05,24.06,-1.00,-1.0,2377
1982,2136982,6044,-1288,560,6205.04,24.11,-1.00,-1.0,2430
1985,2136985,32767,4608,-2236,33164.89,24.06,-1.00,-1.0,2365
1990,2136990,32767,2724,-3144,33030.00,24.06,-1.00,-1.0,2435
1993,2136993,8764,1300,3828,9651.49,24.06,-1.00,-1.0,2376
1996,2136996,7512,-1544,-1684,7851.75,24.06,-1.00,-1.0,2432
1998,2136998,18320,2036,2132,18555.68,24.06,-1.00,-1.0,2372
2001,2137001,-1988,-2348,2424,3916.76,23.97,-1.00,-1.0,2371
2004,2137004,32767,2256,-4344,33130.59,24.01,-1.00,-1.0,2447
2006,2137006,-2968,-1748,4860,5956.86,24.01,-1.00,-1.0,2371
2009,2137009,31692,1840,-3248,31911.10,24.11,-1.00,-1.0,2434
2012,2137012,19836,2900,2980,20267.15,24.01,-1.00,-1.0,2373
2017,2137017,26148,2056,-1008,26248.07,24.06,-1.00,-1.0,2436
2020,2137020,-3904,-4004,4900,7435.27,24.11,-1.00,-1.0,2373
2022,2137022,32767,4920,-752,33142.84,24.11,-1.00,-1.0,2433
2025,2137025,-3332,-164,5116,6107.58,24.11,-1.00,-1.0,2373
2028,2137028,27384,1160,-1548,27452.24,24.01,-1.00,-1.0,2427
2031,2137031,27520,3712,1460,27807.57,24.11,-1.00,-1.0,2374
2033,2137033,15176,-2596,-2376,15578.69,24.01,-1.00,-1.0,2435
2036,2137036,32120,2456,-2692,32326.04,24.11,-1.00,-1.0,2373
2041,2137041,32767,4296,8,33047.42,24.01,-1.00,-1.0,2435
2044,2137044,3768,108,3300,5009.94,24.06,-1.00,-1.0,2373
2047,2137047,18344,-544,-2464,18516.74,24.11,-1.00,-1.0,2433
2049,2137049,8580,-604,3168,9166.10,24.01,-1.00,-1.0,2372
2052,2137052,12072,-1400,-1884,12298.07,24.01,-1.00,-1.0,2354
2055,2137055,32128,4176,-1572,32436.38,24.06,-1.00,-1.0,2449
2057,2137057,7376,-2428,696,7796.47,24.11,-1.00,-1.0,2364
2060,2137060,32767,4304,-1528,33083.77,24.15,-1.00,-1.0,2443
2063,2137063,3196,-124,3656,4857.58,24.11,-1.00,-1.0,2362
2068,2137068,9524,1168,2536,9924.82,24.11,-1.00,-1.0,2447
2071,2137071,4620,-2380,1132,5318.86,24.11,-1.00,-1.0,2365
2073,2137073,20472,3116,936,20728.93,24.15,-1.00,-1.0,2443
2076,2137076,-1664,-1720,2060,3157.67,24.11,-1.00,-1.0,2352
2079,2137079,32767,2216,-2020,32903.91,24.01,-1.00,-1.0,2426
2082,2137082,10056,424,1492,10174.92,24.11,-1.00,-1.0,2371
2084,2137084,32636,2156,-2544,32805.93,24.01,-1.00,-1.0,2435
2087,2137087,16428,3176,2456,16911.48,24.01,-1.00,-1.0,2372
2092,2137092,25792,1988,292,25870.15,24.11,-1.00,-1.0,2444
2095,2137095,-3276,-1156,1708,3871.15,24.11,-1.00,-1.0,2369
2097,2137097,32767,2820,580,32893.24,24.06,-1.00,-1.0,2362
2100,2137100,92,-460,5032,5053.82,24.06,-1.00,-1.0,2444
2103,2137103,23932,2240,-2344,24150.62,24.15,-1.00,-1.0,2368
2106,2137106,21468,2264,2320,21711.36,24.06,-1.00,-1.0,2439
2108,2137108,20392,-1248,-3080,20661.02,24.15,-1.00,-1.0,2371
2111,2137111,24688,2868,976,24873.19,24.06,-1.00,-1.0,2450
2114,2137114,-492,-1624,1800,2473.75,24.06,-1.00,-1.0,2372
2119,2137119,-2176,-1340,4508,5181.95,24.06,-1.00,-1.0,2442
2122,2137122,32767,4136,-3688,33232.28,24.06,-1.00,-1.0,2374
2124,2137124,1752,-344,4060,4435.25,24.01,-1.00,-1.0,2432
2127,2137127,17664,-1876,-2496,17937.85,24.15,-1.00,-1.0,2380
2130,2137130,32767,3812,-112,32988.18,24.15,-1.00,-1.0,2435
2133,2137133,5732,-840,-1352,5948.89,24.06,-1.00,-1.0,2379
2135,2137135,32767,2836,-1716,32934.23,24.01,-1.00,-1.0,2442
2138,2137138,2764,-500,4356,5183.09,24.11,-1.00,-1.0,2382
2141,2137141,17288,-152,-3720,17684.36,24.15,-1.00,-1.0,2365
2146,2137146,11768,-1072,-768,11841.66,24.11,-1.00,-1.0,2447
2149,2137149,32767,4348,-640,33060.41,24.11,-1.00,-1.0,2366
2151,2137151,2472,-1508,1584,3300.59,24.06,-1.00,-1.0,2441
2154,2137154,32767,2804,-4160,33148.82,24.01,-1.00,-1.0,2363
2157,2137157,5924,156,4220,7275.06,24.06,-1.00,-1.0,2437
2160,2137160,9564,-1360,-2316,9933.96,24.01,-1.00,-1.0,2385
2162,2137162,15744,472,2804,15998.71,24.06,-1.00,-1.0,2442
2165,2137165,2748,-812,396,2892.69,24.15,-1.00,-1.0,2364
2170,2137170,-2236,-2780,3680,5125.48,24.11,-1.00,-1.0,2454
2173,2137173,32767,2208,-5536,33304.64,24.11,-1.00,-1.0,2366
2176,2137176,12368,1032,4768,13295.35,24.06,-1.00,-1.0,2434
2178,2137178,30668,748,-3892,30923.02,24.11,-1.00,-1.0,2371
2181,2137181,23784,2916,1596,24015.18,24.06,-1.00,-1.0,2438
2184,2137184,-5208,-1660,4576,7128.72,24.01,-1.00,-1.0,2352
2186,2137186,32767,4004,-2156,33081.06,24.06,-1.00,-1.0,2357
2189,2137189,-4800,-1528,5136,7193.98,23.97,-1.00,-1.0,2446
2192,2137192,26944,-40,-3868,27220.25,23.97,-1.00,-1.0,2365
2197,2137197,17968,-260,-3192,18251.18,24.06,-1.00,-1.0,2443
2200,2137200,28248,2980,-812,28416.36,24.06,-1.00,-1.0,2365
2202,2137202,12556,-2964,-236,12903.26,24.06,-1.00,-1.0,2441
2205,2137205,32767,4432,-1028,33081.35,24.06,-1.00,-1.0,2365
2208,2137208,-1052,108,4544,4665.44,24.06,-1.00,-1.0,2440
2211,2137211,24644,276,-3424,24882.26,24.15,-1.00,-1.0,2385
2213,2137213,27112,3452,3080,27503.88,24.01,-1.00,-1.0,2443
2216,2137216,15208,-1780,-1744,15410.81,24.15,-1.00,-1.0,2352
2221,2137221,5832,-3052,360,6592.16,24.06,-1.00,-1.0,2447
2224,2137224,32767,3948,-1520,33038.97,24.06,-1.00,-1.0,2366
2227,2137227,2292,1260,3500,4369.31,24.06,-1.00,-1.0,2444
2229,2137229,32767,3016,-3940,33140.55,24.06,-1.00,-1.0,2369
2232,2137232,10384,1624,3592,11107.08,24.06,-1.00,-1.0,2363
2235,2137235,5636,-2052,196,6001.13,24.01,-1.00,-1.0,2442
2237,2137237,19396,2116,1128,19543.66,24.06,-1.00,-1.0,2365
2240,2137240,-908,-952,2328,2674.01,24.11,-1.00,-1.0,2442
2243,2137243,32767,3132,-1204,32938.36,24.01,-1.00,-1.0,2373
2248,2137248,31112,1296,-5016,31540.39,24.11,-1.00,-1.0,2441
2251,2137251,18692,968,1436,18772.05,24.06,-1.00,-1.0,2374
2254,2137254,1740,-2952,1880,3908.49,24.01,-1.00,-1.0,2450
2256,2137256,24964,3728,1052,25262.74,24.01,-1.00,-1.0,2374
2259,2137259,-2044,-1976,3196,4277.49,24.15,-1.00,-1.0,2445
2262,2137262,32767,1628,-2852,32931.15,24.11,-1.00,-1.0,2380
2265,2137265,16780,2824,2316,17172.86,24.06,-1.00,-1.0,2444
2267,2137267,26152,-1272,-3620,26431.98,24.11,-1.00,-1.0,2377
2272,2137272,16000,-600,-1504,16081.73,24.11,-1.00,-1.0,2440
2275,2137275,31888,3520,28,32081.70,24.01,-1.00,-1.0,2368
2278,2137278,-1212,-2108,4452,5072.76,24.06,-1.00,-1.0,2455
2280,2137280,26908,420,-3500,27137.92,24.01,-1.00,-1.0,2373
2283,2137283,516,-392,3152,3217.92,24.06,-1.00,-1.0,2368
2286,2137286,21584,-1840,-2620,21820.15,24.06,-1.00,-1.0,2431
2289,2137289,28728,4152,464,29030.20,24.15,-1.00,-1.0,2378
2291,2137291,13328,-1764,-2304,13640.22,24.06,-1.00,-1.0,2444
2294,2137294,32767,3316,-1848,32986.17,24.06,-1.00,-1.0,2359
2299,2137299,32767,2768,-4044,33131.44,24.01,-1.00,-1.0,2442
2302,2137302,5400,2400,3676,6959.38,24.06,-1.00,-1.0,2366
2304,2137304,6768,-1564,100,6947.08,24.11,-1.00,-1.0,2445
2307,2137307,17416,2160,2652,17748.68,24.01,-1.00,-1.0,2373
2310,2137310,-800,-2416,1452,2930.08,24.11,-1.00,-1.0,2430
2313,2137313,32767,2968,-4176,33165.11,24.06,-1.00,-1.0,2384
2315,2137315,6752,760,3000,7427.46,24.11,-1.00,-1.0,2431
2318,2137318,32767,1956,-3048,32966.54,24.11,-1.00,-1.0,2372
2323,2137323,29036,-1048,-5288,29532.20,24.11,-1.00,-1.0,2445
2326,2137326,24340,2416,484,24464.40,24.11,-1.00,-1.0,2375
2328,2137328,19364,-1572,-1292,19470.62,23.97,-1.00,-1.0,2364
2331,2137331,32767,4740,-240,33108.93,24.06,-1.00,-1.0,2445
2334,2137334,-3700,568,5156,6371.57,24.15,-1.00,-1.0,2377
2337,2137337,25996,124,-1768,26056.35,23.97,-1.00,-1.0,2452
2339,2137339,1212,-296,3996,4186.24,24.06,-1.00,-1.0,2380
2342,2137342,16736,-2804,-3564,17339.50,24.11,-1.00,-1.0,2445
2345,2137345,30904,3684,-1420,31155.18,24.01,-1.00,-1.0,2372
2350,2137350,32767,4560,-428,33085.54,24.11,-1.00,-1.0,2447
2353,2137353,-88,992,4308,4421.61,24.11,-1.00,-1.0,2367
2356,2137356,18528,-1272,-2912,18798.52,24.01,-1.00,-1.0,2444
2358,2137358,32644,4256,800,32929.99,24.01,-1.00,-1.0,2367
2361,2137361,8424,-3064,-1552,9097.28,24.01,-1.00,-1.0,2436
2364,2137364,32767,3856,-2776,33109.68,24.11,-1.00,-1.0,2371
2367,2137367,1116,864,4564,4777.24,24.11,-1.00,-1.0,2429
2369,2137369,14580,-1668,-1488,14750.35,24.01,-1.00,-1.0,2372
2372,2137372,10508,1972,3716,11318.81,24.11,-1.00,-1.0,2361
2377,2137377,19424,2028,3244,19797.17,24.11,-1.00,-1.0,2447
2380,2137380,-968,-2216,1836,3036.21,24.11,-1.00,-1.0,2366
2383,2137383,32767,3000,-3940,33139.10,24.11,-1.00,-1.0,2430
2385,2137385,8608,1980,4728,10018.58,24.01,-1.00,-1.0,2370
2388,2137388,32767,360,-5312,33196.73,24.11,-1.00,-1.0,2421
2391,2137391,17824,928,1460,17907.76,24.11,-1.00,-1.0,2375
2394,2137394,-3912,-3488,1588,5476.46,24.06,-1.00,-1.0,2445
2396,2137396,32767,1068,-4040,33032.39,24.11,-1.00,-1.0,2373
2401,2137401,32767,1476,-4224,33071.09,24.11,-1.00,-1.0,2444
2404,2137404,-4280,-1372,4968,6699.39,24.01,-1.00,-1.0,2377
2407,2137407,23212,-1952,-4700,23763.36,24.11,-1.00,-1.0,2441
2410,2137410,27840,2536,272,27956.59,24.11,-1.00,-1.0,2372
2412,2137412,-6576,-2852,4004,8210.34,24.11,-1.00,-1.0,2433
2415,2137415,32767,5336,-820,33208.76,24.11,-1.00,-1.0,2376
2418,2137418,-4772,1196,6364,8043.81,24.01,-1.00,-1.0,2434
2421,2137421,22520,-472,-2088,22621.52,24.01,-1.00,-1.0,2372
2423,2137423,4020,1864,4812,6541.42,24.15,-1.00,-1.0,2368
2428,2137428,16036,2384,3600,16607.13,24.06,-1.00,-1.0,2446
2431,2137431,-876,-1112,1620,2151.35,23.97,-1.00,-1.0,2366
2434,2137434,32767,4236,-2572,33139.63,24.06,-1.00,-1.0,2446
2436,2137436,7876,2072,4796,9451.25,24.06,-1.00,-1.0,2364
2439,2137439,32767,988,-5252,33199.94,24.15,-1.00,-1.0,2434
2442,2137442,16848,1408,2676,17117.20,24.15,-1.00,-1.0,2364
2445,2137445,764,-1780,352,1968.76,24.06,-1.00,-1.0,2427
2447,2137447,32767,2644,-2476,32966.61,24.11,-1.00,-1.0,2374
2452,2137452,30932,2788,-3720,31279.38,24.11,-1.00,-1.0,2443
2455,2137455,288,-1680,3728,4099.19,24.11,-1.00,-1.0,2377
2458,2137458,27444,-288,-3400,27655.31,24.06,-1.00,-1.0,2433
2461,2137461,21504,3396,1880,21851.53,24.11,-1.00,-1.0,2376
2463,2137463,20976,-1436,-4080,21417.31,24.06,-1.00,-1.0,2359
2466,2137466,30268,4264,360,30568.99,24.06,-1.00,-1.0,2439
2469,2137469,-3660,-1648,5392,6721.99,23.97,-1.00,-1.0,2362
2471,2137471,28120,-504,-4556,28491.15,24.06,-1.00,-1.0,2440
2474,2137474,21612,1400,1236,21692.54,24.11,-1.00,-1.0,2368
2479,2137479,30820,4836,1676,31242.09,24.11,-1.00,-1.0,2444
2482,2137482,10200,-2036,-2604,10722.23,24.15,-1.00,-1.0,2359
2485,2137485,32767,2972,-2360,32986.04,24.01,-1.00,-1.0,2455
2487,2137487,-600,-1276,4840,5041.21,24.06,-1.00,-1.0,2372
2490,2137490,20400,-1676,-4816,21027.67,24.01,-1.00,-1.0,2442
2493,2137493,6304,628,5536,8413.21,24.11,-1.00,-1.0,2373
2496,2137496,13280,-1568,-2860,13674.67,24.11,-1.00,-1.0,2441
2498,2137498,32767,4928,-532,33139.77,24.06,-1.00,-1.0,2372
2504,2137504,32767,3300,-4728,33270.41,24.06,-1.00,-1.0,2441
2507,2137507,4000,232,5104,6488.81,24.06,-1.00,-1.0,2374
2510,2137510,11128,-2032,-3436,11822.33,24.11,-1.00,-1.0,2438
2512,2137512,32767,2912,-480,32899.64,24.06,-1.00,-1.0,2372
2515,2137515,2840,-2076,32,3518.01,24.01,-1.00,-1.0,2359
2518,2137518,32767,4164,-3208,33185.94,24.01,-1.00,-1.0,2436
2520,2137520,4980,1400,4400,6791.20,24.06,-1.00,-1.0,2373
2523,2137523,11912,-2232,-2416,12357.78,24.11,-1.00,-1.0,2431
2526,2137526,12716,1676,5140,13817.57,24.11,-1.00,-1.0,2376
2531,2137531,20916,2368,2416,21187.82,24.06,-1.00,-1.0,2444
2534,2137534,-1800,-2632,1524,3534.12,24.11,-1.00,-1.0,2387
2536,2137536,32767,2408,-3764,33070.27,24.06,-1.00,-1.0,2449
2539,2137539,-6236,-2168,5112,8349.88,24.06,-1.00,-1.0,2366
2542,2137542,32736,996,-5536,33215.73,24.06,-1.00,-1.0,2438
2545,2137545,22296,2316,4600,22883.08,24.06,-1.00,-1.0,2367
2547,2137547,-2876,-68,1112,3084.24,24.06,-1.00,-1.0,2441
2550,2137550,29304,3060,-808,29474.41,24.06,-1.00,-1.0,2367
2555,2137555,32767,5124,-1228,33187.95,24.06,-1.00,-1.0,2458
2558,2137558,-1724,-204,6196,6434.61,24.11,-1.00,-1.0,2374
2561,2137561,24480,752,-3448,24733.07,24.15,-1.00,-1.0,2455
2563,2137563,28012,4212,3208,28507.97,24.06,-1.00,-1.0,2375
2566,2137566,13820,-3364,-1576,14310.58,23.97,-1.00,-1.0,2363
2569,2137569,32767,3424,-4128,33203.02,24.11,-1.00,-1.0,2452
2571,2137571,-1884,-2728,5188,6156.85,24.06,-1.00,-1.0,2369
2574,2137574,21252,-1196,-4064,21670.12,24.11,-1.00,-1.0,2431
2577,2137577,6112,1120,4464,7651.03,24.06,-1.00,-1.0,2371
2582,2137582,11368,888,2500,11673.47,24.06,-1.00,-1.0,2452
2585,2137585,11376,-3212,-1708,11943.52,24.15,-1.00,-1.0,2376
2587,2137587,30772,4084,-2160,31116.89,24.06,-1.00,-1.0,2445
2590,2137590,6868,-2428,-492,7301.14,24.06,-1.00,-1.0,2354
2593,2137593,32767,3812,-1020,33003.76,24.11,-1.00,-1.0,2438
2596,2137596,4788,800,4248,6450.62,24.06,-1.00,-1.0,2378
2598,2137598,14084,-1976,-3580,14665.61,24.06,-1.00,-1.0,2440
2601,2137601,11728,2308,3116,12352.42,24.06,-1.00,-1.0,2353
2606,2137606,19432,2200,1952,19653.32,24.15,-1.00,-1.0,2458
2609,2137609,1288,-2448,652,2841.96,23.97,-1.00,-1.0,2376
2611,2137611,32767,2944,-1996,32959.48,24.06,-1.00,-1.0,2362
2614,2137614,9304,1364,2944,9853.53,24.11,-1.00,-1.0,2444
2617,2137617,32568,1148,-3600,32786.47,24.11,-1.00,-1.0,2367
2620,2137620,15644,3484,2436,16211.33,24.11,-1.00,-1.0,2433
2622,2137622,2428,-1896,1576,3460.31,24.01,-1.00,-1.0,2375
2625,2137625,32767,3964,-1960,33064.05,24.01,-1.00,-1.0,2433
2628,2137628,-2936,-2908,2200,4681.51,24.01,-1.00,-1.0,2361
2633,2137633,-888,440,3852,3977.44,24.20,-1.00,-1.0,2436
2636,2137636,25908,1440,-1052,25969.30,24.06,-1.00,-1.0,2382
2638,2137638,22820,3756,2760,23291.15,24.11,-1.00,-1.0,2446
2641,2137641,2624,-2268,752,3548.90,24.01,-1.00,-1.0,2366
2644,2137644,25296,1848,856,25377.85,24.20,-1.00,-1.0,2435
2647,2137647,1656,-2736,2304,3941.63,24.11,-1.00,-1.0,2365
2649,2137649,28212,388,-3284,28405.14,24.01,-1.00,-1.0,2439
2652,2137652,17460,2540,1760,17731.35,24.01,-1.00,-1.0,2355
2655,2137655,24468,220,-2380,24584.46,24.11,-1.00,-1.0,2367
2660,2137660,15644,-2612,-3364,16213.38,24.11,-1.00,-1.0,2449
2662,2137662,32444,2248,-1140,32541.76,24.01,-1.00,-1.0,2374
2665,2137665,-1920,-496,3648,4152.15,24.06,-1.00,-1.0,2440
2668,2137668,32767,4004,-1632,33051.05,24.01,-1.00,-1.0,2367
2671,2137671,3304,320,5284,6240.15,24.06,-1.00,-1.0,2436
2673,2137673,16740,-1452,-3084,17083.53,24.11,-1.00,-1.0,2368
2676,2137676,29748,3156,128,29915.22,24.06,-1.00,-1.0,2437
2679,2137679,11136,-1472,-2556,11520.00,24.11,-1.00,-1.0,2368
2684,2137684,4760,-2928,264,5594.68,24.01,-1.00,-1.0,2450
2687,2137687,31668,3484,-3172,32016.59,24.15,-1.00,-1.0,2369
2689,2137689,9084,180,4360,10077.75,24.11,-1.00,-1.0,2451
2692,2137692,14284,-2344,-3208,14826.27,24.11,-1.00,-1.0,2382
2695,2137695,12720,2436,4676,13769.44,24.11,-1.00,-1.0,2436
2698,2137698,11964,-2012,-3076,12515.88,24.11,-1.00,-1.0,2384
2700,2137700,31000,3632,84,31212.15,24.11,-1.00,-1.0,2443
2703,2137703,4404,1484,4148,6229.24,24.11,-1.00,-1.0,2368
2706,2137706,32767,2844,-4040,33137.38,24.15,-1.00,-1.0,2367
2710,2137710,32556,3476,-2412,32829.77,24.06,-1.00,-1.0,2448
2713,2137713,15424,3048,4700,16409.76,24.06,-1.00,-1.0,2368
2716,2137716,808,-1460,-980,1935.17,24.01,-1.00,-1.0,2438
2719,2137719,24892,1952,-108,24968.65,24.06,-1.00,-1.0,2372
2722,2137722,-4516,-3680,4500,7361.16,24.11,-1.00,-1.0,2436
2724,2137724,32767,2536,-5688,33353.57,24.15,-1.00,-1.0,2367
2727,2137727,16804,584,3280,17131.08,24.01,-1.00,-1.0,2435
2730,2137730,25324,1340,-760,25370.81,24.06,-1.00,-1.0,2386
2735,2137735,17976,-3336,-3008,18528.72,24.01,-1.00,-1.0,2446
2737,2137737,28356,3084,-1512,28563.26,24.06,-1.00,-1.0,2368
2740,2137740,-124,-2264,4368,4921.43,24.11,-1.00,-1.0,2455
2743,2137743,31708,3764,372,31932.79,24.01,-1.00,-1.0,2375
2746,2137746,2236,120,3708,4331.67,24.11,-1.00,-1.0,2450
2748,2137748,22448,-992,-2524,22611.22,24.11,-1.00,-1.0,2380
2751,2137751,5140,1756,5032,7404.33,24.15,-1.00,-1.0,2363
2754,2137754,15740,-2352,-2672,16137.51,24.06,-1.00,-1.0,2447
2757,2137757,32236,3972,-808,32489.83,24.11,-1.00,-1.0,2386
2762,2137762,32767,2720,-2372,32965.15,24.11,-1.00,-1.0,2451
2764,2137764,3228,584,4236,5357.68,24.11,-1.00,-1.0,2372
2767,2137767,13824,-2452,-2988,14354.21,24.15,-1.00,-1.0,2450
2770,2137770,11832,3596,4360,13112.48,24.11,-1.00,-1.0,2369
2773,2137773,7364,-3140,-460,8018.71,24.06,-1.00,-1.0,2448
2775,2137775,32767,4308,-2432,33138.34,24.01,-1.00,-1.0,2382
2778,2137778,3520,1060,6156,7170.10,24.06,-1.00,-1.0,2442
2781,2137781,32767,2740,-3172,33034.00,24.06,-1.00,-1.0,2368
2786,2137786,32767,3008,-1476,32937.86,24.15,-1.00,-1.0,2454
2789,2137789,17072,4100,4416,18104.26,24.01,-1.00,-1.0,2368
2791,2137791,2132,-3428,-772,4110.06,24.15,-1.00,-1.0,2439
2794,2137794,32767,2824,-3484,33072.49,24.06,-1.00,-1.0,2390
2797,2137797,-836,-3504,388,3623.18,24.06,-1.00,-1.0,2361
2799,2137799,31648,1144,-2860,31797.55,24.15,-1.00,-1.0,2433
2802,2137802,16420,3216,2384,16900.96,24.06,-1.00,-1.0,2374
2805,2137805,25760,1364,-2668,25933.69,23.97,-1.00,-1.0,2414
2808,2137808,23708,2780,3268,24093.10,24.06,-1.00,-1.0,2373
2813,2137813,27372,2412,384,27480.75,24.06,-1.00,-1.0,2440
2815,2137815,-352,-2096,2272,3111.13,24.06,-1.00,-1.0,2382
2818,2137818,28080,388,-1968,28151.55,24.06,-1.00,-1.0,2442
2821,2137821,1240,-68,3908,4100.57,24.06,-1.00,-1.0,2374
2824,2137824,21548,-380,-3236,21792.94,24.06,-1.00,-1.0,2438
2826,2137826,26780,2712,1976,26989.40,24.15,-1.00,-1.0,2384
2829,2137829,444,-2044,2188,3026.95,24.15,-1.00,-1.0,2428
2832,2137832,30532,3316,-224,30712.36,24.15,-1.00,-1.0,2376
2837,2137837,32767,2824,-1744,32934.68,24.06,-1.00,-1.0,2456
2840,2137840,5588,268,4480,7167.15,24.06,-1.00,-1.0,2369
2842,2137842,17768,-356,-2940,18013.11,24.15,-1.00,-1.0,2362
2845,2137845,26084,2720,1468,26266.49,24.11,-1.00,-1.0,2438
2848,2137848,14036,-1540,-1640,14215.15,24.06,-1.00,-1.0,2365
2850,2137850,28544,4100,-212,28837.73,24.20,-1.00,-1.0,2440
2853,2137853,3132,-676,4364,5413.95,24.06,-1.00,-1.0,2367
2856,2137856,24016,56,-3736,24304.92,24.11,-1.00,-1.0,2434
2859,2137859,4360,1132,4948,6691.32,24.20,-1.00,-1.0,2369
2864,2137864,11464,3688,4988,13034.75,24.01,-1.00,-1.0,2442
2866,2137866,7592,-2892,-1428,8248.72,24.11,-1.00,-1.0,2375
2869,2137869,32132,2412,-2420,32313.15,24.01,-1.00,-1.0,2443
2872,2137872,6416,-460,3700,7420.69,24.01,-1.00,-1.0,2367
2875,2137875,30780,3340,-2428,31055.74,24.01,-1.00,-1.0,2435
2877,2137877,10436,2024,4360,11489.83,24.11,-1.00,-1.0,2371
2880,2137880,12876,-1628,-1792,13101.64,24.01,-1.00,-1.0,2435
2883,2137883,30432,3800,428,30671.32,24.11,-1.00,-1.0,2371
2886,2137886,6900,-3712,-2796,8319.05,24.11,-1.00,-1.0,2364
2891,2137891,436,-3892,1704,4270.99,24.11,-1.00,-1.0,2447
2893,2137893,32767,2988,-3844,33126.74,24.11,-1.00,-1.0,2371
2896,2137896,13288,2264,4716,14280.66,24.11,-1.00,-1.0,2439
2899,2137899,5500,-2016,-1212,5981.91,24.11,-1.00,-1.0,2367
2902,2137902,20580,2864,2108,20884.98,24.01,-1.00,-1.0,2427
2904,2137904,3024,-3884,300,4931.53,24.11,-1.00,-1.0,2374
2907,2137907,32767,4256,-3132,33190.35,24.11,-1.00,-1.0,2421
2910,2137910,10444,2732,5716,12215.30,24.11,-1.00,-1.0,2375
2915,2137915,1156,-976,2296,2749.64,24.06,-1.00,-1.0,2455
2917,2137917,24976,36,-1608,25027.73,24.20,-1.00,-1.0,2367
2920,2137920,23312,3464,1440,23611.91,24.06,-1.00,-1.0,2442
2923,2137923,2800,-3304,1284,4517.20,24.06,-1.00,-1.0,2365
2926,2137926,26928,2904,1876,27149.03,24.06,-1.00,-1.0,2443
2928,2137928,-488,-1964,2124,2933.74,24.01,-1.00,-1.0,2366
2931,2137931,28564,324,-3984,28842.32,24.06,-1.00,-1.0,2360
2934,2137934,648,108,3568,3627.97,24.01,-1.00,-1.0,2452
2937,2137937,20708,-628,-316,20719.93,24.06,-1.00,-1.0,2379
2942,2137942,12660,-1628,-3128,13141.93,24.06,-1.00,-1.0,2451
2944,2137944,29968,2424,-192,30066.49,24.15,-1.00,-1.0,2375
2947,2137947,3368,-2108,3972,5618.17,24.01,-1.00,-1.0,2446
2950,2137950,23140,-44,-4440,23562.15,24.15,-1.00,-1.0,2373
2953,2137953,21464,1756,900,21554.51,24.01,-1.00,-1.0,2441
2955,2137955,18752,-1204,-224,18791.95,24.06,-1.00,-1.0,2374
2958,2137958,28572,4104,852,28877.81,24.11,-1.00,-1.0,2447
2961,2137961,-56,-960,3240,3379.69,24.06,-1.00,-1.0,2381
2966,2137966,2308,-384,3952,4592.67,24.06,-1.00,-1.0,2436
2969,2137969,32767,3464,-1132,32969.03,24.06,-1.00,-1.0,2381
2971,2137971,6508,2444,3644,7848.94,24.11,-1.00,-1.0,2367
2974,2137974,12760,-1836,-896,12922.51,24.01,-1.00,-1.0,2446
2977,2137977,32767,3912,-212,33000.38,24.11,-1.00,-1.0,2383
2980,2137980,6396,-2132,-2236,7103.09,24.11,-1.00,-1.0,2450
2982,2137982,32767,3012,-1092,32923.26,24.11,-1.00,-1.0,2373
2985,2137985,5736,1244,4452,7366.79,23.97,-1.00,-1.0,2436
2988,2137988,16020,-1232,-2552,16268.71,24.01,-1.00,-1.0,2354
2993,2137993,11396,-3008,-1860,11932.16,24.11,-1.00,-1.0,2452
2995,2137995,15188,3268,5060,16338.87,24.15,-1.00,-1.0,2367
2998,2137998,9064,-2284,-2108,9582.09,24.01,-1.00,-1.0,2451
3001,2138001,31412,3448,-1108,31620.09,24.25,-1.00,-1.0,2368
3004,2138004,6816,2072,5368,8920.00,24.11,-1.00,-1.0,2442
3006,2138006,32052,2152,-3896,32359.55,24.11,-1.00,-1.0,2373
3009,2138009,10960,2324,3424,11715.22,24.11,-1.00,-1.0,2448
3012,2138012,7768,-4296,-1348,8978.56,24.11,-1.00,-1.0,2382
3017,2138017,3264,-1408,-2288,4227.42,24.06,-1.00,-1.0,2434
3020,2138020,24136,1412,1096,24202.10,24.06,-1.00,-1.0,2380
3022,2138022,3896,-4140,-168,5687.41,24.11,-1.00,-1.0,2366
3025,2138025,27472,2504,-1860,27648.52,24.15,-1.00,-1.0,2444
3028,2138028,13752,3020,3672,14550.65,24.01,-1.00,-1.0,2383
3031,2138031,27184,3032,-3012,27517.90,24.06,-1.00,-1.0,2451
3033,2138033,18484,3040,5976,19662.46,23.97,-1.00,-1.0,2372
3036,2138036,3304,-3044,-1468,4726.24,24.15,-1.00,-1.0,2435
3039,2138039,32520,2900,-3552,32841.70,24.06,-1.00,-1.0,2361
3044,2138044,30084,2732,-2080,30279.32,24.01,-1.00,-1.0,2457
3047,2138047,1416,-1368,2608,3267.74,24.11,-1.00,-1.0,2365
3049,2138049,23592,1924,-3656,23951.00,24.06,-1.00,-1.0,2451
3052,2138052,22444,1832,3940,22860.73,24.11,-1.00,-1.0,2373
3055,2138055,4936,-2828,-1208,5815.58,24.06,-1.00,-1.0,2422
3057,2138057,24836,2744,196,24987.89,24.11,-1.00,-1.0,2365
3060,2138060,3576,-2812,1940,4945.58,24.06,-1.00,-1.0,2447
3063,2138063,27316,2512,-2200,27519.34,24.11,-1.00,-1.0,2366
3068,2138068,24384,976,-3180,24609.84,24.06,-1.00,-1.0,2441
3071,2138071,24500,3240,1972,24791.86,24.15,-1.00,-1.0,2364
3073,2138073,17112,-1232,-276,17158.51,24.01,-1.00,-1.0,2360
3076,2138076,29036,2896,-96,29180.22,24.15,-1.00,-1.0,2459
3079,2138079,380,-2328,1744,2933.52,24.11,-1.00,-1.0,2375
3082,2138082,32024,2188,-764,32107.75,24.06,-1.00,-1.0,2451
3084,2138084,4176,-484,2844,5075.59,24.06,-1.00,-1.0,2382
3087,2138087,19712,280,-2196,19835.92,24.06,-1.00,-1.0,2441
3090,2138090,26492,3316,2132,26783.71,24.06,-1.00,-1.0,2366
3095,2138095,29684,2492,-528,29793.10,24.06,-1.00,-1.0,2445
3098,2138098,8196,-2876,-1644,8840.17,24.06,-1.00,-1.0,2375
3100,2138100,31736,3312,-1752,31956.42,24.06,-1.00,-1.0,2447
3103,2138103,6388,876,4200,7695.06,24.25,-1.00,-1.0,2356
3106,2138106,16984,632,-1048,17028.04,24.06,-1.00,-1.0,2437
3109,2138109,9552,1196,3604,10279.10,24.06,-1.00,-1.0,2377
3111,2138111,12092,-2344,-2012,12480.34,24.11,-1.00,-1.0,2441
3114,2138114,30180,2744,-800,30315.04,23.97,-1.00,-1.0,2368
3117,2138117,4644,-1720,3308,5955.50,24.06,-1.00,-1.0,2369
3122,2138122,7928,2108,3160,8791.04,24.11,-1.00,-1.0,2455
3124,2138124,32496,1464,-2004,32590.63,24.01,-1.00,-1.0,2367
3127,2138127,11656,2508,4012,12579.69,24.15,-1.00,-1.0,2442
3130,2138130,8164,-3244,-3240,9363.33,24.11,-1.00,-1.0,2365
3133,2138133,32767,2160,-776,32847.29,24.06,-1.00,-1.0,2447
3135,2138135,3212,-2116,-1412,4097.33,24.01,-1.00,-1.0,2366
3138,2138138,32767,2704,-2036,32941.36,24.06,-1.00,-1.0,2439
3141,2138141,8108,1644,4140,9251.05,24.01,-1.00,-1.0,2376
3146,2138146,13716,2568,5540,15013.82,24.06,-1.00,-1.0,2454
3149,2138149,27860,1768,-3936,28192.15,24.15,-1.00,-1.0,2375
3151,2138151,20436,2700,3080,20842.42,23.97,-1.00,-1.0,2442
3154,2138154,-228,-3536,712,3614.17,24.06,-1.00,-1.0,2381
3157,2138157,32767,2288,-4436,33144.97,24.06,-1.00,-1.0,2419
3160,2138160,-716,-3544,3048,4728.94,24.06,-1.00,-1.0,2379
3162,2138162,27964,2980,-3656,28358.98,24.11,-1.00,-1.0,2364
3165,2138165,19364,2980,4936,20204.18,24.06,-1.00,-1.0,2431
3168,2138168,4252,-2500,-744,4988.29,24.06,-1.00,-1.0,2364
3173,2138173,352,-3948,1368,4193.09,24.06,-1.00,-1.0,2448
3176,2138176,31000,2320,-4592,31424.02,24.20,-1.00,-1.0,2367
3178,2138178,536,-1776,2908,3449.34,24.15,-1.00,-1.0,2438
3181,2138181,26976,1052,-2344,27098.07,24.11,-1.00,-1.0,2366
3184,2138184,22212,3488,3004,22683.98,24.06,-1.00,-1.0,2448
3187,2138187,-1472,-2152,308,2625.41,24.11,-1.00,-1.0,2373
3189,2138189,30140,3512,28,30343.94,24.06,-1.00,-1.0,2432
3192,2138192,-1636,-3212,4296,5607.95,24.01,-1.00,-1.0,2373
3197,2138197,3792,-1108,1996,4426.17,24.11,-1.00,-1.0,2436
3200,2138200,20952,628,-900,20980.72,24.11,-1.00,-1.0,2377
3202,2138202,7080,-660,3532,7939.59,24.06,-1.00,-1.0,2369
3205,2138205,18628,-1636,-3592,19041.57,24.15,-1.00,-1.0,2439
3208,2138208,26088,3892,268,26378.08,24.06,-1.00,-1.0,2364
3211,2138211,-100,-1704,4088,4430.05,24.06,-1.00,-1.0,2447
3213,2138213,32280,3396,-256,32459.15,24.15,-1.00,-1.0,2365
3216,2138216,2564,-816,3000,4029.88,24.11,-1.00,-1.0,2443
3219,2138219,19132,-292,-2444,19289.68,24.15,-1.00,-1.0,2374
3224,2138224,11796,-716,-392,11824.21,24.06,-1.00,-1.0,2442
3227,2138227,29768,4576,-96,30117.82,24.06,-1.00,-1.0,2372
3230,2138230,3304,-1852,3480,5143.61,24.11,-1.00,-1.0,2444
3232,2138232,31040,2788,-1140,31185.80,24.15,-1.00,-1.0,2368
3235,2138235,5460,-72,3120,6288.97,24.11,-1.00,-1.0,2454
3238,2138238,17232,-1092,-2136,17398.18,24.15,-1.00,-1.0,2374
3241,2138241,30156,3448,220,30353.28,24.01,-1.00,-1.0,2447
3243,2138243,9824,-2224,-104,10073.13,24.11,-1.00,-1.0,2382
3246,2138246,32767,3900,-2740,33111.84,24.11,-1.00,-1.0,2367
3251,2138251,32767,2440,-2604,32960.75,24.11,-1.00,-1.0,2439
3254,2138254,8512,1892,3096,9253.05,24.06,-1.00,-1.0,2380
3257,2138257,9740,-1112,528,9817.48,24.11,-1.00,-1.0,2432
3259,2138259,16620,2912,3116,17158.48,24.11,-1.00,-1.0,2376
3262,2138262,5440,-3348,-1032,6470.53,24.11,-1.00,-1.0,2448
3265,2138265,30464,1652,-2884,30644.77,24.06,-1.00,-1.0,2380
3268,2138268,8792,-296,3384,9425.41,24.11,-1.00,-1.0,2441
3270,2138270,28924,2412,-1360,29056.24,24.11,-1.00,-1.0,2377
3275,2138275,27844,764,-2420,27959.41,24.01,-1.00,-1.0,2441
3278,2138278,17572,2788,3840,18201.48,24.06,-1.00,-1.0,2374
3281,2138281,6448,-3096,-2464,7565.26,24.01,-1.00,-1.0,2438
3283,2138283,30132,1884,-2152,30267.44,24.01,-1.00,-1.0,2378
3286,2138286,4508,-2404,168,5111.70,24.11,-1.00,-1.0,2435
3289,2138289,29124,2500,-1252,29257.90,24.11,-1.00,-1.0,2383
3292,2138292,14112,3044,2652,14678.13,24.01,-1.00,-1.0,2371
3294,2138294,27212,476,-3008,27381.88,24.06,-1.00,-1.0,2444
3297,2138297,18548,2936,3944,19188.63,24.15,-1.00,-1.0,2360
3302,2138302,25648,2836,3260,26009.43,24.06,-1.00,-1.0,2457
3305,2138305,-1280,-1148,1332,2174.98,24.11,-1.00,-1.0,2374
3308,2138308,28604,764,-2036,28686.54,24.06,-1.00,-1.0,2453
3310,2138310,1684,-2440,2736,4034.25,24.15,-1.00,-1.0,2376
3313,2138313,22076,1512,-3232,22362.51,24.06,-1.00,-1.0,2443
3316,2138316,22708,2492,4684,23319.59,24.11,-1.00,-1.0,2355
3319,2138319,5620,-1784,-1288,6035.40,24.15,-1.00,-1.0,2449
3321,2138321,24756,3984,2220,25172.61,23.97,-1.00,-1.0,2383
3327,2138327,27368,1068,-3060,27559.24,24.11,-1.00,-1.0,2455
3330,2138330,18548,3032,2736,18992.29,24.06,-1.00,-1.0,2363
3332,2138332,3140,-3944,-344,5053.03,24.11,-1.00,-1.0,2440
3335,2138335,26012,3108,3864,26480.45,24.11,-1.00,-1.0,2366
3338,2138338,1752,-1376,0,2227.75,24.11,-1.00,-1.0,2436
3341,2138341,26708,1328,-2072,26821.15,24.06,-1.00,-1.0,2364
3343,2138343,2980,-3132,1480,4569.49,24.20,-1.00,-1.0,2379
3346,2138346,22828,368,-2908,23015.42,24.15,-1.00,-1.0,2446
3349,2138349,21972,3460,3152,22464.98,24.06,-1.00,-1.0,2374
3354,2138354,27840,3536,3212,28246.87,24.06,-1.00,-1.0,2441
3356,2138356,11132,-2484,-1784,11544.45,24.06,-1.00,-1.0,2369
3359,2138359,32767,2660,-2404,32962.57,24.01,-1.00,-1.0,2425
3362,2138362,928,-1156,3380,3690.79,23.97,-1.00,-1.0,2370
3365,2138365,20204,-952,-2524,20383.29,23.97,-1.00,-1.0,2441
3367,2138367,5968,1436,6164,8699.08,24.15,-1.00,-1.0,2352
3370,2138370,11508,-804,-2868,11887.22,24.01,-1.00,-1.0,2435
3373,2138373,32767,2464,-136,32859.79,23.97,-1.00,-1.0,2370
3378,2138378,32767,3208,-4744,33263.69,24.06,-1.00,-1.0,2447
3381,2138381,5536,1324,5148,7674.78,24.06,-1.00,-1.0,2377
3384,2138384,11308,-956,-700,11369.91,24.06,-1.00,-1.0,2453
3386,2138386,14860,2420,4496,15712.73,24.06,-1.00,-1.0,2382
3389,2138389,2392,-2284,-1592,3670.53,24.06,-1.00,-1.0,2364
3392,2138392,32767,1768,-2524,32911.59,24.11,-1.00,-1.0,2436
3394,2138394,8468,748,3748,9290.53,24.11,-1.00,-1.0,2359
3397,2138397,32568,2904,-4304,32979.27,24.11,-1.00,-1.0,2436
3400,2138400,14796,2752,4496,15706.98,24.15,-1.00,-1.0,2369
3405,2138405,20640,3076,4240,21294.34,24.15,-1.00,-1.0,2454
3408,2138408,916,-3104,-216,3243.54,24.15,-1.00,-1.0,2376
3410,2138410,32767,1596,-4596,33126.22,24.01,-1.00,-1.0,2447
3413,2138413,-2892,-3120,5104,6644.46,24.15,-1.00,-1.0,2383
3416,2138416,31416,1980,-4780,31839.19,24.11,-1.00,-1.0,2435
3419,2138419,21256,3284,3856,21851.11,24.15,-1.00,-1.0,2384
3421,2138421,-3568,-1208,1704,4134.43,24.11,-1.00,-1.0,2437
3424,2138424,30068,3188,-580,30242.10,24.06,-1.00,-1.0,2353
3429,2138429,32767,4352,-1628,33094.81,24.06,-1.00,-1.0,2464
3432,2138432,-972,-484,5524,5629.71,24.15,-1.00,-1.0,2374
3434,2138434,22120,84,-2060,22215.87,24.11,-1.00,-1.0,2369
3437,2138437,4056,1712,2376,5002.74,24.11,-1.00,-1.0,2428
3440,2138440,12344,-3556,-1396,12921.62,24.01,-1.00,-1.0,2367
3443,2138443,32767,4248,-720,33049.06,24.11,-1.00,-1.0,2439
3445,2138445,-480,260,3296,3340.90,24.01,-1.00,-1.0,2353
3448,2138448,32767,2572,-1904,32922.89,24.11,-1.00,-1.0,2435
3451,2138451,5288,1292,5324,7614.27,24.11,-1.00,-1.0,2381
3456,2138456,14336,2348,3496,14941.75,24.11,-1.00,-1.0,2443
3459,2138459,1932,-3584,408,4091.96,24.06,-1.00,-1.0,2378
3461,2138461,32767,3540,-2856,33081.18,24.11,-1.00,-1.0,2438
3464,2138464,-2644,-1928,1836,3752.17,24.11,-1.00,-1.0,2375
3467,2138467,32767,2408,-3992,33096.99,24.11,-1.00,-1.0,2435
3470,2138470,13088,2612,5528,14445.66,24.15,-1.00,-1.0,2379
3472,2138472,1164,-2992,-1976,3769.82,24.11,-1.00,-1.0,2438
3475,2138475,23304,2732,1152,23491.86,24.01,-1.00,-1.0,2369
3478,2138478,-8296,-3704,2748,9491.82,24.15,-1.00,-1.0,2374
3483,2138483,-9196,-1716,6020,11124.36,24.15,-1.00,-1.0,2447
3485,2138485,27892,-320,-5444,28420.12,24.11,-1.00,-1.0,2366
3488,2138488,-1736,528,3820,4229.05,24.15,-1.00,-1.0,2439
3491,2138491,13256,-4016,-1684,13952.98,24.11,-1.00,-1.0,2365
3494,2138494,32767,4624,-2100,33158.22,24.06,-1.00,-1.0,2434
3496,2138496,-5548,-188,6368,8447.90,24.11,-1.00,-1.0,2378
3499,2138499,32767,3240,-2644,33032.78,24.06,-1.00,-1.0,2430
3502,2138502,2488,1764,4296,5268.53,24.06,-1.00,-1.0,2373
3507,2138507,15280,2828,3700,15973.92,24.11,-1.00,-1.0,2427
3510,2138510,-1260,-2388,108,2702.19,24.11,-1.00,-1.0,2380
3512,2138512,32767,3084,-2712,33023.36,24.11,-1.00,-1.0,2439
3515,2138515,-3448,-2508,3492,5511.16,24.11,-1.00,-1.0,2388
3518,2138518,32767,3232,-4312,33207.16,24.11,-1.00,-1.0,2430
3521,2138521,15500,2768,3256,16078.35,24.11,-1.00,-1.0,2386
3523,2138523,-264,-3936,1296,4152.28,23.97,-1.00,-1.0,2435
3526,2138526,25812,4928,1720,26334.44,24.01,-1.00,-1.0,2367
3529,2138529,-3856,-1844,2968,5203.66,24.15,-1.00,-1.0,2371
3534,2138534,-4376,-1580,4596,6539.80,24.15,-1.00,-1.0,2449
3536,2138536,32767,4060,-1508,33051.99,24.06,-1.00,-1.0,2366
3539,2138539,1996,1692,3604,4453.73,24.11,-1.00,-1.0,2438
3542,2138542,13292,-3084,-520,13654.99,24.06,-1.00,-1.0,2373
3545,2138545,32767,4776,-1296,33138.59,24.11,-1.00,-1.0,2436
3547,2138547,5132,-2184,-2236,6008.91,24.06,-1.00,-1.0,2366
3550,2138550,32767,3032,-1884,32960.87,24.11,-1.00,-1.0,2435
3553,2138553,2372,1436,4396,5197.43,24.06,-1.00,-1.0,2384
3558,2138558,13536,3524,2380,14188.24,24.11,-1.00,-1.0,2456
3560,2138560,-2548,-2836,2732,4690.31,24.11,-1.00,-1.0,2372
3563,2138563,26500,3048,1480,26715.74,23.97,-1.00,-1.0,2433
3566,2138566,-7932,-2004,2904,8681.35,24.11,-1.00,-1.0,2373
3569,2138569,32767,796,-3304,32942.77,24.15,-1.00,-1.0,2448
3571,2138571,20408,2540,1472,20618.07,24.11,-1.00,-1.0,2387
3574,2138574,24576,-924,-2032,24677.17,24.06,-1.00,-1.0,2363
3577,2138577,31552,4456,-456,31868.36,24.06,-1.00,-1.0,2453
3579,2138579,-9380,-2088,5960,11307.77,24.06,-1.00,-1.0,2377
3584,2138584,-4588,984,4360,6405.28,24.06,-1.00,-1.0,2431
3587,2138587,32767,2060,-2668,32939.92,24.06,-1.00,-1.0,2377
3590,2138590,5516,2896,4220,7524.72,24.15,-1.00,-1.0,2431
3593,2138593,2424,-3308,-844,4187.00,24.06,-1.00,-1.0,2373
3595,2138595,32767,3684,-3516,33160.38,24.06,-1.00,-1.0,2431
3598,2138598,-700,1868,6592,6887.23,24.11,-1.00,-1.0,2427
3601,2138601,32767,1252,-4472,33094.45,24.06,-1.00,-1.0,2440
3604,2138604,13536,2376,620,13756.93,24.06,-1.00,-1.0,2368
3609,2138609,29560,4556,624,29915.55,24.06,-1.00,-1.0,2448
3611,2138611,-10148,-1076,4552,11174.09,24.11,-1.00,-1.0,2368
3614,2138614,32767,1308,-3548,32984.47,24.15,-1.00,-1.0,2447
3617,2138617,-7652,-884,4796,9073.93,24.11,-1.00,-1.0,2376
3620,2138620,23192,-2044,-3476,23539.95,24.06,-1.00,-1.0,2364
3622,2138622,32767,3284,-1480,32964.39,24.06,-1.00,-1.0,2442
3625,2138625,7044,-2332,184,7422.26,24.15,-1.00,-1.0,2366
3628,2138628,32767,4704,-1880,33156.27,24.11,-1.00,-1.0,2435
3631,2138631,-776,928,4880,5027.70,24.06,-1.00,-1.0,2368
3636,2138636,10080,2084,3880,11000.17,24.15,-1.00,-1.0,2450
3638,2138638,3120,-2396,-408,3954.96,24.15,-1.00,-1.0,2374
3641,2138641,21288,3460,632,21576.61,24.06,-1.00,-1.0,2448
3644,2138644,-4208,-1596,4488,6355.83,24.06,-1.00,-1.0,2368
3647,2138647,32767,3368,-2920,33068.81,24.06,-1.00,-1.0,2446
3649,2138649,13576,2060,2904,14035.12,24.06,-1.00,-1.0,2375
3652,2138652,-2252,-1268,1108,2811.94,24.11,-1.00,-1.0,2436
3655,2138655,27924,2236,24,28013.39,24.15,-1.00,-1.0,2357
3660,2138660,32767,4360,-2136,33124.74,24.06,-1.00,-1.0,2457
3662,2138662,-3172,-1248,5452,6429.88,24.15,-1.00,-1.0,2364
3665,2138665,23248,-116,-1880,23324.18,24.06,-1.00,-1.0,2452
3668,2138668,3308,1268,1492,3844.05,24.06,-1.00,-1.0,2371
3671,2138671,11228,-2996,-1024,11665.87,24.06,-1.00,-1.0,2361
3673,2138673,32767,3916,-1860,33052.55,24.11,-1.00,-1.0,2442
3676,2138676,-304,480,4928,4960.65,24.01,-1.00,-1.0,2365
3679,2138679,32767,3128,-2656,33022.95,24.11,-1.00,-1.0,2435
3682,2138682,7936,832,3872,8869.31,24.06,-1.00,-1.0,2368
3687,2138687,16112,1652,1200,16240.86,24.06,-1.00,-1.0,2454
3689,2138689,1692,-2872,1140,3522.90,24.06,-1.00,-1.0,2375
3692,2138692,32767,2076,-3068,32975.73,24.01,-1.00,-1.0,2447
3695,2138695,-2760,-924,4516,5372.67,24.15,-1.00,-1.0,2352
3698,2138698,31456,1068,-3448,31662.43,24.11,-1.00,-1.0,2448
3700,2138700,23300,3176,2220,23620.02,24.15,-1.00,-1.0,2385
3703,2138703,-3648,-760,4188,5605.79,24.11,-1.00,-1.0,2439
3706,2138706,32484,2784,-2008,32664.86,24.11,-1.00,-1.0,2365
3711,2138711,32767,3260,-1280,32953.64,24.11,-1.00,-1.0,2454
3714,2138714,2780,1424,4332,5340.64,24.06,-1.00,-1.0,2371
3716,2138716,12552,-680,-1064,12615.36,24.11,-1.00,-1.0,2363
3719,2138719,13084,1392,1820,13283.11,24.11,-1.00,-1.0,2438
3722,2138722,1440,-2732,1516,3440.30,24.11,-1.00,-1.0,2367
3724,2138724,32767,1724,-4048,33061.08,24.11,-1.00,-1.0,2436
3727,2138727,9180,816,2576,9569.43,24.01,-1.00,-1.0,2368
3730,2138730,32092,1280,-3040,32261.07,24.01,-1.00,-1.0,2435
3733,2138733,21328,2296,2320,21576.32,24.11,-1.00,-1.0,2376
3737,2138737,27996,2228,-392,28087.25,24.15,-1.00,-1.0,2449
3740,2138740,-292,-1896,2356,3038.23,24.01,-1.00,-1.0,2364
3743,2138743,32767,4188,-660,33040.14,24.06,-1.00,-1.0,2456
3746,2138746,736,556,5200,5281.18,24.15,-1.00,-1.0,2372
3748,2138748,18448,-212,-3952,18867.75,24.06,-1.00,-1.0,2430
3751,2138751,32767,2800,668,32893.20,24.06,-1.00,-1.0,2372
3754,2138754,5536,-2632,660,6165.25,24.06,-1.00,-1.0,2371
3757,2138757,32767,2604,-4320,33152.97,24.01,-1.00,-1.0,2437
3760,2138760,2280,408,3960,4587.64,24.20,-1.00,-1.0,2383
3764,2138764,16288,2744,3752,16938.30,24.06,-1.00,-1.0,2448
3767,2138767,-1948,44,1720,2599.05,24.11,-1.00,-1.0,2363
3770,2138770,28376,1968,-1396,28478.40,24.06,-1.00,-1.0,2441
3773,2138773,-5020,-2704,4568,7306.07,24.20,-1.00,-1.0,2365
3775,2138775,30216,592,-5228,30670.66,24.06,-1.00,-1.0,2436
3778,2138778,20896,1172,2280,21052.67,24.11,-1.00,-1.0,2364
3781,2138781,20312,-60,-2384,20451.51,24.15,-1.00,-1.0,2437
3784,2138784,32428,4336,452,32719.72,24.01,-1.00,-1.0,2366
3789,2138789,32767,2824,-3476,33071.65,24.11,-1.00,-1.0,2453
3791,2138791,2208,-348,3932,4522.94,24.11,-1.00,-1.0,2365
3794,2138794,14152,-1364,-3080,14547.37,24.01,-1.00,-1.0,2449
3797,2138797,32767,2796,92,32886.20,24.01,-1.00,-1.0,2373
3800,2138800,3688,-1300,1116,4066.55,24.20,-1.00,-1.0,2363
3802,2138802,32767,3572,-3124,33108.83,24.15,-1.00,-1.0,2440
3805,2138805,5504,1556,4084,7028.10,24.11,-1.00,-1.0,2354
3808,2138808,32767,568,-4488,33077.80,24.06,-1.00,-1.0,2436
3811,2138811,16036,2244,2860,16442.88,24.06,-1.00,-1.0,2365
3816,2138816,29660,3124,432,29827.20,24.11,-1.00,-1.0,2454
3818,2138818,-6320,-1056,5240,8277.39,24.11,-1.00,-1.0,2376
3821,2138821,28652,296,-3400,28854.54,24.06,-1.00,-1.0,2447
3824,2138824,-636,1516,4332,4633.46,24.11,-1.00,-1.0,2368
3827,2138827,15928,-1628,-2092,16147.08,24.06,-1.00,-1.0,2446
3829,2138829,32767,2672,20,32875.77,24.11,-1.00,-1.0,2376
3832,2138832,-2132,232,2836,3555.58,24.15,-1.00,-1.0,2442
3835,2138835,32767,3484,-1900,33006.43,24.11,-1.00,-1.0,2361
3840,2138840,32767,1724,-3696,33019.82,24.20,-1.00,-1.0,2456
3842,2138842,13080,1296,1768,13262.42,24.11,-1.00,-1.0,2364
3845,2138845,4240,-2552,-256,4955.38,24.06,-1.00,-1.0,2375
3848,2138848,22816,3152,3540,23303.14,24.15,-1.00,-1.0,2443
3851,2138851,-68,-304,2684,2702.02,24.06,-1.00,-1.0,2369
3853,2138853,31612,1648,-2780,31776.77,24.06,-1.00,-1.0,2444
3856,2138856,17948,2568,3036,18383.22,24.06,-1.00,-1.0,2369
3859,2138859,24356,-1612,-3840,24709.49,24.06,-1.00,-1.0,2435
3862,2138862,25816,2996,192,25989.97,24.15,-1.00,-1.0,2381
3867,2138867,32767,3460,1020,32964.96,24.06,-1.00,-1.0,2449
3869,2138869,196,1028,3268,3431.48,24.06,-1.00,-1.0,2367
3872,2138872,18492,-1412,-2596,18726.64,24.15,-1.00,-1.0,2428
3875,2138875,8532,212,4008,9428.89,24.06,-1.00,-1.0,2368
3878,2138878,8804,-2024,-1960,9243.84,24.11,-1.00,-1.0,2442
3880,2138880,32767,3240,-1580,32964.68,24.06,-1.00,-1.0,2353
3883,2138883,4420,1372,3316,5693.39,24.06,-1.00,-1.0,2437
3886,2138886,32767,2216,-1608,32881.19,24.15,-1.00,-1.0,2370
3889,2138889,13084,1656,2880,13499.18,24.11,-1.00,-1.0,2374
3894,2138894,22456,1480,2456,22638.34,24.11,-1.00,-1.0,2445
3896,2138896,420,-1628,1852,2501.34,24.15,-1.00,-1.0,2366
3899,2138899,31092,1056,-3252,31279.44,24.11,-1.00,-1.0,2441
3902,2138902,-568,-376,3568,3632.44,24.15,-1.00,-1.0,2366
3905,2138905,25432,-152,-2920,25599.53,24.01,-1.00,-1.0,2454
3907,2138907,23704,2040,1784,23858.41,24.11,-1.00,-1.0,2378
3910,2138910,-556,-1920,2112,2907.93,24.11,-1.00,-1.0,2431
3913,2138913,28972,8,-3036,29130.64,24.11,-1.00,-1.0,2372
3918,2138918,32767,3452,-1748,32994.67,24.06,-1.00,-1.0,2426
3921,2138921,6820,172,4164,7992.55,24.15,-1.00,-1.0,2379
3923,2138923,14448,-1868,-4048,15120.20,24.06,-1.00,-1.0,2441
3926,2138926,29044,2396,-204,29143.38,24.06,-1.00,-1.0,2387
3929,2138929,8424,-2712,-452,8861.32,24.01,-1.00,-1.0,2359
3931,2138931,32767,3732,-940,32992.24,24.11,-1.00,-1.0,2430
3934,2138934,6944,2532,3140,8030.55,24.06,-1.00,-1.0,2377
3937,2138937,10464,-2432,-224,10745.24,24.11,-1.00,-1.0,2429
3940,2138940,16508,3280,3880,17272.14,24.06,-1.00,-1.0,2378
3945,2138945,26276,1736,1644,26384.55,24.25,-1.00,-1.0,2451
3947,2138947,-3136,-1016,2284,4010.41,24.06,-1.00,-1.0,2371
3950,2138950,29952,1164,-2388,30069.58,24.06,-1.00,-1.0,2450
3953,2138953,580,-864,4580,4696.73,24.06,-1.00,-1.0,2371
3956,2138956,20220,-752,-3208,20486.71,24.01,-1.00,-1.0,2449
3958,2138958,27348,2360,444,27453.23,24.15,-1.00,-1.0,2375
3961,2138961,748,-1836,2032,2838.91,24.06,-1.00,-1.0,2444
3964,2138964,31848,3316,192,32020.74,24.06,-1.00,-1.0,2373
3969,2138969,32767,2900,-2752,33010.00,24.11,-1.00,-1.0,2451
3971,2138971,8716,712,3096,9276.90,24.11,-1.00,-1.0,2373
3974,2138974,9644,-3348,-1864,10377.40,24.11,-1.00,-1.0,2360
3977,2138977,16788,2296,4108,17435.14,24.15,-1.00,-1.0,2440
3979,2138979,5492,-932,-1796,5852.89,24.11,-1.00,-1.0,2367
3982,2138982,30648,2872,156,30782.67,24.06,-1.00,-1.0,2438
3985,2138985,12500,1780,3280,13045.18,24.06,-1.00,-1.0,2378
3988,2138988,11020,-2280,-1640,11372.26,24.11,-1.00,-1.0,2417
3991,2138991,16864,728,2268,17031.39,24.11,-1.00,-1.0,2384
3996,2138996,21168,2496,4640,21813.85,24.06,-1.00,-1.0,2458
3998,2138998,5124,-80,-1068,5234.73,24.15,-1.00,-1.0,2374
4001,2139001,27752,1900,-232,27817.93,24.11,-1.00,-1.0,2441
4004,2139004,17100,2676,3872,17735.93,24.15,-1.00,-1.0,2380
4007,2139007,6120,-2328,-944,6615.52,24.11,-1.00,-1.0,2436
4010,2139010,21796,1616,1716,21923.09,24.15,-1.00,-1.0,2374
4012,2139012,3280,-2156,20,3925.19,24.11,-1.00,-1.0,2442
4015,2139015,27760,776,-576,27776.82,24.06,-1.00,-1.0,2380
4018,2139018,17732,3196,664,18029.95,24.01,-1.00,-1.0,2365
4023,2139023,24340,3116,2480,24663.65,24.11,-1.00,-1.0,2453
4026,2139026,16880,-976,-3800,17329.95,24.15,-1.00,-1.0,2365
4028,2139028,28572,2476,1296,28708.35,24.01,-1.00,-1.0,2448
4031,2139031,1880,1032,1948,2897.26,24.15,-1.00,-1.0,2372
4034,2139034,22604,-1116,-764,22644.42,24.11,-1.00,-1.0,2439
4037,2139037,4760,888,4368,6521.16,24.11,-1.00,-1.0,2366
4039,2139039,14860,-1812,-3652,15409.09,24.11,-1.00,-1.0,2451
4042,2139042,31876,2048,616,31947.66,23.97,-1.00,-1.0,2380
4047,2139047,32767,3680,-948,32986.62,24.06,-1.00,-1.0,2438
4050,2139050,7508,2380,4516,9079.03,24.20,-1.00,-1.0,2428
4053,2139053,11340,-2296,-1716,11696.66,24.11,-1.00,-1.0,2449
4055,2139055,14764,2224,3172,15263.80,24.06,-1.00,-1.0,2371
4058,2139058,4160,-3192,-1536,5463.86,24.01,-1.00,-1.0,2374
4061,2139061,32767,2968,-1176,32922.16,24.11,-1.00,-1.0,2434
4064,2139064,216,-1288,1744,2178.79,24.11,-1.00,-1.0,2385
4066,2139066,32244,2400,-1924,32390.39,24.06,-1.00,-1.0,2431
4069,2139069,17132,2624,3384,17659.06,24.11,-1.00,-1.0,2385
4074,2139074,24028,2280,272,24137.46,24.01,-1.00,-1.0,2456
4077,2139077,928,-2860,1716,3462.00,24.11,-1.00,-1.0,2373
4080,2139080,29620,3360,1664,29856.37,24.06,-1.00,-1.0,2456
4082,2139082,2400,-132,2992,3837.90,24.11,-1.00,-1.0,2371
4085,2139085,23536,712,-2636,23693.85,24.15,-1.00,-1.0,2436
4088,2139088,24840,3576,2804,25252.24,24.11,-1.00,-1.0,2355
4091,2139091,16980,-2848,-2732,17432.59,24.06,-1.00,-1.0,2453
4093,2139093,30028,3624,-1444,30280.35,24.15,-1.00,-1.0,2382
4098,2139098,32767,2600,652,32876.46,24.15,-1.00,-1.0,2455
4101,2139101,7564,2060,2052,8103.60,24.11,-1.00,-1.0,2382
4104,2139104,30784,2288,-2552,30974.22,24.06,-1.00,-1.0,2360
4106,2139106,14352,1864,4400,15126.61,24.11,-1.00,-1.0,2438
4109,2139109,7752,-2592,-1800,8369.71,24.06,-1.00,-1.0,2366
4112,2139112,32740,3260,-1224,32924.66,24.06,-1.00,-1.0,2437
4115,2139115,2204,-2396,-868,3369.25,24.15,-1.00,-1.0,2364
4117,2139117,32044,2140,-1572,32153.83,24.01,-1.00,-1.0,2440
4120,2139120,13916,1868,3776,14539.69,24.06,-1.00,-1.0,2366
4125,2139125,21960,2368,3368,22342.62,24.06,-1.00,-1.0,2440
4128,2139128,3488,-2140,1004,4213.52,24.15,-1.00,-1.0,2373
4131,2139131,29156,3492,-2252,29450.60,24.11,-1.00,-1.0,2432
4133,2139133,2676,-1948,1600,3676.37,24.06,-1.00,-1.0,2369
4136,2139136,25248,304,-2220,25347.23,24.20,-1.00,-1.0,2435
4139,2139139,20248,2640,1956,20512.85,24.15,-1.00,-1.0,2369
4142,2139142,1856,-4036,152,4444.90,24.11,-1.00,-1.0,2430
4144,2139144,28536,3848,1984,28862.55,24.06,-1.00,-1.0,2372
4150,2139150,25272,1364,-3408,25537.21,23.97,-1.00,-1.0,2438
4153,2139153,4520,-592,4372,6316.27,24.06,-1.00,-1.0,2370
4155,2139155,16464,-1856,-3088,16853.60,24.11,-1.00,-1.0,2360
4158,2139158,28532,2464,-912,28652.71,24.11,-1.00,-1.0,2437
4161,2139161,2380,-1992,3140,4414.98,24.20,-1.00,-1.0,2361
4163,2139163,32740,4672,-656,33078.17,24.01,-1.00,-1.0,2441
4166,2139166,5540,920,4616,7269.49,24.01,-1.00,-1.0,2363
4169,2139169,14992,-1188,-2908,15317.57,24.20,-1.00,-1.0,2437
4172,2139172,30596,3264,-344,30771.53,24.11,-1.00,-1.0,2376
4177,2139177,18476,2560,3340,18949.19,24.15,-1.00,-1.0,2447
4179,2139179,752,-3104,-132,3196.52,24.06,-1.00,-1.0,2374
4182,2139182,32767,2216,-3088,32986.70,24.15,-1.00,-1.0,2448
4185,2139185,12236,1404,3980,12943.39,24.06,-1.00,-1.0,2377
4188,2139188,28724,1660,-2344,28867.25,24.01,-1.00,-1.0,2451
4190,2139190,19756,3656,3052,20321.92,24.06,-1.00,-1.0,2372
4193,2139193,2784,-2132,-400,3529.32,24.20,-1.00,-1.0,2437
4196,2139196,31976,2000,-912,32051.46,24.06,-1.00,-1.0,2354
4198,2139198,716,-2568,2812,3874.87,24.11,-1.00,-1.0,2369
4203,2139203,3348,-844,4776,5893.35,24.11,-1.00,-1.0,2433
4206,2139206,20180,-672,-3380,20472.14,24.06,-1.00,-1.0,2374
4209,2139209,26296,3700,1872,26620.93,24.15,-1.00,-1.0,2440
4212,2139212,13104,-1948,-3312,13655.73,24.15,-1.00,-1.0,2360
4214,2139214,30728,2888,-260,30864.51,24.11,-1.00,-1.0,2425
4217,2139217,3444,-1100,3976,5373.98,24.06,-1.00,-1.0,2379
4220,2139220,19412,-616,-4664,19973.94,24.15,-1.00,-1.0,2442
4223,2139223,8172,1144,4952,9623.54,24.06,-1.00,-1.0,2378
4228,2139228,32348,3868,240,32579.32,24.15,-1.00,-1.0,2455
4230,2139230,5152,-3396,-2180,6544.33,23.97,-1.00,-1.0,2365
4233,2139233,32767,3608,-2204,33038.64,24.15,-1.00,-1.0,2449
4236,2139236,8400,1268,6152,10488.80,24.06,-1.00,-1.0,2364
4239,2139239,9884,-2124,-3900,10835.81,24.15,-1.00,-1.0,2456
4241,2139241,16056,2448,3132,16540.78,24.06,-1.00,-1.0,2372
4244,2139244,3004,-3052,68,4282.91,24.11,-1.00,-1.0,2368
4247,2139247,32767,3716,-1444,33008.64,24.20,-1.00,-1.0,2436
4250,2139250,9888,1812,3328,10589.21,24.11,-1.00,-1.0,2374
4255,2139255,1512,-2716,3296,4530.61,24.01,-1.00,-1.0,2448
4257,2139257,23748,1088,-2900,23949.14,24.06,-1.00,-1.0,2370
4260,2139260,22964,2564,2912,23289.46,24.11,-1.00,-1.0,2453
4263,2139263,2284,-3416,-528,4143.01,24.06,-1.00,-1.0,2372
4266,2139266,28116,1980,-1820,28244.33,24.11,-1.00,-1.0,2450
4268,2139268,2956,-2348,1840,4199.60,24.11,-1.00,-1.0,2383
4271,2139271,25428,1916,-2888,25663.10,24.11,-1.00,-1.0,2449
4274,2139274,20740,3740,5256,21720.05,24.15,-1.00,-1.0,2366
4279,2139279,25996,2676,1736,26190.96,24.15,-1.00,-1.0,2453
4281,2139281,12580,-2244,-2344,12991.78,24.06,-1.00,-1.0,2366
4284,2139284,31508,3644,-596,31723.62,24.11,-1.00,-1.0,2454
4287,2139287,4300,-392,3836,5775.69,24.11,-1.00,-1.0,2373
4290,2139290,19540,1260,-2892,19793.00,24.01,-1.00,-1.0,2367
4292,2139292,9192,448,4940,10444.96,24.06,-1.00,-1.0,2443
4295,2139295,13224,-1444,-2256,13492.55,24.11,-1.00,-1.0,2365
4298,2139298,28980,2764,-788,29122.17,24.06,-1.00,-1.0,2436
4301,2139301,4384,-2116,1820,5197.05,24.11,-1.00,-1.0,2382
4306,2139306,7832,1068,3968,8844.54,24.11,-1.00,-1.0,2450
4308,2139308,29956,2692,-2808,30207.51,24.11,-1.00,-1.0,2375
4311,2139311,13680,1648,4268,14424.77,24.15,-1.00,-1.0,2441
4314,2139314,8976,-2432,-1524,9423.68,24.11,-1.00,-1.0,2364
4317,2139317,30604,3280,-1980,30842.89,24.15,-1.00,-1.0,2445
4319,2139319,5152,-3864,-52,6440.21,24.11,-1.00,-1.0,2374
4322,2139322,30140,2852,-1804,30328.34,24.06,-1.00,-1.0,2437
4325,2139325,11612,2208,3368,12290.53,24.01,-1.00,-1.0,2368
4330,2139330,18596,3216,4728,19455.28,24.11,-1.00,-1.0,2452
4332,2139332,6364,-2612,-1092,6965.31,24.11,-1.00,-1.0,2368
4335,2139335,23128,3228,1524,23401.86,24.11,-1.00,-1.0,2451
4338,2139338,5460,-3928,-472,6742.67,24.11,-1.00,-1.0,2372
4341,2139341,25972,1504,-1260,26046.01,24.11,-1.00,-1.0,2362
4343,2139343,6948,-2036,372,7249.72,24.06,-1.00,-1.0,2441
4346,2139346,22472,2508,-2316,22729.82,24.06,-1.00,-1.0,2367
4349,2139349,20644,3928,4456,21481.62,24.15,-1.00,-1.0,2435
4352,2139352,7228,-3416,176,7996.50,24.15,-1.00,-1.0,2373
4356,2139356,15460,448,-2380,15648.54,24.15,-1.00,-1.0,2445
4359,2139359,25884,3192,3060,26258.98,24.06,-1.00,-1.0,2367
4362,2139362,8496,-1400,200,8612.90,24.06,-1.00,-1.0,2442
4365,2139365,20556,1968,-1332,20692.91,24.06,-1.00,-1.0,2363
4367,2139367,9144,-736,712,9201.16,24.15,-1.00,-1.0,2438
4370,2139370,17908,-1008,-1016,17965.10,24.15,-1.00,-1.0,2372
4373,2139373,23012,3048,980,23233.66,24.11,-1.00,-1.0,2437
4376,2139376,5980,-3728,-104,7047.64,24.15,-1.00,-1.0,2369
4378,2139378,27268,2512,2568,27503.61,24.11,-1.00,-1.0,2360
4383,2139383,26656,2140,-1540,26786.07,24.11,-1.00,-1.0,2456
4386,2139386,11064,-1008,3132,11542.86,24.11,-1.00,-1.0,2374
4389,2139389,15964,136,-2580,16171.71,24.15,-1.00,-1.0,2454
4391,2139391,12940,1256,2844,13308.25,24.20,-1.00,-1.0,2364
4394,2139394,12456,-896,-1636,12594.89,24.06,-1.00,-1.0,2448
4397,2139397,27468,3068,1252,27667.15,24.25,-1.00,-1.0,2384
4400,2139400,8280,-324,848,8329.61,24.15,-1.00,-1.0,2454
4402,2139402,27420,2880,-1980,27641.84,24.15,-1.00,-1.0,2373
4407,2139407,25612,2312,-464,25720.33,24.15,-1.00,-1.0,2449
4410,2139410,14564,2408,2412,14957.48,24.01,-1.00,-1.0,2374
4413,2139413,11532,-1464,-212,11626.49,24.15,-1.00,-1.0,2442
4416,2139416,26012,2684,-1124,26174.25,24.01,-1.00,-1.0,2364
4418,2139418,11280,-2412,-1152,11592.38,24.06,-1.00,-1.0,2446
4421,2139421,24844,2324,100,24952.66,24.06,-1.00,-1.0,2374
4424,2139424,11208,1492,2348,11548.09,24.15,-1.00,-1.0,2427
4427,2139427,15320,-496,-1116,15368.60,24.06,-1.00,-1.0,2374
4429,2139429,14312,2760,2368,14766.80,24.11,-1.00,-1.0,2366
4434,2139434,18344,3904,4280,19236.99,24.11,-1.00,-1.0,2447
4437,2139437,6848,-2824,-2168,7718.18,24.01,-1.00,-1.0,2366
4440,2139440,28072,1600,-180,28118.14,24.11,-1.00,-1.0,2447
4442,2139442,12296,2376,2620,12794.58,24.11,-1.00,-1.0,2363
4445,2139445,25716,1760,-1648,25828.79,24.11,-1.00,-1.0,2438
4448,2139448,16296,2844,3628,16935.48,24.11,-1.00,-1.0,2365
4451,2139451,8964,-2484,-240,9304.90,24.11,-1.00,-1.0,2444
4453,2139453,28196,2824,-1552,28379.54,24.11,-1.00,-1.0,2363
4458,2139458,26420,1040,-728,26450.48,24.11,-1.00,-1.0,2445
4461,2139461,5648,-3404,88,6595.06,24.15,-1.00,-1.0,2367
4464,2139464,23100,1896,-2152,23277.37,24.20,-1.00,-1.0,2441
4467,2139467,19324,3768,2880,19897.47,24.06,-1.00,-1.0,2360
4469,2139469,7624,-2820,2004,8372.20,24.01,-1.00,-1.0,2427
4472,2139472,23548,3220,4164,24129.14,24.06,-1.00,-1.0,2379
4475,2139475,8020,-2636,-3700,9217.32,24.11,-1.00,-1.0,2440
4478,2139478,23896,1324,-88,23932.81,24.06,-1.00,-1.0,2372
4480,2139480,8224,-3472,644,8950.07,24.15,-1.00,-1.0,2361
4485,2139485,8600,-1564,-2444,9076.30,24.15,-1.00,-1.0,2447
4488,2139488,20644,968,44,20666.73,24.11,-1.00,-1.0,2364
4491,2139491,22728,3580,4400,23425.17,24.15,-1.00,-1.0,2450
4493,2139493,6444,-2124,-2836,7353.87,24.01,-1.00,-1.0,2351
4496,2139496,24840,2684,1232,25014.94,24.15,-1.00,-1.0,2440
4499,2139499,6260,-3140,1616,7187.40,24.15,-1.00,-1.0,2367
4502,2139502,21848,1760,-1580,21975.65,24.06,-1.00,-1.0,2441
4504,2139504,20092,3096,2024,20429.64,24.06,-1.00,-1.0,2371
4509,2139509,23668,2720,5100,24363.55,24.15,-1.00,-1.0,2434
4512,2139512,13768,1208,-1208,13873.58,24.11,-1.00,-1.0,2372
4515,2139515,23928,2520,220,24061.34,24.06,-1.00,-1.0,2425
4518,2139518,10316,-3324,-208,10840.30,24.01,-1.00,-1.0,2371
4520,2139520,24212,2304,1244,24353.17,24.15,-1.00,-1.0,2363
4523,2139523,11136,-768,-196,11164.17,24.11,-1.00,-1.0,2456
4526,2139526,20576,1844,-1908,20746.39,24.06,-1.00,-1.0,2372
4529,2139529,21416,3200,5404,22317.89,24.15,-1.00,-1.0,2443
4531,2139531,5272,-2364,-2008,6116.74,24.11,-1.00,-1.0,2383
4536,2139536,4956,-2960,1636,6000.00,24.11,-1.00,-1.0,2454
4539,2139539,28844,2600,-324,28962.76,24.11,-1.00,-1.0,2381
4542,2139542,10476,-72,1564,10592.35,24.11,-1.00,-1.0,2442
4545,2139545,13588,2056,-428,13749.33,24.11,-1.00,-1.0,2378
4547,2139547,24848,2452,1916,25042.09,24.11,-1.00,-1.0,2437
4550,2139550,11616,-2160,924,11851.20,24.11,-1.00,-1.0,2375
4553,2139553,24652,3140,-2000,24931.52,24.06,-1.00,-1.0,2443
4556,2139556,10916,-1988,2624,11401.60,24.20,-1.00,-1.0,2374
4560,2139560,10816,1988,1356,11080.47,24.06,-1.00,-1.0,2445
4563,2139563,26464,1020,-2196,26574.54,24.15,-1.00,-1.0,2366
4566,2139566,13452,2772,4632,14494.68,24.06,-1.00,-1.0,2439
4569,2139569,10828,-1444,-1020,10971.38,24.06,-1.00,-1.0,2363
4571,2139571,18744,3100,4064,19428.42,24.15,-1.00,-1.0,2360
4574,2139574,6868,-2828,-1612,7600.37,24.11,-1.00,-1.0,2437
4577,2139577,28100,1660,-812,28160.70,24.06,-1.00,-1.0,2359
4580,2139580,13252,2236,3192,13813.18,24.06,-1.00,-1.0,2441
4582,2139582,10640,-2044,-1876,10995.77,24.11,-1.00,-1.0,2353
4587,2139587,20844,1376,-1012,20913.87,24.15,-1.00,-1.0,2441
4590,2139590,22108,3264,2976,22544.93,24.06,-1.00,-1.0,2356
4593,2139593,5848,-3756,-984,7019.61,24.06,-1.00,-1.0,2445
4595,2139595,26052,1736,-2496,26228.81,24.06,-1.00,-1.0,2365
4598,2139598,5504,-2652,644,6143.44,24.06,-1.00,-1.0,2436
4601,2139601,23416,1684,-2344,23593.20,24.15,-1.00,-1.0,2370
4604,2139604,21824,3780,4060,22517.97,24.15,-1.00,-1.0,2448
4606,2139606,3260,-3340,520,4696.13,24.06,-1.00,-1.0,2366
4611,2139611,2532,-4152,1144,4995.88,24.06,-1.00,-1.0,2446
4614,2139614,30328,2732,400,30453.43,24.06,-1.00,-1.0,2372
4617,2139617,4816,-64,1740,5121.09,24.06,-1.00,-1.0,2436
4620,2139620,18932,256,-1520,18994.65,24.15,-1.00,-1.0,2368
4622,2139622,8216,980,3216,8877.26,24.15,-1.00,-1.0,2359
4625,2139625,13008,-2296,-1820,13333.87,24.11,-1.00,-1.0,2432
4628,2139628,32400,3488,-712,32594.99,24.06,-1.00,-1.0,2373
4630,2139630,2768,-536,3204,4267.87,24.06,-1.00,-1.0,2433
4633,2139633,18444,-656,-1496,18516.20,24.15,-1.00,-1.0,2371
4639,2139639,10964,-1416,-472,11065.13,24.15,-1.00,-1.0,2446
4641,2139641,32767,3940,-396,33005.40,24.06,-1.00,-1.0,2372
4644,2139644,4988,-3564,-1944,6431.28,24.15,-1.00,-1.0,2443
4647,2139647,32767,2548,-2500,32960.86,24.06,-1.00,-1.0,2365
4650,2139650,7324,2888,4280,8961.02,24.15,-1.00,-1.0,2431
4652,2139652,11436,-1892,-192,11593.04,24.06,-1.00,-1.0,2372
4655,2139655,14668,3304,4476,15687.61,24.06,-1.00,-1.0,2442
4658,2139658,2864,-3720,-1340,4882.26,24.06,-1.00,-1.0,2370
4663,2139663,-556,-2872,492,2966.41,24.06,-1.00,-1.0,2440
4666,2139666,32584,1916,-1964,32699.32,24.11,-1.00,-1.0,2372
4668,2139668,-1360,-2300,2164,3438.39,24.06,-1.00,-1.0,2364
4671,2139671,24312,676,-2892,24492.73,24.20,-1.00,-1.0,2440
4674,2139674,24696,3252,3284,25124.74,24.15,-1.00,-1.0,2366
4676,2139676,904,-3648,-584,3803.44,24.06,-1.00,-1.0,2438
4679,2139679,28588,3804,1780,28894.85,24.15,-1.00,-1.0,2366
4682,2139682,2828,-1608,676,3322.68,24.11,-1.00,-1.0,2436
4685,2139685,23772,924,-176,23790.60,24.06,-1.00,-1.0,2375
4690,2139690,17524,-1156,-2496,17738.57,24.06,-1.00,-1.0,2449
4692,2139692,28856,3540,748,29081.95,24.15,-1.00,-1.0,2376
4695,2139695,9584,-1368,-1624,9816.41,24.15,-1.00,-1.0,2452
4698,2139698,32767,3240,88,32926.91,24.15,-1.00,-1.0,2367
4701,2139701,3048,1928,2128,4187.59,24.06,-1.00,-1.0,2450
4703,2139703,16348,-752,1284,16415.58,24.15,-1.00,-1.0,2373
4706,2139706,10384,1716,4840,11584.37,24.11,-1.00,-1.0,2360
4709,2139709,8592,-1924,-2632,9189.76,24.11,-1.00,-1.0,2428
4711,2139711,32767,2488,-1664,32903.43,24.15,-1.00,-1.0,2372
4716,2139716,32767,3224,-1576,32962.92,24.11,-1.00,-1.0,2438
4719,2139719,10452,2708,3028,11213.67,24.11,-1.00,-1.0,2375
4722,2139722,31124,1684,-2412,31262.71,24.11,-1.00,-1.0,2432
4725,2139725,17384,3384,4756,18337.79,24.11,-1.00,-1.0,2372
4727,2139727,5176,-3484,-2300,6649.75,24.15,-1.00,-1.0,2433
4730,2139730,31300,1928,-2208,31436.96,24.11,-1.00,-1.0,2359
4733,2139733,2132,-3392,-404,4026.70,24.06,-1.00,-1.0,2436
4736,2139736,29452,1884,-2040,29582.62,24.11,-1.00,-1.0,2377
4741,2139741,25792,580,-2676,25936.94,24.01,-1.00,-1.0,2444
4743,2139743,21396,3436,4228,22078.74,24.15,-1.00,-1.0,2370
4746,2139746,1732,-3152,-1460,3881.56,24.20,-1.00,-1.0,2440
4749,2139749,27632,2288,1472,27765.61,24.20,-1.00,-1.0,2365
4752,2139752,388,-2532,1068,2775.28,24.01,-1.00,-1.0,2434
4754,2139754,25208,1108,-2220,25329.81,24.06,-1.00,-1.0,2368
4757,2139757,3280,-636,2564,4211.53,24.11,-1.00,-1.0,2360
4760,2139760,19380,-388,-1904,19477.17,24.06,-1.00,-1.0,2443
4763,2139763,28244,3516,1828,28520.65,24.15,-1.00,-1.0,2374
4767,2139767,32648,2348,-284,32733.55,24.20,-1.00,-1.0,2447
4770,2139770,3612,-852,3040,4797.30,24.11,-1.00,-1.0,2368
4773,2139773,32767,2828,-2732,33002.09,24.11,-1.00,-1.0,2440
4776,2139776,8012,2252,4044,9252.98,24.11,-1.00,-1.0,2366
4778,2139778,11872,-1408,-1328,12028.73,24.20,-1.00,-1.0,2435
4781,2139781,31432,3032,1172,31599.64,24.01,-1.00,-1.0,2373
4784,2139784,5184,-3136,-3288,6893.42,24.11,-1.00,-1.0,2438
4787,2139787,32767,1320,-2680,32902.90,24.11,-1.00,-1.0,2366
4791,2139791,32392,3000,-3844,32756.95,24.06,-1.00,-1.0,2445
4794,2139794,14620,2700,5176,15742.47,24.01,-1.00,-1.0,2368
4797,2139797,26376,1604,-3904,26711.56,24.15,-1.00,-1.0,2441
4800,2139800,22948,2440,3860,23397.95,24.20,-1.00,-1.0,2365
4802,2139802,1248,-3044,-648,3353.11,24.06,-1.00,-1.0,2437
4805,2139805,30460,1832,-3108,30672.91,24.11,-1.00,-1.0,2373
4808,2139808,1368,-3524,4252,5689.42,24.15,-1.00,-1.0,2368
4811,2139811,24420,2632,-3944,24876.07,24.15,-1.00,-1.0,2441
4814,2139814,21456,2128,4536,22033.24,24.11,-1.00,-1.0,2366
4819,2139819,27532,3348,272,27736.15,24.11,-1.00,-1.0,2447
4821,2139821,40,-3672,1816,4096.71,24.06,-1.00,-1.0,2378
4824,2139824,27892,1808,-3540,28173.82,24.11,-1.00,-1.0,2447
4827,2139827,1636,-544,5556,5817.35,24.11,-1.00,-1.0,2353
4830,2139830,19676,468,-3060,19918.02,24.20,-1.00,-1.0,2447
4832,2139832,29200,3252,988,29397.14,24.20,-1.00,-1.0,2375
4835,2139835,-176,-2148,2652,3417.31,24.01,-1.00,-1.0,2442
4838,2139838,32767,3336,-1852,32988.41,24.01,-1.00,-1.0,2377
4843,2139843,32068,3220,-2572,32331.72,24.11,-1.00,-1.0,2452
4845,2139845,11064,1364,5596,12473.48,24.11,-1.00,-1.0,2369
4848,2139848,10932,-1400,-2648,11334.92,24.01,-1.00,-1.0,2362
4851,2139851,16088,3372,2704,16658.50,24.06,-1.00,-1.0,2444
4854,2139854,4868,-3884,448,6243.68,24.11,-1.00,-1.0,2374
4856,2139856,32767,4304,-2840,33170.26,24.06,-1.00,-1.0,2442
4859,2139859,5616,1704,6084,8453.29,24.15,-1.00,-1.0,2364
4862,2139862,32767,2648,-3868,33100.60,24.15,-1.00,-1.0,2437
4865,2139865,14280,2876,4756,15323.49,24.15,-1.00,-1.0,2365
4870,2139870,24020,2948,964,24219.42,24.15,-1.00,-1.0,2444
4872,2139872,-4908,-3440,1612,6206.50,24.15,-1.00,-1.0,2371
4875,2139875,32767,1880,-4604,33142.23,24.15,-1.00,-1.0,2446
4878,2139878,-6808,-2284,5388,8977.53,24.06,-1.00,-1.0,2365
4881,2139881,27752,-236,-4144,28060.68,24.15,-1.00,-1.0,2436
4883,2139883,30244,3452,1076,30459.38,24.15,-1.00,-1.0,2366
4886,2139886,-10964,-2060,3756,11771.17,24.15,-1.00,-1.0,2437
4889,2139889,32767,4432,-2244,33141.43,24.06,-1.00,-1.0,2368
4894,2139894,32767,3600,-4708,33298.67,24.15,-1.00,-1.0,2446
4897,2139897,6040,1308,4152,7445.24,24.11,-1.00,-1.0,2377
4899,2139899,7432,-2992,-124,8012.62,24.15,-1.00,-1.0,2368
4902,2139902,32767,3220,-3056,33066.36,24.20,-1.00,-1.0,2446
4905,2139905,2340,-2456,284,3404.14,24.15,-1.00,-1.0,2364
4907,2139907,32356,3224,-2628,32622.25,24.11,-1.00,-1.0,2434
4910,2139910,9904,1548,5536,11451.32,24.06,-1.00,-1.0,2372
4913,2139913,13064,-1296,-4088,13749.89,24.01,-1.00,-1.0,2442
4916,2139916,13912,2800,3576,14634.60,24.11,-1.00,-1.0,2380
4921,2139921,23688,4740,2316,24268.35,24.20,-1.00,-1.0,2444
4923,2139923,-2368,-2404,1800,3824.48,24.11,-1.00,-1.0,2374
4926,2139926,32767,2916,-3104,33042.61,24.11,-1.00,-1.0,2436
4929,2139929,17436,2660,4940,18316.48,24.20,-1.00,-1.0,2372
4932,2139932,25788,-408,-3672,26051.31,24.11,-1.00,-1.0,2436
4934,2139934,27868,3072,-1048,28056.39,24.11,-1.00,-1.0,2372
4937,2139937,-6008,-4080,4504,8545.67,24.11,-1.00,-1.0,2429
4940,2139940,31996,1616,-5112,32442.07,24.01,-1.00,-1.0,2373
4945,2139945,32767,2256,-2488,32938.67,24.11,-1.00,-1.0,2437
4948,2139948,3460,632,3488,4953.50,24.15,-1.00,-1.0,2373
4950,2139950,13092,-3404,-2468,13750.59,24.15,-1.00,-1.0,2360
4953,2139953,32767,3856,-2732,33106.02,24.01,-1.00,-1.0,2432
4956,2139956,2660,-3540,1020,4543.96,24.01,-1.00,-1.0,2366
4959,2139959,32767,3960,-3580,33199.01,24.20,-1.00,-1.0,2441
4961,2139961,5120,1500,5824,7898.31,24.11,-1.00,-1.0,2365
4964,2139964,10148,-1200,-1668,10353.94,24.20,-1.00,-1.0,2437
4967,2139967,15204,2848,2600,15685.43,24.15,-1.00,-1.0,2372
4972,2139972,32767,2908,-4540,33207.59,24.15,-1.00,-1.0,2452
4975,2139975,8372,2264,6092,10598.52,24.15,-1.00,-1.0,2365
4978,2139978,5556,-1220,-1300,5835.03,24.20,-1.00,-1.0,2433
4981,2139981,19792,2968,2436,20161.01,24.06,-1.00,-1.0,2367
4983,2139983,-3796,-3524,1972,5542.29,24.11,-1.00,-1.0,2436
4986,2139986,32767,2936,-4068,33148.83,24.06,-1.00,-1.0,2366
4989,2139989,14476,2972,3116,15102.87,24.11,-1.00,-1.0,2436
4992,2139992,29248,412,-3236,29429.36,24.06,-1.00,-1.0,2368
4996,2139996,19668,212,-3228,19932.26,24.11,-1.00,-1.0,2446
4999,2139999,27640,2352,252,27741.04,24.11,-1.00,-1.0,2366
5002,2140002,12212,-1988,-772,12396.82,24.15,-1.00,-1.0,2367
5005,2140005,32767,4096,-1004,33037.27,24.06,-1.00,-1.0,2442
5007,2140007,1456,580,5072,5308.63,24.06,-1.00,-1.0,2369
5010,2140010,20540,648,-2264,20674.55,24.15,-1.00,-1.0,2454
5013,2140013,7052,1480,5200,8886.01,23.97,-1.00,-1.0,2372
5016,2140016,10976,-2352,-1144,11283.32,24.15,-1.00,-1.0,2445
5018,2140018,32767,3040,-3320,33074.77,24.15,-1.00,-1.0,2384
5023,2140023,32767,3140,-2716,33028.96,24.06,-1.00,-1.0,2457
5026,2140026,8596,2368,4100,9813.70,23.97,-1.00,-1.0,2373
5029,2140029,8416,-1428,-540,8553.35,24.11,-1.00,-1.0,2444
5032,2140032,18064,2604,3324,18550.95,24.15,-1.00,-1.0,2365
5034,2140034,-1616,-2812,956,3381.23,24.11,-1.00,-1.0,2457
5037,2140037,32767,1368,-4576,33113.25,24.15,-1.00,-1.0,2386
5040,2140040,13684,1704,3656,14266.11,24.11,-1.00,-1.0,2438
5043,2140043,29664,1784,-2292,29805.85,24.11,-1.00,-1.0,2380
5045,2140045,22148,2664,3012,22510.06,24.01,-1.00,-1.0,2368
5050,2140050,31660,2412,-620,31757.80,24.20,-1.00,-1.0,2442
5053,2140053,-1192,-2180,3340,4162.80,24.11,-1.00,-1.0,2374
5056,2140056,32767,4188,-2312,33114.36,24.06,-1.00,-1.0,2449
5058,2140058,3584,-340,5172,6301.61,24.11,-1.00,-1.0,2365
5061,2140061,16900,212,-2180,17041.34,24.15,-1.00,-1.0,2433
5064,2140064,30616,3696,72,30838.37,24.11,-1.00,-1.0,2372
5067,2140067,8032,-3048,-220,8593.70,24.06,-1.00,-1.0,2453
5069,2140069,32767,3416,-2824,33065.39,24.20,-1.00,-1.0,2367
5075,2140075,32767,2732,-1884,32934.62,24.11,-1.00,-1.0,2445
5077,2140077,12796,1864,3976,13528.51,24.06,-1.00,-1.0,2417
5080,2140080,5188,-1052,-464,5313.88,24.11,-1.00,-1.0,2448
5083,2140083,32767,2936,-1424,32929.08,24.15,-1.00,-1.0,2373
5086,2140086,7944,1756,3684,8930.99,24.01,-1.00,-1.0,2433
5088,2140088,32767,1328,-3128,32942.74,24.15,-1.00,-1.0,2378
5091,2140091,16220,1900,1916,16442.92,24.11,-1.00,-1.0,2376
5094,2140094,1048,-2336,1600,3019.14,24.11,-1.00,-1.0,2429
5097,2140097,26192,2968,2076,26441.25,24.11,-1.00,-1.0,2386
5102,2140102,32420,1748,-1764,32514.97,24.01,-1.00,-1.0,2450
5104,2140104,-588,-120,3544,3594.45,24.20,-1.00,-1.0,2369
5107,2140107,19164,-804,-1080,19211.24,24.01,-1.00,-1.0,2454
5110,2140110,31904,2556,-612,32012.07,24.11,-1.00,-1.0,2372
5113,2140113,8168,-184,348,8177.48,24.11,-1.00,-1.0,2450
5115,2140115,32767,2976,-1064,32919.07,24.11,-1.00,-1.0,2382
5118,2140118,6248,684,2268,6682.00,24.15,-1.00,-1.0,2448
5121,2140121,12520,-1368,48,12594.61,24.11,-1.00,-1.0,2366
5126,2140126,6304,-1652,-272,6522.54,24.11,-1.00,-1.0,2451
5128,2140128,21676,1888,3248,21999.16,24.11,-1.00,-1.0,2367
5131,2140131,4448,-840,1184,4678.91,24.11,-1.00,-1.0,2453
5134,2140134,27460,2332,-1540,27601.84,24.15,-1.00,-1.0,2373
5137,2140137,5024,-2800,1388,5916.68,24.11,-1.00,-1.0,2360
5139,2140139,24872,876,-2988,25066.15,24.15,-1.00,-1.0,2441
5142,2140142,18012,2200,2432,18308.11,24.01,-1.00,-1.0,2353
5145,2140145,4728,-1124,340,4871.65,24.15,-1.00,-1.0,2435
5148,2140148,26488,2540,1364,26644.44,24.11,-1.00,-1.0,2376
5153,2140153,32767,2488,-3276,33024.21,24.11,-1.00,-1.0,2450
5155,2140155,2172,316,4020,4580.16,24.11,-1.00,-1.0,2372
5158,2140158,13656,-672,-900,13702.11,24.06,-1.00,-1.0,2450
5161,2140161,32767,2748,-572,32887.00,24.11,-1.00,-1.0,2371
5164,2140164,-292,240,-12,378.16,24.15,-1.00,-1.0,2449
5166,2140166,32767,976,-1772,32829.39,24.11,-1.00,-1.0,2383
5169,2140169,14156,1640,2156,14412.85,24.15,-1.00,-1.0,2443
5172,2140172,5744,-368,-196,5759.11,24.15,-1.00,-1.0,2371
5174,2140174,20008,-20,1712,20081.12,24.06,-1.00,-1.0,2348
5179,2140179,26324,3152,1500,26554.44,24.11,-1.00,-1.0,2447
5182,2140182,516,-1304,1940,2393.80,24.06,-1.00,-1.0,2366
5185,2140185,25888,536,-2376,26002.33,24.11,-1.00,-1.0,2448
5187,2140187,2556,-240,4716,5369.49,24.15,-1.00,-1.0,2363
5190,2140190,17936,-140,-1148,17973.25,24.01,-1.00,-1.0,2436
5193,2140193,30420,2012,-400,30489.09,24.15,-1.00,-1.0,2365
5196,2140196,-80,-988,2296,2500.83,24.11,-1.00,-1.0,2433
5198,2140198,32767,3344,-1064,32954.38,24.15,-1.00,-1.0,2373
5203,2140203,32767,588,-4160,33035.25,24.15,-1.00,-1.0,2471
5206,2140206,13116,756,3148,13509.66,24.15,-1.00,-1.0,2388
5209,2140209,4012,-772,-292,4096.02,24.15,-1.00,-1.0,2432
5212,2140212,24748,2048,1720,24892.09,24.15,-1.00,-1.0,2371
5214,2140214,-2292,72,3756,4400.68,24.11,-1.00,-1.0,2359
5217,2140217,27728,1832,-1376,27822.50,24.20,-1.00,-1.0,2433
5220,2140220,24080,2240,620,24191.91,24.11,-1.00,-1.0,2369
5222,2140222,17452,292,-1332,17505.19,24.01,-1.00,-1.0,2432
5225,2140225,30080,1364,424,30113.89,24.20,-1.00,-1.0,2368
5230,2140230,32248,3200,-856,32417.68,24.20,-1.00,-1.0,2454
5233,2140233,7820,544,3812,8716.63,24.15,-1.00,-1.0,2365
5236,2140236,13956,-360,-1272,14018.47,24.11,-1.00,-1.0,2442
5238,2140238,13220,352,1756,13340.76,24.11,-1.00,-1.0,2361
5241,2140241,6100,-1492,-620,6310.35,24.20,-1.00,-1.0,2423
5244,2140244,32552,1496,268,32587.46,24.15,-1.00,-1.0,2366
5247,2140247,11192,2188,168,11405.11,24.20,-1.00,-1.0,2445
5249,2140249,29076,1756,-1868,29188.81,24.11,-1.00,-1.0,2363
5254,2140254,20152,652,-2116,20273.28,24.06,-1.00,-1.0,2461
5257,2140257,28744,1980,-516,28816.73,24.15,-1.00,-1.0,2370
5260,2140260,1372,-1100,1900,2588.90,24.11,-1.00,-1.0,2361
5262,2140262,32767,2544,600,32871.09,24.01,-1.00,-1.0,2440
5265,2140265,7320,2424,2148,8004.50,24.11,-1.00,-1.0,2361
5268,2140268,14224,588,488,14244.51,24.11,-1.00,-1.0,2446
5271,2140271,31856,2780,788,31986.78,24.11,-1.00,-1.0,2361
5273,2140273,5660,-988,-964,5825.89,24.11,-1.00,-1.0,2441
5276,2140276,32767,948,-2800,32900.07,24.11,-1.00,-1.0,2362
5281,2140281,27972,1220,436,28001.99,24.11,-1.00,-1.0,2459
5284,2140284,19072,1708,1612,19216.06,24.06,-1.00,-1.0,2367
5287,2140287,2432,-968,960,2788.05,24.01,-1.00,-1.0,2443
5289,2140289,27400,2244,1012,27510.36,24.11,-1.00,-1.0,2365
5292,2140292,-1392,-1316,2932,3502.31,24.11,-1.00,-1.0,2360
5295,2140295,24360,-276,-3276,24580.85,24.15,-1.00,-1.0,2443
5297,2140297,4340,1100,2476,5116.27,24.11,-1.00,-1.0,2361
5300,2140300,12116,-436,1280,12191.22,24.06,-1.00,-1.0,2446
5303,2140303,32767,2408,-2096,32922.15,24.11,-1.00,-1.0,2365
5308,2140308,32767,2528,-2432,32954.24,24.11,-1.00,-1.0,2460
5311,2140311,11280,336,1708,11413.53,24.06,-1.00,-1.0,2371
5314,2140314,4908,-1840,-128,5243.13,24.01,-1.00,-1.0,2449
5316,2140316,21656,2996,-984,21884.39,24.20,-1.00,-1.0,2371
5319,2140319,-1552,-2604,4848,5717.75,24.11,-1.00,-1.0,2431
5322,2140322,32767,2676,-2768,32992.41,24.15,-1.00,-1.0,2368
5325,2140325,17260,1636,1716,17422.08,24.01,-1.00,-1.0,2447
5327,2140327,23916,220,-616,23924.94,24.15,-1.00,-1.0,2371
5332,2140332,9680,-1716,208,9833.12,24.15,-1.00,-1.0,2456
5335,2140335,32767,2116,-3040,32975.68,23.97,-1.00,-1.0,2362
5338,2140338,1396,100,3552,3817.79,24.06,-1.00,-1.0,2448
5340,2140340,32767,2440,-1816,32907.87,24.06,-1.00,-1.0,2370
5343,2140343,12884,2264,1184,13134.88,24.01,-1.00,-1.0,2367
5346,2140346,960,-1268,2724,3154.30,24.20,-1.00,-1.0,2438
5349,2140349,32767,2120,-2680,32944.70,24.11,-1.00,-1.0,2369
5351,2140351,-4432,-1452,3080,5589.04,24.06,-1.00,-1.0,2446
5354,2140354,31336,856,-1784,31398.41,24.15,-1.00,-1.0,2369
5359,2140359,18764,240,-352,18768.84,24.06,-1.00,-1.0,2453
5362,2140362,32767,2980,-1324,32928.86,24.01,-1.00,-1.0,2362
5365,2140365,-660,-1328,3264,3585.09,24.15,-1.00,-1.0,2439
5367,2140367,32767,2892,-1760,32941.43,24.11,-1.00,-1.0,2364
5370,2140370,4620,768,1680,4975.60,24.06,-1.00,-1.0,2441
5373,2140373,9732,-1900,-552,9931.09,24.11,-1.00,-1.0,2364
5376,2140376,32767,3068,-372,32912.42,24.06,-1.00,-1.0,2445
5378,2140378,-3668,-576,1512,4009.01,24.20,-1.00,-1.0,2357
5381,2140381,32767,2176,-2496,32933.89,24.06,-1.00,-1.0,2367
5386,2140386,26800,768,-2840,26961.00,24.11,-1.00,-1.0,2453
5389,2140389,30528,1140,252,30550.32,24.15,-1.00,-1.0,2370
5392,2140392,-6404,-592,736,6473.28,24.11,-1.00,-1.0,2442
5394,2140394,32767,2908,-2088,32961.98,24.15,-1.00,-1.0,2364
5397,2140397,-1832,-608,5416,5749.69,24.11,-1.00,-1.0,2439
5400,2140400,16360,1532,-2404,16606.50,24.06,-1.00,-1.0,2367
5403,2140403,32767,2572,568,32872.70,24.20,-1.00,-1.0,2441
5405,2140405,1736,-1008,668,2115.65,24.15,-1.00,-1.0,2361
5410,2140410,-7276,-2032,3632,8382.16,24.11,-1.00,-1.0,2468
5413,2140413,32767,1192,-2964,32922.37,24.11,-1.00,-1.0,2371
5416,2140416,22688,2544,1424,22874.55,24.25,-1.00,-1.0,2457
5418,2140418,20500,-220,-1792,20579.35,24.11,-1.00,-1.0,2372
5421,2140421,32767,3576,-856,32972.67,24.06,-1.00,-1.0,2446
5424,2140424,-4628,-460,2856,5457.72,24.11,-1.00,-1.0,2367
5426,2140426,32767,2412,-1224,32878.45,24.15,-1.00,-1.0,2353
5429,2140429,4280,924,2712,5150.45,24.20,-1.00,-1.0,2463
5432,2140432,6992,-1356,-272,7127.47,24.11,-1.00,-1.0,2362
5437,2140437,-3828,-1708,3752,5625.69,24.01,-1.00,-1.0,2450
5440,2140440,32767,2180,-2040,32902.74,24.15,-1.00,-1.0,2362
5443,2140443,16772,2520,684,16974.05,24.15,-1.00,-1.0,2447
5445,2140445,25384,-520,-2336,25496.56,24.15,-1.00,-1.0,2361
5448,2140448,32392,1916,-460,32451.88,24.01,-1.00,-1.0,2441
5451,2140451,-7616,-272,3276,8295.16,24.06,-1.00,-1.0,2361
5454,2140454,26968,1004,-1596,27033.84,24.25,-1.00,-1.0,2458
5456,2140456,30964,2596,80,31072.74,24.15,-1.00,-1.0,2368
5464,2140464,-3148,-1588,2356,4240.56,24.20,-1.00,-1.0,2446
5466,2140466,29764,2152,-1004,29858.58,24.11,-1.00,-1.0,2371
5469,2140469,-6044,-604,4260,7419.05,24.15,-1.00,-1.0,2447
5472,2140472,28648,1244,-1220,28700.94,24.20,-1.00,-1.0,2380
5474,2140474,-312,448,1904,1980.72,24.15,-1.00,-1.0,2379
5477,2140477,14264,-840,-12,14288.72,24.20,-1.00,-1.0,2445
5480,2140480,32767,3240,-1704,32970.86,24.06,-1.00,-1.0,2363
5483,2140483,-2236,-52,2984,3729.16,24.15,-1.00,-1.0,2443
5485,2140485,32767,1812,-2912,32946.01,24.06,-1.00,-1.0,2364
5491,2140491,-1576,-996,4076,4482.14,24.25,-1.00,-1.0,2458
5493,2140493,28976,4300,-1772,29346.87,24.15,-1.00,-1.0,2366
5496,2140496,-9732,-104,4216,10606.47,24.15,-1.00,-1.0,2449
5499,2140499,29604,-660,-1692,29659.66,24.06,-1.00,-1.0,2381
5502,2140502,31348,1356,-1240,31401.81,24.15,-1.00,-1.0,2453
5504,2140504,9048,-956,-940,9146.79,24.06,-1.00,-1.0,2369
5507,2140507,32767,1620,-3120,32955.05,24.11,-1.00,-1.0,2447
5510,2140510,1148,480,3904,4097.50,24.15,-1.00,-1.0,2365
5515,2140515,16780,1856,1132,16920.24,24.15,-1.00,-1.0,2457
5517,2140517,-4172,-1396,3132,5400.35,24.06,-1.00,-1.0,2363
5520,2140520,32116,2572,-280,32220.04,24.15,-1.00,-1.0,2367
5523,2140523,-7104,124,3168,7779.36,24.20,-1.00,-1.0,2441
5526,2140526,26184,548,-2108,26274.43,24.06,-1.00,-1.0,2359
5528,2140528,31956,1924,-480,32017.46,24.11,-1.00,-1.0,2432
5531,2140531,10228,-344,1220,10306.25,24.06,-1.00,-1.0,2370
5534,2140534,32767,3860,-2480,33086.65,24.20,-1.00,-1.0,2441
5537,2140537,540,1452,2880,3270.21,24.25,-1.00,-1.0,2374
5542,2140542,16852,1140,128,16891.00,24.15,-1.00,-1.0,2454
5544,2140544,26180,324,-992,26200.79,24.06,-1.00,-1.0,2379
5547,2140547,32767,2584,-1228,32891.66,24.11,-1.00,-1.0,2443
5550,2140550,-8072,356,3604,8847.19,24.15,-1.00,-1.0,2376
5553,2140553,25540,220,972,25559.44,24.15,-1.00,-1.0,2438
5555,2140555,2084,772,2120,3071.39,24.15,-1.00,-1.0,2371
5558,2140558,9004,-156,-860,9046.32,24.11,-1.00,-1.0,2363
5561,2140561,32767,872,-608,32784.24,24.20,-1.00,-1.0,2445
5563,2140563,2148,160,1248,2489.38,24.20,-1.00,-1.0,2349
5568,2140568,17560,2076,668,17694.90,24.11,-1.00,-1.0,2461
5571,2140571,25480,552,-600,25493.04,24.11,-1.00,-1.0,2378
5574,2140574,32128,2796,-672,32256.44,24.20,-1.00,-1.0,2443
5577,2140577,-6980,168,2248,7334.99,24.15,-1.00,-1.0,2377
5579,2140579,27308,76,-1344,27341.16,24.11,-1.00,-1.0,2441
5582,2140582,-4,-192,3352,3357.50,24.11,-1.00,-1.0,2372
5585,2140585,9740,-1752,-100,9896.82,24.11,-1.00,-1.0,2434
5588,2140588,32767,2200,-3308,33006.96,24.15,-1.00,-1.0,2374
5592,2140592,32767,1244,-2444,32881.56,24.11,-1.00,-1.0,2454
5595,2140595,-8352,-404,3328,8999.71,24.11,-1.00,-1.0,2363
5598,2140598,25748,604,-2308,25858.29,24.06,-1.00,-1.0,2352
5600,2140600,32767,1964,-152,32826.16,24.06,-1.00,-1.0,2444
5603,2140603,7200,-912,1928,7509.26,24.06,-1.00,-1.0,2364
5606,2140606,32767,3588,-3504,33148.57,24.06,-1.00,-1.0,2438
5609,2140609,1528,1184,3672,4149.73,24.15,-1.00,-1.0,2361
5612,2140612,7320,-344,672,7358.83,24.15,-1.00,-1.0,2446
5614,2140614,19040,544,840,19066.28,24.15,-1.00,-1.0,2363
5619,2140619,32767,2176,-1884,32893.17,24.11,-1.00,-1.0,2453
5622,2140622,-7440,-1104,4472,8750.50,24.20,-1.00,-1.0,2371
5625,2140625,25556,1484,-1560,25646.54,24.20,-1.00,-1.0,2452
5627,2140627,32767,3252,-708,32935.59,24.11,-1.00,-1.0,2373
5630,2140630,7612,-684,448,7655.79,24.01,-1.00,-1.0,2448
5633,2140633,32767,1920,-1700,32867.20,24.11,-1.00,-1.0,2363
5635,2140635,3220,1188,2740,4391.74,24.11,-1.00,-1.0,2347
5638,2140638,32767,1680,-3288,32974.38,24.15,-1.00,-1.0,2442
5641,2140641,19596,1920,872,19709.13,24.11,-1.00,-1.0,2367
5646,2140646,32767,3392,-1304,32967.90,24.20,-1.00,-1.0,2455
5649,2140649,-6976,-188,2704,7484.09,24.11,-1.00,-1.0,2363
5651,2140651,23612,52,152,23612.55,24.15,-1.00,-1.0,2447
5654,2140654,3460,228,2340,4183.20,24.11,-1.00,-1.0,2366
5657,2140657,8408,-764,-20,8442.66,24.06,-1.00,-1.0,2439
5660,2140660,32767,2564,-1956,32925.31,24.01,-1.00,-1.0,2364
5662,2140662,1876,1136,3228,3902.54,24.06,-1.00,-1.0,2447
5665,2140665,32767,1800,-1840,32867.95,24.11,-1.00,-1.0,2349
5670,2140670,25148,664,-1344,25192.64,24.11,-1.00,-1.0,2468
5673,2140673,32184,1916,-308,32242.45,24.11,-1.00,-1.0,2365
5675,2140675,-4460,-224,1520,4717.22,24.15,-1.00,-1.0,2348
5678,2140678,32767,2604,-2116,32938.34,24.06,-1.00,-1.0,2440
5681,2140681,3656,1104,2928,4812.31,24.15,-1.00,-1.0,2364
5684,2140684,10968,-944,1192,11072.90,24.06,-1.00,-1.0,2447
5686,2140686,32767,3056,-1604,32948.27,24.15,-1.00,-1.0,2348
5689,2140689,-2600,-1004,88,2788.50,24.15,-1.00,-1.0,2438
5692,2140692,32767,492,-44,32770.72,24.06,-1.00,-1.0,2371
5697,2140697,26404,1440,-2304,26543.42,24.15,-1.00,-1.0,2443
5700,2140700,29564,2248,108,29649.54,24.20,-1.00,-1.0,2375
5702,2140702,-6296,-132,2064,6627.00,24.06,-1.00,-1.0,2439
5705,2140705,32767,2620,-1084,32889.45,24.15,-1.00,-1.0,2380
5708,2140708,1480,748,2432,2943.56,24.15,-1.00,-1.0,2436
5711,2140711,9476,240,-712,9505.74,24.06,-1.00,-1.0,2376
5713,2140713,32767,756,452,32778.84,24.15,-1.00,-1.0,2430
5716,2140716,-2332,-156,3196,3959.42,24.15,-1.00,-1.0,2372
5719,2140719,32767,1724,-3200,32967.99,24.15,-1.00,-1.0,2377
5724,2140724,24156,1032,-1516,24225.52,24.06,-1.00,-1.0,2452
5726,2140726,32140,1984,-104,32201.35,24.06,-1.00,-1.0,2365
5729,2140729,-3424,1040,600,3628.41,24.20,-1.00,-1.0,2428
5732,2140732,32767,852,-2212,32852.63,24.15,-1.00,-1.0,2363
5735,2140735,5924,0,2904,6597.50,24.20,-1.00,-1.0,2444
5737,2140737,7048,-752,708,7123.28,24.15,-1.00,-1.0,2349
5740,2140740,19164,2428,-72,19317.33,24.11,-1.00,-1.0,2440
5743,2140743,-3928,-1628,3416,5454.23,24.25,-1.00,-1.0,2368
5748,2140748,-3336,932,1468,3761.99,24.06,-1.00,-1.0,2444
5751,2140751,21768,20,-340,21770.66,24.15,-1.00,-1.0,2372
5753,2140753,4908,596,2940,5752.15,24.15,-1.00,-1.0,2360
5756,2140756,5652,-1040,1932,6062.95,24.11,-1.00,-1.0,2440
5759,2140759,32767,2556,-2144,32936.39,24.15,-1.00,-1.0,2363
5761,2140761,5424,1692,1360,5842.28,24.15,-1.00,-1.0,2440
5764,2140764,32767,876,-564,32783.56,24.06,-1.00,-1.0,2363
5767,2140767,20780,1844,-516,20868.04,24.01,-1.00,-1.0,2440
5770,2140770,-6016,-1172,2280,6539.44,24.15,-1.00,-1.0,2364
5775,2140775,-5564,28,2452,6080.39,24.15,-1.00,-1.0,2454
5777,2140777,19916,-1156,32,19949.55,24.15,-1.00,-1.0,2372
5780,2140780,7368,1652,1500,7698.48,24.15,-1.00,-1.0,2448
5783,2140783,3456,-808,2448,4311.55,24.06,-1.00,-1.0,2372
5786,2140786,32767,1984,-1884,32881.03,24.11,-1.00,-1.0,2454
5788,2140788,7996,24,1752,8185.73,24.15,-1.00,-1.0,2378
5791,2140791,32767,1588,-2168,32877.02,24.20,-1.00,-1.0,2368
5794,2140794,25164,2116,-1492,25296.85,24.15,-1.00,-1.0,2453
5796,2140796,-6416,-2044,4376,8030.71,24.11,-1.00,-1.0,2362
5802,2140802,-3132,88,2692,4130.86,24.15,-1.00,-1.0,2451
5805,2140805,17832,40,1216,17873.46,24.15,-1.00,-1.0,2371
5808,2140808,32767,2960,-1468,32933.16,24.15,-1.00,-1.0,2453
5810,2140810,-4348,460,2884,5237.76,24.15,-1.00,-1.0,2367
5813,2140813,32767,520,-3880,33000.02,24.15,-1.00,-1.0,2452
5816,2140816,11572,2356,1736,11936.32,24.15,-1.00,-1.0,2368
5819,2140819,-5728,-1292,4340,7301.70,24.06,-1.00,-1.0,2449
5821,2140821,32767,1048,-4220,33054.24,24.15,-1.00,-1.0,2372
5826,2140826,27184,616,-140,27191.34,24.11,-1.00,-1.0,2453
5829,2140829,924,1092,1828,2321.17,24.11,-1.00,-1.0,2362
5831,2140831,4388,-1680,1584,4958.43,24.06,-1.00,-1.0,2359
5834,2140834,32767,1108,-3440,32965.70,24.15,-1.00,-1.0,2443
5837,2140837,-6904,-788,4316,8180.10,24.06,-1.00,-1.0,2361
5840,2140840,32767,2032,-1912,32885.57,24.15,-1.00,-1.0,2441
5842,2140842,23096,1128,-400,23126.99,24.15,-1.00,-1.0,2361
5845,2140845,-4912,-1376,3892,6416.29,24.15,-1.00,-1.0,2447
5848,2140848,32767,3120,-2532,33012.45,24.25,-1.00,-1.0,2378
5853,2140853,32767,1512,-1844,32853.66,24.06,-1.00,-1.0,2451
5856,2140856,10532,1260,1232,10678.41,24.15,-1.00,-1.0,2367
5858,2140858,2868,-1012,2380,3861.86,24.15,-1.00,-1.0,2436
5861,2140861,32767,1768,-2584,32916.25,24.06,-1.00,-1.0,2366
5864,2140864,-4072,-664,2960,5077.76,24.15,-1.00,-1.0,2431
5867,2140867,29152,1476,-620,29195.93,24.11,-1.00,-1.0,2364
5869,2140869,26288,3160,-692,26486.29,24.15,-1.00,-1.0,2436
5872,2140872,-2876,-436,3028,4198.84,24.15,-1.00,-1.0,2369
5877,2140877,1364,-296,1516,2060.67,24.15,-1.00,-1.0,2450
5880,2140880,32767,2388,-1552,32890.54,24.11,-1.00,-1.0,2367
5882,2140882,13324,1308,1472,13468.73,24.15,-1.00,-1.0,2346
5885,2140885,1084,-772,2584,2906.56,24.15,-1.00,-1.0,2437
5888,2140888,27620,1400,-1776,27712.43,24.06,-1.00,-1.0,2369
5891,2140891,-3336,-684,1860,3880.25,24.15,-1.00,-1.0,2447
5893,2140893,23356,808,-552,23376.49,24.15,-1.00,-1.0,2368
5896,2140896,31484,1804,-1560,31574.20,24.15,-1.00,-1.0,2434
5899,2140899,8032,616,1860,8267.53,24.25,-1.00,-1.0,2363
5904,2140904,2004,496,2436,3193.14,24.15,-1.00,-1.0,2444
5907,2140907,28460,1676,756,28519.33,24.15,-1.00,-1.0,2370
5909,2140909,19300,360,-1704,19378.42,24.15,-1.00,-1.0,2420
5912,2140912,3564,-1576,832,3984.73,24.06,-1.00,-1.0,2370
5915,2140915,27200,1712,-700,27262.81,24.15,-1.00,-1.0,2432
5918,2140918,4736,-368,1892,5113.20,24.25,-1.00,-1.0,2380
5920,2140920,18812,1520,528,18880.69,24.06,-1.00,-1.0,2364
5923,2140923,26180,1236,-812,26221.74,24.11,-1.00,-1.0,2443
5926,2140926,10960,52,2108,11161.00,24.20,-1.00,-1.0,2368
5931,2140931,3708,-696,1800,4180.15,24.15,-1.00,-1.0,2449
5934,2140934,24176,1836,-476,24250.29,24.06,-1.00,-1.0,2366
5936,2140936,22516,880,-656,22542.74,24.25,-1.00,-1.0,2437
5939,2140939,3596,-1384,2676,4691.23,24.15,-1.00,-1.0,2364
5942,2140942,29652,3168,-1116,29841.63,24.15,-1.00,-1.0,2436
5945,2140945,9068,696,-56,9094.84,24.06,-1.00,-1.0,2365
5947,2140947,11272,-32,2452,11535.65,24.15,-1.00,-1.0,2437
5950,2140950,26512,1784,-252,26573.15,24.15,-1.00,-1.0,2367
5953,2140953,8340,384,452,8361.06,24.15,-1.00,-1.0,2360
5958,2140958,10740,-1272,832,10847.02,24.06,-1.00,-1.0,2449
5960,2140960,18464,1960,712,18581.38,24.15,-1.00,-1.0,2372
5963,2140963,21764,2184,-308,21875.47,24.25,-1.00,-1.0,2437
5966,2140966,14896,432,680,14917.77,24.15,-1.00,-1.0,2373
5969,2140969,23024,792,1384,23079.15,24.15,-1.00,-1.0,2446
5971,2140971,12080,-580,-544,12106.14,24.06,-1.00,-1.0,2363
5974,2140974,14764,708,208,14782.43,24.15,-1.00,-1.0,2440
5977,2140977,16428,1148,504,16475.77,24.15,-1.00,-1.0,2364
5982,2140982,24172,1488,44,24217.80,24.25,-1.00,-1.0,2443
5985,2140985,7184,592,-1400,7343.05,24.15,-1.00,-1.0,2374
5987,2140987,19276,488,2864,19493.71,24.15,-1.00,-1.0,2441
5990,2140990,23328,1860,-192,23402.82,24.06,-1.00,-1.0,2377
5993,2140993,13588,900,-1120,13663.75,24.25,-1.00,-1.0,2360
5995,2140995,26616,1704,-464,26674.53,24.11,-1.00,-1.0,2440
5998,2140998,10848,-636,1440,10961.62,24.15,-1.00,-1.0,2369
6001,2141001,10720,-552,1208,10801.96,24.20,-1.00,-1.0,2446
6004,2141004,20560,2300,-1992,20783.93,24.15,-1.00,-1.0,2360
6008,2141008,26664,304,1188,26692.18,24.11,-1.00,-1.0,2455
6011,2141011,11128,-424,-1700,11265.09,24.20,-1.00,-1.0,2363
6014,2141014,14172,476,1180,14229.00,24.11,-1.00,-1.0,2440
6017,2141017,17452,-520,16,17459.75,24.11,-1.00,-1.0,2361
6019,2141019,12600,396,1236,12666.67,24.20,-1.00,-1.0,2442
6022,2141022,20416,2536,364,20576.12,24.06,-1.00,-1.0,2348
6025,2141025,16748,656,640,16773.06,24.29,-1.00,-1.0,2445
6028,2141028,18744,1184,1224,18821.20,24.11,-1.00,-1.0,2359
6033,2141033,19884,972,-332,19910.51,24.15,-1.00,-1.0,2453
6035,2141035,16932,1084,1988,17082.73,24.11,-1.00,-1.0,2367
6038,2141038,17864,-116,-272,17866.45,24.15,-1.00,-1.0,2369
6041,2141041,22876,2028,-944,22985.11,24.11,-1.00,-1.0,2452
6043,2141043,11372,424,1460,11473.18,24.15,-1.00,-1.0,2356
6046,2141046,14312,36,408,14317.86,24.15,-1.00,-1.0,2445
6049,2141049,17344,548,1040,17383.79,24.15,-1.00,-1.0,2368
6052,2141052,7124,-700,-552,7179.56,24.11,-1.00,-1.0,2446
6054,2141054,23836,792,220,23850.17,24.20,-1.00,-1.0,2364
