timestamp_ms,global_ms,accel_x,accel_y,accel_z,accel_mag,temp_c,voltage,soc,loop_us
3,2135003,13136,-2968,1368,13536.43,24.62,-1.00,-1.0,2497
9,2135009,13984,428,456,13997.98,24.62,-1.00,-1.0,2461
12,2135012,18132,2076,-2004,18360.15,24.62,-1.00,-1.0,2372
15,2135015,16672,-3164,-1000,16999.01,24.53,-1.00,-1.0,2453
17,2135017,17348,-3204,692,17654.96,24.53,-1.00,-1.0,2358
20,2135020,25964,-1564,2236,26106.99,24.62,-1.00,-1.0,2363
23,2135023,7548,1732,-1100,7821.90,24.58,-1.00,-1.0,2439
25,2135025,26040,1820,388,26106.41,24.62,-1.00,-1.0,2370
28,2135028,12296,-1516,1172,12444.42,24.67,-1.00,-1.0,2436
31,2135031,21112,-3336,1516,21427.64,24.62,-1.00,-1.0,2365
36,2135036,11168,1524,-1336,11350.41,24.67,-1.00,-1.0,2444
38,2135038,24708,1580,-568,24764.98,24.67,-1.00,-1.0,2361
41,2135041,7516,-708,1740,7747.20,24.58,-1.00,-1.0,2441
44,2135044,25280,-3352,492,25506.01,24.58,-1.00,-1.0,2360
47,2135047,11820,-1124,1456,11962.26,24.58,-1.00,-1.0,2439
49,2135049,21992,1872,136,22071.95,24.58,-1.00,-1.0,2365
52,2135052,22252,1304,-1916,22372.37,24.67,-1.00,-1.0,2361
55,2135055,13080,-200,-296,13084.88,24.53,-1.00,-1.0,2447
57,2135057,23888,-3372,2416,24245.49,24.67,-1.00,-1.0,2359
62,2135062,26224,1980,-440,26302.32,24.67,-1.00,-1.0,2452
65,2135065,17168,1132,28,17205.30,24.58,-1.00,-1.0,2369
68,2135068,15484,-2632,400,15711.20,24.58,-1.00,-1.0,2442
71,2135071,21100,-3644,1472,21462.89,24.62,-1.00,-1.0,2363
73,2135073,11968,2136,-824,12185.01,24.67,-1.00,-1.0,2443
76,2135076,27068,4048,-220,27369.90,24.62,-1.00,-1.0,2373
79,2135079,7704,12,1100,7782.14,24.58,-1.00,-1.0,2445
82,2135082,26552,-4804,4256,27316.67,24.62,-1.00,-1.0,2366
84,2135084,16360,-4532,864,16998.09,24.67,-1.00,-1.0,2362
89,2135089,25732,4924,-128,26199.20,24.67,-1.00,-1.0,2455
92,2135092,6840,-964,548,6929.30,24.62,-1.00,-1.0,2364
95,2135095,28428,-5832,4060,29302.68,24.58,-1.00,-1.0,2453
97,2135097,6056,-924,1312,6265.00,24.58,-1.00,-1.0,2369
100,2135100,19620,4196,-2792,20257.00,24.58,-1.00,-1.0,2435
103,2135103,15616,3500,-668,16017.36,24.53,-1.00,-1.0,2365
106,2135106,17016,-4168,2996,17773.37,24.67,-1.00,-1.0,2455
108,2135108,18340,-6960,3772,19975.62,24.72,-1.00,-1.0,2362
111,2135111,6228,-248,48,6233.12,24.67,-1.00,-1.0,2361
116,2135116,12572,3776,-1848,13256.26,24.58,-1.00,-1.0,2456
119,2135119,19484,-6248,3672,20788.15,24.62,-1.00,-1.0,2365
121,2135121,16976,-7436,5376,19297.15,24.58,-1.00,-1.0,2450
124,2135124,7688,-64,-544,7707.49,24.67,-1.00,-1.0,2366
127,2135127,27316,8720,-4084,28963.45,24.58,-1.00,-1.0,2449
129,2135129,7216,2588,-556,7686.19,24.62,-1.00,-1.0,2359
132,2135132,27300,-7664,6312,29049.41,24.67,-1.00,-1.0,2456
135,2135135,13812,-8480,2264,16364.82,24.62,-1.00,-1.0,2358
140,2135140,24532,5384,-4240,25471.24,24.62,-1.00,-1.0,2445
143,2135143,6868,2468,-724,7333.80,24.72,-1.00,-1.0,2367
145,2135145,29144,-7008,2632,30090.07,24.53,-1.00,-1.0,2433
148,2135148,5764,-4836,1312,7637.53,24.62,-1.00,-1.0,2363
151,2135151,21000,2868,1344,21237.51,24.62,-1.00,-1.0,2358
154,2135154,13272,4284,-2752,14215.21,24.58,-1.00,-1.0,2441
156,2135156,17640,-1148,8,17677.32,24.53,-1.00,-1.0,2358
159,2135159,27616,-5520,4576,28531.62,24.58,-1.00,-1.0,2440
162,2135162,5508,-4180,1948,7183.67,24.58,-1.00,-1.0,2413
167,2135167,10888,3160,-3972,12012.95,24.72,-1.00,-1.0,2446
170,2135170,20440,360,768,20457.59,24.62,-1.00,-1.0,2368
172,2135172,15764,-5372,2188,16797.30,24.62,-1.00,-1.0,2429
175,2135175,17152,-1676,164,17234.47,24.62,-1.00,-1.0,2368
178,2135178,28936,1476,920,28988.22,24.62,-1.00,-1.0,2431
181,2135181,4364,2060,-1296,4996.77,24.67,-1.00,-1.0,2366
183,2135183,29668,-588,1476,29710.51,24.53,-1.00,-1.0,2355
186,2135186,10928,-2892,1720,11434.30,24.62,-1.00,-1.0,2439
189,2135189,20632,-1288,848,20689.55,24.53,-1.00,-1.0,2364
194,2135194,5468,888,-136,5541.31,24.62,-1.00,-1.0,2440
196,2135196,29476,-704,260,29485.55,24.58,-1.00,-1.0,2364
199,2135199,5832,-712,1076,5973.02,24.62,-1.00,-1.0,2436
202,2135202,22404,-224,1268,22440.97,24.62,-1.00,-1.0,2362
205,2135205,13924,-964,292,13960.38,24.62,-1.00,-1.0,2436
207,2135207,18432,-352,152,18435.99,24.67,-1.00,-1.0,2373
210,2135210,16236,-1284,48,16286.76,24.62,-1.00,-1.0,2430
213,2135213,7148,1416,1504,7440.50,24.67,-1.00,-1.0,2354
216,2135216,28848,-1184,976,28888.78,24.72,-1.00,-1.0,2356
221,2135221,22260,580,1504,22318.29,24.67,-1.00,-1.0,2440
223,2135223,13820,-988,80,13855.50,24.67,-1.00,-1.0,2363
226,2135226,7004,276,1784,7232.90,24.67,-1.00,-1.0,2436
229,2135229,28716,-2420,468,28821.59,24.58,-1.00,-1.0,2365
231,2135231,5040,220,-1804,5357.65,24.67,-1.00,-1.0,2431
234,2135234,28952,2324,1044,29063.88,24.58,-1.00,-1.0,2366
237,2135237,10408,-616,1444,10525.73,24.67,-1.00,-1.0,2430
240,2135240,21752,-3404,2656,22176.36,24.58,-1.00,-1.0,2373
245,2135245,7632,3140,-84,8253.12,24.62,-1.00,-1.0,2446
247,2135247,27372,2716,-1168,27531.21,24.72,-1.00,-1.0,2404
250,2135250,7556,-736,200,7594.39,24.58,-1.00,-1.0,2364
253,2135253,25064,-4380,4300,25804.62,24.62,-1.00,-1.0,2437
255,2135255,11108,-3364,1252,11673.55,24.58,-1.00,-1.0,2370
258,2135258,18328,3476,-2324,18798.91,24.67,-1.00,-1.0,2448
261,2135261,27452,4836,-1124,27897.36,24.58,-1.00,-1.0,2372
264,2135264,5724,-452,2272,6174.99,24.62,-1.00,-1.0,2437
267,2135267,32080,-6824,3116,32945.45,24.48,-1.00,-1.0,2380
272,2135272,22048,6812,124,23076.68,24.67,-1.00,-1.0,2443
275,2135275,12508,3752,-820,13084.34,24.67,-1.00,-1.0,2371
277,2135277,16512,-5952,4624,18150.86,24.58,-1.00,-1.0,2423
280,2135280,19900,-8504,2524,21787.58,24.58,-1.00,-1.0,2364
283,2135283,5000,608,132,5038.56,24.58,-1.00,-1.0,2436
286,2135286,28796,8896,-3720,30367.53,24.62,-1.00,-1.0,2366
288,2135288,5828,2216,792,6285.18,24.58,-1.00,-1.0,2361
291,2135291,21296,-7272,3492,22772.70,24.67,-1.00,-1.0,2435
294,2135294,16200,-9440,3884,19147.82,24.62,-1.00,-1.0,2372
299,2135299,27416,9056,-3292,29060.03,24.58,-1.00,-1.0,2440
301,2135301,6276,2584,-1292,6909.02,24.58,-1.00,-1.0,2367
304,2135304,29344,-9004,3796,30928.17,24.67,-1.00,-1.0,2440
307,2135307,13864,-8812,4200,16955.88,24.58,-1.00,-1.0,2365
310,2135310,17000,3312,-1324,17370.16,24.62,-1.00,-1.0,2442
312,2135312,16956,5676,-5716,18772.20,24.67,-1.00,-1.0,2365
315,2135315,16440,-1352,424,16500.95,24.67,-1.00,-1.0,2438
318,2135318,27988,-8700,4156,29602.20,24.58,-1.00,-1.0,2365
323,2135323,20684,4088,-836,21100.68,24.58,-1.00,-1.0,2439
326,2135326,14012,5428,-3228,15369.43,24.58,-1.00,-1.0,2370
328,2135328,17208,-1664,3176,17577.57,24.58,-1.00,-1.0,2360
331,2135331,18588,-8008,4492,20732.10,24.62,-1.00,-1.0,2437
334,2135334,7092,-3408,384,7877.71,24.58,-1.00,-1.0,2366
336,2135336,28476,5788,-924,29072.96,24.62,-1.00,-1.0,2435
339,2135339,6180,2780,-1364,6912.40,24.67,-1.00,-1.0,2365
342,2135342,21172,-2016,3876,21618.08,24.58,-1.00,-1.0,2435
345,2135345,13996,-7360,1844,15920.36,24.58,-1.00,-1.0,2367
350,2135350,27300,4716,-2164,27788.73,24.62,-1.00,-1.0,2446
352,2135352,7612,960,-684,7702.73,24.62,-1.00,-1.0,2367
355,2135355,27940,-5144,5232,28887.34,24.58,-1.00,-1.0,2450
358,2135358,6136,-1720,2756,6942.94,24.62,-1.00,-1.0,2373
361,2135361,21744,3000,-2472,22088.74,24.58,-1.00,-1.0,2442
363,2135363,13212,3040,-2260,13744.31,24.62,-1.00,-1.0,2364
366,2135366,19692,-2992,124,19918.39,24.58,-1.00,-1.0,2368
369,2135369,26092,-4948,5592,27139.38,24.67,-1.00,-1.0,2436
372,2135372,7452,-1644,708,7663.96,24.58,-1.00,-1.0,2425
377,2135377,6864,1692,-588,7093.88,24.62,-1.00,-1.0,2445
380,2135380,21316,-2408,1372,21495.41,24.62,-1.00,-1.0,2366
382,2135382,15128,-5216,1940,16119.14,24.62,-1.00,-1.0,2437
385,2135385,17424,1344,812,17494.61,24.58,-1.00,-1.0,2365
388,2135388,16688,2020,-400,16814.57,24.72,-1.00,-1.0,2436
391,2135391,7092,1068,-1528,7332.93,24.67,-1.00,-1.0,2367
393,2135393,28200,-2164,3508,28499.63,24.72,-1.00,-1.0,2437
396,2135396,6172,-2124,1672,6737.99,24.67,-1.00,-1.0,2365
401,2135401,14400,1244,-188,14454.86,24.58,-1.00,-1.0,2447
404,2135404,6656,1316,-240,6789.09,24.67,-1.00,-1.0,2371
406,2135406,27668,-1368,2132,27783.72,24.67,-1.00,-1.0,2360
409,2135409,5940,-1596,2200,6532.29,24.72,-1.00,-1.0,2436
412,2135412,25476,-712,1468,25528.19,24.58,-1.00,-1.0,2368
415,2135415,10432,700,1216,10525.93,24.62,-1.00,-1.0,2436
417,2135417,19900,2672,1760,20155.57,24.58,-1.00,-1.0,2367
420,2135420,12816,-1196,2168,13052.99,24.58,-1.00,-1.0,2436
423,2135423,21880,-3752,1888,22279.51,24.53,-1.00,-1.0,2364
428,2135428,7312,-208,-632,7342.21,24.62,-1.00,-1.0,2448
430,2135430,25540,4320,-2140,25991.03,24.53,-1.00,-1.0,2366
433,2135433,10244,320,912,10289.49,24.62,-1.00,-1.0,2438
436,2135436,24392,-6448,4408,25612.04,24.62,-1.00,-1.0,2368
439,2135439,23836,-7024,3072,25038.54,24.62,-1.00,-1.0,2443
441,2135441,8540,2200,-3488,9483.55,24.72,-1.00,-1.0,2365
444,2135444,23272,6932,-4208,24644.39,24.72,-1.00,-1.0,2360
447,2135447,10344,-1404,164,10440.14,24.67,-1.00,-1.0,2436
450,2135450,26592,-8280,8120,29010.81,24.72,-1.00,-1.0,2365
455,2135455,13144,3960,852,13753.99,24.58,-1.00,-1.0,2449
457,2135457,19168,8264,-2560,21029.97,24.58,-1.00,-1.0,2367
460,2135460,10468,788,1024,10547.44,24.58,-1.00,-1.0,2443
463,2135463,25280,-9228,6328,27645.58,24.58,-1.00,-1.0,2366
466,2135466,9892,-8008,3760,13270.92,24.67,-1.00,-1.0,2443
468,2135468,25020,3344,-2848,25402.63,24.58,-1.00,-1.0,2364
471,2135471,10224,7948,-3964,13543.05,24.58,-1.00,-1.0,2437
474,2135474,23536,-88,1512,23584.68,24.58,-1.00,-1.0,2366
479,2135479,12288,-6420,2072,14018.01,24.53,-1.00,-1.0,2426
482,2135482,25660,1816,1936,25796.93,24.53,-1.00,-1.0,2366
484,2135484,8248,7308,-3128,11455.16,24.58,-1.00,-1.0,2360
487,2135487,24688,1120,-132,24713.74,24.58,-1.00,-1.0,2437
490,2135490,16216,-5324,4256,17590.26,24.53,-1.00,-1.0,2364
492,2135492,17180,-7252,1060,18678.00,24.58,-1.00,-1.0,2435
495,2135495,17664,776,-1976,17791.11,24.62,-1.00,-1.0,2364
498,2135498,15356,6312,-3056,16881.56,24.67,-1.00,-1.0,2452
501,2135501,18980,-412,1256,19025.97,24.58,-1.00,-1.0,2366
506,2135506,25752,-4464,3844,26417.21,24.58,-1.00,-1.0,2443
509,2135509,14424,-704,808,14463.76,24.58,-1.00,-1.0,2367
511,2135511,18316,5284,-1464,19119.10,24.58,-1.00,-1.0,2436
514,2135514,15120,776,556,15150.11,24.58,-1.00,-1.0,2365
517,2135517,17952,-4156,2876,18649.88,24.67,-1.00,-1.0,2435
520,2135520,23564,-5484,1888,24267.28,24.62,-1.00,-1.0,2366
522,2135522,10520,212,-2340,10779.19,24.67,-1.00,-1.0,2360
525,2135525,24992,5656,-296,25625.73,24.62,-1.00,-1.0,2448
528,2135528,10220,-272,684,10246.47,24.58,-1.00,-1.0,2373
533,2135533,13084,-3176,2396,13675.48,24.67,-1.00,-1.0,2440
536,2135536,12732,1680,-308,12846.05,24.67,-1.00,-1.0,2374
539,2135539,20168,3904,-1856,20626.06,24.58,-1.00,-1.0,2437
541,2135541,13344,-1612,1236,13497.72,24.67,-1.00,-1.0,2365
544,2135544,21912,-6552,792,22884.31,24.58,-1.00,-1.0,2436
547,2135547,9916,-1524,1736,10181.52,24.58,-1.00,-1.0,2364
549,2135549,24068,4180,-1016,24449.40,24.58,-1.00,-1.0,2436
552,2135552,10652,1800,832,10835.00,24.67,-1.00,-1.0,2366
557,2135557,19888,-7156,1308,21176.68,24.67,-1.00,-1.0,2440
560,2135560,12984,2560,-1404,13308.23,24.62,-1.00,-1.0,2367
563,2135563,24100,5852,-2572,24933.33,24.67,-1.00,-1.0,2433
565,2135565,9668,2104,-480,9905.93,24.53,-1.00,-1.0,2367
568,2135568,25020,-5952,4244,26066.04,24.58,-1.00,-1.0,2360
571,2135571,17584,-7280,3844,19415.76,24.58,-1.00,-1.0,2442
573,2135573,15844,1736,-608,15950.41,24.58,-1.00,-1.0,2365
576,2135576,15660,5100,-3160,16769.95,24.67,-1.00,-1.0,2436
579,2135579,18256,-1152,-1024,18320.95,24.53,-1.00,-1.0,2380
584,2135584,9260,-4292,1416,10304.07,24.62,-1.00,-1.0,2455
587,2135587,25216,5288,1184,25791.69,24.62,-1.00,-1.0,2375
590,2135590,12148,3248,-2520,12824.73,24.67,-1.00,-1.0,2450
592,2135592,21928,-2920,-432,22125.78,24.53,-1.00,-1.0,2373
595,2135595,14020,-5476,3764,15514.98,24.58,-1.00,-1.0,2446
598,2135598,18244,1768,100,18329.74,24.62,-1.00,-1.0,2367
601,2135601,23368,4640,-2552,23960.50,24.67,-1.00,-1.0,2449
603,2135603,11556,1608,-1416,11752.95,24.62,-1.00,-1.0,2374
606,2135606,24112,-4436,4180,24870.45,24.58,-1.00,-1.0,2368
611,2135611,23256,1032,-384,23282.05,24.58,-1.00,-1.0,2454
614,2135614,11288,3644,-1416,11945.83,24.53,-1.00,-1.0,2369
617,2135617,14608,1344,-540,14679.63,24.58,-1.00,-1.0,2452
619,2135619,20896,-4252,1740,21395.09,24.62,-1.00,-1.0,2375
622,2135622,12864,-2752,1680,13261.92,24.58,-1.00,-1.0,2444
625,2135625,21768,864,-1360,21827.55,24.72,-1.00,-1.0,2367
628,2135628,8324,2976,324,8845.93,24.58,-1.00,-1.0,2449
630,2135630,24420,-88,1128,24446.20,24.77,-1.00,-1.0,2375
635,2135635,17968,-896,2472,18159.37,24.67,-1.00,-1.0,2440
638,2135638,16164,-148,912,16190.38,24.58,-1.00,-1.0,2368
641,2135641,10784,572,-2956,11196.42,24.58,-1.00,-1.0,2436
643,2135643,24212,-456,-1256,24248.84,24.67,-1.00,-1.0,2372
646,2135646,12272,-1864,1808,12543.74,24.58,-1.00,-1.0,2360
649,2135649,22328,-1632,1028,22411.15,24.62,-1.00,-1.0,2442
651,2135651,12244,592,656,12275.84,24.62,-1.00,-1.0,2364
654,2135654,20852,2992,1616,21127.46,24.72,-1.00,-1.0,2437
657,2135657,12108,-632,3000,12490.12,24.58,-1.00,-1.0,2365
662,2135662,18576,-2884,2100,18915.48,24.62,-1.00,-1.0,2440
665,2135665,14192,1448,-3040,14585.99,24.53,-1.00,-1.0,2366
667,2135667,21228,4592,1244,21754.59,24.62,-1.00,-1.0,2437
670,2135670,10712,144,2604,11024.90,24.72,-1.00,-1.0,2365
673,2135673,24544,-5084,3900,25366.61,24.62,-1.00,-1.0,2436
676,2135676,11360,-1432,1752,11583.17,24.62,-1.00,-1.0,2365
678,2135678,16504,3364,-2412,17015.18,24.62,-1.00,-1.0,2436
681,2135681,15816,4328,-2504,16587.57,24.62,-1.00,-1.0,2365
686,2135686,21148,-7532,5176,23038.23,24.67,-1.00,-1.0,2449
689,2135689,12304,-2268,728,12532.45,24.67,-1.00,-1.0,2382
692,2135692,23192,6056,-4240,24341.77,24.62,-1.00,-1.0,2360
694,2135694,9104,5580,-288,10681.86,24.53,-1.00,-1.0,2436
697,2135697,21676,-2808,2936,22053.43,24.62,-1.00,-1.0,2365
700,2135700,14096,-7044,4996,16531.04,24.62,-1.00,-1.0,2435
703,2135703,20604,-1100,868,20651.59,24.53,-1.00,-1.0,2364
705,2135705,19320,3900,-3416,20003.54,24.62,-1.00,-1.0,2436
708,2135708,14464,4240,-1928,15195.46,24.62,-1.00,-1.0,2365
713,2135713,11180,-5248,2688,12639.59,24.53,-1.00,-1.0,2439
716,2135716,23680,-672,3572,23957.32,24.58,-1.00,-1.0,2370
719,2135719,9784,3004,632,10254.27,24.72,-1.00,-1.0,2435
721,2135721,18296,1920,-1964,18501.01,24.62,-1.00,-1.0,2368
724,2135724,16164,-1808,764,16282.74,24.62,-1.00,-1.0,2437
727,2135727,18084,-3352,-1088,18424.19,24.58,-1.00,-1.0,2366
729,2135729,23868,-404,2188,23971.48,24.53,-1.00,-1.0,2359
732,2135732,10768,2296,2576,11307.40,24.67,-1.00,-1.0,2442
735,2135735,23612,-280,360,23616.40,24.58,-1.00,-1.0,2365
740,2135740,22684,-780,760,22710.13,24.62,-1.00,-1.0,2428
743,2135743,11424,-1596,900,11570.00,24.53,-1.00,-1.0,2368
746,2135746,22908,-2176,-444,23015.40,24.62,-1.00,-1.0,2442
748,2135748,20708,-1272,760,20760.95,24.62,-1.00,-1.0,2367
751,2135751,11616,1644,-1020,11776.02,24.62,-1.00,-1.0,2424
754,2135754,22548,1368,-40,22589.50,24.67,-1.00,-1.0,2365
757,2135757,11008,-2160,2820,11566.94,24.62,-1.00,-1.0,2438
759,2135759,25516,-4436,2940,26065.07,24.53,-1.00,-1.0,2367
764,2135764,14432,3672,-1100,14932.39,24.72,-1.00,-1.0,2449
767,2135767,18456,3820,36,18847.22,24.67,-1.00,-1.0,2374
770,2135770,13356,-2952,2052,13831.40,24.62,-1.00,-1.0,2360
772,2135772,25896,-5808,4256,26878.42,24.72,-1.00,-1.0,2437
775,2135775,8632,-1664,1868,8987.20,24.62,-1.00,-1.0,2367
778,2135778,24924,5692,1080,25588.49,24.62,-1.00,-1.0,2435
781,2135781,7840,2040,1236,8194.81,24.62,-1.00,-1.0,2368
783,2135783,16516,-3132,296,16812.95,24.53,-1.00,-1.0,2436
786,2135786,20308,-6016,2324,21307.46,24.67,-1.00,-1.0,2368
791,2135791,26848,5964,340,27504.54,24.58,-1.00,-1.0,2443
794,2135794,8232,2472,876,8639.67,24.67,-1.00,-1.0,2367
797,2135797,25196,-5464,3296,25991.49,24.67,-1.00,-1.0,2446
799,2135799,15976,-6592,1756,17371.54,24.58,-1.00,-1.0,2365
802,2135802,16020,1896,-56,16131.91,24.58,-1.00,-1.0,2438
805,2135805,17352,3804,-1936,17869.26,24.67,-1.00,-1.0,2365
807,2135807,9096,1292,-592,9206.35,24.77,-1.00,-1.0,2360
810,2135810,25960,-5236,2752,26625.38,24.62,-1.00,-1.0,2440
813,2135813,9128,-1380,2236,9498.66,24.72,-1.00,-1.0,2378
818,2135818,14812,2544,-1464,15100.02,24.72,-1.00,-1.0,2442
821,2135821,19176,-2748,1608,19438.52,24.58,-1.00,-1.0,2367
824,2135824,16020,-5804,2396,17206.62,24.67,-1.00,-1.0,2443
826,2135826,8852,-948,-1448,9019.61,24.58,-1.00,-1.0,2365
829,2135829,26952,5720,-1060,27572.67,24.62,-1.00,-1.0,2442
832,2135832,8540,796,456,8589.13,24.58,-1.00,-1.0,2364
835,2135835,25348,-5808,5656,26612.86,24.67,-1.00,-1.0,2443
837,2135837,13716,-5868,1600,15004.07,24.48,-1.00,-1.0,2352
842,2135842,21696,4640,-2668,22346.46,24.62,-1.00,-1.0,2445
845,2135845,10300,796,-72,10330.96,24.58,-1.00,-1.0,2367
848,2135848,24872,-5500,2992,25647.97,24.62,-1.00,-1.0,2365
850,2135850,9340,-4684,2428,10727.10,24.67,-1.00,-1.0,2445
853,2135853,24356,3164,1004,24581.16,24.72,-1.00,-1.0,2373
856,2135856,10788,4024,1116,11568.02,24.53,-1.00,-1.0,2425
859,2135859,22400,-2496,2448,22671.19,24.53,-1.00,-1.0,2364
861,2135861,19504,-5188,2044,20285.45,24.48,-1.00,-1.0,2436
864,2135864,13180,288,356,13187.95,24.58,-1.00,-1.0,2373
869,2135869,10664,872,-748,10725.71,24.67,-1.00,-1.0,2440
872,2135872,23320,-3512,2744,23742.07,24.67,-1.00,-1.0,2367
875,2135875,11468,-2848,1748,11944.94,24.67,-1.00,-1.0,2442
877,2135877,16628,1200,-28,16671.27,24.58,-1.00,-1.0,2365
880,2135880,16628,2924,-28,16883.16,24.62,-1.00,-1.0,2360
883,2135883,15448,-1060,996,15516.32,24.62,-1.00,-1.0,2446
885,2135885,19084,-4248,3064,19789.71,24.62,-1.00,-1.0,2365
888,2135888,9964,-2076,1340,10265.80,24.58,-1.00,-1.0,2437
891,2135891,24428,3420,336,24668.53,24.67,-1.00,-1.0,2353
896,2135896,18640,-1536,1600,18771.49,24.67,-1.00,-1.0,2451
899,2135899,16304,-2824,3088,16832.44,24.58,-1.00,-1.0,2382
902,2135902,16320,380,972,16353.34,24.58,-1.00,-1.0,2438
905,2135905,17792,696,-576,17814.92,24.67,-1.00,-1.0,2370
907,2135907,9628,352,-928,9679.02,24.67,-1.00,-1.0,2438
910,2135910,24936,-2244,200,25037.56,24.67,-1.00,-1.0,2379
913,2135913,9976,-1204,1780,10204.83,24.58,-1.00,-1.0,2440
916,2135916,24128,724,2036,24224.57,24.67,-1.00,-1.0,2370
918,2135918,13164,580,-4,13176.77,24.67,-1.00,-1.0,2360
923,2135923,20952,-1736,700,21035.45,24.58,-1.00,-1.0,2443
926,2135926,12176,-1244,1196,12297.68,24.67,-1.00,-1.0,2374
929,2135929,21324,-864,1056,21367.61,24.77,-1.00,-1.0,2436
932,2135932,11412,-568,-2204,11636.75,24.58,-1.00,-1.0,2363
934,2135934,24200,1312,1648,24291.51,24.67,-1.00,-1.0,2424
937,2135937,11204,-1068,556,11268.51,24.58,-1.00,-1.0,2379
940,2135940,23420,-132,2460,23549.21,24.58,-1.00,-1.0,2440
943,2135943,12236,656,1760,12379.32,24.67,-1.00,-1.0,2372
948,2135948,16252,-680,464,16272.84,24.58,-1.00,-1.0,2440
950,2135950,12544,-1280,-664,12626.61,24.72,-1.00,-1.0,2369
953,2135953,22212,-1984,-928,22319.73,24.67,-1.00,-1.0,2362
956,2135956,13356,-776,-528,13388.94,24.67,-1.00,-1.0,2447
958,2135958,21836,452,2080,21939.50,24.58,-1.00,-1.0,2374
961,2135961,11044,1024,1264,11163.16,24.53,-1.00,-1.0,2435
964,2135964,23492,-824,824,23520.88,24.67,-1.00,-1.0,2368
967,2135967,11528,-968,2528,11841.56,24.58,-1.00,-1.0,2448
969,2135969,22176,-804,1480,22239.87,24.72,-1.00,-1.0,2365
974,2135974,15524,-160,-1132,15566.04,24.62,-1.00,-1.0,2440
977,2135977,23732,280,1700,23794.46,24.53,-1.00,-1.0,2366
980,2135980,10516,-740,1592,10661.53,24.62,-1.00,-1.0,2439
983,2135983,24492,-844,732,24517.47,24.58,-1.00,-1.0,2365
985,2135985,9464,528,704,9504.83,24.53,-1.00,-1.0,2435
988,2135988,20328,608,1904,20426.02,24.62,-1.00,-1.0,2365
991,2135991,12692,-848,1856,12854.99,24.72,-1.00,-1.0,2360
994,2135994,21704,-1716,580,21779.46,24.67,-1.00,-1.0,2436
996,2135996,13572,-640,-236,13589.13,24.67,-1.00,-1.0,2364
1001,2136001,22080,0,-1960,22166.82,24.62,-1.00,-1.0,2427
1004,2136004,10128,-304,4172,10957.85,24.72,-1.00,-1.0,2367
1007,2136007,23704,-4452,2492,24246.86,24.58,-1.00,-1.0,2436
1010,2136010,9952,736,500,9991.70,24.72,-1.00,-1.0,2367
1012,2136012,23168,4448,448,23595.37,24.58,-1.00,-1.0,2435
1015,2136015,14020,1392,156,14089.80,24.62,-1.00,-1.0,2365
1018,2136018,19976,-5320,1364,20717.23,24.58,-1.00,-1.0,2436
1021,2136021,15316,-4900,1124,16119.96,24.72,-1.00,-1.0,2365
1026,2136026,21076,5640,-2148,21923.08,24.72,-1.00,-1.0,2444
1028,2136028,12116,-24,1268,12182.19,24.62,-1.00,-1.0,2375
1031,2136031,23480,-6268,3328,24529.04,24.62,-1.00,-1.0,2360
1034,2136034,11768,-4776,2836,13013.03,24.67,-1.00,-1.0,2442
1036,2136036,21976,4584,996,22471.08,24.72,-1.00,-1.0,2365
1039,2136039,17004,4616,-4540,18194.92,24.67,-1.00,-1.0,2437
1042,2136042,17720,-792,-288,17740.03,24.62,-1.00,-1.0,2365
1045,2136045,18520,-6888,3128,20005.48,24.67,-1.00,-1.0,2435
1048,2136048,14024,-288,460,14034.50,24.67,-1.00,-1.0,2369
1052,2136052,8440,3528,156,9149.03,24.62,-1.00,-1.0,2448
1055,2136055,21284,-2944,360,21489.66,24.62,-1.00,-1.0,2374
1058,2136058,14408,-7020,2080,16161.60,24.62,-1.00,-1.0,2436
1061,2136061,20676,716,-1560,20747.12,24.67,-1.00,-1.0,2361
1063,2136063,13920,4980,-1112,14825.77,24.58,-1.00,-1.0,2450
1066,2136066,9688,2092,-424,9920.36,24.67,-1.00,-1.0,2365
1069,2136069,25112,-4464,3084,25691.46,24.67,-1.00,-1.0,2439
1072,2136072,9668,-3636,2416,10607.91,24.58,-1.00,-1.0,2369
1075,2136075,24500,2332,-668,24619.80,24.67,-1.00,-1.0,2364
1079,2136079,21860,-200,728,21873.03,24.67,-1.00,-1.0,2445
1082,2136082,20516,-4416,1192,21019.71,24.62,-1.00,-1.0,2366
1085,2136085,13664,-3316,1044,14099.32,24.67,-1.00,-1.0,2437
1088,2136088,21344,1292,104,21383.32,24.62,-1.00,-1.0,2362
1090,2136090,12084,3572,1600,12702.06,24.58,-1.00,-1.0,2439
1093,2136093,22936,96,92,22936.38,24.62,-1.00,-1.0,2366
1096,2136096,14448,-3548,624,14890.35,24.58,-1.00,-1.0,2438
1099,2136099,21168,-1936,2724,21430.18,24.62,-1.00,-1.0,2363
1104,2136104,19232,2656,-2680,19598.64,24.62,-1.00,-1.0,2450
1106,2136106,13960,-1320,2208,14195.04,24.67,-1.00,-1.0,2365
1109,2136109,20784,-4812,1100,21362.12,24.53,-1.00,-1.0,2454
1112,2136112,19168,-2368,2428,19465.73,24.72,-1.00,-1.0,2362
1115,2136115,14144,3252,508,14521.92,24.72,-1.00,-1.0,2446
1117,2136117,17420,2812,476,17651.92,24.58,-1.00,-1.0,2363
1120,2136120,14452,-3624,1340,14959.59,24.53,-1.00,-1.0,2456
1123,2136123,22108,-4436,3324,22792.34,24.62,-1.00,-1.0,2363
1126,2136126,12096,368,3328,12550.87,24.58,-1.00,-1.0,2361
1131,2136131,14920,2452,-1176,15165.81,24.72,-1.00,-1.0,2448
1133,2136133,18120,-1904,1204,18259.50,24.62,-1.00,-1.0,2369
1136,2136136,22788,-3468,2804,23220.30,24.67,-1.00,-1.0,2447
1139,2136139,11380,-848,2308,11642.61,24.62,-1.00,-1.0,2371
1142,2136142,23860,1816,1032,23951.25,24.58,-1.00,-1.0,2453
1144,2136144,7708,2524,1184,8196.69,24.62,-1.00,-1.0,2372
1147,2136147,24628,-512,-1132,24659.32,24.58,-1.00,-1.0,2448
1150,2136150,12956,-3628,912,13485.25,24.53,-1.00,-1.0,2364
1155,2136155,22024,72,-2032,22117.66,24.62,-1.00,-1.0,2451
1157,2136157,12620,992,-676,12676.96,24.58,-1.00,-1.0,2365
1160,2136160,22300,-1684,400,22367.07,24.62,-1.00,-1.0,2448
1163,2136163,9380,-492,2456,9708.68,24.62,-1.00,-1.0,2362
1166,2136166,24148,100,1984,24229.57,24.72,-1.00,-1.0,2446
1168,2136168,9644,-124,984,9694.86,24.58,-1.00,-1.0,2363
1171,2136171,18748,-1212,-112,18787.47,24.62,-1.00,-1.0,2369
1174,2136174,17244,-1516,124,17310.96,24.58,-1.00,-1.0,2426
1177,2136177,16892,1804,156,16988.77,24.58,-1.00,-1.0,2364
1182,2136182,11388,-1824,8,11533.15,24.48,-1.00,-1.0,2444
1184,2136184,23372,-2088,3564,23734.20,24.58,-1.00,-1.0,2374
1187,2136187,12300,-1432,916,12416.91,24.58,-1.00,-1.0,2439
1190,2136190,21152,3288,616,21414.89,24.58,-1.00,-1.0,2350
1193,2136193,12436,700,808,12481.87,24.58,-1.00,-1.0,2449
1195,2136195,21912,-3924,1408,22305.07,24.67,-1.00,-1.0,2370
1198,2136198,19988,-3964,1824,20458.75,24.67,-1.00,-1.0,2439
1201,2136201,13196,1432,-4,13273.47,24.67,-1.00,-1.0,2363
1206,2136206,8712,544,384,8737.41,24.67,-1.00,-1.0,2449
1208,2136208,25120,-4132,3464,25692.16,24.62,-1.00,-1.0,2365
1211,2136211,15248,-4912,684,16034.25,24.67,-1.00,-1.0,2368
1214,2136214,18732,1908,-1328,18875.70,24.58,-1.00,-1.0,2438
1217,2136217,16576,3216,-456,16891.25,24.67,-1.00,-1.0,2359
1219,2136219,16812,-2000,196,16931.68,24.67,-1.00,-1.0,2442
1222,2136222,24388,-3704,3392,24899.79,24.58,-1.00,-1.0,2378
1225,2136225,9776,-1628,2620,10251.10,24.58,-1.00,-1.0,2439
1228,2136228,23580,2192,-32,23681.69,24.62,-1.00,-1.0,2370
1233,2136233,21876,-236,1108,21905.31,24.72,-1.00,-1.0,2446
1235,2136235,13268,-3388,3016,14021.93,24.67,-1.00,-1.0,2365
1238,2136238,20772,-1232,1068,20835.89,24.62,-1.00,-1.0,2425
1241,2136241,20396,1188,-544,20437.81,24.62,-1.00,-1.0,2363
1244,2136244,13812,2740,-80,14081.38,24.62,-1.00,-1.0,2439
1246,2136246,17980,-1244,1404,18077.59,24.67,-1.00,-1.0,2365
1249,2136249,15652,-4680,1560,16411.01,24.62,-1.00,-1.0,2439
1252,2136252,21952,-3324,2300,22321.05,24.58,-1.00,-1.0,2363
1257,2136257,20028,3532,-1996,20434.77,24.62,-1.00,-1.0,2443
1259,2136259,13084,-16,1256,13144.16,24.58,-1.00,-1.0,2368
1262,2136262,16236,-4356,1832,16909.72,24.72,-1.00,-1.0,2361
1265,2136265,18940,-3900,2152,19456.74,24.58,-1.00,-1.0,2440
1267,2136267,14632,2888,-644,14928.18,24.72,-1.00,-1.0,2362
1270,2136270,17864,4296,-336,18376.37,24.58,-1.00,-1.0,2440
1273,2136273,12096,-92,-168,12097.52,24.62,-1.00,-1.0,2363
1276,2136276,24380,-6052,3620,25379.43,24.67,-1.00,-1.0,2440
1279,2136279,10556,-1428,2556,10954.52,24.58,-1.00,-1.0,2371
1284,2136284,15240,3456,-3124,15936.15,24.62,-1.00,-1.0,2446
1286,2136286,18324,-3060,1504,18638.52,24.67,-1.00,-1.0,2374
1289,2136289,17600,-5856,2312,18692.19,24.62,-1.00,-1.0,2438
1292,2136292,10144,-1024,1268,10274.10,24.62,-1.00,-1.0,2363
1295,2136295,24696,4860,-64,25169.75,24.62,-1.00,-1.0,2451
1297,2136297,7840,2088,2016,8360.00,24.58,-1.00,-1.0,2371
1300,2136300,26300,-6024,2396,27087.26,24.62,-1.00,-1.0,2446
1303,2136303,11360,-4528,2108,12409.51,24.53,-1.00,-1.0,2363
1308,2136308,21736,4860,-1352,22313.70,24.58,-1.00,-1.0,2451
1311,2136311,10744,-740,2496,11054.92,24.67,-1.00,-1.0,2366
1313,2136313,24164,-7044,3460,25406.46,24.67,-1.00,-1.0,2451
1316,2136316,9044,-2428,2632,9727.10,24.48,-1.00,-1.0,2369
1319,2136319,24504,5328,-2436,25194.60,24.62,-1.00,-1.0,2362
1321,2136321,9324,3140,-740,9866.32,24.62,-1.00,-1.0,2438
1324,2136324,23388,-5928,3072,24322.35,24.62,-1.00,-1.0,2365
1327,2136327,20228,-7616,3508,21897.07,24.53,-1.00,-1.0,2438
1330,2136330,13892,1584,1404,14052.33,24.72,-1.00,-1.0,2352
1335,2136335,9312,2992,-1668,9922.08,24.58,-1.00,-1.0,2449
1337,2136337,24172,-4512,4320,24966.10,24.67,-1.00,-1.0,2365
1340,2136340,9944,-4860,2876,11435.65,24.58,-1.00,-1.0,2456
1343,2136343,18572,592,-56,18581.52,24.58,-1.00,-1.0,2362
1346,2136346,15804,4172,-1980,16464.88,24.53,-1.00,-1.0,2446
1348,2136348,17584,852,716,17619.18,24.67,-1.00,-1.0,2363
1351,2136351,17428,-5736,3020,18594.55,24.67,-1.00,-1.0,2458
1354,2136354,11056,-3904,2120,11915.15,24.58,-1.00,-1.0,2362
1359,2136359,11768,3388,-1732,12367.87,24.58,-1.00,-1.0,2443
1362,2136362,21760,608,968,21790.00,24.67,-1.00,-1.0,2366
1364,2136364,12176,-3792,2576,13010.38,24.58,-1.00,-1.0,2367
1367,2136367,21776,-1608,408,21839.10,24.62,-1.00,-1.0,2452
1370,2136370,18812,1488,644,18881.74,24.62,-1.00,-1.0,2370
1373,2136373,14856,932,-856,14909.80,24.72,-1.00,-1.0,2446
1375,2136375,18604,-1424,1208,18697.48,24.62,-1.00,-1.0,2369
1378,2136378,14628,-1348,1100,14731.11,24.53,-1.00,-1.0,2452
1381,2136381,23808,-204,1588,23861.77,24.72,-1.00,-1.0,2363
1386,2136386,20632,-864,-472,20655.48,24.62,-1.00,-1.0,2445
1389,2136389,13868,-636,924,13913.29,24.72,-1.00,-1.0,2374
1391,2136391,19620,616,900,19650.29,24.67,-1.00,-1.0,2442
1394,2136394,14388,-560,952,14430.33,24.72,-1.00,-1.0,2378
1397,2136397,12660,-1016,788,12725.12,24.58,-1.00,-1.0,2439
1400,2136400,21024,-1696,972,21114.68,24.58,-1.00,-1.0,2425
1403,2136403,12420,72,180,12421.51,24.62,-1.00,-1.0,2444
1405,2136405,21836,-192,-140,21837.29,24.62,-1.00,-1.0,2373
1408,2136408,10372,112,1132,10434.19,24.67,-1.00,-1.0,2361
1413,2136413,16740,-1360,1040,16827.32,24.58,-1.00,-1.0,2442
1416,2136416,17152,-1340,0,17204.26,24.67,-1.00,-1.0,2370
1418,2136418,17552,-160,-912,17576.41,24.67,-1.00,-1.0,2437
1421,2136421,15800,1656,-48,15886.62,24.58,-1.00,-1.0,2367
1424,2136424,22728,268,936,22748.84,24.67,-1.00,-1.0,2437
1427,2136427,11176,-2928,1152,11610.48,24.67,-1.00,-1.0,2369
1429,2136429,24208,-2524,2244,24442.45,24.58,-1.00,-1.0,2423
1432,2136432,10588,1924,-292,10765.35,24.67,-1.00,-1.0,2379
1437,2136437,14084,-1112,-1292,14186.79,24.62,-1.00,-1.0,2456
1440,2136440,12684,-2580,3512,13411.73,24.62,-1.00,-1.0,2375
1443,2136443,21572,-3752,2992,22099.34,24.67,-1.00,-1.0,2447
1445,2136445,10540,1316,-344,10627.41,24.62,-1.00,-1.0,2369
1448,2136448,23872,2996,-1100,24084.40,24.67,-1.00,-1.0,2446
1451,2136451,8444,232,1288,8544.82,24.62,-1.00,-1.0,2373
1453,2136453,24796,-5200,1020,25355.91,24.58,-1.00,-1.0,2363
1456,2136456,10720,-2360,-84,10977.02,24.58,-1.00,-1.0,2436
1459,2136459,23260,4776,-316,23747.37,24.62,-1.00,-1.0,2366
1464,2136464,10168,12,1688,10307.17,24.62,-1.00,-1.0,2449
1466,2136466,24160,-5876,3712,25139.85,24.62,-1.00,-1.0,2366
1469,2136469,8916,-72,1716,9079.92,24.67,-1.00,-1.0,2453
1472,2136472,25108,4424,-1848,25561.66,24.62,-1.00,-1.0,2365
1475,2136475,11804,2588,-996,12125.35,24.67,-1.00,-1.0,2441
1477,2136477,20928,-4276,1232,21395.87,24.62,-1.00,-1.0,2364
1480,2136480,15580,-5352,1288,16523.90,24.67,-1.00,-1.0,2445
1483,2136483,18620,2516,-192,18790.20,24.72,-1.00,-1.0,2366
1488,2136488,11248,1968,-1324,11495.37,24.67,-1.00,-1.0,2448
1491,2136491,22584,-3068,2772,22959.39,24.67,-1.00,-1.0,2371
1493,2136493,10344,-3428,1572,11010.03,24.67,-1.00,-1.0,2446
1496,2136496,23860,1740,-1064,23947.01,24.58,-1.00,-1.0,2380
1499,2136499,17184,2456,-168,17359.44,24.58,-1.00,-1.0,2437
1502,2136502,14648,-372,1672,14747.81,24.58,-1.00,-1.0,2368
1504,2136504,19864,-4312,1612,20390.45,24.58,-1.00,-1.0,2359
1507,2136507,14328,-1328,120,14389.91,24.58,-1.00,-1.0,2452
1510,2136510,20904,2548,-348,21061.59,24.62,-1.00,-1.0,2366
1515,2136515,24920,-880,1548,24983.54,24.62,-1.00,-1.0,2441
1518,2136518,10256,-2952,2688,11005.69,24.62,-1.00,-1.0,2367
1521,2136521,19500,-1920,424,19598.88,24.62,-1.00,-1.0,2442
1523,2136523,15968,1232,-692,16030.40,24.62,-1.00,-1.0,2368
1526,2136526,18032,1328,-900,18103.22,24.72,-1.00,-1.0,2436
1529,2136529,16476,-1652,1024,16590.25,24.62,-1.00,-1.0,2365
1532,2136532,10720,-1432,2936,11206.66,24.53,-1.00,-1.0,2433
1534,2136534,23748,-744,1784,23826.53,24.53,-1.00,-1.0,2367
1539,2136539,22940,760,-432,22956.65,24.67,-1.00,-1.0,2449
1542,2136542,12196,-1112,1076,12293.77,24.67,-1.00,-1.0,2373
1545,2136545,21480,-1468,2220,21644.26,24.62,-1.00,-1.0,2439
1548,2136548,20360,-1148,740,20405.76,24.58,-1.00,-1.0,2372
1550,2136550,14188,760,-980,14242.10,24.62,-1.00,-1.0,2444
1553,2136553,19060,-100,-140,19060.78,24.67,-1.00,-1.0,2380
1556,2136556,11040,-752,440,11074.33,24.62,-1.00,-1.0,2360
1558,2136558,24104,-2236,2188,24306.17,24.62,-1.00,-1.0,2436
1561,2136561,9576,428,2248,9845.63,24.62,-1.00,-1.0,2365
1566,2136566,14764,436,700,14787.01,24.77,-1.00,-1.0,2454
1569,2136569,13100,-2208,600,13298.32,24.67,-1.00,-1.0,2375
1572,2136572,22056,-2692,1496,22269.98,24.62,-1.00,-1.0,2447
1574,2136574,12012,2504,876,12301.44,24.62,-1.00,-1.0,2375
1577,2136577,21268,2656,200,21434.13,24.62,-1.00,-1.0,2443
1580,2136580,11952,-3164,776,12388.03,24.62,-1.00,-1.0,2368
1583,2136583,23448,-4984,2856,24141.37,24.62,-1.00,-1.0,2446
1585,2136585,11444,-1504,1208,11605.45,24.62,-1.00,-1.0,2374
1590,2136590,18172,3408,-976,18514.55,24.67,-1.00,-1.0,2440
1593,2136593,15096,-3152,2972,15705.32,24.67,-1.00,-1.0,2367
1596,2136596,19908,-5152,2756,20747.70,24.62,-1.00,-1.0,2444
1598,2136598,10144,-632,692,10187.20,24.67,-1.00,-1.0,2366
1601,2136601,24208,5088,-296,24738.69,24.67,-1.00,-1.0,2376
1604,2136604,8076,756,1356,8223.87,24.72,-1.00,-1.0,2436
1607,2136607,21432,-4292,1492,21908.40,24.62,-1.00,-1.0,2377
1609,2136609,15764,-4836,2572,16688.49,24.72,-1.00,-1.0,2439
1612,2136612,16104,4360,184,16684.79,24.62,-1.00,-1.0,2368
1617,2136617,9680,-184,1852,9857.29,24.62,-1.00,-1.0,2456
1620,2136620,25028,-8616,3100,26650.45,24.62,-1.00,-1.0,2374
1623,2136623,12456,-4656,2924,13615.43,24.72,-1.00,-1.0,2449
1625,2136625,21032,5764,-1296,21846.01,24.62,-1.00,-1.0,2367
1628,2136628,11636,4532,-972,12525.19,24.62,-1.00,-1.0,2432
1631,2136631,20616,-5372,2148,21412.42,24.62,-1.00,-1.0,2370
1634,2136634,23588,-7892,4640,25302.31,24.62,-1.00,-1.0,2444
1636,2136636,9816,-528,1056,9886.75,24.53,-1.00,-1.0,2368
1641,2136641,10748,3520,-1744,11443.40,24.58,-1.00,-1.0,2441
1644,2136644,22720,-4888,2748,23401.76,24.48,-1.00,-1.0,2367
1647,2136647,11936,-6136,1248,13478.73,24.72,-1.00,-1.0,2443
1649,2136649,14104,1204,620,14168.87,24.67,-1.00,-1.0,2365
1652,2136652,20328,4760,-1404,20925.02,24.67,-1.00,-1.0,2368
1655,2136655,12780,88,316,12784.21,24.62,-1.00,-1.0,2440
1657,2136657,25396,-4968,2708,26018.67,24.62,-1.00,-1.0,2365
1660,2136660,9600,-3864,2476,10640.54,24.62,-1.00,-1.0,2447
1663,2136663,24140,2852,-252,24309.20,24.58,-1.00,-1.0,2365
1668,2136668,16680,-68,128,16680.63,24.67,-1.00,-1.0,2455
1671,2136671,18264,-5792,1684,19234.26,24.62,-1.00,-1.0,2375
1674,2136674,9376,-2648,2960,10182.48,24.62,-1.00,-1.0,2450
1676,2136676,24952,1932,700,25036.47,24.62,-1.00,-1.0,2367
1679,2136679,8188,2248,-1272,8585.73,24.62,-1.00,-1.0,2448
1682,2136682,26224,-2036,1240,26332.13,24.72,-1.00,-1.0,2373
1685,2136685,13196,-3488,1696,13754.16,24.67,-1.00,-1.0,2448
1687,2136687,19736,-280,856,19756.54,24.53,-1.00,-1.0,2369
1692,2136692,8704,684,1056,8794.46,24.58,-1.00,-1.0,2440
1695,2136695,24808,-1360,2212,24943.52,24.58,-1.00,-1.0,2368
1697,2136697,10116,-1524,32,10230.20,24.62,-1.00,-1.0,2360
1700,2136700,24160,532,1008,24186.87,24.72,-1.00,-1.0,2437
1703,2136703,10640,-660,360,10666.53,24.67,-1.00,-1.0,2365
1706,2136706,22412,-672,508,22427.83,24.62,-1.00,-1.0,2438
1708,2136708,21136,-952,1352,21200.58,24.67,-1.00,-1.0,2364
1711,2136711,11716,-284,564,11733.00,24.53,-1.00,-1.0,2438
1714,2136714,22744,-1648,-1072,22828.81,24.62,-1.00,-1.0,2366
1719,2136719,24152,112,1432,24194.67,24.58,-1.00,-1.0,2440
1722,2136722,10292,-764,1912,10495.94,24.67,-1.00,-1.0,2367
1725,2136725,23992,-1292,1372,24065.90,24.62,-1.00,-1.0,2443
1727,2136727,17664,-1188,-412,17708.70,24.58,-1.00,-1.0,2367
1730,2136730,15748,1112,-1660,15874.25,24.62,-1.00,-1.0,2437
1733,2136733,18888,-244,1296,18933.98,24.58,-1.00,-1.0,2365
1736,2136736,15228,-3000,2328,15694.32,24.62,-1.00,-1.0,2435
1738,2136738,23800,-2516,1784,23999.02,24.67,-1.00,-1.0,2368
1743,2136743,19028,3504,76,19348.09,24.67,-1.00,-1.0,2450
1746,2136746,14372,-980,32,14405.41,24.67,-1.00,-1.0,2382
1749,2136749,21092,-4180,1140,21532.40,24.72,-1.00,-1.0,2360
1751,2136751,20460,-3016,2500,20831.65,24.53,-1.00,-1.0,2436
1754,2136754,11516,1764,-976,11691.13,24.62,-1.00,-1.0,2366
1757,2136757,22512,2580,-1968,22744.66,24.62,-1.00,-1.0,2437
1760,2136760,9096,-380,2364,9405.86,24.77,-1.00,-1.0,2364
1762,2136762,24840,-6408,1080,25675.95,24.62,-1.00,-1.0,2437
1765,2136765,10240,-924,-560,10296.84,24.62,-1.00,-1.0,2367
1770,2136770,16228,2036,-1576,16430.98,24.62,-1.00,-1.0,2441
1773,2136773,17648,-4280,3024,18409.64,24.62,-1.00,-1.0,2367
1776,2136776,18788,-4944,3440,19729.82,24.58,-1.00,-1.0,2439
1778,2136778,9304,708,508,9344.72,24.53,-1.00,-1.0,2364
1781,2136781,25068,5388,-3196,25838.92,24.62,-1.00,-1.0,2439
1784,2136784,8816,176,540,8834.28,24.62,-1.00,-1.0,2365
1786,2136786,22532,-5424,2324,23291.88,24.67,-1.00,-1.0,2360
1789,2136789,14436,-5236,2400,15542.64,24.58,-1.00,-1.0,2445
1792,2136792,19020,3280,-784,19316.66,24.58,-1.00,-1.0,2370
1797,2136797,11796,272,500,11809.72,24.58,-1.00,-1.0,2442
1800,2136800,23608,-4752,4208,24446.40,24.67,-1.00,-1.0,2367
1803,2136803,9388,-832,3140,9934.10,24.58,-1.00,-1.0,2444
1805,2136805,24152,2728,-1076,24329.38,24.67,-1.00,-1.0,2365
1808,2136808,10764,2472,-1944,11213.99,24.58,-1.00,-1.0,2445
1811,2136811,22944,-2724,2136,23203.66,24.58,-1.00,-1.0,2365
1814,2136814,12528,-3964,2812,13437.69,24.58,-1.00,-1.0,2442
1816,2136816,14104,-244,700,14123.47,24.58,-1.00,-1.0,2365
1821,2136821,8988,2344,-608,9308.50,24.62,-1.00,-1.0,2440
1824,2136824,25060,-2604,2900,25361.28,24.62,-1.00,-1.0,2367
1827,2136827,9472,-3136,3044,10431.64,24.67,-1.00,-1.0,2437
1830,2136830,24488,1184,228,24517.67,24.53,-1.00,-1.0,2364
1832,2136832,14340,2628,-584,14590.51,24.58,-1.00,-1.0,2435
1835,2136835,18500,60,484,18506.43,24.62,-1.00,-1.0,2365
1838,2136838,15620,-3116,2296,16092.40,24.58,-1.00,-1.0,2366
1841,2136841,10916,-1700,1872,11205.06,24.67,-1.00,-1.0,2437
1843,2136843,23528,972,644,23556.87,24.62,-1.00,-1.0,2373
1848,2136848,23284,-396,1296,23323.40,24.62,-1.00,-1.0,2448
1851,2136851,10728,-1808,2488,11160.15,24.67,-1.00,-1.0,2375
1854,2136854,22488,32,1732,22554.62,24.58,-1.00,-1.0,2425
1856,2136856,20040,412,-220,20045.44,24.77,-1.00,-1.0,2366
1859,2136859,13940,-344,-1680,14045.08,24.62,-1.00,-1.0,2447
1862,2136862,19776,-1540,304,19838.20,24.67,-1.00,-1.0,2364
1865,2136865,14616,-1720,396,14722.18,24.58,-1.00,-1.0,2445
1867,2136867,24860,-1552,1864,24978.05,24.58,-1.00,-1.0,2365
1872,2136872,19560,1488,-1060,19645.13,24.53,-1.00,-1.0,2448
1875,2136875,14980,-432,1676,15079.66,24.62,-1.00,-1.0,2382
1878,2136878,18916,-3880,1208,19347.58,24.62,-1.00,-1.0,2442
1881,2136881,15380,-1824,-144,15488.45,24.62,-1.00,-1.0,2373
1883,2136883,11192,3124,204,11621.61,24.62,-1.00,-1.0,2360
1886,2136886,21676,2580,-1072,21855.31,24.58,-1.00,-1.0,2436
1889,2136889,12264,-3140,1280,12724.14,24.62,-1.00,-1.0,2366
1891,2136891,23224,-5584,3784,24183.75,24.58,-1.00,-1.0,2436
1894,2136894,11412,-1496,1336,11586.92,24.72,-1.00,-1.0,2352
1899,2136899,18028,4032,-1604,18542.89,24.67,-1.00,-1.0,2443
1902,2136902,14968,-3088,2428,15474.88,24.67,-1.00,-1.0,2367
1905,2136905,20712,-6064,2652,21743.78,24.67,-1.00,-1.0,2442
1907,2136907,10388,-1124,1448,10548.49,24.67,-1.00,-1.0,2364
1910,2136910,23296,5492,-464,23939.11,24.67,-1.00,-1.0,2436
1913,2136913,9496,1636,1080,9696.23,24.58,-1.00,-1.0,2365
1916,2136916,25252,-6968,1880,26263.11,24.67,-1.00,-1.0,2442
1918,2136918,15376,-5268,3636,16655.14,24.58,-1.00,-1.0,2365
1924,2136924,16536,3936,-3032,17266.28,24.53,-1.00,-1.0,2444
1926,2136926,10756,596,1148,10833.50,24.62,-1.00,-1.0,2378
1929,2136929,23920,-7548,2832,25242.01,24.58,-1.00,-1.0,2443
1932,2136932,10184,-1256,2480,10556.60,24.62,-1.00,-1.0,2367
1935,2136935,24204,5016,-1236,24749.17,24.67,-1.00,-1.0,2449
1937,2136937,11592,3540,-1820,12256.36,24.53,-1.00,-1.0,2375
1940,2136940,21620,-3476,1012,21921.02,24.58,-1.00,-1.0,2361
1943,2136943,14812,-6156,2660,16259.38,24.58,-1.00,-1.0,2432
1945,2136945,18924,1968,-240,19027.57,24.62,-1.00,-1.0,2427
1951,2136951,11508,1040,-164,11556.06,24.53,-1.00,-1.0,2449
1953,2136953,23456,-3208,2224,23778.59,24.72,-1.00,-1.0,2372
1956,2136956,10320,-3936,1732,11180.09,24.58,-1.00,-1.0,2444
1959,2136959,23884,1192,-924,23931.57,24.53,-1.00,-1.0,2371
1962,2136962,10644,1792,-2040,10984.88,24.67,-1.00,-1.0,2445
1964,2136964,14860,532,1336,14929.42,24.62,-1.00,-1.0,2371
1967,2136967,20144,-4376,1620,20677.39,24.58,-1.00,-1.0,2444
1970,2136970,13436,-1424,1200,13564.43,24.62,-1.00,-1.0,2372
1975,2136975,9224,2584,-432,9588.84,24.62,-1.00,-1.0,2444
1977,2136977,24680,-1256,2636,24852.13,24.53,-1.00,-1.0,2367
1980,2136980,14376,-4164,1368,15029.29,24.62,-1.00,-1.0,2437
1983,2136983,19628,-1324,-428,19677.26,24.53,-1.00,-1.0,2364
1986,2136986,16432,1416,-760,16510.40,24.62,-1.00,-1.0,2438
1988,2136988,17140,384,-88,17144.53,24.62,-1.00,-1.0,2365
1991,2136991,23452,-1604,956,23526.22,24.62,-1.00,-1.0,2361
1994,2136994,10288,-1236,1696,10499.86,24.67,-1.00,-1.0,2443
1996,2136996,24260,320,1216,24292.56,24.62,-1.00,-1.0,2364
2001,2137001,21444,-1580,-564,21509.52,24.72,-1.00,-1.0,2441
2004,2137004,20360,-1408,1184,20442.94,24.53,-1.00,-1.0,2367
2007,2137007,12308,324,-72,12312.47,24.62,-1.00,-1.0,2435
2010,2137010,22564,160,-180,22565.29,24.58,-1.00,-1.0,2365
2012,2137012,12176,-1360,844,12280.75,24.62,-1.00,-1.0,2436
2015,2137015,24188,-1600,1836,24310.29,24.53,-1.00,-1.0,2365
2018,2137018,9756,52,124,9756.93,24.53,-1.00,-1.0,2434
2021,2137021,24628,588,792,24647.75,24.58,-1.00,-1.0,2364
2026,2137026,16620,-1128,-12,16658.24,24.58,-1.00,-1.0,2445
2028,2137028,23192,-660,2528,23338.71,24.67,-1.00,-1.0,2375
2031,2137031,9892,-276,1548,10016.19,24.67,-1.00,-1.0,2442
2034,2137034,24480,108,1640,24535.11,24.67,-1.00,-1.0,2352
2036,2137036,12208,-384,-460,12222.70,24.67,-1.00,-1.0,2363
2039,2137039,21024,296,-1684,21093.41,24.62,-1.00,-1.0,2436
2042,2137042,14632,-988,1524,14744.29,24.67,-1.00,-1.0,2367
2045,2137045,20088,-2652,1616,20326.64,24.58,-1.00,-1.0,2435
2048,2137048,14468,-1012,880,14530.02,24.58,-1.00,-1.0,2369
2052,2137052,21520,1576,-508,21583.61,24.67,-1.00,-1.0,2441
2055,2137055,11204,-1072,516,11266.99,24.62,-1.00,-1.0,2369
2058,2137058,22856,-4168,2132,23330.55,24.67,-1.00,-1.0,2435
2061,2137061,12636,-780,332,12664.40,24.53,-1.00,-1.0,2371
2064,2137064,21112,2160,-2368,21353.91,24.67,-1.00,-1.0,2437
2066,2137066,20264,1560,-396,20327.82,24.62,-1.00,-1.0,2366
2069,2137069,13412,-932,3436,13876.47,24.58,-1.00,-1.0,2435
2072,2137072,21060,-2664,4684,21738.45,24.62,-1.00,-1.0,2364
2076,2137076,23148,2980,-32,23339.05,24.58,-1.00,-1.0,2441
2079,2137079,15988,852,-2040,16140.12,24.62,-1.00,-1.0,2371
2082,2137082,18284,-1616,-332,18358.28,24.62,-1.00,-1.0,2419
2085,2137085,18524,-2904,2628,18933.52,24.58,-1.00,-1.0,2452
2087,2137087,15684,676,1388,15759.80,24.58,-1.00,-1.0,2365
2090,2137090,23092,1828,-836,23179.32,24.62,-1.00,-1.0,2446
2093,2137093,10792,1104,1268,10922.17,24.67,-1.00,-1.0,2372
2096,2137096,22956,-1692,644,23027.28,24.62,-1.00,-1.0,2439
2099,2137099,10800,-1948,2168,11186.37,24.58,-1.00,-1.0,2369
2103,2137103,14424,320,-272,14430.11,24.72,-1.00,-1.0,2437
2106,2137106,14012,480,-120,14020.73,24.62,-1.00,-1.0,2367
2109,2137109,20960,-408,712,20976.06,24.53,-1.00,-1.0,2439
2112,2137112,13456,-128,2872,13759.68,24.62,-1.00,-1.0,2366
2114,2137114,19484,-184,2320,19622.50,24.62,-1.00,-1.0,2436
2117,2137117,13488,-652,-1152,13552.80,24.53,-1.00,-1.0,2363
2120,2137120,20892,540,1800,20976.35,24.62,-1.00,-1.0,2436
2123,2137123,13780,-292,1268,13841.30,24.62,-1.00,-1.0,2365
2128,2137128,16080,152,2460,16267.79,24.58,-1.00,-1.0,2440
2130,2137130,16392,340,-36,16395.56,24.62,-1.00,-1.0,2378
2133,2137133,21904,140,-36,21904.48,24.62,-1.00,-1.0,2360
2136,2137136,12880,-1324,2776,13242.11,24.67,-1.00,-1.0,2439
2138,2137138,20432,-488,1568,20497.89,24.62,-1.00,-1.0,2352
2141,2137141,13532,1084,424,13581.97,24.67,-1.00,-1.0,2436
2144,2137144,21468,416,-524,21478.42,24.62,-1.00,-1.0,2366
2147,2137147,12828,-2096,964,13033.81,24.58,-1.00,-1.0,2432
2150,2137150,20732,-360,2708,20911.21,24.62,-1.00,-1.0,2366
2155,2137155,14648,-8,-504,14656.67,24.62,-1.00,-1.0,2438
2157,2137157,20316,-488,-220,20323.05,24.62,-1.00,-1.0,2375
2160,2137160,10264,-164,1764,10415.77,24.58,-1.00,-1.0,2440
2163,2137163,23700,-40,2348,23816.06,24.62,-1.00,-1.0,2365
2166,2137166,9336,484,1520,9471.30,24.67,-1.00,-1.0,2444
2168,2137168,24652,-1552,-1176,24728.79,24.62,-1.00,-1.0,2373
2171,2137171,15780,-544,2420,15973.75,24.58,-1.00,-1.0,2360
2174,2137174,16568,-456,1868,16679.21,24.67,-1.00,-1.0,2442
2177,2137177,18760,-1844,-1744,18930.91,24.58,-1.00,-1.0,2366
2182,2137182,22908,-348,332,22913.05,24.67,-1.00,-1.0,2437
2184,2137184,10764,-1184,1480,10929.59,24.62,-1.00,-1.0,2370
2187,2137187,20476,-2848,1160,20705.63,24.58,-1.00,-1.0,2439
2190,2137190,14348,-1968,-28,14482.37,24.62,-1.00,-1.0,2365
2193,2137193,18352,3608,-2136,18824.88,24.58,-1.00,-1.0,2437
2195,2137195,16640,1172,172,16682.11,24.67,-1.00,-1.0,2371
2198,2137198,9976,-2920,1624,10520.66,24.67,-1.00,-1.0,2436
2201,2137201,23972,-4156,3812,24626.42,24.67,-1.00,-1.0,2368
2206,2137206,20800,4184,-1124,21246.39,24.62,-1.00,-1.0,2440
2209,2137209,13672,1496,-716,13772.23,24.62,-1.00,-1.0,2375
2211,2137211,20212,-3840,1640,20638.80,24.58,-1.00,-1.0,2448
2214,2137214,21908,-4460,2720,22522.22,24.62,-1.00,-1.0,2381
2217,2137217,11120,468,1576,11240.87,24.58,-1.00,-1.0,2439
2220,2137220,22800,3156,-1560,23070.20,24.62,-1.00,-1.0,2368
2222,2137222,10104,1296,-404,10194.79,24.58,-1.00,-1.0,2360
2225,2137225,23044,-4428,280,23467.24,24.58,-1.00,-1.0,2436
2228,2137228,14168,-3040,620,14503.73,24.53,-1.00,-1.0,2372
2233,2137233,19356,1728,-2976,19659.54,24.58,-1.00,-1.0,2437
2235,2137235,15400,868,680,15439.42,24.58,-1.00,-1.0,2367
2238,2137238,19976,-3524,3172,20530.97,24.62,-1.00,-1.0,2441
2241,2137241,11872,-3092,1284,12335.05,24.67,-1.00,-1.0,2352
2244,2137244,22384,1364,92,22425.71,24.67,-1.00,-1.0,2433
2246,2137246,12368,1628,-960,12511.57,24.67,-1.00,-1.0,2359
2249,2137249,17252,-20,400,17256.65,24.67,-1.00,-1.0,2436
2252,2137252,16884,-2460,2532,17249.12,24.67,-1.00,-1.0,2368
2257,2137257,20920,676,1208,20965.75,24.58,-1.00,-1.0,2440
2260,2137260,12416,128,220,12418.61,24.62,-1.00,-1.0,2376
2262,2137262,20612,120,1356,20656.90,24.67,-1.00,-1.0,2448
2265,2137265,13708,-972,424,13748.96,24.67,-1.00,-1.0,2380
2268,2137268,20752,-1656,-380,20821.44,24.58,-1.00,-1.0,2361
2270,2137270,14632,-348,84,14636.38,24.58,-1.00,-1.0,2435
2273,2137273,15816,-156,1368,15875.82,24.58,-1.00,-1.0,2365
2276,2137276,17124,-1612,-1232,17243.77,24.72,-1.00,-1.0,2435
2279,2137279,17920,-1164,960,17983.41,24.62,-1.00,-1.0,2372
2284,2137284,13080,836,-60,13106.83,24.67,-1.00,-1.0,2441
2286,2137286,22436,608,2264,22558.13,24.67,-1.00,-1.0,2378
2289,2137289,13952,-2640,596,14212.08,24.58,-1.00,-1.0,2447
2292,2137292,20696,-1868,468,20785.40,24.67,-1.00,-1.0,2359
2295,2137295,14840,992,-188,14874.31,24.67,-1.00,-1.0,2451
2297,2137297,18092,1860,-156,18188.03,24.58,-1.00,-1.0,2374
2300,2137300,20996,-320,1192,21032.24,24.58,-1.00,-1.0,2445
2303,2137303,13380,-3676,972,13909.79,24.58,-1.00,-1.0,2370
2308,2137308,12596,436,376,12609.15,24.62,-1.00,-1.0,2438
2310,2137310,20948,2572,-720,21117.58,24.58,-1.00,-1.0,2370
2313,2137313,18660,356,-520,18670.64,24.62,-1.00,-1.0,2361
2316,2137316,14436,-2948,1100,14774.94,24.53,-1.00,-1.0,2444
2318,2137318,21932,-1932,1764,22087.48,24.53,-1.00,-1.0,2365
2321,2137321,10800,1472,508,10911.68,24.58,-1.00,-1.0,2436
2324,2137324,25520,1572,-1176,25595.40,24.53,-1.00,-1.0,2366
2327,2137327,9224,-512,1304,9329.78,24.62,-1.00,-1.0,2437
2330,2137330,24608,-2032,2388,24806.96,24.58,-1.00,-1.0,2354
2335,2137335,13772,2280,1096,14002.41,24.58,-1.00,-1.0,2439
2338,2137338,20184,1452,144,20236.67,24.53,-1.00,-1.0,2366
2340,2137340,12100,-2384,2324,12549.68,24.58,-1.00,-1.0,2437
2343,2137343,22784,-3468,3324,23284.90,24.62,-1.00,-1.0,2367
2346,2137346,8840,-724,0,8869.60,24.67,-1.00,-1.0,2435
2349,2137349,24452,3768,-2656,24882.78,24.53,-1.00,-1.0,2364
2351,2137351,10344,-28,-652,10364.57,24.58,-1.00,-1.0,2437
2354,2137354,24180,-4256,2072,24638.98,24.62,-1.00,-1.0,2365
2357,2137357,20284,-4144,3072,20929.66,24.62,-1.00,-1.0,2360
2362,2137362,25404,3976,-1112,25737.29,24.58,-1.00,-1.0,2445
2364,2137364,9696,244,-1140,9765.84,24.67,-1.00,-1.0,2369
2367,2137367,24568,-3492,2940,24988.48,24.58,-1.00,-1.0,2454
2370,2137370,18144,-4284,952,18667.18,24.77,-1.00,-1.0,2372
2373,2137373,14772,2064,428,14921.64,24.53,-1.00,-1.0,2437
2375,2137375,20776,1824,-864,20873.80,24.58,-1.00,-1.0,2366
2378,2137378,11408,-1216,3112,11887.21,24.58,-1.00,-1.0,2445
2381,2137381,26388,-4036,1328,26727.88,24.67,-1.00,-1.0,2373
2386,2137386,16592,2076,1064,16755.19,24.58,-1.00,-1.0,2438
2389,2137389,17312,1336,-1924,17469.75,24.67,-1.00,-1.0,2368
2391,2137391,15728,68,2284,15893.12,24.67,-1.00,-1.0,2438
2394,2137394,19184,-3536,2868,19716.86,24.58,-1.00,-1.0,2366
2397,2137397,9432,-2000,360,9648.43,24.67,-1.00,-1.0,2435
2400,2137400,25956,1804,1464,26059.77,24.58,-1.00,-1.0,2365
2402,2137402,7892,1160,-444,7989.14,24.67,-1.00,-1.0,2434
2405,2137405,25052,-1396,1216,25120.31,24.58,-1.00,-1.0,2365
2408,2137408,16836,-2588,1252,17079.70,24.62,-1.00,-1.0,2362
2413,2137413,25132,552,1260,25169.62,24.62,-1.00,-1.0,2441
2416,2137416,8204,12,-564,8223.37,24.53,-1.00,-1.0,2375
2418,2137418,25148,-616,1612,25207.14,24.62,-1.00,-1.0,2445
2421,2137421,9620,-1272,-752,9732.83,24.72,-1.00,-1.0,2373
2424,2137424,20208,464,1660,20281.38,24.62,-1.00,-1.0,2437
2427,2137427,14256,-204,1288,14315.52,24.58,-1.00,-1.0,2421
2430,2137430,17656,-264,660,17670.30,24.53,-1.00,-1.0,2450
2432,2137432,17100,-2196,-564,17249.65,24.67,-1.00,-1.0,2380
2437,2137437,23460,-1428,256,23504.81,24.67,-1.00,-1.0,2440
2440,2137440,11108,320,524,11124.96,24.48,-1.00,-1.0,2367
2443,2137443,20760,1100,656,20799.47,24.62,-1.00,-1.0,2446
2445,2137445,13680,-2492,860,13931.69,24.58,-1.00,-1.0,2365
2448,2137448,20484,-2340,1272,20656.42,24.62,-1.00,-1.0,2376
2451,2137451,21764,-848,1400,21825.46,24.62,-1.00,-1.0,2439
2454,2137454,10156,2236,-2508,10697.39,24.62,-1.00,-1.0,2372
2456,2137456,23996,1020,1368,24056.60,24.53,-1.00,-1.0,2446
2459,2137459,11032,-3956,1356,11798.04,24.62,-1.00,-1.0,2371
2464,2137464,13964,120,-1292,14024.16,24.62,-1.00,-1.0,2438
2467,2137467,12676,3468,-2416,13362.08,24.58,-1.00,-1.0,2375
2470,2137470,22404,340,-504,22412.25,24.62,-1.00,-1.0,2439
2472,2137472,11636,-2916,2760,12309.23,24.67,-1.00,-1.0,2365
2475,2137475,24044,-2596,3140,24386.73,24.62,-1.00,-1.0,2437
2478,2137478,11040,20,0,11040.02,24.67,-1.00,-1.0,2373
2481,2137481,21468,3776,304,21799.67,24.53,-1.00,-1.0,2434
2483,2137483,11152,-792,1820,11327.26,24.58,-1.00,-1.0,2365
2489,2137489,22180,-3096,2776,22566.43,24.62,-1.00,-1.0,2445
2491,2137491,9092,3056,-220,9594.37,24.67,-1.00,-1.0,2368
2494,2137494,24240,2292,-1688,24406.56,24.62,-1.00,-1.0,2360
2497,2137497,10584,-936,1500,10730.66,24.62,-1.00,-1.0,2449
2499,2137499,23364,-5632,3364,24267.52,24.62,-1.00,-1.0,2364
2502,2137502,11772,-1784,304,11910.29,24.67,-1.00,-1.0,2447
2505,2137505,20480,5516,-1924,21296.91,24.62,-1.00,-1.0,2365
2508,2137508,21412,3632,-564,21725.18,24.58,-1.00,-1.0,2445
2510,2137510,10712,-3924,1888,11563.27,24.72,-1.00,-1.0,2365
2515,2137515,10636,-2480,-532,10934.25,24.67,-1.00,-1.0,2445
2518,2137518,22036,6404,-280,22949.40,24.58,-1.00,-1.0,2383
2521,2137521,19060,3376,-1144,19390.46,24.58,-1.00,-1.0,2440
2524,2137524,12828,-3540,2076,13468.44,24.67,-1.00,-1.0,2362
2526,2137526,23024,-5892,2860,23937.42,24.67,-1.00,-1.0,2424
2529,2137529,9672,2764,1092,10118.29,24.58,-1.00,-1.0,2380
2532,2137532,24260,4960,-1500,24807.24,24.58,-1.00,-1.0,2438
2535,2137535,10808,448,-656,10837.15,24.67,-1.00,-1.0,2377
2540,2137540,21068,-5188,2928,21894.04,24.53,-1.00,-1.0,2437
2542,2137542,12352,452,-2056,12530.10,24.53,-1.00,-1.0,2368
2545,2137545,22552,4372,-1012,22994.16,24.58,-1.00,-1.0,2456
2548,2137548,9664,1172,-960,9782.03,24.62,-1.00,-1.0,2374
2550,2137550,24672,-3068,3044,25047.68,24.58,-1.00,-1.0,2368
2553,2137553,11732,-3716,2388,12535.99,24.67,-1.00,-1.0,2436
2556,2137556,13364,-356,-836,13394.85,24.58,-1.00,-1.0,2369
2559,2137559,22644,2844,-2080,22916.49,24.58,-1.00,-1.0,2444
2561,2137561,11688,1104,616,11756.17,24.67,-1.00,-1.0,2374
2566,2137566,10708,-2656,1160,11093.29,24.58,-1.00,-1.0,2446
2569,2137569,24176,556,-84,24182.54,24.53,-1.00,-1.0,2367
2572,2137572,18592,924,0,18614.95,24.58,-1.00,-1.0,2447
2574,2137574,13712,-144,-8,13712.76,24.58,-1.00,-1.0,2364
2577,2137577,21320,-1568,2132,21483.63,24.58,-1.00,-1.0,2447
2580,2137580,11364,-972,200,11407.25,24.58,-1.00,-1.0,2365
2583,2137583,25620,612,912,25643.53,24.58,-1.00,-1.0,2442
2585,2137585,9128,156,388,9137.57,24.58,-1.00,-1.0,2364
2588,2137588,23256,1412,3680,23587.66,24.67,-1.00,-1.0,2368
2593,2137593,15908,-1224,1228,16002.21,24.67,-1.00,-1.0,2453
2596,2137596,24680,-1744,300,24743.36,24.58,-1.00,-1.0,2375
2599,2137599,8760,1528,1224,8976.11,24.67,-1.00,-1.0,2449
2601,2137601,24984,1756,2884,25211.13,24.58,-1.00,-1.0,2367
2604,2137604,8384,-2552,2340,9070.82,24.58,-1.00,-1.0,2431
2607,2137607,19956,-2848,1540,20216.94,24.67,-1.00,-1.0,2371
2610,2137610,15788,-388,392,15797.63,24.67,-1.00,-1.0,2444
2612,2137612,15572,2992,-2056,15989.57,24.58,-1.00,-1.0,2367
2617,2137617,10332,-3772,1584,11112.48,24.67,-1.00,-1.0,2440
2620,2137620,24236,-3512,3536,24743.10,24.62,-1.00,-1.0,2368
2623,2137623,13956,-1232,-836,14035.19,24.67,-1.00,-1.0,2447
2625,2137625,18044,3780,-2504,18604.96,24.67,-1.00,-1.0,2364
2628,2137628,17060,244,-296,17064.31,24.48,-1.00,-1.0,2442
2631,2137631,16904,-4152,2336,17562.49,24.58,-1.00,-1.0,2365
2634,2137634,24356,-4152,2932,24880.72,24.58,-1.00,-1.0,2368
2636,2137636,8996,428,-1324,9102.98,24.72,-1.00,-1.0,2443
2639,2137639,25416,3708,-1360,25721.04,24.62,-1.00,-1.0,2365
2644,2137644,18296,-4300,2480,18957.43,24.67,-1.00,-1.0,2446
2647,2137647,18832,-3584,460,19175.53,24.62,-1.00,-1.0,2371
2650,2137650,7504,820,-264,7553.28,24.62,-1.00,-1.0,2453
2652,2137652,25496,3812,-1804,25842.44,24.62,-1.00,-1.0,2373
2655,2137655,9348,32,924,9393.61,24.53,-1.00,-1.0,2435
2658,2137658,25828,-4780,3120,26451.25,24.62,-1.00,-1.0,2364
2661,2137661,15772,-4144,1952,16423.73,24.62,-1.00,-1.0,2446
2663,2137663,17276,2240,-1300,17469.05,24.62,-1.00,-1.0,2373
2668,2137668,8388,764,688,8450.77,24.72,-1.00,-1.0,2446
2671,2137671,25636,-4336,2904,26161.78,24.58,-1.00,-1.0,2367
2674,2137674,8216,-2848,172,8697.32,24.62,-1.00,-1.0,2444
2677,2137677,19864,2024,1316,20010.17,24.48,-1.00,-1.0,2364
2679,2137679,15484,1568,-1576,15642.78,24.62,-1.00,-1.0,2362
2682,2137682,15916,-220,2448,16104.66,24.62,-1.00,-1.0,2435
2685,2137685,25208,-3332,2168,25519.52,24.53,-1.00,-1.0,2368
2687,2137687,8800,-1564,2008,9160.69,24.62,-1.00,-1.0,2424
2690,2137690,24136,1632,1236,24222.67,24.67,-1.00,-1.0,2366
2695,2137695,19352,1072,2504,19542.75,24.67,-1.00,-1.0,2437
2698,2137698,21744,-3068,1572,22015.57,24.58,-1.00,-1.0,2367
2701,2137701,11524,-2752,192,11849.60,24.62,-1.00,-1.0,2441
2703,2137703,23104,1020,140,23126.93,24.58,-1.00,-1.0,2366
2706,2137706,10420,1852,-1788,10733.28,24.58,-1.00,-1.0,2435
2709,2137709,22088,1552,1968,22229.74,24.58,-1.00,-1.0,2365
2711,2137711,13424,-3536,1332,13945.66,24.53,-1.00,-1.0,2436
2714,2137714,20460,-692,2804,20662.84,24.67,-1.00,-1.0,2366
2719,2137719,12368,1388,-1524,12538.60,24.58,-1.00,-1.0,2436
2722,2137722,23320,660,2076,23421.52,24.58,-1.00,-1.0,2374
2725,2137725,10300,-2672,1960,10819.94,24.72,-1.00,-1.0,2440
2727,2137727,23192,-1088,632,23226.11,24.67,-1.00,-1.0,2368
2730,2137730,12352,924,-168,12387.65,24.72,-1.00,-1.0,2363
2733,2137733,14992,164,-872,15018.23,24.58,-1.00,-1.0,2449
2735,2137735,18732,-956,1704,18833.62,24.62,-1.00,-1.0,2375
2738,2137738,14340,-1184,660,14403.92,24.62,-1.00,-1.0,2443
2741,2137741,19340,-1164,-324,19377.71,24.58,-1.00,-1.0,2364
2746,2137746,22540,340,2212,22650.83,24.58,-1.00,-1.0,2440
2749,2137749,10788,-1380,660,10895.91,24.58,-1.00,-1.0,2371
2752,2137752,24580,-408,876,24598.99,24.62,-1.00,-1.0,2440
2754,2137754,15196,-1416,-776,15281.55,24.58,-1.00,-1.0,2365
2757,2137757,15660,1184,764,15723.27,24.72,-1.00,-1.0,2438
2760,2137760,19488,-1460,928,19564.63,24.67,-1.00,-1.0,2366
2763,2137763,14792,-2100,1096,14980.47,24.53,-1.00,-1.0,2441
2765,2137765,22952,-900,1088,22995.39,24.58,-1.00,-1.0,2365
2771,2137771,18792,3104,928,19069.22,24.67,-1.00,-1.0,2441
2773,2137773,14752,-1480,1532,14905.00,24.67,-1.00,-1.0,2379
2776,2137776,18248,-4232,2196,18860.59,24.58,-1.00,-1.0,2360
2779,2137779,22920,-2452,2516,23187.69,24.58,-1.00,-1.0,2443
2781,2137781,11200,1168,-1516,11362.33,24.58,-1.00,-1.0,2368
2784,2137784,23044,2632,-1516,23243.31,24.62,-1.00,-1.0,2434
2787,2137787,10308,-544,1616,10448.07,24.67,-1.00,-1.0,2368
2790,2137790,20456,-3520,1828,20836.98,24.67,-1.00,-1.0,2431
2792,2137792,15760,-3096,1864,16169.02,24.58,-1.00,-1.0,2368
2797,2137797,23800,2140,-2464,24022.72,24.48,-1.00,-1.0,2446
2800,2137800,11176,856,716,11231.58,24.62,-1.00,-1.0,2377
2803,2137803,24080,-3184,3192,24498.43,24.58,-1.00,-1.0,2440
2806,2137806,14224,-3984,876,14797.36,24.67,-1.00,-1.0,2371
2808,2137808,19496,1620,604,19572.51,24.58,-1.00,-1.0,2443
2811,2137811,14848,2580,-1544,15149.37,24.58,-1.00,-1.0,2383
2814,2137814,18140,-1028,2656,18362.21,24.58,-1.00,-1.0,2434
2817,2137817,21520,-5060,1808,22180.69,24.58,-1.00,-1.0,2371
2822,2137822,20700,2192,368,20818.99,24.62,-1.00,-1.0,2438
2824,2137824,12616,2744,-1624,13012.70,24.62,-1.00,-1.0,2369
2827,2137827,21908,-1544,1520,22014.88,24.67,-1.00,-1.0,2438
2830,2137830,13864,-4816,2816,14944.37,24.62,-1.00,-1.0,2372
2832,2137832,14568,-1784,564,14687.66,24.58,-1.00,-1.0,2368
2835,2137835,20200,2868,-1724,20475.29,24.67,-1.00,-1.0,2445
2838,2137838,12920,1368,-692,13010.64,24.58,-1.00,-1.0,2374
2841,2137841,21256,-1000,3268,21528.99,24.67,-1.00,-1.0,2449
2843,2137843,13968,-4152,1680,14668.56,24.58,-1.00,-1.0,2375
2848,2137848,18112,2392,-216,18270.55,24.67,-1.00,-1.0,2450
2851,2137851,14572,920,656,14615.74,24.58,-1.00,-1.0,2368
2854,2137854,17620,-3156,1792,17989.89,24.67,-1.00,-1.0,2443
2856,2137856,15436,-3024,1708,15821.88,24.67,-1.00,-1.0,2365
2859,2137859,19400,-276,1112,19433.80,24.58,-1.00,-1.0,2447
2862,2137862,13200,2304,-1208,13453.91,24.48,-1.00,-1.0,2372
2865,2137865,21388,804,1832,21481.37,24.58,-1.00,-1.0,2443
2867,2137867,15760,-2796,2648,16223.66,24.67,-1.00,-1.0,2364
2872,2137872,21128,44,1632,21190.98,24.62,-1.00,-1.0,2437
2875,2137875,13780,3512,40,14220.55,24.62,-1.00,-1.0,2368
2878,2137878,20144,928,1832,20248.41,24.58,-1.00,-1.0,2356
2881,2137881,15592,-3460,-228,15972.92,24.58,-1.00,-1.0,2442
2883,2137883,17996,-1960,3628,18462.39,24.48,-1.00,-1.0,2366
2886,2137886,16992,-940,496,17025.21,24.58,-1.00,-1.0,2451
2889,2137889,15784,1544,-1148,15900.83,24.58,-1.00,-1.0,2361
2892,2137892,20076,1880,576,20172.06,24.58,-1.00,-1.0,2437
2894,2137894,14072,-1308,-1312,14193.43,24.62,-1.00,-1.0,2353
2899,2137899,13596,-2972,312,13920.54,24.62,-1.00,-1.0,2424
2902,2137902,20352,692,-816,20380.10,24.53,-1.00,-1.0,2366
2905,2137905,15688,1352,392,15751.03,24.62,-1.00,-1.0,2439
2907,2137907,12480,-668,404,12504.39,24.62,-1.00,-1.0,2368
2910,2137910,23660,-2536,1660,23853.35,24.62,-1.00,-1.0,2424
2913,2137913,10272,-252,1536,10389.26,24.58,-1.00,-1.0,2365
2916,2137916,22416,1752,124,22484.71,24.53,-1.00,-1.0,2436
2918,2137918,15664,1084,-304,15704.41,24.62,-1.00,-1.0,2365
2923,2137923,20820,-3012,1300,21076.87,24.67,-1.00,-1.0,2438
2926,2137926,13232,-612,-1552,13336.76,24.62,-1.00,-1.0,2368
2928,2137928,21016,2528,1808,21244.57,24.58,-1.00,-1.0,2359
2931,2137931,11812,-712,-28,11833.47,24.72,-1.00,-1.0,2457
2934,2137934,20736,-2044,2384,20972.44,24.58,-1.00,-1.0,2365
2937,2137937,14988,-2440,372,15189.87,24.58,-1.00,-1.0,2443
2939,2137939,13140,-372,-964,13180.56,24.67,-1.00,-1.0,2364
2942,2137942,21640,1328,-760,21694.03,24.58,-1.00,-1.0,2440
2945,2137945,11388,920,2216,11638.02,24.58,-1.00,-1.0,2366
2950,2137950,12696,-2400,1652,13026.03,24.53,-1.00,-1.0,2435
2953,2137953,20020,576,1964,20124.35,24.62,-1.00,-1.0,2369
2956,2137956,13628,-240,-1552,13718.19,24.67,-1.00,-1.0,2440
2959,2137959,18852,504,824,18876.73,24.62,-1.00,-1.0,2367
2961,2137961,21904,-1180,2244,22050.24,24.67,-1.00,-1.0,2435
2964,2137964,10716,-2504,624,11022.34,24.62,-1.00,-1.0,2367
2967,2137967,22392,796,1332,22445.70,24.67,-1.00,-1.0,2436
2970,2137970,12136,1616,-700,12263.11,24.62,-1.00,-1.0,2368
2972,2137972,20280,648,1652,20357.49,24.58,-1.00,-1.0,2361
2977,2137977,13736,-1880,1556,13951.10,24.67,-1.00,-1.0,2437
2980,2137980,20276,1448,332,20330.35,24.53,-1.00,-1.0,2367
2983,2137983,12376,1044,-1052,12464.43,24.67,-1.00,-1.0,2426
2986,2137986,22660,-2684,1048,22842.46,24.53,-1.00,-1.0,2366
2988,2137988,11984,-3556,2096,12674.96,24.67,-1.00,-1.0,2436
2991,2137991,20924,148,476,20929.94,24.53,-1.00,-1.0,2367
2994,2137994,13776,1032,-1184,13865.25,24.58,-1.00,-1.0,2435
2997,2137997,17924,508,1556,17998.58,24.62,-1.00,-1.0,2366
3002,2138002,12384,-1504,2000,12634.30,24.62,-1.00,-1.0,2442
3004,2138004,21648,-28,-120,21648.35,24.62,-1.00,-1.0,2373
3007,2138007,13864,1380,-468,13940.37,24.72,-1.00,-1.0,2434
3010,2138010,18936,600,3340,19237.66,24.72,-1.00,-1.0,2372
3013,2138013,13100,-3500,1224,13614.63,24.58,-1.00,-1.0,2449
3015,2138015,16372,-840,520,16401.78,24.72,-1.00,-1.0,2366
3018,2138018,18368,984,868,18414.81,24.53,-1.00,-1.0,2432
3021,2138021,13900,504,-1716,14014.59,24.62,-1.00,-1.0,2370
3023,2138023,21816,-1528,1500,21920.83,24.62,-1.00,-1.0,2359
3028,2138028,20820,-900,1148,20871.04,24.62,-1.00,-1.0,2437
3031,2138031,18768,640,168,18779.66,24.58,-1.00,-1.0,2368
3034,2138034,14672,1248,-524,14734.30,24.53,-1.00,-1.0,2438
3037,2138037,20540,-732,888,20572.21,24.67,-1.00,-1.0,2364
3039,2138039,12688,-1584,1196,12842.31,24.62,-1.00,-1.0,2437
3042,2138042,21512,-676,2056,21620.60,24.58,-1.00,-1.0,2365
3045,2138045,13048,-680,-12,13065.71,24.62,-1.00,-1.0,2435
3048,2138048,20244,448,292,20251.06,24.58,-1.00,-1.0,2365
3053,2138053,13144,-1220,-980,13236.83,24.67,-1.00,-1.0,2437
3055,2138055,23268,108,2420,23393.76,24.67,-1.00,-1.0,2375
3058,2138058,9812,-1484,636,9943.95,24.58,-1.00,-1.0,2440
3061,2138061,23084,-40,-424,23087.93,24.67,-1.00,-1.0,2367
3063,2138063,12808,-324,512,12822.32,24.67,-1.00,-1.0,2360
3066,2138066,13372,-1128,592,13432.54,24.53,-1.00,-1.0,2435
3069,2138069,22492,-2016,216,22583.20,24.58,-1.00,-1.0,2366
3072,2138072,11020,1160,1772,11221.67,24.67,-1.00,-1.0,2441
3075,2138075,23104,428,760,23120.46,24.58,-1.00,-1.0,2372
3080,2138080,22416,-1604,1944,22557.24,24.58,-1.00,-1.0,2437
3082,2138082,20528,-2252,2124,20760.10,24.62,-1.00,-1.0,2369
3085,2138085,11136,1136,676,11214.19,24.67,-1.00,-1.0,2453
3088,2138088,24120,1980,88,24201.29,24.62,-1.00,-1.0,2373
3091,2138091,9416,-1332,380,9517.34,24.58,-1.00,-1.0,2447
3093,2138093,24008,-2596,2120,24240.83,24.62,-1.00,-1.0,2368
3096,2138096,12484,-2668,-252,12768.40,24.58,-1.00,-1.0,2449
3099,2138099,19636,2788,296,19835.15,24.58,-1.00,-1.0,2372
3104,2138104,10148,-856,1920,10363.45,24.58,-1.00,-1.0,2442
3106,2138106,24552,-3328,432,24780.29,24.58,-1.00,-1.0,2378
3109,2138109,11408,-1716,380,11542.60,24.58,-1.00,-1.0,2360
3112,2138112,22076,1652,-1364,22179.71,24.62,-1.00,-1.0,2436
3114,2138114,13704,-176,-284,13708.07,24.62,-1.00,-1.0,2367
3117,2138117,9356,-696,1944,9581.14,24.62,-1.00,-1.0,2436
3120,2138120,25588,-2792,1844,25805.84,24.58,-1.00,-1.0,2367
3123,2138123,9052,-1600,-2576,9546.44,24.58,-1.00,-1.0,2434
3126,2138126,25592,3096,1484,25821.27,24.58,-1.00,-1.0,2365
3130,2138130,19252,-2320,540,19398.80,24.72,-1.00,-1.0,2437
3133,2138133,23700,-3804,2348,24117.91,24.62,-1.00,-1.0,2368
3136,2138136,10216,-2136,-952,10480.24,24.62,-1.00,-1.0,2438
3139,2138139,25064,3964,364,25378.14,24.67,-1.00,-1.0,2365
3141,2138141,9224,1868,932,9457.28,24.62,-1.00,-1.0,2437
3144,2138144,18748,-2536,-264,18920.58,24.62,-1.00,-1.0,2366
3147,2138147,17420,-4284,3096,18204.24,24.62,-1.00,-1.0,2436
3150,2138150,15484,300,1296,15541.04,24.67,-1.00,-1.0,2365
3153,2138153,20108,1964,-2932,20415.33,24.67,-1.00,-1.0,2359
3158,2138158,23400,-1792,1776,23535.62,24.58,-1.00,-1.0,2441
3160,2138160,17244,-4524,1176,17866.31,24.62,-1.00,-1.0,2379
3163,2138163,15452,-324,3128,15768.76,24.62,-1.00,-1.0,2441
3166,2138166,20232,468,-1684,20307.36,24.62,-1.00,-1.0,2352
3169,2138169,12148,1452,-1924,12384.83,24.53,-1.00,-1.0,2445
3171,2138171,23836,-1476,288,23883.39,24.62,-1.00,-1.0,2376
3174,2138174,10316,-3328,2128,11046.44,24.53,-1.00,-1.0,2436
3177,2138177,22460,-2320,1068,22604.75,24.53,-1.00,-1.0,2366
3182,2138182,12848,2772,-924,13176.07,24.58,-1.00,-1.0,2438
3185,2138185,21488,-1516,-484,21546.85,24.48,-1.00,-1.0,2376
3188,2138188,12508,-2092,3596,13181.72,24.58,-1.00,-1.0,2439
3190,2138190,23744,-3832,492,24056.26,24.67,-1.00,-1.0,2365
3193,2138193,11332,56,-1052,11380.86,24.58,-1.00,-1.0,2437
3196,2138196,22336,3480,640,22614.53,24.58,-1.00,-1.0,2365
3198,2138198,12420,-1528,-1240,12574.93,24.58,-1.00,-1.0,2435
3201,2138201,12796,-748,2608,13080.47,24.67,-1.00,-1.0,2365
3206,2138206,10756,-1608,-36,10875.59,24.62,-1.00,-1.0,2438
3209,2138209,22264,1500,392,22317.92,24.62,-1.00,-1.0,2372
3211,2138211,13008,-60,-1348,13077.80,24.58,-1.00,-1.0,2361
3214,2138214,12292,188,716,12314.27,24.67,-1.00,-1.0,2439
3217,2138217,22720,-1020,3524,23014.29,24.58,-1.00,-1.0,2366
3220,2138220,11276,-1392,1332,11439.41,24.58,-1.00,-1.0,2443
3222,2138222,21996,920,1980,22104.09,24.67,-1.00,-1.0,2365
3225,2138225,12460,1020,-1124,12552.11,24.67,-1.00,-1.0,2436
3228,2138228,20980,300,1348,21025.40,24.62,-1.00,-1.0,2353
3233,2138233,11396,396,4308,12189.52,24.62,-1.00,-1.0,2427
3236,2138236,22308,916,1728,22393.57,24.58,-1.00,-1.0,2372
3238,2138238,10472,-200,-1736,10616.80,24.62,-1.00,-1.0,2450
3241,2138241,22208,-584,2064,22311.35,24.62,-1.00,-1.0,2382
3244,2138244,12740,-4100,-1168,13434.35,24.62,-1.00,-1.0,2438
3247,2138247,20240,1132,-320,20274.16,24.72,-1.00,-1.0,2377
3249,2138249,15576,1480,164,15647.01,24.72,-1.00,-1.0,2438
3252,2138252,10600,-544,-176,10615.41,24.62,-1.00,-1.0,2382
3255,2138255,24640,-2032,4204,25078.52,24.58,-1.00,-1.0,2368
3260,2138260,20020,2488,716,20186.71,24.58,-1.00,-1.0,2443
3262,2138262,14496,1356,788,14580.59,24.67,-1.00,-1.0,2370
3265,2138265,10976,-1164,204,11039.43,24.58,-1.00,-1.0,2440
3268,2138268,24296,-3552,2304,24662.13,24.58,-1.00,-1.0,2366
3271,2138271,9480,-884,-316,9526.37,24.67,-1.00,-1.0,2443
3273,2138273,25060,2988,-1444,25278.78,24.67,-1.00,-1.0,2367
3276,2138276,15452,1424,-424,15523.27,24.58,-1.00,-1.0,2435
3279,2138279,16228,-756,4564,16874.53,24.67,-1.00,-1.0,2366
3284,2138284,8984,-1348,-760,9116.30,24.62,-1.00,-1.0,2428
3287,2138287,24532,4428,1716,24987.41,24.62,-1.00,-1.0,2372
3289,2138289,8632,-404,-2640,9035.72,24.58,-1.00,-1.0,2448
3292,2138292,15620,-956,3872,16121.13,24.62,-1.00,-1.0,2381
3295,2138295,19496,-4820,3624,20407.35,24.67,-1.00,-1.0,2436
3298,2138298,12684,-20,-2304,12891.57,24.62,-1.00,-1.0,2372
3300,2138300,25652,4280,776,26018.18,24.67,-1.00,-1.0,2360
3303,2138303,8488,180,-2188,8767.32,24.67,-1.00,-1.0,2434
3306,2138306,22216,-2228,4144,22708.75,24.62,-1.00,-1.0,2372
3311,2138311,18712,1076,136,18743.40,24.67,-1.00,-1.0,2456
3314,2138314,22372,3488,1432,22687.51,24.67,-1.00,-1.0,2372
3317,2138317,10204,132,-2408,10485.11,24.67,-1.00,-1.0,2436
3320,2138320,24376,-1900,1980,24529.98,24.67,-1.00,-1.0,2365
3322,2138322,10488,-1912,1844,10819.16,24.58,-1.00,-1.0,2435
3325,2138325,19352,-196,2592,19525.80,24.67,-1.00,-1.0,2367
3328,2138328,15444,884,1336,15526.86,24.58,-1.00,-1.0,2434
3331,2138331,15396,532,-1680,15496.52,24.67,-1.00,-1.0,2366
3335,2138335,10016,-2848,1628,10539.53,24.67,-1.00,-1.0,2439
3338,2138338,22984,-2440,880,23129.90,24.62,-1.00,-1.0,2370
3341,2138341,15572,176,0,15572.99,24.53,-1.00,-1.0,2435
3344,2138344,16708,1264,-3088,17037.92,24.58,-1.00,-1.0,2364
3346,2138346,20012,-772,1028,20053.25,24.62,-1.00,-1.0,2361
3349,2138349,11288,-3648,1592,11969.18,24.58,-1.00,-1.0,2442
3352,2138352,22032,-2208,2012,22233.59,24.62,-1.00,-1.0,2375
3355,2138355,11760,1196,-1472,11911.96,24.62,-1.00,-1.0,2434
3357,2138357,20388,2444,344,20536.85,24.53,-1.00,-1.0,2366
3362,2138362,15444,-4104,696,15995.14,24.53,-1.00,-1.0,2438
3365,2138365,20560,-1880,4488,21127.95,24.67,-1.00,-1.0,2357
3368,2138368,12516,548,-704,12547.76,24.62,-1.00,-1.0,2444
3370,2138370,18960,1416,-1332,19059.40,24.58,-1.00,-1.0,2365
3373,2138373,15484,-1048,1216,15566.99,24.62,-1.00,-1.0,2421
3376,2138376,15132,-2280,1588,15384.98,24.48,-1.00,-1.0,2369
3379,2138379,19700,-860,2148,19835.41,24.72,-1.00,-1.0,2433
3381,2138381,13520,752,-936,13573.21,24.67,-1.00,-1.0,2373
3386,2138386,14352,-796,1408,14442.85,24.58,-1.00,-1.0,2450
3389,2138389,15752,-2288,516,15925.66,24.58,-1.00,-1.0,2385
3392,2138392,20856,-2468,780,21016.00,24.67,-1.00,-1.0,2438
3395,2138395,11724,1352,-44,11801.78,24.58,-1.00,-1.0,2374
3397,2138397,21660,1748,764,21743.85,24.62,-1.00,-1.0,2360
3400,2138400,13524,-740,1224,13599.42,24.62,-1.00,-1.0,2434
3403,2138403,19136,-2284,3016,19506.39,24.62,-1.00,-1.0,2366
3405,2138405,14624,-1580,-236,14711.00,24.72,-1.00,-1.0,2434
3408,2138408,18524,1512,-2456,18747.18,24.72,-1.00,-1.0,2368
3413,2138413,12484,-1848,-196,12621.56,24.58,-1.00,-1.0,2452
3416,2138416,21512,-2220,2416,21760.78,24.58,-1.00,-1.0,2378
3419,2138419,13736,-1788,500,13860.90,24.62,-1.00,-1.0,2447
3421,2138421,18380,992,-1464,18464.88,24.58,-1.00,-1.0,2374
3424,2138424,16584,-636,-932,16622.34,24.53,-1.00,-1.0,2441
3427,2138427,11924,-632,1460,12029.66,24.67,-1.00,-1.0,2370
3430,2138430,21832,-1416,1800,21951.79,24.62,-1.00,-1.0,2442
3432,2138432,11808,-688,992,11869.55,24.58,-1.00,-1.0,2374
3437,2138437,15764,-1020,-452,15803.43,24.67,-1.00,-1.0,2441
3440,2138440,12316,-468,296,12328.44,24.58,-1.00,-1.0,2369
3443,2138443,21876,-232,908,21896.06,24.58,-1.00,-1.0,2443
3445,2138445,13528,-1208,-1116,13627.60,24.67,-1.00,-1.0,2366
3448,2138448,21908,-352,1704,21976.99,24.62,-1.00,-1.0,2368
3451,2138451,14364,-828,96,14388.17,24.53,-1.00,-1.0,2436
3454,2138454,18520,160,-384,18524.67,24.58,-1.00,-1.0,2374
3456,2138456,17188,-1172,2000,17343.61,24.53,-1.00,-1.0,2435
3459,2138459,15696,-2012,456,15831.00,24.62,-1.00,-1.0,2381
3464,2138464,13040,500,-608,13063.74,24.58,-1.00,-1.0,2445
3467,2138467,17968,812,-620,17997.02,24.58,-1.00,-1.0,2380
3470,2138470,17548,-3348,876,17885.99,24.72,-1.00,-1.0,2450
3472,2138472,15952,-2068,1788,16184.56,24.67,-1.00,-1.0,2369
3475,2138475,19224,428,1100,19260.20,24.62,-1.00,-1.0,2448
3478,2138478,11804,1416,-1692,12008.43,24.58,-1.00,-1.0,2374
3481,2138481,21944,1396,1504,22039.74,24.62,-1.00,-1.0,2442
3483,2138483,13072,-2860,-356,13385.95,24.58,-1.00,-1.0,2374
3488,2138488,18848,-936,-456,18876.73,24.58,-1.00,-1.0,2442
3491,2138491,11536,1112,-736,11612.82,24.67,-1.00,-1.0,2370
3494,2138494,22312,384,2320,22435.58,24.62,-1.00,-1.0,2444
3496,2138496,11196,-2924,676,11591.25,24.58,-1.00,-1.0,2366
3499,2138499,22740,-1284,1264,22811.27,24.62,-1.00,-1.0,2374
3502,2138502,17164,-124,364,17168.31,24.62,-1.00,-1.0,2437
3505,2138505,14764,1836,-1876,14995.53,24.62,-1.00,-1.0,2373
3507,2138507,21128,68,2336,21256.86,24.62,-1.00,-1.0,2444
3510,2138510,11684,-2232,3732,12466.98,24.62,-1.00,-1.0,2382
3515,2138515,17908,-296,2312,18059.05,24.62,-1.00,-1.0,2441
3518,2138518,13844,1308,-1960,14043.11,24.53,-1.00,-1.0,2366
3520,2138520,20776,112,1048,20802.72,24.67,-1.00,-1.0,2439
3523,2138523,12188,-2124,1536,12466.68,24.62,-1.00,-1.0,2373
3526,2138526,21320,-2308,2600,21601.60,24.58,-1.00,-1.0,2434
3529,2138529,12464,-396,792,12495.41,24.62,-1.00,-1.0,2362
3531,2138531,19944,2064,484,20056.36,24.58,-1.00,-1.0,2437
3534,2138534,14848,364,1096,14892.84,24.53,-1.00,-1.0,2380
3539,2138539,22792,-1492,2160,22942.69,24.67,-1.00,-1.0,2439
3542,2138542,12528,-1380,1460,12688.06,24.62,-1.00,-1.0,2369
3544,2138544,19992,996,1112,20047.66,24.67,-1.00,-1.0,2361
3547,2138547,20604,1156,564,20644.11,24.67,-1.00,-1.0,2437
3550,2138550,13676,-772,-768,13719.29,24.58,-1.00,-1.0,2365
3552,2138552,22284,-2012,2040,22467.45,24.67,-1.00,-1.0,2434
3555,2138555,9668,-344,2020,9882.76,24.58,-1.00,-1.0,2366
3558,2138558,22860,1988,584,22953.71,24.62,-1.00,-1.0,2428
3561,2138561,11492,-404,-268,11502.22,24.62,-1.00,-1.0,2381
3566,2138566,18368,-2716,1424,18622.24,24.53,-1.00,-1.0,2443
3569,2138569,11596,-1192,-220,11659.18,24.62,-1.00,-1.0,2378
3572,2138572,21724,1300,320,21765.21,24.77,-1.00,-1.0,2449
3574,2138574,11016,-508,-444,11036.64,24.72,-1.00,-1.0,2368
3577,2138577,22348,-988,3944,22714.85,24.58,-1.00,-1.0,2444
3580,2138580,17848,-2804,1048,18097.29,24.62,-1.00,-1.0,2371
3583,2138583,13716,1340,1136,13828.04,24.67,-1.00,-1.0,2445
3585,2138585,21140,1112,472,21174.49,24.62,-1.00,-1.0,2370
3588,2138588,11796,-1148,-896,11885.55,24.58,-1.00,-1.0,2369
3593,2138593,13284,-1448,636,13377.81,24.67,-1.00,-1.0,2453
3596,2138596,13740,396,1048,13785.60,24.62,-1.00,-1.0,2374
3599,2138599,20604,104,680,20615.48,24.58,-1.00,-1.0,2448
3601,2138601,11864,-1364,-1932,12097.42,24.53,-1.00,-1.0,2366
3604,2138604,23948,-508,1728,24015.63,24.58,-1.00,-1.0,2446
3607,2138607,11880,-1252,2072,12124.15,24.62,-1.00,-1.0,2373
3610,2138610,19988,-804,716,20016.97,24.67,-1.00,-1.0,2446
3612,2138612,16268,-1528,-2364,16509.73,24.67,-1.00,-1.0,2367
3617,2138617,22312,56,1756,22381.06,24.62,-1.00,-1.0,2439
3620,2138620,11400,-2096,1884,11743.20,24.67,-1.00,-1.0,2368
3623,2138623,22496,-556,4224,22895.88,24.62,-1.00,-1.0,2437
3626,2138626,15436,-744,-1560,15532.46,24.62,-1.00,-1.0,2364
3628,2138628,16884,3184,-36,17181.64,24.53,-1.00,-1.0,2436
3631,2138631,19272,-700,1200,19322.01,24.58,-1.00,-1.0,2365
3634,2138634,13748,-3692,800,14257.57,24.53,-1.00,-1.0,2434
3637,2138637,22232,-1348,3996,22628.46,24.62,-1.00,-1.0,2365
3639,2138639,13044,280,-504,13056.74,24.62,-1.00,-1.0,2360
3644,2138644,20940,76,-592,20948.50,24.67,-1.00,-1.0,2426
3647,2138647,12464,-1744,2264,12787.44,24.58,-1.00,-1.0,2369
3650,2138650,20776,-2156,3540,21185.42,24.72,-1.00,-1.0,2433
3652,2138652,12524,-104,-108,12524.90,24.58,-1.00,-1.0,2352
3655,2138655,19632,2428,1116,19813.03,24.77,-1.00,-1.0,2436
3658,2138658,20048,-516,1000,20079.56,24.67,-1.00,-1.0,2368
3661,2138661,13376,-3180,1296,13809.76,24.62,-1.00,-1.0,2429
3663,2138663,21872,-1060,1292,21935.75,24.58,-1.00,-1.0,2371
3668,2138668,19128,2416,192,19280.93,24.58,-1.00,-1.0,2448
3671,2138671,16052,-2748,1520,16356.30,24.58,-1.00,-1.0,2376
3674,2138674,13740,-4224,1380,14440.71,24.58,-1.00,-1.0,2432
3676,2138676,22240,-1640,544,22307.02,24.67,-1.00,-1.0,2365
3679,2138679,11692,2536,-1060,12010.74,24.67,-1.00,-1.0,2447
3682,2138682,21104,3016,3168,21552.52,24.67,-1.00,-1.0,2373
3685,2138685,17300,-1880,676,17414.98,24.67,-1.00,-1.0,2438
3687,2138687,15684,-3020,2224,16126.20,24.58,-1.00,-1.0,2364
3690,2138690,20528,-1556,568,20594.72,24.53,-1.00,-1.0,2359
3695,2138695,20100,2736,1700,20356.46,24.67,-1.00,-1.0,2446
3698,2138698,18236,-116,-508,18243.44,24.58,-1.00,-1.0,2372
3701,2138701,15352,-2640,-392,15582.27,24.72,-1.00,-1.0,2446
3703,2138703,21416,-2152,588,21531.88,24.62,-1.00,-1.0,2372
3706,2138706,13440,1552,656,13545.21,24.62,-1.00,-1.0,2436
3709,2138709,21248,2556,2440,21539.83,24.62,-1.00,-1.0,2367
3712,2138712,14740,-304,-768,14763.12,24.53,-1.00,-1.0,2442
3714,2138714,19536,-1340,1836,19667.79,24.62,-1.00,-1.0,2373
3719,2138719,12412,-1228,-108,12473.07,24.53,-1.00,-1.0,2438
3722,2138722,21748,1896,-1928,21915.46,24.72,-1.00,-1.0,2370
3725,2138725,15956,2800,1284,16250.62,24.53,-1.00,-1.0,2435
3727,2138727,16852,-2896,-1056,17131.60,24.62,-1.00,-1.0,2367
3730,2138730,18908,-3972,2624,19498.07,24.62,-1.00,-1.0,2436
3733,2138733,14868,44,-100,14868.40,24.72,-1.00,-1.0,2368
3736,2138736,20436,2552,-1028,20620.37,24.62,-1.00,-1.0,2437
3738,2138738,14356,1672,-396,14458.46,24.62,-1.00,-1.0,2372
3741,2138741,18628,-2752,2296,18969.65,24.67,-1.00,-1.0,2360
3746,2138746,14744,-1740,-1212,14895.71,24.58,-1.00,-1.0,2439
3749,2138749,18704,2172,1532,18891.91,24.67,-1.00,-1.0,2371
3752,2138752,14752,1800,-108,14861.80,24.62,-1.00,-1.0,2448
3754,2138754,17040,-1720,-12,17126.59,24.58,-1.00,-1.0,2369
3757,2138757,17228,-3584,1260,17641.90,24.67,-1.00,-1.0,2451
3760,2138760,14216,-3052,-1172,14587.08,24.67,-1.00,-1.0,2376
3763,2138763,21160,1376,1400,21250.86,24.72,-1.00,-1.0,2448
3765,2138765,13896,1680,304,14000.49,24.67,-1.00,-1.0,2367
3770,2138770,19836,-2440,884,20005.05,24.58,-1.00,-1.0,2439
3773,2138773,16024,-2728,-1064,16289.34,24.58,-1.00,-1.0,2368
3776,2138776,19700,580,3756,20063.25,24.58,-1.00,-1.0,2448
3778,2138778,14036,132,-2972,14347.80,24.58,-1.00,-1.0,2365
3781,2138781,18236,1240,-88,18278.32,24.67,-1.00,-1.0,2436
3784,2138784,17712,-2012,1324,17875.01,24.67,-1.00,-1.0,2366
3787,2138787,13064,-3384,2348,13697.91,24.67,-1.00,-1.0,2443
3789,2138789,21032,1064,5000,21644.33,24.58,-1.00,-1.0,2365
3792,2138792,13100,1496,-2452,13411.20,24.62,-1.00,-1.0,2363
3797,2138797,18124,-1152,1392,18213.85,24.67,-1.00,-1.0,2442
3800,2138800,14616,-5756,-760,15726.94,24.58,-1.00,-1.0,2368
3803,2138803,21396,-60,2696,21565.27,24.62,-1.00,-1.0,2439
3805,2138805,13588,160,-1260,13647.23,24.67,-1.00,-1.0,2365
3808,2138808,16904,3572,1192,17318.35,24.62,-1.00,-1.0,2438
3811,2138811,17456,-1264,1060,17533.77,24.58,-1.00,-1.0,2366
3814,2138814,13804,-2948,1660,14212.55,24.58,-1.00,-1.0,2442
3816,2138816,21724,-72,4148,22116.58,24.67,-1.00,-1.0,2365
3821,2138821,17928,2180,-212,18061.30,24.67,-1.00,-1.0,2441
3824,2138824,17056,-2008,-904,17197.57,24.72,-1.00,-1.0,2356
3827,2138827,16060,-3200,368,16379.84,24.58,-1.00,-1.0,2438
3830,2138830,21296,-2276,1272,21455.02,24.62,-1.00,-1.0,2368
3832,2138832,11784,1416,1756,11997.97,24.67,-1.00,-1.0,2438
3835,2138835,19660,2240,720,19800.29,24.58,-1.00,-1.0,2368
3838,2138838,14808,-2808,-360,15076.18,24.58,-1.00,-1.0,2435
3841,2138841,16008,-2616,1704,16309.60,24.53,-1.00,-1.0,2361
3846,2138846,14940,888,1000,14999.74,24.62,-1.00,-1.0,2441
3848,2138848,16924,432,-2672,17139.08,24.72,-1.00,-1.0,2371
3851,2138851,17940,-2560,-1244,18164.38,24.67,-1.00,-1.0,2361
3854,2138854,13616,-3084,852,13986.87,24.58,-1.00,-1.0,2445
3856,2138856,20244,-1344,2004,20387.30,24.58,-1.00,-1.0,2373
3859,2138859,13456,1736,2288,13759.09,24.48,-1.00,-1.0,2436
3862,2138862,18648,756,4,18663.32,24.67,-1.00,-1.0,2366
3865,2138865,20552,172,1516,20608.55,24.58,-1.00,-1.0,2444
3867,2138867,14936,-2248,384,15109.11,24.58,-1.00,-1.0,2373
3872,2138872,14892,-224,-760,14913.06,24.58,-1.00,-1.0,2446
3875,2138875,17532,-544,-2216,17679.87,24.58,-1.00,-1.0,2383
3878,2138878,18556,-1664,240,18632.01,24.67,-1.00,-1.0,2440
3881,2138881,11052,-2800,432,11409.35,24.58,-1.00,-1.0,2372
3883,2138883,22292,316,3784,22613.09,24.58,-1.00,-1.0,2438
3886,2138886,13348,-936,-1812,13502.91,24.58,-1.00,-1.0,2380
3889,2138889,18832,620,824,18860.21,24.67,-1.00,-1.0,2437
3892,2138892,19180,188,500,19187.44,24.67,-1.00,-1.0,2379
3894,2138894,14592,-1732,-24,14694.45,24.58,-1.00,-1.0,2355
3899,2138899,12536,-2424,452,12776.20,24.58,-1.00,-1.0,2449
3902,2138902,19376,2396,956,19546.97,24.67,-1.00,-1.0,2382
3905,2138905,15956,1388,-1248,16064.81,24.67,-1.00,-1.0,2439
3908,2138908,12632,292,1032,12677.45,24.67,-1.00,-1.0,2372
3910,2138910,21512,-1676,5164,22186.53,24.58,-1.00,-1.0,2424
3913,2138913,11832,-3712,380,12406.43,24.58,-1.00,-1.0,2381
3916,2138916,20200,1928,1184,20326.31,24.67,-1.00,-1.0,2439
3919,2138919,18568,1960,-808,18688.63,24.58,-1.00,-1.0,2371
3923,2138923,20064,-2088,704,20184.63,24.58,-1.00,-1.0,2427
3926,2138926,13204,-2900,172,13519.81,24.67,-1.00,-1.0,2375
3929,2138929,20100,496,524,20112.95,24.58,-1.00,-1.0,2437
3932,2138932,19380,620,76,19390.06,24.58,-1.00,-1.0,2368
3934,2138934,14376,852,2904,14691.10,24.72,-1.00,-1.0,2360
3937,2138937,19036,-1712,1824,19199.67,24.62,-1.00,-1.0,2436
3940,2138940,13100,-1316,1172,13218.00,24.62,-1.00,-1.0,2366
3942,2138942,18100,36,-904,18122.60,24.62,-1.00,-1.0,2435
3945,2138945,17272,1380,1864,17427.02,24.53,-1.00,-1.0,2363
3950,2138950,18128,-816,1252,18189.50,24.58,-1.00,-1.0,2439
3953,2138953,16428,-1388,748,16503.49,24.62,-1.00,-1.0,2368
3956,2138956,17108,-1352,-564,17170.61,24.58,-1.00,-1.0,2447
3958,2138958,19936,704,3380,20232.75,24.62,-1.00,-1.0,2365
3961,2138961,14116,-196,-292,14120.38,24.67,-1.00,-1.0,2436
3964,2138964,19288,416,640,19303.10,24.62,-1.00,-1.0,2366
3967,2138967,14140,-620,1112,14197.20,24.58,-1.00,-1.0,2438
3969,2138969,16012,-1456,-708,16093.64,24.62,-1.00,-1.0,2365
3974,2138974,13480,-2700,-48,13747.83,24.62,-1.00,-1.0,2440
3977,2138977,18712,1216,1788,18836.52,24.62,-1.00,-1.0,2369
3980,2138980,16388,-120,-1344,16443.46,24.67,-1.00,-1.0,2442
3983,2138983,16076,-432,-896,16106.74,24.62,-1.00,-1.0,2365
3985,2138985,20708,-260,2820,20900.75,24.58,-1.00,-1.0,2360
3988,2138988,12796,-2144,1288,13038.15,24.67,-1.00,-1.0,2435
3991,2138991,20824,484,2404,20967.89,24.58,-1.00,-1.0,2373
3994,2138994,16604,-300,-780,16625.02,24.67,-1.00,-1.0,2436
3996,2138996,17212,768,328,17232.25,24.48,-1.00,-1.0,2364
4001,2139001,12980,-1696,2012,13244.05,24.58,-1.00,-1.0,2439
4004,2139004,19636,-948,-2788,19855.58,24.58,-1.00,-1.0,2368
4007,2139007,16244,640,-32,16256.63,24.58,-1.00,-1.0,2438
4010,2139010,17564,-1288,-452,17616.96,24.58,-1.00,-1.0,2364
4012,2139012,18296,-892,3244,18602.76,24.58,-1.00,-1.0,2437
4015,2139015,15060,-716,1820,15186.46,24.58,-1.00,-1.0,2366
4018,2139018,18116,-304,-1988,18227.29,24.67,-1.00,-1.0,2435
4021,2139021,16332,-1264,-1332,16434.91,24.62,-1.00,-1.0,2365
4026,2139026,18936,-716,2024,19057.32,24.72,-1.00,-1.0,2442
4029,2139029,13996,676,3624,14473.37,24.62,-1.00,-1.0,2378
4031,2139031,17036,-1032,-2620,17267.16,24.62,-1.00,-1.0,2360
4034,2139034,19028,1336,3500,19393.29,24.58,-1.00,-1.0,2424
4037,2139037,15724,-2392,-1372,15963.97,24.62,-1.00,-1.0,2366
4039,2139039,19168,440,2724,19365.59,24.58,-1.00,-1.0,2437
4042,2139042,16016,-556,-2212,16177.59,24.53,-1.00,-1.0,2352
4045,2139045,16344,160,-888,16368.89,24.62,-1.00,-1.0,2435
4048,2139048,19660,-1912,1356,19799.24,24.62,-1.00,-1.0,2369
4053,2139053,21008,300,2228,21127.95,24.62,-1.00,-1.0,2439
4055,2139055,16652,1076,-104,16687.05,24.58,-1.00,-1.0,2370
4058,2139058,16444,668,-2392,16630.48,24.62,-1.00,-1.0,2452
4061,2139061,20436,-1704,-112,20507.22,24.67,-1.00,-1.0,2360
4064,2139064,13520,-784,3432,13970.82,24.62,-1.00,-1.0,2438
4066,2139066,18368,-2044,-1680,18557.58,24.67,-1.00,-1.0,2367
4069,2139069,16624,-224,816,16645.52,24.53,-1.00,-1.0,2442
4072,2139072,17240,-632,-608,17262.29,24.67,-1.00,-1.0,2373
4077,2139077,13388,768,1432,13486.25,24.58,-1.00,-1.0,2439
4079,2139079,16656,-152,-2064,16784.09,24.58,-1.00,-1.0,2368
4082,2139082,19504,660,3112,19761.73,24.67,-1.00,-1.0,2360
4085,2139085,14452,-3156,-316,14795.96,24.62,-1.00,-1.0,2445
4087,2139087,20456,-600,3316,20731.71,24.67,-1.00,-1.0,2365
4090,2139090,15068,-624,-1520,15157.32,24.53,-1.00,-1.0,2438
4093,2139093,17956,708,-1916,18071.81,24.58,-1.00,-1.0,2367
4096,2139096,18340,628,2784,18560.73,24.67,-1.00,-1.0,2445
4099,2139099,15696,-2760,696,15952.00,24.72,-1.00,-1.0,2367
4104,2139104,15444,-284,-2728,15685.66,24.62,-1.00,-1.0,2439
4106,2139106,16732,2412,1320,16956.41,24.53,-1.00,-1.0,2371
4109,2139109,16888,80,2852,17127.31,24.62,-1.00,-1.0,2451
4112,2139112,15608,-3180,3484,16305.22,24.62,-1.00,-1.0,2374
4115,2139115,17964,-2432,-736,18142.81,24.67,-1.00,-1.0,2448
4117,2139117,16364,2264,2332,16683.66,24.62,-1.00,-1.0,2372
4120,2139120,16048,1364,-3272,16434.87,24.67,-1.00,-1.0,2444
4123,2139123,18692,240,468,18699.40,24.53,-1.00,-1.0,2372
4128,2139128,15444,-3808,388,15911.27,24.67,-1.00,-1.0,2450
4131,2139131,20200,228,1260,20240.54,24.53,-1.00,-1.0,2382
4134,2139134,15180,1664,-1980,15398.76,24.67,-1.00,-1.0,2361
4136,2139136,19148,1204,-532,19193.19,24.62,-1.00,-1.0,2438
4139,2139139,15260,-232,1460,15331.44,24.58,-1.00,-1.0,2366
4142,2139142,17904,-3968,-940,18362.51,24.67,-1.00,-1.0,2435
4145,2139145,17912,-1112,3344,18255.37,24.58,-1.00,-1.0,2367
4147,2139147,14652,-1384,32,14717.25,24.48,-1.00,-1.0,2436
4150,2139150,18396,2860,2132,18738.67,24.58,-1.00,-1.0,2368
4155,2139155,17032,-388,580,17046.29,24.62,-1.00,-1.0,2437
4158,2139158,19280,-2112,1640,19464.54,24.58,-1.00,-1.0,2367
4160,2139160,14504,-748,1672,14619.20,24.62,-1.00,-1.0,2439
4163,2139163,19976,-180,-904,19997.25,24.62,-1.00,-1.0,2366
4166,2139166,14648,340,-348,14656.08,24.62,-1.00,-1.0,2435
4169,2139169,17816,-16,968,17842.29,24.58,-1.00,-1.0,2365
4171,2139171,17936,-1736,3360,18330.39,24.62,-1.00,-1.0,2437
4174,2139174,14596,-2512,1492,14885.54,24.67,-1.00,-1.0,2366
4177,2139177,19184,624,-804,19210.98,24.53,-1.00,-1.0,2367
4182,2139182,16616,-48,-984,16645.18,24.67,-1.00,-1.0,2437
4184,2139184,16996,-1720,960,17109.76,24.58,-1.00,-1.0,2371
4187,2139187,17356,-3660,1000,17765.88,24.53,-1.00,-1.0,2438
4190,2139190,16420,-1132,-1536,16530.49,24.67,-1.00,-1.0,2422
4193,2139193,19104,2624,1084,19313.81,24.62,-1.00,-1.0,2436
4196,2139196,14596,-332,-40,14599.83,24.67,-1.00,-1.0,2368
4198,2139198,18560,-1260,2620,18786.31,24.53,-1.00,-1.0,2432
4201,2139201,18256,-2620,-152,18443.67,24.58,-1.00,-1.0,2373
4206,2139206,18296,-40,-620,18306.54,24.67,-1.00,-1.0,2454
4209,2139209,15740,-1104,504,15786.72,24.67,-1.00,-1.0,2375
4212,2139212,18024,-1536,-648,18100.93,24.67,-1.00,-1.0,2448
4214,2139214,19576,588,3244,19851.68,24.67,-1.00,-1.0,2369
4217,2139217,14156,208,196,14158.88,24.67,-1.00,-1.0,2437
4220,2139220,19136,-32,416,19140.55,24.58,-1.00,-1.0,2372
4223,2139223,15076,-2276,812,15268.44,24.67,-1.00,-1.0,2445
4225,2139225,15052,-2064,764,15212.05,24.48,-1.00,-1.0,2365
4228,2139228,20176,-724,1252,20227.77,24.48,-1.00,-1.0,2346
4233,2139233,16988,312,-1640,17069.83,24.58,-1.00,-1.0,2447
4235,2139235,18580,-1184,-1140,18652.56,24.58,-1.00,-1.0,2367
4238,2139238,13152,-1000,2052,13348.63,24.67,-1.00,-1.0,2449
4241,2139241,19028,-1960,560,19136.88,24.58,-1.00,-1.0,2372
4244,2139244,15916,-1556,888,16016.51,24.53,-1.00,-1.0,2463
4247,2139247,18048,620,1140,18094.59,24.53,-1.00,-1.0,2364
4249,2139249,17228,696,128,17242.53,24.67,-1.00,-1.0,2438
4252,2139252,13796,748,-576,13828.26,24.62,-1.00,-1.0,2362
4257,2139257,17152,-1588,1072,17258.68,24.62,-1.00,-1.0,2441
4260,2139260,16784,-3052,-520,17067.15,24.72,-1.00,-1.0,2365
4263,2139263,19508,12,2980,19734.30,24.62,-1.00,-1.0,2439
4265,2139265,14068,1208,516,14129.19,24.62,-1.00,-1.0,2365
4268,2139268,18532,1652,-992,18631.91,24.62,-1.00,-1.0,2439
4271,2139271,17312,-164,988,17340.95,24.62,-1.00,-1.0,2365
4273,2139273,16496,-2864,668,16756.10,24.62,-1.00,-1.0,2361
4276,2139276,19860,-1564,1928,20014.57,24.58,-1.00,-1.0,2438
4279,2139279,14712,96,396,14717.64,24.62,-1.00,-1.0,2363
4284,2139284,17616,1132,1380,17706.19,24.53,-1.00,-1.0,2440
4287,2139287,15708,-2108,1160,15891.21,24.62,-1.00,-1.0,2364
4289,2139289,19336,-2596,688,19521.62,24.62,-1.00,-1.0,2442
4292,2139292,15208,-716,956,15254.83,24.62,-1.00,-1.0,2366
4295,2139295,18384,628,-2720,18594.74,24.62,-1.00,-1.0,2438
4298,2139298,17432,1652,1808,17603.20,24.62,-1.00,-1.0,2365
4300,2139300,15516,-2232,2040,15807.90,24.62,-1.00,-1.0,2439
4303,2139303,17704,-3000,276,17958.50,24.62,-1.00,-1.0,2365
4308,2139308,14904,812,332,14929.79,24.62,-1.00,-1.0,2455
4311,2139311,18476,1736,-356,18560.79,24.62,-1.00,-1.0,2372
4314,2139314,14980,-760,1100,15039.55,24.62,-1.00,-1.0,2454
4316,2139316,18208,-2648,768,18415.56,24.62,-1.00,-1.0,2371
4319,2139319,18780,-2028,1404,18941.29,24.62,-1.00,-1.0,2361
4322,2139322,15356,44,-256,15358.20,24.67,-1.00,-1.0,2435
4324,2139324,19152,1364,488,19206.71,24.62,-1.00,-1.0,2356
4327,2139327,16512,-28,1504,16580.38,24.67,-1.00,-1.0,2439
4330,2139330,17132,-2032,-568,17261.43,24.53,-1.00,-1.0,2364
4335,2139335,15784,40,812,15804.92,24.58,-1.00,-1.0,2440
4337,2139337,17116,652,252,17130.27,24.58,-1.00,-1.0,2365
4340,2139340,18916,-872,424,18940.83,24.58,-1.00,-1.0,2441
4343,2139343,14880,-1632,1724,15068.18,24.67,-1.00,-1.0,2366
4346,2139346,18804,-280,768,18821.76,24.67,-1.00,-1.0,2436
4348,2139348,16124,-452,-960,16158.88,24.58,-1.00,-1.0,2351
4351,2139351,14964,-12,-516,14972.90,24.58,-1.00,-1.0,2439
4354,2139354,19592,-708,872,19624.17,24.62,-1.00,-1.0,2365
4357,2139357,14380,-1616,704,14487.63,24.53,-1.00,-1.0,2360
4362,2139362,18000,-268,1456,18060.78,24.58,-1.00,-1.0,2440
4364,2139364,15868,-420,-488,15881.06,24.67,-1.00,-1.0,2360
4367,2139367,19064,320,456,19072.14,24.58,-1.00,-1.0,2442
4370,2139370,15344,-16,244,15345.95,24.58,-1.00,-1.0,2366
4373,2139373,17352,-532,-32,17360.18,24.67,-1.00,-1.0,2442
4375,2139375,17920,-1368,1632,18046.09,24.58,-1.00,-1.0,2370
4378,2139378,14320,-1752,1332,14488.14,24.58,-1.00,-1.0,2439
4381,2139381,19032,192,860,19052.39,24.67,-1.00,-1.0,2363
4386,2139386,15252,-412,-1116,15298.32,24.58,-1.00,-1.0,2431
4389,2139389,19296,120,1736,19374.30,24.62,-1.00,-1.0,2370
4391,2139391,15216,-1412,2128,15428.83,24.67,-1.00,-1.0,2450
4394,2139394,16784,-1844,-692,16899.17,24.48,-1.00,-1.0,2376
4397,2139397,18500,368,968,18528.96,24.58,-1.00,-1.0,2445
4400,2139400,15544,56,-1688,15635.49,24.62,-1.00,-1.0,2366
4402,2139402,17992,1160,2424,18191.58,24.58,-1.00,-1.0,2361
4405,2139405,15688,-1772,2292,15953.26,24.53,-1.00,-1.0,2437
4408,2139408,17056,-2872,-1004,17325.23,24.67,-1.00,-1.0,2364
4413,2139413,14856,784,336,14880.47,24.67,-1.00,-1.0,2443
4416,2139416,16840,1304,2124,17023.44,24.58,-1.00,-1.0,2367
4418,2139418,17020,-2504,1348,17255.94,24.67,-1.00,-1.0,2444
4421,2139421,14744,-2416,508,14949.27,24.58,-1.00,-1.0,2365
4424,2139424,20780,492,1988,20880.68,24.67,-1.00,-1.0,2438
4427,2139427,12592,1604,672,12711.52,24.67,-1.00,-1.0,2364
4429,2139429,19488,744,1000,19527.82,24.58,-1.00,-1.0,2426
4432,2139432,18720,-1320,1264,18809.00,24.58,-1.00,-1.0,2378
4437,2139437,18780,-752,1532,18857.38,24.67,-1.00,-1.0,2457
4440,2139440,15484,80,380,15488.87,24.58,-1.00,-1.0,2372
4443,2139443,17304,-64,-1176,17344.03,24.67,-1.00,-1.0,2451
4445,2139445,17932,-1208,668,17985.05,24.58,-1.00,-1.0,2363
4448,2139448,14340,-1332,1772,14510.33,24.58,-1.00,-1.0,2361
4451,2139451,19060,24,1704,19136.03,24.62,-1.00,-1.0,2432
4453,2139453,14316,196,912,14346.36,24.67,-1.00,-1.0,2370
4456,2139456,18932,-676,-580,18952.94,24.62,-1.00,-1.0,2439
4459,2139459,19332,-804,1352,19395.89,24.53,-1.00,-1.0,2362
4464,2139464,19860,-660,376,19874.52,24.67,-1.00,-1.0,2446
4467,2139467,15300,-260,-368,15306.63,24.67,-1.00,-1.0,2365
4470,2139470,17588,324,904,17614.20,24.53,-1.00,-1.0,2454
4472,2139472,17384,-580,1572,17464.56,24.67,-1.00,-1.0,2371
4475,2139475,15576,-1248,1692,15717.26,24.62,-1.00,-1.0,2440
4478,2139478,18852,-1648,-844,18942.71,24.58,-1.00,-1.0,2363
4481,2139481,16084,-796,264,16105.85,24.62,-1.00,-1.0,2452
4483,2139483,17820,388,-552,17832.77,24.67,-1.00,-1.0,2371
4488,2139488,15336,-612,1428,15414.49,24.58,-1.00,-1.0,2440
4491,2139491,17304,-1260,112,17350.17,24.58,-1.00,-1.0,2365
4494,2139494,18328,-1300,312,18376.70,24.67,-1.00,-1.0,2363
4496,2139496,15736,484,1444,15809.53,24.67,-1.00,-1.0,2444
4499,2139499,18000,-380,-1348,18054.40,24.58,-1.00,-1.0,2366
4502,2139502,17020,-132,1204,17063.04,24.53,-1.00,-1.0,2439
4505,2139505,17140,-1536,168,17209.51,24.67,-1.00,-1.0,2367
4507,2139507,18560,-368,2440,18723.32,24.67,-1.00,-1.0,2442
4510,2139510,15244,-764,68,15263.28,24.67,-1.00,-1.0,2379
4515,2139515,19488,512,856,19513.51,24.67,-1.00,-1.0,2441
4518,2139518,14128,-1148,1860,14296.08,24.67,-1.00,-1.0,2368
4521,2139521,19980,-1156,1168,20047.47,24.58,-1.00,-1.0,2442
4523,2139523,14900,-140,456,14907.63,24.67,-1.00,-1.0,2363
4526,2139526,16044,172,-1684,16133.05,24.67,-1.00,-1.0,2438
4529,2139529,19684,-324,188,19687.56,24.67,-1.00,-1.0,2370
4532,2139532,14232,-1052,732,14289.59,24.67,-1.00,-1.0,2439
4534,2139534,20472,-520,2112,20587.22,24.58,-1.00,-1.0,2363
4537,2139537,15760,-1380,924,15847.26,24.58,-1.00,-1.0,2369
4542,2139542,20632,856,2256,20772.62,24.72,-1.00,-1.0,2450
4545,2139545,12508,-24,912,12541.23,24.58,-1.00,-1.0,2371
4547,2139547,19788,-68,256,19789.77,24.53,-1.00,-1.0,2449
4550,2139550,14956,-952,1532,15064.37,24.62,-1.00,-1.0,2378
4553,2139553,15124,-1744,392,15229.27,24.62,-1.00,-1.0,2441
4556,2139556,20212,-380,1976,20311.92,24.62,-1.00,-1.0,2370
4558,2139558,13960,0,1144,14006.80,24.62,-1.00,-1.0,2445
4561,2139561,18260,760,-32,18275.84,24.62,-1.00,-1.0,2377
4566,2139566,14172,-1116,1964,14350.90,24.62,-1.00,-1.0,2444
4569,2139569,18488,-1520,1928,18650.30,24.62,-1.00,-1.0,2369
4571,2139571,15076,-260,812,15100.09,24.58,-1.00,-1.0,2441
4574,2139574,18612,-156,-1676,18687.96,24.62,-1.00,-1.0,2365
4577,2139577,18100,852,1512,18183.02,24.67,-1.00,-1.0,2360
4579,2139579,15444,-1532,1268,15571.51,24.67,-1.00,-1.0,2439
4582,2139582,18784,-2132,68,18904.73,24.58,-1.00,-1.0,2363
4585,2139585,15460,236,1600,15544.37,24.53,-1.00,-1.0,2437
4588,2139588,17404,416,-1956,17518.51,24.53,-1.00,-1.0,2369
4593,2139593,15052,-1968,2504,15385.24,24.62,-1.00,-1.0,2442
4596,2139596,17088,-3060,-316,17362.70,24.72,-1.00,-1.0,2376
4599,2139599,19612,-288,1764,19693.28,24.72,-1.00,-1.0,2455
4601,2139601,14140,1576,-68,14227.72,24.58,-1.00,-1.0,2365
4604,2139604,19808,1840,1124,19925.01,24.62,-1.00,-1.0,2453
4607,2139607,15448,-520,652,15470.50,24.62,-1.00,-1.0,2370
4610,2139610,18068,-2336,-456,18224.09,24.53,-1.00,-1.0,2448
4612,2139612,17912,-1080,2136,18071.21,24.58,-1.00,-1.0,2364
4617,2139617,19404,1192,1604,19506.64,24.67,-1.00,-1.0,2443
4620,2139620,17452,-276,184,17455.15,24.67,-1.00,-1.0,2367
4623,2139623,16444,-764,-280,16464.12,24.62,-1.00,-1.0,2450
4625,2139625,19528,248,2256,19659.45,24.67,-1.00,-1.0,2349
4628,2139628,13964,404,1244,14025.12,24.72,-1.00,-1.0,2360
4631,2139631,18760,-104,-184,18761.19,24.62,-1.00,-1.0,2448
4633,2139633,16432,-1504,1044,16533.68,24.62,-1.00,-1.0,2364
4636,2139636,16764,-1704,-256,16852.32,24.62,-1.00,-1.0,2453
4639,2139639,19416,844,3000,19664.52,24.67,-1.00,-1.0,2362
4644,2139644,19028,84,-472,19034.04,24.62,-1.00,-1.0,2453
4647,2139647,18476,172,1668,18551.94,24.62,-1.00,-1.0,2374
4650,2139650,14924,-1020,1136,15001.89,24.58,-1.00,-1.0,2455
4652,2139652,19132,-860,2116,19267.86,24.53,-1.00,-1.0,2370
4655,2139655,14388,-1124,1676,14528.83,24.58,-1.00,-1.0,2446
4658,2139658,17532,-216,-332,17536.47,24.53,-1.00,-1.0,2350
4661,2139661,18116,968,1568,18209.48,24.58,-1.00,-1.0,2449
4663,2139663,14916,-336,208,14921.23,24.62,-1.00,-1.0,2372
4668,2139668,16224,-1920,396,16342.01,24.62,-1.00,-1.0,2442
4671,2139671,17368,-792,-332,17389.22,24.62,-1.00,-1.0,2366
4674,2139674,18932,-60,724,18945.93,24.58,-1.00,-1.0,2369
4676,2139676,14704,-296,1492,14782.47,24.58,-1.00,-1.0,2448
4679,2139679,17940,-816,-800,17976.36,24.67,-1.00,-1.0,2379
4682,2139682,18600,404,2328,18749.47,24.58,-1.00,-1.0,2439
4685,2139685,14736,-940,544,14775.97,24.58,-1.00,-1.0,2368
4687,2139687,18420,260,1248,18464.06,24.67,-1.00,-1.0,2447
4690,2139690,15752,-736,-52,15769.27,24.67,-1.00,-1.0,2363
4695,2139695,19156,-1536,588,19226.48,24.67,-1.00,-1.0,2441
4698,2139698,16204,-756,2436,16403.51,24.58,-1.00,-1.0,2367
4701,2139701,16544,-428,-960,16577.36,24.58,-1.00,-1.0,2435
4703,2139703,18316,900,1824,18428.59,24.77,-1.00,-1.0,2370
4706,2139706,14356,-1216,-260,14409.75,24.58,-1.00,-1.0,2440
4709,2139709,17884,-1000,764,17928.22,24.67,-1.00,-1.0,2365
4711,2139711,18056,-1832,1508,18211.24,24.62,-1.00,-1.0,2360
4714,2139714,14468,-124,-332,14472.34,24.53,-1.00,-1.0,2440
4717,2139717,21016,1260,1016,21078.24,24.62,-1.00,-1.0,2364
4722,2139722,18628,-536,1764,18719.01,24.58,-1.00,-1.0,2441
4725,2139725,16608,-2068,2068,16863.54,24.62,-1.00,-1.0,2367
4728,2139728,13864,-2048,-1456,14089.88,24.53,-1.00,-1.0,2438
4730,2139730,21432,1852,2332,21637.90,24.62,-1.00,-1.0,2366
4733,2139733,12652,252,980,12692.40,24.62,-1.00,-1.0,2440
4736,2139736,18544,-844,1008,18590.54,24.53,-1.00,-1.0,2365
4739,2139739,20548,-1148,2408,20720.44,24.62,-1.00,-1.0,2438
4741,2139741,13588,-2180,-416,13768.05,24.58,-1.00,-1.0,2366
4746,2139746,16624,1048,1044,16689.69,24.62,-1.00,-1.0,2441
4749,2139749,16932,-1240,-476,16984.02,24.62,-1.00,-1.0,2365
4752,2139752,18516,-1508,636,18588.19,24.53,-1.00,-1.0,2446
4754,2139754,16384,-356,1176,16430.01,24.62,-1.00,-1.0,2363
4757,2139757,17896,800,660,17926.03,24.62,-1.00,-1.0,2439
4760,2139760,16748,-432,1016,16784.35,24.62,-1.00,-1.0,2363
4762,2139762,16896,-1192,1048,16970.38,24.72,-1.00,-1.0,2347
4765,2139765,16704,-284,1500,16773.62,24.58,-1.00,-1.0,2452
4768,2139768,17688,-768,116,17705.04,24.58,-1.00,-1.0,2367
4773,2139773,19016,168,2800,19221.77,24.58,-1.00,-1.0,2455
4776,2139776,18188,-1236,1640,18303.57,24.67,-1.00,-1.0,2372
4779,2139779,15280,-1296,-1568,15414.82,24.72,-1.00,-1.0,2453
4781,2139781,20196,1500,1956,20345.87,24.67,-1.00,-1.0,2372
4784,2139784,13476,-1048,-316,13520.38,24.67,-1.00,-1.0,2446
4787,2139787,18888,-1360,-556,18945.06,24.67,-1.00,-1.0,2366
4790,2139790,16752,-676,2524,16954.56,24.62,-1.00,-1.0,2449
4792,2139792,16572,-768,-376,16594.05,24.62,-1.00,-1.0,2372
4797,2139797,15780,-468,1344,15844.04,24.62,-1.00,-1.0,2451
4800,2139800,17652,-1736,-1420,17793.91,24.67,-1.00,-1.0,2372
4803,2139803,17432,-308,1024,17464.77,24.62,-1.00,-1.0,2430
4806,2139806,15232,-456,-436,15245.06,24.67,-1.00,-1.0,2364
4808,2139808,18172,252,1340,18223.08,24.62,-1.00,-1.0,2449
4811,2139811,15620,-1432,1468,15754.05,24.58,-1.00,-1.0,2369
4814,2139814,16644,-1608,588,16731.83,24.62,-1.00,-1.0,2360
4816,2139816,18432,324,1620,18505.89,24.62,-1.00,-1.0,2440
4819,2139819,15372,152,-32,15372.79,24.62,-1.00,-1.0,2373
4824,2139824,18140,-580,1648,18223.94,24.58,-1.00,-1.0,2440
4827,2139827,16668,-1900,1180,16817.39,24.67,-1.00,-1.0,2365
4830,2139830,17180,248,2052,17303.89,24.62,-1.00,-1.0,2452
4832,2139832,18748,472,504,18760.71,24.67,-1.00,-1.0,2363
4835,2139835,16184,-736,-1688,16288.43,24.62,-1.00,-1.0,2453
4838,2139838,17984,188,3332,18291.03,24.58,-1.00,-1.0,2363
4841,2139841,15684,-1248,816,15754.72,24.62,-1.00,-1.0,2445
4843,2139843,17128,-888,-1392,17207.40,24.67,-1.00,-1.0,2363
4848,2139848,14308,-624,1724,14424.99,24.58,-1.00,-1.0,2441
4851,2139851,17992,-1304,208,18040.39,24.67,-1.00,-1.0,2365
4854,2139854,17564,-1100,680,17611.54,24.58,-1.00,-1.0,2442
4857,2139857,14756,-1424,-732,14842.61,24.58,-1.00,-1.0,2364
4859,2139859,17760,740,1992,17886.68,24.67,-1.00,-1.0,2439
4862,2139862,15980,-720,1224,16042.97,24.58,-1.00,-1.0,2349
4865,2139865,15236,-1764,-408,15343.20,24.58,-1.00,-1.0,2367
4868,2139868,20336,48,2536,20493.57,24.62,-1.00,-1.0,2439
4870,2139870,14544,92,884,14571.13,24.72,-1.00,-1.0,2371
4876,2139876,17516,-76,-720,17530.96,24.62,-1.00,-1.0,2441
4878,2139878,17376,-1196,1088,17451.06,24.72,-1.00,-1.0,2368
4881,2139881,17336,-688,2296,17500.91,24.62,-1.00,-1.0,2457
4884,2139884,15756,-28,2432,15942.61,24.62,-1.00,-1.0,2373
4887,2139887,16312,-804,-3132,16629.41,24.53,-1.00,-1.0,2447
4889,2139889,19020,376,52,19023.79,24.53,-1.00,-1.0,2366
4892,2139892,16116,-1716,120,16207.54,24.72,-1.00,-1.0,2453
4895,2139895,17880,-780,1724,17979.85,24.62,-1.00,-1.0,2375
4900,2139900,13444,428,1200,13504.23,24.67,-1.00,-1.0,2448
4902,2139902,18576,844,2732,18794.79,24.67,-1.00,-1.0,2365
4905,2139905,15044,-1488,1376,15179.90,24.58,-1.00,-1.0,2360
4908,2139908,17032,-1608,-1112,17143.84,24.72,-1.00,-1.0,2450
4910,2139910,19112,1296,2628,19335.32,24.62,-1.00,-1.0,2363
4913,2139913,13936,44,776,13957.66,24.62,-1.00,-1.0,2454
4916,2139916,17592,-216,1208,17634.75,24.53,-1.00,-1.0,2369
4919,2139919,16764,-1772,2092,16986.71,24.62,-1.00,-1.0,2448
4921,2139921,15128,-2304,-416,15308.10,24.62,-1.00,-1.0,2363
4926,2139926,17248,976,-192,17276.66,24.62,-1.00,-1.0,2428
4929,2139929,16224,-208,256,16227.35,24.58,-1.00,-1.0,2365
4932,2139932,19428,-1648,1372,19545.98,24.58,-1.00,-1.0,2442
4935,2139935,15016,-1376,2720,15322.27,24.58,-1.00,-1.0,2363
4937,2139937,17768,-428,-980,17800.15,24.62,-1.00,-1.0,2426
4940,2139940,17248,256,-776,17267.35,24.58,-1.00,-1.0,2363
4943,2139943,16860,-1272,-116,16908.31,24.58,-1.00,-1.0,2439
4946,2139946,17648,-1328,1784,17787.58,24.67,-1.00,-1.0,2364
4951,2139951,16912,-680,-2872,17167.60,24.72,-1.00,-1.0,2457
4954,2139954,18104,196,1428,18161.29,24.62,-1.00,-1.0,2365
4957,2139957,15868,-1792,724,15985.27,24.58,-1.00,-1.0,2358
4959,2139959,17044,-1080,1440,17138.79,24.67,-1.00,-1.0,2444
4962,2139962,18036,124,504,18043.47,24.67,-1.00,-1.0,2366
4965,2139965,15876,-172,-1808,15979.54,24.58,-1.00,-1.0,2439
4968,2139968,18432,788,2308,18592.64,24.67,-1.00,-1.0,2360
4970,2139970,15488,-1040,2444,15714.10,24.58,-1.00,-1.0,2442
4973,2139973,16504,-1884,-656,16624.13,24.58,-1.00,-1.0,2379
4978,2139978,14752,-660,-104,14767.12,24.67,-1.00,-1.0,2441
4981,2139981,16320,-624,-492,16339.33,24.67,-1.00,-1.0,2364
4983,2139983,19556,-1116,808,19604.47,24.53,-1.00,-1.0,2441
4986,2139986,14400,-1104,52,14442.35,24.67,-1.00,-1.0,2363
4989,2139989,19884,948,2264,20034.92,24.58,-1.00,-1.0,2438
4992,2139992,15500,-124,484,15508.05,24.67,-1.00,-1.0,2362
4994,2139994,17376,-840,28,17396.31,24.62,-1.00,-1.0,2439
4997,2139997,18844,-436,1676,18923.41,24.67,-1.00,-1.0,2365
5000,2140000,14208,-352,1648,14307.59,24.62,-1.00,-1.0,2361
5005,2140005,16668,0,732,16684.07,24.62,-1.00,-1.0,2442
5007,2140007,15052,-1512,84,15127.98,24.58,-1.00,-1.0,2374
5010,2140010,17892,-864,1444,17970.96,24.72,-1.00,-1.0,2442
5013,2140013,16548,-556,1468,16622.29,24.67,-1.00,-1.0,2362
5016,2140016,17544,-1028,-2220,17713.76,24.62,-1.00,-1.0,2439
5018,2140018,17768,1268,3108,18082.29,24.53,-1.00,-1.0,2365
5021,2140021,15812,-1216,504,15866.70,24.62,-1.00,-1.0,2440
5024,2140024,16816,-1052,404,16853.72,24.58,-1.00,-1.0,2364
5029,2140029,14544,-152,1000,14579.13,24.67,-1.00,-1.0,2449
5032,2140032,17340,-336,-1548,17412.20,24.58,-1.00,-1.0,2376
5034,2140034,18592,-292,392,18598.42,24.62,-1.00,-1.0,2449
5037,2140037,15152,-1284,632,15219.43,24.58,-1.00,-1.0,2376
5040,2140040,19500,-116,2728,19690.24,24.58,-1.00,-1.0,2442
5043,2140043,16572,-576,964,16610.00,24.58,-1.00,-1.0,2375
5045,2140045,16392,-136,-1344,16447.57,24.62,-1.00,-1.0,2361
5048,2140048,20476,56,876,20494.81,24.62,-1.00,-1.0,2426
5051,2140051,13616,-996,1408,13724.79,24.62,-1.00,-1.0,2364
5056,2140056,19708,1048,2904,19948.35,24.58,-1.00,-1.0,2445
5058,2140058,14436,-796,80,14458.15,24.58,-1.00,-1.0,2375
5061,2140061,17524,-120,2268,17670.56,24.53,-1.00,-1.0,2447
5064,2140064,15808,-1488,1288,15930.03,24.58,-1.00,-1.0,2366
5067,2140067,16896,-1232,-2192,17082.08,24.62,-1.00,-1.0,2452
5069,2140069,19872,1928,3016,20191.83,24.67,-1.00,-1.0,2371
5072,2140072,14272,-1172,-304,14323.27,24.62,-1.00,-1.0,2446
5075,2140075,18112,-348,3132,18384.10,24.67,-1.00,-1.0,2368
5080,2140080,13456,-888,-688,13502.81,24.58,-1.00,-1.0,2448
5082,2140082,18260,772,240,18277.89,24.67,-1.00,-1.0,2364
5085,2140085,17208,-660,428,17225.97,24.53,-1.00,-1.0,2457
5088,2140088,15944,-1736,-744,16055.48,24.67,-1.00,-1.0,2363
5091,2140091,20584,640,3332,20861.76,24.62,-1.00,-1.0,2362
5093,2140093,14564,-832,40,14587.80,24.62,-1.00,-1.0,2441
5096,2140096,17264,68,-1020,17294.24,24.53,-1.00,-1.0,2377
5099,2140099,19240,-512,1276,19289.06,24.62,-1.00,-1.0,2438
5102,2140102,14028,-1944,-504,14171.02,24.53,-1.00,-1.0,2363
5107,2140107,15860,-304,-64,15863.04,24.62,-1.00,-1.0,2442
5109,2140109,13488,-136,-876,13517.10,24.67,-1.00,-1.0,2368
5112,2140112,20228,992,3116,20490.62,24.53,-1.00,-1.0,2454
5115,2140115,13920,-2588,36,14158.58,24.58,-1.00,-1.0,2370
5118,2140118,18256,-400,1344,18309.78,24.62,-1.00,-1.0,2453
5120,2140120,20036,908,2396,20199.17,24.62,-1.00,-1.0,2365
5123,2140123,12584,-688,-724,12623.57,24.53,-1.00,-1.0,2452
5126,2140126,20256,312,2420,20402.43,24.58,-1.00,-1.0,2369
5129,2140129,15196,-1600,-72,15280.17,24.62,-1.00,-1.0,2361
5134,2140134,19440,1184,1712,19551.12,24.62,-1.00,-1.0,2445
5136,2140136,16524,-96,2076,16654.18,24.53,-1.00,-1.0,2373
5139,2140139,16984,-2748,-2628,17404.43,24.53,-1.00,-1.0,2446
5142,2140142,19180,140,2220,19308.56,24.53,-1.00,-1.0,2365
5145,2140145,14072,-536,-696,14099.39,24.53,-1.00,-1.0,2450
5147,2140147,16840,-324,-1652,16923.94,24.62,-1.00,-1.0,2371
5150,2140150,18896,-96,2484,19058.81,24.58,-1.00,-1.0,2446
5153,2140153,14152,-1740,-56,14258.68,24.53,-1.00,-1.0,2365
5158,2140158,17436,-1024,1204,17507.49,24.67,-1.00,-1.0,2444
5160,2140160,13768,-1680,-1516,13952.72,24.67,-1.00,-1.0,2373
5163,2140163,17968,2012,3276,18374.69,24.67,-1.00,-1.0,2442
5166,2140166,17512,-1720,1140,17633.15,24.48,-1.00,-1.0,2364
5169,2140169,14468,-1024,-952,14535.40,24.58,-1.00,-1.0,2433
5171,2140171,21912,2204,2764,22195.34,24.58,-1.00,-1.0,2371
5174,2140174,13344,48,-944,13377.44,24.67,-1.00,-1.0,2439
5177,2140177,18744,248,1092,18777.42,24.67,-1.00,-1.0,2349
5180,2140180,16324,-1580,2224,16550.39,24.67,-1.00,-1.0,2363
5184,2140184,19424,-1124,1056,19485.13,24.53,-1.00,-1.0,2440
5187,2140187,15836,-268,364,15842.45,24.67,-1.00,-1.0,2365
5190,2140190,16912,676,-296,16928.09,24.72,-1.00,-1.0,2441
5193,2140193,17408,884,2884,17667.41,24.67,-1.00,-1.0,2362
5195,2140195,16108,-2832,740,16371.79,24.72,-1.00,-1.0,2439
5198,2140198,18072,-1764,-116,18158.26,24.58,-1.00,-1.0,2362
5201,2140201,18392,408,240,18398.09,24.72,-1.00,-1.0,2439
5204,2140204,15132,1404,352,15201.07,24.67,-1.00,-1.0,2361
5209,2140209,17484,-1596,2324,17709.84,24.58,-1.00,-1.0,2443
5211,2140211,16140,-2760,-136,16374.85,24.58,-1.00,-1.0,2365
5214,2140214,16880,788,1072,16932.35,24.53,-1.00,-1.0,2442
5217,2140217,17720,1184,1332,17809.39,24.58,-1.00,-1.0,2365
5220,2140220,15556,-1632,-872,15665.66,24.67,-1.00,-1.0,2437
5222,2140222,18040,-1156,3036,18330.17,24.58,-1.00,-1.0,2350
5225,2140225,15876,-2068,1016,16042.33,24.67,-1.00,-1.0,2440
5228,2140228,16948,-104,-1176,16989.07,24.67,-1.00,-1.0,2365
5231,2140231,18136,772,428,18157.47,24.58,-1.00,-1.0,2367
5236,2140236,17480,-960,2488,17682.26,24.67,-1.00,-1.0,2441
5238,2140238,18428,-1664,644,18514.18,24.58,-1.00,-1.0,2365
5241,2140241,15304,-72,768,15323.43,24.72,-1.00,-1.0,2442
5244,2140244,18392,1496,2388,18606.62,24.58,-1.00,-1.0,2349
5247,2140247,15200,-632,720,15230.16,24.58,-1.00,-1.0,2436
5249,2140249,17252,-848,288,17275.23,24.48,-1.00,-1.0,2349
5252,2140252,17748,-580,844,17777.52,24.62,-1.00,-1.0,2440
5255,2140255,15632,-284,476,15641.82,24.67,-1.00,-1.0,2364
5260,2140260,18236,-132,3100,18498.08,24.67,-1.00,-1.0,2451
5263,2140263,15356,-2904,424,15633.93,24.48,-1.00,-1.0,2371
5265,2140265,16868,-1256,184,16915.70,24.58,-1.00,-1.0,2449
5268,2140268,18984,836,1160,19037.77,24.67,-1.00,-1.0,2378
5271,2140271,14660,-100,-916,14688.93,24.58,-1.00,-1.0,2360
5273,2140273,19132,1292,4300,19651.79,24.62,-1.00,-1.0,2439
5276,2140276,16748,-1872,916,16877.17,24.62,-1.00,-1.0,2363
5279,2140279,17120,-1204,-1128,17199.31,24.62,-1.00,-1.0,2425
5282,2140282,18952,1024,2800,19185.07,24.48,-1.00,-1.0,2371
5287,2140287,17076,-512,-1124,17120.61,24.58,-1.00,-1.0,2444
5289,2140289,19240,-980,1592,19330.61,24.62,-1.00,-1.0,2353
5292,2140292,13336,-1932,260,13477.73,24.67,-1.00,-1.0,2442
5295,2140295,19100,828,1416,19170.31,24.62,-1.00,-1.0,2362
5298,2140298,15820,-440,-16,15826.13,24.67,-1.00,-1.0,2441
5300,2140300,17416,-636,424,17432.77,24.62,-1.00,-1.0,2363
5303,2140303,18732,-832,768,18766.19,24.67,-1.00,-1.0,2442
5306,2140306,15980,-820,276,16003.41,24.53,-1.00,-1.0,2361
5311,2140311,16580,616,3460,16948.38,24.67,-1.00,-1.0,2436
5314,2140314,15628,-2136,1244,15822.28,24.67,-1.00,-1.0,2368
5317,2140317,16928,-888,-560,16960.52,24.58,-1.00,-1.0,2451
5319,2140319,19064,1256,1928,19202.37,24.77,-1.00,-1.0,2370
5322,2140322,13900,36,336,13904.11,24.72,-1.00,-1.0,2359
5325,2140325,18236,-624,-1148,18282.75,24.53,-1.00,-1.0,2435
5327,2140327,17576,-1396,1096,17665.38,24.62,-1.00,-1.0,2351
5330,2140330,14348,-2168,-324,14514.49,24.62,-1.00,-1.0,2440
5333,2140333,18680,1040,2612,18890.38,24.62,-1.00,-1.0,2363
5338,2140338,15496,540,348,15509.31,24.58,-1.00,-1.0,2448
5341,2140341,18716,0,3752,19088.38,24.67,-1.00,-1.0,2366
5343,2140343,13936,-2560,784,14190.85,24.62,-1.00,-1.0,2453
5346,2140346,18096,-1028,-292,18127.53,24.67,-1.00,-1.0,2370
5349,2140349,17636,804,2312,17805.06,24.72,-1.00,-1.0,2442
5352,2140352,14348,-188,1628,14441.29,24.67,-1.00,-1.0,2365
5354,2140354,18204,-896,580,18235.26,24.53,-1.00,-1.0,2449
5357,2140357,18236,-448,2112,18363.36,24.58,-1.00,-1.0,2370
5360,2140360,15304,-304,1148,15350.01,24.62,-1.00,-1.0,2360
5365,2140365,17576,716,964,17616.97,24.62,-1.00,-1.0,2444
5367,2140367,16440,-540,764,16466.60,24.53,-1.00,-1.0,2367
5370,2140370,18456,-1152,684,18504.56,24.58,-1.00,-1.0,2441
5373,2140373,16508,-1488,-788,16593.65,24.62,-1.00,-1.0,2363
5376,2140376,17712,520,-732,17734.74,24.62,-1.00,-1.0,2433
5378,2140378,18272,1020,2592,18483.10,24.72,-1.00,-1.0,2370
5381,2140381,13884,-1848,276,14009.17,24.67,-1.00,-1.0,2439
5384,2140384,19544,-1476,356,19602.89,24.72,-1.00,-1.0,2363
5389,2140389,13720,-400,796,13748.89,24.58,-1.00,-1.0,2442
5391,2140391,19452,976,-264,19478.26,24.58,-1.00,-1.0,2366
5394,2140394,17540,584,2152,17681.17,24.58,-1.00,-1.0,2442
5397,2140397,15652,-1992,540,15787.49,24.58,-1.00,-1.0,2362
5400,2140400,18176,-748,2428,18352.70,24.67,-1.00,-1.0,2439
5402,2140402,15468,-244,-372,15474.40,24.58,-1.00,-1.0,2363
5405,2140405,16728,1368,-300,16786.53,24.58,-1.00,-1.0,2360
5408,2140408,18324,996,3136,18617.07,24.58,-1.00,-1.0,2438
5411,2140411,14684,-2692,772,14948.67,24.58,-1.00,-1.0,2362
5416,2140416,18892,576,604,18910.43,24.62,-1.00,-1.0,2430
5419,2140419,14356,1172,524,14413.29,24.62,-1.00,-1.0,2372
5421,2140421,18636,-84,2788,18843.58,24.58,-1.00,-1.0,2450
5424,2140424,16684,-3052,644,16973.08,24.53,-1.00,-1.0,2377
5427,2140427,17228,-1424,1488,17350.67,24.58,-1.00,-1.0,2440
5430,2140430,18520,1296,1308,18611.31,24.62,-1.00,-1.0,2368
5432,2140432,13796,856,-436,13829.41,24.67,-1.00,-1.0,2441
5435,2140435,19252,-132,-588,19261.43,24.53,-1.00,-1.0,2376
5440,2140440,14464,-2448,1420,14738.26,24.53,-1.00,-1.0,2441
5443,2140443,19332,656,-960,19366.94,24.72,-1.00,-1.0,2368
5446,2140446,15764,904,-472,15796.95,24.62,-1.00,-1.0,2440
5448,2140448,17556,-708,-568,17579.45,24.53,-1.00,-1.0,2362
5451,2140451,18560,-472,3704,18931.88,24.62,-1.00,-1.0,2363
5454,2140454,15004,-2020,400,15144.65,24.67,-1.00,-1.0,2452
5456,2140456,18732,384,-636,18746.73,24.72,-1.00,-1.0,2374
5459,2140459,17804,1684,1560,17951.38,24.58,-1.00,-1.0,2447
5462,2140462,14756,-1104,8,14797.24,24.53,-1.00,-1.0,2421
5467,2140467,17408,-1728,1400,17549.49,24.62,-1.00,-1.0,2460
5470,2140470,15980,-80,592,15991.16,24.53,-1.00,-1.0,2373
5473,2140473,18280,1860,2140,18498.58,24.67,-1.00,-1.0,2447
5475,2140475,14784,-1496,-552,14869.75,24.72,-1.00,-1.0,2368
5478,2140478,17556,-1016,1308,17633.95,24.58,-1.00,-1.0,2445
5481,2140481,18212,-1196,1084,18283.39,24.62,-1.00,-1.0,2373
5484,2140484,14832,-268,-500,14842.84,24.58,-1.00,-1.0,2445
5486,2140486,19220,1832,1800,19390.84,24.62,-1.00,-1.0,2369
5491,2140491,17432,-1532,256,17501.06,24.53,-1.00,-1.0,2441
5494,2140494,19144,-880,2432,19317.91,24.53,-1.00,-1.0,2367
5497,2140497,14320,-972,800,14375.23,24.72,-1.00,-1.0,2366
5499,2140499,18060,596,188,18070.81,24.58,-1.00,-1.0,2444
5502,2140502,18368,1208,1536,18471.65,24.58,-1.00,-1.0,2372
5505,2140505,15224,-1752,952,15354.02,24.67,-1.00,-1.0,2437
5508,2140508,18264,-1316,2440,18473.20,24.67,-1.00,-1.0,2369
5510,2140510,15648,-200,528,15658.18,24.58,-1.00,-1.0,2445
5513,2140513,15912,360,-1616,15997.90,24.67,-1.00,-1.0,2373
5518,2140518,15364,-1528,1340,15497.83,24.62,-1.00,-1.0,2440
5521,2140521,17428,-1940,1000,17564.13,24.62,-1.00,-1.0,2375
5524,2140524,17052,-344,640,17067.47,24.58,-1.00,-1.0,2436
5526,2140526,16420,-320,-1980,16542.04,24.62,-1.00,-1.0,2365
5529,2140529,18428,752,1748,18525.99,24.58,-1.00,-1.0,2435
5532,2140532,15708,-1080,1784,15845.83,24.62,-1.00,-1.0,2371
5535,2140535,16908,-1572,-416,16986.02,24.67,-1.00,-1.0,2436
5537,2140537,17288,324,548,17299.72,24.62,-1.00,-1.0,2366
5540,2140540,15356,108,176,15357.39,24.67,-1.00,-1.0,2369
5545,2140545,17112,-1696,968,17223.07,24.62,-1.00,-1.0,2440
5548,2140548,16968,-1156,12,17007.34,24.62,-1.00,-1.0,2375
5551,2140551,17228,972,1148,17293.54,24.67,-1.00,-1.0,2437
5553,2140553,16640,-384,-464,16650.90,24.62,-1.00,-1.0,2365
5556,2140556,18256,-964,800,18298.93,24.77,-1.00,-1.0,2436
5559,2140559,16168,-1188,1980,16332.05,24.62,-1.00,-1.0,2366
5561,2140561,18040,-652,288,18054.08,24.67,-1.00,-1.0,2436
5564,2140564,15800,624,356,15816.32,24.62,-1.00,-1.0,2364
5569,2140569,18048,-504,416,18059.83,24.58,-1.00,-1.0,2441
5572,2140572,16660,-2048,856,16807.22,24.62,-1.00,-1.0,2376
5575,2140575,16888,-168,808,16908.15,24.67,-1.00,-1.0,2436
5577,2140577,17548,952,1504,17638.04,24.72,-1.00,-1.0,2366
5580,2140580,15296,-524,-192,15306.18,24.58,-1.00,-1.0,2436
5583,2140583,18584,-1284,1468,18686.06,24.62,-1.00,-1.0,2365
5585,2140585,16260,-848,1884,16390.73,24.58,-1.00,-1.0,2364
5588,2140588,17328,552,948,17362.69,24.53,-1.00,-1.0,2435
5591,2140591,18028,288,-492,18037.01,24.67,-1.00,-1.0,2373
5596,2140596,16692,-1048,660,16737.88,24.72,-1.00,-1.0,2440
5599,2140599,18404,-1116,1244,18479.72,24.62,-1.00,-1.0,2367
5601,2140601,15420,128,364,15424.83,24.62,-1.00,-1.0,2437
5604,2140604,19024,496,976,19055.48,24.62,-1.00,-1.0,2366
5607,2140607,15496,-592,-284,15509.90,24.53,-1.00,-1.0,2435
5610,2140610,18220,-728,964,18260.00,24.53,-1.00,-1.0,2366
5612,2140612,17052,-520,1604,17135.17,24.53,-1.00,-1.0,2436
5615,2140615,16156,-284,936,16185.58,24.53,-1.00,-1.0,2367
5620,2140620,14232,-1348,76,14295.90,24.62,-1.00,-1.0,2455
5623,2140623,16844,-668,632,16869.08,24.53,-1.00,-1.0,2374
5625,2140625,18304,416,2260,18447.69,24.62,-1.00,-1.0,2347
5628,2140628,14580,-156,1776,14688.60,24.62,-1.00,-1.0,2437
5631,2140631,19700,-1260,-1320,19784.34,24.72,-1.00,-1.0,2368
5634,2140634,16064,-616,416,16081.19,24.53,-1.00,-1.0,2428
5636,2140636,18136,-812,-508,18161.28,24.53,-1.00,-1.0,2371
5639,2140639,17680,572,1644,17765.48,24.67,-1.00,-1.0,2436
5642,2140642,16128,-300,808,16151.01,24.53,-1.00,-1.0,2364
5647,2140647,15736,-944,200,15765.56,24.62,-1.00,-1.0,2449
5650,2140650,15912,352,760,15934.03,24.62,-1.00,-1.0,2370
5653,2140653,17944,540,1156,17989.30,24.62,-1.00,-1.0,2448
5655,2140655,15104,-1076,1308,15198.67,24.62,-1.00,-1.0,2374
5658,2140658,18868,-564,1816,18963.58,24.53,-1.00,-1.0,2435
5661,2140661,17992,-292,808,18012.50,24.62,-1.00,-1.0,2367
5664,2140664,15576,-200,-992,15608.84,24.62,-1.00,-1.0,2450
5666,2140666,20040,224,2128,20153.91,24.62,-1.00,-1.0,2374
5669,2140669,13648,-1532,1952,13871.74,24.58,-1.00,-1.0,2360
5674,2140674,16912,-308,8,16914.81,24.58,-1.00,-1.0,2447
5677,2140677,13952,36,836,13977.07,24.62,-1.00,-1.0,2368
5680,2140680,19884,68,2568,20049.26,24.58,-1.00,-1.0,2435
5682,2140682,13804,-588,1676,13917.80,24.62,-1.00,-1.0,2373
5685,2140685,19068,8,1592,19134.35,24.58,-1.00,-1.0,2437
5688,2140688,18192,-132,20,18192.49,24.72,-1.00,-1.0,2367
5691,2140691,15896,-668,-488,15917.51,24.58,-1.00,-1.0,2447
5693,2140693,19916,28,1740,19991.88,24.53,-1.00,-1.0,2375
5698,2140698,17872,80,236,17873.74,24.53,-1.00,-1.0,2447
5701,2140701,16784,-500,100,16791.74,24.62,-1.00,-1.0,2374
5704,2140704,14416,-844,736,14459.43,24.67,-1.00,-1.0,2361
5706,2140706,20280,-44,3064,20510.20,24.58,-1.00,-1.0,2437
5709,2140709,13328,-416,396,13340.37,24.62,-1.00,-1.0,2353
5712,2140712,18716,92,-524,18723.56,24.48,-1.00,-1.0,2435
5715,2140715,17196,-164,436,17202.31,24.62,-1.00,-1.0,2370
5717,2140717,16684,-900,2036,16831.85,24.67,-1.00,-1.0,2439
5720,2140720,17520,-140,2096,17645.49,24.58,-1.00,-1.0,2366
5725,2140725,18996,-308,-364,19001.98,24.58,-1.00,-1.0,2443
5728,2140728,16124,-384,116,16128.99,24.58,-1.00,-1.0,2370
5731,2140731,16580,-572,1592,16666.07,24.58,-1.00,-1.0,2436
5734,2140734,17172,-824,1340,17243.90,24.58,-1.00,-1.0,2369
5736,2140736,15388,-860,148,15412.72,24.58,-1.00,-1.0,2438
5739,2140739,18412,184,700,18426.22,24.58,-1.00,-1.0,2368
5742,2140742,17312,-212,340,17316.64,24.48,-1.00,-1.0,2360
5744,2140744,16232,-332,1424,16297.72,24.62,-1.00,-1.0,2436
5747,2140747,18304,-360,2508,18478.53,24.58,-1.00,-1.0,2366
5752,2140752,19112,-624,-1224,19161.32,24.58,-1.00,-1.0,2441
5755,2140755,17776,328,1656,17855.98,24.58,-1.00,-1.0,2354
5758,2140758,15580,-624,924,15619.84,24.53,-1.00,-1.0,2442
5760,2140760,17464,-764,1348,17532.60,24.67,-1.00,-1.0,2369
5763,2140763,15392,-776,840,15434.42,24.58,-1.00,-1.0,2437
5766,2140766,17956,-472,-976,17988.70,24.58,-1.00,-1.0,2366
5769,2140769,18160,-220,992,18188.40,24.72,-1.00,-1.0,2433
5771,2140771,16444,-464,372,16454.75,24.67,-1.00,-1.0,2368
5778,2140778,16428,-404,760,16450.53,24.67,-1.00,-1.0,2440
5781,2140781,18460,-1092,1352,18541.63,24.67,-1.00,-1.0,2368
5784,2140784,14728,-1460,1608,14887.29,24.62,-1.00,-1.0,2433
5786,2140786,18316,-544,48,18324.14,24.67,-1.00,-1.0,2355
5789,2140789,15928,-344,-436,15937.68,24.62,-1.00,-1.0,2361
5792,2140792,15872,296,1400,15936.37,24.62,-1.00,-1.0,2441
5794,2140794,18376,44,2288,18517.94,24.62,-1.00,-1.0,2365
5797,2140797,14484,-1012,1328,14579.92,24.62,-1.00,-1.0,2436
5800,2140800,18008,-752,60,18023.79,24.67,-1.00,-1.0,2353
5805,2140805,14836,-560,1168,14892.44,24.62,-1.00,-1.0,2448
5807,2140807,17440,-404,884,17467.06,24.62,-1.00,-1.0,2369
5810,2140810,15692,-652,564,15715.66,24.67,-1.00,-1.0,2436
5813,2140813,17728,-1416,-676,17797.30,24.62,-1.00,-1.0,2367
5816,2140816,19264,-304,1916,19361.44,24.58,-1.00,-1.0,2437
5818,2140818,15140,36,1356,15200.65,24.62,-1.00,-1.0,2366
5821,2140821,18584,788,1856,18693.07,24.62,-1.00,-1.0,2436
5824,2140824,14132,-1288,1244,14245.00,24.62,-1.00,-1.0,2367
5829,2140829,19496,-560,1160,19538.51,24.72,-1.00,-1.0,2442
5832,2140832,12868,-436,312,12879.16,24.58,-1.00,-1.0,2368
5834,2140834,19836,652,1200,19882.96,24.62,-1.00,-1.0,2359
5837,2140837,14276,-1640,176,14370.97,24.62,-1.00,-1.0,2435
5840,2140840,14952,-1548,-260,15034.17,24.62,-1.00,-1.0,2367
5842,2140842,21196,192,2568,21351.86,24.72,-1.00,-1.0,2434
5845,2140845,12620,-580,556,12645.55,24.62,-1.00,-1.0,2366
5848,2140848,20448,612,2204,20575.54,24.62,-1.00,-1.0,2434
5851,2140851,16964,-808,-180,16984.19,24.62,-1.00,-1.0,2366
5856,2140856,20472,364,2836,20670.71,24.62,-1.00,-1.0,2445
5858,2140858,13028,-840,840,13082.05,24.77,-1.00,-1.0,2376
5861,2140861,19488,356,1848,19578.66,24.53,-1.00,-1.0,2440
5864,2140864,19168,-496,464,19180.03,24.58,-1.00,-1.0,2361
5867,2140867,14192,-960,-792,14246.46,24.62,-1.00,-1.0,2448
5869,2140869,21284,848,2460,21442.47,24.67,-1.00,-1.0,2376
5872,2140872,12372,-1188,-404,12435.47,24.62,-1.00,-1.0,2359
5875,2140875,18168,-384,1384,18224.69,24.53,-1.00,-1.0,2432
5877,2140877,16528,-1344,116,16582.96,24.62,-1.00,-1.0,2370
5882,2140882,21160,368,1684,21230.09,24.53,-1.00,-1.0,2447
5885,2140885,11908,-1032,336,11957.36,24.67,-1.00,-1.0,2376
5888,2140888,20376,-444,1096,20410.29,24.62,-1.00,-1.0,2435
5891,2140891,18604,44,2000,18711.25,24.58,-1.00,-1.0,2372
5893,2140893,14748,-848,280,14775.01,24.62,-1.00,-1.0,2443
5896,2140896,20800,-88,2056,20901.55,24.67,-1.00,-1.0,2374
5899,2140899,12396,-108,760,12419.75,24.62,-1.00,-1.0,2437
5902,2140902,18648,28,-544,18655.96,24.58,-1.00,-1.0,2367
5906,2140906,13160,-1384,768,13254.84,24.58,-1.00,-1.0,2440
5909,2140909,21212,-328,1740,21285.77,24.58,-1.00,-1.0,2369
5912,2140912,12608,-296,396,12617.69,24.58,-1.00,-1.0,2435
5915,2140915,16888,-152,-1500,16955.17,24.67,-1.00,-1.0,2366
5917,2140917,19628,-160,1452,19682.28,24.67,-1.00,-1.0,2365
5920,2140920,14332,-1648,548,14436.84,24.58,-1.00,-1.0,2450
5923,2140923,19672,-528,1524,19738.01,24.58,-1.00,-1.0,2361
5926,2140926,15164,-632,-380,15181.92,24.72,-1.00,-1.0,2434
5928,2140928,17884,-544,-1244,17935.46,24.58,-1.00,-1.0,2367
5933,2140933,12984,-1460,1484,13149.83,24.67,-1.00,-1.0,2441
5936,2140936,20420,364,3036,20647.67,24.58,-1.00,-1.0,2369
5939,2140939,18120,-460,-856,18146.04,24.58,-1.00,-1.0,2441
5941,2140941,15292,332,-1764,15396.99,24.67,-1.00,-1.0,2366
5944,2140944,21432,56,1436,21480.13,24.67,-1.00,-1.0,2435
5947,2140947,12288,-1908,1388,12512.47,24.67,-1.00,-1.0,2370
5950,2140950,19396,-1232,1172,19470.39,24.67,-1.00,-1.0,2432
5952,2140952,15920,-68,252,15922.14,24.67,-1.00,-1.0,2369
5957,2140957,21648,636,2764,21833.00,24.53,-1.00,-1.0,2449
5960,2140960,11832,-1480,2256,12135.74,24.62,-1.00,-1.0,2385
5963,2140963,17716,-1820,-2016,17922.98,24.58,-1.00,-1.0,2361
5965,2140965,19500,344,-128,19503.45,24.58,-1.00,-1.0,2434
5968,2140968,14296,28,-452,14303.17,24.67,-1.00,-1.0,2367
5971,2140971,21056,8,1904,21141.91,24.67,-1.00,-1.0,2421
5974,2140974,14656,-1700,1064,14792.58,24.72,-1.00,-1.0,2367
5976,2140976,18636,-1492,-404,18699.99,24.67,-1.00,-1.0,2436
5979,2140979,17292,468,572,17307.79,24.72,-1.00,-1.0,2370
5984,2140984,20608,792,3472,20913.43,24.67,-1.00,-1.0,2440
5987,2140987,16544,-2388,-52,16715.54,24.58,-1.00,-1.0,2367
5989,2140989,16684,-1196,-252,16728.71,24.67,-1.00,-1.0,2435
5992,2140992,20032,612,828,20058.44,24.67,-1.00,-1.0,2367
5995,2140995,13280,336,128,13284.87,24.58,-1.00,-1.0,2434
5998,2140998,19372,-40,1368,19420.28,24.67,-1.00,-1.0,2365
6000,2141000,15384,-2280,388,15556.88,24.67,-1.00,-1.0,2359
6003,2141003,17484,-1120,-404,17524.49,24.67,-1.00,-1.0,2435
6006,2141006,20820,640,2436,20971.79,24.67,-1.00,-1.0,2365
6010,2141010,17884,68,-604,17894.33,24.72,-1.00,-1.0,2440
6013,2141013,18244,-1564,244,18312.54,24.58,-1.00,-1.0,2369
6016,2141016,14892,-1516,552,14979.14,24.58,-1.00,-1.0,2435
6019,2141019,20900,-212,1712,20971.07,24.67,-1.00,-1.0,2366
6021,2141021,12976,-48,-120,12976.64,24.62,-1.00,-1.0,2434
6024,2141024,19928,304,-244,19931.81,24.58,-1.00,-1.0,2366
6027,2141027,16096,-1340,688,16166.33,24.67,-1.00,-1.0,2435
6030,2141030,13376,-1772,424,13499.52,24.67,-1.00,-1.0,2366
