timestamp_ms,global_ms,accel_x,accel_y,accel_z,accel_mag,temp_c,voltage,soc,loop_us
3,2135003,16864,-2512,760,17066.99,24.39,-1.00,-1.0,2485
9,2135009,16220,1748,460,16320.40,24.34,-1.00,-1.0,2462
12,2135012,18144,-640,1352,18205.55,24.34,-1.00,-1.0,2365
15,2135015,15632,-1116,2848,15928.46,24.34,-1.00,-1.0,2441
17,2135017,17828,-444,2064,17952.57,24.44,-1.00,-1.0,2358
20,2135020,16156,-12,-1992,16278.35,24.29,-1.00,-1.0,2368
23,2135023,18060,936,1260,18128.08,24.39,-1.00,-1.0,2439
26,2135026,14932,-640,-88,14945.97,24.34,-1.00,-1.0,2368
28,2135028,19768,-2100,612,19888.65,24.39,-1.00,-1.0,2447
31,2135031,14896,-1964,896,15051.61,24.44,-1.00,-1.0,2366
36,2135036,18048,-448,-1448,18111.54,24.48,-1.00,-1.0,2443
39,2135039,17332,68,940,17357.61,24.39,-1.00,-1.0,2373
41,2135041,15952,-596,956,15991.73,24.39,-1.00,-1.0,2440
44,2135044,16152,-176,1588,16230.83,24.29,-1.00,-1.0,2374
47,2135047,18232,-1692,-1256,18353.37,24.48,-1.00,-1.0,2361
49,2135049,16960,172,3080,17238.26,24.39,-1.00,-1.0,2433
52,2135052,18020,-1232,-992,18089.29,24.48,-1.00,-1.0,2368
55,2135055,16144,1212,1992,16311.52,24.39,-1.00,-1.0,2438
58,2135058,17088,-1600,-1596,17236.79,24.29,-1.00,-1.0,2368
63,2135063,19620,-1480,-272,19677.62,24.48,-1.00,-1.0,2445
65,2135065,15444,-76,644,15457.61,24.48,-1.00,-1.0,2367
68,2135068,18344,-208,1904,18443.72,24.48,-1.00,-1.0,2447
71,2135071,14496,-336,-684,14516.02,24.44,-1.00,-1.0,2370
74,2135074,20020,-1712,-876,20112.15,24.29,-1.00,-1.0,2447
76,2135076,15008,-404,1800,15120.96,24.34,-1.00,-1.0,2364
79,2135079,18964,-456,2396,19120.20,24.39,-1.00,-1.0,2367
82,2135082,14536,-248,-1308,14596.84,24.39,-1.00,-1.0,2441
84,2135084,19996,-504,-188,20003.23,24.39,-1.00,-1.0,2376
89,2135089,17464,-728,2820,17705.19,24.39,-1.00,-1.0,2442
92,2135092,19032,-1756,-1588,19178.69,24.34,-1.00,-1.0,2362
95,2135095,15788,1860,2860,16152.40,24.39,-1.00,-1.0,2445
97,2135097,17252,-140,-780,17270.19,24.34,-1.00,-1.0,2360
100,2135100,16764,-772,3540,17151.07,24.39,-1.00,-1.0,2441
103,2135103,18600,-3680,-848,18979.50,24.44,-1.00,-1.0,2359
106,2135106,17060,-40,2408,17229.15,24.39,-1.00,-1.0,2442
108,2135108,16436,1072,-1812,16570.29,24.44,-1.00,-1.0,2361
113,2135113,17300,-3556,-1444,17720.62,24.34,-1.00,-1.0,2442
116,2135116,16856,-2008,3004,17238.93,24.34,-1.00,-1.0,2363
119,2135119,19720,-1420,1200,19807.44,24.44,-1.00,-1.0,2361
121,2135121,13616,2644,516,13879.93,24.39,-1.00,-1.0,2433
124,2135124,19056,-808,-2604,19250.06,24.34,-1.00,-1.0,2365
127,2135127,14504,-648,1900,14642.26,24.34,-1.00,-1.0,2435
130,2135130,19228,-3328,2748,19706.42,24.44,-1.00,-1.0,2365
132,2135132,15188,-580,560,15209.38,24.44,-1.00,-1.0,2434
135,2135135,17692,1068,-1592,17795.56,24.44,-1.00,-1.0,2366
140,2135140,18888,-2408,-68,19041.00,24.34,-1.00,-1.0,2451
143,2135143,16152,-3976,1592,16710.18,24.39,-1.00,-1.0,2356
146,2135146,18688,-1728,2688,18959.24,24.34,-1.00,-1.0,2447
148,2135148,15348,2284,-912,15543.79,24.39,-1.00,-1.0,2371
151,2135151,18644,2140,-548,18774.41,24.44,-1.00,-1.0,2448
154,2135154,16240,-984,640,16282.37,24.39,-1.00,-1.0,2366
156,2135156,17556,-2932,3812,18202.78,24.44,-1.00,-1.0,2363
159,2135159,16772,-1840,-328,16875.82,24.34,-1.00,-1.0,2432
162,2135162,16428,2808,2312,16825.86,24.34,-1.00,-1.0,2353
167,2135167,16584,1044,3072,16898.41,24.44,-1.00,-1.0,2445
170,2135170,16636,-4756,468,17308.81,24.34,-1.00,-1.0,2367
172,2135172,17000,-852,3464,17370.24,24.34,-1.00,-1.0,2438
175,2135175,16048,676,-1756,16157.93,24.44,-1.00,-1.0,2369
178,2135178,16336,2972,800,16623.41,24.44,-1.00,-1.0,2438
181,2135181,17136,-1088,-740,17186.44,24.44,-1.00,-1.0,2368
183,2135183,16924,-1648,3832,17430.49,24.34,-1.00,-1.0,2445
186,2135186,17480,-2592,-384,17675.30,24.44,-1.00,-1.0,2376
191,2135191,18664,1340,-1088,18743.64,24.44,-1.00,-1.0,2442
194,2135194,14720,1848,1092,14875.68,24.29,-1.00,-1.0,2366
197,2135197,18628,-3488,-340,18954.79,24.44,-1.00,-1.0,2438
199,2135199,15044,-2044,3004,15476.56,24.39,-1.00,-1.0,2362
202,2135202,19988,-700,632,20010.24,24.44,-1.00,-1.0,2369
205,2135205,14800,2636,468,15040.20,24.34,-1.00,-1.0,2443
207,2135207,18788,-68,24,18788.14,24.39,-1.00,-1.0,2373
210,2135210,14676,-1112,3016,15023.91,24.44,-1.00,-1.0,2442
213,2135213,19936,-2140,1716,20123.83,24.39,-1.00,-1.0,2366
218,2135218,17668,1800,1836,17854.11,24.44,-1.00,-1.0,2450
220,2135220,15992,36,-1400,16053.20,24.29,-1.00,-1.0,2365
223,2135223,19184,-1344,1356,19278.77,24.34,-1.00,-1.0,2450
226,2135226,16344,-2936,284,16608.04,24.39,-1.00,-1.0,2361
229,2135229,17180,644,3336,17512.74,24.34,-1.00,-1.0,2444
231,2135231,16328,-176,-1492,16396.97,24.39,-1.00,-1.0,2348
234,2135234,18080,1060,936,18135.22,24.25,-1.00,-1.0,2370
237,2135237,15988,-1076,36,16024.21,24.34,-1.00,-1.0,2444
240,2135240,17136,-460,4712,17777.99,24.39,-1.00,-1.0,2361
245,2135245,16168,1008,2164,16343.29,24.34,-1.00,-1.0,2450
247,2135247,17560,424,-2304,17715.58,24.34,-1.00,-1.0,2364
250,2135250,17452,1076,3512,17834.36,24.34,-1.00,-1.0,2447
253,2135253,15584,-1932,1600,15784.60,24.34,-1.00,-1.0,2361
256,2135256,16736,-792,2676,16967.08,24.34,-1.00,-1.0,2444
258,2135258,17480,-408,-2204,17623.12,24.44,-1.00,-1.0,2361
261,2135261,18096,2512,3256,18557.39,24.44,-1.00,-1.0,2445
264,2135264,15180,-1016,1556,15293.33,24.44,-1.00,-1.0,2361
269,2135269,19360,-2392,-2256,19637.23,24.39,-1.00,-1.0,2443
272,2135272,14048,1212,2064,14250.45,24.39,-1.00,-1.0,2367
275,2135275,18628,272,-1920,18728.66,24.39,-1.00,-1.0,2437
277,2135277,16272,760,3568,16675.92,24.39,-1.00,-1.0,2350
280,2135280,18748,-3620,-300,19096.65,24.39,-1.00,-1.0,2360
283,2135283,15856,-1800,2700,16184.65,24.44,-1.00,-1.0,2445
285,2135285,17600,856,-1240,17664.38,24.39,-1.00,-1.0,2361
288,2135288,15644,3160,2172,16107.08,24.39,-1.00,-1.0,2438
291,2135291,16932,-2860,-444,17177.58,24.34,-1.00,-1.0,2369
296,2135296,19496,-2628,-1280,19713.92,24.34,-1.00,-1.0,2443
299,2135299,16104,1172,1052,16180.83,24.34,-1.00,-1.0,2376
301,2135301,17708,872,-1564,17798.31,24.44,-1.00,-1.0,2431
304,2135304,15356,448,3040,15660.43,24.29,-1.00,-1.0,2366
307,2135307,18080,-4760,-996,18722.61,24.44,-1.00,-1.0,2432
310,2135310,15676,-1860,2112,15926.62,24.39,-1.00,-1.0,2366
312,2135312,19096,-416,-1508,19159.97,24.44,-1.00,-1.0,2431
315,2135315,16024,1960,1156,16184.76,24.39,-1.00,-1.0,2366
318,2135318,17576,-1400,-1564,17700.90,24.29,-1.00,-1.0,2370
323,2135323,19400,-2492,-304,19561.76,24.53,-1.00,-1.0,2442
326,2135326,15548,-1220,312,15598.91,24.44,-1.00,-1.0,2376
329,2135329,18696,248,496,18704.22,24.39,-1.00,-1.0,2431
331,2135331,14488,1120,1316,14590.70,24.34,-1.00,-1.0,2366
334,2135334,18892,-1924,-1008,19016.45,24.44,-1.00,-1.0,2431
337,2135337,15620,-1528,-80,15694.76,24.34,-1.00,-1.0,2367
339,2135339,19220,-940,1220,19281.61,24.34,-1.00,-1.0,2434
342,2135342,15208,852,1060,15268.69,24.39,-1.00,-1.0,2366
347,2135347,15532,-1376,-1424,15657.72,24.48,-1.00,-1.0,2443
350,2135350,16808,776,4396,17390.68,24.39,-1.00,-1.0,2366
353,2135353,16072,-1992,336,16198.46,24.34,-1.00,-1.0,2431
355,2135355,17212,280,2784,17437.95,24.39,-1.00,-1.0,2374
358,2135358,16204,-300,-1980,16327.28,24.34,-1.00,-1.0,2355
361,2135361,15920,2200,4420,16668.02,24.44,-1.00,-1.0,2445
363,2135363,16708,-1432,944,16795.80,24.34,-1.00,-1.0,2364
366,2135366,16468,-276,2908,16725.06,24.44,-1.00,-1.0,2438
369,2135369,17048,-1252,-1884,17197.42,24.39,-1.00,-1.0,2363
374,2135374,17276,-768,-540,17301.49,24.39,-1.00,-1.0,2458
377,2135377,16544,-392,2228,16697.95,24.39,-1.00,-1.0,2372
380,2135380,17376,-4028,-1864,17933.90,24.39,-1.00,-1.0,2445
382,2135382,17156,1136,2584,17386.66,24.39,-1.00,-1.0,2366
385,2135385,16104,1172,-2808,16388.94,24.29,-1.00,-1.0,2448
388,2135388,15636,2936,3328,16253.62,24.39,-1.00,-1.0,2368
391,2135391,17696,-4624,-404,18294.62,24.39,-1.00,-1.0,2446
393,2135393,16484,-2248,3144,16931.05,24.39,-1.00,-1.0,2362
398,2135398,13768,4356,1340,14502.70,24.48,-1.00,-1.0,2444
401,2135401,18196,-96,-1608,18267.16,24.44,-1.00,-1.0,2364
403,2135403,15672,-1900,2712,16018.01,24.39,-1.00,-1.0,2361
406,2135406,18188,-5328,1124,18985.63,24.48,-1.00,-1.0,2436
409,2135409,16360,812,2260,16535.31,24.48,-1.00,-1.0,2367
412,2135412,17468,2776,-676,17700.12,24.39,-1.00,-1.0,2443
414,2135414,15136,2540,308,15350.73,24.39,-1.00,-1.0,2361
417,2135417,17692,-4256,-656,18208.54,24.48,-1.00,-1.0,2441
420,2135420,16708,-3180,3288,17322.83,24.34,-1.00,-1.0,2361
425,2135425,15500,2680,580,15740.67,24.29,-1.00,-1.0,2442
428,2135428,18072,2584,-456,18261.49,24.34,-1.00,-1.0,2367
430,2135430,15528,-296,860,15554.61,24.39,-1.00,-1.0,2431
433,2135433,18784,-3628,824,19148.89,24.44,-1.00,-1.0,2367
436,2135436,15996,-1056,2760,16266.68,24.39,-1.00,-1.0,2431
439,2135439,17960,764,496,17983.08,24.34,-1.00,-1.0,2365
441,2135441,15128,1664,-1400,15283.50,24.29,-1.00,-1.0,2356
444,2135444,18728,-1300,-560,18781.42,24.48,-1.00,-1.0,2438
447,2135447,15772,-2340,3408,16304.79,24.39,-1.00,-1.0,2361
452,2135452,16772,1496,1004,16868.49,24.39,-1.00,-1.0,2442
455,2135455,16584,1996,504,16711.29,24.29,-1.00,-1.0,2375
458,2135458,15888,12,-456,15894.55,24.29,-1.00,-1.0,2432
460,2135460,18348,-2832,992,18591.76,24.39,-1.00,-1.0,2367
463,2135463,16816,-1984,2972,17191.48,24.39,-1.00,-1.0,2431
466,2135466,17476,-260,1512,17543.21,24.39,-1.00,-1.0,2365
468,2135468,15136,1808,-1740,15342.59,24.39,-1.00,-1.0,2432
471,2135471,18500,-72,-848,18519.56,24.39,-1.00,-1.0,2367
476,2135476,19320,-2720,2432,19661.52,24.39,-1.00,-1.0,2442
479,2135479,15348,112,1196,15394.94,24.34,-1.00,-1.0,2352
481,2135481,16548,2572,764,16764.10,24.29,-1.00,-1.0,2361
484,2135484,16628,1008,-2536,16850.45,24.39,-1.00,-1.0,2433
487,2135487,18668,-2512,932,18859.29,24.39,-1.00,-1.0,2367
490,2135490,16780,-4276,2208,17456.46,24.39,-1.00,-1.0,2444
492,2135492,16504,-988,2632,16741.73,24.39,-1.00,-1.0,2361
495,2135495,16668,1996,-2884,17033.02,24.34,-1.00,-1.0,2455
498,2135498,18256,1588,-1056,18355.34,24.29,-1.00,-1.0,2363
503,2135503,17344,-3844,3452,18097.15,24.29,-1.00,-1.0,2444
506,2135506,16312,-1236,-840,16380.31,24.39,-1.00,-1.0,2364
509,2135509,16932,3756,1988,17457.16,24.29,-1.00,-1.0,2446
511,2135511,16780,1860,-1284,16931.53,24.48,-1.00,-1.0,2362
514,2135514,18072,-2676,3200,18547.19,24.39,-1.00,-1.0,2438
517,2135517,15816,-3428,2656,16399.74,24.39,-1.00,-1.0,2361
519,2135519,17948,156,1892,18048.12,24.29,-1.00,-1.0,2347
522,2135522,15708,3296,-2864,16303.60,24.34,-1.00,-1.0,2443
525,2135525,19096,340,-804,19115.94,24.44,-1.00,-1.0,2370
530,2135530,17952,-3644,4060,18762.64,24.34,-1.00,-1.0,2443
533,2135533,15904,136,-1512,15976.29,24.48,-1.00,-1.0,2364
536,2135536,18136,3192,-1140,18450.01,24.44,-1.00,-1.0,2448
538,2135538,17148,580,-960,17184.64,24.39,-1.00,-1.0,2361
541,2135541,16836,-3364,2908,17413.32,24.34,-1.00,-1.0,2439
544,2135544,17384,-2832,1140,17650.02,24.39,-1.00,-1.0,2361
547,2135547,16884,1548,-192,16955.90,24.34,-1.00,-1.0,2445
549,2135549,15796,2108,-2736,16169.20,24.48,-1.00,-1.0,2362
554,2135554,16440,-3652,652,16853.36,24.39,-1.00,-1.0,2443
557,2135557,17840,-3112,2928,18344.57,24.39,-1.00,-1.0,2350
560,2135560,16660,640,-1248,16718.93,24.48,-1.00,-1.0,2438
563,2135563,15860,3844,1744,16412.11,24.39,-1.00,-1.0,2371
565,2135565,16724,756,-276,16743.35,24.39,-1.00,-1.0,2362
568,2135568,17156,-1864,3396,17587.94,24.39,-1.00,-1.0,2431
571,2135571,17520,-4380,-276,18061.31,24.39,-1.00,-1.0,2366
573,2135573,17292,-24,2444,17463.88,24.29,-1.00,-1.0,2431
576,2135576,16296,1812,-1756,16490.19,24.39,-1.00,-1.0,2376
581,2135581,17196,-2012,-52,17313.38,24.39,-1.00,-1.0,2451
584,2135584,16984,-2340,3472,17492.47,24.44,-1.00,-1.0,2371
587,2135587,16412,-272,788,16433.16,24.39,-1.00,-1.0,2440
589,2135589,17296,1980,1416,17466.46,24.34,-1.00,-1.0,2361
592,2135592,15844,976,-568,15884.19,24.39,-1.00,-1.0,2450
595,2135595,17932,-304,2712,18138.47,24.34,-1.00,-1.0,2362
598,2135598,16392,-2076,2232,16673.01,24.48,-1.00,-1.0,2443
600,2135600,16988,-1256,2144,17168.76,24.44,-1.00,-1.0,2361
603,2135603,16272,412,-2220,16427.91,24.39,-1.00,-1.0,2367
608,2135608,16984,-980,-324,17015.34,24.39,-1.00,-1.0,2453
611,2135611,17356,-1976,3276,17772.66,24.39,-1.00,-1.0,2371
614,2135614,16560,-964,1084,16623.42,24.39,-1.00,-1.0,2440
616,2135616,16228,1152,1192,16312.45,24.44,-1.00,-1.0,2361
619,2135619,17244,804,-2092,17389.03,24.39,-1.00,-1.0,2450
622,2135622,17848,-764,1316,17912.75,24.25,-1.00,-1.0,2362
625,2135625,16948,-2408,2872,17357.46,24.29,-1.00,-1.0,2445
627,2135627,16808,-2028,2476,17110.00,24.34,-1.00,-1.0,2362
632,2135632,16600,3764,2468,17199.38,24.39,-1.00,-1.0,2453
635,2135635,16532,-648,800,16564.03,24.39,-1.00,-1.0,2371
638,2135638,17520,-2732,2904,17967.96,24.39,-1.00,-1.0,2440
640,2135640,17864,-2420,-20,18027.18,24.39,-1.00,-1.0,2361
643,2135643,16200,2676,2232,16570.54,24.39,-1.00,-1.0,2366
646,2135646,17480,1672,-1172,17598.85,24.39,-1.00,-1.0,2441
649,2135649,16428,-376,2244,16584.81,24.29,-1.00,-1.0,2373
651,2135651,17016,-4492,768,17615.68,24.44,-1.00,-1.0,2437
654,2135654,17564,-72,2272,17710.48,24.44,-1.00,-1.0,2361
659,2135659,16916,3140,1480,17268.50,24.39,-1.00,-1.0,2445
662,2135662,16664,-2440,1784,16935.91,24.34,-1.00,-1.0,2364
665,2135665,17496,-3736,2952,18132.35,24.39,-1.00,-1.0,2444
667,2135667,17572,-1048,-160,17603.95,24.34,-1.00,-1.0,2361
670,2135670,16764,3868,1464,17266.63,24.39,-1.00,-1.0,2437
673,2135673,16484,356,-432,16493.50,24.44,-1.00,-1.0,2362
676,2135676,17412,-3944,1492,17915.33,24.25,-1.00,-1.0,2436
678,2135678,18116,-3372,1044,18456.70,24.44,-1.00,-1.0,2361
681,2135681,16532,1208,1400,16635.09,24.34,-1.00,-1.0,2360
687,2135687,17788,-1608,-1368,17912.85,24.34,-1.00,-1.0,2444
689,2135689,16800,-3028,2060,17194.54,24.39,-1.00,-1.0,2374
692,2135692,17220,-3352,1896,17645.37,24.34,-1.00,-1.0,2445
695,2135695,16452,572,-752,16479.11,24.29,-1.00,-1.0,2363
698,2135698,18080,1784,-1884,18265.23,24.44,-1.00,-1.0,2448
700,2135700,15948,228,-384,15954.25,24.39,-1.00,-1.0,2364
703,2135703,18088,-3056,796,18361.60,24.34,-1.00,-1.0,2447
706,2135706,16860,-1456,2684,17134.28,24.39,-1.00,-1.0,2368
711,2135711,16308,1296,-1248,16406.95,24.39,-1.00,-1.0,2450
713,2135713,16784,1348,2044,16961.65,24.39,-1.00,-1.0,2364
716,2135716,17116,-2108,1396,17301.73,24.39,-1.00,-1.0,2439
719,2135719,17300,-2388,468,17470.30,24.39,-1.00,-1.0,2360
722,2135722,17316,888,1052,17370.64,24.39,-1.00,-1.0,2446
724,2135724,16612,1404,324,16674.37,24.39,-1.00,-1.0,2361
727,2135727,16616,-244,-136,16618.35,24.39,-1.00,-1.0,2362
730,2135730,17796,-2640,256,17992.57,24.48,-1.00,-1.0,2443
732,2135732,16464,-2468,1308,16699.26,24.39,-1.00,-1.0,2361
737,2135737,16184,760,-2008,16325.79,24.39,-1.00,-1.0,2443
740,2135740,17892,936,888,17938.46,24.44,-1.00,-1.0,2365
743,2135743,16444,-1408,1660,16587.44,24.39,-1.00,-1.0,2437
746,2135746,18392,-2424,276,18553.10,24.44,-1.00,-1.0,2365
748,2135748,16740,-636,156,16752.80,24.39,-1.00,-1.0,2432
751,2135751,16996,1568,368,17072.14,24.44,-1.00,-1.0,2354
754,2135754,16064,860,140,16087.61,24.39,-1.00,-1.0,2438
757,2135757,18096,-3276,-1144,18425.69,24.44,-1.00,-1.0,2369
759,2135759,16896,-2908,2500,17325.74,24.39,-1.00,-1.0,2360
764,2135764,16844,584,-2720,17072.19,24.39,-1.00,-1.0,2442
767,2135767,17816,1764,-1144,17939.63,24.39,-1.00,-1.0,2364
770,2135770,17060,-1092,2128,17226.85,24.39,-1.00,-1.0,2437
773,2135773,17592,-3032,1784,17940.29,24.39,-1.00,-1.0,2365
775,2135775,17072,-2216,-584,17225.12,24.39,-1.00,-1.0,2431
778,2135778,16720,1896,-1604,16903.43,24.39,-1.00,-1.0,2367
781,2135781,17392,1008,656,17433.53,24.39,-1.00,-1.0,2431
784,2135784,17476,-4368,-36,18013.64,24.39,-1.00,-1.0,2367
789,2135789,16808,260,-636,16822.04,24.44,-1.00,-1.0,2446
791,2135791,15956,3040,-2176,16388.12,24.34,-1.00,-1.0,2371
794,2135794,18420,-40,-2544,18594.89,24.44,-1.00,-1.0,2434
797,2135797,16576,-3640,3020,17237.57,24.44,-1.00,-1.0,2371
800,2135800,18420,-2956,1316,18702.04,24.44,-1.00,-1.0,2449
802,2135802,15784,128,-1176,15828.27,24.34,-1.00,-1.0,2365
805,2135805,18236,2924,-2552,18644.41,24.34,-1.00,-1.0,2362
808,2135808,15816,-40,2052,15948.61,24.39,-1.00,-1.0,2444
811,2135811,18044,-5508,1196,18903.82,24.44,-1.00,-1.0,2374
816,2135816,17444,1860,-1004,17571.59,24.44,-1.00,-1.0,2442
818,2135818,16596,2940,-1880,16958.93,24.44,-1.00,-1.0,2365
821,2135821,16916,-1060,-2128,17082.24,24.44,-1.00,-1.0,2437
824,2135824,17824,-3632,2964,18430.18,24.39,-1.00,-1.0,2374
827,2135827,17580,-3636,40,17952.12,24.44,-1.00,-1.0,2431
829,2135829,16556,-96,-204,16557.54,24.34,-1.00,-1.0,2366
832,2135832,17832,2164,-2392,18121.39,24.44,-1.00,-1.0,2431
835,2135835,16180,1280,2288,16391.03,24.48,-1.00,-1.0,2366
839,2135839,16900,-2840,2516,17320.68,24.34,-1.00,-1.0,2442
842,2135842,17220,-372,1924,17331.14,24.44,-1.00,-1.0,2363
845,2135845,16768,2244,-624,16928.99,24.44,-1.00,-1.0,2368
848,2135848,17304,-104,-1544,17373.06,24.48,-1.00,-1.0,2444
850,2135850,16628,-1792,1184,16766.14,24.34,-1.00,-1.0,2369
853,2135853,18076,-3608,184,18433.48,24.39,-1.00,-1.0,2447
856,2135856,16948,264,2012,17069.05,24.44,-1.00,-1.0,2369
859,2135859,17364,1196,-1792,17497.15,24.29,-1.00,-1.0,2434
862,2135862,16516,700,1612,16609.24,24.48,-1.00,-1.0,2369
866,2135866,17248,-1440,2908,17550.60,24.34,-1.00,-1.0,2442
869,2135869,17348,-612,132,17359.29,24.34,-1.00,-1.0,2363
872,2135872,16628,1928,1096,16775.24,24.34,-1.00,-1.0,2440
875,2135875,17072,-640,-684,17097.68,24.39,-1.00,-1.0,2366
877,2135877,16336,-924,3552,16743.22,24.44,-1.00,-1.0,2431
880,2135880,19324,-2900,-1332,19585.74,24.39,-1.00,-1.0,2366
883,2135883,15756,892,1276,15832.73,24.44,-1.00,-1.0,2431
886,2135886,18560,1036,-1184,18626.56,24.29,-1.00,-1.0,2366
889,2135889,15756,996,2708,16018.02,24.39,-1.00,-1.0,2356
894,2135894,16856,-1240,3092,17182.05,24.39,-1.00,-1.0,2443
896,2135896,17016,-1220,-748,17076.07,24.39,-1.00,-1.0,2376
899,2135899,16516,2356,1652,16764.79,24.39,-1.00,-1.0,2445
902,2135902,16868,-848,-904,16913.48,24.29,-1.00,-1.0,2368
905,2135905,17512,-1228,2512,17733.82,24.48,-1.00,-1.0,2448
907,2135907,17656,-2444,344,17827.67,24.39,-1.00,-1.0,2364
910,2135910,16156,1956,3056,16558.42,24.48,-1.00,-1.0,2447
913,2135913,17180,580,-1448,17250.67,24.39,-1.00,-1.0,2366
918,2135918,19240,-4136,-132,19679.98,24.48,-1.00,-1.0,2445
920,2135920,16072,-848,3148,16399.34,24.34,-1.00,-1.0,2352
923,2135923,17392,308,-1092,17428.97,24.39,-1.00,-1.0,2439
926,2135926,15712,4056,1756,16321.81,24.44,-1.00,-1.0,2361
928,2135928,16916,-2064,-680,17055.02,24.29,-1.00,-1.0,2360
931,2135931,17776,-2504,3244,18242.25,24.39,-1.00,-1.0,2438
934,2135934,17548,-2984,1540,17866.40,24.39,-1.00,-1.0,2367
937,2135937,15968,2832,2368,16389.16,24.39,-1.00,-1.0,2444
940,2135940,16848,996,-1996,16995.03,24.34,-1.00,-1.0,2359
945,2135945,18508,-4156,420,18973.53,24.44,-1.00,-1.0,2443
947,2135947,15844,-468,2940,16121.26,24.34,-1.00,-1.0,2367
950,2135950,18248,520,-160,18256.11,24.34,-1.00,-1.0,2438
953,2135953,15248,3244,2004,15717.54,24.34,-1.00,-1.0,2363
956,2135956,17336,-1572,-56,17407.22,24.44,-1.00,-1.0,2435
958,2135958,16952,-2728,3108,17449.12,24.53,-1.00,-1.0,2375
961,2135961,17336,-3220,188,17633.51,24.39,-1.00,-1.0,2460
964,2135964,16720,1808,2400,16987.86,24.39,-1.00,-1.0,2370
967,2135967,15972,1384,-2116,16170.89,24.39,-1.00,-1.0,2368
972,2135972,16972,-3524,-236,17335.60,24.39,-1.00,-1.0,2450
974,2135974,17120,-1064,3852,17580.23,24.34,-1.00,-1.0,2370
977,2135977,18456,-1092,-420,18493.05,24.39,-1.00,-1.0,2440
980,2135980,15460,2552,1144,15710.92,24.39,-1.00,-1.0,2370
983,2135983,18364,-548,-956,18397.03,24.39,-1.00,-1.0,2445
985,2135985,16052,-1624,3028,16415.63,24.39,-1.00,-1.0,2367
988,2135988,18160,-2944,-56,18397.17,24.39,-1.00,-1.0,2437
991,2135991,16228,1048,2144,16402.53,24.34,-1.00,-1.0,2354
996,2135996,16972,520,1360,17034.34,24.44,-1.00,-1.0,2443
999,2135999,16736,-2640,-192,16944.03,24.34,-1.00,-1.0,2373
1001,2136001,18044,-168,2768,18255.85,24.34,-1.00,-1.0,2438
1004,2136004,16740,-752,-1292,16806.62,24.34,-1.00,-1.0,2374
1007,2136007,17316,1636,2184,17529.70,24.44,-1.00,-1.0,2437
1010,2136010,16696,-1268,-208,16745.37,24.34,-1.00,-1.0,2372
1012,2136012,15736,-624,2628,15966.13,24.29,-1.00,-1.0,2362
1015,2136015,17680,-1776,-784,17786.27,24.29,-1.00,-1.0,2438
1018,2136018,16220,1224,1412,16327.29,24.34,-1.00,-1.0,2377
1023,2136023,16296,404,2996,16574.04,24.39,-1.00,-1.0,2444
1025,2136025,16880,-1688,208,16965.46,24.39,-1.00,-1.0,2369
1028,2136028,17328,-596,1644,17416.01,24.34,-1.00,-1.0,2440
1031,2136031,17040,-680,-1384,17109.63,24.39,-1.00,-1.0,2371
1034,2136034,17128,700,2164,17278.35,24.44,-1.00,-1.0,2447
1036,2136036,16952,-1068,192,16986.70,24.39,-1.00,-1.0,2367
1039,2136039,17712,-992,1704,17821.41,24.34,-1.00,-1.0,2440
1042,2136042,16316,-796,-1420,16397.01,24.39,-1.00,-1.0,2367
1047,2136047,17772,-592,-704,17795.79,24.44,-1.00,-1.0,2449
1049,2136049,16420,-1292,3296,16797.30,24.39,-1.00,-1.0,2369
1052,2136052,17504,-2452,260,17676.82,24.44,-1.00,-1.0,2450
1055,2136055,16644,844,2516,16854.24,24.44,-1.00,-1.0,2367
1058,2136058,16492,1228,-2628,16745.16,24.44,-1.00,-1.0,2444
1060,2136060,17528,100,960,17554.55,24.39,-1.00,-1.0,2368
1063,2136063,16756,-2944,720,17027.89,24.44,-1.00,-1.0,2375
1066,2136066,17100,-2156,3300,17548.46,24.39,-1.00,-1.0,2438
1069,2136069,16936,-376,-1888,17045.06,24.44,-1.00,-1.0,2372
1074,2136074,16860,112,-1264,16907.69,24.39,-1.00,-1.0,2442
1076,2136076,17312,-1612,2852,17619.24,24.39,-1.00,-1.0,2372
1079,2136079,18196,-3824,784,18610.00,24.39,-1.00,-1.0,2437
1082,2136082,16036,568,3076,16338.23,24.29,-1.00,-1.0,2371
1085,2136085,17192,984,-2476,17397.23,24.39,-1.00,-1.0,2436
1087,2136087,17244,784,-56,17261.90,24.39,-1.00,-1.0,2374
1090,2136090,16872,-1588,284,16948.95,24.29,-1.00,-1.0,2437
1093,2136093,17336,-2600,3824,17942.12,24.48,-1.00,-1.0,2370
1098,2136098,16664,2752,2324,17048.85,24.48,-1.00,-1.0,2468
1101,2136101,16112,748,-1428,16192.44,24.39,-1.00,-1.0,2371
1104,2136104,17944,-1432,1760,18086.88,24.34,-1.00,-1.0,2446
1106,2136106,16528,-1852,1936,16743.74,24.29,-1.00,-1.0,2365
1109,2136109,16820,-212,2816,17055.42,24.44,-1.00,-1.0,2361
1112,2136112,17032,1256,-1604,17153.41,24.44,-1.00,-1.0,2445
1114,2136114,17260,572,564,17278.68,24.39,-1.00,-1.0,2364
1117,2136117,16236,-2184,2304,16543.46,24.44,-1.00,-1.0,2438
1120,2136120,17784,-2384,2752,18152.90,24.34,-1.00,-1.0,2366
1125,2136125,16384,1884,1784,16588.18,24.48,-1.00,-1.0,2441
1128,2136128,16640,424,-748,16662.20,24.39,-1.00,-1.0,2367
1130,2136130,17596,-1740,1148,17719.05,24.39,-1.00,-1.0,2438
1133,2136133,16712,-2440,32,16889.21,24.39,-1.00,-1.0,2365
1136,2136136,17900,28,2224,18037.65,24.44,-1.00,-1.0,2437
1139,2136139,15956,1064,-340,15995.05,24.39,-1.00,-1.0,2367
1141,2136141,18012,-728,288,18029.01,24.39,-1.00,-1.0,2438
1144,2136144,16296,-1960,-848,16435.34,24.39,-1.00,-1.0,2368
1149,2136149,16376,-1108,-1008,16444.36,24.39,-1.00,-1.0,2457
1152,2136152,16916,1372,2064,17096.59,24.29,-1.00,-1.0,2375
1155,2136155,16660,-812,-404,16684.67,24.29,-1.00,-1.0,2451
1157,2136157,18032,-2060,1292,18195.22,24.39,-1.00,-1.0,2374
1160,2136160,17212,-1996,-456,17333.35,24.44,-1.00,-1.0,2362
1163,2136163,17436,640,1328,17498.21,24.44,-1.00,-1.0,2433
1165,2136165,15896,832,164,15918.60,24.29,-1.00,-1.0,2368
1168,2136168,18032,-1260,-152,18076.61,24.44,-1.00,-1.0,2438
1171,2136171,17104,-1796,648,17210.24,24.44,-1.00,-1.0,2365
1176,2136176,16580,-660,-2204,16738.87,24.44,-1.00,-1.0,2445
1179,2136179,17916,1804,1432,18063.45,24.48,-1.00,-1.0,2368
1181,2136181,16040,-404,-408,16050.27,24.39,-1.00,-1.0,2440
1184,2136184,16648,-840,4496,17264.86,24.39,-1.00,-1.0,2372
1187,2136187,17072,-2600,592,17278.99,24.44,-1.00,-1.0,2438
1190,2136190,16772,808,1148,16830.65,24.29,-1.00,-1.0,2370
1192,2136192,15916,1048,-1088,15987.53,24.39,-1.00,-1.0,2426
1195,2136195,17196,1196,2348,17396.72,24.48,-1.00,-1.0,2380
1200,2136200,16932,-2036,4028,17523.21,24.39,-1.00,-1.0,2442
1203,2136203,16948,-1200,-2448,17165.88,24.39,-1.00,-1.0,2374
1206,2136206,18660,2760,620,18873.20,24.39,-1.00,-1.0,2442
1208,2136208,14616,-184,-708,14634.29,24.39,-1.00,-1.0,2367
1211,2136211,17192,-732,3848,17632.58,24.39,-1.00,-1.0,2364
1214,2136214,17556,-2668,796,17775.40,24.44,-1.00,-1.0,2445
1216,2136216,17072,160,1496,17138.17,24.39,-1.00,-1.0,2374
1219,2136219,16364,1228,-1300,16461.42,24.44,-1.00,-1.0,2445
1222,2136222,16084,2008,1664,16294.05,24.39,-1.00,-1.0,2366
1227,2136227,16344,-1988,3596,16852.59,24.34,-1.00,-1.0,2443
1230,2136230,17272,-2120,-1212,17443.78,24.34,-1.00,-1.0,2368
1232,2136232,18156,1528,1224,18261.25,24.39,-1.00,-1.0,2437
1235,2136235,15264,648,-112,15278.16,24.34,-1.00,-1.0,2365
1238,2136238,17844,388,3024,18102.58,24.48,-1.00,-1.0,2438
1241,2136241,15868,-1944,-356,15990.60,24.44,-1.00,-1.0,2365
1243,2136243,18164,-512,1248,18214.02,24.44,-1.00,-1.0,2437
1246,2136246,16660,352,272,16665.94,24.34,-1.00,-1.0,2368
1251,2136251,18024,-1368,-1348,18126.03,24.39,-1.00,-1.0,2443
1254,2136254,16520,220,4084,17018.75,24.44,-1.00,-1.0,2368
1256,2136256,16996,-940,-28,17022.00,24.39,-1.00,-1.0,2362
1259,2136259,16116,1276,3676,16579.10,24.39,-1.00,-1.0,2438
1262,2136262,16796,-464,-820,16822.40,24.39,-1.00,-1.0,2365
1264,2136264,17312,168,2664,17516.58,24.39,-1.00,-1.0,2436
1267,2136267,16044,-1632,-856,16149.49,24.29,-1.00,-1.0,2365
1270,2136270,18064,-1372,-460,18121.87,24.44,-1.00,-1.0,2446
1273,2136273,17232,-476,-544,17247.15,24.29,-1.00,-1.0,2366
1278,2136278,17344,-1464,-1320,17455.66,24.34,-1.00,-1.0,2445
1281,2136281,17288,568,3104,17573.63,24.34,-1.00,-1.0,2375
1283,2136283,16116,-912,-588,16152.49,24.44,-1.00,-1.0,2427
1286,2136286,17888,-740,276,17905.43,24.44,-1.00,-1.0,2380
1289,2136289,17068,-804,-1316,17137.53,24.44,-1.00,-1.0,2441
1292,2136292,17340,300,2668,17546.62,24.44,-1.00,-1.0,2371
1294,2136294,16596,-1212,-172,16641.09,24.53,-1.00,-1.0,2440
1297,2136297,17620,-1732,-1072,17737.35,24.34,-1.00,-1.0,2380
1302,2136302,17560,-172,1012,17589.98,24.44,-1.00,-1.0,2442
1305,2136305,17724,-1532,-628,17801.17,24.34,-1.00,-1.0,2369
1307,2136307,16948,-568,3232,17262.77,24.44,-1.00,-1.0,2368
1310,2136310,15884,-680,-1004,15930.22,24.39,-1.00,-1.0,2445
1313,2136313,17580,2152,2584,17898.73,24.44,-1.00,-1.0,2359
1316,2136316,16436,-252,-1256,16485.85,24.39,-1.00,-1.0,2448
1318,2136318,17852,-1648,3112,18196.00,24.34,-1.00,-1.0,2375
1321,2136321,16392,-1824,1268,16541.84,24.48,-1.00,-1.0,2444
1324,2136324,17912,-248,-640,17925.15,24.44,-1.00,-1.0,2379
1329,2136329,17704,-236,-1920,17809.37,24.44,-1.00,-1.0,2457
1332,2136332,17472,-1204,448,17519.16,24.44,-1.00,-1.0,2373
1335,2136335,16888,-2432,2812,17292.38,24.29,-1.00,-1.0,2446
1337,2136337,16208,-1260,-996,16287.38,24.34,-1.00,-1.0,2370
1340,2136340,18480,944,-1516,18566.09,24.39,-1.00,-1.0,2448
1343,2136343,15960,-32,-1492,16029.62,24.34,-1.00,-1.0,2373
1346,2136346,18152,-2204,480,18291.61,24.39,-1.00,-1.0,2448
1348,2136348,16408,-1728,1932,16611.47,24.44,-1.00,-1.0,2371
1353,2136353,16700,400,-2144,16841.81,24.34,-1.00,-1.0,2442
1356,2136356,17668,-692,-1980,17792.06,24.34,-1.00,-1.0,2367
1359,2136359,17516,-1640,476,17599.05,24.44,-1.00,-1.0,2444
1361,2136361,16588,-2728,1692,16895.76,24.34,-1.00,-1.0,2366
1364,2136364,16840,-820,-796,16878.73,24.39,-1.00,-1.0,2376
1367,2136367,17248,2096,2792,17597.78,24.39,-1.00,-1.0,2438
1370,2136370,15764,-324,-200,15768.60,24.34,-1.00,-1.0,2371
1372,2136372,18344,-2368,-656,18507.84,24.48,-1.00,-1.0,2446
1375,2136375,15280,-688,2004,15426.20,24.39,-1.00,-1.0,2369
1380,2136380,15652,-112,-316,15655.59,24.39,-1.00,-1.0,2434
1383,2136383,16308,556,2648,16530.94,24.39,-1.00,-1.0,2374
1386,2136386,17436,-1724,-380,17525.14,24.39,-1.00,-1.0,2447
1388,2136388,17144,-1440,-516,17212.11,24.39,-1.00,-1.0,2376
1391,2136391,16828,156,1248,16874.94,24.39,-1.00,-1.0,2445
1394,2136394,16824,60,1580,16898.13,24.39,-1.00,-1.0,2367
1397,2136397,16632,-932,484,16665.12,24.39,-1.00,-1.0,2449
1399,2136399,18300,-1352,52,18349.95,24.29,-1.00,-1.0,2374
1404,2136404,18244,220,492,18251.96,24.39,-1.00,-1.0,2450
1407,2136407,15808,-252,144,15810.66,24.39,-1.00,-1.0,2375
1410,2136410,17440,-372,2560,17630.81,24.39,-1.00,-1.0,2363
1412,2136412,16536,-2068,-468,16671.38,24.34,-1.00,-1.0,2438
1415,2136415,17804,-1084,-1024,17866.34,24.39,-1.00,-1.0,2368
1418,2136418,17176,-192,-984,17205.23,24.39,-1.00,-1.0,2437
1421,2136421,17416,40,992,17444.28,24.39,-1.00,-1.0,2370
1423,2136423,15824,-912,60,15850.37,24.48,-1.00,-1.0,2427
1426,2136426,18764,-1440,-220,18820.46,24.39,-1.00,-1.0,2365
1431,2136431,18172,-1208,-364,18215.74,24.39,-1.00,-1.0,2441
1434,2136434,17040,-812,-2128,17191.55,24.39,-1.00,-1.0,2368
1437,2136437,17376,548,2268,17531.96,24.34,-1.00,-1.0,2436
1439,2136439,17360,-1024,-584,17399.98,24.39,-1.00,-1.0,2368
1442,2136442,17152,-1000,440,17186.76,24.44,-1.00,-1.0,2438
1445,2136445,16720,-1700,-1700,16891.96,24.39,-1.00,-1.0,2367
1448,2136448,17992,36,-284,17994.28,24.34,-1.00,-1.0,2432
1450,2136450,16164,-744,300,16183.89,24.39,-1.00,-1.0,2372
1453,2136453,19164,-1964,-344,19267.45,24.34,-1.00,-1.0,2348
1458,2136458,18136,8,-456,18141.73,24.48,-1.00,-1.0,2442
1461,2136461,16660,432,-2380,16834.69,24.34,-1.00,-1.0,2374
1464,2136464,17120,-236,-436,17127.18,24.39,-1.00,-1.0,2438
1466,2136466,17600,-2060,1672,17798.85,24.44,-1.00,-1.0,2366
1469,2136469,17872,-1900,1872,18069.94,24.39,-1.00,-1.0,2437
1472,2136472,15772,-1256,-2124,15963.86,24.44,-1.00,-1.0,2364
1474,2136474,18848,1964,-560,18958.32,24.39,-1.00,-1.0,2438
1477,2136477,15268,-532,1316,15333.84,24.39,-1.00,-1.0,2366
1482,2136482,16592,-1928,616,16715.00,24.39,-1.00,-1.0,2457
1485,2136485,16608,860,3100,16916.71,24.39,-1.00,-1.0,2374
1488,2136488,17004,-168,-2588,17200.64,24.34,-1.00,-1.0,2448
1490,2136490,17296,-84,-180,17297.14,24.39,-1.00,-1.0,2377
1493,2136493,17616,-1692,1660,17774.76,24.34,-1.00,-1.0,2449
1496,2136496,16412,-1944,2528,16718.96,24.29,-1.00,-1.0,2367
1499,2136499,16444,-832,-1300,16516.28,24.44,-1.00,-1.0,2449
1501,2136501,18408,428,180,18413.86,24.44,-1.00,-1.0,2374
1504,2136504,16004,-84,2256,16162.44,24.39,-1.00,-1.0,2363
1509,2136509,15820,-580,940,15858.51,24.44,-1.00,-1.0,2442
1512,2136512,18764,344,100,18767.42,24.34,-1.00,-1.0,2367
1515,2136515,14756,420,1356,14824.12,24.44,-1.00,-1.0,2425
1518,2136518,18572,-724,632,18596.85,24.39,-1.00,-1.0,2431
1521,2136521,16408,-1500,2100,16609.71,24.34,-1.00,-1.0,2441
1523,2136523,17880,-1556,-2056,18064.96,24.44,-1.00,-1.0,2379
1526,2136526,15904,1956,2472,16213.39,24.44,-1.00,-1.0,2428
1529,2136529,17896,-1136,-1556,17999.40,24.34,-1.00,-1.0,2375
1534,2136534,18312,-2784,-412,18527.00,24.34,-1.00,-1.0,2443
1536,2136536,16412,-608,1344,16478.16,24.39,-1.00,-1.0,2369
1539,2136539,18200,236,-1576,18269.63,24.34,-1.00,-1.0,2443
1542,2136542,15728,948,2940,16028.48,24.39,-1.00,-1.0,2366
1545,2136545,17928,-2688,216,18129.68,24.44,-1.00,-1.0,2442
1547,2136547,15708,-1276,2288,15924.96,24.39,-1.00,-1.0,2365
1550,2136550,18080,-1676,-1628,18230.35,24.34,-1.00,-1.0,2448
1553,2136553,16096,2380,2712,16495.47,24.39,-1.00,-1.0,2366
1556,2136556,18056,180,-388,18061.06,24.44,-1.00,-1.0,2362
1561,2136561,18844,-1352,832,18910.75,24.34,-1.00,-1.0,2437
1563,2136563,15808,-1268,2452,16047.21,24.48,-1.00,-1.0,2371
1566,2136566,17936,-1436,-1748,18078.10,24.34,-1.00,-1.0,2448
1569,2136569,15956,448,152,15963.01,24.39,-1.00,-1.0,2368
1572,2136572,18248,112,-296,18250.74,24.34,-1.00,-1.0,2435
1574,2136574,15608,-540,2468,15811.14,24.39,-1.00,-1.0,2367
1577,2136577,18108,-2208,-80,18242.29,24.29,-1.00,-1.0,2432
1580,2136580,16016,-140,1788,16116.10,24.39,-1.00,-1.0,2372
1585,2136585,16648,-524,-1080,16691.22,24.39,-1.00,-1.0,2439
1587,2136587,18428,-1848,440,18525.65,24.39,-1.00,-1.0,2373
1590,2136590,15740,-1012,3052,16065.07,24.39,-1.00,-1.0,2434
1593,2136593,17968,-540,-1632,18050.04,24.39,-1.00,-1.0,2367
1596,2136596,15804,1660,756,15908.91,24.39,-1.00,-1.0,2432
1598,2136598,17824,-1496,-1900,17987.30,24.39,-1.00,-1.0,2368
1601,2136601,16444,-1372,3264,16820.86,24.29,-1.00,-1.0,2433
1604,2136604,17872,-2316,-840,18041.00,24.39,-1.00,-1.0,2367
1606,2136606,15260,1432,2740,15570.03,24.39,-1.00,-1.0,2359
1611,2136611,15896,-804,368,15920.57,24.39,-1.00,-1.0,2441
1614,2136614,18048,-3172,-508,18331.67,24.29,-1.00,-1.0,2372
1617,2136617,15684,408,2916,15957.99,24.39,-1.00,-1.0,2432
1620,2136620,18132,1208,1084,18204.50,24.39,-1.00,-1.0,2366
1622,2136622,15260,1080,1576,15379.13,24.39,-1.00,-1.0,2434
1625,2136625,17784,-2248,48,17925.58,24.39,-1.00,-1.0,2369
1628,2136628,17088,-252,3632,17471.54,24.39,-1.00,-1.0,2433
1631,2136631,16364,-1712,-964,16481.53,24.39,-1.00,-1.0,2372
1636,2136636,18520,416,-556,18533.01,24.34,-1.00,-1.0,2439
1638,2136638,16204,-460,2644,16424.74,24.34,-1.00,-1.0,2370
1641,2136641,17948,-3140,-980,18246.94,24.39,-1.00,-1.0,2446
1644,2136644,15560,2120,3192,16024.88,24.44,-1.00,-1.0,2361
1647,2136647,19204,1156,-412,19243.17,24.29,-1.00,-1.0,2438
1649,2136649,14696,1048,1972,14864.71,24.44,-1.00,-1.0,2367
1652,2136652,18612,-2916,472,18844.96,24.39,-1.00,-1.0,2350
1655,2136655,16764,-2220,2424,17083.21,24.48,-1.00,-1.0,2444
1657,2136657,17492,-1316,-1644,17618.30,24.39,-1.00,-1.0,2366
1662,2136662,17604,-352,-1780,17697.26,24.44,-1.00,-1.0,2450
1665,2136665,16836,-1008,2208,17010.06,24.34,-1.00,-1.0,2368
1668,2136668,17664,-3280,-548,17974.30,24.39,-1.00,-1.0,2442
1670,2136670,16424,28,2084,16555.71,24.34,-1.00,-1.0,2366
1673,2136673,17724,744,-1928,17844.07,24.48,-1.00,-1.0,2449
1676,2136676,16408,1384,3020,16740.92,24.44,-1.00,-1.0,2366
1679,2136679,17196,-3768,-460,17609.99,24.39,-1.00,-1.0,2441
1681,2136681,16732,-1324,3052,17059.53,24.34,-1.00,-1.0,2367
1686,2136686,16180,1724,1260,16320.30,24.39,-1.00,-1.0,2444
1689,2136689,17440,148,-1132,17477.33,24.39,-1.00,-1.0,2376
1692,2136692,16260,436,3888,16724.06,24.48,-1.00,-1.0,2435
1695,2136695,18460,-2620,672,18657.11,24.39,-1.00,-1.0,2367
1697,2136697,16216,-124,3264,16541.70,24.39,-1.00,-1.0,2445
1700,2136700,17696,-620,-2120,17833.32,24.48,-1.00,-1.0,2373
1703,2136703,15992,2620,2928,16467.59,24.39,-1.00,-1.0,2435
1705,2136705,17756,-1068,-124,17788.52,24.39,-1.00,-1.0,2366
1708,2136708,16184,-820,3580,16595.50,24.44,-1.00,-1.0,2360
1713,2136713,16376,2052,3152,16802.36,24.44,-1.00,-1.0,2437
1716,2136716,16928,-36,-1572,17000.87,24.34,-1.00,-1.0,2368
1719,2136719,16792,-224,3700,17196.26,24.44,-1.00,-1.0,2421
1722,2136722,17628,-3904,-552,18063.56,24.48,-1.00,-1.0,2367
1724,2136724,16732,524,4240,17268.82,24.44,-1.00,-1.0,2432
1727,2136727,16452,148,-3500,16820.83,24.48,-1.00,-1.0,2368
1730,2136730,17000,1372,1348,17108.46,24.44,-1.00,-1.0,2437
1733,2136733,17768,-2476,-272,17941.75,24.39,-1.00,-1.0,2372
1738,2136738,17776,-1880,68,17875.27,24.29,-1.00,-1.0,2443
1740,2136740,16116,3984,3536,16973.54,24.39,-1.00,-1.0,2374
1743,2136743,17024,-48,-1892,17128.88,24.34,-1.00,-1.0,2443
1746,2136746,16880,-2180,2840,17255.50,24.48,-1.00,-1.0,2373
1749,2136749,17356,-2456,232,17530.45,24.44,-1.00,-1.0,2442
1751,2136751,16272,1188,2824,16557.91,24.48,-1.00,-1.0,2368
1754,2136754,17456,-112,-3864,17878.90,24.39,-1.00,-1.0,2361
1757,2136757,16948,232,912,16974.11,24.34,-1.00,-1.0,2427
1759,2136759,17376,-2332,-72,17531.94,24.39,-1.00,-1.0,2366
1764,2136764,16516,-1724,-1984,16723.84,24.39,-1.00,-1.0,2437
1767,2136767,17740,3124,3068,18272.37,24.39,-1.00,-1.0,2368
1770,2136770,16524,-1232,-1588,16645.79,24.48,-1.00,-1.0,2433
1773,2136773,17792,-1820,1988,17994.99,24.39,-1.00,-1.0,2366
1775,2136775,16656,-2760,-1048,16915.62,24.39,-1.00,-1.0,2432
1778,2136778,17124,884,2192,17286.34,24.48,-1.00,-1.0,2366
1781,2136781,16200,584,-2068,16341.90,24.39,-1.00,-1.0,2433
1784,2136784,17624,-816,616,17653.63,24.44,-1.00,-1.0,2366
1789,2136789,17140,-1780,1008,17261.63,24.44,-1.00,-1.0,2432
1791,2136791,17516,-740,-1604,17604.85,24.44,-1.00,-1.0,2376
1794,2136794,16692,1736,1788,16877.01,24.39,-1.00,-1.0,2433
1797,2136797,16548,-676,-276,16564.10,24.34,-1.00,-1.0,2368
1800,2136800,17848,-2408,856,18030.04,24.39,-1.00,-1.0,2435
1802,2136802,17148,-2344,260,17309.41,24.44,-1.00,-1.0,2373
1805,2136805,16752,648,980,16793.15,24.39,-1.00,-1.0,2433
1808,2136808,16288,1488,136,16356.39,24.34,-1.00,-1.0,2354
1811,2136811,17336,-1008,244,17366.99,24.34,-1.00,-1.0,2365
1816,2136816,17744,-2712,420,17954.97,24.34,-1.00,-1.0,2437
1818,2136818,16880,-768,-804,16916.58,24.29,-1.00,-1.0,2370
1821,2136821,17300,1860,516,17407.35,24.44,-1.00,-1.0,2447
1824,2136824,15204,888,972,15260.90,24.29,-1.00,-1.0,2374
1827,2136827,17932,-2840,1068,18186.89,24.44,-1.00,-1.0,2440
1829,2136829,17624,-3676,864,18024.01,24.39,-1.00,-1.0,2369
1832,2136832,17184,-1544,-172,17254.08,24.34,-1.00,-1.0,2448
1835,2136835,16088,3400,1688,16529.76,24.39,-1.00,-1.0,2368
1840,2136840,17504,-1368,1232,17600.55,24.48,-1.00,-1.0,2447
1842,2136842,16700,-3216,3072,17282.07,24.48,-1.00,-1.0,2368
1845,2136845,16772,-2084,996,16930.30,24.34,-1.00,-1.0,2436
1848,2136848,17152,1496,-1604,17291.67,24.39,-1.00,-1.0,2365
1851,2136851,17340,1648,816,17437.24,24.39,-1.00,-1.0,2441
1853,2136853,16772,-1892,1224,16922.70,24.39,-1.00,-1.0,2367
1856,2136856,16996,-2616,3296,17509.17,24.44,-1.00,-1.0,2359
1859,2136859,17416,-728,-1196,17472.19,24.34,-1.00,-1.0,2438
1862,2136862,16264,3804,1664,16785.62,24.39,-1.00,-1.0,2368
1866,2136866,17864,-1340,684,17927.24,24.39,-1.00,-1.0,2439
1869,2136869,17216,-2572,3000,17663.69,24.48,-1.00,-1.0,2368
1872,2136872,15360,1188,2580,15620.41,24.29,-1.00,-1.0,2433
1875,2136875,17872,660,-1132,17919.97,24.48,-1.00,-1.0,2366
1877,2136877,16652,-96,424,16657.67,24.39,-1.00,-1.0,2435
1880,2136880,17052,-2772,-20,17275.85,24.39,-1.00,-1.0,2367
1883,2136883,16592,24,3412,16939.21,24.39,-1.00,-1.0,2419
1886,2136886,17592,-28,-2072,17713.62,24.39,-1.00,-1.0,2365
1890,2136890,16964,-2428,-164,17137.66,24.34,-1.00,-1.0,2426
1893,2136893,18216,-1924,1208,18357.12,24.48,-1.00,-1.0,2369
1896,2136896,16836,-1340,-708,16904.08,24.44,-1.00,-1.0,2432
1899,2136899,16268,2152,3160,16711.21,24.29,-1.00,-1.0,2366
1901,2136901,17328,-896,-1448,17411.46,24.44,-1.00,-1.0,2434
1904,2136904,16640,-372,2324,16805.62,24.39,-1.00,-1.0,2367
1907,2136907,17128,-3336,-1216,17492.17,24.39,-1.00,-1.0,2368
1910,2136910,16768,1760,3272,17174.67,24.29,-1.00,-1.0,2440
1913,2136913,16944,-24,-1724,17031.50,24.48,-1.00,-1.0,2365
1918,2136918,18160,-2744,-552,18374.43,24.39,-1.00,-1.0,2441
1921,2136921,16528,-408,3156,16831.56,24.48,-1.00,-1.0,2374
1923,2136923,17428,-1140,-1228,17508.36,24.29,-1.00,-1.0,2442
1926,2136926,16172,2264,3076,16616.89,24.39,-1.00,-1.0,2381
1929,2136929,16656,-1588,-1748,16822.59,24.39,-1.00,-1.0,2435
1932,2136932,17632,-1100,3836,18077.95,24.29,-1.00,-1.0,2372
1934,2136934,17376,-2768,-316,17597.93,24.39,-1.00,-1.0,2441
1937,2136937,16752,1104,2580,16985.43,24.39,-1.00,-1.0,2381
1942,2136942,16876,2148,2984,17271.87,24.34,-1.00,-1.0,2437
1945,2136945,16676,-3188,-1316,17028.92,24.44,-1.00,-1.0,2375
1948,2136948,17496,-1600,3400,17894.97,24.39,-1.00,-1.0,2437
1950,2136950,17656,-2064,-1160,17814.04,24.34,-1.00,-1.0,2369
1953,2136953,16548,2292,2268,16859.22,24.39,-1.00,-1.0,2439
1956,2136956,15936,-388,-3048,16229.51,24.44,-1.00,-1.0,2373
1959,2136959,18256,-604,2380,18420.39,24.39,-1.00,-1.0,2435
1961,2136961,17768,-3244,-600,18071.67,24.34,-1.00,-1.0,2367
1964,2136964,16780,-1068,3324,17139.37,24.29,-1.00,-1.0,2364
1969,2136969,16668,3368,2272,17155.98,24.29,-1.00,-1.0,2440
1971,2136971,17472,-1216,-1784,17604.89,24.34,-1.00,-1.0,2356
1974,2136974,16372,-1228,4316,16975.81,24.39,-1.00,-1.0,2435
1977,2136977,17152,-3504,-676,17519.31,24.34,-1.00,-1.0,2366
1980,2136980,16984,2016,2112,17233.14,24.48,-1.00,-1.0,2437
1982,2136982,16712,1288,-2152,16899.14,24.34,-1.00,-1.0,2366
1985,2136985,16916,628,3008,17192.83,24.39,-1.00,-1.0,2435
1988,2136988,17092,-4460,-1004,17692.83,24.34,-1.00,-1.0,2369
1993,2136993,17024,-348,-2604,17225.52,24.34,-1.00,-1.0,2441
1996,2136996,16404,2120,488,16547.62,24.39,-1.00,-1.0,2370
1998,2136998,17928,-1020,252,17958.76,24.44,-1.00,-1.0,2432
2001,2137001,16600,-2060,4228,17253.39,24.39,-1.00,-1.0,2353
2004,2137004,16208,-2900,-1828,16566.56,24.34,-1.00,-1.0,2436
2007,2137007,18552,1740,-100,18633.69,24.39,-1.00,-1.0,2372
2009,2137009,15900,232,-364,15905.86,24.34,-1.00,-1.0,2435
2012,2137012,17092,-968,2100,17247.71,24.48,-1.00,-1.0,2381
2017,2137017,16220,148,3292,16551.36,24.39,-1.00,-1.0,2455
2020,2137020,17228,-772,-2784,17468.56,24.29,-1.00,-1.0,2377
2022,2137022,16896,304,-244,16900.50,24.44,-1.00,-1.0,2368
2025,2137025,17904,-1424,-392,17964.82,24.44,-1.00,-1.0,2433
2028,2137028,16012,-2160,2648,16372.59,24.34,-1.00,-1.0,2367
2031,2137031,16532,-876,-1568,16629.28,24.44,-1.00,-1.0,2437
2033,2137033,18644,444,-648,18660.54,24.44,-1.00,-1.0,2375
2036,2137036,16060,-924,-912,16112.39,24.44,-1.00,-1.0,2433
2039,2137039,17776,-1628,1652,17926.67,24.34,-1.00,-1.0,2370
2044,2137044,17748,776,1800,17855.91,24.39,-1.00,-1.0,2444
2046,2137046,15912,-56,-1356,15969.77,24.39,-1.00,-1.0,2368
2049,2137049,18436,-1180,548,18481.85,24.44,-1.00,-1.0,2443
2052,2137052,17208,-2304,-820,17380.91,24.39,-1.00,-1.0,2366
2055,2137055,17376,-996,1036,17435.33,24.44,-1.00,-1.0,2444
2057,2137057,16788,1092,36,16823.52,24.39,-1.00,-1.0,2366
2060,2137060,17572,-652,-1272,17630.04,24.44,-1.00,-1.0,2451
2063,2137063,16860,-1428,468,16926.84,24.48,-1.00,-1.0,2367
2068,2137068,16540,-1828,-672,16654.27,24.44,-1.00,-1.0,2448
2071,2137071,17372,872,728,17409.10,24.48,-1.00,-1.0,2369
2073,2137073,16564,12,-2640,16773.07,24.44,-1.00,-1.0,2353
2076,2137076,17716,180,2792,17935.56,24.44,-1.00,-1.0,2433
2079,2137079,15736,-2744,-264,15975.64,24.34,-1.00,-1.0,2374
2081,2137081,18276,-1324,552,18332.21,24.44,-1.00,-1.0,2419
2084,2137084,17164,-568,-1628,17250.39,24.44,-1.00,-1.0,2382
2087,2137087,17460,692,764,17490.40,24.44,-1.00,-1.0,2435
2090,2137090,15504,-264,296,15509.07,24.44,-1.00,-1.0,2369
2095,2137095,16540,-2324,-488,16709.60,24.39,-1.00,-1.0,2437
2097,2137097,17484,-944,256,17511.34,24.39,-1.00,-1.0,2370
2100,2137100,16984,-568,-2172,17131.74,24.39,-1.00,-1.0,2433
2103,2137103,17120,644,1188,17173.25,24.44,-1.00,-1.0,2367
2106,2137106,17176,-1388,-216,17233.35,24.39,-1.00,-1.0,2430
2108,2137108,17640,-1660,400,17722.45,24.44,-1.00,-1.0,2373
2111,2137111,16300,-1768,-996,16425.83,24.39,-1.00,-1.0,2433
2114,2137114,17976,288,-764,17994.53,24.44,-1.00,-1.0,2369
2117,2137117,16524,440,1016,16561.05,24.34,-1.00,-1.0,2363
2122,2137122,16364,-2372,636,16547.25,24.44,-1.00,-1.0,2445
2125,2137125,18320,-888,-432,18346.60,24.44,-1.00,-1.0,2370
2127,2137127,15892,2728,1820,16226.83,24.34,-1.00,-1.0,2443
2130,2137130,16784,440,-1080,16824.47,24.44,-1.00,-1.0,2374
2133,2137133,17516,-1164,2192,17690.96,24.44,-1.00,-1.0,2423
2135,2137135,17692,-2364,632,17860.43,24.39,-1.00,-1.0,2367
2138,2137138,16152,2312,4248,16860.54,24.44,-1.00,-1.0,2446
2141,2137141,18760,480,-1244,18807.33,24.44,-1.00,-1.0,2366
2146,2137146,18264,-1660,-52,18339.36,24.34,-1.00,-1.0,2439
2149,2137149,16128,-360,2672,16351.81,24.39,-1.00,-1.0,2377
2152,2137152,18552,-328,212,18556.11,24.34,-1.00,-1.0,2432
2154,2137154,15888,-160,-620,15900.90,24.39,-1.00,-1.0,2366
2157,2137157,17728,-828,-1216,17788.94,24.34,-1.00,-1.0,2433
2160,2137160,17364,-916,2064,17510.21,24.29,-1.00,-1.0,2368
2162,2137162,17392,-2352,-1328,17600.49,24.34,-1.00,-1.0,2361
2165,2137165,16056,-172,856,16079.72,24.34,-1.00,-1.0,2448
2168,2137168,18160,-444,-1316,18213.03,24.29,-1.00,-1.0,2367
2173,2137173,18260,-1952,-508,18371.06,24.48,-1.00,-1.0,2439
2176,2137176,15556,396,2904,15829.69,24.48,-1.00,-1.0,2366
2178,2137178,18380,-768,-1144,18431.57,24.39,-1.00,-1.0,2433
2181,2137181,15040,72,12,15040.18,24.39,-1.00,-1.0,2370
2184,2137184,19492,-1764,-100,19571.91,24.48,-1.00,-1.0,2431
2187,2137187,15164,-192,3368,15534.71,24.39,-1.00,-1.0,2374
2189,2137189,18200,-1360,-2608,18436.14,24.48,-1.00,-1.0,2422
2192,2137192,16008,1656,1384,16152.83,24.39,-1.00,-1.0,2383
2197,2137197,16580,-1296,1372,16687.07,24.48,-1.00,-1.0,2445
2200,2137200,18276,-2132,668,18412.06,24.44,-1.00,-1.0,2378
2203,2137203,16272,1448,3536,16714.60,24.39,-1.00,-1.0,2442
2205,2137205,17612,-112,-2708,17819.33,24.44,-1.00,-1.0,2369
2208,2137208,15444,1008,676,15491.62,24.39,-1.00,-1.0,2444
2211,2137211,18928,-2304,-148,19068.29,24.34,-1.00,-1.0,2376
2213,2137213,15612,-556,3908,16103.30,24.39,-1.00,-1.0,2367
2216,2137216,18288,-2000,-2216,18530.02,24.44,-1.00,-1.0,2432
2219,2137219,15688,1500,1696,15850.54,24.44,-1.00,-1.0,2370
2224,2137224,15352,-336,1020,15389.52,24.44,-1.00,-1.0,2439
2227,2137227,18760,-2124,280,18881.93,24.44,-1.00,-1.0,2372
2229,2137229,15736,312,3588,16142.89,24.44,-1.00,-1.0,2433
2232,2137232,17880,-1300,-2948,18167.97,24.34,-1.00,-1.0,2368
2235,2137235,15608,1692,2332,15871.70,24.44,-1.00,-1.0,2435
2238,2137238,18488,-1732,-1208,18608.20,24.44,-1.00,-1.0,2366
2240,2137240,15368,-36,4364,15975.64,24.34,-1.00,-1.0,2433
2243,2137243,18508,-2272,-2508,18814.84,24.34,-1.00,-1.0,2368
2248,2137248,18164,-1192,-2928,18437.05,24.44,-1.00,-1.0,2445
2251,2137251,15836,92,1408,15898.74,24.39,-1.00,-1.0,2370
2254,2137254,19000,-3104,76,19252.03,24.34,-1.00,-1.0,2428
2256,2137256,15288,92,4216,15858.94,24.39,-1.00,-1.0,2376
2259,2137259,18188,-472,-3196,18472.70,24.34,-1.00,-1.0,2432
2262,2137262,15532,2728,1864,15879.53,24.39,-1.00,-1.0,2355
2264,2137264,18028,-2316,-1964,18281.96,24.39,-1.00,-1.0,2347
2267,2137267,15936,-964,4620,16620.16,24.34,-1.00,-1.0,2432
2270,2137270,18876,-2252,992,19035.73,24.39,-1.00,-1.0,2367
2275,2137275,19432,952,-1424,19507.35,24.39,-1.00,-1.0,2440
2278,2137278,15288,164,1248,15339.73,24.39,-1.00,-1.0,2376
2280,2137280,19212,-2940,-1456,19490.11,24.39,-1.00,-1.0,2440
2283,2137283,15844,-1040,1340,15934.54,24.48,-1.00,-1.0,2383
2286,2137286,18940,112,520,18947.47,24.44,-1.00,-1.0,2435
2289,2137289,14732,1620,2312,15000.05,24.39,-1.00,-1.0,2372
2291,2137291,18848,-2520,-1308,19060.65,24.39,-1.00,-1.0,2435
2294,2137294,16768,-1600,1732,16932.97,24.39,-1.00,-1.0,2384
2299,2137299,15584,-472,-1244,15640.70,24.34,-1.00,-1.0,2437
2302,2137302,19092,704,28,19105.00,24.34,-1.00,-1.0,2371
2304,2137304,15644,-100,2592,15857.59,24.44,-1.00,-1.0,2434
2307,2137307,18312,-3524,-1960,18750.72,24.34,-1.00,-1.0,2369
2310,2137310,15540,-256,904,15568.38,24.44,-1.00,-1.0,2431
2313,2137313,19296,196,-860,19316.15,24.44,-1.00,-1.0,2366
2315,2137315,14200,876,1956,14360.83,24.34,-1.00,-1.0,2359
2318,2137318,19724,-3320,-708,20013.99,24.34,-1.00,-1.0,2439
2321,2137321,15140,700,3740,15610.80,24.44,-1.00,-1.0,2384
2326,2137326,15340,2008,2392,15654.69,24.48,-1.00,-1.0,2440
2329,2137329,18204,-420,248,18210.53,24.39,-1.00,-1.0,2369
2332,2137332,15448,-772,2904,15737.53,24.39,-1.00,-1.0,2438
2334,2137334,18792,-3132,-1328,19097.44,24.39,-1.00,-1.0,2354
2337,2137337,16216,1512,2504,16477.71,24.39,-1.00,-1.0,2435
2340,2137340,18284,48,-1800,18372.45,24.48,-1.00,-1.0,2367
2343,2137343,15744,1464,2480,16005.23,24.39,-1.00,-1.0,2441
2345,2137345,18664,-2932,-772,18908.66,24.48,-1.00,-1.0,2368
2350,2137350,19296,-2048,-1544,19465.71,24.44,-1.00,-1.0,2440
2353,2137353,15288,2072,2460,15622.67,24.44,-1.00,-1.0,2358
2356,2137356,18540,268,-716,18555.76,24.39,-1.00,-1.0,2432
2359,2137359,14596,544,2408,14803.30,24.44,-1.00,-1.0,2374
2361,2137361,19648,-3216,-504,19915.84,24.48,-1.00,-1.0,2435
2364,2137364,15484,872,4204,16068.24,24.44,-1.00,-1.0,2374
2367,2137367,18532,-896,-2100,18672.11,24.29,-1.00,-1.0,2360
2369,2137369,15400,2892,2720,15903.52,24.48,-1.00,-1.0,2433
2372,2137372,18612,-2492,-2048,18889.44,24.39,-1.00,-1.0,2369
2377,2137377,19580,-2776,-336,19778.66,24.44,-1.00,-1.0,2443
2380,2137380,15312,-396,148,15317.83,24.34,-1.00,-1.0,2357
2383,2137383,18936,880,-1772,19039.08,24.29,-1.00,-1.0,2441
2385,2137385,14672,504,1268,14735.31,24.34,-1.00,-1.0,2378
2388,2137388,19912,-3952,-996,20324.81,24.29,-1.00,-1.0,2438
2391,2137391,15256,-2208,1448,15482.81,24.34,-1.00,-1.0,2374
2394,2137394,19296,-528,-1148,19337.33,24.39,-1.00,-1.0,2443
2396,2137396,15016,2924,1784,15401.71,24.44,-1.00,-1.0,2379
2401,2137401,16724,-1272,2020,16893.51,24.44,-1.00,-1.0,2439
2404,2137404,19092,-2408,68,19243.38,24.34,-1.00,-1.0,2370
2407,2137407,14764,-728,-464,14789.22,24.34,-1.00,-1.0,2439
2409,2137409,19400,924,-780,19437.65,24.44,-1.00,-1.0,2368
2412,2137412,14640,36,1640,14731.62,24.34,-1.00,-1.0,2438
2415,2137415,19436,-3600,-1804,19848.74,24.44,-1.00,-1.0,2367
2418,2137418,15300,-1072,1248,15388.20,24.44,-1.00,-1.0,2365
2420,2137420,19792,120,780,19807.73,24.29,-1.00,-1.0,2441
2423,2137423,13520,1896,2324,13848.69,24.39,-1.00,-1.0,2368
2428,2137428,16668,-1700,1568,16827.68,24.48,-1.00,-1.0,2444
2431,2137431,16352,-1020,3392,16731.23,24.29,-1.00,-1.0,2371
2434,2137434,15788,-256,-1624,15873.37,24.39,-1.00,-1.0,2427
2436,2137436,19244,680,-196,19257.01,24.39,-1.00,-1.0,2379
2439,2137439,15308,-780,2156,15478.75,24.39,-1.00,-1.0,2432
2442,2137442,18300,-1856,2592,18575.61,24.39,-1.00,-1.0,2370
2445,2137445,14892,-260,492,14902.39,24.39,-1.00,-1.0,2440
2447,2137447,19984,764,-196,19999.56,24.39,-1.00,-1.0,2375
2452,2137452,19284,-328,2304,19423.92,24.44,-1.00,-1.0,2437
2455,2137455,15264,-2060,1436,15469.18,24.44,-1.00,-1.0,2369
2458,2137458,16660,308,3768,17083.57,24.39,-1.00,-1.0,2439
2460,2137460,16524,688,-1464,16602.99,24.44,-1.00,-1.0,2367
2463,2137463,18340,776,932,18380.05,24.29,-1.00,-1.0,2375
2466,2137466,16448,-2232,-908,16623.57,24.39,-1.00,-1.0,2436
2469,2137469,17820,-1220,4168,18341.57,24.39,-1.00,-1.0,2373
2471,2137471,15272,-804,16,15293.16,24.29,-1.00,-1.0,2440
2474,2137474,19048,1288,-784,19107.59,24.44,-1.00,-1.0,2368
2480,2137480,18296,-708,3984,18738.12,24.34,-1.00,-1.0,2448
2482,2137482,15264,-2420,292,15457.40,24.34,-1.00,-1.0,2369
2485,2137485,19432,-580,-1224,19479.15,24.39,-1.00,-1.0,2437
2488,2137488,14468,1812,480,14588.93,24.44,-1.00,-1.0,2368
2491,2137491,18340,996,2460,18531.03,24.48,-1.00,-1.0,2437
2493,2137493,14424,-1808,904,14564.95,24.44,-1.00,-1.0,2368
2496,2137496,20220,-2456,276,20370.48,24.48,-1.00,-1.0,2434
2499,2137499,14204,996,1760,14347.24,24.34,-1.00,-1.0,2368
2504,2137504,16952,-760,-3008,17233.57,24.39,-1.00,-1.0,2443
2506,2137506,17852,180,3916,18277.35,24.39,-1.00,-1.0,2369
2509,2137509,16184,-2780,-772,16439.17,24.39,-1.00,-1.0,2361
2512,2137512,18940,-164,1864,19032.21,24.34,-1.00,-1.0,2435
2515,2137515,17232,-740,-3656,17631.10,24.29,-1.00,-1.0,2377
2517,2137517,17808,2496,2468,18150.64,24.34,-1.00,-1.0,2434
2520,2137520,15992,-2012,-988,16148.32,24.39,-1.00,-1.0,2383
2523,2137523,19240,-2652,2784,19620.43,24.34,-1.00,-1.0,2434
2526,2137526,16776,-3364,-1932,17218.69,24.39,-1.00,-1.0,2376
2531,2137531,18084,-280,-4316,18594.01,24.39,-1.00,-1.0,2437
2533,2137533,16756,936,4152,17288.11,24.39,-1.00,-1.0,2371
2536,2137536,16776,-3456,-452,17134.25,24.29,-1.00,-1.0,2447
2539,2137539,15556,-192,4960,16328.74,24.39,-1.00,-1.0,2363
2542,2137542,17368,-1216,-4220,17914.64,24.48,-1.00,-1.0,2431
2544,2137544,17604,3416,3176,18211.45,24.39,-1.00,-1.0,2369
2547,2137547,16216,-2252,-1012,16402.88,24.39,-1.00,-1.0,2432
2550,2137550,15164,-1100,4648,15898.45,24.39,-1.00,-1.0,2412
2555,2137555,16608,3412,3672,17347.94,24.44,-1.00,-1.0,2441
2558,2137558,19824,-776,-2800,20035.80,24.34,-1.00,-1.0,2368
2560,2137560,15244,468,4724,15966.05,24.44,-1.00,-1.0,2434
2563,2137563,17816,-4032,-1720,18347.35,24.39,-1.00,-1.0,2354
2566,2137566,15156,888,3964,15690.96,24.44,-1.00,-1.0,2360
2568,2137568,18488,-688,-3404,18811.35,24.39,-1.00,-1.0,2432
2571,2137571,15740,2772,4684,16654.47,24.34,-1.00,-1.0,2366
2574,2137574,17652,-3684,-1464,18091.66,24.39,-1.00,-1.0,2432
2577,2137577,14740,-728,3628,15197.37,24.44,-1.00,-1.0,2365
2582,2137582,13336,2732,1748,13724.73,24.53,-1.00,-1.0,2441
2584,2137584,20320,-1212,-1360,20401.49,24.34,-1.00,-1.0,2377
2587,2137587,13876,-592,4020,14458.71,24.44,-1.00,-1.0,2433
2590,2137590,19328,-3792,-2072,19805.15,24.34,-1.00,-1.0,2369
2593,2137593,13248,1196,1476,13383.52,24.34,-1.00,-1.0,2443
2595,2137595,20424,92,-2028,20524.64,24.44,-1.00,-1.0,2374
2598,2137598,13940,708,4004,14520.91,24.34,-1.00,-1.0,2433
2601,2137601,18856,-4296,-1412,19390.67,24.34,-1.00,-1.0,2369
2606,2137606,19340,-888,-2508,19522.15,24.34,-1.00,-1.0,2448
2609,2137609,15416,1120,268,15458.96,24.39,-1.00,-1.0,2369
2611,2137611,18600,-988,-664,18638.05,24.34,-1.00,-1.0,2441
2614,2137614,15228,-772,3080,15555.53,24.48,-1.00,-1.0,2373
2617,2137617,19356,-3268,-2220,19755.07,24.44,-1.00,-1.0,2436
2619,2137619,13184,-312,284,13190.75,24.39,-1.00,-1.0,2366
2622,2137622,20552,-488,-1312,20599.62,24.44,-1.00,-1.0,2363
2625,2137625,13172,504,1340,13249.57,24.34,-1.00,-1.0,2435
2628,2137628,20508,-188,2728,20689.50,24.44,-1.00,-1.0,2371
2633,2137633,18412,1108,3604,18794.10,24.34,-1.00,-1.0,2443
2635,2137635,15992,-444,-1904,16111.07,24.44,-1.00,-1.0,2371
2638,2137638,18604,56,1416,18657.89,24.34,-1.00,-1.0,2447
2641,2137641,14200,-544,732,14229.26,24.34,-1.00,-1.0,2374
2644,2137644,18396,824,4064,18857.57,24.44,-1.00,-1.0,2444
2646,2137646,15812,-1656,-1868,16007.84,24.34,-1.00,-1.0,2370
2649,2137649,19052,304,1840,19143.06,24.34,-1.00,-1.0,2447
2652,2137652,13624,256,28,13626.43,24.34,-1.00,-1.0,2372
2657,2137657,15772,-2452,-1820,16064.89,24.34,-1.00,-1.0,2442
2659,2137659,16432,792,5336,17294.82,24.39,-1.00,-1.0,2356
2662,2137662,16748,-2096,-3224,17183.80,24.44,-1.00,-1.0,2434
2665,2137665,18024,2500,4248,18685.83,24.39,-1.00,-1.0,2366
2667,2137667,19152,-2868,-3744,19724.15,24.34,-1.00,-1.0,2360
2670,2137670,16268,520,4700,16941.32,24.34,-1.00,-1.0,2443
2673,2137673,17340,-2512,-2240,17663.62,24.29,-1.00,-1.0,2366
2676,2137676,17912,2652,4612,18685.38,24.44,-1.00,-1.0,2439
2678,2137678,18088,-1200,-3900,18542.54,24.34,-1.00,-1.0,2366
2683,2137683,19948,-3728,-1220,20330.00,24.29,-1.00,-1.0,2449
2686,2137686,14488,-232,4184,15081.84,24.44,-1.00,-1.0,2375
2689,2137689,18996,-1832,-4864,19694.23,24.39,-1.00,-1.0,2435
2692,2137692,12576,3352,2824,13317.91,24.44,-1.00,-1.0,2371
2694,2137694,20500,-2036,-1828,20681.80,24.39,-1.00,-1.0,2444
2697,2137697,14708,-876,5012,15563.19,24.44,-1.00,-1.0,2374
2700,2137700,18684,-3360,-2504,19148.14,24.39,-1.00,-1.0,2421
2702,2137702,14304,2280,1860,14603.51,24.34,-1.00,-1.0,2366
2707,2137707,13564,-768,-860,13612.92,24.39,-1.00,-1.0,2446
2710,2137710,20484,-4228,440,20920.42,24.39,-1.00,-1.0,2383
2713,2137713,15072,-808,1696,15188.63,24.39,-1.00,-1.0,2434
2716,2137716,18352,1636,1192,18463.29,24.39,-1.00,-1.0,2373
2718,2137718,13716,2708,-132,13981.39,24.39,-1.00,-1.0,2437
2721,2137721,19728,-1592,212,19793.27,24.39,-1.00,-1.0,2381
2724,2137724,15320,-4136,-1028,15901.75,24.39,-1.00,-1.0,2361
2727,2137727,20136,-2192,2576,20418.11,24.34,-1.00,-1.0,2432
2729,2137729,12948,1372,-604,13034.49,24.53,-1.00,-1.0,2366
2734,2137734,15212,-1220,-1804,15367.10,24.44,-1.00,-1.0,2437
2737,2137737,19164,-2164,3128,19537.81,24.44,-1.00,-1.0,2368
2740,2137740,15340,-1628,428,15432.08,24.44,-1.00,-1.0,2433
2743,2137743,19500,616,-1184,19545.62,24.34,-1.00,-1.0,2366
2745,2137745,15896,496,-2528,16103.40,24.44,-1.00,-1.0,2420
2748,2137748,18040,28,1716,18121.45,24.39,-1.00,-1.0,2366
2751,2137751,15492,-2636,1084,15752.00,24.34,-1.00,-1.0,2433
2754,2137754,18400,-812,5176,19131.40,24.39,-1.00,-1.0,2366
2759,2137759,20068,2108,436,20183.12,24.39,-1.00,-1.0,2442
2761,2137761,16024,-952,-2936,16318.55,24.48,-1.00,-1.0,2368
2764,2137764,18960,36,5700,19798.30,24.39,-1.00,-1.0,2444
2767,2137767,13796,-3768,-1264,14357.06,24.39,-1.00,-1.0,2374
2770,2137770,20256,1120,1884,20374.23,24.39,-1.00,-1.0,2435
2772,2137772,17340,-340,-3448,17682.76,24.39,-1.00,-1.0,2365
2775,2137775,16996,2176,4280,17661.18,24.39,-1.00,-1.0,2366
2778,2137778,15652,-3320,-2032,16128.75,24.39,-1.00,-1.0,2434
2781,2137781,15912,996,6556,17238.47,24.39,-1.00,-1.0,2373
2786,2137786,13828,2316,3980,14574.56,24.39,-1.00,-1.0,2438
2788,2137788,19160,-1624,-3528,19549.67,24.39,-1.00,-1.0,2368
2791,2137791,16008,2328,6288,17355.54,24.29,-1.00,-1.0,2450
2794,2137794,17380,-4204,-3492,18219.00,24.39,-1.00,-1.0,2375
2797,2137797,15324,720,5084,16161.39,24.29,-1.00,-1.0,2443
2799,2137799,18056,-2328,-3516,18541.87,24.39,-1.00,-1.0,2368
2802,2137802,16064,3480,4812,17126.53,24.39,-1.00,-1.0,2442
2805,2137805,16848,-3388,-4044,17654.68,24.39,-1.00,-1.0,2378
2810,2137810,19172,-3928,-1796,19652.49,24.48,-1.00,-1.0,2445
2812,2137812,13024,868,1492,13137.89,24.34,-1.00,-1.0,2368
2815,2137815,20872,116,-2764,21054.54,24.39,-1.00,-1.0,2434
2818,2137818,13400,2428,4312,14284.56,24.34,-1.00,-1.0,2366
2821,2137821,19992,-5080,-1648,20693.05,24.39,-1.00,-1.0,2435
2823,2137823,13836,-1720,2224,14118.76,24.34,-1.00,-1.0,2366
2826,2137826,20544,-728,-1920,20646.36,24.48,-1.00,-1.0,2435
2829,2137829,13124,4228,3860,14318.34,24.44,-1.00,-1.0,2367
2832,2137832,19988,-3036,-2744,20402.62,24.29,-1.00,-1.0,2362
2837,2137837,18020,-1472,3968,18510.33,24.39,-1.00,-1.0,2437
2839,2137839,15092,-136,-1292,15147.81,24.29,-1.00,-1.0,2371
2842,2137842,19480,2316,176,19617.98,24.44,-1.00,-1.0,2447
2845,2137845,13228,-444,816,13260.58,24.39,-1.00,-1.0,2373
2848,2137848,19252,-1504,3976,19715.73,24.44,-1.00,-1.0,2439
2850,2137850,16044,-2576,-104,16249.82,24.39,-1.00,-1.0,2369
2853,2137853,19076,1700,676,19163.53,24.44,-1.00,-1.0,2449
2856,2137856,13072,2988,792,13432.52,24.39,-1.00,-1.0,2373
2861,2137861,14964,-4188,-592,15550.28,24.39,-1.00,-1.0,2446
2863,2137863,17368,-764,5936,18370.28,24.39,-1.00,-1.0,2369
2866,2137866,16120,-1028,-3172,16461.25,24.39,-1.00,-1.0,2435
2869,2137869,18452,4040,2500,19053.82,24.39,-1.00,-1.0,2366
2872,2137872,15792,-1612,-1544,15948.97,24.39,-1.00,-1.0,2442
2874,2137874,15360,-884,6152,16569.80,24.29,-1.00,-1.0,2367
2877,2137877,17280,-4080,-2204,17891.41,24.29,-1.00,-1.0,2434
2880,2137880,17448,2876,3152,17962.16,24.44,-1.00,-1.0,2353
2885,2137885,16352,1500,4788,17104.47,24.39,-1.00,-1.0,2446
2887,2137887,18880,-3840,-1916,19361.59,24.48,-1.00,-1.0,2369
2890,2137890,15664,552,5592,16641.40,24.39,-1.00,-1.0,2360
2893,2137893,18080,-2628,-4340,18778.40,24.29,-1.00,-1.0,2439
2895,2137895,13556,2252,2860,14036.25,24.39,-1.00,-1.0,2366
2898,2137898,19884,-1928,-1832,20061.08,24.44,-1.00,-1.0,2441
2901,2137901,13588,532,4800,14420.71,24.39,-1.00,-1.0,2367
2904,2137904,19472,-3572,-3056,20031.40,24.48,-1.00,-1.0,2438
2907,2137907,15592,2504,5140,16607.23,24.39,-1.00,-1.0,2366
2911,2137911,14108,-32,-888,14135.96,24.39,-1.00,-1.0,2426
2914,2137914,20084,-1420,144,20134.65,24.29,-1.00,-1.0,2369
2917,2137917,13756,192,2904,14060.50,24.39,-1.00,-1.0,2432
2920,2137920,19912,-2740,-1540,20158.54,24.39,-1.00,-1.0,2366
2922,2137922,15232,-588,-1100,15282.98,24.29,-1.00,-1.0,2435
2925,2137925,19488,-400,20,19492.12,24.39,-1.00,-1.0,2366
2928,2137928,13972,800,2700,14252.96,24.39,-1.00,-1.0,2433
2931,2137931,19628,-2904,-1844,19927.17,24.48,-1.00,-1.0,2365
2936,2137936,19532,-508,172,19539.36,24.48,-1.00,-1.0,2439
2938,2137938,15944,-1436,-2916,16271.95,24.39,-1.00,-1.0,2372
2941,2137941,19012,1048,3732,19403.15,24.39,-1.00,-1.0,2360
2944,2137944,14344,-2412,-424,14551.56,24.39,-1.00,-1.0,2439
2946,2137946,17560,788,4900,18247.86,24.39,-1.00,-1.0,2367
2949,2137949,16388,-912,-2828,16655.21,24.34,-1.00,-1.0,2435
2952,2137952,18836,2592,3532,19338.78,24.48,-1.00,-1.0,2370
2955,2137955,14104,-1992,-1100,14286.39,24.44,-1.00,-1.0,2433
2958,2137958,19848,-2164,1276,20006.35,24.29,-1.00,-1.0,2366
2963,2137963,17464,2348,3908,18049.29,24.39,-1.00,-1.0,2439
2965,2137965,19012,-1684,-4972,19723.41,24.39,-1.00,-1.0,2372
2968,2137968,16468,2656,5548,17579.24,24.34,-1.00,-1.0,2432
2971,2137971,17896,-4544,-2696,18659.67,24.39,-1.00,-1.0,2368
2974,2137974,17124,520,4596,17737.67,24.39,-1.00,-1.0,2431
2976,2137976,18784,-1812,-3772,19244.48,24.39,-1.00,-1.0,2370
2979,2137979,16276,3720,3924,17150.64,24.39,-1.00,-1.0,2432
2982,2137982,17008,-3152,-3304,17610.33,24.39,-1.00,-1.0,2369
2987,2137987,19432,-3708,-1548,19843.09,24.48,-1.00,-1.0,2442
2990,2137990,14972,2892,3864,15730.70,24.39,-1.00,-1.0,2376
2992,2137992,19992,-196,-3708,20333.91,24.48,-1.00,-1.0,2440
2995,2137995,14252,2692,4812,15281.42,24.39,-1.00,-1.0,2381
2998,2137998,19100,-4060,-2076,19636.79,24.39,-1.00,-1.0,2433
3001,2138001,15608,528,5688,16620.52,24.39,-1.00,-1.0,2374
3003,2138003,20700,-2492,-2112,20956.16,24.39,-1.00,-1.0,2360
3006,2138006,13168,2760,3400,13877.10,24.44,-1.00,-1.0,2432
3009,2138009,20056,-1880,-2560,20305.94,24.44,-1.00,-1.0,2377
3014,2138014,20928,-3096,-532,21162.45,24.44,-1.00,-1.0,2444
3016,2138016,13700,972,2836,14024.18,24.34,-1.00,-1.0,2368
3019,2138019,18748,288,416,18754.83,24.34,-1.00,-1.0,2435
3022,2138022,15316,1036,916,15378.30,24.34,-1.00,-1.0,2368
3025,2138025,18836,-2396,-1144,19022.21,24.44,-1.00,-1.0,2433
3027,2138027,15156,120,4044,15686.70,24.34,-1.00,-1.0,2367
3030,2138030,19748,-808,1712,19838.53,24.44,-1.00,-1.0,2435
3033,2138033,13156,396,572,13174.38,24.34,-1.00,-1.0,2367
3038,2138038,14312,-1124,-1984,14492.51,24.34,-1.00,-1.0,2437
3041,2138041,20992,-360,2872,21190.61,24.39,-1.00,-1.0,2369
3043,2138043,12176,-752,404,12205.89,24.34,-1.00,-1.0,2433
3046,2138046,18504,1900,4056,19038.36,24.39,-1.00,-1.0,2370
3049,2138049,15592,-852,-2236,15774.54,24.44,-1.00,-1.0,2360
3051,2138051,19132,228,2304,19271.58,24.34,-1.00,-1.0,2431
3054,2138054,18316,-3572,-3548,18995.35,24.44,-1.00,-1.0,2368
3057,2138057,17476,1316,4836,18180.46,24.44,-1.00,-1.0,2431
3060,2138060,16776,-1704,-2160,17000.10,24.39,-1.00,-1.0,2373
3065,2138065,18664,-2352,-3372,19111.44,24.29,-1.00,-1.0,2447
3067,2138067,16628,1612,4856,17397.40,24.48,-1.00,-1.0,2370
3070,2138070,19568,-3424,-3044,20097.17,24.48,-1.00,-1.0,2442
3073,2138073,15156,1440,5352,16137.59,24.39,-1.00,-1.0,2367
3076,2138076,17880,-2416,-3472,18373.52,24.39,-1.00,-1.0,2440
3078,2138078,17096,2948,5332,18149.22,24.48,-1.00,-1.0,2368
3081,2138081,19684,-2840,-3964,20279.02,24.39,-1.00,-1.0,2444
3084,2138084,15716,1352,5796,16805.18,24.39,-1.00,-1.0,2367
3089,2138089,12924,1880,3288,13467.56,24.34,-1.00,-1.0,2448
3092,2138092,20880,-1816,-3168,21196.90,24.48,-1.00,-1.0,2376
3094,2138094,14160,1688,5588,15316.03,24.34,-1.00,-1.0,2439
3097,2138097,21276,-3108,-660,21511.94,24.39,-1.00,-1.0,2380
3100,2138100,12564,448,2844,12889.65,24.44,-1.00,-1.0,2435
3103,2138103,21384,-988,-3224,21648.23,24.39,-1.00,-1.0,2372
3105,2138105,12984,3100,5604,14477.54,24.44,-1.00,-1.0,2440
3108,2138108,20528,-1856,164,20612.38,24.39,-1.00,-1.0,2382
3111,2138111,13968,-828,3016,14313.87,24.44,-1.00,-1.0,2346
3116,2138116,14980,1500,-252,15057.02,24.44,-1.00,-1.0,2439
3118,2138118,19524,540,-228,19532.80,24.44,-1.00,-1.0,2378
3121,2138121,15704,-2516,-3220,16226.96,24.44,-1.00,-1.0,2432
3124,2138124,19660,-1632,3812,20092.54,24.34,-1.00,-1.0,2369
3127,2138127,15300,-828,-4,15322.39,24.34,-1.00,-1.0,2435
3129,2138129,19396,1020,-136,19423.28,24.34,-1.00,-1.0,2376
3132,2138132,15444,-348,-4240,16019.23,24.39,-1.00,-1.0,2432
3135,2138135,19860,964,3528,20193.95,24.44,-1.00,-1.0,2370
3140,2138140,17240,244,5812,18194.96,24.44,-1.00,-1.0,2442
3143,2138143,16252,-1040,-3136,16584.44,24.44,-1.00,-1.0,2372
3145,2138145,18404,3364,2720,18905.61,24.34,-1.00,-1.0,2434
3148,2138148,19028,-2096,-2892,19360.31,24.34,-1.00,-1.0,2374
3151,2138151,15360,-44,6052,16509.34,24.34,-1.00,-1.0,2433
3154,2138154,17496,-3616,-1908,17967.36,24.44,-1.00,-1.0,2373
3156,2138156,17188,2352,3464,17690.63,24.44,-1.00,-1.0,2433
3159,2138159,18372,-1132,-4068,18851.01,24.44,-1.00,-1.0,2374
3162,2138162,16496,2288,4764,17321.91,24.39,-1.00,-1.0,2359
3167,2138167,15160,88,5620,16168.42,24.34,-1.00,-1.0,2453
3170,2138170,18740,-3384,-4020,19462.77,24.34,-1.00,-1.0,2375
3173,2138173,16512,3384,4208,17372.53,24.34,-1.00,-1.0,2445
3175,2138175,16596,-1732,-3336,17016.34,24.44,-1.00,-1.0,2377
3178,2138178,13264,1244,4676,14119.00,24.34,-1.00,-1.0,2440
3181,2138181,20200,-4256,-2636,20811.10,24.34,-1.00,-1.0,2374
3184,2138184,14752,1716,5436,15815.06,24.48,-1.00,-1.0,2441
3186,2138186,18568,-1584,-2760,18838.72,24.44,-1.00,-1.0,2375
3191,2138191,20264,-2780,-3484,20748.41,24.25,-1.00,-1.0,2439
3194,2138194,13548,-56,2988,13873.70,24.44,-1.00,-1.0,2369
3197,2138197,20116,-3308,-2164,20500.71,24.44,-1.00,-1.0,2439
3199,2138199,13452,1860,3260,13965.80,24.48,-1.00,-1.0,2365
3202,2138202,20036,-1688,-3556,20419.01,24.44,-1.00,-1.0,2439
3205,2138205,13388,656,1748,13517.56,24.39,-1.00,-1.0,2366
3208,2138208,20692,-3256,-1648,21011.34,24.34,-1.00,-1.0,2438
3210,2138210,13784,728,4100,14399.26,24.39,-1.00,-1.0,2366
3215,2138215,13552,1616,100,13648.38,24.39,-1.00,-1.0,2439
3218,2138218,17980,2532,4528,18713.48,24.29,-1.00,-1.0,2369
3221,2138221,15108,-3120,-1580,15507.50,24.44,-1.00,-1.0,2367
3224,2138224,19660,-2136,1116,19807.16,24.34,-1.00,-1.0,2433
3226,2138226,13712,1088,-112,13755.55,24.34,-1.00,-1.0,2368
3229,2138229,17960,3880,4088,18823.60,24.44,-1.00,-1.0,2432
3232,2138232,14356,-1452,-2736,14686.35,24.39,-1.00,-1.0,2365
3234,2138234,20456,-1936,2392,20686.17,24.44,-1.00,-1.0,2435
3237,2138237,17780,-4584,-1660,18436.30,24.39,-1.00,-1.0,2367
3242,2138242,20352,-888,-4836,20937.51,24.29,-1.00,-1.0,2437
3245,2138245,14356,3684,5736,15892.40,24.39,-1.00,-1.0,2371
3248,2138248,19068,-5028,-2632,19894.64,24.29,-1.00,-1.0,2434
3250,2138250,16192,-164,5864,17221.91,24.48,-1.00,-1.0,2374
3253,2138253,19776,-2672,-3520,20263.77,24.48,-1.00,-1.0,2433
3256,2138256,14992,4544,3836,16128.33,24.48,-1.00,-1.0,2367
3259,2138259,18092,-2524,-4124,18726.94,24.39,-1.00,-1.0,2435
3261,2138261,17032,-96,6964,18400.96,24.48,-1.00,-1.0,2374
3266,2138266,14848,1940,3264,15325.81,24.39,-1.00,-1.0,2447
3269,2138269,19892,256,-2296,20025.70,24.48,-1.00,-1.0,2375
3272,2138272,13000,3216,3968,13967.38,24.48,-1.00,-1.0,2438
3275,2138275,20128,-3828,-1788,20566.65,24.39,-1.00,-1.0,2373
3277,2138277,13676,-2360,1400,13948.57,24.39,-1.00,-1.0,2360
3280,2138280,20876,-2680,-968,21069.57,24.44,-1.00,-1.0,2432
3283,2138283,12444,2840,1636,12868.38,24.39,-1.00,-1.0,2366
3285,2138285,21056,-816,-3532,21365.77,24.29,-1.00,-1.0,2434
3288,2138288,13720,-720,-100,13739.24,24.39,-1.00,-1.0,2368
3294,2138294,13772,-212,2376,13977.06,24.34,-1.00,-1.0,2451
3296,2138296,20284,-660,-3164,20539.89,24.39,-1.00,-1.0,2368
3299,2138299,13676,2768,2944,14260.50,24.34,-1.00,-1.0,2436
3302,2138302,19336,-1044,32,19364.19,24.44,-1.00,-1.0,2367
3305,2138305,14684,-1276,3208,15084.41,24.44,-1.00,-1.0,2440
3307,2138307,20120,-3568,-2228,20555.02,24.39,-1.00,-1.0,2365
3310,2138310,14144,2944,3900,14964.29,24.34,-1.00,-1.0,2433
3313,2138313,19920,1052,-1048,19975.27,24.34,-1.00,-1.0,2367
3318,2138318,19532,548,5388,20268.94,24.44,-1.00,-1.0,2444
3320,2138320,13620,-3500,-384,14067.76,24.34,-1.00,-1.0,2368
3323,2138323,20536,-604,952,20566.93,24.39,-1.00,-1.0,2436
3326,2138326,16676,-948,-3156,16998.47,24.34,-1.00,-1.0,2366
3329,2138329,17632,3420,3800,18358.21,24.34,-1.00,-1.0,2440
3331,2138331,15672,-2844,-2032,16057.05,24.44,-1.00,-1.0,2365
3334,2138334,15728,452,7080,17254.01,24.39,-1.00,-1.0,2359
3337,2138337,17988,-3288,-2068,18402.60,24.39,-1.00,-1.0,2440
3339,2138339,16232,3304,4468,17156.84,24.44,-1.00,-1.0,2353
3344,2138344,15068,2184,5892,16325.75,24.44,-1.00,-1.0,2436
3347,2138347,18108,-4652,-2448,18855.60,24.44,-1.00,-1.0,2368
3350,2138350,14084,188,5072,14970.62,24.44,-1.00,-1.0,2432
3353,2138353,19284,-1744,-3576,19690.15,24.44,-1.00,-1.0,2367
3355,2138355,14764,3608,4748,15922.84,24.44,-1.00,-1.0,2432
3358,2138358,18488,-3872,-4268,19365.29,24.44,-1.00,-1.0,2366
3361,2138361,13372,-124,5580,14490.07,24.44,-1.00,-1.0,2433
3364,2138364,19760,-4000,-2352,20297.53,24.44,-1.00,-1.0,2367
3369,2138369,21500,312,-2216,21616.15,24.44,-1.00,-1.0,2444
3371,2138371,12008,948,4036,12703.54,24.39,-1.00,-1.0,2372
3374,2138374,20860,-4880,-1224,21458.15,24.44,-1.00,-1.0,2441
3377,2138377,14684,-1572,384,14772.90,24.48,-1.00,-1.0,2374
3380,2138380,20504,224,-972,20528.25,24.44,-1.00,-1.0,2442
3382,2138382,11744,3616,2212,12485.59,24.39,-1.00,-1.0,2371
3385,2138385,19352,1340,2636,19576.62,24.25,-1.00,-1.0,2362
3388,2138388,15296,-3124,636,15624.71,24.44,-1.00,-1.0,2428
3390,2138390,19280,-3160,460,19542.66,24.39,-1.00,-1.0,2374
3395,2138395,18208,3816,1744,18685.14,24.29,-1.00,-1.0,2448
3398,2138398,17796,-1580,-4276,18370.58,24.39,-1.00,-1.0,2375
3401,2138401,17504,-220,6528,18682.96,24.44,-1.00,-1.0,2423
3403,2138403,16836,-4500,-704,17441.23,24.29,-1.00,-1.0,2366
3406,2138406,17948,2360,3224,18387.35,24.34,-1.00,-1.0,2445
3409,2138409,18208,-520,-6296,19272.81,24.39,-1.00,-1.0,2366
3412,2138412,17208,3644,5212,18345.54,24.34,-1.00,-1.0,2443
3414,2138414,16456,-5208,-1960,17371.38,24.39,-1.00,-1.0,2367
3419,2138419,20032,-3016,-3852,20620.75,24.48,-1.00,-1.0,2437
3422,2138422,14684,4932,3828,15956.13,24.39,-1.00,-1.0,2368
3425,2138425,21120,-672,-3408,21403.75,24.48,-1.00,-1.0,2433
3428,2138428,13472,-316,4284,14140.27,24.29,-1.00,-1.0,2367
3430,2138430,20144,-4664,-2176,20791.07,24.39,-1.00,-1.0,2432
3433,2138433,15088,2408,5076,16100.06,24.39,-1.00,-1.0,2366
3436,2138436,19636,-736,-3444,19949.32,24.39,-1.00,-1.0,2434
3439,2138439,14652,2824,3192,15259.26,24.39,-1.00,-1.0,2367
3441,2138441,18748,-3360,-3080,19294.13,24.39,-1.00,-1.0,2363
3446,2138446,20408,-3232,-2144,20773.28,24.29,-1.00,-1.0,2440
3449,2138449,13976,-260,-720,13996.95,24.39,-1.00,-1.0,2369
3452,2138452,20048,380,-1100,20081.75,24.39,-1.00,-1.0,2440
3454,2138454,12820,240,28,12822.28,24.48,-1.00,-1.0,2366
3457,2138457,22600,-3136,-1304,22853.77,24.39,-1.00,-1.0,2437
3460,2138460,13776,-2996,-548,14108.67,24.29,-1.00,-1.0,2367
3463,2138463,20208,-372,468,20216.84,24.48,-1.00,-1.0,2440
3465,2138465,13644,1548,-1124,13777.46,24.39,-1.00,-1.0,2365
3470,2138470,16184,-2940,-1320,16501.75,24.48,-1.00,-1.0,2440
3473,2138473,18884,-2168,1152,19042.92,24.34,-1.00,-1.0,2356
3476,2138476,17788,-2668,-2072,18105.92,24.39,-1.00,-1.0,2432
3479,2138479,17036,3280,4088,17824.01,24.53,-1.00,-1.0,2363
3481,2138481,15320,-944,-2276,15516.88,24.48,-1.00,-1.0,2437
3484,2138484,19508,-776,2972,19748.34,24.34,-1.00,-1.0,2382
3487,2138487,17748,-4700,-2836,18577.52,24.39,-1.00,-1.0,2436
3490,2138490,17408,1116,4716,18069.99,24.44,-1.00,-1.0,2374
3494,2138494,14664,3800,4808,15893.07,24.39,-1.00,-1.0,2439
3497,2138497,18828,-3992,-4372,19736.87,24.39,-1.00,-1.0,2369
3500,2138500,13836,-120,6020,15089.39,24.39,-1.00,-1.0,2432
3503,2138503,19016,-4192,-2096,19585.05,24.39,-1.00,-1.0,2366
3505,2138505,14372,4148,5296,15868.46,24.39,-1.00,-1.0,2346
3508,2138508,18456,-1220,-4316,18993.16,24.44,-1.00,-1.0,2433
3511,2138511,12540,1168,4496,13372.73,24.39,-1.00,-1.0,2367
3513,2138513,20240,-5200,-1324,20939.21,24.44,-1.00,-1.0,2432
3516,2138516,13924,1208,4836,14789.32,24.44,-1.00,-1.0,2367
3521,2138521,12028,3404,3036,12863.80,24.39,-1.00,-1.0,2453
3524,2138524,19812,220,2220,19937.21,24.48,-1.00,-1.0,2377
3527,2138527,14816,-2580,1416,15105.47,24.48,-1.00,-1.0,2440
3529,2138529,19516,-2972,-864,19759.90,24.39,-1.00,-1.0,2378
3532,2138532,13764,3676,1880,14369.94,24.39,-1.00,-1.0,2439
3535,2138535,19036,2580,588,19219.04,24.39,-1.00,-1.0,2374
3538,2138538,13368,-1812,-464,13498.22,24.39,-1.00,-1.0,2440
3540,2138540,20984,-4472,0,21455.23,24.39,-1.00,-1.0,2376
3545,2138545,18160,2248,1784,18385.37,24.48,-1.00,-1.0,2447
3548,2138548,13276,1352,-1100,13389.92,24.29,-1.00,-1.0,2376
3551,2138551,17820,2372,4960,18648.87,24.39,-1.00,-1.0,2422
3553,2138553,15852,-4720,-1696,16626.51,24.34,-1.00,-1.0,2366
3556,2138556,19160,-824,3724,19535.94,24.39,-1.00,-1.0,2361
3559,2138559,17772,-2388,-3280,18229.23,24.39,-1.00,-1.0,2435
3562,2138562,16760,4316,3968,17755.86,24.29,-1.00,-1.0,2374
3564,2138564,16292,-1684,-2176,16522.71,24.34,-1.00,-1.0,2434
3567,2138567,18120,-972,4864,18786.63,24.39,-1.00,-1.0,2374
3572,2138572,15852,2720,5136,16883.80,24.29,-1.00,-1.0,2448
3575,2138575,16796,-560,-3308,17127.82,24.29,-1.00,-1.0,2377
3578,2138578,14964,2952,4404,15875.48,24.39,-1.00,-1.0,2428
3580,2138580,17924,-4000,-3332,18664.73,24.39,-1.00,-1.0,2365
3583,2138583,17176,936,6444,18368.89,24.39,-1.00,-1.0,2442
3586,2138586,16284,-2776,-3300,16845.32,24.39,-1.00,-1.0,2367
3589,2138589,15016,3072,4404,15947.18,24.39,-1.00,-1.0,2442
3591,2138591,18076,-1368,-3268,18419.91,24.39,-1.00,-1.0,2366
3597,2138597,21916,-4212,-2856,22499.08,24.44,-1.00,-1.0,2439
3599,2138599,13272,712,5268,14297.02,24.34,-1.00,-1.0,2369
3602,2138602,19712,-2104,-3196,20079.95,24.34,-1.00,-1.0,2434
3605,2138605,14512,3592,5360,15881.76,24.44,-1.00,-1.0,2365
3608,2138608,21228,-2156,-2624,21497.95,24.44,-1.00,-1.0,2442
3610,2138610,13412,676,6432,14889.91,24.34,-1.00,-1.0,2369
3613,2138613,19488,-3844,-2264,19992.10,24.44,-1.00,-1.0,2359
3616,2138616,13912,952,1128,13990.08,24.39,-1.00,-1.0,2442
3618,2138618,20656,-436,-2848,20855.97,24.34,-1.00,-1.0,2366
3623,2138623,20004,-2364,356,20146.35,24.34,-1.00,-1.0,2439
3626,2138626,14300,-628,2376,14509.64,24.39,-1.00,-1.0,2369
3629,2138629,19816,-1824,-2268,20028.60,24.44,-1.00,-1.0,2419
3632,2138632,14012,876,-1768,14150.24,24.34,-1.00,-1.0,2367
3634,2138634,20508,440,1180,20546.63,24.44,-1.00,-1.0,2435
3637,2138637,13472,-1104,2724,13788.90,24.39,-1.00,-1.0,2369
3640,2138640,20108,-3664,-1404,20487.26,24.34,-1.00,-1.0,2432
3643,2138643,14940,-324,-1580,15026.81,24.44,-1.00,-1.0,2370
3648,2138648,15932,-1372,-3768,16428.90,24.39,-1.00,-1.0,2439
3650,2138650,19124,-956,3888,19538.62,24.39,-1.00,-1.0,2371
3653,2138653,15660,-2956,-772,15955.24,24.44,-1.00,-1.0,2459
3656,2138656,19524,944,1656,19616.83,24.44,-1.00,-1.0,2353
3659,2138659,17104,-680,-4872,17797.35,24.39,-1.00,-1.0,2444
3661,2138661,17924,2376,3780,18471.70,24.34,-1.00,-1.0,2364
3664,2138664,16252,-4080,-1444,16818.41,24.39,-1.00,-1.0,2437
3667,2138667,18564,-1784,2320,18793.27,24.34,-1.00,-1.0,2366
3672,2138672,17828,4068,3092,18545.80,24.44,-1.00,-1.0,2443
3675,2138675,18636,-1784,-3768,19096.62,24.44,-1.00,-1.0,2377
3677,2138677,15892,240,7040,17383.18,24.44,-1.00,-1.0,2360
3680,2138680,18124,-4256,-716,18630.77,24.48,-1.00,-1.0,2440
3683,2138683,13848,1184,3348,14296.09,24.44,-1.00,-1.0,2364
3685,2138685,19124,-644,-6016,20058.27,24.29,-1.00,-1.0,2436
3688,2138688,15784,3240,5444,17007.92,24.44,-1.00,-1.0,2363
3691,2138691,17384,-4880,-2392,18213.72,24.29,-1.00,-1.0,2423
3694,2138694,14716,-932,5620,15780.17,24.44,-1.00,-1.0,2365
3698,2138698,12684,2296,1224,12948.11,24.39,-1.00,-1.0,2436
3701,2138701,20812,-320,-2880,21012.76,24.44,-1.00,-1.0,2365
3704,2138704,13456,-32,3436,13887.80,24.48,-1.00,-1.0,2428
3707,2138707,19852,-3012,1808,20160.43,24.34,-1.00,-1.0,2366
3709,2138709,14380,-516,1908,14515.20,24.39,-1.00,-1.0,2436
3712,2138712,19796,-796,-2828,20012.82,24.34,-1.00,-1.0,2366
3715,2138715,14616,2856,2356,15077.63,24.39,-1.00,-1.0,2436
3718,2138718,18832,-448,444,18842.56,24.44,-1.00,-1.0,2365
3722,2138722,18588,-708,3968,19019.99,24.39,-1.00,-1.0,2437
3725,2138725,14564,-468,-680,14587.38,24.39,-1.00,-1.0,2365
3728,2138728,19632,196,-844,19651.11,24.44,-1.00,-1.0,2426
3731,2138731,15456,-772,-2884,15741.71,24.39,-1.00,-1.0,2448
3733,2138733,19752,1164,5268,20475.55,24.39,-1.00,-1.0,2364
3736,2138736,13980,-2608,-96,14221.51,24.44,-1.00,-1.0,2438
3739,2138739,19736,-1140,432,19773.62,24.48,-1.00,-1.0,2364
3742,2138742,16920,-852,-2972,17200.15,24.48,-1.00,-1.0,2443
3744,2138744,17844,3176,3564,18471.53,24.44,-1.00,-1.0,2363
3749,2138749,16676,-56,6196,17789.96,24.39,-1.00,-1.0,2439
3752,2138752,17628,-2944,-1464,17932.01,24.39,-1.00,-1.0,2366
3755,2138755,17132,3248,4164,17927.46,24.39,-1.00,-1.0,2439
3758,2138758,18576,-652,-4848,19209.27,24.39,-1.00,-1.0,2364
3760,2138760,17036,2136,5168,17930.31,24.44,-1.00,-1.0,2423
3763,2138763,17176,-4748,-2372,17977.34,24.39,-1.00,-1.0,2364
3766,2138766,17864,428,4604,18452.71,24.48,-1.00,-1.0,2439
3769,2138769,18740,-1560,-3752,19175.47,24.39,-1.00,-1.0,2364
3774,2138774,20136,-2268,-3056,20492.47,24.39,-1.00,-1.0,2444
3776,2138776,14840,280,5928,15982.65,24.39,-1.00,-1.0,2377
3779,2138779,18852,-3460,-2084,19279.85,24.29,-1.00,-1.0,2359
3782,2138782,15256,3584,5256,16529.25,24.53,-1.00,-1.0,2444
3784,2138784,20512,-420,-3196,20763.74,24.39,-1.00,-1.0,2364
3787,2138787,14544,1824,4160,15236.81,24.44,-1.00,-1.0,2437
3790,2138790,18968,-4452,-1208,19520.88,24.39,-1.00,-1.0,2363
3793,2138793,15388,1552,5972,16579.02,24.34,-1.00,-1.0,2465
3796,2138796,20944,-920,-2416,21102.95,24.34,-1.00,-1.0,2371
3801,2138801,19472,-732,276,19487.71,24.34,-1.00,-1.0,2439
3803,2138803,14488,-840,2384,14706.84,24.44,-1.00,-1.0,2367
3806,2138806,19780,-3244,-2060,20149.83,24.48,-1.00,-1.0,2455
3809,2138809,15008,2912,3124,15603.82,24.44,-1.00,-1.0,2375
3812,2138812,18944,540,-236,18953.16,24.48,-1.00,-1.0,2449
3814,2138814,13280,-124,1984,13427.96,24.44,-1.00,-1.0,2366
3817,2138817,20408,-3464,-1136,20731.04,24.39,-1.00,-1.0,2451
3820,2138820,14460,244,2820,14734.43,24.34,-1.00,-1.0,2371
3825,2138825,13832,2300,1844,14142.65,24.34,-1.00,-1.0,2441
3827,2138827,18652,1072,2732,18881.47,24.34,-1.00,-1.0,2365
3830,2138830,14880,-2416,52,15074.95,24.34,-1.00,-1.0,2442
3833,2138833,19960,-2288,636,20100.77,24.34,-1.00,-1.0,2364
3835,2138835,15716,-1460,-2152,15929.70,24.29,-1.00,-1.0,2360
3838,2138838,18908,2544,2112,19194.92,24.39,-1.00,-1.0,2447
3841,2138841,14720,-480,-1064,14766.21,24.39,-1.00,-1.0,2364
3844,2138844,19524,-2116,1576,19701.47,24.39,-1.00,-1.0,2446
3847,2138847,16988,-3164,-1280,17327.48,24.29,-1.00,-1.0,2365
3852,2138852,18420,-1036,-2384,18602.50,24.48,-1.00,-1.0,2443
3854,2138854,15776,1928,4116,16417.70,24.39,-1.00,-1.0,2371
3857,2138857,17008,-2664,-1908,17320.78,24.39,-1.00,-1.0,2434
3860,2138860,17876,-308,3700,18257.50,24.29,-1.00,-1.0,2371
3863,2138863,17980,-2656,-3544,18517.42,24.39,-1.00,-1.0,2446
3865,2138865,17828,2292,3392,18291.98,24.39,-1.00,-1.0,2369
3868,2138868,15764,-752,-2140,15926.36,24.39,-1.00,-1.0,2445
3871,2138871,19304,1308,5664,20160.26,24.39,-1.00,-1.0,2370
3876,2138876,17212,1140,4424,17807.98,24.39,-1.00,-1.0,2446
3878,2138878,19332,-1936,-2104,19542.29,24.48,-1.00,-1.0,2367
3881,2138881,14156,2660,4396,15059.64,24.48,-1.00,-1.0,2451
3884,2138884,19312,-3000,-3876,19924.28,24.39,-1.00,-1.0,2363
3887,2138887,16416,712,6308,17600.65,24.48,-1.00,-1.0,2444
3889,2138889,19544,-3860,-1960,20017.72,24.48,-1.00,-1.0,2364
3892,2138892,14268,2280,4392,15101.78,24.48,-1.00,-1.0,2375
3895,2138895,18944,-1432,-4328,19484.80,24.39,-1.00,-1.0,2437
3898,2138898,16244,2212,5144,17182.00,24.44,-1.00,-1.0,2363
3902,2138902,14800,-2072,56,14944.44,24.39,-1.00,-1.0,2439
3905,2138905,19908,-1524,-784,19981.63,24.44,-1.00,-1.0,2367
3908,2138908,13852,2092,1004,14045.01,24.39,-1.00,-1.0,2438
3911,2138911,20312,-1768,-2520,20543.94,24.44,-1.00,-1.0,2364
3913,2138913,13796,-1752,256,13909.16,24.39,-1.00,-1.0,2437
3916,2138916,20236,-2796,-20,20428.26,24.44,-1.00,-1.0,2364
3919,2138919,13944,1068,1392,14053.95,24.39,-1.00,-1.0,2435
3922,2138922,20232,-536,-2580,20402.88,24.34,-1.00,-1.0,2366
3926,2138926,17648,888,4760,18300.22,24.29,-1.00,-1.0,2440
3929,2138929,16384,-3712,-1944,16911.34,24.39,-1.00,-1.0,2353
3932,2138932,18528,416,2820,18745.99,24.39,-1.00,-1.0,2438
3935,2138935,14232,860,-1480,14334.57,24.39,-1.00,-1.0,2363
3937,2138937,16848,3332,4740,17816.42,24.48,-1.00,-1.0,2437
3940,2138940,16756,-3724,-2452,17339.09,24.39,-1.00,-1.0,2364
3943,2138943,18528,-652,4604,19102.58,24.39,-1.00,-1.0,2437
3946,2138946,15160,-544,-1064,15207.03,24.39,-1.00,-1.0,2364
3949,2138949,19252,1772,744,19347.69,24.39,-1.00,-1.0,2359
3954,2138954,18300,-832,4240,18803.19,24.39,-1.00,-1.0,2443
3956,2138956,18968,-4224,-672,19444.25,24.44,-1.00,-1.0,2369
3959,2138959,15364,1884,4776,16199.14,24.39,-1.00,-1.0,2439
3962,2138962,17036,-348,-4276,17567.88,24.34,-1.00,-1.0,2364
3965,2138965,17760,1992,4092,18333.85,24.39,-1.00,-1.0,2435
3967,2138967,18252,-3684,-2212,18751.01,24.44,-1.00,-1.0,2366
3970,2138970,16924,-24,6288,18054.40,24.48,-1.00,-1.0,2437
3973,2138973,16528,-2244,-2572,16876.77,24.34,-1.00,-1.0,2363
3978,2138978,19596,-964,-2912,19834.62,24.44,-1.00,-1.0,2442
3981,2138981,14560,256,4868,15354.37,24.34,-1.00,-1.0,2373
3983,2138983,20980,-3404,-84,21254.52,24.34,-1.00,-1.0,2442
3986,2138986,13516,424,3696,14018.65,24.34,-1.00,-1.0,2377
3989,2138989,19792,-740,-3028,20035.96,24.34,-1.00,-1.0,2439
3992,2138992,14780,2448,3332,15347.42,24.44,-1.00,-1.0,2371
3994,2138994,18780,-1808,-1744,18947.26,24.48,-1.00,-1.0,2439
3997,2138997,15356,-200,4448,15988.48,24.44,-1.00,-1.0,2378
4000,2139000,18796,-3364,-2860,19307.66,24.39,-1.00,-1.0,2366
4005,2139005,18832,-780,-2168,18972.42,24.39,-1.00,-1.0,2439
4008,2139008,13932,1040,2236,14148.57,24.39,-1.00,-1.0,2367
4010,2139010,20816,-224,1996,20912.68,24.39,-1.00,-1.0,2438
4013,2139013,12948,-1380,1704,13132.35,24.39,-1.00,-1.0,2363
4016,2139016,20112,-2064,-1124,20248.85,24.39,-1.00,-1.0,2424
4019,2139019,13548,1832,1924,13806.02,24.48,-1.00,-1.0,2365
4021,2139021,19252,1072,1000,19307.74,24.39,-1.00,-1.0,2436
4024,2139024,14084,-596,1184,14146.24,24.48,-1.00,-1.0,2351
4029,2139029,16952,-1616,-640,17040.87,24.44,-1.00,-1.0,2439
4032,2139032,18272,1416,1172,18364.22,24.34,-1.00,-1.0,2377
4035,2139035,14752,1120,640,14808.29,24.39,-1.00,-1.0,2452
4037,2139037,17340,984,3852,17789.93,24.44,-1.00,-1.0,2367
4040,2139040,16492,-3724,-1684,16990.88,24.39,-1.00,-1.0,2451
4043,2139043,19116,-856,2056,19245.29,24.44,-1.00,-1.0,2372
4046,2139046,14756,1068,-948,14824.94,24.48,-1.00,-1.0,2443
4048,2139048,16800,3324,3756,17532.73,24.44,-1.00,-1.0,2371
4051,2139051,16064,-2188,-2432,16393.72,24.48,-1.00,-1.0,2360
4056,2139056,17612,-3316,-1212,17962.39,24.48,-1.00,-1.0,2447
4059,2139059,16356,2652,4088,17066.45,24.34,-1.00,-1.0,2366
4061,2139061,19840,-644,-3244,20113.77,24.39,-1.00,-1.0,2448
4064,2139064,15304,1784,4688,16105.04,24.34,-1.00,-1.0,2369
4067,2139067,17896,-4236,-1176,18428.06,24.39,-1.00,-1.0,2431
4070,2139070,16452,1528,5292,17349.59,24.44,-1.00,-1.0,2364
4072,2139072,20492,-1108,-3084,20752.37,24.48,-1.00,-1.0,2449
4075,2139075,13840,3648,4720,15070.90,24.44,-1.00,-1.0,2371
4080,2139080,13804,-1108,2536,14078.69,24.44,-1.00,-1.0,2439
4083,2139083,20576,-2628,-2076,20846.77,24.34,-1.00,-1.0,2374
4086,2139086,14260,2616,2644,14737.09,24.44,-1.00,-1.0,2439
4088,2139088,18920,492,-176,18927.21,24.34,-1.00,-1.0,2363
4091,2139091,13636,-388,2340,13840.76,24.44,-1.00,-1.0,2437
4094,2139094,20088,-2836,-992,20311.44,24.44,-1.00,-1.0,2364
4096,2139096,14728,336,2356,14919.04,24.34,-1.00,-1.0,2436
4099,2139099,18616,360,40,18619.52,24.44,-1.00,-1.0,2350
4105,2139105,18984,-2248,-1376,19166.09,24.34,-1.00,-1.0,2446
4107,2139107,14920,-108,4064,15463.96,24.44,-1.00,-1.0,2367
4110,2139110,20064,-1384,1028,20137.93,24.39,-1.00,-1.0,2360
4113,2139113,12996,1044,1412,13114.10,24.29,-1.00,-1.0,2446
4115,2139115,21144,-516,-1160,21182.08,24.39,-1.00,-1.0,2363
4118,2139118,15096,-944,-880,15151.06,24.48,-1.00,-1.0,2450
4121,2139121,19176,-764,2696,19379.66,24.48,-1.00,-1.0,2364
4124,2139124,14704,-816,500,14735.11,24.39,-1.00,-1.0,2446
4126,2139126,19624,-1232,-1480,19718.26,24.48,-1.00,-1.0,2363
4131,2139131,14644,1768,4032,15291.49,24.44,-1.00,-1.0,2447
4134,2139134,17780,-2440,-2000,18057.74,24.48,-1.00,-1.0,2381
4137,2139137,16788,132,4128,17288.57,24.44,-1.00,-1.0,2439
4140,2139140,16344,-2056,-2364,16641.57,24.39,-1.00,-1.0,2361
4142,2139142,19032,492,560,19046.59,24.44,-1.00,-1.0,2439
4145,2139145,16996,-748,-1044,17044.46,24.48,-1.00,-1.0,2379
4148,2139148,16628,1384,4612,17311.16,24.44,-1.00,-1.0,2437
4151,2139151,16564,-3140,-2168,16997.82,24.39,-1.00,-1.0,2373
4156,2139156,17724,-1988,-1092,17868.54,24.39,-1.00,-1.0,2439
4158,2139158,14172,1392,1816,14355.53,24.39,-1.00,-1.0,2367
4161,2139161,20272,-1228,-1892,20397.10,24.48,-1.00,-1.0,2454
4164,2139164,13916,624,4952,14784.00,24.39,-1.00,-1.0,2373
4166,2139166,18568,-2756,-852,18790.74,24.44,-1.00,-1.0,2367
4169,2139169,14992,604,1984,15134.77,24.44,-1.00,-1.0,2437
4172,2139172,19204,-348,-2460,19364.05,24.34,-1.00,-1.0,2364
4175,2139175,14884,1732,3812,15461.71,24.44,-1.00,-1.0,2444
4177,2139177,18848,-3572,-1840,19271.53,24.34,-1.00,-1.0,2371
4182,2139182,18976,-520,2120,19101.13,24.39,-1.00,-1.0,2439
4185,2139185,15188,1092,-588,15238.55,24.39,-1.00,-1.0,2366
4188,2139188,18876,760,964,18915.87,24.44,-1.00,-1.0,2445
4190,2139190,13864,-608,2432,14088.82,24.39,-1.00,-1.0,2362
4193,2139193,19744,-2972,-772,19981.35,24.44,-1.00,-1.0,2449
4196,2139196,16024,-788,180,16044.37,24.39,-1.00,-1.0,2364
4199,2139199,18004,776,1008,18048.88,24.34,-1.00,-1.0,2442
4201,2139201,14520,480,876,14554.32,24.39,-1.00,-1.0,2363
4206,2139206,15332,-2400,-292,15521.45,24.39,-1.00,-1.0,2439
4209,2139209,16900,680,3992,17378.39,24.48,-1.00,-1.0,2366
4212,2139212,17456,-1292,-2836,17732.01,24.39,-1.00,-1.0,2367
4215,2139215,17072,1996,3040,17455.05,24.39,-1.00,-1.0,2438
4217,2139217,19572,-2052,-2320,19815.56,24.39,-1.00,-1.0,2367
4220,2139220,15320,-108,4364,15929.80,24.34,-1.00,-1.0,2443
4223,2139223,18160,-2560,-1276,18383.89,24.39,-1.00,-1.0,2371
4226,2139226,15688,1712,2748,16018.61,24.39,-1.00,-1.0,2437
4228,2139228,20540,-596,-2020,20647.69,24.39,-1.00,-1.0,2367
4233,2139233,20040,-2464,-424,20195.36,24.39,-1.00,-1.0,2438
4236,2139236,15100,-612,1744,15212.69,24.48,-1.00,-1.0,2366
4239,2139239,19412,-844,-2236,19558.57,24.39,-1.00,-1.0,2445
4241,2139241,15028,2368,3456,15601.03,24.48,-1.00,-1.0,2364
4244,2139244,18876,-1072,-480,18912.51,24.39,-1.00,-1.0,2439
4247,2139247,15240,-412,3196,15576.96,24.39,-1.00,-1.0,2363
4250,2139250,19376,-2496,-1292,19578.78,24.39,-1.00,-1.0,2445
4252,2139252,13864,1192,2524,14142.20,24.39,-1.00,-1.0,2367
4257,2139257,14112,40,1424,14183.72,24.39,-1.00,-1.0,2440
4260,2139260,17876,-556,3324,18190.92,24.44,-1.00,-1.0,2373
4263,2139263,16064,-1692,-672,16166.83,24.48,-1.00,-1.0,2440
4266,2139266,18768,-204,448,18774.46,24.34,-1.00,-1.0,2361
4268,2139268,18252,-8,-536,18259.87,24.48,-1.00,-1.0,2361
4271,2139271,16140,656,2100,16289.26,24.39,-1.00,-1.0,2436
4274,2139274,17088,-1424,972,17174.76,24.39,-1.00,-1.0,2364
4276,2139276,17148,-956,1912,17280.73,24.39,-1.00,-1.0,2435
4279,2139279,18256,-1808,-1992,18453.14,24.39,-1.00,-1.0,2363
4284,2139284,16864,-1200,-636,16918.60,24.39,-1.00,-1.0,2434
4287,2139287,16320,868,2392,16517.19,24.34,-1.00,-1.0,2374
4290,2139290,17328,-2432,-2504,17676.09,24.48,-1.00,-1.0,2447
4292,2139292,18044,324,3384,18361.44,24.34,-1.00,-1.0,2373
4295,2139295,18696,-2448,-796,18872.38,24.39,-1.00,-1.0,2444
4298,2139298,14920,1328,1964,15107.19,24.34,-1.00,-1.0,2352
4301,2139301,19552,-528,-1780,19639.96,24.48,-1.00,-1.0,2448
4303,2139303,15632,300,3116,15942.36,24.34,-1.00,-1.0,2371
4308,2139308,16312,-880,1112,16373.52,24.39,-1.00,-1.0,2439
4311,2139311,18036,64,-832,18055.29,24.39,-1.00,-1.0,2369
4313,2139313,15948,1876,2480,16248.34,24.39,-1.00,-1.0,2360
4316,2139316,17988,-2304,-1516,18198.21,24.44,-1.00,-1.0,2438
4319,2139319,16284,-1868,1480,16457.47,24.48,-1.00,-1.0,2364
4322,2139322,18784,-1628,40,18854.46,24.34,-1.00,-1.0,2443
4324,2139324,15040,1776,1424,15211.30,24.29,-1.00,-1.0,2364
4327,2139327,19248,0,-916,19269.78,24.44,-1.00,-1.0,2437
4330,2139330,14208,-1432,-732,14298.73,24.39,-1.00,-1.0,2379
4335,2139335,16468,-2048,124,16595.32,24.39,-1.00,-1.0,2438
4338,2139338,17096,1304,1984,17260.07,24.29,-1.00,-1.0,2367
4340,2139340,15756,216,-1348,15815.03,24.39,-1.00,-1.0,2439
4343,2139343,16416,960,3212,16754.81,24.48,-1.00,-1.0,2364
4346,2139346,16792,-3576,-496,17175.71,24.34,-1.00,-1.0,2435
4349,2139349,17588,-260,2828,17815.80,24.48,-1.00,-1.0,2364
4351,2139351,15992,84,-1460,16058.73,24.39,-1.00,-1.0,2437
4354,2139354,16072,2420,2772,16487.86,24.48,-1.00,-1.0,2366
4359,2139359,15028,-1196,3320,15436.76,24.29,-1.00,-1.0,2449
4362,2139362,18820,-2360,-1372,19016.95,24.39,-1.00,-1.0,2373
4364,2139364,15232,2044,1664,15458.35,24.39,-1.00,-1.0,2362
4367,2139367,18944,-944,-1996,19072.24,24.44,-1.00,-1.0,2426
4370,2139370,13816,-492,3196,14189.37,24.39,-1.00,-1.0,2365
4373,2139373,19252,-2912,-368,19474.46,24.44,-1.00,-1.0,2437
4375,2139375,15340,632,1784,15456.32,24.39,-1.00,-1.0,2371
4378,2139378,19212,-312,-2612,19391.26,24.44,-1.00,-1.0,2437
4381,2139381,14684,1456,2960,15049.96,24.48,-1.00,-1.0,2364
4386,2139386,15776,-500,2104,15923.54,24.29,-1.00,-1.0,2433
4389,2139389,18328,-1448,-516,18392.35,24.48,-1.00,-1.0,2373
4392,2139392,14092,684,2008,14250.77,24.44,-1.00,-1.0,2448
4394,2139394,20044,-1600,-1560,20168.18,24.39,-1.00,-1.0,2374
4397,2139397,14856,-308,2144,15013.07,24.44,-1.00,-1.0,2444
4400,2139400,19312,-960,904,19356.97,24.39,-1.00,-1.0,2351
4403,2139403,14408,300,1384,14477.43,24.44,-1.00,-1.0,2449
4405,2139405,19532,-944,-760,19569.56,24.39,-1.00,-1.0,2374
4410,2139410,18228,-1172,160,18266.34,24.39,-1.00,-1.0,2438
4413,2139413,17924,-1384,212,17978.60,24.39,-1.00,-1.0,2365
4416,2139416,16132,-544,1212,16186.61,24.39,-1.00,-1.0,2357
4418,2139418,16900,-388,-372,16908.55,24.39,-1.00,-1.0,2442
4421,2139421,17652,712,2352,17822.23,24.39,-1.00,-1.0,2380
4424,2139424,15348,-588,484,15366.88,24.44,-1.00,-1.0,2437
4427,2139427,18840,600,2156,18972.45,24.48,-1.00,-1.0,2370
4429,2139429,14732,-1208,-1084,14821.14,24.48,-1.00,-1.0,2439
4432,2139432,20016,-1928,188,20109.52,24.53,-1.00,-1.0,2364
4437,2139437,16968,680,1560,17053.12,24.39,-1.00,-1.0,2447
4440,2139440,19348,-124,-1796,19431.57,24.39,-1.00,-1.0,2380
4443,2139443,15556,668,3052,15866.63,24.44,-1.00,-1.0,2439
4446,2139446,17956,-2044,816,18090.38,24.44,-1.00,-1.0,2373
4448,2139448,16376,-300,1392,16437.79,24.44,-1.00,-1.0,2438
4451,2139451,17320,400,-760,17341.28,24.44,-1.00,-1.0,2377
4454,2139454,17068,1392,2708,17337.46,24.44,-1.00,-1.0,2437
4457,2139457,16596,-2444,-1428,16835.66,24.34,-1.00,-1.0,2372
4459,2139459,19144,-616,3140,19409.58,24.48,-1.00,-1.0,2360
4464,2139464,17780,2056,1708,17979.79,24.53,-1.00,-1.0,2439
4467,2139467,18952,-248,-1432,19007.64,24.44,-1.00,-1.0,2368
4470,2139470,14616,700,4248,15236.89,24.44,-1.00,-1.0,2431
4472,2139472,18900,-2392,28,19050.79,24.34,-1.00,-1.0,2371
4475,2139475,15944,672,3056,16248.13,24.44,-1.00,-1.0,2437
4478,2139478,18660,-380,-1032,18692.38,24.44,-1.00,-1.0,2352
4481,2139481,14948,1804,2988,15350.09,24.44,-1.00,-1.0,2443
4483,2139483,18196,-2472,-1080,18394.88,24.44,-1.00,-1.0,2372
4488,2139488,18196,-1420,-676,18263.84,24.29,-1.00,-1.0,2440
4491,2139491,15628,572,-32,15638.50,24.48,-1.00,-1.0,2367
4494,2139494,18476,-104,-748,18491.43,24.44,-1.00,-1.0,2447
4496,2139496,14992,-544,2116,15150.36,24.39,-1.00,-1.0,2363
4499,2139499,19152,-2568,-60,19323.49,24.25,-1.00,-1.0,2449
4502,2139502,14816,-1056,152,14854.36,24.39,-1.00,-1.0,2364
4505,2139505,18504,368,-56,18507.74,24.44,-1.00,-1.0,2443
4507,2139507,13396,0,692,13413.86,24.39,-1.00,-1.0,2363
4510,2139510,19960,-2564,-1456,20176.61,24.48,-1.00,-1.0,2362
4515,2139515,17928,-172,1168,17966.83,24.34,-1.00,-1.0,2455
4518,2139518,17928,-556,-2344,18089.13,24.44,-1.00,-1.0,2374
4521,2139521,17416,480,1236,17466.40,24.34,-1.00,-1.0,2447
4523,2139523,15820,-928,1284,15899.13,24.34,-1.00,-1.0,2370
4526,2139526,17896,-1488,876,17979.11,24.44,-1.00,-1.0,2447
4529,2139529,16720,-1432,-2524,16969.96,24.44,-1.00,-1.0,2369
4532,2139532,18952,340,876,18975.28,24.34,-1.00,-1.0,2442
4534,2139534,15236,-484,556,15253.82,24.44,-1.00,-1.0,2366
4539,2139539,16716,-1524,-1208,16828.74,24.48,-1.00,-1.0,2450
4542,2139542,15872,1028,3180,16220.04,24.34,-1.00,-1.0,2354
4545,2139545,18012,-724,-268,18028.54,24.39,-1.00,-1.0,2447
4547,2139547,15992,304,1488,16063.95,24.34,-1.00,-1.0,2371
4550,2139550,17700,-1136,-256,17738.26,24.39,-1.00,-1.0,2443
4553,2139553,15820,292,2740,16058.18,24.44,-1.00,-1.0,2354
4555,2139555,18560,-1500,-1848,18711.99,24.39,-1.00,-1.0,2354
4558,2139558,17632,236,2160,17765.38,24.39,-1.00,-1.0,2443
4561,2139561,15728,-24,736,15745.23,24.44,-1.00,-1.0,2365
4566,2139566,17028,-1340,-2016,17199.21,24.34,-1.00,-1.0,2440
4569,2139569,18504,-912,2968,18762.70,24.34,-1.00,-1.0,2366
4572,2139572,16932,-2280,140,17085.39,24.34,-1.00,-1.0,2445
4574,2139574,16756,1684,2388,17008.88,24.53,-1.00,-1.0,2364
4577,2139577,17868,236,-1968,17977.60,24.34,-1.00,-1.0,2438
4580,2139580,17180,-828,1656,17279.48,24.44,-1.00,-1.0,2366
4583,2139583,18000,-2416,1068,18192.79,24.44,-1.00,-1.0,2447
4585,2139585,16184,208,2944,16450.90,24.53,-1.00,-1.0,2364
4590,2139590,15620,1804,2404,15906.54,24.39,-1.00,-1.0,2438
4593,2139593,17800,-1664,-876,17899.06,24.39,-1.00,-1.0,2365
4596,2139596,17820,-916,4008,18288.12,24.44,-1.00,-1.0,2439
4599,2139599,15980,-2380,-1280,16206.89,24.44,-1.00,-1.0,2432
4602,2139602,18520,2064,1868,18728.05,24.48,-1.00,-1.0,2430
4604,2139604,16376,-236,-1640,16459.61,24.39,-1.00,-1.0,2384
4607,2139607,18340,-140,3932,18757.29,24.44,-1.00,-1.0,2361
4610,2139610,18080,-2832,16,18300.46,24.34,-1.00,-1.0,2432
4612,2139612,16620,676,2560,16829.59,24.34,-1.00,-1.0,2377
4617,2139617,14592,2080,3084,15058.68,24.48,-1.00,-1.0,2437
4620,2139620,18212,-1916,144,18313.08,24.29,-1.00,-1.0,2356
4623,2139623,15588,-1432,2352,15829.35,24.44,-1.00,-1.0,2435
4626,2139626,17936,-1356,-140,17987.73,24.48,-1.00,-1.0,2367
4628,2139628,15756,2560,3140,16268.52,24.48,-1.00,-1.0,2434
4631,2139631,17280,-464,-1804,17380.11,24.39,-1.00,-1.0,2373
4634,2139634,16912,-92,3124,17198.36,24.34,-1.00,-1.0,2436
4637,2139637,16152,-3016,404,16436.14,24.39,-1.00,-1.0,2371
4642,2139642,19440,412,660,19455.56,24.39,-1.00,-1.0,2435
4644,2139644,12944,832,2456,13201.19,24.34,-1.00,-1.0,2369
4647,2139647,19024,-2320,140,19165.45,24.39,-1.00,-1.0,2451
4650,2139650,14948,-1228,1416,15065.05,24.48,-1.00,-1.0,2377
4652,2139652,18448,-124,1156,18484.60,24.39,-1.00,-1.0,2369
4655,2139655,15012,1888,3068,15438.18,24.39,-1.00,-1.0,2432
4658,2139658,17608,-1028,-1540,17705.09,24.48,-1.00,-1.0,2366
4661,2139661,17264,-408,1916,17374.79,24.44,-1.00,-1.0,2440
4663,2139663,17472,-744,1292,17535.49,24.34,-1.00,-1.0,2365
4668,2139668,18640,-1212,-1412,18732.65,24.53,-1.00,-1.0,2439
4671,2139671,15680,392,824,15706.53,24.48,-1.00,-1.0,2372
4674,2139674,18016,-784,220,18034.39,24.44,-1.00,-1.0,2434
4677,2139677,15284,-1028,764,15337.57,24.48,-1.00,-1.0,2361
4679,2139679,18908,-1628,1008,19004.71,24.34,-1.00,-1.0,2421
4682,2139682,14608,424,1856,14731.54,24.39,-1.00,-1.0,2382
4685,2139685,18568,124,-212,18569.62,24.44,-1.00,-1.0,2436
4688,2139688,15728,424,1344,15791.01,24.44,-1.00,-1.0,2420
4693,2139693,17516,-2624,-152,17712.11,24.39,-1.00,-1.0,2447
4695,2139695,17308,-1584,-1056,17412.38,24.39,-1.00,-1.0,2370
4698,2139698,17200,1792,1056,17325.31,24.39,-1.00,-1.0,2440
4701,2139701,16604,-104,320,16607.41,24.48,-1.00,-1.0,2366
4704,2139704,16068,-1860,512,16183.40,24.48,-1.00,-1.0,2363
4706,2139706,18280,-2656,716,18485.82,24.44,-1.00,-1.0,2442
4709,2139709,15120,1168,1340,15224.13,24.39,-1.00,-1.0,2374
4712,2139712,18856,1080,-188,18887.84,24.34,-1.00,-1.0,2420
4714,2139714,14468,-544,264,14480.63,24.39,-1.00,-1.0,2365
4719,2139719,16788,-2084,908,16941.21,24.44,-1.00,-1.0,2450
4722,2139722,17216,412,-60,17221.03,24.39,-1.00,-1.0,2384
4725,2139725,16360,1436,736,16439.38,24.44,-1.00,-1.0,2436
4728,2139728,15652,-464,-316,15662.06,24.53,-1.00,-1.0,2377
4730,2139730,18508,-1716,2024,18697.25,24.34,-1.00,-1.0,2437
4733,2139733,15804,-2676,-368,16033.18,24.39,-1.00,-1.0,2381
4736,2139736,18548,1860,1308,18686.86,24.34,-1.00,-1.0,2434
4739,2139739,17392,516,-420,17404.72,24.44,-1.00,-1.0,2371
4743,2139743,20060,-1112,1068,20119.16,24.34,-1.00,-1.0,2442
4746,2139746,14668,-2132,904,14849.68,24.34,-1.00,-1.0,2356
4749,2139749,17444,-508,604,17461.84,24.39,-1.00,-1.0,2360
4751,2139751,17388,620,-644,17410.96,24.39,-1.00,-1.0,2419
4754,2139754,17340,-732,-436,17360.92,24.34,-1.00,-1.0,2366
4757,2139757,16884,-992,2972,17172.25,24.48,-1.00,-1.0,2432
4760,2139760,17252,-2228,428,17400.54,24.44,-1.00,-1.0,2366
4763,2139763,17144,-312,-604,17157.47,24.44,-1.00,-1.0,2447
4765,2139765,17580,292,-1440,17641.29,24.29,-1.00,-1.0,2366
4770,2139770,17336,-2136,580,17476.72,24.39,-1.00,-1.0,2439
4773,2139773,17088,-1076,1076,17155.62,24.48,-1.00,-1.0,2368
4776,2139776,18164,228,816,18183.75,24.48,-1.00,-1.0,2433
4779,2139779,14572,-144,8,14572.71,24.39,-1.00,-1.0,2367
4781,2139781,19388,-1084,-272,19420.19,24.39,-1.00,-1.0,2432
4784,2139784,15036,-408,2160,15195.83,24.39,-1.00,-1.0,2366
4787,2139787,19088,-300,648,19101.35,24.39,-1.00,-1.0,2433
4790,2139790,16412,440,464,16424.45,24.39,-1.00,-1.0,2367
4793,2139793,17276,-892,-268,17301.09,24.44,-1.00,-1.0,2362
4797,2139797,16604,-404,1820,16708.33,24.44,-1.00,-1.0,2437
4800,2139800,16600,692,3296,16938.20,24.29,-1.00,-1.0,2369
4803,2139803,16596,-1028,916,16653.02,24.39,-1.00,-1.0,2432
4806,2139806,16888,-248,868,16912.11,24.39,-1.00,-1.0,2372
4809,2139809,16828,-176,228,16830.46,24.44,-1.00,-1.0,2434
4811,2139811,16704,896,2792,16959.41,24.39,-1.00,-1.0,2367
4814,2139814,17516,-1332,452,17572.39,24.39,-1.00,-1.0,2432
4817,2139817,14644,-668,2148,14815.76,24.39,-1.00,-1.0,2366
4822,2139822,16108,840,1236,16177.17,24.39,-1.00,-1.0,2439
4824,2139824,17672,436,1028,17707.24,24.48,-1.00,-1.0,2370
4827,2139827,16152,-772,2908,16429.84,24.39,-1.00,-1.0,2433
4830,2139830,16380,-1792,104,16478.06,24.29,-1.00,-1.0,2368
4832,2139832,18608,1180,1992,18751.48,24.48,-1.00,-1.0,2359
4835,2139835,15156,652,-780,15190.06,24.34,-1.00,-1.0,2436
4838,2139838,18156,340,3044,18412.55,24.39,-1.00,-1.0,2367
4841,2139841,15604,-2788,0,15851.11,24.44,-1.00,-1.0,2440
4844,2139844,16412,-580,2024,16546.50,24.48,-1.00,-1.0,2369
4849,2139849,15340,1260,2092,15533.18,24.34,-1.00,-1.0,2445
4851,2139851,18860,-1072,-76,18890.59,24.44,-1.00,-1.0,2369
4854,2139854,15436,-1476,1068,15543.14,24.44,-1.00,-1.0,2438
4857,2139857,19508,-596,-4,19517.10,24.34,-1.00,-1.0,2366
4860,2139860,15032,924,932,15089.18,24.44,-1.00,-1.0,2439
4862,2139862,17236,-544,-792,17262.76,24.44,-1.00,-1.0,2353
4865,2139865,18060,-804,2368,18232.32,24.34,-1.00,-1.0,2435
4868,2139868,16032,-1396,1596,16171.61,24.39,-1.00,-1.0,2365
4873,2139873,15836,92,-1252,15885.68,24.39,-1.00,-1.0,2439
4876,2139876,16204,776,2072,16354.36,24.39,-1.00,-1.0,2369
4878,2139878,17116,-1560,-772,17204.27,24.44,-1.00,-1.0,2347
4881,2139881,17068,-1572,804,17159.09,24.44,-1.00,-1.0,2433
4884,2139884,18000,-772,1136,18052.33,24.29,-1.00,-1.0,2367
4886,2139886,15660,1056,1276,15747.35,24.34,-1.00,-1.0,2433
4889,2139889,17876,-632,-232,17888.67,24.39,-1.00,-1.0,2365
4892,2139892,16320,-2080,876,16475.32,24.34,-1.00,-1.0,2433
4895,2139895,17156,-1784,16,17248.51,24.39,-1.00,-1.0,2366
4900,2139900,16540,636,-1120,16590.07,24.39,-1.00,-1.0,2444
4902,2139902,17272,-840,364,17296.24,24.39,-1.00,-1.0,2376
4905,2139905,17420,-2612,-228,17616.21,24.48,-1.00,-1.0,2433
4908,2139908,17768,-392,2512,17948.97,24.29,-1.00,-1.0,2370
4911,2139911,15352,-1152,-2228,15555.54,24.39,-1.00,-1.0,2441
4913,2139913,19004,836,-520,19029.48,24.48,-1.00,-1.0,2375
4916,2139916,16332,-1332,356,16390.09,24.34,-1.00,-1.0,2440
4919,2139919,16788,-1208,1296,16881.23,24.39,-1.00,-1.0,2369
4922,2139922,16744,376,1276,16796.76,24.44,-1.00,-1.0,2361
4927,2139927,17376,-52,1512,17441.74,24.39,-1.00,-1.0,2453
4930,2139930,16808,-396,700,16827.23,24.48,-1.00,-1.0,2369
4933,2139933,17888,120,2644,18082.75,24.48,-1.00,-1.0,2427
4935,2139935,16260,-1348,820,16336.37,24.48,-1.00,-1.0,2365
4938,2139938,17176,-176,1372,17231.61,24.39,-1.00,-1.0,2444
4941,2139941,16304,220,-656,16318.67,24.39,-1.00,-1.0,2366
4944,2139944,18172,632,2164,18311.30,24.39,-1.00,-1.0,2440
4946,2139946,16932,-1864,252,17036.16,24.39,-1.00,-1.0,2366
4951,2139951,18080,424,2360,18238.30,24.39,-1.00,-1.0,2449
4954,2139954,14392,800,284,14417.01,24.48,-1.00,-1.0,2377
4957,2139957,19124,-816,-1144,19175.56,24.48,-1.00,-1.0,2422
4959,2139959,16996,-1168,2220,17180.12,24.39,-1.00,-1.0,2366
4962,2139962,16332,-2028,1256,16505.29,24.44,-1.00,-1.0,2444
4965,2139965,17284,1132,824,17340.62,24.48,-1.00,-1.0,2366
4968,2139968,16964,276,-1292,17015.37,24.44,-1.00,-1.0,2363
4970,2139970,18660,-408,1696,18741.36,24.44,-1.00,-1.0,2435
4973,2139973,15348,-2800,460,15608.10,24.44,-1.00,-1.0,2375
4978,2139978,16652,428,-1388,16715.23,24.39,-1.00,-1.0,2443
4981,2139981,17112,788,1264,17176.71,24.48,-1.00,-1.0,2378
4984,2139984,17020,-1840,488,17126.12,24.44,-1.00,-1.0,2445
4986,2139986,16004,-2244,372,16164.84,24.44,-1.00,-1.0,2424
4989,2139989,18956,-1456,-2088,19126.15,24.44,-1.00,-1.0,2452
4992,2139992,15032,1236,160,15083.58,24.39,-1.00,-1.0,2372
4995,2139995,19752,-40,1624,19818.69,24.48,-1.00,-1.0,2435
4997,2139997,15420,-2304,784,15610.88,24.39,-1.00,-1.0,2373
5002,2140002,17964,-420,348,17972.28,24.29,-1.00,-1.0,2437
5005,2140005,15396,-12,-1768,15497.19,24.39,-1.00,-1.0,2368
5008,2140008,18784,516,1204,18829.62,24.39,-1.00,-1.0,2432
5011,2140011,16764,-1668,1168,16887.22,24.44,-1.00,-1.0,2366
5013,2140013,16348,-1568,2388,16595.73,24.39,-1.00,-1.0,2363
5016,2140016,17220,-32,324,17223.08,24.48,-1.00,-1.0,2431
5019,2140019,16380,1404,336,16443.49,24.48,-1.00,-1.0,2374
5022,2140022,18216,124,992,18243.41,24.48,-1.00,-1.0,2432
5024,2140024,15868,-984,3596,16300.09,24.48,-1.00,-1.0,2366
5029,2140029,16532,620,-476,16550.47,24.39,-1.00,-1.0,2438
5032,2140032,18148,700,-440,18166.82,24.34,-1.00,-1.0,2372
5035,2140035,16372,-1068,744,16423.66,24.48,-1.00,-1.0,2428
5037,2140037,17964,-2288,1776,18196.00,24.34,-1.00,-1.0,2367
5040,2140040,15348,-1480,-364,15423.49,24.39,-1.00,-1.0,2432
5043,2140043,19064,48,-1452,19119.28,24.44,-1.00,-1.0,2369
5046,2140046,16448,180,-496,16456.46,24.48,-1.00,-1.0,2431
5048,2140048,16652,-744,1364,16724.33,24.44,-1.00,-1.0,2373
5053,2140053,17244,-1056,704,17290.64,24.44,-1.00,-1.0,2447
5056,2140056,16616,-576,320,16629.06,24.44,-1.00,-1.0,2376
5059,2140059,16672,112,564,16681.91,24.44,-1.00,-1.0,2361
5061,2140061,16348,52,-332,16351.45,24.39,-1.00,-1.0,2432
5064,2140064,17748,-1292,772,17811.70,24.44,-1.00,-1.0,2354
5067,2140067,17048,-1948,628,17170.42,24.39,-1.00,-1.0,2432
5070,2140070,16556,352,668,16573.21,24.44,-1.00,-1.0,2372
5072,2140072,16208,536,-1420,16278.91,24.39,-1.00,-1.0,2421
5075,2140075,18096,192,800,18114.69,24.44,-1.00,-1.0,2383
5080,2140080,17664,-2688,1356,17918.73,24.44,-1.00,-1.0,2437
5083,2140083,16476,-416,-1096,16517.65,24.48,-1.00,-1.0,2376
5086,2140086,16988,2340,584,17158.35,24.34,-1.00,-1.0,2445
5088,2140088,18488,-568,-648,18508.07,24.44,-1.00,-1.0,2367
5091,2140091,15612,-2328,2128,15927.41,24.44,-1.00,-1.0,2447
5094,2140094,18952,-788,1224,19007.83,24.29,-1.00,-1.0,2369
5097,2140097,15052,1568,-332,15137.09,24.34,-1.00,-1.0,2440
5099,2140099,18632,1136,312,18669.21,24.34,-1.00,-1.0,2369
5102,2140102,15524,-1420,1328,15645.27,24.39,-1.00,-1.0,2361
5107,2140107,17332,332,2524,17517.96,24.44,-1.00,-1.0,2444
5110,2140110,16052,1660,1224,16183.96,24.44,-1.00,-1.0,2369
5112,2140112,17172,884,392,17199.21,24.39,-1.00,-1.0,2442
5115,2140115,16076,-1444,32,16140.75,24.34,-1.00,-1.0,2373
5118,2140118,19156,-1680,572,19238.03,24.48,-1.00,-1.0,2435
5120,2140120,15444,-48,224,15445.70,24.44,-1.00,-1.0,2367
5123,2140123,16348,504,208,16357.09,24.48,-1.00,-1.0,2443
5126,2140126,17652,-584,-476,17668.07,24.44,-1.00,-1.0,2365
5131,2140131,18644,-2184,288,18773.69,24.39,-1.00,-1.0,2442
5134,2140134,16004,-852,-464,16033.38,24.39,-1.00,-1.0,2380
5136,2140136,17156,1144,912,17218.27,24.39,-1.00,-1.0,2441
5139,2140139,16372,-16,172,16372.91,24.39,-1.00,-1.0,2381
5142,2140142,16644,-2512,1124,16869.98,24.48,-1.00,-1.0,2359
5144,2140144,17264,-2208,452,17410.49,24.34,-1.00,-1.0,2434
5147,2140147,16340,176,700,16355.93,24.39,-1.00,-1.0,2367
5150,2140150,17392,1528,464,17465.16,24.44,-1.00,-1.0,2431
5153,2140153,15400,-80,2656,15627.56,24.48,-1.00,-1.0,2365
5158,2140158,16956,-1040,824,17007.84,24.44,-1.00,-1.0,2445
5160,2140160,18072,688,120,18085.49,24.44,-1.00,-1.0,2369
5163,2140163,15048,208,784,15069.84,24.44,-1.00,-1.0,2435
5166,2140166,17800,-1140,1060,17867.94,24.44,-1.00,-1.0,2366
5169,2140169,14732,-1928,144,14858.32,24.53,-1.00,-1.0,2441
5171,2140171,19588,-1236,-1316,19671.03,24.34,-1.00,-1.0,2367
5174,2140174,16560,852,1852,16685.01,24.44,-1.00,-1.0,2432
5177,2140177,16696,-260,920,16723.35,24.44,-1.00,-1.0,2366
5180,2140180,17496,-336,1132,17535.80,24.44,-1.00,-1.0,2359
5185,2140185,17800,-1492,544,17870.70,24.34,-1.00,-1.0,2439
5188,2140188,16108,-948,-740,16152.83,24.39,-1.00,-1.0,2367
5190,2140190,18668,404,-40,18672.41,24.44,-1.00,-1.0,2433
5193,2140193,16816,8,100,16816.30,24.39,-1.00,-1.0,2373
5196,2140196,17020,-816,1220,17083.17,24.34,-1.00,-1.0,2435
5199,2140199,16132,-1032,1200,16209.46,24.48,-1.00,-1.0,2368
5201,2140201,17744,972,2272,17915.25,24.44,-1.00,-1.0,2435
5204,2140204,17180,-136,76,17180.71,24.48,-1.00,-1.0,2373
5209,2140209,18044,-728,2764,18268.98,24.39,-1.00,-1.0,2454
5212,2140212,15192,-868,380,15221.52,24.48,-1.00,-1.0,2377
5215,2140215,18040,128,-440,18045.82,24.39,-1.00,-1.0,2444
5217,2140217,17412,692,1880,17526.87,24.58,-1.00,-1.0,2375
5220,2140220,15504,-956,1052,15569.03,24.34,-1.00,-1.0,2440
5223,2140223,17984,-1004,396,18016.36,24.48,-1.00,-1.0,2375
5225,2140225,17008,-84,432,17013.69,24.34,-1.00,-1.0,2348
5228,2140228,17560,-1020,496,17596.59,24.44,-1.00,-1.0,2432
5231,2140231,15696,-1960,-652,15831.33,24.48,-1.00,-1.0,2367
5236,2140236,16880,-560,-428,16894.71,24.44,-1.00,-1.0,2436
5239,2140239,17360,220,1548,17430.27,24.34,-1.00,-1.0,2372
5241,2140241,17080,-432,8,17085.46,24.48,-1.00,-1.0,2434
5244,2140244,16512,136,2080,16643.05,24.44,-1.00,-1.0,2367
5247,2140247,17152,-1616,-572,17237.45,24.39,-1.00,-1.0,2432
5250,2140250,15940,-856,412,15968.28,24.44,-1.00,-1.0,2366
5252,2140252,18812,-396,900,18837.68,24.39,-1.00,-1.0,2435
5255,2140255,15052,-524,1736,15160.84,24.44,-1.00,-1.0,2366
5260,2140260,16816,656,2692,17042.74,24.34,-1.00,-1.0,2445
5263,2140263,16872,40,1428,16932.37,24.34,-1.00,-1.0,2370
5265,2140265,16472,-704,80,16487.23,24.44,-1.00,-1.0,2359
5268,2140268,17116,-616,1140,17164.98,24.39,-1.00,-1.0,2433
5271,2140271,17000,-492,2004,17124.78,24.44,-1.00,-1.0,2367
5274,2140274,15792,-252,256,15796.08,24.39,-1.00,-1.0,2431
5276,2140276,17436,-496,20,17443.06,24.44,-1.00,-1.0,2368
5279,2140279,16952,-1196,-848,17015.28,24.39,-1.00,-1.0,2433
5282,2140282,17520,-1292,1104,17602.23,24.39,-1.00,-1.0,2374
5287,2140287,17816,268,1488,17880.04,24.39,-1.00,-1.0,2437
5290,2140290,15716,-624,1128,15768.78,24.39,-1.00,-1.0,2368
5293,2140293,17640,-1208,1328,17731.12,24.39,-1.00,-1.0,2439
5295,2140295,14692,-800,400,14719.20,24.48,-1.00,-1.0,2366
5298,2140298,17760,692,216,17774.79,24.29,-1.00,-1.0,2432
5301,2140301,17244,364,1408,17305.22,24.34,-1.00,-1.0,2365
5303,2140303,15988,-1048,1496,16092.00,24.48,-1.00,-1.0,2345
5306,2140306,18292,-688,792,18322.06,24.48,-1.00,-1.0,2433
5309,2140309,16420,-932,-600,16457.37,24.44,-1.00,-1.0,2380
5314,2140314,17492,-828,1048,17542.92,24.34,-1.00,-1.0,2436
5317,2140317,17148,208,1696,17232.92,24.39,-1.00,-1.0,2376
5320,2140320,16664,-100,1056,16697.72,24.39,-1.00,-1.0,2435
5322,2140322,16876,-696,196,16891.48,24.48,-1.00,-1.0,2368
5325,2140325,17492,-440,-264,17499.53,24.44,-1.00,-1.0,2432
5328,2140328,17900,204,1184,17940.28,24.39,-1.00,-1.0,2373
5331,2140331,15704,-644,1088,15754.81,24.39,-1.00,-1.0,2434
5333,2140333,16464,-1352,420,16524.76,24.48,-1.00,-1.0,2367
5338,2140338,15440,-1468,-920,15536.89,24.44,-1.00,-1.0,2436
5341,2140341,18360,784,860,18396.84,24.48,-1.00,-1.0,2375
5344,2140344,17420,476,1432,17485.24,24.34,-1.00,-1.0,2434
5346,2140346,15420,-1160,1584,15544.49,24.39,-1.00,-1.0,2368
5349,2140349,18340,-740,1232,18396.22,24.44,-1.00,-1.0,2369
5352,2140352,15840,1316,2316,16062.42,24.44,-1.00,-1.0,2440
5354,2140354,17000,-532,1564,17080.08,24.44,-1.00,-1.0,2372
5357,2140357,16356,-1100,-1036,16425.65,24.48,-1.00,-1.0,2432
5360,2140360,19636,-696,272,19650.21,24.39,-1.00,-1.0,2369
5365,2140365,17472,-136,764,17489.22,24.39,-1.00,-1.0,2425
5368,2140368,17364,-1168,-540,17411.62,24.48,-1.00,-1.0,2369
5370,2140370,17120,284,3600,17496.71,24.39,-1.00,-1.0,2432
5373,2140373,17504,-1852,-484,17608.36,24.39,-1.00,-1.0,2365
5376,2140376,16260,-816,132,16281.00,24.39,-1.00,-1.0,2420
5379,2140379,19036,-484,-1028,19069.88,24.48,-1.00,-1.0,2368
5381,2140381,15984,712,1332,16055.20,24.39,-1.00,-1.0,2432
5384,2140384,18228,-996,-616,18265.58,24.39,-1.00,-1.0,2365
5389,2140389,16500,-476,160,16507.64,24.48,-1.00,-1.0,2448
5392,2140392,16972,-24,-28,16972.04,24.39,-1.00,-1.0,2377
5395,2140395,17724,-1000,-144,17752.77,24.39,-1.00,-1.0,2443
5397,2140397,17552,-780,1880,17669.62,24.48,-1.00,-1.0,2374
5400,2140400,16328,-1764,-60,16423.12,24.48,-1.00,-1.0,2360
5403,2140403,17060,-600,-56,17070.64,24.34,-1.00,-1.0,2430
5405,2140405,16688,112,808,16707.93,24.48,-1.00,-1.0,2369
5408,2140408,17984,-416,-688,18001.96,24.44,-1.00,-1.0,2433
5411,2140411,16896,-380,1756,16991.26,24.39,-1.00,-1.0,2366
5416,2140416,16384,-432,680,16403.79,24.39,-1.00,-1.0,2445
5419,2140419,18228,-4,1588,18297.04,24.39,-1.00,-1.0,2357
5422,2140422,14148,-652,1052,14202.03,24.48,-1.00,-1.0,2442
5424,2140424,19664,-1336,-976,19733.48,24.39,-1.00,-1.0,2374
5427,2140427,15824,176,1124,15864.85,24.48,-1.00,-1.0,2440
5430,2140430,17248,-280,1292,17298.59,24.48,-1.00,-1.0,2370
5433,2140433,15780,-228,448,15788.00,24.48,-1.00,-1.0,2442
5435,2140435,18316,-164,2340,18465.60,24.39,-1.00,-1.0,2375
5438,2140438,15920,-1068,2188,16105.10,24.44,-1.00,-1.0,2360
5443,2140443,19212,976,2036,19344.22,24.48,-1.00,-1.0,2444
5446,2140446,14268,-252,1304,14329.68,24.48,-1.00,-1.0,2369
5449,2140449,18324,-1076,1140,18390.93,24.34,-1.00,-1.0,2429
5451,2140451,14736,-1080,-528,14784.95,24.39,-1.00,-1.0,2374
5454,2140454,19596,-692,-444,19613.24,24.44,-1.00,-1.0,2432
5457,2140457,14936,56,1216,14985.52,24.39,-1.00,-1.0,2370
5460,2140460,17980,-1224,932,18045.70,24.44,-1.00,-1.0,2441
5462,2140462,16592,-1620,176,16671.83,24.39,-1.00,-1.0,2373
5467,2140467,17640,-744,-804,17673.98,24.48,-1.00,-1.0,2449
5470,2140470,17200,300,-376,17206.72,24.48,-1.00,-1.0,2369
5473,2140473,18724,-804,632,18751.91,24.39,-1.00,-1.0,2442
5475,2140475,15300,-836,1844,15433.38,24.39,-1.00,-1.0,2365
5478,2140478,18520,-600,-336,18532.76,24.39,-1.00,-1.0,2450
5481,2140481,17852,100,1504,17915.52,24.39,-1.00,-1.0,2367
5484,2140484,16916,-800,668,16948.08,24.39,-1.00,-1.0,2356
5486,2140486,16784,-628,944,16822.25,24.48,-1.00,-1.0,2434
5489,2140489,17028,-88,44,17028.29,24.39,-1.00,-1.0,2367
5494,2140494,17264,-324,2280,17416.92,24.53,-1.00,-1.0,2435
5497,2140497,15876,-1060,1304,15964.69,24.44,-1.00,-1.0,2356
5500,2140500,18012,-876,-872,18054.36,24.34,-1.00,-1.0,2440
5502,2140502,18000,-272,160,18002.77,24.53,-1.00,-1.0,2365
5505,2140505,16268,448,3476,16641.25,24.44,-1.00,-1.0,2420
5508,2140508,16712,-1848,-820,16833.85,24.34,-1.00,-1.0,2367
5511,2140511,17924,-284,576,17935.50,24.44,-1.00,-1.0,2434
5513,2140513,17500,24,-1040,17530.89,24.39,-1.00,-1.0,2374
5518,2140518,17556,-1220,1140,17635.22,24.39,-1.00,-1.0,2446
5521,2140521,15840,-1356,1752,15994.18,24.44,-1.00,-1.0,2383
5524,2140524,18636,-1196,-124,18674.75,24.53,-1.00,-1.0,2435
5527,2140527,15256,736,488,15281.54,24.44,-1.00,-1.0,2373
5529,2140529,18780,756,1484,18853.71,24.44,-1.00,-1.0,2361
5532,2140532,16320,-1188,1188,16406.25,24.48,-1.00,-1.0,2431
5535,2140535,16828,-1912,-1068,16969.91,24.44,-1.00,-1.0,2370
5537,2140537,18776,-752,-896,18812.40,24.39,-1.00,-1.0,2432
5540,2140540,15644,340,-192,15648.87,24.39,-1.00,-1.0,2371
5545,2140545,13620,-1584,1868,13838.46,24.44,-1.00,-1.0,2447
5548,2140548,17704,-1000,760,17748.50,24.44,-1.00,-1.0,2357
5551,2140551,17724,916,1800,17838.70,24.44,-1.00,-1.0,2443
5553,2140553,15444,300,976,15477.72,24.48,-1.00,-1.0,2376
5556,2140556,17812,308,688,17827.94,24.53,-1.00,-1.0,2439
5559,2140559,16180,-524,940,16215.75,24.44,-1.00,-1.0,2370
5562,2140562,17044,-2152,620,17190.50,24.44,-1.00,-1.0,2444
5564,2140564,16256,-928,188,16283.55,24.48,-1.00,-1.0,2376
5569,2140569,16804,164,1296,16854.70,24.39,-1.00,-1.0,2439
5572,2140572,16516,-900,348,16544.16,24.34,-1.00,-1.0,2372
5574,2140574,16496,-1320,-472,16555.46,24.39,-1.00,-1.0,2360
5577,2140577,19416,276,1788,19500.11,24.39,-1.00,-1.0,2433
5580,2140580,15180,-732,1172,15242.76,24.48,-1.00,-1.0,2366
5583,2140583,18176,-1240,-552,18226.61,24.39,-1.00,-1.0,2439
5585,2140585,16528,-24,948,16555.18,24.48,-1.00,-1.0,2365
5588,2140588,17508,-152,1620,17583.45,24.39,-1.00,-1.0,2437
5591,2140591,16248,-1104,932,16312.11,24.44,-1.00,-1.0,2376
5596,2140596,18532,460,32,18537.74,24.44,-1.00,-1.0,2446
5599,2140599,15348,1212,2768,15642.63,24.44,-1.00,-1.0,2376
5602,2140602,17504,-1452,-1580,17635.04,24.34,-1.00,-1.0,2423
5604,2140604,17112,-1464,848,17195.43,24.34,-1.00,-1.0,2367
5607,2140607,18620,-1260,716,18676.31,24.34,-1.00,-1.0,2447
5610,2140610,15624,-8,-784,15643.66,24.44,-1.00,-1.0,2367
5613,2140613,18368,1552,1164,18470.17,24.44,-1.00,-1.0,2440
5615,2140615,15824,-664,184,15838.99,24.44,-1.00,-1.0,2367
5618,2140618,18036,-596,2876,18273.58,24.48,-1.00,-1.0,2367
5623,2140623,16048,-272,-96,16050.59,24.48,-1.00,-1.0,2445
5626,2140626,19020,-264,-384,19025.71,24.25,-1.00,-1.0,2384
5629,2140629,15436,-712,2372,15633.41,24.39,-1.00,-1.0,2434
5632,2140632,17960,-2068,-448,18084.22,24.34,-1.00,-1.0,2376
5634,2140634,16356,652,292,16371.59,24.48,-1.00,-1.0,2434
5637,2140637,18084,1040,-704,18127.55,24.44,-1.00,-1.0,2381
5640,2140640,16740,272,420,16747.48,24.48,-1.00,-1.0,2435
5643,2140643,17348,-2572,112,17537.98,24.44,-1.00,-1.0,2371
5648,2140648,17776,-668,1208,17829.52,24.34,-1.00,-1.0,2437
5650,2140650,15968,424,-1044,16007.71,24.34,-1.00,-1.0,2369
5653,2140653,17656,928,1844,17776.27,24.39,-1.00,-1.0,2448
5656,2140656,15960,-780,852,16001.75,24.44,-1.00,-1.0,2364
5658,2140658,16940,-484,3080,17224.53,24.39,-1.00,-1.0,2370
5661,2140661,16008,-1276,484,16066.07,24.48,-1.00,-1.0,2439
5664,2140664,15972,-28,476,15979.12,24.39,-1.00,-1.0,2370
5667,2140667,18504,-368,1204,18546.78,24.48,-1.00,-1.0,2446
5669,2140669,13920,-44,2028,14067.02,24.29,-1.00,-1.0,2366
5674,2140674,15784,272,2012,15914.04,24.48,-1.00,-1.0,2439
5677,2140677,17384,1164,2076,17546.17,24.39,-1.00,-1.0,2372
5680,2140680,17796,268,-692,17811.46,24.48,-1.00,-1.0,2417
5683,2140683,17168,376,1636,17249.87,24.39,-1.00,-1.0,2369
5685,2140685,17164,-1908,1672,17350.47,24.48,-1.00,-1.0,2434
5688,2140688,15464,-1036,1684,15589.88,24.48,-1.00,-1.0,2374
5691,2140691,18268,240,80,18269.75,24.39,-1.00,-1.0,2432
5694,2140694,16744,1256,1592,16866.34,24.48,-1.00,-1.0,2370
5699,2140699,17020,-1120,-1068,17090.21,24.34,-1.00,-1.0,2441
5701,2140701,17892,-888,464,17920.03,24.44,-1.00,-1.0,2357
5704,2140704,17484,-1072,-212,17518.12,24.39,-1.00,-1.0,2368
5707,2140707,18368,-1232,1620,18480.41,24.39,-1.00,-1.0,2436
5709,2140709,15464,-1432,-1324,15586.50,24.44,-1.00,-1.0,2365
5712,2140712,18964,1096,1504,19055.09,24.39,-1.00,-1.0,2446
5715,2140715,16152,436,1540,16231.11,24.39,-1.00,-1.0,2367
5718,2140718,16216,-732,1088,16268.93,24.39,-1.00,-1.0,2441
5720,2140720,18176,-1444,-836,18252.42,24.44,-1.00,-1.0,2366
5725,2140725,18012,-576,668,18033.58,24.44,-1.00,-1.0,2439
5728,2140728,15308,-1292,136,15363.03,24.44,-1.00,-1.0,2370
5731,2140731,18556,-736,2296,18711.99,24.44,-1.00,-1.0,2431
5734,2140734,15060,-1224,-500,15117.93,24.44,-1.00,-1.0,2366
5736,2140736,17832,1000,708,17874.04,24.44,-1.00,-1.0,2434
5739,2140739,17452,-616,-2084,17586.78,24.48,-1.00,-1.0,2367
5742,2140742,16892,-1364,1888,17051.82,24.44,-1.00,-1.0,2431
5745,2140745,16996,-1948,332,17110.49,24.44,-1.00,-1.0,2366
5751,2140751,15320,676,2844,15596.40,24.44,-1.00,-1.0,2442
5754,2140754,17796,-1964,-1012,17932.62,24.39,-1.00,-1.0,2372
5757,2140757,17676,712,3072,17955.09,24.48,-1.00,-1.0,2419
5760,2140760,16840,40,-584,16850.17,24.44,-1.00,-1.0,2448
5762,2140762,16144,-200,476,16152.25,24.44,-1.00,-1.0,2366
5765,2140765,17644,-1692,700,17738.76,24.48,-1.00,-1.0,2433
5768,2140768,17452,-2100,-88,17578.11,24.44,-1.00,-1.0,2353
5771,2140771,17780,-20,2308,17929.19,24.44,-1.00,-1.0,2442
5773,2140773,16152,116,-880,16176.37,24.34,-1.00,-1.0,2369
5778,2140778,16056,-64,1084,16092.68,24.48,-1.00,-1.0,2434
5781,2140781,17348,-52,4012,17805.95,24.34,-1.00,-1.0,2368
5784,2140784,17804,-1664,8,17881.59,24.48,-1.00,-1.0,2448
5786,2140786,16276,-224,344,16281.18,24.48,-1.00,-1.0,2367
5789,2140789,18920,-228,1160,18956.90,24.48,-1.00,-1.0,2437
5792,2140792,14232,188,2008,14374.19,24.48,-1.00,-1.0,2365
5794,2140794,20284,-716,-564,20304.47,24.48,-1.00,-1.0,2359
5797,2140797,15992,-208,128,15993.87,24.44,-1.00,-1.0,2446
5800,2140800,17372,732,1272,17433.88,24.39,-1.00,-1.0,2366
5805,2140805,16212,-772,344,16234.02,24.39,-1.00,-1.0,2433
5808,2140808,17400,-1584,836,17491.94,24.34,-1.00,-1.0,2368
5810,2140810,15328,-548,2228,15498.77,24.39,-1.00,-1.0,2439
5813,2140813,18088,120,1384,18141.27,24.39,-1.00,-1.0,2367
5816,2140816,16308,-64,1132,16347.37,24.48,-1.00,-1.0,2432
5819,2140819,15916,-748,-392,15938.39,24.34,-1.00,-1.0,2364
5821,2140821,18848,-212,-316,18851.84,24.39,-1.00,-1.0,2434
5824,2140824,15328,-720,1192,15391.13,24.44,-1.00,-1.0,2367
5829,2140829,16948,-56,2956,17203.95,24.44,-1.00,-1.0,2442
5832,2140832,17104,-20,-164,17104.80,24.44,-1.00,-1.0,2375
5835,2140835,19280,300,1380,19331.65,24.34,-1.00,-1.0,2449
5837,2140837,14740,-348,604,14756.47,24.34,-1.00,-1.0,2375
5840,2140840,19212,-248,1088,19244.38,24.48,-1.00,-1.0,2349
5843,2140843,17164,-568,-852,17194.52,24.39,-1.00,-1.0,2429
5845,2140845,16564,196,1584,16640.72,24.34,-1.00,-1.0,2368
5848,2140848,18240,-524,2388,18403.12,24.39,-1.00,-1.0,2433
5851,2140851,15224,-1264,644,15289.95,24.44,-1.00,-1.0,2368
5856,2140856,14608,372,-888,14639.69,24.44,-1.00,-1.0,2441
5858,2140858,16824,964,1424,16911.65,24.44,-1.00,-1.0,2368
5861,2140861,17960,-1416,-664,18027.97,24.44,-1.00,-1.0,2449
5864,2140864,15448,-1508,648,15534.95,24.48,-1.00,-1.0,2375
5867,2140867,19176,-1124,-968,19233.29,24.44,-1.00,-1.0,2434
5869,2140869,14396,296,2312,14583.48,24.53,-1.00,-1.0,2365
5872,2140872,18112,-888,540,18141.79,24.44,-1.00,-1.0,2444
5875,2140875,15968,-980,-228,15999.67,24.48,-1.00,-1.0,2366
5880,2140880,16724,-272,252,16728.11,24.48,-1.00,-1.0,2433
5883,2140883,16080,288,112,16082.97,24.39,-1.00,-1.0,2369
5885,2140885,18936,-912,-420,18962.60,24.44,-1.00,-1.0,2361
5888,2140888,15108,-1396,2608,15394.87,24.44,-1.00,-1.0,2437
5891,2140891,19124,-1072,660,19165.39,24.44,-1.00,-1.0,2375
5894,2140894,17140,912,964,17191.29,24.44,-1.00,-1.0,2432
5896,2140896,16736,36,-1400,16794.49,24.44,-1.00,-1.0,2366
5899,2140899,17596,-1396,1040,17681.90,24.44,-1.00,-1.0,2433
5902,2140902,15388,-2480,-640,15599.70,24.39,-1.00,-1.0,2367
5907,2140907,16752,-516,-256,16761.90,24.39,-1.00,-1.0,2433
5909,2140909,16716,-400,-192,16721.89,24.39,-1.00,-1.0,2371
5912,2140912,17392,-996,1060,17452.71,24.39,-1.00,-1.0,2437
5915,2140915,17688,-1492,-532,17758.79,24.48,-1.00,-1.0,2367
5918,2140918,19560,-192,2296,19695.23,24.39,-1.00,-1.0,2433
5920,2140920,14448,-104,-1168,14495.51,24.48,-1.00,-1.0,2368
5923,2140923,20072,340,700,20087.08,24.39,-1.00,-1.0,2433
5926,2140926,14320,-644,2020,14476.10,24.48,-1.00,-1.0,2368
5928,2140928,16472,-1900,648,16593.88,24.39,-1.00,-1.0,2360
5933,2140933,13484,-420,376,13495.78,24.44,-1.00,-1.0,2459
5936,2140936,19788,416,316,19794.89,24.44,-1.00,-1.0,2370
5939,2140939,15456,-924,-440,15489.85,24.39,-1.00,-1.0,2454
5942,2140942,18524,-948,244,18549.85,24.44,-1.00,-1.0,2367
5945,2140945,19428,-404,1232,19471.21,24.39,-1.00,-1.0,2438
5947,2140947,14608,-644,1240,14674.67,24.44,-1.00,-1.0,2368
5950,2140950,19300,-460,860,19324.63,24.44,-1.00,-1.0,2437
5953,2140953,14224,-988,-1300,14317.41,24.44,-1.00,-1.0,2372
5958,2140958,15824,-1116,712,15879.28,24.48,-1.00,-1.0,2442
5960,2140960,17372,-112,1340,17423.96,24.44,-1.00,-1.0,2369
5963,2140963,18032,-424,-128,18037.44,24.48,-1.00,-1.0,2451
5966,2140966,14944,1188,2432,15187.14,24.44,-1.00,-1.0,2368
5969,2140969,20468,-1628,-1832,20614.21,24.48,-1.00,-1.0,2439
5971,2140971,13936,-1496,784,14037.98,24.44,-1.00,-1.0,2367
5974,2140974,21256,-680,-44,21266.92,24.39,-1.00,-1.0,2349
5977,2140977,15416,504,1592,15506.18,24.39,-1.00,-1.0,2449
5979,2140979,18096,668,1044,18138.39,24.39,-1.00,-1.0,2366
5984,2140984,15620,-1100,1388,15720.08,24.39,-1.00,-1.0,2450
5987,2140987,17852,-1244,1232,17937.65,24.39,-1.00,-1.0,2370
5990,2140990,15020,-396,1084,15064.27,24.44,-1.00,-1.0,2449
5992,2140992,18320,240,1148,18357.50,24.39,-1.00,-1.0,2374
5995,2140995,15244,724,3280,15609.68,24.44,-1.00,-1.0,2437
5998,2140998,17988,-1260,-1140,18068.08,24.48,-1.00,-1.0,2369
6001,2141001,16156,-172,228,16158.52,24.44,-1.00,-1.0,2448
6003,2141003,16532,-544,28,16540.97,24.48,-1.00,-1.0,2376
