timestamp_ms,global_ms,accel_x,accel_y,accel_z,accel_mag,temp_c,voltage,soc,loop_us
2,2135002,16232,-660,1740,16338.33,24.01,-1.00,-1.0,2488
9,2135009,18704,-1952,-1040,18834.32,24.06,-1.00,-1.0,2463
11,2135011,16512,-4,1812,16611.12,24.06,-1.00,-1.0,2367
14,2135014,16080,208,1392,16141.48,23.92,-1.00,-1.0,2456
17,2135017,17468,-1312,-828,17536.76,24.01,-1.00,-1.0,2360
20,2135020,17224,-528,648,17244.27,23.97,-1.00,-1.0,2359
22,2135022,17392,-580,232,17403.21,23.97,-1.00,-1.0,2435
25,2135025,16000,344,632,16016.17,23.97,-1.00,-1.0,2365
28,2135028,17828,-1384,312,17884.36,24.15,-1.00,-1.0,2430
31,2135031,15372,-1708,1164,15510.34,24.01,-1.00,-1.0,2363
35,2135035,17504,-580,504,17520.86,23.97,-1.00,-1.0,2441
38,2135038,15772,1772,1544,15946.16,24.06,-1.00,-1.0,2362
41,2135041,16776,232,-116,16778.01,24.06,-1.00,-1.0,2440
44,2135044,16540,-1664,764,16641.04,23.97,-1.00,-1.0,2364
46,2135046,19116,-1764,2080,19309.57,23.97,-1.00,-1.0,2354
49,2135049,14948,-848,1024,15007.01,23.97,-1.00,-1.0,2437
52,2135052,18816,528,-416,18828.00,24.06,-1.00,-1.0,2372
54,2135054,16340,864,-68,16362.97,24.06,-1.00,-1.0,2430
57,2135057,17508,-484,1532,17581.56,23.97,-1.00,-1.0,2363
62,2135062,15664,-1352,1164,15765.27,23.97,-1.00,-1.0,2441
65,2135065,18360,552,488,18374.78,24.01,-1.00,-1.0,2362
68,2135068,15176,584,-112,15187.65,24.06,-1.00,-1.0,2433
70,2135070,18424,-180,1012,18452.65,24.01,-1.00,-1.0,2371
73,2135073,15772,-1400,568,15844.20,24.06,-1.00,-1.0,2430
76,2135076,18876,-1084,936,18930.25,24.01,-1.00,-1.0,2364
78,2135078,16636,-444,140,16642.51,24.06,-1.00,-1.0,2355
81,2135081,16268,808,576,16298.24,23.97,-1.00,-1.0,2422
84,2135084,17368,-884,684,17403.93,24.01,-1.00,-1.0,2361
89,2135089,18396,-2116,572,18526.13,24.01,-1.00,-1.0,2444
92,2135092,16316,-604,-244,16329.00,23.92,-1.00,-1.0,2364
94,2135094,18952,480,-988,18983.80,24.11,-1.00,-1.0,2449
97,2135097,15836,16,216,15837.48,24.11,-1.00,-1.0,2365
100,2135100,18388,-848,1712,18486.98,24.01,-1.00,-1.0,2438
102,2135102,17372,-1900,600,17485.89,24.01,-1.00,-1.0,2359
105,2135105,17408,-68,1880,17509.35,24.01,-1.00,-1.0,2367
108,2135108,16636,332,1424,16700.13,24.11,-1.00,-1.0,2437
111,2135111,15400,-176,-572,15411.62,24.11,-1.00,-1.0,2365
116,2135116,15312,-1072,304,15352.49,23.92,-1.00,-1.0,2441
118,2135118,18852,-824,940,18893.40,24.01,-1.00,-1.0,2360
121,2135121,16260,36,212,16261.42,24.01,-1.00,-1.0,2455
124,2135124,17408,428,1468,17475.03,24.01,-1.00,-1.0,2369
127,2135127,18400,-1128,148,18435.14,24.11,-1.00,-1.0,2447
129,2135129,15600,-1940,1064,15756.13,23.92,-1.00,-1.0,2358
132,2135132,18192,-1076,420,18228.63,24.11,-1.00,-1.0,2452
135,2135135,15132,784,592,15163.86,24.01,-1.00,-1.0,2362
137,2135137,18160,568,-624,18179.59,23.97,-1.00,-1.0,2369
142,2135142,17516,-1852,1812,17706.60,24.01,-1.00,-1.0,2443
145,2135145,16832,-840,860,16874.88,24.01,-1.00,-1.0,2359
148,2135148,17420,1804,804,17531.61,24.06,-1.00,-1.0,2454
151,2135151,15960,692,920,16001.46,24.15,-1.00,-1.0,2370
153,2135153,15920,-1260,468,15976.64,24.01,-1.00,-1.0,2431
156,2135156,18124,-2312,780,18287.51,23.97,-1.00,-1.0,2365
159,2135159,16800,0,2204,16943.96,23.97,-1.00,-1.0,2429
162,2135162,16968,1008,1276,17045.74,23.97,-1.00,-1.0,2364
167,2135167,18456,-692,872,18489.54,23.97,-1.00,-1.0,2443
169,2135169,16100,-1868,1068,16243.15,24.01,-1.00,-1.0,2362
172,2135172,17852,-904,536,17882.91,23.97,-1.00,-1.0,2362
175,2135175,16216,396,-532,16229.56,23.97,-1.00,-1.0,2441
177,2135177,16380,1344,1756,16528.59,23.97,-1.00,-1.0,2374
180,2135180,16956,-988,608,16995.64,23.87,-1.00,-1.0,2438
183,2135183,16012,-1968,1208,16177.65,23.92,-1.00,-1.0,2367
186,2135186,18544,-984,136,18570.59,24.06,-1.00,-1.0,2445
188,2135188,14764,-84,-272,14766.74,23.97,-1.00,-1.0,2376
193,2135193,16636,28,1240,16682.17,23.97,-1.00,-1.0,2443
196,2135196,16652,-1368,1252,16754.94,24.01,-1.00,-1.0,2359
199,2135199,17240,-1540,160,17309.38,24.01,-1.00,-1.0,2444
201,2135201,15160,48,1544,15238.50,24.01,-1.00,-1.0,2347
204,2135204,18216,-132,-364,18220.12,24.06,-1.00,-1.0,2361
207,2135207,15544,-664,348,15562.07,23.97,-1.00,-1.0,2443
209,2135209,17684,-704,2164,17829.82,24.01,-1.00,-1.0,2359
212,2135212,16428,-1156,460,16475.04,23.97,-1.00,-1.0,2449
215,2135215,18608,-880,-680,18641.20,23.92,-1.00,-1.0,2362
220,2135220,16160,368,748,16181.49,23.97,-1.00,-1.0,2441
223,2135223,17496,-1368,-348,17552.85,24.01,-1.00,-1.0,2368
226,2135226,17056,-896,2500,17261.52,24.06,-1.00,-1.0,2443
228,2135228,18576,-1624,1040,18675.83,23.97,-1.00,-1.0,2362
231,2135231,15120,-392,-824,15147.51,23.97,-1.00,-1.0,2452
234,2135234,19236,536,-108,19243.77,23.92,-1.00,-1.0,2365
237,2135237,15300,-796,888,15346.41,23.97,-1.00,-1.0,2437
239,2135239,17280,-1840,1760,17466.59,24.06,-1.00,-1.0,2364
242,2135242,17220,-1648,292,17301.14,24.06,-1.00,-1.0,2362
247,2135247,17440,420,224,17446.49,23.97,-1.00,-1.0,2442
250,2135250,15112,-540,56,15121.75,24.06,-1.00,-1.0,2355
253,2135253,18360,-704,1464,18431.73,23.97,-1.00,-1.0,2440
255,2135255,15632,-1260,-32,15682.73,24.06,-1.00,-1.0,2359
258,2135258,18560,-880,-180,18581.72,23.97,-1.00,-1.0,2437
261,2135261,16660,84,-400,16665.01,24.01,-1.00,-1.0,2371
263,2135263,18568,-176,2052,18681.87,23.97,-1.00,-1.0,2430
266,2135266,16808,-1760,592,16910.26,24.06,-1.00,-1.0,2368
271,2135271,18396,280,628,18408.85,24.06,-1.00,-1.0,2444
274,2135274,14948,-284,-468,14958.02,23.97,-1.00,-1.0,2359
277,2135277,18948,-692,-400,18964.85,24.06,-1.00,-1.0,2363
279,2135279,16276,-532,1756,16379.09,24.01,-1.00,-1.0,2442
282,2135282,17052,-1048,1252,17129.99,24.06,-1.00,-1.0,2373
285,2135285,17056,-592,588,17076.40,24.01,-1.00,-1.0,2443
287,2135287,17268,-292,-20,17270.48,24.06,-1.00,-1.0,2358
290,2135290,17556,-60,712,17570.54,24.01,-1.00,-1.0,2424
293,2135293,17124,-548,700,17147.06,24.01,-1.00,-1.0,2369
298,2135298,16236,-916,84,16262.04,23.97,-1.00,-1.0,2441
301,2135301,18260,-412,204,18265.79,24.06,-1.00,-1.0,2358
304,2135304,15940,-860,-376,15967.61,24.11,-1.00,-1.0,2446
306,2135306,18688,-716,140,18702.23,24.06,-1.00,-1.0,2359
309,2135309,16204,-232,1144,16245.99,24.01,-1.00,-1.0,2365
312,2135312,17128,96,1232,17172.52,23.92,-1.00,-1.0,2439
314,2135314,17080,-1220,1304,17173.10,23.97,-1.00,-1.0,2358
317,2135317,16996,-464,2596,17199.38,24.06,-1.00,-1.0,2437
320,2135320,18616,-1028,-1012,18671.81,24.01,-1.00,-1.0,2412
325,2135325,18556,292,396,18562.52,23.97,-1.00,-1.0,2452
328,2135328,15932,-740,1608,16030.03,24.06,-1.00,-1.0,2369
331,2135331,17864,-2272,1424,18064.12,23.97,-1.00,-1.0,2433
334,2135334,15640,-840,168,15663.44,24.11,-1.00,-1.0,2367
336,2135336,18188,188,320,18191.79,24.06,-1.00,-1.0,2432
339,2135339,16616,-348,204,16620.90,24.06,-1.00,-1.0,2366
342,2135342,17164,-968,852,17212.38,23.97,-1.00,-1.0,2433
345,2135345,17000,-1160,1304,17089.35,23.97,-1.00,-1.0,2422
347,2135347,16600,336,820,16623.64,24.06,-1.00,-1.0,2363
352,2135352,15812,-136,768,15831.22,24.06,-1.00,-1.0,2455
355,2135355,18016,-1624,220,18090.38,23.97,-1.00,-1.0,2373
358,2135358,16576,-1500,1360,16699.20,24.06,-1.00,-1.0,2432
361,2135361,17672,-28,1032,17702.13,24.01,-1.00,-1.0,2366
363,2135363,16288,272,-336,16293.74,23.97,-1.00,-1.0,2434
366,2135366,16328,648,1956,16457.50,24.11,-1.00,-1.0,2370
369,2135369,17172,-1716,1268,17304.05,23.97,-1.00,-1.0,2435
372,2135372,16156,-1204,828,16221.95,24.01,-1.00,-1.0,2371
377,2135377,14728,508,-1104,14778.05,24.01,-1.00,-1.0,2447
379,2135379,18600,744,2036,18725.89,23.92,-1.00,-1.0,2371
382,2135382,16220,-1808,2164,16463.30,24.06,-1.00,-1.0,2348
385,2135385,17044,-692,1356,17111.85,24.06,-1.00,-1.0,2441
387,2135387,19324,840,424,19346.89,24.15,-1.00,-1.0,2376
390,2135390,14492,600,1068,14543.68,24.06,-1.00,-1.0,2434
393,2135393,18348,-1488,1120,18442.28,24.01,-1.00,-1.0,2354
396,2135396,14352,-1936,1420,14551.44,24.01,-1.00,-1.0,2444
398,2135398,19092,-696,-268,19106.56,24.15,-1.00,-1.0,2367
403,2135403,18124,500,-128,18131.35,24.06,-1.00,-1.0,2441
406,2135406,17648,-100,1188,17688.22,23.97,-1.00,-1.0,2366
409,2135409,15956,-960,2380,16161.06,23.97,-1.00,-1.0,2433
412,2135412,17652,-1464,1948,17819.40,23.97,-1.00,-1.0,2368
414,2135414,16356,304,1848,16462.88,23.97,-1.00,-1.0,2432
417,2135417,18296,132,-568,18305.29,24.11,-1.00,-1.0,2415
420,2135420,15068,244,-140,15070.63,23.97,-1.00,-1.0,2360
423,2135423,18748,-784,1104,18796.83,24.06,-1.00,-1.0,2436
425,2135425,15280,-2136,20,15428.59,24.01,-1.00,-1.0,2375
430,2135430,16868,716,792,16901.76,23.97,-1.00,-1.0,2440
433,2135433,15104,472,564,15121.89,23.92,-1.00,-1.0,2367
436,2135436,18052,-644,584,18072.92,24.06,-1.00,-1.0,2443
438,2135438,15700,-1512,1748,15869.20,24.01,-1.00,-1.0,2367
441,2135441,17892,-716,1324,17955.20,24.06,-1.00,-1.0,2449
444,2135444,16328,-392,-292,16335.31,24.01,-1.00,-1.0,2367
447,2135447,17532,84,-1428,17590.26,24.06,-1.00,-1.0,2442
449,2135449,16628,-260,-92,16630.29,24.01,-1.00,-1.0,2368
452,2135452,18240,-1364,1356,18341.12,23.92,-1.00,-1.0,2360
457,2135457,18220,460,1804,18314.87,23.97,-1.00,-1.0,2466
460,2135460,17360,12,-368,17363.90,23.97,-1.00,-1.0,2365
463,2135463,15200,176,408,15206.49,24.01,-1.00,-1.0,2439
466,2135466,18736,-788,1664,18826.25,23.97,-1.00,-1.0,2366
468,2135468,14948,-2180,708,15122.71,23.92,-1.00,-1.0,2438
471,2135471,18948,-432,1172,18989.13,23.97,-1.00,-1.0,2352
474,2135474,15844,924,180,15871.94,24.11,-1.00,-1.0,2441
477,2135477,17848,396,-276,17854.53,23.97,-1.00,-1.0,2372
482,2135482,16800,-1856,1364,16957.16,24.06,-1.00,-1.0,2454
484,2135484,17140,-792,284,17160.64,23.97,-1.00,-1.0,2369
487,2135487,15876,824,1504,15968.36,24.11,-1.00,-1.0,2363
490,2135490,17340,-152,-232,17342.22,24.01,-1.00,-1.0,2432
492,2135492,16680,-700,2416,16868.59,24.06,-1.00,-1.0,2372
495,2135495,18472,-2376,220,18625.48,24.01,-1.00,-1.0,2438
498,2135498,15908,-636,28,15920.73,23.97,-1.00,-1.0,2365
501,2135501,18148,1344,132,18198.18,24.01,-1.00,-1.0,2445
504,2135504,16428,228,1140,16469.09,23.97,-1.00,-1.0,2365
509,2135509,16628,-1568,1604,16778.61,23.97,-1.00,-1.0,2446
511,2135511,17316,720,1012,17360.48,24.06,-1.00,-1.0,2366
514,2135514,17192,1048,-156,17224.62,24.06,-1.00,-1.0,2438
517,2135517,16120,-84,508,16128.22,24.06,-1.00,-1.0,2374
519,2135519,18100,-2356,308,18255.29,23.97,-1.00,-1.0,2363
522,2135522,15936,-1628,1092,16056.12,24.01,-1.00,-1.0,2451
525,2135525,18208,112,480,18214.67,23.97,-1.00,-1.0,2374
528,2135528,15844,508,-1452,15918.50,24.11,-1.00,-1.0,2446
531,2135531,19224,48,1696,19298.73,24.06,-1.00,-1.0,2377
536,2135536,15408,-1568,1000,15519.83,24.06,-1.00,-1.0,2450
538,2135538,18888,828,460,18911.73,24.06,-1.00,-1.0,2375
541,2135541,14660,444,-436,14673.20,24.01,-1.00,-1.0,2452
544,2135544,18672,-1472,-680,18742.27,23.97,-1.00,-1.0,2371
547,2135547,15992,-1960,-148,16112.34,23.92,-1.00,-1.0,2444
549,2135549,18892,-128,560,18900.73,24.06,-1.00,-1.0,2371
552,2135552,16924,132,132,16925.03,24.01,-1.00,-1.0,2446
555,2135555,16972,-116,392,16976.92,24.06,-1.00,-1.0,2372
558,2135558,17052,-624,1296,17112.56,23.92,-1.00,-1.0,2362
563,2135563,17684,-1068,720,17730.85,23.92,-1.00,-1.0,2455
565,2135565,16248,-612,132,16260.06,23.97,-1.00,-1.0,2371
568,2135568,18512,84,780,18528.62,24.01,-1.00,-1.0,2452
571,2135571,15592,-112,800,15612.91,24.01,-1.00,-1.0,2370
574,2135574,17848,-272,468,17856.21,23.92,-1.00,-1.0,2448
576,2135576,16588,-1368,-260,16646.34,24.01,-1.00,-1.0,2374
579,2135579,16384,-588,2040,16520.98,24.01,-1.00,-1.0,2446
582,2135582,17312,-728,904,17350.87,24.01,-1.00,-1.0,2371
587,2135587,18204,-48,148,18204.66,23.97,-1.00,-1.0,2454
589,2135589,15964,-820,300,15987.86,24.06,-1.00,-1.0,2366
592,2135592,17064,-964,1168,17131.07,23.97,-1.00,-1.0,2361
595,2135595,17220,-1396,296,17279.03,24.01,-1.00,-1.0,2445
597,2135597,17260,-276,-240,17263.88,23.97,-1.00,-1.0,2364
600,2135600,17008,176,-196,17010.04,24.01,-1.00,-1.0,2459
603,2135603,17600,-528,612,17618.55,23.97,-1.00,-1.0,2367
606,2135606,17180,-1456,912,17265.69,24.06,-1.00,-1.0,2438
609,2135609,17028,-676,1632,17119.38,24.06,-1.00,-1.0,2364
614,2135614,15580,456,664,15600.81,24.01,-1.00,-1.0,2446
616,2135616,18160,-860,564,18189.10,24.01,-1.00,-1.0,2374
619,2135619,15568,-1628,180,15653.93,24.06,-1.00,-1.0,2445
622,2135622,17888,-380,2172,18023.39,24.01,-1.00,-1.0,2351
624,2135624,16212,-380,380,16220.90,24.11,-1.00,-1.0,2362
627,2135627,17248,-464,-992,17282.73,24.06,-1.00,-1.0,2437
630,2135630,17948,544,1332,18005.58,23.97,-1.00,-1.0,2366
633,2135633,16688,-1036,588,16730.46,24.15,-1.00,-1.0,2438
636,2135636,17096,-1248,52,17141.57,24.06,-1.00,-1.0,2365
640,2135640,17504,-768,-188,17521.85,24.01,-1.00,-1.0,2446
643,2135643,16616,-548,1548,16696.95,24.06,-1.00,-1.0,2351
646,2135646,17916,-1272,416,17965.91,24.01,-1.00,-1.0,2436
649,2135649,16300,-536,-92,16309.07,23.87,-1.00,-1.0,2365
651,2135651,18056,116,-104,18056.67,24.01,-1.00,-1.0,2438
654,2135654,16704,100,1148,16743.70,23.97,-1.00,-1.0,2365
657,2135657,17124,-1256,952,17196.37,23.92,-1.00,-1.0,2368
660,2135660,16704,-1160,432,16749.80,24.11,-1.00,-1.0,2439
663,2135663,17612,400,1404,17672.40,24.06,-1.00,-1.0,2364
667,2135667,16032,-640,544,16053.99,24.11,-1.00,-1.0,2432
670,2135670,18380,-1024,676,18420.91,23.97,-1.00,-1.0,2364
673,2135673,15464,-932,372,15496.53,24.01,-1.00,-1.0,2437
676,2135676,18484,-236,80,18485.68,23.97,-1.00,-1.0,2364
678,2135678,15940,-480,-1076,15983.48,24.01,-1.00,-1.0,2437
681,2135681,18904,-352,1704,18983.91,24.06,-1.00,-1.0,2363
684,2135684,17436,-1832,700,17545.95,24.01,-1.00,-1.0,2437
687,2135687,15352,-564,504,15370.62,23.92,-1.00,-1.0,2371
692,2135692,15224,-236,504,15234.17,23.92,-1.00,-1.0,2446
694,2135694,18516,-2084,-568,18641.56,24.06,-1.00,-1.0,2364
697,2135697,16812,-668,1440,16886.78,24.01,-1.00,-1.0,2363
700,2135700,16740,228,1148,16780.87,24.01,-1.00,-1.0,2447
702,2135702,17028,40,-88,17028.27,24.01,-1.00,-1.0,2364
705,2135705,17248,-1616,444,17329.23,24.01,-1.00,-1.0,2440
708,2135708,17244,-1284,1788,17383.93,24.01,-1.00,-1.0,2364
711,2135711,16296,-460,600,16313.53,23.97,-1.00,-1.0,2444
714,2135714,17344,-144,124,17345.04,24.01,-1.00,-1.0,2367
719,2135719,18368,-892,1296,18435.26,24.01,-1.00,-1.0,2450
721,2135721,16136,-876,628,16171.96,24.01,-1.00,-1.0,2363
724,2135724,17288,484,156,17295.48,24.01,-1.00,-1.0,2436
727,2135727,17600,996,-64,17628.28,23.92,-1.00,-1.0,2353
729,2135729,17060,-88,1536,17129.23,24.01,-1.00,-1.0,2361
732,2135732,17244,-1572,1084,17349.40,23.92,-1.00,-1.0,2437
735,2135735,15716,-1116,1148,15797.34,24.11,-1.00,-1.0,2365
738,2135738,18164,-152,324,18167.53,23.97,-1.00,-1.0,2439
741,2135741,16244,128,500,16252.20,24.06,-1.00,-1.0,2375
746,2135746,16516,-1568,836,16611.31,23.92,-1.00,-1.0,2452
748,2135748,17800,-208,440,17806.65,24.01,-1.00,-1.0,2364
751,2135751,16184,604,1088,16231.77,24.01,-1.00,-1.0,2438
754,2135754,17340,-276,-144,17342.79,24.11,-1.00,-1.0,2363
757,2135757,16848,-724,344,16867.06,23.97,-1.00,-1.0,2440
759,2135759,17116,-76,1540,17185.31,23.92,-1.00,-1.0,2364
762,2135762,17092,-32,628,17103.56,23.97,-1.00,-1.0,2360
765,2135765,16532,-392,640,16549.03,24.01,-1.00,-1.0,2439
768,2135768,17872,-1116,540,17914.95,24.06,-1.00,-1.0,2371
773,2135773,17704,-460,452,17715.74,24.06,-1.00,-1.0,2454
775,2135775,16268,-308,752,16288.28,23.97,-1.00,-1.0,2365
778,2135778,17820,-860,-104,17841.04,23.97,-1.00,-1.0,2446
781,2135781,16516,-28,1056,16549.75,24.06,-1.00,-1.0,2364
784,2135784,16384,-284,-84,16386.68,23.97,-1.00,-1.0,2444
786,2135786,17220,-232,-272,17223.71,24.01,-1.00,-1.0,2351
789,2135789,17552,-1088,1728,17670.38,23.97,-1.00,-1.0,2438
792,2135792,17256,-2264,936,17429.04,24.01,-1.00,-1.0,2364
795,2135795,15912,-1004,-96,15943.93,23.97,-1.00,-1.0,2347
800,2135800,16012,68,164,16012.98,23.97,-1.00,-1.0,2453
802,2135802,17896,-1172,744,17949.76,23.97,-1.00,-1.0,2364
805,2135805,16688,-1504,932,16781.54,23.97,-1.00,-1.0,2453
808,2135808,17108,440,1156,17152.66,24.06,-1.00,-1.0,2364
811,2135811,17448,4,-1536,17515.48,23.97,-1.00,-1.0,2443
813,2135813,17456,-392,216,17461.74,23.97,-1.00,-1.0,2364
816,2135816,17124,-1208,1756,17256.13,24.06,-1.00,-1.0,2442
819,2135819,16348,-812,1748,16461.23,24.06,-1.00,-1.0,2363
824,2135824,16468,304,980,16499.93,24.06,-1.00,-1.0,2445
827,2135827,16328,-540,736,16353.50,24.01,-1.00,-1.0,2368
829,2135829,17120,-796,440,17144.14,24.06,-1.00,-1.0,2364
832,2135832,17584,-840,184,17605.01,24.06,-1.00,-1.0,2437
835,2135835,16208,-352,1204,16256.47,23.97,-1.00,-1.0,2370
838,2135838,16676,-588,300,16689.06,24.06,-1.00,-1.0,2438
840,2135840,17304,-900,-592,17337.50,23.97,-1.00,-1.0,2363
843,2135843,17616,-248,1972,17727.77,24.06,-1.00,-1.0,2437
846,2135846,16476,-1448,84,16539.72,24.01,-1.00,-1.0,2366
851,2135851,17852,468,1348,17908.94,24.06,-1.00,-1.0,2444
853,2135853,16548,-664,1812,16660.15,23.97,-1.00,-1.0,2363
856,2135856,17000,-1552,36,17070.73,23.97,-1.00,-1.0,2438
859,2135859,16880,-236,468,16888.13,24.06,-1.00,-1.0,2365
861,2135861,16724,264,948,16752.93,23.97,-1.00,-1.0,2347
864,2135864,16596,-680,-36,16609.96,23.97,-1.00,-1.0,2437
867,2135867,18064,-1152,1412,18155.69,24.06,-1.00,-1.0,2365
870,2135870,15876,-340,1576,15957.66,23.97,-1.00,-1.0,2440
873,2135873,17244,332,312,17250.02,23.97,-1.00,-1.0,2363
878,2135878,16072,-892,48,16096.81,24.06,-1.00,-1.0,2445
880,2135880,18228,-2368,312,18383.82,23.97,-1.00,-1.0,2364
883,2135883,16540,-1232,-424,16591.24,24.06,-1.00,-1.0,2425
886,2135886,18044,1492,1068,18137.05,24.06,-1.00,-1.0,2366
889,2135889,16568,208,-180,16570.28,24.06,-1.00,-1.0,2439
891,2135891,17104,-1720,260,17192.23,24.06,-1.00,-1.0,2371
894,2135894,17976,-1836,748,18084.99,23.97,-1.00,-1.0,2438
897,2135897,16808,-144,1332,16861.31,24.06,-1.00,-1.0,2367
900,2135900,16856,956,148,16883.74,24.06,-1.00,-1.0,2362
905,2135905,17844,-1356,1432,17952.65,24.06,-1.00,-1.0,2445
908,2135908,16052,-1964,720,16187.72,24.06,-1.00,-1.0,2365
910,2135910,18180,-292,92,18182.58,24.06,-1.00,-1.0,2437
913,2135913,16636,1084,1316,16723.14,24.11,-1.00,-1.0,2365
916,2135916,16968,-280,1508,17037.18,24.15,-1.00,-1.0,2437
919,2135919,17500,-1492,-68,17563.62,24.06,-1.00,-1.0,2367
921,2135921,17352,-464,1516,17424.28,24.06,-1.00,-1.0,2437
924,2135924,16432,452,1104,16475.25,23.92,-1.00,-1.0,2367
929,2135929,18700,-260,584,18710.92,24.01,-1.00,-1.0,2458
932,2135932,16352,-1048,1996,16506.67,24.01,-1.00,-1.0,2366
934,2135934,16724,-1564,1088,16832.17,24.06,-1.00,-1.0,2348
937,2135937,16828,-52,716,16843.30,23.97,-1.00,-1.0,2436
940,2135940,17228,68,-444,17233.86,23.97,-1.00,-1.0,2352
943,2135943,17156,-336,884,17182.04,24.06,-1.00,-1.0,2444
945,2135945,16880,-1768,348,16975.90,24.06,-1.00,-1.0,2371
948,2135948,17152,-1000,-360,17184.90,23.97,-1.00,-1.0,2444
951,2135951,17352,968,1172,17418.45,24.01,-1.00,-1.0,2364
956,2135956,17228,-1704,216,17313.41,24.11,-1.00,-1.0,2445
959,2135959,17668,-1252,1788,17802.32,24.01,-1.00,-1.0,2363
961,2135961,16020,-220,980,16051.46,24.01,-1.00,-1.0,2437
964,2135964,17752,-188,-944,17778.08,24.11,-1.00,-1.0,2364
967,2135967,16824,-596,740,16850.81,24.01,-1.00,-1.0,2437
970,2135970,16512,-1464,1208,16620.73,23.97,-1.00,-1.0,2364
972,2135972,17232,-1036,176,17264.01,24.01,-1.00,-1.0,2360
975,2135975,17408,280,52,17410.33,23.97,-1.00,-1.0,2452
978,2135978,16436,208,208,16438.63,24.01,-1.00,-1.0,2364
983,2135983,16744,-2368,608,16921.54,24.01,-1.00,-1.0,2444
986,2135986,15632,-1148,1120,15714.06,24.11,-1.00,-1.0,2364
988,2135988,18748,464,1068,18784.13,24.01,-1.00,-1.0,2438
991,2135991,15688,288,1272,15742.12,24.01,-1.00,-1.0,2365
994,2135994,17744,-1984,-936,17879.09,24.01,-1.00,-1.0,2436
997,2135997,16784,-312,1704,16873.16,24.11,-1.00,-1.0,2364
999,2135999,16992,676,1724,17092.61,24.01,-1.00,-1.0,2425
1002,2136002,16960,-252,-360,16965.69,24.01,-1.00,-1.0,2365
1005,2136005,17076,-1580,-68,17149.08,24.01,-1.00,-1.0,2368
1010,2136010,16704,-1076,376,16742.84,24.01,-1.00,-1.0,2444
1013,2136013,17512,-228,1032,17543.86,24.11,-1.00,-1.0,2372
1015,2136015,16428,-544,1256,16484.92,23.97,-1.00,-1.0,2438
1018,2136018,17608,-1340,-464,17665.01,24.01,-1.00,-1.0,2364
1021,2136021,16508,-328,-744,16528.01,24.11,-1.00,-1.0,2438
1024,2136024,16760,1240,1632,16884.86,24.01,-1.00,-1.0,2364
1026,2136026,17008,-600,-460,17024.79,24.06,-1.00,-1.0,2437
1029,2136029,17784,-1108,1020,17847.65,24.11,-1.00,-1.0,2364
1034,2136034,16044,-20,1452,16109.58,24.01,-1.00,-1.0,2445
1037,2136037,17364,-212,-332,17368.47,24.01,-1.00,-1.0,2368
1040,2136040,16484,-456,524,16498.63,24.01,-1.00,-1.0,2428
1042,2136042,18052,-1960,556,18166.60,24.01,-1.00,-1.0,2371
1045,2136045,15948,-400,912,15979.06,24.01,-1.00,-1.0,2437
1048,2136048,17908,536,-344,17919.32,24.01,-1.00,-1.0,2365
1050,2136050,16780,636,588,16802.34,24.01,-1.00,-1.0,2360
1053,2136053,17564,-836,1504,17648.09,23.92,-1.00,-1.0,2423
1056,2136056,16316,-1480,1224,16428.65,24.01,-1.00,-1.0,2372
1061,2136061,16656,1016,1164,16727.51,24.01,-1.00,-1.0,2444
1064,2136064,16548,-404,-196,16554.09,24.01,-1.00,-1.0,2364
1066,2136066,17896,-1876,528,18001.80,24.01,-1.00,-1.0,2437
1069,2136069,16356,-544,1876,16472.22,24.01,-1.00,-1.0,2367
1072,2136072,17108,324,764,17128.12,24.11,-1.00,-1.0,2436
1075,2136075,16056,512,-692,16079.06,24.01,-1.00,-1.0,2366
1077,2136077,18592,120,732,18606.79,24.01,-1.00,-1.0,2438
1080,2136080,16304,-1420,1372,16423.13,23.92,-1.00,-1.0,2352
1085,2136085,17680,-204,-20,17681.19,24.01,-1.00,-1.0,2447
1088,2136088,16504,1036,968,16564.79,24.11,-1.00,-1.0,2367
1090,2136090,17536,-600,1304,17594.65,24.01,-1.00,-1.0,2438
1093,2136093,16156,-1960,980,16303.94,24.11,-1.00,-1.0,2367
1096,2136096,17060,-380,-372,17068.29,23.97,-1.00,-1.0,2360
1098,2136098,16840,1328,660,16905.17,23.97,-1.00,-1.0,2437
1101,2136101,16636,-656,268,16651.09,24.06,-1.00,-1.0,2365
1104,2136104,16968,-2420,-372,17143.74,24.06,-1.00,-1.0,2423
1107,2136107,17652,-1228,636,17706.09,24.11,-1.00,-1.0,2364
1112,2136112,17576,-124,-1144,17613.63,24.01,-1.00,-1.0,2440
1115,2136115,17408,-1408,-108,17465.18,24.01,-1.00,-1.0,2367
1118,2136118,16092,-1260,2208,16291.57,24.01,-1.00,-1.0,2448
1120,2136120,17540,-1036,336,17573.78,24.01,-1.00,-1.0,2372
1123,2136123,16344,808,784,16382.73,24.01,-1.00,-1.0,2447
1126,2136126,17624,212,932,17649.90,24.01,-1.00,-1.0,2367
1129,2136129,16892,-692,1572,16979.10,24.01,-1.00,-1.0,2450
1131,2136131,16644,-1744,944,16761.72,24.11,-1.00,-1.0,2372
1136,2136136,17408,592,700,17432.12,24.11,-1.00,-1.0,2448
1139,2136139,17428,60,1404,17484.56,24.15,-1.00,-1.0,2364
1142,2136142,17792,-1348,520,17850.57,24.01,-1.00,-1.0,2365
1144,2136144,17176,-312,1904,17284.03,23.97,-1.00,-1.0,2439
1147,2136147,17068,848,1776,17181.09,24.01,-1.00,-1.0,2379
1150,2136150,16320,-572,-588,16340.60,24.01,-1.00,-1.0,2436
1153,2136153,18112,-32,2108,18234.29,24.01,-1.00,-1.0,2371
1155,2136155,15632,-1164,1756,15773.33,23.97,-1.00,-1.0,2446
1158,2136158,16800,-552,312,16811.96,24.06,-1.00,-1.0,2365
1163,2136163,16192,-332,1036,16228.50,23.97,-1.00,-1.0,2444
1166,2136166,17988,-1980,136,18097.16,24.01,-1.00,-1.0,2367
1169,2136169,16376,-756,-688,16407.87,24.06,-1.00,-1.0,2438
1171,2136171,16640,1364,1384,16753.08,24.06,-1.00,-1.0,2372
1174,2136174,16744,-600,-532,16763.19,24.06,-1.00,-1.0,2437
1177,2136177,18036,-2004,40,18147.04,24.01,-1.00,-1.0,2365
1180,2136180,17176,-1520,328,17246.24,23.97,-1.00,-1.0,2432
1182,2136182,15688,0,1464,15756.16,23.97,-1.00,-1.0,2371
1185,2136185,17576,476,-636,17593.94,24.11,-1.00,-1.0,2360
1190,2136190,17004,-2396,744,17188.09,23.97,-1.00,-1.0,2444
1193,2136193,16704,-652,1224,16761.47,24.06,-1.00,-1.0,2365
1196,2136196,17332,960,-120,17358.98,24.06,-1.00,-1.0,2434
1198,2136198,17096,396,-208,17101.85,24.06,-1.00,-1.0,2367
1201,2136201,17144,-1100,1216,17222.24,24.06,-1.00,-1.0,2438
1204,2136204,16976,-1200,1668,17099.91,24.06,-1.00,-1.0,2366
1207,2136207,17032,-808,-24,17051.17,24.06,-1.00,-1.0,2432
1209,2136209,16756,260,320,16761.07,23.97,-1.00,-1.0,2371
1214,2136214,16584,-1360,260,16641.70,23.97,-1.00,-1.0,2455
1217,2136217,16952,-864,1456,17036.34,24.06,-1.00,-1.0,2380
1220,2136220,16768,760,1608,16862.06,24.06,-1.00,-1.0,2438
1223,2136223,16652,332,1704,16742.25,23.97,-1.00,-1.0,2372
1225,2136225,18360,-816,728,18392.54,24.06,-1.00,-1.0,2360
1228,2136228,15776,-948,200,15805.72,24.11,-1.00,-1.0,2437
1231,2136231,17708,20,1632,17783.06,24.06,-1.00,-1.0,2365
1233,2136233,16964,-704,72,16978.75,24.01,-1.00,-1.0,2437
1236,2136236,16748,-1376,-640,16816.61,24.11,-1.00,-1.0,2367
1241,2136241,16376,-368,1120,16418.38,24.01,-1.00,-1.0,2447
1244,2136244,17304,492,-312,17313.80,24.01,-1.00,-1.0,2365
1247,2136247,16912,-208,300,16915.94,24.11,-1.00,-1.0,2439
1249,2136249,16652,-1060,1916,16795.35,24.01,-1.00,-1.0,2363
1252,2136252,16692,-2168,1812,16929.46,23.92,-1.00,-1.0,2437
1255,2136255,16660,-692,-580,16684.45,24.01,-1.00,-1.0,2364
1258,2136258,17364,1236,344,17411.33,24.11,-1.00,-1.0,2444
1260,2136260,17188,172,956,17215.43,24.01,-1.00,-1.0,2363
1263,2136263,16072,-1824,-276,16177.53,24.06,-1.00,-1.0,2365
1268,2136268,16704,-424,568,16719.03,24.06,-1.00,-1.0,2452
1271,2136271,16832,380,-1364,16891.45,23.97,-1.00,-1.0,2368
1274,2136274,18048,-576,1196,18096.75,24.01,-1.00,-1.0,2442
1276,2136276,16208,-1932,1572,16398.26,23.97,-1.00,-1.0,2374
1279,2136279,17440,-1332,836,17510.76,24.01,-1.00,-1.0,2438
1282,2136282,16616,672,932,16655.68,24.06,-1.00,-1.0,2366
1285,2136285,17008,368,-144,17012.59,24.11,-1.00,-1.0,2448
1287,2136287,18084,-288,1216,18127.12,24.15,-1.00,-1.0,2371
1292,2136292,17332,-1544,-88,17400.86,24.01,-1.00,-1.0,2467
1295,2136295,17244,168,156,17245.52,24.11,-1.00,-1.0,2367
1298,2136298,17148,408,1572,17224.74,23.97,-1.00,-1.0,2446
1300,2136300,16356,-1324,512,16417.49,24.06,-1.00,-1.0,2362
1303,2136303,17232,-852,812,17272.15,23.97,-1.00,-1.0,2438
1306,2136306,17276,244,816,17296.98,24.01,-1.00,-1.0,2365
1309,2136309,17280,-468,500,17293.57,23.97,-1.00,-1.0,2362
1311,2136311,17124,-596,1348,17187.31,23.92,-1.00,-1.0,2437
1314,2136314,16452,-24,1668,16536.36,24.01,-1.00,-1.0,2371
1319,2136319,16588,-592,-180,16599.54,24.01,-1.00,-1.0,2455
1322,2136322,17560,-144,2448,17730.40,24.15,-1.00,-1.0,2379
1325,2136325,16304,-1084,1056,16374.08,24.11,-1.00,-1.0,2441
1328,2136328,16172,-228,316,16176.69,23.97,-1.00,-1.0,2371
1330,2136330,17556,800,844,17594.47,24.01,-1.00,-1.0,2439
1333,2136333,16772,-668,112,16785.67,24.01,-1.00,-1.0,2378
1336,2136336,17664,-2452,204,17834.54,24.01,-1.00,-1.0,2442
1339,2136339,16484,200,952,16512.68,24.01,-1.00,-1.0,2377
1344,2136344,17040,-332,-108,17043.58,24.11,-1.00,-1.0,2445
1346,2136346,16468,-964,1876,16602.52,24.06,-1.00,-1.0,2364
1349,2136349,16872,-1940,680,16996.78,24.01,-1.00,-1.0,2452
1352,2136352,17500,-324,168,17503.80,24.06,-1.00,-1.0,2371
1354,2136354,16500,700,756,16532.14,24.11,-1.00,-1.0,2368
1357,2136357,16648,-172,756,16666.04,24.01,-1.00,-1.0,2437
1360,2136360,16816,-1340,304,16872.04,24.01,-1.00,-1.0,2364
1363,2136363,16668,-472,1192,16717.23,24.01,-1.00,-1.0,2444
1365,2136365,17296,-200,516,17304.85,24.11,-1.00,-1.0,2362
1370,2136370,17952,40,1536,18017.64,24.01,-1.00,-1.0,2448
1373,2136373,16564,-1320,916,16641.74,24.01,-1.00,-1.0,2366
1376,2136376,16908,-116,892,16931.91,23.92,-1.00,-1.0,2437
1379,2136379,17232,-84,-8,17232.21,23.92,-1.00,-1.0,2360
1381,2136381,16364,-116,764,16382.24,24.01,-1.00,-1.0,2441
1384,2136384,17848,-952,708,17887.39,24.01,-1.00,-1.0,2379
1387,2136387,16544,-936,1052,16603.82,24.01,-1.00,-1.0,2361
1389,2136389,17532,296,204,17535.69,23.97,-1.00,-1.0,2437
1392,2136392,16964,-216,512,16973.10,24.06,-1.00,-1.0,2365
1397,2136397,16296,-1364,1472,16419.10,24.06,-1.00,-1.0,2446
1400,2136400,17576,-488,936,17607.67,24.01,-1.00,-1.0,2363
1403,2136403,16512,804,288,16534.07,23.97,-1.00,-1.0,2437
1406,2136406,17496,392,1828,17595.60,23.92,-1.00,-1.0,2367
1408,2136408,16112,-1396,968,16201.31,23.97,-1.00,-1.0,2436
1411,2136411,17116,-960,900,17166.51,24.01,-1.00,-1.0,2366
1414,2136414,17372,-260,152,17374.61,23.97,-1.00,-1.0,2438
1417,2136417,16896,412,-148,16901.67,24.01,-1.00,-1.0,2366
1422,2136422,15688,-1616,844,15793.58,24.11,-1.00,-1.0,2445
1424,2136424,16984,-684,1760,17088.64,24.11,-1.00,-1.0,2363
1427,2136427,17052,268,932,17079.55,24.01,-1.00,-1.0,2453
1430,2136430,16392,-524,-280,16402.76,24.01,-1.00,-1.0,2374
1432,2136432,18372,-124,1224,18413.15,24.01,-1.00,-1.0,2368
1435,2136435,15920,-396,2072,16059.15,23.97,-1.00,-1.0,2437
1438,2136438,17596,-648,172,17608.77,24.11,-1.00,-1.0,2366
1441,2136441,16768,-800,-52,16787.15,24.06,-1.00,-1.0,2449
1443,2136443,17252,-76,1276,17299.29,24.11,-1.00,-1.0,2363
1448,2136448,16660,-1124,-816,16717.80,24.06,-1.00,-1.0,2446
1451,2136451,16952,220,1468,17016.87,23.97,-1.00,-1.0,2364
1454,2136454,17372,-484,1856,17477.57,23.97,-1.00,-1.0,2437
1457,2136457,16272,-976,80,16301.44,24.06,-1.00,-1.0,2363
1459,2136459,18300,-548,576,18317.26,24.06,-1.00,-1.0,2438
1462,2136462,16008,-120,916,16034.63,23.97,-1.00,-1.0,2364
1465,2136465,16540,-612,48,16551.39,23.97,-1.00,-1.0,2437
1468,2136468,18232,-656,840,18263.12,24.11,-1.00,-1.0,2365
1471,2136471,16044,-640,1516,16128.17,24.11,-1.00,-1.0,2409
1475,2136475,17828,496,908,17858.00,24.01,-1.00,-1.0,2456
1478,2136478,16176,-996,-352,16210.46,24.01,-1.00,-1.0,2367
1481,2136481,17560,-1780,-352,17653.50,24.01,-1.00,-1.0,2436
1484,2136484,17332,-244,592,17343.82,24.06,-1.00,-1.0,2364
1486,2136486,16968,816,1060,17020.65,24.01,-1.00,-1.0,2425
1489,2136489,17744,-848,-600,17774.38,23.97,-1.00,-1.0,2365
1492,2136492,16540,-1060,1544,16645.69,23.92,-1.00,-1.0,2439
1495,2136495,17524,-600,1500,17598.31,24.06,-1.00,-1.0,2364
1499,2136499,17532,-84,864,17553.48,24.01,-1.00,-1.0,2446
1502,2136502,16944,-512,504,16959.22,24.06,-1.00,-1.0,2365
1505,2136505,16868,-824,624,16899.64,24.11,-1.00,-1.0,2436
1508,2136508,16844,-340,1108,16883.83,23.97,-1.00,-1.0,2363
1510,2136510,16656,196,1252,16704.14,24.11,-1.00,-1.0,2438
1513,2136513,17252,-740,-884,17290.48,23.97,-1.00,-1.0,2368
1516,2136516,18160,-232,1688,18239.76,24.01,-1.00,-1.0,2361
1519,2136519,16464,-748,1192,16524.03,24.06,-1.00,-1.0,2447
1522,2136522,16400,-152,704,16415.81,24.11,-1.00,-1.0,2370
1527,2136527,15800,184,2284,15965.29,24.01,-1.00,-1.0,2445
1529,2136529,17908,-1772,-428,18000.54,24.01,-1.00,-1.0,2365
1532,2136532,16716,-556,932,16751.19,23.97,-1.00,-1.0,2444
1535,2136535,18052,804,1980,18178.05,24.01,-1.00,-1.0,2372
1538,2136538,16084,-816,-264,16106.85,24.11,-1.00,-1.0,2437
1540,2136540,16112,-408,1448,16182.08,24.01,-1.00,-1.0,2363
1543,2136543,17840,-164,1644,17916.34,24.06,-1.00,-1.0,2437
1546,2136546,16124,-580,1468,16201.07,23.92,-1.00,-1.0,2372
1551,2136551,17820,824,2332,17990.82,24.01,-1.00,-1.0,2444
1553,2136553,16036,-392,1484,16109.29,24.01,-1.00,-1.0,2366
1556,2136556,16804,-1064,-64,16837.77,24.01,-1.00,-1.0,2363
1559,2136559,17996,-416,92,18001.04,23.97,-1.00,-1.0,2447
1561,2136561,16620,-112,732,16636.49,24.01,-1.00,-1.0,2365
1564,2136564,17896,-564,452,17910.59,23.97,-1.00,-1.0,2440
1567,2136567,15008,-700,116,15024.76,24.01,-1.00,-1.0,2363
1570,2136570,18480,-596,40,18489.65,24.06,-1.00,-1.0,2444
1573,2136573,16564,-1308,-260,16617.60,24.11,-1.00,-1.0,2366
1578,2136578,16800,-856,-516,16829.71,23.97,-1.00,-1.0,2452
1580,2136580,16696,52,708,16711.09,23.97,-1.00,-1.0,2367
1583,2136583,18036,-372,660,18051.90,24.11,-1.00,-1.0,2446
1586,2136586,15976,-1416,892,16063.42,24.06,-1.00,-1.0,2372
1589,2136589,17724,-1436,-368,17785.88,24.01,-1.00,-1.0,2446
1591,2136591,16460,792,1068,16513.62,23.97,-1.00,-1.0,2367
1594,2136594,17556,228,328,17560.54,24.11,-1.00,-1.0,2446
1597,2136597,16084,-1420,-880,16170.52,24.06,-1.00,-1.0,2373
1600,2136600,18048,-2100,-128,18170.21,24.01,-1.00,-1.0,2361
1605,2136605,17996,132,572,18005.57,24.01,-1.00,-1.0,2446
1607,2136607,15528,4,-560,15538.09,24.11,-1.00,-1.0,2373
1610,2136610,16696,248,2060,16824.43,24.01,-1.00,-1.0,2445
1613,2136613,17492,-2140,912,17646.00,24.01,-1.00,-1.0,2366
1616,2136616,16028,-464,1368,16092.96,24.01,-1.00,-1.0,2449
1618,2136618,18152,1172,504,18196.78,24.01,-1.00,-1.0,2375
1621,2136621,16508,444,112,16514.35,24.11,-1.00,-1.0,2446
1624,2136624,17548,-912,1116,17607.09,24.01,-1.00,-1.0,2367
1629,2136629,16624,-1308,-564,16684.91,24.01,-1.00,-1.0,2452
1631,2136631,17728,1328,956,17803.36,24.15,-1.00,-1.0,2364
1634,2136634,16048,-64,1112,16086.61,24.01,-1.00,-1.0,2449
1637,2136637,16412,-1648,-164,16495.35,23.97,-1.00,-1.0,2364
1640,2136640,18624,-1580,412,18695.44,24.01,-1.00,-1.0,2361
1642,2136642,16036,664,1436,16113.85,24.01,-1.00,-1.0,2425
1645,2136645,17844,140,-184,17845.50,24.01,-1.00,-1.0,2378
1648,2136648,16532,-704,-720,16562.64,24.01,-1.00,-1.0,2440
1651,2136651,18248,-680,1608,18331.33,23.97,-1.00,-1.0,2363
1656,2136656,16244,-240,396,16250.60,24.06,-1.00,-1.0,2445
1658,2136658,18384,984,1612,18480.75,24.11,-1.00,-1.0,2353
1661,2136661,15424,-340,1668,15517.65,24.06,-1.00,-1.0,2438
1664,2136664,16732,-1264,-440,16785.44,24.11,-1.00,-1.0,2366
1667,2136667,17836,344,2940,18079.96,24.06,-1.00,-1.0,2431
1669,2136669,15272,-780,400,15297.14,24.01,-1.00,-1.0,2371
1672,2136672,17976,-1308,-228,18024.97,24.06,-1.00,-1.0,2438
1675,2136675,16228,-332,712,16247.00,24.01,-1.00,-1.0,2363
1680,2136680,18920,-816,-176,18938.41,23.97,-1.00,-1.0,2460
1682,2136682,16292,-660,756,16322.88,24.06,-1.00,-1.0,2367
1685,2136685,17080,-1056,688,17126.44,24.11,-1.00,-1.0,2359
1688,2136688,17140,-632,-248,17153.44,24.11,-1.00,-1.0,2446
1690,2136690,17604,120,620,17615.32,24.01,-1.00,-1.0,2363
1693,2136693,17528,284,2444,17699.85,24.01,-1.00,-1.0,2448
1696,2136696,16792,-1656,204,16874.69,24.01,-1.00,-1.0,2372
1699,2136699,17208,-520,-64,17215.97,24.11,-1.00,-1.0,2444
1702,2136702,18004,708,1104,18051.71,24.11,-1.00,-1.0,2370
1707,2136707,18148,-796,1748,18249.36,24.11,-1.00,-1.0,2446
1709,2136709,15836,-1440,-332,15904.80,24.01,-1.00,-1.0,2367
1712,2136712,16484,276,1552,16559.20,24.06,-1.00,-1.0,2452
1715,2136715,17004,112,384,17008.71,24.01,-1.00,-1.0,2369
1718,2136718,16128,-456,1864,16241.76,24.06,-1.00,-1.0,2450
1720,2136720,17396,-2300,-964,17573.85,24.01,-1.00,-1.0,2368
1723,2136723,16428,128,1580,16504.30,24.06,-1.00,-1.0,2448
1726,2136726,18056,-120,-164,18057.14,24.01,-1.00,-1.0,2370
1729,2136729,15856,-832,120,15878.27,24.01,-1.00,-1.0,2355
1734,2136734,16332,-784,1096,16387.50,23.92,-1.00,-1.0,2453
1736,2136736,17012,-436,124,17018.04,23.97,-1.00,-1.0,2364
1739,2136739,16764,-472,-1096,16806.42,23.92,-1.00,-1.0,2441
1742,2136742,18260,576,3000,18513.76,24.06,-1.00,-1.0,2366
1745,2136745,15588,-1368,440,15654.10,24.01,-1.00,-1.0,2445
1747,2136747,18848,-352,1596,18918.73,24.06,-1.00,-1.0,2364
1750,2136750,15228,-32,-136,15228.64,24.01,-1.00,-1.0,2438
1753,2136753,16608,520,1860,16719.92,23.97,-1.00,-1.0,2363
1758,2136758,14452,-1072,1264,14546.72,24.15,-1.00,-1.0,2448
1761,2136761,19088,-888,-768,19124.07,23.97,-1.00,-1.0,2368
1763,2136763,15496,12,-108,15496.38,24.01,-1.00,-1.0,2437
1766,2136766,18956,-284,992,18984.06,24.15,-1.00,-1.0,2366
1769,2136769,16500,-1208,632,16556.23,24.11,-1.00,-1.0,2359
1771,2136771,16996,-1444,-180,17058.18,24.01,-1.00,-1.0,2425
1774,2136774,17748,772,1264,17809.69,23.97,-1.00,-1.0,2364
1777,2136777,16012,-360,72,16016.21,24.01,-1.00,-1.0,2437
1780,2136780,17336,-1200,-584,17387.29,23.97,-1.00,-1.0,2366
1785,2136785,15444,-528,1332,15510.32,23.97,-1.00,-1.0,2452
1787,2136787,18376,-320,684,18391.51,24.01,-1.00,-1.0,2364
1790,2136790,15680,-1024,-424,15719.12,24.06,-1.00,-1.0,2453
1793,2136793,18960,60,1624,19029.52,23.97,-1.00,-1.0,2363
1796,2136796,17040,-720,792,17073.58,24.06,-1.00,-1.0,2446
1798,2136798,15780,-464,516,15795.25,24.01,-1.00,-1.0,2364
1801,2136801,19156,32,1984,19258.49,24.06,-1.00,-1.0,2455
1804,2136804,15104,-676,2248,15285.33,23.97,-1.00,-1.0,2364
1809,2136809,17716,1088,2348,17904.01,24.11,-1.00,-1.0,2446
1812,2136812,15632,-1044,-2672,15893.05,24.01,-1.00,-1.0,2365
1814,2136814,19872,-652,268,19884.50,24.01,-1.00,-1.0,2363
1817,2136817,15824,-1052,1340,15915.44,24.06,-1.00,-1.0,2453
1820,2136820,15692,-1172,372,15740.10,24.06,-1.00,-1.0,2373
1823,2136823,18836,-136,-776,18852.47,24.06,-1.00,-1.0,2449
1825,2136825,16304,-388,348,16312.33,24.06,-1.00,-1.0,2365
1828,2136828,18040,-1292,980,18112.74,24.06,-1.00,-1.0,2452
1831,2136831,16148,-1048,16,16181.98,24.01,-1.00,-1.0,2366
1836,2136836,16196,-292,-108,16198.99,23.97,-1.00,-1.0,2453
1839,2136839,17372,-1392,-332,17430.84,24.06,-1.00,-1.0,2365
1841,2136841,17760,-1708,-464,17847.97,24.01,-1.00,-1.0,2448
1844,2136844,17780,616,1628,17865.00,23.97,-1.00,-1.0,2372
1847,2136847,16552,-176,-256,16554.92,24.11,-1.00,-1.0,2440
1850,2136850,17696,124,1632,17771.53,23.97,-1.00,-1.0,2363
1852,2136852,15948,-1408,520,16018.48,24.01,-1.00,-1.0,2449
1855,2136855,17612,-292,1376,17668.08,24.06,-1.00,-1.0,2372
1858,2136858,17180,64,176,17181.02,24.01,-1.00,-1.0,2361
1863,2136863,18444,-1472,-412,18507.23,24.01,-1.00,-1.0,2448
1866,2136866,15712,-456,1164,15761.66,24.06,-1.00,-1.0,2373
1868,2136868,18096,-92,460,18102.08,24.01,-1.00,-1.0,2446
1871,2136871,15328,-900,460,15361.29,23.92,-1.00,-1.0,2378
1874,2136874,18744,-664,1504,18815.96,24.11,-1.00,-1.0,2440
1877,2136877,16000,-344,908,16029.44,24.01,-1.00,-1.0,2376
1879,2136879,17328,-136,1048,17360.20,24.11,-1.00,-1.0,2439
1882,2136882,16684,-800,-528,16711.51,24.01,-1.00,-1.0,2376
1887,2136887,16436,-1764,276,16532.69,24.01,-1.00,-1.0,2449
1890,2136890,17212,84,1108,17247.83,24.01,-1.00,-1.0,2360
1892,2136892,16452,0,-584,16462.36,24.01,-1.00,-1.0,2439
1895,2136895,17848,300,2108,17974.56,24.11,-1.00,-1.0,2372
1898,2136898,17812,-1420,896,17890.96,24.06,-1.00,-1.0,2360
1900,2136900,15536,-960,1856,15675.89,23.97,-1.00,-1.0,2438
1903,2136903,17664,-508,-752,17687.30,24.01,-1.00,-1.0,2364
1906,2136906,16288,280,-56,16290.50,24.06,-1.00,-1.0,2437
1909,2136909,18540,-792,848,18576.27,24.06,-1.00,-1.0,2364
1914,2136914,16796,-408,1824,16899.68,24.15,-1.00,-1.0,2451
1916,2136916,17616,640,976,17654.62,24.15,-1.00,-1.0,2364
1919,2136919,15756,-552,680,15780.32,23.97,-1.00,-1.0,2439
1922,2136922,17044,-1572,-20,17116.35,24.06,-1.00,-1.0,2363
1925,2136925,18204,-396,2296,18352.49,23.97,-1.00,-1.0,2444
1927,2136927,16024,196,1168,16067.71,24.06,-1.00,-1.0,2364
1930,2136930,17288,424,636,17304.89,23.97,-1.00,-1.0,2438
1933,2136933,16280,-1096,-604,16328.03,23.97,-1.00,-1.0,2365
1938,2136938,15808,-1432,1360,15930.88,24.06,-1.00,-1.0,2446
1941,2136941,16356,-452,-88,16362.48,24.06,-1.00,-1.0,2364
1943,2136943,18272,1248,912,18337.26,23.97,-1.00,-1.0,2359
1946,2136946,15888,-460,1436,15959.39,24.01,-1.00,-1.0,2438
1949,2136949,16744,-1812,-156,16842.48,23.97,-1.00,-1.0,2364
1951,2136951,17696,188,2176,17830.28,24.01,-1.00,-1.0,2439
1954,2136954,16464,-892,-1736,16579.28,24.06,-1.00,-1.0,2364
1957,2136957,18464,-296,172,18467.17,24.11,-1.00,-1.0,2454
1960,2136960,16500,-620,1092,16547.71,24.01,-1.00,-1.0,2364
1965,2136965,18196,-1136,-720,18245.64,23.97,-1.00,-1.0,2445
1968,2136968,15564,-28,552,15573.81,24.06,-1.00,-1.0,2365
1970,2136970,17732,-100,1388,17786.52,24.06,-1.00,-1.0,2438
1973,2136973,15992,-1184,-436,16041.70,24.06,-1.00,-1.0,2365
1976,2136976,18340,-852,336,18362.85,23.97,-1.00,-1.0,2437
1979,2136979,16448,-484,1212,16499.69,24.06,-1.00,-1.0,2364
1981,2136981,16288,-904,400,16317.97,24.06,-1.00,-1.0,2437
1984,2136984,17632,-1620,-1808,17798.33,23.97,-1.00,-1.0,2364
1987,2136987,18240,208,816,18259.43,24.01,-1.00,-1.0,2361
1992,2136992,17984,-48,1860,18079.99,24.01,-1.00,-1.0,2445
1995,2136995,17200,-988,360,17232.11,24.06,-1.00,-1.0,2365
1997,2136997,15996,-340,1592,16078.62,24.01,-1.00,-1.0,2438
2000,2137000,17864,-360,76,17867.79,24.06,-1.00,-1.0,2364
2003,2137003,16052,100,2796,16294.00,24.11,-1.00,-1.0,2438
2006,2137006,18188,-1568,-324,18258.34,23.97,-1.00,-1.0,2367
2008,2137008,16124,208,864,16148.47,24.01,-1.00,-1.0,2437
2011,2137011,17748,-120,552,17756.99,23.97,-1.00,-1.0,2364
2016,2137016,19216,-1352,828,19281.29,24.06,-1.00,-1.0,2453
2019,2137019,16164,-208,696,16180.31,23.97,-1.00,-1.0,2364
2022,2137022,16376,556,1508,16454.68,23.97,-1.00,-1.0,2445
2024,2137024,17660,-684,-1580,17743.73,23.97,-1.00,-1.0,2373
2027,2137027,17784,-664,1772,17884.39,24.06,-1.00,-1.0,2359
2030,2137030,16424,-1920,284,16538.28,24.01,-1.00,-1.0,2444
2032,2137032,17184,100,1044,17215.97,23.97,-1.00,-1.0,2367
2035,2137035,16684,-20,-1548,16755.67,24.11,-1.00,-1.0,2439
2038,2137038,18676,160,2428,18833.85,23.97,-1.00,-1.0,2377
2043,2137043,16112,-788,1872,16239.52,24.06,-1.00,-1.0,2462
2046,2137046,17424,260,-864,17447.35,24.06,-1.00,-1.0,2371
2049,2137049,15368,1088,-68,15406.62,23.97,-1.00,-1.0,2444
2051,2137051,18236,-720,1168,18287.54,24.06,-1.00,-1.0,2366
2054,2137054,15704,-2296,1148,15912.42,24.06,-1.00,-1.0,2448
2057,2137057,17504,-868,84,17525.71,24.06,-1.00,-1.0,2371
2060,2137060,17944,1128,660,17991.53,23.97,-1.00,-1.0,2446
2062,2137062,15844,84,128,15844.74,24.06,-1.00,-1.0,2367
2067,2137067,18244,-1184,1824,18373.14,23.97,-1.00,-1.0,2447
2070,2137070,16252,-652,1136,16304.70,24.01,-1.00,-1.0,2364
2073,2137073,17636,192,108,17637.38,24.06,-1.00,-1.0,2365
2075,2137075,16836,172,-580,16846.87,24.01,-1.00,-1.0,2459
2078,2137078,17728,-392,2220,17870.76,24.01,-1.00,-1.0,2367
2081,2137081,16652,-1296,992,16731.79,24.01,-1.00,-1.0,2437
2084,2137084,16060,-564,824,16091.01,24.01,-1.00,-1.0,2364
2086,2137086,18160,920,1368,18234.68,24.06,-1.00,-1.0,2438
2089,2137089,15884,-64,2080,16019.74,24.01,-1.00,-1.0,2364
2094,2137094,18680,84,1756,18762.54,24.11,-1.00,-1.0,2441
2097,2137097,16636,-908,72,16660.92,23.92,-1.00,-1.0,2370
2100,2137100,17464,488,1572,17541.40,23.97,-1.00,-1.0,2441
2102,2137102,16660,-136,1508,16728.66,24.06,-1.00,-1.0,2365
2105,2137105,15916,-312,1456,15985.50,23.97,-1.00,-1.0,2435
2108,2137108,19552,-564,928,19582.13,24.01,-1.00,-1.0,2364
2110,2137110,15652,-880,940,15704.88,23.97,-1.00,-1.0,2365
2113,2137113,18288,80,1540,18352.90,24.06,-1.00,-1.0,2460
2116,2137116,15340,-308,-212,15344.56,24.01,-1.00,-1.0,2366
2121,2137121,16784,-480,2064,16917.24,24.11,-1.00,-1.0,2443
2124,2137124,16828,-1728,104,16916.81,24.11,-1.00,-1.0,2363
2126,2137126,18292,-956,-192,18317.97,24.11,-1.00,-1.0,2442
2129,2137129,16756,1744,2676,17057.73,24.01,-1.00,-1.0,2364
2132,2137132,16428,116,392,16433.09,23.92,-1.00,-1.0,2437
2135,2137135,17524,-292,1216,17568.57,24.01,-1.00,-1.0,2363
2137,2137137,16504,-1480,876,16593.37,24.01,-1.00,-1.0,2438
2140,2137140,16980,204,1800,17076.36,24.11,-1.00,-1.0,2364
2145,2137145,16372,-32,884,16395.88,24.11,-1.00,-1.0,2441
2148,2137148,17804,-2076,-396,17929.00,24.01,-1.00,-1.0,2365
2151,2137151,15772,-856,1012,15827.60,24.01,-1.00,-1.0,2434
2153,2137153,18216,568,1192,18263.79,24.01,-1.00,-1.0,2372
2156,2137156,15712,-688,-356,15731.08,24.01,-1.00,-1.0,2359
2159,2137159,19092,-1768,468,19179.40,24.06,-1.00,-1.0,2443
2161,2137161,16428,-1328,1208,16525.80,24.06,-1.00,-1.0,2363
2164,2137164,16272,288,1068,16309.55,24.06,-1.00,-1.0,2440
2167,2137167,17276,-392,-1924,17387.23,24.15,-1.00,-1.0,2364
2172,2137172,16036,-2172,1372,16240.48,24.06,-1.00,-1.0,2442
2175,2137175,16804,-420,1104,16845.46,24.11,-1.00,-1.0,2367
2178,2137178,17064,296,-1700,17151.03,24.06,-1.00,-1.0,2438
2180,2137180,15984,1136,1784,16123.32,24.11,-1.00,-1.0,2367
2183,2137183,17216,-1892,1304,17368.67,24.15,-1.00,-1.0,2438
2186,2137186,15688,-1252,1684,15827.72,24.11,-1.00,-1.0,2365
2189,2137189,17620,-44,-680,17633.17,24.06,-1.00,-1.0,2436
2191,2137191,16292,1208,592,16347.45,24.11,-1.00,-1.0,2372
2196,2137196,17756,-2164,60,17887.48,24.11,-1.00,-1.0,2450
2199,2137199,17228,-1196,636,17281.17,23.92,-1.00,-1.0,2379
2202,2137202,17352,996,508,17387.98,23.97,-1.00,-1.0,2360
2204,2137204,17128,572,60,17137.65,24.06,-1.00,-1.0,2442
2207,2137207,16420,-1092,140,16456.87,24.06,-1.00,-1.0,2365
2210,2137210,18268,-1468,1596,18396.25,23.97,-1.00,-1.0,2438
2213,2137213,16608,-392,1292,16662.79,23.97,-1.00,-1.0,2363
2215,2137215,17516,184,-124,17517.41,24.06,-1.00,-1.0,2437
2218,2137218,16816,496,-36,16823.35,24.01,-1.00,-1.0,2367
2223,2137223,17116,-1264,1256,17208.51,24.06,-1.00,-1.0,2444
2226,2137226,16444,-816,1060,16498.32,23.97,-1.00,-1.0,2362
2229,2137229,18148,132,1260,18192.17,24.01,-1.00,-1.0,2448
2231,2137231,16712,-264,1052,16747.16,23.97,-1.00,-1.0,2364
2234,2137234,16120,-600,-180,16132.17,24.11,-1.00,-1.0,2438
2237,2137237,17996,-228,1468,18057.21,24.06,-1.00,-1.0,2364
2240,2137240,15792,-840,32,15814.36,24.06,-1.00,-1.0,2444
2242,2137242,18296,-464,1076,18333.49,23.97,-1.00,-1.0,2364
2245,2137245,16276,-408,1000,16311.79,24.01,-1.00,-1.0,2362
2250,2137250,18332,-436,-340,18340.34,24.01,-1.00,-1.0,2444
2253,2137253,16296,-624,588,16318.54,24.06,-1.00,-1.0,2364
2256,2137256,17792,-924,1312,17864.22,24.01,-1.00,-1.0,2448
2258,2137258,16880,-1272,-980,16956.20,24.06,-1.00,-1.0,2364
2261,2137261,17784,128,164,17785.22,24.01,-1.00,-1.0,2438
2264,2137264,17492,912,2540,17698.97,23.97,-1.00,-1.0,2364
2267,2137267,15500,-1540,1496,15647.99,24.01,-1.00,-1.0,2445
2269,2137269,17620,-1840,-824,17734.96,24.06,-1.00,-1.0,2364
2274,2137274,15792,120,556,15802.24,23.97,-1.00,-1.0,2449
2277,2137277,17640,232,1656,17719.08,24.06,-1.00,-1.0,2371
2280,2137280,15944,-1780,-424,16048.65,23.97,-1.00,-1.0,2444
2283,2137283,18328,-796,1244,18387.41,23.97,-1.00,-1.0,2363
2285,2137285,17160,-468,508,17173.90,24.06,-1.00,-1.0,2441
2288,2137288,16180,528,1900,16299.73,24.06,-1.00,-1.0,2379
2291,2137291,17216,-956,-620,17253.67,24.06,-1.00,-1.0,2359
2293,2137293,15668,-324,616,15683.45,23.92,-1.00,-1.0,2437
2296,2137296,18372,-804,244,18391.20,23.97,-1.00,-1.0,2373
2301,2137301,17836,-716,1264,17895.06,23.97,-1.00,-1.0,2441
2304,2137304,16452,-124,532,16461.07,24.06,-1.00,-1.0,2351
2307,2137307,16880,108,764,16897.62,24.06,-1.00,-1.0,2449
2309,2137309,17704,-780,-700,17734.99,23.92,-1.00,-1.0,2411
2312,2137312,17576,-744,2336,17746.16,23.97,-1.00,-1.0,2452
2315,2137315,16900,-608,888,16934.23,23.97,-1.00,-1.0,2391
2318,2137318,17380,1004,1548,17477.66,24.06,-1.00,-1.0,2430
2321,2137321,15740,-348,-464,15750.68,24.06,-1.00,-1.0,2380
2325,2137325,17748,-1788,1280,17883.70,23.97,-1.00,-1.0,2443
2328,2137328,15704,-804,1736,15820.11,24.06,-1.00,-1.0,2381
2331,2137331,17932,372,-488,17942.50,24.01,-1.00,-1.0,2360
2333,2137333,16200,1244,808,16267.77,24.01,-1.00,-1.0,2437
2336,2137336,17244,-736,1412,17317.36,24.01,-1.00,-1.0,2368
2339,2137339,16048,-1884,940,16185.53,24.01,-1.00,-1.0,2431
2342,2137342,16880,-648,20,16892.45,24.01,-1.00,-1.0,2367
2344,2137344,17480,916,396,17508.46,24.01,-1.00,-1.0,2434
2347,2137347,16388,-316,552,16400.34,24.11,-1.00,-1.0,2356
2352,2137352,18176,-1172,1308,18260.65,24.15,-1.00,-1.0,2448
2355,2137355,16584,336,1276,16636.41,24.06,-1.00,-1.0,2374
2358,2137358,16948,504,548,16964.35,24.01,-1.00,-1.0,2438
2361,2137361,16304,-1336,-264,16360.78,24.06,-1.00,-1.0,2374
2363,2137363,17332,-960,1912,17463.55,24.01,-1.00,-1.0,2441
2366,2137366,17172,-1080,1088,17240.29,24.06,-1.00,-1.0,2382
2369,2137369,16048,276,68,16050.52,24.01,-1.00,-1.0,2434
2372,2137372,18656,216,-312,18659.86,24.06,-1.00,-1.0,2374
2374,2137374,15816,-328,1928,15936.46,24.01,-1.00,-1.0,2360
2379,2137379,19056,120,2404,19207.41,24.11,-1.00,-1.0,2446
2382,2137382,14668,-580,-88,14679.73,23.97,-1.00,-1.0,2381
2385,2137385,18920,-88,168,18920.95,24.01,-1.00,-1.0,2436
2388,2137388,15620,-1384,-576,15691.77,24.06,-1.00,-1.0,2374
2390,2137390,16412,-384,2452,16598.60,24.01,-1.00,-1.0,2427
2393,2137393,17404,-1120,704,17454.20,24.06,-1.00,-1.0,2381
2396,2137396,15636,-252,768,15656.88,24.01,-1.00,-1.0,2436
2399,2137399,18904,-764,236,18920.90,24.06,-1.00,-1.0,2374
2404,2137404,17892,-1036,-616,17932.55,24.06,-1.00,-1.0,2437
2406,2137406,18420,484,1404,18479.77,24.06,-1.00,-1.0,2367
2409,2137409,15032,-256,1616,15120.78,24.06,-1.00,-1.0,2443
2412,2137412,17504,-704,1664,17597.00,24.06,-1.00,-1.0,2375
2414,2137414,17140,-800,-4,17158.66,24.01,-1.00,-1.0,2368
2417,2137417,17616,-16,360,17619.69,24.01,-1.00,-1.0,2440
2420,2137420,17480,-560,276,17491.15,24.01,-1.00,-1.0,2375
2423,2137423,15692,-112,996,15723.98,24.11,-1.00,-1.0,2446
2425,2137425,18124,-496,1212,18171.25,24.06,-1.00,-1.0,2366
2430,2137430,19156,-644,572,19175.36,24.06,-1.00,-1.0,2439
2433,2137433,16604,-300,996,16636.55,24.01,-1.00,-1.0,2367
2436,2137436,16000,696,1392,16075.51,23.97,-1.00,-1.0,2435
2439,2137439,17836,-1160,-68,17873.81,24.11,-1.00,-1.0,2368
2441,2137441,17104,-1420,2436,17334.86,23.97,-1.00,-1.0,2434
2444,2137444,17112,-1708,576,17206.67,24.01,-1.00,-1.0,2368
2447,2137447,16088,616,-104,16100.12,24.06,-1.00,-1.0,2431
2450,2137450,17864,-88,-1932,17968.38,24.06,-1.00,-1.0,2419
2455,2137455,15584,-2832,1276,15890.55,24.01,-1.00,-1.0,2461
2457,2137457,17348,-716,24,17362.79,24.11,-1.00,-1.0,2370
2460,2137460,17724,1548,1072,17823.74,24.01,-1.00,-1.0,2362
2463,2137463,15436,900,1296,15516.43,24.06,-1.00,-1.0,2433
2466,2137466,17740,-1672,1560,17886.78,24.01,-1.00,-1.0,2374
2468,2137468,15364,-1788,1424,15533.10,24.15,-1.00,-1.0,2436
2471,2137471,17852,228,1312,17901.60,24.11,-1.00,-1.0,2383
2474,2137474,16304,1212,180,16349.98,24.06,-1.00,-1.0,2433
2477,2137477,16676,-532,932,16710.49,24.11,-1.00,-1.0,2373
2482,2137482,16696,-1056,1300,16779.80,24.01,-1.00,-1.0,2447
2484,2137484,16876,-520,260,16886.01,24.11,-1.00,-1.0,2374
2487,2137487,17188,136,-104,17188.85,24.01,-1.00,-1.0,2442
2490,2137490,16844,-804,-176,16864.10,24.01,-1.00,-1.0,2373
2493,2137493,18516,-916,1568,18604.84,24.01,-1.00,-1.0,2445
2495,2137495,15860,-1276,1076,15947.59,24.11,-1.00,-1.0,2372
2498,2137498,17404,-120,500,17411.59,24.06,-1.00,-1.0,2442
2501,2137501,16716,-220,-208,16718.74,24.01,-1.00,-1.0,2372
2504,2137504,17160,-260,1216,17204.99,24.01,-1.00,-1.0,2361
2509,2137509,15604,-552,720,15630.35,24.06,-1.00,-1.0,2458
2512,2137512,19228,-124,944,19251.56,24.01,-1.00,-1.0,2375
2515,2137515,15472,-200,1260,15524.51,24.01,-1.00,-1.0,2446
2517,2137517,15624,-472,388,15635.94,24.01,-1.00,-1.0,2375
2520,2137520,19164,228,1512,19224.91,24.06,-1.00,-1.0,2442
2523,2137523,14868,-1044,660,14919.21,24.01,-1.00,-1.0,2375
2526,2137526,19140,-396,1256,19185.25,24.06,-1.00,-1.0,2443
2528,2137528,15996,-432,256,16003.88,23.92,-1.00,-1.0,2376
2533,2137533,18672,-496,560,18686.98,24.06,-1.00,-1.0,2450
2536,2137536,14840,-992,1012,14907.51,23.97,-1.00,-1.0,2354
2539,2137539,19148,-956,916,19193.72,24.06,-1.00,-1.0,2441
2541,2137541,14560,380,2048,14708.24,24.06,-1.00,-1.0,2376
2544,2137544,17400,-212,-1264,17447.14,24.06,-1.00,-1.0,2359
2547,2137547,18216,-32,1008,18243.90,24.01,-1.00,-1.0,2441
2549,2137549,15852,-960,1676,15969.24,23.97,-1.00,-1.0,2372
2552,2137552,18332,-1644,360,18409.09,24.01,-1.00,-1.0,2433
2555,2137555,16028,-536,-16,16036.97,23.97,-1.00,-1.0,2370
2560,2137560,19004,-136,432,19009.40,24.06,-1.00,-1.0,2444
2563,2137563,14772,-1304,12,14829.45,24.06,-1.00,-1.0,2378
2565,2137565,19852,-352,2064,19962.11,23.97,-1.00,-1.0,2433
2568,2137568,15980,-1208,-752,16043.23,24.06,-1.00,-1.0,2371
2571,2137571,18572,428,1216,18616.69,23.97,-1.00,-1.0,2435
2574,2137574,16736,-184,208,16738.30,23.97,-1.00,-1.0,2377
2576,2137576,16828,-228,1928,16939.62,24.06,-1.00,-1.0,2434
2579,2137579,19152,-1284,196,19195.99,24.06,-1.00,-1.0,2382
2584,2137584,17368,-1244,376,17416.55,23.97,-1.00,-1.0,2458
2587,2137587,16856,220,248,16859.26,24.06,-1.00,-1.0,2377
2589,2137589,16940,-16,-608,16950.91,23.97,-1.00,-1.0,2368
2592,2137592,17348,-176,1612,17423.62,24.01,-1.00,-1.0,2431
2595,2137595,15864,-2392,444,16049.46,24.06,-1.00,-1.0,2357
2598,2137598,17768,-1244,268,17813.51,24.01,-1.00,-1.0,2439
2600,2137600,16984,256,-284,16988.30,23.97,-1.00,-1.0,2377
2603,2137603,15004,424,144,15010.68,24.01,-1.00,-1.0,2432
2606,2137606,18672,-324,1100,18707.18,23.97,-1.00,-1.0,2363
2611,2137611,17296,-1324,1088,17380.69,24.06,-1.00,-1.0,2449
2613,2137613,17088,184,40,17089.04,24.01,-1.00,-1.0,2368
2616,2137616,16400,404,620,16416.69,24.06,-1.00,-1.0,2442
2619,2137619,18184,-932,-440,18213.18,24.06,-1.00,-1.0,2369
2622,2137622,16640,-1816,928,16764.51,24.06,-1.00,-1.0,2441
2624,2137624,17480,-320,736,17498.41,24.01,-1.00,-1.0,2369
2627,2137627,17192,668,952,17231.29,24.06,-1.00,-1.0,2368
2630,2137630,16104,-240,-812,16126.24,24.01,-1.00,-1.0,2435
2633,2137633,18584,-1552,1308,18694.51,24.01,-1.00,-1.0,2368
2638,2137638,16524,-192,476,16531.97,24.01,-1.00,-1.0,2440
2640,2137640,17140,112,-1740,17228.46,24.11,-1.00,-1.0,2371
2643,2137643,16964,1000,2328,17152.17,24.11,-1.00,-1.0,2432
2646,2137646,16504,-1480,2328,16732.96,24.01,-1.00,-1.0,2370
2649,2137649,15616,-856,1028,15673.19,24.01,-1.00,-1.0,2431
2651,2137651,18452,184,224,18454.28,24.01,-1.00,-1.0,2375
2654,2137654,16956,24,144,16956.63,24.01,-1.00,-1.0,2432
2657,2137657,16512,-1432,92,16574.23,24.01,-1.00,-1.0,2357
2662,2137662,15548,-296,736,15568.22,24.01,-1.00,-1.0,2450
2665,2137665,17728,148,624,17739.60,24.06,-1.00,-1.0,2369
2667,2137667,17908,-188,888,17930.99,24.01,-1.00,-1.0,2347
2670,2137670,15436,-1184,556,15491.32,24.01,-1.00,-1.0,2432
2673,2137673,17736,-380,496,17747.00,24.11,-1.00,-1.0,2377
2675,2137675,15700,-324,324,15706.68,24.01,-1.00,-1.0,2434
2678,2137678,18116,-312,1600,18189.20,24.01,-1.00,-1.0,2383
2681,2137681,15840,-1948,332,15962.79,24.01,-1.00,-1.0,2435
2684,2137684,15900,-36,152,15900.77,24.06,-1.00,-1.0,2376
2689,2137689,15464,-684,988,15510.62,24.06,-1.00,-1.0,2440
2691,2137691,18128,-2404,748,18302.00,24.11,-1.00,-1.0,2370
2694,2137694,15668,-272,500,15678.34,24.06,-1.00,-1.0,2433
2697,2137697,16816,960,96,16843.65,24.11,-1.00,-1.0,2370
2700,2137700,17556,-240,-460,17563.67,24.06,-1.00,-1.0,2431
2702,2137702,16000,-1596,584,16090.00,24.11,-1.00,-1.0,2376
2705,2137705,18944,-788,1532,19022.17,24.06,-1.00,-1.0,2433
2708,2137708,15452,-628,-336,15468.41,24.11,-1.00,-1.0,2371
2711,2137711,17948,180,580,17958.27,24.06,-1.00,-1.0,2368
2716,2137716,15968,-896,1296,16045.54,24.01,-1.00,-1.0,2441
2718,2137718,17960,-1392,-668,18026.24,24.06,-1.00,-1.0,2372
2721,2137721,16036,500,1884,16154.03,24.11,-1.00,-1.0,2447
2724,2137724,17348,-364,572,17361.24,24.11,-1.00,-1.0,2364
2727,2137727,16244,-544,860,16275.84,24.11,-1.00,-1.0,2434
2729,2137729,16936,-1360,-520,16998.47,24.06,-1.00,-1.0,2373
2732,2137732,18160,436,2488,18334.83,24.01,-1.00,-1.0,2431
2735,2137735,15544,-1288,572,15607.76,23.92,-1.00,-1.0,2377
2740,2137740,17100,-200,1288,17149.61,24.01,-1.00,-1.0,2443
2742,2137742,16024,648,1640,16120.73,24.01,-1.00,-1.0,2375
2745,2137745,19064,76,-108,19064.46,24.01,-1.00,-1.0,2446
2748,2137748,15532,-876,528,15565.64,24.01,-1.00,-1.0,2374
2750,2137750,17932,-516,1208,17980.05,24.11,-1.00,-1.0,2367
2753,2137753,16220,-604,1192,16274.95,23.97,-1.00,-1.0,2433
2756,2137756,16416,-568,496,16433.31,24.11,-1.00,-1.0,2372
2759,2137759,17632,-416,528,17644.81,24.01,-1.00,-1.0,2421
2762,2137762,16328,-48,1048,16361.67,24.11,-1.00,-1.0,2375
2767,2137767,16888,32,920,16913.07,24.01,-1.00,-1.0,2450
2769,2137769,16712,-488,956,16746.43,24.01,-1.00,-1.0,2368
2772,2137772,17032,-772,1460,17111.88,24.11,-1.00,-1.0,2439
2775,2137775,17200,-1356,8,17253.37,24.01,-1.00,-1.0,2368
2778,2137778,17336,-496,892,17366.02,24.11,-1.00,-1.0,2439
2780,2137780,16524,812,920,16569.50,24.01,-1.00,-1.0,2370
2783,2137783,17280,244,720,17296.71,24.11,-1.00,-1.0,2434
2786,2137786,16860,-888,252,16885.25,23.97,-1.00,-1.0,2368
2789,2137789,16996,-840,2436,17190.22,24.11,-1.00,-1.0,2363
2794,2137794,16040,288,1128,16082.19,24.01,-1.00,-1.0,2449
2796,2137796,17560,1052,1540,17658.76,24.01,-1.00,-1.0,2369
2799,2137799,16224,-1176,408,16271.68,24.01,-1.00,-1.0,2441
2802,2137802,17060,-1024,1696,17174.65,24.01,-1.00,-1.0,2368
2805,2137805,16668,-316,1920,16781.19,24.01,-1.00,-1.0,2439
2807,2137807,16136,296,-708,16154.24,24.01,-1.00,-1.0,2357
2810,2137810,17784,-220,236,17786.93,24.01,-1.00,-1.0,2436
2813,2137813,16188,-1424,1096,16287.43,24.11,-1.00,-1.0,2369
2818,2137818,18060,-424,896,18087.18,23.97,-1.00,-1.0,2442
2821,2137821,16488,1764,1552,16654.56,23.97,-1.00,-1.0,2368
2823,2137823,16952,52,1320,17003.39,24.11,-1.00,-1.0,2432
2826,2137826,16380,-1756,1176,16515.78,24.06,-1.00,-1.0,2368
2829,2137829,16892,-1288,1364,16995.86,24.01,-1.00,-1.0,2432
2832,2137832,17268,-64,1096,17302.87,23.97,-1.00,-1.0,2368
2834,2137834,16608,-196,-676,16622.91,23.92,-1.00,-1.0,2360
2837,2137837,18308,160,1644,18382.36,24.01,-1.00,-1.0,2431
2840,2137840,15380,-1104,784,15439.49,23.97,-1.00,-1.0,2370
2845,2137845,17896,-568,-180,17905.92,24.06,-1.00,-1.0,2444
2848,2137848,16736,-4,1120,16773.44,24.06,-1.00,-1.0,2373
2850,2137850,17184,-688,600,17208.23,24.06,-1.00,-1.0,2441
2853,2137853,16212,60,1468,16278.44,24.06,-1.00,-1.0,2384
2856,2137856,18628,-552,432,18641.18,23.97,-1.00,-1.0,2434
2859,2137859,15688,-824,1064,15745.62,23.97,-1.00,-1.0,2375
2861,2137861,17736,-1016,884,17787.06,24.06,-1.00,-1.0,2442
2864,2137864,15928,132,512,15936.77,24.06,-1.00,-1.0,2376
2869,2137869,18188,120,2244,18326.30,24.06,-1.00,-1.0,2440
2872,2137872,16256,-2208,220,16406.74,24.11,-1.00,-1.0,2375
2874,2137874,17988,-1472,116,18048.50,24.06,-1.00,-1.0,2370
2877,2137877,16940,416,472,16951.68,24.01,-1.00,-1.0,2439
2880,2137880,15148,528,-200,15158.52,24.06,-1.00,-1.0,2371
2883,2137883,18816,260,980,18843.30,24.11,-1.00,-1.0,2445
2885,2137885,15336,-2004,800,15487.06,24.06,-1.00,-1.0,2369
2888,2137888,18212,-860,1868,18327.74,24.01,-1.00,-1.0,2442
2891,2137891,17720,-596,-332,17733.13,24.11,-1.00,-1.0,2369
2896,2137896,18340,-340,-280,18345.29,24.01,-1.00,-1.0,2440
2899,2137899,16092,-1228,812,16159.20,24.11,-1.00,-1.0,2368
2901,2137901,17832,-1256,108,17876.50,24.01,-1.00,-1.0,2434
2904,2137904,17164,600,836,17194.82,24.01,-1.00,-1.0,2370
2907,2137907,16448,-52,-236,16449.78,24.01,-1.00,-1.0,2432
2910,2137910,17320,-716,840,17355.13,24.11,-1.00,-1.0,2368
2912,2137912,17192,-1356,980,17273.22,24.11,-1.00,-1.0,2435
2915,2137915,16620,-260,1368,16678.23,24.01,-1.00,-1.0,2376
2918,2137918,17428,-108,-408,17433.11,24.01,-1.00,-1.0,2361
2923,2137923,16468,-508,1108,16513.05,23.97,-1.00,-1.0,2443
2925,2137925,16964,-644,1648,17056.02,24.06,-1.00,-1.0,2367
2928,2137928,17732,-1372,332,17788.10,23.97,-1.00,-1.0,2436
2931,2137931,16520,284,688,16536.76,24.06,-1.00,-1.0,2367
2934,2137934,16692,304,472,16701.44,23.97,-1.00,-1.0,2443
2936,2137936,17500,-824,80,17519.57,24.15,-1.00,-1.0,2368
2939,2137939,16792,-1248,144,16838.93,24.06,-1.00,-1.0,2434
2942,2137942,18156,72,1580,18224.76,24.06,-1.00,-1.0,2367
2947,2137947,16420,368,1416,16485.05,24.06,-1.00,-1.0,2453
2949,2137949,17476,4,1060,17508.12,23.97,-1.00,-1.0,2367
2952,2137952,16116,-1068,1004,16182.52,23.97,-1.00,-1.0,2440
2955,2137955,17468,-1660,-552,17555.38,24.06,-1.00,-1.0,2367
2958,2137958,16936,348,2072,17065.82,24.01,-1.00,-1.0,2364
2960,2137960,16540,464,1092,16582.50,24.01,-1.00,-1.0,2442
2963,2137963,17096,-388,624,17111.78,24.01,-1.00,-1.0,2375
2966,2137966,16672,-1444,840,16755.49,24.11,-1.00,-1.0,2449
2969,2137969,17056,-480,1440,17123.41,24.06,-1.00,-1.0,2367
2974,2137974,17324,-60,140,17324.67,24.06,-1.00,-1.0,2442
2977,2137977,15972,-172,648,15986.06,24.06,-1.00,-1.0,2368
2979,2137979,17916,-352,2492,18091.90,24.06,-1.00,-1.0,2432
2982,2137982,16192,-1900,-648,16315.97,24.06,-1.00,-1.0,2367
2985,2137985,17676,-304,740,17694.10,23.97,-1.00,-1.0,2433
2988,2137988,17556,564,912,17588.72,24.06,-1.00,-1.0,2368
2990,2137990,15668,344,796,15691.98,23.97,-1.00,-1.0,2432
2993,2137993,18216,-1624,372,18292.03,24.11,-1.00,-1.0,2367
2996,2137996,16308,-1152,1916,16460.53,23.92,-1.00,-1.0,2367
3001,2138001,16408,876,1288,16481.77,24.11,-1.00,-1.0,2443
3004,2138004,16476,64,-592,16486.76,24.06,-1.00,-1.0,2376
3007,2138007,18220,-16,2356,18371.70,24.01,-1.00,-1.0,2432
3009,2138009,15984,-1032,1756,16113.25,24.06,-1.00,-1.0,2368
3012,2138012,17556,272,2028,17674.84,24.11,-1.00,-1.0,2434
3015,2138015,16508,72,20,16508.17,23.97,-1.00,-1.0,2368
3017,2138017,17408,616,1804,17512.06,24.01,-1.00,-1.0,2433
3020,2138020,16756,-1520,400,16829.55,24.06,-1.00,-1.0,2367
3025,2138025,19016,392,1840,19108.83,24.15,-1.00,-1.0,2443
3028,2138028,14976,388,1372,15043.72,24.06,-1.00,-1.0,2370
3031,2138031,17188,-436,488,17200.45,24.06,-1.00,-1.0,2429
3033,2138033,17556,-544,1332,17614.86,24.15,-1.00,-1.0,2374
3036,2138036,16608,-592,1340,16672.48,24.06,-1.00,-1.0,2359
3039,2138039,18364,-864,-100,18384.59,24.11,-1.00,-1.0,2440
3041,2138041,16048,-356,448,16058.20,24.06,-1.00,-1.0,2370
3044,2138044,17784,96,1188,17823.89,24.11,-1.00,-1.0,2433
3047,2138047,16984,-512,620,17003.02,24.01,-1.00,-1.0,2376
3052,2138052,17224,-396,824,17248.25,24.01,-1.00,-1.0,2457
3055,2138055,16448,-448,92,16454.36,24.11,-1.00,-1.0,2377
3058,2138058,17584,-484,952,17616.40,24.06,-1.00,-1.0,2445
3060,2138060,15772,-804,604,15804.03,24.01,-1.00,-1.0,2377
3063,2138063,19104,-108,1460,19160.01,23.97,-1.00,-1.0,2441
3066,2138066,16776,-1068,28,16809.98,24.11,-1.00,-1.0,2377
3069,2138069,15728,-764,-768,15765.26,24.06,-1.00,-1.0,2443
3071,2138071,19404,204,1104,19436.45,24.06,-1.00,-1.0,2377
3074,2138074,15556,-188,1372,15617.52,24.11,-1.00,-1.0,2362
3079,2138079,16900,-724,320,16918.53,24.11,-1.00,-1.0,2458
3082,2138082,16416,356,1240,16466.62,24.06,-1.00,-1.0,2377
3085,2138085,18228,-416,368,18236.46,23.97,-1.00,-1.0,2443
3087,2138087,15936,-836,864,15981.29,24.06,-1.00,-1.0,2374
3090,2138090,18064,-1256,-360,18111.19,24.06,-1.00,-1.0,2427
3093,2138093,16724,404,1120,16766.33,24.11,-1.00,-1.0,2375
3096,2138096,16352,72,1068,16387.00,23.97,-1.00,-1.0,2441
3098,2138098,16516,-172,1216,16561.60,24.01,-1.00,-1.0,2371
3103,2138103,16692,-752,1892,16815.71,24.01,-1.00,-1.0,2443
3106,2138106,16936,-96,340,16939.68,24.01,-1.00,-1.0,2369
3109,2138109,18064,404,984,18095.29,24.01,-1.00,-1.0,2441
3111,2138111,15444,-68,864,15468.30,24.11,-1.00,-1.0,2369
3114,2138114,17968,-188,2160,18098.34,24.01,-1.00,-1.0,2366
3117,2138117,15904,-1688,-484,16000.65,23.97,-1.00,-1.0,2442
3119,2138119,16788,-64,2076,16915.99,24.01,-1.00,-1.0,2369
3122,2138122,17356,300,1256,17403.97,23.97,-1.00,-1.0,2448
3125,2138125,15652,328,1172,15699.24,24.01,-1.00,-1.0,2368
3130,2138130,15456,-1164,2152,15648.45,24.01,-1.00,-1.0,2442
3133,2138133,16544,-1288,920,16619.54,24.01,-1.00,-1.0,2369
3135,2138135,17852,-180,-116,17853.29,24.11,-1.00,-1.0,2432
3138,2138138,16136,-136,-492,16144.07,24.11,-1.00,-1.0,2369
3141,2138141,18136,72,1896,18234.98,24.01,-1.00,-1.0,2432
3144,2138144,15676,-1288,892,15754.10,24.01,-1.00,-1.0,2368
3146,2138146,17940,-704,1372,18006.15,24.01,-1.00,-1.0,2431
3149,2138149,15784,-56,328,15787.51,24.11,-1.00,-1.0,2368
3154,2138154,18456,-1036,-60,18485.15,24.01,-1.00,-1.0,2446
3157,2138157,14748,-1144,680,14807.92,24.01,-1.00,-1.0,2368
3159,2138159,18288,-408,2236,18428.70,24.06,-1.00,-1.0,2361
3162,2138162,15620,-768,284,15641.45,24.06,-1.00,-1.0,2438
3165,2138165,17664,-632,-100,17675.59,24.06,-1.00,-1.0,2377
3168,2138168,18040,40,1164,18077.56,24.06,-1.00,-1.0,2431
3170,2138170,15636,-540,512,15653.70,23.97,-1.00,-1.0,2368
3173,2138173,17728,-372,704,17745.87,24.06,-1.00,-1.0,2433
3176,2138176,16100,-772,484,16125.76,24.06,-1.00,-1.0,2371
3181,2138181,16916,-1456,64,16978.67,24.01,-1.00,-1.0,2440
3184,2138184,16468,472,1288,16525.03,24.01,-1.00,-1.0,2369
3187,2138187,18244,272,660,18257.96,24.01,-1.00,-1.0,2433
3189,2138189,16140,-408,1140,16185.35,24.01,-1.00,-1.0,2358
3192,2138192,17696,-964,1108,17756.84,24.01,-1.00,-1.0,2432
3195,2138195,15420,-20,860,15443.98,24.01,-1.00,-1.0,2370
3197,2138197,17940,712,1476,18014.69,24.11,-1.00,-1.0,2359
3200,2138200,16180,-316,2604,16391.25,23.97,-1.00,-1.0,2438
3203,2138203,15836,-1204,1052,15916.51,23.97,-1.00,-1.0,2370
3208,2138208,16124,392,84,16128.98,24.06,-1.00,-1.0,2441
3211,2138211,18012,8,1768,18098.56,24.11,-1.00,-1.0,2368
3214,2138214,16264,-1368,-120,16321.87,23.97,-1.00,-1.0,2440
3216,2138216,16312,-104,1576,16388.29,23.92,-1.00,-1.0,2369
3219,2138219,17908,20,720,17922.48,24.06,-1.00,-1.0,2433
3222,2138222,16068,-432,1868,16181.99,24.11,-1.00,-1.0,2371
3225,2138225,17684,-2096,-196,17808.86,24.06,-1.00,-1.0,2431
3227,2138227,15300,-228,888,15327.44,24.11,-1.00,-1.0,2371
3232,2138232,16892,16,736,16908.03,24.01,-1.00,-1.0,2449
3235,2138235,16980,-976,432,17013.51,24.01,-1.00,-1.0,2375
3238,2138238,17828,-844,2128,17974.38,24.11,-1.00,-1.0,2360
3240,2138240,15476,-1132,-264,15519.59,24.06,-1.00,-1.0,2433
3243,2138243,18664,-252,-80,18665.87,24.01,-1.00,-1.0,2372
3246,2138246,15712,-236,-576,15724.33,24.11,-1.00,-1.0,2431
3249,2138249,16828,232,2616,17031.70,24.11,-1.00,-1.0,2368
3251,2138251,17160,-2164,-296,17298.44,24.06,-1.00,-1.0,2434
3254,2138254,16552,-804,196,16572.67,24.01,-1.00,-1.0,2372
3259,2138259,15964,504,992,16002.73,24.01,-1.00,-1.0,2441
3262,2138262,17764,-2132,-336,17894.64,24.06,-1.00,-1.0,2369
3265,2138265,16776,-968,1940,16915.52,24.11,-1.00,-1.0,2438
3267,2138267,17072,-912,-84,17096.55,24.15,-1.00,-1.0,2369
3270,2138270,16796,804,556,16824.42,24.01,-1.00,-1.0,2434
3273,2138273,17264,212,1208,17307.51,24.06,-1.00,-1.0,2369
3276,2138276,16736,-1472,1140,16839.24,24.01,-1.00,-1.0,2434
3278,2138278,16072,-1632,32,16154.68,24.15,-1.00,-1.0,2368
3281,2138281,17908,408,1252,17956.35,24.01,-1.00,-1.0,2371
3286,2138286,18952,560,1820,19047.42,24.11,-1.00,-1.0,2442
3289,2138289,16224,-1208,1312,16321.73,24.01,-1.00,-1.0,2367
3292,2138292,16984,244,2476,17165.27,24.11,-1.00,-1.0,2440
3294,2138294,18412,-728,-1432,18481.95,24.01,-1.00,-1.0,2369
3297,2138297,16920,740,1680,17019.29,24.20,-1.00,-1.0,2438
3300,2138300,17308,-968,1592,17408.00,24.01,-1.00,-1.0,2368
3303,2138303,16140,-952,312,16171.06,24.01,-1.00,-1.0,2438
3305,2138305,18060,-36,212,18061.28,24.06,-1.00,-1.0,2369
3310,2138310,16608,-1868,-1168,16753.49,23.97,-1.00,-1.0,2440
3313,2138313,17648,-796,460,17671.93,24.06,-1.00,-1.0,2368
3316,2138316,17040,-128,876,17062.98,24.01,-1.00,-1.0,2432
3319,2138319,17032,48,1348,17085.33,24.06,-1.00,-1.0,2368
3321,2138321,17380,-1332,-1364,17484.25,24.06,-1.00,-1.0,2433
3324,2138324,17544,-104,912,17568.00,24.06,-1.00,-1.0,2368
3327,2138327,16820,-176,596,16831.48,24.01,-1.00,-1.0,2359
3329,2138329,16356,-180,1172,16398.92,24.01,-1.00,-1.0,2434
3332,2138332,17524,-1272,-152,17570.76,23.97,-1.00,-1.0,2377
3338,2138338,18524,372,1528,18590.64,24.01,-1.00,-1.0,2450
3341,2138341,15844,-320,276,15849.63,24.06,-1.00,-1.0,2369
3343,2138343,17128,-332,608,17142.00,24.01,-1.00,-1.0,2436
3346,2138346,16920,-1140,836,16978.96,24.01,-1.00,-1.0,2356
3349,2138349,16644,112,2044,16769.41,24.01,-1.00,-1.0,2431
3352,2138352,17096,-448,148,17102.51,23.97,-1.00,-1.0,2366
3354,2138354,15300,-212,-280,15304.03,24.01,-1.00,-1.0,2433
3357,2138357,18932,-776,444,18953.10,24.06,-1.00,-1.0,2370
3362,2138362,16812,-1396,740,16886.08,23.92,-1.00,-1.0,2441
3365,2138365,16228,832,1024,16281.55,24.11,-1.00,-1.0,2367
3367,2138367,17132,524,-476,17146.62,24.01,-1.00,-1.0,2359
3370,2138370,17372,-924,-224,17398.00,24.06,-1.00,-1.0,2448
3373,2138373,17088,-2004,104,17205.42,24.11,-1.00,-1.0,2371
3376,2138376,16984,-404,1244,17034.29,24.06,-1.00,-1.0,2435
3378,2138378,16552,-480,800,16578.27,24.11,-1.00,-1.0,2370
3381,2138381,17268,284,1276,17317.41,24.06,-1.00,-1.0,2440
3384,2138384,17032,-2132,-744,17181.04,24.11,-1.00,-1.0,2376
3389,2138389,17184,536,656,17204.87,24.01,-1.00,-1.0,2448
3391,2138391,17012,488,-636,17030.88,24.01,-1.00,-1.0,2368
3394,2138394,17400,128,1572,17471.34,24.01,-1.00,-1.0,2433
3397,2138397,16652,-1684,2480,16919.67,24.11,-1.00,-1.0,2369
3400,2138400,16960,-2196,592,17111.82,24.11,-1.00,-1.0,2439
3402,2138402,17512,-624,-12,17523.12,24.01,-1.00,-1.0,2368
3405,2138405,17232,576,-464,17247.87,24.11,-1.00,-1.0,2432
3408,2138408,16700,900,1368,16780.09,24.11,-1.00,-1.0,2369
3410,2138410,17216,-888,124,17239.33,24.01,-1.00,-1.0,2360
3415,2138415,16724,-556,1380,16790.05,24.01,-1.00,-1.0,2440
3418,2138418,17144,-868,-220,17167.37,23.92,-1.00,-1.0,2369
3421,2138421,17708,-628,240,17720.76,24.01,-1.00,-1.0,2431
3424,2138424,16300,-88,1532,16372.07,24.01,-1.00,-1.0,2367
3426,2138426,16728,-648,824,16760.81,24.01,-1.00,-1.0,2433
3429,2138429,17120,-1376,-632,17186.83,24.01,-1.00,-1.0,2368
3432,2138432,17668,-712,464,17688.43,24.11,-1.00,-1.0,2432
3435,2138435,17232,904,2224,17398.43,24.11,-1.00,-1.0,2367
3440,2138440,17144,-932,-620,17180.51,24.11,-1.00,-1.0,2447
3442,2138442,16948,-604,2220,17103.45,24.01,-1.00,-1.0,2377
3445,2138445,16604,-2044,692,16743.64,24.11,-1.00,-1.0,2433
3448,2138448,17552,-508,-320,17562.27,24.01,-1.00,-1.0,2371
3451,2138451,16108,584,-744,16135.75,24.01,-1.00,-1.0,2440
3453,2138453,17576,752,1440,17650.92,24.01,-1.00,-1.0,2379
3456,2138456,16668,-1960,476,16789.59,24.01,-1.00,-1.0,2350
3459,2138459,17680,-2232,272,17822.41,24.11,-1.00,-1.0,2429
3461,2138461,16464,628,-196,16477.14,24.06,-1.00,-1.0,2371
3466,2138466,17124,-1568,-1140,17233.39,23.97,-1.00,-1.0,2442
3469,2138469,17272,-1104,2776,17528.46,24.01,-1.00,-1.0,2355
3472,2138472,17092,-1060,2484,17304.05,24.15,-1.00,-1.0,2431
3475,2138475,16416,536,564,16434.43,24.11,-1.00,-1.0,2370
3477,2138477,16520,380,-240,16526.11,24.06,-1.00,-1.0,2421
3480,2138480,17720,-232,1712,17804.02,24.11,-1.00,-1.0,2369
3483,2138483,16108,-1768,1992,16326.71,24.06,-1.00,-1.0,2431
3486,2138486,17336,-1212,-292,17380.77,24.01,-1.00,-1.0,2367
3491,2138491,16832,1008,1868,16965.31,24.01,-1.00,-1.0,2445
3493,2138493,18344,-2164,-588,18480.56,24.01,-1.00,-1.0,2376
3496,2138496,16720,-1720,516,16816.15,24.15,-1.00,-1.0,2432
3499,2138499,17912,260,884,17935.69,24.01,-1.00,-1.0,2369
3501,2138501,16684,1160,364,16728.24,24.15,-1.00,-1.0,2359
3504,2138504,17168,-184,-652,17181.36,24.06,-1.00,-1.0,2433
3507,2138507,17368,-1280,756,17431.50,24.11,-1.00,-1.0,2372
3510,2138510,17316,-560,2708,17535.41,24.01,-1.00,-1.0,2428
3513,2138513,16528,-516,340,16539.55,24.11,-1.00,-1.0,2374
3518,2138518,18616,8,1376,18666.79,24.11,-1.00,-1.0,2442
3520,2138520,16584,-1680,460,16675.22,23.97,-1.00,-1.0,2371
3523,2138523,17228,-1088,764,17279.22,23.92,-1.00,-1.0,2446
3526,2138526,16540,340,-20,16543.51,24.06,-1.00,-1.0,2376
3529,2138529,17780,48,668,17792.61,24.11,-1.00,-1.0,2438
3531,2138531,17504,-1692,-272,17587.69,23.97,-1.00,-1.0,2370
3534,2138534,17468,-1940,712,17589.81,24.11,-1.00,-1.0,2439
3537,2138537,16868,-192,796,16887.86,23.97,-1.00,-1.0,2376
3540,2138540,17236,96,-1092,17270.82,24.01,-1.00,-1.0,2362
3544,2138544,17060,-680,1532,17142.14,24.06,-1.00,-1.0,2450
3547,2138547,17192,-1696,512,17283.04,24.20,-1.00,-1.0,2375
3550,2138550,16620,-280,1260,16670.04,23.97,-1.00,-1.0,2431
3553,2138553,16776,-80,-472,16782.83,24.01,-1.00,-1.0,2373
3555,2138555,18204,-828,-688,18235.80,23.97,-1.00,-1.0,2435
3558,2138558,16140,-924,1028,16199.08,23.92,-1.00,-1.0,2376
3561,2138561,17296,-764,1324,17363.42,23.97,-1.00,-1.0,2432
3564,2138564,16456,-1020,-468,16494.22,23.92,-1.00,-1.0,2368
3568,2138568,17412,-472,904,17441.84,24.15,-1.00,-1.0,2445
3571,2138571,16604,-308,1752,16699.02,24.06,-1.00,-1.0,2357
3574,2138574,17304,-304,748,17322.83,23.97,-1.00,-1.0,2431
3577,2138577,16628,104,1768,16722.05,24.11,-1.00,-1.0,2374
3579,2138579,16640,-1320,616,16703.64,24.06,-1.00,-1.0,2436
3582,2138582,17884,-580,1536,17959.21,23.97,-1.00,-1.0,2376
3585,2138585,16324,-164,356,16328.71,24.06,-1.00,-1.0,2364
3588,2138588,17732,736,948,17772.57,23.97,-1.00,-1.0,2431
3591,2138591,16700,-1320,-440,16757.86,24.06,-1.00,-1.0,2368
3596,2138596,16880,-220,1800,16977.12,24.01,-1.00,-1.0,2443
3598,2138598,16176,360,892,16204.57,24.06,-1.00,-1.0,2407
3601,2138601,19048,-368,-864,19071.14,24.15,-1.00,-1.0,2462
3604,2138604,16696,-928,1248,16768.28,24.01,-1.00,-1.0,2384
3607,2138607,17656,-464,1836,17757.27,23.97,-1.00,-1.0,2429
3609,2138609,16464,0,308,16466.88,24.01,-1.00,-1.0,2373
3612,2138612,16252,24,1000,16282.75,23.97,-1.00,-1.0,2439
3615,2138615,18580,-648,868,18611.55,24.11,-1.00,-1.0,2374
3620,2138620,17976,-96,1096,18009.64,24.01,-1.00,-1.0,2436
3623,2138623,16512,368,960,16543.98,24.11,-1.00,-1.0,2367
3625,2138625,15096,-296,1164,15143.70,24.01,-1.00,-1.0,2360
3628,2138628,18812,-2216,-592,18951.32,24.06,-1.00,-1.0,2452
3631,2138631,16252,-1504,436,16327.27,24.11,-1.00,-1.0,2379
3634,2138634,18008,800,1152,18062.54,24.06,-1.00,-1.0,2447
3636,2138636,16364,860,380,16390.99,23.92,-1.00,-1.0,2373
3639,2138639,17340,-392,-572,17353.86,24.06,-1.00,-1.0,2447
3642,2138642,17360,-1040,1132,17427.93,24.06,-1.00,-1.0,2377
3647,2138647,17500,-456,1176,17545.40,24.11,-1.00,-1.0,2444
3649,2138649,15944,-24,-168,15944.90,24.11,-1.00,-1.0,2366
3652,2138652,17016,536,2536,17212.29,24.01,-1.00,-1.0,2438
3655,2138655,16808,-1708,264,16896.62,24.11,-1.00,-1.0,2368
3658,2138658,17352,-1268,880,17420.51,24.01,-1.00,-1.0,2439
3660,2138660,16684,956,88,16711.60,24.11,-1.00,-1.0,2367
3663,2138663,16316,1164,464,16364.05,24.01,-1.00,-1.0,2435
3666,2138666,17920,-1496,52,17982.41,24.01,-1.00,-1.0,2367
3669,2138669,17040,-2324,1616,17273.51,24.01,-1.00,-1.0,2361
3674,2138674,16996,812,404,17020.18,24.01,-1.00,-1.0,2436
3676,2138676,17256,732,296,17274.05,24.01,-1.00,-1.0,2374
3679,2138679,16632,-324,1936,16747.43,24.11,-1.00,-1.0,2437
3682,2138682,16360,-2028,292,16487.80,24.11,-1.00,-1.0,2369
3685,2138685,17672,-180,1396,17727.97,24.01,-1.00,-1.0,2435
3687,2138687,16164,28,-584,16174.57,24.01,-1.00,-1.0,2375
3690,2138690,17492,976,2124,17647.49,24.11,-1.00,-1.0,2433
3693,2138693,16792,-1152,884,16854.67,24.01,-1.00,-1.0,2354
3698,2138698,18180,-840,-60,18199.49,24.06,-1.00,-1.0,2445
3700,2138700,16048,668,1760,16158.04,24.01,-1.00,-1.0,2367
3703,2138703,18076,-268,856,18098.24,24.06,-1.00,-1.0,2449
3706,2138706,17124,-508,1844,17230.49,24.06,-1.00,-1.0,2367
3709,2138709,16444,-472,496,16458.25,24.11,-1.00,-1.0,2362
3711,2138711,17272,576,1516,17347.97,24.11,-1.00,-1.0,2438
3714,2138714,17228,-944,-932,17279.00,24.01,-1.00,-1.0,2382
3717,2138717,18180,-732,2472,18361.89,24.01,-1.00,-1.0,2432
3720,2138720,15944,-456,768,15969.00,24.06,-1.00,-1.0,2374
3725,2138725,18420,64,-420,18424.90,24.06,-1.00,-1.0,2444
3727,2138727,16348,-560,2676,16575.03,24.01,-1.00,-1.0,2367
3730,2138730,17000,-1208,1600,17117.80,23.97,-1.00,-1.0,2437
3733,2138733,16488,196,760,16506.67,24.01,-1.00,-1.0,2367
3736,2138736,18404,564,-360,18416.16,24.06,-1.00,-1.0,2440
3738,2138738,16912,-604,1596,16997.88,24.01,-1.00,-1.0,2367
3741,2138741,17144,-1088,1960,17289.94,24.01,-1.00,-1.0,2470
3744,2138744,17076,-740,1200,17134.10,24.11,-1.00,-1.0,2380
3749,2138749,16756,556,1536,16835.44,24.11,-1.00,-1.0,2443
3752,2138752,16708,-1048,92,16741.09,24.01,-1.00,-1.0,2365
3754,2138754,17516,-68,2356,17673.87,24.06,-1.00,-1.0,2347
3757,2138757,17456,-1368,-272,17511.63,24.06,-1.00,-1.0,2440
3760,2138760,15540,-272,532,15551.48,24.06,-1.00,-1.0,2365
3762,2138762,18728,-1008,-500,18761.77,24.06,-1.00,-1.0,2424
3765,2138765,16276,-1032,764,16326.57,24.11,-1.00,-1.0,2364
3768,2138768,16916,-1028,276,16949.46,24.06,-1.00,-1.0,2440
3771,2138771,16752,96,556,16761.50,24.01,-1.00,-1.0,2372
3776,2138776,16800,-160,2692,17015.07,24.11,-1.00,-1.0,2444
3778,2138778,15976,-1544,-72,16050.60,24.11,-1.00,-1.0,2375
3781,2138781,18460,380,1248,18506.04,24.01,-1.00,-1.0,2449
3784,2138784,16700,184,-88,16701.25,24.11,-1.00,-1.0,2371
3787,2138787,16264,144,2132,16403.78,24.11,-1.00,-1.0,2445
3789,2138789,17176,-1888,-124,17279.90,24.01,-1.00,-1.0,2372
3792,2138792,16732,-476,1452,16801.63,24.06,-1.00,-1.0,2363
3795,2138795,17424,-248,-552,17434.51,23.97,-1.00,-1.0,2433
3798,2138798,16192,680,1224,16252.43,24.11,-1.00,-1.0,2370
3803,2138803,16620,-1096,3116,16945.06,24.01,-1.00,-1.0,2447
3805,2138805,16540,-1316,304,16595.05,24.11,-1.00,-1.0,2363
3808,2138808,16844,936,584,16880.09,24.11,-1.00,-1.0,2453
3811,2138811,17160,368,-816,17183.33,24.11,-1.00,-1.0,2373
3814,2138814,17040,-680,1832,17151.68,24.01,-1.00,-1.0,2444
3816,2138816,16788,-2108,64,16919.95,24.11,-1.00,-1.0,2363
3819,2138819,17020,464,1500,17092.27,24.11,-1.00,-1.0,2450
3822,2138822,17340,188,-752,17357.32,24.11,-1.00,-1.0,2372
3827,2138827,17664,-1920,516,17775.53,24.01,-1.00,-1.0,2441
3830,2138830,16052,-1168,860,16117.40,24.06,-1.00,-1.0,2371
3833,2138833,18116,180,308,18119.51,24.11,-1.00,-1.0,2441
3835,2138835,15764,524,1384,15833.31,24.01,-1.00,-1.0,2367
3838,2138838,17976,-1136,72,18012.00,24.11,-1.00,-1.0,2368
3841,2138841,17008,-864,2352,17191.58,24.06,-1.00,-1.0,2444
3843,2138843,16496,-608,204,16508.46,24.01,-1.00,-1.0,2370
3846,2138846,17068,260,332,17073.21,24.06,-1.00,-1.0,2452
3849,2138849,17084,-92,412,17089.21,24.06,-1.00,-1.0,2366
3854,2138854,17644,-2024,-232,17761.23,24.06,-1.00,-1.0,2431
3857,2138857,16084,576,396,16099.18,24.01,-1.00,-1.0,2370
3859,2138859,18548,248,152,18550.28,23.97,-1.00,-1.0,2450
3862,2138862,16016,-504,2496,16217.16,23.97,-1.00,-1.0,2378
3865,2138865,17544,-1816,84,17637.94,24.06,-1.00,-1.0,2442
3868,2138868,16436,252,568,16447.74,24.06,-1.00,-1.0,2377
3870,2138870,18156,676,412,18173.25,23.97,-1.00,-1.0,2441
3873,2138873,16792,-800,1936,16922.16,24.06,-1.00,-1.0,2380
3876,2138876,15844,-2060,4,15977.36,24.06,-1.00,-1.0,2359
3881,2138881,16660,-212,-8,16661.35,24.06,-1.00,-1.0,2447
3884,2138884,16116,-172,1296,16168.94,23.97,-1.00,-1.0,2375
3886,2138886,17600,-1772,240,17690.61,24.06,-1.00,-1.0,2441
3889,2138889,17008,308,2200,17152.46,24.06,-1.00,-1.0,2371
3892,2138892,17916,-680,-684,17941.94,24.15,-1.00,-1.0,2440
3895,2138895,15200,-220,-368,15206.05,24.06,-1.00,-1.0,2367
3897,2138897,19524,-1240,-280,19565.34,23.97,-1.00,-1.0,2424
3900,2138900,16380,-1216,1720,16514.89,24.06,-1.00,-1.0,2378
3905,2138905,17500,1312,228,17550.59,23.97,-1.00,-1.0,2457
3908,2138908,16828,652,684,16854.51,23.97,-1.00,-1.0,2370
3911,2138911,16340,-1332,2184,16539.04,24.06,-1.00,-1.0,2447
3913,2138913,16504,-2948,-444,16771.10,24.11,-1.00,-1.0,2370
3916,2138916,17960,592,1976,18078.07,23.97,-1.00,-1.0,2361
3919,2138919,16620,492,-636,16639.44,23.92,-1.00,-1.0,2431
3921,2138921,15824,132,736,15841.66,24.06,-1.00,-1.0,2372
3924,2138924,17956,-2832,-772,18194.34,24.01,-1.00,-1.0,2437
3927,2138927,17160,-1220,2956,17455.43,24.01,-1.00,-1.0,2364
3932,2138932,16088,1368,76,16146.24,24.01,-1.00,-1.0,2441
3935,2138935,18180,544,108,18188.46,24.01,-1.00,-1.0,2365
3937,2138937,16480,-1684,2272,16720.89,24.01,-1.00,-1.0,2440
3940,2138940,16864,-2940,-132,17118.87,24.11,-1.00,-1.0,2364
3943,2138943,17044,300,1320,17097.67,24.01,-1.00,-1.0,2437
3946,2138946,16972,1056,-1100,17040.36,24.11,-1.00,-1.0,2365
3948,2138948,16304,-232,836,16327.07,24.01,-1.00,-1.0,2437
3951,2138951,17392,-3232,-824,17708.94,24.01,-1.00,-1.0,2366
3956,2138956,17032,-28,1008,17061.82,24.11,-1.00,-1.0,2442
3959,2138959,16032,992,-212,16064.06,24.01,-1.00,-1.0,2365
3961,2138961,18032,-1000,-400,18064.14,24.01,-1.00,-1.0,2360
3964,2138964,16268,-1768,848,16385.75,24.06,-1.00,-1.0,2441
3967,2138967,17824,-1000,2276,17996.53,24.11,-1.00,-1.0,2364
3969,2138969,15828,212,576,15839.90,24.06,-1.00,-1.0,2440
3972,2138972,17640,204,-444,17646.77,24.01,-1.00,-1.0,2364
3975,2138975,16596,-728,1396,16670.51,24.06,-1.00,-1.0,2451
3978,2138978,16788,-2420,-520,16969.49,24.06,-1.00,-1.0,2365
3983,2138983,16928,-272,528,16938.42,23.97,-1.00,-1.0,2448
3985,2138985,16200,-488,-164,16208.18,24.15,-1.00,-1.0,2363
3988,2138988,18680,-1216,-132,18720.00,24.01,-1.00,-1.0,2456
3991,2138991,16072,-240,1800,16174.26,24.06,-1.00,-1.0,2365
3994,2138994,17980,-716,832,18013.47,24.06,-1.00,-1.0,2443
3996,2138996,15784,-420,-1184,15833.92,24.06,-1.00,-1.0,2363
3999,2138999,18872,-236,-280,18875.55,24.01,-1.00,-1.0,2454
4002,2139002,15968,-452,688,15989.21,24.06,-1.00,-1.0,2373
4005,2139005,18692,-1212,1092,18763.06,24.06,-1.00,-1.0,2368
4010,2139010,15872,-384,-100,15876.96,23.97,-1.00,-1.0,2440
4013,2139013,18708,684,1076,18751.40,24.06,-1.00,-1.0,2365
4016,2139016,15956,-704,664,15985.32,24.06,-1.00,-1.0,2442
4018,2139018,17180,-536,1960,17299.75,24.11,-1.00,-1.0,2363
4021,2139021,16732,-784,140,16750.94,24.06,-1.00,-1.0,2437
4024,2139024,15752,84,232,15753.93,23.97,-1.00,-1.0,2364
4026,2139026,18828,-480,280,18836.20,23.97,-1.00,-1.0,2439
4029,2139029,14728,-980,964,14792.01,24.11,-1.00,-1.0,2364
4034,2139034,16288,-580,1140,16338.14,24.11,-1.00,-1.0,2442
4037,2139037,16252,-188,400,16258.01,24.01,-1.00,-1.0,2367
4040,2139040,17836,812,1548,17921.46,24.06,-1.00,-1.0,2438
4042,2139042,15992,-164,540,16001.96,24.01,-1.00,-1.0,2371
4045,2139045,17440,-1060,948,17497.88,24.11,-1.00,-1.0,2437
4048,2139048,17008,-592,1604,17093.72,24.11,-1.00,-1.0,2366
4050,2139050,17124,284,2488,17306.13,23.97,-1.00,-1.0,2361
4053,2139053,17268,-516,116,17276.10,24.06,-1.00,-1.0,2437
4056,2139056,15780,412,1624,15868.70,23.92,-1.00,-1.0,2372
4061,2139061,16308,-952,1216,16380.96,24.11,-1.00,-1.0,2440
4064,2139064,17112,-340,1568,17187.05,24.11,-1.00,-1.0,2367
4067,2139067,16680,364,276,16686.25,24.01,-1.00,-1.0,2446
4069,2139069,17396,-304,-220,17400.05,24.01,-1.00,-1.0,2367
4072,2139072,17020,-1456,1388,17138.46,24.11,-1.00,-1.0,2451
4075,2139075,16764,-1444,2100,16956.62,24.01,-1.00,-1.0,2359
4078,2139078,16460,-8,1012,16491.08,24.11,-1.00,-1.0,2438
4080,2139080,17164,480,-524,17178.70,24.11,-1.00,-1.0,2367
4085,2139085,18184,-1156,1660,18296.17,23.97,-1.00,-1.0,2441
4088,2139088,16288,-940,1976,16434.33,24.06,-1.00,-1.0,2364
4091,2139091,16712,-340,416,16720.63,24.06,-1.00,-1.0,2448
4093,2139093,17396,320,-1176,17438.64,24.06,-1.00,-1.0,2364
4096,2139096,17644,100,1316,17693.29,24.01,-1.00,-1.0,2360
4099,2139099,17496,-2008,272,17612.95,24.11,-1.00,-1.0,2445
4101,2139101,16416,-1556,1380,16547.22,24.06,-1.00,-1.0,2351
4104,2139104,17268,168,80,17269.00,24.01,-1.00,-1.0,2438
4107,2139107,16976,572,-148,16986.28,24.15,-1.00,-1.0,2364
4112,2139112,17504,-1844,1156,17638.78,24.01,-1.00,-1.0,2450
4115,2139115,15384,-1532,156,15460.88,24.01,-1.00,-1.0,2371
4118,2139118,17572,428,676,17590.21,23.97,-1.00,-1.0,2450
4120,2139120,16328,-508,-1268,16385.04,24.06,-1.00,-1.0,2375
4123,2139123,19352,-1456,816,19423.84,24.06,-1.00,-1.0,2445
4126,2139126,16320,-2144,740,16476.86,24.01,-1.00,-1.0,2351
4129,2139129,16460,-36,780,16478.51,24.15,-1.00,-1.0,2449
4131,2139131,17880,476,-360,17889.96,23.97,-1.00,-1.0,2375
4134,2139134,16904,-324,1108,16943.37,23.97,-1.00,-1.0,2360
4139,2139139,16240,-984,608,16281.14,24.06,-1.00,-1.0,2449
4142,2139142,17620,-312,68,17622.89,24.06,-1.00,-1.0,2352
4145,2139145,16640,16,92,16640.26,24.06,-1.00,-1.0,2454
4147,2139147,17384,-384,340,17391.56,24.06,-1.00,-1.0,2372
4150,2139150,17584,-1176,1220,17665.46,24.06,-1.00,-1.0,2444
4153,2139153,16060,-384,1424,16127.58,23.97,-1.00,-1.0,2366
4156,2139156,18056,-124,356,18059.94,24.06,-1.00,-1.0,2446
4158,2139158,16216,-72,-280,16218.58,23.97,-1.00,-1.0,2372
4164,2139164,15480,-992,1088,15549.86,23.97,-1.00,-1.0,2443
4167,2139167,16584,-560,1232,16639.12,24.06,-1.00,-1.0,2365
4169,2139169,17960,-308,340,17965.86,24.11,-1.00,-1.0,2460
4172,2139172,16076,-244,400,16082.83,24.01,-1.00,-1.0,2369
4175,2139175,18052,304,1780,18142.09,23.97,-1.00,-1.0,2363
4178,2139178,16348,-840,308,16372.46,24.06,-1.00,-1.0,2449
4180,2139180,16912,-764,32,16929.28,24.15,-1.00,-1.0,2373
4183,2139183,17680,-488,104,17687.04,23.97,-1.00,-1.0,2447
4186,2139186,17328,84,1636,17405.26,24.06,-1.00,-1.0,2366
4191,2139191,16128,-1132,-464,16174.33,24.01,-1.00,-1.0,2445
4193,2139193,17376,144,1364,17430.05,24.06,-1.00,-1.0,2371
4196,2139196,16904,-904,-276,16930.40,24.01,-1.00,-1.0,2441
4199,2139199,17928,-892,1016,17978.91,24.15,-1.00,-1.0,2351
4202,2139202,16504,-1304,-472,16562.16,24.11,-1.00,-1.0,2446
4204,2139204,16988,4,60,16988.11,24.06,-1.00,-1.0,2375
4207,2139207,17272,-772,356,17292.91,24.11,-1.00,-1.0,2437
4210,2139210,17740,-1108,1836,17869.14,24.15,-1.00,-1.0,2366
4212,2139212,16992,-2064,-932,17142.25,24.01,-1.00,-1.0,2359
4217,2139217,16988,532,736,17012.26,24.01,-1.00,-1.0,2445
4220,2139220,16456,-404,1828,16562.15,24.06,-1.00,-1.0,2372
4223,2139223,16776,-2516,-284,16966.00,24.01,-1.00,-1.0,2442
4226,2139226,17156,244,2128,17289.20,24.11,-1.00,-1.0,2367
4228,2139228,17384,440,180,17390.50,24.01,-1.00,-1.0,2438
4231,2139231,16036,1108,2336,16243.09,24.01,-1.00,-1.0,2367
4234,2139234,17260,-1816,592,17365.37,24.01,-1.00,-1.0,2439
4237,2139237,16572,-1256,2008,16740.39,24.06,-1.00,-1.0,2361
4242,2139242,16404,844,592,16436.36,24.06,-1.00,-1.0,2446
4244,2139244,17612,592,804,17640.28,24.06,-1.00,-1.0,2367
4247,2139247,16688,-968,1948,16829.17,24.01,-1.00,-1.0,2454
4250,2139250,16272,-2200,-956,16447.86,24.06,-1.00,-1.0,2371
4253,2139253,18748,944,2716,18967.22,24.01,-1.00,-1.0,2446
4255,2139255,15888,340,1036,15925.37,24.06,-1.00,-1.0,2371
4258,2139258,16680,-168,1784,16775.97,24.11,-1.00,-1.0,2363
4261,2139261,19252,-1208,-48,19289.92,24.01,-1.00,-1.0,2430
4263,2139263,16096,-392,2264,16259.17,24.01,-1.00,-1.0,2371
4268,2139268,15792,896,272,15819.74,24.11,-1.00,-1.0,2453
4271,2139271,18280,-40,180,18280.93,24.06,-1.00,-1.0,2372
4274,2139274,15720,-1760,1512,15890.32,24.01,-1.00,-1.0,2427
4277,2139277,17656,-1964,1928,17869.21,24.06,-1.00,-1.0,2365
4279,2139279,16944,180,1288,16993.84,24.11,-1.00,-1.0,2449
4282,2139282,16384,1028,368,16420.34,24.06,-1.00,-1.0,2372
4285,2139285,17288,384,1960,17402.99,24.01,-1.00,-1.0,2439
4288,2139288,16696,-1656,616,16789.23,23.97,-1.00,-1.0,2364
4292,2139292,17996,-808,-132,18014.61,23.97,-1.00,-1.0,2442
4295,2139295,15668,996,-444,15705.90,24.15,-1.00,-1.0,2367
4298,2139298,18956,-52,944,18979.56,23.97,-1.00,-1.0,2440
4301,2139301,14616,-1864,1444,14804.97,24.06,-1.00,-1.0,2371
4303,2139303,18468,-1764,1196,18590.57,24.01,-1.00,-1.0,2364
4306,2139306,16440,440,1204,16489.90,24.01,-1.00,-1.0,2451
4309,2139309,17132,892,344,17158.65,24.01,-1.00,-1.0,2373
4312,2139312,17836,-4,4,17836.00,24.01,-1.00,-1.0,2446
4314,2139314,16320,-1496,780,16406.97,24.01,-1.00,-1.0,2371
4319,2139319,17368,-856,648,17401.15,24.11,-1.00,-1.0,2452
4322,2139322,15932,340,-152,15936.35,24.01,-1.00,-1.0,2372
4325,2139325,18160,-28,72,18160.16,24.01,-1.00,-1.0,2429
4328,2139328,16032,-1288,-4,16083.66,24.11,-1.00,-1.0,2364
4330,2139330,18628,-1400,1460,18737.50,24.11,-1.00,-1.0,2450
4333,2139333,15844,-284,684,15861.30,24.01,-1.00,-1.0,2372
4336,2139336,16136,888,872,16183.92,24.01,-1.00,-1.0,2361
4338,2139338,17676,-252,-968,17704.28,24.06,-1.00,-1.0,2437
4341,2139341,16660,-1920,52,16770.35,24.06,-1.00,-1.0,2367
4346,2139346,16180,-372,1740,16277.54,24.06,-1.00,-1.0,2450
4349,2139349,16976,-112,-836,16996.94,24.11,-1.00,-1.0,2379
4352,2139352,18064,-152,488,18071.23,24.01,-1.00,-1.0,2441
4355,2139355,15544,-1252,556,15604.25,24.01,-1.00,-1.0,2371
4357,2139357,17736,-944,1252,17805.18,24.06,-1.00,-1.0,2440
4360,2139360,16660,-672,352,16677.26,24.01,-1.00,-1.0,2379
4363,2139363,16896,-208,1260,16944.19,24.01,-1.00,-1.0,2437
4366,2139366,17340,-756,-212,17357.77,24.01,-1.00,-1.0,2376
4370,2139370,18420,-1272,-668,18475.95,24.06,-1.00,-1.0,2430
4373,2139373,16504,-420,1612,16587.86,23.97,-1.00,-1.0,2371
4376,2139376,17652,-424,820,17676.12,23.97,-1.00,-1.0,2442
4379,2139379,16760,-176,848,16782.36,23.97,-1.00,-1.0,2365
4381,2139381,16872,-524,-456,16886.29,24.06,-1.00,-1.0,2360
4384,2139384,18392,-8,644,18403.27,24.11,-1.00,-1.0,2436
4387,2139387,16288,-600,1060,16333.48,24.06,-1.00,-1.0,2365
4389,2139389,16536,-1180,1180,16619.99,24.11,-1.00,-1.0,2437
4392,2139392,17528,-1516,-612,17604.08,24.15,-1.00,-1.0,2363
4397,2139397,18792,-364,1016,18822.96,24.01,-1.00,-1.0,2441
4400,2139400,14628,-880,844,14678.73,24.15,-1.00,-1.0,2353
4403,2139403,18512,-1640,-1576,18651.21,24.01,-1.00,-1.0,2438
4405,2139405,17024,1104,2296,17213.57,24.06,-1.00,-1.0,2364
4408,2139408,16580,12,672,16593.62,24.01,-1.00,-1.0,2424
4411,2139411,16988,-1024,1064,17052.06,23.97,-1.00,-1.0,2365
4414,2139414,16956,-796,1748,17064.44,24.06,-1.00,-1.0,2436
4416,2139416,17464,-1012,928,17517.89,24.01,-1.00,-1.0,2363
4421,2139421,16240,388,912,16270.21,24.06,-1.00,-1.0,2442
4424,2139424,17688,-132,1380,17742.24,24.06,-1.00,-1.0,2368
4427,2139427,16364,-568,2124,16511.04,24.11,-1.00,-1.0,2361
4429,2139429,18592,-1176,644,18640.28,24.01,-1.00,-1.0,2441
4432,2139432,15868,176,456,15875.53,24.11,-1.00,-1.0,2365
4435,2139435,18156,1052,724,18200.86,24.11,-1.00,-1.0,2436
4438,2139438,16492,-1640,-1232,16619.07,24.01,-1.00,-1.0,2364
4441,2139441,18888,-1964,1016,19016.99,24.06,-1.00,-1.0,2437
4443,2139443,16632,-1308,2072,16811.53,24.01,-1.00,-1.0,2365
4448,2139448,18252,1024,-236,18282.23,24.01,-1.00,-1.0,2442
4451,2139451,17064,36,2404,17232.54,24.11,-1.00,-1.0,2364
4454,2139454,15932,-2580,1400,16200.16,24.11,-1.00,-1.0,2441
4457,2139457,16712,-64,460,16718.45,24.11,-1.00,-1.0,2365
4459,2139459,17840,1400,-720,17909.33,24.01,-1.00,-1.0,2437
4462,2139462,17276,744,1636,17369.23,24.11,-1.00,-1.0,2364
4465,2139465,16416,-2196,804,16581.73,24.01,-1.00,-1.0,2437
4468,2139468,17392,-856,1964,17523.46,23.97,-1.00,-1.0,2365
4470,2139470,16816,-212,-644,16829.66,24.06,-1.00,-1.0,2360
4475,2139475,18084,-1192,-1196,18162.66,24.11,-1.00,-1.0,2441
4478,2139478,16592,-640,1452,16667.71,24.11,-1.00,-1.0,2365
4481,2139481,17812,-840,224,17833.20,24.11,-1.00,-1.0,2439
4484,2139484,16840,476,660,16859.65,24.01,-1.00,-1.0,2364
4486,2139486,17504,0,884,17526.31,24.01,-1.00,-1.0,2438
4489,2139489,15752,-716,1440,15833.88,24.01,-1.00,-1.0,2365
4492,2139492,18000,-1892,-292,18101.52,24.11,-1.00,-1.0,2436
4495,2139495,15964,-296,1888,16077.98,24.01,-1.00,-1.0,2363
4500,2139500,15816,248,1236,15866.16,24.11,-1.00,-1.0,2445
4502,2139502,17616,-284,604,17628.64,23.97,-1.00,-1.0,2375
4505,2139505,16816,192,232,16818.70,24.11,-1.00,-1.0,2448
4508,2139508,18204,12,1820,18294.76,24.06,-1.00,-1.0,2369
4511,2139511,16388,-888,1508,16481.18,24.01,-1.00,-1.0,2447
4513,2139513,16488,-764,1068,16540.21,24.01,-1.00,-1.0,2374
4516,2139516,17428,316,1444,17490.57,24.01,-1.00,-1.0,2362
4519,2139519,16800,48,672,16813.50,24.01,-1.00,-1.0,2432
4522,2139522,17104,-980,632,17143.71,24.06,-1.00,-1.0,2369
4526,2139526,15404,-488,516,15420.36,23.97,-1.00,-1.0,2442
4529,2139529,18412,564,700,18433.93,24.06,-1.00,-1.0,2367
4532,2139532,15968,184,944,15996.94,24.06,-1.00,-1.0,2439
4535,2139535,17296,-800,1208,17356.58,23.92,-1.00,-1.0,2372
4538,2139538,17540,-2152,-256,17673.38,24.06,-1.00,-1.0,2438
4540,2139540,15160,-148,2504,15366.12,24.15,-1.00,-1.0,2365
4543,2139543,17696,-40,-96,17696.30,23.97,-1.00,-1.0,2435
4546,2139546,15944,44,-240,15945.87,24.01,-1.00,-1.0,2364
4549,2139549,17432,-1356,844,17505.02,24.01,-1.00,-1.0,2361
4554,2139554,17352,-384,1168,17395.50,24.06,-1.00,-1.0,2443
4556,2139556,17816,880,1328,17887.09,23.97,-1.00,-1.0,2367
4559,2139559,15832,672,404,15851.40,24.11,-1.00,-1.0,2448
4562,2139562,17472,-1024,1480,17564.45,23.97,-1.00,-1.0,2371
4565,2139565,16540,-2604,-420,16748.99,24.11,-1.00,-1.0,2438
4567,2139567,16820,48,2520,17007.79,24.15,-1.00,-1.0,2367
4570,2139570,17088,8,-768,17105.25,24.01,-1.00,-1.0,2436
4573,2139573,16424,476,-88,16431.13,24.06,-1.00,-1.0,2370
4578,2139578,15920,-2392,-48,16098.77,24.01,-1.00,-1.0,2442
4580,2139580,18020,-604,2952,18270.18,24.06,-1.00,-1.0,2365
4583,2139583,16184,628,1628,16277.80,24.01,-1.00,-1.0,2439
4586,2139586,16264,412,-276,16271.56,23.97,-1.00,-1.0,2372
4589,2139589,17532,-904,-164,17556.06,24.01,-1.00,-1.0,2438
4591,2139591,17104,-1112,2376,17304.01,24.06,-1.00,-1.0,2365
4594,2139594,16048,-2084,932,16209.56,24.11,-1.00,-1.0,2368
4597,2139597,17472,-76,-336,17475.40,24.15,-1.00,-1.0,2435
4600,2139600,16156,144,-1592,16234.89,24.01,-1.00,-1.0,2365
4604,2139604,16200,-1940,1192,16359.23,24.06,-1.00,-1.0,2441
4607,2139607,15980,-1436,1660,16130.04,23.97,-1.00,-1.0,2364
4610,2139610,18160,48,700,18173.55,24.06,-1.00,-1.0,2441
4613,2139613,16068,984,636,16110.66,24.11,-1.00,-1.0,2365
4615,2139615,17532,-824,0,17551.35,24.06,-1.00,-1.0,2437
4618,2139618,16284,-1100,1260,16369.67,23.97,-1.00,-1.0,2367
4621,2139621,18104,-1512,696,18180.36,24.06,-1.00,-1.0,2437
4624,2139624,16208,344,1016,16243.46,24.06,-1.00,-1.0,2365
4629,2139629,16600,-404,-364,16608.90,24.11,-1.00,-1.0,2444
4631,2139631,17996,-628,1940,18111.16,24.06,-1.00,-1.0,2371
4634,2139634,15788,-1000,1896,15932.85,23.97,-1.00,-1.0,2359
4637,2139637,17948,12,1140,17984.17,23.97,-1.00,-1.0,2446
4639,2139639,16044,-332,-1128,16087.03,24.06,-1.00,-1.0,2365
4642,2139642,16776,792,1980,16911.00,24.06,-1.00,-1.0,2437
4645,2139645,16632,-768,2192,16793.39,24.06,-1.00,-1.0,2366
4648,2139648,16588,-664,2012,16722.76,24.11,-1.00,-1.0,2441
4651,2139651,16784,-1236,-508,16837.11,24.06,-1.00,-1.0,2366
4656,2139656,18028,176,1668,18105.86,24.06,-1.00,-1.0,2435
4658,2139658,15476,-1304,0,15530.84,24.06,-1.00,-1.0,2371
4661,2139661,17380,-252,1120,17417.87,24.06,-1.00,-1.0,2441
4664,2139664,17980,-56,1340,18029.95,24.06,-1.00,-1.0,2366
4667,2139667,15644,-352,324,15651.31,23.97,-1.00,-1.0,2429
4669,2139669,17800,-60,1208,17841.04,24.06,-1.00,-1.0,2370
4672,2139672,17620,-820,88,17639.29,24.06,-1.00,-1.0,2437
4675,2139675,16308,-672,1340,16376.75,23.97,-1.00,-1.0,2366
4678,2139678,17956,-312,1520,18022.92,24.11,-1.00,-1.0,2360
4683,2139683,18380,68,464,18385.98,24.11,-1.00,-1.0,2441
4685,2139685,16348,464,1008,16385.62,24.06,-1.00,-1.0,2367
4688,2139688,16756,-632,724,16783.54,24.01,-1.00,-1.0,2441
4691,2139691,17120,-844,508,17148.32,24.06,-1.00,-1.0,2365
4694,2139694,16060,-648,604,16084.41,24.01,-1.00,-1.0,2434
4696,2139696,18236,220,1076,18269.04,23.97,-1.00,-1.0,2367
4699,2139699,16884,-720,-4,16899.35,24.11,-1.00,-1.0,2438
4702,2139702,16632,-432,1104,16674.20,24.06,-1.00,-1.0,2367
4707,2139707,15968,-1100,-300,16008.65,24.06,-1.00,-1.0,2450
4710,2139710,18612,-420,1016,18644.44,24.11,-1.00,-1.0,2373
4712,2139712,15248,-36,1736,15346.55,24.06,-1.00,-1.0,2451
4715,2139715,16372,-96,-264,16374.41,23.97,-1.00,-1.0,2380
4718,2139718,17840,148,580,17850.04,24.01,-1.00,-1.0,2359
4720,2139720,16288,-1252,1384,16394.57,24.11,-1.00,-1.0,2438
4723,2139723,19012,-1992,328,19118.88,24.11,-1.00,-1.0,2365
4726,2139726,15916,56,964,15945.27,23.92,-1.00,-1.0,2424
4729,2139729,17900,1052,204,17932.05,24.06,-1.00,-1.0,2366
4734,2139734,16572,-1676,2108,16789.40,24.01,-1.00,-1.0,2449
4736,2139736,17376,-720,2008,17506.45,24.01,-1.00,-1.0,2364
4739,2139739,16256,1176,1400,16358.50,23.97,-1.00,-1.0,2441
4742,2139742,16288,516,-1872,16403.34,24.01,-1.00,-1.0,2364
4745,2139745,18540,64,1688,18616.79,24.06,-1.00,-1.0,2445
4747,2139747,16096,-2276,1424,16318.37,24.11,-1.00,-1.0,2365
4750,2139750,17716,-880,1412,17793.95,24.06,-1.00,-1.0,2438
4753,2139753,17376,348,268,17381.55,24.01,-1.00,-1.0,2364
4758,2139758,18252,-1196,-356,18294.61,24.01,-1.00,-1.0,2442
4761,2139761,15796,-1504,1392,15928.38,24.11,-1.00,-1.0,2368
4763,2139763,17584,-716,1540,17665.82,24.11,-1.00,-1.0,2347
4766,2139766,16776,696,484,16797.41,24.06,-1.00,-1.0,2441
4769,2139769,16500,288,508,16510.33,24.01,-1.00,-1.0,2365
4771,2139771,16936,-1228,516,16988.30,24.01,-1.00,-1.0,2424
4774,2139774,17816,-1012,2224,17982.78,24.01,-1.00,-1.0,2364
4777,2139777,15956,-1048,1204,16035.64,24.11,-1.00,-1.0,2438
4780,2139780,18036,-180,676,18049.56,23.97,-1.00,-1.0,2373
4785,2139785,17208,412,2232,17357.04,24.01,-1.00,-1.0,2444
4787,2139787,16312,-956,1096,16376.71,24.01,-1.00,-1.0,2371
4790,2139790,15904,-1056,628,15951.39,24.11,-1.00,-1.0,2440
4793,2139793,18064,-500,564,18079.72,24.01,-1.00,-1.0,2365
4796,2139796,14920,220,-212,14923.13,23.92,-1.00,-1.0,2445
4798,2139798,19436,-332,292,19441.03,24.01,-1.00,-1.0,2372
4801,2139801,15800,-1220,1124,15886.84,24.01,-1.00,-1.0,2437
4804,2139804,17204,-1564,1116,17310.96,24.01,-1.00,-1.0,2366
4807,2139807,17496,-352,308,17502.25,24.11,-1.00,-1.0,2361
4812,2139812,17364,120,-88,17364.64,24.01,-1.00,-1.0,2444
4814,2139814,17128,-1008,1016,17187.69,24.11,-1.00,-1.0,2373
4817,2139817,16180,-1408,1104,16278.63,24.11,-1.00,-1.0,2447
4820,2139820,17668,-340,1512,17735.84,24.01,-1.00,-1.0,2368
4823,2139823,16096,260,484,16105.37,24.01,-1.00,-1.0,2447
4825,2139825,18244,-316,1340,18295.87,24.01,-1.00,-1.0,2373
4828,2139828,16444,-1656,-176,16528.11,24.01,-1.00,-1.0,2444
4831,2139831,17244,-984,656,17284.51,24.01,-1.00,-1.0,2367
4836,2139836,16048,248,868,16073.37,24.01,-1.00,-1.0,2448
4839,2139839,17780,-964,144,17806.70,24.01,-1.00,-1.0,2365
4841,2139841,16236,-708,376,16255.78,23.92,-1.00,-1.0,2454
4844,2139844,17436,-308,936,17463.82,24.01,-1.00,-1.0,2371
4847,2139847,16636,-976,-248,16666.45,24.01,-1.00,-1.0,2360
4849,2139849,18124,-836,-52,18143.35,24.01,-1.00,-1.0,2438
4852,2139852,17052,-484,1272,17106.22,24.01,-1.00,-1.0,2367
4855,2139855,17264,-884,152,17287.29,23.97,-1.00,-1.0,2436
4858,2139858,16944,-552,-380,16957.25,24.06,-1.00,-1.0,2367
4863,2139863,16712,-1048,492,16752.05,24.11,-1.00,-1.0,2433
4866,2139866,17232,-748,2004,17364.25,24.11,-1.00,-1.0,2373
4868,2139868,16544,-200,884,16568.81,24.11,-1.00,-1.0,2449
4871,2139871,16132,24,-136,16132.59,24.11,-1.00,-1.0,2380
4874,2139874,17768,-460,432,17779.20,24.06,-1.00,-1.0,2439
4877,2139877,15932,-736,1692,16038.49,24.11,-1.00,-1.0,2371
4879,2139879,17724,-1608,-516,17804.27,24.01,-1.00,-1.0,2445
4882,2139882,16556,300,1016,16589.86,24.01,-1.00,-1.0,2381
4887,2139887,16732,-456,-600,16748.96,24.01,-1.00,-1.0,2442
4890,2139890,17568,-772,1952,17692.96,24.01,-1.00,-1.0,2373
4892,2139892,15956,-1084,920,16019.22,24.11,-1.00,-1.0,2372
4895,2139895,17920,116,1300,17967.47,24.06,-1.00,-1.0,2448
4898,2139898,16920,-416,-204,16926.34,24.01,-1.00,-1.0,2368
4901,2139901,17092,-232,2356,17255.17,24.06,-1.00,-1.0,2452
4903,2139903,16296,-1544,244,16370.80,24.01,-1.00,-1.0,2373
4906,2139906,17192,4,356,17195.69,23.97,-1.00,-1.0,2443
4909,2139909,17824,316,-332,17829.89,24.06,-1.00,-1.0,2365
4914,2139914,17300,-1324,1184,17390.94,24.06,-1.00,-1.0,2444
4917,2139917,16224,-1268,732,16289.93,24.06,-1.00,-1.0,2366
4919,2139919,17932,-768,-780,17965.38,24.06,-1.00,-1.0,2441
4922,2139922,16388,-84,1324,16441.61,24.06,-1.00,-1.0,2368
4925,2139925,17940,-1524,460,18010.49,24.15,-1.00,-1.0,2437
4928,2139928,16320,-1356,-636,16388.58,23.97,-1.00,-1.0,2366
4930,2139930,18256,608,908,18288.68,24.06,-1.00,-1.0,2438
4933,2139933,15840,1020,1144,15913.98,24.06,-1.00,-1.0,2368
4936,2139936,16068,-692,580,16093.35,24.01,-1.00,-1.0,2360
4941,2139941,15312,-908,940,15367.67,24.15,-1.00,-1.0,2441
4944,2139944,18452,-88,616,18462.49,24.06,-1.00,-1.0,2365
4946,2139946,16208,-120,1292,16259.86,24.11,-1.00,-1.0,2442
4949,2139949,16904,-880,2044,17049.86,24.06,-1.00,-1.0,2364
4952,2139952,17620,-1608,-636,17704.65,24.01,-1.00,-1.0,2437
4955,2139955,16984,500,-20,16991.37,23.97,-1.00,-1.0,2366
4957,2139957,17300,96,-432,17305.66,24.11,-1.00,-1.0,2437
4960,2139960,17052,-1660,24,17132.63,24.06,-1.00,-1.0,2367
4965,2139965,17072,-276,1876,17176.98,23.97,-1.00,-1.0,2456
4968,2139968,16840,-140,76,16840.75,24.15,-1.00,-1.0,2371
4971,2139971,17960,180,1644,18035.98,24.15,-1.00,-1.0,2450
4973,2139973,15764,-1276,752,15833.43,24.01,-1.00,-1.0,2370
4976,2139976,16412,-576,128,16422.60,24.06,-1.00,-1.0,2361
4979,2139979,17968,660,728,17994.85,24.11,-1.00,-1.0,2430
4981,2139981,16400,16,1496,16468.10,24.15,-1.00,-1.0,2372
4984,2139984,17080,-2204,-324,17224.66,24.11,-1.00,-1.0,2437
4987,2139987,16740,-580,512,16757.87,23.97,-1.00,-1.0,2364
4993,2139993,16392,-268,116,16394.60,24.11,-1.00,-1.0,2453
4995,2139995,18288,-1084,872,18340.84,24.06,-1.00,-1.0,2374
4998,2139998,16620,-624,1828,16731.87,24.11,-1.00,-1.0,2442
5001,2140001,17428,-892,12,17450.82,24.01,-1.00,-1.0,2365
5004,2140004,16416,584,-384,16430.87,24.11,-1.00,-1.0,2436
5006,2140006,17512,304,684,17527.99,24.01,-1.00,-1.0,2367
5009,2140009,16976,-1916,644,17095.92,23.92,-1.00,-1.0,2439
5012,2140012,16972,-1712,2296,17211.95,24.11,-1.00,-1.0,2365
5014,2140014,16340,-572,592,16360.72,24.01,-1.00,-1.0,2360
5019,2140019,17580,-84,-332,17583.34,24.01,-1.00,-1.0,2445
5022,2140022,17212,-1652,1012,17320.69,24.01,-1.00,-1.0,2364
5025,2140025,17796,-2184,1640,18004.36,24.06,-1.00,-1.0,2446
5027,2140027,16632,532,1280,16689.66,24.11,-1.00,-1.0,2364
5030,2140030,16604,2460,1172,16826.11,24.11,-1.00,-1.0,2437
5033,2140033,16972,476,-1736,17067.19,24.11,-1.00,-1.0,2365
5036,2140036,18064,-1344,2328,18262.91,24.06,-1.00,-1.0,2443
5038,2140038,16132,-1892,1680,16329.22,24.11,-1.00,-1.0,2365
5043,2140043,17188,736,-564,17212.99,24.01,-1.00,-1.0,2443
5046,2140046,16888,-72,1696,16973.10,24.11,-1.00,-1.0,2365
5049,2140049,18380,-2680,-116,18574.72,24.11,-1.00,-1.0,2438
5052,2140052,16416,-1036,1552,16521.71,24.11,-1.00,-1.0,2364
5054,2140054,17612,1156,304,17652.52,24.11,-1.00,-1.0,2437
5057,2140057,16240,1272,500,16297.41,24.11,-1.00,-1.0,2366
5060,2140060,17320,-384,672,17337.29,24.01,-1.00,-1.0,2360
5062,2140062,16120,-1936,652,16248.93,24.06,-1.00,-1.0,2436
5065,2140065,18492,-932,1404,18568.63,24.11,-1.00,-1.0,2366
5070,2140070,17548,100,296,17550.78,24.01,-1.00,-1.0,2442
5073,2140073,17680,-128,1048,17711.50,24.11,-1.00,-1.0,2367
5076,2140076,16024,-792,1388,16103.49,24.01,-1.00,-1.0,2432
5078,2140078,17868,-1196,-348,17911.36,24.01,-1.00,-1.0,2373
5081,2140081,16180,-148,-628,16192.86,24.01,-1.00,-1.0,2437
5084,2140084,18852,904,1460,18930.05,24.01,-1.00,-1.0,2364
5087,2140087,15556,-528,580,15575.76,24.01,-1.00,-1.0,2446
5089,2140089,17896,-320,1444,17957.01,24.11,-1.00,-1.0,2373
5094,2140094,16968,-1168,848,17029.28,24.11,-1.00,-1.0,2453
5097,2140097,17580,-600,-44,17590.29,24.01,-1.00,-1.0,2378
5100,2140100,16240,228,1032,16274.35,24.11,-1.00,-1.0,2440
5103,2140103,17268,-840,-636,17300.11,24.11,-1.00,-1.0,2371
5105,2140105,17532,-432,2000,17651.00,24.11,-1.00,-1.0,2361
5108,2140108,16556,-1400,808,16634.72,24.15,-1.00,-1.0,2435
5111,2140111,16632,-660,-472,16651.78,24.01,-1.00,-1.0,2364
5113,2140113,17776,632,-360,17790.88,24.06,-1.00,-1.0,2436
5116,2140116,16948,-148,980,16976.96,24.06,-1.00,-1.0,2412
5121,2140121,15596,-676,1716,15704.68,24.11,-1.00,-1.0,2466
5124,2140124,18488,796,1176,18542.46,24.01,-1.00,-1.0,2378
5127,2140127,16996,256,-584,17007.96,24.11,-1.00,-1.0,2438
5130,2140130,17264,-84,2112,17392.91,23.92,-1.00,-1.0,2369
5132,2140132,16836,-764,2216,16998.39,24.01,-1.00,-1.0,2443
5135,2140135,16852,-648,1236,16909.69,24.01,-1.00,-1.0,2375
5138,2140138,17408,140,44,17408.62,24.01,-1.00,-1.0,2421
5140,2140140,16328,532,704,16351.83,24.01,-1.00,-1.0,2366
5143,2140143,17660,-1972,-548,17778.21,24.06,-1.00,-1.0,2359
5148,2140148,17228,-492,956,17261.52,24.01,-1.00,-1.0,2442
5151,2140151,16664,972,104,16692.65,24.06,-1.00,-1.0,2354
5154,2140154,17020,924,1080,17079.24,24.06,-1.00,-1.0,2441
5156,2140156,16832,-1160,1008,16902.01,24.01,-1.00,-1.0,2374
5159,2140159,17908,-1880,1948,18111.48,23.97,-1.00,-1.0,2434
5162,2140162,16148,-1216,296,16196.42,24.01,-1.00,-1.0,2368
5165,2140165,16788,1328,4,16840.44,24.06,-1.00,-1.0,2440
5167,2140167,16680,-240,568,16691.39,24.06,-1.00,-1.0,2377
5172,2140172,18432,-2472,-752,18612.22,24.06,-1.00,-1.0,2452
5175,2140175,16232,500,-168,16240.57,24.11,-1.00,-1.0,2373
5178,2140178,17948,2236,880,18108.14,23.97,-1.00,-1.0,2422
5180,2140180,16208,-720,-1044,16257.54,24.01,-1.00,-1.0,2367
5183,2140183,18444,-2316,1660,18662.81,23.97,-1.00,-1.0,2444
5186,2140186,16508,-884,1668,16615.59,24.01,-1.00,-1.0,2368
5189,2140189,16176,440,516,16190.21,24.06,-1.00,-1.0,2361
5191,2140191,16972,732,-556,16996.88,23.97,-1.00,-1.0,2435
5194,2140194,17088,-380,2756,17312.99,24.01,-1.00,-1.0,2418
5199,2140199,17124,-1272,256,17173.09,23.92,-1.00,-1.0,2452
5202,2140202,17884,1352,-340,17938.25,24.15,-1.00,-1.0,2369
5205,2140205,16428,1112,896,16489.95,24.11,-1.00,-1.0,2441
5207,2140207,17028,-808,1444,17108.21,24.15,-1.00,-1.0,2367
5210,2140210,16392,-1304,1756,16537.28,24.11,-1.00,-1.0,2434
5213,2140213,17392,-372,676,17409.11,23.97,-1.00,-1.0,2367
5216,2140216,16328,-156,276,16331.08,24.01,-1.00,-1.0,2432
5218,2140218,17776,-1228,248,17820.09,23.97,-1.00,-1.0,2370
5223,2140223,17620,96,1292,17667.57,24.06,-1.00,-1.0,2449
5226,2140226,16172,-348,-244,16177.58,24.06,-1.00,-1.0,2382
5229,2140229,17924,-8,1060,17955.32,24.06,-1.00,-1.0,2437
5232,2140232,18472,-612,868,18502.51,24.06,-1.00,-1.0,2374
5234,2140234,15816,-1112,-648,15868.28,24.06,-1.00,-1.0,2360
5237,2140237,18644,820,1128,18696.08,24.11,-1.00,-1.0,2433
5240,2140240,16024,-668,-268,16040.16,23.97,-1.00,-1.0,2368
5242,2140242,17936,-1704,724,18031.30,24.01,-1.00,-1.0,2432
5245,2140245,17160,-1052,748,17208.48,24.06,-1.00,-1.0,2370
5250,2140250,17324,-384,-1508,17393.75,24.01,-1.00,-1.0,2443
5253,2140253,17264,-312,696,17280.84,24.01,-1.00,-1.0,2367
5256,2140256,17436,-2092,1092,17594.97,23.97,-1.00,-1.0,2443
5258,2140258,16392,-1648,676,16488.50,24.01,-1.00,-1.0,2366
5261,2140261,17740,560,-176,17749.71,24.06,-1.00,-1.0,2434
5264,2140264,17256,864,840,17298.02,24.11,-1.00,-1.0,2368
5267,2140267,17448,-688,1564,17531.46,24.11,-1.00,-1.0,2440
5269,2140269,16112,-1148,2420,16333.12,24.01,-1.00,-1.0,2366
5274,2140274,17152,172,-464,17159.14,24.01,-1.00,-1.0,2445
5277,2140277,17116,360,1160,17159.04,24.06,-1.00,-1.0,2355
5280,2140280,17264,-1800,-756,17374.04,24.01,-1.00,-1.0,2360
5282,2140282,17496,-780,1816,17607.28,24.01,-1.00,-1.0,2419
5285,2140285,16884,396,748,16905.20,24.11,-1.00,-1.0,2368
5288,2140288,16464,-8,-28,16464.03,24.01,-1.00,-1.0,2433
5291,2140291,17856,32,2156,17985.72,24.11,-1.00,-1.0,2367
5293,2140293,16324,-1112,1964,16479.29,24.01,-1.00,-1.0,2434
5296,2140296,17628,-908,1652,17728.51,24.15,-1.00,-1.0,2376
5301,2140301,16464,1060,540,16506.92,24.06,-1.00,-1.0,2441
5304,2140304,16788,-1136,808,16845.78,24.06,-1.00,-1.0,2367
5307,2140307,17196,-1592,1356,17322.69,24.06,-1.00,-1.0,2442
5309,2140309,17612,-956,444,17643.52,24.06,-1.00,-1.0,2367
5312,2140312,16288,468,220,16296.21,24.06,-1.00,-1.0,2447
5315,2140315,17724,-28,-264,17725.99,24.06,-1.00,-1.0,2367
5318,2140318,16784,-1036,1400,16874.12,24.01,-1.00,-1.0,2361
5320,2140320,17384,-1448,2032,17562.15,24.01,-1.00,-1.0,2434
5323,2140323,16468,1016,1564,16573.27,24.01,-1.00,-1.0,2375
5328,2140328,16532,-248,-168,16534.71,24.11,-1.00,-1.0,2451
5331,2140331,17868,-664,3000,18130.26,24.06,-1.00,-1.0,2373
5334,2140334,16516,-1872,1044,16654.51,24.01,-1.00,-1.0,2438
5337,2140337,16380,-752,-476,16404.16,24.06,-1.00,-1.0,2372
5339,2140339,17880,1048,416,17915.52,24.01,-1.00,-1.0,2443
5342,2140342,16616,-1276,-552,16674.06,24.01,-1.00,-1.0,2373
5345,2140345,17972,-2240,-400,18115.47,24.01,-1.00,-1.0,2422
5347,2140347,16016,-556,2460,16213.36,24.06,-1.00,-1.0,2368
5352,2140352,17880,-124,-1556,17948.01,24.06,-1.00,-1.0,2441
5355,2140355,17604,-476,708,17624.66,24.06,-1.00,-1.0,2353
5358,2140358,16576,-1740,736,16683.32,24.06,-1.00,-1.0,2434
5361,2140361,16792,180,900,16817.06,24.06,-1.00,-1.0,2368
5363,2140363,17064,336,148,17067.95,24.06,-1.00,-1.0,2419
5366,2140366,17456,-12,1876,17556.52,24.01,-1.00,-1.0,2366
5369,2140369,17020,-1192,2024,17181.32,24.06,-1.00,-1.0,2366
5372,2140372,15868,-1172,228,15912.86,24.11,-1.00,-1.0,2435
5374,2140374,17628,712,416,17647.28,24.06,-1.00,-1.0,2367
5379,2140379,18088,-556,852,18116.59,24.11,-1.00,-1.0,2449
5382,2140382,16252,-1100,2632,16500.45,24.11,-1.00,-1.0,2369
5385,2140385,16564,-656,552,16586.17,24.01,-1.00,-1.0,2435
5388,2140388,18056,564,276,18066.91,24.01,-1.00,-1.0,2377
5390,2140390,15960,188,2364,16135.22,23.97,-1.00,-1.0,2435
5393,2140393,17220,-1568,1424,17349.78,24.11,-1.00,-1.0,2382
5396,2140396,16652,-1576,-1136,16764.95,24.11,-1.00,-1.0,2434
5399,2140399,17416,1324,2200,17604.26,24.01,-1.00,-1.0,2376
5403,2140403,17060,36,232,17061.62,24.06,-1.00,-1.0,2441
5406,2140406,17860,-1968,708,17982.04,24.11,-1.00,-1.0,2354
5409,2140409,15696,-1736,980,15822.09,24.06,-1.00,-1.0,2360
5411,2140411,18596,60,880,18616.91,24.06,-1.00,-1.0,2422
5414,2140414,15980,760,316,16001.18,24.06,-1.00,-1.0,2368
5417,2140417,18208,-568,1104,18250.28,24.06,-1.00,-1.0,2431
5420,2140420,15536,-1416,1372,15660.61,24.15,-1.00,-1.0,2367
5422,2140422,16756,-740,1124,16809.95,24.11,-1.00,-1.0,2435
5425,2140425,17200,148,60,17200.74,24.06,-1.00,-1.0,2368
5430,2140430,17932,-792,-528,17957.25,24.11,-1.00,-1.0,2442
5433,2140433,16368,-676,1168,16423.54,23.97,-1.00,-1.0,2367
5436,2140436,17600,-596,996,17638.23,24.01,-1.00,-1.0,2436
5438,2140438,16184,-584,0,16194.53,24.15,-1.00,-1.0,2368
5441,2140441,18224,-120,1772,18310.34,24.01,-1.00,-1.0,2435
5444,2140444,15824,-388,1620,15911.44,23.97,-1.00,-1.0,2367
5447,2140447,17820,-1036,856,17870.60,24.01,-1.00,-1.0,2441
5449,2140449,17460,-420,900,17488.22,24.01,-1.00,-1.0,2367
5452,2140452,16124,664,1000,16168.62,24.01,-1.00,-1.0,2360
5457,2140457,16800,-1084,-40,16834.98,24.11,-1.00,-1.0,2441
5460,2140460,17792,-356,1068,17827.58,24.06,-1.00,-1.0,2366
5463,2140463,16672,-372,1200,16719.27,24.01,-1.00,-1.0,2433
5466,2140466,17512,-912,348,17539.18,24.06,-1.00,-1.0,2368
5468,2140468,16932,-764,1524,17017.61,24.11,-1.00,-1.0,2433
5471,2140471,16724,-292,1744,16817.22,24.15,-1.00,-1.0,2367
5474,2140474,16928,136,300,16931.21,24.01,-1.00,-1.0,2432
5477,2140477,17380,-336,24,17383.26,23.97,-1.00,-1.0,2367
5482,2140482,17032,520,1964,17152.75,24.06,-1.00,-1.0,2446
5484,2140484,17924,-804,-28,17942.04,24.06,-1.00,-1.0,2377
5487,2140487,15904,-600,1048,15949.78,24.15,-1.00,-1.0,2433
5490,2140490,18664,-156,1876,18758.69,24.06,-1.00,-1.0,2371
5492,2140492,16672,-980,920,16726.10,24.15,-1.00,-1.0,2361
5495,2140495,16976,500,2584,17178.81,24.11,-1.00,-1.0,2433
5498,2140498,16220,-600,1476,16298.07,24.15,-1.00,-1.0,2369
5501,2140501,17016,-1108,-92,17052.28,24.11,-1.00,-1.0,2430
5504,2140504,17520,-1148,-280,17559.80,24.15,-1.00,-1.0,2367
5509,2140509,17120,324,628,17134.58,24.06,-1.00,-1.0,2442
5511,2140511,16324,224,848,16347.55,24.01,-1.00,-1.0,2367
5514,2140514,16652,-420,1028,16688.99,24.06,-1.00,-1.0,2433
5517,2140517,17644,-584,2500,17829.80,24.11,-1.00,-1.0,2375
5520,2140520,16800,-1452,1084,16897.44,24.06,-1.00,-1.0,2435
5522,2140522,16404,-620,-108,16416.07,24.01,-1.00,-1.0,2369
5525,2140525,17440,1080,336,17476.64,24.06,-1.00,-1.0,2433
5528,2140528,16620,-860,-536,16650.87,24.01,-1.00,-1.0,2366
5533,2140533,15532,-624,2472,15739.86,24.11,-1.00,-1.0,2442
5535,2140535,16912,-400,-756,16933.61,24.01,-1.00,-1.0,2370
5538,2140538,17056,1208,1444,17159.59,24.11,-1.00,-1.0,2359
5541,2140541,15956,-204,1364,16015.49,24.01,-1.00,-1.0,2443
5543,2140543,18796,-1716,740,18888.67,24.01,-1.00,-1.0,2367
5546,2140546,16160,-1168,2304,16365.15,24.06,-1.00,-1.0,2434
5549,2140549,17104,1132,1808,17236.51,24.01,-1.00,-1.0,2368
5552,2140552,16192,456,-856,16221.02,24.01,-1.00,-1.0,2435
5555,2140555,17936,-1372,-228,17989.84,24.15,-1.00,-1.0,2372
5560,2140560,14864,-1404,1300,14986.65,24.06,-1.00,-1.0,2449
5562,2140562,18224,676,668,18248.76,24.06,-1.00,-1.0,2371
5565,2140565,15984,1152,72,16025.62,24.01,-1.00,-1.0,2442
5568,2140568,17136,-1124,468,17179.20,24.06,-1.00,-1.0,2374
5571,2140571,17040,-2648,272,17246.67,24.01,-1.00,-1.0,2445
5573,2140573,15628,-640,1616,15724.36,24.06,-1.00,-1.0,2370
5576,2140576,17532,1032,232,17563.88,24.11,-1.00,-1.0,2443
5579,2140579,16080,-128,40,16080.56,23.97,-1.00,-1.0,2374
5582,2140582,18096,-1796,-168,18185.68,24.11,-1.00,-1.0,2359
5587,2140587,17936,-864,392,17961.08,24.11,-1.00,-1.0,2445
5589,2140589,17112,380,924,17141.14,24.01,-1.00,-1.0,2377
5592,2140592,16652,384,1836,16757.31,24.01,-1.00,-1.0,2439
5595,2140595,17168,-2160,-428,17308.64,24.06,-1.00,-1.0,2369
5598,2140598,17432,-1092,-420,17471.22,24.11,-1.00,-1.0,2447
5600,2140600,18016,508,1940,18127.27,24.11,-1.00,-1.0,2377
5603,2140603,15396,-188,-432,15403.21,24.11,-1.00,-1.0,2441
5606,2140606,18568,-396,-132,18572.69,24.11,-1.00,-1.0,2375
5611,2140611,16144,-1048,1364,16235.38,23.92,-1.00,-1.0,2445
5613,2140613,18156,-460,116,18162.20,24.01,-1.00,-1.0,2375
5616,2140616,16484,80,1004,16514.74,24.06,-1.00,-1.0,2434
5619,2140619,17232,-496,932,17264.31,24.11,-1.00,-1.0,2368
5622,2140622,16828,-1436,-220,16890.59,24.01,-1.00,-1.0,2428
5624,2140624,17352,384,2420,17524.15,24.11,-1.00,-1.0,2375
5627,2140627,16240,280,1248,16290.29,24.06,-1.00,-1.0,2360
5630,2140630,17052,-836,220,17073.90,24.06,-1.00,-1.0,2440
5633,2140633,16704,-1364,-1456,16822.72,24.11,-1.00,-1.0,2367
5638,2140638,16764,-1588,-76,16839.22,24.11,-1.00,-1.0,2444
5640,2140640,15928,-704,560,15953.38,24.11,-1.00,-1.0,2375
5643,2140643,18232,52,2080,18350.34,24.06,-1.00,-1.0,2434
5646,2140646,15980,-704,-204,15996.80,24.11,-1.00,-1.0,2369
5649,2140649,18220,-260,792,18239.06,24.01,-1.00,-1.0,2435
5651,2140651,16432,-444,832,16459.04,24.01,-1.00,-1.0,2375
5654,2140654,16956,-920,-296,16983.52,24.06,-1.00,-1.0,2434
5657,2140657,17588,-808,380,17610.65,24.11,-1.00,-1.0,2353
5662,2140662,16796,36,1032,16827.71,24.11,-1.00,-1.0,2449
5664,2140664,17400,400,1056,17436.60,24.01,-1.00,-1.0,2367
5667,2140667,15624,-272,844,15649.14,24.11,-1.00,-1.0,2367
5670,2140670,18180,-952,1544,18270.27,24.15,-1.00,-1.0,2433
5673,2140673,16996,-1744,1180,17125.94,24.11,-1.00,-1.0,2376
5675,2140675,16968,68,60,16968.24,23.97,-1.00,-1.0,2436
5678,2140678,17528,1072,-480,17567.31,24.11,-1.00,-1.0,2383
5681,2140681,16676,-520,-1048,16716.99,23.97,-1.00,-1.0,2434
5684,2140684,18972,-1924,532,19076.73,24.15,-1.00,-1.0,2374
5689,2140689,17272,-256,260,17275.85,24.06,-1.00,-1.0,2442
5691,2140691,16860,1176,260,16902.96,24.15,-1.00,-1.0,2369
5694,2140694,15684,-204,288,15687.97,24.06,-1.00,-1.0,2434
5697,2140697,18416,-3156,-964,18709.32,24.06,-1.00,-1.0,2371
5700,2140700,16404,-2188,-620,16560.89,24.06,-1.00,-1.0,2433
5702,2140702,18748,1932,724,18861.19,24.06,-1.00,-1.0,2370
5705,2140705,16372,1192,-560,16424.88,23.97,-1.00,-1.0,2433
5708,2140708,16980,-360,408,16988.71,24.06,-1.00,-1.0,2369
5711,2140711,18016,-1688,2436,18258.14,24.01,-1.00,-1.0,2367
5716,2140716,18904,252,528,18913.05,24.01,-1.00,-1.0,2448
5718,2140718,15724,1212,-116,15771.07,24.06,-1.00,-1.0,2368
5721,2140721,16644,-336,-356,16651.20,24.11,-1.00,-1.0,2434
5724,2140724,18184,-2628,312,18375.57,24.06,-1.00,-1.0,2367
5727,2140727,16880,-624,1088,16926.53,24.11,-1.00,-1.0,2442
5729,2140729,17704,792,392,17726.04,24.06,-1.00,-1.0,2370
5732,2140732,15520,508,-616,15540.53,24.01,-1.00,-1.0,2434
5735,2140735,18300,48,1260,18343.39,23.97,-1.00,-1.0,2369
5740,2140740,18244,-1852,248,18339.44,24.06,-1.00,-1.0,2430
5743,2140743,16516,-848,388,16542.31,24.11,-1.00,-1.0,2377
5745,2140745,17360,1100,1628,17470.83,24.06,-1.00,-1.0,2442
5748,2140748,18464,-680,-1420,18531.00,23.97,-1.00,-1.0,2382
5751,2140751,16748,-772,1124,16803.42,23.97,-1.00,-1.0,2359
5753,2140753,17908,52,2628,18099.88,24.01,-1.00,-1.0,2434
5756,2140756,15780,-836,-648,15815.41,24.06,-1.00,-1.0,2368
5759,2140759,18244,668,224,18257.60,24.01,-1.00,-1.0,2418
5762,2140762,16128,376,1420,16194.76,24.06,-1.00,-1.0,2374
5767,2140767,17728,-1608,652,17812.71,24.06,-1.00,-1.0,2453
5769,2140769,17212,-36,892,17235.13,24.01,-1.00,-1.0,2367
5772,2140772,16592,-312,572,16604.79,24.15,-1.00,-1.0,2440
5775,2140775,17320,-748,428,17341.43,24.01,-1.00,-1.0,2366
5778,2140778,17476,-340,1856,17577.57,24.15,-1.00,-1.0,2441
5780,2140780,15928,-108,1240,15976.56,24.01,-1.00,-1.0,2368
5783,2140783,16964,76,392,16968.70,24.06,-1.00,-1.0,2439
5786,2140786,16764,-84,-760,16781.43,24.01,-1.00,-1.0,2367
5789,2140789,18452,268,2428,18612.99,23.97,-1.00,-1.0,2362
5794,2140794,16328,-1168,848,16391.67,24.06,-1.00,-1.0,2451
5796,2140796,17524,684,1352,17589.38,24.01,-1.00,-1.0,2371
5799,2140799,16532,-696,240,16548.38,24.06,-1.00,-1.0,2448
5802,2140802,18264,-796,1624,18353.33,24.06,-1.00,-1.0,2366
5805,2140805,15244,-532,2188,15409.41,24.06,-1.00,-1.0,2441
5807,2140807,17180,-288,-8,17182.42,24.11,-1.00,-1.0,2368
5810,2140810,17032,160,-108,17033.09,24.15,-1.00,-1.0,2439
5813,2140813,17200,-476,564,17215.83,24.01,-1.00,-1.0,2366
5820,2140820,16904,-464,-384,16914.73,24.01,-1.00,-1.0,2448
5822,2140822,17288,-164,844,17309.37,24.11,-1.00,-1.0,2368
5825,2140825,17576,-1852,140,17673.86,24.15,-1.00,-1.0,2437
5828,2140828,16488,-1080,1668,16607.31,24.01,-1.00,-1.0,2366
5831,2140831,17568,444,1012,17602.72,24.06,-1.00,-1.0,2442
5833,2140833,16292,1804,440,16397.48,24.11,-1.00,-1.0,2368
5836,2140836,17184,656,1000,17225.57,24.06,-1.00,-1.0,2360
5839,2140839,17072,-2948,-88,17324.88,24.06,-1.00,-1.0,2440
5841,2140841,17120,-2000,-512,17244.03,24.01,-1.00,-1.0,2354
5846,2140846,16360,-260,-1476,16428.51,24.06,-1.00,-1.0,2443
5849,2140849,17172,368,2844,17409.81,24.06,-1.00,-1.0,2367
5852,2140852,16292,-1716,2800,16619.69,24.06,-1.00,-1.0,2440
5854,2140854,16676,-1024,-124,16707.87,23.97,-1.00,-1.0,2366
5857,2140857,17648,1292,-224,17696.65,24.06,-1.00,-1.0,2451
5860,2140860,14924,816,-220,14947.91,24.06,-1.00,-1.0,2368
5863,2140863,18620,-1700,332,18700.39,24.06,-1.00,-1.0,2439
5865,2140865,15660,-2812,-56,15910.57,24.06,-1.00,-1.0,2366
5872,2140872,15932,1144,1108,16011.40,24.01,-1.00,-1.0,2450
5875,2140875,17864,-1132,-156,17900.51,23.97,-1.00,-1.0,2374
5878,2140878,16856,-2200,-128,16999.45,24.01,-1.00,-1.0,2435
5880,2140880,18284,356,424,18292.38,24.06,-1.00,-1.0,2367
5883,2140883,17660,436,308,17668.07,24.11,-1.00,-1.0,2361
5886,2140886,16520,-644,660,16545.72,24.01,-1.00,-1.0,2435
5889,2140889,17604,-512,1684,17691.77,24.11,-1.00,-1.0,2373
5891,2140891,15452,852,2716,15712.00,24.11,-1.00,-1.0,2435
5894,2140894,18824,-768,-1620,18909.18,24.11,-1.00,-1.0,2381
5899,2140899,16944,-1280,1908,17099.06,24.11,-1.00,-1.0,2458
5902,2140902,17080,-1112,476,17122.78,24.11,-1.00,-1.0,2376
5905,2140905,17220,336,908,17247.20,24.01,-1.00,-1.0,2440
5907,2140907,16392,1028,2644,16635.66,24.01,-1.00,-1.0,2368
5910,2140910,16108,-1468,-1464,16240.87,24.11,-1.00,-1.0,2448
5913,2140913,19000,-1676,-48,19073.84,24.01,-1.00,-1.0,2374
5916,2140916,15460,-288,444,15469.06,24.01,-1.00,-1.0,2441
5918,2140918,17700,-36,652,17712.04,24.11,-1.00,-1.0,2368
5923,2140923,17748,-652,1708,17841.91,24.11,-1.00,-1.0,2443
5926,2140926,17308,-1476,1672,17451.10,24.06,-1.00,-1.0,2371
5929,2140929,16008,-416,-104,16013.74,24.11,-1.00,-1.0,2369
5931,2140931,17872,840,1096,17925.27,24.11,-1.00,-1.0,2442
5934,2140934,16688,-732,-192,16705.15,24.11,-1.00,-1.0,2375
5937,2140937,17752,-2144,-592,17890.80,24.11,-1.00,-1.0,2423
5939,2140939,17028,-472,268,17036.65,24.11,-1.00,-1.0,2367
5942,2140942,16908,1796,860,17024.86,24.11,-1.00,-1.0,2444
5945,2140945,17612,156,-492,17619.56,24.11,-1.00,-1.0,2367
5950,2140950,17068,-3160,404,17362.76,24.01,-1.00,-1.0,2440
5953,2140953,17084,-1180,-1212,17167.54,24.06,-1.00,-1.0,2367
5956,2140956,17160,1752,-336,17252.48,24.11,-1.00,-1.0,2435
5958,2140958,17096,84,1164,17135.79,24.06,-1.00,-1.0,2368
5961,2140961,18244,-2496,496,18420.63,24.11,-1.00,-1.0,2433
5964,2140964,16824,-1516,1332,16944.60,24.15,-1.00,-1.0,2366
5966,2140966,17440,1740,1800,17618.77,23.92,-1.00,-1.0,2434
5969,2140969,15800,1712,656,15906.01,24.15,-1.00,-1.0,2367
5972,2140972,16888,-244,188,16890.81,24.01,-1.00,-1.0,2362
5977,2140977,16592,-2508,128,16780.97,24.11,-1.00,-1.0,2448
5979,2140979,18480,456,-360,18489.13,24.15,-1.00,-1.0,2367
5982,2140982,16352,708,440,16373.23,24.01,-1.00,-1.0,2435
5985,2140985,15924,-792,752,15961.41,24.06,-1.00,-1.0,2367
5988,2140988,17924,-1528,1804,18079.24,24.11,-1.00,-1.0,2442
5990,2140990,15268,384,2516,15478.68,24.06,-1.00,-1.0,2367
5993,2140993,17892,700,1192,17945.32,23.92,-1.00,-1.0,2434
5996,2140996,16364,-432,-616,16381.29,24.06,-1.00,-1.0,2367
6001,2141001,17284,-1588,1760,17445.80,24.06,-1.00,-1.0,2443
6004,2141004,16052,-692,968,16096.04,24.06,-1.00,-1.0,2375
6006,2141006,17620,968,1684,17726.74,24.06,-1.00,-1.0,2432
6009,2141009,16588,196,1412,16649.14,24.06,-1.00,-1.0,2374
6012,2141012,17676,-964,32,17702.30,24.06,-1.00,-1.0,2433
6015,2141015,15892,-724,-204,15909.79,24.15,-1.00,-1.0,2372
6017,2141017,17820,-436,436,17830.66,24.06,-1.00,-1.0,2361
6020,2141020,16888,-952,700,16929.29,24.01,-1.00,-1.0,2432
6023,2141023,18048,-544,2548,18235.09,23.97,-1.00,-1.0,2367
6027,2141027,16652,100,-872,16675.12,24.11,-1.00,-1.0,2440
6030,2141030,17476,-532,352,17487.64,24.11,-1.00,-1.0,2366
6033,2141033,16284,-1616,1308,16416.18,24.11,-1.00,-1.0,2433
6036,2141036,18556,-1784,716,18655.31,24.11,-1.00,-1.0,2367
6038,2141038,16024,-112,52,16024.48,24.11,-1.00,-1.0,2433
6041,2141041,17184,2180,608,17332.39,24.11,-1.00,-1.0,2367
6044,2141044,17588,608,232,17600.04,24.01,-1.00,-1.0,2433
6047,2141047,16692,-800,4272,17248.56,24.15,-1.00,-1.0,2368
6051,2141051,15904,-1228,-1588,16030.19,24.01,-1.00,-1.0,2440
6054,2141054,18692,1988,-884,18818.20,24.06,-1.00,-1.0,2369
6057,2141057,16424,516,-44,16432.16,24.11,-1.00,-1.0,2360
6059,2141059,17840,-2132,2532,18144.48,23.97,-1.00,-1.0,2435
6062,2141062,16876,-1296,3320,17248.23,24.11,-1.00,-1.0,2367
6065,2141065,15156,-476,-776,15183.32,24.01,-1.00,-1.0,2432
6068,2141068,18740,1948,-1296,18885.49,24.01,-1.00,-1.0,2369
6070,2141070,16724,-360,160,16728.64,24.01,-1.00,-1.0,2434
6073,2141073,17532,-2988,1752,17870.89,24.11,-1.00,-1.0,2367
