timestamp_ms,global_ms,accel_x,accel_y,accel_z,accel_mag,temp_c,voltage,soc,loop_us
3,2135003,16748,-1608,428,16830.46,24.53,-1.00,-1.0,2490
9,2135009,15784,268,608,15797.98,24.58,-1.00,-1.0,2467
12,2135012,16816,220,756,16834.42,24.67,-1.00,-1.0,2361
15,2135015,17348,-872,788,17387.77,24.58,-1.00,-1.0,2369
18,2135018,16816,-1024,1060,16880.46,24.67,-1.00,-1.0,2435
20,2135020,18032,-664,792,18061.59,24.67,-1.00,-1.0,2367
23,2135023,15692,184,112,15693.48,24.62,-1.00,-1.0,2434
26,2135026,18720,-180,488,18727.22,24.58,-1.00,-1.0,2363
28,2135028,15540,-876,1800,15668.41,24.58,-1.00,-1.0,2435
31,2135031,17776,-1656,36,17853.01,24.67,-1.00,-1.0,2363
36,2135036,15376,220,592,15388.96,24.72,-1.00,-1.0,2447
39,2135039,18560,516,908,18589.36,24.72,-1.00,-1.0,2370
41,2135041,15172,-768,2352,15372.42,24.62,-1.00,-1.0,2366
44,2135044,18764,-2220,184,18895.77,24.58,-1.00,-1.0,2450
47,2135047,15132,-656,728,15163.70,24.72,-1.00,-1.0,2367
50,2135050,18972,268,-812,18991.26,24.67,-1.00,-1.0,2450
52,2135052,14760,-144,-184,14761.85,24.62,-1.00,-1.0,2361
55,2135055,16424,-624,1864,16541.21,24.67,-1.00,-1.0,2454
58,2135058,17732,-1480,1328,17843.14,24.62,-1.00,-1.0,2366
63,2135063,19276,-152,260,19278.35,24.72,-1.00,-1.0,2456
65,2135065,14384,900,1136,14456.83,24.58,-1.00,-1.0,2358
68,2135068,19688,-1560,772,19764.79,24.62,-1.00,-1.0,2442
71,2135071,15404,-1804,1164,15552.89,24.53,-1.00,-1.0,2359
74,2135074,18708,-236,152,18710.11,24.62,-1.00,-1.0,2362
76,2135076,15916,-76,-272,15918.51,24.58,-1.00,-1.0,2449
79,2135079,15144,-252,824,15168.49,24.72,-1.00,-1.0,2364
82,2135082,18088,-540,1220,18137.14,24.72,-1.00,-1.0,2447
84,2135084,15884,-1484,1304,16006.38,24.62,-1.00,-1.0,2358
90,2135090,14668,412,240,14675.75,24.67,-1.00,-1.0,2450
92,2135092,19016,688,-96,19028.68,24.67,-1.00,-1.0,2361
95,2135095,15812,-1524,1260,15935.17,24.72,-1.00,-1.0,2441
98,2135098,16868,-2324,2968,17284.08,24.58,-1.00,-1.0,2360
101,2135101,16272,-916,556,16307.24,24.67,-1.00,-1.0,2435
103,2135103,17628,1292,-400,17679.81,24.58,-1.00,-1.0,2372
106,2135106,17652,980,-192,17680.22,24.67,-1.00,-1.0,2357
109,2135109,15756,-776,32,15775.13,24.72,-1.00,-1.0,2446
111,2135111,19004,-2360,1636,19219.73,24.58,-1.00,-1.0,2360
116,2135116,19456,872,1056,19504.14,24.58,-1.00,-1.0,2456
119,2135119,16036,900,-1160,16103.07,24.58,-1.00,-1.0,2373
122,2135122,17696,112,140,17696.91,24.67,-1.00,-1.0,2441
125,2135125,16888,-1500,1956,17066.94,24.67,-1.00,-1.0,2367
127,2135127,16308,-1888,1408,16477.19,24.67,-1.00,-1.0,2449
130,2135130,20952,-248,1024,20978.47,24.67,-1.00,-1.0,2373
133,2135133,13224,948,212,13259.63,24.58,-1.00,-1.0,2442
136,2135136,20516,16,-52,20516.07,24.67,-1.00,-1.0,2363
138,2135138,15172,-828,776,15214.38,24.58,-1.00,-1.0,2364
143,2135143,19576,-1324,1372,19668.63,24.67,-1.00,-1.0,2464
146,2135146,14168,632,792,14204.19,24.77,-1.00,-1.0,2366
149,2135149,19808,-32,80,19808.19,24.58,-1.00,-1.0,2451
151,2135151,13752,-584,956,13797.55,24.58,-1.00,-1.0,2363
154,2135154,20456,-948,1584,20539.13,24.67,-1.00,-1.0,2455
157,2135157,13772,-900,1528,13885.70,24.77,-1.00,-1.0,2366
160,2135160,19828,172,456,19833.99,24.67,-1.00,-1.0,2454
162,2135162,13924,-108,440,13931.37,24.58,-1.00,-1.0,2365
167,2135167,18612,-828,1156,18666.24,24.67,-1.00,-1.0,2450
170,2135170,13348,-1172,1464,13479.09,24.62,-1.00,-1.0,2359
172,2135172,20652,-988,740,20688.86,24.58,-1.00,-1.0,2362
175,2135175,13396,-124,-388,13402.19,24.67,-1.00,-1.0,2451
178,2135178,18380,724,920,18417.25,24.67,-1.00,-1.0,2364
181,2135181,14556,-548,1072,14605.71,24.67,-1.00,-1.0,2446
183,2135183,18692,-1700,1844,18859.51,24.67,-1.00,-1.0,2358
186,2135186,15592,-612,964,15633.75,24.58,-1.00,-1.0,2449
189,2135189,13656,580,316,13671.96,24.58,-1.00,-1.0,2359
194,2135194,12624,-360,464,12637.65,24.62,-1.00,-1.0,2447
197,2135197,20432,-1468,1724,20557.09,24.62,-1.00,-1.0,2363
199,2135199,13864,-1500,980,13979.30,24.72,-1.00,-1.0,2435
202,2135202,20728,-120,228,20729.60,24.62,-1.00,-1.0,2364
205,2135205,17208,532,404,17220.96,24.62,-1.00,-1.0,2357
207,2135207,16004,216,-772,16024.06,24.58,-1.00,-1.0,2441
210,2135210,18912,-1992,-144,19017.16,24.62,-1.00,-1.0,2359
213,2135213,12388,-1908,1984,12690.12,24.58,-1.00,-1.0,2441
216,2135216,21020,-568,1796,21104.23,24.58,-1.00,-1.0,2422
221,2135221,19796,248,-888,19817.46,24.62,-1.00,-1.0,2437
224,2135224,14136,-1080,-244,14179.30,24.62,-1.00,-1.0,2367
226,2135226,19856,-1600,816,19937.07,24.62,-1.00,-1.0,2443
229,2135229,14740,-1332,668,14815.13,24.72,-1.00,-1.0,2373
232,2135232,14108,-24,548,14118.66,24.72,-1.00,-1.0,2438
235,2135235,20652,1096,600,20689.76,24.58,-1.00,-1.0,2367
237,2135237,13156,84,256,13158.76,24.53,-1.00,-1.0,2360
240,2135240,20976,-256,2728,21154.20,24.67,-1.00,-1.0,2436
243,2135243,12236,-1752,1704,12477.69,24.58,-1.00,-1.0,2364
248,2135248,16580,324,664,16596.45,24.67,-1.00,-1.0,2456
250,2135250,16128,1024,-808,16180.66,24.58,-1.00,-1.0,2360
253,2135253,18524,-652,16,18535.48,24.67,-1.00,-1.0,2438
256,2135256,11044,-1676,3660,11754.77,24.67,-1.00,-1.0,2359
259,2135259,22384,-3024,1980,22673.96,24.58,-1.00,-1.0,2439
261,2135261,11152,724,-344,11180.77,24.67,-1.00,-1.0,2360
264,2135264,22396,2700,-332,22560.61,24.67,-1.00,-1.0,2439
267,2135267,15200,480,-916,15235.14,24.67,-1.00,-1.0,2359
272,2135272,21456,-4236,3592,22163.17,24.58,-1.00,-1.0,2445
275,2135275,11564,-180,-728,11588.29,24.62,-1.00,-1.0,2365
277,2135277,22880,4408,-620,23309.00,24.58,-1.00,-1.0,2356
280,2135280,11540,1532,-652,11659.49,24.58,-1.00,-1.0,2436
283,2135283,21440,-3772,1552,21824.53,24.58,-1.00,-1.0,2365
285,2135285,14608,-4880,1392,15464.34,24.67,-1.00,-1.0,2417
288,2135288,19296,1636,-624,19375.28,24.67,-1.00,-1.0,2365
291,2135291,15836,3680,-1368,16315.41,24.62,-1.00,-1.0,2431
294,2135294,11776,1488,1112,11921.61,24.67,-1.00,-1.0,2365
299,2135299,12608,-4192,2684,13555.01,24.67,-1.00,-1.0,2443
302,2135302,20648,268,-72,20649.87,24.58,-1.00,-1.0,2364
304,2135304,13984,2864,-1300,14333.34,24.67,-1.00,-1.0,2431
307,2135307,19564,616,1408,19624.27,24.67,-1.00,-1.0,2365
310,2135310,19788,-3036,1536,20078.38,24.58,-1.00,-1.0,2430
313,2135313,13876,-1816,2080,14148.06,24.67,-1.00,-1.0,2367
315,2135315,21176,492,948,21202.92,24.67,-1.00,-1.0,2354
318,2135318,11728,1980,-236,11896.31,24.72,-1.00,-1.0,2451
321,2135321,22944,-528,8,22950.08,24.62,-1.00,-1.0,2360
326,2135326,21860,-2728,2672,22191.02,24.62,-1.00,-1.0,2444
329,2135329,18732,-2072,-608,18856.05,24.58,-1.00,-1.0,2364
331,2135331,16204,1592,-1144,16322.16,24.62,-1.00,-1.0,2432
334,2135334,19240,648,-892,19271.56,24.58,-1.00,-1.0,2365
337,2135337,13032,-616,596,13060.16,24.62,-1.00,-1.0,2429
340,2135340,24068,-1740,2524,24262.46,24.67,-1.00,-1.0,2364
342,2135342,9468,-2772,1520,9981.85,24.62,-1.00,-1.0,2430
345,2135345,24780,80,660,24788.92,24.67,-1.00,-1.0,2365
348,2135348,9860,1692,-1032,10057.21,24.62,-1.00,-1.0,2363
353,2135353,19228,-1964,228,19329.39,24.62,-1.00,-1.0,2443
356,2135356,8408,-2776,4116,9764.33,24.62,-1.00,-1.0,2373
358,2135358,25576,-2128,3016,25840.98,24.62,-1.00,-1.0,2431
361,2135361,7728,844,136,7775.14,24.67,-1.00,-1.0,2365
364,2135364,24900,3216,-204,25107.65,24.62,-1.00,-1.0,2432
367,2135367,14452,504,-168,14461.76,24.67,-1.00,-1.0,2365
369,2135369,18392,-3456,72,18714.03,24.62,-1.00,-1.0,2430
372,2135372,17856,-3916,-144,18280.93,24.67,-1.00,-1.0,2365
377,2135377,24160,1388,-1556,24249.81,24.48,-1.00,-1.0,2450
380,2135380,10928,2200,-180,11148.70,24.67,-1.00,-1.0,2360
383,2135383,21384,-1356,964,21448.62,24.58,-1.00,-1.0,2445
385,2135385,13416,-3776,1480,14015.62,24.62,-1.00,-1.0,2421
388,2135388,21136,-1824,780,21228.89,24.67,-1.00,-1.0,2365
391,2135391,14408,1652,-880,14529.07,24.62,-1.00,-1.0,2431
394,2135394,10864,3228,-1228,11399.76,24.67,-1.00,-1.0,2372
396,2135396,23256,88,268,23257.71,24.72,-1.00,-1.0,2430
399,2135399,8964,-3748,2340,9993.82,24.58,-1.00,-1.0,2357
404,2135404,13260,-1300,84,13323.84,24.58,-1.00,-1.0,2460
407,2135407,11536,2376,-1708,11901.34,24.67,-1.00,-1.0,2368
410,2135410,22600,3596,1064,22909.02,24.67,-1.00,-1.0,2449
412,2135412,10252,-1476,3016,10787.88,24.67,-1.00,-1.0,2374
415,2135415,24544,-4628,4120,25314.04,24.67,-1.00,-1.0,2446
418,2135418,11052,-3208,140,11509.02,24.67,-1.00,-1.0,2368
421,2135421,22696,2732,-1804,22930.91,24.58,-1.00,-1.0,2448
423,2135423,11416,2176,-1316,11695.81,24.67,-1.00,-1.0,2374
426,2135426,21364,-2340,1048,21517.30,24.67,-1.00,-1.0,2347
431,2135431,10816,-1648,408,10948.43,24.62,-1.00,-1.0,2445
434,2135434,25128,2092,1720,25273.53,24.53,-1.00,-1.0,2365
436,2135436,7316,2476,1208,7817.52,24.62,-1.00,-1.0,2436
439,2135439,25096,-1432,448,25140.81,24.67,-1.00,-1.0,2368
442,2135442,10712,-3892,476,11407.07,24.62,-1.00,-1.0,2436
445,2135445,14152,-852,1748,14284.97,24.67,-1.00,-1.0,2367
447,2135447,20388,2688,2816,20756.34,24.62,-1.00,-1.0,2436
450,2135450,10256,1652,2368,10654.67,24.67,-1.00,-1.0,2364
455,2135455,8384,-2968,1264,8983.22,24.62,-1.00,-1.0,2444
458,2135458,16528,-1160,-820,16588.94,24.53,-1.00,-1.0,2365
460,2135460,19284,1596,-512,19356.71,24.67,-1.00,-1.0,2435
463,2135463,13984,664,224,14001.55,24.72,-1.00,-1.0,2365
466,2135466,26236,-1028,3672,26511.66,24.67,-1.00,-1.0,2368
469,2135469,8216,-2648,2108,8885.84,24.67,-1.00,-1.0,2437
471,2135471,25812,-600,320,25820.96,24.58,-1.00,-1.0,2366
474,2135474,7280,2204,-272,7611.18,24.67,-1.00,-1.0,2435
477,2135477,24764,1556,1888,24884.56,24.62,-1.00,-1.0,2364
482,2135482,16060,-3152,1164,16407.73,24.62,-1.00,-1.0,2444
485,2135485,19732,-1184,644,19777.98,24.62,-1.00,-1.0,2366
488,2135488,8156,1620,-1020,8377.66,24.62,-1.00,-1.0,2434
490,2135490,25124,2756,1268,25306.50,24.62,-1.00,-1.0,2372
493,2135493,9332,-2164,860,9618.15,24.62,-1.00,-1.0,2436
496,2135496,24480,-3736,3628,25027.79,24.62,-1.00,-1.0,2369
498,2135498,17072,-2960,-36,17326.74,24.62,-1.00,-1.0,2361
501,2135501,16496,2916,-1348,16805.90,24.58,-1.00,-1.0,2436
504,2135504,18824,2896,188,19046.39,24.58,-1.00,-1.0,2352
509,2135509,24836,-3640,3752,25380.19,24.72,-1.00,-1.0,2450
512,2135512,9472,-1508,1660,9733.88,24.58,-1.00,-1.0,2380
515,2135515,23828,2500,836,23973.37,24.72,-1.00,-1.0,2436
518,2135518,15440,1856,-1916,15668.74,24.62,-1.00,-1.0,2372
520,2135520,19160,24,484,19166.13,24.62,-1.00,-1.0,2437
523,2135523,17496,-4092,1480,18029.00,24.58,-1.00,-1.0,2379
526,2135526,14448,-744,588,14479.09,24.72,-1.00,-1.0,2441
529,2135529,24564,2292,2452,24792.25,24.72,-1.00,-1.0,2374
534,2135534,22320,-1232,-700,22364.93,24.53,-1.00,-1.0,2443
536,2135536,13712,-3964,1964,14407.97,24.67,-1.00,-1.0,2366
539,2135539,18700,716,-420,18718.41,24.62,-1.00,-1.0,2363
542,2135542,23132,3124,1156,23370.60,24.53,-1.00,-1.0,2447
544,2135544,9068,1408,632,9198.40,24.62,-1.00,-1.0,2374
547,2135547,25204,-2612,3616,25595.70,24.72,-1.00,-1.0,2442
550,2135550,8424,-3008,1244,9031.02,24.62,-1.00,-1.0,2367
553,2135553,22556,100,-768,22569.29,24.62,-1.00,-1.0,2449
555,2135555,13080,2900,-708,13416.32,24.72,-1.00,-1.0,2377
560,2135560,24904,-1720,3368,25189.50,24.62,-1.00,-1.0,2443
563,2135563,8604,-3416,3024,9738.71,24.67,-1.00,-1.0,2365
566,2135566,25504,-656,332,25514.60,24.62,-1.00,-1.0,2442
568,2135568,10228,1848,-1004,10441.99,24.58,-1.00,-1.0,2365
571,2135571,21476,3824,2636,21972.48,24.62,-1.00,-1.0,2367
574,2135574,12024,-2348,3224,12668.22,24.62,-1.00,-1.0,2423
576,2135576,14584,-4500,1020,15296.52,24.62,-1.00,-1.0,2365
579,2135579,21528,-2480,252,21671.84,24.62,-1.00,-1.0,2447
582,2135582,11936,3620,-1900,12616.75,24.72,-1.00,-1.0,2367
587,2135587,9384,-1188,2364,9749.84,24.62,-1.00,-1.0,2444
590,2135590,24552,-5640,2956,25364.31,24.58,-1.00,-1.0,2364
593,2135593,11124,-1984,1312,11375.46,24.62,-1.00,-1.0,2443
595,2135595,14904,2884,-2744,15426.48,24.67,-1.00,-1.0,2365
598,2135598,19004,4888,-268,19624.38,24.62,-1.00,-1.0,2438
601,2135601,13068,-2076,1792,13352.67,24.67,-1.00,-1.0,2365
604,2135604,22544,-6980,3332,23833.89,24.62,-1.00,-1.0,2444
606,2135606,10280,-3524,2052,11059.28,24.67,-1.00,-1.0,2366
611,2135611,16968,6800,1244,18322.13,24.77,-1.00,-1.0,2446
614,2135614,13040,-1228,2592,13351.71,24.58,-1.00,-1.0,2367
617,2135617,25480,-6628,2420,26438.93,24.67,-1.00,-1.0,2360
619,2135619,10552,-4144,2620,11635.37,24.62,-1.00,-1.0,2438
622,2135622,23240,4992,236,23771.27,24.67,-1.00,-1.0,2365
625,2135625,7824,5148,-208,9368.04,24.58,-1.00,-1.0,2435
628,2135628,19008,444,-804,19030.18,24.58,-1.00,-1.0,2364
630,2135630,17736,-7412,3716,19578.36,24.72,-1.00,-1.0,2437
633,2135633,14932,-2772,2080,15328.89,24.58,-1.00,-1.0,2376
638,2135638,7124,5260,-796,8891.15,24.67,-1.00,-1.0,2443
641,2135641,25308,-900,740,25334.81,24.67,-1.00,-1.0,2367
644,2135644,14480,-4540,2272,15344.18,24.67,-1.00,-1.0,2429
646,2135646,18920,-3704,1252,19319.77,24.58,-1.00,-1.0,2373
649,2135649,15508,928,-472,15542.91,24.58,-1.00,-1.0,2436
652,2135652,17888,2044,-2664,18200.42,24.67,-1.00,-1.0,2364
654,2135654,23984,248,1168,24013.70,24.62,-1.00,-1.0,2360
657,2135657,9440,-2736,1592,9956.59,24.62,-1.00,-1.0,2436
660,2135660,23988,380,4720,24450.91,24.67,-1.00,-1.0,2373
665,2135665,21132,472,-328,21139.81,24.62,-1.00,-1.0,2430
668,2135668,13832,-1000,-116,13868.59,24.58,-1.00,-1.0,2364
671,2135671,18556,-1012,-1244,18625.17,24.72,-1.00,-1.0,2443
673,2135673,23032,488,2716,23196.72,24.72,-1.00,-1.0,2366
676,2135676,9260,-388,2748,9666.94,24.62,-1.00,-1.0,2436
679,2135679,25396,-496,2868,25562.24,24.67,-1.00,-1.0,2365
682,2135682,7852,224,1556,8007.82,24.72,-1.00,-1.0,2436
684,2135684,22676,996,-1016,22720.59,24.67,-1.00,-1.0,2368
687,2135687,12584,0,-660,12601.30,24.67,-1.00,-1.0,2363
692,2135692,23364,-1956,2696,23600.23,24.67,-1.00,-1.0,2452
695,2135695,9396,-1716,1720,9705.04,24.67,-1.00,-1.0,2379
698,2135698,25628,-356,-300,25632.23,24.67,-1.00,-1.0,2440
701,2135701,11408,224,84,11410.51,24.58,-1.00,-1.0,2376
703,2135703,19468,1780,-488,19555.29,24.62,-1.00,-1.0,2438
706,2135706,15804,164,1940,15923.47,24.67,-1.00,-1.0,2379
709,2135709,16340,-1788,4092,16939.21,24.67,-1.00,-1.0,2439
712,2135712,25408,-3256,1908,25686.74,24.67,-1.00,-1.0,2372
717,2135717,20516,2944,156,20726.74,24.67,-1.00,-1.0,2443
719,2135719,12996,1348,416,13072.34,24.67,-1.00,-1.0,2366
722,2135722,18628,-2100,2804,18954.54,24.67,-1.00,-1.0,2363
725,2135725,17984,-4460,1680,18604.79,24.62,-1.00,-1.0,2448
727,2135727,7988,-680,376,8025.70,24.67,-1.00,-1.0,2377
730,2135730,25912,4808,1132,26378.59,24.62,-1.00,-1.0,2441
733,2135733,7412,1204,1224,7608.25,24.58,-1.00,-1.0,2367
736,2135736,25392,-4204,4048,26054.05,24.62,-1.00,-1.0,2452
738,2135738,14512,-5240,1124,15469.94,24.62,-1.00,-1.0,2366
743,2135743,23684,3980,-1184,24045.25,24.62,-1.00,-1.0,2443
746,2135746,9676,2016,-60,9883.97,24.62,-1.00,-1.0,2364
749,2135749,24652,-4428,2968,25221.76,24.62,-1.00,-1.0,2435
752,2135752,9984,-4048,200,10775.28,24.62,-1.00,-1.0,2366
754,2135754,22836,728,76,22847.73,24.62,-1.00,-1.0,2435
757,2135757,12520,3212,-760,12947.78,24.72,-1.00,-1.0,2367
760,2135760,20952,-448,280,20958.66,24.62,-1.00,-1.0,2360
763,2135763,21596,-3388,3064,22073.83,24.67,-1.00,-1.0,2437
765,2135765,11780,-2560,2008,12221.05,24.67,-1.00,-1.0,2365
770,2135770,11588,2056,-2300,11991.62,24.77,-1.00,-1.0,2443
773,2135773,22324,488,1664,22391.25,24.62,-1.00,-1.0,2364
776,2135776,12968,-4864,1468,13927.76,24.77,-1.00,-1.0,2437
779,2135779,20880,-2372,-752,21027.75,24.62,-1.00,-1.0,2365
781,2135781,21772,1620,752,21845.13,24.67,-1.00,-1.0,2435
784,2135784,12124,3576,912,12673.24,24.72,-1.00,-1.0,2364
787,2135787,23020,-2052,1004,23133.07,24.58,-1.00,-1.0,2423
790,2135790,8960,-3020,2384,9751.18,24.62,-1.00,-1.0,2367
795,2135795,11288,944,376,11333.64,24.62,-1.00,-1.0,2449
797,2135797,11680,1204,2056,11920.54,24.72,-1.00,-1.0,2375
800,2135800,23712,-1084,2680,23887.58,24.62,-1.00,-1.0,2362
803,2135803,9404,-916,348,9454.91,24.67,-1.00,-1.0,2433
805,2135805,26364,1232,28,26392.79,24.62,-1.00,-1.0,2368
808,2135808,8232,188,-1984,8469.79,24.67,-1.00,-1.0,2436
811,2135811,24596,-756,1660,24663.54,24.62,-1.00,-1.0,2367
814,2135814,11548,-5148,-464,12652.02,24.67,-1.00,-1.0,2435
816,2135816,10760,-1332,2956,11237.87,24.67,-1.00,-1.0,2365
821,2135821,5824,2304,-1780,6511.21,24.67,-1.00,-1.0,2443
824,2135824,26228,1120,688,26260.92,24.58,-1.00,-1.0,2351
827,2135827,7896,-2828,1616,8541.42,24.67,-1.00,-1.0,2436
830,2135830,27464,-3592,1096,27719.58,24.67,-1.00,-1.0,2366
832,2135832,20756,-2748,584,20945.26,24.58,-1.00,-1.0,2364
835,2135835,10732,3312,-1552,11338.16,24.72,-1.00,-1.0,2434
838,2135838,23520,4748,2536,24128.10,24.58,-1.00,-1.0,2372
841,2135841,8100,-2608,3764,9304.80,24.62,-1.00,-1.0,2444
844,2135844,27920,-6488,3912,28929.64,24.72,-1.00,-1.0,2367
848,2135848,13500,4348,-1360,14247.97,24.58,-1.00,-1.0,2454
851,2135851,20448,6168,-532,21364.64,24.72,-1.00,-1.0,2368
854,2135854,10424,-2160,2568,10950.80,24.67,-1.00,-1.0,2438
857,2135857,26088,-9060,4676,28009.50,24.62,-1.00,-1.0,2368
859,2135859,7316,-5356,2132,9314.29,24.67,-1.00,-1.0,2431
862,2135862,25948,6080,-3560,26887.52,24.62,-1.00,-1.0,2379
865,2135865,8344,7312,-1772,11235.11,24.58,-1.00,-1.0,2436
868,2135868,23560,-3428,4264,24186.91,24.72,-1.00,-1.0,2371
871,2135871,13200,-10920,4648,17750.78,24.62,-1.00,-1.0,2366
875,2135875,25752,4280,-600,26112.14,24.67,-1.00,-1.0,2447
878,2135878,7884,8836,-1828,11982.23,24.67,-1.00,-1.0,2368
881,2135881,23156,-832,2932,23355.71,24.58,-1.00,-1.0,2435
884,2135884,12844,-10000,4536,16898.04,24.58,-1.00,-1.0,2368
886,2135886,12920,-6084,1724,14384.49,24.67,-1.00,-1.0,2436
889,2135889,23636,6060,152,24400.97,24.67,-1.00,-1.0,2368
892,2135892,8132,7108,-1428,10894.60,24.67,-1.00,-1.0,2436
895,2135895,24948,-3884,3216,25452.52,24.67,-1.00,-1.0,2367
900,2135900,23496,-2592,2864,23811.40,24.48,-1.00,-1.0,2451
902,2135902,21864,2980,-1340,22106.80,24.62,-1.00,-1.0,2368
905,2135905,10908,6808,-2116,13031.15,24.67,-1.00,-1.0,2445
908,2135908,24396,-2400,976,24533.19,24.53,-1.00,-1.0,2370
911,2135911,8652,-6376,3108,11187.95,24.58,-1.00,-1.0,2448
913,2135913,26468,-3984,1608,26814.42,24.67,-1.00,-1.0,2371
916,2135916,9392,2364,-1032,9739.77,24.67,-1.00,-1.0,2364
919,2135919,24096,4060,-880,24451.49,24.58,-1.00,-1.0,2435
922,2135922,11324,-3020,500,11730.45,24.67,-1.00,-1.0,2366
927,2135927,23496,-1724,2472,23688.50,24.67,-1.00,-1.0,2451
929,2135929,7512,1248,-784,7655.21,24.62,-1.00,-1.0,2365
932,2135932,24660,2376,1964,24851.93,24.58,-1.00,-1.0,2451
935,2135935,10740,-3452,-656,11300.19,24.62,-1.00,-1.0,2365
938,2135938,20484,-4,936,20505.38,24.67,-1.00,-1.0,2443
941,2135941,14932,1776,1780,15142.23,24.67,-1.00,-1.0,2428
943,2135943,16076,672,2016,16215.84,24.62,-1.00,-1.0,2434
946,2135946,26924,-1536,3488,27192.41,24.62,-1.00,-1.0,2369
949,2135949,5724,-1856,2108,6375.94,24.67,-1.00,-1.0,2365
954,2135954,11700,972,-1836,11883.00,24.72,-1.00,-1.0,2451
956,2135956,18184,660,1516,18259.02,24.62,-1.00,-1.0,2365
959,2135959,25464,-2964,1992,25713.20,24.58,-1.00,-1.0,2436
962,2135962,7948,-3464,584,8689.71,24.72,-1.00,-1.0,2363
965,2135965,28796,-188,-40,28796.64,24.62,-1.00,-1.0,2443
967,2135967,5916,1648,-504,6161.90,24.72,-1.00,-1.0,2365
970,2135970,18040,2056,-1208,18196.92,24.62,-1.00,-1.0,2435
973,2135973,18232,-972,496,18264.63,24.62,-1.00,-1.0,2363
978,2135978,28084,-3428,2628,28414.23,24.62,-1.00,-1.0,2449
981,2135981,5592,-1144,-2116,6087.42,24.67,-1.00,-1.0,2374
983,2135983,27936,3076,-2484,28214.40,24.62,-1.00,-1.0,2438
986,2135986,17292,1668,380,17376.42,24.67,-1.00,-1.0,2371
989,2135989,12636,-1784,3484,13228.36,24.62,-1.00,-1.0,2359
991,2135991,25028,-5720,136,25673.68,24.62,-1.00,-1.0,2436
994,2135994,4308,-1528,1140,4710.97,24.62,-1.00,-1.0,2364
997,2135997,27756,3136,-1952,28000.72,24.53,-1.00,-1.0,2432
1000,2136000,6516,1360,-1132,6751.98,24.72,-1.00,-1.0,2363
1005,2136005,22272,-7000,1284,23381.42,24.62,-1.00,-1.0,2447
1007,2136007,9424,1668,504,9583.74,24.53,-1.00,-1.0,2367
1010,2136010,29372,5440,-1072,29890.75,24.62,-1.00,-1.0,2436
1013,2136013,4584,3304,256,5656.41,24.62,-1.00,-1.0,2365
1016,2136016,27344,-5284,5352,28359.46,24.62,-1.00,-1.0,2430
1018,2136018,10052,-7972,1668,12937.45,24.62,-1.00,-1.0,2373
1021,2136021,11396,1292,688,11489.62,24.62,-1.00,-1.0,2435
1024,2136024,22708,6556,-4860,24129.94,24.72,-1.00,-1.0,2363
1027,2136027,8864,3200,-1464,9536.97,24.77,-1.00,-1.0,2366
1032,2136032,11248,-10656,3132,15807.51,24.62,-1.00,-1.0,2444
1034,2136034,20968,1712,432,21042.21,24.62,-1.00,-1.0,2352
1037,2136037,22540,7452,-4128,24096.15,24.62,-1.00,-1.0,2435
1040,2136040,10036,6828,-836,12167.24,24.62,-1.00,-1.0,2367
1043,2136043,24960,-7652,5064,26593.21,24.62,-1.00,-1.0,2429
1045,2136045,9432,-9240,4368,13907.54,24.62,-1.00,-1.0,2372
1048,2136048,20120,-804,108,20136.35,24.72,-1.00,-1.0,2435
1051,2136051,15668,9800,-3460,18801.54,24.62,-1.00,-1.0,2365
1056,2136056,26516,-6856,2640,27514.95,24.62,-1.00,-1.0,2449
1058,2136058,8552,-10480,3692,14021.34,24.62,-1.00,-1.0,2373
1061,2136061,20832,-2224,2496,21098.54,24.67,-1.00,-1.0,2435
1064,2136064,15980,7632,-4280,18218.84,24.72,-1.00,-1.0,2367
1067,2136067,15384,7080,192,16936.08,24.67,-1.00,-1.0,2435
1069,2136069,21048,-7632,2372,22514.26,24.62,-1.00,-1.0,2372
1072,2136072,5588,-8788,4260,11251.77,24.67,-1.00,-1.0,2435
1075,2136075,28364,-1728,740,28426.22,24.62,-1.00,-1.0,2365
1080,2136080,15128,5868,920,16252.27,24.58,-1.00,-1.0,2444
1082,2136082,21284,-4700,1320,21836.69,24.67,-1.00,-1.0,2365
1085,2136085,5676,-6320,2136,8759.10,24.67,-1.00,-1.0,2360
1088,2136088,27064,-532,1008,27087.99,24.62,-1.00,-1.0,2444
1090,2136090,9244,4676,-1136,10421.47,24.67,-1.00,-1.0,2365
1093,2136093,22264,2008,4804,22864.74,24.62,-1.00,-1.0,2436
1096,2136096,23128,-5776,52,23838.40,24.58,-1.00,-1.0,2365
1099,2136099,10492,-2464,2828,11142.30,24.62,-1.00,-1.0,2422
1102,2136102,24040,1148,-1784,24133.42,24.62,-1.00,-1.0,2373
1107,2136107,23844,1140,2624,24015.02,24.53,-1.00,-1.0,2453
1109,2136109,13240,-7332,268,15136.96,24.58,-1.00,-1.0,2365
1112,2136112,19680,-832,2488,19854.09,24.72,-1.00,-1.0,2441
1115,2136115,25884,1464,-1636,25976.94,24.67,-1.00,-1.0,2364
1118,2136118,6720,4384,-1212,8114.60,24.62,-1.00,-1.0,2445
1120,2136120,27264,-2412,3140,27550.01,24.67,-1.00,-1.0,2365
1123,2136123,7308,-6172,1436,9672.77,24.62,-1.00,-1.0,2438
1126,2136126,18324,-976,3704,18720.07,24.67,-1.00,-1.0,2364
1129,2136129,17320,2404,-2084,17609.79,24.62,-1.00,-1.0,2363
1134,2136134,27240,-420,1528,27286.05,24.62,-1.00,-1.0,2451
1136,2136136,7436,-6164,-148,9659.76,24.58,-1.00,-1.0,2368
1139,2136139,27976,-1832,2884,28183.87,24.72,-1.00,-1.0,2444
1142,2136142,17688,-728,-1492,17765.74,24.62,-1.00,-1.0,2364
1145,2136145,12060,5764,712,13385.60,24.53,-1.00,-1.0,2440
1147,2136147,22568,-404,468,22576.47,24.58,-1.00,-1.0,2365
1150,2136150,8900,-4668,3068,10507.75,24.72,-1.00,-1.0,2438
1153,2136153,26832,-4216,4464,27525.59,24.53,-1.00,-1.0,2363
1158,2136158,11784,5844,-44,13153.59,24.58,-1.00,-1.0,2430
1161,2136161,22228,2680,-228,22390.14,24.58,-1.00,-1.0,2364
1163,2136163,7600,-3648,3524,9137.09,24.58,-1.00,-1.0,2435
1166,2136166,27296,-6020,6004,28589.51,24.67,-1.00,-1.0,2363
1169,2136169,10364,-4504,-1040,11348.13,24.67,-1.00,-1.0,2435
1172,2136172,19656,7844,-1852,21244.21,24.58,-1.00,-1.0,2365
1174,2136174,16192,4680,-2328,17014.78,24.58,-1.00,-1.0,2435
1177,2136177,7128,-1768,2280,7689.77,24.58,-1.00,-1.0,2353
1180,2136180,28700,-11016,3672,30960.07,24.67,-1.00,-1.0,2361
1185,2136185,18596,6628,-88,19742.07,24.67,-1.00,-1.0,2451
1188,2136188,15628,6924,-4552,17688.89,24.58,-1.00,-1.0,2371
1190,2136190,15140,-1452,1868,15323.75,24.67,-1.00,-1.0,2444
1193,2136193,25024,-8464,4784,26846.35,24.58,-1.00,-1.0,2379
1196,2136196,11172,-6044,2836,13014.85,24.67,-1.00,-1.0,2436
1199,2136199,23700,4680,-472,24162.27,24.67,-1.00,-1.0,2370
1201,2136201,11764,4996,-4760,13638.52,24.67,-1.00,-1.0,2445
1204,2136204,12132,2820,548,12467.48,24.67,-1.00,-1.0,2378
1209,2136209,12288,-5480,3764,13971.15,24.58,-1.00,-1.0,2443
1212,2136212,21996,0,3888,22336.98,24.58,-1.00,-1.0,2375
1215,2136215,13596,2376,-3484,14234.99,24.67,-1.00,-1.0,2450
1217,2136217,16616,4272,540,17164.88,24.67,-1.00,-1.0,2368
1220,2136220,23908,-1100,-1468,23978.27,24.67,-1.00,-1.0,2450
1223,2136223,10672,-3904,4600,12259.40,24.58,-1.00,-1.0,2374
1226,2136226,23896,-3108,5068,24624.44,24.67,-1.00,-1.0,2450
1228,2136228,10860,1204,-508,10938.34,24.58,-1.00,-1.0,2369
1231,2136231,14324,4608,-1984,15177.18,24.62,-1.00,-1.0,2359
1236,2136236,11828,-1232,1780,12024.47,24.72,-1.00,-1.0,2446
1239,2136239,21820,-5512,6624,23460.01,24.67,-1.00,-1.0,2367
1241,2136241,14100,-3008,704,14434.46,24.67,-1.00,-1.0,2434
1244,2136244,11132,3960,-516,11826.63,24.67,-1.00,-1.0,2367
1247,2136247,22560,5240,-3844,23477.38,24.62,-1.00,-1.0,2435
1250,2136250,11656,48,2208,11863.38,24.58,-1.00,-1.0,2362
1252,2136252,22080,-6576,6272,23876.94,24.67,-1.00,-1.0,2436
1255,2136255,18204,-6336,1172,19310.72,24.58,-1.00,-1.0,2379
1260,2136260,20744,6132,-3712,21947.53,24.72,-1.00,-1.0,2444
1263,2136263,12876,2428,-532,13113.72,24.62,-1.00,-1.0,2365
1265,2136265,21588,-5892,5244,22983.84,24.62,-1.00,-1.0,2434
1268,2136268,14088,-6752,2920,15893.01,24.62,-1.00,-1.0,2352
1271,2136271,12648,1340,1196,12774.89,24.72,-1.00,-1.0,2436
1274,2136274,22612,5632,-5520,23947.70,24.67,-1.00,-1.0,2362
1276,2136276,10592,1268,-1556,10780.51,24.62,-1.00,-1.0,2436
1279,2136279,19664,-3728,4784,20578.08,24.77,-1.00,-1.0,2379
1284,2136284,10384,-1588,2948,10910.54,24.72,-1.00,-1.0,2443
1287,2136287,24260,4656,-2952,24878.51,24.62,-1.00,-1.0,2364
1289,2136289,10512,3280,-1128,11069.46,24.67,-1.00,-1.0,2360
1292,2136292,16072,-1116,2264,16269.00,24.58,-1.00,-1.0,2434
1295,2136295,19760,-6460,2416,20929.08,24.62,-1.00,-1.0,2364
1297,2136297,12568,-1232,2000,12785.63,24.58,-1.00,-1.0,2434
1300,2136300,23552,2176,-3484,23907.53,24.62,-1.00,-1.0,2365
1303,2136303,10268,3940,-400,11005.25,24.62,-1.00,-1.0,2450
1306,2136306,22588,-172,3484,22855.76,24.67,-1.00,-1.0,2366
1311,2136311,8960,-1788,1952,9342.85,24.58,-1.00,-1.0,2442
1314,2136314,25992,1516,-2952,26202.99,24.67,-1.00,-1.0,2363
1316,2136316,9364,2664,-524,9749.67,24.67,-1.00,-1.0,2436
1319,2136319,26720,-2452,4456,27199.75,24.67,-1.00,-1.0,2365
1322,2136322,19000,-6632,1752,20200.32,24.58,-1.00,-1.0,2432
1325,2136325,13500,200,-288,13504.55,24.58,-1.00,-1.0,2365
1327,2136327,21496,4672,-2632,22154.75,24.58,-1.00,-1.0,2436
1330,2136330,9948,1204,-1400,10117.92,24.67,-1.00,-1.0,2366
1335,2136335,10564,-8508,2656,13821.67,24.62,-1.00,-1.0,2454
1338,2136338,23364,1048,-644,23396.36,24.62,-1.00,-1.0,2380
1341,2136341,20460,5048,-5016,21662.28,24.62,-1.00,-1.0,2435
1344,2136344,10028,6188,-2504,12046.67,24.62,-1.00,-1.0,2372
1346,2136346,26568,-4756,2828,27138.09,24.62,-1.00,-1.0,2360
1349,2136349,13656,-9820,6120,17898.97,24.67,-1.00,-1.0,2432
1352,2136352,18272,-3964,2596,18876.40,24.62,-1.00,-1.0,2365
1354,2136354,18420,5160,-3352,19420.55,24.67,-1.00,-1.0,2435
1357,2136357,12124,6280,-3524,14101.36,24.72,-1.00,-1.0,2355
1362,2136362,10464,-7204,5516,13849.88,24.72,-1.00,-1.0,2442
1365,2136365,15068,-5880,5160,16977.77,24.62,-1.00,-1.0,2375
1368,2136368,22000,-396,-2020,22096.09,24.53,-1.00,-1.0,2449
1370,2136370,9172,6944,-3032,11896.96,24.58,-1.00,-1.0,2367
1373,2136373,25680,2296,-956,25800.15,24.62,-1.00,-1.0,2447
1376,2136376,10912,-3392,4236,12186.92,24.62,-1.00,-1.0,2374
1379,2136379,20460,-6968,6232,22494.50,24.62,-1.00,-1.0,2450
1381,2136381,17128,-1216,-620,17182.30,24.62,-1.00,-1.0,2370
1386,2136386,25168,6708,-588,26053.24,24.67,-1.00,-1.0,2444
1389,2136389,14400,-1488,-360,14481.15,24.58,-1.00,-1.0,2367
1392,2136392,17604,-8136,5948,20284.82,24.62,-1.00,-1.0,2441
1394,2136394,20464,-6616,160,21507.50,24.67,-1.00,-1.0,2367
1397,2136397,11344,6924,-2788,13579.43,24.77,-1.00,-1.0,2434
1400,2136400,25768,8488,-3524,27357.90,24.67,-1.00,-1.0,2365
1402,2136402,8384,460,1324,8500.35,24.62,-1.00,-1.0,2360
1405,2136405,23268,-8132,7360,25723.51,24.62,-1.00,-1.0,2448
1408,2136408,14436,-6336,1452,15831.97,24.67,-1.00,-1.0,2368
1413,2136413,25748,10248,-476,27716.56,24.72,-1.00,-1.0,2458
1416,2136416,9332,2924,-2552,10106.86,24.62,-1.00,-1.0,2372
1419,2136419,21312,-7216,4208,22890.59,24.58,-1.00,-1.0,2445
1421,2136421,17496,-9012,2836,19883.89,24.62,-1.00,-1.0,2371
1424,2136424,14420,4584,-1092,15170.43,24.67,-1.00,-1.0,2443
1427,2136427,25220,8984,-4108,27085.72,24.62,-1.00,-1.0,2372
1430,2136430,8240,3236,-36,8852.72,24.67,-1.00,-1.0,2445
1432,2136432,23960,-6740,7512,25998.83,24.62,-1.00,-1.0,2374
1437,2136437,11840,1336,-308,11919.12,24.72,-1.00,-1.0,2442
1440,2136440,22604,9028,-4216,24702.64,24.62,-1.00,-1.0,2368
1443,2136443,11824,6536,-1292,13571.87,24.53,-1.00,-1.0,2444
1445,2136445,19840,-5964,5256,21373.36,24.62,-1.00,-1.0,2354
1448,2136448,17168,-11184,3104,20723.34,24.62,-1.00,-1.0,2435
1451,2136451,15828,3232,-636,16167.12,24.53,-1.00,-1.0,2363
1454,2136454,24300,8552,-4552,26160.04,24.62,-1.00,-1.0,2441
1456,2136456,7964,4404,-1944,9305.89,24.72,-1.00,-1.0,2367
1459,2136459,25944,-7364,6056,27640.46,24.58,-1.00,-1.0,2359
1464,2136464,12836,1168,1052,12931.89,24.72,-1.00,-1.0,2429
1467,2136467,25220,8336,-3268,26762.23,24.67,-1.00,-1.0,2363
1469,2136469,7660,7364,-956,10668.55,24.53,-1.00,-1.0,2435
1472,2136472,24872,-6624,4536,26135.59,24.58,-1.00,-1.0,2366
1475,2136475,11212,-10164,4300,15732.32,24.62,-1.00,-1.0,2420
1478,2136478,11512,-1168,1600,11681.20,24.58,-1.00,-1.0,2364
1480,2136480,22172,8500,-5500,24374.12,24.72,-1.00,-1.0,2435
1483,2136483,10544,5224,-776,11792.72,24.58,-1.00,-1.0,2365
1488,2136488,18564,-12236,3740,22546.16,24.72,-1.00,-1.0,2442
1491,2136491,8280,-4676,2276,9777.71,24.62,-1.00,-1.0,2371
1494,2136494,23640,9520,-3708,25753.24,24.67,-1.00,-1.0,2435
1496,2136496,9016,7576,-3560,12302.75,24.62,-1.00,-1.0,2365
1499,2136499,24568,-6464,6216,26153.56,24.58,-1.00,-1.0,2433
1502,2136502,19004,-13304,5760,23902.43,24.62,-1.00,-1.0,2364
1504,2136504,16024,-2652,2900,16498.84,24.72,-1.00,-1.0,2435
1507,2136507,18616,9020,-6184,21590.69,24.62,-1.00,-1.0,2352
1512,2136512,22872,-2180,3044,23176.43,24.58,-1.00,-1.0,2442
1515,2136515,13256,-14000,7096,20544.46,24.62,-1.00,-1.0,2366
1517,2136517,12684,-9676,3364,16304.15,24.62,-1.00,-1.0,2360
1520,2136520,24196,6140,-3072,25151.21,24.67,-1.00,-1.0,2434
1523,2136523,9516,9480,-5732,14604.12,24.62,-1.00,-1.0,2365
1526,2136526,18208,3452,-1216,18572.19,24.58,-1.00,-1.0,2469
1529,2136529,17944,-9568,2576,20498.04,24.67,-1.00,-1.0,2366
1531,2136531,17812,-7112,5684,20003.89,24.62,-1.00,-1.0,2427
1534,2136534,18540,1136,-2196,18704.13,24.62,-1.00,-1.0,2359
1539,2136539,25780,5896,-1216,26473.57,24.62,-1.00,-1.0,2446
1542,2136542,9696,-7196,3344,12529.05,24.53,-1.00,-1.0,2358
1545,2136545,14416,-9888,6948,18811.39,24.72,-1.00,-1.0,2436
1547,2136547,22860,-3200,1640,23141.07,24.62,-1.00,-1.0,2362
1550,2136550,9124,8956,-4956,13712.01,24.62,-1.00,-1.0,2439
1553,2136553,23720,6852,-1400,24729.50,24.72,-1.00,-1.0,2362
1556,2136556,11500,-2708,1664,11931.14,24.62,-1.00,-1.0,2444
1558,2136558,22332,-11196,7672,26132.89,24.62,-1.00,-1.0,2366
1563,2136563,7952,7148,-1920,10863.45,24.62,-1.00,-1.0,2454
1566,2136566,24776,10604,-4360,27300.27,24.67,-1.00,-1.0,2374
1569,2136569,8680,-2196,856,8994.31,24.62,-1.00,-1.0,2444
1572,2136572,19284,-9928,8236,23200.64,24.62,-1.00,-1.0,2370
1574,2136574,19380,-9900,2768,21937.55,24.62,-1.00,-1.0,2361
1577,2136577,12656,6748,-3932,14871.80,24.72,-1.00,-1.0,2433
1580,2136580,24776,12396,-3568,27932.80,24.62,-1.00,-1.0,2365
1582,2136582,8296,3212,-56,8896.27,24.62,-1.00,-1.0,2431
1585,2136585,24112,-11236,7892,27747.43,24.67,-1.00,-1.0,2367
1590,2136590,11564,4324,752,12368.86,24.67,-1.00,-1.0,2449
1593,2136593,22388,10788,-5804,25520.38,24.67,-1.00,-1.0,2359
1596,2136596,8268,6168,-2280,10564.21,24.67,-1.00,-1.0,2448
1598,2136598,23712,-7940,6728,25895.34,24.58,-1.00,-1.0,2345
1601,2136601,13668,-11800,4184,18535.37,24.58,-1.00,-1.0,2439
1604,2136604,17072,4132,-708,17579.19,24.58,-1.00,-1.0,2360
1607,2136607,23512,10408,-5244,26241.95,24.67,-1.00,-1.0,2445
1609,2136609,9152,4708,-2860,10681.95,24.67,-1.00,-1.0,2358
1614,2136614,16440,-12520,4080,21063.48,24.58,-1.00,-1.0,2449
1617,2136617,16108,1280,1652,16243.00,24.53,-1.00,-1.0,2359
1620,2136620,19580,9220,-3380,21904.55,24.67,-1.00,-1.0,2437
1623,2136623,7676,5688,-3272,10098.53,24.62,-1.00,-1.0,2365
1625,2136625,27160,-5108,3792,27895.10,24.67,-1.00,-1.0,2433
1628,2136628,8772,-9892,2896,13534.64,24.62,-1.00,-1.0,2352
1631,2136631,14120,-1848,1128,14285.02,24.58,-1.00,-1.0,2361
1633,2136633,21832,7128,-3464,23225.93,24.67,-1.00,-1.0,2432
1636,2136636,9088,4744,1100,10310.54,24.72,-1.00,-1.0,2374
1641,2136641,7484,-8640,3028,11824.92,24.72,-1.00,-1.0,2457
1644,2136644,24376,2468,1104,24525.48,24.72,-1.00,-1.0,2367
1647,2136647,11788,8124,892,14344.06,24.72,-1.00,-1.0,2443
1650,2136650,8312,2752,-2436,9088.29,24.62,-1.00,-1.0,2359
1652,2136652,30276,-6684,1916,31064.18,24.53,-1.00,-1.0,2452
1655,2136655,5916,-6440,2208,9019.31,24.67,-1.00,-1.0,2367
1658,2136658,25864,5220,-912,26401.26,24.62,-1.00,-1.0,2446
1660,2136660,13880,7728,-2636,16103.57,24.62,-1.00,-1.0,2359
1665,2136665,25172,-7060,3940,26438.55,24.58,-1.00,-1.0,2470
1668,2136668,9888,-7920,4556,13463.14,24.67,-1.00,-1.0,2358
1671,2136671,24956,1936,-3952,25341.04,24.58,-1.00,-1.0,2424
1674,2136674,13012,9212,-2512,16139.49,24.67,-1.00,-1.0,2365
1676,2136676,16316,4864,-36,17025.62,24.67,-1.00,-1.0,2432
1679,2136679,21388,-8428,3820,23303.87,24.58,-1.00,-1.0,2353
1682,2136682,9820,-10912,4044,15226.89,24.77,-1.00,-1.0,2362
1684,2136684,25368,-1084,792,25403.50,24.67,-1.00,-1.0,2433
1687,2136687,10456,8292,-3188,13720.37,24.67,-1.00,-1.0,2367
1692,2136692,22960,-3332,1456,23246.16,24.72,-1.00,-1.0,2447
1695,2136695,10180,-6596,7900,14475.83,24.67,-1.00,-1.0,2359
1698,2136698,26396,-3828,-2060,26751.56,24.62,-1.00,-1.0,2448
1700,2136700,8976,4244,-1632,10061.98,24.62,-1.00,-1.0,2360
1703,2136703,21504,6272,-2456,22534.24,24.62,-1.00,-1.0,2439
1706,2136706,15608,-1996,1088,15772.68,24.67,-1.00,-1.0,2359
1709,2136709,17272,-7252,6364,19784.19,24.53,-1.00,-1.0,2445
1711,2136711,27184,-6296,1620,27950.56,24.62,-1.00,-1.0,2360
1716,2136716,19776,7596,-2944,21388.23,24.67,-1.00,-1.0,2447
1719,2136719,15164,1216,220,15214.27,24.58,-1.00,-1.0,2358
1722,2136722,17428,-6940,6144,19739.49,24.67,-1.00,-1.0,2438
1725,2136725,26644,-9124,2324,28258.65,24.58,-1.00,-1.0,2364
1727,2136727,8260,2380,-156,8597.46,24.67,-1.00,-1.0,2432
1730,2136730,24748,8204,-3432,26297.29,24.58,-1.00,-1.0,2354
1733,2136733,10072,772,148,10102.63,24.67,-1.00,-1.0,2439
1736,2136736,14860,-5808,4848,16675.00,24.67,-1.00,-1.0,2364
1738,2136738,22824,-8836,1792,24540.19,24.72,-1.00,-1.0,2361
1744,2136744,24676,7132,-3120,25874.79,24.48,-1.00,-1.0,2448
1746,2136746,9556,2716,-1144,10000.13,24.67,-1.00,-1.0,2370
1749,2136749,22104,-5756,4004,23189.45,24.58,-1.00,-1.0,2447
1752,2136752,15064,-6488,2132,16539.76,24.67,-1.00,-1.0,2348
1755,2136755,7868,1388,3576,8753.27,24.58,-1.00,-1.0,2448
1757,2136757,27076,3996,-4000,27660.04,24.58,-1.00,-1.0,2360
1760,2136760,5752,2224,-796,6218.14,24.67,-1.00,-1.0,2452
1763,2136763,28064,-5156,1820,28591.69,24.67,-1.00,-1.0,2366
1768,2136768,18564,464,3160,18836.75,24.62,-1.00,-1.0,2455
1770,2136770,28108,1632,-1376,28188.94,24.62,-1.00,-1.0,2360
1773,2136773,4744,3904,-1716,6378.98,24.67,-1.00,-1.0,2442
1776,2136776,28344,-1220,80,28370.36,24.72,-1.00,-1.0,2359
1779,2136779,6624,-4068,2060,8041.74,24.62,-1.00,-1.0,2446
1781,2136781,18320,-2764,5568,19345.92,24.62,-1.00,-1.0,2360
1784,2136784,19744,-2276,-2072,19982.46,24.53,-1.00,-1.0,2438
1787,2136787,11156,5484,-616,12446.29,24.62,-1.00,-1.0,2358
1789,2136789,27788,3680,-1844,28091.20,24.62,-1.00,-1.0,2360
1794,2136794,18228,-4924,5332,19619.79,24.62,-1.00,-1.0,2447
1797,2136797,19804,-6556,548,20868.15,24.72,-1.00,-1.0,2360
1800,2136800,11360,5804,360,12761.88,24.72,-1.00,-1.0,2437
1803,2136803,22512,4952,-3292,23284.11,24.62,-1.00,-1.0,2362
1805,2136805,6976,1696,16,7179.22,24.62,-1.00,-1.0,2433
1808,2136808,26016,-6824,6520,27675.07,24.72,-1.00,-1.0,2366
1811,2136811,10888,-6644,1344,12825.66,24.53,-1.00,-1.0,2430
1814,2136814,20516,5724,-1856,21380.25,24.72,-1.00,-1.0,2363
1819,2136819,8052,3992,-3472,9634.60,24.58,-1.00,-1.0,2448
1821,2136821,26364,-6684,5160,27683.24,24.58,-1.00,-1.0,2362
1824,2136824,10476,-9796,1916,14469.94,24.67,-1.00,-1.0,2453
1827,2136827,21120,4960,-880,21712.45,24.58,-1.00,-1.0,2368
1830,2136830,23912,8184,-4184,25617.72,24.67,-1.00,-1.0,2444
1832,2136832,6824,3956,176,7889.73,24.67,-1.00,-1.0,2363
1835,2136835,29668,-10288,4548,31728.81,24.67,-1.00,-1.0,2364
1838,2136838,5384,-7456,3460,9826.04,24.62,-1.00,-1.0,2441
1841,2136841,20616,2712,-448,20798.44,24.67,-1.00,-1.0,2365
1845,2136845,9388,5332,-2804,11154.69,24.58,-1.00,-1.0,2446
1848,2136848,27912,-8744,4408,29579.85,24.67,-1.00,-1.0,2359
1851,2136851,7376,-9648,3284,12580.70,24.58,-1.00,-1.0,2439
1854,2136854,24824,6192,60,25584.67,24.58,-1.00,-1.0,2363
1856,2136856,15384,8752,-6532,18866.16,24.67,-1.00,-1.0,2432
1859,2136859,14208,3332,-1188,14641.75,24.58,-1.00,-1.0,2365
1862,2136862,24948,-11116,3412,27524.71,24.67,-1.00,-1.0,2432
1865,2136865,9232,-7256,3924,12380.51,24.62,-1.00,-1.0,2364
1869,2136869,18688,8816,-3448,20948.79,24.67,-1.00,-1.0,2447
1872,2136872,12456,7408,-908,14520.84,24.67,-1.00,-1.0,2358
1875,2136875,24088,-8912,4076,26005.18,24.58,-1.00,-1.0,2442
1878,2136878,8364,-8552,5228,13054.70,24.67,-1.00,-1.0,2363
1880,2136880,25540,-920,1924,25628.88,24.67,-1.00,-1.0,2432
1883,2136883,9640,6972,-4652,12774.17,24.67,-1.00,-1.0,2364
1886,2136886,20304,4820,-640,20878.08,24.67,-1.00,-1.0,2419
1889,2136889,16852,-6860,2076,18312.82,24.62,-1.00,-1.0,2365
1892,2136892,15732,-5548,6472,17893.10,24.72,-1.00,-1.0,2357
1896,2136896,9156,3632,-1704,9996.37,24.67,-1.00,-1.0,2448
1899,2136899,20928,6056,-1252,21822.55,24.62,-1.00,-1.0,2362
1902,2136902,15636,-3216,-284,15965.83,24.67,-1.00,-1.0,2438
1905,2136905,16416,-5564,5236,18106.87,24.62,-1.00,-1.0,2364
1907,2136907,27620,-4632,3224,28190.67,24.67,-1.00,-1.0,2432
1910,2136910,5264,3472,-904,6370.38,24.62,-1.00,-1.0,2367
1913,2136913,27212,4788,-2028,27704.34,24.67,-1.00,-1.0,2439
1916,2136916,7612,-1708,600,7824.31,24.72,-1.00,-1.0,2364
1921,2136921,19980,-5212,1784,20725.54,24.72,-1.00,-1.0,2454
1923,2136923,5988,564,-532,6037.98,24.62,-1.00,-1.0,2365
1926,2136926,28144,4456,-2264,28584.37,24.62,-1.00,-1.0,2449
1929,2136929,6736,800,-304,6790.15,24.62,-1.00,-1.0,2366
1932,2136932,26080,-3820,4172,26686.41,24.62,-1.00,-1.0,2453
1934,2136934,19660,-5256,1688,20420.35,24.62,-1.00,-1.0,2363
1937,2136937,11716,2296,1512,12034.22,24.62,-1.00,-1.0,2361
1940,2136940,24352,1724,-2328,24523.70,24.58,-1.00,-1.0,2431
1943,2136943,8312,868,900,8405.52,24.58,-1.00,-1.0,2363
1948,2136948,8004,-4196,-16,9037.18,24.72,-1.00,-1.0,2448
1950,2136950,13472,732,1924,13628.37,24.62,-1.00,-1.0,2368
1953,2136953,22804,588,-1860,22887.28,24.67,-1.00,-1.0,2432
1956,2136956,9580,2008,164,9789.55,24.62,-1.00,-1.0,2367
1959,2136959,26512,-2852,1964,26737.19,24.67,-1.00,-1.0,2448
1961,2136961,6500,-3560,448,7424.57,24.62,-1.00,-1.0,2365
1964,2136964,26368,-56,2064,26448.72,24.58,-1.00,-1.0,2453
1967,2136967,10348,24,-2088,10556.58,24.72,-1.00,-1.0,2368
1972,2136972,25516,-1672,-704,25580.41,24.72,-1.00,-1.0,2449
1974,2136974,7992,-1992,828,8278.03,24.62,-1.00,-1.0,2359
1977,2136977,25688,-1592,3660,25996.22,24.62,-1.00,-1.0,2368
1980,2136980,10392,-1444,-1544,10604.84,24.67,-1.00,-1.0,2443
1982,2136982,21388,3040,-536,21609.62,24.62,-1.00,-1.0,2359
1985,2136985,24128,1712,564,24195.24,24.67,-1.00,-1.0,2455
1988,2136988,8488,-1096,2384,8884.30,24.53,-1.00,-1.0,2365
1991,2136991,27332,-4604,3320,27915.18,24.67,-1.00,-1.0,2448
1994,2136994,5808,-816,-888,5931.89,24.67,-1.00,-1.0,2359
1999,2136999,11960,1140,-2176,12209.68,24.67,-1.00,-1.0,2449
2001,2137001,9048,0,408,9057.19,24.67,-1.00,-1.0,2366
2004,2137004,26940,-5048,3044,27577.38,24.62,-1.00,-1.0,2438
2007,2137007,8076,-2244,-84,8382.38,24.67,-1.00,-1.0,2362
2010,2137010,27496,2348,-88,27596.21,24.67,-1.00,-1.0,2445
2012,2137012,10812,2196,-1608,11149.32,24.67,-1.00,-1.0,2367
2015,2137015,20168,1480,1948,20315.84,24.67,-1.00,-1.0,2438
2018,2137018,16248,-4424,1928,16949.53,24.58,-1.00,-1.0,2360
2021,2137021,15112,-1356,2384,15358.87,24.62,-1.00,-1.0,2362
2026,2137026,5796,1196,-3416,6833.23,24.67,-1.00,-1.0,2447
2028,2137028,28432,1472,1980,28538.85,24.62,-1.00,-1.0,2359
2031,2137031,14656,-3224,1028,15041.59,24.62,-1.00,-1.0,2426
2034,2137034,17356,-2124,2840,17714.62,24.67,-1.00,-1.0,2359
2037,2137037,19480,-668,436,19496.33,24.67,-1.00,-1.0,2437
2039,2137039,4560,1812,-1808,5229.32,24.67,-1.00,-1.0,2368
2042,2137042,29748,1764,268,29801.46,24.62,-1.00,-1.0,2439
2045,2137045,4872,-3360,264,5924.16,24.67,-1.00,-1.0,2346
2050,2137050,17496,-1088,1868,17629.04,24.58,-1.00,-1.0,2455
2053,2137053,14052,3020,420,14379.00,24.67,-1.00,-1.0,2359
2055,2137055,28736,1788,276,28792.89,24.67,-1.00,-1.0,2450
2058,2137058,4992,-1444,-920,5277.46,24.58,-1.00,-1.0,2365
2061,2137061,28772,-1344,3224,28983.24,24.67,-1.00,-1.0,2446
2063,2137063,6472,-2832,-44,7064.63,24.67,-1.00,-1.0,2360
2066,2137066,17292,456,836,17318.20,24.67,-1.00,-1.0,2369
2069,2137069,19024,816,464,19047.14,24.72,-1.00,-1.0,2438
2072,2137072,12476,1316,804,12570.95,24.58,-1.00,-1.0,2367
2077,2137077,5272,-3156,-308,6152.17,24.67,-1.00,-1.0,2454
2079,2137079,19752,-788,1924,19861.12,24.58,-1.00,-1.0,2361
2082,2137082,17160,400,1320,17215.34,24.62,-1.00,-1.0,2454
2085,2137085,14164,1452,788,14260.02,24.58,-1.00,-1.0,2366
2088,2137088,20960,-1396,1140,21037.35,24.58,-1.00,-1.0,2448
2090,2137090,5064,-2220,24,5529.29,24.67,-1.00,-1.0,2365
2093,2137093,28876,-348,1884,28939.49,24.62,-1.00,-1.0,2454
2096,2137096,5968,-224,-1684,6205.08,24.58,-1.00,-1.0,2365
2101,2137101,17976,-1644,-96,18051.28,24.58,-1.00,-1.0,2451
2103,2137103,14528,-1148,1208,14623.27,24.72,-1.00,-1.0,2367
2106,2137106,27992,-1364,2176,28109.56,24.62,-1.00,-1.0,2361
2109,2137109,6592,-644,-908,6685.33,24.58,-1.00,-1.0,2444
2111,2137111,27816,776,2044,27901.79,24.62,-1.00,-1.0,2362
2114,2137114,13396,-1336,-620,13476.72,24.67,-1.00,-1.0,2438
2117,2137117,18600,-152,1088,18632.41,24.62,-1.00,-1.0,2363
2120,2137120,17072,-760,836,17109.35,24.53,-1.00,-1.0,2437
2123,2137123,15500,152,836,15523.27,24.62,-1.00,-1.0,2360
2128,2137128,5968,-1184,-172,6086.75,24.58,-1.00,-1.0,2454
2130,2137130,28200,-12,1300,28229.95,24.67,-1.00,-1.0,2359
2133,2137133,6224,-1016,-732,6348.72,24.62,-1.00,-1.0,2446
2136,2137136,18872,472,1116,18910.86,24.67,-1.00,-1.0,2358
2139,2137139,17464,-1140,492,17508.08,24.72,-1.00,-1.0,2445
2141,2137141,14484,16,1548,14566.50,24.58,-1.00,-1.0,2360
2144,2137144,27128,244,1600,27176.24,24.62,-1.00,-1.0,2369
2147,2137147,7356,432,744,7406.14,24.62,-1.00,-1.0,2438
2150,2137150,26908,-1580,2148,27039.80,24.62,-1.00,-1.0,2363
2155,2137155,21624,760,-576,21645.02,24.58,-1.00,-1.0,2447
2158,2137158,13828,-184,-800,13852.34,24.58,-1.00,-1.0,2371
2161,2137161,18940,-792,708,18969.77,24.67,-1.00,-1.0,2431
2163,2137163,26020,-2260,2988,26288.33,24.58,-1.00,-1.0,2364
2166,2137166,7068,-872,696,7155.52,24.67,-1.00,-1.0,2432
2169,2137169,26752,1272,1816,26843.72,24.67,-1.00,-1.0,2365
2171,2137171,6224,836,592,6307.74,24.67,-1.00,-1.0,2432
2174,2137174,23720,-788,-224,23734.14,24.67,-1.00,-1.0,2364
2179,2137179,9672,-104,1960,9869.14,24.77,-1.00,-1.0,2455
2182,2137182,24556,1680,2580,24748.25,24.62,-1.00,-1.0,2347
2184,2137184,7348,192,1312,7466.68,24.77,-1.00,-1.0,2361
2187,2137187,26920,-1400,1148,26980.81,24.67,-1.00,-1.0,2432
2190,2137190,8792,-2996,416,9297.76,24.67,-1.00,-1.0,2367
2193,2137193,24108,1240,1032,24161.92,24.58,-1.00,-1.0,2437
2195,2137195,8620,1480,-508,8760.87,24.58,-1.00,-1.0,2361
2198,2137198,14808,1016,628,14856.09,24.67,-1.00,-1.0,2438
2201,2137201,21548,-4544,1104,22049.56,24.67,-1.00,-1.0,2360
2206,2137206,27924,1628,-360,27973.73,24.53,-1.00,-1.0,2448
2209,2137209,6856,636,-944,6949.85,24.53,-1.00,-1.0,2367
2211,2137211,27696,-3580,964,27943.05,24.67,-1.00,-1.0,2448
2214,2137214,19228,-4460,2192,19859.82,24.62,-1.00,-1.0,2374
2217,2137217,13360,960,-696,13412.52,24.67,-1.00,-1.0,2438
2220,2137220,20472,3964,-1048,20878.56,24.62,-1.00,-1.0,2364
2222,2137222,6600,1196,-1356,6843.18,24.67,-1.00,-1.0,2362
2225,2137225,27696,-4480,4892,28479.30,24.62,-1.00,-1.0,2432
2228,2137228,6452,-4900,1640,8266.07,24.67,-1.00,-1.0,2363
2233,2137233,17476,4644,-1696,18161.88,24.77,-1.00,-1.0,2450
2236,2137236,13996,1640,1656,14188.73,24.62,-1.00,-1.0,2425
2239,2137239,22160,-5424,3408,23067.29,24.58,-1.00,-1.0,2446
2241,2137241,10368,-2608,2668,11018.86,24.62,-1.00,-1.0,2381
2244,2137244,29456,832,904,29481.61,24.67,-1.00,-1.0,2433
2247,2137247,3912,3108,-1560,5234.22,24.62,-1.00,-1.0,2381
2250,2137250,27644,1668,1376,27728.44,24.67,-1.00,-1.0,2434
2252,2137252,7908,-4812,572,9274.64,24.62,-1.00,-1.0,2379
2257,2137257,22416,-1108,-564,22450.45,24.62,-1.00,-1.0,2441
2260,2137260,3540,2832,-484,4559.18,24.62,-1.00,-1.0,2359
2263,2137263,29564,2684,604,29691.73,24.62,-1.00,-1.0,2448
2265,2137265,4936,-2908,1552,5935.42,24.67,-1.00,-1.0,2360
2268,2137268,18936,-3980,1900,19442.80,24.62,-1.00,-1.0,2369
2271,2137271,18280,-2776,-56,18489.66,24.58,-1.00,-1.0,2439
2273,2137273,13992,3564,-1492,14515.65,24.62,-1.00,-1.0,2359
2276,2137276,21524,1796,-1212,21632.78,24.67,-1.00,-1.0,2451
2279,2137279,4280,-972,1232,4558.62,24.62,-1.00,-1.0,2360
2284,2137284,13892,-4340,1240,14606.88,24.58,-1.00,-1.0,2452
2286,2137286,17228,3028,-92,17492.32,24.77,-1.00,-1.0,2359
2289,2137289,17484,2176,-2432,17785.95,24.67,-1.00,-1.0,2452
2292,2137292,5984,1104,892,6150.02,24.67,-1.00,-1.0,2367
2295,2137295,28592,-5496,2356,29210.60,24.67,-1.00,-1.0,2440
2297,2137297,5916,-2716,1720,6733.06,24.62,-1.00,-1.0,2359
2300,2137300,27240,5244,3820,28001.96,24.67,-1.00,-1.0,2450
2303,2137303,12964,2600,-3620,13708.75,24.72,-1.00,-1.0,2360
2308,2137308,26888,-6944,2140,27852.53,24.67,-1.00,-1.0,2448
2311,2137311,6832,-2336,1852,7454.06,24.58,-1.00,-1.0,2367
2313,2137313,26976,5500,2404,27635.73,24.58,-1.00,-1.0,2452
2316,2137316,8720,3140,-2896,9710.04,24.67,-1.00,-1.0,2375
2319,2137319,24844,-1896,1868,24986.17,24.53,-1.00,-1.0,2361
2321,2137321,11752,-7600,1192,14046.01,24.72,-1.00,-1.0,2430
2324,2137324,20204,816,-2820,20416.17,24.72,-1.00,-1.0,2369
2327,2137327,24852,5644,1708,25542.00,24.58,-1.00,-1.0,2446
2330,2137330,4664,3256,1568,5900.26,24.58,-1.00,-1.0,2365
2335,2137335,9236,-8364,1396,12538.30,24.67,-1.00,-1.0,2442
2338,2137338,22336,1576,-2712,22555.17,24.72,-1.00,-1.0,2366
2340,2137340,14504,6940,-2044,16208.26,24.67,-1.00,-1.0,2434
2343,2137343,16652,1100,3900,17137.94,24.62,-1.00,-1.0,2364
2346,2137346,30156,-7740,3700,31352.54,24.67,-1.00,-1.0,2431
2349,2137349,3960,-5668,3400,7705.05,24.62,-1.00,-1.0,2366
2351,2137351,29072,4592,-2420,29531.75,24.72,-1.00,-1.0,2417
2354,2137354,3648,5764,-4152,7985.66,24.62,-1.00,-1.0,2364
2359,2137359,17748,-10064,3892,20770.73,24.72,-1.00,-1.0,2451
2362,2137362,4236,-6712,2756,8401.80,24.67,-1.00,-1.0,2348
2364,2137364,31492,3024,-3624,31843.74,24.62,-1.00,-1.0,2363
2367,2137367,3588,5812,-4524,8192.66,24.62,-1.00,-1.0,2433
2370,2137370,18880,3160,2380,19290.01,24.53,-1.00,-1.0,2368
2373,2137373,18364,-7180,3964,20112.24,24.62,-1.00,-1.0,2436
2375,2137375,13148,-3848,5484,14756.40,24.72,-1.00,-1.0,2362
2378,2137378,22580,1296,-1624,22675.39,24.62,-1.00,-1.0,2437
2381,2137381,7984,7348,-1548,10960.55,24.62,-1.00,-1.0,2375
2386,2137386,16784,-4028,548,17269.27,24.67,-1.00,-1.0,2440
2389,2137389,15676,-5584,5884,17650.48,24.58,-1.00,-1.0,2362
2392,2137392,21168,-2424,284,21308.23,24.62,-1.00,-1.0,2440
2394,2137394,10148,7428,328,12580.33,24.67,-1.00,-1.0,2362
2397,2137397,29676,4796,-1736,30111.13,24.58,-1.00,-1.0,2436
2400,2137400,4264,-2804,276,5110.80,24.67,-1.00,-1.0,2372
2403,2137403,29640,-6104,3992,30524.16,24.67,-1.00,-1.0,2432
2405,2137405,7236,-2104,-428,7547.83,24.58,-1.00,-1.0,2368
2410,2137410,23328,4524,-2120,23857.00,24.67,-1.00,-1.0,2427
2413,2137413,4092,-108,8,4093.43,24.72,-1.00,-1.0,2362
2415,2137415,29128,-5660,5636,30203.32,24.67,-1.00,-1.0,2360
2418,2137418,6620,-5056,-948,8383.69,24.58,-1.00,-1.0,2437
2421,2137421,16476,3636,448,16878.38,24.67,-1.00,-1.0,2365
2424,2137424,18708,4148,-4016,19578.65,24.67,-1.00,-1.0,2443
2426,2137426,13276,332,1336,13347.18,24.67,-1.00,-1.0,2360
2429,2137429,23592,-7696,2620,24953.46,24.58,-1.00,-1.0,2437
2432,2137432,9408,-1068,2004,9678.18,24.62,-1.00,-1.0,2362
2437,2137437,4892,4052,-2020,6665.64,24.62,-1.00,-1.0,2451
2440,2137440,17820,1908,632,17932.99,24.62,-1.00,-1.0,2367
2443,2137443,18584,-6972,1364,19895.59,24.62,-1.00,-1.0,2455
2445,2137445,14024,-2788,1280,14355.62,24.72,-1.00,-1.0,2370
2448,2137448,22484,2180,-1780,22659.46,24.67,-1.00,-1.0,2444
2451,2137451,4208,3524,-1144,5606.65,24.72,-1.00,-1.0,2362
2454,2137454,28100,-24,1816,28158.63,24.62,-1.00,-1.0,2450
2456,2137456,6172,-5276,912,8170.77,24.72,-1.00,-1.0,2361
2459,2137459,27840,-152,4408,28187.22,24.67,-1.00,-1.0,2361
2464,2137464,15696,2876,-2116,16097.00,24.58,-1.00,-1.0,2448
2467,2137467,28020,88,1080,28040.94,24.62,-1.00,-1.0,2365
2470,2137470,5532,-3344,996,6540.44,24.67,-1.00,-1.0,2452
2472,2137472,28316,-40,5236,28796.06,24.62,-1.00,-1.0,2371
2475,2137475,4756,300,1244,4925.15,24.67,-1.00,-1.0,2437
2478,2137478,20352,1364,-652,20408.07,24.62,-1.00,-1.0,2347
2481,2137481,15772,-1000,-292,15806.37,24.77,-1.00,-1.0,2449
2483,2137483,15808,-988,-2304,16005.54,24.72,-1.00,-1.0,2362
2489,2137489,5824,-1516,1836,6291.91,24.77,-1.00,-1.0,2443
2492,2137492,28140,-1548,2512,28294.28,24.62,-1.00,-1.0,2369
2494,2137494,6088,-572,-464,6132.39,24.58,-1.00,-1.0,2449
2497,2137497,25656,3684,476,25923.52,24.62,-1.00,-1.0,2376
2500,2137500,17348,924,-564,17381.74,24.77,-1.00,-1.0,2361
2502,2137502,16436,-3476,1780,16893.58,24.67,-1.00,-1.0,2430
2505,2137505,20832,-5428,1720,21596.15,24.67,-1.00,-1.0,2367
2508,2137508,5848,-652,856,5946.17,24.58,-1.00,-1.0,2430
2511,2137511,26460,6212,1256,27208.42,24.67,-1.00,-1.0,2366
2515,2137515,21168,-3580,1536,21523.47,24.62,-1.00,-1.0,2441
2518,2137518,16192,-7864,1888,18099.39,24.67,-1.00,-1.0,2360
2521,2137521,14792,3424,-780,15203.14,24.62,-1.00,-1.0,2439
2524,2137524,27020,6452,-1536,27822.08,24.67,-1.00,-1.0,2365
2526,2137526,4608,1876,-56,4975.56,24.62,-1.00,-1.0,2432
2529,2137529,30152,-7356,4008,31294.05,24.58,-1.00,-1.0,2366
2532,2137532,14376,-8712,3020,17078.90,24.58,-1.00,-1.0,2417
2535,2137535,17640,2944,-944,17908.88,24.77,-1.00,-1.0,2368
2540,2137540,6928,3796,-1436,8029.25,24.67,-1.00,-1.0,2445
2542,2137542,28144,-7248,5256,29533.77,24.58,-1.00,-1.0,2365
2545,2137545,5484,-7268,3428,9728.79,24.58,-1.00,-1.0,2437
2548,2137548,21536,400,-904,21558.68,24.67,-1.00,-1.0,2366
2550,2137550,14324,6716,-3580,16220.30,24.67,-1.00,-1.0,2368
2553,2137553,16008,3544,1704,16483.92,24.58,-1.00,-1.0,2431
2556,2137556,27376,-5508,2624,28047.62,24.67,-1.00,-1.0,2368
2559,2137559,6032,-7044,4036,10113.96,24.67,-1.00,-1.0,2441
2561,2137561,28808,816,472,28823.42,24.58,-1.00,-1.0,2373
2566,2137566,19784,4384,-1088,20293.10,24.67,-1.00,-1.0,2449
2569,2137569,17664,-4992,1404,18409.46,24.58,-1.00,-1.0,2368
2572,2137572,6360,-5732,2696,8976.29,24.67,-1.00,-1.0,2442
2575,2137575,29144,-780,2556,29266.27,24.67,-1.00,-1.0,2359
2577,2137577,4108,3232,-872,5299.23,24.67,-1.00,-1.0,2449
2580,2137580,28216,2212,1232,28329.37,24.67,-1.00,-1.0,2368
2583,2137583,14548,-2516,40,14764.02,24.67,-1.00,-1.0,2444
2585,2137585,17472,-3448,960,17834.83,24.67,-1.00,-1.0,2359
2591,2137591,4424,1488,1444,4885.80,24.62,-1.00,-1.0,2442
2593,2137593,28368,2080,-280,28445.53,24.62,-1.00,-1.0,2363
2596,2137596,6132,-272,-460,6155.24,24.62,-1.00,-1.0,2361
2599,2137599,20728,-1264,1952,20858.04,24.58,-1.00,-1.0,2442
2601,2137601,15932,-4328,-376,16513.68,24.72,-1.00,-1.0,2360
2604,2137604,17076,260,456,17084.07,24.58,-1.00,-1.0,2440
2607,2137607,18628,480,-1420,18688.21,24.62,-1.00,-1.0,2360
2610,2137610,5768,1444,-920,6016.76,24.67,-1.00,-1.0,2443
2612,2137612,28536,-812,2732,28677.98,24.72,-1.00,-1.0,2359
2617,2137617,19308,-2076,-12,19419.29,24.62,-1.00,-1.0,2452
2620,2137620,16528,408,-3188,16837.59,24.67,-1.00,-1.0,2368
2623,2137623,17224,2788,-1136,17485.12,24.62,-1.00,-1.0,2440
2626,2137626,27116,-864,1184,27155.59,24.53,-1.00,-1.0,2425
2629,2137629,6192,-3164,1600,7135.25,24.72,-1.00,-1.0,2449
2631,2137631,28668,-404,3228,28851.99,24.67,-1.00,-1.0,2376
2634,2137634,4524,908,-96,4615.22,24.62,-1.00,-1.0,2359
2637,2137637,19884,1864,156,19971.79,24.62,-1.00,-1.0,2426
2639,2137639,15820,-2200,892,15997.13,24.62,-1.00,-1.0,2378
2644,2137644,28528,-72,2168,28610.35,24.62,-1.00,-1.0,2448
2647,2137647,4924,872,520,5027.58,24.67,-1.00,-1.0,2368
2650,2137650,28588,884,2008,28672.06,24.62,-1.00,-1.0,2444
2653,2137653,13548,-2384,-376,13761.29,24.67,-1.00,-1.0,2360
2655,2137655,18608,-1092,200,18641.09,24.62,-1.00,-1.0,2447
2658,2137658,17580,-836,-604,17610.23,24.67,-1.00,-1.0,2360
2661,2137661,14996,732,28,15013.88,24.72,-1.00,-1.0,2446
2663,2137663,27892,-188,2100,27971.57,24.77,-1.00,-1.0,2358
2668,2137668,21876,108,2072,21974.17,24.67,-1.00,-1.0,2443
2671,2137671,11904,-484,-684,11933.45,24.67,-1.00,-1.0,2360
2674,2137674,10880,1024,152,10929.14,24.77,-1.00,-1.0,2368
2677,2137677,25220,-2608,1124,25379.39,24.67,-1.00,-1.0,2433
2679,2137679,7284,-708,1004,7386.88,24.77,-1.00,-1.0,2366
2682,2137682,26864,2032,1520,26983.59,24.67,-1.00,-1.0,2430
2685,2137685,8512,96,272,8516.89,24.67,-1.00,-1.0,2365
2687,2137687,24356,-2036,1604,24493.53,24.67,-1.00,-1.0,2432
2690,2137690,11208,-2196,848,11452.54,24.72,-1.00,-1.0,2360
2695,2137695,22588,2056,-608,22689.53,24.67,-1.00,-1.0,2440
2698,2137698,11832,-904,772,11891.57,24.62,-1.00,-1.0,2360
2701,2137701,25388,-3340,2732,25752.09,24.67,-1.00,-1.0,2437
2703,2137703,9000,-1820,1376,9284.71,24.62,-1.00,-1.0,2347
2706,2137706,23800,2280,12,23908.96,24.67,-1.00,-1.0,2438
2709,2137709,9588,776,-416,9628.34,24.72,-1.00,-1.0,2360
2711,2137711,16128,-788,1336,16202.41,24.67,-1.00,-1.0,2360
2714,2137714,19884,-4804,1332,20499.42,24.67,-1.00,-1.0,2432
2717,2137717,12640,-552,-1484,12738.78,24.67,-1.00,-1.0,2366
2722,2137722,6100,1916,1836,6652.21,24.58,-1.00,-1.0,2443
2725,2137725,25988,-3492,2860,26377.07,24.67,-1.00,-1.0,2359
2728,2137728,16148,-5192,768,16979.54,24.67,-1.00,-1.0,2446
2730,2137730,16248,1172,-752,16307.56,24.67,-1.00,-1.0,2360
2733,2137733,18244,3620,-2652,18787.79,24.67,-1.00,-1.0,2437
2736,2137736,16120,-72,752,16137.69,24.67,-1.00,-1.0,2360
2739,2137739,26448,-5040,3552,27157.23,24.67,-1.00,-1.0,2437
2741,2137741,6984,-3224,2004,7948.99,24.67,-1.00,-1.0,2360
2746,2137746,13188,3612,-3232,14050.47,24.67,-1.00,-1.0,2443
2749,2137749,20668,-1688,732,20749.73,24.58,-1.00,-1.0,2362
2752,2137752,16632,-7136,1608,18169.52,24.67,-1.00,-1.0,2442
2755,2137755,7436,-2464,2140,8120.65,24.58,-1.00,-1.0,2367
2757,2137757,25656,5240,792,26197.62,24.67,-1.00,-1.0,2433
2760,2137760,5812,2704,104,6411.07,24.58,-1.00,-1.0,2372
2763,2137763,23192,-2360,1916,23390.37,24.58,-1.00,-1.0,2360
2765,2137765,13440,-7836,1204,15604.04,24.62,-1.00,-1.0,2431
2768,2137768,18964,2228,500,19100.98,24.62,-1.00,-1.0,2366
2773,2137773,8784,2716,-1508,9317.16,24.67,-1.00,-1.0,2440
2776,2137776,26740,-5164,4452,27595.56,24.67,-1.00,-1.0,2359
2779,2137779,7988,-4152,3692,9730.27,24.58,-1.00,-1.0,2427
2782,2137782,23772,288,-824,23788.02,24.67,-1.00,-1.0,2366
2784,2137784,10144,4144,-3416,11477.92,24.67,-1.00,-1.0,2430
2787,2137787,22592,872,-140,22609.26,24.58,-1.00,-1.0,2367
2790,2137790,13836,-6272,1796,15297.01,24.58,-1.00,-1.0,2440
2793,2137793,9892,-4200,1984,10928.31,24.58,-1.00,-1.0,2363
2798,2137798,8084,2464,-1016,8512.03,24.72,-1.00,-1.0,2440
2800,2137800,25428,276,748,25440.50,24.62,-1.00,-1.0,2361
2803,2137803,9348,-3772,864,10117.29,24.58,-1.00,-1.0,2366
2806,2137806,13732,-1248,652,13804.00,24.58,-1.00,-1.0,2447
2808,2137808,22644,652,112,22653.66,24.58,-1.00,-1.0,2374
2811,2137811,9804,992,644,9875.08,24.67,-1.00,-1.0,2438
2814,2137814,24628,-1240,2308,24766.97,24.77,-1.00,-1.0,2372
2817,2137817,8472,-2340,204,8791.59,24.67,-1.00,-1.0,2443
2819,2137819,25664,-604,476,25675.52,24.62,-1.00,-1.0,2365
2824,2137824,13744,868,932,13802.88,24.72,-1.00,-1.0,2440
2827,2137827,21688,-688,612,21707.54,24.62,-1.00,-1.0,2346
2830,2137830,10276,192,1544,10393.12,24.72,-1.00,-1.0,2440
2833,2137833,24616,-616,1332,24659.71,24.72,-1.00,-1.0,2366
2835,2137835,6940,-1444,-24,7088.67,24.62,-1.00,-1.0,2417
2838,2137838,26480,-216,1300,26512.77,24.62,-1.00,-1.0,2365
2841,2137841,8652,-604,-636,8696.34,24.62,-1.00,-1.0,2354
2844,2137844,14560,996,536,14603.87,24.67,-1.00,-1.0,2447
2847,2137847,20888,-1404,572,20942.95,24.67,-1.00,-1.0,2361
2851,2137851,27752,-196,1832,27813.09,24.67,-1.00,-1.0,2440
2854,2137854,6300,208,1256,6427.35,24.72,-1.00,-1.0,2361
2857,2137857,26632,368,2932,26795.44,24.67,-1.00,-1.0,2440
2860,2137860,7172,-1800,656,7423.47,24.62,-1.00,-1.0,2365
2862,2137862,16400,-536,-40,16408.80,24.67,-1.00,-1.0,2430
2865,2137865,19192,-328,-176,19195.61,24.53,-1.00,-1.0,2363
2868,2137868,12944,1648,1268,13109.95,24.62,-1.00,-1.0,2431
2871,2137871,22216,-1140,2240,22357.72,24.62,-1.00,-1.0,2365
2876,2137876,27624,-824,2080,27714.45,24.62,-1.00,-1.0,2443
2878,2137878,15652,-1360,-1244,15760.15,24.62,-1.00,-1.0,2367
2881,2137881,16460,2044,456,16592.69,24.72,-1.00,-1.0,2361
2884,2137884,18560,-880,792,18597.72,24.67,-1.00,-1.0,2447
2886,2137886,6600,-1288,1084,6811.31,24.72,-1.00,-1.0,2361
2889,2137889,27072,-1260,2844,27250.12,24.67,-1.00,-1.0,2437
2892,2137892,6192,-48,396,6204.84,24.72,-1.00,-1.0,2360
2895,2137895,27912,1148,1060,27955.70,24.72,-1.00,-1.0,2435
2898,2137898,6372,-1072,436,6476.24,24.62,-1.00,-1.0,2365
2902,2137902,25968,-1380,1392,26041.87,24.62,-1.00,-1.0,2443
2905,2137905,7552,720,1140,7671.42,24.62,-1.00,-1.0,2362
2908,2137908,26496,712,1284,26536.65,24.62,-1.00,-1.0,2441
2911,2137911,5976,-824,1140,6139.31,24.72,-1.00,-1.0,2368
2913,2137913,23632,-1752,328,23699.12,24.62,-1.00,-1.0,2431
2916,2137916,12272,-2120,232,12455.93,24.67,-1.00,-1.0,2420
2919,2137919,20100,888,308,20121.96,24.67,-1.00,-1.0,2358
2922,2137922,15824,-360,-208,15829.46,24.62,-1.00,-1.0,2430
2925,2137925,16628,-212,1080,16664.38,24.72,-1.00,-1.0,2373
2929,2137929,9824,-1892,436,10014.03,24.67,-1.00,-1.0,2441
2932,2137932,23148,436,2076,23244.99,24.72,-1.00,-1.0,2359
2935,2137935,10756,-212,-112,10758.67,24.67,-1.00,-1.0,2440
2938,2137938,22204,-296,-552,22212.83,24.72,-1.00,-1.0,2366
2940,2137940,22028,-904,2156,22151.71,24.77,-1.00,-1.0,2430
2943,2137943,9888,-104,1480,9998.69,24.62,-1.00,-1.0,2365
2946,2137946,25028,120,1664,25083.54,24.67,-1.00,-1.0,2431
2949,2137949,8152,140,1740,8336.80,24.62,-1.00,-1.0,2366
2954,2137954,10340,-900,756,10406.59,24.72,-1.00,-1.0,2444
2956,2137956,14024,-428,312,14034.00,24.62,-1.00,-1.0,2367
2959,2137959,20644,-1176,-16,20677.47,24.67,-1.00,-1.0,2360
2962,2137962,12592,-356,-28,12597.06,24.67,-1.00,-1.0,2446
2964,2137964,25248,-184,2528,25374.91,24.58,-1.00,-1.0,2361
2967,2137967,8224,-344,808,8270.75,24.67,-1.00,-1.0,2438
2970,2137970,25124,564,2072,25215.60,24.62,-1.00,-1.0,2359
2973,2137973,9376,-720,1272,9489.24,24.67,-1.00,-1.0,2445
2976,2137976,24064,-1284,1048,24121.01,24.67,-1.00,-1.0,2361
2981,2137981,15100,564,-928,15139.00,24.67,-1.00,-1.0,2443
2983,2137983,25672,1092,2384,25805.57,24.62,-1.00,-1.0,2368
2986,2137986,7672,-888,2296,8057.28,24.67,-1.00,-1.0,2441
2989,2137989,26172,-1760,2360,26337.06,24.62,-1.00,-1.0,2348
2992,2137992,7532,-364,-372,7549.96,24.67,-1.00,-1.0,2446
2994,2137994,19044,2208,196,19172.57,24.62,-1.00,-1.0,2368
2997,2137997,15620,-284,-328,15626.02,24.67,-1.00,-1.0,2360
3000,2138000,17632,-2620,1040,17855.91,24.67,-1.00,-1.0,2440
3003,2138003,18192,-2572,208,18374.09,24.67,-1.00,-1.0,2360
3008,2138008,25124,2300,816,25242.25,24.58,-1.00,-1.0,2444
3011,2138011,7704,-496,1792,7925.21,24.62,-1.00,-1.0,2367
3013,2138013,22340,-2868,532,22529.63,24.67,-1.00,-1.0,2443
3016,2138016,13256,-2688,84,13526.05,24.62,-1.00,-1.0,2376
3019,2138019,20256,1316,-1264,20338.02,24.67,-1.00,-1.0,2440
3022,2138022,15324,236,-1316,15382.21,24.62,-1.00,-1.0,2369
3024,2138024,9788,148,1996,9990.54,24.67,-1.00,-1.0,2440
3027,2138027,24216,-1912,2692,24440.07,24.72,-1.00,-1.0,2375
3032,2138032,23680,48,572,23686.96,24.62,-1.00,-1.0,2440
3035,2138035,11100,720,-96,11123.74,24.58,-1.00,-1.0,2371
3038,2138038,22112,192,316,22115.09,24.62,-1.00,-1.0,2435
3040,2138040,20928,-1468,1088,21007.62,24.62,-1.00,-1.0,2367
3043,2138043,12372,-1576,1516,12563.77,24.53,-1.00,-1.0,2362
3046,2138046,22348,-788,68,22361.99,24.67,-1.00,-1.0,2449
3048,2138048,8060,1200,992,8209.00,24.62,-1.00,-1.0,2362
3051,2138051,24652,804,700,24675.04,24.58,-1.00,-1.0,2451
3054,2138054,9080,-1732,792,9277.58,24.62,-1.00,-1.0,2368
3059,2138059,17296,-2024,-444,17419.68,24.67,-1.00,-1.0,2447
3061,2138061,15804,1220,-1152,15892.83,24.58,-1.00,-1.0,2360
3064,2138064,24748,908,856,24779.44,24.72,-1.00,-1.0,2441
3067,2138067,8064,-356,1900,8292.46,24.58,-1.00,-1.0,2360
3070,2138070,25404,-1396,2676,25582.67,24.48,-1.00,-1.0,2443
3072,2138072,12196,-1772,868,12354.59,24.67,-1.00,-1.0,2360
3075,2138075,21004,320,8,21006.44,24.62,-1.00,-1.0,2437
3078,2138078,13056,-104,-452,13064.24,24.58,-1.00,-1.0,2359
3081,2138081,20328,-580,380,20339.82,24.62,-1.00,-1.0,2371
3086,2138086,12276,-1848,-324,12418.54,24.62,-1.00,-1.0,2449
3088,2138088,22812,-592,-1096,22845.98,24.53,-1.00,-1.0,2359
3091,2138091,9092,1156,1920,9364.14,24.72,-1.00,-1.0,2443
3094,2138094,23404,-612,-132,23412.37,24.72,-1.00,-1.0,2363
3097,2138097,10668,-1412,604,10777.98,24.62,-1.00,-1.0,2445
3099,2138099,23924,-8,3032,24115.37,24.81,-1.00,-1.0,2360
3102,2138102,17296,-1564,-576,17376.12,24.62,-1.00,-1.0,2437
3105,2138105,16956,-604,-648,16979.12,24.67,-1.00,-1.0,2360
3110,2138110,10960,-88,-624,10978.10,24.58,-1.00,-1.0,2473
3113,2138113,22912,380,1012,22937.49,24.58,-1.00,-1.0,2368
3115,2138115,12560,-1144,1868,12749.58,24.67,-1.00,-1.0,2444
3118,2138118,20964,-2468,1952,21198.84,24.67,-1.00,-1.0,2364
3121,2138121,12748,-584,204,12763.00,24.67,-1.00,-1.0,2442
3124,2138124,20752,1892,-1440,20887.77,24.67,-1.00,-1.0,2361
3126,2138126,18416,1144,-664,18463.44,24.72,-1.00,-1.0,2361
3129,2138129,15708,-2428,1264,15944.72,24.62,-1.00,-1.0,2433
3132,2138132,20012,-3436,1680,20374.21,24.67,-1.00,-1.0,2366
3137,2138137,22888,4304,2424,23414.97,24.67,-1.00,-1.0,2451
3139,2138139,9056,1336,3192,9694.58,24.72,-1.00,-1.0,2365
3142,2138142,21972,-3436,16,22239.04,24.72,-1.00,-1.0,2439
3145,2138145,14736,-4100,820,15317.71,24.67,-1.00,-1.0,2358
3148,2138148,18072,2076,-1136,18226.29,24.72,-1.00,-1.0,2449
3150,2138150,22840,4756,-304,23331.90,24.62,-1.00,-1.0,2364
3153,2138153,10780,680,2020,10988.69,24.62,-1.00,-1.0,2447
3156,2138156,24716,-6420,2220,25632.51,24.58,-1.00,-1.0,2358
3161,2138161,23088,3184,-1072,23331.15,24.77,-1.00,-1.0,2453
3163,2138163,11184,3316,-1740,11794.29,24.58,-1.00,-1.0,2357
3166,2138166,13092,-124,1392,13166.38,24.77,-1.00,-1.0,2454
3169,2138169,22680,-6108,3308,23719.88,24.67,-1.00,-1.0,2358
3172,2138172,10640,-956,676,10704.23,24.58,-1.00,-1.0,2445
3174,2138174,23432,4756,-1520,23958.06,24.67,-1.00,-1.0,2356
3177,2138177,8888,3216,-344,9458.20,24.72,-1.00,-1.0,2374
3180,2138180,24264,-3416,2332,24614.00,24.62,-1.00,-1.0,2427
3183,2138183,11244,-5008,1868,12449.78,24.72,-1.00,-1.0,2364
3188,2138188,22284,3252,-2744,22686.60,24.62,-1.00,-1.0,2456
3191,2138191,11808,1160,-44,11864.92,24.67,-1.00,-1.0,2363
3193,2138193,23920,-4536,3420,24585.32,24.72,-1.00,-1.0,2450
3196,2138196,8700,-4464,412,9787.08,24.62,-1.00,-1.0,2374
3199,2138199,26348,1212,-524,26381.07,24.72,-1.00,-1.0,2440
3202,2138202,9460,1012,-2764,9907.34,24.67,-1.00,-1.0,2362
3204,2138204,23200,-288,484,23206.84,24.62,-1.00,-1.0,2447
3207,2138207,23340,-2856,2320,23628.26,24.53,-1.00,-1.0,2365
3212,2138212,28148,16,1756,28202.72,24.58,-1.00,-1.0,2447
3215,2138215,5644,728,-368,5702.64,24.58,-1.00,-1.0,2369
3217,2138217,27280,1064,252,27301.90,24.62,-1.00,-1.0,2359
3220,2138220,18808,-1492,872,18887.23,24.62,-1.00,-1.0,2455
3223,2138223,12176,-796,1680,12317.10,24.72,-1.00,-1.0,2365
3226,2138226,23324,-1556,768,23388.46,24.62,-1.00,-1.0,2453
3228,2138228,10164,372,-224,10173.27,24.72,-1.00,-1.0,2359
3231,2138231,28544,640,1788,28607.11,24.62,-1.00,-1.0,2455
3234,2138234,4764,-568,428,4816.79,24.67,-1.00,-1.0,2358
3239,2138239,17452,-2332,920,17631.13,24.72,-1.00,-1.0,2447
3242,2138242,14532,-1380,-1076,14636.98,24.62,-1.00,-1.0,2363
3244,2138244,21208,-272,-1092,21237.84,24.58,-1.00,-1.0,2434
3247,2138247,4168,1132,840,4399.91,24.62,-1.00,-1.0,2366
3250,2138250,28768,-444,828,28783.34,24.58,-1.00,-1.0,2441
3253,2138253,5648,-2132,432,6052.43,24.62,-1.00,-1.0,2364
3255,2138255,28832,-224,2304,28924.78,24.58,-1.00,-1.0,2436
3258,2138258,16616,-888,-768,16657.43,24.62,-1.00,-1.0,2378
3261,2138261,16480,812,-108,16500.35,24.67,-1.00,-1.0,2361
3266,2138266,5500,-1840,-1312,5946.17,24.58,-1.00,-1.0,2447
3269,2138269,28648,1516,3120,28857.24,24.67,-1.00,-1.0,2364
3271,2138271,7300,-176,736,7339.12,24.67,-1.00,-1.0,2434
3274,2138274,21692,-1072,984,21740.75,24.67,-1.00,-1.0,2363
3277,2138277,14036,-1820,-212,14155.09,24.67,-1.00,-1.0,2434
3280,2138280,19100,1232,-2488,19300.72,24.58,-1.00,-1.0,2364
3282,2138282,16152,-112,396,16157.24,24.67,-1.00,-1.0,2433
3285,2138285,8624,-1836,1728,8985.00,24.67,-1.00,-1.0,2370
3290,2138290,9716,-1248,924,9839.31,24.62,-1.00,-1.0,2463
3293,2138293,22348,2220,-2272,22572.63,24.62,-1.00,-1.0,2365
3296,2138296,10464,80,-192,10466.07,24.67,-1.00,-1.0,2449
3298,2138298,24364,-4728,344,24820.89,24.72,-1.00,-1.0,2358
3301,2138301,23976,-5700,2820,24805.06,24.67,-1.00,-1.0,2363
3304,2138304,7336,1776,268,7552.67,24.67,-1.00,-1.0,2438
3306,2138306,25496,6552,456,26328.36,24.67,-1.00,-1.0,2371
3309,2138309,8832,1336,-1900,9132.31,24.67,-1.00,-1.0,2435
3312,2138312,26080,-6832,3648,27205.71,24.62,-1.00,-1.0,2362
3318,2138318,21060,6120,-3712,22243.13,24.72,-1.00,-1.0,2463
3320,2138320,12980,7120,-3116,15128.92,24.67,-1.00,-1.0,2367
3323,2138323,8948,536,660,8988.30,24.67,-1.00,-1.0,2446
3326,2138326,27652,-10304,6728,30266.67,24.67,-1.00,-1.0,2360
3329,2138329,5348,-3548,3236,7187.57,24.67,-1.00,-1.0,2452
3331,2138331,27996,8420,-2872,29375.51,24.67,-1.00,-1.0,2367
3334,2138334,9688,7776,-4268,13135.42,24.67,-1.00,-1.0,2435
3337,2138337,20824,-1792,3976,21275.78,24.62,-1.00,-1.0,2365
3342,2138342,6516,-4880,2128,8414.33,24.58,-1.00,-1.0,2452
3344,2138344,28744,7180,-212,29627.94,24.67,-1.00,-1.0,2366
3347,2138347,6120,6404,-4000,9719.34,24.62,-1.00,-1.0,2361
3350,2138350,26260,-1344,752,26305.12,24.72,-1.00,-1.0,2444
3352,2138352,11456,-9096,2508,14841.40,24.58,-1.00,-1.0,2357
3355,2138355,20384,144,1552,20443.51,24.62,-1.00,-1.0,2440
3358,2138358,27680,5476,-688,28224.85,24.67,-1.00,-1.0,2360
3361,2138361,4816,4664,-348,6713.26,24.53,-1.00,-1.0,2437
3363,2138363,29908,-5236,1528,30401.30,24.58,-1.00,-1.0,2360
3368,2138368,23504,168,1132,23531.84,24.58,-1.00,-1.0,2455
3371,2138371,23548,3288,-1116,23802.62,24.67,-1.00,-1.0,2366
3374,2138374,9404,2648,1228,9846.58,24.67,-1.00,-1.0,2442
3377,2138377,26868,-5700,660,27473.90,24.58,-1.00,-1.0,2362
3379,2138379,5748,-1048,1836,6124.44,24.77,-1.00,-1.0,2447
3382,2138382,26048,2160,-1300,26169.71,24.67,-1.00,-1.0,2373
3385,2138385,10336,2016,-2136,10745.21,24.58,-1.00,-1.0,2440
3388,2138388,22632,-2564,4860,23289.51,24.67,-1.00,-1.0,2367
3393,2138393,7144,712,32,7179.46,24.58,-1.00,-1.0,2448
3395,2138395,26216,6748,120,27070.81,24.67,-1.00,-1.0,2360
3398,2138398,6744,2696,-2552,7698.22,24.67,-1.00,-1.0,2350
3401,2138401,26364,-5364,3532,27135.00,24.67,-1.00,-1.0,2444
3403,2138403,10548,-8148,632,13343.52,24.67,-1.00,-1.0,2372
3406,2138406,10208,2436,3328,11009.67,24.58,-1.00,-1.0,2444
3409,2138409,25060,6300,-3104,26025.53,24.67,-1.00,-1.0,2370
3412,2138412,5748,1628,1088,6072.37,24.58,-1.00,-1.0,2446
3414,2138414,28928,-7028,4180,30061.51,24.77,-1.00,-1.0,2366
3419,2138419,26272,2008,-436,26352.23,24.67,-1.00,-1.0,2447
3422,2138422,21516,4308,-1376,21986.14,24.67,-1.00,-1.0,2357
3425,2138425,8644,2276,216,8941.23,24.67,-1.00,-1.0,2446
3427,2138427,27016,-4452,4004,27671.58,24.58,-1.00,-1.0,2358
3430,2138430,5328,-2996,3532,7059.65,24.67,-1.00,-1.0,2443
3433,2138433,29236,708,1632,29290.07,24.67,-1.00,-1.0,2359
3436,2138436,7104,2116,-4388,8613.87,24.58,-1.00,-1.0,2361
3438,2138438,24284,1968,1068,24387.01,24.58,-1.00,-1.0,2448
3441,2138441,10860,-5040,924,12008.12,24.62,-1.00,-1.0,2364
3446,2138446,27544,-1132,1204,27593.53,24.67,-1.00,-1.0,2449
3449,2138449,4596,832,-2340,5224.08,24.58,-1.00,-1.0,2357
3452,2138452,27988,3356,-1172,28212.84,24.58,-1.00,-1.0,2447
3454,2138454,7880,-2368,-592,8249.38,24.67,-1.00,-1.0,2360
3457,2138457,24860,-2960,4532,25442.49,24.67,-1.00,-1.0,2443
3460,2138460,25148,-4480,868,25558.67,24.58,-1.00,-1.0,2357
3463,2138463,6176,2364,-104,6613.80,24.67,-1.00,-1.0,2450
3465,2138465,28668,3844,-752,28934.34,24.67,-1.00,-1.0,2359
3470,2138470,26448,-2980,4560,27003.16,24.62,-1.00,-1.0,2446
3473,2138473,9868,-5292,248,11200.19,24.62,-1.00,-1.0,2357
3476,2138476,7800,964,568,7879.84,24.58,-1.00,-1.0,2439
3479,2138479,27384,3836,-1880,27715.21,24.72,-1.00,-1.0,2364
3481,2138481,5240,836,1268,5455.67,24.58,-1.00,-1.0,2356
3484,2138484,29520,-2492,4280,29932.57,24.67,-1.00,-1.0,2438
3487,2138487,7224,-5384,252,9013.17,24.67,-1.00,-1.0,2364
3489,2138489,23880,2392,1504,24046.58,24.58,-1.00,-1.0,2433
3492,2138492,10884,2216,-2496,11384.29,24.67,-1.00,-1.0,2363
3497,2138497,26244,-5180,2388,26856.70,24.72,-1.00,-1.0,2454
3500,2138500,5988,-4224,1252,7434.10,24.72,-1.00,-1.0,2345
3503,2138503,27240,1920,1820,27368.16,24.62,-1.00,-1.0,2449
3505,2138505,7272,1200,-2400,7751.26,24.62,-1.00,-1.0,2366
3508,2138508,24904,-428,1320,24942.63,24.62,-1.00,-1.0,2447
3511,2138511,24120,-3052,2984,24494.76,24.72,-1.00,-1.0,2346
3514,2138514,8224,-1120,1848,8503.16,24.62,-1.00,-1.0,2448
3516,2138516,26684,872,-444,26701.94,24.58,-1.00,-1.0,2359
3521,2138521,27008,280,2096,27090.66,24.62,-1.00,-1.0,2442
3524,2138524,20788,-2780,1852,21054.67,24.62,-1.00,-1.0,2362
3526,2138526,10840,-1704,1968,11148.19,24.67,-1.00,-1.0,2363
3529,2138529,24572,-916,-624,24596.98,24.67,-1.00,-1.0,2432
3532,2138532,4440,1688,-980,4850.09,24.62,-1.00,-1.0,2364
3535,2138535,27824,2868,3116,28144.45,24.67,-1.00,-1.0,2437
3537,2138537,7264,-2552,1904,7931.18,24.62,-1.00,-1.0,2371
3540,2138540,25792,-3612,2608,26173.95,24.72,-1.00,-1.0,2440
3543,2138543,9080,-816,-1104,9183.20,24.58,-1.00,-1.0,2364
3548,2138548,23772,2456,1316,23934.74,24.62,-1.00,-1.0,2446
3551,2138551,5384,-2832,72,6083.82,24.53,-1.00,-1.0,2358
3554,2138554,29168,-4280,2996,29632.19,24.62,-1.00,-1.0,2440
3556,2138556,7688,-1464,796,7866.53,24.58,-1.00,-1.0,2361
3559,2138559,23096,4964,1048,23646.67,24.62,-1.00,-1.0,2438
3562,2138562,23256,2492,-2472,23519.40,24.72,-1.00,-1.0,2370
3564,2138564,12492,-1796,1856,12756.19,24.72,-1.00,-1.0,2434
3567,2138567,24388,-6984,1236,25398.40,24.58,-1.00,-1.0,2364
3570,2138570,6380,2340,184,6798.08,24.67,-1.00,-1.0,2357
3575,2138575,7160,1432,-352,7310.28,24.58,-1.00,-1.0,2446
3578,2138578,13912,-3888,4200,15043.28,24.67,-1.00,-1.0,2358
3581,2138581,22688,-8768,3080,24517.54,24.62,-1.00,-1.0,2444
3583,2138583,9768,3188,-2976,10697.37,24.67,-1.00,-1.0,2357
3586,2138586,24760,9192,-2736,26552.52,24.77,-1.00,-1.0,2426
3589,2138589,5544,3028,-12,6317.03,24.67,-1.00,-1.0,2361
3592,2138592,28828,-9440,5692,30863.67,24.67,-1.00,-1.0,2431
3594,2138594,8596,-8164,2516,12119.09,24.67,-1.00,-1.0,2370
3599,2138599,22024,11300,-5408,25337.58,24.67,-1.00,-1.0,2457
3602,2138602,9732,-456,224,9745.25,24.58,-1.00,-1.0,2373
3605,2138605,27832,-9888,7252,30413.55,24.77,-1.00,-1.0,2428
3608,2138608,8208,-10528,3196,13726.78,24.53,-1.00,-1.0,2359
3610,2138610,24384,6432,-4764,25664.10,24.67,-1.00,-1.0,2451
3613,2138613,10000,10476,-5152,15371.72,24.62,-1.00,-1.0,2367
3616,2138616,11784,2056,640,11979.12,24.58,-1.00,-1.0,2363
3618,2138618,25760,-14476,6160,30184.06,24.58,-1.00,-1.0,2435
3621,2138621,6952,-5176,3704,9425.54,24.67,-1.00,-1.0,2374
3626,2138626,8752,10720,-6384,15240.45,24.72,-1.00,-1.0,2449
3629,2138629,22464,-2120,3728,22869.71,24.72,-1.00,-1.0,2357
3632,2138632,26932,-13716,6004,30814.11,24.67,-1.00,-1.0,2447
3634,2138634,6360,-6184,4348,9879.10,24.62,-1.00,-1.0,2359
3637,2138637,27772,9532,-1424,29396.78,24.67,-1.00,-1.0,2442
3640,2138640,3708,7840,-1880,8874.08,24.62,-1.00,-1.0,2357
3643,2138643,25596,-1004,1880,25684.58,24.62,-1.00,-1.0,2442
3645,2138645,12596,-12456,3036,17972.99,24.62,-1.00,-1.0,2358
3650,2138650,27060,7616,-1180,28136.09,24.62,-1.00,-1.0,2449
3653,2138653,5144,5456,-1668,7681.85,24.58,-1.00,-1.0,2357
3656,2138656,28644,-6952,3228,29651.80,24.62,-1.00,-1.0,2439
3659,2138659,11100,-8760,4072,14714.92,24.67,-1.00,-1.0,2365
3661,2138661,21204,916,-208,21224.79,24.62,-1.00,-1.0,2433
3664,2138664,15284,6096,-2768,16686.03,24.67,-1.00,-1.0,2350
3667,2138667,16572,1592,1520,16717.54,24.62,-1.00,-1.0,2440
3670,2138670,26524,-6008,1832,27257.56,24.67,-1.00,-1.0,2362
3672,2138672,8668,-4344,2176,9936.78,24.77,-1.00,-1.0,2369
3677,2138677,15784,3428,-1604,16231.41,24.67,-1.00,-1.0,2456
3680,2138680,13892,1364,2448,14171.83,24.58,-1.00,-1.0,2374
3683,2138683,22832,-5372,1624,23511.61,24.53,-1.00,-1.0,2441
3686,2138686,8040,-3516,432,8785.81,24.58,-1.00,-1.0,2365
3688,2138688,26116,1628,1648,26218.54,24.62,-1.00,-1.0,2450
3691,2138691,8436,924,-1636,8642.71,24.67,-1.00,-1.0,2373
3694,2138694,22528,416,2216,22640.55,24.72,-1.00,-1.0,2439
3697,2138697,21976,-2172,2376,22210.53,24.67,-1.00,-1.0,2363
3702,2138702,27096,-1480,372,27138.94,24.58,-1.00,-1.0,2447
3704,2138704,6884,1040,-1224,7068.89,24.67,-1.00,-1.0,2359
3707,2138707,24748,1944,-1244,24855.38,24.67,-1.00,-1.0,2438
3710,2138710,21172,604,3348,21443.59,24.58,-1.00,-1.0,2370
3713,2138713,10840,-3024,4108,11980.23,24.67,-1.00,-1.0,2434
3715,2138715,25404,-3592,1212,25685.30,24.58,-1.00,-1.0,2366
3718,2138718,6688,736,-276,6734.03,24.58,-1.00,-1.0,2362
3721,2138721,23732,4044,-2688,24223.69,24.62,-1.00,-1.0,2452
3723,2138723,11188,-1656,-2432,11568.42,24.62,-1.00,-1.0,2358
3728,2138728,25696,-7324,1668,26771.39,24.67,-1.00,-1.0,2449
3731,2138731,5748,3896,-524,6963.68,24.58,-1.00,-1.0,2357
3734,2138734,25816,7648,-2640,27054.16,24.67,-1.00,-1.0,2446
3736,2138736,10752,2440,-804,11054.66,24.67,-1.00,-1.0,2359
3739,2138739,22040,-8100,8140,24852.19,24.67,-1.00,-1.0,2438
3742,2138742,15224,-8968,1528,17734.99,24.62,-1.00,-1.0,2359
3745,2138745,7088,4444,-688,8394.18,24.67,-1.00,-1.0,2445
3747,2138747,23592,12800,-3672,27090.70,24.58,-1.00,-1.0,2359
3752,2138752,21720,-10028,8508,25391.05,24.58,-1.00,-1.0,2449
3755,2138755,15684,-14760,3536,21825.42,24.58,-1.00,-1.0,2359
3758,2138758,8464,1668,1520,8759.68,24.58,-1.00,-1.0,2441
3760,2138760,24032,15348,-5652,29069.63,24.58,-1.00,-1.0,2360
3763,2138763,8688,5556,-868,10349.10,24.67,-1.00,-1.0,2440
3766,2138766,26292,-14588,9096,31413.63,24.67,-1.00,-1.0,2358
3769,2138769,16420,-17160,4976,24266.08,24.67,-1.00,-1.0,2445
3771,2138771,17864,4904,-200,18525.97,24.77,-1.00,-1.0,2359
3774,2138774,15696,15684,-4836,22709.89,24.58,-1.00,-1.0,2360
3779,2138779,27108,-12308,5972,30364.38,24.67,-1.00,-1.0,2447
3782,2138782,8204,-13340,4952,16425.09,24.62,-1.00,-1.0,2420
3785,2138785,25336,8204,-492,26635.70,24.67,-1.00,-1.0,2439
3788,2138788,8640,12600,-5684,16300.84,24.62,-1.00,-1.0,2372
3791,2138791,11436,4668,-208,12353.77,24.58,-1.00,-1.0,2431
3793,2138793,25748,-13512,5992,29689.02,24.62,-1.00,-1.0,2378
3796,2138796,7956,-8088,4400,12168.55,24.58,-1.00,-1.0,2432
3799,2138799,27180,6716,-3836,28259.02,24.72,-1.00,-1.0,2376
3804,2138804,19924,1828,1792,20087.77,24.67,-1.00,-1.0,2444
3807,2138807,25920,-9096,3980,27756.51,24.62,-1.00,-1.0,2373
3809,2138809,7564,-7664,3648,11369.21,24.67,-1.00,-1.0,2443
3812,2138812,28376,3740,-508,28625.92,24.62,-1.00,-1.0,2368
3815,2138815,5616,6212,-3696,9153.62,24.67,-1.00,-1.0,2436
3818,2138818,17960,3180,1336,18288.22,24.53,-1.00,-1.0,2367
3820,2138820,18788,-7100,2252,20210.65,24.58,-1.00,-1.0,2424
3823,2138823,13392,-3136,3288,14141.82,24.62,-1.00,-1.0,2380
3828,2138828,3888,3640,-2612,5932.01,24.62,-1.00,-1.0,2456
3831,2138831,27192,1624,-24,27240.46,24.53,-1.00,-1.0,2372
3833,2138833,19060,-2664,1488,19302.71,24.67,-1.00,-1.0,2368
3836,2138836,12884,-3888,4448,14173.87,24.67,-1.00,-1.0,2440
3839,2138839,24420,-2408,460,24542.75,24.58,-1.00,-1.0,2367
3842,2138842,3460,1640,-2736,4706.05,24.67,-1.00,-1.0,2433
3844,2138844,27932,4800,-360,28343.71,24.67,-1.00,-1.0,2373
3847,2138847,8048,-1856,-164,8260.87,24.67,-1.00,-1.0,2437
3850,2138850,24800,-5488,4604,25813.85,24.67,-1.00,-1.0,2371
3855,2138855,8888,4336,-1360,9982.34,24.62,-1.00,-1.0,2440
3858,2138858,25848,4980,-964,26341.01,24.62,-1.00,-1.0,2372
3861,2138861,8460,-740,-1236,8581.78,24.62,-1.00,-1.0,2440
3863,2138863,25072,-5944,4240,26113.48,24.62,-1.00,-1.0,2367
3866,2138866,11976,-3988,364,12627.79,24.62,-1.00,-1.0,2435
3869,2138869,19040,5920,-1268,19979.38,24.62,-1.00,-1.0,2374
3872,2138872,25132,5420,-1188,25737.23,24.72,-1.00,-1.0,2437
3874,2138874,8304,-2216,1024,8655.38,24.62,-1.00,-1.0,2366
3877,2138877,27396,-7464,3272,28582.48,24.62,-1.00,-1.0,2369
3882,2138882,17888,5364,-1288,18719.29,24.62,-1.00,-1.0,2448
3884,2138884,24800,5804,-928,25487.01,24.62,-1.00,-1.0,2366
3887,2138887,7644,-1704,88,7832.12,24.62,-1.00,-1.0,2441
3890,2138890,28004,-6820,2648,28943.88,24.58,-1.00,-1.0,2365
3893,2138893,8020,-720,868,8098.90,24.62,-1.00,-1.0,2445
3895,2138895,17548,4760,232,18183.61,24.62,-1.00,-1.0,2366
3898,2138898,17812,2404,-1628,18047.08,24.72,-1.00,-1.0,2437
3901,2138901,13308,-2232,2420,13709.16,24.58,-1.00,-1.0,2365
3906,2138906,7256,-1324,984,7441.15,24.67,-1.00,-1.0,2445
3909,2138909,18568,3192,-280,18842.45,24.67,-1.00,-1.0,2376
3911,2138911,18116,1996,-884,18247.05,24.53,-1.00,-1.0,2440
3914,2138914,13336,-712,2288,13549.57,24.58,-1.00,-1.0,2369
3917,2138917,23020,-4408,988,23459.05,24.58,-1.00,-1.0,2437
3920,2138920,6448,-1440,400,6618.94,24.58,-1.00,-1.0,2370
3922,2138922,26656,2348,1692,26812.65,24.53,-1.00,-1.0,2360
3925,2138925,9052,-668,-680,9102.05,24.62,-1.00,-1.0,2435
3928,2138928,21668,-620,3688,21988.36,24.62,-1.00,-1.0,2366
3932,2138932,6784,-964,-464,6867.84,24.72,-1.00,-1.0,2441
3935,2138935,26744,1064,1852,26829.15,24.62,-1.00,-1.0,2366
3938,2138938,8044,-924,688,8126.07,24.72,-1.00,-1.0,2439
3941,2138941,23236,-284,748,23249.77,24.72,-1.00,-1.0,2366
3943,2138943,23128,80,1836,23200.90,24.62,-1.00,-1.0,2435
3946,2138946,9284,308,2104,9524.41,24.62,-1.00,-1.0,2366
3949,2138949,25768,-2060,620,25857.64,24.72,-1.00,-1.0,2435
3952,2138952,7060,1468,912,7268.45,24.62,-1.00,-1.0,2367
3955,2138955,26416,88,748,26426.73,24.62,-1.00,-1.0,2362
3959,2138959,10168,-2432,1320,10537.80,24.72,-1.00,-1.0,2440
3962,2138962,26232,-2364,12,26338.31,24.62,-1.00,-1.0,2368
3965,2138965,7496,2504,-624,7927.76,24.62,-1.00,-1.0,2439
3968,2138968,26104,1968,1052,26199.21,24.62,-1.00,-1.0,2365
3970,2138970,13488,-1972,312,13634.96,24.72,-1.00,-1.0,2436
3973,2138973,18380,-2764,3788,18968.74,24.62,-1.00,-1.0,2367
3976,2138976,18468,-2312,-796,18629.17,24.62,-1.00,-1.0,2434
3979,2138979,12892,4384,916,13647.79,24.62,-1.00,-1.0,2366
3984,2138984,8024,-2316,-164,8353.16,24.62,-1.00,-1.0,2445
3986,2138986,17240,-2536,4700,18048.24,24.62,-1.00,-1.0,2375
3989,2138989,19420,-2856,1296,19671.62,24.72,-1.00,-1.0,2440
3992,2138992,11228,3996,432,11925.71,24.67,-1.00,-1.0,2368
3995,2138995,23932,2020,-132,24017.46,24.62,-1.00,-1.0,2430
3997,2138997,6552,-1328,-396,6696.95,24.72,-1.00,-1.0,2375
4000,2139000,27472,-3668,4148,28024.47,24.62,-1.00,-1.0,2361
4003,2139003,9880,-3352,-352,10439.07,24.67,-1.00,-1.0,2442
4006,2139006,20720,5716,1536,21548.79,24.58,-1.00,-1.0,2365
4011,2139011,6656,-808,1864,6959.14,24.62,-1.00,-1.0,2441
4013,2139013,25648,-4388,4180,26354.26,24.62,-1.00,-1.0,2375
4016,2139016,11188,-3952,1684,11984.39,24.67,-1.00,-1.0,2439
4019,2139019,19476,4144,736,19925.59,24.62,-1.00,-1.0,2369
4022,2139022,15928,2672,-1308,16203.45,24.58,-1.00,-1.0,2436
4024,2139024,9752,-64,-168,9753.66,24.53,-1.00,-1.0,2369
4027,2139027,25628,-4908,2784,26241.83,24.67,-1.00,-1.0,2437
4030,2139030,9192,-1452,864,9346.00,24.53,-1.00,-1.0,2367
4035,2139035,18316,944,-2428,18500.33,24.62,-1.00,-1.0,2451
4038,2139038,13128,-692,2048,13304.79,24.72,-1.00,-1.0,2369
4040,2139040,25640,-3048,2892,25981.99,24.62,-1.00,-1.0,2447
4043,2139043,9100,-1648,1312,9340.62,24.62,-1.00,-1.0,2374
4046,2139046,22396,2060,1604,22547.67,24.62,-1.00,-1.0,2363
4048,2139048,20236,656,-2160,20361.52,24.67,-1.00,-1.0,2436
4051,2139051,12196,244,1100,12247.94,24.53,-1.00,-1.0,2369
4054,2139054,23680,-1996,2480,23893.03,24.67,-1.00,-1.0,2435
4057,2139057,9836,-892,2060,10088.91,24.67,-1.00,-1.0,2368
4062,2139062,13668,1108,-1148,13760.81,24.67,-1.00,-1.0,2449
4064,2139064,10536,1440,988,10679.75,24.67,-1.00,-1.0,2368
4067,2139067,25848,-2700,-156,25989.10,24.67,-1.00,-1.0,2440
4070,2139070,7208,-2204,2088,7821.29,24.67,-1.00,-1.0,2366
4073,2139073,26176,176,432,26180.16,24.67,-1.00,-1.0,2444
4075,2139075,15996,1080,-888,16056.99,24.67,-1.00,-1.0,2367
4078,2139078,15024,1216,1628,15160.79,24.77,-1.00,-1.0,2436
4081,2139081,21936,-3212,264,22171.48,24.58,-1.00,-1.0,2368
4086,2139086,24732,456,-164,24736.75,24.67,-1.00,-1.0,2446
4089,2139089,10088,1032,320,10145.70,24.62,-1.00,-1.0,2376
4091,2139091,14988,-240,696,15006.07,24.67,-1.00,-1.0,2361
4094,2139094,22200,-2496,1284,22376.74,24.58,-1.00,-1.0,2440
4097,2139097,9840,-172,2344,10116.79,24.67,-1.00,-1.0,2366
4099,2139099,23456,976,200,23477.15,24.58,-1.00,-1.0,2434
4102,2139102,11704,936,-492,11751.67,24.67,-1.00,-1.0,2366
4105,2139105,19980,-1332,876,20043.50,24.77,-1.00,-1.0,2435
4108,2139108,16688,-2552,1320,16933.53,24.62,-1.00,-1.0,2373
4113,2139113,24528,-168,-2152,24622.80,24.62,-1.00,-1.0,2446
4115,2139115,9044,1228,1256,9213.00,24.62,-1.00,-1.0,2366
4118,2139118,18520,-40,592,18529.50,24.62,-1.00,-1.0,2447
4121,2139121,16728,-1692,1744,16903.56,24.62,-1.00,-1.0,2367
4124,2139124,15652,-2012,2092,15918.85,24.62,-1.00,-1.0,2441
4126,2139126,20624,-1308,-1604,20727.59,24.62,-1.00,-1.0,2367
4129,2139129,11464,1452,-436,11563.81,24.72,-1.00,-1.0,2441
4132,2139132,20320,1732,-800,20409.37,24.62,-1.00,-1.0,2368
4135,2139135,14736,-1676,1160,14876.30,24.58,-1.00,-1.0,2364
4140,2139140,19760,-3532,496,20079.31,24.67,-1.00,-1.0,2448
4143,2139143,13540,3408,-108,13962.73,24.58,-1.00,-1.0,2374
4146,2139146,19904,2860,-2120,20219.87,24.67,-1.00,-1.0,2440
4149,2139149,14484,-2268,3100,14984.66,24.67,-1.00,-1.0,2367
4151,2139151,17376,-5252,3084,18412.49,24.58,-1.00,-1.0,2437
4154,2139154,18572,-2068,388,18690.81,24.58,-1.00,-1.0,2370
4157,2139157,15280,2920,-956,15585.85,24.67,-1.00,-1.0,2438
4160,2139160,18000,2488,-744,18186.36,24.67,-1.00,-1.0,2370
4164,2139164,14852,-4040,2460,15587.02,24.62,-1.00,-1.0,2441
4167,2139167,20548,-2364,2176,20797.69,24.62,-1.00,-1.0,2367
4170,2139170,14460,1356,500,14532.04,24.72,-1.00,-1.0,2439
4173,2139173,17744,2436,-932,17934.67,24.58,-1.00,-1.0,2365
4175,2139175,16436,-908,1436,16523.58,24.72,-1.00,-1.0,2436
4178,2139178,12596,-3556,1480,13171.74,24.62,-1.00,-1.0,2367
4181,2139181,22132,-1640,3012,22396.14,24.72,-1.00,-1.0,2435
4184,2139184,11608,724,-400,11637.43,24.58,-1.00,-1.0,2365
4189,2139189,17332,-16,1388,17387.50,24.67,-1.00,-1.0,2445
4191,2139191,10900,-2572,1180,11261.33,24.58,-1.00,-1.0,2376
4194,2139194,23340,-1104,2760,23528.54,24.72,-1.00,-1.0,2361
4197,2139197,11120,-28,1060,11170.44,24.62,-1.00,-1.0,2445
4199,2139199,20540,1460,732,20604.83,24.72,-1.00,-1.0,2367
4202,2139202,19632,-232,344,19636.38,24.62,-1.00,-1.0,2436
4205,2139205,13056,-1496,372,13146.69,24.72,-1.00,-1.0,2368
4208,2139208,21664,-88,2560,21814.91,24.62,-1.00,-1.0,2433
4210,2139210,11844,-308,-132,11848.74,24.62,-1.00,-1.0,2369
4215,2139215,19824,-1216,520,19868.07,24.62,-1.00,-1.0,2452
4218,2139218,12700,-676,1436,12798.79,24.67,-1.00,-1.0,2383
4221,2139221,22212,60,620,22220.73,24.62,-1.00,-1.0,2440
4224,2139224,11176,-760,816,11231.49,24.58,-1.00,-1.0,2371
4226,2139226,22972,-1612,240,23029.74,24.72,-1.00,-1.0,2438
4229,2139229,14564,-908,788,14613.54,24.67,-1.00,-1.0,2382
4232,2139232,17740,1236,304,17785.60,24.62,-1.00,-1.0,2361
4234,2139234,17916,100,1404,17971.21,24.62,-1.00,-1.0,2435
4237,2139237,13340,-2276,1208,13586.58,24.72,-1.00,-1.0,2367
4242,2139242,17912,-832,720,17945.76,24.62,-1.00,-1.0,2449
4245,2139245,14488,2876,-684,14786.53,24.62,-1.00,-1.0,2368
4248,2139248,19936,756,16,19950.34,24.62,-1.00,-1.0,2449
4250,2139250,14040,-3856,2412,14758.32,24.62,-1.00,-1.0,2375
4253,2139253,18720,-4492,1300,19295.24,24.62,-1.00,-1.0,2436
4256,2139256,16496,40,-380,16500.42,24.62,-1.00,-1.0,2367
4259,2139259,17352,3964,-888,17821.16,24.72,-1.00,-1.0,2447
4261,2139261,18124,-228,896,18147.57,24.62,-1.00,-1.0,2374
4266,2139266,20192,-2820,968,20410.94,24.62,-1.00,-1.0,2449
4269,2139269,19408,396,2108,19526.16,24.67,-1.00,-1.0,2373
4272,2139272,13184,2012,-1496,13420.28,24.62,-1.00,-1.0,2440
4275,2139275,20336,996,1392,20407.90,24.58,-1.00,-1.0,2371
4277,2139277,16484,-3172,-32,16786.45,24.62,-1.00,-1.0,2360
4280,2139280,16456,-2928,2324,16875.25,24.53,-1.00,-1.0,2434
4283,2139283,20160,-896,-620,20189.42,24.62,-1.00,-1.0,2366
4285,2139285,13388,2716,-1164,13710.22,24.72,-1.00,-1.0,2435
4288,2139288,20128,2252,84,20253.76,24.62,-1.00,-1.0,2370
4293,2139293,17324,-3492,2508,17849.51,24.67,-1.00,-1.0,2443
4296,2139296,19288,-2908,1864,19594.84,24.58,-1.00,-1.0,2366
4299,2139299,13728,2904,432,14038.44,24.62,-1.00,-1.0,2447
4301,2139301,19564,4088,-148,19987.09,24.48,-1.00,-1.0,2367
4304,2139304,13528,-1808,496,13657.29,24.72,-1.00,-1.0,2442
4307,2139307,18700,-4268,2524,19346.22,24.58,-1.00,-1.0,2366
4310,2139310,17412,-3592,1508,17842.48,24.72,-1.00,-1.0,2442
4312,2139312,15660,2320,-412,15836.28,24.67,-1.00,-1.0,2354
4317,2139317,14344,-788,-492,14374.05,24.58,-1.00,-1.0,2440
4320,2139320,17040,-1900,1932,17254.11,24.62,-1.00,-1.0,2367
4323,2139323,18376,-2168,1360,18553.36,24.77,-1.00,-1.0,2439
4326,2139326,14636,1240,2392,14881.93,24.62,-1.00,-1.0,2366
4328,2139328,19004,492,-1116,19043.10,24.58,-1.00,-1.0,2348
4331,2139331,15460,-936,928,15516.08,24.58,-1.00,-1.0,2435
4334,2139334,17528,-1088,720,17576.49,24.67,-1.00,-1.0,2367
4336,2139336,17416,-184,1136,17453.98,24.58,-1.00,-1.0,2435
4339,2139339,14136,-464,444,14150.58,24.58,-1.00,-1.0,2366
4344,2139344,16376,-720,-156,16392.56,24.67,-1.00,-1.0,2441
4347,2139347,15940,808,1552,16035.75,24.58,-1.00,-1.0,2367
4349,2139349,19532,-800,1712,19623.20,24.58,-1.00,-1.0,2425
4352,2139352,13140,-2148,1840,13440.95,24.67,-1.00,-1.0,2367
4355,2139355,19968,-380,804,19987.79,24.67,-1.00,-1.0,2436
4358,2139358,15520,740,-1340,15595.31,24.67,-1.00,-1.0,2366
4360,2139360,17212,1168,1052,17283.63,24.58,-1.00,-1.0,2434
4363,2139363,19724,-2240,972,19874.57,24.67,-1.00,-1.0,2366
4368,2139368,19044,-668,104,19056.00,24.67,-1.00,-1.0,2443
4371,2139371,16692,1424,-596,16763.23,24.67,-1.00,-1.0,2366
4373,2139373,15784,700,1108,15838.32,24.72,-1.00,-1.0,2362
4376,2139376,20420,-2084,420,20530.36,24.53,-1.00,-1.0,2439
4379,2139379,12832,-2752,1232,13181.49,24.62,-1.00,-1.0,2374
4382,2139382,20580,116,-1056,20607.40,24.53,-1.00,-1.0,2433
4384,2139384,15436,728,-1352,15512.19,24.62,-1.00,-1.0,2366
4387,2139387,13228,-16,1176,13280.18,24.58,-1.00,-1.0,2435
4390,2139390,21360,-2920,1460,21608.04,24.67,-1.00,-1.0,2375
4395,2139395,19776,-20,48,19776.07,24.62,-1.00,-1.0,2440
4398,2139398,16128,1736,44,16221.22,24.62,-1.00,-1.0,2363
4401,2139401,16356,68,-508,16364.03,24.62,-1.00,-1.0,2440
4403,2139403,18288,-1860,1604,18452.19,24.62,-1.00,-1.0,2368
4406,2139406,12596,-2264,2408,13022.42,24.72,-1.00,-1.0,2443
4409,2139409,20336,-724,2672,20523.56,24.53,-1.00,-1.0,2373
4412,2139412,14872,424,1068,14916.33,24.72,-1.00,-1.0,2436
4414,2139414,18328,1376,-1092,18411.99,24.72,-1.00,-1.0,2368
4417,2139417,18148,1996,892,18279.21,24.67,-1.00,-1.0,2364
4422,2139422,18828,-2264,2396,19114.39,24.67,-1.00,-1.0,2455
4425,2139425,18200,-3088,1660,18534.60,24.62,-1.00,-1.0,2374
4428,2139428,15720,724,1504,15808.37,24.67,-1.00,-1.0,2449
4430,2139430,17916,2564,-856,18118.77,24.67,-1.00,-1.0,2371
4433,2139433,14016,2100,364,14177.12,24.67,-1.00,-1.0,2445
4436,2139436,19544,-2204,748,19682.10,24.67,-1.00,-1.0,2375
4439,2139439,15688,-3556,2384,16261.67,24.67,-1.00,-1.0,2445
4441,2139441,17800,392,-16,17804.32,24.67,-1.00,-1.0,2370
4446,2139446,13920,336,-688,13941.04,24.62,-1.00,-1.0,2442
4449,2139449,18524,-1604,2388,18746.04,24.62,-1.00,-1.0,2369
4452,2139452,16836,-4120,972,17360.01,24.67,-1.00,-1.0,2444
4454,2139454,16768,972,1432,16857.08,24.62,-1.00,-1.0,2366
4457,2139457,18036,2416,-2124,18320.64,24.77,-1.00,-1.0,2438
4460,2139460,13316,2464,1620,13638.61,24.62,-1.00,-1.0,2369
4463,2139463,20424,-2800,684,20626.38,24.67,-1.00,-1.0,2366
4465,2139465,14816,-4332,1216,15484.14,24.58,-1.00,-1.0,2443
4468,2139468,17932,1044,2760,18173.17,24.72,-1.00,-1.0,2367
4473,2139473,15324,1652,8,15412.79,24.62,-1.00,-1.0,2449
4476,2139476,18212,-1104,-1120,18279.78,24.67,-1.00,-1.0,2369
4479,2139479,15864,-1228,1656,15997.40,24.72,-1.00,-1.0,2449
4481,2139481,17276,-1240,360,17324.19,24.67,-1.00,-1.0,2375
4484,2139484,18620,-1204,1184,18696.41,24.62,-1.00,-1.0,2436
4487,2139487,12788,-872,1524,12907.98,24.58,-1.00,-1.0,2353
4490,2139490,21304,88,-932,21324.56,24.62,-1.00,-1.0,2446
4492,2139492,12840,948,524,12885.61,24.67,-1.00,-1.0,2378
4497,2139497,19528,-1556,1260,19630.37,24.67,-1.00,-1.0,2440
4500,2139500,12692,-2624,1052,13003.04,24.67,-1.00,-1.0,2366
4503,2139503,20708,-1188,-328,20744.64,24.67,-1.00,-1.0,2447
4505,2139505,14344,1608,2172,14596.36,24.67,-1.00,-1.0,2366
4508,2139508,19068,-968,-1264,19134.35,24.67,-1.00,-1.0,2449
4511,2139511,20064,-564,2028,20174.12,24.67,-1.00,-1.0,2366
4514,2139514,13432,-1144,68,13480.80,24.62,-1.00,-1.0,2361
4516,2139516,20668,824,316,20686.83,24.67,-1.00,-1.0,2423
4519,2139519,13736,-444,1312,13805.66,24.67,-1.00,-1.0,2367
4524,2139524,18392,-1072,2636,18610.84,24.62,-1.00,-1.0,2440
4527,2139527,12448,-780,-68,12472.60,24.72,-1.00,-1.0,2367
4530,2139530,21584,2144,880,21708.07,24.62,-1.00,-1.0,2437
4532,2139532,13268,28,1776,13386.37,24.62,-1.00,-1.0,2370
4535,2139535,19680,-2476,668,19846.39,24.62,-1.00,-1.0,2435
4538,2139538,19344,-1476,1368,19448.40,24.62,-1.00,-1.0,2367
4541,2139541,13924,700,248,13943.79,24.62,-1.00,-1.0,2436
4543,2139543,19900,1756,1096,20007.37,24.62,-1.00,-1.0,2369
4548,2139548,18732,-2360,1900,18975.44,24.67,-1.00,-1.0,2427
4551,2139551,18796,-1844,1312,18931.75,24.62,-1.00,-1.0,2369
4554,2139554,13044,2092,12,13210.70,24.67,-1.00,-1.0,2447
4556,2139556,21520,1316,-160,21560.79,24.62,-1.00,-1.0,2368
4559,2139559,16304,-2148,532,16453.49,24.67,-1.00,-1.0,2362
4562,2139562,17140,-3208,2940,17683.73,24.67,-1.00,-1.0,2445
4564,2139564,18976,-1432,1020,19057.27,24.67,-1.00,-1.0,2366
4567,2139567,13244,2512,-1088,13523.96,24.62,-1.00,-1.0,2452
4570,2139570,20544,2864,860,20760.49,24.67,-1.00,-1.0,2370
4575,2139575,19676,-3580,2240,20124.09,24.62,-1.00,-1.0,2455
4578,2139578,19892,-3348,1444,20223.40,24.62,-1.00,-1.0,2369
4581,2139581,14448,1244,768,14521.78,24.72,-1.00,-1.0,2453
4583,2139583,20056,2872,876,20279.52,24.62,-1.00,-1.0,2376
4586,2139586,12048,-776,-552,12085.58,24.62,-1.00,-1.0,2442
4589,2139589,18388,-1568,960,18479.69,24.72,-1.00,-1.0,2370
4592,2139592,17156,-2492,2400,17501.38,24.72,-1.00,-1.0,2445
4594,2139594,15628,-912,-484,15662.07,24.53,-1.00,-1.0,2374
4599,2139599,13448,880,684,13494.11,24.62,-1.00,-1.0,2449
4602,2139602,19800,-1444,720,19865.64,24.62,-1.00,-1.0,2374
4605,2139605,18612,-1960,1720,18793.79,24.62,-1.00,-1.0,2360
4607,2139607,15496,-292,1348,15557.26,24.67,-1.00,-1.0,2439
4610,2139610,19128,972,-428,19157.46,24.72,-1.00,-1.0,2354
4613,2139613,14476,1072,12,14515.64,24.58,-1.00,-1.0,2437
4616,2139616,18768,-1456,-1012,18851.58,24.72,-1.00,-1.0,2370
4618,2139618,16688,-2672,1572,16973.51,24.67,-1.00,-1.0,2423
4621,2139621,17524,-1132,420,17565.54,24.53,-1.00,-1.0,2377
4626,2139626,13576,1544,536,13674.03,24.62,-1.00,-1.0,2441
4629,2139629,20336,-924,-764,20371.31,24.72,-1.00,-1.0,2366
4632,2139632,17936,-1280,2480,18151.83,24.72,-1.00,-1.0,2445
4634,2139634,15276,-2224,696,15452.73,24.62,-1.00,-1.0,2367
4637,2139637,19812,-104,324,19814.92,24.62,-1.00,-1.0,2449
4640,2139640,14068,1224,2112,14278.21,24.72,-1.00,-1.0,2366
4643,2139643,20008,-944,-1412,20079.96,24.62,-1.00,-1.0,2442
4645,2139645,14984,-508,1028,15027.81,24.62,-1.00,-1.0,2368
4650,2139650,19016,-124,700,19029.28,24.62,-1.00,-1.0,2427
4653,2139653,14616,-888,904,14670.83,24.67,-1.00,-1.0,2366
4656,2139656,18308,-896,1888,18426.89,24.62,-1.00,-1.0,2363
4659,2139659,17724,-1504,448,17793.34,24.62,-1.00,-1.0,2440
4661,2139661,15592,228,364,15597.92,24.62,-1.00,-1.0,2368
4664,2139664,19300,2208,1208,19463.42,24.62,-1.00,-1.0,2434
4667,2139667,13560,664,-376,13581.45,24.62,-1.00,-1.0,2374
4670,2139670,20448,-1624,1300,20553.54,24.62,-1.00,-1.0,2435
4672,2139672,14728,-3204,1068,15110.27,24.67,-1.00,-1.0,2370
4677,2139677,19916,372,-936,19941.45,24.58,-1.00,-1.0,2448
4680,2139680,13852,820,508,13885.54,24.67,-1.00,-1.0,2381
4683,2139683,19108,-312,-556,19118.63,24.58,-1.00,-1.0,2440
4686,2139686,16292,-1664,-324,16379.96,24.58,-1.00,-1.0,2374
4688,2139688,16968,-1312,1900,17124.38,24.77,-1.00,-1.0,2437
4691,2139691,17656,-876,308,17680.40,24.67,-1.00,-1.0,2382
4694,2139694,16836,144,1412,16895.72,24.58,-1.00,-1.0,2436
4697,2139697,16844,160,356,16848.52,24.67,-1.00,-1.0,2375
4699,2139699,17968,-1020,-612,18007.33,24.67,-1.00,-1.0,2348
4705,2139705,18760,-1424,-736,18828.36,24.58,-1.00,-1.0,2441
4707,2139707,15300,-764,572,15329.74,24.62,-1.00,-1.0,2370
4710,2139710,18148,-568,-584,18166.28,24.67,-1.00,-1.0,2454
4713,2139713,18624,-448,1180,18666.72,24.72,-1.00,-1.0,2376
4716,2139716,15384,-1820,1160,15534.65,24.58,-1.00,-1.0,2449
4718,2139718,18892,-332,148,18895.50,24.67,-1.00,-1.0,2370
4721,2139721,16132,1544,936,16232.73,24.67,-1.00,-1.0,2449
4724,2139724,15500,516,-736,15526.04,24.58,-1.00,-1.0,2373
4729,2139729,15188,-2396,-176,15376.84,24.72,-1.00,-1.0,2450
4731,2139731,19592,-2096,1644,19772.26,24.72,-1.00,-1.0,2367
4734,2139734,16592,-1260,832,16660.56,24.67,-1.00,-1.0,2441
4737,2139737,16888,1116,-236,16926.48,24.72,-1.00,-1.0,2367
4740,2139740,19424,1276,-1228,19504.56,24.58,-1.00,-1.0,2438
4742,2139742,14312,-176,616,14326.33,24.62,-1.00,-1.0,2367
4745,2139745,19220,-1792,1628,19371.89,24.67,-1.00,-1.0,2361
4748,2139748,16872,-2332,1364,17086.93,24.67,-1.00,-1.0,2442
4750,2139750,16680,-80,2160,16819.46,24.67,-1.00,-1.0,2366
4755,2139755,14684,44,-1016,14719.17,24.67,-1.00,-1.0,2446
4758,2139758,19708,-580,-324,19719.20,24.67,-1.00,-1.0,2367
4761,2139761,16740,-1064,884,16797.06,24.77,-1.00,-1.0,2447
4763,2139763,16784,-1320,540,16844.48,24.67,-1.00,-1.0,2366
4766,2139766,17776,-944,216,17802.36,24.58,-1.00,-1.0,2450
4769,2139769,15748,-396,2028,15882.98,24.67,-1.00,-1.0,2367
4772,2139772,17760,-1316,-1064,17840.45,24.58,-1.00,-1.0,2443
4774,2139774,17560,184,1552,17629.41,24.58,-1.00,-1.0,2367
4779,2139779,18356,720,344,18373.34,24.62,-1.00,-1.0,2453
4782,2139782,16692,-212,1204,16736.71,24.67,-1.00,-1.0,2372
4785,2139785,16748,-2176,-56,16888.86,24.62,-1.00,-1.0,2441
4788,2139788,18472,-1200,2016,18620.39,24.67,-1.00,-1.0,2373
4790,2139790,15320,-1600,320,15406.65,24.53,-1.00,-1.0,2358
4793,2139793,18232,-248,592,18243.29,24.62,-1.00,-1.0,2435
4796,2139796,16472,8,-244,16473.81,24.62,-1.00,-1.0,2368
4799,2139799,16644,1124,1088,16717.35,24.67,-1.00,-1.0,2434
4801,2139801,17456,-104,888,17478.88,24.67,-1.00,-1.0,2367
4806,2139806,18708,-2516,-28,18876.45,24.58,-1.00,-1.0,2441
4809,2139809,16056,-376,940,16087.89,24.62,-1.00,-1.0,2368
4812,2139812,17904,1560,1664,18048.70,24.58,-1.00,-1.0,2438
4815,2139815,17716,-360,-900,17742.50,24.62,-1.00,-1.0,2365
4817,2139817,15916,-976,1188,15990.09,24.58,-1.00,-1.0,2436
4820,2139820,18868,-1768,-32,18950.68,24.62,-1.00,-1.0,2367
4823,2139823,15804,-56,980,15834.45,24.67,-1.00,-1.0,2436
4826,2139826,17060,548,464,17075.11,24.62,-1.00,-1.0,2365
4828,2139828,17340,-316,244,17344.60,24.58,-1.00,-1.0,2360
4833,2139833,18184,-2328,-1236,18374.04,24.58,-1.00,-1.0,2442
4836,2139836,17156,452,900,17185.54,24.67,-1.00,-1.0,2367
4839,2139839,16216,2364,2056,16515.88,24.67,-1.00,-1.0,2438
4842,2139842,18308,-328,-1228,18352.07,24.67,-1.00,-1.0,2365
4844,2139844,15052,-1268,2696,15344.02,24.77,-1.00,-1.0,2423
4847,2139847,19256,-3524,64,19575.91,24.67,-1.00,-1.0,2367
4850,2139850,15848,-568,708,15873.97,24.67,-1.00,-1.0,2434
4853,2139853,15448,1576,476,15535.48,24.72,-1.00,-1.0,2365
4858,2139858,15312,420,796,15338.43,24.62,-1.00,-1.0,2448
4860,2139860,18088,-2840,2340,18458.52,24.62,-1.00,-1.0,2378
4863,2139863,16360,-2092,2788,16727.19,24.67,-1.00,-1.0,2446
4866,2139866,17532,648,1268,17589.73,24.62,-1.00,-1.0,2370
4869,2139869,17340,964,-1812,17461.05,24.67,-1.00,-1.0,2448
4871,2139871,16200,892,-176,16225.49,24.62,-1.00,-1.0,2376
4874,2139874,17892,-1596,580,17972.40,24.67,-1.00,-1.0,2361
4877,2139877,17384,-2152,1812,17610.16,24.58,-1.00,-1.0,2442
4880,2139880,15780,-1164,1752,15919.57,24.72,-1.00,-1.0,2378
4885,2139885,17432,708,724,17461.39,24.62,-1.00,-1.0,2442
4887,2139887,16080,-296,1712,16173.59,24.62,-1.00,-1.0,2369
4890,2139890,18072,-1396,776,18142.44,24.62,-1.00,-1.0,2454
4893,2139893,15844,-120,736,15861.54,24.72,-1.00,-1.0,2376
4896,2139896,18148,112,-1132,18183.62,24.72,-1.00,-1.0,2448
4898,2139898,16300,260,404,16307.08,24.62,-1.00,-1.0,2370
4901,2139901,17264,-844,2744,17501.07,24.62,-1.00,-1.0,2450
4904,2139904,17288,-2896,1028,17559.00,24.62,-1.00,-1.0,2374
4909,2139909,18660,836,-992,18705.04,24.53,-1.00,-1.0,2448
4911,2139911,16512,1908,-64,16621.99,24.58,-1.00,-1.0,2367
4914,2139914,16984,128,1036,17016.05,24.62,-1.00,-1.0,2443
4917,2139917,17008,-2104,2908,17382.62,24.67,-1.00,-1.0,2366
4919,2139919,15888,-2664,1404,16170.86,24.62,-1.00,-1.0,2360
4922,2139922,19100,-516,-336,19109.92,24.58,-1.00,-1.0,2449
4925,2139925,16108,1428,964,16199.88,24.72,-1.00,-1.0,2367
4928,2139928,17468,540,308,17479.06,24.72,-1.00,-1.0,2442
4931,2139931,17576,-564,964,17611.45,24.58,-1.00,-1.0,2368
4936,2139936,18000,-536,1260,18052.01,24.67,-1.00,-1.0,2446
4938,2139938,16672,152,1600,16749.29,24.67,-1.00,-1.0,2378
4941,2139941,16692,40,1724,16780.84,24.58,-1.00,-1.0,2448
4944,2139944,17624,-1200,1152,17702.33,24.67,-1.00,-1.0,2369
4947,2139947,16028,-716,1240,16091.83,24.67,-1.00,-1.0,2446
4949,2139949,18072,1292,828,18137.04,24.58,-1.00,-1.0,2375
4952,2139952,16072,1032,964,16133.92,24.67,-1.00,-1.0,2436
4955,2139955,16880,-1184,908,16945.82,24.67,-1.00,-1.0,2369
4960,2139960,15136,-1688,1164,15274.25,24.72,-1.00,-1.0,2456
4963,2139963,19324,-288,-816,19343.37,24.62,-1.00,-1.0,2367
4966,2139966,15028,1388,684,15107.45,24.72,-1.00,-1.0,2363
4969,2139969,16868,620,840,16900.28,24.67,-1.00,-1.0,2455
4971,2139971,17212,-904,1468,17298.13,24.67,-1.00,-1.0,2374
4974,2139974,15824,-1548,1928,16016.01,24.58,-1.00,-1.0,2449
4977,2139977,18364,-1408,348,18421.19,24.67,-1.00,-1.0,2374
4980,2139980,17112,-328,884,17137.96,24.67,-1.00,-1.0,2447
4982,2139982,16704,884,608,16738.42,24.58,-1.00,-1.0,2371
4987,2139987,15320,-84,1324,15377.33,24.72,-1.00,-1.0,2440
4990,2139990,19012,-1456,676,19079.65,24.77,-1.00,-1.0,2369
4993,2139993,15500,-764,1744,15616.50,24.62,-1.00,-1.0,2439
4995,2139995,16012,-396,616,16028.74,24.58,-1.00,-1.0,2355
4998,2139998,18504,-56,852,18523.69,24.72,-1.00,-1.0,2436
5001,2140001,14792,-600,988,14837.10,24.67,-1.00,-1.0,2353
5003,2140003,18936,-468,-144,18942.33,24.62,-1.00,-1.0,2360
5006,2140006,16208,408,868,16236.35,24.62,-1.00,-1.0,2422
5009,2140009,17132,568,1456,17203.14,24.67,-1.00,-1.0,2369
5014,2140014,14148,-1448,1572,14308.52,24.67,-1.00,-1.0,2443
5017,2140017,19312,-1252,592,19361.59,24.48,-1.00,-1.0,2373
5019,2140019,16652,-12,1096,16688.03,24.62,-1.00,-1.0,2442
5022,2140022,16688,480,256,16696.87,24.58,-1.00,-1.0,2382
5025,2140025,16800,680,624,16825.33,24.67,-1.00,-1.0,2434
5028,2140028,14680,-280,824,14705.77,24.67,-1.00,-1.0,2373
5030,2140030,19072,-1528,1548,19195.63,24.62,-1.00,-1.0,2439
5033,2140033,15844,-1344,1872,16010.72,24.58,-1.00,-1.0,2382
5038,2140038,17836,560,-56,17844.88,24.77,-1.00,-1.0,2446
5041,2140041,15416,712,752,15450.74,24.67,-1.00,-1.0,2377
5044,2140044,17892,40,496,17898.92,24.58,-1.00,-1.0,2453
5046,2140046,17012,-612,2352,17184.72,24.67,-1.00,-1.0,2374
5049,2140049,16636,-1424,808,16716.37,24.67,-1.00,-1.0,2363
5052,2140052,17688,-644,156,17700.41,24.72,-1.00,-1.0,2434
5054,2140054,16140,192,1724,16232.95,24.62,-1.00,-1.0,2374
5057,2140057,17268,-624,-92,17279.52,24.62,-1.00,-1.0,2435
5060,2140060,17464,-924,528,17496.40,24.58,-1.00,-1.0,2368
5065,2140065,18116,592,32,18125.70,24.67,-1.00,-1.0,2447
5068,2140068,16644,976,1120,16710.17,24.58,-1.00,-1.0,2368
5070,2140070,16820,-828,1768,16932.92,24.53,-1.00,-1.0,2447
5073,2140073,17292,-2840,1300,17571.82,24.67,-1.00,-1.0,2375
5076,2140076,16580,-864,1128,16640.77,24.67,-1.00,-1.0,2424
5078,2140078,18944,-8,-520,18951.14,24.67,-1.00,-1.0,2367
5081,2140081,14568,948,12,14598.82,24.62,-1.00,-1.0,2448
5084,2140084,19084,-744,-884,19118.95,24.58,-1.00,-1.0,2376
5087,2140087,15804,-1208,2100,15988.61,24.58,-1.00,-1.0,2370
5092,2140092,18056,-932,820,18098.62,24.67,-1.00,-1.0,2442
5094,2140094,15580,208,1136,15622.75,24.67,-1.00,-1.0,2368
5097,2140097,17992,456,716,18012.01,24.67,-1.00,-1.0,2440
5100,2140100,15580,-976,672,15625.00,24.67,-1.00,-1.0,2367
5103,2140103,17924,-1048,260,17956.49,24.67,-1.00,-1.0,2438
5105,2140105,18172,-460,1500,18239.61,24.58,-1.00,-1.0,2367
5108,2140108,14848,-480,120,14856.24,24.58,-1.00,-1.0,2439
5111,2140111,19288,-648,-240,19300.38,24.67,-1.00,-1.0,2367
5116,2140116,16580,-1168,-24,16621.11,24.67,-1.00,-1.0,2468
5119,2140119,18204,-92,600,18214.12,24.67,-1.00,-1.0,2373
5122,2140122,15484,296,1068,15523.61,24.62,-1.00,-1.0,2451
5124,2140124,18728,-1032,-1360,18805.65,24.62,-1.00,-1.0,2374
5127,2140127,16216,-1124,532,16263.61,24.62,-1.00,-1.0,2361
5130,2140130,18452,-1184,156,18490.61,24.67,-1.00,-1.0,2439
5132,2140132,18692,-1156,720,18741.55,24.62,-1.00,-1.0,2351
5135,2140135,14828,-68,416,14833.99,24.67,-1.00,-1.0,2441
5138,2140138,18984,664,452,19000.99,24.62,-1.00,-1.0,2366
5143,2140143,17612,-1936,8,17718.09,24.62,-1.00,-1.0,2448
5146,2140146,17844,-1344,1148,17931.33,24.58,-1.00,-1.0,2366
5149,2140149,16312,260,36,16314.11,24.62,-1.00,-1.0,2439
5151,2140151,19272,308,-132,19274.91,24.62,-1.00,-1.0,2364
5154,2140154,14832,-548,152,14842.90,24.72,-1.00,-1.0,2439
5157,2140157,19644,-1576,1296,19749.69,24.67,-1.00,-1.0,2372
5160,2140160,14300,-352,2608,14540.14,24.62,-1.00,-1.0,2439
5162,2140162,15960,-292,-1548,16037.55,24.58,-1.00,-1.0,2363
5167,2140167,14080,-712,600,14110.75,24.62,-1.00,-1.0,2447
5170,2140170,19404,-1432,148,19457.33,24.67,-1.00,-1.0,2367
5172,2140172,17948,-208,1772,18036.46,24.62,-1.00,-1.0,2370
5175,2140175,14636,-388,-572,14652.31,24.67,-1.00,-1.0,2446
5178,2140178,19524,12,680,19535.84,24.72,-1.00,-1.0,2368
5181,2140181,14648,-924,2248,14848.27,24.67,-1.00,-1.0,2454
5183,2140183,19572,-2512,-308,19734.95,24.62,-1.00,-1.0,2372
5186,2140186,15872,-1156,704,15929.61,24.67,-1.00,-1.0,2446
5189,2140189,17880,1084,-392,17917.12,24.67,-1.00,-1.0,2365
5194,2140194,14836,-548,668,14861.14,24.67,-1.00,-1.0,2447
5196,2140196,18900,-1928,768,19013.60,24.67,-1.00,-1.0,2363
5199,2140199,15904,-1812,2472,16196.65,24.62,-1.00,-1.0,2439
5202,2140202,17168,-12,-112,17168.37,24.77,-1.00,-1.0,2351
5205,2140205,17464,756,-216,17481.69,24.58,-1.00,-1.0,2435
5207,2140207,14052,356,388,14061.86,24.58,-1.00,-1.0,2357
5210,2140210,19408,-1204,1956,19543.44,24.58,-1.00,-1.0,2360
5213,2140213,14516,-1652,648,14624.06,24.62,-1.00,-1.0,2440
5216,2140216,19520,-20,-508,19526.62,24.67,-1.00,-1.0,2364
5221,2140221,15364,-988,-908,15422.49,24.58,-1.00,-1.0,2450
5224,2140224,19416,-1348,1280,19504.78,24.67,-1.00,-1.0,2370
5226,2140226,14056,-1016,1892,14219.11,24.67,-1.00,-1.0,2442
5229,2140229,19528,-492,-1196,19570.78,24.67,-1.00,-1.0,2366
5232,2140232,15304,1128,800,15366.35,24.58,-1.00,-1.0,2441
5235,2140235,18144,160,1888,18242.67,24.67,-1.00,-1.0,2360
5237,2140237,19316,-2136,1120,19465.99,24.67,-1.00,-1.0,2442
5240,2140240,15308,-2160,252,15461.69,24.67,-1.00,-1.0,2371
5245,2140245,15452,1340,336,15513.63,24.67,-1.00,-1.0,2447
5248,2140248,17608,560,512,17624.34,24.72,-1.00,-1.0,2373
5251,2140251,17552,-2496,2284,17875.11,24.67,-1.00,-1.0,2452
5253,2140253,14032,-2600,856,14296.50,24.77,-1.00,-1.0,2367
5256,2140256,20120,436,1340,20169.29,24.58,-1.00,-1.0,2454
5259,2140259,14208,872,-1416,14304.99,24.67,-1.00,-1.0,2369
5261,2140261,17344,700,308,17360.85,24.67,-1.00,-1.0,2367
5264,2140264,16712,-2372,2004,16998.04,24.62,-1.00,-1.0,2440
5267,2140267,16316,-1600,-28,16394.29,24.62,-1.00,-1.0,2363
5272,2140272,13480,784,-744,13523.26,24.62,-1.00,-1.0,2446
5275,2140275,20100,-244,504,20107.80,24.67,-1.00,-1.0,2362
5277,2140277,14772,-1296,2228,14995.19,24.62,-1.00,-1.0,2439
5280,2140280,15936,-2100,528,16082.44,24.62,-1.00,-1.0,2363
5283,2140283,17888,-160,460,17894.63,24.72,-1.00,-1.0,2438
5286,2140286,15872,720,-472,15895.33,24.67,-1.00,-1.0,2363
5288,2140288,18848,788,2856,19079.43,24.62,-1.00,-1.0,2439
5291,2140291,14988,-1772,848,15116.19,24.58,-1.00,-1.0,2351
5296,2140296,17816,-600,896,17848.60,24.58,-1.00,-1.0,2447
5299,2140299,15684,-104,-796,15704.53,24.58,-1.00,-1.0,2374
5301,2140301,18812,-284,-368,18817.74,24.67,-1.00,-1.0,2367
5304,2140304,15524,-1036,888,15583.85,24.62,-1.00,-1.0,2440
5307,2140307,18420,-924,1428,18498.36,24.58,-1.00,-1.0,2364
5310,2140310,15720,-560,1608,15811.95,24.62,-1.00,-1.0,2449
5312,2140312,17328,540,-900,17359.76,24.62,-1.00,-1.0,2370
5315,2140315,18240,1176,1192,18316.70,24.62,-1.00,-1.0,2440
5318,2140318,15208,-1408,-588,15284.35,24.67,-1.00,-1.0,2364
5323,2140323,15252,-1824,2356,15540.31,24.72,-1.00,-1.0,2447
5326,2140326,17812,-616,-1656,17899.42,24.62,-1.00,-1.0,2362
5328,2140328,17316,956,692,17356.17,24.67,-1.00,-1.0,2426
5331,2140331,14412,-364,-132,14417.20,24.62,-1.00,-1.0,2363
5334,2140334,19664,-848,892,19702.48,24.67,-1.00,-1.0,2440
5337,2140337,14656,-276,724,14676.47,24.62,-1.00,-1.0,2362
5339,2140339,19956,60,328,19958.79,24.67,-1.00,-1.0,2439
5342,2140342,16316,-648,4,16328.86,24.53,-1.00,-1.0,2362
5345,2140345,17372,-1796,-768,17481.47,24.77,-1.00,-1.0,2369
5350,2140350,14040,-1248,764,14116.05,24.58,-1.00,-1.0,2447
5353,2140353,19828,-532,-1376,19882.81,24.58,-1.00,-1.0,2370
5355,2140355,14472,1428,1704,14641.78,24.67,-1.00,-1.0,2440
5358,2140358,17332,-792,-452,17355.97,24.67,-1.00,-1.0,2364
5361,2140361,17384,-1120,1956,17529.51,24.67,-1.00,-1.0,2439
5364,2140364,16220,-1344,60,16275.70,24.67,-1.00,-1.0,2363
5366,2140366,18556,68,-56,18556.21,24.58,-1.00,-1.0,2439
5369,2140369,13988,664,1704,14107.04,24.67,-1.00,-1.0,2350
5374,2140374,16872,-264,1568,16946.76,24.67,-1.00,-1.0,2448
5377,2140377,16096,-1112,584,16144.93,24.67,-1.00,-1.0,2371
5380,2140380,18060,-668,52,18072.42,24.58,-1.00,-1.0,2438
5382,2140382,13612,-136,1964,13753.63,24.77,-1.00,-1.0,2366
5385,2140385,20588,-1320,720,20642.83,24.58,-1.00,-1.0,2440
5388,2140388,14156,-644,1704,14272.73,24.67,-1.00,-1.0,2363
5390,2140390,18552,1324,-464,18604.97,24.72,-1.00,-1.0,2362
5393,2140393,18204,2080,1156,18358.88,24.58,-1.00,-1.0,2439
5396,2140396,14688,-1612,-428,14782.39,24.72,-1.00,-1.0,2371
5401,2140401,13932,-1840,2788,14326.87,24.58,-1.00,-1.0,2447
5404,2140404,18956,-604,-584,18974.61,24.62,-1.00,-1.0,2362
5406,2140406,15612,-104,-460,15619.12,24.67,-1.00,-1.0,2439
5409,2140409,15140,52,-280,15142.68,24.62,-1.00,-1.0,2363
5412,2140412,19020,-840,172,19039.32,24.67,-1.00,-1.0,2439
5415,2140415,15564,-1428,472,15636.50,24.72,-1.00,-1.0,2365
5417,2140417,19244,-484,1356,19297.79,24.67,-1.00,-1.0,2440
5420,2140420,15596,-380,1368,15660.49,24.62,-1.00,-1.0,2351
5425,2140425,18908,-500,368,18918.19,24.62,-1.00,-1.0,2461
5428,2140428,15620,-1272,588,15682.73,24.72,-1.00,-1.0,2370
5431,2140431,19072,-56,2408,19223.50,24.67,-1.00,-1.0,2454
5433,2140433,14676,-276,-896,14705.92,24.62,-1.00,-1.0,2372
5436,2140436,17252,1244,1692,17379.35,24.67,-1.00,-1.0,2361
5439,2140439,16284,-504,2248,16446.16,24.58,-1.00,-1.0,2434
5441,2140441,16676,-700,1560,16763.43,24.58,-1.00,-1.0,2349
5444,2140444,19324,-752,112,19338.95,24.58,-1.00,-1.0,2426
5447,2140447,15612,516,-340,15624.22,24.58,-1.00,-1.0,2363
5452,2140452,16352,-1004,1456,16447.37,24.67,-1.00,-1.0,2440
5455,2140455,17568,-1452,1764,17715.94,24.62,-1.00,-1.0,2365
5458,2140458,16628,-1048,1780,16755.81,24.58,-1.00,-1.0,2453
5460,2140460,16288,-136,-616,16300.21,24.67,-1.00,-1.0,2372
5463,2140463,19444,772,508,19465.95,24.58,-1.00,-1.0,2448
5466,2140466,13336,108,284,13339.46,24.67,-1.00,-1.0,2367
5469,2140469,21180,-892,2208,21313.46,24.48,-1.00,-1.0,2449
5471,2140471,12992,-1592,1472,13171.69,24.77,-1.00,-1.0,2372
5476,2140476,17644,412,-396,17653.25,24.58,-1.00,-1.0,2454
5479,2140479,10676,1440,-384,10779.52,24.62,-1.00,-1.0,2371
5482,2140482,24456,-724,792,24479.53,24.58,-1.00,-1.0,2361
5484,2140484,9976,-2264,2920,10638.26,24.67,-1.00,-1.0,2439
5487,2140487,19336,-2372,268,19482.79,24.67,-1.00,-1.0,2365
5490,2140490,16768,376,-1148,16811.46,24.58,-1.00,-1.0,2439
5493,2140493,16732,2512,12,16919.52,24.67,-1.00,-1.0,2366
5495,2140495,17816,-836,1028,17865.21,24.58,-1.00,-1.0,2442
5498,2140498,15060,-3128,1720,15477.29,24.62,-1.00,-1.0,2363
5503,2140503,13120,-744,524,13151.52,24.67,-1.00,-1.0,2447
5506,2140506,18888,1728,-840,18985.47,24.58,-1.00,-1.0,2363
5509,2140509,16540,-884,876,16586.75,24.72,-1.00,-1.0,2438
5511,2140511,17224,-3328,1376,17596.45,24.67,-1.00,-1.0,2366
5514,2140514,17916,-1440,1200,18013.79,24.62,-1.00,-1.0,2440
5517,2140517,12076,836,-500,12115.22,24.58,-1.00,-1.0,2362
5520,2140520,21896,1948,364,21985.50,24.72,-1.00,-1.0,2434
5522,2140522,11104,-624,644,11140.15,24.58,-1.00,-1.0,2371
5525,2140525,22520,-1740,2980,22782.85,24.62,-1.00,-1.0,2361
5530,2140530,16024,468,228,16032.45,24.62,-1.00,-1.0,2447
5533,2140533,21208,1652,140,21272.71,24.72,-1.00,-1.0,2352
5536,2140536,11908,468,-308,11921.17,24.62,-1.00,-1.0,2436
5538,2140538,21864,-1780,1564,21992.02,24.58,-1.00,-1.0,2367
5541,2140541,13108,-2708,2480,13612.62,24.62,-1.00,-1.0,2440
5544,2140544,17380,-1872,548,17489.11,24.72,-1.00,-1.0,2363
5547,2140547,16808,1232,-148,16853.74,24.62,-1.00,-1.0,2439
5549,2140549,16652,1104,-2516,16877.15,24.58,-1.00,-1.0,2366
5555,2140555,12652,-2652,900,12958.25,24.67,-1.00,-1.0,2447
5557,2140557,21792,-1304,1996,21922.04,24.67,-1.00,-1.0,2366
5560,2140560,14788,-32,904,14815.64,24.58,-1.00,-1.0,2454
5563,2140563,18008,1408,-304,18065.52,24.67,-1.00,-1.0,2372
5566,2140566,15972,-924,232,16000.39,24.67,-1.00,-1.0,2452
5568,2140568,17792,-1712,792,17891.71,24.58,-1.00,-1.0,2366
5571,2140571,20780,-1728,900,20871.14,24.58,-1.00,-1.0,2346
5574,2140574,13344,-916,-768,13397.43,24.53,-1.00,-1.0,2449
5576,2140576,21656,364,-344,21661.79,24.67,-1.00,-1.0,2372
5581,2140581,19968,-1208,760,20018.94,24.72,-1.00,-1.0,2453
5584,2140584,18868,-2016,1016,19002.58,24.62,-1.00,-1.0,2365
5587,2140587,15188,-1464,544,15268.09,24.72,-1.00,-1.0,2432
5589,2140589,20332,796,40,20347.62,24.67,-1.00,-1.0,2371
5592,2140592,12956,1120,260,13006.92,24.72,-1.00,-1.0,2440
5595,2140595,21032,104,152,21032.81,24.62,-1.00,-1.0,2365
5598,2140598,13476,-1780,2128,13758.61,24.53,-1.00,-1.0,2447
5600,2140600,19548,-936,1824,19655.21,24.67,-1.00,-1.0,2372
5605,2140605,14420,1200,12,14469.85,24.62,-1.00,-1.0,2447
5608,2140608,21024,508,-224,21031.33,24.62,-1.00,-1.0,2351
5611,2140611,12952,-1464,1644,13137.75,24.67,-1.00,-1.0,2436
5613,2140613,20768,-1824,312,20850.28,24.62,-1.00,-1.0,2366
5616,2140616,18520,-492,1772,18611.08,24.67,-1.00,-1.0,2360
5619,2140619,14236,-176,-816,14260.45,24.58,-1.00,-1.0,2440
5621,2140621,20460,392,-20,20463.77,24.67,-1.00,-1.0,2363
5624,2140624,13796,-716,2136,13978.73,24.62,-1.00,-1.0,2446
5627,2140627,20708,-1920,1764,20871.50,24.67,-1.00,-1.0,2375
5632,2140632,20764,1024,136,20789.68,24.58,-1.00,-1.0,2447
5635,2140635,19548,684,-760,19574.72,24.58,-1.00,-1.0,2364
5638,2140638,13584,300,0,13587.31,24.62,-1.00,-1.0,2445
5640,2140640,22248,-1188,976,22301.06,24.77,-1.00,-1.0,2365
5643,2140643,11100,-1848,1140,11310.38,24.58,-1.00,-1.0,2445
5646,2140646,22024,-756,1092,22064.01,24.67,-1.00,-1.0,2364
5649,2140649,12868,-236,44,12870.24,24.72,-1.00,-1.0,2445
5651,2140651,20112,728,40,20125.21,24.67,-1.00,-1.0,2365
5654,2140654,15016,-912,940,15073.01,24.72,-1.00,-1.0,2369
5659,2140659,23004,-392,1800,23077.64,24.67,-1.00,-1.0,2446
5662,2140662,11508,-560,1352,11600.67,24.58,-1.00,-1.0,2364
5665,2140665,21372,388,1024,21400.04,24.62,-1.00,-1.0,2445
5667,2140667,12892,-976,884,12959.08,24.67,-1.00,-1.0,2365
5670,2140670,20304,-1072,-572,20340.32,24.62,-1.00,-1.0,2452
5673,2140673,15196,-492,1244,15254.77,24.62,-1.00,-1.0,2364
5676,2140676,13004,-960,-868,13068.25,24.62,-1.00,-1.0,2445
5678,2140678,22732,-140,960,22752.69,24.58,-1.00,-1.0,2365
5683,2140683,22176,-132,564,22183.56,24.58,-1.00,-1.0,2447
5686,2140686,13096,-472,720,13124.27,24.77,-1.00,-1.0,2363
5689,2140689,13872,-624,40,13886.08,24.58,-1.00,-1.0,2438
5692,2140692,21196,-716,108,21208.37,24.67,-1.00,-1.0,2368
5694,2140694,12072,-300,1212,12136.40,24.67,-1.00,-1.0,2365
5697,2140697,22060,-724,868,22088.94,24.62,-1.00,-1.0,2438
5700,2140700,11540,-456,1712,11675.21,24.67,-1.00,-1.0,2371
5703,2140703,21840,-168,2292,21960.58,24.62,-1.00,-1.0,2437
5705,2140705,11876,-580,616,11906.10,24.67,-1.00,-1.0,2366
5710,2140710,20752,780,296,20768.76,24.67,-1.00,-1.0,2457
5713,2140713,13384,-1672,592,13501.02,24.62,-1.00,-1.0,2373
5716,2140716,23740,-2000,2468,23951.59,24.67,-1.00,-1.0,2439
5719,2140719,11744,-1756,64,11874.73,24.62,-1.00,-1.0,2369
5721,2140721,22792,1292,1428,22873.21,24.58,-1.00,-1.0,2440
5724,2140724,9376,872,536,9431.71,24.58,-1.00,-1.0,2368
5727,2140727,15520,648,-176,15534.52,24.67,-1.00,-1.0,2438
5730,2140730,20628,-1628,2808,20881.80,24.62,-1.00,-1.0,2368
5735,2140735,25928,-140,2152,26017.53,24.62,-1.00,-1.0,2447
5737,2140737,8124,1100,-552,8216.70,24.62,-1.00,-1.0,2365
5740,2140740,17856,1848,-280,17953.56,24.53,-1.00,-1.0,2348
5743,2140743,17208,-1552,648,17289.99,24.67,-1.00,-1.0,2449
5745,2140745,14680,-2404,664,14890.35,24.67,-1.00,-1.0,2374
5748,2140748,22440,-1688,924,22522.36,24.67,-1.00,-1.0,2450
5751,2140751,6684,-288,-168,6692.31,24.67,-1.00,-1.0,2368
5754,2140754,26376,2184,624,26473.62,24.58,-1.00,-1.0,2451
5756,2140756,9340,-740,-1028,9425.50,24.62,-1.00,-1.0,2365
5761,2140761,17464,-2536,904,17670.31,24.67,-1.00,-1.0,2449
5764,2140764,14084,572,-700,14112.98,24.67,-1.00,-1.0,2363
5767,2140767,26608,1308,1144,26664.68,24.62,-1.00,-1.0,2438
5770,2140770,7148,-1284,556,7283.66,24.67,-1.00,-1.0,2363
5772,2140772,25520,-1240,2048,25632.06,24.67,-1.00,-1.0,2437
5775,2140775,10084,-1268,-996,10212.10,24.67,-1.00,-1.0,2367
5778,2140778,15848,1380,828,15929.50,24.58,-1.00,-1.0,2438
5781,2140781,18456,-492,-148,18463.15,24.58,-1.00,-1.0,2366
5783,2140783,14872,-808,-256,14896.13,24.62,-1.00,-1.0,2361
5790,2140790,19412,724,740,19439.59,24.62,-1.00,-1.0,2447
5793,2140793,15720,160,-864,15744.54,24.62,-1.00,-1.0,2365
5796,2140796,9172,1300,532,9278.93,24.62,-1.00,-1.0,2444
5798,2140798,25180,-1176,1120,25232.32,24.62,-1.00,-1.0,2364
5801,2140801,8932,-2248,1372,9312.17,24.72,-1.00,-1.0,2438
5804,2140804,25204,-504,2680,25351.10,24.62,-1.00,-1.0,2365
5807,2140807,13920,-492,292,13931.75,24.53,-1.00,-1.0,2434
5809,2140809,19688,1488,-24,19744.17,24.67,-1.00,-1.0,2366
5814,2140814,10892,-492,644,10922.11,24.72,-1.00,-1.0,2449
5817,2140817,23716,-1036,1868,23812.00,24.72,-1.00,-1.0,2365
5820,2140820,11692,-1272,720,11783.01,24.58,-1.00,-1.0,2445
5822,2140822,21548,-52,-116,21548.38,24.72,-1.00,-1.0,2365
5825,2140825,13408,-952,1328,13507.20,24.58,-1.00,-1.0,2419
5828,2140828,20088,-1444,-360,20143.05,24.67,-1.00,-1.0,2444
5831,2140831,21372,-284,3128,21601.56,24.62,-1.00,-1.0,2371
5834,2140834,11636,-548,-1824,11790.83,24.58,-1.00,-1.0,2439
5836,2140836,23672,1276,320,23708.53,24.67,-1.00,-1.0,2366
5841,2140841,21256,-1244,1320,21333.25,24.72,-1.00,-1.0,2451
5844,2140844,14264,-2120,1348,14483.55,24.62,-1.00,-1.0,2363
5847,2140847,12192,-1328,264,12266.95,24.67,-1.00,-1.0,2445
5849,2140849,22804,664,716,22824.90,24.62,-1.00,-1.0,2363
5852,2140852,9860,980,316,9913.62,24.67,-1.00,-1.0,2440
5855,2140855,24852,-784,1336,24900.23,24.62,-1.00,-1.0,2363
5858,2140858,10424,-1976,1968,10790.62,24.67,-1.00,-1.0,2444
5860,2140860,22064,-532,2792,22246.31,24.72,-1.00,-1.0,2362
5865,2140865,10928,1556,-796,11066.88,24.72,-1.00,-1.0,2455
5868,2140868,24808,-132,112,24808.60,24.67,-1.00,-1.0,2358
5871,2140871,6572,-1568,1268,6874.42,24.62,-1.00,-1.0,2364
5873,2140873,26464,-604,3092,26650.87,24.67,-1.00,-1.0,2439
5876,2140876,9144,-1512,-236,9271.17,24.62,-1.00,-1.0,2364
5879,2140879,23496,1768,1916,23640.20,24.67,-1.00,-1.0,2439
5882,2140882,22540,-596,-1028,22571.30,24.62,-1.00,-1.0,2363
5884,2140884,11100,-184,116,11102.13,24.67,-1.00,-1.0,2439
5887,2140887,25152,-1908,2236,25323.18,24.62,-1.00,-1.0,2363
5892,2140892,28700,1312,2692,28855.82,24.72,-1.00,-1.0,2454
5895,2140895,5308,-908,-680,5427.87,24.62,-1.00,-1.0,2363
5898,2140898,13872,408,-4,13878.00,24.62,-1.00,-1.0,2450
5900,2140900,22644,-1852,60,22719.69,24.72,-1.00,-1.0,2370
5903,2140903,10048,-676,-152,10071.86,24.72,-1.00,-1.0,2440
5906,2140906,26988,-1020,1388,27042.91,24.72,-1.00,-1.0,2363
5909,2140909,3148,-876,-252,3277.31,24.62,-1.00,-1.0,2450
5911,2140911,29540,2188,2816,29754.47,24.53,-1.00,-1.0,2371
5914,2140914,5316,-1372,496,5512.55,24.62,-1.00,-1.0,2348
5919,2140919,23204,-2240,312,23313.96,24.62,-1.00,-1.0,2450
5922,2140922,3584,-1168,-752,3843.80,24.62,-1.00,-1.0,2368
5924,2140924,30436,1084,2324,30543.84,24.62,-1.00,-1.0,2425
5927,2140927,5292,-680,-440,5353.62,24.72,-1.00,-1.0,2380
5930,2140930,27312,316,2704,27447.35,24.81,-1.00,-1.0,2438
5933,2140933,18748,-1716,1104,18858.71,24.62,-1.00,-1.0,2368
5935,2140935,12928,-720,880,12977.90,24.53,-1.00,-1.0,2440
5938,2140938,21816,-1616,-748,21888.55,24.62,-1.00,-1.0,2381
5943,2140943,28368,700,3124,28548.08,24.58,-1.00,-1.0,2446
5946,2140946,5464,-2272,-1712,6160.21,24.62,-1.00,-1.0,2370
5949,2140949,18456,-104,3016,18701.10,24.62,-1.00,-1.0,2453
5951,2140951,17108,-1996,372,17228.06,24.62,-1.00,-1.0,2368
5954,2140954,13808,1872,1364,14000.92,24.62,-1.00,-1.0,2347
5957,2140957,29756,1076,1300,29803.81,24.48,-1.00,-1.0,2451
5959,2140959,4492,-1052,-1432,4830.67,24.72,-1.00,-1.0,2371
5962,2140962,30148,-916,4432,30485.79,24.67,-1.00,-1.0,2439
5965,2140965,4088,-2264,-2124,5133.11,24.53,-1.00,-1.0,2362
5970,2140970,15700,-804,-1532,15795.04,24.53,-1.00,-1.0,2457
5973,2140973,5152,180,-1556,5384.85,24.62,-1.00,-1.0,2366
5975,2140975,30584,-1716,3000,30778.66,24.62,-1.00,-1.0,2449
5978,2140978,3460,-1812,-576,3948.00,24.62,-1.00,-1.0,2368
5981,2140981,31296,2028,2472,31458.91,24.62,-1.00,-1.0,2443
5984,2140984,10920,-684,-2668,11261.99,24.72,-1.00,-1.0,2366
5986,2140986,20280,752,2532,20451.28,24.67,-1.00,-1.0,2451
5989,2140989,17220,-4080,-360,17700.41,24.62,-1.00,-1.0,2370
5996,2140996,6168,-412,-2560,6690.86,24.67,-1.00,-1.0,2448
5999,2140999,10428,1712,168,10568.93,24.58,-1.00,-1.0,2363
6001,2141001,26268,-2624,1896,26466.73,24.53,-1.00,-1.0,2361
6004,2141004,5760,-2144,1184,6259.09,24.72,-1.00,-1.0,2440
6007,2141007,30200,1044,4424,30540.17,24.67,-1.00,-1.0,2364
6009,2141009,4880,-460,-4084,6380.05,24.72,-1.00,-1.0,2440
6012,2141012,26920,3080,4108,27405.26,24.58,-1.00,-1.0,2349
6015,2141015,10016,-4636,-1620,11155.14,24.67,-1.00,-1.0,2440
6018,2141018,8908,-2480,884,9288.94,24.67,-1.00,-1.0,2366
6022,2141022,3584,-136,-3008,4680.98,24.62,-1.00,-1.0,2447
6025,2141025,28020,3204,4312,28530.32,24.62,-1.00,-1.0,2362
6028,2141028,7420,-3692,-1880,8498.33,24.62,-1.00,-1.0,2439
6031,2141031,12256,-1524,1884,12493.26,24.67,-1.00,-1.0,2364
6033,2141033,24788,-1324,852,24837.95,24.62,-1.00,-1.0,2439
6036,2141036,6404,1312,-804,6586.27,24.67,-1.00,-1.0,2363
6039,2141039,29428,516,1512,29471.33,24.67,-1.00,-1.0,2440
6042,2141042,6024,-2984,-1940,6996.89,24.67,-1.00,-1.0,2363
6044,2141044,25700,64,4576,26104.29,24.62,-1.00,-1.0,2362
