timestamp_ms,global_ms,accel_x,accel_y,accel_z,accel_mag,temp_c,voltage,soc,loop_us
2,2135002,17076,1828,1776,17265.15,26.51,-1.00,-1.0,2485
9,2135009,16820,344,1084,16858.40,26.46,-1.00,-1.0,2464
12,2135012,16904,3452,1540,17321.46,26.60,-1.00,-1.0,2375
14,2135014,17236,1900,1688,17422.37,26.46,-1.00,-1.0,2437
17,2135017,17048,308,1756,17140.96,26.46,-1.00,-1.0,2361
20,2135020,16756,-460,1524,16831.45,26.46,-1.00,-1.0,2360
22,2135022,17156,144,1648,17235.57,26.60,-1.00,-1.0,2433
25,2135025,16936,500,2032,17064.79,26.55,-1.00,-1.0,2366
28,2135028,17128,-452,1428,17193.37,26.51,-1.00,-1.0,2431
31,2135031,17212,-872,1112,17269.91,26.55,-1.00,-1.0,2365
35,2135035,16956,452,1816,17058.96,26.51,-1.00,-1.0,2447
38,2135038,17252,428,1808,17351.76,26.55,-1.00,-1.0,2360
41,2135041,16704,-568,1216,16757.83,26.51,-1.00,-1.0,2437
44,2135044,16652,-1452,1368,16771.07,26.55,-1.00,-1.0,2365
46,2135046,16680,-816,1328,16752.67,26.51,-1.00,-1.0,2355
49,2135049,16956,1440,1292,17066.01,26.41,-1.00,-1.0,2438
52,2135052,17016,1792,1512,17176.78,26.51,-1.00,-1.0,2366
54,2135054,17280,788,1616,17373.28,26.60,-1.00,-1.0,2432
57,2135057,17164,796,1564,17253.48,26.51,-1.00,-1.0,2364
62,2135062,17060,428,1448,17126.69,26.60,-1.00,-1.0,2454
65,2135065,17028,56,1452,17089.89,26.46,-1.00,-1.0,2347
68,2135068,16888,308,1300,16940.76,26.60,-1.00,-1.0,2448
70,2135070,17136,332,880,17161.79,26.37,-1.00,-1.0,2369
73,2135073,16996,156,1192,17038.46,26.51,-1.00,-1.0,2350
76,2135076,16896,-352,1568,16972.25,26.51,-1.00,-1.0,2434
78,2135078,16688,-188,1488,16755.26,26.46,-1.00,-1.0,2362
81,2135081,17052,-124,1416,17111.14,26.51,-1.00,-1.0,2438
84,2135084,17240,508,1376,17302.29,26.55,-1.00,-1.0,2360
89,2135089,17260,796,1352,17331.16,26.55,-1.00,-1.0,2454
92,2135092,17336,-40,1288,17383.83,26.51,-1.00,-1.0,2362
94,2135094,16948,460,1668,17036.10,26.55,-1.00,-1.0,2449
97,2135097,17080,1320,1616,17206.98,26.55,-1.00,-1.0,2368
100,2135100,16688,1416,1264,16795.60,26.55,-1.00,-1.0,2447
102,2135102,16852,92,844,16873.37,26.51,-1.00,-1.0,2360
105,2135105,16936,-264,884,16961.11,26.46,-1.00,-1.0,2369
108,2135108,16800,600,1428,16871.25,26.51,-1.00,-1.0,2437
111,2135111,16900,688,1748,17004.08,26.46,-1.00,-1.0,2364
116,2135116,17192,-836,1580,17284.68,26.55,-1.00,-1.0,2446
118,2135118,17212,52,1644,17290.41,26.46,-1.00,-1.0,2361
121,2135121,17428,636,1596,17512.48,26.55,-1.00,-1.0,2453
124,2135124,17284,-8,1628,17360.50,26.55,-1.00,-1.0,2362
127,2135127,16924,-684,1656,17018.58,26.46,-1.00,-1.0,2439
129,2135129,16756,120,1660,16838.45,26.37,-1.00,-1.0,2360
132,2135132,16956,1056,1500,17054.94,26.55,-1.00,-1.0,2370
135,2135135,16756,1648,1228,16881.57,26.51,-1.00,-1.0,2445
137,2135137,16760,592,1244,16816.53,26.46,-1.00,-1.0,2367
142,2135142,17024,-268,996,17055.22,26.55,-1.00,-1.0,2445
145,2135145,17080,-12,1064,17113.11,26.55,-1.00,-1.0,2359
148,2135148,17104,148,1372,17159.58,26.46,-1.00,-1.0,2444
150,2135150,17084,308,1464,17149.38,26.51,-1.00,-1.0,2360
153,2135153,17100,360,1500,17169.44,26.46,-1.00,-1.0,2443
156,2135156,17108,168,1700,17193.08,26.55,-1.00,-1.0,2358
159,2135159,17008,92,1752,17098.25,26.55,-1.00,-1.0,2449
161,2135161,16812,64,1780,16906.09,26.60,-1.00,-1.0,2361
164,2135164,16796,284,1664,16880.62,26.51,-1.00,-1.0,2362
169,2135169,17100,1368,1260,17200.84,26.51,-1.00,-1.0,2433
172,2135172,16996,1432,1384,17112.28,26.55,-1.00,-1.0,2360
175,2135175,16956,868,1380,17034.19,26.46,-1.00,-1.0,2438
178,2135178,16860,-368,1204,16906.94,26.41,-1.00,-1.0,2365
180,2135180,16948,-292,1484,17015.35,26.60,-1.00,-1.0,2432
183,2135183,16996,60,1660,17076.98,26.51,-1.00,-1.0,2365
186,2135186,17000,148,1704,17085.83,26.55,-1.00,-1.0,2432
189,2135189,17116,-160,1608,17192.11,26.51,-1.00,-1.0,2365
194,2135194,17180,828,1476,17263.16,26.51,-1.00,-1.0,2448
196,2135196,16880,288,1444,16944.10,26.51,-1.00,-1.0,2364
199,2135199,16896,-360,1436,16960.73,26.51,-1.00,-1.0,2361
202,2135202,16788,-580,1184,16839.69,26.46,-1.00,-1.0,2434
204,2135204,16948,800,1236,17011.83,26.60,-1.00,-1.0,2373
207,2135207,16956,1676,1348,17091.87,26.55,-1.00,-1.0,2433
210,2135210,16996,944,1572,17094.63,26.51,-1.00,-1.0,2368
213,2135213,16896,-488,1448,16964.95,26.46,-1.00,-1.0,2443
215,2135215,17000,-408,1400,17062.43,26.51,-1.00,-1.0,2373
220,2135220,17360,540,1424,17426.67,26.55,-1.00,-1.0,2446
223,2135223,17324,276,1580,17398.09,26.46,-1.00,-1.0,2360
226,2135226,17008,256,1520,17077.71,26.65,-1.00,-1.0,2435
228,2135228,16916,340,1588,16993.78,26.51,-1.00,-1.0,2363
231,2135231,16956,792,1508,17041.34,26.55,-1.00,-1.0,2438
234,2135234,16904,872,1440,16987.62,26.51,-1.00,-1.0,2359
236,2135236,16972,320,1204,17017.66,26.55,-1.00,-1.0,2361
239,2135239,17028,-324,1148,17069.73,26.55,-1.00,-1.0,2433
242,2135242,17104,80,1336,17156.29,26.60,-1.00,-1.0,2354
247,2135247,17064,952,1344,17143.30,26.46,-1.00,-1.0,2445
250,2135250,17112,500,1228,17163.29,26.55,-1.00,-1.0,2365
253,2135253,16964,-228,1372,17020.92,26.55,-1.00,-1.0,2437
255,2135255,16908,36,1324,16959.80,26.51,-1.00,-1.0,2369
258,2135258,16792,504,1340,16852.92,26.55,-1.00,-1.0,2438
261,2135261,16796,276,1496,16864.75,26.55,-1.00,-1.0,2347
263,2135263,16868,-252,1608,16946.34,26.55,-1.00,-1.0,2361
266,2135266,16940,148,1760,17031.83,26.60,-1.00,-1.0,2432
269,2135269,17192,892,1896,17319.22,26.55,-1.00,-1.0,2366
274,2135274,17220,104,1876,17322.20,26.55,-1.00,-1.0,2448
277,2135277,17216,-220,1464,17279.54,26.55,-1.00,-1.0,2368
280,2135280,17032,164,1412,17091.22,26.55,-1.00,-1.0,2441
283,2135283,16940,576,1380,17005.88,26.55,-1.00,-1.0,2366
285,2135285,16824,468,1432,16891.32,26.51,-1.00,-1.0,2461
288,2135288,16652,-180,1216,16697.31,26.51,-1.00,-1.0,2362
291,2135291,16728,-220,1324,16781.76,26.51,-1.00,-1.0,2439
294,2135294,16956,456,1444,17023.48,26.51,-1.00,-1.0,2372
299,2135299,17160,496,1500,17232.57,26.51,-1.00,-1.0,2445
301,2135301,17160,-200,1504,17226.95,26.55,-1.00,-1.0,2361
304,2135304,17228,-396,1396,17289.00,26.51,-1.00,-1.0,2364
307,2135307,17028,32,1404,17085.81,26.60,-1.00,-1.0,2448
309,2135309,17040,672,1612,17129.27,26.51,-1.00,-1.0,2360
312,2135312,17000,728,1332,17067.64,26.51,-1.00,-1.0,2439
315,2135315,17088,380,1576,17164.73,26.51,-1.00,-1.0,2359
318,2135318,16916,392,1348,16974.15,26.60,-1.00,-1.0,2446
320,2135320,16916,512,1500,16990.09,26.51,-1.00,-1.0,2360
325,2135325,17100,628,1256,17157.56,26.51,-1.00,-1.0,2445
328,2135328,16984,4,1212,17027.19,26.55,-1.00,-1.0,2360
331,2135331,16988,-372,1300,17041.73,26.60,-1.00,-1.0,2361
333,2135333,17076,40,1392,17132.69,26.51,-1.00,-1.0,2432
336,2135336,17008,652,1608,17096.28,26.51,-1.00,-1.0,2366
339,2135339,16952,636,1552,17034.77,26.51,-1.00,-1.0,2430
342,2135342,17004,64,1464,17067.03,26.65,-1.00,-1.0,2365
345,2135345,17056,72,1224,17100.01,26.46,-1.00,-1.0,2432
347,2135347,17044,660,1460,17119.14,26.51,-1.00,-1.0,2365
352,2135352,16900,188,1248,16947.06,26.51,-1.00,-1.0,2445
355,2135355,16900,348,1312,16954.42,26.51,-1.00,-1.0,2360
358,2135358,16908,692,1424,16981.96,26.51,-1.00,-1.0,2441
361,2135361,16932,964,1516,17027.04,26.51,-1.00,-1.0,2365
363,2135363,16924,80,1524,16992.67,26.51,-1.00,-1.0,2356
366,2135366,17112,-264,1384,17169.91,26.55,-1.00,-1.0,2438
369,2135369,17056,-88,1524,17124.18,26.51,-1.00,-1.0,2365
372,2135372,17172,588,1620,17258.27,26.55,-1.00,-1.0,2446
374,2135374,17156,552,1452,17226.18,26.46,-1.00,-1.0,2365
379,2135379,17068,344,1372,17126.51,26.46,-1.00,-1.0,2446
382,2135382,17000,600,1376,17066.15,26.51,-1.00,-1.0,2348
385,2135385,16828,732,1452,16906.38,26.60,-1.00,-1.0,2437
388,2135388,16936,484,1428,17002.99,26.51,-1.00,-1.0,2365
390,2135390,16756,348,1388,16816.99,26.51,-1.00,-1.0,2432
393,2135393,16976,500,1584,17057.07,26.41,-1.00,-1.0,2366
396,2135396,16980,516,1440,17048.76,26.51,-1.00,-1.0,2363
399,2135399,17124,300,1348,17179.60,26.51,-1.00,-1.0,2449
402,2135402,17192,-168,1448,17253.69,26.55,-1.00,-1.0,2367
407,2135407,17036,-16,1676,17118.25,26.55,-1.00,-1.0,2445
409,2135409,17092,192,1648,17172.34,26.51,-1.00,-1.0,2360
412,2135412,16980,248,1600,17057.02,26.46,-1.00,-1.0,2438
415,2135415,16968,200,1488,17034.29,26.46,-1.00,-1.0,2374
417,2135417,16912,440,1520,16985.87,26.55,-1.00,-1.0,2432
420,2135420,16972,648,1564,17056.22,26.51,-1.00,-1.0,2352
423,2135423,17024,184,1412,17083.45,26.55,-1.00,-1.0,2432
426,2135426,17044,-16,1432,17104.06,26.41,-1.00,-1.0,2366
429,2135429,17012,276,1484,17078.83,26.55,-1.00,-1.0,2362
433,2135433,17220,532,1524,17295.49,26.60,-1.00,-1.0,2448
436,2135436,17024,252,1424,17085.31,26.41,-1.00,-1.0,2368
439,2135439,16984,112,1392,17041.32,26.60,-1.00,-1.0,2438
442,2135442,16904,64,1328,16956.21,26.51,-1.00,-1.0,2363
444,2135444,16844,12,1376,16900.11,26.51,-1.00,-1.0,2440
447,2135447,16920,40,1348,16973.66,26.60,-1.00,-1.0,2377
450,2135450,16984,28,1340,17036.80,26.60,-1.00,-1.0,2441
453,2135453,17028,328,1436,17091.59,26.51,-1.00,-1.0,2362
456,2135456,17040,364,1432,17103.94,26.41,-1.00,-1.0,2361
460,2135460,16992,188,1460,17055.64,26.60,-1.00,-1.0,2454
463,2135463,16988,124,1460,17051.07,26.51,-1.00,-1.0,2367
466,2135466,16872,220,1436,16934.43,26.51,-1.00,-1.0,2438
469,2135469,16908,496,1548,16985.96,26.51,-1.00,-1.0,2365
471,2135471,17088,572,1408,17155.45,26.51,-1.00,-1.0,2441
474,2135474,16992,236,1588,17067.67,26.51,-1.00,-1.0,2376
477,2135477,17068,60,1288,17116.63,26.41,-1.00,-1.0,2440
480,2135480,17100,-40,1408,17157.92,26.51,-1.00,-1.0,2362
485,2135485,16936,240,1472,17001.54,26.51,-1.00,-1.0,2447
487,2135487,17020,124,1584,17094.00,26.51,-1.00,-1.0,2370
490,2135490,16956,104,1616,17033.15,26.55,-1.00,-1.0,2362
493,2135493,17072,208,1568,17145.12,26.55,-1.00,-1.0,2433
495,2135495,16992,484,1688,17082.50,26.51,-1.00,-1.0,2362
498,2135498,17012,604,1608,17098.50,26.51,-1.00,-1.0,2437
501,2135501,17004,468,1520,17078.21,26.51,-1.00,-1.0,2347
504,2135504,16992,348,1548,17065.92,26.46,-1.00,-1.0,2443
507,2135507,17080,472,1540,17155.78,26.55,-1.00,-1.0,2360
512,2135512,17012,624,1408,17081.57,26.46,-1.00,-1.0,2447
514,2135514,16976,420,1412,17039.80,26.41,-1.00,-1.0,2368
517,2135517,17088,336,1468,17154.23,26.51,-1.00,-1.0,2439
520,2135520,16924,316,1224,16971.15,26.51,-1.00,-1.0,2363
522,2135522,17076,328,1308,17129.16,26.55,-1.00,-1.0,2360
525,2135525,17040,280,1136,17080.12,26.55,-1.00,-1.0,2433
528,2135528,17080,104,1292,17129.11,26.46,-1.00,-1.0,2367
531,2135531,16968,260,1168,17010.14,26.46,-1.00,-1.0,2436
534,2135534,17076,540,1216,17127.76,26.55,-1.00,-1.0,2366
539,2135539,16908,628,1500,16986.02,26.46,-1.00,-1.0,2446
541,2135541,17004,504,1488,17076.42,26.55,-1.00,-1.0,2364
544,2135544,16972,400,1752,17066.88,26.55,-1.00,-1.0,2438
547,2135547,16972,340,1636,17054.06,26.46,-1.00,-1.0,2361
550,2135550,17100,260,1584,17175.18,26.55,-1.00,-1.0,2435
552,2135552,16972,144,1556,17043.79,26.55,-1.00,-1.0,2374
555,2135555,17028,0,1476,17091.85,26.46,-1.00,-1.0,2356
558,2135558,17028,20,1396,17085.14,26.60,-1.00,-1.0,2439
561,2135561,17068,168,1468,17131.84,26.46,-1.00,-1.0,2360
566,2135566,17008,212,1256,17055.63,26.55,-1.00,-1.0,2446
568,2135568,16924,164,1184,16966.16,26.55,-1.00,-1.0,2363
571,2135571,16960,172,1328,17012.78,26.46,-1.00,-1.0,2425
574,2135574,16920,284,1272,16970.12,26.46,-1.00,-1.0,2360
577,2135577,17000,296,1452,17064.46,26.46,-1.00,-1.0,2430
579,2135579,17040,492,1408,17105.15,26.65,-1.00,-1.0,2374
582,2135582,17056,424,1552,17131.71,26.65,-1.00,-1.0,2356
585,2135585,16984,436,1576,17062.54,26.51,-1.00,-1.0,2443
588,2135588,17040,232,1540,17111.02,26.51,-1.00,-1.0,2366
593,2135593,17116,268,1664,17198.78,26.55,-1.00,-1.0,2449
596,2135596,17040,352,1520,17111.28,26.55,-1.00,-1.0,2367
598,2135598,17076,288,1592,17152.47,26.60,-1.00,-1.0,2432
601,2135601,17064,376,1420,17127.11,26.46,-1.00,-1.0,2367
604,2135604,17028,316,1460,17093.40,26.46,-1.00,-1.0,2438
607,2135607,16972,392,1328,17028.39,26.55,-1.00,-1.0,2369
609,2135609,17032,248,1156,17072.99,26.46,-1.00,-1.0,2434
612,2135612,16996,372,1284,17048.49,26.55,-1.00,-1.0,2373
615,2135615,16992,328,1372,17050.46,26.41,-1.00,-1.0,2363
620,2135620,16984,132,1348,17037.92,26.51,-1.00,-1.0,2452
622,2135622,17052,204,1332,17105.16,26.60,-1.00,-1.0,2361
625,2135625,18204,256,80,18205.98,26.60,-1.00,-1.0,2439
628,2135628,-828,7116,4228,8318.59,26.65,-1.00,-1.0,2361
631,2135631,19888,-5532,-14704,25344.49,26.51,-1.00,-1.0,2437
633,2135633,25220,15784,-16272,33911.07,26.55,-1.00,-1.0,2364
636,2135636,1412,13308,-12296,18173.83,26.51,-1.00,-1.0,2438
639,2135639,18956,-32768,-7768,38644.71,26.55,-1.00,-1.0,2348
644,2135644,13500,13816,12696,23115.37,26.41,-1.00,-1.0,2448
646,2135646,24044,27896,2476,36911.13,26.46,-1.00,-1.0,2367
649,2135649,8112,-9792,-5092,13697.31,26.69,-1.00,-1.0,2439
652,2135652,24756,-6876,-1040,25714.21,26.55,-1.00,-1.0,2347
655,2135655,13668,8560,1732,16219.98,26.51,-1.00,-1.0,2447
657,2135657,20464,16536,-8456,27635.46,26.55,-1.00,-1.0,2370
660,2135660,14896,-5600,-6488,17185.60,26.51,-1.00,-1.0,2361
663,2135663,16768,-7120,-3304,18514.23,26.51,-1.00,-1.0,2434
666,2135666,18392,-496,-664,18410.66,26.46,-1.00,-1.0,2367
672,2135672,15788,-872,2032,15942.09,26.55,-1.00,-1.0,2447
675,2135675,19720,316,-384,19726.27,26.51,-1.00,-1.0,2361
678,2135678,14560,-1424,-152,14630.26,26.60,-1.00,-1.0,2437
681,2135681,16188,-1600,-340,16270.43,26.51,-1.00,-1.0,2364
683,2135683,14988,-5956,292,16130.70,26.46,-1.00,-1.0,2433
686,2135686,19644,8756,-1284,21545.37,26.51,-1.00,-1.0,2366
689,2135689,13892,10464,3436,17728.20,26.51,-1.00,-1.0,2432
692,2135692,21588,668,2680,21763.97,26.60,-1.00,-1.0,2365
697,2135697,14460,-4268,3596,15499.63,26.51,-1.00,-1.0,2450
699,2135699,19964,3324,-188,20239.70,26.55,-1.00,-1.0,2370
702,2135702,15384,-1816,2996,15777.88,26.51,-1.00,-1.0,2448
705,2135705,17748,-2072,1000,17896.50,26.51,-1.00,-1.0,2424
708,2135708,17284,2832,-1172,17553.64,26.41,-1.00,-1.0,2367
710,2135710,15596,4376,2400,16375.12,26.51,-1.00,-1.0,2434
713,2135713,17016,-780,2296,17187.91,26.51,-1.00,-1.0,2374
716,2135716,15712,-5936,-872,16818.54,26.51,-1.00,-1.0,2429
719,2135719,18660,-3616,200,19008.18,26.60,-1.00,-1.0,2378
724,2135724,16080,348,2856,16335.37,26.60,-1.00,-1.0,2446
726,2135726,16880,-912,1736,16993.52,26.46,-1.00,-1.0,2367
729,2135729,18896,1912,2920,19215.64,26.60,-1.00,-1.0,2445
732,2135732,15076,5568,2152,16214.79,26.46,-1.00,-1.0,2374
735,2135735,17724,1424,1044,17811.73,26.60,-1.00,-1.0,2446
737,2135737,16488,-4756,416,17165.28,26.55,-1.00,-1.0,2369
740,2135740,17032,-3424,692,17386.54,26.51,-1.00,-1.0,2447
743,2135743,15852,2424,788,16055.61,26.65,-1.00,-1.0,2374
745,2135745,17420,5544,1980,18387.84,26.51,-1.00,-1.0,2366
750,2135750,17124,-1772,1904,17320.41,26.51,-1.00,-1.0,2451
753,2135753,17428,-3732,-976,17849.81,26.51,-1.00,-1.0,2374
756,2135756,17736,2596,240,17926.59,26.41,-1.00,-1.0,2436
759,2135759,16792,3320,2424,17287.84,26.51,-1.00,-1.0,2368
761,2135761,17540,-2516,824,17738.68,26.60,-1.00,-1.0,2445
764,2135764,16064,-3544,32,16450.32,26.51,-1.00,-1.0,2374
767,2135767,18400,6040,2288,19500.68,26.51,-1.00,-1.0,2422
769,2135769,17184,9300,3764,19898.43,26.55,-1.00,-1.0,2367
774,2135774,17120,-8316,-460,19038.43,26.55,-1.00,-1.0,2443
777,2135777,16324,-2796,1580,16636.92,26.37,-1.00,-1.0,2354
780,2135780,17972,6460,3116,19350.29,26.46,-1.00,-1.0,2433
783,2135783,15524,-1036,2276,15724.12,26.55,-1.00,-1.0,2367
785,2135785,17836,-3984,1876,18371.57,26.55,-1.00,-1.0,2361
788,2135788,16884,-272,1344,16939.59,26.51,-1.00,-1.0,2441
791,2135791,18604,4332,1112,19134.04,26.55,-1.00,-1.0,2375
794,2135794,16456,396,644,16473.36,26.41,-1.00,-1.0,2433
796,2135796,17368,-4836,364,18032.38,26.46,-1.00,-1.0,2366
801,2135801,17504,4380,1592,18113.78,26.55,-1.00,-1.0,2442
804,2135804,15416,5640,1856,16519.91,26.51,-1.00,-1.0,2366
807,2135807,19416,544,320,19426.26,26.55,-1.00,-1.0,2439
809,2135809,16836,-876,1228,16903.44,26.55,-1.00,-1.0,2366
812,2135812,17020,-1320,1708,17156.34,26.55,-1.00,-1.0,2434
815,2135815,17172,-1348,1056,17257.17,26.51,-1.00,-1.0,2366
818,2135818,17512,972,2448,17708.97,26.37,-1.00,-1.0,2430
820,2135820,17492,1436,3220,17843.78,26.46,-1.00,-1.0,2373
823,2135823,17336,-216,1236,17381.35,26.55,-1.00,-1.0,2359
828,2135828,16616,-128,2244,16767.33,26.55,-1.00,-1.0,2443
831,2135831,16268,2160,1616,16490.14,26.55,-1.00,-1.0,2367
833,2135833,17300,1732,1012,17415.91,26.46,-1.00,-1.0,2432
836,2135836,17136,320,1048,17171.00,26.46,-1.00,-1.0,2367
839,2135839,16692,-1360,1064,16781.08,26.55,-1.00,-1.0,2434
842,2135842,16696,-1160,640,16748.48,26.65,-1.00,-1.0,2367
844,2135844,17424,1080,828,17477.06,26.46,-1.00,-1.0,2432
847,2135847,16800,4672,2164,17571.30,26.46,-1.00,-1.0,2368
852,2135852,17340,-4144,192,17829.34,26.46,-1.00,-1.0,2442
855,2135855,16504,-3748,972,16952.12,26.55,-1.00,-1.0,2367
857,2135857,16392,1120,2392,16603.43,26.41,-1.00,-1.0,2360
860,2135860,17176,5368,2264,18137.15,26.51,-1.00,-1.0,2433
863,2135863,16756,944,1524,16851.62,26.46,-1.00,-1.0,2366
866,2135866,17032,-3512,1304,17439.14,26.55,-1.00,-1.0,2476
868,2135868,16928,-2036,1572,17122.31,26.46,-1.00,-1.0,2374
871,2135871,17364,2608,1872,17658.27,26.55,-1.00,-1.0,2437
874,2135874,16972,1408,1300,17079.85,26.55,-1.00,-1.0,2367
879,2135879,17112,-1696,1608,17270.86,26.55,-1.00,-1.0,2446
881,2135881,17152,1428,1408,17268.84,26.46,-1.00,-1.0,2366
884,2135884,17496,2480,1868,17769.35,26.51,-1.00,-1.0,2435
887,2135887,16668,-1488,1644,16814.85,26.46,-1.00,-1.0,2366
890,2135890,16860,-2060,988,17014.09,26.55,-1.00,-1.0,2430
892,2135892,16924,912,804,16967.62,26.55,-1.00,-1.0,2372
895,2135895,16960,3780,1448,17436.36,26.60,-1.00,-1.0,2360
898,2135898,17168,1704,1560,17322.74,26.60,-1.00,-1.0,2442
900,2135900,16912,-32,1584,16986.05,26.55,-1.00,-1.0,2368
905,2135905,17332,492,1684,17420.57,26.55,-1.00,-1.0,2445
908,2135908,16976,620,1856,17088.41,26.55,-1.00,-1.0,2367
911,2135911,17192,-1360,1076,17279.24,26.51,-1.00,-1.0,2435
914,2135914,17040,-1260,1220,17130.02,26.46,-1.00,-1.0,2362
916,2135916,17188,52,1552,17258.01,26.46,-1.00,-1.0,2437
919,2135919,17032,1268,1864,17180.55,26.55,-1.00,-1.0,2379
922,2135922,17072,144,1556,17143.37,26.46,-1.00,-1.0,2436
925,2135925,16448,-1452,1444,16574.99,26.55,-1.00,-1.0,2377
930,2135930,16864,152,1392,16922.04,26.46,-1.00,-1.0,2442
932,2135932,16896,1340,1604,17024.78,26.55,-1.00,-1.0,2366
935,2135935,17244,1380,1564,17369.69,26.46,-1.00,-1.0,2360
938,2135938,17248,1244,1840,17390.42,26.51,-1.00,-1.0,2445
940,2135940,17224,1440,1848,17382.60,26.65,-1.00,-1.0,2375
943,2135943,17236,512,1228,17287.27,26.60,-1.00,-1.0,2436
946,2135946,16768,-688,1000,16811.88,26.46,-1.00,-1.0,2366
949,2135949,16776,116,1304,16827.00,26.51,-1.00,-1.0,2468
951,2135951,16820,1060,1056,16886.42,26.51,-1.00,-1.0,2360
956,2135956,17056,84,1048,17088.37,26.51,-1.00,-1.0,2443
959,2135959,16776,-472,1584,16857.22,26.51,-1.00,-1.0,2358
962,2135962,16848,88,1588,16922.90,26.51,-1.00,-1.0,2438
965,2135965,17168,212,1468,17231.95,26.51,-1.00,-1.0,2364
967,2135967,17300,452,1520,17372.53,26.55,-1.00,-1.0,2360
970,2135970,17312,708,1672,17406.96,26.46,-1.00,-1.0,2434
973,2135973,17276,188,1340,17328.91,26.51,-1.00,-1.0,2365
975,2135975,17200,240,1432,17261.18,26.46,-1.00,-1.0,2418
978,2135978,17008,872,1632,17108.36,26.60,-1.00,-1.0,2364
983,2135983,16580,1048,1116,16650.53,26.51,-1.00,-1.0,2451
986,2135986,16840,-216,672,16854.79,26.51,-1.00,-1.0,2359
989,2135989,16708,100,904,16732.74,26.60,-1.00,-1.0,2450
991,2135991,16552,980,1444,16643.74,26.51,-1.00,-1.0,2366
994,2135994,16960,776,1692,17061.85,26.60,-1.00,-1.0,2443
997,2135997,17212,-548,1828,17317.47,26.55,-1.00,-1.0,2363
999,2135999,17144,-504,1808,17246.44,26.51,-1.00,-1.0,2363
1002,2136002,17308,256,1852,17408.69,26.46,-1.00,-1.0,2431
1005,2136005,17596,208,1844,17693.58,26.51,-1.00,-1.0,2364
1010,2136010,16996,-704,1856,17111.53,26.51,-1.00,-1.0,2454
1013,2136013,16800,360,1796,16899.56,26.55,-1.00,-1.0,2366
1016,2136016,16872,1300,1504,16988.71,26.60,-1.00,-1.0,2447
1019,2136019,16760,800,1096,16814.84,26.46,-1.00,-1.0,2359
1021,2136021,16608,188,952,16636.32,26.51,-1.00,-1.0,2451
1024,2136024,16856,-104,1016,16886.91,26.46,-1.00,-1.0,2358
1027,2136027,17120,120,1020,17150.78,26.60,-1.00,-1.0,2445
1029,2136029,17348,160,1204,17390.47,26.55,-1.00,-1.0,2360
1034,2136034,17176,292,1540,17247.37,26.46,-1.00,-1.0,2442
1037,2136037,17104,676,1632,17194.98,26.51,-1.00,-1.0,2358
1040,2136040,17124,416,1532,17197.43,26.55,-1.00,-1.0,2367
1042,2136042,16752,-96,1624,16830.81,26.55,-1.00,-1.0,2433
1045,2136045,16672,-448,1572,16751.94,26.55,-1.00,-1.0,2365
1048,2136048,16836,24,1484,16901.29,26.46,-1.00,-1.0,2429
1051,2136051,17060,1040,1372,17146.65,26.60,-1.00,-1.0,2364
1053,2136053,17104,1540,1592,17246.82,26.65,-1.00,-1.0,2432
1056,2136056,16976,1144,1440,17075.33,26.55,-1.00,-1.0,2352
1061,2136061,17036,-484,1176,17083.40,26.55,-1.00,-1.0,2443
1064,2136064,17148,-292,1584,17223.48,26.55,-1.00,-1.0,2364
1066,2136066,17072,280,1720,17160.71,26.55,-1.00,-1.0,2436
1069,2136069,16992,204,1728,17080.86,26.55,-1.00,-1.0,2365
1072,2136072,17132,28,1424,17191.10,26.55,-1.00,-1.0,2429
1075,2136075,17200,864,1356,17274.99,26.51,-1.00,-1.0,2364
1077,2136077,17176,1180,1532,17284.51,26.55,-1.00,-1.0,2354
1080,2136080,16936,612,1356,17001.22,26.51,-1.00,-1.0,2442
1083,2136083,16796,-628,1276,16856.10,26.46,-1.00,-1.0,2359
1088,2136088,16964,832,1316,17035.30,26.60,-1.00,-1.0,2443
1091,2136091,17012,1536,1616,17157.47,26.55,-1.00,-1.0,2364
1093,2136093,17008,360,1652,17091.83,26.51,-1.00,-1.0,2432
1096,2136096,17024,-452,1600,17105.00,26.55,-1.00,-1.0,2352
1099,2136099,17108,-552,1432,17176.70,26.55,-1.00,-1.0,2430
1102,2136102,17144,128,1548,17214.22,26.46,-1.00,-1.0,2363
1104,2136104,17228,324,1400,17287.83,26.46,-1.00,-1.0,2432
1107,2136107,17104,272,1348,17159.19,26.41,-1.00,-1.0,2366
1112,2136112,16796,616,1616,16884.80,26.46,-1.00,-1.0,2443
1115,2136115,16896,884,1516,16986.89,26.46,-1.00,-1.0,2345
1118,2136118,16888,684,1352,16955.83,26.55,-1.00,-1.0,2445
1120,2136120,16964,20,1216,17007.54,26.55,-1.00,-1.0,2362
1123,2136123,16996,-116,1276,17044.23,26.51,-1.00,-1.0,2360
1126,2136126,17136,372,1376,17195.18,26.60,-1.00,-1.0,2441
1128,2136128,17148,1004,1292,17225.89,26.55,-1.00,-1.0,2360
1131,2136131,17152,808,1376,17226.07,26.55,-1.00,-1.0,2446
1134,2136134,17060,264,1168,17101.97,26.51,-1.00,-1.0,2361
1139,2136139,16852,28,1172,16892.73,26.51,-1.00,-1.0,2445
1142,2136142,16868,200,1356,16923.60,26.55,-1.00,-1.0,2359
1145,2136145,16852,-120,1628,16930.88,26.51,-1.00,-1.0,2443
1147,2136147,16956,-8,1676,17038.63,26.46,-1.00,-1.0,2361
1150,2136150,16988,432,1692,17077.52,26.51,-1.00,-1.0,2435
1153,2136153,17276,756,2040,17412.45,26.55,-1.00,-1.0,2362
1156,2136156,17232,216,2008,17349.94,26.51,-1.00,-1.0,2436
1158,2136158,17236,-360,1648,17318.35,26.46,-1.00,-1.0,2363
1161,2136161,17140,-124,1468,17203.20,26.46,-1.00,-1.0,2363
1166,2136166,16880,684,1620,16971.35,26.51,-1.00,-1.0,2445
1169,2136169,16788,372,1396,16850.05,26.51,-1.00,-1.0,2360
1172,2136172,16724,-168,1236,16770.45,26.51,-1.00,-1.0,2439
1174,2136174,16768,-12,1160,16808.08,26.41,-1.00,-1.0,2360
1177,2136177,16816,488,1140,16861.66,26.51,-1.00,-1.0,2435
1180,2136180,17128,980,1452,17217.35,26.41,-1.00,-1.0,2359
1183,2136183,17144,512,1436,17211.65,26.60,-1.00,-1.0,2445
1185,2136185,17136,-224,1272,17184.61,26.46,-1.00,-1.0,2363
1190,2136190,17084,44,1632,17161.83,26.65,-1.00,-1.0,2450
1193,2136193,17084,440,1580,17162.55,26.46,-1.00,-1.0,2373
1196,2136196,17008,488,1596,17089.69,26.55,-1.00,-1.0,2439
1199,2136199,16852,156,1504,16919.70,26.65,-1.00,-1.0,2375
1201,2136201,16824,88,1436,16885.40,26.51,-1.00,-1.0,2360
1204,2136204,16784,416,1340,16842.54,26.51,-1.00,-1.0,2428
1207,2136207,16944,852,1380,17021.44,26.46,-1.00,-1.0,2365
1209,2136209,16956,560,1268,17012.56,26.51,-1.00,-1.0,2429
1212,2136212,17052,-136,1276,17100.21,26.55,-1.00,-1.0,2373
1217,2136217,17076,328,1436,17139.41,26.46,-1.00,-1.0,2452
1220,2136220,17116,816,1520,17202.72,26.46,-1.00,-1.0,2368
1223,2136223,17096,564,1480,17169.21,26.46,-1.00,-1.0,2438
1226,2136226,17008,-12,1244,17053.44,26.51,-1.00,-1.0,2359
1228,2136228,17076,248,1336,17129.98,26.46,-1.00,-1.0,2448
1231,2136231,16920,628,1540,17001.54,26.46,-1.00,-1.0,2360
1234,2136234,16928,564,1500,17003.68,26.55,-1.00,-1.0,2443
1236,2136236,16992,92,1364,17046.91,26.51,-1.00,-1.0,2359
1239,2136239,16904,400,1472,16972.68,26.60,-1.00,-1.0,2362
1244,2136244,16996,640,1552,17078.71,26.51,-1.00,-1.0,2451
1247,2136247,17044,56,1572,17116.43,26.55,-1.00,-1.0,2376
1250,2136250,17124,-380,1424,17187.31,26.51,-1.00,-1.0,2438
1253,2136253,17136,232,1388,17193.69,26.46,-1.00,-1.0,2366
1255,2136255,17196,676,1572,17280.93,26.60,-1.00,-1.0,2442
1258,2136258,17108,664,1460,17183.02,26.55,-1.00,-1.0,2368
1261,2136261,17168,312,1308,17220.58,26.60,-1.00,-1.0,2445
1263,2136263,16944,380,1308,16998.66,26.46,-1.00,-1.0,2360
1268,2136268,16740,764,1360,16812.52,26.51,-1.00,-1.0,2452
1271,2136271,16772,460,1304,16828.90,26.55,-1.00,-1.0,2368
1274,2136274,16840,172,1304,16891.29,26.60,-1.00,-1.0,2439
1277,2136277,17076,392,1460,17142.78,26.55,-1.00,-1.0,2360
1279,2136279,17036,592,1576,17118.98,26.60,-1.00,-1.0,2361
1282,2136282,17128,356,1596,17205.88,26.51,-1.00,-1.0,2434
1285,2136285,17140,-112,1296,17189.29,26.60,-1.00,-1.0,2370
1287,2136287,17136,-220,1436,17197.47,26.55,-1.00,-1.0,2436
1290,2136290,17064,164,1680,17147.29,26.51,-1.00,-1.0,2359
1295,2136295,16960,312,1612,17039.29,26.55,-1.00,-1.0,2445
1298,2136298,16848,280,1516,16918.38,26.60,-1.00,-1.0,2361
1301,2136301,16956,732,1552,17042.61,26.55,-1.00,-1.0,2442
1303,2136303,16992,640,1680,17086.84,26.51,-1.00,-1.0,2360
1306,2136306,17012,120,1548,17082.71,26.46,-1.00,-1.0,2434
1309,2136309,17056,-76,1444,17117.19,26.41,-1.00,-1.0,2361
1312,2136312,17064,172,1580,17137.86,26.60,-1.00,-1.0,2433
1314,2136314,17096,724,1640,17189.73,26.65,-1.00,-1.0,2365
1317,2136317,17100,480,1400,17163.93,26.51,-1.00,-1.0,2354
1322,2136322,16996,28,1148,17034.75,26.51,-1.00,-1.0,2443
1325,2136325,16880,-52,1372,16935.75,26.51,-1.00,-1.0,2359
1328,2136328,16888,112,1448,16950.33,26.55,-1.00,-1.0,2436
1331,2136331,16820,24,1396,16877.85,26.60,-1.00,-1.0,2364
1333,2136333,16932,236,1404,16991.75,26.51,-1.00,-1.0,2428
1336,2136336,16964,452,1336,17022.53,26.51,-1.00,-1.0,2368
1339,2136339,17100,492,1284,17155.20,26.41,-1.00,-1.0,2438
1342,2136342,17100,368,1720,17190.22,26.60,-1.00,-1.0,2368
1347,2136347,16972,128,1440,17033.46,26.51,-1.00,-1.0,2444
1349,2136349,16972,284,1436,17035.01,26.51,-1.00,-1.0,2361
1352,2136352,16964,460,1416,17029.21,26.51,-1.00,-1.0,2365
1355,2136355,16956,676,1332,17021.67,26.46,-1.00,-1.0,2442
1357,2136357,16996,356,1392,17056.62,26.60,-1.00,-1.0,2375
1360,2136360,17056,60,1304,17105.88,26.46,-1.00,-1.0,2436
1363,2136363,17016,-44,1260,17062.64,26.41,-1.00,-1.0,2373
1366,2136366,17020,192,1332,17073.12,26.51,-1.00,-1.0,2443
1368,2136368,17048,332,1468,17114.31,26.51,-1.00,-1.0,2366
1373,2136373,17012,184,1696,17097.32,26.51,-1.00,-1.0,2442
1376,2136376,16912,304,1504,16981.46,26.55,-1.00,-1.0,2360
1379,2136379,17096,316,1568,17170.66,26.51,-1.00,-1.0,2436
1382,2136382,17076,424,1524,17149.12,26.46,-1.00,-1.0,2365
1384,2136384,17008,252,1488,17074.83,26.55,-1.00,-1.0,2415
1387,2136387,17088,276,1608,17165.71,26.55,-1.00,-1.0,2365
1390,2136390,17040,380,1608,17119.92,26.55,-1.00,-1.0,2362
1393,2136393,17088,504,1540,17164.65,26.46,-1.00,-1.0,2446
1396,2136396,17044,564,1580,17126.37,26.60,-1.00,-1.0,2362
1401,2136401,17044,208,1440,17105.99,26.51,-1.00,-1.0,2442
1403,2136403,16972,228,1428,17033.49,26.51,-1.00,-1.0,2359
1406,2136406,17124,124,1440,17184.89,26.51,-1.00,-1.0,2436
1409,2136409,17116,212,1372,17172.21,26.51,-1.00,-1.0,2366
1411,2136411,17088,200,1396,17146.09,26.51,-1.00,-1.0,2430
1414,2136414,16944,432,1268,16996.87,26.55,-1.00,-1.0,2366
1417,2136417,16984,528,1368,17047.18,26.51,-1.00,-1.0,2430
1420,2136420,17088,556,1576,17169.53,26.55,-1.00,-1.0,2364
1425,2136425,17052,492,1496,17124.57,26.55,-1.00,-1.0,2452
1428,2136428,16988,496,1644,17074.57,26.60,-1.00,-1.0,2365
1430,2136430,16924,308,1460,16989.65,26.55,-1.00,-1.0,2362
1433,2136433,17040,288,1468,17105.54,26.46,-1.00,-1.0,2430
1436,2136436,17060,24,1320,17111.01,26.55,-1.00,-1.0,2363
1438,2136438,17028,124,1340,17081.09,26.46,-1.00,-1.0,2436
1441,2136441,17028,192,1476,17092.93,26.55,-1.00,-1.0,2374
1444,2136444,17044,196,1564,17116.73,26.55,-1.00,-1.0,2440
1447,2136447,16972,316,1572,17047.58,26.55,-1.00,-1.0,2362
1452,2136452,16952,196,1448,17014.86,26.55,-1.00,-1.0,2443
1454,2136454,16944,280,1408,17004.71,26.60,-1.00,-1.0,2362
1457,2136457,16976,268,1480,17042.50,26.55,-1.00,-1.0,2445
1460,2136460,16948,352,1468,17015.10,26.60,-1.00,-1.0,2368
1463,2136463,17004,368,1520,17075.77,26.51,-1.00,-1.0,2433
1465,2136465,17048,296,1576,17123.25,26.51,-1.00,-1.0,2359
1468,2136468,17100,248,1564,17173.17,26.55,-1.00,-1.0,2366
1471,2136471,17008,208,1516,17076.70,26.51,-1.00,-1.0,2432
1474,2136474,17044,292,1416,17105.21,26.55,-1.00,-1.0,2366
1478,2136478,17008,300,1368,17065.56,26.51,-1.00,-1.0,2442
1481,2136481,16916,428,1364,16976.30,26.55,-1.00,-1.0,2360
1484,2136484,16976,392,1304,17030.52,26.60,-1.00,-1.0,2437
1487,2136487,17032,528,1436,17100.58,26.46,-1.00,-1.0,2365
1489,2136489,17064,352,1300,17117.07,26.41,-1.00,-1.0,2427
1492,2136492,16896,356,1268,16947.25,26.55,-1.00,-1.0,2372
1495,2136495,17000,492,1340,17059.83,26.51,-1.00,-1.0,2438
1498,2136498,16912,320,1352,16968.97,26.51,-1.00,-1.0,2359
1502,2136502,17044,372,1488,17112.88,26.60,-1.00,-1.0,2444
1505,2136505,17052,300,1460,17117.02,26.60,-1.00,-1.0,2424
1508,2136508,17112,364,1536,17184.65,26.41,-1.00,-1.0,2362
1511,2136511,17132,320,1500,17200.52,26.51,-1.00,-1.0,2442
1513,2136513,17004,532,1496,17077.97,26.51,-1.00,-1.0,2376
1516,2136516,17048,400,1692,17136.43,26.51,-1.00,-1.0,2427
1519,2136519,17100,404,1612,17180.56,26.51,-1.00,-1.0,2374
1522,2136522,18300,344,928,18326.74,26.51,-1.00,-1.0,2436
1525,2136525,-2216,8476,1560,8898.70,26.51,-1.00,-1.0,2374
1530,2136530,19504,14436,-20468,31744.97,26.60,-1.00,-1.0,2435
1532,2136532,7092,12364,-14600,20404.04,26.51,-1.00,-1.0,2374
1535,2136535,13912,-32768,-8904,36695.60,26.51,-1.00,-1.0,2437
1538,2136538,23004,-28792,-8504,37821.70,26.51,-1.00,-1.0,2370
1541,2136541,2732,22464,8384,24132.69,26.51,-1.00,-1.0,2423
1543,2136543,26888,14060,5168,30779.15,26.51,-1.00,-1.0,2377
1546,2136546,6188,-6296,6620,11034.28,26.60,-1.00,-1.0,2433
1549,2136549,25860,-4232,-3032,26378.83,26.51,-1.00,-1.0,2370
1554,2136554,19416,15200,-10836,26933.99,26.55,-1.00,-1.0,2441
1556,2136556,12368,-3220,-6272,14236.36,26.55,-1.00,-1.0,2368
1559,2136559,16932,-7840,-3676,19017.65,26.41,-1.00,-1.0,2451
1562,2136562,18328,-2288,752,18485.56,26.46,-1.00,-1.0,2367
1565,2136565,18340,4900,4064,19413.44,26.51,-1.00,-1.0,2362
1567,2136567,17820,1960,3688,18302.88,26.51,-1.00,-1.0,2433
1570,2136570,15464,1372,592,15536.03,26.51,-1.00,-1.0,2382
1573,2136573,22236,-2660,3988,22746.86,26.51,-1.00,-1.0,2436
1576,2136576,15060,-3784,780,15547.69,26.65,-1.00,-1.0,2373
1581,2136581,17280,-2656,480,17489.52,26.55,-1.00,-1.0,2437
1583,2136583,18948,14512,2412,23988.38,26.51,-1.00,-1.0,2355
1586,2136586,17416,5844,956,18395.20,26.60,-1.00,-1.0,2438
1589,2136589,21504,-5576,-2472,22352.28,26.51,-1.00,-1.0,2370
1592,2136592,12320,-4844,1924,13377.16,26.55,-1.00,-1.0,2431
1594,2136594,21456,8344,1180,23051.57,26.51,-1.00,-1.0,2375
1597,2136597,15596,-268,-580,15609.08,26.51,-1.00,-1.0,2433
1600,2136600,20736,-7392,2776,22188.50,26.51,-1.00,-1.0,2355
1605,2136605,22332,3460,3012,22798.29,26.51,-1.00,-1.0,2443
1607,2136607,13144,1388,788,13240.55,26.46,-1.00,-1.0,2367
1610,2136610,17316,-2684,1068,17555.29,26.51,-1.00,-1.0,2448
1613,2136613,15788,-3676,936,16237.30,26.65,-1.00,-1.0,2368
1616,2136616,20336,-944,-1732,20431.44,26.51,-1.00,-1.0,2361
1618,2136618,12440,1056,2236,12683.39,26.51,-1.00,-1.0,2420
1621,2136621,20176,324,1740,20253.48,26.51,-1.00,-1.0,2382
1624,2136624,12272,2384,1696,12615.94,26.51,-1.00,-1.0,2437
1627,2136627,22572,4692,1896,23132.33,26.60,-1.00,-1.0,2375
1632,2136632,20764,-2908,176,20967.38,26.55,-1.00,-1.0,2445
1634,2136634,12484,-3948,2504,13330.68,26.55,-1.00,-1.0,2368
1637,2136637,21056,-16,2052,21155.76,26.51,-1.00,-1.0,2440
1640,2136640,13696,3600,2320,14350.01,26.46,-1.00,-1.0,2366
1643,2136643,18668,2488,1652,18905.38,26.55,-1.00,-1.0,2440
1645,2136645,14800,-2124,2896,15229.52,26.46,-1.00,-1.0,2368
1648,2136648,18220,-1044,424,18254.81,26.55,-1.00,-1.0,2434
1651,2136651,17660,2072,-88,17781.35,26.55,-1.00,-1.0,2354
1656,2136656,16236,-2232,1320,16441.77,26.46,-1.00,-1.0,2440
1659,2136659,18100,-4408,740,18643.71,26.51,-1.00,-1.0,2378
1661,2136661,16068,1852,1136,16214.22,26.55,-1.00,-1.0,2360
1664,2136664,18560,9084,3372,20937.12,26.55,-1.00,-1.0,2436
1667,2136667,16332,6448,2968,17807.86,26.55,-1.00,-1.0,2368
1669,2136669,16424,-6764,-620,17773.12,26.55,-1.00,-1.0,2430
1672,2136672,15740,-5020,1084,16556.66,26.51,-1.00,-1.0,2369
1675,2136675,18812,7000,2656,20247.12,26.55,-1.00,-1.0,2419
1678,2136678,16988,5236,2864,18005.84,26.60,-1.00,-1.0,2374
1683,2136683,19216,-6728,208,20360.84,26.55,-1.00,-1.0,2450
1685,2136685,17396,2448,484,17574.07,26.37,-1.00,-1.0,2367
1688,2136688,17540,3248,1072,17870.38,26.51,-1.00,-1.0,2436
1691,2136691,16724,-4220,808,17267.12,26.60,-1.00,-1.0,2428
1694,2136694,14880,-3584,1380,15367.62,26.55,-1.00,-1.0,2435
1697,2136697,16412,2056,1524,16610.34,26.55,-1.00,-1.0,2373
1699,2136699,16268,7100,2400,17911.39,26.55,-1.00,-1.0,2430
1702,2136702,18308,1428,808,18381.38,26.65,-1.00,-1.0,2374
1707,2136707,15748,-812,2084,15906.03,26.51,-1.00,-1.0,2482
1710,2136710,17984,-988,1176,18049.47,26.55,-1.00,-1.0,2370
1712,2136712,16304,64,1392,16363.44,26.55,-1.00,-1.0,2362
1715,2136715,17864,1680,3308,18245.21,26.51,-1.00,-1.0,2442
1718,2136718,16660,136,2076,16789.40,26.55,-1.00,-1.0,2366
1721,2136721,18056,-1924,660,18170.21,26.51,-1.00,-1.0,2445
1723,2136723,16656,-1640,1924,16846.77,26.55,-1.00,-1.0,2367
1726,2136726,16624,2200,2136,16904.43,26.60,-1.00,-1.0,2440
1729,2136729,17308,2196,1116,17482.41,26.46,-1.00,-1.0,2367
1734,2136734,16220,-1444,892,16308.56,26.55,-1.00,-1.0,2449
1737,2136737,16656,-1356,924,16736.63,26.55,-1.00,-1.0,2370
1739,2136739,16880,628,680,16905.36,26.55,-1.00,-1.0,2442
1742,2136742,17156,4212,1764,17753.34,26.46,-1.00,-1.0,2372
1745,2136745,16760,2484,2276,17095.26,26.46,-1.00,-1.0,2438
1748,2136748,17140,-2012,792,17275.85,26.55,-1.00,-1.0,2368
1750,2136750,16936,-4476,252,17519.31,26.46,-1.00,-1.0,2426
1753,2136753,16560,1000,2604,16793.29,26.46,-1.00,-1.0,2379
1756,2136756,17252,4656,2172,18000.76,26.51,-1.00,-1.0,2363
1761,2136761,16860,-2712,1412,17135.00,26.65,-1.00,-1.0,2448
1764,2136764,16916,-3324,1440,17299.53,26.55,-1.00,-1.0,2372
1766,2136766,17416,956,1564,17512.20,26.51,-1.00,-1.0,2439
1769,2136769,16900,3032,1468,17232.47,26.46,-1.00,-1.0,2371
1772,2136772,17236,-1396,988,17320.64,26.51,-1.00,-1.0,2439
1775,2136775,17244,-2548,1244,17475.56,26.37,-1.00,-1.0,2370
1777,2136777,17068,1184,1336,17161.10,26.60,-1.00,-1.0,2426
1780,2136780,17284,2348,1412,17499.81,26.46,-1.00,-1.0,2379
1785,2136785,16856,-2164,876,17016.90,26.46,-1.00,-1.0,2463
1788,2136788,17068,748,1056,17116.99,26.37,-1.00,-1.0,2373
1791,2136791,16920,3224,1296,17273.11,26.55,-1.00,-1.0,2450
1793,2136793,17080,2888,1700,17405.66,26.46,-1.00,-1.0,2370
1796,2136796,16836,760,1840,16953.29,26.55,-1.00,-1.0,2448
1799,2136799,16868,-308,1648,16951.11,26.46,-1.00,-1.0,2373
1802,2136802,17168,-192,1500,17234.47,26.51,-1.00,-1.0,2448
1804,2136804,16852,-68,1944,16963.89,26.55,-1.00,-1.0,2369
1807,2136807,17300,-792,1348,17370.50,26.51,-1.00,-1.0,2360
1812,2136812,17404,-52,1288,17451.67,26.51,-1.00,-1.0,2447
1815,2136815,16948,584,1964,17071.41,26.51,-1.00,-1.0,2366
1817,2136817,17248,180,1712,17333.69,26.60,-1.00,-1.0,2439
1820,2136820,16548,-1004,1464,16642.95,26.60,-1.00,-1.0,2365
1823,2136823,16484,-1052,1512,16586.59,26.60,-1.00,-1.0,2439
1826,2136826,16576,-212,1468,16642.23,26.51,-1.00,-1.0,2366
1828,2136828,16764,1440,1376,16881.90,26.51,-1.00,-1.0,2438
1831,2136831,17036,1332,1400,17145.25,26.60,-1.00,-1.0,2352
1836,2136836,17192,1584,1952,17374.82,26.55,-1.00,-1.0,2450
1839,2136839,17168,644,1512,17246.48,26.60,-1.00,-1.0,2366
1842,2136842,16792,-764,1348,16863.33,26.55,-1.00,-1.0,2446
1844,2136844,16992,-772,1296,17058.83,26.46,-1.00,-1.0,2364
1847,2136847,17104,640,1236,17160.54,26.55,-1.00,-1.0,2442
1850,2136850,16984,704,868,17020.73,26.51,-1.00,-1.0,2365
1853,2136853,17028,-140,1364,17083.12,26.65,-1.00,-1.0,2368
1855,2136855,16668,-892,1560,16764.59,26.51,-1.00,-1.0,2446
1858,2136858,16784,-48,1420,16844.03,26.55,-1.00,-1.0,2373
1863,2136863,17276,1064,1448,17369.20,26.55,-1.00,-1.0,2446
1866,2136866,17340,1024,1680,17451.26,26.46,-1.00,-1.0,2371
1869,2136869,17244,564,1560,17323.60,26.55,-1.00,-1.0,2440
1871,2136871,17364,-36,1380,17418.79,26.46,-1.00,-1.0,2367
1874,2136874,17052,644,1768,17155.50,26.55,-1.00,-1.0,2439
1877,2136877,17020,1748,1592,17183.43,26.46,-1.00,-1.0,2365
1879,2136879,16712,1380,1188,16810.91,26.46,-1.00,-1.0,2439
1882,2136882,17000,-96,732,17016.02,26.46,-1.00,-1.0,2365
1887,2136887,16824,876,1392,16904.20,26.55,-1.00,-1.0,2447
1890,2136890,16904,600,1796,17009.73,26.46,-1.00,-1.0,2364
1892,2136892,16976,-400,1688,17064.40,26.51,-1.00,-1.0,2363
1895,2136895,17224,-988,1548,17321.62,26.51,-1.00,-1.0,2454
1898,2136898,17340,212,1752,17429.57,26.41,-1.00,-1.0,2374
1901,2136901,17576,788,1708,17676.37,26.60,-1.00,-1.0,2452
1903,2136903,17364,-232,1860,17464.88,26.51,-1.00,-1.0,2368
1906,2136906,16832,-888,2076,16982.77,26.60,-1.00,-1.0,2447
1909,2136909,16800,204,1904,16908.78,26.51,-1.00,-1.0,2373
1914,2136914,16776,1428,1152,16876.03,26.60,-1.00,-1.0,2454
1917,2136917,16640,800,1072,16693.68,26.51,-1.00,-1.0,2370
1919,2136919,16636,-212,884,16660.82,26.46,-1.00,-1.0,2446
1922,2136922,17020,-132,932,17046.01,26.41,-1.00,-1.0,2381
1925,2136925,17100,124,1192,17141.94,26.51,-1.00,-1.0,2439
1928,2136928,17088,44,1340,17140.52,26.51,-1.00,-1.0,2368
1930,2136930,17228,164,1596,17302.55,26.55,-1.00,-1.0,2361
1933,2136933,17172,408,1684,17259.20,26.46,-1.00,-1.0,2438
1936,2136936,17156,372,1584,17232.98,26.51,-1.00,-1.0,2373
1941,2136941,16832,-304,1788,16929.43,26.60,-1.00,-1.0,2462
1944,2136944,16868,84,1612,16945.06,26.51,-1.00,-1.0,2371
1947,2136947,17012,884,1376,17090.44,26.51,-1.00,-1.0,2449
1949,2136949,17056,1772,1280,17195.51,26.51,-1.00,-1.0,2369
1952,2136952,16920,1344,1216,17016.80,26.46,-1.00,-1.0,2451
1955,2136955,16760,124,1244,16806.56,26.60,-1.00,-1.0,2373
1958,2136958,17000,-396,1292,17053.62,26.55,-1.00,-1.0,2448
1960,2136960,16880,-184,1360,16935.70,26.51,-1.00,-1.0,2368
1965,2136965,17056,-56,1736,17144.21,26.51,-1.00,-1.0,2449
1968,2136968,17240,-20,1564,17310.81,26.51,-1.00,-1.0,2365
1971,2136971,17268,868,1536,17357.90,26.51,-1.00,-1.0,2450
1973,2136973,17252,1008,1492,17345.71,26.60,-1.00,-1.0,2366
1976,2136976,16932,172,1536,17002.40,26.51,-1.00,-1.0,2368
1979,2136979,16752,-796,1428,16831.59,26.51,-1.00,-1.0,2442
1982,2136982,16828,-372,1392,16889.57,26.51,-1.00,-1.0,2364
1984,2136984,16972,1272,1424,17079.07,26.55,-1.00,-1.0,2451
1987,2136987,16964,1600,1492,17104.48,26.46,-1.00,-1.0,2365
1992,2136992,17000,-564,1492,17074.66,26.37,-1.00,-1.0,2454
1995,2136995,17008,-472,1544,17084.46,26.51,-1.00,-1.0,2372
1998,2136998,17212,188,1484,17276.88,26.55,-1.00,-1.0,2452
2000,2137000,17288,92,1528,17355.64,26.55,-1.00,-1.0,2377
2003,2137003,17192,-52,1364,17246.10,26.55,-1.00,-1.0,2446
2006,2137006,16908,336,1444,16972.88,26.60,-1.00,-1.0,2368
2009,2137009,16848,756,1512,16932.60,26.51,-1.00,-1.0,2468
2011,2137011,16808,768,1508,16892.98,26.51,-1.00,-1.0,2367
2014,2137014,16780,660,1364,16848.28,26.46,-1.00,-1.0,2360
2019,2137019,16964,108,1048,16996.68,26.55,-1.00,-1.0,2453
2022,2137022,17088,672,1268,17148.15,26.55,-1.00,-1.0,2364
2025,2137025,17124,1064,1380,17212.43,26.60,-1.00,-1.0,2450
2027,2137027,17104,848,1312,17175.19,26.55,-1.00,-1.0,2373
2030,2137030,17036,88,1148,17074.86,26.60,-1.00,-1.0,2438
2033,2137033,16964,-72,1340,17016.99,26.55,-1.00,-1.0,2365
2036,2137036,16872,372,1332,16928.59,26.55,-1.00,-1.0,2454
2038,2137038,16876,292,1380,16934.85,26.55,-1.00,-1.0,2376
2043,2137043,16996,-292,1600,17073.64,26.46,-1.00,-1.0,2443
2046,2137046,17032,504,1888,17143.73,26.51,-1.00,-1.0,2364
2049,2137049,17228,896,1940,17360.02,26.55,-1.00,-1.0,2451
2051,2137051,17188,236,1956,17300.55,26.41,-1.00,-1.0,2365
2054,2137054,17180,-260,1608,17257.05,26.55,-1.00,-1.0,2369
2057,2137057,17212,-136,1460,17274.35,26.60,-1.00,-1.0,2437
2060,2137060,17120,548,1364,17182.99,26.46,-1.00,-1.0,2372
2062,2137062,16952,676,1496,17031.30,26.60,-1.00,-1.0,2447
2065,2137065,16812,96,1312,16863.39,26.51,-1.00,-1.0,2366
2070,2137070,16768,-184,1280,16817.79,26.51,-1.00,-1.0,2443
2073,2137073,16980,532,1316,17039.23,26.51,-1.00,-1.0,2366
2076,2137076,17140,860,1412,17219.55,26.51,-1.00,-1.0,2438
2078,2137078,17260,496,1512,17333.20,26.51,-1.00,-1.0,2355
2081,2137081,17204,-248,1488,17270.01,26.60,-1.00,-1.0,2437
2084,2137084,17112,-484,1480,17182.70,26.55,-1.00,-1.0,2352
2087,2137087,17088,184,1580,17161.88,26.60,-1.00,-1.0,2449
2089,2137089,16912,520,1688,17003.98,26.55,-1.00,-1.0,2376
2092,2137092,16964,528,1532,17041.22,26.65,-1.00,-1.0,2361
2097,2137097,16984,364,1344,17040.98,26.55,-1.00,-1.0,2445
2100,2137100,16932,608,1484,17007.78,26.60,-1.00,-1.0,2368
2103,2137103,17024,764,1332,17093.11,26.55,-1.00,-1.0,2440
2105,2137105,16912,564,1340,16974.38,26.55,-1.00,-1.0,2366
2108,2137108,17044,-20,1276,17091.71,26.55,-1.00,-1.0,2436
2111,2137111,16924,-324,1244,16972.75,26.41,-1.00,-1.0,2372
2114,2137114,17056,376,1480,17124.22,26.55,-1.00,-1.0,2440
2116,2137116,17124,816,1532,17211.75,26.46,-1.00,-1.0,2368
2121,2137121,17100,-76,1488,17164.79,26.46,-1.00,-1.0,2444
2124,2137124,17080,-72,1480,17144.15,26.55,-1.00,-1.0,2372
2127,2137127,17116,464,1548,17192.12,26.55,-1.00,-1.0,2440
2129,2137129,16988,556,1388,17053.67,26.55,-1.00,-1.0,2368
2132,2137132,16928,208,1352,16983.18,26.51,-1.00,-1.0,2356
2135,2137135,16940,268,1448,17003.88,26.51,-1.00,-1.0,2445
2137,2137137,16904,764,1496,16987.26,26.65,-1.00,-1.0,2371
2140,2137140,16956,868,1624,17055.70,26.51,-1.00,-1.0,2449
2143,2137143,16920,24,1396,16977.51,26.55,-1.00,-1.0,2370
2148,2137148,17096,32,1548,17165.97,26.65,-1.00,-1.0,2446
2151,2137151,17204,580,1628,17290.59,26.55,-1.00,-1.0,2366
2154,2137154,17220,380,1540,17292.90,26.55,-1.00,-1.0,2445
2156,2137156,17100,188,1452,17162.56,26.46,-1.00,-1.0,2351
2159,2137159,16976,308,1372,17034.14,26.55,-1.00,-1.0,2437
2162,2137162,17020,564,1388,17085.81,26.55,-1.00,-1.0,2368
2165,2137165,16832,656,1224,16889.19,26.55,-1.00,-1.0,2446
2167,2137167,16800,388,1292,16854.07,26.46,-1.00,-1.0,2364
2170,2137170,16864,356,1340,16920.90,26.51,-1.00,-1.0,2372
2175,2137175,17108,648,1432,17180.05,26.51,-1.00,-1.0,2445
2178,2137178,17168,296,1456,17232.17,26.55,-1.00,-1.0,2366
2181,2137181,17160,-192,1440,17221.38,26.51,-1.00,-1.0,2444
2183,2137183,17272,-180,1540,17341.45,26.46,-1.00,-1.0,2364
2186,2137186,17088,176,1544,17158.52,26.51,-1.00,-1.0,2439
2189,2137189,16932,248,1524,17002.26,26.55,-1.00,-1.0,2370
2192,2137192,16956,80,1608,17032.26,26.60,-1.00,-1.0,2448
2194,2137194,16980,300,1596,17057.48,26.46,-1.00,-1.0,2364
2199,2137199,17068,664,1572,17153.10,26.55,-1.00,-1.0,2445
2202,2137202,16968,352,1724,17058.99,26.46,-1.00,-1.0,2366
2205,2137205,17060,-28,1516,17127.25,26.55,-1.00,-1.0,2439
2208,2137208,17076,304,1488,17143.40,26.51,-1.00,-1.0,2364
2210,2137210,17144,692,1724,17244.36,26.55,-1.00,-1.0,2361
2213,2137213,17168,680,1376,17236.47,26.51,-1.00,-1.0,2436
2216,2137216,17096,248,1468,17160.70,26.55,-1.00,-1.0,2366
2218,2137218,16916,-48,1316,16967.18,26.51,-1.00,-1.0,2437
2221,2137221,16972,8,1264,17019.01,26.55,-1.00,-1.0,2372
2226,2137226,16860,-104,1260,16907.34,26.55,-1.00,-1.0,2455
2229,2137229,16924,140,1324,16976.29,26.51,-1.00,-1.0,2378
2232,2137232,17064,324,1152,17105.91,26.46,-1.00,-1.0,2439
2235,2137235,16976,564,1220,17029.12,26.51,-1.00,-1.0,2375
2237,2137237,17032,536,1496,17105.97,26.51,-1.00,-1.0,2461
2240,2137240,17004,232,1416,17064.43,26.55,-1.00,-1.0,2367
2243,2137243,16932,220,1408,16991.87,26.60,-1.00,-1.0,2438
2246,2137246,16988,340,1372,17046.71,26.51,-1.00,-1.0,2371
2248,2137248,17012,696,1320,17077.32,26.55,-1.00,-1.0,2347
2254,2137254,16900,252,1332,16954.28,26.51,-1.00,-1.0,2446
2256,2137256,17100,-76,1308,17150.12,26.60,-1.00,-1.0,2365
2259,2137259,17072,12,1224,17115.83,26.55,-1.00,-1.0,2451
2262,2137262,17052,308,1372,17109.88,26.60,-1.00,-1.0,2360
2265,2137265,17084,124,1436,17144.69,26.60,-1.00,-1.0,2440
2267,2137267,16980,76,1360,17034.55,26.51,-1.00,-1.0,2364
2270,2137270,16948,-68,1528,17016.88,26.51,-1.00,-1.0,2436
2273,2137273,16940,280,1480,17006.83,26.51,-1.00,-1.0,2371
2278,2137278,16988,364,1644,17071.24,26.60,-1.00,-1.0,2446
2280,2137280,16984,256,1660,17066.85,26.46,-1.00,-1.0,2364
2283,2137283,17024,220,1544,17095.29,26.51,-1.00,-1.0,2425
2286,2137286,17064,384,1452,17129.97,26.55,-1.00,-1.0,2366
2288,2137288,17052,576,1560,17132.89,26.51,-1.00,-1.0,2359
2291,2137291,17084,500,1512,17158.06,26.60,-1.00,-1.0,2440
2294,2137294,17024,308,1472,17090.30,26.60,-1.00,-1.0,2365
2297,2137297,16984,172,1380,17040.84,26.60,-1.00,-1.0,2443
2299,2137299,16980,372,1536,17053.39,26.51,-1.00,-1.0,2363
2304,2137304,17016,132,1428,17076.32,26.51,-1.00,-1.0,2447
2307,2137307,17008,128,1460,17071.03,26.51,-1.00,-1.0,2364
2310,2137310,17052,244,1308,17103.83,26.60,-1.00,-1.0,2447
2312,2137312,17052,616,1292,17111.97,26.51,-1.00,-1.0,2364
2315,2137315,16984,744,1332,17052.39,26.60,-1.00,-1.0,2438
2318,2137318,17084,684,1476,17161.28,26.60,-1.00,-1.0,2365
2321,2137321,16880,516,1456,16950.53,26.51,-1.00,-1.0,2361
2324,2137324,16940,468,1496,17012.37,26.51,-1.00,-1.0,2436
2326,2137326,16920,360,1464,16987.03,26.51,-1.00,-1.0,2351
2331,2137331,17056,232,1420,17116.58,26.60,-1.00,-1.0,2445
2334,2137334,17112,-4,1408,17169.83,26.51,-1.00,-1.0,2363
2337,2137337,17068,-28,1556,17138.80,26.51,-1.00,-1.0,2444
2339,2137339,17060,92,1328,17111.86,26.51,-1.00,-1.0,2363
2342,2137342,17132,240,1452,17195.10,26.51,-1.00,-1.0,2439
2345,2137345,17036,184,1436,17097.40,26.51,-1.00,-1.0,2364
2348,2137348,17000,200,1300,17050.81,26.51,-1.00,-1.0,2444
2350,2137350,16904,268,1420,16965.65,26.51,-1.00,-1.0,2364
2355,2137355,16876,428,1416,16940.71,26.51,-1.00,-1.0,2445
2358,2137358,17080,580,1480,17153.81,26.60,-1.00,-1.0,2364
2361,2137361,16988,500,1532,17064.27,26.65,-1.00,-1.0,2367
2364,2137364,17128,140,1608,17203.88,26.55,-1.00,-1.0,2439
2366,2137366,17020,252,1504,17088.18,26.55,-1.00,-1.0,2365
2369,2137369,17004,220,1540,17075.01,26.46,-1.00,-1.0,2436
2372,2137372,17028,240,1496,17095.27,26.51,-1.00,-1.0,2369
2375,2137375,17020,356,1516,17091.09,26.55,-1.00,-1.0,2450
2377,2137377,17036,412,1356,17094.85,26.55,-1.00,-1.0,2364
2382,2137382,17020,520,1392,17084.74,26.51,-1.00,-1.0,2445
2385,2137385,16976,452,1404,17039.96,26.51,-1.00,-1.0,2351
2388,2137388,17016,424,1244,17066.68,26.55,-1.00,-1.0,2438
2391,2137391,17004,356,1364,17062.33,26.51,-1.00,-1.0,2365
2393,2137393,17088,436,1308,17143.53,26.51,-1.00,-1.0,2424
2396,2137396,17096,376,1448,17161.33,26.51,-1.00,-1.0,2364
2399,2137399,17032,312,1340,17087.48,26.46,-1.00,-1.0,2367
2402,2137402,17020,208,1424,17080.73,26.60,-1.00,-1.0,2450
2405,2137405,17008,92,1488,17073.21,26.55,-1.00,-1.0,2374
2410,2137410,17044,316,1500,17112.80,26.55,-1.00,-1.0,2446
2412,2137412,17032,512,1548,17109.87,26.55,-1.00,-1.0,2364
2415,2137415,17088,356,1572,17163.85,26.46,-1.00,-1.0,2438
2418,2137418,16960,132,1532,17029.56,26.46,-1.00,-1.0,2371
2421,2137421,16952,80,1584,17026.03,26.65,-1.00,-1.0,2438
2423,2137423,16956,108,1488,17021.51,26.55,-1.00,-1.0,2366
2426,2137426,16960,-8,1468,17023.42,26.46,-1.00,-1.0,2437
2429,2137429,17000,208,1416,17060.14,26.46,-1.00,-1.0,2364
2434,2137434,16996,340,1372,17054.68,26.51,-1.00,-1.0,2444
2436,2137436,16996,388,1392,17057.32,26.41,-1.00,-1.0,2351
2439,2137439,16964,392,1560,17040.09,26.55,-1.00,-1.0,2359
2442,2137442,17008,364,1520,17079.67,26.46,-1.00,-1.0,2443
2444,2137444,16968,408,1624,17050.42,26.51,-1.00,-1.0,2365
2447,2137447,16992,392,1472,17060.14,26.65,-1.00,-1.0,2437
2450,2137450,17052,304,1508,17121.25,26.46,-1.00,-1.0,2365
2453,2137453,16928,304,1612,17007.30,26.46,-1.00,-1.0,2443
2456,2137456,16892,176,1376,16948.87,26.51,-1.00,-1.0,2365
2461,2137461,16900,188,1464,16964.33,26.51,-1.00,-1.0,2449
2463,2137463,17132,308,1368,17189.29,26.51,-1.00,-1.0,2368
2466,2137466,16968,328,1440,17032.15,26.51,-1.00,-1.0,2451
2469,2137469,17064,448,1548,17139.93,26.51,-1.00,-1.0,2373
2472,2137472,17060,524,1548,17138.10,26.60,-1.00,-1.0,2449
2474,2137474,17000,412,1416,17063.85,26.51,-1.00,-1.0,2368
2477,2137477,17056,296,1544,17128.30,26.60,-1.00,-1.0,2361
2480,2137480,16916,268,1496,16984.14,26.55,-1.00,-1.0,2430
2483,2137483,17008,416,1488,17078.04,26.51,-1.00,-1.0,2365
2488,2137488,16976,220,1384,17033.74,26.60,-1.00,-1.0,2449
2490,2137490,17024,208,1448,17086.74,26.51,-1.00,-1.0,2375
2493,2137493,16944,144,1512,17011.94,26.55,-1.00,-1.0,2443
2496,2137496,17120,144,1484,17184.80,26.51,-1.00,-1.0,2371
2499,2137499,17076,120,1540,17145.72,26.55,-1.00,-1.0,2449
2501,2137501,16972,-32,1448,17033.69,26.51,-1.00,-1.0,2372
2504,2137504,17012,12,1480,17076.26,26.55,-1.00,-1.0,2443
2507,2137507,16956,108,1488,17021.51,26.51,-1.00,-1.0,2353
2510,2137510,16876,180,1428,16937.27,26.55,-1.00,-1.0,2361
2515,2137515,17028,184,1548,17099.21,26.55,-1.00,-1.0,2444
2518,2137518,17024,280,1508,17092.95,26.55,-1.00,-1.0,2366
2521,2137521,16968,364,1496,17037.71,26.46,-1.00,-1.0,2442
2523,2137523,17064,444,1488,17134.51,26.55,-1.00,-1.0,2365
2526,2137526,17068,480,1476,17138.42,26.55,-1.00,-1.0,2423
2529,2137529,16916,456,1508,16989.20,26.55,-1.00,-1.0,2369
2532,2137532,17072,448,1496,17143.28,26.46,-1.00,-1.0,2434
2534,2137534,16976,528,1548,17054.61,26.60,-1.00,-1.0,2368
2539,2137539,16956,412,1380,17017.05,26.55,-1.00,-1.0,2433
2542,2137542,17048,484,1328,17106.49,26.46,-1.00,-1.0,2368
2545,2137545,16960,448,1432,17026.24,26.51,-1.00,-1.0,2435
2547,2137547,17056,404,1448,17122.12,26.55,-1.00,-1.0,2367
2550,2137550,17088,372,1444,17152.94,26.60,-1.00,-1.0,2359
2553,2137553,17088,376,1488,17156.79,26.51,-1.00,-1.0,2439
2555,2137555,17084,388,1512,17155.17,26.60,-1.00,-1.0,2366
2558,2137558,17044,304,1400,17104.10,26.60,-1.00,-1.0,2437
2561,2137561,17016,280,1548,17088.56,26.51,-1.00,-1.0,2364
2566,2137566,17072,356,1328,17127.27,26.55,-1.00,-1.0,2446
2569,2137569,16980,392,1328,17036.36,26.55,-1.00,-1.0,2365
2571,2137571,16932,448,1480,17002.46,26.51,-1.00,-1.0,2436
2574,2137574,17016,444,1532,17090.59,26.55,-1.00,-1.0,2365
2577,2137577,17056,324,1424,17118.41,26.41,-1.00,-1.0,2436
2580,2137580,17020,188,1484,17085.61,26.55,-1.00,-1.0,2366
2582,2137582,17052,136,1552,17123.02,26.51,-1.00,-1.0,2435
2585,2137585,16960,232,1584,17035.39,26.46,-1.00,-1.0,2352
2588,2137588,17108,196,1500,17174.75,26.60,-1.00,-1.0,2366
2593,2137593,16912,208,1376,16969.16,26.51,-1.00,-1.0,2452
2595,2137595,16948,292,1340,17003.40,26.51,-1.00,-1.0,2365
2598,2137598,16932,444,1256,16984.32,26.51,-1.00,-1.0,2436
2601,2137601,17052,192,1508,17119.63,26.55,-1.00,-1.0,2353
2604,2137604,17020,320,1408,17081.14,26.60,-1.00,-1.0,2444
2606,2137606,16976,312,1436,17039.48,26.51,-1.00,-1.0,2368
2609,2137609,16988,336,1520,17059.17,26.51,-1.00,-1.0,2436
2612,2137612,16896,152,1396,16954.25,26.55,-1.00,-1.0,2365
2617,2137617,17040,244,1512,17108.69,26.55,-1.00,-1.0,2452
2620,2137620,16960,316,1444,17024.29,26.55,-1.00,-1.0,2374
2622,2137622,17020,168,1444,17081.97,26.51,-1.00,-1.0,2436
2625,2137625,17076,128,1480,17140.49,26.55,-1.00,-1.0,2372
2628,2137628,17056,364,1428,17119.54,26.51,-1.00,-1.0,2360
2630,2137630,17056,236,1364,17112.08,26.51,-1.00,-1.0,2437
2633,2137633,16948,292,1252,16996.69,26.51,-1.00,-1.0,2365
2636,2137636,17012,248,1480,17078.06,26.51,-1.00,-1.0,2435
2639,2137639,16956,404,1468,17024.22,26.55,-1.00,-1.0,2370
2644,2137644,17036,388,1544,17110.22,26.55,-1.00,-1.0,2448
2646,2137646,17024,312,1448,17088.32,26.51,-1.00,-1.0,2365
2649,2137649,17052,292,1512,17121.39,26.46,-1.00,-1.0,2438
2652,2137652,17040,368,1340,17096.57,26.60,-1.00,-1.0,2369
2655,2137655,16980,316,1520,17050.83,26.55,-1.00,-1.0,2445
2657,2137657,17024,304,1360,17080.94,26.60,-1.00,-1.0,2366
2660,2137660,16960,164,1532,17029.84,26.55,-1.00,-1.0,2439
2663,2137663,17024,160,1452,17086.56,26.51,-1.00,-1.0,2365
2666,2137666,17016,292,1248,17064.20,26.55,-1.00,-1.0,2363
2671,2137671,17000,344,1396,17060.69,26.55,-1.00,-1.0,2452
2673,2137673,17064,384,1420,17127.29,26.55,-1.00,-1.0,2366
2676,2137676,16996,436,1420,17060.79,26.46,-1.00,-1.0,2452
2679,2137679,17028,476,1392,17091.43,26.55,-1.00,-1.0,2366
2682,2137682,17104,512,1368,17166.26,26.46,-1.00,-1.0,2443
2684,2137684,17056,420,1512,17128.04,26.55,-1.00,-1.0,2366
2687,2137687,17060,468,1292,17115.25,26.65,-1.00,-1.0,2454
2690,2137690,17000,336,1484,17067.96,26.55,-1.00,-1.0,2365
2695,2137695,16900,308,1536,16972.45,26.51,-1.00,-1.0,2445
2698,2137698,17012,260,1480,17078.24,26.51,-1.00,-1.0,2369
2701,2137701,17036,328,1516,17106.46,26.55,-1.00,-1.0,2443
2703,2137703,17072,292,1560,17145.61,26.60,-1.00,-1.0,2367
2706,2137706,17108,248,1556,17180.40,26.55,-1.00,-1.0,2361
2709,2137709,17028,208,1548,17099.48,26.55,-1.00,-1.0,2439
2711,2137711,17088,228,1540,17158.77,26.55,-1.00,-1.0,2366
2714,2137714,16984,292,1444,17047.78,26.55,-1.00,-1.0,2438
2717,2137717,16120,840,-1036,16175.08,26.55,-1.00,-1.0,2365
2722,2137722,20532,384,-12360,23968.31,26.46,-1.00,-1.0,2452
2724,2137724,10636,600,288,10656.80,26.55,-1.00,-1.0,2366
2727,2137727,27568,7172,7944,29572.61,26.55,-1.00,-1.0,2437
2730,2137730,10568,-5708,3652,12553.92,26.55,-1.00,-1.0,2365
2733,2137733,25608,-16672,-7368,31432.67,26.55,-1.00,-1.0,2444
2735,2137735,7812,816,2892,8370.00,26.46,-1.00,-1.0,2365
2738,2137738,22424,11248,3044,25270.92,26.46,-1.00,-1.0,2438
2741,2137741,6624,-320,96,6632.42,26.46,-1.00,-1.0,2364
2744,2137744,21500,-4372,-392,21943.52,26.51,-1.00,-1.0,2360
2749,2137749,15512,3120,192,15823.82,26.46,-1.00,-1.0,2445
2751,2137751,17828,3152,-2616,18292.52,26.51,-1.00,-1.0,2368
2754,2137754,18068,928,-548,18100.11,26.60,-1.00,-1.0,2436
2757,2137757,20212,-1892,2284,20428.44,26.60,-1.00,-1.0,2367
2760,2137760,13528,-2444,424,13753.53,26.46,-1.00,-1.0,2429
2762,2137762,19496,724,2212,19634.44,26.51,-1.00,-1.0,2372
2765,2137765,16932,3624,2624,17513.18,26.51,-1.00,-1.0,2436
2768,2137768,14928,772,-308,14951.12,26.55,-1.00,-1.0,2354
2773,2137773,20148,-1920,1392,20287.09,26.51,-1.00,-1.0,2448
2776,2137776,13928,-688,316,13948.56,26.51,-1.00,-1.0,2377
2778,2137778,19376,-712,2080,19500.33,26.55,-1.00,-1.0,2423
2781,2137781,15928,4852,1920,16760.95,26.51,-1.00,-1.0,2379
2784,2137784,17312,2180,1896,17551.43,26.55,-1.00,-1.0,2441
2787,2137787,15252,-1932,-152,15374.63,26.60,-1.00,-1.0,2376
2789,2137789,17716,-2128,792,17860.92,26.46,-1.00,-1.0,2438
2792,2137792,16976,3716,1172,17417.43,26.60,-1.00,-1.0,2380
2795,2137795,15952,204,1696,16043.20,26.37,-1.00,-1.0,2360
2800,2137800,16648,-868,1124,16708.46,26.46,-1.00,-1.0,2446
2803,2137803,17352,1496,1712,17500.31,26.55,-1.00,-1.0,2367
2805,2137805,15800,2320,2592,16178.41,26.65,-1.00,-1.0,2435
2808,2137808,18472,-1272,868,18536.08,26.51,-1.00,-1.0,2367
2811,2137811,15112,-1720,1068,15247.02,26.55,-1.00,-1.0,2436
2814,2137814,17328,-848,1320,17398.88,26.55,-1.00,-1.0,2362
2816,2137816,15716,672,1476,15799.46,26.55,-1.00,-1.0,2439
2819,2137819,18940,392,1276,18986.98,26.51,-1.00,-1.0,2380
2824,2137824,17716,1336,2060,17885.33,26.60,-1.00,-1.0,2446
2827,2137827,17980,1268,1332,18073.80,26.51,-1.00,-1.0,2360
2830,2137830,17000,-268,748,17018.56,26.51,-1.00,-1.0,2437
2832,2137832,16444,-516,1776,16547.68,26.60,-1.00,-1.0,2366
2835,2137835,17624,0,1400,17679.52,26.51,-1.00,-1.0,2437
2838,2137838,17520,768,1524,17602.92,26.51,-1.00,-1.0,2371
2840,2137840,16960,1076,1176,17034.74,26.51,-1.00,-1.0,2362
2843,2137843,15756,308,2100,15898.31,26.46,-1.00,-1.0,2451
2846,2137846,18744,-552,676,18764.31,26.51,-1.00,-1.0,2365
2851,2137851,17220,688,1540,17302.41,26.51,-1.00,-1.0,2444
2854,2137854,17500,-816,1252,17563.70,26.55,-1.00,-1.0,2364
2856,2137856,16972,-1236,1164,17056.71,26.51,-1.00,-1.0,2438
2859,2137859,16980,1268,1032,17058.52,26.55,-1.00,-1.0,2365
2862,2137862,17296,3156,2444,17750.64,26.60,-1.00,-1.0,2436
2865,2137865,16764,1892,2052,16994.77,26.55,-1.00,-1.0,2364
2867,2137867,17068,-1464,976,17158.45,26.51,-1.00,-1.0,2438
2870,2137870,16604,-944,1544,16702.33,26.46,-1.00,-1.0,2364
2875,2137875,16868,2000,1884,17090.31,26.55,-1.00,-1.0,2440
2878,2137878,17236,-384,2168,17376.06,26.46,-1.00,-1.0,2366
2881,2137881,17500,-1380,1192,17594.75,26.55,-1.00,-1.0,2450
2883,2137883,17032,20,1348,17085.27,26.46,-1.00,-1.0,2373
2886,2137886,17304,1832,1164,17439.60,26.46,-1.00,-1.0,2361
2889,2137889,16340,616,1136,16391.02,26.60,-1.00,-1.0,2433
2891,2137891,17192,-1956,928,17327.78,26.55,-1.00,-1.0,2366
2894,2137894,16256,-488,1504,16332.72,26.51,-1.00,-1.0,2437
2897,2137897,16828,2696,1856,17143.36,26.51,-1.00,-1.0,2373
2902,2137902,17852,384,1216,17897.49,26.51,-1.00,-1.0,2444
2905,2137905,16136,-664,1396,16209.88,26.51,-1.00,-1.0,2370
2908,2137908,17652,-1144,1364,17741.54,26.55,-1.00,-1.0,2438
2910,2137910,16576,436,1400,16640.73,26.51,-1.00,-1.0,2369
2913,2137913,17432,1816,2156,17658.45,26.51,-1.00,-1.0,2435
2916,2137916,16644,1404,2268,16856.39,26.51,-1.00,-1.0,2364
2918,2137918,17388,-956,1224,17457.22,26.55,-1.00,-1.0,2438
2921,2137921,16668,-1248,1608,16791.82,26.60,-1.00,-1.0,2352
2926,2137926,16768,2132,1592,16977.80,26.60,-1.00,-1.0,2445
2929,2137929,17596,1456,1356,17708.13,26.51,-1.00,-1.0,2371
2931,2137931,16616,-1008,1236,16692.37,26.55,-1.00,-1.0,2365
2934,2137934,17280,-1072,916,17337.44,26.55,-1.00,-1.0,2447
2937,2137937,16896,1056,1416,16988.08,26.55,-1.00,-1.0,2370
2940,2137940,17312,2140,1564,17513.74,26.60,-1.00,-1.0,2446
2942,2137942,16652,944,1620,16757.23,26.55,-1.00,-1.0,2369
2945,2137945,17292,-1072,1164,17364.25,26.51,-1.00,-1.0,2437
2948,2137948,16704,-496,1076,16745.97,26.51,-1.00,-1.0,2372
2953,2137953,16604,1176,1400,16704.37,26.51,-1.00,-1.0,2445
2956,2137956,17428,488,1332,17485.64,26.51,-1.00,-1.0,2362
2958,2137958,16520,-104,1580,16595.71,26.51,-1.00,-1.0,2425
2961,2137961,17196,8,1760,17285.83,26.55,-1.00,-1.0,2380
2964,2137964,16932,544,1460,17003.53,26.51,-1.00,-1.0,2439
2967,2137967,17204,556,1572,17284.62,26.46,-1.00,-1.0,2370
2969,2137969,16720,-164,1312,16772.20,26.41,-1.00,-1.0,2441
2972,2137972,17400,-148,1264,17446.48,26.51,-1.00,-1.0,2352
2975,2137975,16680,884,1628,16782.56,26.60,-1.00,-1.0,2348
2980,2137980,16804,-544,1456,16875.73,26.60,-1.00,-1.0,2460
2983,2137983,17264,-136,1252,17309.87,26.60,-1.00,-1.0,2372
2986,2137986,16944,772,1356,17015.70,26.51,-1.00,-1.0,2451
2988,2137988,17108,908,1348,17185.03,26.60,-1.00,-1.0,2374
2991,2137991,16884,332,1668,16969.44,26.51,-1.00,-1.0,2444
2994,2137994,17168,596,1480,17241.98,26.51,-1.00,-1.0,2366
2997,2137997,17052,944,1420,17137.04,26.60,-1.00,-1.0,2451
2999,2137999,17084,584,1696,17177.91,26.51,-1.00,-1.0,2372
3004,2138004,16996,-108,1388,17052.92,26.51,-1.00,-1.0,2458
3007,2138007,17000,444,1396,17063.00,26.51,-1.00,-1.0,2373
3010,2138010,17092,760,1556,17179.50,26.51,-1.00,-1.0,2440
3013,2138013,16904,412,1620,16986.45,26.46,-1.00,-1.0,2363
3015,2138015,17204,64,1528,17271.84,26.51,-1.00,-1.0,2360
3018,2138018,16824,-208,1364,16880.48,26.51,-1.00,-1.0,2437
3021,2138021,16964,-436,1428,17029.58,26.41,-1.00,-1.0,2369
3023,2138023,17044,-404,1204,17091.25,26.60,-1.00,-1.0,2440
3026,2138026,17088,612,1392,17155.52,26.55,-1.00,-1.0,2364
3031,2138031,17064,548,1520,17140.33,26.55,-1.00,-1.0,2452
3034,2138034,17160,272,1472,17225.17,26.60,-1.00,-1.0,2367
3037,2138037,17088,328,1384,17147.09,26.55,-1.00,-1.0,2429
3039,2138039,16904,380,1344,16961.60,26.51,-1.00,-1.0,2370
3042,2138042,16992,300,1352,17048.34,26.55,-1.00,-1.0,2438
3045,2138045,16888,368,1264,16939.23,26.60,-1.00,-1.0,2366
3048,2138048,17100,372,1244,17149.22,26.55,-1.00,-1.0,2447
3050,2138050,17016,348,1504,17085.88,26.51,-1.00,-1.0,2371
3053,2138053,17020,-40,1416,17078.85,26.55,-1.00,-1.0,2359
3058,2138058,17020,156,1404,17078.52,26.55,-1.00,-1.0,2446
3061,2138061,17060,460,1468,17129.22,26.60,-1.00,-1.0,2365
3064,2138064,17136,392,1536,17209.17,26.55,-1.00,-1.0,2436
3066,2138066,17208,144,1356,17261.95,26.46,-1.00,-1.0,2365
3069,2138069,17076,160,1432,17136.69,26.55,-1.00,-1.0,2438
3072,2138072,17028,744,1680,17126.84,26.51,-1.00,-1.0,2367
3075,2138075,16980,836,1608,17076.45,26.55,-1.00,-1.0,2430
3077,2138077,16820,580,1468,16893.90,26.55,-1.00,-1.0,2372
3082,2138082,16940,436,1452,17007.71,26.55,-1.00,-1.0,2454
3085,2138085,16936,552,1296,16994.48,26.41,-1.00,-1.0,2380
3088,2138088,16940,300,1472,17006.48,26.51,-1.00,-1.0,2436
3091,2138091,17144,60,1640,17222.37,26.60,-1.00,-1.0,2368
3093,2138093,17152,176,1652,17232.27,26.46,-1.00,-1.0,2359
3096,2138096,17156,268,1720,17244.09,26.46,-1.00,-1.0,2424
3099,2138099,17236,368,1544,17308.93,26.55,-1.00,-1.0,2365
3101,2138101,17088,-4,1608,17163.49,26.55,-1.00,-1.0,2438
3104,2138104,17004,-180,1684,17088.13,26.51,-1.00,-1.0,2366
3109,2138109,16996,552,1548,17075.28,26.55,-1.00,-1.0,2446
3112,2138112,16880,712,1432,16955.59,26.55,-1.00,-1.0,2365
3115,2138115,16904,360,1324,16959.59,26.55,-1.00,-1.0,2423
3118,2138118,16960,320,1220,17006.83,26.55,-1.00,-1.0,2365
3120,2138120,17036,292,1324,17089.87,26.55,-1.00,-1.0,2438
3123,2138123,17056,236,1456,17119.66,26.55,-1.00,-1.0,2368
3126,2138126,17004,52,1388,17060.63,26.55,-1.00,-1.0,2439
3129,2138129,17060,160,1416,17119.41,26.55,-1.00,-1.0,2360
3131,2138131,17036,456,1424,17101.49,26.51,-1.00,-1.0,2363
3136,2138136,16936,228,1456,17000.00,26.55,-1.00,-1.0,2460
3139,2138139,16908,-192,1532,16978.35,26.41,-1.00,-1.0,2372
3142,2138142,17000,-16,1372,17055.28,26.55,-1.00,-1.0,2448
3144,2138144,17024,504,1348,17084.72,26.55,-1.00,-1.0,2367
3147,2138147,17024,1016,1432,17114.30,26.55,-1.00,-1.0,2446
3150,2138150,17060,628,1472,17134.90,26.51,-1.00,-1.0,2372
3153,2138153,16924,64,1292,16973.37,26.55,-1.00,-1.0,2448
3155,2138155,16984,36,1432,17044.30,26.46,-1.00,-1.0,2368
3160,2138160,17036,424,1672,17123.10,26.46,-1.00,-1.0,2459
3163,2138163,16964,120,1404,17022.42,26.41,-1.00,-1.0,2367
3166,2138166,17104,52,1432,17163.92,26.55,-1.00,-1.0,2448
3168,2138168,17172,440,1388,17233.62,26.55,-1.00,-1.0,2374
3171,2138171,17116,756,1576,17205.02,26.51,-1.00,-1.0,2361
3174,2138174,17000,60,1440,17060.98,26.51,-1.00,-1.0,2433
3176,2138176,16892,-432,1360,16952.16,26.55,-1.00,-1.0,2368
3179,2138179,16912,-196,1396,16970.65,26.51,-1.00,-1.0,2440
3182,2138182,16960,580,1512,17037.14,26.55,-1.00,-1.0,2372
3187,2138187,17032,600,1632,17120.53,26.55,-1.00,-1.0,2449
3190,2138190,16956,-136,1360,17011.00,26.55,-1.00,-1.0,2365
3193,2138193,17064,48,1540,17133.42,26.55,-1.00,-1.0,2445
3195,2138195,17048,256,1516,17117.19,26.55,-1.00,-1.0,2364
3198,2138198,17116,320,1488,17183.54,26.55,-1.00,-1.0,2456
3201,2138201,17060,288,1520,17130.00,26.55,-1.00,-1.0,2366
3204,2138204,16996,180,1428,17056.83,26.65,-1.00,-1.0,2445
3206,2138206,16960,352,1496,17029.49,26.55,-1.00,-1.0,2364
3209,2138209,16880,428,1544,16955.87,26.55,-1.00,-1.0,2368
3214,2138214,16952,420,1352,17011.01,26.55,-1.00,-1.0,2448
3217,2138217,17064,116,1224,17108.24,26.55,-1.00,-1.0,2365
3220,2138220,17148,220,1364,17203.57,26.55,-1.00,-1.0,2445
3222,2138222,17092,576,1372,17156.65,26.55,-1.00,-1.0,2364
3225,2138225,17140,760,1436,17216.83,26.55,-1.00,-1.0,2457
3228,2138228,17020,216,1396,17078.52,26.55,-1.00,-1.0,2365
3231,2138231,16992,-112,1316,17043.25,26.46,-1.00,-1.0,2443
3233,2138233,16980,300,1380,17038.63,26.55,-1.00,-1.0,2364
3238,2138238,16856,320,1436,16920.08,26.46,-1.00,-1.0,2446
3241,2138241,16964,152,1480,17029.12,26.51,-1.00,-1.0,2365
3244,2138244,17060,272,1676,17144.29,26.55,-1.00,-1.0,2437
3247,2138247,17124,612,1648,17214.00,26.60,-1.00,-1.0,2364
3249,2138249,17188,604,1676,17280.08,26.55,-1.00,-1.0,2360
3252,2138252,17112,168,1616,17188.96,26.55,-1.00,-1.0,2437
3255,2138255,17040,28,1416,17098.76,26.51,-1.00,-1.0,2371
3258,2138258,16920,392,1300,16974.39,26.55,-1.00,-1.0,2437
3260,2138260,16924,640,1396,16993.53,26.60,-1.00,-1.0,2365
3265,2138265,16980,84,1352,17033.95,26.51,-1.00,-1.0,2453
3268,2138268,16952,108,1276,17000.30,26.51,-1.00,-1.0,2371
3271,2138271,17132,552,1380,17196.35,26.51,-1.00,-1.0,2437
3274,2138274,17132,732,1452,17209.00,26.51,-1.00,-1.0,2368
3276,2138276,16984,440,1272,17037.25,26.41,-1.00,-1.0,2427
3279,2138279,17080,124,1472,17143.76,26.51,-1.00,-1.0,2379
3282,2138282,17104,40,1400,17161.25,26.60,-1.00,-1.0,2361
3284,2138284,16948,316,1500,17017.18,26.55,-1.00,-1.0,2437
3287,2138287,17008,468,1500,17080.43,26.55,-1.00,-1.0,2365
3292,2138292,17044,392,1408,17106.55,26.51,-1.00,-1.0,2448
3295,2138295,16956,304,1380,17014.78,26.60,-1.00,-1.0,2367
3298,2138298,17004,428,1400,17066.90,26.55,-1.00,-1.0,2437
3301,2138301,17000,432,1484,17070.12,26.60,-1.00,-1.0,2366
3303,2138303,17068,368,1268,17118.99,26.65,-1.00,-1.0,2437
3306,2138306,17008,140,1372,17063.82,26.60,-1.00,-1.0,2367
3309,2138309,17132,56,1384,17187.90,26.55,-1.00,-1.0,2440
3312,2138312,16992,168,1420,17052.06,26.51,-1.00,-1.0,2362
3317,2138317,17028,216,1404,17087.15,26.51,-1.00,-1.0,2445
3319,2138319,16972,220,1516,17040.99,26.51,-1.00,-1.0,2366
3322,2138322,17052,288,1396,17111.47,26.60,-1.00,-1.0,2361
3325,2138325,16924,240,1392,16982.85,26.60,-1.00,-1.0,2448
3327,2138327,17020,176,1368,17075.79,26.60,-1.00,-1.0,2375
3330,2138330,16992,172,1408,17051.10,26.55,-1.00,-1.0,2438
3333,2138333,16952,384,1572,17029.06,26.51,-1.00,-1.0,2366
3336,2138336,16980,564,1608,17065.29,26.51,-1.00,-1.0,2450
3338,2138338,16948,284,1520,17018.39,26.55,-1.00,-1.0,2365
3344,2138344,17088,12,1584,17161.26,26.60,-1.00,-1.0,2460
3347,2138347,17068,264,1532,17138.65,26.51,-1.00,-1.0,2370
3350,2138350,17124,208,1532,17193.65,26.60,-1.00,-1.0,2452
3352,2138352,17092,248,1544,17163.39,26.51,-1.00,-1.0,2375
3355,2138355,17096,280,1392,17154.86,26.55,-1.00,-1.0,2446
3358,2138358,17040,368,1340,17096.57,26.60,-1.00,-1.0,2367
3360,2138360,16916,408,1440,16982.08,26.55,-1.00,-1.0,2347
3363,2138363,16880,404,1308,16935.42,26.55,-1.00,-1.0,2438
3366,2138366,16868,260,1284,16918.80,26.55,-1.00,-1.0,2353
3371,2138371,17028,416,1580,17106.21,26.46,-1.00,-1.0,2446
3373,2138373,17064,352,1380,17123.33,26.65,-1.00,-1.0,2351
3376,2138376,17060,220,1532,17130.06,26.55,-1.00,-1.0,2439
3379,2138379,17044,108,1468,17107.44,26.55,-1.00,-1.0,2366
3382,2138382,17116,136,1444,17177.34,26.55,-1.00,-1.0,2430
3384,2138384,16968,248,1480,17034.23,26.55,-1.00,-1.0,2370
3387,2138387,17008,148,1424,17068.15,26.55,-1.00,-1.0,2438
3390,2138390,17024,244,1612,17101.89,26.46,-1.00,-1.0,2365
3395,2138395,17020,488,1588,17100.88,26.46,-1.00,-1.0,2453
3398,2138398,17096,340,1400,17156.60,26.69,-1.00,-1.0,2368
3400,2138400,17096,216,1460,17159.59,26.55,-1.00,-1.0,2358
3403,2138403,16972,256,1536,17043.29,26.55,-1.00,-1.0,2438
3406,2138406,17060,344,1740,17151.96,26.60,-1.00,-1.0,2367
3408,2138408,17028,488,1496,17100.55,26.55,-1.00,-1.0,2438
3411,2138411,17044,464,1440,17111.02,26.55,-1.00,-1.0,2367
3414,2138414,17000,428,1456,17067.60,26.65,-1.00,-1.0,2440
3417,2138417,17024,276,1504,17092.54,26.60,-1.00,-1.0,2361
3422,2138422,16840,248,1292,16891.31,26.60,-1.00,-1.0,2447
3424,2138424,16860,228,1560,16933.55,26.51,-1.00,-1.0,2368
3427,2138427,16964,364,1352,17021.68,26.46,-1.00,-1.0,2447
3430,2138430,17072,392,1396,17133.47,26.55,-1.00,-1.0,2373
3433,2138433,17008,472,1532,17083.38,26.55,-1.00,-1.0,2446
3435,2138435,17004,392,1448,17070.04,26.55,-1.00,-1.0,2366
3438,2138438,17004,368,1616,17084.58,26.46,-1.00,-1.0,2361
3441,2138441,16976,216,1400,17035.00,26.51,-1.00,-1.0,2446
3444,2138444,16976,408,1328,17032.75,26.55,-1.00,-1.0,2372
3449,2138449,16956,500,1468,17026.77,26.55,-1.00,-1.0,2447
3451,2138451,17188,356,1444,17252.22,26.65,-1.00,-1.0,2365
3454,2138454,16972,216,1424,17033.00,26.55,-1.00,-1.0,2447
3457,2138457,17080,116,1488,17145.09,26.55,-1.00,-1.0,2371
3460,2138460,17060,212,1360,17115.44,26.46,-1.00,-1.0,2447
3462,2138462,17104,280,1532,17174.76,26.46,-1.00,-1.0,2365
3465,2138465,17080,216,1436,17141.62,26.55,-1.00,-1.0,2454
3468,2138468,17072,108,1584,17145.67,26.65,-1.00,-1.0,2371
3473,2138473,16980,316,1436,17043.54,26.46,-1.00,-1.0,2458
3475,2138475,17032,256,1528,17102.32,26.51,-1.00,-1.0,2367
3478,2138478,17088,292,1328,17142.01,26.55,-1.00,-1.0,2375
3481,2138481,16936,248,1560,17009.50,26.60,-1.00,-1.0,2440
3484,2138484,17100,356,1528,17171.82,26.46,-1.00,-1.0,2372
3486,2138486,16992,380,1612,17072.52,26.60,-1.00,-1.0,2445
3489,2138489,17036,360,1484,17104.30,26.46,-1.00,-1.0,2378
3492,2138492,16940,440,1480,17010.22,26.60,-1.00,-1.0,2442
3495,2138495,17012,324,1452,17076.93,26.60,-1.00,-1.0,2365
3500,2138500,16976,192,1508,17043.93,26.51,-1.00,-1.0,2450
3502,2138502,17048,284,1512,17117.28,26.46,-1.00,-1.0,2371
3505,2138505,17012,276,1336,17066.61,26.60,-1.00,-1.0,2438
3508,2138508,16996,368,1480,17064.29,26.46,-1.00,-1.0,2365
3510,2138510,17024,444,1384,17085.94,26.60,-1.00,-1.0,2361
3513,2138513,17016,388,1344,17073.40,26.51,-1.00,-1.0,2436
3516,2138516,16872,340,1368,16930.78,26.51,-1.00,-1.0,2365
3519,2138519,17008,296,1396,17067.76,26.46,-1.00,-1.0,2440
3522,2138522,16964,336,1288,17016.14,26.51,-1.00,-1.0,2364
3527,2138527,16976,364,1472,17043.59,26.60,-1.00,-1.0,2447
3529,2138529,16932,300,1460,16997.48,26.51,-1.00,-1.0,2372
3532,2138532,16984,232,1404,17043.51,26.60,-1.00,-1.0,2438
3535,2138535,17020,288,1456,17084.59,26.60,-1.00,-1.0,2366
3538,2138538,17064,360,1496,17133.23,26.51,-1.00,-1.0,2436
3540,2138540,17008,340,1424,17070.89,26.60,-1.00,-1.0,2372
3543,2138543,16976,364,1344,17033.01,26.51,-1.00,-1.0,2437
3546,2138546,16972,156,1364,17027.44,26.51,-1.00,-1.0,2364
3549,2138549,16988,272,1340,17042.94,26.55,-1.00,-1.0,2360
3554,2138554,16888,348,1476,16955.95,26.46,-1.00,-1.0,2446
3556,2138556,17100,336,1468,17166.19,26.60,-1.00,-1.0,2365
3559,2138559,17032,292,1428,17094.25,26.55,-1.00,-1.0,2439
3562,2138562,17032,360,1488,17100.67,26.60,-1.00,-1.0,2365
3565,2138565,17000,196,1444,17062.34,26.46,-1.00,-1.0,2443
3567,2138567,17036,308,1364,17093.29,26.51,-1.00,-1.0,2367
3570,2138570,17076,380,1580,17153.15,26.46,-1.00,-1.0,2425
3573,2138573,16988,352,1432,17051.88,26.51,-1.00,-1.0,2365
3578,2138578,17112,380,1460,17178.38,26.60,-1.00,-1.0,2441
3580,2138580,17048,308,1508,17117.34,26.55,-1.00,-1.0,2422
3583,2138583,17028,380,1580,17105.37,26.60,-1.00,-1.0,2439
3586,2138586,17112,372,1536,17184.83,26.51,-1.00,-1.0,2387
3589,2138589,17020,344,1488,17088.38,26.55,-1.00,-1.0,2359
3591,2138591,17056,348,1420,17118.55,26.55,-1.00,-1.0,2431
3594,2138594,16876,324,1552,16950.31,26.55,-1.00,-1.0,2374
3597,2138597,17132,292,1516,17201.42,26.55,-1.00,-1.0,2427
3600,2138600,17032,208,1388,17089.73,26.46,-1.00,-1.0,2375
3605,2138605,17112,280,1488,17178.86,26.46,-1.00,-1.0,2444
3607,2138607,17036,212,1444,17098.40,26.55,-1.00,-1.0,2368
3610,2138610,17048,320,1376,17106.43,26.46,-1.00,-1.0,2439
3613,2138613,16956,176,1344,17010.09,26.55,-1.00,-1.0,2369
3616,2138616,16924,224,1428,16985.62,26.55,-1.00,-1.0,2442
3618,2138618,17016,96,1356,17070.21,26.55,-1.00,-1.0,2368
3621,2138621,17064,152,1488,17129.43,26.55,-1.00,-1.0,2434
3624,2138624,17040,200,1352,17094.72,26.55,-1.00,-1.0,2367
3627,2138627,16972,128,1400,17030.12,26.51,-1.00,-1.0,2355
3632,2138632,16808,528,636,16828.31,26.60,-1.00,-1.0,2476
3635,2138635,20144,-2320,13180,24184.20,26.51,-1.00,-1.0,2378
3637,2138637,700,4228,-6372,7679.09,26.46,-1.00,-1.0,2439
3640,2138640,29720,2596,9592,31337.26,26.55,-1.00,-1.0,2368
3643,2138643,20956,12320,21372,32368.17,26.55,-1.00,-1.0,2439
3646,2138646,18524,-12624,9128,24203.81,26.51,-1.00,-1.0,2368
3648,2138648,22520,-25628,-4392,34398.18,26.46,-1.00,-1.0,2438
3651,2138651,16752,14796,5876,23110.14,26.46,-1.00,-1.0,2372
3656,2138656,21196,7784,-2064,22674.24,26.51,-1.00,-1.0,2463
3659,2138659,18676,-5244,-1244,19438.11,26.51,-1.00,-1.0,2372
3662,2138662,10252,-2004,5160,11650.97,26.65,-1.00,-1.0,2452
3664,2138664,20048,10184,3304,22727.79,26.51,-1.00,-1.0,2367
3667,2138667,15512,2120,6372,16903.22,26.46,-1.00,-1.0,2432
3670,2138670,15916,-3120,884,16243.00,26.60,-1.00,-1.0,2374
3673,2138673,14100,-4180,1964,14837.11,26.55,-1.00,-1.0,2448
3675,2138675,22052,-748,1564,22120.04,26.51,-1.00,-1.0,2372
3680,2138680,18064,-32,3376,18376.79,26.51,-1.00,-1.0,2450
3683,2138683,15320,92,592,15331.71,26.51,-1.00,-1.0,2367
3686,2138686,19028,-924,2356,19195.55,26.51,-1.00,-1.0,2365
3688,2138688,14744,-568,604,14767.29,26.51,-1.00,-1.0,2446
3691,2138691,15676,-2820,1336,15983.56,26.51,-1.00,-1.0,2373
3694,2138694,18804,888,1696,18901.20,26.55,-1.00,-1.0,2441
3697,2138697,15652,10328,3696,19113.17,26.51,-1.00,-1.0,2365
3699,2138699,18116,-1448,1772,18259.96,26.60,-1.00,-1.0,2451
3702,2138702,17140,-7960,-1368,18947.63,26.51,-1.00,-1.0,2373
3707,2138707,17724,7712,1924,19424.65,26.51,-1.00,-1.0,2447
3710,2138710,16048,-328,1668,16137.79,26.41,-1.00,-1.0,2372
3713,2138713,18200,-5352,-64,18970.71,26.51,-1.00,-1.0,2439
3715,2138715,17328,904,-748,17367.68,26.60,-1.00,-1.0,2366
3718,2138718,18924,4640,3508,19797.81,26.51,-1.00,-1.0,2438
3721,2138721,15916,748,2392,16112.11,26.51,-1.00,-1.0,2364
3723,2138723,18052,-2836,-548,18281.63,26.51,-1.00,-1.0,2439
3726,2138726,16200,-2524,924,16421.46,26.51,-1.00,-1.0,2365
3729,2138729,18408,1180,1408,18499.44,26.55,-1.00,-1.0,2364
3734,2138734,19704,812,1352,19767.01,26.46,-1.00,-1.0,2454
3737,2138737,14748,144,2008,14884.77,26.46,-1.00,-1.0,2375
3739,2138739,18772,2456,1912,19028.29,26.55,-1.00,-1.0,2448
3742,2138742,16060,1016,1072,16127.77,26.65,-1.00,-1.0,2380
3745,2138745,19556,-1472,404,19615.48,26.55,-1.00,-1.0,2441
3748,2138748,14292,-1180,1636,14433.65,26.46,-1.00,-1.0,2369
3750,2138750,18872,212,1456,18929.27,26.55,-1.00,-1.0,2447
3753,2138753,15844,2408,1720,16117.98,26.46,-1.00,-1.0,2381
3758,2138758,15704,-484,2276,15875.45,26.51,-1.00,-1.0,2449
3761,2138761,18296,-1384,832,18367.12,26.55,-1.00,-1.0,2368
3763,2138763,16556,1568,164,16630.89,26.55,-1.00,-1.0,2462
3766,2138766,17680,1096,2124,17840.82,26.51,-1.00,-1.0,2368
3769,2138769,16608,-2508,1012,16826.76,26.55,-1.00,-1.0,2440
3772,2138772,17664,-2072,688,17798.41,26.51,-1.00,-1.0,2373
3774,2138774,17080,2796,1240,17351.70,26.46,-1.00,-1.0,2371
3777,2138777,17096,5004,2940,18054.28,26.46,-1.00,-1.0,2431
3780,2138780,16072,1244,1952,16237.83,26.51,-1.00,-1.0,2365
3785,2138785,16516,-2724,1324,16791.41,26.51,-1.00,-1.0,2448
3787,2138787,17864,3356,2164,18304.87,26.51,-1.00,-1.0,2365
3790,2138790,16260,2740,2400,16662.99,26.69,-1.00,-1.0,2442
3793,2138793,16888,-2088,1996,17133.25,26.51,-1.00,-1.0,2365
3796,2138796,17176,-3892,548,17619.96,26.55,-1.00,-1.0,2445
3798,2138798,17956,2616,1592,18215.26,26.51,-1.00,-1.0,2365
3801,2138801,16552,3488,1448,16977.38,26.60,-1.00,-1.0,2439
3804,2138804,16904,-1404,936,16988.01,26.51,-1.00,-1.0,2366
3809,2138809,16172,-556,1252,16229.92,26.51,-1.00,-1.0,2441
3812,2138812,16828,5756,2424,17949.62,26.60,-1.00,-1.0,2366
3814,2138814,17784,2404,1044,17976.09,26.51,-1.00,-1.0,2443
3817,2138817,16868,-2152,1108,17040.78,26.60,-1.00,-1.0,2366
3820,2138820,15956,-1944,1908,16186.83,26.60,-1.00,-1.0,2425
3823,2138823,17560,-548,1500,17632.47,26.41,-1.00,-1.0,2366
3825,2138825,17004,1668,1448,17146.86,26.60,-1.00,-1.0,2361
3828,2138828,17280,1480,2616,17539.45,26.55,-1.00,-1.0,2438
3831,2138831,16956,-912,1176,17021.18,26.46,-1.00,-1.0,2366
3836,2138836,16932,-280,2024,17054.84,26.55,-1.00,-1.0,2442
3839,2138839,16660,2276,2116,16947.37,26.51,-1.00,-1.0,2365
3841,2138841,17372,2492,1252,17594.43,26.55,-1.00,-1.0,2443
3844,2138844,16920,-552,1064,16962.41,26.60,-1.00,-1.0,2366
3847,2138847,16840,-2144,916,17000.63,26.46,-1.00,-1.0,2437
3850,2138850,16968,-828,956,17015.07,26.60,-1.00,-1.0,2366
3852,2138852,17428,2420,1388,17649.88,26.55,-1.00,-1.0,2440
3855,2138855,16648,3000,1912,17023.86,26.60,-1.00,-1.0,2366
3860,2138860,17044,-2976,740,17317.68,26.51,-1.00,-1.0,2446
3863,2138863,16912,-1764,868,17025.89,26.51,-1.00,-1.0,2370
3866,2138866,16848,2224,2408,17163.91,26.60,-1.00,-1.0,2454
3868,2138868,17144,2268,1768,17383.51,26.41,-1.00,-1.0,2373
3871,2138871,16928,-1016,1268,17005.80,26.60,-1.00,-1.0,2439
3874,2138874,16708,-1776,1460,16865.44,26.60,-1.00,-1.0,2366
3876,2138876,17136,248,1808,17232.90,26.55,-1.00,-1.0,2362
3879,2138879,17440,2148,1776,17661.30,26.55,-1.00,-1.0,2439
3882,2138882,16764,416,1288,16818.55,26.51,-1.00,-1.0,2365
3887,2138887,17100,-384,1484,17168.57,26.55,-1.00,-1.0,2442
3890,2138890,16972,1864,1664,17154.95,26.55,-1.00,-1.0,2365
3893,2138893,17140,1384,1700,17279.61,26.51,-1.00,-1.0,2442
3895,2138895,16872,-1428,1428,16992.43,26.55,-1.00,-1.0,2368
3898,2138898,16984,-740,1180,17041.02,26.51,-1.00,-1.0,2437
3901,2138901,17008,1300,1264,17104.38,26.55,-1.00,-1.0,2365
3903,2138903,17060,2300,1652,17293.43,26.60,-1.00,-1.0,2440
3906,2138906,17044,356,1496,17113.23,26.55,-1.00,-1.0,2354
3911,2138911,16924,-28,1352,16977.94,26.55,-1.00,-1.0,2442
3914,2138914,17216,660,1588,17301.68,26.46,-1.00,-1.0,2368
3917,2138917,16996,328,1616,17075.80,26.46,-1.00,-1.0,2440
3919,2138919,17000,-560,1456,17071.42,26.46,-1.00,-1.0,2352
3922,2138922,17176,-336,1124,17216.02,26.55,-1.00,-1.0,2362
3925,2138925,17284,368,1292,17336.13,26.60,-1.00,-1.0,2444
3927,2138927,16872,1036,1788,16998.08,26.55,-1.00,-1.0,2366
3930,2138930,17152,156,1456,17214.39,26.60,-1.00,-1.0,2438
3933,2138933,16744,-908,1412,16827.95,26.51,-1.00,-1.0,2382
3938,2138938,16988,160,1404,17046.67,26.60,-1.00,-1.0,2458
3941,2138941,16884,1220,1680,17011.18,26.51,-1.00,-1.0,2372
3944,2138944,17076,1076,1652,17189.43,26.55,-1.00,-1.0,2454
3946,2138946,17184,400,1548,17258.22,26.60,-1.00,-1.0,2376
3949,2138949,17100,564,1676,17191.19,26.51,-1.00,-1.0,2444
3952,2138952,17088,532,1356,17149.97,26.51,-1.00,-1.0,2368
3955,2138955,16888,232,1276,16937.72,26.55,-1.00,-1.0,2454
3957,2138957,16852,72,1296,16901.91,26.65,-1.00,-1.0,2376
3960,2138960,16940,544,1072,16982.60,26.51,-1.00,-1.0,2369
3965,2138965,16968,260,1572,17042.65,26.51,-1.00,-1.0,2437
3968,2138968,16828,-336,1356,16885.89,26.60,-1.00,-1.0,2373
3971,2138971,16960,-344,1292,17012.62,26.46,-1.00,-1.0,2456
3973,2138973,17092,616,1424,17162.28,26.55,-1.00,-1.0,2377
3976,2138976,17100,1108,1596,17210.02,26.46,-1.00,-1.0,2445
3979,2138979,17268,332,1608,17345.88,26.55,-1.00,-1.0,2352
3982,2138982,17324,-224,1260,17371.21,26.55,-1.00,-1.0,2455
3984,2138984,17188,60,1460,17250.00,26.55,-1.00,-1.0,2374
3989,2138989,16956,1384,1568,17084.50,26.46,-1.00,-1.0,2451
3992,2138992,16804,332,1140,16845.90,26.46,-1.00,-1.0,2352
3995,2138995,16868,-200,824,16889.30,26.65,-1.00,-1.0,2456
3997,2138997,16920,352,1212,16967.00,26.55,-1.00,-1.0,2374
4000,2139000,16952,1032,1724,17070.66,26.55,-1.00,-1.0,2445
4003,2139003,16968,276,1600,17045.50,26.46,-1.00,-1.0,2353
4005,2139005,17192,-436,1392,17253.77,26.55,-1.00,-1.0,2350
4008,2139008,17104,-304,1448,17167.88,26.51,-1.00,-1.0,2438
4011,2139011,17400,604,1680,17491.35,26.51,-1.00,-1.0,2423
4016,2139016,17012,-200,1600,17088.25,26.60,-1.00,-1.0,2447
4019,2139019,16848,-400,1600,16928.53,26.51,-1.00,-1.0,2366
4022,2139022,16940,392,1464,17007.66,26.55,-1.00,-1.0,2440
4024,2139024,16908,1040,1464,17003.10,26.51,-1.00,-1.0,2367
4027,2139027,16936,908,1392,17017.35,26.55,-1.00,-1.0,2439
4030,2139030,16872,16,1108,16908.35,26.60,-1.00,-1.0,2367
4033,2139033,16924,72,1060,16957.32,26.65,-1.00,-1.0,2438
4035,2139035,17064,468,1176,17110.88,26.60,-1.00,-1.0,2367
4040,2139040,17052,384,1388,17112.71,26.60,-1.00,-1.0,2441
4043,2139043,17060,36,1440,17120.70,26.51,-1.00,-1.0,2369
4046,2139046,17000,108,1436,17060.88,26.51,-1.00,-1.0,2359
4048,2139048,17044,348,1436,17107.93,26.65,-1.00,-1.0,2436
4051,2139051,16868,276,1704,16956.10,26.60,-1.00,-1.0,2368
4054,2139054,16868,-120,1736,16957.52,26.60,-1.00,-1.0,2433
4057,2139057,16892,-136,1552,16963.69,26.60,-1.00,-1.0,2366
4059,2139059,17020,616,1512,17098.13,26.51,-1.00,-1.0,2422
4062,2139062,16960,1364,1236,17059.60,26.51,-1.00,-1.0,2367
4067,2139067,16916,-196,1320,16968.55,26.60,-1.00,-1.0,2441
4070,2139070,17060,-560,1276,17116.82,26.60,-1.00,-1.0,2369
4073,2139073,17012,28,1408,17070.19,26.60,-1.00,-1.0,2431
4075,2139075,16948,444,1652,17034.11,26.51,-1.00,-1.0,2370
4078,2139078,17100,148,1460,17162.85,26.60,-1.00,-1.0,2434
4081,2139081,17112,-76,1416,17170.65,26.51,-1.00,-1.0,2369
4083,2139083,17172,436,1532,17245.71,26.51,-1.00,-1.0,2359
4086,2139086,17060,764,1552,17147.48,26.55,-1.00,-1.0,2439
4089,2139089,17004,72,1468,17067.40,26.55,-1.00,-1.0,2368
4094,2139094,16920,-92,1276,16968.29,26.55,-1.00,-1.0,2441
4097,2139097,16992,976,1400,17077.49,26.60,-1.00,-1.0,2355
4100,2139100,16976,932,1496,17067.26,26.55,-1.00,-1.0,2440
4102,2139102,16976,228,1488,17042.62,26.51,-1.00,-1.0,2369
4105,2139105,17080,-424,1508,17151.68,26.55,-1.00,-1.0,2434
4108,2139108,17196,20,1484,17259.93,26.51,-1.00,-1.0,2369
4111,2139111,17180,472,1480,17250.09,26.55,-1.00,-1.0,2433
4113,2139113,17104,460,1408,17168.02,26.51,-1.00,-1.0,2370
4118,2139118,16972,268,1344,17027.24,26.60,-1.00,-1.0,2452
4121,2139121,16892,324,1520,16963.34,26.51,-1.00,-1.0,2382
4124,2139124,16960,540,1452,17030.61,26.60,-1.00,-1.0,2359
4126,2139126,16840,560,1504,16916.30,26.55,-1.00,-1.0,2435
4129,2139129,16964,340,1316,17018.37,26.51,-1.00,-1.0,2368
4132,2139132,17060,12,1324,17111.30,26.60,-1.00,-1.0,2433
4135,2139135,17068,80,1388,17124.53,26.69,-1.00,-1.0,2368
4137,2139137,17196,808,1256,17260.73,26.55,-1.00,-1.0,2435
4140,2139140,16936,720,1400,17009.01,26.60,-1.00,-1.0,2371
4145,2139145,16964,-164,1232,17009.47,26.55,-1.00,-1.0,2443
4148,2139148,16956,152,1352,17010.49,26.46,-1.00,-1.0,2366
4151,2139151,16836,468,1636,16921.77,26.51,-1.00,-1.0,2439
4153,2139153,16860,236,1540,16931.83,26.55,-1.00,-1.0,2368
4156,2139156,16932,-32,1584,17005.96,26.51,-1.00,-1.0,2435
4159,2139159,17120,368,1680,17206.17,26.55,-1.00,-1.0,2367
4162,2139162,17132,676,1652,17224.73,26.60,-1.00,-1.0,2360
4164,2139164,17252,448,1664,17337.85,26.60,-1.00,-1.0,2442
4167,2139167,17160,-100,1692,17243.51,26.60,-1.00,-1.0,2381
4173,2139173,17000,576,1412,17068.26,26.51,-1.00,-1.0,2443
4176,2139176,17020,716,1548,17105.24,26.51,-1.00,-1.0,2371
4178,2139178,16880,192,1196,16923.41,26.55,-1.00,-1.0,2435
4181,2139181,16816,-216,1096,16853.06,26.60,-1.00,-1.0,2375
4184,2139184,16996,352,1416,17058.52,26.60,-1.00,-1.0,2435
4187,2139187,17000,780,1208,17060.71,26.51,-1.00,-1.0,2371
4189,2139189,17228,776,1416,17303.50,26.46,-1.00,-1.0,2436
4192,2139192,17140,152,1360,17194.54,26.51,-1.00,-1.0,2375
4197,2139197,17036,0,1468,17099.13,26.65,-1.00,-1.0,2440
4200,2139200,17100,452,1396,17162.84,26.65,-1.00,-1.0,2366
4202,2139202,17048,608,1452,17120.52,26.55,-1.00,-1.0,2360
4205,2139205,16944,224,1476,17009.64,26.51,-1.00,-1.0,2433
4208,2139208,17020,240,1472,17085.22,26.55,-1.00,-1.0,2368
4210,2139210,16956,268,1552,17028.99,26.60,-1.00,-1.0,2433
4213,2139213,17008,588,1456,17080.33,26.55,-1.00,-1.0,2367
4216,2139216,16956,592,1252,17012.46,26.51,-1.00,-1.0,2433
4219,2139219,16996,280,1152,17037.30,26.65,-1.00,-1.0,2368
4224,2139224,17148,196,1412,17207.15,26.46,-1.00,-1.0,2443
4226,2139226,17020,384,1492,17089.59,26.46,-1.00,-1.0,2374
4229,2139229,17004,560,1320,17064.35,26.55,-1.00,-1.0,2434
4232,2139232,16968,44,1576,17041.09,26.60,-1.00,-1.0,2371
4234,2139234,17028,-80,1448,17089.64,26.55,-1.00,-1.0,2361
4237,2139237,17020,312,1456,17085.01,26.51,-1.00,-1.0,2433
4240,2139240,16948,640,1484,17024.88,26.55,-1.00,-1.0,2356
4243,2139243,16884,156,1592,16959.61,26.51,-1.00,-1.0,2440
4245,2139245,17004,64,1312,17054.66,26.55,-1.00,-1.0,2354
4250,2139250,16956,800,1536,17044.21,26.55,-1.00,-1.0,2453
4253,2139253,16992,332,1580,17068.53,26.55,-1.00,-1.0,2383
4256,2139256,16988,-100,1396,17045.55,26.55,-1.00,-1.0,2435
4259,2139259,17088,-64,1468,17151.06,26.65,-1.00,-1.0,2370
4261,2139261,16988,356,1572,17064.29,26.55,-1.00,-1.0,2437
4264,2139264,17176,600,1452,17247.70,26.55,-1.00,-1.0,2382
4267,2139267,17140,264,1348,17194.95,26.55,-1.00,-1.0,2433
4270,2139270,17008,136,1372,17063.79,26.46,-1.00,-1.0,2369
4272,2139272,16976,380,1356,17034.31,26.55,-1.00,-1.0,2359
4277,2139277,16904,548,1416,16972.05,26.46,-1.00,-1.0,2431
4280,2139280,16836,184,1524,16905.84,26.55,-1.00,-1.0,2375
4283,2139283,16904,480,1616,16987.85,26.55,-1.00,-1.0,2434
4286,2139286,17032,532,1340,17092.91,26.55,-1.00,-1.0,2373
4288,2139288,17056,396,1536,17129.60,26.55,-1.00,-1.0,2436
4291,2139291,17084,60,1644,17163.02,26.55,-1.00,-1.0,2375
4294,2139294,17124,-20,1680,17206.22,26.55,-1.00,-1.0,2434
4297,2139297,17092,180,1444,17153.83,26.46,-1.00,-1.0,2370
4302,2139302,17116,304,1588,17192.20,26.55,-1.00,-1.0,2445
4304,2139304,16868,208,1576,16942.74,26.65,-1.00,-1.0,2370
4307,2139307,17028,344,1488,17096.35,26.55,-1.00,-1.0,2446
4310,2139310,16908,544,1540,16986.70,26.51,-1.00,-1.0,2374
4312,2139312,17008,540,1460,17079.09,26.46,-1.00,-1.0,2366
4315,2139315,16960,176,1648,17040.79,26.51,-1.00,-1.0,2433
4318,2139318,17000,252,1496,17067.56,26.55,-1.00,-1.0,2369
4321,2139321,17032,488,1620,17115.83,26.60,-1.00,-1.0,2439
4323,2139323,17104,608,1360,17168.75,26.51,-1.00,-1.0,2366
4328,2139328,17044,200,1340,17097.76,26.51,-1.00,-1.0,2442
4331,2139331,16996,120,1432,17056.64,26.60,-1.00,-1.0,2368
4334,2139334,16940,256,1404,17000.01,26.51,-1.00,-1.0,2432
4337,2139337,16832,228,1388,16890.67,26.51,-1.00,-1.0,2367
4339,2139339,17028,132,1280,17076.55,26.51,-1.00,-1.0,2434
4342,2139342,16936,176,1468,17000.41,26.51,-1.00,-1.0,2368
4345,2139345,17008,516,1564,17087.55,26.41,-1.00,-1.0,2432
4348,2139348,17072,528,1576,17152.72,26.60,-1.00,-1.0,2370
4350,2139350,17052,280,1504,17120.49,26.65,-1.00,-1.0,2360
4355,2139355,16976,144,1492,17042.05,26.60,-1.00,-1.0,2443
4358,2139358,16976,296,1476,17042.62,26.51,-1.00,-1.0,2368
4361,2139361,17032,520,1548,17110.11,26.46,-1.00,-1.0,2432
4364,2139364,16928,396,1220,16976.53,26.51,-1.00,-1.0,2367
4366,2139366,16976,152,1232,17021.32,26.55,-1.00,-1.0,2435
4369,2139369,17012,104,1448,17073.83,26.51,-1.00,-1.0,2368
4372,2139372,17068,216,1148,17107.93,26.55,-1.00,-1.0,2433
4375,2139375,16964,232,1452,17027.61,26.60,-1.00,-1.0,2367
4379,2139379,16920,140,1504,16987.29,26.55,-1.00,-1.0,2443
4382,2139382,16932,84,1572,17005.03,26.51,-1.00,-1.0,2367
4385,2139385,16932,228,1520,17001.62,26.65,-1.00,-1.0,2432
4388,2139388,16940,260,1516,17009.69,26.60,-1.00,-1.0,2367
4390,2139390,17024,380,1500,17094.18,26.65,-1.00,-1.0,2362
4393,2139393,17020,232,1548,17091.83,26.55,-1.00,-1.0,2433
4396,2139396,17132,232,1392,17190.02,26.51,-1.00,-1.0,2375
4399,2139399,17072,272,1588,17147.85,26.60,-1.00,-1.0,2444
4402,2139402,17092,480,1396,17155.63,26.55,-1.00,-1.0,2371
4407,2139407,16944,200,1216,16988.75,26.55,-1.00,-1.0,2443
4409,2139409,16992,220,1372,17048.72,26.65,-1.00,-1.0,2369
4412,2139412,16996,340,1528,17067.94,26.60,-1.00,-1.0,2449
4415,2139415,17060,392,1356,17118.29,26.55,-1.00,-1.0,2370
4418,2139418,17000,252,1324,17053.34,26.51,-1.00,-1.0,2439
4420,2139420,17060,156,1232,17105.14,26.55,-1.00,-1.0,2370
4423,2139423,17000,332,1256,17049.57,26.51,-1.00,-1.0,2448
4426,2139426,16964,500,1492,17036.82,26.55,-1.00,-1.0,2375
4429,2139429,17036,588,1468,17109.24,26.51,-1.00,-1.0,2361
4434,2139434,16968,264,1336,17022.56,26.60,-1.00,-1.0,2443
4436,2139436,16940,192,1468,17004.57,26.65,-1.00,-1.0,2368
4439,2139439,16992,216,1428,17053.27,26.60,-1.00,-1.0,2440
4442,2139442,17080,244,1480,17145.74,26.55,-1.00,-1.0,2375
4445,2139445,16980,244,1384,17038.06,26.51,-1.00,-1.0,2434
4447,2139447,17080,212,1396,17138.27,26.46,-1.00,-1.0,2368
4450,2139450,17056,308,1364,17113.23,26.60,-1.00,-1.0,2432
4453,2139453,16996,300,1512,17065.76,26.55,-1.00,-1.0,2367
4458,2139458,17000,320,1384,17059.25,26.51,-1.00,-1.0,2442
4460,2139460,17028,256,1320,17081.00,26.55,-1.00,-1.0,2371
4463,2139463,16920,332,1440,16984.41,26.55,-1.00,-1.0,2434
4466,2139466,17032,296,1640,17113.34,26.46,-1.00,-1.0,2367
4468,2139468,17000,384,1480,17068.62,26.55,-1.00,-1.0,2360
4471,2139471,16928,364,1472,16995.78,26.51,-1.00,-1.0,2436
4474,2139474,17016,328,1456,17081.33,26.55,-1.00,-1.0,2368
4477,2139477,17024,348,1356,17081.46,26.55,-1.00,-1.0,2441
4480,2139480,16984,304,1456,17049.01,26.51,-1.00,-1.0,2368
4485,2139485,16972,280,1356,17028.38,26.51,-1.00,-1.0,2445
4487,2139487,17168,272,1384,17225.84,26.51,-1.00,-1.0,2377
4490,2139490,16924,348,1504,16994.26,26.55,-1.00,-1.0,2441
4493,2139493,17032,336,1468,17098.45,26.51,-1.00,-1.0,2374
4496,2139496,17072,360,1384,17131.79,26.60,-1.00,-1.0,2445
4498,2139498,17000,296,1304,17052.51,26.51,-1.00,-1.0,2379
4501,2139501,17088,368,1464,17154.55,26.65,-1.00,-1.0,2360
4504,2139504,16980,452,1372,17041.33,26.55,-1.00,-1.0,2429
4507,2139507,17060,348,1488,17128.30,26.55,-1.00,-1.0,2367
4512,2139512,17000,88,1344,17053.27,26.60,-1.00,-1.0,2445
4514,2139514,16980,256,1244,17027.43,26.37,-1.00,-1.0,2375
4517,2139517,17036,148,1540,17106.10,26.55,-1.00,-1.0,2435
4520,2139520,17148,200,1272,17196.28,26.51,-1.00,-1.0,2361
4523,2139523,17080,336,1472,17146.61,26.46,-1.00,-1.0,2444
4525,2139525,16896,320,1552,16970.15,26.55,-1.00,-1.0,2378
4528,2139528,16984,248,1572,17058.40,26.46,-1.00,-1.0,2440
4531,2139531,16960,352,1520,17031.62,26.51,-1.00,-1.0,2370
4536,2139536,16992,112,1496,17058.10,26.60,-1.00,-1.0,2449
4538,2139538,16984,180,1496,17050.71,26.60,-1.00,-1.0,2368
4541,2139541,16864,160,1492,16930.63,26.55,-1.00,-1.0,2376
4544,2139544,17032,268,1460,17096.56,26.46,-1.00,-1.0,2432
4547,2139547,16892,296,1452,16956.88,26.51,-1.00,-1.0,2373
4549,2139549,17040,380,1528,17112.59,26.51,-1.00,-1.0,2461
4552,2139552,17044,348,1464,17110.30,26.51,-1.00,-1.0,2367
4555,2139555,16948,528,1468,17019.65,26.51,-1.00,-1.0,2437
4558,2139558,17072,352,1444,17136.58,26.51,-1.00,-1.0,2364
4563,2139563,16956,408,1424,17020.58,26.51,-1.00,-1.0,2445
4565,2139565,16980,232,1504,17048.06,26.46,-1.00,-1.0,2353
4568,2139568,16916,172,1336,16969.55,26.51,-1.00,-1.0,2438
4571,2139571,16976,284,1424,17037.99,26.55,-1.00,-1.0,2366
4574,2139574,17008,196,1304,17059.04,26.60,-1.00,-1.0,2430
4576,2139576,16936,280,1380,16994.44,26.55,-1.00,-1.0,2373
4579,2139579,17104,292,1372,17161.42,26.60,-1.00,-1.0,2361
4582,2139582,16964,412,1456,17031.35,26.55,-1.00,-1.0,2441
4585,2139585,17104,392,1408,17166.33,26.60,-1.00,-1.0,2371
4590,2139590,17020,356,1384,17079.89,26.60,-1.00,-1.0,2446
4592,2139592,16716,680,604,16740.72,26.51,-1.00,-1.0,2367
4595,2139595,22072,-1052,496,22102.62,26.55,-1.00,-1.0,2453
4598,2139598,-308,1620,-12920,13024.81,26.60,-1.00,-1.0,2372
4601,2139601,22904,3864,1052,23251.46,26.55,-1.00,-1.0,2441
4603,2139603,4600,13200,2400,14183.09,26.55,-1.00,-1.0,2367
4606,2139606,12028,-16056,11976,23364.34,26.46,-1.00,-1.0,2444
4609,2139609,29956,-25116,-2320,39160.67,26.55,-1.00,-1.0,2371
4614,2139614,25412,18652,-3024,31667.20,26.55,-1.00,-1.0,2446
4616,2139616,876,-1708,-3028,3585.17,26.65,-1.00,-1.0,2365
4619,2139619,17844,-3392,-528,18171.21,26.55,-1.00,-1.0,2452
4622,2139622,13172,2428,5468,14467.06,26.55,-1.00,-1.0,2359
4625,2139625,17732,10840,-3560,21085.61,26.55,-1.00,-1.0,2438
4627,2139627,13396,1032,2448,13656.89,26.65,-1.00,-1.0,2368
4630,2139630,14972,-4288,6720,16961.90,26.55,-1.00,-1.0,2350
4633,2139633,14812,-6908,3148,16644.09,26.65,-1.00,-1.0,2437
4636,2139636,21428,2184,2268,21658.09,26.55,-1.00,-1.0,2375
4641,2139641,12896,24,3292,13309.57,26.46,-1.00,-1.0,2446
4643,2139643,22312,-872,1332,22368.73,26.51,-1.00,-1.0,2350
4646,2139646,14872,-1748,2636,15204.62,26.55,-1.00,-1.0,2438
4649,2139649,17288,-160,356,17292.40,26.69,-1.00,-1.0,2365
4652,2139652,15216,-6696,108,16624.52,26.55,-1.00,-1.0,2439
4654,2139654,19676,9812,-664,21996.85,26.60,-1.00,-1.0,2364
4657,2139657,15924,9496,1304,18586.24,26.55,-1.00,-1.0,2438
4660,2139660,19592,-1736,404,19672.91,26.60,-1.00,-1.0,2366
4665,2139665,17844,416,1972,17957.46,26.60,-1.00,-1.0,2445
4668,2139668,16260,7044,2072,17840.93,26.51,-1.00,-1.0,2365
4670,2139670,17124,-3804,1792,17632.73,26.60,-1.00,-1.0,2437
4673,2139673,16748,-5140,-612,17529.68,26.51,-1.00,-1.0,2369
4676,2139676,19196,2256,-304,19330.50,26.51,-1.00,-1.0,2435
4679,2139679,14364,2896,2000,14788.89,26.51,-1.00,-1.0,2364
4681,2139681,16916,-1696,2168,17138.49,26.51,-1.00,-1.0,2359
4684,2139684,16784,-2952,364,17045.51,26.55,-1.00,-1.0,2440
4687,2139687,17480,-1460,192,17541.92,26.60,-1.00,-1.0,2353
4692,2139692,17372,112,2916,17615.39,26.51,-1.00,-1.0,2452
4694,2139694,15912,288,1688,16003.88,26.55,-1.00,-1.0,2365
4697,2139697,19256,2092,1620,19436.93,26.60,-1.00,-1.0,2452
4700,2139700,16428,4408,1988,17124.89,26.55,-1.00,-1.0,2366
4703,2139703,17976,-304,248,17980.28,26.60,-1.00,-1.0,2444
4705,2139705,16156,-2920,2076,16548.49,26.46,-1.00,-1.0,2365
4708,2139708,17648,-324,1572,17720.84,26.60,-1.00,-1.0,2457
4711,2139711,18016,1092,1156,18086.04,26.65,-1.00,-1.0,2366
4716,2139716,17564,120,1408,17620.75,26.55,-1.00,-1.0,2445
4719,2139719,15824,-920,2196,16002.12,26.55,-1.00,-1.0,2371
4722,2139722,19040,20,-316,19042.63,26.46,-1.00,-1.0,2436
4724,2139724,16336,1296,1360,16443.66,26.55,-1.00,-1.0,2366
4727,2139727,17236,-344,2116,17368.81,26.51,-1.00,-1.0,2367
4730,2139730,16904,-2928,688,17169.50,26.60,-1.00,-1.0,2452
4732,2139732,16812,1056,616,16856.39,26.51,-1.00,-1.0,2374
4735,2139735,17192,4420,1756,17837.73,26.60,-1.00,-1.0,2450
4738,2139738,17216,4716,2732,18058.10,26.51,-1.00,-1.0,2366
4743,2139743,17636,-5292,512,18419.99,26.60,-1.00,-1.0,2451
4746,2139746,16180,1452,1820,16346.65,26.51,-1.00,-1.0,2372
4748,2139748,18332,4928,2304,19122.13,26.51,-1.00,-1.0,2435
4751,2139751,15504,1352,2328,15735.99,26.60,-1.00,-1.0,2373
4754,2139754,18464,-5708,1004,19352.22,26.55,-1.00,-1.0,2437
4757,2139757,16476,-220,1032,16509.75,26.60,-1.00,-1.0,2363
4759,2139759,18116,5536,2060,19054.67,26.51,-1.00,-1.0,2438
4762,2139762,16604,1660,1376,16743.41,26.51,-1.00,-1.0,2379
4767,2139767,15584,-3980,888,16108.69,26.60,-1.00,-1.0,2461
4770,2139770,17724,4752,1540,18414.49,26.60,-1.00,-1.0,2373
4772,2139772,15632,5732,2056,16776.24,26.60,-1.00,-1.0,2364
4775,2139775,19236,-1752,236,19317.06,26.46,-1.00,-1.0,2436
4778,2139778,16296,-2540,704,16507.78,26.55,-1.00,-1.0,2367
4781,2139781,17188,-80,1884,17291.13,26.55,-1.00,-1.0,2431
4783,2139783,16912,1216,1564,17027.64,26.51,-1.00,-1.0,2372
4786,2139786,17580,1236,2328,17776.49,26.55,-1.00,-1.0,2437
4789,2139789,17356,380,2712,17570.72,26.65,-1.00,-1.0,2366
4794,2139794,17400,-1592,996,17501.04,26.51,-1.00,-1.0,2446
4796,2139796,16732,468,2256,16889.89,26.51,-1.00,-1.0,2363
4799,2139799,16660,2352,1584,16899.60,26.51,-1.00,-1.0,2438
4802,2139802,17304,1576,1312,17425.08,26.51,-1.00,-1.0,2365
4805,2139805,17124,-636,932,17161.13,26.51,-1.00,-1.0,2439
4807,2139807,16648,-1620,1108,16763.29,26.55,-1.00,-1.0,2365
4810,2139810,16896,228,960,16924.79,26.51,-1.00,-1.0,2439
4813,2139813,17032,2444,1260,17252.53,26.51,-1.00,-1.0,2364
4816,2139816,16900,3200,1956,17311.15,26.51,-1.00,-1.0,2360
4821,2139821,17308,-3096,412,17587.55,26.46,-1.00,-1.0,2444
4824,2139824,16616,-764,1560,16706.55,26.65,-1.00,-1.0,2365
4826,2139826,16904,2944,2376,17322.17,26.60,-1.00,-1.0,2439
4829,2139829,17144,1596,1364,17272.07,26.55,-1.00,-1.0,2364
4832,2139832,17056,-988,1400,17141.86,26.55,-1.00,-1.0,2425
4835,2139835,16656,-1716,1636,16823.90,26.55,-1.00,-1.0,2366
4837,2139837,17344,748,1792,17452.37,26.55,-1.00,-1.0,2437
4840,2139840,17096,1928,1404,17261.56,26.55,-1.00,-1.0,2367
4845,2139845,17200,-1904,1328,17355.94,26.65,-1.00,-1.0,2461
4848,2139848,16892,-64,1636,16971.16,26.55,-1.00,-1.0,2373
4851,2139851,17168,2264,1552,17386.05,26.65,-1.00,-1.0,2448
4853,2139853,17052,24,1480,17116.12,26.51,-1.00,-1.0,2365
4856,2139856,16852,-1596,1180,16968.49,26.65,-1.00,-1.0,2446
4859,2139859,16968,-132,1120,17005.44,26.65,-1.00,-1.0,2372
4862,2139862,16984,2516,1220,17212.64,26.55,-1.00,-1.0,2448
4864,2139864,17056,1712,1424,17200.75,26.51,-1.00,-1.0,2368
4867,2139867,17200,556,1540,17277.75,26.60,-1.00,-1.0,2359
4872,2139872,17000,64,1348,17053.48,26.51,-1.00,-1.0,2445
4875,2139875,17188,420,1804,17287.51,26.51,-1.00,-1.0,2366
4877,2139877,16948,-128,1560,17020.12,26.51,-1.00,-1.0,2437
4880,2139880,17192,-824,1252,17257.21,26.51,-1.00,-1.0,2426
4883,2139883,17340,-252,1264,17387.83,26.51,-1.00,-1.0,2431
4886,2139886,16976,484,1616,17059.61,26.55,-1.00,-1.0,2377
4889,2139889,17020,560,1764,17120.33,26.60,-1.00,-1.0,2428
4891,2139891,16888,-304,1252,16937.07,26.55,-1.00,-1.0,2380
4896,2139896,16912,-588,1408,16980.69,26.65,-1.00,-1.0,2451
4899,2139899,16868,1116,1636,16983.86,26.46,-1.00,-1.0,2382
4902,2139902,16820,1428,1552,16951.71,26.51,-1.00,-1.0,2435
4905,2139905,17096,756,1568,17184.39,26.55,-1.00,-1.0,2374
4907,2139907,17152,860,1828,17270.56,26.60,-1.00,-1.0,2360
4910,2139910,17184,864,1640,17283.69,26.51,-1.00,-1.0,2433
4913,2139913,16968,184,1496,17034.81,26.51,-1.00,-1.0,2369
4915,2139915,17004,-364,1404,17065.75,26.60,-1.00,-1.0,2433
4918,2139918,16912,-28,1268,16959.49,26.51,-1.00,-1.0,2369
4923,2139923,17056,300,1120,17095.37,26.65,-1.00,-1.0,2452
4926,2139926,16876,-200,1320,16928.73,26.46,-1.00,-1.0,2375
4929,2139929,16708,-544,1336,16770.15,26.41,-1.00,-1.0,2449
4931,2139931,16932,96,1412,16991.04,26.65,-1.00,-1.0,2375
4934,2139934,17160,900,1548,17253.17,26.51,-1.00,-1.0,2443
4937,2139937,17228,1120,1600,17338.35,26.46,-1.00,-1.0,2375
4940,2139940,17140,220,1648,17220.45,26.60,-1.00,-1.0,2444
4942,2139942,17316,-364,1112,17355.49,26.55,-1.00,-1.0,2379
4947,2139947,17080,1596,1700,17238.43,26.55,-1.00,-1.0,2443
4950,2139950,16840,1224,1380,16940.72,26.55,-1.00,-1.0,2367
4953,2139953,16736,292,1056,16771.82,26.51,-1.00,-1.0,2363
4955,2139955,16784,-440,804,16809.01,26.60,-1.00,-1.0,2435
4958,2139958,16848,744,1480,16929.24,26.51,-1.00,-1.0,2381
4961,2139961,17036,956,1508,17129.31,26.51,-1.00,-1.0,2433
4964,2139964,17024,172,1376,17080.38,26.60,-1.00,-1.0,2372
4966,2139966,17052,-604,1444,17123.69,26.51,-1.00,-1.0,2441
4969,2139969,17156,120,1644,17235.01,26.60,-1.00,-1.0,2356
4974,2139974,17272,176,1636,17350.20,26.69,-1.00,-1.0,2456
4977,2139977,17192,-284,1780,17286.23,26.46,-1.00,-1.0,2374
4980,2139980,16860,-112,1608,16936.88,26.51,-1.00,-1.0,2446
4982,2139982,16940,864,1540,17031.79,26.60,-1.00,-1.0,2372
4985,2139985,16960,1272,1320,17058.78,26.60,-1.00,-1.0,2443
4988,2139988,16852,840,1332,16925.42,26.51,-1.00,-1.0,2373
4990,2139990,16764,188,1256,16812.04,26.60,-1.00,-1.0,2367
4993,2139993,16992,-56,1196,17034.13,26.60,-1.00,-1.0,2434
4996,2139996,17008,240,1352,17063.34,26.51,-1.00,-1.0,2367
5002,2140002,17188,248,1608,17264.83,26.51,-1.00,-1.0,2467
5004,2140004,17092,196,1740,17181.46,26.46,-1.00,-1.0,2366
5007,2140007,17052,220,1688,17136.76,26.60,-1.00,-1.0,2444
5010,2140010,17056,180,1644,17135.99,26.60,-1.00,-1.0,2376
5013,2140013,16900,60,1784,16994.01,26.60,-1.00,-1.0,2435
5015,2140015,16900,68,1612,16976.84,26.51,-1.00,-1.0,2367
5018,2140018,17116,612,1312,17177.12,26.51,-1.00,-1.0,2442
5021,2140021,17080,1304,1412,17187.80,26.51,-1.00,-1.0,2368
5026,2140026,16876,696,1448,16952.30,26.60,-1.00,-1.0,2450
5029,2140029,16892,-224,1340,16946.55,26.60,-1.00,-1.0,2375
5031,2140031,16900,-276,1376,16958.17,26.60,-1.00,-1.0,2360
5034,2140034,16940,352,1616,17020.54,26.55,-1.00,-1.0,2421
5037,2140037,17004,392,1656,17088.94,26.60,-1.00,-1.0,2369
5039,2140039,17180,84,1344,17232.70,26.55,-1.00,-1.0,2433
5042,2140042,17200,332,1412,17261.05,26.60,-1.00,-1.0,2369
5045,2140045,17204,708,1424,17277.35,26.46,-1.00,-1.0,2433
5048,2140048,16968,528,1488,17041.30,26.60,-1.00,-1.0,2371
5053,2140053,16876,-456,1372,16937.82,26.51,-1.00,-1.0,2443
5055,2140055,16896,612,1408,16965.61,26.60,-1.00,-1.0,2373
5058,2140058,17008,1240,1576,17125.81,26.51,-1.00,-1.0,2447
5061,2140061,16952,788,1736,17058.87,26.51,-1.00,-1.0,2375
5064,2140064,16924,-260,1424,16985.79,26.55,-1.00,-1.0,2442
5066,2140066,17020,-136,1432,17080.68,26.51,-1.00,-1.0,2368
5069,2140069,17104,320,1520,17174.39,26.55,-1.00,-1.0,2360
5072,2140072,17288,268,1468,17352.29,26.55,-1.00,-1.0,2442
5074,2140074,17160,64,1452,17221.44,26.55,-1.00,-1.0,2376
5079,2140079,16924,448,1680,17013.08,26.65,-1.00,-1.0,2448
5082,2140082,16924,576,1644,17013.41,26.60,-1.00,-1.0,2374
5085,2140085,16832,444,1584,16912.20,26.55,-1.00,-1.0,2434
5088,2140088,16988,360,1288,17040.56,26.60,-1.00,-1.0,2367
5090,2140090,17072,8,1332,17123.89,26.55,-1.00,-1.0,2444
5093,2140093,17076,200,1368,17131.88,26.60,-1.00,-1.0,2376
5096,2140096,17064,672,1448,17138.51,26.55,-1.00,-1.0,2421
5098,2140098,17084,820,1356,17157.34,26.51,-1.00,-1.0,2367
5103,2140103,17004,68,1356,17058.12,26.60,-1.00,-1.0,2442
5106,2140106,16940,252,1476,17006.05,26.60,-1.00,-1.0,2367
5109,2140109,17064,428,1444,17130.34,26.60,-1.00,-1.0,2367
5112,2140112,16844,184,1384,16901.76,26.55,-1.00,-1.0,2447
5114,2140114,16780,-44,1636,16859.62,26.60,-1.00,-1.0,2373
5117,2140117,16976,324,1616,17055.82,26.46,-1.00,-1.0,2442
5120,2140120,17128,736,1748,17232.69,26.60,-1.00,-1.0,2374
5123,2140123,17188,628,1696,17282.89,26.55,-1.00,-1.0,2443
5125,2140125,17148,-36,1540,17217.05,26.51,-1.00,-1.0,2372
5130,2140130,17152,316,1524,17222.47,26.51,-1.00,-1.0,2443
5133,2140133,17000,668,1376,17068.67,26.60,-1.00,-1.0,2367
5136,2140136,16848,344,1236,16896.78,26.46,-1.00,-1.0,2440
5138,2140138,16832,-20,1208,16875.30,26.51,-1.00,-1.0,2367
5141,2140141,16688,-52,1176,16729.46,26.65,-1.00,-1.0,2436
5144,2140144,16900,556,1292,16958.43,26.51,-1.00,-1.0,2367
5147,2140147,16968,948,1280,17042.60,26.55,-1.00,-1.0,2360
5149,2140149,17132,660,1352,17197.93,26.46,-1.00,-1.0,2444
5152,2140152,17120,-32,1456,17181.83,26.55,-1.00,-1.0,2374
5157,2140157,17132,56,1352,17185.36,26.55,-1.00,-1.0,2442
5160,2140160,17028,480,1528,17103.16,26.60,-1.00,-1.0,2367
5163,2140163,17020,524,1604,17103.44,26.46,-1.00,-1.0,2440
5165,2140165,17048,264,1572,17122.36,26.51,-1.00,-1.0,2368
5168,2140168,16892,236,1352,16947.66,26.46,-1.00,-1.0,2439
5171,2140171,16976,484,1508,17049.72,26.60,-1.00,-1.0,2367
5174,2140174,16944,552,1396,17010.37,26.46,-1.00,-1.0,2439
5176,2140176,16916,572,1444,16987.15,26.51,-1.00,-1.0,2368
5179,2140179,16888,108,1404,16946.61,26.65,-1.00,-1.0,2372
5184,2140184,16992,8,1432,17052.24,26.46,-1.00,-1.0,2449
5187,2140187,17024,704,1480,17102.71,26.51,-1.00,-1.0,2367
5190,2140190,17020,560,1668,17110.71,26.55,-1.00,-1.0,2440
5192,2140192,17096,204,1436,17157.42,26.55,-1.00,-1.0,2368
5195,2140195,17072,108,1392,17129.00,26.55,-1.00,-1.0,2446
5198,2140198,17096,528,1432,17163.99,26.60,-1.00,-1.0,2367
5201,2140201,16988,388,1516,17059.92,26.55,-1.00,-1.0,2443
5203,2140203,17024,120,1672,17106.33,26.55,-1.00,-1.0,2368
5208,2140208,17044,660,1640,17135.44,26.60,-1.00,-1.0,2451
5211,2140211,17024,712,1684,17121.90,26.55,-1.00,-1.0,2375
5214,2140214,17024,128,1616,17101.01,26.51,-1.00,-1.0,2437
5217,2140217,17036,-148,1428,17096.38,26.55,-1.00,-1.0,2372
5219,2140219,17076,188,1476,17140.70,26.60,-1.00,-1.0,2364
5222,2140222,17172,488,1576,17251.07,26.60,-1.00,-1.0,2433
5225,2140225,17224,560,1424,17291.83,26.60,-1.00,-1.0,2369
5227,2140227,17064,220,1412,17123.73,26.51,-1.00,-1.0,2434
5230,2140230,17020,384,1296,17073.59,26.60,-1.00,-1.0,2371
5235,2140235,16876,620,1444,16949.01,26.51,-1.00,-1.0,2440
5238,2140238,16880,308,1308,16933.40,26.60,-1.00,-1.0,2368
5241,2140241,16884,368,1408,16946.60,26.55,-1.00,-1.0,2432
5243,2140243,16940,384,1504,17010.97,26.60,-1.00,-1.0,2371
5246,2140246,17084,488,1488,17155.62,26.60,-1.00,-1.0,2434
5249,2140249,17088,180,1392,17145.55,26.60,-1.00,-1.0,2370
5252,2140252,17124,208,1344,17177.92,26.51,-1.00,-1.0,2434
5254,2140254,16992,-144,1560,17064.07,26.60,-1.00,-1.0,2369
5257,2140257,17152,64,1520,17219.34,26.51,-1.00,-1.0,2362
5263,2140263,16964,208,1508,17032.16,26.51,-1.00,-1.0,2442
5265,2140265,16904,160,1520,16972.96,26.55,-1.00,-1.0,2371
5268,2140268,16920,444,1564,16997.93,26.41,-1.00,-1.0,2442
5271,2140271,16868,528,1560,16948.21,26.51,-1.00,-1.0,2375
5274,2140274,16992,208,1548,17063.63,26.60,-1.00,-1.0,2442
5276,2140276,17068,44,1496,17133.49,26.60,-1.00,-1.0,2368
5279,2140279,16976,152,1480,17041.07,26.60,-1.00,-1.0,2443
5282,2140282,16976,508,1560,17055.09,26.60,-1.00,-1.0,2377
5287,2140287,17124,280,1364,17180.52,26.46,-1.00,-1.0,2448
5289,2140289,16932,108,1476,16996.55,26.65,-1.00,-1.0,2366
5292,2140292,16952,120,1368,17007.53,26.55,-1.00,-1.0,2435
5295,2140295,16984,92,1328,17036.09,26.46,-1.00,-1.0,2368
5297,2140297,17032,36,1404,17089.81,26.55,-1.00,-1.0,2361
5300,2140300,17008,116,1296,17057.70,26.60,-1.00,-1.0,2446
5303,2140303,16976,220,1272,17025.01,26.55,-1.00,-1.0,2368
5306,2140306,17060,532,1616,17144.62,26.60,-1.00,-1.0,2439
5308,2140308,17044,504,1600,17126.35,26.55,-1.00,-1.0,2367
5313,2140313,16944,156,1360,16999.21,26.55,-1.00,-1.0,2443
5316,2140316,16920,276,1400,16980.06,26.55,-1.00,-1.0,2368
5319,2140319,17024,512,1608,17107.44,26.55,-1.00,-1.0,2433
5322,2140322,17036,476,1500,17108.53,26.55,-1.00,-1.0,2367
5324,2140324,17092,392,1460,17158.72,26.55,-1.00,-1.0,2436
5327,2140327,17124,124,1328,17175.87,26.55,-1.00,-1.0,2368
5330,2140330,17132,124,1204,17174.70,26.55,-1.00,-1.0,2437
5333,2140333,17068,232,1396,17126.57,26.55,-1.00,-1.0,2367
5335,2140335,16992,228,1500,17059.60,26.55,-1.00,-1.0,2347
5340,2140340,17008,164,1584,17082.39,26.46,-1.00,-1.0,2443
5343,2140343,17016,300,1444,17079.79,26.46,-1.00,-1.0,2367
5346,2140346,16944,364,1624,17025.54,26.46,-1.00,-1.0,2432
5349,2140349,16964,332,1624,17044.79,26.46,-1.00,-1.0,2368
5351,2140351,17040,412,1392,17101.72,26.55,-1.00,-1.0,2435
5354,2140354,16972,344,1472,17039.19,26.55,-1.00,-1.0,2356
5357,2140357,17060,332,1600,17138.08,26.55,-1.00,-1.0,2436
5360,2140360,17056,472,1408,17120.53,26.65,-1.00,-1.0,2371
5365,2140365,16960,440,1420,17025.03,26.51,-1.00,-1.0,2442
5367,2140367,16984,324,1288,17035.85,26.60,-1.00,-1.0,2369
5370,2140370,16960,172,1512,17028.13,26.55,-1.00,-1.0,2449
5373,2140373,16988,240,1508,17056.49,26.60,-1.00,-1.0,2378
5375,2140375,17008,244,1316,17060.58,26.65,-1.00,-1.0,2366
5378,2140378,17004,192,1452,17066.96,26.65,-1.00,-1.0,2433
5381,2140381,17088,220,1460,17151.67,26.51,-1.00,-1.0,2371
5384,2140384,17000,560,1344,17062.24,26.55,-1.00,-1.0,2442
5387,2140387,17020,488,1452,17088.79,26.60,-1.00,-1.0,2368
5391,2140391,17016,512,1560,17095.03,26.60,-1.00,-1.0,2442
5394,2140394,16860,384,1364,16919.44,26.51,-1.00,-1.0,2367
5397,2140397,16996,308,1524,17066.97,26.51,-1.00,-1.0,2432
5400,2140400,17060,324,1584,17136.44,26.51,-1.00,-1.0,2367
5402,2140402,17060,200,1440,17121.83,26.60,-1.00,-1.0,2438
5405,2140405,17020,132,1384,17076.69,26.51,-1.00,-1.0,2368
5408,2140408,17052,192,1432,17113.10,26.51,-1.00,-1.0,2363
5411,2140411,16948,188,1484,17013.88,26.55,-1.00,-1.0,2448
5414,2140414,16980,108,1436,17040.96,26.55,-1.00,-1.0,2373
5418,2140418,16972,292,1324,17026.07,26.55,-1.00,-1.0,2443
5421,2140421,17060,292,1400,17119.84,26.46,-1.00,-1.0,2374
5424,2140424,16924,192,1252,16971.33,26.51,-1.00,-1.0,2434
5427,2140427,17000,344,1500,17069.52,26.55,-1.00,-1.0,2373
5429,2140429,17024,428,1460,17091.85,26.51,-1.00,-1.0,2433
5432,2140432,17004,472,1536,17079.76,26.55,-1.00,-1.0,2375
5435,2140435,17040,244,1444,17102.81,26.60,-1.00,-1.0,2434
5438,2140438,16956,240,1480,17022.16,26.65,-1.00,-1.0,2371
5442,2140442,17016,264,1464,17080.90,26.55,-1.00,-1.0,2448
5445,2140445,17000,220,1448,17062.97,26.55,-1.00,-1.0,2370
5448,2140448,17024,240,1372,17080.88,26.60,-1.00,-1.0,2362
5450,2140450,17032,324,1464,17097.87,26.60,-1.00,-1.0,2435
5453,2140453,17028,268,1516,17097.45,26.51,-1.00,-1.0,2367
5456,2140456,17000,168,1468,17064.09,26.60,-1.00,-1.0,2433
5459,2140459,17004,276,1380,17062.14,26.60,-1.00,-1.0,2368
5462,2140462,17048,312,1424,17110.21,26.51,-1.00,-1.0,2433
5465,2140465,17024,500,1376,17086.84,26.55,-1.00,-1.0,2369
5470,2140470,17020,268,1336,17074.46,26.55,-1.00,-1.0,2445
5472,2140472,16956,264,1548,17028.56,26.65,-1.00,-1.0,2373
5475,2140475,16996,228,1312,17048.09,26.60,-1.00,-1.0,2443
5478,2140478,17040,268,1488,17106.95,26.55,-1.00,-1.0,2376
5481,2140481,17036,308,1420,17097.85,26.60,-1.00,-1.0,2447
5483,2140483,17068,392,1560,17143.62,26.55,-1.00,-1.0,2368
5486,2140486,17048,340,1668,17132.78,26.55,-1.00,-1.0,2420
5489,2140489,16992,368,1592,17070.38,26.60,-1.00,-1.0,2438
5492,2140492,16972,196,1440,17034.11,26.51,-1.00,-1.0,2362
5497,2140497,16956,132,1464,17019.60,26.60,-1.00,-1.0,2448
5499,2140499,16968,232,1504,17036.11,26.60,-1.00,-1.0,2375
5502,2140502,16996,216,1392,17054.28,26.60,-1.00,-1.0,2434
5505,2140505,17036,320,1520,17106.67,26.60,-1.00,-1.0,2371
5508,2140508,17108,348,1360,17165.50,26.51,-1.00,-1.0,2442
5510,2140510,17044,424,1468,17112.36,26.51,-1.00,-1.0,2375
5513,2140513,16928,344,1460,16994.33,26.51,-1.00,-1.0,2433
5516,2140516,16972,356,1476,17039.78,26.55,-1.00,-1.0,2355
5521,2140521,13608,600,-1376,13690.55,26.55,-1.00,-1.0,2448
5523,2140523,23732,1964,-24856,34422.17,26.46,-1.00,-1.0,2367
5526,2140526,6836,2616,-4904,8810.42,26.51,-1.00,-1.0,2444
5529,2140529,26480,4192,-876,26824.07,26.55,-1.00,-1.0,2368
5532,2140532,4580,10720,-3064,12053.34,26.51,-1.00,-1.0,2363
5534,2140534,13036,-15904,9508,22655.61,26.51,-1.00,-1.0,2420
5537,2140537,24472,-20404,992,31877.67,26.51,-1.00,-1.0,2382
5540,2140540,7952,15540,9200,19732.36,26.60,-1.00,-1.0,2436
5543,2140543,30696,10776,832,32543.18,26.60,-1.00,-1.0,2367
5548,2140548,30276,-6400,-2732,31065.41,26.60,-1.00,-1.0,2443
5550,2140550,8896,780,3912,9749.41,26.51,-1.00,-1.0,2355
5553,2140553,22096,9996,-2928,24427.98,26.55,-1.00,-1.0,2434
5556,2140556,9968,2932,1600,10512.74,26.51,-1.00,-1.0,2368
5559,2140559,24628,-5092,764,25160.50,26.51,-1.00,-1.0,2434
5561,2140561,13352,-6104,2076,14827.15,26.60,-1.00,-1.0,2375
5564,2140564,22424,2932,2320,22733.56,26.55,-1.00,-1.0,2434
5567,2140567,13752,3920,2280,14480.41,26.60,-1.00,-1.0,2355
5572,2140572,18756,-2488,-532,18927.78,26.51,-1.00,-1.0,2451
5575,2140575,17080,-3420,-236,17420.63,26.51,-1.00,-1.0,2370
5577,2140577,17216,448,1120,17258.21,26.60,-1.00,-1.0,2444
5580,2140580,16072,-2804,2256,16470.01,26.51,-1.00,-1.0,2374
5583,2140583,18208,8252,320,19993.23,26.51,-1.00,-1.0,2359
5585,2140585,17668,4928,1024,18370.96,26.55,-1.00,-1.0,2435
5588,2140588,18916,-3264,268,19197.41,26.60,-1.00,-1.0,2370
5591,2140591,15852,-5124,3252,16974.00,26.65,-1.00,-1.0,2433
5594,2140594,17772,6344,2644,19054.69,26.46,-1.00,-1.0,2373
5599,2140599,17772,-4340,1236,18335.96,26.65,-1.00,-1.0,2450
5601,2140601,15648,-4288,2080,16357.67,26.55,-1.00,-1.0,2368
5604,2140604,19576,2800,460,19780.58,26.51,-1.00,-1.0,2436
5607,2140607,14616,5136,2268,15657.26,26.55,-1.00,-1.0,2371
5610,2140610,17244,-2084,1936,17477.03,26.51,-1.00,-1.0,2441
5612,2140612,16736,-4896,1596,17510.33,26.55,-1.00,-1.0,2368
5615,2140615,16808,-1480,448,16878.98,26.60,-1.00,-1.0,2437
5618,2140618,16092,2688,1632,16396.38,26.55,-1.00,-1.0,2367
5623,2140623,16024,632,1704,16126.74,26.51,-1.00,-1.0,2445
5625,2140625,18752,444,1276,18800.61,26.55,-1.00,-1.0,2368
5628,2140628,17004,2688,1768,17305.70,26.51,-1.00,-1.0,2368
5631,2140631,17740,172,496,17747.77,26.41,-1.00,-1.0,2437
5633,2140633,16320,-1488,2112,16523.23,26.51,-1.00,-1.0,2367
5636,2140636,15368,-656,1396,15445.21,26.55,-1.00,-1.0,2445
5639,2140639,17912,380,832,17935.34,26.51,-1.00,-1.0,2367
5642,2140642,16076,2200,1704,16315.07,26.55,-1.00,-1.0,2435
5645,2140645,16900,-128,2192,17042.04,26.51,-1.00,-1.0,2374
5650,2140650,18892,-292,-156,18894.90,26.60,-1.00,-1.0,2446
5652,2140652,16500,1068,568,16544.28,26.60,-1.00,-1.0,2373
5655,2140655,17296,-356,1868,17400.22,26.55,-1.00,-1.0,2444
5658,2140658,17108,-2356,1224,17312.79,26.51,-1.00,-1.0,2374
5661,2140661,16820,1176,692,16875.26,26.55,-1.00,-1.0,2450
5663,2140663,17488,3832,1612,17975.34,26.55,-1.00,-1.0,2376
5666,2140666,16848,3812,2648,17475.65,26.65,-1.00,-1.0,2442
5669,2140669,16340,-2612,572,16557.33,26.55,-1.00,-1.0,2374
5672,2140672,16936,-3056,844,17230.19,26.55,-1.00,-1.0,2367
5677,2140677,17792,4224,2116,18408.55,26.51,-1.00,-1.0,2442
5680,2140680,15936,-1148,2160,16122.64,26.60,-1.00,-1.0,2369
5683,2140683,18204,-4384,616,18734.58,26.51,-1.00,-1.0,2433
5685,2140685,16764,-420,1100,16805.30,26.51,-1.00,-1.0,2367
5688,2140688,17980,4668,1888,18671.78,26.51,-1.00,-1.0,2433
5691,2140691,16432,-1136,948,16498.48,26.51,-1.00,-1.0,2367
5693,2140693,16628,-4748,1004,17321.72,26.51,-1.00,-1.0,2432
5696,2140696,15908,-1312,1312,16015.84,26.60,-1.00,-1.0,2367
5701,2140701,15976,5220,1868,16910.66,26.55,-1.00,-1.0,2449
5704,2140704,18844,-1380,404,18898.78,26.65,-1.00,-1.0,2354
5707,2140707,15480,-1612,1564,15642.09,26.60,-1.00,-1.0,2442
5709,2140709,17860,64,1812,17951.80,26.55,-1.00,-1.0,2377
5712,2140712,16844,1120,1592,16956.10,26.60,-1.00,-1.0,2434
5715,2140715,17728,1348,2092,17901.83,26.46,-1.00,-1.0,2370
5718,2140718,16572,52,2244,16723.32,26.60,-1.00,-1.0,2442
5720,2140720,17504,-1600,880,17598.99,26.55,-1.00,-1.0,2377
5723,2140723,17112,-1600,1448,17247.53,26.60,-1.00,-1.0,2360
5728,2140728,16856,2524,1780,17136.62,26.60,-1.00,-1.0,2446
5731,2140731,17612,544,1112,17655.45,26.65,-1.00,-1.0,2374
5733,2140733,16632,-1620,988,16739.89,26.51,-1.00,-1.0,2432
5736,2140736,16688,-1572,952,16788.89,26.55,-1.00,-1.0,2374
5739,2140739,16888,800,1288,16955.93,26.60,-1.00,-1.0,2436
5742,2140742,17268,3048,1640,17611.46,26.55,-1.00,-1.0,2371
5744,2140744,16728,1212,1816,16869.88,26.51,-1.00,-1.0,2434
5747,2140747,17012,-1460,1316,17125.17,26.55,-1.00,-1.0,2374
5752,2140752,16784,112,1688,16869.04,26.46,-1.00,-1.0,2458
5755,2140755,16896,2948,2280,17302.14,26.55,-1.00,-1.0,2375
5758,2140758,17192,956,1236,17262.87,26.60,-1.00,-1.0,2448
5760,2140760,16884,-1600,1348,17013.13,26.65,-1.00,-1.0,2370
5763,2140763,16636,-1292,1644,16766.89,26.51,-1.00,-1.0,2427
5766,2140766,17432,1280,1844,17575.93,26.55,-1.00,-1.0,2374
5768,2140768,17016,1764,1432,17167.02,26.60,-1.00,-1.0,2369
5771,2140771,16940,-52,1156,16979.48,26.51,-1.00,-1.0,2432
5774,2140774,17156,-1876,1336,17309.90,26.51,-1.00,-1.0,2354
5779,2140779,17092,2100,1684,17302.67,26.51,-1.00,-1.0,2442
5782,2140782,17224,-56,1512,17290.33,26.51,-1.00,-1.0,2377
5784,2140784,16912,-1524,1116,17017.16,26.60,-1.00,-1.0,2436
5787,2140787,17096,-316,1124,17135.82,26.51,-1.00,-1.0,2374
5790,2140790,16928,2244,1424,17135.36,26.60,-1.00,-1.0,2433
5793,2140793,17064,1556,1472,17197.91,26.51,-1.00,-1.0,2373
5795,2140795,16860,48,1536,16929.89,26.51,-1.00,-1.0,2436
5798,2140798,16852,-148,1584,16926.93,26.60,-1.00,-1.0,2383
5803,2140803,17192,656,1564,17275.45,26.65,-1.00,-1.0,2447
5806,2140806,16972,-28,1536,17041.39,26.55,-1.00,-1.0,2376
5809,2140809,17116,-768,1164,17172.72,26.51,-1.00,-1.0,2446
5811,2140811,17280,-148,1332,17331.89,26.46,-1.00,-1.0,2369
5814,2140814,16948,636,1680,17042.93,26.51,-1.00,-1.0,2348
5817,2140817,17068,556,1788,17170.40,26.51,-1.00,-1.0,2443
5819,2140819,16856,-276,1252,16904.69,26.51,-1.00,-1.0,2379
5822,2140822,16740,-1032,1216,16815.80,26.60,-1.00,-1.0,2434
5825,2140825,16940,-640,1284,17000.64,26.65,-1.00,-1.0,2368
5832,2140832,17084,900,1428,17167.19,26.51,-1.00,-1.0,2450
5834,2140834,17116,312,1496,17184.09,26.55,-1.00,-1.0,2371
5837,2140837,17096,864,1548,17187.67,26.51,-1.00,-1.0,2446
5840,2140840,17144,756,1508,17226.79,26.65,-1.00,-1.0,2367
5843,2140843,16992,-12,1372,17047.30,26.60,-1.00,-1.0,2441
5845,2140845,16876,-284,1476,16942.80,26.55,-1.00,-1.0,2368
5848,2140848,17060,600,1276,17118.17,26.60,-1.00,-1.0,2441
5851,2140851,17168,804,1448,17247.71,26.65,-1.00,-1.0,2367
5856,2140856,16788,-516,1412,16855.18,26.69,-1.00,-1.0,2452
5859,2140859,16984,-360,1436,17048.40,26.51,-1.00,-1.0,2367
5861,2140861,17096,356,1416,17158.23,26.51,-1.00,-1.0,2347
5864,2140864,17192,1216,1548,17304.33,26.55,-1.00,-1.0,2434
5867,2140867,17080,644,1448,17153.36,26.60,-1.00,-1.0,2374
5869,2140869,17216,-344,1144,17257.40,26.60,-1.00,-1.0,2438
5872,2140872,17060,-88,1292,17109.08,26.60,-1.00,-1.0,2383
5875,2140875,17168,1176,1632,17285.45,26.65,-1.00,-1.0,2436
5878,2140878,16968,1368,1420,17082.18,26.51,-1.00,-1.0,2369
5883,2140883,16952,-560,948,16987.72,26.60,-1.00,-1.0,2443
5885,2140885,16956,320,1044,16991.12,26.69,-1.00,-1.0,2369
5888,2140888,17032,1044,1600,17138.81,26.51,-1.00,-1.0,2447
5891,2140891,16980,644,1668,17073.88,26.51,-1.00,-1.0,2369
5894,2140894,17136,-560,1560,17215.97,26.51,-1.00,-1.0,2438
5896,2140896,17120,-284,1616,17198.45,26.60,-1.00,-1.0,2368
5899,2140899,17168,452,1540,17242.86,26.51,-1.00,-1.0,2449
5902,2140902,17316,576,1616,17400.78,26.60,-1.00,-1.0,2369
5904,2140904,16936,-320,1584,17012.92,26.60,-1.00,-1.0,2371
5909,2140909,16868,544,1696,16961.77,26.51,-1.00,-1.0,2443
5912,2140912,17004,1148,1504,17108.94,26.69,-1.00,-1.0,2367
5915,2140915,16876,1064,1496,16975.55,26.51,-1.00,-1.0,2440
5917,2140917,16908,92,1236,16953.37,26.60,-1.00,-1.0,2367
5920,2140920,16864,-188,1104,16901.14,26.60,-1.00,-1.0,2442
5923,2140923,17132,236,1128,17170.72,26.60,-1.00,-1.0,2368
5926,2140926,17072,636,1476,17147.49,26.60,-1.00,-1.0,2440
5928,2140928,17164,252,1496,17230.91,26.51,-1.00,-1.0,2366
5933,2140933,17132,236,1464,17196.06,26.51,-1.00,-1.0,2443
5936,2140936,17132,412,1692,17220.28,26.55,-1.00,-1.0,2369
5939,2140939,17004,424,1688,17092.84,26.60,-1.00,-1.0,2432
5942,2140942,16832,-76,1540,16902.47,26.55,-1.00,-1.0,2367
5944,2140944,16940,32,1468,17003.52,26.60,-1.00,-1.0,2360
5947,2140947,16980,532,1392,17045.27,26.60,-1.00,-1.0,2434
5950,2140950,17004,1412,1480,17126.59,26.51,-1.00,-1.0,2367
5953,2140953,17000,856,1504,17087.85,26.60,-1.00,-1.0,2433
5955,2140955,16956,-152,1300,17006.44,26.60,-1.00,-1.0,2354
5960,2140960,17020,200,1492,17086.44,26.55,-1.00,-1.0,2443
5963,2140963,17012,500,1800,17114.27,26.55,-1.00,-1.0,2371
5966,2140966,16968,40,1536,17037.43,26.51,-1.00,-1.0,2431
5968,2140968,17104,-44,1452,17165.58,26.55,-1.00,-1.0,2370
5971,2140971,17008,560,1572,17089.67,26.51,-1.00,-1.0,2433
5974,2140974,17148,836,1472,17231.36,26.55,-1.00,-1.0,2356
5977,2140977,16948,96,1428,17008.32,26.46,-1.00,-1.0,2439
5979,2140979,16872,-480,1272,16926.69,26.46,-1.00,-1.0,2377
5982,2140982,16888,-60,1312,16938.99,26.60,-1.00,-1.0,2360
5987,2140987,16936,1392,1504,17059.54,26.55,-1.00,-1.0,2445
5990,2140990,17068,332,1620,17147.92,26.55,-1.00,-1.0,2368
5992,2140992,16956,-476,1372,17018.08,26.51,-1.00,-1.0,2434
5995,2140995,17100,112,1460,17162.58,26.65,-1.00,-1.0,2375
5998,2140998,17084,376,1552,17158.47,26.51,-1.00,-1.0,2435
6001,2141001,17204,236,1500,17270.88,26.65,-1.00,-1.0,2374
6003,2141003,17076,108,1340,17128.84,26.60,-1.00,-1.0,2434
6006,2141006,17016,184,1600,17092.05,26.46,-1.00,-1.0,2383
6011,2141011,16988,444,1516,17061.29,26.65,-1.00,-1.0,2458
6014,2141014,16956,516,1428,17023.85,26.55,-1.00,-1.0,2376
6017,2141017,16964,116,1168,17004.56,26.55,-1.00,-1.0,2443
6019,2141019,16916,-44,1344,16969.37,26.55,-1.00,-1.0,2374
6022,2141022,17032,288,1292,17083.36,26.60,-1.00,-1.0,2361
6025,2141025,17132,868,1352,17207.17,26.60,-1.00,-1.0,2435
6027,2141027,17152,704,1496,17231.50,26.60,-1.00,-1.0,2376
6030,2141030,16952,24,1212,16995.29,26.60,-1.00,-1.0,2433
6033,2141033,17020,-4,1332,17072.04,26.55,-1.00,-1.0,2356
6038,2141038,17028,520,1452,17097.71,26.60,-1.00,-1.0,2443
6040,2141040,16748,60,1528,16817.67,26.51,-1.00,-1.0,2372
6043,2141043,16960,40,1576,17033.11,26.41,-1.00,-1.0,2433
6046,2141046,16976,160,1528,17045.38,26.60,-1.00,-1.0,2372
6049,2141049,17132,668,1680,17227.13,26.51,-1.00,-1.0,2435
6051,2141051,17208,360,1736,17299.09,26.51,-1.00,-1.0,2377
6054,2141054,17160,-36,1668,17240.91,26.51,-1.00,-1.0,2360
6057,2141057,17096,-196,1620,17173.70,26.55,-1.00,-1.0,2439
6059,2141059,17052,380,1364,17110.69,26.51,-1.00,-1.0,2368
6064,2141064,16864,444,1472,16933.94,26.51,-1.00,-1.0,2446
6067,2141067,16880,-40,1248,16926.12,26.60,-1.00,-1.0,2369
6070,2141070,16916,-48,1244,16961.75,26.55,-1.00,-1.0,2439
6072,2141072,16928,528,1288,16985.14,26.51,-1.00,-1.0,2368
6075,2141075,17104,976,1300,17181.08,26.51,-1.00,-1.0,2432
6078,2141078,17164,628,1444,17236.08,26.60,-1.00,-1.0,2369
6081,2141081,17168,-56,1428,17227.38,26.55,-1.00,-1.0,2439
6083,2141083,17136,-160,1500,17202.27,26.60,-1.00,-1.0,2371
