timestamp_ms,global_ms,accel_x,accel_y,accel_z,accel_mag,temp_c,voltage,soc,loop_us
3,2135003,17068,-208,1448,17130.57,30.04,-1.00,-1.0,2515
9,2135009,17060,-116,1528,17128.69,29.99,-1.00,-1.0,2480
12,2135012,16960,-76,1408,17018.51,30.08,-1.00,-1.0,2392
15,2135015,17032,-120,1480,17096.60,30.18,-1.00,-1.0,2432
18,2135018,16984,-188,1504,17051.50,30.18,-1.00,-1.0,2373
20,2135020,17072,-224,1352,17126.92,30.13,-1.00,-1.0,2370
23,2135023,16968,-260,1340,17022.81,30.13,-1.00,-1.0,2434
26,2135026,17192,-200,1400,17250.07,30.04,-1.00,-1.0,2382
29,2135029,17168,-396,1380,17227.93,30.08,-1.00,-1.0,2449
31,2135031,17048,-472,1332,17106.47,30.08,-1.00,-1.0,2379
36,2135036,17164,-404,1228,17212.62,30.13,-1.00,-1.0,2446
39,2135039,17096,-380,1264,17146.88,30.13,-1.00,-1.0,2376
42,2135042,16980,-408,1228,17029.23,30.04,-1.00,-1.0,2484
44,2135044,17100,-336,1136,17140.99,30.13,-1.00,-1.0,2359
47,2135047,17048,-396,1192,17094.21,30.18,-1.00,-1.0,2378
50,2135050,17028,-416,1248,17078.74,30.18,-1.00,-1.0,2438
53,2135053,17084,-336,1196,17129.11,30.08,-1.00,-1.0,2374
55,2135055,17064,-328,1240,17112.14,30.13,-1.00,-1.0,2441
58,2135058,17112,-420,1200,17159.16,30.08,-1.00,-1.0,2373
63,2135063,16924,-404,1284,16977.45,30.18,-1.00,-1.0,2456
66,2135066,17040,-476,1192,17088.27,30.18,-1.00,-1.0,2381
69,2135069,16968,-432,1100,17009.11,30.08,-1.00,-1.0,2444
72,2135072,17048,-324,1148,17089.68,30.08,-1.00,-1.0,2373
74,2135074,16952,-292,1332,17006.76,30.13,-1.00,-1.0,2437
77,2135077,16920,-256,1280,16970.28,30.04,-1.00,-1.0,2371
80,2135080,17008,-352,1292,17060.63,30.13,-1.00,-1.0,2377
83,2135083,17008,-308,1248,17056.51,30.08,-1.00,-1.0,2438
85,2135085,16888,-236,1308,16940.22,29.99,-1.00,-1.0,2371
90,2135090,17120,-68,1320,17170.95,30.13,-1.00,-1.0,2444
93,2135093,16956,-240,1356,17011.83,30.13,-1.00,-1.0,2372
96,2135096,17036,-188,1324,17088.41,30.08,-1.00,-1.0,2451
98,2135098,17052,-248,1284,17102.07,30.08,-1.00,-1.0,2372
101,2135101,17140,-236,1248,17186.99,30.08,-1.00,-1.0,2453
104,2135104,16976,-328,1400,17036.79,30.08,-1.00,-1.0,2378
107,2135107,17004,-300,1244,17052.08,30.13,-1.00,-1.0,2438
110,2135110,16992,-312,1280,17043.00,30.18,-1.00,-1.0,2380
112,2135112,17036,-228,1244,17082.88,30.13,-1.00,-1.0,2370
117,2135117,16992,-360,1340,17048.56,30.13,-1.00,-1.0,2445
120,2135120,16920,-388,1276,16972.48,30.04,-1.00,-1.0,2375
123,2135123,17052,-284,1460,17116.74,30.13,-1.00,-1.0,2448
125,2135125,17104,-348,1420,17166.37,30.13,-1.00,-1.0,2370
128,2135128,16996,-212,1384,17053.57,30.08,-1.00,-1.0,2438
131,2135131,17008,-352,1508,17078.35,30.08,-1.00,-1.0,2375
134,2135134,17052,-396,1384,17112.66,30.08,-1.00,-1.0,2443
136,2135136,17028,-440,1200,17075.90,30.08,-1.00,-1.0,2371
141,2135141,17184,-432,1500,17254.75,30.08,-1.00,-1.0,2444
144,2135144,17128,-324,1380,17186.56,30.08,-1.00,-1.0,2373
147,2135147,17008,-400,1380,17068.58,30.08,-1.00,-1.0,2442
150,2135150,17052,-348,1380,17111.29,30.08,-1.00,-1.0,2383
152,2135152,17100,-344,1316,17154.01,30.13,-1.00,-1.0,2379
155,2135155,17076,-384,1356,17134.06,30.13,-1.00,-1.0,2437
158,2135158,17044,-420,1236,17093.92,30.13,-1.00,-1.0,2371
161,2135161,16988,-236,1116,17026.25,30.13,-1.00,-1.0,2444
163,2135163,17076,-428,1356,17135.10,30.13,-1.00,-1.0,2372
168,2135168,17016,-324,1236,17063.91,30.13,-1.00,-1.0,2449
171,2135171,16960,-160,1196,17002.87,30.13,-1.00,-1.0,2375
174,2135174,17044,-200,1168,17085.14,30.08,-1.00,-1.0,2442
177,2135177,17072,-240,1148,17112.24,30.04,-1.00,-1.0,2370
179,2135179,17036,-272,1148,17076.80,30.08,-1.00,-1.0,2438
182,2135182,16976,-248,1100,17013.41,30.08,-1.00,-1.0,2371
185,2135185,17032,-280,1172,17074.57,29.99,-1.00,-1.0,2437
188,2135188,17036,-232,1160,17077.02,30.08,-1.00,-1.0,2379
190,2135190,17028,-156,1240,17073.80,30.04,-1.00,-1.0,2380
195,2135195,16992,-212,1192,17035.08,30.13,-1.00,-1.0,2444
198,2135198,17024,-272,1524,17094.24,30.13,-1.00,-1.0,2379
201,2135201,17156,-216,1224,17200.96,30.13,-1.00,-1.0,2449
204,2135204,17032,-272,1204,17076.67,30.04,-1.00,-1.0,2372
206,2135206,16980,-172,1276,17028.74,30.08,-1.00,-1.0,2437
209,2135209,17036,-352,1148,17078.26,30.04,-1.00,-1.0,2370
212,2135212,17064,-264,1352,17119.51,30.08,-1.00,-1.0,2439
215,2135215,16976,-340,1332,17031.57,30.13,-1.00,-1.0,2373
219,2135219,17060,-364,1312,17114.25,30.18,-1.00,-1.0,2445
222,2135222,17048,-260,1312,17100.39,30.08,-1.00,-1.0,2371
225,2135225,17016,-360,1296,17069.08,30.04,-1.00,-1.0,2442
228,2135228,16904,-360,1324,16959.59,30.13,-1.00,-1.0,2382
230,2135230,17024,-420,1348,17082.45,30.04,-1.00,-1.0,2378
233,2135233,17024,-264,1316,17076.83,30.08,-1.00,-1.0,2437
236,2135236,17140,-276,1296,17191.14,30.18,-1.00,-1.0,2371
239,2135239,17064,-360,1248,17113.36,30.18,-1.00,-1.0,2441
241,2135241,17076,-416,1176,17121.50,30.18,-1.00,-1.0,2370
246,2135246,17040,-284,1188,17083.72,30.04,-1.00,-1.0,2454
249,2135249,17060,-340,1308,17113.45,30.13,-1.00,-1.0,2375
252,2135252,17080,-492,1368,17141.76,30.08,-1.00,-1.0,2447
254,2135254,16972,-344,1304,17025.50,30.08,-1.00,-1.0,2374
257,2135257,16988,-344,1264,17038.43,30.18,-1.00,-1.0,2436
260,2135260,16936,-460,1232,16986.98,30.08,-1.00,-1.0,2370
263,2135263,16996,-436,1244,17047.04,30.13,-1.00,-1.0,2446
265,2135265,17068,-300,1144,17108.93,30.08,-1.00,-1.0,2373
268,2135268,17024,-316,1156,17066.13,30.13,-1.00,-1.0,2378
273,2135273,17056,-268,1368,17112.87,30.13,-1.00,-1.0,2445
276,2135276,17008,-372,1376,17067.62,30.04,-1.00,-1.0,2375
279,2135279,17016,-228,1260,17064.11,30.08,-1.00,-1.0,2484
281,2135281,16956,-228,1284,17006.07,30.08,-1.00,-1.0,2372
284,2135284,17060,-352,1320,17114.61,30.13,-1.00,-1.0,2443
287,2135287,16912,-276,1248,16960.23,30.04,-1.00,-1.0,2372
290,2135290,17076,-212,1128,17114.53,30.04,-1.00,-1.0,2445
293,2135293,16992,-272,1232,17038.78,30.13,-1.00,-1.0,2373
298,2135298,17032,-416,1268,17084.20,30.13,-1.00,-1.0,2446
300,2135300,17020,-332,1240,17068.34,30.13,-1.00,-1.0,2375
303,2135303,17104,-340,1292,17156.10,30.18,-1.00,-1.0,2453
306,2135306,17060,-336,1112,17099.50,30.08,-1.00,-1.0,2377
308,2135308,17108,-344,1416,17169.95,30.18,-1.00,-1.0,2371
311,2135311,17052,-356,1344,17108.59,30.04,-1.00,-1.0,2438
314,2135314,17120,-320,1360,17176.91,30.13,-1.00,-1.0,2370
317,2135317,17076,-236,1440,17138.23,30.04,-1.00,-1.0,2442
319,2135319,17000,-368,1336,17056.39,30.13,-1.00,-1.0,2359
324,2135324,17020,-380,1140,17062.37,30.04,-1.00,-1.0,2447
327,2135327,16952,-316,1372,17010.37,30.04,-1.00,-1.0,2375
330,2135330,17024,-344,1452,17089.27,30.04,-1.00,-1.0,2444
333,2135333,17044,-304,1248,17092.33,30.13,-1.00,-1.0,2378
336,2135336,16988,-352,1260,17038.30,30.13,-1.00,-1.0,2439
338,2135338,17096,-424,1320,17152.12,30.04,-1.00,-1.0,2375
341,2135341,17048,-460,1268,17101.28,30.13,-1.00,-1.0,2479
344,2135344,17112,-308,1264,17161.38,30.04,-1.00,-1.0,2373
347,2135347,17028,-372,1320,17083.14,30.13,-1.00,-1.0,2375
352,2135352,17004,-340,1356,17061.37,30.13,-1.00,-1.0,2448
354,2135354,16912,-344,1284,16964.16,30.08,-1.00,-1.0,2379
357,2135357,17024,-340,1304,17077.25,30.08,-1.00,-1.0,2451
360,2135360,16932,-348,1308,16986.01,30.08,-1.00,-1.0,2375
363,2135363,16992,-324,1348,17048.46,30.13,-1.00,-1.0,2437
365,2135365,17008,-400,1216,17056.11,30.13,-1.00,-1.0,2374
368,2135368,16980,-408,1148,17023.65,30.04,-1.00,-1.0,2440
371,2135371,17048,-360,1212,17094.82,30.22,-1.00,-1.0,2371
376,2135376,17112,-336,1244,17160.45,30.04,-1.00,-1.0,2447
379,2135379,17024,-260,1188,17067.38,30.04,-1.00,-1.0,2372
381,2135381,17004,-188,1236,17049.90,30.04,-1.00,-1.0,2445
384,2135384,17044,-248,1144,17084.15,30.04,-1.00,-1.0,2374
387,2135387,16996,-244,1260,17044.39,30.08,-1.00,-1.0,2378
390,2135390,17056,-296,1256,17104.74,30.13,-1.00,-1.0,2447
392,2135392,16992,-260,1216,17037.44,30.08,-1.00,-1.0,2379
395,2135395,16992,-296,1488,17059.60,30.13,-1.00,-1.0,2439
398,2135398,17104,-168,1268,17151.76,30.13,-1.00,-1.0,2373
403,2135403,17008,-196,1268,17056.33,30.13,-1.00,-1.0,2447
406,2135406,17008,-196,1280,17057.22,30.04,-1.00,-1.0,2373
408,2135408,16948,-200,1288,16998.05,30.13,-1.00,-1.0,2446
411,2135411,17004,-232,1140,17043.75,30.22,-1.00,-1.0,2371
414,2135414,17048,-236,1344,17102.52,30.08,-1.00,-1.0,2438
417,2135417,17104,-288,1288,17154.85,30.13,-1.00,-1.0,2377
419,2135419,17036,-184,1412,17095.41,30.08,-1.00,-1.0,2376
422,2135422,17040,-248,1292,17090.71,30.13,-1.00,-1.0,2448
425,2135425,17064,-356,1352,17121.18,30.08,-1.00,-1.0,2373
430,2135430,17032,-416,1280,17085.10,30.13,-1.00,-1.0,2447
432,2135432,16968,-336,1360,17025.73,30.04,-1.00,-1.0,2373
435,2135435,16992,-308,1172,17035.15,30.08,-1.00,-1.0,2444
438,2135438,17080,-260,1364,17136.35,30.13,-1.00,-1.0,2371
441,2135441,16944,-376,1212,16991.45,30.08,-1.00,-1.0,2448
443,2135443,17120,-392,1280,17172.26,30.13,-1.00,-1.0,2373
446,2135446,17028,-352,1252,17077.59,30.04,-1.00,-1.0,2452
449,2135449,17020,-384,1268,17071.49,30.08,-1.00,-1.0,2379
454,2135454,17120,-280,1104,17157.84,30.08,-1.00,-1.0,2453
456,2135456,17036,-332,1220,17082.86,30.04,-1.00,-1.0,2374
459,2135459,17032,-424,1232,17081.76,30.08,-1.00,-1.0,2376
462,2135462,17004,-288,1208,17049.29,30.13,-1.00,-1.0,2446
465,2135465,17036,-420,1268,17088.29,30.04,-1.00,-1.0,2375
467,2135467,17020,-296,1268,17069.73,30.13,-1.00,-1.0,2437
470,2135470,17036,-372,1208,17082.83,30.04,-1.00,-1.0,2371
473,2135473,17064,-300,1320,17117.61,30.08,-1.00,-1.0,2438
476,2135476,17020,-252,1208,17064.68,30.13,-1.00,-1.0,2371
481,2135481,17140,-280,1372,17197.10,30.13,-1.00,-1.0,2452
484,2135484,17076,-340,1528,17147.60,30.13,-1.00,-1.0,2375
486,2135486,17080,-344,1252,17129.28,30.13,-1.00,-1.0,2443
489,2135489,16960,-360,1356,17017.93,30.13,-1.00,-1.0,2369
492,2135492,17052,-268,1404,17111.80,30.18,-1.00,-1.0,2439
495,2135495,17036,-316,1284,17087.24,30.08,-1.00,-1.0,2371
497,2135497,17104,-344,1408,17165.30,30.18,-1.00,-1.0,2374
500,2135500,16964,-252,1368,17020.94,30.04,-1.00,-1.0,2449
503,2135503,16988,-328,1332,17043.30,30.13,-1.00,-1.0,2373
508,2135508,17076,-284,1328,17129.92,30.13,-1.00,-1.0,2453
511,2135511,17044,-336,1416,17106.02,30.08,-1.00,-1.0,2372
513,2135513,16964,-336,1316,17018.29,30.04,-1.00,-1.0,2453
516,2135516,17036,-348,1220,17083.17,30.04,-1.00,-1.0,2378
519,2135519,17092,-356,1348,17148.77,30.18,-1.00,-1.0,2439
522,2135522,17020,-316,1316,17073.73,30.13,-1.00,-1.0,2371
524,2135524,16940,-336,1460,17006.12,30.27,-1.00,-1.0,2439
527,2135527,17036,-320,1256,17085.23,30.08,-1.00,-1.0,2371
532,2135532,17044,-420,1444,17110.21,30.08,-1.00,-1.0,2455
535,2135535,17068,-340,1080,17105.51,30.04,-1.00,-1.0,2375
537,2135537,17036,-348,1156,17078.72,30.08,-1.00,-1.0,2370
540,2135540,16940,-360,1348,16997.36,29.94,-1.00,-1.0,2445
543,2135543,16984,-336,1108,17023.42,30.13,-1.00,-1.0,2370
546,2135546,16956,-368,1164,16999.89,30.22,-1.00,-1.0,2451
549,2135549,17036,-356,1200,17081.92,30.13,-1.00,-1.0,2379
551,2135551,17028,-284,1268,17077.51,30.04,-1.00,-1.0,2445
554,2135554,17060,-360,1312,17114.16,30.04,-1.00,-1.0,2380
559,2135559,17008,-276,1340,17062.94,30.13,-1.00,-1.0,2464
562,2135562,17004,-300,1304,17056.57,30.13,-1.00,-1.0,2376
565,2135565,17052,-256,1248,17099.53,30.18,-1.00,-1.0,2447
567,2135567,17016,-312,1188,17060.27,30.04,-1.00,-1.0,2359
570,2135570,16964,-292,1408,17024.84,30.08,-1.00,-1.0,2427
573,2135573,17080,-220,1236,17126.08,30.08,-1.00,-1.0,2372
575,2135575,17016,-384,1220,17064.00,30.08,-1.00,-1.0,2357
578,2135578,16992,-176,1192,17034.67,30.04,-1.00,-1.0,2441
581,2135581,16972,-216,1340,17026.19,30.13,-1.00,-1.0,2370
586,2135586,16932,-224,1296,16983.00,29.99,-1.00,-1.0,2446
589,2135589,17004,-220,1300,17055.04,30.18,-1.00,-1.0,2371
592,2135592,16968,-228,1332,17021.73,30.13,-1.00,-1.0,2443
594,2135594,17020,-312,1168,17062.88,30.13,-1.00,-1.0,2372
597,2135597,17020,-264,1128,17059.38,30.08,-1.00,-1.0,2455
600,2135600,16960,-380,1392,17021.27,30.13,-1.00,-1.0,2379
603,2135603,17100,-296,1296,17151.60,30.08,-1.00,-1.0,2448
605,2135605,16996,-296,1256,17044.92,30.13,-1.00,-1.0,2378
610,2135610,16948,-244,1140,16988.05,30.04,-1.00,-1.0,2456
613,2135613,16996,-336,1320,17050.49,30.08,-1.00,-1.0,2387
616,2135616,17108,-364,1340,17164.26,30.08,-1.00,-1.0,2370
618,2135618,17092,-228,1196,17135.31,30.04,-1.00,-1.0,2442
621,2135621,17060,-344,1388,17119.83,30.04,-1.00,-1.0,2371
624,2135624,17004,-372,1188,17049.51,30.04,-1.00,-1.0,2441
627,2135627,17068,-396,1384,17128.60,30.13,-1.00,-1.0,2379
630,2135630,17024,-348,1384,17083.71,29.99,-1.00,-1.0,2449
632,2135632,16980,-336,1292,17032.40,30.13,-1.00,-1.0,2374
637,2135637,17096,-380,1196,17142.00,30.08,-1.00,-1.0,2454
640,2135640,17008,-272,1372,17065.42,30.08,-1.00,-1.0,2373
643,2135643,17020,-228,1364,17076.09,30.13,-1.00,-1.0,2449
645,2135645,17012,-212,1160,17052.82,30.13,-1.00,-1.0,2371
648,2135648,17080,-296,1184,17123.55,30.13,-1.00,-1.0,2440
651,2135651,17036,-420,1360,17095.36,30.22,-1.00,-1.0,2370
654,2135654,17008,-268,1408,17068.29,29.99,-1.00,-1.0,2376
656,2135656,17060,-188,1280,17108.98,30.08,-1.00,-1.0,2447
659,2135659,16968,-364,1336,17024.41,30.08,-1.00,-1.0,2379
664,2135664,17060,-368,1256,17110.13,30.18,-1.00,-1.0,2459
666,2135666,17036,-360,1440,17100.54,30.13,-1.00,-1.0,2373
669,2135669,17124,-296,1400,17183.68,30.08,-1.00,-1.0,2450
672,2135672,17080,-380,1372,17139.23,30.08,-1.00,-1.0,2385
675,2135675,17072,-320,1268,17122.02,30.13,-1.00,-1.0,2441
678,2135678,16960,-360,1332,17016.04,30.18,-1.00,-1.0,2372
680,2135680,16992,-308,1200,17037.10,30.22,-1.00,-1.0,2438
683,2135683,17068,-232,1236,17114.27,30.13,-1.00,-1.0,2369
688,2135688,17044,-324,1456,17109.14,30.13,-1.00,-1.0,2452
691,2135691,17080,-284,1320,17133.29,30.08,-1.00,-1.0,2372
693,2135693,16996,-304,1072,17032.49,30.04,-1.00,-1.0,2370
696,2135696,17004,-300,1112,17042.96,30.04,-1.00,-1.0,2446
699,2135699,17068,-388,1184,17113.42,30.04,-1.00,-1.0,2372
702,2135702,17020,-324,1300,17072.65,30.08,-1.00,-1.0,2448
705,2135705,17012,-284,1256,17060.67,30.08,-1.00,-1.0,2372
707,2135707,16980,-324,1276,17030.96,30.13,-1.00,-1.0,2448
710,2135710,17056,-280,1184,17099.34,30.08,-1.00,-1.0,2379
715,2135715,17000,-272,1288,17050.89,30.08,-1.00,-1.0,2463
718,2135718,17092,-288,1312,17144.70,30.18,-1.00,-1.0,2377
721,2135721,17072,-280,1268,17121.31,30.13,-1.00,-1.0,2449
723,2135723,17068,-316,1232,17115.32,30.13,-1.00,-1.0,2357
726,2135726,16964,-264,1356,17020.16,30.04,-1.00,-1.0,2427
729,2135729,17068,-216,1340,17121.88,30.13,-1.00,-1.0,2374
731,2135731,16980,-184,1288,17029.77,29.99,-1.00,-1.0,2370
734,2135734,17092,-284,1244,17139.56,30.08,-1.00,-1.0,2447
737,2135737,17080,-284,1236,17127.02,30.08,-1.00,-1.0,2370
742,2135742,16964,-264,1388,17022.74,30.08,-1.00,-1.0,2446
745,2135745,17052,-392,1440,17117.18,30.08,-1.00,-1.0,2379
748,2135748,17028,-404,1276,17080.52,30.08,-1.00,-1.0,2451
750,2135750,16972,-308,1376,17030.47,30.08,-1.00,-1.0,2376
753,2135753,16988,-352,1320,17042.84,30.04,-1.00,-1.0,2448
756,2135756,17040,-368,1300,17093.48,30.13,-1.00,-1.0,2373
759,2135759,17092,-340,1380,17150.99,30.04,-1.00,-1.0,2441
761,2135761,16988,-348,1300,17041.22,30.13,-1.00,-1.0,2373
766,2135766,17012,-324,1208,17057.91,30.13,-1.00,-1.0,2455
769,2135769,16972,-288,1432,17034.74,30.13,-1.00,-1.0,2373
772,2135772,17016,-312,1308,17069.05,30.08,-1.00,-1.0,2370
775,2135775,17064,-300,1280,17114.57,30.27,-1.00,-1.0,2443
777,2135777,17000,-412,1276,17052.80,30.18,-1.00,-1.0,2371
780,2135780,17032,-432,1388,17093.92,30.13,-1.00,-1.0,2456
783,2135783,17188,-424,1180,17233.67,30.22,-1.00,-1.0,2379
786,2135786,17052,-384,1420,17115.33,30.13,-1.00,-1.0,2445
788,2135788,17024,-304,1236,17071.52,30.13,-1.00,-1.0,2377
793,2135793,17044,-216,1116,17081.86,30.13,-1.00,-1.0,2455
796,2135796,17020,-288,1296,17071.70,30.22,-1.00,-1.0,2375
799,2135799,17064,-308,1412,17125.09,30.08,-1.00,-1.0,2444
802,2135802,16988,-308,1232,17035.40,30.04,-1.00,-1.0,2371
804,2135804,17136,-344,1256,17185.41,29.99,-1.00,-1.0,2371
807,2135807,17044,-300,1184,17087.71,30.04,-1.00,-1.0,2455
810,2135810,17008,-256,1224,17053.91,30.13,-1.00,-1.0,2378
813,2135813,17092,-300,1328,17146.14,30.13,-1.00,-1.0,2451
815,2135815,16964,-260,1320,17017.26,30.13,-1.00,-1.0,2380
820,2135820,17016,-300,1316,17069.45,30.04,-1.00,-1.0,2456
823,2135823,17032,-300,1304,17084.48,30.13,-1.00,-1.0,2375
826,2135826,17004,-348,1252,17053.58,30.08,-1.00,-1.0,2442
829,2135829,16980,-304,1272,17030.29,30.13,-1.00,-1.0,2370
831,2135831,17036,-312,1188,17080.22,30.08,-1.00,-1.0,2442
834,2135834,16928,-292,1192,16972.43,30.13,-1.00,-1.0,2372
837,2135837,17036,-260,1296,17087.20,30.18,-1.00,-1.0,2439
840,2135840,17096,-340,1320,17150.25,30.08,-1.00,-1.0,2370
842,2135842,17032,-404,1356,17090.67,30.13,-1.00,-1.0,2375
847,2135847,16992,-224,1416,17052.37,30.13,-1.00,-1.0,2453
850,2135850,17040,-260,1376,17097.44,30.18,-1.00,-1.0,2374
853,2135853,16960,-408,1256,17011.34,30.08,-1.00,-1.0,2449
855,2135855,16984,-400,1268,17035.96,29.99,-1.00,-1.0,2372
858,2135858,16988,-460,1192,17035.98,30.13,-1.00,-1.0,2439
861,2135861,17108,-428,1232,17157.64,30.08,-1.00,-1.0,2371
864,2135864,17052,-356,1268,17102.79,30.22,-1.00,-1.0,2445
866,2135866,17028,-328,1172,17071.44,30.13,-1.00,-1.0,2371
871,2135871,16964,-324,1188,17008.63,30.18,-1.00,-1.0,2434
874,2135874,17032,-372,1164,17075.78,30.08,-1.00,-1.0,2362
877,2135877,17084,-300,1284,17134.81,30.04,-1.00,-1.0,2449
879,2135879,17048,-244,1160,17089.16,29.99,-1.00,-1.0,2373
882,2135882,17068,-324,1268,17118.10,30.13,-1.00,-1.0,2378
885,2135885,17068,-288,1400,17127.74,30.08,-1.00,-1.0,2442
888,2135888,17044,-272,1148,17084.78,30.13,-1.00,-1.0,2381
890,2135890,17076,-312,1204,17121.24,30.08,-1.00,-1.0,2440
893,2135893,17000,-324,1388,17059.65,30.04,-1.00,-1.0,2372
898,2135898,17028,-268,1340,17082.75,30.13,-1.00,-1.0,2461
901,2135901,17068,-384,1344,17125.14,30.13,-1.00,-1.0,2382
904,2135904,17120,-316,1184,17163.80,30.08,-1.00,-1.0,2443
907,2135907,17080,-264,1340,17134.52,30.18,-1.00,-1.0,2370
909,2135909,16960,-380,1288,17013.08,30.08,-1.00,-1.0,2439
912,2135912,17060,-212,1356,17115.12,30.08,-1.00,-1.0,2372
915,2135915,17052,-220,1216,17096.72,30.13,-1.00,-1.0,2439
918,2135918,17004,-188,1324,17056.50,30.08,-1.00,-1.0,2370
920,2135920,17020,-364,1268,17071.05,30.13,-1.00,-1.0,2372
925,2135925,16988,-296,1416,17049.48,30.13,-1.00,-1.0,2447
928,2135928,17056,-340,1260,17105.86,30.13,-1.00,-1.0,2371
931,2135931,17036,-240,1372,17092.84,30.04,-1.00,-1.0,2450
933,2135933,17064,-284,1156,17105.47,30.13,-1.00,-1.0,2371
936,2135936,16964,-272,1248,17012.02,30.18,-1.00,-1.0,2451
939,2135939,17032,-316,1320,17086.00,30.04,-1.00,-1.0,2388
942,2135942,17096,-312,1172,17138.96,30.08,-1.00,-1.0,2440
945,2135945,17116,-368,1188,17161.12,29.99,-1.00,-1.0,2373
950,2135950,17040,-392,1172,17084.75,30.13,-1.00,-1.0,2475
952,2135952,16984,-324,1232,17031.71,30.13,-1.00,-1.0,2372
955,2135955,16908,-384,1304,16962.56,30.08,-1.00,-1.0,2456
958,2135958,16968,-364,1252,17018.02,30.13,-1.00,-1.0,2378
961,2135961,17096,-264,1240,17142.94,29.99,-1.00,-1.0,2372
963,2135963,17096,-316,1304,17148.57,30.13,-1.00,-1.0,2441
966,2135966,17108,-252,1352,17163.19,30.13,-1.00,-1.0,2372
969,2135969,17092,-404,1144,17135.01,30.13,-1.00,-1.0,2438
972,2135972,17052,-368,1304,17105.75,30.13,-1.00,-1.0,2370
977,2135977,17008,-336,1400,17068.83,30.13,-1.00,-1.0,2452
979,2135979,17096,-276,1288,17146.67,30.13,-1.00,-1.0,2372
982,2135982,17052,-272,1232,17098.61,30.13,-1.00,-1.0,2442
985,2135985,17136,-396,1436,17200.62,30.13,-1.00,-1.0,2371
988,2135988,17052,-324,1316,17105.78,30.18,-1.00,-1.0,2445
990,2135990,17108,-412,1340,17165.34,30.13,-1.00,-1.0,2370
993,2135993,17064,-252,1200,17108.00,30.08,-1.00,-1.0,2454
996,2135996,17028,-436,1216,17076.93,30.18,-1.00,-1.0,2381
999,2135999,16940,-272,1196,16984.35,30.04,-1.00,-1.0,2370
1004,2136004,17048,-372,1232,17096.51,30.18,-1.00,-1.0,2456
1006,2136006,16980,-368,1276,17031.85,29.99,-1.00,-1.0,2381
1009,2136009,17000,-224,1196,17043.49,30.13,-1.00,-1.0,2424
1012,2136012,16964,-360,1264,17014.83,30.13,-1.00,-1.0,2371
1015,2136015,16976,-348,1312,17030.18,30.04,-1.00,-1.0,2446
1017,2136017,16984,-360,1116,17024.43,30.04,-1.00,-1.0,2374
1020,2136020,17028,-332,1244,17076.61,30.08,-1.00,-1.0,2438
1023,2136023,17120,-388,1304,17173.97,30.22,-1.00,-1.0,2371
1028,2136028,17068,-432,1168,17113.37,30.22,-1.00,-1.0,2451
1031,2136031,17080,-340,1236,17128.04,30.04,-1.00,-1.0,2371
1034,2136034,17080,-308,1176,17123.21,30.18,-1.00,-1.0,2439
1036,2136036,16968,-284,1316,17021.33,30.18,-1.00,-1.0,2372
1039,2136039,17096,-296,1328,17150.06,30.08,-1.00,-1.0,2447
1042,2136042,17012,-204,1348,17066.54,30.18,-1.00,-1.0,2380
1044,2136044,17088,-304,1228,17134.76,30.22,-1.00,-1.0,2373
1047,2136047,17044,-196,1236,17089.88,30.13,-1.00,-1.0,2438
1050,2136050,17044,-260,1196,17087.89,30.13,-1.00,-1.0,2371
1055,2136055,17032,-348,1300,17085.08,30.18,-1.00,-1.0,2460
1057,2136057,17044,-320,1384,17103.09,30.08,-1.00,-1.0,2374
1060,2136060,16992,-288,1332,17046.56,30.08,-1.00,-1.0,2445
1063,2136063,17072,-372,1336,17128.24,30.08,-1.00,-1.0,2370
1066,2136066,17036,-360,1244,17085.15,30.04,-1.00,-1.0,2448
1069,2136069,16976,-384,1236,17025.27,29.99,-1.00,-1.0,2375
1071,2136071,16968,-304,1312,17021.36,30.04,-1.00,-1.0,2447
1074,2136074,17084,-404,1260,17135.16,30.04,-1.00,-1.0,2375
1079,2136079,17008,-384,1268,17059.52,30.08,-1.00,-1.0,2459
1082,2136082,17024,-248,1340,17078.46,30.08,-1.00,-1.0,2372
1084,2136084,16980,-308,1376,17038.45,30.13,-1.00,-1.0,2446
1087,2136087,17016,-288,1132,17056.04,30.22,-1.00,-1.0,2384
1090,2136090,17048,-352,1184,17092.69,30.04,-1.00,-1.0,2441
1093,2136093,17044,-284,1228,17090.54,30.13,-1.00,-1.0,2372
1095,2136095,16988,-228,1260,17036.19,30.18,-1.00,-1.0,2372
1098,2136098,17024,-304,1184,17067.83,30.08,-1.00,-1.0,2438
1101,2136101,16952,-280,1308,17004.69,30.08,-1.00,-1.0,2377
1106,2136106,16956,-304,1104,16994.62,30.18,-1.00,-1.0,2458
1108,2136108,17076,-244,1176,17118.19,30.18,-1.00,-1.0,2372
1111,2136111,17040,-196,1228,17085.31,30.04,-1.00,-1.0,2447
1114,2136114,17004,-376,1300,17057.77,30.08,-1.00,-1.0,2371
1117,2136117,17124,-316,1268,17173.79,30.04,-1.00,-1.0,2443
1120,2136120,17064,-204,1240,17110.21,30.13,-1.00,-1.0,2375
1122,2136122,17108,-376,1288,17160.54,30.13,-1.00,-1.0,2442
1125,2136125,16996,-352,1192,17041.38,30.04,-1.00,-1.0,2374
1130,2136130,17040,-180,1380,17096.74,30.04,-1.00,-1.0,2464
1133,2136133,16976,-324,1244,17024.60,30.13,-1.00,-1.0,2373
1136,2136136,16984,-224,1396,17042.75,30.08,-1.00,-1.0,2437
1138,2136138,17156,-280,1424,17217.27,30.04,-1.00,-1.0,2357
1141,2136141,17036,-256,1188,17079.29,30.08,-1.00,-1.0,2369
1144,2136144,17092,-348,1384,17151.47,30.04,-1.00,-1.0,2448
1146,2136146,17064,-320,1284,17115.23,30.18,-1.00,-1.0,2371
1149,2136149,16952,-232,1200,16996.00,30.13,-1.00,-1.0,2451
1152,2136152,16976,-268,1112,17014.49,30.04,-1.00,-1.0,2380
1157,2136157,17020,-308,1248,17068.47,30.04,-1.00,-1.0,2451
1160,2136160,17012,-304,1288,17063.40,30.13,-1.00,-1.0,2378
1163,2136163,17024,-436,1352,17083.17,29.99,-1.00,-1.0,2448
1165,2136165,17032,-220,1148,17072.06,30.04,-1.00,-1.0,2379
1168,2136168,17088,-348,1052,17123.89,30.18,-1.00,-1.0,2440
1171,2136171,16976,-348,1232,17024.20,30.04,-1.00,-1.0,2373
1174,2136174,16956,-352,1300,17009.40,30.08,-1.00,-1.0,2446
1176,2136176,17008,-224,1320,17060.62,30.08,-1.00,-1.0,2373
1181,2136181,17036,-324,1444,17100.16,30.08,-1.00,-1.0,2452
1184,2136184,17000,-316,1340,17055.66,30.08,-1.00,-1.0,2373
1187,2136187,17024,-404,1256,17075.05,29.94,-1.00,-1.0,2437
1190,2136190,16896,-288,1288,16947.47,30.08,-1.00,-1.0,2370
1192,2136192,17092,-388,1308,17146.37,30.04,-1.00,-1.0,2374
1195,2136195,16948,-224,1552,17020.39,30.08,-1.00,-1.0,2450
1198,2136198,17024,-268,1324,17077.51,30.13,-1.00,-1.0,2373
1201,2136201,17060,-364,1288,17112.42,30.18,-1.00,-1.0,2439
1203,2136203,17056,-324,1256,17105.25,30.18,-1.00,-1.0,2372
1208,2136208,17012,-364,1276,17063.67,30.08,-1.00,-1.0,2454
1211,2136211,17036,-296,1220,17082.19,29.99,-1.00,-1.0,2374
1214,2136214,16932,-304,1256,16981.24,30.08,-1.00,-1.0,2439
1217,2136217,17004,-412,1236,17053.84,30.08,-1.00,-1.0,2372
1219,2136219,17068,-268,1320,17121.06,30.13,-1.00,-1.0,2440
1222,2136222,17092,-240,1120,17130.34,30.04,-1.00,-1.0,2371
1225,2136225,17008,-208,1352,17062.92,30.13,-1.00,-1.0,2439
1228,2136228,17060,-264,1184,17103.07,30.13,-1.00,-1.0,2378
1233,2136233,17052,-260,1420,17113.00,30.22,-1.00,-1.0,2460
1235,2136235,17016,-404,1316,17071.59,30.13,-1.00,-1.0,2373
1238,2136238,25684,-1552,8636,27141.43,30.08,-1.00,-1.0,2386
1241,2136241,-4996,-12556,-26524,29768.03,30.18,-1.00,-1.0,2439
1244,2136244,9020,-6580,11568,16077.17,30.13,-1.00,-1.0,2379
1247,2136247,18308,10884,2628,21460.45,30.08,-1.00,-1.0,2454
1249,2136249,9788,4248,15940,19181.61,30.08,-1.00,-1.0,2382
1252,2136252,20420,-4584,-6756,21991.66,30.18,-1.00,-1.0,2438
1255,2136255,19880,11324,4904,23398.64,30.08,-1.00,-1.0,2374
1260,2136260,27984,12428,-6404,31282.11,30.04,-1.00,-1.0,2458
1262,2136262,9224,-4776,7096,12579.57,30.13,-1.00,-1.0,2371
1265,2136265,25824,-4208,8184,27414.67,30.08,-1.00,-1.0,2442
1268,2136268,21200,15036,-1524,26035.44,30.04,-1.00,-1.0,2371
1271,2136271,20844,-15588,1336,26062.29,30.08,-1.00,-1.0,2445
1274,2136274,23772,26996,4472,36247.63,30.08,-1.00,-1.0,2378
1276,2136276,4800,-15696,-168,16414.40,30.08,-1.00,-1.0,2446
1279,2136279,22320,5708,-3544,23309.30,30.08,-1.00,-1.0,2375
1284,2136284,17528,-8972,6548,20751.00,30.04,-1.00,-1.0,2460
1287,2136287,20476,11680,3132,23780.21,30.08,-1.00,-1.0,2374
1289,2136289,10648,-8744,-1284,13837.85,30.18,-1.00,-1.0,2444
1292,2136292,19316,4328,3348,20076.07,30.18,-1.00,-1.0,2380
1295,2136295,17552,-1140,-2568,17775.46,30.13,-1.00,-1.0,2440
1298,2136298,17604,-4992,-2696,18495.66,30.18,-1.00,-1.0,2371
1300,2136300,17388,2152,1596,17593.21,30.04,-1.00,-1.0,2437
1303,2136303,17500,-3476,0,17841.88,30.13,-1.00,-1.0,2370
1306,2136306,14292,868,-2164,14480.94,30.04,-1.00,-1.0,2365
1311,2136311,15940,-2248,-764,16115.86,30.13,-1.00,-1.0,2438
1314,2136314,15736,2164,1120,15923.54,30.13,-1.00,-1.0,2374
1316,2136316,18764,-3464,908,19102.66,30.18,-1.00,-1.0,2439
1319,2136319,18340,3572,2096,18801.81,30.13,-1.00,-1.0,2374
1322,2136322,18008,-2772,1856,18314.39,30.18,-1.00,-1.0,2438
1325,2136325,16564,3484,940,16952.52,30.13,-1.00,-1.0,2378
1328,2136328,18000,-3284,2060,18412.72,30.08,-1.00,-1.0,2452
1330,2136330,17404,1708,876,17509.54,30.08,-1.00,-1.0,2382
1335,2136335,17112,-1124,1428,17208.23,30.18,-1.00,-1.0,2455
1338,2136338,16980,856,1692,17085.55,30.18,-1.00,-1.0,2380
1341,2136341,16912,-2328,828,17091.54,30.13,-1.00,-1.0,2441
1344,2136344,17668,2500,1452,17902.97,30.08,-1.00,-1.0,2380
1346,2136346,16640,-1536,2200,16854.94,30.04,-1.00,-1.0,2441
1349,2136349,16892,292,2612,17095.25,30.22,-1.00,-1.0,2373
1352,2136352,16124,1024,608,16167.92,30.13,-1.00,-1.0,2441
1355,2136355,15924,-1680,232,16014.06,30.13,-1.00,-1.0,2372
1357,2136357,18136,3288,1260,18474.66,30.08,-1.00,-1.0,2372
1362,2136362,16200,1060,876,16258.26,30.08,-1.00,-1.0,2452
1365,2136365,16432,172,1376,16490.41,30.18,-1.00,-1.0,2371
1368,2136368,16884,-1560,1928,17065.18,30.18,-1.00,-1.0,2446
1371,2136371,17236,168,1912,17342.54,30.08,-1.00,-1.0,2371
1373,2136373,17632,-1788,2124,17849.25,30.13,-1.00,-1.0,2446
1376,2136376,17504,220,2172,17639.62,30.13,-1.00,-1.0,2387
1379,2136379,16872,-1468,1080,16970.14,30.13,-1.00,-1.0,2438
1382,2136382,16668,-580,836,16699.03,30.13,-1.00,-1.0,2371
1387,2136387,16612,-92,684,16626.33,30.13,-1.00,-1.0,2455
1389,2136389,17736,-320,1892,17839.50,30.04,-1.00,-1.0,2383
1392,2136392,17292,960,892,17341.58,30.04,-1.00,-1.0,2438
1395,2136395,17080,-1356,1708,17218.66,30.04,-1.00,-1.0,2372
1397,2136397,17208,904,1172,17271.54,30.08,-1.00,-1.0,2369
1400,2136400,16220,-376,1180,16267.21,30.13,-1.00,-1.0,2456
1403,2136403,17032,-1148,1732,17158.29,30.18,-1.00,-1.0,2380
1406,2136406,17108,164,2088,17235.73,30.13,-1.00,-1.0,2439
1409,2136409,17444,-888,1292,17514.31,30.13,-1.00,-1.0,2377
1414,2136414,16676,-556,996,16714.97,30.13,-1.00,-1.0,2451
1416,2136416,17432,-1936,1468,17600.50,30.04,-1.00,-1.0,2379
1419,2136419,16700,320,732,16719.10,30.13,-1.00,-1.0,2445
1422,2136422,17272,-1028,948,17328.52,30.13,-1.00,-1.0,2372
1425,2136425,17072,704,1096,17121.62,30.13,-1.00,-1.0,2438
1428,2136428,17336,-1148,1148,17411.86,30.08,-1.00,-1.0,2443
1430,2136430,16980,540,680,17002.19,30.08,-1.00,-1.0,2423
1433,2136433,16860,-396,1036,16896.44,30.04,-1.00,-1.0,2387
1438,2136438,17104,796,904,17146.36,30.04,-1.00,-1.0,2456
1441,2136441,17280,-1104,1124,17351.67,30.04,-1.00,-1.0,2381
1443,2136443,17072,536,1120,17117.09,30.08,-1.00,-1.0,2371
1446,2136446,16836,-408,1068,16874.77,30.04,-1.00,-1.0,2446
1449,2136449,16856,-508,976,16891.87,30.13,-1.00,-1.0,2370
1452,2136452,16816,-480,1388,16880.01,30.13,-1.00,-1.0,2448
1455,2136455,17012,-456,776,17035.79,30.13,-1.00,-1.0,2375
1457,2136457,16888,328,1216,16934.90,30.18,-1.00,-1.0,2441
1460,2136460,17044,-764,1480,17125.19,30.13,-1.00,-1.0,2373
1465,2136465,17028,-324,1564,17102.74,30.08,-1.00,-1.0,2451
1468,2136468,17136,-84,1876,17238.59,30.13,-1.00,-1.0,2376
1470,2136470,16840,132,1472,16904.73,30.08,-1.00,-1.0,2439
1473,2136473,17004,192,1460,17067.64,30.08,-1.00,-1.0,2370
1476,2136476,17064,-60,1488,17128.86,29.94,-1.00,-1.0,2440
1479,2136479,17192,96,1656,17271.84,30.13,-1.00,-1.0,2379
1481,2136481,16836,-84,1448,16898.36,30.04,-1.00,-1.0,2379
1484,2136484,17072,0,1436,17132.29,30.08,-1.00,-1.0,2438
1487,2136487,17048,-620,1644,17138.30,30.08,-1.00,-1.0,2373
1492,2136492,16824,-536,1096,16868.18,30.04,-1.00,-1.0,2450
1494,2136494,17072,-788,1016,17120.35,30.13,-1.00,-1.0,2379
1497,2136497,17248,-948,1088,17308.26,30.08,-1.00,-1.0,2445
1500,2136500,17252,-476,1408,17315.90,30.04,-1.00,-1.0,2371
1503,2136503,17124,-724,1192,17180.70,30.08,-1.00,-1.0,2438
1505,2136505,16888,-176,1304,16939.18,30.08,-1.00,-1.0,2359
1508,2136508,17052,-764,1016,17099.32,30.08,-1.00,-1.0,2439
1511,2136511,16988,8,1096,17023.32,30.08,-1.00,-1.0,2358
1516,2136516,17024,-432,1208,17072.27,30.18,-1.00,-1.0,2456
1519,2136519,16996,48,1164,17035.88,30.22,-1.00,-1.0,2375
1521,2136521,17084,-524,1080,17126.12,30.18,-1.00,-1.0,2439
1524,2136524,17008,-100,1160,17047.80,30.08,-1.00,-1.0,2370
1527,2136527,17236,-704,1204,17292.34,30.22,-1.00,-1.0,2378
1530,2136530,17244,-300,1392,17302.69,30.13,-1.00,-1.0,2450
1532,2136532,17140,-640,1368,17206.41,30.22,-1.00,-1.0,2377
1535,2136535,17076,-472,1332,17134.38,30.08,-1.00,-1.0,2443
1538,2136538,17056,-568,1412,17123.77,30.13,-1.00,-1.0,2443
1543,2136543,16872,-92,1372,16927.94,29.99,-1.00,-1.0,2466
1546,2136546,16712,-384,1304,16767.20,30.18,-1.00,-1.0,2378
1549,2136549,16868,-20,1392,16925.35,30.18,-1.00,-1.0,2449
1551,2136551,16968,-200,1468,17032.56,30.08,-1.00,-1.0,2373
1554,2136554,17004,-76,1568,17076.31,30.04,-1.00,-1.0,2439
1557,2136557,17120,416,1368,17179.61,30.08,-1.00,-1.0,2358
1560,2136560,17180,-280,1396,17238.90,30.04,-1.00,-1.0,2444
1562,2136562,16968,56,1384,17024.44,30.22,-1.00,-1.0,2375
1565,2136565,17076,-372,1232,17124.43,30.04,-1.00,-1.0,2371
1570,2136570,17084,-424,1424,17148.49,30.04,-1.00,-1.0,2450
1573,2136573,17036,-516,1236,17088.57,30.13,-1.00,-1.0,2382
1576,2136576,16956,-152,1120,16993.63,30.08,-1.00,-1.0,2451
1578,2136578,16940,-332,916,16968.00,30.18,-1.00,-1.0,2379
1581,2136581,16984,-124,1128,17021.87,30.18,-1.00,-1.0,2448
1584,2136584,17008,-216,1272,17056.87,30.08,-1.00,-1.0,2360
1587,2136587,16980,-164,1236,17025.71,30.04,-1.00,-1.0,2437
1589,2136589,16992,-440,1416,17056.57,30.18,-1.00,-1.0,2373
1594,2136594,17052,-344,1488,17120.26,30.18,-1.00,-1.0,2456
1597,2136597,17132,-440,1300,17186.88,30.08,-1.00,-1.0,2374
1600,2136600,17076,-592,1060,17119.11,30.04,-1.00,-1.0,2442
1603,2136603,16940,-668,1212,16996.43,30.13,-1.00,-1.0,2371
1605,2136605,17112,-492,936,17144.64,30.13,-1.00,-1.0,2439
1608,2136608,17092,-488,1060,17131.79,30.22,-1.00,-1.0,2370
1611,2136611,16960,-528,988,16996.96,30.08,-1.00,-1.0,2438
1614,2136614,17080,-272,1208,17124.83,30.13,-1.00,-1.0,2378
1616,2136616,17028,-340,1440,17092.16,30.08,-1.00,-1.0,2380
1621,2136621,16968,-184,1532,17038.01,30.18,-1.00,-1.0,2459
1624,2136624,17024,-104,1456,17086.47,30.08,-1.00,-1.0,2384
1627,2136627,17088,-108,1528,17156.52,30.04,-1.00,-1.0,2439
1630,2136630,16908,-168,1356,16963.12,30.13,-1.00,-1.0,2369
1632,2136632,16976,-176,1252,17023.02,30.13,-1.00,-1.0,2440
1635,2136635,16984,-148,1240,17029.85,30.13,-1.00,-1.0,2371
1638,2136638,17044,-208,1024,17076.00,30.08,-1.00,-1.0,2438
1641,2136641,17072,-184,1128,17110.21,30.13,-1.00,-1.0,2378
1646,2136646,17024,-312,1256,17073.12,30.13,-1.00,-1.0,2457
1648,2136648,16976,-336,1352,17033.07,30.13,-1.00,-1.0,2374
1651,2136651,17036,-164,1392,17093.56,30.18,-1.00,-1.0,2439
1654,2136654,17056,-160,1580,17129.77,30.18,-1.00,-1.0,2371
1657,2136657,17088,4,1528,17156.18,30.08,-1.00,-1.0,2445
1660,2136660,16844,-148,1384,16901.41,30.18,-1.00,-1.0,2372
1662,2136662,16988,-204,1388,17045.83,29.94,-1.00,-1.0,2373
1665,2136665,17056,-364,1548,17129.97,30.13,-1.00,-1.0,2425
1668,2136668,17004,-428,1584,17082.98,30.13,-1.00,-1.0,2371
1673,2136673,16940,-544,1316,16999.75,30.08,-1.00,-1.0,2465
1675,2136675,17080,-484,1500,17152.57,30.08,-1.00,-1.0,2379
1678,2136678,17108,-536,1356,17170.02,30.13,-1.00,-1.0,2446
1681,2136681,17056,-412,1360,17115.10,30.13,-1.00,-1.0,2372
1684,2136684,17160,-432,1244,17210.46,30.13,-1.00,-1.0,2443
1686,2136686,17088,-468,1480,17158.36,30.04,-1.00,-1.0,2360
1689,2136689,16996,-512,1408,17061.91,30.04,-1.00,-1.0,2425
1692,2136692,16964,-492,1328,17023.01,30.13,-1.00,-1.0,2369
1697,2136697,16956,-420,1260,17007.94,30.04,-1.00,-1.0,2456
1699,2136699,17044,-316,1140,17085.01,30.13,-1.00,-1.0,2381
1702,2136702,16928,-364,980,16960.25,30.08,-1.00,-1.0,2428
1705,2136705,17020,-388,1184,17065.54,30.13,-1.00,-1.0,2371
1707,2136707,17064,-504,1052,17103.82,30.08,-1.00,-1.0,2369
1710,2136710,17032,-456,1060,17071.04,30.13,-1.00,-1.0,2456
1713,2136713,17052,-508,1004,17089.08,30.08,-1.00,-1.0,2376
1716,2136716,17080,-432,1140,17123.45,30.04,-1.00,-1.0,2428
1719,2136719,17236,-260,1132,17275.09,30.13,-1.00,-1.0,2374
1724,2136724,17084,-200,1152,17123.96,30.18,-1.00,-1.0,2458
1726,2136726,16904,-192,1100,16940.84,30.08,-1.00,-1.0,2373
1729,2136729,16932,-56,1044,16964.25,30.13,-1.00,-1.0,2453
1732,2136732,16864,-124,1236,16909.69,30.04,-1.00,-1.0,2377
1735,2136735,17000,-52,1180,17040.98,30.04,-1.00,-1.0,2446
1738,2136738,16956,-100,1200,16998.70,30.04,-1.00,-1.0,2378
1740,2136740,17028,-228,1352,17083.11,30.13,-1.00,-1.0,2441
1743,2136743,17008,-240,1244,17055.12,30.13,-1.00,-1.0,2369
1748,2136748,17008,-400,1428,17072.53,30.13,-1.00,-1.0,2446
1751,2136751,17068,-340,1360,17125.47,30.04,-1.00,-1.0,2377
1753,2136753,17052,-224,1372,17108.57,30.13,-1.00,-1.0,2370
1756,2136756,17076,-224,1344,17130.27,30.08,-1.00,-1.0,2440
1759,2136759,17112,-304,1516,17181.71,30.08,-1.00,-1.0,2369
1762,2136762,17068,-188,1304,17118.77,30.13,-1.00,-1.0,2448
1764,2136764,16936,-400,1220,16984.60,30.08,-1.00,-1.0,2370
1767,2136767,16920,-268,1312,16972.91,30.04,-1.00,-1.0,2452
1770,2136770,17056,-304,1408,17116.72,30.13,-1.00,-1.0,2378
1775,2136775,17064,-236,1360,17119.74,30.13,-1.00,-1.0,2451
1778,2136778,17008,-368,1408,17070.15,30.04,-1.00,-1.0,2384
1781,2136781,16964,-464,1412,17028.98,30.13,-1.00,-1.0,2450
1783,2136783,17060,-440,1276,17113.31,30.13,-1.00,-1.0,2378
1786,2136786,16924,-324,1324,16978.80,30.18,-1.00,-1.0,2440
1789,2136789,17020,-492,1196,17069.06,30.08,-1.00,-1.0,2370
1792,2136792,16988,-400,1256,17039.06,30.08,-1.00,-1.0,2447
1794,2136794,17028,-244,1284,17078.08,30.08,-1.00,-1.0,2371
1799,2136799,17112,-260,1272,17161.18,30.13,-1.00,-1.0,2439
1802,2136802,16976,-476,1176,17023.34,29.99,-1.00,-1.0,2374
1805,2136805,17028,-412,1248,17078.64,30.08,-1.00,-1.0,2378
1808,2136808,17096,-460,1444,17163.04,30.13,-1.00,-1.0,2438
1810,2136810,17028,-424,1484,17097.80,30.13,-1.00,-1.0,2370
1813,2136813,17028,-348,1284,17079.89,30.13,-1.00,-1.0,2452
1816,2136816,16920,-112,1184,16961.75,30.04,-1.00,-1.0,2373
1819,2136819,16988,-112,1324,17039.88,30.08,-1.00,-1.0,2447
1821,2136821,16944,-136,1256,16991.03,30.04,-1.00,-1.0,2376
1826,2136826,17044,-196,1036,17076.58,30.13,-1.00,-1.0,2460
1829,2136829,17072,-260,1252,17119.82,29.99,-1.00,-1.0,2389
1832,2136832,16916,-332,1392,16976.42,30.08,-1.00,-1.0,2440
1835,2136835,17080,-396,1360,17138.63,30.18,-1.00,-1.0,2371
1837,2136837,17104,-340,1176,17147.75,30.04,-1.00,-1.0,2442
1840,2136840,16944,-220,1244,16991.03,30.08,-1.00,-1.0,2369
1843,2136843,16976,-200,1132,17014.88,30.13,-1.00,-1.0,2440
1846,2136846,16912,-188,1188,16954.72,30.08,-1.00,-1.0,2429
1848,2136848,16872,-200,804,16892.33,30.13,-1.00,-1.0,2370
1853,2136853,17104,-156,1044,17136.54,30.04,-1.00,-1.0,2454
1856,2136856,17104,-276,1036,17137.57,30.13,-1.00,-1.0,2374
1859,2136859,17116,-308,1224,17162.47,30.08,-1.00,-1.0,2454
1862,2136862,17048,-360,1304,17101.59,30.13,-1.00,-1.0,2374
1865,2136865,17128,-352,1480,17195.43,30.18,-1.00,-1.0,2452
1867,2136867,17080,-448,1408,17143.79,30.08,-1.00,-1.0,2378
1870,2136870,17044,-468,1352,17103.94,30.04,-1.00,-1.0,2440
1873,2136873,16996,-320,1420,17058.22,30.08,-1.00,-1.0,2372
1878,2136878,16848,-248,1296,16899.59,30.22,-1.00,-1.0,2457
1880,2136880,17028,-312,1200,17073.08,30.13,-1.00,-1.0,2373
1883,2136883,16972,-140,1296,17021.99,30.13,-1.00,-1.0,2441
1886,2136886,17048,-260,1496,17115.49,30.04,-1.00,-1.0,2370
1889,2136889,17040,-276,1436,17102.63,30.18,-1.00,-1.0,2448
1892,2136892,16992,-356,1420,17054.95,30.08,-1.00,-1.0,2372
1894,2136894,17088,-376,1548,17162.09,30.18,-1.00,-1.0,2450
1897,2136897,17028,-444,1404,17091.55,30.08,-1.00,-1.0,2379
1900,2136900,17032,-516,1396,17096.90,30.13,-1.00,-1.0,2369
1904,2136904,17132,-380,1456,17197.96,30.08,-1.00,-1.0,2459
1907,2136907,17040,-448,1244,17091.22,30.08,-1.00,-1.0,2363
1910,2136910,17120,-428,1148,17163.79,30.22,-1.00,-1.0,2438
1913,2136913,17084,-432,1060,17122.30,30.08,-1.00,-1.0,2369
1915,2136915,17104,-448,988,17138.37,30.13,-1.00,-1.0,2442
1918,2136918,16976,-408,1208,17023.82,30.13,-1.00,-1.0,2370
1921,2136921,17012,-396,1124,17053.69,30.13,-1.00,-1.0,2439
1924,2136924,17016,-420,1368,17076.07,30.13,-1.00,-1.0,2368
1929,2136929,17028,-228,1188,17070.91,30.13,-1.00,-1.0,2451
1931,2136931,17060,-280,1180,17103.05,30.13,-1.00,-1.0,2374
1934,2136934,16960,-236,1224,17005.75,30.13,-1.00,-1.0,2441
1937,2136937,16984,-128,1180,17025.42,30.13,-1.00,-1.0,2370
1940,2136940,17092,-272,1056,17126.75,30.08,-1.00,-1.0,2445
1942,2136942,17008,-212,1216,17052.73,30.18,-1.00,-1.0,2369
1945,2136945,17052,-276,1140,17092.29,30.18,-1.00,-1.0,2373
1948,2136948,16996,-332,1320,17050.41,30.13,-1.00,-1.0,2440
1951,2136951,17008,-292,1232,17055.06,30.13,-1.00,-1.0,2368
1956,2136956,17012,-116,1372,17067.63,30.04,-1.00,-1.0,2457
1958,2136958,17032,-160,1392,17089.54,30.13,-1.00,-1.0,2383
1961,2136961,17036,-172,1424,17096.28,30.13,-1.00,-1.0,2437
1964,2136964,17036,-88,1460,17098.67,30.04,-1.00,-1.0,2370
1967,2136967,16996,-112,1380,17052.30,30.18,-1.00,-1.0,2448
1969,2136969,16952,-180,1276,17000.91,30.13,-1.00,-1.0,2373
1972,2136972,16968,-148,1344,17021.79,30.08,-1.00,-1.0,2439
1975,2136975,17004,-344,1316,17058.32,30.18,-1.00,-1.0,2370
1980,2136980,17064,-456,1352,17123.55,30.08,-1.00,-1.0,2450
1983,2136983,17152,-428,1184,17198.14,30.08,-1.00,-1.0,2381
1986,2136986,17072,-380,1300,17125.64,30.18,-1.00,-1.0,2444
1988,2136988,17124,-408,1204,17171.12,30.08,-1.00,-1.0,2379
1991,2136991,16932,-344,1264,16982.60,30.04,-1.00,-1.0,2371
1994,2136994,17036,-360,1216,17083.14,29.99,-1.00,-1.0,2439
1996,2136996,16864,-400,1340,16921.88,30.04,-1.00,-1.0,2370
1999,2136999,16908,-380,1224,16956.50,30.18,-1.00,-1.0,2440
2002,2137002,16972,-444,1236,17022.74,30.08,-1.00,-1.0,2370
2007,2137007,17100,-308,1120,17139.41,30.13,-1.00,-1.0,2439
2010,2137010,17080,-396,1224,17128.38,30.13,-1.00,-1.0,2378
2012,2137012,17084,-344,1228,17131.53,30.08,-1.00,-1.0,2442
2015,2137015,17124,-396,1212,17171.40,30.04,-1.00,-1.0,2369
2018,2137018,16976,-352,1076,17013.71,30.08,-1.00,-1.0,2441
2021,2137021,17068,-416,1140,17111.09,30.08,-1.00,-1.0,2377
2024,2137024,17080,-372,1332,17135.90,30.13,-1.00,-1.0,2452
2026,2137026,17100,-340,1208,17145.99,30.04,-1.00,-1.0,2379
2031,2137031,16976,-320,1268,17026.30,30.04,-1.00,-1.0,2459
2034,2137034,16876,-408,1192,16922.96,30.13,-1.00,-1.0,2387
2037,2137037,16920,-256,1356,16976.18,30.13,-1.00,-1.0,2441
2040,2137040,17024,-212,1280,17073.37,30.13,-1.00,-1.0,2372
2042,2137042,17000,-176,1236,17045.78,30.04,-1.00,-1.0,2369
2045,2137045,16900,-340,1236,16948.55,30.18,-1.00,-1.0,2441
2048,2137048,17080,-204,1208,17123.88,30.08,-1.00,-1.0,2378
2051,2137051,16984,-248,1348,17039.21,30.04,-1.00,-1.0,2441
2053,2137053,17020,-292,1240,17067.61,30.04,-1.00,-1.0,2375
2058,2137058,17028,-208,1392,17086.07,30.13,-1.00,-1.0,2454
2061,2137061,16972,-288,1204,17017.09,30.08,-1.00,-1.0,2374
2064,2137064,17048,-252,1304,17099.66,30.13,-1.00,-1.0,2443
2067,2137067,17060,-316,1364,17117.36,30.04,-1.00,-1.0,2375
2069,2137069,17124,-272,1312,17176.34,30.18,-1.00,-1.0,2444
2072,2137072,16976,-412,1328,17032.85,30.13,-1.00,-1.0,2360
2075,2137075,17024,-268,1392,17082.92,30.08,-1.00,-1.0,2438
2078,2137078,16964,-252,1244,17011.42,30.13,-1.00,-1.0,2366
2082,2137082,16984,-300,1368,17041.64,30.18,-1.00,-1.0,2452
2085,2137085,17048,-356,1364,17106.18,29.99,-1.00,-1.0,2361
2088,2137088,17072,-340,1264,17122.11,30.13,-1.00,-1.0,2382
2091,2137091,16956,-396,1468,17024.04,30.13,-1.00,-1.0,2451
2093,2137093,17008,-404,1328,17064.55,30.13,-1.00,-1.0,2377
2096,2137096,17024,-504,1288,17080.09,30.08,-1.00,-1.0,2440
2099,2137099,17052,-316,1468,17117.99,30.08,-1.00,-1.0,2370
2102,2137102,17104,-448,1364,17164.15,30.08,-1.00,-1.0,2439
2104,2137104,17096,-448,1240,17146.76,30.08,-1.00,-1.0,2371
2109,2137109,17024,-464,1208,17073.11,30.13,-1.00,-1.0,2446
2112,2137112,17024,-336,1260,17073.87,30.13,-1.00,-1.0,2377
2115,2137115,17032,-360,1256,17082.04,30.18,-1.00,-1.0,2437
2117,2137117,17064,-180,1120,17101.66,30.08,-1.00,-1.0,2356
2120,2137120,17072,-224,1148,17112.02,30.08,-1.00,-1.0,2429
2123,2137123,17032,-348,1264,17082.38,30.08,-1.00,-1.0,2374
2126,2137126,16992,-264,1120,17030.92,30.18,-1.00,-1.0,2443
2128,2137128,16924,-336,1196,16969.53,30.08,-1.00,-1.0,2370
2134,2137134,16948,-188,1156,16988.42,30.08,-1.00,-1.0,2453
2136,2137136,17008,-316,1120,17047.77,30.08,-1.00,-1.0,2381
2139,2137139,16884,-224,1064,16918.97,30.08,-1.00,-1.0,2370
2142,2137142,16948,-188,1128,16986.54,30.04,-1.00,-1.0,2445
2144,2137144,16964,-176,1176,17005.62,30.13,-1.00,-1.0,2369
2147,2137147,16976,-164,1308,17027.11,30.08,-1.00,-1.0,2459
2150,2137150,17036,-272,1260,17084.70,30.13,-1.00,-1.0,2378
2153,2137153,16992,-268,1284,17042.55,30.08,-1.00,-1.0,2441
2156,2137156,16976,-320,1364,17033.71,29.99,-1.00,-1.0,2370
2161,2137161,17048,-220,1196,17091.32,30.08,-1.00,-1.0,2454
2163,2137163,17044,-360,1228,17091.97,30.08,-1.00,-1.0,2384
2166,2137166,16996,-204,1348,17050.59,30.08,-1.00,-1.0,2440
2169,2137169,17156,-376,1300,17209.29,30.08,-1.00,-1.0,2371
2172,2137172,17088,-352,1256,17137.71,30.13,-1.00,-1.0,2439
2174,2137174,17056,-452,1372,17117.06,30.08,-1.00,-1.0,2369
2177,2137177,16980,-256,1420,17041.20,30.04,-1.00,-1.0,2441
2180,2137180,17012,-296,1364,17069.16,30.04,-1.00,-1.0,2371
2183,2137183,17020,-344,1312,17073.96,30.04,-1.00,-1.0,2370
2187,2137187,17028,-348,1468,17094.71,30.13,-1.00,-1.0,2453
2190,2137190,17016,-356,1304,17069.61,30.04,-1.00,-1.0,2375
2193,2137193,16988,-412,1172,17033.36,30.08,-1.00,-1.0,2453
2196,2137196,16984,-420,1376,17044.82,30.08,-1.00,-1.0,2377
2199,2137199,17068,-428,1328,17124.94,30.08,-1.00,-1.0,2450
2201,2137201,17060,-416,1168,17105.00,30.18,-1.00,-1.0,2378
2204,2137204,17108,-388,1112,17148.49,30.13,-1.00,-1.0,2440
2207,2137207,16992,-292,1208,17037.39,30.13,-1.00,-1.0,2368
2212,2137212,17000,-264,1188,17043.50,30.08,-1.00,-1.0,2451
2215,2137215,16944,-380,1376,17004.03,30.08,-1.00,-1.0,2373
2217,2137217,16964,-332,1208,17010.20,30.04,-1.00,-1.0,2441
2220,2137220,17012,-320,1252,17061.01,30.13,-1.00,-1.0,2370
2223,2137223,17072,-244,1296,17122.86,30.04,-1.00,-1.0,2441
2226,2137226,16988,-360,1164,17031.64,30.04,-1.00,-1.0,2369
2229,2137229,32767,-864,-32768,nan,30.08,-1.00,-1.0,2433
2231,2137231,13576,-2504,32767,35556.35,30.13,-1.00,-1.0,2370
2234,2137234,10760,-17980,-9324,22934.58,30.18,-1.00,-1.0,2375
2239,2137239,9380,-19604,9972,23911.13,30.08,-1.00,-1.0,2457
2242,2137242,20664,192,-2520,20817.98,30.08,-1.00,-1.0,2375
2244,2137244,19004,12744,3304,23118.78,30.08,-1.00,-1.0,2444
2247,2137247,13076,-19984,6528,24757.96,30.08,-1.00,-1.0,2384
2250,2137250,11872,12648,9280,19673.20,30.04,-1.00,-1.0,2438
2253,2137253,13444,-9500,-6780,17803.36,30.04,-1.00,-1.0,2371
2255,2137255,15388,-3344,2328,15918.31,30.13,-1.00,-1.0,2436
2258,2137258,11548,-1932,744,11732.11,30.13,-1.00,-1.0,2370
2263,2137263,24152,27464,2296,36645.08,30.13,-1.00,-1.0,2453
2266,2137266,18316,-9688,5968,21562.71,30.13,-1.00,-1.0,2374
2269,2137269,20944,7324,-4572,22653.81,30.13,-1.00,-1.0,2442
2271,2137271,19500,-528,-2316,19644.15,30.13,-1.00,-1.0,2371
2274,2137274,19556,-6852,3320,20985.93,30.08,-1.00,-1.0,2438
2277,2137277,13716,3364,1104,14165.59,30.04,-1.00,-1.0,2371
2280,2137280,23948,-1208,5840,24679.38,30.08,-1.00,-1.0,2442
2283,2137283,13972,1092,-1308,14075.51,30.13,-1.00,-1.0,2437
2288,2137288,18548,-4704,-2432,19289.13,30.08,-1.00,-1.0,2455
2290,2137290,15192,196,-3844,15672.00,30.13,-1.00,-1.0,2385
2293,2137293,21232,2144,2428,21477.66,29.94,-1.00,-1.0,2436
2296,2137296,17684,-1560,-148,17753.29,30.13,-1.00,-1.0,2373
2298,2137298,16732,-12,-72,16732.16,30.08,-1.00,-1.0,2356
2301,2137301,16964,-1164,484,17010.78,29.99,-1.00,-1.0,2440
2304,2137304,14556,-4048,-188,15109.56,30.08,-1.00,-1.0,2371
2307,2137307,15780,3828,1588,16315.14,30.04,-1.00,-1.0,2442
2310,2137310,16280,-1704,776,16387.32,30.18,-1.00,-1.0,2371
2314,2137314,16272,3056,720,16572.13,30.08,-1.00,-1.0,2448
2317,2137317,17720,-3216,1684,18088.03,30.04,-1.00,-1.0,2376
2320,2137320,17368,2016,1348,17536.50,29.99,-1.00,-1.0,2443
2322,2137322,16676,-1748,476,16774.12,29.99,-1.00,-1.0,2372
2325,2137325,16836,164,780,16854.86,30.13,-1.00,-1.0,2446
2328,2137328,16184,476,828,16212.16,30.13,-1.00,-1.0,2386
2331,2137331,15972,-2264,708,16147.19,30.04,-1.00,-1.0,2438
2334,2137334,17964,2748,1460,18231.52,30.04,-1.00,-1.0,2374
2339,2137339,16800,964,2700,17042.87,30.13,-1.00,-1.0,2451
2341,2137341,16156,1020,1104,16225.77,30.04,-1.00,-1.0,2386
2344,2137344,15940,-1112,-356,15982.71,30.04,-1.00,-1.0,2369
2347,2137347,16156,752,1092,16210.31,30.18,-1.00,-1.0,2436
2349,2137349,17432,-1168,324,17474.09,29.99,-1.00,-1.0,2370
2352,2137352,17040,732,96,17055.99,30.13,-1.00,-1.0,2453
2355,2137355,17740,-352,1520,17808.48,30.04,-1.00,-1.0,2382
2358,2137358,16760,-792,2112,16911.10,30.13,-1.00,-1.0,2422
2361,2137361,17300,-52,1380,17355.03,30.13,-1.00,-1.0,2375
2366,2137366,17640,776,2648,17854.51,30.13,-1.00,-1.0,2447
2368,2137368,17104,-1688,720,17202.17,30.04,-1.00,-1.0,2381
2371,2137371,16300,-360,528,16312.52,30.04,-1.00,-1.0,2442
2374,2137374,16916,-340,1764,17011.12,30.13,-1.00,-1.0,2373
2377,2137377,17000,-60,1648,17079.80,30.13,-1.00,-1.0,2480
2380,2137380,16972,336,604,16986.07,30.04,-1.00,-1.0,2381
2382,2137382,17164,432,2200,17309.81,30.18,-1.00,-1.0,2370
2385,2137385,17144,-976,1072,17205.19,30.08,-1.00,-1.0,2437
2388,2137388,17408,60,1360,17461.15,30.18,-1.00,-1.0,2369
2393,2137393,17016,-1360,2328,17228.28,30.08,-1.00,-1.0,2447
2395,2137395,17176,184,1992,17292.11,30.08,-1.00,-1.0,2372
2398,2137398,17328,-1000,1148,17394.75,30.13,-1.00,-1.0,2442
2401,2137401,17624,252,1996,17738.46,30.08,-1.00,-1.0,2370
2404,2137404,17720,-2084,1148,17879.02,30.04,-1.00,-1.0,2442
2407,2137407,17172,-520,1768,17270.61,30.13,-1.00,-1.0,2372
2409,2137409,16332,-328,600,16346.31,30.04,-1.00,-1.0,2445
2412,2137412,17020,-624,920,17056.27,30.13,-1.00,-1.0,2387
2417,2137417,17328,-1088,1144,17399.77,30.13,-1.00,-1.0,2463
2420,2137420,16844,436,548,16858.55,30.13,-1.00,-1.0,2361
2423,2137423,17124,-884,1308,17196.62,30.08,-1.00,-1.0,2445
2425,2137425,16860,132,768,16878.00,30.08,-1.00,-1.0,2377
2428,2137428,17160,124,844,17181.19,30.08,-1.00,-1.0,2368
2431,2137431,17200,-604,1168,17250.19,30.13,-1.00,-1.0,2446
2433,2137433,16904,640,1240,16961.50,30.13,-1.00,-1.0,2372
2436,2137436,17236,-1112,1304,17320.99,30.13,-1.00,-1.0,2449
2439,2137439,17040,152,1372,17095.82,30.04,-1.00,-1.0,2379
2444,2137444,16864,-380,1160,16908.12,30.22,-1.00,-1.0,2447
2447,2137447,16884,-64,1616,16961.28,30.13,-1.00,-1.0,2378
2450,2137450,17000,-632,1552,17082.39,30.18,-1.00,-1.0,2446
2452,2137452,17104,244,1608,17181.15,29.99,-1.00,-1.0,2378
2455,2137455,16976,-444,1532,17050.77,30.08,-1.00,-1.0,2438
2458,2137458,16972,144,2020,17092.39,30.08,-1.00,-1.0,2373
2461,2137461,16948,124,1312,16999.16,30.13,-1.00,-1.0,2442
2463,2137463,16992,220,1428,17053.32,30.08,-1.00,-1.0,2371
2466,2137466,17192,-32,1740,17279.86,30.13,-1.00,-1.0,2369
2471,2137471,16900,-272,1496,16968.26,30.04,-1.00,-1.0,2450
2474,2137474,16904,80,1524,16972.75,30.04,-1.00,-1.0,2376
2477,2137477,16972,-924,1432,17057.35,30.18,-1.00,-1.0,2452
2479,2137479,16884,-476,896,16914.46,30.18,-1.00,-1.0,2378
2482,2137482,16868,-748,904,16908.76,29.99,-1.00,-1.0,2445
2485,2137485,17036,-1128,804,17092.22,30.18,-1.00,-1.0,2358
2488,2137488,17316,-224,1364,17371.08,30.08,-1.00,-1.0,2436
2490,2137490,17168,-904,1208,17234.17,30.08,-1.00,-1.0,2372
2496,2137496,16988,-672,964,17028.59,29.94,-1.00,-1.0,2447
2499,2137499,17008,-392,1028,17043.55,30.04,-1.00,-1.0,2371
2501,2137501,16988,24,1092,17023.08,30.04,-1.00,-1.0,2440
2504,2137504,16912,-476,1064,16952.12,30.04,-1.00,-1.0,2371
2507,2137507,16964,152,1220,17008.49,30.08,-1.00,-1.0,2438
2510,2137510,16844,-456,924,16875.49,30.04,-1.00,-1.0,2373
2512,2137512,17176,-444,1104,17217.17,30.08,-1.00,-1.0,2378
2515,2137515,17056,-580,1200,17108.00,30.04,-1.00,-1.0,2438
2518,2137518,17236,-332,1396,17295.63,30.08,-1.00,-1.0,2371
2523,2137523,17092,-744,1204,17150.50,30.18,-1.00,-1.0,2453
2525,2137525,17184,-364,1416,17246.08,29.99,-1.00,-1.0,2379
2528,2137528,17108,-608,1368,17173.37,30.13,-1.00,-1.0,2439
2531,2137531,17044,-148,1464,17107.40,30.13,-1.00,-1.0,2370
2534,2137534,16824,-184,1368,16880.53,30.04,-1.00,-1.0,2444
2536,2137536,16756,-272,1488,16824.14,30.13,-1.00,-1.0,2370
2539,2137539,16760,284,1444,16824.49,29.99,-1.00,-1.0,2436
2542,2137542,16956,-236,1464,17020.72,30.13,-1.00,-1.0,2369
2547,2137547,17164,36,1524,17231.56,30.04,-1.00,-1.0,2447
2550,2137550,17168,-32,1404,17225.34,30.13,-1.00,-1.0,2379
2552,2137552,17100,96,1400,17157.48,30.08,-1.00,-1.0,2379
2555,2137555,17040,-508,1020,17078.06,30.13,-1.00,-1.0,2439
2558,2137558,17044,-216,1140,17083.45,30.08,-1.00,-1.0,2372
2561,2137561,17124,-712,1116,17175.09,30.04,-1.00,-1.0,2436
2563,2137563,17044,-284,1156,17085.52,30.04,-1.00,-1.0,2370
2566,2137566,17016,-324,828,17039.21,30.13,-1.00,-1.0,2438
2569,2137569,17000,-212,1028,17032.37,30.22,-1.00,-1.0,2371
2574,2137574,17004,-260,1308,17056.21,30.13,-1.00,-1.0,2455
2577,2137577,16860,-64,1188,16901.92,30.13,-1.00,-1.0,2376
2580,2137580,16964,-556,1528,17041.75,30.04,-1.00,-1.0,2443
2582,2137582,17048,-532,1568,17128.22,30.04,-1.00,-1.0,2371
2585,2137585,17120,-356,1520,17191.03,30.18,-1.00,-1.0,2440
2588,2137588,17144,-596,1156,17193.26,30.13,-1.00,-1.0,2372
2591,2137591,16980,-728,1080,17029.88,30.08,-1.00,-1.0,2443
2593,2137593,17112,-672,1028,17156.02,30.18,-1.00,-1.0,2369
2596,2137596,17024,-476,1080,17064.86,29.94,-1.00,-1.0,2372
2601,2137601,16940,-500,1156,16986.76,30.08,-1.00,-1.0,2462
2604,2137604,17088,-468,1060,17127.24,30.08,-1.00,-1.0,2374
2607,2137607,17084,-396,1448,17149.83,30.04,-1.00,-1.0,2447
2609,2137609,17104,-316,1460,17169.11,30.13,-1.00,-1.0,2374
2612,2137612,17036,-152,1520,17104.35,30.08,-1.00,-1.0,2438
2615,2137615,17052,-64,1644,17131.19,30.13,-1.00,-1.0,2369
2618,2137618,16912,-60,1388,16968.97,30.18,-1.00,-1.0,2443
2620,2137620,17008,-268,1264,17057.01,30.08,-1.00,-1.0,2371
2625,2137625,17060,-160,1088,17095.41,30.13,-1.00,-1.0,2449
2628,2137628,17068,-280,1016,17100.51,30.04,-1.00,-1.0,2374
2631,2137631,17084,-188,1176,17125.46,30.18,-1.00,-1.0,2438
2634,2137634,17020,-212,1236,17066.14,30.04,-1.00,-1.0,2377
2637,2137637,17040,-348,1364,17098.05,30.18,-1.00,-1.0,2438
2639,2137639,17040,-288,1320,17093.48,30.08,-1.00,-1.0,2375
2642,2137642,16996,-236,1404,17055.53,30.13,-1.00,-1.0,2450
2645,2137645,17036,-44,1660,17116.74,30.13,-1.00,-1.0,2373
2647,2137647,17172,-44,1640,17250.19,30.04,-1.00,-1.0,2372
2652,2137652,16984,12,1408,17042.27,30.13,-1.00,-1.0,2453
2655,2137655,17028,-388,1512,17099.40,30.13,-1.00,-1.0,2373
2658,2137658,16956,-408,1360,17015.35,30.18,-1.00,-1.0,2427
2661,2137661,16956,-508,1320,17014.89,30.13,-1.00,-1.0,2371
2663,2137663,16948,-536,1280,17004.72,30.08,-1.00,-1.0,2438
2666,2137666,17140,-492,1296,17195.97,30.08,-1.00,-1.0,2371
2669,2137669,17044,-552,1208,17095.67,30.08,-1.00,-1.0,2437
2672,2137672,17064,-444,1372,17124.82,29.99,-1.00,-1.0,2378
2677,2137677,17032,-592,1272,17089.69,30.08,-1.00,-1.0,2448
2679,2137679,16944,-472,1296,17000.04,30.18,-1.00,-1.0,2372
2682,2137682,17020,-420,1304,17075.05,30.13,-1.00,-1.0,2440
2685,2137685,16992,-484,1176,17039.52,30.08,-1.00,-1.0,2370
2688,2137688,16980,-336,1056,17016.12,30.13,-1.00,-1.0,2445
2691,2137691,16972,-380,1052,17008.82,30.13,-1.00,-1.0,2373
2693,2137693,17008,-356,1056,17044.47,30.13,-1.00,-1.0,2356
2696,2137696,17084,-472,1104,17126.14,30.18,-1.00,-1.0,2434
2699,2137699,17020,-424,712,17040.16,30.13,-1.00,-1.0,2369
2703,2137703,17156,-348,1044,17191.26,30.08,-1.00,-1.0,2448
2706,2137706,17116,-312,1044,17150.65,29.99,-1.00,-1.0,2359
2709,2137709,17168,-220,1076,17203.09,30.13,-1.00,-1.0,2439
2712,2137712,17096,-100,1236,17140.91,30.18,-1.00,-1.0,2378
2715,2137715,16956,-124,1144,16995.00,30.04,-1.00,-1.0,2436
2717,2137717,16900,-188,1148,16939.99,30.04,-1.00,-1.0,2373
2720,2137720,16868,-140,1016,16899.15,30.13,-1.00,-1.0,2453
2723,2137723,16876,16,1268,16923.58,30.22,-1.00,-1.0,2379
2727,2137727,17060,-120,1368,17115.18,30.04,-1.00,-1.0,2449
2730,2137730,17000,-324,1304,17053.02,30.04,-1.00,-1.0,2373
2733,2137733,17120,-360,1408,17181.57,30.13,-1.00,-1.0,2452
2736,2137736,17116,-300,1476,17182.14,30.13,-1.00,-1.0,2376
2738,2137738,16984,-316,1492,17052.34,30.08,-1.00,-1.0,2356
2741,2137741,17080,-328,1612,17159.04,29.99,-1.00,-1.0,2426
2744,2137744,17112,-268,1496,17179.36,30.08,-1.00,-1.0,2372
2747,2137747,17072,-204,1324,17124.48,30.08,-1.00,-1.0,2441
2749,2137749,16900,-220,1332,16953.84,30.18,-1.00,-1.0,2370
2754,2137754,16968,-332,1152,17010.30,29.99,-1.00,-1.0,2449
2757,2137757,17072,-272,1360,17128.24,30.08,-1.00,-1.0,2371
2760,2137760,17076,-284,1444,17139.30,30.04,-1.00,-1.0,2441
2763,2137763,17048,-352,1384,17107.71,30.08,-1.00,-1.0,2371
2766,2137766,17036,-348,1444,17100.63,30.13,-1.00,-1.0,2438
2768,2137768,17076,-292,1348,17131.61,30.04,-1.00,-1.0,2370
2771,2137771,17008,-360,1164,17051.59,30.08,-1.00,-1.0,2452
2774,2137774,17008,-376,1212,17055.27,30.04,-1.00,-1.0,2377
2779,2137779,16940,-312,1160,16982.54,30.13,-1.00,-1.0,2436
2781,2137781,17044,-320,1288,17095.59,30.13,-1.00,-1.0,2373
2784,2137784,17060,-288,1252,17108.30,30.08,-1.00,-1.0,2384
2787,2137787,17076,-244,1232,17122.12,30.08,-1.00,-1.0,2439
2790,2137790,17180,-348,1344,17236.00,30.04,-1.00,-1.0,2438
2793,2137793,17060,-348,1380,17119.26,30.08,-1.00,-1.0,2421
2795,2137795,16996,-396,1460,17063.19,30.18,-1.00,-1.0,2390
2798,2137798,16916,-396,1492,16986.29,30.13,-1.00,-1.0,2419
2801,2137801,17032,-424,1340,17089.89,30.04,-1.00,-1.0,2385
2806,2137806,17016,-232,1388,17074.09,30.04,-1.00,-1.0,2447
2809,2137809,16932,-184,1444,16994.46,30.04,-1.00,-1.0,2374
2811,2137811,16884,-372,1212,16931.53,30.13,-1.00,-1.0,2437
2814,2137814,17044,-344,1224,17091.36,30.04,-1.00,-1.0,2371
2817,2137817,17072,-324,1104,17110.73,30.18,-1.00,-1.0,2438
2820,2137820,17088,-328,1320,17142.04,30.13,-1.00,-1.0,2378
2823,2137823,17032,-412,1292,17085.90,30.18,-1.00,-1.0,2450
2825,2137825,17132,-416,1320,17187.81,30.08,-1.00,-1.0,2380
2830,2137830,16900,-376,1240,16949.60,30.18,-1.00,-1.0,2457
2833,2137833,16912,-200,1232,16957.99,30.08,-1.00,-1.0,2390
2836,2137836,16948,-132,1116,16985.22,30.04,-1.00,-1.0,2370
2838,2137838,16984,-116,1052,17016.95,30.13,-1.00,-1.0,2436
2841,2137841,16964,-124,1052,16997.04,30.13,-1.00,-1.0,2370
2844,2137844,16992,-216,1136,17031.30,30.08,-1.00,-1.0,2439
2847,2137847,17104,-224,1044,17137.30,30.13,-1.00,-1.0,2379
2850,2137850,17060,-392,1280,17112.44,30.08,-1.00,-1.0,2440
2852,2137852,17176,-360,1224,17223.32,30.18,-1.00,-1.0,2377
2857,2137857,17056,-440,1516,17128.89,30.08,-1.00,-1.0,2450
2860,2137860,17132,-336,1424,17194.36,30.08,-1.00,-1.0,2382
2863,2137863,16932,-440,1380,16993.84,30.08,-1.00,-1.0,2440
2866,2137866,16892,-324,1316,16946.28,30.08,-1.00,-1.0,2374
2868,2137868,16948,-272,1352,17004.02,30.13,-1.00,-1.0,2442
2871,2137871,17008,-260,1448,17071.51,30.04,-1.00,-1.0,2373
2874,2137874,17040,-308,1480,17106.92,30.13,-1.00,-1.0,2436
2877,2137877,16904,-392,1436,16969.41,30.13,-1.00,-1.0,2370
2879,2137879,16980,-352,1540,17053.33,30.08,-1.00,-1.0,2371
2884,2137884,17008,-468,1384,17070.63,29.99,-1.00,-1.0,2447
2887,2137887,17008,-508,1340,17068.27,30.08,-1.00,-1.0,2374
2890,2137890,17060,-436,1436,17125.88,30.18,-1.00,-1.0,2442
2893,2137893,17000,-448,1300,17055.52,30.08,-1.00,-1.0,2372
2895,2137895,16964,-436,1120,17006.52,30.13,-1.00,-1.0,2446
2898,2137898,16964,-412,992,16997.97,30.08,-1.00,-1.0,2387
2901,2137901,17064,-432,1124,17106.43,30.13,-1.00,-1.0,2438
2904,2137904,17104,-408,1020,17139.24,30.13,-1.00,-1.0,2373
2908,2137908,17072,-408,1188,17118.15,30.04,-1.00,-1.0,2449
2911,2137911,16928,-308,1304,16980.94,30.08,-1.00,-1.0,2376
2914,2137914,17028,-224,1296,17078.72,30.08,-1.00,-1.0,2435
2917,2137917,17044,-300,1320,17097.67,30.08,-1.00,-1.0,2378
2920,2137920,17060,-328,1384,17119.19,30.04,-1.00,-1.0,2445
2922,2137922,17016,-212,1272,17064.79,30.08,-1.00,-1.0,2379
2925,2137925,17012,-308,1280,17062.87,30.04,-1.00,-1.0,2443
2928,2137928,16992,-284,1308,17044.63,30.04,-1.00,-1.0,2373
2930,2137930,16948,-260,1252,16996.17,30.13,-1.00,-1.0,2369
2935,2137935,16992,-364,1152,17034.89,30.13,-1.00,-1.0,2440
2938,2137938,17020,-296,1228,17066.81,30.04,-1.00,-1.0,2377
2941,2137941,17100,-376,1456,17165.99,30.04,-1.00,-1.0,2437
2943,2137943,17024,-272,1484,17090.72,30.04,-1.00,-1.0,2373
2946,2137946,16984,-248,1568,17058.03,30.18,-1.00,-1.0,2437
2949,2137949,16984,-108,1400,17041.95,30.04,-1.00,-1.0,2370
2952,2137952,17028,-28,1456,17090.16,30.18,-1.00,-1.0,2444
2954,2137954,16920,-116,1220,16964.32,30.04,-1.00,-1.0,2373
2959,2137959,16980,-200,1356,17035.23,30.18,-1.00,-1.0,2448
2962,2137962,17132,-212,1408,17191.07,30.08,-1.00,-1.0,2374
2965,2137965,16960,-248,1352,17015.61,30.18,-1.00,-1.0,2435
2968,2137968,17060,-312,1356,17116.65,30.18,-1.00,-1.0,2377
2971,2137971,17124,-432,1352,17182.72,30.04,-1.00,-1.0,2446
2973,2137973,17200,-512,1276,17254.86,30.13,-1.00,-1.0,2379
2976,2137976,17124,-356,1124,17164.54,30.13,-1.00,-1.0,2373
2979,2137979,17060,-368,1128,17101.21,30.08,-1.00,-1.0,2440
2981,2137981,16992,-412,1188,17038.46,30.13,-1.00,-1.0,2371
2987,2137987,16936,-232,1260,16984.39,30.04,-1.00,-1.0,2449
2989,2137989,16984,-272,1276,17034.04,30.13,-1.00,-1.0,2381
2992,2137992,16964,-148,1156,17003.99,30.08,-1.00,-1.0,2437
2995,2137995,17028,-288,1240,17075.52,30.08,-1.00,-1.0,2357
2998,2137998,17080,-392,1248,17130.02,29.99,-1.00,-1.0,2440
3000,2138000,17048,-416,1420,17112.09,30.04,-1.00,-1.0,2371
3003,2138003,17052,-488,1248,17104.57,30.18,-1.00,-1.0,2438
3006,2138006,17036,-448,1136,17079.71,30.08,-1.00,-1.0,2371
3011,2138011,17044,-436,1216,17092.88,30.08,-1.00,-1.0,2448
3014,2138014,17044,-384,1340,17100.91,29.99,-1.00,-1.0,2376
3016,2138016,16992,-360,1368,17050.78,30.13,-1.00,-1.0,2437
3019,2138019,16892,-424,1428,16957.55,29.99,-1.00,-1.0,2372
3022,2138022,16984,-392,1372,17043.83,30.04,-1.00,-1.0,2438
3025,2138025,16976,-304,1328,17030.58,30.13,-1.00,-1.0,2373
3027,2138027,16940,-320,1292,16992.21,30.13,-1.00,-1.0,2377
3030,2138030,17028,-192,1200,17071.31,30.18,-1.00,-1.0,2436
3033,2138033,17020,-184,1324,17072.41,30.08,-1.00,-1.0,2370
3038,2138038,17144,-256,1212,17188.70,30.04,-1.00,-1.0,2436
3041,2138041,16992,-252,1292,17042.91,30.13,-1.00,-1.0,2385
3043,2138043,17096,-244,1180,17138.41,30.08,-1.00,-1.0,2438
3046,2138046,17036,-360,1156,17078.97,30.08,-1.00,-1.0,2370
3049,2138049,17016,-396,1328,17072.34,30.13,-1.00,-1.0,2441
3052,2138052,16996,-276,1304,17048.19,29.99,-1.00,-1.0,2369
3054,2138054,17000,-328,1324,17054.63,30.04,-1.00,-1.0,2437
3057,2138057,17036,-308,1352,17092.34,30.04,-1.00,-1.0,2371
3062,2138062,17004,-284,1264,17053.28,30.08,-1.00,-1.0,2448
3065,2138065,16940,-272,1452,17004.29,30.08,-1.00,-1.0,2375
3068,2138068,17008,-264,1520,17077.83,30.13,-1.00,-1.0,2444
3070,2138070,16988,-248,1352,17043.52,30.13,-1.00,-1.0,2370
3073,2138073,17020,-216,1228,17065.61,30.08,-1.00,-1.0,2383
3076,2138076,17084,-220,1348,17138.51,30.08,-1.00,-1.0,2439
3079,2138079,17056,-316,1404,17116.61,30.08,-1.00,-1.0,2374
3081,2138081,16960,-336,1356,17017.44,30.04,-1.00,-1.0,2436
3084,2138084,17032,-368,1356,17089.86,29.99,-1.00,-1.0,2368
3089,2138089,17104,-312,1332,17158.62,30.08,-1.00,-1.0,2455
3092,2138092,17060,-260,1256,17108.15,30.13,-1.00,-1.0,2427
3095,2138095,17012,-356,1448,17077.22,29.99,-1.00,-1.0,2433
3098,2138098,16964,-372,1336,17020.59,30.08,-1.00,-1.0,2387
3100,2138100,16948,-412,1288,17001.87,30.04,-1.00,-1.0,2421
3103,2138103,16984,-336,1164,17027.16,30.08,-1.00,-1.0,2386
3106,2138106,17012,-404,1116,17053.35,30.13,-1.00,-1.0,2421
3109,2138109,16984,-308,1292,17035.86,30.04,-1.00,-1.0,2386
3114,2138114,16996,-312,1116,17035.46,30.04,-1.00,-1.0,2441
3116,2138116,17036,-336,1056,17072.00,30.04,-1.00,-1.0,2380
3119,2138119,16928,-228,1072,16963.44,29.99,-1.00,-1.0,2449
3122,2138122,16980,-304,1132,17020.41,30.08,-1.00,-1.0,2372
3124,2138124,16992,-276,1008,17024.11,30.08,-1.00,-1.0,2371
3127,2138127,17036,-312,1104,17074.59,30.13,-1.00,-1.0,2439
3130,2138130,16960,-204,1084,16995.83,30.04,-1.00,-1.0,2372
3133,2138133,17028,-236,1208,17072.43,30.13,-1.00,-1.0,2437
3135,2138135,17076,-248,1292,17126.60,30.22,-1.00,-1.0,2358
3140,2138140,16984,-332,1400,17044.84,30.08,-1.00,-1.0,2445
3143,2138143,17060,-288,1272,17109.78,30.08,-1.00,-1.0,2380
3146,2138146,17056,-332,1340,17111.78,30.13,-1.00,-1.0,2444
3148,2138148,16988,-228,1468,17052.83,30.04,-1.00,-1.0,2372
3151,2138151,17000,-368,1280,17052.09,30.04,-1.00,-1.0,2440
3154,2138154,17128,-468,1364,17188.60,30.22,-1.00,-1.0,2371
3157,2138157,17072,-232,1488,17138.29,30.08,-1.00,-1.0,2443
3159,2138159,17040,-344,1380,17099.25,30.08,-1.00,-1.0,2370
3164,2138164,16956,-360,1320,17011.11,30.04,-1.00,-1.0,2428
3167,2138167,17052,-320,1380,17110.74,30.04,-1.00,-1.0,2381
3170,2138170,17040,-368,1420,17103.02,30.18,-1.00,-1.0,2377
3173,2138173,17052,-360,1404,17113.49,30.04,-1.00,-1.0,2445
3175,2138175,17020,-368,1288,17072.63,30.18,-1.00,-1.0,2380
3178,2138178,16992,-420,1556,17068.26,30.04,-1.00,-1.0,2438
3181,2138181,17116,-428,1376,17176.55,30.04,-1.00,-1.0,2373
3184,2138184,17036,-500,1252,17089.26,30.13,-1.00,-1.0,2441
3186,2138186,17072,-416,1412,17135.34,30.13,-1.00,-1.0,2372
3194,2138194,17064,-404,1284,17117.01,30.08,-1.00,-1.0,2442
3196,2138196,17068,-360,1260,17118.23,30.08,-1.00,-1.0,2380
3199,2138199,17032,-320,1296,17084.23,30.18,-1.00,-1.0,2449
3202,2138202,17032,-284,1084,17068.82,30.08,-1.00,-1.0,2386
3205,2138205,16928,-320,1124,16968.29,30.04,-1.00,-1.0,2439
3208,2138208,17088,-256,1264,17136.60,30.22,-1.00,-1.0,2370
3210,2138210,17048,-188,1268,17096.12,30.13,-1.00,-1.0,2436
3213,2138213,17036,-260,1308,17088.12,30.18,-1.00,-1.0,2431
3218,2138218,16972,-332,1312,17025.87,30.13,-1.00,-1.0,2454
3221,2138221,16980,-196,1196,17023.20,30.13,-1.00,-1.0,2382
3224,2138224,17008,-292,1160,17050.01,30.13,-1.00,-1.0,2369
3227,2138227,17036,-192,1308,17087.22,30.08,-1.00,-1.0,2436
3229,2138229,16972,-276,1256,17020.65,30.08,-1.00,-1.0,2372
3232,2138232,16984,-268,1252,17032.19,30.04,-1.00,-1.0,2455
3235,2138235,16940,-252,1352,16995.73,29.99,-1.00,-1.0,2380
3238,2138238,16968,-296,1264,17017.59,30.04,-1.00,-1.0,2447
3240,2138240,16960,-200,1236,17006.15,30.04,-1.00,-1.0,2378
3245,2138245,17052,-380,1204,17098.68,30.04,-1.00,-1.0,2449
3248,2138248,17048,-268,1384,17106.19,30.04,-1.00,-1.0,2380
3251,2138251,18376,-852,1968,18500.71,30.08,-1.00,-1.0,2438
3254,2138254,32767,5048,-32768,nan,30.13,-1.00,-1.0,2365
3256,2138256,9836,-5764,26680,29013.67,30.18,-1.00,-1.0,2437
3259,2138259,8368,-14700,-10280,19793.73,30.13,-1.00,-1.0,2368
3262,2138262,17396,7496,13456,23235.21,30.08,-1.00,-1.0,2438
3265,2138265,9752,-19272,12624,25017.53,30.18,-1.00,-1.0,2368
3270,2138270,20344,7660,3544,22025.30,30.18,-1.00,-1.0,2445
3272,2138272,14236,-18480,3420,23576.91,30.08,-1.00,-1.0,2378
3275,2138275,10896,8144,9924,16838.45,30.04,-1.00,-1.0,2377
3278,2138278,17208,-6872,-5784,19411.19,30.13,-1.00,-1.0,2441
3281,2138281,15828,-676,3164,16155.29,30.13,-1.00,-1.0,2377
3283,2138283,11872,856,2600,12183.48,29.99,-1.00,-1.0,2440
3286,2138286,15748,-8772,-2640,18218.59,30.04,-1.00,-1.0,2369
3289,2138289,6596,864,-3416,7478.15,29.99,-1.00,-1.0,2438
3292,2138292,19196,-11012,8272,23625.76,30.08,-1.00,-1.0,2368
3297,2138297,18820,2840,-1200,19070.87,30.08,-1.00,-1.0,2443
3299,2138299,18732,-6492,2384,19967.91,29.99,-1.00,-1.0,2379
3302,2138302,14276,2504,-204,14495.37,30.08,-1.00,-1.0,2442
3305,2138305,22484,-4712,3688,23266.60,30.18,-1.00,-1.0,2368
3308,2138308,14528,3368,588,14924.88,30.04,-1.00,-1.0,2446
3310,2138310,16120,-1220,5232,16991.66,30.08,-1.00,-1.0,2369
3313,2138313,17448,2960,1080,17730.22,30.13,-1.00,-1.0,2454
3316,2138316,13912,-3892,-4020,14995.06,30.04,-1.00,-1.0,2376
3322,2138322,18148,-764,-508,18171.18,30.08,-1.00,-1.0,2460
3324,2138324,18984,-2084,-1296,19141.97,30.08,-1.00,-1.0,2377
3327,2138327,16764,3772,356,17186.81,30.13,-1.00,-1.0,2439
3330,2138330,16372,-3772,2336,16962.53,30.13,-1.00,-1.0,2370
3333,2138333,18636,2840,-412,18855.66,30.04,-1.00,-1.0,2375
3335,2138335,16216,-4404,1576,16877.13,30.08,-1.00,-1.0,2440
3338,2138338,16688,3064,-492,16974.08,30.13,-1.00,-1.0,2371
3341,2138341,17172,-2424,2968,17594.38,30.08,-1.00,-1.0,2436
3344,2138344,16328,-1788,1000,16456.02,30.08,-1.00,-1.0,2368
3348,2138348,17940,-2228,2776,18289.72,30.08,-1.00,-1.0,2454
3351,2138351,17852,1472,1624,17986.05,30.04,-1.00,-1.0,2375
3354,2138354,17440,-852,-652,17472.97,30.08,-1.00,-1.0,2440
3357,2138357,15672,-1592,1032,15786.42,29.99,-1.00,-1.0,2368
3359,2138359,16192,312,2308,16358.64,30.04,-1.00,-1.0,2439
3362,2138362,16048,-1440,1560,16187.82,30.04,-1.00,-1.0,2369
3365,2138365,17220,1764,124,17310.56,30.04,-1.00,-1.0,2440
3368,2138368,16776,-912,1964,16915.18,30.04,-1.00,-1.0,2377
3373,2138373,16852,1136,1936,17000.84,30.04,-1.00,-1.0,2450
3375,2138375,16412,12,912,16437.32,30.13,-1.00,-1.0,2374
3378,2138378,17012,-364,1104,17051.67,30.13,-1.00,-1.0,2384
3381,2138381,17836,-312,1788,17928.11,30.08,-1.00,-1.0,2438
3384,2138384,16644,-1524,2084,16843.05,30.18,-1.00,-1.0,2367
3386,2138386,17148,-512,1740,17243.66,30.04,-1.00,-1.0,2441
3389,2138389,17072,-952,1640,17176.99,29.99,-1.00,-1.0,2370
3392,2138392,16436,-712,1000,16481.78,30.13,-1.00,-1.0,2438
3395,2138395,17768,-628,1412,17835.08,30.13,-1.00,-1.0,2367
3400,2138400,16980,-128,1536,17049.81,30.04,-1.00,-1.0,2453
3402,2138402,16888,-104,1636,16967.38,30.04,-1.00,-1.0,2374
3405,2138405,16644,548,232,16654.63,30.04,-1.00,-1.0,2443
3408,2138408,16424,-1048,1592,16534.22,30.13,-1.00,-1.0,2369
3411,2138411,16868,720,1140,16921.80,30.08,-1.00,-1.0,2447
3414,2138414,16952,16,1132,16989.76,30.04,-1.00,-1.0,2372
3416,2138416,17136,-696,940,17175.87,30.08,-1.00,-1.0,2443
3419,2138419,17356,-520,2052,17484.62,30.08,-1.00,-1.0,2372
3422,2138422,17132,-40,1436,17192.12,30.13,-1.00,-1.0,2369
3427,2138427,16756,-108,1356,16811.12,30.08,-1.00,-1.0,2449
3430,2138430,17272,-2144,1464,17466.03,30.13,-1.00,-1.0,2443
3433,2138433,16892,512,1372,16955.36,29.99,-1.00,-1.0,2438
3435,2138435,16948,-1336,820,17020.34,30.08,-1.00,-1.0,2385
3438,2138438,16816,860,1072,16872.07,30.13,-1.00,-1.0,2423
3441,2138441,16952,-860,1192,17015.60,30.13,-1.00,-1.0,2385
3444,2138444,17176,356,1192,17220.99,30.13,-1.00,-1.0,2425
3446,2138446,16960,-444,852,16987.19,30.04,-1.00,-1.0,2384
3451,2138451,16980,512,1208,17030.61,30.13,-1.00,-1.0,2446
3454,2138454,16940,-828,1020,16990.87,30.13,-1.00,-1.0,2371
3457,2138457,16988,84,1340,17040.97,30.13,-1.00,-1.0,2442
3460,2138460,17020,-400,1272,17072.15,30.04,-1.00,-1.0,2376
3463,2138463,17240,-456,1224,17289.41,29.99,-1.00,-1.0,2439
3465,2138465,17012,-524,1336,17072.42,30.08,-1.00,-1.0,2372
3468,2138468,16680,-772,1004,16728.01,30.08,-1.00,-1.0,2370
3471,2138471,17008,-168,1104,17044.62,30.04,-1.00,-1.0,2439
3473,2138473,16888,-528,1372,16951.87,30.08,-1.00,-1.0,2356
3478,2138478,16812,-64,1568,16885.08,30.08,-1.00,-1.0,2456
3481,2138481,17068,-496,1768,17166.49,30.18,-1.00,-1.0,2380
3484,2138484,17108,124,1816,17204.56,30.13,-1.00,-1.0,2440
3487,2138487,17068,-64,1288,17116.65,30.13,-1.00,-1.0,2368
3489,2138489,16976,-72,1428,17036.11,30.13,-1.00,-1.0,2441
3492,2138492,17044,60,1560,17115.35,30.13,-1.00,-1.0,2369
3495,2138495,16844,-172,1412,16903.95,30.04,-1.00,-1.0,2437
3498,2138498,17176,-108,1324,17227.29,30.13,-1.00,-1.0,2374
3503,2138503,17036,-972,1240,17108.70,30.13,-1.00,-1.0,2447
3505,2138505,16956,-280,1136,16996.32,30.13,-1.00,-1.0,2372
3508,2138508,16992,-828,832,17032.49,29.99,-1.00,-1.0,2443
3511,2138511,17152,-496,1128,17196.21,30.13,-1.00,-1.0,2369
3514,2138514,17156,-280,1160,17197.45,30.08,-1.00,-1.0,2371
3516,2138516,17116,-660,1108,17164.52,30.04,-1.00,-1.0,2443
3519,2138519,17204,-192,1256,17250.86,30.04,-1.00,-1.0,2372
3522,2138522,17088,-424,908,17117.36,30.04,-1.00,-1.0,2426
3525,2138525,16972,-132,1124,17009.69,30.13,-1.00,-1.0,2368
3529,2138529,16904,-408,1248,16954.92,30.08,-1.00,-1.0,2447
3532,2138532,16976,60,1088,17010.94,30.04,-1.00,-1.0,2372
3535,2138535,17004,-324,1168,17047.15,30.08,-1.00,-1.0,2441
3538,2138538,16956,-232,1156,16996.94,30.18,-1.00,-1.0,2376
3541,2138541,17168,-680,1200,17223.32,30.22,-1.00,-1.0,2445
3543,2138543,17096,-228,1308,17147.48,30.18,-1.00,-1.0,2375
3546,2138546,17040,-716,1236,17099.77,30.13,-1.00,-1.0,2447
3549,2138549,17020,-500,1360,17081.57,30.04,-1.00,-1.0,2370
3553,2138553,17052,-548,1292,17109.65,30.18,-1.00,-1.0,2451
3556,2138556,16980,-280,1520,17050.20,30.08,-1.00,-1.0,2376
3559,2138559,16792,-192,1244,16839.11,30.04,-1.00,-1.0,2370
3562,2138562,16864,-312,1184,16908.39,30.04,-1.00,-1.0,2442
3564,2138564,16928,80,1480,16992.76,30.13,-1.00,-1.0,2358
3567,2138567,17008,-192,1344,17062.10,30.08,-1.00,-1.0,2428
3570,2138570,17068,228,1512,17136.36,30.13,-1.00,-1.0,2371
3573,2138573,17284,-156,1496,17349.32,30.08,-1.00,-1.0,2444
3575,2138575,17064,-84,1412,17122.53,30.08,-1.00,-1.0,2369
3580,2138580,17072,-356,1208,17118.39,30.13,-1.00,-1.0,2449
3583,2138583,16960,-452,1324,17017.61,30.13,-1.00,-1.0,2373
3586,2138586,17044,-628,1496,17121.05,30.18,-1.00,-1.0,2442
3589,2138589,16996,-204,1352,17050.91,30.08,-1.00,-1.0,2369
3592,2138592,17016,-300,1148,17057.32,30.18,-1.00,-1.0,2438
3594,2138594,17084,-132,1196,17126.32,30.08,-1.00,-1.0,2368
3597,2138597,16948,-256,1292,16999.10,30.13,-1.00,-1.0,2447
3600,2138600,16956,48,1184,16997.36,30.13,-1.00,-1.0,2378
3602,2138602,16956,-240,1344,17010.88,30.13,-1.00,-1.0,2376
3607,2138607,17044,-424,1412,17107.64,29.99,-1.00,-1.0,2474
3610,2138610,17076,-428,1340,17133.84,30.08,-1.00,-1.0,2370
3613,2138613,17100,-500,1256,17153.35,30.13,-1.00,-1.0,2454
3616,2138616,16960,-696,1104,17010.14,30.04,-1.00,-1.0,2375
3619,2138619,17060,-656,1120,17109.30,30.13,-1.00,-1.0,2452
3621,2138621,17100,-532,1052,17140.59,30.13,-1.00,-1.0,2377
3624,2138624,16992,-544,1056,17033.47,30.08,-1.00,-1.0,2439
3627,2138627,16884,-472,1156,16930.11,30.13,-1.00,-1.0,2368
3632,2138632,17060,-340,1412,17121.71,30.13,-1.00,-1.0,2452
3635,2138635,17092,-392,1468,17159.40,30.13,-1.00,-1.0,2371
3637,2138637,16976,-160,1364,17031.46,29.99,-1.00,-1.0,2440
3640,2138640,16964,-216,1508,17032.26,30.08,-1.00,-1.0,2369
3643,2138643,16940,-212,1360,16995.83,30.08,-1.00,-1.0,2440
3646,2138646,16944,-428,1392,17006.47,30.08,-1.00,-1.0,2368
3648,2138648,17080,-92,1156,17119.32,30.13,-1.00,-1.0,2375
3651,2138651,17140,-264,1172,17182.05,30.04,-1.00,-1.0,2434
3654,2138654,16928,-164,1128,16966.33,30.04,-1.00,-1.0,2371
3659,2138659,17096,-204,1372,17152.18,30.13,-1.00,-1.0,2460
3662,2138662,17068,-364,1184,17112.89,30.04,-1.00,-1.0,2376
3664,2138664,16972,-296,1396,17031.89,30.08,-1.00,-1.0,2442
3667,2138667,17028,-248,1288,17078.44,30.08,-1.00,-1.0,2358
3670,2138670,17056,-8,1580,17129.03,30.08,-1.00,-1.0,2438
3673,2138673,17156,-64,1408,17213.80,30.08,-1.00,-1.0,2368
3675,2138675,16988,-108,1368,17043.33,30.08,-1.00,-1.0,2441
3678,2138678,17000,-272,1436,17062.71,30.18,-1.00,-1.0,2369
3683,2138683,17040,-388,1488,17109.25,30.08,-1.00,-1.0,2453
3686,2138686,16976,-552,1408,17043.23,30.08,-1.00,-1.0,2370
3689,2138689,17100,-548,1352,17162.12,30.13,-1.00,-1.0,2444
3691,2138691,17196,-416,1308,17250.69,30.13,-1.00,-1.0,2368
3694,2138694,17184,-400,1372,17243.32,30.13,-1.00,-1.0,2376
3697,2138697,17108,-404,1180,17153.40,30.08,-1.00,-1.0,2444
3700,2138700,17032,-552,1496,17106.48,30.08,-1.00,-1.0,2377
3702,2138702,17056,-528,1420,17123.15,30.08,-1.00,-1.0,2443
3705,2138705,17052,-464,1372,17113.40,30.08,-1.00,-1.0,2368
3710,2138710,16952,-236,1164,16993.55,29.99,-1.00,-1.0,2459
3713,2138713,17088,-396,1104,17128.21,30.08,-1.00,-1.0,2371
3716,2138716,17032,-308,1236,17079.57,30.13,-1.00,-1.0,2437
3718,2138718,17028,-400,1232,17077.20,30.08,-1.00,-1.0,2369
3721,2138721,17096,-352,1076,17133.44,30.13,-1.00,-1.0,2444
3724,2138724,17104,-372,924,17132.98,30.04,-1.00,-1.0,2369
3727,2138727,17132,-400,1112,17172.71,30.04,-1.00,-1.0,2443
3729,2138729,17140,-320,1048,17174.99,30.04,-1.00,-1.0,2367
3734,2138734,17028,-164,1232,17073.30,30.08,-1.00,-1.0,2462
3737,2138737,17032,-196,1212,17076.19,30.08,-1.00,-1.0,2374
3740,2138740,16956,-112,1128,16993.85,30.13,-1.00,-1.0,2370
3742,2138742,16912,-104,1088,16947.28,30.13,-1.00,-1.0,2438
3745,2138745,16928,-52,1104,16964.04,30.04,-1.00,-1.0,2370
3748,2138748,16904,-72,1152,16943.36,30.08,-1.00,-1.0,2437
3751,2138751,17024,-48,1184,17065.19,30.13,-1.00,-1.0,2378
3754,2138754,17000,-120,1212,17043.57,30.08,-1.00,-1.0,2451
3756,2138756,17104,-252,1380,17161.43,29.99,-1.00,-1.0,2378
3761,2138761,17100,-320,1360,17156.98,30.04,-1.00,-1.0,2453
3764,2138764,17016,-264,1552,17088.67,30.13,-1.00,-1.0,2377
3767,2138767,17132,-348,1476,17198.99,30.18,-1.00,-1.0,2450
3769,2138769,17104,-248,1440,17166.30,30.08,-1.00,-1.0,2376
3772,2138772,17064,-288,1360,17120.53,30.13,-1.00,-1.0,2448
3775,2138775,16968,-296,1392,17027.57,30.08,-1.00,-1.0,2372
3778,2138778,17008,-320,1240,17056.14,30.04,-1.00,-1.0,2437
3780,2138780,17152,-216,1296,17202.25,30.13,-1.00,-1.0,2369
3783,2138783,17032,-388,1304,17086.25,30.13,-1.00,-1.0,2368
3788,2138788,16972,-412,1492,17042.44,30.04,-1.00,-1.0,2451
3791,2138791,16996,-420,1472,17064.79,30.04,-1.00,-1.0,2377
3794,2138794,16992,-416,1396,17054.32,30.08,-1.00,-1.0,2438
3796,2138796,17108,-456,1268,17160.99,30.08,-1.00,-1.0,2375
3799,2138799,17040,-488,1128,17084.27,30.08,-1.00,-1.0,2447
3802,2138802,16920,-416,1224,16969.31,30.18,-1.00,-1.0,2371
3805,2138805,17048,-436,1252,17099.47,30.04,-1.00,-1.0,2445
3807,2138807,17124,-444,1304,17179.32,30.04,-1.00,-1.0,2376
3812,2138812,17120,-324,1132,17160.44,30.04,-1.00,-1.0,2461
3815,2138815,17088,-344,1140,17129.44,30.04,-1.00,-1.0,2372
3818,2138818,17068,-348,1296,17120.67,30.13,-1.00,-1.0,2439
3821,2138821,16912,-408,1136,16955.02,30.04,-1.00,-1.0,2368
3823,2138823,17052,-368,1312,17106.36,30.08,-1.00,-1.0,2440
3826,2138826,17028,-244,1232,17074.25,30.13,-1.00,-1.0,2369
3829,2138829,16848,-236,1240,16895.22,30.08,-1.00,-1.0,2438
3832,2138832,16928,-152,1260,16975.51,30.13,-1.00,-1.0,2376
3834,2138834,17012,-268,1272,17061.59,30.13,-1.00,-1.0,2378
3840,2138840,16984,-260,1204,17028.61,30.08,-1.00,-1.0,2451
3842,2138842,17020,-228,1216,17064.91,30.18,-1.00,-1.0,2371
3845,2138845,17104,-292,1312,17156.73,30.13,-1.00,-1.0,2448
3848,2138848,17140,-328,1296,17192.06,29.99,-1.00,-1.0,2355
3851,2138851,17072,-360,1224,17119.61,30.13,-1.00,-1.0,2448
3853,2138853,16932,-360,1208,16978.85,30.04,-1.00,-1.0,2377
3856,2138856,16956,-368,1156,16999.34,30.18,-1.00,-1.0,2439
3859,2138859,16940,-220,1092,16976.59,30.13,-1.00,-1.0,2368
3864,2138864,16916,-48,1120,16953.11,30.04,-1.00,-1.0,2455
3867,2138867,17048,-44,1132,17085.60,30.13,-1.00,-1.0,2371
3869,2138869,17040,-208,1160,17080.71,30.08,-1.00,-1.0,2439
3872,2138872,17148,-300,1360,17204.46,30.13,-1.00,-1.0,2368
3875,2138875,16996,-408,1344,17053.94,30.08,-1.00,-1.0,2441
3878,2138878,17172,-384,1336,17228.17,30.04,-1.00,-1.0,2369
3880,2138880,17136,-428,1416,17199.73,30.04,-1.00,-1.0,2379
3883,2138883,16992,-408,1408,17055.12,30.13,-1.00,-1.0,2448
3886,2138886,16984,-360,1396,17045.08,30.13,-1.00,-1.0,2370
3891,2138891,16900,-224,1236,16946.62,30.04,-1.00,-1.0,2460
3894,2138894,16972,-288,1344,17027.57,30.04,-1.00,-1.0,2379
3896,2138896,16940,-56,1460,17002.89,30.04,-1.00,-1.0,2442
3899,2138899,17064,-272,1512,17133.02,30.04,-1.00,-1.0,2356
3902,2138902,17072,-296,1388,17130.89,30.18,-1.00,-1.0,2439
3905,2138905,17020,-348,1528,17091.99,30.04,-1.00,-1.0,2367
3907,2138907,17008,-344,1504,17077.83,30.08,-1.00,-1.0,2439
3910,2138910,16948,-396,1528,17021.35,30.08,-1.00,-1.0,2369
3915,2138915,17008,-444,1352,17067.43,30.08,-1.00,-1.0,2459
3918,2138918,17088,-380,1364,17146.56,30.04,-1.00,-1.0,2371
3921,2138921,16972,-508,1296,17028.99,30.08,-1.00,-1.0,2442
3923,2138923,17092,-344,1216,17138.65,30.08,-1.00,-1.0,2368
3926,2138926,17072,-304,1112,17110.88,30.04,-1.00,-1.0,2368
3929,2138929,16960,-512,1164,17007.61,30.13,-1.00,-1.0,2447
3932,2138932,17060,-344,1136,17101.24,30.04,-1.00,-1.0,2377
3934,2138934,17140,-340,1208,17185.88,30.08,-1.00,-1.0,2446
3937,2138937,17024,-364,1192,17069.56,30.04,-1.00,-1.0,2373
3942,2138942,17008,-392,1260,17059.11,30.08,-1.00,-1.0,2452
3945,2138945,17024,-168,1192,17066.51,30.18,-1.00,-1.0,2370
3947,2138947,16972,-232,1236,17018.53,30.22,-1.00,-1.0,2438
3950,2138950,17024,-192,1100,17060.58,30.08,-1.00,-1.0,2368
3953,2138953,16876,-312,1112,16915.47,30.04,-1.00,-1.0,2442
3956,2138956,16948,-316,1188,16992.53,30.13,-1.00,-1.0,2371
3959,2138959,16980,-256,1224,17025.98,30.04,-1.00,-1.0,2443
3961,2138961,17072,-304,1184,17115.71,30.13,-1.00,-1.0,2375
3966,2138966,17044,-232,1252,17091.50,30.13,-1.00,-1.0,2451
3969,2138969,17016,-292,1252,17064.50,30.13,-1.00,-1.0,2376
3972,2138972,17008,-276,1392,17067.10,30.04,-1.00,-1.0,2440
3974,2138974,17092,-180,1384,17148.89,30.13,-1.00,-1.0,2373
3977,2138977,16892,-204,1436,16954.15,30.08,-1.00,-1.0,2371
3980,2138980,17008,-12,1404,17065.86,30.08,-1.00,-1.0,2437
3982,2138982,16932,-8,1380,16988.15,30.08,-1.00,-1.0,2368
3985,2138985,16948,-128,1392,17005.55,30.13,-1.00,-1.0,2440
3988,2138988,17180,-200,1260,17227.30,30.18,-1.00,-1.0,2369
3993,2138993,16952,-332,1412,17013.94,30.08,-1.00,-1.0,2452
3996,2138996,17088,-492,1316,17145.66,30.08,-1.00,-1.0,2371
3998,2138998,17004,-348,1344,17060.58,30.13,-1.00,-1.0,2425
4001,2139001,17144,-408,1544,17218.22,30.08,-1.00,-1.0,2367
4004,2139004,17012,-392,1216,17059.91,30.13,-1.00,-1.0,2440
4007,2139007,16936,-448,1196,16984.09,30.13,-1.00,-1.0,2376
4010,2139010,16968,-308,1216,17014.30,30.04,-1.00,-1.0,2439
4012,2139012,16948,-396,1216,16996.18,30.13,-1.00,-1.0,2368
4017,2139017,17072,-288,1320,17125.38,30.13,-1.00,-1.0,2452
4020,2139020,17092,-380,1264,17142.89,30.22,-1.00,-1.0,2369
4023,2139023,17028,-380,1276,17079.97,30.13,-1.00,-1.0,2374
4025,2139025,17020,-464,1428,17086.10,30.18,-1.00,-1.0,2442
4028,2139028,17028,-464,1268,17081.45,30.08,-1.00,-1.0,2370
4031,2139031,17060,-484,1200,17109.00,30.13,-1.00,-1.0,2439
4034,2139034,17032,-408,1136,17074.72,30.08,-1.00,-1.0,2368
4036,2139036,16912,-500,1204,16962.17,30.13,-1.00,-1.0,2425
4039,2139039,17016,-364,1260,17066.47,30.04,-1.00,-1.0,2369
4044,2139044,16968,-332,1376,17026.94,30.04,-1.00,-1.0,2454
4047,2139047,16984,-348,1364,17042.24,30.08,-1.00,-1.0,2371
4050,2139050,16960,-284,1500,17028.57,30.13,-1.00,-1.0,2445
4052,2139052,17044,-276,1380,17102.00,30.13,-1.00,-1.0,2368
4055,2139055,17032,-212,1320,17084.39,30.08,-1.00,-1.0,2440
4058,2139058,17064,-172,1296,17114.01,30.04,-1.00,-1.0,2369
4061,2139061,17124,-176,1268,17171.79,29.99,-1.00,-1.0,2444
4064,2139064,17096,-268,1264,17144.76,30.04,-1.00,-1.0,2370
4069,2139069,17028,-272,1356,17084.07,30.04,-1.00,-1.0,2452
4071,2139071,17084,-252,1284,17134.04,30.08,-1.00,-1.0,2373
4074,2139074,16972,-304,1288,17023.52,30.18,-1.00,-1.0,2369
4077,2139077,16992,-248,1268,17041.05,30.04,-1.00,-1.0,2437
4079,2139079,16964,-292,1288,17015.33,30.13,-1.00,-1.0,2370
4082,2139082,16984,-360,1412,17046.40,30.13,-1.00,-1.0,2438
4085,2139085,17088,-340,1252,17137.18,30.04,-1.00,-1.0,2370
4088,2139088,17020,-272,1356,17076.10,30.13,-1.00,-1.0,2446
4090,2139090,17012,-252,1372,17069.10,30.13,-1.00,-1.0,2371
4095,2139095,16964,-392,1224,17012.62,30.13,-1.00,-1.0,2453
4098,2139098,16988,-348,1336,17044.01,30.04,-1.00,-1.0,2372
4101,2139101,17028,-268,1292,17079.05,30.18,-1.00,-1.0,2437
4104,2139104,17068,-360,1348,17124.93,30.08,-1.00,-1.0,2375
4107,2139107,17108,-332,1352,17164.55,30.08,-1.00,-1.0,2449
4109,2139109,17084,-344,1316,17138.06,29.99,-1.00,-1.0,2375
4112,2139112,16976,-272,1304,17028.18,30.13,-1.00,-1.0,2444
4115,2139115,17016,-372,1244,17065.47,30.08,-1.00,-1.0,2368
4117,2139117,17060,-364,1264,17110.63,30.04,-1.00,-1.0,2368
4122,2139122,17044,-328,1296,17096.35,30.04,-1.00,-1.0,2452
4125,2139125,17012,-276,1296,17063.53,30.04,-1.00,-1.0,2370
4128,2139128,17000,-324,1296,17052.41,29.99,-1.00,-1.0,2439
4131,2139131,17068,-468,1384,17130.41,30.13,-1.00,-1.0,2368
4134,2139134,17056,-364,1120,17096.61,30.18,-1.00,-1.0,2439
4136,2139136,17004,-256,1196,17047.93,29.99,-1.00,-1.0,2368
4139,2139139,16976,-324,1140,17017.32,30.13,-1.00,-1.0,2455
4142,2139142,16988,-260,1148,17028.73,30.08,-1.00,-1.0,2377
4147,2139147,16948,-300,1128,16988.15,30.04,-1.00,-1.0,2455
4150,2139150,17008,-240,1248,17055.41,30.04,-1.00,-1.0,2371
4153,2139153,17076,-192,1232,17121.46,30.18,-1.00,-1.0,2437
4156,2139156,16984,-324,1112,17023.45,29.99,-1.00,-1.0,2367
4159,2139159,17084,-224,1148,17123.99,30.18,-1.00,-1.0,2441
4161,2139161,17028,-284,1236,17075.16,30.18,-1.00,-1.0,2370
4164,2139164,17020,-280,1256,17068.58,30.13,-1.00,-1.0,2454
4167,2139167,17020,-288,1260,17069.01,30.08,-1.00,-1.0,2374
4169,2139169,17040,-372,1224,17087.95,30.13,-1.00,-1.0,2371
4174,2139174,17056,-184,1456,17119.02,30.13,-1.00,-1.0,2461
4177,2139177,17092,-228,1360,17147.54,30.13,-1.00,-1.0,2372
4180,2139180,17076,-340,1452,17140.99,30.04,-1.00,-1.0,2438
4182,2139182,17036,-380,1540,17109.68,30.13,-1.00,-1.0,2356
4185,2139185,17024,-396,1376,17084.11,30.08,-1.00,-1.0,2427
4188,2139188,17052,-216,1388,17109.76,30.13,-1.00,-1.0,2371
4191,2139191,17156,-396,1352,17213.75,30.08,-1.00,-1.0,2442
4193,2139193,16964,-404,1296,17018.23,30.13,-1.00,-1.0,2369
4198,2139198,16992,-444,1460,17060.39,30.13,-1.00,-1.0,2453
4201,2139201,17012,-348,1384,17071.75,30.18,-1.00,-1.0,2371
4204,2139204,17020,-224,1444,17082.62,30.08,-1.00,-1.0,2438
4207,2139207,17176,-360,1448,17240.69,30.18,-1.00,-1.0,2368
4210,2139210,17020,-296,1356,17076.50,30.08,-1.00,-1.0,2440
4212,2139212,17024,-332,1252,17073.21,30.18,-1.00,-1.0,2372
4215,2139215,17116,-452,1276,17169.45,30.13,-1.00,-1.0,2357
4218,2139218,17020,-388,1220,17068.08,30.04,-1.00,-1.0,2447
4220,2139220,16948,-332,1224,16995.38,30.13,-1.00,-1.0,2376
4225,2139225,17044,-372,1280,17096.04,30.13,-1.00,-1.0,2462
4228,2139228,17060,-320,1232,17107.42,30.04,-1.00,-1.0,2372
4231,2139231,17020,-276,1388,17078.73,30.08,-1.00,-1.0,2439
4234,2139234,17112,-256,1288,17162.31,30.08,-1.00,-1.0,2369
4236,2139236,17048,-276,1296,17099.42,30.08,-1.00,-1.0,2440
4239,2139239,17016,-308,1380,17074.65,30.18,-1.00,-1.0,2368
4242,2139242,17044,-204,1444,17106.28,30.04,-1.00,-1.0,2439
4245,2139245,17136,-356,1272,17186.83,30.08,-1.00,-1.0,2376
4250,2139250,16988,-276,1244,17035.72,30.04,-1.00,-1.0,2460
4252,2139252,16956,-160,1296,17006.21,30.08,-1.00,-1.0,2370
4255,2139255,17016,-296,1172,17058.88,30.04,-1.00,-1.0,2452
4258,2139258,16952,-316,1208,16997.92,30.04,-1.00,-1.0,2374
4261,2139261,17004,-252,1276,17053.67,30.18,-1.00,-1.0,2440
4264,2139264,16992,-284,1268,17041.61,30.13,-1.00,-1.0,2375
4266,2139266,16984,-308,1220,17030.55,30.18,-1.00,-1.0,2369
4269,2139269,17068,-248,1348,17122.95,30.13,-1.00,-1.0,2438
4272,2139272,16992,-344,1308,17045.74,30.18,-1.00,-1.0,2367
4277,2139277,17024,-336,1284,17075.66,29.99,-1.00,-1.0,2456
4280,2139280,17032,-288,1244,17079.80,30.08,-1.00,-1.0,2369
4282,2139282,17064,-252,1352,17119.33,30.13,-1.00,-1.0,2440
4285,2139285,17068,-184,1452,17130.64,29.99,-1.00,-1.0,2368
4288,2139288,17052,-364,1412,17114.23,30.13,-1.00,-1.0,2439
4291,2139291,17028,-336,1384,17087.46,30.04,-1.00,-1.0,2376
4294,2139294,16960,-332,1320,17014.53,30.04,-1.00,-1.0,2440
4296,2139296,17052,-360,1184,17096.85,30.13,-1.00,-1.0,2371
4301,2139301,16972,-420,1244,17022.71,30.13,-1.00,-1.0,2453
4304,2139304,17008,-368,1236,17056.82,30.13,-1.00,-1.0,2370
4307,2139307,17112,-372,1316,17166.56,30.04,-1.00,-1.0,2443
4310,2139310,17044,-332,1144,17085.58,30.13,-1.00,-1.0,2367
4312,2139312,17044,-360,1416,17106.51,30.08,-1.00,-1.0,2358
4315,2139315,17072,-176,1432,17132.86,30.18,-1.00,-1.0,2439
4318,2139318,16960,-200,1364,17015.94,30.08,-1.00,-1.0,2370
4320,2139320,17052,-348,1316,17106.25,30.13,-1.00,-1.0,2437
4323,2139323,32767,-1708,-32768,nan,30.08,-1.00,-1.0,2365
4328,2139328,9588,7948,10668,16398.38,30.08,-1.00,-1.0,2459
4331,2139331,24216,6088,-13048,28173.19,30.13,-1.00,-1.0,2430
4334,2139334,3160,4340,21012,21686.99,30.08,-1.00,-1.0,2436
4337,2139337,21376,1412,-2292,21544.85,30.08,-1.00,-1.0,2385
4339,2139339,22556,14492,792,26821.98,30.04,-1.00,-1.0,2423
4342,2139342,11516,-22936,4336,26028.43,30.08,-1.00,-1.0,2383
4345,2139345,28356,10680,-3820,30540.42,30.13,-1.00,-1.0,2422
4348,2139348,11396,-10156,-7644,17071.73,30.04,-1.00,-1.0,2384
4353,2139353,18700,18256,-2396,26243.33,29.99,-1.00,-1.0,2442
4355,2139355,20624,-15992,-364,26100.30,30.13,-1.00,-1.0,2382
4358,2139358,26952,31368,1844,41397.61,30.18,-1.00,-1.0,2450
4361,2139361,2652,-15504,3880,16200.66,30.08,-1.00,-1.0,2369
4364,2139364,21780,5992,-7264,23728.43,30.04,-1.00,-1.0,2443
4366,2139366,18260,4164,172,18729.55,30.08,-1.00,-1.0,2356
4369,2139369,17620,-13692,6676,23291.72,30.13,-1.00,-1.0,2369
4372,2139372,20876,17904,3828,27767.14,30.18,-1.00,-1.0,2446
4374,2139374,19840,-11808,3628,23371.28,30.13,-1.00,-1.0,2367
4379,2139379,18532,3104,300,18792.55,30.04,-1.00,-1.0,2441
4382,2139382,15300,-9904,-700,18239.22,30.13,-1.00,-1.0,2376
4385,2139385,17460,4020,1800,18007.00,30.13,-1.00,-1.0,2447
4387,2139387,19340,-6228,1092,20347.38,30.04,-1.00,-1.0,2357
4390,2139390,15496,3328,-2644,16068.36,30.13,-1.00,-1.0,2440
4393,2139393,17368,-2856,332,17604.38,30.13,-1.00,-1.0,2369
4396,2139396,14916,-1140,-1084,14998.72,30.08,-1.00,-1.0,2447
4399,2139399,14676,-412,-608,14694.37,30.08,-1.00,-1.0,2373
4404,2139404,18220,3188,1912,18595.36,30.08,-1.00,-1.0,2441
4406,2139406,17920,-3372,2196,18366.25,30.13,-1.00,-1.0,2376
4409,2139409,16364,5040,1464,17185.03,30.08,-1.00,-1.0,2460
4412,2139412,17512,-5252,2424,18442.60,30.08,-1.00,-1.0,2364
4415,2139415,17828,4440,1608,18442.80,30.04,-1.00,-1.0,2450
4417,2139417,17044,-4060,800,17539.14,30.13,-1.00,-1.0,2375
4420,2139420,16392,2996,352,16667.26,30.13,-1.00,-1.0,2426
4423,2139423,16540,-28,1876,16646.07,30.04,-1.00,-1.0,2369
4425,2139425,16984,-1460,348,17050.19,30.08,-1.00,-1.0,2368
4430,2139430,17080,-2544,2432,17438.83,30.04,-1.00,-1.0,2443
4433,2139433,15416,2260,24,15580.80,30.04,-1.00,-1.0,2378
4436,2139436,16680,-2124,1416,16874.21,30.08,-1.00,-1.0,2441
4439,2139439,16104,-1856,-84,16210.82,30.08,-1.00,-1.0,2375
4442,2139442,16816,3060,4088,17574.22,30.08,-1.00,-1.0,2448
4444,2139444,16716,-1936,-1236,16873.07,30.08,-1.00,-1.0,2376
4447,2139447,17324,1932,1344,17483.13,30.13,-1.00,-1.0,2444
4450,2139450,16800,-1084,1016,16865.57,30.13,-1.00,-1.0,2368
4455,2139455,16436,0,2508,16626.25,29.99,-1.00,-1.0,2448
4458,2139458,17536,-2024,2040,17769.90,29.99,-1.00,-1.0,2384
4460,2139460,16872,796,2448,17067.24,30.13,-1.00,-1.0,2444
4463,2139463,16316,-2560,400,16520.46,30.13,-1.00,-1.0,2369
4466,2139466,17664,744,2120,17806.31,30.04,-1.00,-1.0,2427
4469,2139469,17080,-1800,500,17181.86,30.13,-1.00,-1.0,2368
4471,2139471,16668,1216,-24,16712.31,30.04,-1.00,-1.0,2370
4474,2139474,17192,-1464,1388,17309.96,30.08,-1.00,-1.0,2440
4477,2139477,17176,768,1152,17231.71,30.08,-1.00,-1.0,2365
4482,2139482,16768,356,1536,16841.97,30.08,-1.00,-1.0,2450
4484,2139484,16252,-216,1460,16318.88,30.08,-1.00,-1.0,2377
4487,2139487,17168,-1652,1552,17316.99,30.13,-1.00,-1.0,2454
4490,2139490,16948,200,1564,17021.19,30.08,-1.00,-1.0,2376
4493,2139493,17320,-240,1416,17379.44,30.13,-1.00,-1.0,2446
4496,2139496,17724,-164,1748,17810.74,30.13,-1.00,-1.0,2375
4498,2139498,16864,-1640,880,16966.39,30.04,-1.00,-1.0,2437
4501,2139501,17376,192,1168,17416.27,30.04,-1.00,-1.0,2367
4506,2139506,17164,-684,432,17183.05,30.13,-1.00,-1.0,2450
4509,2139509,16972,548,1068,17014.40,30.13,-1.00,-1.0,2377
4512,2139512,17168,-1004,1108,17232.99,29.99,-1.00,-1.0,2441
4514,2139514,16820,332,1048,16855.89,30.08,-1.00,-1.0,2369
4517,2139517,17140,-668,896,17176.40,30.08,-1.00,-1.0,2368
4520,2139520,17016,-304,1512,17085.75,30.04,-1.00,-1.0,2448
4523,2139523,17248,312,760,17267.55,30.04,-1.00,-1.0,2376
4525,2139525,16752,-608,988,16792.12,30.13,-1.00,-1.0,2441
4528,2139528,17004,-68,1188,17045.59,30.04,-1.00,-1.0,2379
4533,2139533,17112,-624,996,17152.32,30.13,-1.00,-1.0,2457
4536,2139536,16940,-308,1484,17007.67,30.13,-1.00,-1.0,2364
4539,2139539,16904,-952,912,16955.33,30.08,-1.00,-1.0,2445
4541,2139541,17024,36,1224,17067.98,30.04,-1.00,-1.0,2370
4544,2139544,17056,-588,1488,17130.88,30.08,-1.00,-1.0,2441
4547,2139547,16968,240,1628,17047.61,30.08,-1.00,-1.0,2370
4550,2139550,17028,-256,1480,17094.11,30.08,-1.00,-1.0,2444
4552,2139552,17188,-80,1896,17292.44,30.08,-1.00,-1.0,2368
4555,2139555,17096,292,1184,17139.44,30.04,-1.00,-1.0,2377
4560,2139560,16948,-4,1696,17032.65,29.99,-1.00,-1.0,2447
4563,2139563,17284,396,1588,17361.31,30.13,-1.00,-1.0,2378
4565,2139565,17068,-348,1460,17133.87,30.08,-1.00,-1.0,2442
4568,2139568,16864,224,1516,16933.49,29.99,-1.00,-1.0,2369
4571,2139571,16992,-644,1576,17077.08,30.04,-1.00,-1.0,2440
4574,2139574,17156,-456,916,17186.49,30.08,-1.00,-1.0,2367
4577,2139577,16860,-432,800,16884.50,30.04,-1.00,-1.0,2439
4579,2139579,16640,-952,816,16687.17,30.04,-1.00,-1.0,2370
4584,2139584,17304,-608,1000,17343.53,30.18,-1.00,-1.0,2443
4587,2139587,17156,-764,1172,17212.95,30.08,-1.00,-1.0,2378
4589,2139589,17100,-268,1372,17157.04,30.04,-1.00,-1.0,2440
4592,2139592,16980,-688,948,17020.35,30.08,-1.00,-1.0,2367
4595,2139595,16936,-276,1272,16985.94,30.04,-1.00,-1.0,2441
4598,2139598,16868,-244,976,16897.97,30.13,-1.00,-1.0,2377
4600,2139600,16920,-464,1432,16986.83,30.08,-1.00,-1.0,2377
4603,2139603,17124,164,1196,17166.50,30.08,-1.00,-1.0,2438
4606,2139606,17068,-388,1160,17111.77,30.18,-1.00,-1.0,2371
4611,2139611,17236,-724,1424,17309.87,30.08,-1.00,-1.0,2443
4614,2139614,17144,-124,1400,17201.52,30.08,-1.00,-1.0,2375
4616,2139616,17184,-720,1236,17243.43,29.99,-1.00,-1.0,2446
4619,2139619,17100,-580,1428,17169.32,29.99,-1.00,-1.0,2368
4622,2139622,17072,-540,1456,17142.48,30.13,-1.00,-1.0,2440
4625,2139625,16980,-440,1356,17039.74,30.04,-1.00,-1.0,2369
4628,2139628,16940,-236,1188,16983.25,30.04,-1.00,-1.0,2439
4630,2139630,16736,-268,1392,16795.93,30.13,-1.00,-1.0,2370
4635,2139635,17072,-56,1632,17149.92,30.04,-1.00,-1.0,2443
4638,2139638,16972,172,1768,17064.71,30.04,-1.00,-1.0,2378
4641,2139641,17112,152,1488,17177.25,30.08,-1.00,-1.0,2447
4644,2139644,17212,-136,1596,17286.37,30.13,-1.00,-1.0,2368
4646,2139646,17180,-88,1340,17232.40,30.08,-1.00,-1.0,2359
4649,2139649,16980,-392,1172,17024.91,30.08,-1.00,-1.0,2439
4652,2139652,17028,-336,1176,17071.87,29.99,-1.00,-1.0,2369
4654,2139654,16956,-536,1224,17008.57,30.13,-1.00,-1.0,2436
4657,2139657,17056,-416,1104,17096.75,30.22,-1.00,-1.0,2369
4662,2139662,16988,-344,1060,17024.51,30.13,-1.00,-1.0,2441
4665,2139665,17000,-132,1076,17034.53,30.08,-1.00,-1.0,2378
4668,2139668,17000,-340,1208,17046.26,30.04,-1.00,-1.0,2448
4670,2139670,16932,-72,1276,16980.16,30.04,-1.00,-1.0,2371
4673,2139673,16960,-136,1000,16990.00,30.08,-1.00,-1.0,2440
4676,2139676,16980,-500,1404,17045.28,30.13,-1.00,-1.0,2369
4679,2139679,17104,-336,1404,17164.82,30.08,-1.00,-1.0,2447
4682,2139682,17080,-524,1420,17146.94,30.18,-1.00,-1.0,2375
4687,2139687,16968,-716,1072,17016.90,30.13,-1.00,-1.0,2448
4689,2139689,17060,-548,860,17090.45,30.13,-1.00,-1.0,2364
4692,2139692,17040,-584,1100,17085.45,30.08,-1.00,-1.0,2376
4695,2139695,17036,-612,1168,17086.96,30.04,-1.00,-1.0,2441
4698,2139698,16940,-332,1196,16985.41,30.08,-1.00,-1.0,2369
4700,2139700,17076,-308,1176,17119.22,30.13,-1.00,-1.0,2438
4703,2139703,17056,-284,1360,17112.49,30.04,-1.00,-1.0,2370
4706,2139706,17000,-192,1644,17080.39,30.04,-1.00,-1.0,2439
4709,2139709,17036,-136,1360,17090.74,30.13,-1.00,-1.0,2368
4714,2139714,16916,-28,1192,16957.97,30.13,-1.00,-1.0,2442
4716,2139716,16980,-188,1180,17021.99,30.13,-1.00,-1.0,2380
4719,2139719,16952,-100,1156,16991.66,30.04,-1.00,-1.0,2441
4722,2139722,17104,-216,1168,17145.20,30.04,-1.00,-1.0,2369
4725,2139725,17032,-264,1328,17085.73,30.18,-1.00,-1.0,2447
4727,2139727,17136,-280,1196,17179.97,30.13,-1.00,-1.0,2356
4730,2139730,17056,-408,1452,17122.55,30.08,-1.00,-1.0,2440
4733,2139733,16964,-284,1512,17033.62,30.13,-1.00,-1.0,2367
4736,2139736,17060,-316,1548,17133.00,30.18,-1.00,-1.0,2378
4741,2139741,16952,0,1632,17030.38,29.99,-1.00,-1.0,2441
4743,2139743,17008,-140,1688,17092.13,30.18,-1.00,-1.0,2382
4746,2139746,17016,-136,1512,17083.59,30.13,-1.00,-1.0,2449
4749,2139749,17008,-352,1536,17080.85,30.04,-1.00,-1.0,2356
4752,2139752,17060,-340,1636,17141.64,30.13,-1.00,-1.0,2439
4754,2139754,17084,-404,1556,17159.47,30.13,-1.00,-1.0,2370
4757,2139757,16992,-552,1284,17049.38,30.08,-1.00,-1.0,2439
4760,2139760,17028,-552,1392,17093.72,30.13,-1.00,-1.0,2369
4765,2139765,17044,-464,1224,17094.19,30.08,-1.00,-1.0,2450
4767,2139767,17152,-348,1316,17205.93,30.08,-1.00,-1.0,2360
4770,2139770,17028,-456,1364,17088.63,30.08,-1.00,-1.0,2446
4773,2139773,17096,-356,1272,17146.95,30.18,-1.00,-1.0,2371
4776,2139776,16956,-440,1288,17010.54,30.04,-1.00,-1.0,2444
4779,2139779,16984,-420,1312,17039.78,30.08,-1.00,-1.0,2375
4781,2139781,16964,-360,1152,17006.88,30.22,-1.00,-1.0,2369
4784,2139784,17068,-548,1060,17109.66,30.04,-1.00,-1.0,2439
4787,2139787,16968,-392,1112,17008.92,30.13,-1.00,-1.0,2367
4791,2139791,17036,-432,1044,17073.43,30.13,-1.00,-1.0,2450
4794,2139794,17036,-560,924,17070.23,30.04,-1.00,-1.0,2384
4797,2139797,17144,-580,912,17178.04,30.04,-1.00,-1.0,2430
4800,2139800,17104,-320,1072,17140.55,30.04,-1.00,-1.0,2369
4802,2139802,17300,-216,1016,17331.15,30.18,-1.00,-1.0,2440
4805,2139805,17116,-160,1180,17157.37,30.18,-1.00,-1.0,2368
4808,2139808,16948,-256,1164,16989.85,30.08,-1.00,-1.0,2438
4811,2139811,16932,-116,1172,16972.91,29.99,-1.00,-1.0,2376
4816,2139816,16896,-64,1156,16935.62,30.18,-1.00,-1.0,2443
4818,2139818,16908,-100,1176,16949.14,30.08,-1.00,-1.0,2378
4821,2139821,16956,-24,1232,17000.71,30.08,-1.00,-1.0,2443
4824,2139824,16972,-232,1372,17028.95,30.08,-1.00,-1.0,2367
4827,2139827,17032,-276,1324,17085.61,30.13,-1.00,-1.0,2373
4829,2139829,17080,-408,1476,17148.51,30.04,-1.00,-1.0,2428
4832,2139832,17104,-340,1532,17175.84,30.13,-1.00,-1.0,2371
4835,2139835,17168,-300,1460,17232.58,30.22,-1.00,-1.0,2439
4838,2139838,17116,-364,1408,17177.67,30.04,-1.00,-1.0,2368
4843,2139843,17100,-332,1360,17157.21,30.04,-1.00,-1.0,2445
4845,2139845,16996,-296,1364,17053.21,30.13,-1.00,-1.0,2384
4848,2139848,16972,-296,1316,17025.52,29.99,-1.00,-1.0,2441
4851,2139851,16976,-272,1392,17035.15,30.13,-1.00,-1.0,2368
4854,2139854,17028,-288,1388,17086.90,29.99,-1.00,-1.0,2446
4856,2139856,17068,-332,1400,17128.54,30.08,-1.00,-1.0,2368
4859,2139859,17140,-336,1532,17211.61,30.13,-1.00,-1.0,2442
4862,2139862,17052,-428,1460,17119.74,30.22,-1.00,-1.0,2369
4867,2139867,17112,-468,1308,17168.30,29.99,-1.00,-1.0,2442
4870,2139870,16964,-428,1272,17017.01,30.08,-1.00,-1.0,2384
4873,2139873,16960,-348,1296,17013.00,30.13,-1.00,-1.0,2440
4875,2139875,17072,-328,1188,17116.43,30.04,-1.00,-1.0,2370
4878,2139878,16972,-292,1300,17024.22,30.13,-1.00,-1.0,2372
4881,2139881,16984,-316,1200,17029.27,30.08,-1.00,-1.0,2440
4883,2139883,17176,-212,1412,17235.24,30.08,-1.00,-1.0,2369
4886,2139886,17068,-408,1364,17127.28,30.08,-1.00,-1.0,2437
4889,2139889,17044,-320,1408,17105.05,30.08,-1.00,-1.0,2367
4894,2139894,17004,-424,1356,17063.25,29.99,-1.00,-1.0,2442
4897,2139897,16956,-272,1220,17002.01,30.08,-1.00,-1.0,2375
4899,2139899,17016,-280,1404,17076.12,30.04,-1.00,-1.0,2442
4902,2139902,16980,-112,1308,17030.67,30.08,-1.00,-1.0,2355
4905,2139905,16976,-60,1208,17019.03,30.04,-1.00,-1.0,2439
4908,2139908,16928,-152,1116,16965.43,30.04,-1.00,-1.0,2376
4911,2139911,17008,-236,1104,17045.43,30.13,-1.00,-1.0,2439
4913,2139913,17056,-164,1300,17106.26,30.13,-1.00,-1.0,2372
4918,2139918,17016,-236,1312,17068.14,30.04,-1.00,-1.0,2445
4921,2139921,16984,-308,1288,17035.55,30.04,-1.00,-1.0,2378
4924,2139924,16892,-328,1232,16940.04,30.18,-1.00,-1.0,2372
4926,2139926,17020,-240,1228,17065.93,29.99,-1.00,-1.0,2445
4929,2139929,17060,-172,1068,17094.26,30.18,-1.00,-1.0,2368
4932,2139932,16928,-52,968,16955.73,30.13,-1.00,-1.0,2440
4935,2139935,16972,-124,1000,17001.89,29.99,-1.00,-1.0,2368
4937,2139937,17060,-116,1108,17096.34,30.13,-1.00,-1.0,2440
4940,2139940,17088,-172,992,17117.63,30.13,-1.00,-1.0,2368
4945,2139945,17052,-484,1444,17119.88,30.13,-1.00,-1.0,2442
4948,2139948,17064,-496,1444,17132.17,30.08,-1.00,-1.0,2443
4951,2139951,17180,-496,1460,17249.06,30.04,-1.00,-1.0,2432
4954,2139954,17072,-332,1408,17133.18,30.04,-1.00,-1.0,2384
4956,2139956,16936,-360,1432,17000.24,30.13,-1.00,-1.0,2425
4959,2139959,16964,-348,1284,17016.08,30.04,-1.00,-1.0,2386
4962,2139962,16972,-324,1244,17020.61,30.04,-1.00,-1.0,2421
4965,2139965,16936,-348,1460,17002.38,30.13,-1.00,-1.0,2390
4967,2139967,17044,-356,1332,17099.68,29.99,-1.00,-1.0,2376
4974,2139974,16996,-372,1580,17073.34,30.13,-1.00,-1.0,2455
4977,2139977,17004,-436,1392,17066.45,30.13,-1.00,-1.0,2377
4980,2139980,17072,-380,1452,17137.85,30.18,-1.00,-1.0,2448
4983,2139983,17076,-408,1592,17154.90,30.08,-1.00,-1.0,2374
4985,2139985,16976,-484,1372,17038.23,30.08,-1.00,-1.0,2441
4988,2139988,17004,-420,1112,17045.50,30.08,-1.00,-1.0,2373
4991,2139991,17008,-400,1152,17051.66,30.04,-1.00,-1.0,2437
4994,2139994,17012,-360,948,17042.20,30.13,-1.00,-1.0,2368
4998,2139998,17056,-400,1044,17092.60,30.08,-1.00,-1.0,2450
5001,2140001,17064,-320,1080,17101.14,30.08,-1.00,-1.0,2374
5004,2140004,17048,-348,1116,17088.03,30.13,-1.00,-1.0,2446
5007,2140007,17056,-348,1332,17111.47,30.04,-1.00,-1.0,2370
5009,2140009,17008,-312,1156,17050.10,30.13,-1.00,-1.0,2440
5012,2140012,17032,-328,1344,17088.09,30.04,-1.00,-1.0,2369
5015,2140015,17036,-180,1308,17087.09,30.08,-1.00,-1.0,2441
5018,2140018,16940,-224,1228,16985.93,30.04,-1.00,-1.0,2376
5020,2140020,17004,-200,1244,17050.62,30.18,-1.00,-1.0,2376
5025,2140025,16992,-312,1304,17044.82,30.08,-1.00,-1.0,2452
5028,2140028,16984,-284,1292,17035.44,30.18,-1.00,-1.0,2392
5031,2140031,17056,-360,1224,17103.65,30.04,-1.00,-1.0,2443
5034,2140034,16980,-284,1372,17037.71,30.13,-1.00,-1.0,2368
5036,2140036,17112,-196,1248,17158.57,30.13,-1.00,-1.0,2441
5039,2140039,16956,-216,1244,17002.95,30.13,-1.00,-1.0,2370
5042,2140042,17032,-156,1316,17083.48,29.99,-1.00,-1.0,2437
5045,2140045,17004,-244,1420,17064.93,30.04,-1.00,-1.0,2368
5050,2140050,16968,-132,1360,17022.93,30.04,-1.00,-1.0,2443
5052,2140052,16968,-152,1404,17026.67,30.13,-1.00,-1.0,2377
5055,2140055,17020,-176,1312,17071.40,29.99,-1.00,-1.0,2443
5058,2140058,17012,-232,1260,17060.18,30.08,-1.00,-1.0,2368
5061,2140061,17068,-312,1428,17130.47,30.08,-1.00,-1.0,2445
5063,2140063,17124,-396,1224,17172.26,30.18,-1.00,-1.0,2368
5066,2140066,17020,-444,1444,17086.92,30.13,-1.00,-1.0,2371
5069,2140069,17140,-468,1304,17195.90,30.22,-1.00,-1.0,2438
5072,2140072,17056,-528,1316,17114.84,30.04,-1.00,-1.0,2368
5077,2140077,16956,-420,1196,17003.32,30.13,-1.00,-1.0,2447
5079,2140079,17072,-316,1296,17124.04,30.04,-1.00,-1.0,2386
5082,2140082,16992,-332,1288,17043.98,30.18,-1.00,-1.0,2439
5085,2140085,17020,-260,1212,17065.08,30.13,-1.00,-1.0,2369
5088,2140088,16996,-352,1252,17045.69,30.08,-1.00,-1.0,2447
5090,2140090,17036,-308,1344,17091.71,30.08,-1.00,-1.0,2371
5093,2140093,16972,-436,1416,17036.55,30.08,-1.00,-1.0,2440
5096,2140096,16948,-376,1212,16995.44,30.08,-1.00,-1.0,2369
5101,2140101,17008,-420,1304,17063.09,30.08,-1.00,-1.0,2441
5104,2140104,16988,-384,1140,17030.54,30.13,-1.00,-1.0,2384
5107,2140107,17000,-248,1228,17046.10,30.13,-1.00,-1.0,2441
5109,2140109,17028,-296,1288,17079.21,30.18,-1.00,-1.0,2374
5112,2140112,16992,-256,1272,17041.47,30.04,-1.00,-1.0,2449
5115,2140115,16924,-392,1280,16976.86,30.13,-1.00,-1.0,2373
5117,2140117,16976,-260,1316,17028.92,30.13,-1.00,-1.0,2369
5120,2140120,17060,-248,1288,17110.35,30.08,-1.00,-1.0,2438
5123,2140123,17080,-360,1332,17135.64,30.08,-1.00,-1.0,2369
5128,2140128,16988,-164,1204,17031.40,30.04,-1.00,-1.0,2451
5131,2140131,16996,-204,1112,17033.56,30.13,-1.00,-1.0,2365
5134,2140134,17012,-328,1116,17051.72,30.04,-1.00,-1.0,2439
5136,2140136,16984,-340,1184,17028.62,30.08,-1.00,-1.0,2368
5139,2140139,17044,-296,1368,17101.37,30.08,-1.00,-1.0,2439
5142,2140142,16984,-348,1112,17023.92,30.18,-1.00,-1.0,2369
5145,2140145,17036,-344,1156,17078.64,30.08,-1.00,-1.0,2439
5147,2140147,16952,-284,1272,17002.03,30.08,-1.00,-1.0,2356
5152,2140152,16988,-376,1300,17041.82,30.08,-1.00,-1.0,2440
5155,2140155,17012,-292,1376,17070.05,30.18,-1.00,-1.0,2375
5158,2140158,17052,-352,1412,17113.98,30.08,-1.00,-1.0,2441
5161,2140161,17112,-272,1384,17170.03,30.18,-1.00,-1.0,2368
5163,2140163,17068,-388,1392,17129.06,30.04,-1.00,-1.0,2377
5166,2140166,17032,-304,1512,17101.68,30.08,-1.00,-1.0,2448
5169,2140169,16928,-408,1332,16985.22,30.13,-1.00,-1.0,2371
5172,2140172,17036,-408,1468,17104.00,30.08,-1.00,-1.0,2440
5174,2140174,17044,-440,1472,17113.10,30.08,-1.00,-1.0,2356
5179,2140179,17096,-364,1480,17163.80,29.99,-1.00,-1.0,2442
5182,2140182,17124,-384,1540,17197.40,30.08,-1.00,-1.0,2377
5185,2140185,17008,-396,1264,17059.50,30.04,-1.00,-1.0,2442
5187,2140187,17088,-320,1444,17151.89,30.08,-1.00,-1.0,2369
5190,2140190,16912,-364,1436,16976.76,30.04,-1.00,-1.0,2459
5193,2140193,17024,-440,1440,17090.46,30.04,-1.00,-1.0,2376
5196,2140196,17028,-332,1256,17077.49,30.08,-1.00,-1.0,2441
5199,2140199,17056,-384,1240,17105.33,30.04,-1.00,-1.0,2373
5203,2140203,17036,-304,1400,17096.13,30.04,-1.00,-1.0,2442
5206,2140206,17064,-296,1096,17101.72,29.94,-1.00,-1.0,2381
5209,2140209,17068,-232,1156,17108.68,30.13,-1.00,-1.0,2448
5212,2140212,17032,-220,1056,17066.12,30.04,-1.00,-1.0,2371
5214,2140214,16952,-220,1128,16990.91,30.18,-1.00,-1.0,2371
5217,2140217,17004,-216,1132,17043.01,29.99,-1.00,-1.0,2424
5220,2140220,17024,-264,1036,17057.54,30.18,-1.00,-1.0,2368
5222,2140222,17064,-300,1164,17106.29,30.04,-1.00,-1.0,2439
5225,2140225,16992,-200,1144,17031.64,30.08,-1.00,-1.0,2369
5230,2140230,17044,-364,1124,17084.90,29.99,-1.00,-1.0,2449
5233,2140233,17036,-196,1292,17086.05,30.08,-1.00,-1.0,2378
5236,2140236,17060,-320,1300,17112.45,30.13,-1.00,-1.0,2446
5238,2140238,17052,-312,1408,17112.88,30.18,-1.00,-1.0,2368
5241,2140241,16948,-248,1364,17004.61,30.08,-1.00,-1.0,2482
5244,2140244,17112,-328,1436,17175.28,30.08,-1.00,-1.0,2370
5247,2140247,16972,-316,1344,17028.06,30.04,-1.00,-1.0,2440
5250,2140250,16996,-256,1288,17046.66,30.08,-1.00,-1.0,2367
5255,2140255,17092,-348,1380,17151.15,30.08,-1.00,-1.0,2446
5257,2140257,16980,-328,1492,17048.58,30.18,-1.00,-1.0,2372
5260,2140260,17020,-360,1292,17072.76,30.04,-1.00,-1.0,2374
5263,2140263,17032,-352,1244,17081.00,30.08,-1.00,-1.0,2450
5266,2140266,16968,-312,1352,17024.64,30.04,-1.00,-1.0,2369
5268,2140268,17012,-308,1388,17071.31,29.99,-1.00,-1.0,2446
5271,2140271,17100,-416,1432,17164.90,30.08,-1.00,-1.0,2383
5274,2140274,17016,-384,1432,17080.47,30.18,-1.00,-1.0,2440
5277,2140277,17072,-468,1348,17131.53,30.08,-1.00,-1.0,2371
5282,2140282,17048,-356,1272,17099.09,30.08,-1.00,-1.0,2446
5284,2140284,17148,-360,1308,17201.58,29.99,-1.00,-1.0,2382
5287,2140287,17140,-384,1108,17180.07,30.04,-1.00,-1.0,2447
5290,2140290,17072,-376,1172,17116.31,30.18,-1.00,-1.0,2369
5293,2140293,17044,-256,1104,17081.64,30.04,-1.00,-1.0,2444
5295,2140295,17004,-272,1184,17047.34,30.04,-1.00,-1.0,2372
5298,2140298,16896,-264,1124,16935.40,30.04,-1.00,-1.0,2439
5301,2140301,17032,-328,1088,17069.87,30.13,-1.00,-1.0,2370
5306,2140306,17032,-276,1292,17083.16,30.04,-1.00,-1.0,2442
5309,2140309,17036,-204,1192,17078.87,30.04,-1.00,-1.0,2373
5311,2140311,16980,-280,1356,17036.36,30.13,-1.00,-1.0,2371
5314,2140314,17168,-320,1368,17225.39,30.08,-1.00,-1.0,2457
5317,2140317,17056,-184,1192,17098.59,29.99,-1.00,-1.0,2376
5320,2140320,16964,-156,1384,17021.08,30.04,-1.00,-1.0,2448
5322,2140322,16956,-208,1268,17004.62,30.08,-1.00,-1.0,2376
5325,2140325,17012,-216,1268,17060.56,30.04,-1.00,-1.0,2440
5328,2140328,16924,-196,1304,16975.29,30.13,-1.00,-1.0,2368
5333,2140333,16952,-276,1404,17012.28,30.04,-1.00,-1.0,2446
5336,2140336,16908,-348,1160,16951.32,30.08,-1.00,-1.0,2377
5338,2140338,16972,-336,1252,17021.43,30.13,-1.00,-1.0,2443
5341,2140341,32767,-9928,-6080,34773.67,30.04,-1.00,-1.0,2368
5344,2140344,-12816,8808,-7308,17182.48,30.18,-1.00,-1.0,2441
5347,2140347,5064,-9980,11604,16121.33,30.13,-1.00,-1.0,2369
5350,2140350,16912,25964,5952,31552.68,29.99,-1.00,-1.0,2437
5352,2140352,10576,-24024,11832,28792.37,29.99,-1.00,-1.0,2369
5357,2140357,28040,32767,5600,43488.82,30.08,-1.00,-1.0,2442
5360,2140360,12372,-23884,3260,27095.01,29.94,-1.00,-1.0,2370
5363,2140363,25816,16188,-1712,30519.63,30.08,-1.00,-1.0,2456
5366,2140366,14596,-12556,-6060,20184.65,30.18,-1.00,-1.0,2368
5368,2140368,25316,-2860,9568,27214.45,30.04,-1.00,-1.0,2356
5371,2140371,22388,11896,2828,25509.51,30.13,-1.00,-1.0,2438
5374,2140374,18812,-12540,-888,22625.90,30.13,-1.00,-1.0,2368
5376,2140376,19160,20364,1416,27996.48,30.13,-1.00,-1.0,2439
5379,2140379,7164,-16932,-1156,18421.51,30.04,-1.00,-1.0,2369
5384,2140384,13032,-3352,4708,14256.02,30.08,-1.00,-1.0,2442
5387,2140387,18444,-6524,7720,21031.93,29.99,-1.00,-1.0,2377
5390,2140390,17652,8748,616,19710.40,30.13,-1.00,-1.0,2454
5392,2140392,21104,-8052,3508,22858.69,30.08,-1.00,-1.0,2368
5395,2140395,18520,4912,3888,19550.82,30.13,-1.00,-1.0,2448
5398,2140398,17368,-252,1260,17415.47,30.04,-1.00,-1.0,2370
5401,2140401,18000,-2908,-660,18245.33,30.13,-1.00,-1.0,2437
5403,2140403,14684,176,-3796,15167.74,30.13,-1.00,-1.0,2354
5408,2140408,14900,4300,-1308,15563.12,30.08,-1.00,-1.0,2441
5411,2140411,15164,-1984,1012,15326.69,30.13,-1.00,-1.0,2435
5414,2140414,15852,-388,-352,15860.65,30.04,-1.00,-1.0,2435
5417,2140417,15108,372,920,15140.56,30.08,-1.00,-1.0,2387
5419,2140419,17104,2532,1076,17323.85,30.04,-1.00,-1.0,2433
5422,2140422,17932,2432,1476,18156.26,30.04,-1.00,-1.0,2401
5425,2140425,18036,-1880,1480,18194.01,30.18,-1.00,-1.0,2370
5427,2140427,16756,3584,876,17157.39,30.08,-1.00,-1.0,2421
5430,2140430,18416,-3104,1260,18718.21,30.18,-1.00,-1.0,2385
5435,2140435,16112,-1888,228,16223.84,30.08,-1.00,-1.0,2450
5438,2140438,17092,-56,1712,17177.62,30.08,-1.00,-1.0,2375
5441,2140441,16848,996,1716,16964.43,30.13,-1.00,-1.0,2446
5443,2140443,16512,-2504,436,16706.47,30.08,-1.00,-1.0,2369
5446,2140446,17272,3044,1712,17621.54,30.13,-1.00,-1.0,2453
5449,2140449,16816,-2452,1976,17108.32,30.22,-1.00,-1.0,2386
5452,2140452,17204,1108,2496,17419.39,30.18,-1.00,-1.0,2440
5455,2140455,16244,680,752,16275.61,30.13,-1.00,-1.0,2369
5460,2140460,18212,2960,2032,18562.53,30.13,-1.00,-1.0,2450
5462,2140462,17468,-1580,276,17541.48,30.04,-1.00,-1.0,2382
5465,2140465,16900,828,-56,16920.36,30.08,-1.00,-1.0,2440
5468,2140468,16708,-816,1244,16774.11,30.18,-1.00,-1.0,2370
5470,2140470,16972,-1212,2088,17142.86,30.08,-1.00,-1.0,2368
5473,2140473,17704,-476,1700,17791.80,30.04,-1.00,-1.0,2455
5476,2140476,17192,-2288,1800,17436.74,30.13,-1.00,-1.0,2376
5479,2140479,16948,688,2560,17154.06,30.13,-1.00,-1.0,2444
5482,2140482,16876,-1652,1124,16993.88,30.13,-1.00,-1.0,2376
5487,2140487,17348,-632,1800,17452.58,30.13,-1.00,-1.0,2450
5489,2140489,17000,360,636,17015.70,30.13,-1.00,-1.0,2384
5492,2140492,17132,-308,880,17157.35,29.99,-1.00,-1.0,2440
5495,2140495,17108,944,1296,17182.97,30.18,-1.00,-1.0,2374
5498,2140498,16760,-1332,1496,16879.27,30.08,-1.00,-1.0,2438
5500,2140500,17548,976,944,17600.46,30.08,-1.00,-1.0,2370
5503,2140503,16556,-1024,1196,16630.70,30.13,-1.00,-1.0,2441
5506,2140506,16900,-1340,1532,17022.12,30.08,-1.00,-1.0,2370
5511,2140511,17504,-284,1144,17543.64,30.08,-1.00,-1.0,2448
5514,2140514,17788,-772,2200,17940.15,30.08,-1.00,-1.0,2373
5516,2140516,16920,-812,1128,16976.99,30.22,-1.00,-1.0,2373
5519,2140519,17320,-476,1720,17411.70,30.08,-1.00,-1.0,2450
5522,2140522,16380,404,912,16410.34,30.13,-1.00,-1.0,2361
5525,2140525,17320,-940,1080,17379.08,30.08,-1.00,-1.0,2449
5527,2140527,16856,576,1116,16902.72,30.13,-1.00,-1.0,2376
5530,2140530,17280,-896,1356,17356.27,30.08,-1.00,-1.0,2438
5533,2140533,17184,364,1268,17234.56,30.08,-1.00,-1.0,2368
5538,2140538,16816,156,816,16836.51,30.08,-1.00,-1.0,2460
5541,2140541,17152,1012,896,17205.18,30.08,-1.00,-1.0,2374
5544,2140544,17264,-964,1104,17326.10,30.08,-1.00,-1.0,2446
5546,2140546,16976,444,1008,17011.70,30.18,-1.00,-1.0,2371
5549,2140549,17116,-972,1368,17198.07,30.13,-1.00,-1.0,2439
5552,2140552,16856,-504,992,16892.69,30.08,-1.00,-1.0,2368
5555,2140555,16928,-588,1352,16992.08,30.04,-1.00,-1.0,2446
5557,2140557,16924,-272,876,16948.84,30.04,-1.00,-1.0,2370
5560,2140560,17008,-240,1532,17078.54,30.13,-1.00,-1.0,2376
5565,2140565,17052,-356,1748,17145.06,30.04,-1.00,-1.0,2448
5568,2140568,16860,-216,1532,16930.84,30.04,-1.00,-1.0,2381
5571,2140571,17084,-60,2060,17207.85,30.08,-1.00,-1.0,2453
5573,2140573,16820,132,1312,16871.61,30.04,-1.00,-1.0,2377
5576,2140576,16824,28,1296,16873.87,30.18,-1.00,-1.0,2447
5579,2140579,17020,-12,1268,17067.17,30.18,-1.00,-1.0,2359
5582,2140582,17176,-188,1488,17241.36,30.04,-1.00,-1.0,2437
5584,2140584,16964,-28,1164,17003.91,30.08,-1.00,-1.0,2357
5589,2140589,16924,-680,1504,17004.30,30.13,-1.00,-1.0,2447
5592,2140592,17044,-740,1064,17093.21,30.13,-1.00,-1.0,2372
5595,2140595,17044,-568,992,17082.29,30.04,-1.00,-1.0,2444
5597,2140597,16952,-1160,724,17007.06,30.13,-1.00,-1.0,2356
5600,2140600,17272,-548,1288,17328.62,30.18,-1.00,-1.0,2376
5603,2140603,17128,-388,1340,17184.72,30.04,-1.00,-1.0,2471
5606,2140606,17260,-784,1092,17312.27,30.13,-1.00,-1.0,2377
5609,2140609,17024,-140,1216,17067.95,30.08,-1.00,-1.0,2448
5611,2140611,17040,-512,980,17075.84,30.13,-1.00,-1.0,2376
5616,2140616,16908,-4,1000,16937.55,30.04,-1.00,-1.0,2451
5619,2140619,17032,-332,1404,17092.99,30.04,-1.00,-1.0,2381
5622,2140622,17080,500,1196,17129.12,30.08,-1.00,-1.0,2440
5624,2140624,17036,-408,1220,17084.50,30.13,-1.00,-1.0,2369
5627,2140627,16984,-64,1188,17025.62,29.99,-1.00,-1.0,2450
5630,2140630,17140,-752,1532,17224.75,30.18,-1.00,-1.0,2372
5633,2140633,17168,4,1428,17227.29,30.13,-1.00,-1.0,2448
5635,2140635,17136,-816,1320,17206.12,30.13,-1.00,-1.0,2374
5640,2140640,17032,-456,1544,17107.92,30.13,-1.00,-1.0,2473
5643,2140643,17028,-244,1304,17079.60,30.13,-1.00,-1.0,2369
5646,2140646,16828,-72,1340,16881.42,30.08,-1.00,-1.0,2373
5649,2140649,16792,-408,1140,16835.60,30.04,-1.00,-1.0,2448
5651,2140651,16824,64,1396,16881.94,30.13,-1.00,-1.0,2376
5654,2140654,17060,-264,1416,17120.70,30.04,-1.00,-1.0,2440
5657,2140657,17012,-24,1548,17082.30,30.13,-1.00,-1.0,2368
5660,2140660,17036,-4,1500,17101.91,30.04,-1.00,-1.0,2445
5662,2140662,17276,-316,1296,17327.42,30.04,-1.00,-1.0,2369
5667,2140667,17040,-612,1104,17086.69,30.13,-1.00,-1.0,2441
5670,2140670,16956,-296,1124,16995.79,30.04,-1.00,-1.0,2371
5673,2140673,16936,-592,1120,16983.31,30.04,-1.00,-1.0,2438
5676,2140676,17052,-528,1200,17102.32,30.13,-1.00,-1.0,2367
5678,2140678,17032,-380,1096,17071.46,30.18,-1.00,-1.0,2440
5681,2140681,17012,-384,1088,17051.08,30.22,-1.00,-1.0,2369
5684,2140684,16884,-96,1064,16917.77,30.08,-1.00,-1.0,2377
5687,2140687,16948,-508,1340,17008.48,30.13,-1.00,-1.0,2450
5689,2140689,16856,-196,1268,16904.76,30.13,-1.00,-1.0,2375
5694,2140694,17052,-596,1624,17139.52,30.04,-1.00,-1.0,2463
5697,2140697,17132,-340,1476,17198.83,30.13,-1.00,-1.0,2385
5700,2140700,17052,-584,1208,17104.71,30.13,-1.00,-1.0,2439
5703,2140703,17132,-472,1164,17177.98,30.04,-1.00,-1.0,2368
5705,2140705,17096,-556,972,17132.63,30.18,-1.00,-1.0,2440
5708,2140708,17036,-364,1008,17069.68,30.13,-1.00,-1.0,2369
5711,2140711,16992,-412,1172,17037.35,30.08,-1.00,-1.0,2439
5714,2140714,16988,-396,1104,17028.44,30.08,-1.00,-1.0,2368
5719,2140719,17024,-248,1284,17074.15,30.13,-1.00,-1.0,2452
5721,2140721,17024,-168,1472,17088.35,30.13,-1.00,-1.0,2370
5724,2140724,17012,-100,1592,17086.62,30.18,-1.00,-1.0,2440
5727,2140727,16888,-8,1504,16954.84,30.08,-1.00,-1.0,2368
5730,2140730,16940,0,1180,16981.05,30.04,-1.00,-1.0,2374
5732,2140732,16980,-104,1316,17031.24,30.13,-1.00,-1.0,2449
5735,2140735,16980,-52,972,17007.88,30.13,-1.00,-1.0,2377
5738,2140738,17068,-88,892,17091.52,30.18,-1.00,-1.0,2438
5741,2140741,17184,-248,1020,17216.03,30.13,-1.00,-1.0,2367
5746,2140746,17116,-192,1040,17148.64,30.04,-1.00,-1.0,2456
5748,2140748,17112,-408,1372,17171.76,30.13,-1.00,-1.0,2378
5751,2140751,16912,-408,1320,16968.34,30.13,-1.00,-1.0,2439
5754,2140754,16896,-348,1468,16963.22,30.08,-1.00,-1.0,2368
5757,2140757,17112,-192,1308,17162.99,30.08,-1.00,-1.0,2444
5759,2140759,17044,-44,1348,17097.28,30.08,-1.00,-1.0,2368
5762,2140762,16996,-176,1524,17065.10,30.13,-1.00,-1.0,2441
5765,2140765,17064,-284,1508,17132.86,30.18,-1.00,-1.0,2369
5770,2140770,16976,-344,1456,17041.80,30.18,-1.00,-1.0,2454
5773,2140773,17092,-616,1424,17162.28,30.08,-1.00,-1.0,2371
5775,2140775,17004,-616,1264,17062.04,30.04,-1.00,-1.0,2374
5778,2140778,17100,-576,1608,17185.09,30.04,-1.00,-1.0,2443
5781,2140781,17132,-512,1304,17189.18,30.13,-1.00,-1.0,2369
5784,2140784,17076,-508,1360,17137.60,30.18,-1.00,-1.0,2440
5786,2140786,17072,-420,1356,17130.92,30.18,-1.00,-1.0,2359
5789,2140789,17056,-416,1464,17123.77,29.99,-1.00,-1.0,2437
5792,2140792,16976,-412,1520,17048.89,30.08,-1.00,-1.0,2368
5799,2140799,17000,-516,1256,17054.14,30.08,-1.00,-1.0,2459
5801,2140801,17004,-404,1232,17053.36,30.08,-1.00,-1.0,2370
5804,2140804,16956,-420,1036,16992.81,30.04,-1.00,-1.0,2445
5807,2140807,16912,-444,1176,16958.65,30.04,-1.00,-1.0,2371
5810,2140810,17028,-620,1124,17076.32,30.13,-1.00,-1.0,2441
5813,2140813,17056,-472,952,17089.07,30.13,-1.00,-1.0,2375
5815,2140815,17148,-456,952,17180.46,30.08,-1.00,-1.0,2446
5818,2140818,17156,-304,1168,17198.40,30.04,-1.00,-1.0,2373
5821,2140821,17096,-308,1076,17132.60,30.08,-1.00,-1.0,2368
5825,2140825,16992,-20,1152,17031.02,30.08,-1.00,-1.0,2453
5828,2140828,16872,-60,1068,16905.88,30.18,-1.00,-1.0,2373
5831,2140831,16860,-28,812,16879.56,30.04,-1.00,-1.0,2486
5834,2140834,16824,44,1032,16855.68,29.99,-1.00,-1.0,2357
5837,2140837,16896,120,1044,16928.65,30.08,-1.00,-1.0,2440
5839,2140839,16868,-8,1136,16906.21,30.08,-1.00,-1.0,2371
5842,2140842,16972,-112,1140,17010.61,30.04,-1.00,-1.0,2438
5845,2140845,16948,-224,1292,16998.65,30.08,-1.00,-1.0,2368
5850,2140850,17084,-288,1364,17140.79,30.08,-1.00,-1.0,2448
5853,2140853,17064,-312,1328,17118.44,30.08,-1.00,-1.0,2368
5855,2140855,17208,-312,1428,17269.97,30.04,-1.00,-1.0,2443
5858,2140858,17072,-228,1444,17134.48,30.08,-1.00,-1.0,2355
5861,2140861,17060,-220,1300,17110.87,30.13,-1.00,-1.0,2439
5864,2140864,16920,-300,1288,16971.60,30.13,-1.00,-1.0,2376
5866,2140866,16924,-320,1232,16971.80,30.08,-1.00,-1.0,2381
5869,2140869,17008,-276,1316,17061.07,30.08,-1.00,-1.0,2446
5872,2140872,17048,-376,1440,17112.84,30.08,-1.00,-1.0,2356
5877,2140877,17036,-348,1424,17098.95,30.08,-1.00,-1.0,2456
5880,2140880,17068,-420,1612,17149.10,30.08,-1.00,-1.0,2374
5882,2140882,17028,-464,1468,17097.46,30.08,-1.00,-1.0,2433
5885,2140885,17068,-448,1400,17131.18,30.08,-1.00,-1.0,2356
5888,2140888,17072,-472,1296,17127.63,30.13,-1.00,-1.0,2440
5891,2140891,17056,-432,1288,17110.02,29.99,-1.00,-1.0,2367
5893,2140893,16988,-384,1304,17042.30,30.13,-1.00,-1.0,2438
5896,2140896,17108,-272,1320,17161.00,30.13,-1.00,-1.0,2368
5901,2140901,17136,-224,1448,17198.53,30.04,-1.00,-1.0,2456
5904,2140904,17136,-392,1392,17196.91,30.18,-1.00,-1.0,2373
5907,2140907,17048,-440,1352,17107.19,30.04,-1.00,-1.0,2450
5909,2140909,16992,-388,1360,17050.75,30.04,-1.00,-1.0,2369
5912,2140912,17072,-508,1444,17140.49,30.04,-1.00,-1.0,2369
5915,2140915,17056,-384,1336,17112.55,30.08,-1.00,-1.0,2444
5918,2140918,16976,-292,1192,17020.30,30.08,-1.00,-1.0,2374
5920,2140920,16992,-168,1384,17049.10,30.13,-1.00,-1.0,2442
5923,2140923,17048,-96,1212,17091.30,30.08,-1.00,-1.0,2371
5928,2140928,16924,-268,1092,16961.31,30.08,-1.00,-1.0,2459
5931,2140931,17012,-312,1264,17061.75,30.18,-1.00,-1.0,2373
5934,2140934,17080,-360,1236,17128.45,30.04,-1.00,-1.0,2443
5936,2140936,16992,-448,1212,17041.06,30.13,-1.00,-1.0,2370
5939,2140939,17020,-460,1328,17077.93,30.04,-1.00,-1.0,2439
5942,2140942,17052,-252,1216,17097.16,30.04,-1.00,-1.0,2369
5945,2140945,16996,-304,1324,17050.20,30.18,-1.00,-1.0,2445
5947,2140947,17064,-160,1072,17098.39,30.13,-1.00,-1.0,2368
5952,2140952,16948,-64,976,16976.20,30.13,-1.00,-1.0,2446
5955,2140955,16900,-4,1032,16931.48,30.13,-1.00,-1.0,2369
5958,2140958,17032,-236,1180,17074.46,30.08,-1.00,-1.0,2379
5961,2140961,17028,-208,1224,17073.20,30.04,-1.00,-1.0,2451
5963,2140963,17016,-328,1324,17070.58,30.08,-1.00,-1.0,2377
5966,2140966,17076,-360,1124,17116.74,30.13,-1.00,-1.0,2440
5969,2140969,17108,-424,1316,17163.78,30.04,-1.00,-1.0,2369
5972,2140972,17080,-472,1296,17135.60,30.04,-1.00,-1.0,2438
5974,2140974,17012,-352,1380,17071.51,30.04,-1.00,-1.0,2370
5980,2140980,16972,-276,1368,17029.28,30.04,-1.00,-1.0,2453
5982,2140982,16876,-236,1256,16924.32,30.04,-1.00,-1.0,2378
5985,2140985,16968,-248,1188,17011.35,30.04,-1.00,-1.0,2443
5988,2140988,17084,-360,1368,17142.46,30.13,-1.00,-1.0,2367
5991,2140991,16996,-220,1504,17063.83,29.99,-1.00,-1.0,2447
5993,2140993,16948,-408,1468,17016.35,30.13,-1.00,-1.0,2369
5996,2140996,17092,-452,1340,17150.40,30.08,-1.00,-1.0,2438
5999,2140999,17148,-460,1468,17216.87,30.04,-1.00,-1.0,2368
6002,2141002,17040,-512,1560,17118.92,30.18,-1.00,-1.0,2373
6006,2141006,17064,-516,1400,17129.11,30.13,-1.00,-1.0,2455
6009,2141009,16980,-500,1396,17044.62,30.13,-1.00,-1.0,2358
6012,2141012,17100,-492,1232,17151.38,29.99,-1.00,-1.0,2473
6015,2141015,17052,-356,1284,17103.98,30.18,-1.00,-1.0,2374
6018,2141018,16980,-308,1316,17033.71,30.04,-1.00,-1.0,2451
6020,2141020,17028,-344,1236,17076.27,30.04,-1.00,-1.0,2376
6023,2141023,17100,-304,1224,17146.45,30.08,-1.00,-1.0,2439
6026,2141026,17052,-272,1240,17099.19,30.13,-1.00,-1.0,2371
6031,2141031,17020,-292,1404,17080.31,30.13,-1.00,-1.0,2450
6033,2141033,17020,-192,1200,17063.33,30.04,-1.00,-1.0,2379
6036,2141036,16964,-184,1180,17005.99,30.13,-1.00,-1.0,2449
6039,2141039,17056,-164,1068,17090.19,30.13,-1.00,-1.0,2370
6042,2141042,17084,-308,1292,17135.55,30.18,-1.00,-1.0,2440
6044,2141044,17044,-280,984,17074.68,30.04,-1.00,-1.0,2370
6047,2141047,17024,-288,1224,17070.38,30.08,-1.00,-1.0,2438
6050,2141050,17096,-304,1252,17144.48,30.22,-1.00,-1.0,2445
6053,2141053,17064,-280,1088,17100.94,29.99,-1.00,-1.0,2375
