timestamp_ms,global_ms,accel_x,accel_y,accel_z,accel_mag,temp_c,voltage,soc,loop_us
3,2135003,17004,836,1224,17068.48,25.66,-1.00,-1.0,2484
9,2135009,16992,884,1108,17051.02,25.66,-1.00,-1.0,2466
12,2135012,16988,764,1180,17046.06,25.71,-1.00,-1.0,2369
15,2135015,16972,788,1252,17036.35,25.75,-1.00,-1.0,2361
17,2135017,17000,876,1180,17063.40,25.71,-1.00,-1.0,2431
20,2135020,17056,920,1072,17114.40,25.66,-1.00,-1.0,2367
23,2135023,17056,876,1252,17124.31,25.66,-1.00,-1.0,2431
26,2135026,17020,836,1060,17073.46,25.66,-1.00,-1.0,2364
28,2135028,16912,884,1108,16971.29,25.75,-1.00,-1.0,2433
31,2135031,16944,844,1100,17000.63,25.71,-1.00,-1.0,2366
36,2135036,16980,880,1180,17043.69,25.61,-1.00,-1.0,2442
39,2135039,17024,880,1148,17085.34,25.75,-1.00,-1.0,2367
41,2135041,17044,924,1172,17109.22,25.71,-1.00,-1.0,2357
44,2135044,17004,900,1100,17063.29,25.71,-1.00,-1.0,2453
47,2135047,16940,868,1160,17001.84,25.71,-1.00,-1.0,2357
49,2135049,16932,904,1112,16992.54,25.61,-1.00,-1.0,2437
52,2135052,17052,888,1288,17123.62,25.71,-1.00,-1.0,2361
55,2135055,16972,968,1108,17035.65,25.61,-1.00,-1.0,2438
58,2135058,16984,824,1168,17044.04,25.71,-1.00,-1.0,2373
63,2135063,16996,844,1216,17060.33,25.66,-1.00,-1.0,2443
65,2135065,16964,824,1232,17028.62,25.66,-1.00,-1.0,2350
68,2135068,17036,920,1120,17097.55,25.71,-1.00,-1.0,2460
71,2135071,17012,864,1232,17078.42,25.71,-1.00,-1.0,2361
73,2135073,16968,832,1124,17025.53,25.57,-1.00,-1.0,2366
76,2135076,16976,856,1244,17043.03,25.66,-1.00,-1.0,2419
79,2135079,17012,848,1224,17077.04,25.61,-1.00,-1.0,2380
82,2135082,16996,944,1252,17068.18,25.75,-1.00,-1.0,2438
84,2135084,16992,812,1176,17051.99,25.61,-1.00,-1.0,2364
89,2135089,17024,880,1268,17093.82,25.71,-1.00,-1.0,2438
92,2135092,17008,884,1188,17072.34,25.71,-1.00,-1.0,2362
95,2135095,16996,824,1260,17062.55,25.80,-1.00,-1.0,2440
98,2135098,17044,848,1120,17101.80,25.71,-1.00,-1.0,2364
100,2135100,16972,852,1168,17033.46,25.61,-1.00,-1.0,2356
103,2135103,17016,880,1128,17076.04,25.71,-1.00,-1.0,2452
106,2135106,17036,872,1176,17098.79,25.61,-1.00,-1.0,2362
108,2135108,16920,852,1296,16990.94,25.57,-1.00,-1.0,2436
111,2135111,17080,860,1092,17136.47,25.71,-1.00,-1.0,2358
116,2135116,16884,788,1152,16941.59,25.61,-1.00,-1.0,2424
119,2135119,16984,852,1208,17048.21,25.75,-1.00,-1.0,2363
122,2135122,16928,840,1248,16994.71,25.71,-1.00,-1.0,2439
124,2135124,16860,764,1168,16917.67,25.66,-1.00,-1.0,2361
127,2135127,16912,824,1172,16972.57,25.71,-1.00,-1.0,2359
130,2135130,17040,904,1204,17106.38,25.61,-1.00,-1.0,2443
132,2135132,16872,744,1144,16927.10,25.71,-1.00,-1.0,2361
135,2135135,16948,800,1084,17001.46,25.61,-1.00,-1.0,2436
138,2135138,16840,868,1160,16902.21,25.71,-1.00,-1.0,2360
143,2135143,17028,912,1132,17089.94,25.61,-1.00,-1.0,2425
146,2135146,17004,900,1356,17081.71,25.71,-1.00,-1.0,2368
148,2135148,16896,852,1064,16950.89,25.71,-1.00,-1.0,2432
151,2135151,16940,788,1172,16998.77,25.71,-1.00,-1.0,2365
154,2135154,17040,844,1240,17105.89,25.61,-1.00,-1.0,2430
157,2135157,17044,900,1152,17106.58,25.57,-1.00,-1.0,2368
159,2135159,17000,776,1236,17062.53,25.71,-1.00,-1.0,2355
162,2135162,17044,836,1200,17106.63,25.66,-1.00,-1.0,2450
165,2135165,17032,936,1112,17093.91,25.71,-1.00,-1.0,2361
170,2135170,17060,940,1248,17131.39,25.61,-1.00,-1.0,2438
173,2135173,17116,916,1248,17185.87,25.71,-1.00,-1.0,2367
175,2135175,16952,776,1192,17011.56,25.71,-1.00,-1.0,2434
178,2135178,17016,1016,1268,17093.40,25.71,-1.00,-1.0,2365
181,2135181,16972,712,956,17013.81,25.71,-1.00,-1.0,2429
184,2135184,16952,936,1212,17021.03,25.61,-1.00,-1.0,2363
186,2135186,16964,884,1196,17029.07,25.61,-1.00,-1.0,2430
189,2135189,16988,780,1148,17044.60,25.61,-1.00,-1.0,2366
192,2135192,17088,888,1120,17147.67,25.75,-1.00,-1.0,2363
197,2135197,16956,888,1236,17024.16,25.61,-1.00,-1.0,2437
200,2135200,16996,860,1104,17053.52,25.71,-1.00,-1.0,2367
202,2135202,17028,836,1152,17087.39,25.66,-1.00,-1.0,2437
205,2135205,17044,784,1292,17110.87,25.71,-1.00,-1.0,2352
208,2135208,17108,828,1140,17165.92,25.71,-1.00,-1.0,2430
211,2135211,17028,840,1180,17089.49,25.71,-1.00,-1.0,2364
213,2135213,16924,872,1112,16982.89,25.66,-1.00,-1.0,2429
216,2135216,16992,888,1112,17051.48,25.71,-1.00,-1.0,2364
221,2135221,17008,860,1124,17066.78,25.61,-1.00,-1.0,2440
224,2135224,17140,860,1192,17202.91,25.71,-1.00,-1.0,2368
226,2135226,17032,808,1168,17091.11,25.57,-1.00,-1.0,2356
229,2135229,17000,864,1148,17060.61,25.66,-1.00,-1.0,2440
232,2135232,16932,840,1236,16997.82,25.66,-1.00,-1.0,2372
234,2135234,17020,896,1244,17088.91,25.66,-1.00,-1.0,2429
237,2135237,16984,896,1332,17059.70,25.66,-1.00,-1.0,2366
240,2135240,16952,860,1164,17013.67,25.61,-1.00,-1.0,2430
243,2135243,16904,852,1124,16962.74,25.71,-1.00,-1.0,2373
248,2135248,16948,860,1244,17015.34,25.71,-1.00,-1.0,2438
251,2135251,17032,836,1236,17097.24,25.61,-1.00,-1.0,2369
253,2135253,17036,916,1092,17095.52,25.66,-1.00,-1.0,2434
256,2135256,17012,816,1184,17072.66,25.61,-1.00,-1.0,2368
259,2135259,16948,744,1304,17014.37,25.66,-1.00,-1.0,2362
261,2135261,17008,896,1152,17070.50,25.66,-1.00,-1.0,2417
264,2135264,17064,940,1216,17133.08,25.66,-1.00,-1.0,2366
267,2135267,17028,796,1264,17093.39,25.66,-1.00,-1.0,2429
270,2135270,16932,840,1240,16998.11,25.71,-1.00,-1.0,2364
275,2135275,16940,900,1116,17000.56,25.61,-1.00,-1.0,2448
278,2135278,17000,816,1084,17054.06,25.61,-1.00,-1.0,2364
281,2135281,17048,900,1060,17104.62,25.71,-1.00,-1.0,2454
283,2135283,16968,848,1248,17034.95,25.71,-1.00,-1.0,2369
286,2135286,16940,996,1228,17013.63,25.61,-1.00,-1.0,2360
289,2135289,17024,972,1044,17083.66,25.66,-1.00,-1.0,2435
291,2135291,16932,920,1076,16991.08,25.66,-1.00,-1.0,2362
294,2135294,16972,768,1224,17033.40,25.66,-1.00,-1.0,2438
297,2135297,16956,884,1096,17014.37,25.75,-1.00,-1.0,2358
302,2135302,16964,948,1084,17025.01,25.66,-1.00,-1.0,2448
305,2135305,16976,800,1040,17026.63,25.61,-1.00,-1.0,2364
308,2135308,17032,872,1208,17097.04,25.66,-1.00,-1.0,2451
310,2135310,17008,916,1208,17075.43,25.52,-1.00,-1.0,2368
313,2135313,16968,872,1132,17028.06,25.75,-1.00,-1.0,2443
316,2135316,16888,872,1284,16959.17,25.71,-1.00,-1.0,2362
318,2135318,17012,684,1212,17068.83,25.66,-1.00,-1.0,2348
321,2135321,16896,868,1224,16962.50,25.71,-1.00,-1.0,2430
324,2135324,16916,868,1304,16988.38,25.66,-1.00,-1.0,2365
329,2135329,16992,808,1172,17051.53,25.61,-1.00,-1.0,2462
332,2135332,16976,872,1196,17040.40,25.61,-1.00,-1.0,2365
335,2135335,16964,820,1196,17025.87,25.71,-1.00,-1.0,2446
337,2135337,16936,980,1108,17000.47,25.61,-1.00,-1.0,2362
340,2135340,16952,848,1184,17014.44,25.71,-1.00,-1.0,2445
343,2135343,17096,784,1220,17157.40,25.71,-1.00,-1.0,2360
346,2135346,16892,928,1268,16964.92,25.71,-1.00,-1.0,2445
348,2135348,16976,812,1204,17038.00,25.71,-1.00,-1.0,2361
351,2135351,17016,880,1020,17069.24,25.66,-1.00,-1.0,2349
356,2135356,16940,772,1140,16995.86,25.66,-1.00,-1.0,2443
359,2135359,16956,824,1272,17023.60,25.66,-1.00,-1.0,2364
362,2135362,17020,948,1184,17087.45,25.66,-1.00,-1.0,2438
364,2135364,17116,840,1104,17172.12,25.66,-1.00,-1.0,2364
367,2135367,16952,1004,1204,17024.33,25.80,-1.00,-1.0,2462
370,2135370,16996,780,1120,17050.71,25.71,-1.00,-1.0,2360
373,2135373,16904,916,1192,16970.71,25.71,-1.00,-1.0,2446
375,2135375,16976,892,1124,17036.54,25.71,-1.00,-1.0,2362
380,2135380,16948,856,1200,17011.98,25.61,-1.00,-1.0,2441
383,2135383,16956,860,1196,17019.87,25.61,-1.00,-1.0,2360
386,2135386,17048,888,1320,17122.07,25.71,-1.00,-1.0,2361
388,2135388,17008,900,1156,17070.98,25.57,-1.00,-1.0,2431
391,2135391,16924,864,1132,16983.81,25.61,-1.00,-1.0,2365
394,2135394,16996,752,1080,17046.88,25.71,-1.00,-1.0,2430
397,2135397,16980,924,1220,17048.83,25.57,-1.00,-1.0,2427
400,2135400,16988,832,1176,17048.97,25.61,-1.00,-1.0,2441
402,2135402,16960,820,1240,17025.03,25.71,-1.00,-1.0,2368
408,2135408,17092,924,1116,17153.30,25.66,-1.00,-1.0,2440
410,2135410,16956,848,1224,17021.26,25.66,-1.00,-1.0,2367
413,2135413,17036,816,1060,17088.44,25.66,-1.00,-1.0,2442
416,2135416,16956,820,1100,17011.42,25.71,-1.00,-1.0,2369
418,2135418,16884,860,1136,16944.01,25.66,-1.00,-1.0,2368
421,2135421,17076,884,1204,17141.20,25.71,-1.00,-1.0,2427
424,2135424,17040,900,1048,17095.90,25.66,-1.00,-1.0,2368
427,2135427,17000,812,1344,17072.37,25.71,-1.00,-1.0,2435
429,2135429,16948,792,1224,17010.59,25.66,-1.00,-1.0,2377
434,2135434,16996,900,1220,17063.48,25.61,-1.00,-1.0,2439
437,2135437,17016,916,1316,17091.38,25.66,-1.00,-1.0,2365
440,2135440,16988,896,1296,17060.91,25.71,-1.00,-1.0,2428
442,2135442,17072,992,1220,17144.26,25.57,-1.00,-1.0,2374
445,2135445,16928,864,1236,16995.04,25.71,-1.00,-1.0,2427
448,2135448,16992,840,1100,17048.28,25.75,-1.00,-1.0,2373
450,2135450,17052,920,1176,17117.24,25.71,-1.00,-1.0,2358
453,2135453,17116,812,1220,17178.63,25.61,-1.00,-1.0,2441
456,2135456,16968,740,1288,17032.90,25.75,-1.00,-1.0,2363
461,2135461,16976,824,1208,17038.86,25.80,-1.00,-1.0,2445
464,2135464,17096,796,1176,17154.88,25.66,-1.00,-1.0,2351
467,2135467,16972,736,1204,17030.56,25.71,-1.00,-1.0,2444
469,2135469,16964,788,1312,17032.90,25.66,-1.00,-1.0,2374
472,2135472,16972,936,1056,17030.56,25.71,-1.00,-1.0,2441
475,2135475,17044,760,1236,17105.65,25.66,-1.00,-1.0,2368
478,2135478,17052,876,1236,17119.16,25.61,-1.00,-1.0,2446
480,2135480,16944,804,1252,17009.21,25.71,-1.00,-1.0,2370
483,2135483,17004,876,1112,17062.82,25.61,-1.00,-1.0,2369
488,2135488,16864,852,1136,16923.68,25.66,-1.00,-1.0,2439
491,2135491,16948,844,1224,17013.09,25.66,-1.00,-1.0,2364
494,2135494,16972,836,1152,17031.58,25.57,-1.00,-1.0,2441
496,2135496,17008,932,1156,17072.70,25.66,-1.00,-1.0,2362
499,2135499,16852,948,1256,16925.31,25.57,-1.00,-1.0,2441
502,2135502,17044,824,1184,17104.93,25.66,-1.00,-1.0,2363
505,2135505,17000,792,1272,17065.91,25.75,-1.00,-1.0,2441
507,2135507,16968,912,1272,17040.03,25.75,-1.00,-1.0,2362
510,2135510,17024,916,1112,17084.85,25.71,-1.00,-1.0,2368
515,2135515,17000,880,1288,17071.42,25.71,-1.00,-1.0,2445
518,2135518,17000,860,1112,17058.02,25.66,-1.00,-1.0,2372
521,2135521,16928,932,1116,16990.33,25.61,-1.00,-1.0,2423
523,2135523,16916,844,1048,16969.43,25.66,-1.00,-1.0,2361
526,2135526,16860,860,1160,16921.73,25.71,-1.00,-1.0,2446
529,2135529,17048,856,1276,17117.10,25.75,-1.00,-1.0,2361
532,2135532,16936,756,1216,16996.42,25.71,-1.00,-1.0,2439
534,2135534,16932,888,1240,17000.55,25.66,-1.00,-1.0,2362
539,2135539,16864,792,1152,16921.85,25.75,-1.00,-1.0,2437
542,2135542,17016,792,1132,17071.99,25.71,-1.00,-1.0,2363
545,2135545,17036,832,1100,17091.74,25.75,-1.00,-1.0,2359
547,2135547,17000,956,1108,17062.87,25.66,-1.00,-1.0,2429
550,2135550,16940,992,1316,17019.97,25.66,-1.00,-1.0,2367
553,2135553,16932,812,1288,17000.32,25.75,-1.00,-1.0,2427
556,2135556,17004,892,1076,17061.34,25.71,-1.00,-1.0,2366
558,2135558,16996,896,1264,17066.47,25.75,-1.00,-1.0,2429
561,2135561,17004,844,1116,17061.47,25.66,-1.00,-1.0,2367
566,2135566,16944,832,1312,17015.07,25.66,-1.00,-1.0,2440
569,2135569,17036,920,1256,17106.99,25.71,-1.00,-1.0,2366
572,2135572,16956,856,1324,17029.14,25.66,-1.00,-1.0,2434
574,2135574,17076,872,1120,17134.89,25.71,-1.00,-1.0,2374
577,2135577,16968,752,1276,17032.52,25.66,-1.00,-1.0,2360
580,2135580,16976,816,1148,17034.33,25.66,-1.00,-1.0,2427
583,2135583,17004,876,1084,17061.02,25.71,-1.00,-1.0,2368
585,2135585,16964,796,1076,17016.72,25.61,-1.00,-1.0,2426
588,2135588,17064,836,1204,17126.84,25.66,-1.00,-1.0,2366
593,2135593,16968,836,1216,17032.04,25.75,-1.00,-1.0,2439
596,2135596,17000,836,1192,17062.23,25.75,-1.00,-1.0,2351
599,2135599,16980,808,1192,17040.96,25.75,-1.00,-1.0,2435
601,2135601,16984,816,1216,17047.02,25.71,-1.00,-1.0,2370
604,2135604,17036,880,1268,17105.78,25.66,-1.00,-1.0,2422
607,2135607,16992,804,1116,17047.58,25.61,-1.00,-1.0,2368
610,2135610,16964,948,1236,17035.37,25.61,-1.00,-1.0,2360
612,2135612,16944,800,1160,17002.49,25.61,-1.00,-1.0,2427
615,2135615,16972,884,1264,17041.95,25.61,-1.00,-1.0,2353
620,2135620,16988,864,1304,17059.87,25.66,-1.00,-1.0,2437
623,2135623,16964,1040,1036,17027.39,25.66,-1.00,-1.0,2364
626,2135626,17008,756,1116,17061.33,25.66,-1.00,-1.0,2421
629,2135629,16900,824,1116,16956.84,25.61,-1.00,-1.0,2371
631,2135631,16940,808,1184,17000.54,25.75,-1.00,-1.0,2426
634,2135634,16920,892,1196,16985.65,25.66,-1.00,-1.0,2383
637,2135637,16904,856,1276,16973.69,25.66,-1.00,-1.0,2435
639,2135639,16908,856,1208,16972.70,25.71,-1.00,-1.0,2369
642,2135642,16968,856,1200,17031.90,25.71,-1.00,-1.0,2361
647,2135647,16928,920,1152,16992.08,25.66,-1.00,-1.0,2440
650,2135650,16888,828,1268,16955.76,25.71,-1.00,-1.0,2364
653,2135653,17020,864,1172,17082.17,25.66,-1.00,-1.0,2439
655,2135655,16952,800,1356,17024.95,25.71,-1.00,-1.0,2360
658,2135658,16860,864,1044,16914.37,25.75,-1.00,-1.0,2441
661,2135661,16968,868,1228,17034.51,25.71,-1.00,-1.0,2362
664,2135664,16916,832,1236,16981.49,25.61,-1.00,-1.0,2443
666,2135666,17000,800,1092,17053.81,25.71,-1.00,-1.0,2361
671,2135671,16940,896,1148,17002.48,25.66,-1.00,-1.0,2448
674,2135674,16980,956,1180,17047.78,25.66,-1.00,-1.0,2371
677,2135677,17072,828,1176,17132.48,25.75,-1.00,-1.0,2361
679,2135679,16964,724,1236,17024.37,25.71,-1.00,-1.0,2426
682,2135682,17028,864,1192,17091.52,25.66,-1.00,-1.0,2371
685,2135685,17044,920,1220,17112.36,25.71,-1.00,-1.0,2432
687,2135687,16972,828,1096,17027.49,25.75,-1.00,-1.0,2365
691,2135691,16920,728,1120,16972.65,25.66,-1.00,-1.0,2446
693,2135693,16904,792,1024,16953.50,25.61,-1.00,-1.0,2366
698,2135698,16992,840,1268,17059.94,25.71,-1.00,-1.0,2437
701,2135701,17012,900,1052,17068.24,25.71,-1.00,-1.0,2364
704,2135704,17008,828,1220,17071.79,25.66,-1.00,-1.0,2362
707,2135707,16964,916,1164,17028.54,25.75,-1.00,-1.0,2442
709,2135709,17028,868,1136,17087.91,25.66,-1.00,-1.0,2376
712,2135712,16924,896,1288,16996.57,25.66,-1.00,-1.0,2438
715,2135715,16900,776,1184,16959.19,25.66,-1.00,-1.0,2374
718,2135718,16948,908,1128,17009.75,25.52,-1.00,-1.0,2441
720,2135720,17044,860,1108,17101.61,25.75,-1.00,-1.0,2379
725,2135725,17004,812,1212,17066.47,25.75,-1.00,-1.0,2440
728,2135728,17036,668,1256,17095.29,25.57,-1.00,-1.0,2367
731,2135731,16996,936,1296,17071.02,25.61,-1.00,-1.0,2447
734,2135734,16900,840,1176,16961.68,25.75,-1.00,-1.0,2372
736,2135736,17044,828,1252,17109.97,25.71,-1.00,-1.0,2369
739,2135739,16972,840,1196,17034.81,25.71,-1.00,-1.0,2427
742,2135742,16928,776,1260,16992.56,25.66,-1.00,-1.0,2355
745,2135745,16964,956,1156,17030.20,25.52,-1.00,-1.0,2425
747,2135747,17052,896,1344,17128.33,25.71,-1.00,-1.0,2367
752,2135752,16920,840,1160,16980.51,25.80,-1.00,-1.0,2443
755,2135755,17028,788,1104,17081.94,25.75,-1.00,-1.0,2372
758,2135758,17116,740,1120,17168.56,25.61,-1.00,-1.0,2444
761,2135761,16980,848,1268,17048.38,25.57,-1.00,-1.0,2369
764,2135764,16956,804,1108,17011.17,25.80,-1.00,-1.0,2445
766,2135766,16996,876,1084,17053.05,25.57,-1.00,-1.0,2369
769,2135769,16876,800,1184,16936.39,25.80,-1.00,-1.0,2362
772,2135772,17044,860,1252,17111.55,25.61,-1.00,-1.0,2425
775,2135775,17000,848,1116,17057.68,25.71,-1.00,-1.0,2367
780,2135780,16960,860,1224,17025.84,25.61,-1.00,-1.0,2439
782,2135782,16996,872,1168,17058.39,25.71,-1.00,-1.0,2373
785,2135785,16952,780,1136,17007.92,25.71,-1.00,-1.0,2439
788,2135788,17084,876,1192,17147.92,25.71,-1.00,-1.0,2369
791,2135791,16940,804,1076,16993.17,25.71,-1.00,-1.0,2442
793,2135793,16932,872,1176,16995.18,25.61,-1.00,-1.0,2363
796,2135796,16916,900,1236,16984.96,25.61,-1.00,-1.0,2428
799,2135799,16960,796,1212,17021.87,25.66,-1.00,-1.0,2370
802,2135802,16948,776,1180,17006.74,25.71,-1.00,-1.0,2360
807,2135807,16932,848,1296,17002.69,25.61,-1.00,-1.0,2440
809,2135809,16972,880,1128,17032.19,25.61,-1.00,-1.0,2372
812,2135812,16976,848,1124,17034.29,25.66,-1.00,-1.0,2434
815,2135815,16924,844,1336,16997.62,25.71,-1.00,-1.0,2349
818,2135818,16952,884,1144,17013.54,25.61,-1.00,-1.0,2447
820,2135820,17024,900,1144,17086.12,25.80,-1.00,-1.0,2364
823,2135823,16904,936,1288,16978.82,25.71,-1.00,-1.0,2428
826,2135826,16992,892,1148,17054.08,25.71,-1.00,-1.0,2369
831,2135831,16960,908,1116,17020.91,25.66,-1.00,-1.0,2440
834,2135834,16996,892,1368,17074.28,25.75,-1.00,-1.0,2370
836,2135836,17004,732,1044,17051.74,25.66,-1.00,-1.0,2355
839,2135839,16944,904,1332,17020.30,25.61,-1.00,-1.0,2433
842,2135842,17000,844,1172,17061.24,25.75,-1.00,-1.0,2367
844,2135844,16936,824,1148,16994.85,25.61,-1.00,-1.0,2427
847,2135847,17008,796,1184,17067.73,25.66,-1.00,-1.0,2366
850,2135850,17000,876,1176,17063.13,25.66,-1.00,-1.0,2428
853,2135853,16896,736,1144,16950.67,25.66,-1.00,-1.0,2367
857,2135857,16976,960,1312,17053.67,25.61,-1.00,-1.0,2437
860,2135860,16920,992,1156,16988.43,25.66,-1.00,-1.0,2364
863,2135863,17008,820,1112,17064.03,25.71,-1.00,-1.0,2433
866,2135866,17028,884,1252,17096.83,25.66,-1.00,-1.0,2368
868,2135868,17068,856,1088,17124.05,25.71,-1.00,-1.0,2359
871,2135871,17040,856,1172,17101.69,25.61,-1.00,-1.0,2447
874,2135874,17048,844,1096,17104.03,25.61,-1.00,-1.0,2359
877,2135877,16976,896,1140,17037.81,25.61,-1.00,-1.0,2439
880,2135880,16992,828,1332,17064.23,25.71,-1.00,-1.0,2368
884,2135884,16980,848,1156,17040.42,25.71,-1.00,-1.0,2440
887,2135887,16992,852,1128,17050.70,25.71,-1.00,-1.0,2365
890,2135890,17008,864,1208,17072.72,25.71,-1.00,-1.0,2448
893,2135893,17068,844,1100,17124.22,25.61,-1.00,-1.0,2368
895,2135895,16908,916,1156,16972.21,25.71,-1.00,-1.0,2368
898,2135898,17028,780,1224,17089.74,25.66,-1.00,-1.0,2433
901,2135901,17040,924,1052,17097.43,25.61,-1.00,-1.0,2375
904,2135904,16904,736,1120,16957.04,25.71,-1.00,-1.0,2433
907,2135907,17020,864,1188,17083.27,25.61,-1.00,-1.0,2363
912,2135912,16928,864,1264,16997.10,25.61,-1.00,-1.0,2446
914,2135914,16972,876,1100,17030.15,25.75,-1.00,-1.0,2365
917,2135917,16940,824,1236,17005.01,25.71,-1.00,-1.0,2434
920,2135920,16928,824,1104,16983.96,25.66,-1.00,-1.0,2349
923,2135923,16988,784,1212,17049.21,25.61,-1.00,-1.0,2431
925,2135925,16920,908,1084,16978.98,25.66,-1.00,-1.0,2365
928,2135928,16928,800,1116,16983.60,25.71,-1.00,-1.0,2360
931,2135931,17004,872,1280,17074.39,25.75,-1.00,-1.0,2434
934,2135934,17116,904,1236,17184.36,25.75,-1.00,-1.0,2369
939,2135939,16940,840,1180,17001.81,25.71,-1.00,-1.0,2447
941,2135941,16912,776,1156,16969.21,25.61,-1.00,-1.0,2364
944,2135944,17044,784,1164,17101.68,25.71,-1.00,-1.0,2435
947,2135947,16988,908,1220,17055.94,25.71,-1.00,-1.0,2363
950,2135950,16872,864,1220,16938.10,25.71,-1.00,-1.0,2443
952,2135952,17008,876,1204,17073.05,25.71,-1.00,-1.0,2362
955,2135955,16956,956,1204,17025.55,25.71,-1.00,-1.0,2434
958,2135958,17012,868,1204,17076.63,25.61,-1.00,-1.0,2362
961,2135961,16996,824,1128,17053.31,25.75,-1.00,-1.0,2367
966,2135966,16984,872,1260,17052.98,25.66,-1.00,-1.0,2450
968,2135968,16928,800,1160,16986.55,25.71,-1.00,-1.0,2364
971,2135971,17012,868,1060,17067.08,25.61,-1.00,-1.0,2436
974,2135974,17000,836,1172,17060.85,25.61,-1.00,-1.0,2361
977,2135977,16972,760,1096,17024.32,25.66,-1.00,-1.0,2436
979,2135979,16956,868,1236,17023.13,25.61,-1.00,-1.0,2362
982,2135982,16908,836,1228,16973.14,25.61,-1.00,-1.0,2437
985,2135985,16976,856,1252,17043.62,25.71,-1.00,-1.0,2361
990,2135990,16932,860,1164,16993.74,25.71,-1.00,-1.0,2440
992,2135992,16908,816,1260,16974.51,25.66,-1.00,-1.0,2378
995,2135995,16984,824,1200,17046.27,25.61,-1.00,-1.0,2361
998,2135998,17000,864,1244,17067.34,25.61,-1.00,-1.0,2426
1001,2136001,16972,852,1252,17039.43,25.61,-1.00,-1.0,2368
1003,2136003,16968,860,1132,17027.45,25.71,-1.00,-1.0,2425
1006,2136006,16972,880,1296,17044.14,25.61,-1.00,-1.0,2370
1009,2136009,16908,864,1036,16961.73,25.71,-1.00,-1.0,2426
1012,2136012,16924,872,1252,16992.63,25.61,-1.00,-1.0,2365
1017,2136017,16872,856,1252,16940.03,25.66,-1.00,-1.0,2448
1019,2136019,16976,788,1116,17030.88,25.66,-1.00,-1.0,2365
1022,2136022,16900,796,1148,16957.64,25.71,-1.00,-1.0,2443
1025,2136025,17024,900,1228,17091.94,25.66,-1.00,-1.0,2372
1028,2136028,16948,896,1088,17006.51,25.71,-1.00,-1.0,2435
1030,2136030,16960,792,1272,17026.06,25.66,-1.00,-1.0,2362
1033,2136033,16996,792,1332,17066.50,25.71,-1.00,-1.0,2367
1036,2136036,17044,880,1144,17105.00,25.61,-1.00,-1.0,2432
1039,2136039,16928,900,1140,16990.20,25.61,-1.00,-1.0,2367
1044,2136044,17004,880,1140,17064.88,25.71,-1.00,-1.0,2441
1046,2136046,16960,828,1328,17032.05,25.71,-1.00,-1.0,2372
1049,2136049,16980,836,1236,17045.44,25.71,-1.00,-1.0,2436
1052,2136052,16980,776,1216,17041.16,25.71,-1.00,-1.0,2378
1055,2136055,16944,724,1232,17004.15,25.61,-1.00,-1.0,2433
1057,2136057,17004,800,1164,17062.56,25.66,-1.00,-1.0,2368
1060,2136060,16944,788,1192,17004.14,25.71,-1.00,-1.0,2442
1063,2136063,16980,956,1112,17043.21,25.66,-1.00,-1.0,2369
1066,2136066,16944,820,1192,17005.66,25.61,-1.00,-1.0,2347
1071,2136071,16952,880,1104,17010.69,25.57,-1.00,-1.0,2444
1073,2136073,16948,852,1248,17015.23,25.66,-1.00,-1.0,2366
1076,2136076,17000,844,1164,17060.69,25.75,-1.00,-1.0,2432
1079,2136079,16924,812,1164,16983.40,25.61,-1.00,-1.0,2363
1082,2136082,16948,824,1160,17007.62,25.75,-1.00,-1.0,2440
1084,2136084,17104,848,1128,17162.12,25.66,-1.00,-1.0,2424
1087,2136087,17000,928,1156,17064.51,25.75,-1.00,-1.0,2431
1090,2136090,17000,872,1212,17065.44,25.71,-1.00,-1.0,2379
1095,2136095,16932,916,1188,16998.32,25.57,-1.00,-1.0,2439
1098,2136098,16948,848,1148,17007.99,25.61,-1.00,-1.0,2370
1100,2136100,16976,956,1128,17040.27,25.66,-1.00,-1.0,2433
1103,2136103,16964,848,1120,17022.07,25.61,-1.00,-1.0,2366
1106,2136106,16996,940,1148,17060.64,25.66,-1.00,-1.0,2368
1108,2136108,16980,800,1148,17037.56,25.61,-1.00,-1.0,2435
1111,2136111,17016,824,1280,17083.96,25.66,-1.00,-1.0,2354
1114,2136114,17024,920,1268,17095.93,25.61,-1.00,-1.0,2432
1117,2136117,17040,852,1260,17107.75,25.66,-1.00,-1.0,2369
1122,2136122,16960,868,1208,17025.11,25.66,-1.00,-1.0,2441
1125,2136125,17056,952,1244,17127.78,25.66,-1.00,-1.0,2371
1127,2136127,16940,916,1236,17009.71,25.66,-1.00,-1.0,2433
1130,2136130,16964,848,1180,17026.12,25.66,-1.00,-1.0,2367
1133,2136133,17072,896,1268,17142.46,25.66,-1.00,-1.0,2437
1136,2136136,16984,836,1140,17042.73,25.66,-1.00,-1.0,2368
1138,2136138,17052,964,1244,17124.47,25.66,-1.00,-1.0,2433
1141,2136141,16960,876,1172,17023.00,25.61,-1.00,-1.0,2367
1144,2136144,16888,864,1112,16946.61,25.71,-1.00,-1.0,2360
1149,2136149,16984,812,1180,17044.29,25.57,-1.00,-1.0,2441
1152,2136152,17016,828,1172,17076.40,25.66,-1.00,-1.0,2370
1154,2136154,16996,892,1104,17055.16,25.61,-1.00,-1.0,2433
1157,2136157,16968,952,1244,17040.15,25.75,-1.00,-1.0,2366
1160,2136160,17020,912,1096,17079.62,25.71,-1.00,-1.0,2433
1163,2136163,16952,872,1140,17012.65,25.57,-1.00,-1.0,2367
1165,2136165,16948,896,1228,17016.04,25.71,-1.00,-1.0,2433
1168,2136168,17028,868,1068,17083.53,25.66,-1.00,-1.0,2367
1173,2136173,16920,812,1148,16978.33,25.66,-1.00,-1.0,2447
1176,2136176,16964,752,1236,17025.58,25.66,-1.00,-1.0,2373
1179,2136179,16984,764,1112,17037.50,25.66,-1.00,-1.0,2438
1181,2136181,16956,988,1276,17032.62,25.66,-1.00,-1.0,2377
1184,2136184,16940,800,1172,16999.33,25.66,-1.00,-1.0,2360
1187,2136187,16912,784,1204,16972.92,25.61,-1.00,-1.0,2439
1189,2136189,17052,764,1216,17112.37,25.66,-1.00,-1.0,2366
1192,2136192,17120,872,1244,17187.27,25.71,-1.00,-1.0,2433
1195,2136195,16936,756,1112,16989.30,25.71,-1.00,-1.0,2374
1200,2136200,16912,768,1192,16971.34,25.71,-1.00,-1.0,2439
1203,2136203,16964,884,1208,17029.92,25.71,-1.00,-1.0,2378
1205,2136205,16984,880,1312,17057.31,25.57,-1.00,-1.0,2445
1208,2136208,16984,904,1184,17049.20,25.61,-1.00,-1.0,2368
1211,2136211,17020,920,1288,17093.44,25.71,-1.00,-1.0,2447
1214,2136214,16976,876,1180,17039.49,25.61,-1.00,-1.0,2369
1216,2136216,17052,884,1132,17112.38,25.66,-1.00,-1.0,2440
1219,2136219,16960,844,1052,17013.54,25.71,-1.00,-1.0,2368
1222,2136222,16932,888,1200,16997.68,25.66,-1.00,-1.0,2375
1227,2136227,16896,860,1152,16957.05,25.66,-1.00,-1.0,2455
1230,2136230,17056,876,1300,17127.89,25.66,-1.00,-1.0,2378
1233,2136233,17032,848,1184,17094.15,25.75,-1.00,-1.0,2444
1235,2136235,16980,952,1072,17040.42,25.66,-1.00,-1.0,2370
1238,2136238,16972,860,1088,17028.57,25.75,-1.00,-1.0,2441
1241,2136241,16924,892,1112,16983.93,25.75,-1.00,-1.0,2374
1244,2136244,16976,864,1156,17037.24,25.66,-1.00,-1.0,2441
1246,2136246,16944,852,1416,17024.40,25.66,-1.00,-1.0,2371
1251,2136251,16988,916,1152,17051.64,25.71,-1.00,-1.0,2440
1254,2136254,16964,752,1084,17015.22,25.71,-1.00,-1.0,2370
1257,2136257,16984,924,1332,17061.19,25.71,-1.00,-1.0,2431
1260,2136260,17068,828,1168,17127.94,25.61,-1.00,-1.0,2369
1262,2136262,16948,928,1076,17007.46,25.66,-1.00,-1.0,2361
1265,2136265,16996,896,1208,17062.42,25.66,-1.00,-1.0,2441
1268,2136268,16984,1012,1280,17062.20,25.71,-1.00,-1.0,2374
1270,2136270,16880,892,1300,16953.47,25.66,-1.00,-1.0,2433
1273,2136273,16940,1008,1288,17018.77,25.71,-1.00,-1.0,2366
1278,2136278,17024,784,1120,17078.81,25.66,-1.00,-1.0,2439
1281,2136281,16940,924,1200,17007.57,25.75,-1.00,-1.0,2378
1283,2136283,17024,904,1260,17094.48,25.66,-1.00,-1.0,2439
1286,2136286,16924,820,1040,16975.74,25.66,-1.00,-1.0,2367
1289,2136289,17012,844,1308,17083.07,25.75,-1.00,-1.0,2449
1292,2136292,17028,836,1092,17083.45,25.66,-1.00,-1.0,2376
1294,2136294,16892,928,1100,16953.20,25.57,-1.00,-1.0,2438
1297,2136297,16972,912,1132,17034.14,25.66,-1.00,-1.0,2369
1300,2136300,17020,872,1256,17088.54,25.80,-1.00,-1.0,2360
1305,2136305,16992,856,1196,17055.53,25.80,-1.00,-1.0,2439
1308,2136308,17036,904,1096,17095.14,25.71,-1.00,-1.0,2370
1310,2136310,16960,944,1208,17029.15,25.66,-1.00,-1.0,2419
1313,2136313,17024,876,1084,17080.96,25.71,-1.00,-1.0,2366
1316,2136316,16996,896,1136,17057.47,25.71,-1.00,-1.0,2432
1319,2136319,16972,884,1152,17034.01,25.71,-1.00,-1.0,2367
1321,2136321,17044,836,1244,17109.77,25.61,-1.00,-1.0,2432
1324,2136324,16964,832,1196,17026.45,25.80,-1.00,-1.0,2367
1329,2136329,17032,892,1128,17092.60,25.80,-1.00,-1.0,2439
1332,2136332,17072,816,1100,17126.85,25.71,-1.00,-1.0,2357
1335,2136335,16940,828,1224,17004.33,25.61,-1.00,-1.0,2437
1337,2136337,17044,836,1176,17104.96,25.71,-1.00,-1.0,2376
1340,2136340,16932,824,1208,16995.03,25.71,-1.00,-1.0,2359
1343,2136343,16988,804,1160,17046.53,25.66,-1.00,-1.0,2441
1345,2136345,16936,836,1120,16993.57,25.71,-1.00,-1.0,2370
1348,2136348,16892,884,1160,16954.84,25.57,-1.00,-1.0,2433
1351,2136351,16916,828,1168,16976.48,25.66,-1.00,-1.0,2366
1356,2136356,17004,908,1276,17075.97,25.66,-1.00,-1.0,2439
1359,2136359,16988,840,1244,17054.19,25.61,-1.00,-1.0,2372
1362,2136362,16976,864,1180,17038.88,25.75,-1.00,-1.0,2431
1364,2136364,17000,868,1164,17061.90,25.61,-1.00,-1.0,2374
1367,2136367,16892,844,1136,16951.18,25.66,-1.00,-1.0,2433
1370,2136370,16932,852,1240,16998.71,25.61,-1.00,-1.0,2371
1373,2136373,16968,892,1188,17032.91,25.57,-1.00,-1.0,2435
1375,2136375,17000,888,1208,17065.98,25.71,-1.00,-1.0,2373
1378,2136378,16908,980,1136,16974.43,25.66,-1.00,-1.0,2360
1383,2136383,17000,796,1228,17062.87,25.75,-1.00,-1.0,2439
1386,2136386,16964,848,1184,17026.40,25.71,-1.00,-1.0,2370
1389,2136389,16948,864,1140,17008.26,25.66,-1.00,-1.0,2429
1391,2136391,17008,860,1200,17071.96,25.71,-1.00,-1.0,2368
1394,2136394,16960,824,1120,17016.90,25.66,-1.00,-1.0,2433
1397,2136397,16968,872,1360,17044.74,25.71,-1.00,-1.0,2369
1400,2136400,16972,836,1236,17037.47,25.75,-1.00,-1.0,2431
1402,2136402,16888,884,1172,16951.68,25.80,-1.00,-1.0,2373
1407,2136407,16968,808,1264,17034.19,25.71,-1.00,-1.0,2448
1410,2136410,16976,856,1240,17042.74,25.71,-1.00,-1.0,2377
1413,2136413,16952,924,1196,17019.24,25.61,-1.00,-1.0,2420
1415,2136415,16872,892,1068,16929.29,25.71,-1.00,-1.0,2366
1418,2136418,16992,868,1100,17049.68,25.66,-1.00,-1.0,2361
1421,2136421,16984,936,1244,17055.20,25.61,-1.00,-1.0,2434
1423,2136423,17060,804,1252,17124.76,25.71,-1.00,-1.0,2373
1426,2136426,17036,936,1144,17100.00,25.66,-1.00,-1.0,2427
1429,2136429,16976,948,1232,17047.03,25.71,-1.00,-1.0,2369
1434,2136434,17096,884,1144,17157.02,25.71,-1.00,-1.0,2440
1437,2136437,16960,788,1144,17016.79,25.66,-1.00,-1.0,2370
1440,2136440,17000,912,1124,17061.51,25.71,-1.00,-1.0,2442
1442,2136442,16928,764,1184,16986.54,25.71,-1.00,-1.0,2366
1445,2136445,17052,768,1148,17107.85,25.61,-1.00,-1.0,2435
1448,2136448,17028,908,1296,17101.37,25.66,-1.00,-1.0,2368
1451,2136451,17024,872,1148,17084.93,25.61,-1.00,-1.0,2439
1453,2136453,16944,904,1076,17002.18,25.57,-1.00,-1.0,2366
1456,2136456,16984,816,1240,17048.75,25.61,-1.00,-1.0,2361
1461,2136461,16968,840,1148,17027.52,25.61,-1.00,-1.0,2439
1464,2136464,17032,904,1164,17095.65,25.71,-1.00,-1.0,2373
1467,2136467,17012,836,1276,17080.26,25.71,-1.00,-1.0,2438
1469,2136469,16976,868,1156,17037.44,25.71,-1.00,-1.0,2366
1472,2136472,17040,776,1220,17101.23,25.71,-1.00,-1.0,2434
1475,2136475,17040,824,1108,17095.85,25.71,-1.00,-1.0,2368
1478,2136478,16896,912,1236,16965.68,25.61,-1.00,-1.0,2434
1480,2136480,16968,896,1168,17031.74,25.61,-1.00,-1.0,2366
1485,2136485,16988,812,1136,17045.29,25.61,-1.00,-1.0,2441
1488,2136488,16996,760,1256,17059.28,25.71,-1.00,-1.0,2369
1491,2136491,17008,960,1072,17068.77,25.71,-1.00,-1.0,2440
1493,2136493,16964,976,1208,17034.94,25.71,-1.00,-1.0,2367
1496,2136496,17080,860,1044,17133.47,25.66,-1.00,-1.0,2367
1499,2136499,16972,868,1100,17029.74,25.66,-1.00,-1.0,2437
1501,2136501,17032,768,1128,17086.58,25.61,-1.00,-1.0,2367
1504,2136504,16984,836,1168,17044.63,25.61,-1.00,-1.0,2434
1507,2136507,16972,820,1116,17028.41,25.75,-1.00,-1.0,2374
1512,2136512,16952,824,1236,17016.96,25.71,-1.00,-1.0,2438
1515,2136515,16980,792,1156,17037.72,25.71,-1.00,-1.0,2369
1518,2136518,17100,868,1212,17164.86,25.71,-1.00,-1.0,2437
1520,2136520,17040,896,1268,17110.59,25.71,-1.00,-1.0,2367
1523,2136523,16944,896,1184,17008.93,25.61,-1.00,-1.0,2433
1526,2136526,17036,876,1208,17101.23,25.71,-1.00,-1.0,2368
1528,2136528,16896,800,1120,16951.97,25.71,-1.00,-1.0,2360
1531,2136531,16848,960,1100,16911.14,25.71,-1.00,-1.0,2433
1534,2136534,17012,856,1220,17077.16,25.61,-1.00,-1.0,2354
1539,2136539,17044,700,1040,17090.04,25.61,-1.00,-1.0,2447
1542,2136542,16976,884,1116,17035.60,25.66,-1.00,-1.0,2382
1545,2136545,16940,932,1184,17006.88,25.61,-1.00,-1.0,2435
1547,2136547,17028,808,1156,17086.31,25.66,-1.00,-1.0,2373
1550,2136550,17036,788,1156,17093.35,25.61,-1.00,-1.0,2427
1553,2136553,16944,956,1164,17010.82,25.66,-1.00,-1.0,2381
1556,2136556,16900,852,1272,16969.21,25.71,-1.00,-1.0,2437
1558,2136558,17040,912,1180,17105.14,25.66,-1.00,-1.0,2374
1563,2136563,17060,816,1236,17124.17,25.75,-1.00,-1.0,2437
1566,2136566,17060,852,1104,17116.90,25.57,-1.00,-1.0,2372
1569,2136569,16924,900,1120,16984.88,25.66,-1.00,-1.0,2360
1572,2136572,17048,860,1236,17114.37,25.61,-1.00,-1.0,2442
1574,2136574,17016,920,1152,17079.75,25.71,-1.00,-1.0,2375
1577,2136577,16992,912,1176,17057.04,25.71,-1.00,-1.0,2433
1580,2136580,16964,812,1348,17036.83,25.66,-1.00,-1.0,2354
1583,2136583,16960,852,1104,17017.24,25.61,-1.00,-1.0,2445
1585,2136585,17052,848,1160,17112.43,25.71,-1.00,-1.0,2367
1590,2136590,16984,880,1148,17045.48,25.71,-1.00,-1.0,2437
1593,2136593,16984,880,1168,17046.84,25.71,-1.00,-1.0,2369
1596,2136596,16860,884,1140,16921.60,25.61,-1.00,-1.0,2433
1599,2136599,17036,864,1204,17100.33,25.71,-1.00,-1.0,2368
1601,2136601,16896,768,916,16938.23,25.61,-1.00,-1.0,2432
1604,2136604,16984,816,1244,17049.04,25.71,-1.00,-1.0,2369
1607,2136607,17020,900,1184,17084.86,25.71,-1.00,-1.0,2360
1609,2136609,17052,868,1128,17111.30,25.75,-1.00,-1.0,2434
1612,2136612,16880,852,1088,16936.47,25.75,-1.00,-1.0,2367
1617,2136617,17020,836,1164,17080.23,25.66,-1.00,-1.0,2438
1620,2136620,16932,856,1196,16995.76,25.61,-1.00,-1.0,2369
1623,2136623,17004,812,1232,17067.90,25.66,-1.00,-1.0,2437
1626,2136626,16928,836,1124,16985.86,25.61,-1.00,-1.0,2367
1628,2136628,17040,824,1396,17116.93,25.66,-1.00,-1.0,2433
1631,2136631,16952,900,1140,17014.11,25.71,-1.00,-1.0,2366
1634,2136634,16908,884,1132,16968.89,25.66,-1.00,-1.0,2433
1637,2136637,16928,812,1132,16985.23,25.71,-1.00,-1.0,2368
1642,2136642,16952,836,1216,17016.11,25.61,-1.00,-1.0,2443
1644,2136644,16980,908,1108,17040.32,25.71,-1.00,-1.0,2378
1647,2136647,17016,872,1112,17074.58,25.57,-1.00,-1.0,2347
1650,2136650,16928,872,1240,16995.74,25.66,-1.00,-1.0,2431
1652,2136652,16996,796,1212,17057.74,25.71,-1.00,-1.0,2369
1655,2136655,17024,828,1136,17081.94,25.75,-1.00,-1.0,2433
1658,2136658,16916,812,1184,16976.81,25.71,-1.00,-1.0,2367
1661,2136661,17040,844,1152,17099.74,25.61,-1.00,-1.0,2434
1663,2136663,17052,824,1232,17116.29,25.61,-1.00,-1.0,2367
1669,2136669,16988,944,1124,17051.29,25.66,-1.00,-1.0,2437
1671,2136671,16920,876,1056,16975.54,25.75,-1.00,-1.0,2368
1674,2136674,17044,788,1152,17101.05,25.66,-1.00,-1.0,2436
1677,2136677,17024,908,1204,17090.66,25.66,-1.00,-1.0,2368
1680,2136680,17012,916,1160,17076.09,25.57,-1.00,-1.0,2438
1682,2136682,17048,908,1164,17111.80,25.66,-1.00,-1.0,2369
1685,2136685,16988,932,1148,17052.23,25.75,-1.00,-1.0,2359
1688,2136688,16968,788,1140,17024.50,25.71,-1.00,-1.0,2436
1690,2136690,17004,856,1260,17072.09,25.71,-1.00,-1.0,2370
1695,2136695,16964,872,1120,17023.28,25.75,-1.00,-1.0,2455
1698,2136698,17044,848,1188,17106.38,25.66,-1.00,-1.0,2369
1701,2136701,16948,792,1264,17013.51,25.66,-1.00,-1.0,2433
1704,2136704,16948,840,1172,17009.23,25.71,-1.00,-1.0,2368
1706,2136706,17092,940,1296,17166.82,25.66,-1.00,-1.0,2433
1709,2136709,16976,828,1140,17034.37,25.66,-1.00,-1.0,2367
1712,2136712,16996,744,1288,17060.96,25.75,-1.00,-1.0,2433
1715,2136715,16904,784,1128,16959.72,25.71,-1.00,-1.0,2368
1719,2136719,17004,900,1188,17069.19,25.80,-1.00,-1.0,2437
1722,2136722,16960,836,1136,17018.55,25.75,-1.00,-1.0,2356
1725,2136725,17000,876,1108,17058.58,25.61,-1.00,-1.0,2355
1727,2136727,17012,840,1216,17076.08,25.71,-1.00,-1.0,2435
1730,2136730,17000,828,1148,17058.82,25.71,-1.00,-1.0,2368
1733,2136733,17044,840,1300,17114.13,25.71,-1.00,-1.0,2431
1736,2136736,16996,808,1204,17057.74,25.71,-1.00,-1.0,2374
1739,2136739,16972,808,1012,17021.33,25.66,-1.00,-1.0,2439
1741,2136741,16944,840,1156,17004.15,25.71,-1.00,-1.0,2369
1746,2136746,16976,876,1128,17035.97,25.71,-1.00,-1.0,2441
1749,2136749,17012,888,1172,17075.43,25.61,-1.00,-1.0,2376
1752,2136752,17044,860,1288,17114.22,25.66,-1.00,-1.0,2447
1755,2136755,16984,836,1352,17058.22,25.71,-1.00,-1.0,2374
1758,2136758,16976,964,1180,17044.24,25.57,-1.00,-1.0,2442
1760,2136760,17004,824,1112,17060.23,25.75,-1.00,-1.0,2375
1763,2136763,16932,856,972,16981.46,25.66,-1.00,-1.0,2362
1766,2136766,16972,880,1220,17038.53,25.71,-1.00,-1.0,2430
1769,2136769,16848,832,1172,16909.20,25.66,-1.00,-1.0,2370
1773,2136773,17028,788,1124,17083.24,25.66,-1.00,-1.0,2441
1776,2136776,16928,712,1144,16981.54,25.75,-1.00,-1.0,2373
1779,2136779,16988,832,1292,17057.36,25.66,-1.00,-1.0,2442
1782,2136782,16988,900,1052,17044.32,25.66,-1.00,-1.0,2376
1785,2136785,17016,868,1184,17079.21,25.66,-1.00,-1.0,2445
1787,2136787,16948,836,1184,17009.86,25.66,-1.00,-1.0,2376
1790,2136790,17064,776,1156,17120.71,25.66,-1.00,-1.0,2440
1793,2136793,16988,824,1264,17054.88,25.66,-1.00,-1.0,2376
1798,2136798,16936,768,1288,17002.26,25.66,-1.00,-1.0,2449
1800,2136800,17040,800,1144,17097.09,25.71,-1.00,-1.0,2369
1803,2136803,16996,908,1156,17059.45,25.66,-1.00,-1.0,2374
1806,2136806,16944,828,1180,17005.21,25.66,-1.00,-1.0,2435
1808,2136808,16924,844,1208,16988.04,25.75,-1.00,-1.0,2373
1811,2136811,17044,832,1296,17113.44,25.61,-1.00,-1.0,2441
1814,2136814,17040,788,1332,17110.14,25.66,-1.00,-1.0,2382
1817,2136817,16964,928,1276,17037.21,25.71,-1.00,-1.0,2436
1820,2136820,17044,848,1132,17102.59,25.61,-1.00,-1.0,2367
1825,2136825,17056,844,1196,17118.70,25.71,-1.00,-1.0,2440
1827,2136827,16940,884,1108,16999.20,25.61,-1.00,-1.0,2377
1830,2136830,16932,900,1152,16994.99,25.61,-1.00,-1.0,2433
1833,2136833,16956,892,1160,17019.03,25.71,-1.00,-1.0,2355
1835,2136835,17016,800,1236,17079.58,25.71,-1.00,-1.0,2361
1838,2136838,17024,848,1284,17093.40,25.80,-1.00,-1.0,2432
1841,2136841,16956,812,1236,17020.37,25.71,-1.00,-1.0,2371
1844,2136844,17024,920,1140,17086.91,25.66,-1.00,-1.0,2431
1847,2136847,16928,760,1336,16997.64,25.71,-1.00,-1.0,2366
1852,2136852,17044,884,1172,17107.10,25.61,-1.00,-1.0,2438
1854,2136854,17028,812,1208,17090.10,25.71,-1.00,-1.0,2372
1857,2136857,16928,832,1084,16983.06,25.71,-1.00,-1.0,2433
1860,2136860,16980,868,1236,17047.04,25.71,-1.00,-1.0,2369
1863,2136863,17020,888,1180,17083.95,25.61,-1.00,-1.0,2432
1865,2136865,16988,896,1120,17048.44,25.61,-1.00,-1.0,2375
1868,2136868,16984,872,1112,17042.69,25.71,-1.00,-1.0,2433
1871,2136871,17004,856,1280,17073.58,25.61,-1.00,-1.0,2371
1874,2136874,16984,784,1136,17039.99,25.66,-1.00,-1.0,2367
1879,2136879,16984,920,1164,17048.68,25.61,-1.00,-1.0,2439
1881,2136881,17028,788,1192,17087.85,25.71,-1.00,-1.0,2372
1884,2136884,16988,888,1240,17056.33,25.66,-1.00,-1.0,2433
1887,2136887,17052,896,1020,17105.96,25.71,-1.00,-1.0,2369
1890,2136890,17008,836,1192,17070.20,25.66,-1.00,-1.0,2431
1892,2136892,17044,884,1184,17107.93,25.71,-1.00,-1.0,2370
1895,2136895,17020,864,1320,17092.96,25.57,-1.00,-1.0,2433
1898,2136898,16996,772,1212,17056.64,25.61,-1.00,-1.0,2369
1903,2136903,17008,812,1252,17073.34,25.66,-1.00,-1.0,2439
1905,2136905,17024,868,1308,17096.22,25.80,-1.00,-1.0,2372
1908,2136908,16960,848,1184,17022.41,25.75,-1.00,-1.0,2433
1911,2136911,16992,856,1288,17062.23,25.61,-1.00,-1.0,2367
1913,2136913,17060,912,1224,17128.15,25.66,-1.00,-1.0,2360
1916,2136916,17080,920,1200,17146.80,25.66,-1.00,-1.0,2435
1919,2136919,17004,908,1188,17069.62,25.66,-1.00,-1.0,2368
1922,2136922,16948,840,1276,17016.71,25.61,-1.00,-1.0,2440
1925,2136925,16952,860,1244,17019.33,25.71,-1.00,-1.0,2375
1930,2136930,16992,916,1288,17065.35,25.61,-1.00,-1.0,2441
1932,2136932,16976,908,1300,17049.90,25.71,-1.00,-1.0,2378
1935,2136935,16980,856,1168,17041.64,25.66,-1.00,-1.0,2433
1938,2136938,16920,748,1336,16989.14,25.71,-1.00,-1.0,2370
1941,2136941,16956,880,1208,17021.74,25.66,-1.00,-1.0,2442
1943,2136943,16992,908,1296,17065.53,25.71,-1.00,-1.0,2376
1946,2136946,17020,820,1100,17075.21,25.66,-1.00,-1.0,2433
1949,2136949,17036,956,1260,17109.26,25.61,-1.00,-1.0,2355
1952,2136952,17020,804,1204,17081.46,25.61,-1.00,-1.0,2368
1957,2136957,17020,852,1140,17079.40,25.61,-1.00,-1.0,2446
1959,2136959,17020,876,1076,17076.46,25.61,-1.00,-1.0,2372
1962,2136962,16932,840,1052,16985.43,25.61,-1.00,-1.0,2448
1965,2136965,16956,820,1156,17015.13,25.71,-1.00,-1.0,2367
1968,2136968,16996,824,1224,17059.93,25.61,-1.00,-1.0,2439
1970,2136970,16996,840,1120,17053.56,25.71,-1.00,-1.0,2369
1973,2136973,16956,904,1236,17025.01,25.61,-1.00,-1.0,2452
1976,2136976,16892,804,1164,16951.13,25.71,-1.00,-1.0,2367
1981,2136981,17020,792,1164,17078.13,25.61,-1.00,-1.0,2438
1984,2136984,16968,896,1100,17027.21,25.75,-1.00,-1.0,2370
1986,2136986,17008,848,1116,17065.66,25.52,-1.00,-1.0,2435
1989,2136989,16952,736,1212,17011.20,25.66,-1.00,-1.0,2367
1992,2136992,16940,828,1236,17005.20,25.71,-1.00,-1.0,2356
1994,2136994,16980,912,1128,17041.85,25.71,-1.00,-1.0,2434
1997,2136997,16964,824,1164,17023.84,25.61,-1.00,-1.0,2368
2000,2137000,17004,892,1108,17063.39,25.61,-1.00,-1.0,2432
2003,2137003,16964,688,1064,17011.25,25.75,-1.00,-1.0,2354
2008,2137008,16988,892,1232,17055.96,25.75,-1.00,-1.0,2449
2010,2137010,16952,812,1148,17010.22,25.71,-1.00,-1.0,2370
2013,2137013,16960,804,1212,17022.25,25.66,-1.00,-1.0,2442
2016,2137016,17064,740,1108,17115.94,25.71,-1.00,-1.0,2374
2019,2137019,16992,816,1292,17060.57,25.66,-1.00,-1.0,2436
2021,2137021,16944,860,1208,17008.76,25.71,-1.00,-1.0,2367
2024,2137024,16864,844,1352,16939.15,25.57,-1.00,-1.0,2444
2027,2137027,17068,924,1140,17130.97,25.71,-1.00,-1.0,2375
2030,2137030,16916,824,1188,16977.67,25.66,-1.00,-1.0,2363
2035,2137035,16976,964,1156,17042.60,25.75,-1.00,-1.0,2441
2037,2137037,16984,864,1280,17054.07,25.57,-1.00,-1.0,2382
2040,2137040,16976,896,1252,17045.67,25.66,-1.00,-1.0,2420
2043,2137043,16972,924,1156,17036.40,25.66,-1.00,-1.0,2383
2046,2137046,16976,900,1032,17031.14,25.66,-1.00,-1.0,2435
2048,2137048,17016,912,1268,17087.53,25.66,-1.00,-1.0,2371
2051,2137051,16952,828,1280,17020.41,25.75,-1.00,-1.0,2441
2054,2137054,17000,908,1148,17062.89,25.66,-1.00,-1.0,2382
2059,2137059,16976,828,1236,17041.06,25.66,-1.00,-1.0,2455
2062,2137062,16984,828,1084,17038.69,25.66,-1.00,-1.0,2377
2065,2137065,17084,872,1276,17153.76,25.66,-1.00,-1.0,2441
2067,2137067,16960,892,1164,17023.28,25.61,-1.00,-1.0,2372
2070,2137070,16932,912,1196,16998.67,25.75,-1.00,-1.0,2362
2073,2137073,16872,828,1116,16929.13,25.61,-1.00,-1.0,2432
2075,2137075,17008,944,1192,17075.83,25.66,-1.00,-1.0,2375
2078,2137078,17016,880,1192,17080.38,25.71,-1.00,-1.0,2433
2081,2137081,17028,884,1168,17090.89,25.61,-1.00,-1.0,2369
2086,2137086,16988,828,1268,17055.37,25.80,-1.00,-1.0,2444
2089,2137089,17028,828,1212,17091.15,25.75,-1.00,-1.0,2357
2092,2137092,16900,792,1200,16961.05,25.61,-1.00,-1.0,2445
2094,2137094,16968,768,1168,17025.48,25.66,-1.00,-1.0,2376
2097,2137097,17000,848,1172,17061.44,25.71,-1.00,-1.0,2432
2100,2137100,16980,904,1220,17047.76,25.66,-1.00,-1.0,2373
2103,2137103,16996,816,1300,17065.17,25.71,-1.00,-1.0,2444
2105,2137105,16880,904,1128,16941.78,25.57,-1.00,-1.0,2376
2108,2137108,17008,808,1116,17063.71,25.71,-1.00,-1.0,2360
2113,2137113,16956,844,1172,17017.40,25.75,-1.00,-1.0,2446
2115,2137115,16968,764,1228,17029.53,25.71,-1.00,-1.0,2370
2118,2137118,16964,876,1132,17024.28,25.66,-1.00,-1.0,2437
2121,2137121,17048,812,1212,17110.31,25.71,-1.00,-1.0,2367
2124,2137124,16968,836,1156,17027.87,25.57,-1.00,-1.0,2444
2126,2137126,17060,824,1072,17113.50,25.61,-1.00,-1.0,2368
2129,2137129,17044,892,1224,17111.16,25.66,-1.00,-1.0,2435
2132,2137132,16944,836,1200,17007.00,25.66,-1.00,-1.0,2367
2137,2137137,16884,868,1112,16942.83,25.66,-1.00,-1.0,2448
2139,2137139,16952,836,1260,17019.31,25.66,-1.00,-1.0,2371
2142,2137142,16896,864,1168,16958.35,25.61,-1.00,-1.0,2442
2145,2137145,17004,848,1184,17066.25,25.66,-1.00,-1.0,2375
2148,2137148,17036,872,1300,17107.77,25.61,-1.00,-1.0,2360
2150,2137150,17024,788,1184,17083.31,25.61,-1.00,-1.0,2435
2153,2137153,16924,808,1196,16985.44,25.61,-1.00,-1.0,2370
2156,2137156,17040,948,1196,17108.21,25.61,-1.00,-1.0,2446
2159,2137159,16872,884,1164,16935.19,25.66,-1.00,-1.0,2367
2164,2137164,17024,880,1284,17095.02,25.66,-1.00,-1.0,2439
2167,2137167,16992,820,1096,17047.04,25.66,-1.00,-1.0,2370
2169,2137169,16916,1060,1080,16983.55,25.57,-1.00,-1.0,2432
2172,2137172,16976,844,1148,17035.69,25.61,-1.00,-1.0,2353
2175,2137175,17024,820,992,17072.58,25.57,-1.00,-1.0,2433
2178,2137178,16984,868,1148,17044.87,25.71,-1.00,-1.0,2367
2180,2137180,17036,872,1260,17104.77,25.57,-1.00,-1.0,2434
2183,2137183,16900,892,1224,16967.73,25.71,-1.00,-1.0,2367
2186,2137186,16888,876,1180,16951.82,25.61,-1.00,-1.0,2367
2191,2137191,17084,892,1172,17147.37,25.66,-1.00,-1.0,2439
2194,2137194,16892,872,1148,16953.41,25.66,-1.00,-1.0,2371
2196,2137196,16936,920,1184,17002.25,25.66,-1.00,-1.0,2433
2199,2137199,16932,744,1192,16990.20,25.66,-1.00,-1.0,2367
2202,2137202,16944,920,1084,17003.55,25.66,-1.00,-1.0,2433
2205,2137205,17052,872,1136,17112.03,25.66,-1.00,-1.0,2368
2207,2137207,16968,864,1260,17036.64,25.57,-1.00,-1.0,2434
2210,2137210,17080,800,1092,17133.56,25.61,-1.00,-1.0,2366
2215,2137215,16968,904,1048,17024.35,25.71,-1.00,-1.0,2438
2218,2137218,17036,848,1288,17105.65,25.61,-1.00,-1.0,2358
2220,2137220,16940,884,960,16990.19,25.66,-1.00,-1.0,2361
2223,2137223,16976,792,1192,17036.22,25.66,-1.00,-1.0,2436
2226,2137226,16896,892,1200,16962.03,25.75,-1.00,-1.0,2367
2229,2137229,16960,948,1292,17035.54,25.57,-1.00,-1.0,2439
2231,2137231,16964,856,1168,17025.69,25.66,-1.00,-1.0,2369
2234,2137234,16964,860,1108,17021.88,25.66,-1.00,-1.0,2420
2237,2137237,16956,856,1132,17015.29,25.71,-1.00,-1.0,2375
2242,2137242,17004,828,1184,17065.27,25.71,-1.00,-1.0,2453
2245,2137245,17044,844,1384,17120.91,25.71,-1.00,-1.0,2377
2248,2137248,16992,804,1292,17060.00,25.66,-1.00,-1.0,2445
2250,2137250,17008,828,1148,17066.80,25.71,-1.00,-1.0,2372
2253,2137253,16988,844,1336,17061.34,25.71,-1.00,-1.0,2441
2256,2137256,16956,944,1144,17020.75,25.71,-1.00,-1.0,2374
2258,2137258,16976,744,1276,17040.14,25.66,-1.00,-1.0,2363
2261,2137261,16968,784,1124,17023.25,25.66,-1.00,-1.0,2434
2264,2137264,16944,872,1200,17008.81,25.61,-1.00,-1.0,2371
2269,2137269,17056,940,1144,17120.15,25.61,-1.00,-1.0,2451
2272,2137272,17012,840,1100,17068.21,25.61,-1.00,-1.0,2377
2275,2137275,16864,896,1128,16925.42,25.66,-1.00,-1.0,2444
2277,2137277,16904,796,1276,16970.77,25.71,-1.00,-1.0,2377
2280,2137280,16920,888,1116,16980.00,25.66,-1.00,-1.0,2440
2283,2137283,16952,912,1312,17027.14,25.71,-1.00,-1.0,2374
2286,2137286,17016,948,1188,17083.74,25.66,-1.00,-1.0,2444
2288,2137288,16972,780,1208,17032.80,25.66,-1.00,-1.0,2378
2293,2137293,16904,972,1124,16969.19,25.71,-1.00,-1.0,2440
2296,2137296,17020,852,1100,17076.78,25.71,-1.00,-1.0,2369
2298,2137298,16940,780,1252,17004.10,25.66,-1.00,-1.0,2362
2301,2137301,16960,824,1116,17016.64,25.66,-1.00,-1.0,2438
2304,2137304,17028,872,1220,17093.90,25.71,-1.00,-1.0,2382
2307,2137307,16932,816,1112,16988.08,25.66,-1.00,-1.0,2435
2309,2137309,16968,816,1172,17027.99,25.57,-1.00,-1.0,2379
2312,2137312,16972,908,1196,17038.30,25.66,-1.00,-1.0,2437
2315,2137315,16988,848,1188,17050.59,25.71,-1.00,-1.0,2367
2320,2137320,17012,900,1244,17081.15,25.61,-1.00,-1.0,2437
2323,2137323,16996,856,1264,17064.42,25.61,-1.00,-1.0,2370
2325,2137325,17036,788,1268,17101.29,25.80,-1.00,-1.0,2435
2328,2137328,16968,936,1100,17029.36,25.61,-1.00,-1.0,2368
2331,2137331,16956,764,1160,17012.80,25.71,-1.00,-1.0,2432
2334,2137334,16960,888,1120,17020.12,25.71,-1.00,-1.0,2366
2336,2137336,16984,892,1144,17045.84,25.80,-1.00,-1.0,2361
2339,2137339,16928,828,1120,16985.21,25.71,-1.00,-1.0,2435
2342,2137342,17032,872,1076,17088.22,25.61,-1.00,-1.0,2367
2347,2137347,17020,808,1200,17081.37,25.71,-1.00,-1.0,2436
2350,2137350,16992,908,1148,17054.92,25.61,-1.00,-1.0,2377
2352,2137352,16912,896,1252,16981.93,25.75,-1.00,-1.0,2435
2355,2137355,16992,852,972,17041.09,25.61,-1.00,-1.0,2367
2358,2137358,16980,824,1276,17047.80,25.80,-1.00,-1.0,2432
2361,2137361,16920,920,1208,16988.00,25.61,-1.00,-1.0,2373
2363,2137363,17036,820,1324,17107.04,25.57,-1.00,-1.0,2435
2366,2137366,17116,860,1144,17175.73,25.61,-1.00,-1.0,2367
2371,2137371,16932,764,1132,16986.99,25.71,-1.00,-1.0,2437
2374,2137374,16968,964,1004,17024.99,25.71,-1.00,-1.0,2358
2376,2137376,16968,832,1112,17024.74,25.61,-1.00,-1.0,2359
2379,2137379,16908,908,1216,16975.97,25.66,-1.00,-1.0,2437
2382,2137382,17000,832,1076,17054.32,25.71,-1.00,-1.0,2367
2385,2137385,16976,920,1176,17041.54,25.66,-1.00,-1.0,2443
2387,2137387,16880,908,1300,16954.32,25.71,-1.00,-1.0,2366
2390,2137390,17024,888,1200,17089.33,25.75,-1.00,-1.0,2451
2393,2137393,17004,856,1188,17066.93,25.66,-1.00,-1.0,2369
2398,2137398,17016,912,968,17067.89,25.66,-1.00,-1.0,2439
2401,2137401,17008,1000,1244,17082.73,25.61,-1.00,-1.0,2371
2404,2137404,16844,828,1112,16900.96,25.57,-1.00,-1.0,2442
2406,2137406,16992,796,1056,17043.38,25.61,-1.00,-1.0,2367
2409,2137409,17000,864,1280,17070.00,25.66,-1.00,-1.0,2436
2412,2137412,16972,924,1136,17035.05,25.61,-1.00,-1.0,2367
2414,2137414,17084,960,1120,17147.57,25.66,-1.00,-1.0,2360
2417,2137417,17036,812,1104,17091.04,25.61,-1.00,-1.0,2446
2420,2137420,17020,804,1144,17077.34,25.66,-1.00,-1.0,2372
2425,2137425,16920,916,1164,16984.71,25.75,-1.00,-1.0,2439
2428,2137428,16928,996,1360,17011.72,25.71,-1.00,-1.0,2371
2431,2137431,16976,728,1200,17033.92,25.66,-1.00,-1.0,2440
2433,2137433,16968,944,1116,17030.84,25.57,-1.00,-1.0,2367
2436,2137436,16956,836,1276,17024.48,25.57,-1.00,-1.0,2434
2439,2137439,16948,840,1260,17015.52,25.61,-1.00,-1.0,2367
2442,2137442,16992,780,1300,17059.50,25.66,-1.00,-1.0,2436
2444,2137444,16916,852,1288,16986.34,25.66,-1.00,-1.0,2368
2449,2137449,17028,928,1184,17094.32,25.66,-1.00,-1.0,2438
2452,2137452,16892,812,1252,16957.79,25.61,-1.00,-1.0,2369
2455,2137455,17020,940,1184,17087.01,25.66,-1.00,-1.0,2366
2457,2137457,16940,776,1120,16994.71,25.66,-1.00,-1.0,2435
2460,2137460,16956,828,1148,17014.98,25.66,-1.00,-1.0,2368
2463,2137463,17012,816,1216,17074.91,25.66,-1.00,-1.0,2432
2466,2137466,17000,872,1168,17062.38,25.75,-1.00,-1.0,2367
2469,2137469,16956,772,1328,17025.44,25.61,-1.00,-1.0,2476
2471,2137471,17048,692,1372,17117.11,25.61,-1.00,-1.0,2375
2476,2137476,16992,840,1116,17049.31,25.71,-1.00,-1.0,2448
2479,2137479,16972,740,1028,17019.20,25.80,-1.00,-1.0,2375
2482,2137482,16976,964,1176,17043.97,25.71,-1.00,-1.0,2436
2484,2137484,16888,848,1208,16952.37,25.71,-1.00,-1.0,2370
2487,2137487,16940,824,1052,16992.62,25.71,-1.00,-1.0,2423
2490,2137490,16920,884,1344,16996.30,25.75,-1.00,-1.0,2411
2493,2137493,16960,848,1188,17022.69,25.71,-1.00,-1.0,2350
2496,2137496,17036,812,1144,17093.66,25.66,-1.00,-1.0,2439
2498,2137498,17032,816,1320,17102.55,25.71,-1.00,-1.0,2380
2503,2137503,16948,936,1316,17024.77,25.71,-1.00,-1.0,2438
2506,2137506,17020,800,1208,17081.56,25.71,-1.00,-1.0,2370
2509,2137509,17040,888,1148,17101.70,25.71,-1.00,-1.0,2449
2512,2137512,16992,824,1176,17052.57,25.52,-1.00,-1.0,2377
2514,2137514,17024,860,1224,17089.60,25.71,-1.00,-1.0,2445
2517,2137517,17004,844,1100,17060.43,25.80,-1.00,-1.0,2368
2520,2137520,17000,864,1112,17058.22,25.71,-1.00,-1.0,2448
2523,2137523,17040,800,1140,17096.82,25.71,-1.00,-1.0,2377
2525,2137525,17040,820,1076,17093.62,25.66,-1.00,-1.0,2363
2531,2137531,16948,912,1108,17008.65,25.66,-1.00,-1.0,2437
2534,2137534,16980,736,1172,17036.30,25.57,-1.00,-1.0,2369
2536,2137536,17052,876,940,17100.34,25.57,-1.00,-1.0,2434
2539,2137539,16964,812,1108,17019.53,25.75,-1.00,-1.0,2366
2542,2137542,17092,936,1028,17148.45,25.57,-1.00,-1.0,2420
2544,2137544,16980,984,1048,17040.74,25.66,-1.00,-1.0,2369
2547,2137547,17032,992,1140,17098.91,25.66,-1.00,-1.0,2433
2550,2137550,16860,800,1212,16922.43,25.75,-1.00,-1.0,2373
2555,2137555,17008,840,1084,17063.20,25.61,-1.00,-1.0,2440
2558,2137558,17064,808,972,17110.75,25.66,-1.00,-1.0,2370
2560,2137560,16932,860,1232,16998.53,25.61,-1.00,-1.0,2432
2563,2137563,16996,836,1200,17058.81,25.75,-1.00,-1.0,2366
2566,2137566,17068,888,1264,17137.76,25.61,-1.00,-1.0,2367
2568,2137568,16972,860,1308,17044.04,25.61,-1.00,-1.0,2435
2571,2137571,17036,832,1248,17101.90,25.61,-1.00,-1.0,2367
2574,2137574,17024,888,1236,17091.89,25.61,-1.00,-1.0,2433
2577,2137577,16984,896,1228,17051.89,25.61,-1.00,-1.0,2373
2582,2137582,16996,904,1260,17066.60,25.71,-1.00,-1.0,2439
2584,2137584,16968,880,1272,17038.35,25.66,-1.00,-1.0,2372
2587,2137587,16940,788,1064,16991.66,25.71,-1.00,-1.0,2434
2590,2137590,16964,836,1104,17020.43,25.66,-1.00,-1.0,2369
2593,2137593,16968,836,1348,17041.98,25.61,-1.00,-1.0,2432
2595,2137595,16928,904,1152,16991.22,25.75,-1.00,-1.0,2369
2598,2137598,17044,912,1148,17106.95,25.71,-1.00,-1.0,2434
2601,2137601,16988,820,1096,17043.06,25.66,-1.00,-1.0,2368
2603,2137603,17140,880,1144,17200.66,25.71,-1.00,-1.0,2360
2608,2137608,17056,896,1120,17116.20,25.61,-1.00,-1.0,2439
2611,2137611,16980,880,1224,17046.79,25.66,-1.00,-1.0,2372
2614,2137614,16896,864,1296,16967.64,25.71,-1.00,-1.0,2419
2617,2137617,16976,828,1152,17035.18,25.66,-1.00,-1.0,2369
2619,2137619,16892,860,1140,16952.25,25.61,-1.00,-1.0,2434
2622,2137622,17004,892,1188,17068.77,25.75,-1.00,-1.0,2374
2625,2137625,17012,744,1184,17069.38,25.71,-1.00,-1.0,2433
2628,2137628,16956,800,1120,17011.77,25.61,-1.00,-1.0,2432
2633,2137633,16972,968,1232,17044.17,25.71,-1.00,-1.0,2453
2635,2137635,16992,848,1180,17054.02,25.71,-1.00,-1.0,2369
2638,2137638,17072,748,1116,17124.78,25.66,-1.00,-1.0,2443
2641,2137641,16996,888,1200,17061.44,25.61,-1.00,-1.0,2366
2643,2137643,17036,876,1216,17101.79,25.66,-1.00,-1.0,2365
2646,2137646,17012,852,1228,17077.53,25.61,-1.00,-1.0,2437
2649,2137649,17088,804,1308,17156.84,25.57,-1.00,-1.0,2373
2652,2137652,16976,856,1164,17037.38,25.71,-1.00,-1.0,2437
2654,2137654,16928,732,1192,16985.70,25.66,-1.00,-1.0,2371
2659,2137659,16952,924,1100,17012.76,25.66,-1.00,-1.0,2439
2662,2137662,17032,844,1036,17084.34,25.66,-1.00,-1.0,2370
2665,2137665,16976,884,1236,17043.88,25.66,-1.00,-1.0,2433
2668,2137668,17048,872,1172,17110.47,25.71,-1.00,-1.0,2373
2670,2137670,16984,864,1156,17045.21,25.66,-1.00,-1.0,2435
2673,2137673,16956,856,1112,17013.97,25.61,-1.00,-1.0,2367
2676,2137676,16968,780,1316,17036.82,25.66,-1.00,-1.0,2433
2679,2137679,16928,816,1132,16985.42,25.71,-1.00,-1.0,2365
2681,2137681,16960,872,1144,17020.89,25.75,-1.00,-1.0,2359
2686,2137686,16968,908,1208,17035.16,25.66,-1.00,-1.0,2440
2689,2137689,17060,936,1064,17118.76,25.61,-1.00,-1.0,2356
2692,2137692,17064,796,1220,17126.06,25.57,-1.00,-1.0,2433
2695,2137695,17024,848,1196,17087.02,25.61,-1.00,-1.0,2366
2697,2137697,17004,864,1352,17079.53,25.66,-1.00,-1.0,2435
2700,2137700,16884,936,1180,16951.04,25.71,-1.00,-1.0,2367
2703,2137703,17092,864,1252,17159.56,25.57,-1.00,-1.0,2433
2706,2137706,17072,888,1184,17136.03,25.61,-1.00,-1.0,2366
2711,2137711,16992,808,1164,17050.98,25.71,-1.00,-1.0,2442
2713,2137713,17072,816,1268,17138.46,25.61,-1.00,-1.0,2377
2716,2137716,17000,896,1120,17060.40,25.71,-1.00,-1.0,2434
2719,2137719,16908,932,1304,16983.80,25.61,-1.00,-1.0,2367
2721,2137721,17032,820,1092,17086.66,25.71,-1.00,-1.0,2359
2724,2137724,16896,868,1016,16948.76,25.57,-1.00,-1.0,2433
2727,2137727,17000,852,1276,17069.10,25.61,-1.00,-1.0,2368
2730,2137730,16956,900,1156,17019.17,25.61,-1.00,-1.0,2430
2732,2137732,16968,896,1316,17042.53,25.71,-1.00,-1.0,2374
2737,2137737,16872,804,1248,16937.19,25.66,-1.00,-1.0,2440
2740,2137740,16952,848,1192,17015.00,25.71,-1.00,-1.0,2372
2743,2137743,17036,792,1192,17096.01,25.57,-1.00,-1.0,2420
2745,2137745,17008,796,1192,17068.29,25.61,-1.00,-1.0,2368
2748,2137748,16996,852,1172,17057.65,25.66,-1.00,-1.0,2435
2751,2137751,16964,880,1156,17026.10,25.61,-1.00,-1.0,2374
2754,2137754,17008,776,1260,17072.25,25.57,-1.00,-1.0,2433
2757,2137757,17000,940,1076,17059.94,25.61,-1.00,-1.0,2366
2760,2137760,16904,924,1164,16969.21,25.71,-1.00,-1.0,2361
2764,2137764,16940,800,1144,16997.42,25.66,-1.00,-1.0,2440
2767,2137767,16960,840,1212,17023.99,25.66,-1.00,-1.0,2369
2770,2137770,16936,744,1148,16991.16,25.75,-1.00,-1.0,2433
2773,2137773,17040,800,1300,17108.23,25.61,-1.00,-1.0,2366
2775,2137775,17032,864,1208,17096.63,25.57,-1.00,-1.0,2435
2778,2137778,17048,784,1148,17104.59,25.75,-1.00,-1.0,2367
2781,2137781,17004,916,1180,17069.49,25.66,-1.00,-1.0,2419
2784,2137784,16988,844,1188,17050.39,25.61,-1.00,-1.0,2366
2789,2137789,16968,928,1136,17031.29,25.71,-1.00,-1.0,2442
2791,2137791,16992,800,1324,17062.27,25.71,-1.00,-1.0,2378
2794,2137794,16852,940,1196,16920.52,25.75,-1.00,-1.0,2434
2797,2137797,17060,872,1068,17115.62,25.71,-1.00,-1.0,2366
2799,2137799,16948,896,1128,17009.11,25.61,-1.00,-1.0,2420
2802,2137802,16924,820,1252,16990.05,25.66,-1.00,-1.0,2439
2805,2137805,16956,808,1132,17012.94,25.75,-1.00,-1.0,2367
2808,2137808,17168,888,1172,17230.86,25.57,-1.00,-1.0,2432
2811,2137811,16988,824,1120,17044.81,25.75,-1.00,-1.0,2366
2816,2137816,17016,892,1116,17075.87,25.66,-1.00,-1.0,2438
2818,2137818,17084,840,1120,17141.27,25.57,-1.00,-1.0,2372
2821,2137821,16980,944,1104,17042.02,25.57,-1.00,-1.0,2434
2824,2137824,17040,792,1304,17108.16,25.57,-1.00,-1.0,2367
2827,2137827,17004,928,1164,17069.04,25.75,-1.00,-1.0,2434
2829,2137829,16996,920,1172,17061.18,25.75,-1.00,-1.0,2374
2832,2137832,16936,884,1156,16998.41,25.66,-1.00,-1.0,2361
2835,2137835,16972,912,1188,17037.95,25.61,-1.00,-1.0,2439
2838,2137838,16964,796,1184,17023.89,25.66,-1.00,-1.0,2366
2843,2137843,16948,892,1108,17007.59,25.66,-1.00,-1.0,2442
2845,2137845,16940,972,1168,17008.02,25.66,-1.00,-1.0,2372
2848,2137848,16928,860,1132,16987.59,25.61,-1.00,-1.0,2421
2851,2137851,16916,808,1120,16972.28,25.75,-1.00,-1.0,2367
2854,2137854,17028,928,1208,17096.00,25.66,-1.00,-1.0,2434
2856,2137856,16988,796,1096,17041.92,25.66,-1.00,-1.0,2375
2859,2137859,16988,844,1128,17046.31,25.71,-1.00,-1.0,2433
2862,2137862,16932,696,1376,17002.07,25.66,-1.00,-1.0,2368
2867,2137867,17004,792,1152,17061.37,25.75,-1.00,-1.0,2442
2869,2137869,16976,856,1260,17044.21,25.71,-1.00,-1.0,2377
2872,2137872,16968,912,1124,17029.62,25.66,-1.00,-1.0,2361
2875,2137875,16932,840,1084,16987.45,25.57,-1.00,-1.0,2459
2878,2137878,16984,872,1204,17048.94,25.71,-1.00,-1.0,2376
2881,2137881,16996,820,1092,17050.77,25.66,-1.00,-1.0,2447
2883,2137883,16924,912,1316,16999.57,25.66,-1.00,-1.0,2370
2886,2137886,16884,872,1184,16947.91,25.75,-1.00,-1.0,2451
2889,2137889,17024,788,1108,17078.21,25.75,-1.00,-1.0,2370
2894,2137894,17012,824,1312,17082.40,25.66,-1.00,-1.0,2448
2896,2137896,17088,924,1100,17148.28,25.71,-1.00,-1.0,2353
2899,2137899,17000,920,1192,17066.55,25.66,-1.00,-1.0,2442
2902,2137902,17068,812,1064,17120.40,25.52,-1.00,-1.0,2366
2905,2137905,16940,788,1308,17008.69,25.66,-1.00,-1.0,2447
2907,2137907,17036,824,1152,17094.78,25.61,-1.00,-1.0,2365
2910,2137910,16972,804,1052,17023.57,25.66,-1.00,-1.0,2368
2913,2137913,17076,792,1092,17129.20,25.66,-1.00,-1.0,2439
2916,2137916,16960,808,1336,17031.72,25.57,-1.00,-1.0,2358
2921,2137921,17016,868,1164,17077.84,25.71,-1.00,-1.0,2446
2923,2137923,16992,920,1092,17051.89,25.61,-1.00,-1.0,2367
2926,2137926,17088,924,1196,17154.71,25.75,-1.00,-1.0,2442
2929,2137929,16960,828,1240,17025.42,25.61,-1.00,-1.0,2363
2932,2137932,16964,792,1116,17019.11,25.66,-1.00,-1.0,2440
2934,2137934,16924,900,1120,16984.88,25.71,-1.00,-1.0,2364
2937,2137937,17008,844,1280,17076.97,25.75,-1.00,-1.0,2438
2940,2137940,17004,896,1164,17067.33,25.71,-1.00,-1.0,2363
2945,2137945,16984,800,1164,17042.63,25.71,-1.00,-1.0,2438
2948,2137948,16904,856,1284,16974.29,25.71,-1.00,-1.0,2367
2950,2137950,17016,868,1136,17075.95,25.57,-1.00,-1.0,2361
2953,2137953,16980,852,1092,17036.39,25.66,-1.00,-1.0,2440
2956,2137956,16980,816,1148,17038.31,25.75,-1.00,-1.0,2370
2958,2137958,16972,812,1188,17032.89,25.66,-1.00,-1.0,2436
2961,2137961,17012,792,1168,17070.43,25.57,-1.00,-1.0,2366
2964,2137964,16912,828,1272,16979.97,25.66,-1.00,-1.0,2437
2967,2137967,16984,880,1244,17052.22,25.66,-1.00,-1.0,2368
2972,2137972,17008,928,1080,17067.50,25.71,-1.00,-1.0,2440
2974,2137974,17032,800,1224,17094.65,25.61,-1.00,-1.0,2373
2977,2137977,17036,844,1172,17097.11,25.71,-1.00,-1.0,2441
2980,2137980,16920,872,1200,16984.90,25.61,-1.00,-1.0,2367
2983,2137983,16932,876,1280,17002.89,25.71,-1.00,-1.0,2430
2985,2137985,16904,944,1108,16966.56,25.61,-1.00,-1.0,2370
2988,2137988,16956,816,1168,17015.76,25.61,-1.00,-1.0,2361
2991,2137991,17004,840,1200,17066.97,25.61,-1.00,-1.0,2437
2994,2137994,16988,876,1312,17061.09,25.71,-1.00,-1.0,2359
2999,2137999,17044,968,1204,17113.87,25.71,-1.00,-1.0,2443
3001,2138001,17060,724,1132,17112.84,25.66,-1.00,-1.0,2366
3004,2138004,16980,808,1236,17044.09,25.71,-1.00,-1.0,2452
3007,2138007,17064,888,1148,17125.61,25.66,-1.00,-1.0,2364
3010,2138010,16956,940,972,17009.83,25.61,-1.00,-1.0,2445
3012,2138012,16996,948,1272,17069.88,25.66,-1.00,-1.0,2364
3015,2138015,16920,788,1080,16972.73,25.71,-1.00,-1.0,2449
3018,2138018,16968,776,1208,17028.64,25.66,-1.00,-1.0,2364
3023,2138023,16892,892,1264,16962.70,25.66,-1.00,-1.0,2437
3026,2138026,17032,880,1116,17091.19,25.66,-1.00,-1.0,2366
3028,2138028,17028,876,1264,17097.30,25.66,-1.00,-1.0,2362
3031,2138031,16920,852,1148,16980.29,25.71,-1.00,-1.0,2456
3034,2138034,17004,872,1260,17072.90,25.71,-1.00,-1.0,2375
3036,2138036,16976,884,1204,17041.59,25.61,-1.00,-1.0,2450
3039,2138039,17044,896,1204,17109.95,25.61,-1.00,-1.0,2365
3042,2138042,16956,812,1320,17026.68,25.61,-1.00,-1.0,2451
3045,2138045,17124,816,1088,17177.92,25.66,-1.00,-1.0,2367
3050,2138050,16976,948,1168,17042.52,25.71,-1.00,-1.0,2427
3052,2138052,16952,876,1160,17014.21,25.71,-1.00,-1.0,2372
3055,2138055,16980,812,1148,17038.12,25.61,-1.00,-1.0,2449
3058,2138058,17020,800,1124,17075.82,25.61,-1.00,-1.0,2379
3061,2138061,17008,912,1256,17078.68,25.66,-1.00,-1.0,2438
3063,2138063,16992,824,1284,17060.36,25.61,-1.00,-1.0,2377
3066,2138066,16944,868,1100,17001.84,25.66,-1.00,-1.0,2360
3069,2138069,17036,792,1172,17094.62,25.66,-1.00,-1.0,2437
3072,2138072,16996,964,1304,17073.19,25.66,-1.00,-1.0,2365
3077,2138077,17048,876,1120,17107.19,25.66,-1.00,-1.0,2440
3079,2138079,17000,872,1204,17064.88,25.61,-1.00,-1.0,2376
3082,2138082,17008,836,1252,17074.50,25.75,-1.00,-1.0,2441
3085,2138085,16888,836,1048,16941.12,25.66,-1.00,-1.0,2367
3088,2138088,17044,896,1068,17100.92,25.71,-1.00,-1.0,2459
3091,2138091,17056,888,1164,17118.72,25.71,-1.00,-1.0,2373
3093,2138093,16984,812,1268,17050.61,25.71,-1.00,-1.0,2438
3096,2138096,16920,936,1128,16983.37,25.71,-1.00,-1.0,2367
3101,2138101,17088,868,1276,17157.54,25.80,-1.00,-1.0,2437
3104,2138104,16964,824,1248,17029.79,25.66,-1.00,-1.0,2367
3106,2138106,17020,864,1208,17084.68,25.71,-1.00,-1.0,2359
3109,2138109,16932,984,1216,17004.10,25.61,-1.00,-1.0,2442
3112,2138112,16940,964,1248,17013.24,25.71,-1.00,-1.0,2364
3115,2138115,16940,816,1240,17004.91,25.61,-1.00,-1.0,2443
3117,2138117,16972,856,1124,17030.71,25.71,-1.00,-1.0,2350
3120,2138120,16952,820,1224,17015.90,25.61,-1.00,-1.0,2440
3123,2138123,16964,864,1180,17026.93,25.71,-1.00,-1.0,2364
3128,2138128,16988,856,1124,17046.65,25.61,-1.00,-1.0,2437
3131,2138131,17044,768,1248,17106.88,25.66,-1.00,-1.0,2366
3133,2138133,17020,984,1348,17101.63,25.61,-1.00,-1.0,2441
3136,2138136,16924,848,1212,16988.52,25.66,-1.00,-1.0,2365
3139,2138139,16968,820,1320,17039.01,25.61,-1.00,-1.0,2438
3142,2138142,16940,868,1128,16999.69,25.66,-1.00,-1.0,2364
3144,2138144,16980,820,1112,17036.12,25.71,-1.00,-1.0,2360
3147,2138147,17000,828,1160,17059.64,25.66,-1.00,-1.0,2453
3150,2138150,16992,816,1168,17051.63,25.52,-1.00,-1.0,2365
3155,2138155,16964,800,1140,17021.07,25.75,-1.00,-1.0,2444
3157,2138157,16980,892,1220,17047.12,25.61,-1.00,-1.0,2366
3160,2138160,16968,924,1092,17028.19,25.71,-1.00,-1.0,2459
3163,2138163,16988,940,1124,17051.07,25.66,-1.00,-1.0,2367
3166,2138166,17032,940,1212,17100.92,25.80,-1.00,-1.0,2437
3169,2138169,16960,812,1060,17012.48,25.52,-1.00,-1.0,2364
3171,2138171,17080,828,1128,17137.22,25.61,-1.00,-1.0,2438
3174,2138174,17032,872,1156,17093.44,25.61,-1.00,-1.0,2365
3177,2138177,17036,852,1140,17095.34,25.57,-1.00,-1.0,2368
3182,2138182,16968,896,1200,17033.96,25.66,-1.00,-1.0,2434
3184,2138184,16864,920,1268,16936.61,25.66,-1.00,-1.0,2373
3187,2138187,16924,872,1204,16989.17,25.75,-1.00,-1.0,2447
3190,2138190,16964,884,1096,17022.34,25.66,-1.00,-1.0,2377
3193,2138193,16984,812,1240,17048.55,25.71,-1.00,-1.0,2436
3195,2138195,17008,848,1128,17066.45,25.66,-1.00,-1.0,2373
3198,2138198,16948,832,1096,17003.77,25.71,-1.00,-1.0,2443
3201,2138201,16964,884,1136,17024.96,25.66,-1.00,-1.0,2379
3206,2138206,16996,848,1052,17049.63,25.57,-1.00,-1.0,2455
3209,2138209,16984,848,1184,17046.33,25.75,-1.00,-1.0,2373
3212,2138212,16952,776,1064,17003.08,25.66,-1.00,-1.0,2447
3214,2138214,16956,820,1244,17021.34,25.57,-1.00,-1.0,2372
3217,2138217,16940,860,1152,17000.89,25.61,-1.00,-1.0,2361
3220,2138220,16932,888,1184,16996.56,25.71,-1.00,-1.0,2430
3222,2138222,17028,848,1024,17079.83,25.71,-1.00,-1.0,2372
3225,2138225,16968,912,1176,17033.14,25.71,-1.00,-1.0,2436
3228,2138228,17004,900,1220,17071.45,25.66,-1.00,-1.0,2372
3233,2138233,16924,956,1164,16990.90,25.47,-1.00,-1.0,2454
3236,2138236,16988,884,1180,17051.86,25.75,-1.00,-1.0,2372
3239,2138239,17004,916,1188,17070.04,25.71,-1.00,-1.0,2449
3241,2138241,16880,748,1096,16932.07,25.66,-1.00,-1.0,2366
3244,2138244,16932,824,1168,16992.23,25.52,-1.00,-1.0,2446
3247,2138247,17004,880,1044,17058.73,25.66,-1.00,-1.0,2371
3250,2138250,16924,864,1128,16983.54,25.71,-1.00,-1.0,2445
3252,2138252,17108,820,1260,17173.92,25.75,-1.00,-1.0,2366
3255,2138255,16988,872,1156,17049.60,25.61,-1.00,-1.0,2367
3260,2138260,16940,884,1240,17008.31,25.71,-1.00,-1.0,2455
3263,2138263,16976,800,1212,17038.00,25.61,-1.00,-1.0,2375
3266,2138266,17084,912,1212,17151.20,25.71,-1.00,-1.0,2452
3268,2138268,16924,908,1156,16987.72,25.61,-1.00,-1.0,2372
3271,2138271,16956,848,1104,17013.05,25.61,-1.00,-1.0,2443
3274,2138274,17020,796,1264,17085.42,25.61,-1.00,-1.0,2367
3277,2138277,17028,860,1116,17086.19,25.61,-1.00,-1.0,2447
3279,2138279,17000,844,1236,17065.76,25.61,-1.00,-1.0,2373
3284,2138284,17016,848,1232,17081.60,25.61,-1.00,-1.0,2453
3287,2138287,16984,976,1332,17064.09,25.66,-1.00,-1.0,2375
3290,2138290,16992,824,1228,17056.23,25.71,-1.00,-1.0,2442
3292,2138292,17020,820,1212,17082.79,25.61,-1.00,-1.0,2365
3295,2138295,16976,784,1160,17033.64,25.52,-1.00,-1.0,2347
3298,2138298,17016,840,1192,17078.37,25.71,-1.00,-1.0,2439
3300,2138300,17048,852,1260,17115.72,25.61,-1.00,-1.0,2371
3303,2138303,16972,868,1188,17035.66,25.61,-1.00,-1.0,2439
3306,2138306,16956,816,1128,17013.06,25.61,-1.00,-1.0,2364
3311,2138311,16944,928,1260,17016.11,25.61,-1.00,-1.0,2446
3314,2138314,17040,1012,1116,17106.47,25.61,-1.00,-1.0,2368
3317,2138317,17016,808,1256,17081.41,25.57,-1.00,-1.0,2447
3319,2138319,17020,872,1036,17073.78,25.71,-1.00,-1.0,2371
3322,2138322,16892,788,1060,16943.56,25.71,-1.00,-1.0,2437
3325,2138325,17032,820,1084,17086.15,25.71,-1.00,-1.0,2365
3328,2138328,16980,840,1188,17042.22,25.75,-1.00,-1.0,2443
3330,2138330,17096,844,1008,17146.47,25.61,-1.00,-1.0,2371
3333,2138333,16912,792,1172,16971.05,25.66,-1.00,-1.0,2359
3338,2138338,17064,912,1060,17121.20,25.71,-1.00,-1.0,2439
3341,2138341,17028,916,1184,17093.67,25.66,-1.00,-1.0,2370
3344,2138344,17076,876,1096,17133.54,25.66,-1.00,-1.0,2438
3346,2138346,16988,832,1256,17054.67,25.66,-1.00,-1.0,2370
3349,2138349,16948,872,1036,17002.01,25.66,-1.00,-1.0,2436
3352,2138352,17044,912,1180,17109.12,25.66,-1.00,-1.0,2368
3355,2138355,17020,852,1188,17082.67,25.66,-1.00,-1.0,2436
3357,2138357,17020,816,1096,17074.76,25.66,-1.00,-1.0,2367
3363,2138363,17000,768,1096,17052.60,25.66,-1.00,-1.0,2454
3366,2138366,16920,896,1172,16984.19,25.66,-1.00,-1.0,2370
3369,2138369,17000,816,1188,17060.98,25.61,-1.00,-1.0,2444
3371,2138371,16972,956,1208,17041.77,25.66,-1.00,-1.0,2363
3374,2138374,17048,760,1164,17104.58,25.71,-1.00,-1.0,2358
3377,2138377,17064,888,1152,17125.88,25.71,-1.00,-1.0,2445
3379,2138379,16932,876,1340,17007.52,25.61,-1.00,-1.0,2364
3382,2138382,16964,796,1324,17034.20,25.71,-1.00,-1.0,2438
3385,2138385,17016,852,1216,17080.66,25.71,-1.00,-1.0,2363
3390,2138390,17016,776,1192,17075.34,25.57,-1.00,-1.0,2450
3392,2138392,16980,908,1076,17038.27,25.71,-1.00,-1.0,2368
3395,2138395,17116,732,1108,17167.44,25.66,-1.00,-1.0,2448
3398,2138398,17000,888,1224,17067.12,25.71,-1.00,-1.0,2370
3401,2138401,16932,832,1220,16996.27,25.66,-1.00,-1.0,2426
3403,2138403,17040,860,1096,17096.85,25.61,-1.00,-1.0,2365
3406,2138406,17028,836,1100,17083.96,25.66,-1.00,-1.0,2448
3409,2138409,17040,708,1148,17093.30,25.61,-1.00,-1.0,2364
3411,2138411,17044,872,1148,17104.86,25.66,-1.00,-1.0,2360
3416,2138416,16968,736,1188,17025.45,25.61,-1.00,-1.0,2439
3419,2138419,16972,864,1208,17036.86,25.80,-1.00,-1.0,2369
3422,2138422,16976,920,1104,17036.72,25.71,-1.00,-1.0,2454
3425,2138425,17008,880,1072,17064.46,25.71,-1.00,-1.0,2374
3427,2138427,17048,860,1200,17111.81,25.75,-1.00,-1.0,2449
3430,2138430,16988,896,1148,17050.30,25.71,-1.00,-1.0,2369
3433,2138433,16952,824,1272,17019.61,25.75,-1.00,-1.0,2450
3436,2138436,16912,832,1052,16965.10,25.66,-1.00,-1.0,2372
3441,2138441,16876,852,1240,16942.93,25.61,-1.00,-1.0,2447
3443,2138443,16940,872,1164,17002.32,25.61,-1.00,-1.0,2367
3446,2138446,17080,872,1224,17145.99,25.61,-1.00,-1.0,2443
3449,2138449,17016,808,1200,17077.39,25.61,-1.00,-1.0,2364
3451,2138451,16996,756,1260,17059.40,25.66,-1.00,-1.0,2360
3454,2138454,16872,808,1236,16936.50,25.66,-1.00,-1.0,2449
3457,2138457,17000,852,1080,17055.56,25.61,-1.00,-1.0,2365
3460,2138460,16916,940,1224,16986.25,25.66,-1.00,-1.0,2446
3462,2138462,16992,872,1172,17054.68,25.66,-1.00,-1.0,2364
3467,2138467,16980,876,1164,17042.38,25.71,-1.00,-1.0,2439
3470,2138470,17104,844,1104,17160.36,25.61,-1.00,-1.0,2367
3473,2138473,16984,924,1192,17050.83,25.71,-1.00,-1.0,2438
3476,2138476,17008,896,1308,17081.74,25.61,-1.00,-1.0,2365
3478,2138478,17052,816,1156,17110.61,25.71,-1.00,-1.0,2437
3481,2138481,16860,872,1080,16917.04,25.71,-1.00,-1.0,2365
3484,2138484,16948,792,1188,17008.04,25.71,-1.00,-1.0,2438
3487,2138487,16956,788,1188,17015.82,25.71,-1.00,-1.0,2363
3489,2138489,17036,824,1396,17112.95,25.66,-1.00,-1.0,2369
3494,2138494,17024,856,1200,17087.70,25.66,-1.00,-1.0,2440
3497,2138497,16992,780,1208,17052.73,25.71,-1.00,-1.0,2367
3500,2138500,16988,840,1152,17047.72,25.66,-1.00,-1.0,2446
3502,2138502,17064,940,1184,17130.84,25.66,-1.00,-1.0,2364
3505,2138505,16976,888,1148,17037.93,25.66,-1.00,-1.0,2453
3508,2138508,17020,816,1168,17079.53,25.75,-1.00,-1.0,2364
3511,2138511,16908,880,1108,16967.10,25.66,-1.00,-1.0,2444
3513,2138513,16992,904,1092,17051.03,25.66,-1.00,-1.0,2364
3518,2138518,16992,808,1064,17044.44,25.75,-1.00,-1.0,2439
3521,2138521,16988,788,1136,17044.17,25.71,-1.00,-1.0,2367
3524,2138524,17036,708,1168,17090.66,25.71,-1.00,-1.0,2439
3527,2138527,17048,840,1156,17107.78,25.71,-1.00,-1.0,2363
3529,2138529,16976,856,1260,17044.21,25.66,-1.00,-1.0,2360
3532,2138532,16904,840,1140,16963.21,25.66,-1.00,-1.0,2437
3535,2138535,16960,920,1128,17022.35,25.57,-1.00,-1.0,2373
3537,2138537,17016,836,1252,17082.47,25.66,-1.00,-1.0,2436
3540,2138540,17012,900,1248,17081.44,25.71,-1.00,-1.0,2366
3545,2138545,16980,848,1276,17048.98,25.61,-1.00,-1.0,2450
3548,2138548,16952,860,1216,17017.30,25.71,-1.00,-1.0,2382
3551,2138551,16932,832,1272,17000.08,25.71,-1.00,-1.0,2439
3553,2138553,16980,848,1100,17036.71,25.61,-1.00,-1.0,2372
3556,2138556,16988,908,1252,17058.26,25.61,-1.00,-1.0,2439
3559,2138559,17060,896,1100,17118.89,25.61,-1.00,-1.0,2379
3562,2138562,16884,860,1216,16949.56,25.71,-1.00,-1.0,2439
3564,2138564,16988,868,1144,17048.59,25.61,-1.00,-1.0,2369
3567,2138567,16984,784,1124,17039.20,25.57,-1.00,-1.0,2359
3572,2138572,17020,864,1320,17092.96,25.66,-1.00,-1.0,2440
3575,2138575,16956,952,1164,17022.55,25.71,-1.00,-1.0,2367
3578,2138578,17012,916,1008,17066.44,25.66,-1.00,-1.0,2444
3580,2138580,16992,756,1140,17046.97,25.66,-1.00,-1.0,2364
3583,2138583,16952,856,1228,17017.96,25.66,-1.00,-1.0,2438
3586,2138586,17036,864,1112,17094.10,25.71,-1.00,-1.0,2365
3589,2138589,16956,896,1032,17010.99,25.66,-1.00,-1.0,2443
3591,2138591,16924,908,1304,16998.43,25.75,-1.00,-1.0,2363
3596,2138596,17040,884,1172,17103.12,25.61,-1.00,-1.0,2441
3599,2138599,16992,856,1160,17053.05,25.66,-1.00,-1.0,2367
3601,2138601,16960,908,1156,17023.58,25.61,-1.00,-1.0,2365
3604,2138604,17020,848,1204,17083.59,25.61,-1.00,-1.0,2447
3607,2138607,17000,860,1092,17056.73,25.61,-1.00,-1.0,2378
3610,2138610,17048,860,1252,17115.53,25.80,-1.00,-1.0,2440
3612,2138612,16956,928,1164,17021.22,25.71,-1.00,-1.0,2370
3615,2138615,17012,816,1200,17073.78,25.71,-1.00,-1.0,2437
3618,2138618,16956,860,1224,17021.86,25.66,-1.00,-1.0,2365
3623,2138623,17000,860,1232,17066.27,25.57,-1.00,-1.0,2439
3626,2138626,16924,936,1288,16998.73,25.66,-1.00,-1.0,2366
3629,2138629,16932,804,1244,16996.66,25.66,-1.00,-1.0,2440
3632,2138632,16992,820,1124,17048.87,25.66,-1.00,-1.0,2365
3634,2138634,16996,948,1008,17052.24,25.66,-1.00,-1.0,2437
3637,2138637,16908,928,1228,16977.92,25.66,-1.00,-1.0,2364
3640,2138640,16928,828,1188,16989.82,25.57,-1.00,-1.0,2367
3642,2138642,16976,956,1248,17048.64,25.61,-1.00,-1.0,2437
3645,2138645,16968,816,1192,17029.38,25.61,-1.00,-1.0,2367
3650,2138650,16992,892,1156,17054.62,25.61,-1.00,-1.0,2438
3653,2138653,17080,812,1176,17139.68,25.66,-1.00,-1.0,2367
3656,2138656,16972,864,1172,17034.34,25.61,-1.00,-1.0,2439
3659,2138659,17032,840,1080,17086.87,25.66,-1.00,-1.0,2365
3661,2138661,16904,848,1284,16973.89,25.61,-1.00,-1.0,2436
3664,2138664,17016,852,1264,17084.14,25.66,-1.00,-1.0,2364
3667,2138667,17040,768,1196,17099.18,25.61,-1.00,-1.0,2438
3670,2138670,16964,836,1220,17028.35,25.66,-1.00,-1.0,2365
3675,2138675,16928,812,1084,16982.10,25.66,-1.00,-1.0,2440
3677,2138677,17020,828,1168,17080.11,25.66,-1.00,-1.0,2374
3680,2138680,17020,920,1312,17095.27,25.71,-1.00,-1.0,2360
3683,2138683,16972,872,1164,17034.20,25.71,-1.00,-1.0,2446
3685,2138685,16980,824,1208,17042.85,25.61,-1.00,-1.0,2366
3688,2138688,17072,732,1164,17127.29,25.61,-1.00,-1.0,2440
3691,2138691,16868,808,1220,16931.35,25.71,-1.00,-1.0,2368
3694,2138694,16976,776,1268,17040.97,25.61,-1.00,-1.0,2444
3696,2138696,16988,756,1108,17040.87,25.66,-1.00,-1.0,2373
3701,2138701,16984,848,1208,17048.01,25.80,-1.00,-1.0,2439
3704,2138704,17052,944,1212,17121.06,25.71,-1.00,-1.0,2369
3707,2138707,16920,872,1176,16983.22,25.66,-1.00,-1.0,2446
3710,2138710,17008,900,1152,17070.71,25.80,-1.00,-1.0,2374
3712,2138712,16944,948,1304,17020.53,25.75,-1.00,-1.0,2435
3715,2138715,16936,968,1092,16998.75,25.61,-1.00,-1.0,2368
3718,2138718,17008,908,1148,17070.87,25.66,-1.00,-1.0,2366
3721,2138721,16984,848,1204,17047.73,25.66,-1.00,-1.0,2446
3723,2138723,17004,896,1316,17078.37,25.57,-1.00,-1.0,2377
3728,2138728,16888,872,1208,16953.59,25.66,-1.00,-1.0,2441
3731,2138731,17044,876,1260,17112.95,25.57,-1.00,-1.0,2370
3734,2138734,17012,856,1112,17069.78,25.57,-1.00,-1.0,2452
3737,2138737,17004,944,1056,17062.89,25.71,-1.00,-1.0,2374
3740,2138740,16968,912,1060,17025.52,25.75,-1.00,-1.0,2445
3742,2138742,16940,776,1188,16999.33,25.66,-1.00,-1.0,2372
3745,2138745,16956,844,1216,17020.49,25.66,-1.00,-1.0,2445
3748,2138748,16928,828,1348,17001.76,25.66,-1.00,-1.0,2374
3753,2138753,16936,764,1272,17000.88,25.61,-1.00,-1.0,2445
3756,2138756,16920,792,1196,16980.70,25.71,-1.00,-1.0,2434
3758,2138758,16996,852,1176,17057.93,25.66,-1.00,-1.0,2365
3761,2138761,17036,856,1128,17094.75,25.66,-1.00,-1.0,2442
3764,2138764,16876,836,1184,16938.13,25.75,-1.00,-1.0,2380
3767,2138767,16924,876,1092,16981.80,25.61,-1.00,-1.0,2439
3769,2138769,17056,904,1096,17115.07,25.66,-1.00,-1.0,2379
3772,2138772,17032,820,1244,17097.04,25.71,-1.00,-1.0,2422
3775,2138775,16960,816,1192,17021.41,25.66,-1.00,-1.0,2380
3780,2138780,16908,940,1192,16976.01,25.61,-1.00,-1.0,2438
3782,2138782,16912,892,1200,16977.97,25.66,-1.00,-1.0,2380
3785,2138785,16964,828,1072,17017.99,25.61,-1.00,-1.0,2438
3788,2138788,17072,840,1220,17136.14,25.71,-1.00,-1.0,2367
3791,2138791,16956,828,1180,17017.17,25.71,-1.00,-1.0,2441
3793,2138793,17020,888,1240,17088.20,25.61,-1.00,-1.0,2376
3796,2138796,16896,820,1260,16962.75,25.61,-1.00,-1.0,2360
3799,2138799,17064,844,1184,17125.84,25.61,-1.00,-1.0,2439
3802,2138802,16952,820,1144,17010.33,25.71,-1.00,-1.0,2367
3807,2138807,16900,872,1200,16964.97,25.71,-1.00,-1.0,2433
3809,2138809,16896,924,1036,16952.93,25.71,-1.00,-1.0,2355
3812,2138812,16972,824,1204,17034.59,25.61,-1.00,-1.0,2424
3815,2138815,17004,924,1108,17065.09,25.61,-1.00,-1.0,2368
3818,2138818,16920,816,1140,16977.98,25.71,-1.00,-1.0,2432
3820,2138820,16912,804,1140,16969.44,25.61,-1.00,-1.0,2373
3823,2138823,16916,788,1016,16964.79,25.75,-1.00,-1.0,2433
3826,2138826,16996,776,1256,17060.00,25.71,-1.00,-1.0,2353
3831,2138831,16996,872,1208,17061.17,25.71,-1.00,-1.0,2441
3833,2138833,16932,912,1140,16994.82,25.57,-1.00,-1.0,2368
3836,2138836,16944,780,1180,17002.94,25.71,-1.00,-1.0,2366
3839,2138839,16960,876,1196,17024.67,25.61,-1.00,-1.0,2438
3841,2138841,16884,908,1132,16946.25,25.61,-1.00,-1.0,2372
3844,2138844,16912,892,1232,16980.26,25.61,-1.00,-1.0,2436
3847,2138847,17004,908,1068,17061.69,25.71,-1.00,-1.0,2373
3850,2138850,16936,984,1256,17010.99,25.71,-1.00,-1.0,2434
3853,2138853,16940,996,1160,17008.86,25.57,-1.00,-1.0,2367
3858,2138858,17004,808,1056,17055.91,25.61,-1.00,-1.0,2434
3860,2138860,16948,796,1228,17011.06,25.61,-1.00,-1.0,2371
3863,2138863,16920,872,1224,16986.61,25.75,-1.00,-1.0,2424
3866,2138866,16904,900,1164,16967.91,25.61,-1.00,-1.0,2370
3869,2138869,17092,884,1156,17153.84,25.71,-1.00,-1.0,2432
3871,2138871,16928,864,1020,16980.70,25.71,-1.00,-1.0,2373
3874,2138874,17076,704,1112,17126.64,25.66,-1.00,-1.0,2360
3877,2138877,16896,900,1248,16965.92,25.61,-1.00,-1.0,2442
3880,2138880,17004,792,1088,17057.17,25.66,-1.00,-1.0,2374
3885,2138885,17044,908,1244,17113.44,25.75,-1.00,-1.0,2434
3887,2138887,17028,844,1284,17097.19,25.75,-1.00,-1.0,2371
3890,2138890,17000,736,1160,17055.42,25.66,-1.00,-1.0,2438
3893,2138893,16924,868,1200,16988.68,25.66,-1.00,-1.0,2368
3896,2138896,16932,960,1124,16996.40,25.57,-1.00,-1.0,2441
3898,2138898,16856,908,1112,16917.03,25.66,-1.00,-1.0,2368
3901,2138901,17040,908,1068,17097.56,25.66,-1.00,-1.0,2434
3904,2138904,17044,808,1108,17099.08,25.66,-1.00,-1.0,2367
3909,2138909,16984,904,1216,17051.46,25.71,-1.00,-1.0,2430
3911,2138911,16892,884,1220,16959.05,25.61,-1.00,-1.0,2369
3914,2138914,17040,864,1112,17098.09,25.66,-1.00,-1.0,2362
3917,2138917,16976,856,1284,17046.00,25.66,-1.00,-1.0,2437
3920,2138920,17064,896,1104,17123.13,25.71,-1.00,-1.0,2368
3922,2138922,17040,884,1000,17092.19,25.66,-1.00,-1.0,2433
3925,2138925,16980,852,1156,17040.62,25.57,-1.00,-1.0,2354
3928,2138928,16980,856,1192,17043.30,25.66,-1.00,-1.0,2436
3931,2138931,16948,864,1204,17012.67,25.71,-1.00,-1.0,2373
3936,2138936,16928,860,1216,16993.39,25.61,-1.00,-1.0,2437
3938,2138938,16976,888,1356,17053.21,25.66,-1.00,-1.0,2369
3941,2138941,16932,924,1160,16996.82,25.61,-1.00,-1.0,2438
3944,2138944,16984,912,1168,17048.53,25.71,-1.00,-1.0,2367
3947,2138947,16964,888,1220,17030.98,25.71,-1.00,-1.0,2436
3949,2138949,17060,884,1208,17125.54,25.66,-1.00,-1.0,2367
3952,2138952,16936,940,1200,17004.46,25.71,-1.00,-1.0,2359
3955,2138955,17008,908,1272,17079.65,25.66,-1.00,-1.0,2437
3958,2138958,17036,864,1176,17098.38,25.66,-1.00,-1.0,2375
3963,2138963,16976,776,1028,17024.79,25.80,-1.00,-1.0,2443
3965,2138965,16996,864,1200,17060.20,25.71,-1.00,-1.0,2369
3968,2138968,17020,948,1052,17078.81,25.75,-1.00,-1.0,2443
3971,2138971,17004,912,1124,17065.50,25.61,-1.00,-1.0,2367
3974,2138974,16992,748,1256,17054.77,25.66,-1.00,-1.0,2441
3976,2138976,16948,804,1236,17012.02,25.61,-1.00,-1.0,2366
3979,2138979,17016,860,1176,17078.26,25.66,-1.00,-1.0,2441
3982,2138982,17060,916,1116,17120.98,25.71,-1.00,-1.0,2366
3985,2138985,17020,760,1304,17086.79,25.66,-1.00,-1.0,2364
3990,2138990,17044,888,1112,17103.30,25.66,-1.00,-1.0,2436
3992,2138992,17088,908,1164,17151.65,25.75,-1.00,-1.0,2379
3995,2138995,16888,872,1288,16959.48,25.71,-1.00,-1.0,2438
3998,2138998,16940,908,1112,17000.72,25.66,-1.00,-1.0,2353
4001,2139001,16876,844,1116,16933.91,25.71,-1.00,-1.0,2443
4003,2139003,17028,960,1288,17103.61,25.57,-1.00,-1.0,2377
4006,2139006,17016,852,1216,17080.66,25.61,-1.00,-1.0,2434
4009,2139009,17124,844,1204,17187.01,25.66,-1.00,-1.0,2368
4014,2139014,16996,808,1200,17057.46,25.61,-1.00,-1.0,2436
4016,2139016,16892,836,1076,16946.87,25.71,-1.00,-1.0,2370
4019,2139019,16968,744,1072,17018.10,25.61,-1.00,-1.0,2439
4022,2139022,16956,836,1268,17023.88,25.71,-1.00,-1.0,2366
4024,2139024,16952,796,1304,17020.70,25.61,-1.00,-1.0,2346
4027,2139027,16984,908,1160,17047.77,25.66,-1.00,-1.0,2435
4030,2139030,17040,876,1168,17102.43,25.61,-1.00,-1.0,2366
4033,2139033,17012,932,1192,17079.16,25.71,-1.00,-1.0,2432
4036,2139036,16956,928,1116,17018.01,25.71,-1.00,-1.0,2369
4041,2139041,16988,884,1264,17057.88,25.71,-1.00,-1.0,2437
4043,2139043,16992,924,1116,17053.66,25.57,-1.00,-1.0,2382
4046,2139046,17068,748,1156,17123.45,25.71,-1.00,-1.0,2439
4049,2139049,17044,848,1176,17105.55,25.71,-1.00,-1.0,2373
4052,2139052,17008,820,1276,17075.50,25.71,-1.00,-1.0,2434
4054,2139054,16976,912,1184,17041.66,25.66,-1.00,-1.0,2373
4057,2139057,16848,892,1240,16917.10,25.61,-1.00,-1.0,2435
4060,2139060,16956,896,1292,17028.74,25.71,-1.00,-1.0,2373
4063,2139063,16876,884,1260,16946.04,25.61,-1.00,-1.0,2360
4068,2139068,17032,896,1268,17102.62,25.71,-1.00,-1.0,2438
4070,2139070,16988,920,1360,17067.17,25.71,-1.00,-1.0,2381
4073,2139073,17040,824,1044,17091.83,25.71,-1.00,-1.0,2436
4076,2139076,16996,764,1056,17045.90,25.61,-1.00,-1.0,2369
4079,2139079,17052,952,1300,17127.96,25.71,-1.00,-1.0,2434
4081,2139081,16924,800,1036,16974.54,25.71,-1.00,-1.0,2372
4084,2139084,16992,800,1136,17048.71,25.61,-1.00,-1.0,2433
4087,2139087,16984,796,1092,17037.67,25.71,-1.00,-1.0,2373
4092,2139092,16984,832,1152,17043.34,25.61,-1.00,-1.0,2452
4095,2139095,16888,896,1184,16953.15,25.66,-1.00,-1.0,2377
4098,2139098,17080,876,1324,17153.62,25.71,-1.00,-1.0,2447
4100,2139100,16952,876,1188,17016.14,25.61,-1.00,-1.0,2375
4103,2139103,16940,860,1092,16996.93,25.71,-1.00,-1.0,2360
4106,2139106,16812,760,1148,16868.28,25.66,-1.00,-1.0,2434
4108,2139108,16940,832,1196,17002.54,25.61,-1.00,-1.0,2370
4111,2139111,17020,948,1304,17096.18,25.66,-1.00,-1.0,2434
4114,2139114,16920,888,1308,16993.70,25.66,-1.00,-1.0,2366
4119,2139119,16976,816,1236,17040.48,25.57,-1.00,-1.0,2436
4122,2139122,16976,812,1204,17038.00,25.71,-1.00,-1.0,2370
4124,2139124,16936,812,1032,16986.83,25.66,-1.00,-1.0,2436
4127,2139127,17092,892,1160,17154.53,25.66,-1.00,-1.0,2366
4130,2139130,17000,948,1248,17072.09,25.66,-1.00,-1.0,2434
4133,2139133,16828,916,1124,16890.35,25.71,-1.00,-1.0,2367
4135,2139135,17020,804,1172,17079.24,25.66,-1.00,-1.0,2433
4138,2139138,16908,796,1156,16966.15,25.71,-1.00,-1.0,2366
4141,2139141,16996,772,1256,17059.82,25.66,-1.00,-1.0,2359
4146,2139146,17048,804,1296,17116.08,25.66,-1.00,-1.0,2437
4149,2139149,17044,804,1112,17099.15,25.66,-1.00,-1.0,2369
4151,2139151,16972,932,1200,17039.88,25.66,-1.00,-1.0,2423
4154,2139154,16976,824,1228,17040.29,25.66,-1.00,-1.0,2367
4157,2139157,17020,860,1060,17074.65,25.66,-1.00,-1.0,2433
4160,2139160,17008,848,1160,17068.59,25.57,-1.00,-1.0,2367
4162,2139162,16988,872,1180,17051.24,25.66,-1.00,-1.0,2433
4165,2139165,16956,804,1120,17011.96,25.66,-1.00,-1.0,2366
4170,2139170,16940,808,1148,16998.07,25.66,-1.00,-1.0,2445
4173,2139173,16924,840,1232,16989.56,25.61,-1.00,-1.0,2372
4176,2139176,16948,864,1144,17008.53,25.66,-1.00,-1.0,2443
4178,2139178,17052,952,1012,17108.51,25.61,-1.00,-1.0,2374
4181,2139181,16888,872,1236,16955.61,25.66,-1.00,-1.0,2359
4184,2139184,16944,892,1164,17007.34,25.66,-1.00,-1.0,2442
4186,2139186,16932,816,1200,16994.07,25.75,-1.00,-1.0,2368
4189,2139189,16972,812,1256,17037.77,25.66,-1.00,-1.0,2434
4192,2139192,16992,916,1088,17051.42,25.71,-1.00,-1.0,2373
4198,2139198,16988,840,1184,17049.91,25.66,-1.00,-1.0,2440
4200,2139200,16916,768,1308,16983.87,25.71,-1.00,-1.0,2377
4203,2139203,16964,836,1300,17034.27,25.66,-1.00,-1.0,2438
4206,2139206,16996,856,1140,17055.68,25.75,-1.00,-1.0,2369
4209,2139209,16924,896,1208,16990.70,25.66,-1.00,-1.0,2444
4211,2139211,16888,832,1172,16949.05,25.61,-1.00,-1.0,2377
4214,2139214,16948,856,1104,17005.48,25.75,-1.00,-1.0,2434
4217,2139217,16988,848,1200,17051.43,25.66,-1.00,-1.0,2368
4219,2139219,16984,972,1168,17051.84,25.66,-1.00,-1.0,2360
4224,2139224,16948,968,1112,17012.00,25.61,-1.00,-1.0,2437
4227,2139227,17008,872,1136,17068.19,25.61,-1.00,-1.0,2369
4230,2139230,17028,876,1168,17090.48,25.61,-1.00,-1.0,2443
4232,2139232,16968,840,1088,17023.58,25.71,-1.00,-1.0,2366
4235,2139235,16968,776,1200,17028.07,25.61,-1.00,-1.0,2439
4238,2139238,16984,904,1312,17058.57,25.61,-1.00,-1.0,2367
4241,2139241,16984,888,1208,17050.04,25.71,-1.00,-1.0,2440
4243,2139243,16928,908,1164,16992.25,25.61,-1.00,-1.0,2365
4249,2139249,17008,856,1096,17064.76,25.66,-1.00,-1.0,2438
4251,2139251,16972,844,1236,17037.86,25.57,-1.00,-1.0,2376
4254,2139254,17036,884,1192,17100.52,25.61,-1.00,-1.0,2438
4257,2139257,17044,868,1108,17102.02,25.66,-1.00,-1.0,2368
4259,2139259,17064,884,1068,17120.23,25.71,-1.00,-1.0,2359
4262,2139262,16952,936,1096,17013.16,25.71,-1.00,-1.0,2435
4265,2139265,16924,908,1148,16987.18,25.61,-1.00,-1.0,2367
4268,2139268,16944,872,1156,17005.76,25.71,-1.00,-1.0,2440
4270,2139270,17076,824,1152,17134.64,25.71,-1.00,-1.0,2366
4275,2139275,17012,876,1264,17081.37,25.57,-1.00,-1.0,2444
4278,2139278,17044,760,1216,17104.21,25.57,-1.00,-1.0,2386
4281,2139281,16888,820,1192,16949.86,25.61,-1.00,-1.0,2438
4283,2139283,16912,908,1240,16981.69,25.57,-1.00,-1.0,2365
4286,2139286,16976,816,1136,17033.52,25.71,-1.00,-1.0,2437
4289,2139289,16916,760,1116,16969.80,25.75,-1.00,-1.0,2381
4292,2139292,16980,824,1276,17047.80,25.61,-1.00,-1.0,2433
4294,2139294,16956,884,1276,17026.91,25.66,-1.00,-1.0,2373
4297,2139297,16956,872,1112,17014.78,25.71,-1.00,-1.0,2360
4302,2139302,16984,836,1304,17054.49,25.61,-1.00,-1.0,2445
4305,2139305,17016,868,1268,17085.24,25.66,-1.00,-1.0,2372
4308,2139308,16952,852,1240,17018.63,25.61,-1.00,-1.0,2446
4310,2139310,16972,868,1124,17031.31,25.75,-1.00,-1.0,2374
4313,2139313,16984,776,1216,17045.15,25.71,-1.00,-1.0,2434
4316,2139316,16984,920,980,17037.11,25.75,-1.00,-1.0,2354
4319,2139319,17036,896,1260,17106.01,25.71,-1.00,-1.0,2440
4321,2139321,16956,892,1148,17018.21,25.66,-1.00,-1.0,2375
4326,2139326,17040,860,1140,17099.73,25.57,-1.00,-1.0,2437
4329,2139329,16992,880,1256,17061.07,25.66,-1.00,-1.0,2369
4331,2139331,16916,860,1008,16967.81,25.75,-1.00,-1.0,2367
4334,2139334,16940,780,1144,16996.49,25.52,-1.00,-1.0,2443
4337,2139337,16912,932,1208,16980.68,25.66,-1.00,-1.0,2382
4340,2139340,16960,972,1184,17029.04,25.71,-1.00,-1.0,2434
4342,2139342,17056,984,1276,17131.95,25.66,-1.00,-1.0,2373
4345,2139345,17004,752,1160,17060.10,25.61,-1.00,-1.0,2437
4348,2139348,17000,832,1240,17065.46,25.61,-1.00,-1.0,2354
4353,2139353,16980,788,1160,17037.81,25.61,-1.00,-1.0,2433
4356,2139356,16956,856,1272,17025.18,25.61,-1.00,-1.0,2369
4359,2139359,17012,884,1216,17078.30,25.71,-1.00,-1.0,2432
4361,2139361,16864,740,1068,16913.98,25.61,-1.00,-1.0,2375
4364,2139364,16908,832,1400,16986.25,25.71,-1.00,-1.0,2434
4367,2139367,16952,936,1080,17012.14,25.61,-1.00,-1.0,2367
4369,2139369,16992,748,1304,17058.37,25.61,-1.00,-1.0,2359
4372,2139372,17056,872,1156,17117.36,25.66,-1.00,-1.0,2435
4375,2139375,16924,872,1152,16985.56,25.75,-1.00,-1.0,2368
4380,2139380,16960,828,1192,17021.99,25.61,-1.00,-1.0,2434
4383,2139383,16996,872,1188,17059.77,25.71,-1.00,-1.0,2370
4386,2139386,16984,888,1020,17037.76,25.66,-1.00,-1.0,2444
4388,2139388,16960,840,1216,17024.27,25.61,-1.00,-1.0,2370
4391,2139391,17024,860,1080,17079.89,25.71,-1.00,-1.0,2434
4394,2139394,17008,812,1184,17068.49,25.52,-1.00,-1.0,2368
4397,2139397,17020,856,1124,17078.54,25.66,-1.00,-1.0,2431
4399,2139399,16964,840,1228,17029.12,25.52,-1.00,-1.0,2369
4404,2139404,16956,904,1268,17027.36,25.61,-1.00,-1.0,2434
4407,2139407,16912,772,1212,16972.94,25.61,-1.00,-1.0,2370
4409,2139409,17036,924,1288,17109.59,25.66,-1.00,-1.0,2360
4412,2139412,16940,860,1152,17000.89,25.61,-1.00,-1.0,2438
4415,2139415,16968,848,1120,17026.05,25.66,-1.00,-1.0,2367
4418,2139418,16976,992,1236,17049.82,25.61,-1.00,-1.0,2443
4420,2139420,16944,944,1136,17008.26,25.57,-1.00,-1.0,2366
4423,2139423,16960,776,1152,17016.78,25.61,-1.00,-1.0,2445
4426,2139426,17044,824,1284,17112.15,25.71,-1.00,-1.0,2371
4431,2139431,17028,888,1052,17083.56,25.61,-1.00,-1.0,2444
4434,2139434,16984,772,1104,17037.34,25.71,-1.00,-1.0,2371
4437,2139437,17000,788,1112,17054.54,25.66,-1.00,-1.0,2446
4439,2139439,17052,840,1196,17114.52,25.71,-1.00,-1.0,2377
4442,2139442,17052,844,1228,17116.98,25.71,-1.00,-1.0,2433
4445,2139445,16976,844,1172,17037.33,25.61,-1.00,-1.0,2368
4447,2139447,17052,768,1216,17112.54,25.66,-1.00,-1.0,2360
4450,2139450,17020,936,1088,17080.40,25.57,-1.00,-1.0,2445
4453,2139453,16964,836,1144,17023.07,25.71,-1.00,-1.0,2371
4458,2139458,16844,928,1192,16911.61,25.61,-1.00,-1.0,2434
4461,2139461,16976,792,1252,17040.52,25.71,-1.00,-1.0,2368
4464,2139464,16984,904,1156,17047.28,25.61,-1.00,-1.0,2444
4466,2139466,16980,960,1292,17056.12,25.71,-1.00,-1.0,2367
4469,2139469,17008,812,1272,17074.82,25.61,-1.00,-1.0,2439
4472,2139472,17032,856,1248,17099.10,25.61,-1.00,-1.0,2366
4475,2139475,17016,872,1140,17076.42,25.61,-1.00,-1.0,2441
4477,2139477,16976,1032,1196,17049.34,25.61,-1.00,-1.0,2368
4482,2139482,16940,820,1032,16991.21,25.66,-1.00,-1.0,2434
4485,2139485,16972,824,1160,17031.54,25.66,-1.00,-1.0,2369
4488,2139488,17124,832,1244,17189.27,25.71,-1.00,-1.0,2365
4490,2139490,16932,808,1252,16997.44,25.71,-1.00,-1.0,2438
4493,2139493,16908,916,944,16959.09,25.71,-1.00,-1.0,2367
4496,2139496,17000,804,1256,17065.29,25.71,-1.00,-1.0,2432
4499,2139499,17032,848,1148,17091.70,25.71,-1.00,-1.0,2366
4501,2139501,17012,896,1108,17071.57,25.71,-1.00,-1.0,2435
4504,2139504,16880,916,1052,16937.54,25.66,-1.00,-1.0,2375
4509,2139509,17036,880,1232,17103.14,25.57,-1.00,-1.0,2442
4512,2139512,17000,812,1240,17064.49,25.71,-1.00,-1.0,2376
4515,2139515,17020,824,1148,17078.56,25.66,-1.00,-1.0,2437
4517,2139517,16928,872,1268,16997.80,25.66,-1.00,-1.0,2373
4520,2139520,17000,972,1012,17057.81,25.66,-1.00,-1.0,2442
4523,2139523,16984,820,1112,17040.11,25.71,-1.00,-1.0,2382
4526,2139526,17040,856,1084,17095.89,25.66,-1.00,-1.0,2360
4528,2139528,17020,968,972,17075.19,25.61,-1.00,-1.0,2435
4531,2139531,16972,848,1104,17029.00,25.66,-1.00,-1.0,2370
4536,2139536,17008,872,1068,17063.79,25.66,-1.00,-1.0,2441
4539,2139539,16988,936,1116,17050.33,25.66,-1.00,-1.0,2383
4542,2139542,16948,788,1144,17004.83,25.66,-1.00,-1.0,2438
4544,2139544,17000,884,1120,17059.77,25.66,-1.00,-1.0,2374
4547,2139547,16924,852,1128,16982.93,25.61,-1.00,-1.0,2435
4550,2139550,17016,812,1164,17075.08,25.57,-1.00,-1.0,2374
4553,2139553,16964,832,1200,17026.73,25.71,-1.00,-1.0,2434
4555,2139555,17080,888,1100,17138.41,25.66,-1.00,-1.0,2378
4560,2139560,17064,880,1108,17122.56,25.66,-1.00,-1.0,2441
4563,2139563,17076,856,1148,17135.94,25.57,-1.00,-1.0,2371
4566,2139566,16968,800,1212,17030.03,25.66,-1.00,-1.0,2346
4569,2139569,16964,828,1196,17026.25,25.61,-1.00,-1.0,2447
4571,2139571,17000,892,1284,17071.74,25.75,-1.00,-1.0,2374
4574,2139574,17000,1044,1108,17068.03,25.61,-1.00,-1.0,2434
4577,2139577,16896,808,1092,16950.52,25.66,-1.00,-1.0,2369
4580,2139580,16948,952,1156,17014.03,25.61,-1.00,-1.0,2443
4582,2139582,16896,924,1188,16962.90,25.61,-1.00,-1.0,2367
4587,2139587,17028,768,1252,17091.23,25.61,-1.00,-1.0,2434
4590,2139590,16952,848,1156,17012.52,25.66,-1.00,-1.0,2356
4593,2139593,16960,800,1296,17028.25,25.71,-1.00,-1.0,2437
4596,2139596,16940,812,1148,16998.26,25.66,-1.00,-1.0,2369
4598,2139598,16868,844,1176,16930.00,25.71,-1.00,-1.0,2431
4601,2139601,17052,872,1316,17124.92,25.66,-1.00,-1.0,2370
4604,2139604,17048,760,1268,17111.98,25.61,-1.00,-1.0,2360
4606,2139606,17096,860,1096,17152.67,25.66,-1.00,-1.0,2434
4609,2139609,16976,924,1152,17040.11,25.71,-1.00,-1.0,2367
4614,2139614,16964,844,1136,17022.93,25.66,-1.00,-1.0,2434
4617,2139617,17028,776,1128,17082.96,25.71,-1.00,-1.0,2369
4620,2139620,16952,912,1120,17013.42,25.66,-1.00,-1.0,2445
4622,2139622,17004,812,1096,17058.62,25.66,-1.00,-1.0,2367
4625,2139625,17028,812,1188,17088.69,25.66,-1.00,-1.0,2442
4628,2139628,16996,856,1380,17073.40,25.71,-1.00,-1.0,2366
4631,2139631,16992,884,1176,17055.57,25.66,-1.00,-1.0,2439
4633,2139633,17040,936,1248,17111.26,25.66,-1.00,-1.0,2367
4638,2139638,16968,824,1144,17026.47,25.71,-1.00,-1.0,2442
4641,2139641,17044,904,1264,17114.70,25.66,-1.00,-1.0,2377
4644,2139644,16972,840,1180,17033.70,25.61,-1.00,-1.0,2360
4646,2139646,16992,808,1196,17053.19,25.66,-1.00,-1.0,2439
4649,2139649,16944,744,1324,17011.93,25.61,-1.00,-1.0,2367
4652,2139652,16928,840,1168,16989.03,25.71,-1.00,-1.0,2433
4655,2139655,16924,956,1172,16991.45,25.71,-1.00,-1.0,2366
4657,2139657,17012,932,1208,17080.28,25.61,-1.00,-1.0,2444
4660,2139660,17004,860,1172,17066.03,25.66,-1.00,-1.0,2368
4666,2139666,17016,868,1156,17077.29,25.66,-1.00,-1.0,2434
4668,2139668,16916,880,1204,16981.61,25.61,-1.00,-1.0,2368
4671,2139671,17028,876,1256,17096.72,25.66,-1.00,-1.0,2438
4674,2139674,16956,832,1160,17015.99,25.61,-1.00,-1.0,2370
4677,2139677,16996,832,1072,17050.09,25.66,-1.00,-1.0,2441
4679,2139679,17044,872,1100,17101.71,25.61,-1.00,-1.0,2354
4682,2139682,16940,936,1164,17005.72,25.61,-1.00,-1.0,2360
4685,2139685,16888,836,1272,16956.46,25.66,-1.00,-1.0,2441
4687,2139687,16924,760,1244,16986.67,25.61,-1.00,-1.0,2369
4692,2139692,17048,792,1348,17119.54,25.66,-1.00,-1.0,2438
4695,2139695,17004,820,1088,17058.49,25.66,-1.00,-1.0,2370
4698,2139698,16924,896,1004,16977.41,25.61,-1.00,-1.0,2436
4701,2139701,16972,808,1208,17034.11,25.66,-1.00,-1.0,2369
4703,2139703,16948,756,1024,16995.73,25.71,-1.00,-1.0,2432
4706,2139706,16964,852,1220,17029.14,25.66,-1.00,-1.0,2355
4709,2139709,17000,836,1116,17057.09,25.66,-1.00,-1.0,2433
4712,2139712,17096,772,1312,17163.64,25.66,-1.00,-1.0,2368
4714,2139714,16896,860,1232,16962.67,25.61,-1.00,-1.0,2366
4719,2139719,16916,876,1192,16980.56,25.71,-1.00,-1.0,2433
4722,2139722,16980,868,1004,17031.79,25.57,-1.00,-1.0,2371
4725,2139725,16984,916,1080,17042.94,25.61,-1.00,-1.0,2435
4728,2139728,16996,868,1208,17060.97,25.66,-1.00,-1.0,2375
4730,2139730,17008,776,1148,17064.35,25.61,-1.00,-1.0,2434
4733,2139733,16980,876,1068,17036.09,25.66,-1.00,-1.0,2371
4736,2139736,16936,908,1244,17005.88,25.61,-1.00,-1.0,2431
4739,2139739,16940,792,1196,17000.62,25.57,-1.00,-1.0,2368
4744,2139744,16904,788,1276,16970.40,25.71,-1.00,-1.0,2470
4746,2139746,16948,848,1048,17001.53,25.61,-1.00,-1.0,2371
4749,2139749,16940,788,1252,17004.47,25.66,-1.00,-1.0,2451
4752,2139752,16988,824,1148,17046.67,25.71,-1.00,-1.0,2381
4755,2139755,16956,988,1360,17039.12,25.66,-1.00,-1.0,2361
4757,2139757,17028,896,1084,17085.98,25.66,-1.00,-1.0,2438
4760,2139760,16916,848,1228,16981.70,25.75,-1.00,-1.0,2366
4763,2139763,16964,872,1148,17025.15,25.57,-1.00,-1.0,2438
4766,2139766,16984,804,1212,17046.16,25.66,-1.00,-1.0,2366
4770,2139770,17036,844,1120,17093.62,25.66,-1.00,-1.0,2445
4773,2139773,16972,848,1176,17033.81,25.66,-1.00,-1.0,2423
4776,2139776,17088,924,1148,17151.43,25.66,-1.00,-1.0,2451
4779,2139779,16944,740,1156,16999.50,25.61,-1.00,-1.0,2372
4782,2139782,16944,908,1220,17012.11,25.71,-1.00,-1.0,2438
4784,2139784,16992,864,1256,17060.25,25.61,-1.00,-1.0,2373
4787,2139787,16956,816,1200,17017.98,25.66,-1.00,-1.0,2439
4790,2139790,17020,912,1336,17096.70,25.61,-1.00,-1.0,2372
4793,2139793,16948,764,1244,17010.76,25.66,-1.00,-1.0,2359
4798,2139798,16972,856,1336,17046.01,25.57,-1.00,-1.0,2439
4800,2139800,16992,876,1128,17051.92,25.66,-1.00,-1.0,2381
4803,2139803,16968,836,1188,17030.07,25.75,-1.00,-1.0,2443
4806,2139806,16976,784,1128,17031.49,25.61,-1.00,-1.0,2369
4809,2139809,17016,840,1164,17076.44,25.66,-1.00,-1.0,2444
4811,2139811,17000,900,1064,17057.03,25.66,-1.00,-1.0,2377
4814,2139814,17012,836,1136,17070.37,25.66,-1.00,-1.0,2440
4817,2139817,16952,780,1208,17012.88,25.61,-1.00,-1.0,2369
4822,2139822,17060,844,1256,17126.98,25.75,-1.00,-1.0,2439
4824,2139824,17004,832,1208,17067.15,25.66,-1.00,-1.0,2380
4827,2139827,16900,924,1100,16960.95,25.71,-1.00,-1.0,2437
4830,2139830,16880,828,1224,16944.56,25.66,-1.00,-1.0,2366
4832,2139832,17040,928,1232,17109.66,25.61,-1.00,-1.0,2360
4835,2139835,16960,888,1088,17018.05,25.52,-1.00,-1.0,2432
4838,2139838,16992,912,1200,17058.72,25.71,-1.00,-1.0,2367
4841,2139841,16996,900,1156,17059.03,25.71,-1.00,-1.0,2439
4844,2139844,16980,892,1208,17046.27,25.71,-1.00,-1.0,2366
4848,2139848,16992,948,1240,17063.54,25.75,-1.00,-1.0,2436
4851,2139851,16984,940,1252,17056.01,25.61,-1.00,-1.0,2370
4854,2139854,16980,852,1184,17042.54,25.66,-1.00,-1.0,2442
4857,2139857,16948,828,1224,17012.30,25.71,-1.00,-1.0,2374
4859,2139859,17020,836,1184,17081.60,25.75,-1.00,-1.0,2435
4862,2139862,16968,784,1152,17025.12,25.71,-1.00,-1.0,2367
4865,2139865,16912,928,1208,16980.46,25.75,-1.00,-1.0,2432
4868,2139868,16932,796,1128,16988.19,25.71,-1.00,-1.0,2374
4871,2139871,16984,800,968,17030.36,25.71,-1.00,-1.0,2367
4876,2139876,17044,868,1192,17107.67,25.61,-1.00,-1.0,2435
4878,2139878,16980,876,1220,17046.29,25.71,-1.00,-1.0,2357
4881,2139881,16976,844,1192,17038.71,25.71,-1.00,-1.0,2436
4884,2139884,16884,912,1236,16953.73,25.71,-1.00,-1.0,2369
4887,2139887,17028,824,1192,17089.55,25.61,-1.00,-1.0,2433
4889,2139889,17012,828,1152,17071.05,25.61,-1.00,-1.0,2369
4892,2139892,16924,856,1256,16992.12,25.61,-1.00,-1.0,2433
4895,2139895,16912,952,1168,16978.99,25.71,-1.00,-1.0,2367
4900,2139900,16972,824,1248,17037.76,25.71,-1.00,-1.0,2438
4902,2139902,16940,848,1216,17004.75,25.75,-1.00,-1.0,2370
4905,2139905,17008,936,1120,17070.52,25.61,-1.00,-1.0,2448
4908,2139908,16952,872,1104,17010.28,25.57,-1.00,-1.0,2374
4911,2139911,16960,872,1172,17022.79,25.61,-1.00,-1.0,2360
4913,2139913,16996,880,1172,17059.07,25.61,-1.00,-1.0,2435
4916,2139916,16988,772,1268,17052.74,25.71,-1.00,-1.0,2370
4919,2139919,16972,904,1172,17036.42,25.71,-1.00,-1.0,2432
4922,2139922,17004,928,1228,17073.52,25.66,-1.00,-1.0,2377
4927,2139927,17004,920,1352,17082.46,25.66,-1.00,-1.0,2438
4929,2139929,17080,764,1268,17144.04,25.66,-1.00,-1.0,2370
4932,2139932,17024,1020,1244,17099.84,25.66,-1.00,-1.0,2441
4935,2139935,16980,920,1212,17048.04,25.66,-1.00,-1.0,2367
4938,2139938,17008,848,1104,17064.88,25.66,-1.00,-1.0,2443
4941,2139941,16984,760,1332,17053.10,25.71,-1.00,-1.0,2434
4943,2139943,16996,876,1156,17057.78,25.66,-1.00,-1.0,2433
4946,2139946,16936,856,1276,17005.56,25.75,-1.00,-1.0,2370
4949,2139949,16916,748,1124,16969.79,25.61,-1.00,-1.0,2366
4954,2139954,16916,884,1244,16984.70,25.61,-1.00,-1.0,2440
4956,2139956,17032,908,1124,17093.18,25.57,-1.00,-1.0,2370
4959,2139959,17012,800,1068,17064.25,25.61,-1.00,-1.0,2443
4962,2139962,16992,736,1144,17046.36,25.66,-1.00,-1.0,2365
4965,2139965,16972,896,1188,17037.11,25.61,-1.00,-1.0,2437
4967,2139967,16980,892,1224,17047.41,25.66,-1.00,-1.0,2354
4970,2139970,16932,896,1288,17004.54,25.71,-1.00,-1.0,2432
4973,2139973,17068,820,1188,17128.93,25.66,-1.00,-1.0,2365
4978,2139978,16964,776,1132,17019.43,25.57,-1.00,-1.0,2434
4981,2139981,16968,908,1280,17040.42,25.61,-1.00,-1.0,2368
4983,2139983,17084,880,1232,17150.96,25.66,-1.00,-1.0,2434
4986,2139986,17036,936,1188,17103.00,25.57,-1.00,-1.0,2365
4989,2139989,16896,984,1216,16968.26,25.66,-1.00,-1.0,2358
4991,2139991,16992,836,1136,17050.44,25.61,-1.00,-1.0,2433
4994,2139994,16904,952,1168,16971.03,25.66,-1.00,-1.0,2366
4997,2139997,16968,752,1168,17024.77,25.66,-1.00,-1.0,2430
5000,2140000,16924,872,1212,16989.73,25.61,-1.00,-1.0,2365
5005,2140005,17040,828,1344,17112.96,25.61,-1.00,-1.0,2442
5007,2140007,17032,852,1364,17107.76,25.71,-1.00,-1.0,2369
5010,2140010,17020,884,1192,17084.58,25.61,-1.00,-1.0,2444
5013,2140013,16920,848,1216,16984.82,25.61,-1.00,-1.0,2371
5016,2140016,16920,840,980,16969.16,25.71,-1.00,-1.0,2434
5018,2140018,17024,832,1288,17092.91,25.61,-1.00,-1.0,2367
5021,2140021,16964,772,1136,17019.51,25.71,-1.00,-1.0,2444
5024,2140024,16936,840,1220,17000.65,25.61,-1.00,-1.0,2365
5027,2140027,16940,824,1080,16994.38,25.66,-1.00,-1.0,2361
5032,2140032,17028,868,1228,17094.27,25.71,-1.00,-1.0,2451
5035,2140035,16916,772,1156,16973.02,25.71,-1.00,-1.0,2365
5038,2140038,16944,900,1168,17008.04,25.71,-1.00,-1.0,2451
5041,2140041,17020,816,1260,17086.07,25.71,-1.00,-1.0,2367
5043,2140043,17028,780,1088,17080.54,25.71,-1.00,-1.0,2438
5046,2140046,17000,852,1128,17058.67,25.61,-1.00,-1.0,2363
5049,2140049,17052,880,1380,17130.37,25.61,-1.00,-1.0,2440
5052,2140052,17052,736,1180,17108.62,25.71,-1.00,-1.0,2373
5057,2140057,16932,856,1244,16999.20,25.71,-1.00,-1.0,2438
5059,2140059,16920,844,1124,16978.28,25.66,-1.00,-1.0,2377
5062,2140062,16984,820,1128,17041.16,25.66,-1.00,-1.0,2363
5065,2140065,17020,800,1184,17079.88,25.61,-1.00,-1.0,2433
5067,2140067,16956,912,1148,17019.27,25.66,-1.00,-1.0,2363
5070,2140070,16976,788,1124,17031.41,25.61,-1.00,-1.0,2434
5073,2140073,17016,824,1268,17083.06,25.57,-1.00,-1.0,2363
5076,2140076,16920,848,1044,16973.38,25.66,-1.00,-1.0,2426
5078,2140078,16872,888,1172,16935.95,25.71,-1.00,-1.0,2419
5083,2140083,16940,904,1120,17001.04,25.71,-1.00,-1.0,2443
5086,2140086,17012,864,1108,17069.92,25.61,-1.00,-1.0,2367
5089,2140089,17068,848,1284,17137.22,25.57,-1.00,-1.0,2448
5092,2140092,17016,836,1244,17081.88,25.61,-1.00,-1.0,2368
5094,2140094,17008,892,1120,17068.16,25.71,-1.00,-1.0,2439
5097,2140097,16992,864,1204,17056.50,25.61,-1.00,-1.0,2363
5100,2140100,16996,840,1144,17055.16,25.66,-1.00,-1.0,2364
5103,2140103,16876,748,1288,16941.60,25.66,-1.00,-1.0,2439
5105,2140105,17044,852,1268,17112.32,25.66,-1.00,-1.0,2372
5110,2140110,17036,868,1212,17101.10,25.71,-1.00,-1.0,2437
5113,2140113,16988,800,1172,17047.16,25.80,-1.00,-1.0,2350
5116,2140116,17060,836,1192,17122.01,25.61,-1.00,-1.0,2433
5119,2140119,16992,912,1148,17055.14,25.61,-1.00,-1.0,2366
5121,2140121,16964,848,1184,17026.40,25.71,-1.00,-1.0,2426
5124,2140124,17008,892,1208,17074.16,25.71,-1.00,-1.0,2366
5127,2140127,17040,820,1168,17099.66,25.71,-1.00,-1.0,2429
5130,2140130,16940,868,1092,16997.34,25.61,-1.00,-1.0,2368
5134,2140134,16980,852,1172,17041.71,25.75,-1.00,-1.0,2443
5137,2140137,16988,872,1120,17047.20,25.66,-1.00,-1.0,2369
5140,2140140,16984,864,1096,17041.24,25.52,-1.00,-1.0,2362
5143,2140143,16960,812,1252,17025.52,25.61,-1.00,-1.0,2434
5145,2140145,16952,896,1080,17009.98,25.61,-1.00,-1.0,2364
5148,2140148,17080,836,1100,17135.79,25.80,-1.00,-1.0,2434
5151,2140151,17008,896,1260,17078.13,25.75,-1.00,-1.0,2361
5154,2140154,17028,804,1276,17094.66,25.71,-1.00,-1.0,2442
5156,2140156,16988,868,1112,17046.47,25.66,-1.00,-1.0,2372
5161,2140161,16932,724,1236,16992.48,25.57,-1.00,-1.0,2441
5164,2140164,17024,876,1276,17094.21,25.66,-1.00,-1.0,2364
5167,2140167,16896,888,1064,16952.74,25.66,-1.00,-1.0,2442
5169,2140169,16956,804,1104,17010.91,25.61,-1.00,-1.0,2364
5172,2140172,17044,836,1264,17111.24,25.57,-1.00,-1.0,2448
5175,2140175,16912,884,1196,16977.27,25.66,-1.00,-1.0,2361
5177,2140177,16964,888,1312,17037.82,25.66,-1.00,-1.0,2369
5180,2140180,17008,872,1180,17071.17,25.71,-1.00,-1.0,2436
5183,2140183,16984,932,1200,17051.83,25.66,-1.00,-1.0,2373
5188,2140188,16996,764,1036,17044.68,25.66,-1.00,-1.0,2437
5191,2140191,16944,908,1264,17015.33,25.66,-1.00,-1.0,2375
5193,2140193,16960,884,1148,17021.78,25.66,-1.00,-1.0,2429
5196,2140196,17060,832,1108,17116.18,25.66,-1.00,-1.0,2369
5199,2140199,16936,928,1244,17006.96,25.66,-1.00,-1.0,2427
5202,2140202,17080,812,1180,17139.96,25.57,-1.00,-1.0,2366
5204,2140204,17148,900,1200,17213.48,25.66,-1.00,-1.0,2428
5207,2140207,16952,824,1180,17012.99,25.71,-1.00,-1.0,2367
5212,2140212,17028,836,1232,17092.97,25.61,-1.00,-1.0,2444
5215,2140215,16988,812,1272,17054.90,25.61,-1.00,-1.0,2366
5217,2140217,17056,776,1156,17112.73,25.61,-1.00,-1.0,2359
5220,2140220,16996,788,1060,17047.24,25.66,-1.00,-1.0,2428
5223,2140223,16940,876,1148,17001.44,25.71,-1.00,-1.0,2368
5226,2140226,17020,840,1156,17079.88,25.66,-1.00,-1.0,2431
5228,2140228,17048,864,1204,17112.29,25.71,-1.00,-1.0,2364
5231,2140231,16964,948,1116,17027.08,25.75,-1.00,-1.0,2434
5234,2140234,17012,928,1132,17074.86,25.71,-1.00,-1.0,2370
5239,2140239,17092,856,1256,17159.45,25.61,-1.00,-1.0,2438
5241,2140241,16956,836,1236,17021.53,25.61,-1.00,-1.0,2364
5244,2140244,16960,864,1116,17018.62,25.61,-1.00,-1.0,2435
5247,2140247,16992,848,1136,17051.03,25.71,-1.00,-1.0,2370
5250,2140250,17016,808,1132,17072.74,25.66,-1.00,-1.0,2433
5252,2140252,17032,832,1176,17092.81,25.61,-1.00,-1.0,2372
5255,2140255,17036,836,1168,17096.45,25.75,-1.00,-1.0,2359
5258,2140258,16888,804,1016,16937.63,25.66,-1.00,-1.0,2427
5261,2140261,17008,864,1096,17065.16,25.61,-1.00,-1.0,2354
5266,2140266,17052,852,1052,17105.65,25.66,-1.00,-1.0,2437
5269,2140269,17016,860,1172,17077.98,25.57,-1.00,-1.0,2370
5271,2140271,17020,888,1188,17084.50,25.57,-1.00,-1.0,2428
5274,2140274,16960,900,1144,17022.35,25.66,-1.00,-1.0,2370
5277,2140277,16968,776,1088,17020.54,25.57,-1.00,-1.0,2427
5279,2140279,17068,892,1112,17127.43,25.61,-1.00,-1.0,2363
5282,2140282,17008,836,1216,17071.89,25.61,-1.00,-1.0,2438
5285,2140285,16936,704,1364,17005.42,25.66,-1.00,-1.0,2362
5290,2140290,17076,944,1112,17138.19,25.57,-1.00,-1.0,2447
5293,2140293,17052,864,1108,17109.79,25.61,-1.00,-1.0,2366
5295,2140295,16948,792,1156,17005.83,25.71,-1.00,-1.0,2362
5298,2140298,17036,832,1268,17103.37,25.66,-1.00,-1.0,2427
5301,2140301,17036,908,1168,17100.12,25.66,-1.00,-1.0,2354
5304,2140304,17004,888,1192,17068.84,25.66,-1.00,-1.0,2435
5306,2140306,16872,816,1228,16936.30,25.71,-1.00,-1.0,2373
5309,2140309,16984,892,1252,17053.43,25.71,-1.00,-1.0,2427
5312,2140312,16964,896,1204,17030.26,25.66,-1.00,-1.0,2367
5317,2140317,17036,812,1212,17098.35,25.66,-1.00,-1.0,2444
5320,2140320,16944,848,1260,17011.93,25.66,-1.00,-1.0,2365
5323,2140323,17032,924,1136,17094.83,25.66,-1.00,-1.0,2441
5325,2140325,16932,768,1112,16985.85,25.71,-1.00,-1.0,2371
5328,2140328,16964,876,1156,17025.89,25.66,-1.00,-1.0,2434
5331,2140331,16996,812,1244,17060.80,25.66,-1.00,-1.0,2367
5333,2140333,16904,876,1172,16967.21,25.57,-1.00,-1.0,2361
5336,2140336,17020,928,1068,17078.71,25.71,-1.00,-1.0,2427
5339,2140339,16944,936,1308,17020.17,25.61,-1.00,-1.0,2367
5344,2140344,16976,912,1112,17036.81,25.75,-1.00,-1.0,2438
5347,2140347,16948,804,1212,17010.29,25.66,-1.00,-1.0,2366
5350,2140350,16976,812,1332,17047.53,25.71,-1.00,-1.0,2433
5352,2140352,16928,820,1060,16980.96,25.66,-1.00,-1.0,2369
5355,2140355,16964,820,1320,17035.03,25.61,-1.00,-1.0,2433
5358,2140358,16848,820,1304,16918.27,25.75,-1.00,-1.0,2347
5361,2140361,16908,852,1104,16965.41,25.66,-1.00,-1.0,2442
5363,2140363,17068,980,1272,17143.37,25.66,-1.00,-1.0,2370
5368,2140368,17008,896,1124,17068.63,25.66,-1.00,-1.0,2447
5371,2140371,16988,820,1216,17051.19,25.66,-1.00,-1.0,2372
5374,2140374,16940,876,1188,17004.19,25.57,-1.00,-1.0,2363
5376,2140376,16944,840,1184,17006.07,25.71,-1.00,-1.0,2429
5379,2140379,16992,840,1188,17054.18,25.66,-1.00,-1.0,2369
5382,2140382,16928,936,1260,17000.61,25.61,-1.00,-1.0,2435
5384,2140384,17016,896,1072,17073.26,25.66,-1.00,-1.0,2368
5387,2140387,16936,820,1240,17001.12,25.75,-1.00,-1.0,2423
5390,2140390,16984,804,1288,17051.73,25.71,-1.00,-1.0,2362
5395,2140395,16992,832,1228,17056.62,25.61,-1.00,-1.0,2440
5398,2140398,16988,896,1228,17055.88,25.61,-1.00,-1.0,2365
5401,2140401,17000,824,1124,17057.03,25.61,-1.00,-1.0,2440
5403,2140403,16928,752,1100,16980.36,25.61,-1.00,-1.0,2362
5406,2140406,17044,888,1140,17105.15,25.71,-1.00,-1.0,2433
5409,2140409,16984,868,1444,17067.36,25.71,-1.00,-1.0,2362
5411,2140411,16940,816,1272,17007.28,25.61,-1.00,-1.0,2346
5414,2140414,17016,812,1152,17074.27,25.66,-1.00,-1.0,2443
5417,2140417,16988,836,1112,17044.87,25.61,-1.00,-1.0,2369
5422,2140422,16956,844,1200,17019.35,25.71,-1.00,-1.0,2440
5425,2140425,17012,928,1092,17072.25,25.61,-1.00,-1.0,2365
5428,2140428,17036,784,1296,17103.20,25.66,-1.00,-1.0,2435
5430,2140430,16992,756,1152,17047.78,25.71,-1.00,-1.0,2363
5433,2140433,16968,864,1204,17032.59,25.52,-1.00,-1.0,2433
5436,2140436,17060,792,1216,17121.61,25.71,-1.00,-1.0,2361
5439,2140439,16928,840,1084,16983.46,25.61,-1.00,-1.0,2442
5441,2140441,17020,888,1140,17081.23,25.61,-1.00,-1.0,2363
5444,2140444,16996,868,1120,17054.96,25.66,-1.00,-1.0,2364
5449,2140449,16940,808,1316,17010.24,25.61,-1.00,-1.0,2447
5452,2140452,16984,848,1232,17049.73,25.66,-1.00,-1.0,2369
5455,2140455,16880,984,1260,16955.54,25.61,-1.00,-1.0,2442
5457,2140457,17004,872,1236,17071.15,25.52,-1.00,-1.0,2369
5460,2140460,16924,892,1236,16992.50,25.71,-1.00,-1.0,2440
5463,2140463,17072,872,1280,17142.11,25.66,-1.00,-1.0,2369
5466,2140466,16904,832,1164,16964.44,25.61,-1.00,-1.0,2443
5468,2140468,17000,864,1232,17066.47,25.61,-1.00,-1.0,2372
5473,2140473,17044,852,1080,17099.42,25.52,-1.00,-1.0,2436
5476,2140476,17036,860,1084,17092.10,25.61,-1.00,-1.0,2366
5479,2140479,16988,836,1284,17056.96,25.61,-1.00,-1.0,2435
5481,2140481,16856,784,1216,16917.98,25.71,-1.00,-1.0,2369
5484,2140484,17060,884,1140,17120.88,25.75,-1.00,-1.0,2361
5487,2140487,16956,864,1284,17026.48,25.57,-1.00,-1.0,2438
5489,2140489,17024,884,1228,17091.11,25.71,-1.00,-1.0,2360
5492,2140492,16948,888,1268,17018.55,25.71,-1.00,-1.0,2435
5495,2140495,17036,900,1288,17108.31,25.71,-1.00,-1.0,2369
5500,2140500,17032,896,1104,17091.24,25.71,-1.00,-1.0,2446
5503,2140503,16964,848,1228,17029.52,25.61,-1.00,-1.0,2372
5506,2140506,17112,908,1156,17175.02,25.61,-1.00,-1.0,2423
5508,2140508,17040,888,1112,17099.32,25.66,-1.00,-1.0,2362
5511,2140511,17064,800,1180,17123.45,25.71,-1.00,-1.0,2444
5514,2140514,16976,752,1132,17030.31,25.66,-1.00,-1.0,2361
5517,2140517,16976,908,1152,17039.25,25.71,-1.00,-1.0,2441
5519,2140519,16980,928,1088,17040.11,25.66,-1.00,-1.0,2361
5522,2140522,16984,776,1112,17038.04,25.71,-1.00,-1.0,2368
5527,2140527,17048,788,1200,17108.34,25.61,-1.00,-1.0,2438
5530,2140530,16960,796,1188,17020.18,25.66,-1.00,-1.0,2365
5533,2140533,16940,836,1072,16994.46,25.71,-1.00,-1.0,2449
5536,2140536,16956,796,992,17003.63,25.57,-1.00,-1.0,2369
5538,2140538,16924,852,1028,16976.59,25.61,-1.00,-1.0,2433
5541,2140541,17040,844,1204,17103.32,25.66,-1.00,-1.0,2361
5544,2140544,16900,888,1080,16957.74,25.71,-1.00,-1.0,2433
5547,2140547,16960,1028,1188,17032.61,25.66,-1.00,-1.0,2374
5552,2140552,16956,864,1208,17020.92,25.66,-1.00,-1.0,2438
5554,2140554,16992,808,1232,17055.75,25.66,-1.00,-1.0,2366
5557,2140557,16956,888,1112,17015.61,25.75,-1.00,-1.0,2434
5560,2140560,16920,840,1152,16979.96,25.66,-1.00,-1.0,2363
5562,2140562,16964,884,1164,17026.85,25.66,-1.00,-1.0,2361
5565,2140565,17032,824,1296,17101.10,25.71,-1.00,-1.0,2428
5568,2140568,17064,824,1184,17124.86,25.57,-1.00,-1.0,2367
5571,2140571,16980,780,1156,17037.17,25.71,-1.00,-1.0,2440
5573,2140573,16976,840,1188,17038.24,25.66,-1.00,-1.0,2361
5578,2140578,17060,868,1008,17111.78,25.66,-1.00,-1.0,2442
5581,2140581,17016,860,1200,17079.93,25.61,-1.00,-1.0,2366
5584,2140584,17020,884,1156,17082.10,25.57,-1.00,-1.0,2435
5586,2140586,16976,900,1212,17042.99,25.66,-1.00,-1.0,2370
5589,2140589,16984,888,1220,17050.90,25.66,-1.00,-1.0,2437
5592,2140592,16904,844,1088,16959.99,25.71,-1.00,-1.0,2376
5595,2140595,16964,840,1072,17018.58,25.66,-1.00,-1.0,2434
5597,2140597,16992,860,1240,17058.88,25.71,-1.00,-1.0,2372
5600,2140600,16992,900,1208,17058.64,25.57,-1.00,-1.0,2359
5605,2140605,17020,904,1316,17094.72,25.66,-1.00,-1.0,2442
5608,2140608,16988,724,1284,17051.83,25.61,-1.00,-1.0,2352
5611,2140611,16968,880,1116,17027.42,25.66,-1.00,-1.0,2432
5613,2140613,17048,948,1276,17121.95,25.66,-1.00,-1.0,2365
5616,2140616,16940,872,1160,17002.05,25.66,-1.00,-1.0,2437
5619,2140619,16948,824,1236,17012.98,25.71,-1.00,-1.0,2376
5622,2140622,17028,832,1108,17084.28,25.66,-1.00,-1.0,2436
5624,2140624,16988,880,1268,17057.97,25.66,-1.00,-1.0,2369
5629,2140629,17000,976,1216,17071.36,25.61,-1.00,-1.0,2440
5632,2140632,17028,780,1108,17081.83,25.71,-1.00,-1.0,2366
5635,2140635,16972,820,1104,17027.62,25.61,-1.00,-1.0,2441
5638,2140638,16948,864,1120,17006.93,25.66,-1.00,-1.0,2426
5640,2140640,16964,836,1092,17019.65,25.71,-1.00,-1.0,2363
5643,2140643,16916,940,1276,16990.08,25.66,-1.00,-1.0,2440
5646,2140646,16948,748,1176,17005.21,25.61,-1.00,-1.0,2372
5649,2140649,16912,872,1252,16980.68,25.66,-1.00,-1.0,2435
5651,2140651,16944,860,1196,17007.91,25.52,-1.00,-1.0,2371
5656,2140656,16940,776,1212,17001.02,25.66,-1.00,-1.0,2449
5659,2140659,16944,956,1124,17008.13,25.61,-1.00,-1.0,2376
5662,2140662,17056,824,1152,17114.71,25.57,-1.00,-1.0,2434
5664,2140664,17016,808,1220,17078.80,25.66,-1.00,-1.0,2371
5667,2140667,17048,796,1200,17108.71,25.57,-1.00,-1.0,2443
5670,2140670,16996,836,1176,17057.14,25.66,-1.00,-1.0,2374
5673,2140673,16912,852,1104,16969.40,25.66,-1.00,-1.0,2438
5675,2140675,16868,876,1260,16937.66,25.57,-1.00,-1.0,2371
5678,2140678,16956,828,1128,17013.64,25.66,-1.00,-1.0,2360
5683,2140683,17012,884,1292,17083.88,25.57,-1.00,-1.0,2447
5686,2140686,16968,772,1336,17038.01,25.75,-1.00,-1.0,2375
5689,2140689,17012,812,956,17058.18,25.71,-1.00,-1.0,2433
5691,2140691,16976,848,1304,17047.11,25.66,-1.00,-1.0,2371
5694,2140694,17048,780,1288,17114.37,25.61,-1.00,-1.0,2443
5697,2140697,17056,820,1216,17118.94,25.57,-1.00,-1.0,2373
5700,2140700,16984,924,1024,17039.91,25.71,-1.00,-1.0,2421
5702,2140702,16988,824,1212,17051.10,25.75,-1.00,-1.0,2370
5707,2140707,17020,816,1148,17078.18,25.66,-1.00,-1.0,2440
5710,2140710,16940,856,1156,17000.96,25.66,-1.00,-1.0,2371
5713,2140713,17032,856,1284,17101.77,25.57,-1.00,-1.0,2449
5716,2140716,16932,856,1264,17000.68,25.66,-1.00,-1.0,2374
5718,2140718,17076,704,1092,17125.36,25.66,-1.00,-1.0,2368
5721,2140721,16984,792,1264,17049.38,25.61,-1.00,-1.0,2441
5724,2140724,16992,904,1248,17061.73,25.71,-1.00,-1.0,2425
5727,2140727,16928,848,1324,17000.86,25.61,-1.00,-1.0,2435
5729,2140729,16984,892,1260,17054.02,25.71,-1.00,-1.0,2377
5734,2140734,16968,920,1312,17043.50,25.61,-1.00,-1.0,2445
5737,2140737,16988,812,1292,17056.40,25.66,-1.00,-1.0,2372
5740,2140740,16936,972,1108,17000.02,25.61,-1.00,-1.0,2426
5743,2140743,16912,832,1260,16979.27,25.66,-1.00,-1.0,2376
5746,2140746,17104,868,1184,17166.89,25.71,-1.00,-1.0,2442
5748,2140748,16976,884,1192,17040.74,25.66,-1.00,-1.0,2369
5751,2140751,16956,920,1124,17018.10,25.61,-1.00,-1.0,2448
5754,2140754,16948,728,1264,17010.65,25.66,-1.00,-1.0,2373
5756,2140756,16932,912,1204,16999.23,25.71,-1.00,-1.0,2360
5761,2140761,17088,848,1264,17155.66,25.71,-1.00,-1.0,2447
5764,2140764,17036,832,1256,17102.49,25.71,-1.00,-1.0,2377
5767,2140767,17064,884,1344,17139.66,25.61,-1.00,-1.0,2443
5770,2140770,17016,796,1024,17065.36,25.61,-1.00,-1.0,2374
5773,2140773,16964,856,1188,17027.08,25.71,-1.00,-1.0,2448
5775,2140775,16972,844,1244,17038.45,25.71,-1.00,-1.0,2376
5778,2140778,16948,848,1100,17004.82,25.61,-1.00,-1.0,2442
5781,2140781,16976,884,1132,17036.65,25.61,-1.00,-1.0,2369
5786,2140786,17044,884,1124,17103.88,25.61,-1.00,-1.0,2448
5788,2140788,17016,944,1124,17079.19,25.75,-1.00,-1.0,2369
5791,2140791,16912,804,1136,16969.17,25.61,-1.00,-1.0,2369
5794,2140794,17036,720,1204,17093.66,25.71,-1.00,-1.0,2436
5796,2140796,16952,852,1068,17006.96,25.61,-1.00,-1.0,2372
5799,2140799,16960,872,1220,17026.17,25.71,-1.00,-1.0,2437
5802,2140802,17012,788,1228,17074.46,25.71,-1.00,-1.0,2381
5805,2140805,17020,812,1228,17083.55,25.61,-1.00,-1.0,2436
5808,2140808,17008,848,1136,17066.98,25.66,-1.00,-1.0,2366
5813,2140813,17076,832,1116,17132.64,25.57,-1.00,-1.0,2442
5815,2140815,16880,828,1124,16937.63,25.61,-1.00,-1.0,2377
5818,2140818,16992,828,1032,17043.44,25.66,-1.00,-1.0,2435
5821,2140821,16936,824,1104,16991.94,25.61,-1.00,-1.0,2370
5824,2140824,16964,856,1152,17024.60,25.66,-1.00,-1.0,2435
5826,2140826,16908,872,1120,16967.48,25.75,-1.00,-1.0,2375
5829,2140829,16944,812,1168,17003.61,25.66,-1.00,-1.0,2360
5832,2140832,16900,828,1160,16959.99,25.71,-1.00,-1.0,2440
5835,2140835,16992,916,1200,17058.93,25.57,-1.00,-1.0,2366
5840,2140840,16904,928,1000,16958.96,25.57,-1.00,-1.0,2439
5842,2140842,16936,812,1120,16992.41,25.66,-1.00,-1.0,2372
5845,2140845,16952,900,1200,17018.23,25.66,-1.00,-1.0,2434
5848,2140848,16932,864,1184,16995.32,25.61,-1.00,-1.0,2367
5851,2140851,16952,916,1168,17016.86,25.66,-1.00,-1.0,2435
5853,2140853,16984,812,1116,17039.98,25.57,-1.00,-1.0,2370
5856,2140856,16888,836,1184,16950.08,25.66,-1.00,-1.0,2434
5859,2140859,16956,976,980,17012.32,25.61,-1.00,-1.0,2368
5866,2140866,16984,868,1244,17051.61,25.66,-1.00,-1.0,2439
5868,2140868,16948,768,1268,17012.71,25.66,-1.00,-1.0,2372
5871,2140871,17016,900,1268,17086.90,25.61,-1.00,-1.0,2361
5874,2140874,17000,860,1296,17071.01,25.61,-1.00,-1.0,2443
5876,2140876,17008,788,1216,17069.61,25.71,-1.00,-1.0,2366
5879,2140879,16964,908,1184,17029.49,25.61,-1.00,-1.0,2434
5882,2140882,16924,776,1332,16994.06,25.71,-1.00,-1.0,2367
5885,2140885,16972,872,1124,17031.52,25.61,-1.00,-1.0,2436
5887,2140887,17020,744,1128,17073.56,25.61,-1.00,-1.0,2365
5892,2140892,17108,864,1064,17162.82,25.75,-1.00,-1.0,2448
5895,2140895,16900,924,1224,16969.44,25.61,-1.00,-1.0,2377
5898,2140898,16976,932,1072,17035.33,25.61,-1.00,-1.0,2420
5900,2140900,16928,924,1092,16988.33,25.71,-1.00,-1.0,2366
5903,2140903,17000,904,1232,17068.54,25.66,-1.00,-1.0,2443
5906,2140906,16896,816,1292,16964.96,25.71,-1.00,-1.0,2366
5908,2140908,17116,784,1232,17178.18,25.66,-1.00,-1.0,2358
5911,2140911,16960,912,1268,17031.77,25.57,-1.00,-1.0,2436
5914,2140914,17048,780,1152,17104.67,25.66,-1.00,-1.0,2382
5919,2140919,16940,860,1364,17016.57,25.66,-1.00,-1.0,2454
5922,2140922,16900,888,1172,16963.85,25.71,-1.00,-1.0,2376
5925,2140925,16936,880,1260,17005.59,25.66,-1.00,-1.0,2445
5927,2140927,16856,880,1244,16924.74,25.66,-1.00,-1.0,2371
5930,2140930,16964,848,1208,17028.08,25.66,-1.00,-1.0,2442
5933,2140933,16984,852,1252,17051.38,25.61,-1.00,-1.0,2374
5936,2140936,16952,860,1140,17012.04,25.66,-1.00,-1.0,2445
5938,2140938,17044,876,1100,17101.91,25.66,-1.00,-1.0,2371
5943,2140943,16944,820,1268,17011.15,25.57,-1.00,-1.0,2439
5946,2140946,16928,868,1220,16994.09,25.61,-1.00,-1.0,2368
5948,2140948,16932,808,1208,16994.26,25.57,-1.00,-1.0,2367
5951,2140951,17036,956,1200,17104.95,25.61,-1.00,-1.0,2437
5954,2140954,16940,840,1120,16997.75,25.66,-1.00,-1.0,2382
5957,2140957,16904,832,1132,16962.28,25.61,-1.00,-1.0,2435
5959,2140959,16860,964,1124,16924.90,25.66,-1.00,-1.0,2372
5962,2140962,16960,928,1192,17027.14,25.61,-1.00,-1.0,2442
5965,2140965,16984,956,1216,17054.29,25.66,-1.00,-1.0,2382
5970,2140970,16940,840,1272,17008.45,25.66,-1.00,-1.0,2440
5973,2140973,17060,912,1152,17123.16,25.71,-1.00,-1.0,2369
5976,2140976,16992,948,1204,17060.96,25.61,-1.00,-1.0,2437
5978,2140978,16952,856,1056,17006.42,25.61,-1.00,-1.0,2366
5981,2140981,17032,812,1024,17082.06,25.75,-1.00,-1.0,2436
5984,2140984,16980,800,1036,17030.38,25.61,-1.00,-1.0,2365
5987,2140987,16940,892,1192,17005.30,25.71,-1.00,-1.0,2424
5989,2140989,17060,788,1160,17117.54,25.57,-1.00,-1.0,2438
5992,2140992,17028,804,1340,17099.55,25.66,-1.00,-1.0,2367
5997,2140997,16956,840,1232,17021.44,25.71,-1.00,-1.0,2438
6000,2141000,17008,744,1192,17065.95,25.61,-1.00,-1.0,2371
6003,2141003,17008,860,1144,17068.11,25.71,-1.00,-1.0,2441
6005,2141005,17048,764,1088,17099.76,25.61,-1.00,-1.0,2367
6008,2141008,16980,912,1176,17045.09,25.66,-1.00,-1.0,2434
6011,2141011,17004,804,1104,17058.76,25.61,-1.00,-1.0,2368
6014,2141014,16976,820,1216,17039.24,25.71,-1.00,-1.0,2432
6016,2141016,16960,812,1144,17017.92,25.71,-1.00,-1.0,2369
6021,2141021,16960,912,1264,17031.47,25.71,-1.00,-1.0,2445
6024,2141024,17064,904,1308,17137.92,25.57,-1.00,-1.0,2377
6027,2141027,17016,824,1216,17079.28,25.71,-1.00,-1.0,2360
6029,2141029,16948,864,1096,17005.37,25.71,-1.00,-1.0,2434
6032,2141032,17056,792,1196,17116.21,25.71,-1.00,-1.0,2370
6035,2141035,16968,864,1016,17020.33,25.61,-1.00,-1.0,2433
6038,2141038,16928,764,1316,16996.26,25.61,-1.00,-1.0,2369
6040,2141040,16940,824,1296,17009.47,25.71,-1.00,-1.0,2434
6043,2141043,17084,864,1216,17149.00,25.61,-1.00,-1.0,2374
6048,2141048,16956,832,1264,17023.39,25.61,-1.00,-1.0,2454
6051,2141051,16968,792,1112,17022.83,25.66,-1.00,-1.0,2376
6054,2141054,17060,776,1236,17122.31,25.71,-1.00,-1.0,2445
6056,2141056,17140,884,1276,17210.15,25.71,-1.00,-1.0,2371
6059,2141059,16968,920,1284,17041.36,25.61,-1.00,-1.0,2443
6062,2141062,17016,860,1212,17080.77,25.61,-1.00,-1.0,2373
6064,2141064,16976,880,1204,17041.38,25.71,-1.00,-1.0,2368
6067,2141067,16884,904,1080,16942.64,25.66,-1.00,-1.0,2434
6070,2141070,16976,788,1148,17033.01,25.71,-1.00,-1.0,2354
6075,2141075,16940,812,1176,17000.17,25.71,-1.00,-1.0,2441
6077,2141077,16980,824,1192,17041.72,25.52,-1.00,-1.0,2376
6080,2141080,16948,768,1180,17006.38,25.57,-1.00,-1.0,2434
6083,2141083,16988,872,1172,17050.69,25.71,-1.00,-1.0,2354
6086,2141086,16956,872,1232,17023.05,25.71,-1.00,-1.0,2441
6088,2141088,17004,848,1096,17060.37,25.61,-1.00,-1.0,2375
6091,2141091,17016,936,1228,17085.91,25.66,-1.00,-1.0,2434
6094,2141094,17032,844,1140,17090.96,25.61,-1.00,-1.0,2369
6099,2141099,17052,860,1216,17116.92,25.71,-1.00,-1.0,2442
6101,2141101,16952,772,1112,17005.96,25.66,-1.00,-1.0,2376
6104,2141104,16932,940,1112,16994.49,25.66,-1.00,-1.0,2359
6107,2141107,16992,780,1280,17057.98,25.61,-1.00,-1.0,2441
6109,2141109,16976,848,1224,17041.18,25.75,-1.00,-1.0,2368
6112,2141112,16980,900,1256,17050.16,25.61,-1.00,-1.0,2435
6115,2141115,16896,796,1168,16955.02,25.66,-1.00,-1.0,2367
6118,2141118,16976,828,1064,17029.45,25.71,-1.00,-1.0,2442
6120,2141120,16992,768,1124,17046.44,25.66,-1.00,-1.0,2369
