timestamp_ms,global_ms,accel_x,accel_y,accel_z,accel_mag,temp_c,voltage,soc,loop_us
3,2135003,16948,884,1352,17024.81,25.28,-1.00,-1.0,2491
9,2135009,17040,920,1272,17112.16,25.24,-1.00,-1.0,2472
12,2135012,16988,900,1156,17051.05,25.14,-1.00,-1.0,2380
15,2135015,16980,836,1112,17036.90,25.19,-1.00,-1.0,2363
17,2135017,16932,828,1312,17002.93,25.09,-1.00,-1.0,2430
20,2135020,16916,848,1096,16972.67,25.09,-1.00,-1.0,2383
23,2135023,17044,912,1276,17116.01,25.05,-1.00,-1.0,2436
26,2135026,17060,924,1088,17119.61,25.19,-1.00,-1.0,2372
28,2135028,17016,924,1140,17079.16,25.14,-1.00,-1.0,2438
31,2135031,17020,888,1204,17085.62,25.09,-1.00,-1.0,2362
36,2135036,16920,792,1200,16980.98,25.09,-1.00,-1.0,2473
39,2135039,16912,892,1172,16976.01,25.19,-1.00,-1.0,2369
41,2135041,16968,888,1184,17032.42,25.14,-1.00,-1.0,2371
44,2135044,16956,868,1304,17028.21,25.14,-1.00,-1.0,2460
47,2135047,16844,864,1120,16903.29,25.24,-1.00,-1.0,2380
50,2135050,16952,884,1268,17022.33,25.24,-1.00,-1.0,2433
52,2135052,16932,836,1260,16999.39,25.14,-1.00,-1.0,2367
55,2135055,17016,816,1208,17078.33,25.19,-1.00,-1.0,2454
58,2135058,16904,928,1244,16975.10,25.19,-1.00,-1.0,2380
63,2135063,16892,916,1216,16960.46,25.24,-1.00,-1.0,2455
66,2135066,17076,808,1220,17138.58,25.24,-1.00,-1.0,2377
69,2135069,16960,876,1188,17024.11,25.19,-1.00,-1.0,2458
71,2135071,17024,860,1240,17090.75,25.19,-1.00,-1.0,2368
74,2135074,17040,824,1188,17101.23,25.19,-1.00,-1.0,2372
77,2135077,17012,848,1344,17086.06,25.24,-1.00,-1.0,2453
79,2135079,17016,892,1076,17073.30,25.19,-1.00,-1.0,2365
82,2135082,16920,824,1208,16983.07,25.14,-1.00,-1.0,2449
85,2135085,17008,872,1288,17078.97,25.14,-1.00,-1.0,2365
90,2135090,17072,844,1320,17143.74,25.19,-1.00,-1.0,2458
93,2135093,17032,896,1212,17098.56,25.09,-1.00,-1.0,2372
95,2135095,16944,884,1200,17009.43,25.14,-1.00,-1.0,2441
98,2135098,16940,840,1084,16995.42,25.19,-1.00,-1.0,2371
101,2135101,16944,840,1200,17007.20,25.14,-1.00,-1.0,2371
103,2135103,16996,848,1104,17052.92,25.09,-1.00,-1.0,2446
106,2135106,16960,792,1292,17027.57,25.14,-1.00,-1.0,2368
109,2135109,16924,872,1088,16981.34,25.19,-1.00,-1.0,2462
112,2135112,16956,844,1300,17026.69,25.24,-1.00,-1.0,2373
117,2135117,16960,888,1040,17015.04,25.24,-1.00,-1.0,2459
119,2135119,16940,884,1144,17001.58,25.24,-1.00,-1.0,2354
122,2135122,16972,880,1228,17039.11,25.00,-1.00,-1.0,2451
125,2135125,16864,788,1168,16922.76,25.14,-1.00,-1.0,2365
127,2135127,16936,832,1104,16992.33,25.19,-1.00,-1.0,2374
130,2135130,16992,892,1192,17057.10,25.24,-1.00,-1.0,2451
133,2135133,16904,848,1184,16966.62,25.09,-1.00,-1.0,2374
136,2135136,16972,924,1080,17031.41,25.14,-1.00,-1.0,2446
139,2135139,17016,816,1216,17078.90,25.14,-1.00,-1.0,2370
144,2135144,17080,860,1140,17139.59,25.24,-1.00,-1.0,2462
146,2135146,17004,796,1200,17064.87,25.19,-1.00,-1.0,2375
149,2135149,17000,884,1252,17068.95,25.24,-1.00,-1.0,2448
152,2135152,17060,896,1160,17122.85,25.14,-1.00,-1.0,2365
155,2135155,16952,768,1288,17018.20,25.14,-1.00,-1.0,2447
157,2135157,16984,804,1128,17040.39,25.24,-1.00,-1.0,2368
160,2135160,17024,776,1168,17081.66,25.19,-1.00,-1.0,2372
163,2135163,16984,912,1160,17047.98,25.19,-1.00,-1.0,2453
165,2135165,16944,820,1164,17003.72,25.19,-1.00,-1.0,2364
170,2135170,17040,788,1128,17095.46,25.09,-1.00,-1.0,2458
173,2135173,16984,888,1228,17051.47,25.14,-1.00,-1.0,2366
176,2135176,17016,776,1100,17069.17,25.19,-1.00,-1.0,2461
179,2135179,17000,856,1220,17065.20,25.14,-1.00,-1.0,2377
181,2135181,17096,844,1220,17160.24,25.09,-1.00,-1.0,2443
184,2135184,17000,904,1160,17063.49,25.19,-1.00,-1.0,2374
187,2135187,16992,948,1064,17051.65,25.24,-1.00,-1.0,2455
190,2135190,16968,948,1212,17037.62,25.19,-1.00,-1.0,2378
192,2135192,17040,864,1200,17104.04,25.09,-1.00,-1.0,2423
197,2135197,17104,860,1168,17165.39,25.14,-1.00,-1.0,2462
200,2135200,16964,816,1240,17028.82,25.24,-1.00,-1.0,2379
203,2135203,16996,832,1164,17056.12,25.14,-1.00,-1.0,2446
206,2135206,16944,884,1164,17006.92,25.14,-1.00,-1.0,2374
209,2135209,17016,876,1136,17076.36,25.14,-1.00,-1.0,2445
211,2135211,16960,820,1164,17019.66,25.24,-1.00,-1.0,2370
214,2135214,17024,840,1208,17087.46,25.19,-1.00,-1.0,2446
217,2135217,16996,896,1292,17068.57,25.19,-1.00,-1.0,2369
222,2135222,16956,808,1244,17020.76,25.19,-1.00,-1.0,2466
224,2135224,17000,880,1228,17067.00,25.19,-1.00,-1.0,2372
227,2135227,17000,920,1140,17063.00,25.24,-1.00,-1.0,2373
230,2135230,16944,884,1208,17009.99,25.19,-1.00,-1.0,2445
233,2135233,16920,872,1212,16985.75,25.14,-1.00,-1.0,2370
235,2135235,17044,844,1268,17111.93,25.19,-1.00,-1.0,2446
238,2135238,17008,848,1184,17070.24,25.19,-1.00,-1.0,2370
241,2135241,17008,856,1276,17077.27,25.09,-1.00,-1.0,2445
244,2135244,16976,892,1168,17039.50,25.14,-1.00,-1.0,2369
248,2135248,16984,856,1168,17045.62,25.28,-1.00,-1.0,2443
251,2135251,17044,908,1164,17107.81,25.19,-1.00,-1.0,2357
254,2135254,17052,900,1152,17114.55,25.19,-1.00,-1.0,2445
257,2135257,17036,832,1212,17099.31,25.19,-1.00,-1.0,2369
259,2135259,16964,888,1160,17026.79,25.14,-1.00,-1.0,2373
262,2135262,16956,876,1336,17031.10,25.24,-1.00,-1.0,2462
265,2135265,17096,784,1320,17164.80,25.14,-1.00,-1.0,2373
268,2135268,16980,864,1152,17040.95,25.24,-1.00,-1.0,2451
270,2135270,17016,896,1312,17090.01,25.19,-1.00,-1.0,2372
275,2135275,17056,764,1304,17122.83,25.19,-1.00,-1.0,2458
278,2135278,17020,824,1192,17081.58,25.19,-1.00,-1.0,2372
281,2135281,16944,848,1240,17010.46,25.19,-1.00,-1.0,2431
284,2135284,17060,860,1076,17115.52,25.14,-1.00,-1.0,2369
286,2135286,16960,828,1116,17016.83,25.19,-1.00,-1.0,2368
289,2135289,17016,960,1096,17078.26,25.14,-1.00,-1.0,2445
292,2135292,16972,868,1228,17038.49,25.24,-1.00,-1.0,2378
294,2135294,16988,840,1200,17051.03,25.14,-1.00,-1.0,2446
297,2135297,17044,856,1240,17110.47,25.14,-1.00,-1.0,2372
302,2135302,17032,816,1140,17089.60,25.14,-1.00,-1.0,2458
305,2135305,16940,784,1108,16994.29,25.14,-1.00,-1.0,2372
308,2135308,16948,932,1224,17017.68,25.14,-1.00,-1.0,2454
310,2135310,16884,832,1180,16945.62,25.14,-1.00,-1.0,2373
313,2135313,17016,864,1268,17085.04,25.19,-1.00,-1.0,2454
316,2135316,17016,828,1228,17080.33,25.09,-1.00,-1.0,2385
319,2135319,16968,864,1248,17035.76,25.19,-1.00,-1.0,2369
321,2135321,17024,964,1264,17098.06,25.24,-1.00,-1.0,2445
324,2135324,17028,884,1152,17089.80,25.05,-1.00,-1.0,2370
329,2135329,16956,956,1112,17019.29,25.19,-1.00,-1.0,2441
332,2135332,16868,888,1236,16936.52,25.09,-1.00,-1.0,2369
335,2135335,16972,952,1116,17035.27,25.14,-1.00,-1.0,2452
337,2135337,16880,892,1060,16936.75,25.24,-1.00,-1.0,2370
340,2135340,17108,840,1196,17170.31,25.14,-1.00,-1.0,2446
343,2135343,17036,768,1216,17096.60,25.14,-1.00,-1.0,2370
346,2135346,16984,856,1144,17043.99,25.14,-1.00,-1.0,2452
348,2135348,17016,852,1236,17082.09,25.05,-1.00,-1.0,2376
351,2135351,16980,776,1116,17034.32,25.19,-1.00,-1.0,2378
356,2135356,17052,720,1176,17107.66,25.19,-1.00,-1.0,2464
359,2135359,16960,868,1084,17016.76,25.19,-1.00,-1.0,2374
362,2135362,16976,840,1116,17033.37,25.14,-1.00,-1.0,2452
364,2135364,16944,828,1204,17006.89,25.19,-1.00,-1.0,2373
367,2135367,16948,864,1192,17011.82,25.14,-1.00,-1.0,2446
370,2135370,17036,892,1156,17098.46,25.24,-1.00,-1.0,2369
373,2135373,16988,756,1368,17059.75,25.14,-1.00,-1.0,2447
375,2135375,16932,828,1176,16992.97,25.24,-1.00,-1.0,2370
380,2135380,17004,812,1352,17076.98,25.14,-1.00,-1.0,2455
383,2135383,16956,860,1288,17026.58,25.24,-1.00,-1.0,2370
386,2135386,16948,848,1164,17009.08,25.14,-1.00,-1.0,2378
388,2135388,17008,884,1164,17070.69,25.19,-1.00,-1.0,2466
391,2135391,16948,864,1176,17010.71,25.19,-1.00,-1.0,2374
394,2135394,16932,936,1092,16992.97,25.19,-1.00,-1.0,2459
397,2135397,16988,876,1068,17044.06,25.19,-1.00,-1.0,2358
400,2135400,17108,812,1260,17173.54,25.14,-1.00,-1.0,2455
402,2135402,17048,876,1092,17105.38,25.09,-1.00,-1.0,2377
407,2135407,16968,880,1344,17043.88,25.19,-1.00,-1.0,2462
410,2135410,17008,792,1204,17068.95,25.19,-1.00,-1.0,2379
413,2135413,16992,816,1156,17050.81,25.24,-1.00,-1.0,2445
416,2135416,17088,872,1180,17150.88,25.24,-1.00,-1.0,2370
418,2135418,16908,804,1236,16972.17,25.19,-1.00,-1.0,2436
421,2135421,17000,752,1200,17058.88,25.19,-1.00,-1.0,2448
424,2135424,17124,864,1184,17186.62,25.09,-1.00,-1.0,2370
427,2135427,16940,812,1216,17002.99,25.19,-1.00,-1.0,2451
429,2135429,16988,816,1292,17056.59,25.19,-1.00,-1.0,2369
434,2135434,16964,888,1276,17035.08,25.14,-1.00,-1.0,2465
437,2135437,16896,980,1216,16968.03,25.24,-1.00,-1.0,2385
440,2135440,17068,880,1208,17133.31,25.14,-1.00,-1.0,2453
443,2135443,16960,884,1180,17023.97,25.14,-1.00,-1.0,2369
445,2135445,16976,832,1260,17043.02,25.24,-1.00,-1.0,2446
448,2135448,17008,796,1212,17069.70,25.14,-1.00,-1.0,2371
451,2135451,16996,800,1004,17044.41,25.09,-1.00,-1.0,2377
453,2135453,16932,884,1388,17011.78,25.14,-1.00,-1.0,2459
456,2135456,16992,772,1184,17050.69,25.19,-1.00,-1.0,2374
461,2135461,16956,900,1080,17014.18,25.14,-1.00,-1.0,2464
464,2135464,16960,796,1172,17019.07,25.24,-1.00,-1.0,2371
467,2135467,16984,904,1084,17042.55,25.14,-1.00,-1.0,2443
469,2135469,16992,916,1156,17055.89,25.14,-1.00,-1.0,2372
472,2135472,16964,932,1164,17029.41,25.19,-1.00,-1.0,2446
475,2135475,16948,932,1120,17010.52,25.24,-1.00,-1.0,2369
477,2135477,16920,836,1152,16979.76,25.09,-1.00,-1.0,2368
480,2135480,17004,876,1108,17062.56,25.14,-1.00,-1.0,2464
483,2135483,17000,888,1092,17058.17,25.14,-1.00,-1.0,2372
488,2135488,16892,896,1368,16970.97,25.14,-1.00,-1.0,2476
491,2135491,16956,904,1268,17027.36,25.14,-1.00,-1.0,2359
494,2135494,17048,868,1244,17115.35,25.24,-1.00,-1.0,2458
496,2135496,16932,880,1180,16995.87,25.14,-1.00,-1.0,2377
499,2135499,17000,868,1096,17057.39,25.19,-1.00,-1.0,2446
502,2135502,16964,936,1024,17020.63,25.24,-1.00,-1.0,2372
505,2135505,16956,868,1244,17023.71,25.19,-1.00,-1.0,2452
507,2135507,16996,808,980,17043.39,25.24,-1.00,-1.0,2370
510,2135510,17092,880,1192,17156.10,25.14,-1.00,-1.0,2370
515,2135515,16996,892,1124,17056.47,25.24,-1.00,-1.0,2465
518,2135518,17072,824,1104,17127.49,25.14,-1.00,-1.0,2372
521,2135521,16984,852,1240,17050.51,25.09,-1.00,-1.0,2457
523,2135523,16988,928,1136,17051.21,25.05,-1.00,-1.0,2377
526,2135526,16908,884,1216,16974.70,25.09,-1.00,-1.0,2446
529,2135529,17040,824,1212,17102.91,25.19,-1.00,-1.0,2369
532,2135532,17004,920,1168,17068.88,25.19,-1.00,-1.0,2461
534,2135534,17008,896,1120,17068.37,25.09,-1.00,-1.0,2372
539,2135539,16964,892,1200,17029.77,25.19,-1.00,-1.0,2455
542,2135542,17136,884,1132,17196.09,25.19,-1.00,-1.0,2369
545,2135545,17004,992,1284,17081.24,25.09,-1.00,-1.0,2375
547,2135547,17032,912,1120,17093.13,25.14,-1.00,-1.0,2462
550,2135550,16988,852,1248,17055.07,25.14,-1.00,-1.0,2375
553,2135553,16968,884,1108,17027.10,25.14,-1.00,-1.0,2454
556,2135556,16940,892,1224,17007.57,25.14,-1.00,-1.0,2372
559,2135559,17008,836,1288,17077.18,25.09,-1.00,-1.0,2456
561,2135561,16912,828,1328,16984.25,25.14,-1.00,-1.0,2377
566,2135566,17004,828,1088,17058.88,25.14,-1.00,-1.0,2466
569,2135569,16940,892,1140,17001.73,25.14,-1.00,-1.0,2385
572,2135572,16916,712,1156,16970.40,25.28,-1.00,-1.0,2447
575,2135575,16944,872,1220,17010.23,25.19,-1.00,-1.0,2371
577,2135577,16984,828,1096,17039.46,25.19,-1.00,-1.0,2371
580,2135580,16964,900,1208,17030.75,25.24,-1.00,-1.0,2444
583,2135583,16976,884,1196,17041.02,25.24,-1.00,-1.0,2378
585,2135585,17004,824,1348,17077.24,25.14,-1.00,-1.0,2445
588,2135588,16892,780,1236,16955.11,25.24,-1.00,-1.0,2372
593,2135593,17016,924,1152,17079.96,25.05,-1.00,-1.0,2456
596,2135596,17044,756,1212,17103.75,25.14,-1.00,-1.0,2373
599,2135599,16976,832,1264,17043.31,25.14,-1.00,-1.0,2452
601,2135601,16932,924,1308,17007.56,25.14,-1.00,-1.0,2369
604,2135604,17048,880,1328,17122.28,25.14,-1.00,-1.0,2460
607,2135607,17028,896,1208,17094.29,25.14,-1.00,-1.0,2377
610,2135610,17028,736,1224,17087.79,25.19,-1.00,-1.0,2372
612,2135612,16996,812,1412,17073.87,25.14,-1.00,-1.0,2445
615,2135615,16972,856,1116,17030.18,25.14,-1.00,-1.0,2370
620,2135620,17040,864,1244,17107.18,25.24,-1.00,-1.0,2464
623,2135623,17008,796,1244,17072.00,25.14,-1.00,-1.0,2370
626,2135626,16948,852,1240,17014.65,25.05,-1.00,-1.0,2454
628,2135628,16996,800,1100,17050.34,25.14,-1.00,-1.0,2372
631,2135631,17028,860,1140,17087.77,25.14,-1.00,-1.0,2461
634,2135634,16948,860,1148,17008.59,25.19,-1.00,-1.0,2377
637,2135637,16952,936,1160,17017.40,25.19,-1.00,-1.0,2434
639,2135639,17088,832,1168,17148.07,25.19,-1.00,-1.0,2374
642,2135642,16996,860,1092,17052.74,25.24,-1.00,-1.0,2370
647,2135647,17008,880,1280,17078.78,25.09,-1.00,-1.0,2468
650,2135650,16984,908,1140,17046.42,25.19,-1.00,-1.0,2358
653,2135653,16944,944,1132,17007.99,25.28,-1.00,-1.0,2459
655,2135655,16988,828,1288,17056.87,25.09,-1.00,-1.0,2378
658,2135658,16976,860,1132,17035.42,25.14,-1.00,-1.0,2445
661,2135661,17000,852,1212,17064.43,25.24,-1.00,-1.0,2372
664,2135664,16924,760,1240,16986.38,25.24,-1.00,-1.0,2451
666,2135666,16988,780,1188,17047.34,25.24,-1.00,-1.0,2370
669,2135669,17008,784,1264,17072.91,25.14,-1.00,-1.0,2372
674,2135674,16964,868,1200,17028.53,25.19,-1.00,-1.0,2464
677,2135677,16940,932,1268,17012.94,25.09,-1.00,-1.0,2359
680,2135680,17028,752,1004,17074.14,25.14,-1.00,-1.0,2457
682,2135682,17004,968,1216,17074.88,25.09,-1.00,-1.0,2378
685,2135685,16912,860,1112,16970.32,25.14,-1.00,-1.0,2446
688,2135688,16960,880,1320,17034.04,25.14,-1.00,-1.0,2372
691,2135691,16988,792,1200,17048.74,25.14,-1.00,-1.0,2451
693,2135693,17076,908,1208,17142.74,25.24,-1.00,-1.0,2370
698,2135698,17000,940,1156,17065.17,25.14,-1.00,-1.0,2454
701,2135701,16932,876,1160,16994.28,25.14,-1.00,-1.0,2369
704,2135704,16992,888,1236,17060.02,25.09,-1.00,-1.0,2375
706,2135706,17000,824,1088,17054.70,25.19,-1.00,-1.0,2458
709,2135709,16896,940,1256,16968.68,25.28,-1.00,-1.0,2376
712,2135712,17000,772,1120,17054.34,25.14,-1.00,-1.0,2439
715,2135715,16924,904,1220,16991.98,25.09,-1.00,-1.0,2377
718,2135718,17040,848,1268,17108.14,25.14,-1.00,-1.0,2456
720,2135720,16900,880,1120,16959.92,25.14,-1.00,-1.0,2377
725,2135725,17016,892,1204,17081.85,25.14,-1.00,-1.0,2466
728,2135728,17036,812,1180,17096.11,25.05,-1.00,-1.0,2373
731,2135731,16868,1012,1156,16937.82,25.14,-1.00,-1.0,2445
734,2135734,16984,872,1108,17042.43,25.14,-1.00,-1.0,2370
736,2135736,17044,900,1164,17107.39,25.24,-1.00,-1.0,2369
739,2135739,16976,804,1168,17035.12,25.09,-1.00,-1.0,2445
742,2135742,17044,984,1184,17113.39,25.19,-1.00,-1.0,2378
744,2135744,16956,856,1140,17015.82,25.19,-1.00,-1.0,2446
747,2135747,16968,836,1216,17032.04,25.24,-1.00,-1.0,2376
752,2135752,17012,852,1332,17085.32,25.05,-1.00,-1.0,2464
755,2135755,16996,904,1200,17062.28,25.24,-1.00,-1.0,2374
758,2135758,17040,932,1288,17114.01,25.09,-1.00,-1.0,2446
761,2135761,16992,968,1252,17065.54,25.24,-1.00,-1.0,2370
763,2135763,17004,824,1220,17067.61,25.09,-1.00,-1.0,2446
766,2135766,16992,872,1132,17051.98,25.14,-1.00,-1.0,2370
769,2135769,16912,936,1168,16978.11,25.09,-1.00,-1.0,2378
771,2135771,17020,896,1168,17083.54,25.14,-1.00,-1.0,2455
774,2135774,16916,864,1184,16979.38,25.14,-1.00,-1.0,2372
779,2135779,16928,868,1240,16995.54,25.14,-1.00,-1.0,2457
782,2135782,16992,884,1268,17062.16,25.14,-1.00,-1.0,2372
785,2135785,17048,904,1360,17126.04,25.19,-1.00,-1.0,2446
788,2135788,16948,876,1120,17007.54,25.09,-1.00,-1.0,2370
790,2135790,17044,860,1104,17101.36,25.09,-1.00,-1.0,2445
793,2135793,17040,868,1284,17110.34,25.14,-1.00,-1.0,2369
796,2135796,17092,808,1164,17150.63,25.19,-1.00,-1.0,2445
799,2135799,16912,852,1088,16968.37,25.19,-1.00,-1.0,2378
801,2135801,16904,856,1232,16970.44,25.19,-1.00,-1.0,2369
806,2135806,16980,888,1240,17048.36,25.19,-1.00,-1.0,2455
809,2135809,17020,896,1236,17088.33,25.14,-1.00,-1.0,2370
812,2135812,17016,948,1036,17073.85,25.19,-1.00,-1.0,2446
815,2135815,16984,808,1236,17048.07,25.19,-1.00,-1.0,2370
817,2135817,16904,936,1200,16972.37,25.14,-1.00,-1.0,2446
820,2135820,17044,840,1156,17103.80,25.19,-1.00,-1.0,2370
823,2135823,16964,960,1260,17037.80,25.14,-1.00,-1.0,2444
826,2135826,16968,868,1152,17029.20,25.09,-1.00,-1.0,2377
831,2135831,16992,832,1144,17050.78,25.09,-1.00,-1.0,2463
833,2135833,17012,848,1292,17082.05,25.09,-1.00,-1.0,2370
836,2135836,16936,792,1276,17002.46,25.14,-1.00,-1.0,2376
839,2135839,16976,824,1120,17032.85,25.19,-1.00,-1.0,2435
841,2135841,17076,948,1300,17151.63,25.14,-1.00,-1.0,2373
844,2135844,17096,872,1140,17156.14,25.09,-1.00,-1.0,2454
847,2135847,16956,860,1172,17018.20,25.24,-1.00,-1.0,2373
850,2135850,16944,744,1156,16999.68,25.19,-1.00,-1.0,2444
853,2135853,17044,848,1064,17098.22,25.28,-1.00,-1.0,2372
857,2135857,16948,908,1268,17019.61,25.19,-1.00,-1.0,2456
860,2135860,16904,876,1212,16970.02,25.19,-1.00,-1.0,2372
863,2135863,17052,872,1216,17117.53,25.14,-1.00,-1.0,2381
866,2135866,16932,936,1192,16999.69,25.09,-1.00,-1.0,2455
868,2135868,17000,888,1068,17056.65,25.19,-1.00,-1.0,2381
871,2135871,17036,856,1244,17102.79,25.19,-1.00,-1.0,2453
874,2135874,17028,884,1296,17100.11,25.28,-1.00,-1.0,2370
877,2135877,17044,788,972,17089.87,25.19,-1.00,-1.0,2444
879,2135879,16996,840,1212,17059.85,25.14,-1.00,-1.0,2370
884,2135884,16948,924,1172,17013.58,25.05,-1.00,-1.0,2458
887,2135887,16956,816,1136,17013.59,25.14,-1.00,-1.0,2378
890,2135890,16952,932,1216,17021.09,25.28,-1.00,-1.0,2435
892,2135892,16992,940,1284,17066.35,25.19,-1.00,-1.0,2375
895,2135895,17012,808,1088,17065.89,25.09,-1.00,-1.0,2367
898,2135898,16948,876,1316,17021.57,25.14,-1.00,-1.0,2444
901,2135901,17076,812,1256,17141.37,25.28,-1.00,-1.0,2370
904,2135904,16936,860,1164,16997.72,25.19,-1.00,-1.0,2461
906,2135906,16976,920,1004,17030.53,25.24,-1.00,-1.0,2370
911,2135911,17044,760,1244,17106.23,25.14,-1.00,-1.0,2454
914,2135914,17048,816,1092,17102.42,25.14,-1.00,-1.0,2370
917,2135917,17012,848,1140,17071.23,25.14,-1.00,-1.0,2454
920,2135920,16904,848,1180,16966.34,25.28,-1.00,-1.0,2380
923,2135923,17028,860,1200,17091.88,25.19,-1.00,-1.0,2454
925,2135925,17052,764,1220,17112.65,25.09,-1.00,-1.0,2380
928,2135928,16936,904,1184,17001.39,25.14,-1.00,-1.0,2368
931,2135931,17036,856,1208,17100.21,25.14,-1.00,-1.0,2447
933,2135933,16920,908,1208,16987.35,25.19,-1.00,-1.0,2379
938,2135938,17008,796,1300,17076.17,25.19,-1.00,-1.0,2455
941,2135941,17048,896,1324,17122.79,25.19,-1.00,-1.0,2371
944,2135944,16984,928,1160,17048.84,25.19,-1.00,-1.0,2454
947,2135947,16856,836,1192,16918.76,25.28,-1.00,-1.0,2373
950,2135950,16980,892,1236,17048.28,25.14,-1.00,-1.0,2457
952,2135952,16980,896,1200,17045.91,25.19,-1.00,-1.0,2377
955,2135955,17068,896,1216,17134.71,25.24,-1.00,-1.0,2445
958,2135958,16944,928,1236,17014.35,25.14,-1.00,-1.0,2373
960,2135960,16988,828,1244,17053.60,25.19,-1.00,-1.0,2373
965,2135965,17000,924,1276,17072.84,25.19,-1.00,-1.0,2455
968,2135968,17056,868,1080,17112.19,25.28,-1.00,-1.0,2378
971,2135971,16992,872,1192,17056.06,25.14,-1.00,-1.0,2456
974,2135974,17084,908,1132,17145.52,25.09,-1.00,-1.0,2374
977,2135977,16944,940,1316,17021.00,25.05,-1.00,-1.0,2454
979,2135979,17072,860,1212,17136.56,25.14,-1.00,-1.0,2372
982,2135982,16952,796,1336,17023.19,25.14,-1.00,-1.0,2445
985,2135985,16876,848,1220,16941.28,25.24,-1.00,-1.0,2369
990,2135990,16968,944,1236,17039.13,25.14,-1.00,-1.0,2459
993,2135993,17012,840,1148,17071.37,25.14,-1.00,-1.0,2374
995,2135995,17004,856,1132,17063.12,25.19,-1.00,-1.0,2370
998,2135998,16932,932,1140,16995.91,25.19,-1.00,-1.0,2454
1001,2136001,16964,912,1204,17031.11,25.19,-1.00,-1.0,2380
1003,2136003,17060,868,1184,17123.05,25.19,-1.00,-1.0,2443
1006,2136006,16984,804,1232,17047.60,25.28,-1.00,-1.0,2373
1009,2136009,16860,936,1284,16934.71,25.24,-1.00,-1.0,2459
1012,2136012,16980,876,1088,17037.36,25.09,-1.00,-1.0,2380
1017,2136017,16964,848,1264,17032.15,25.28,-1.00,-1.0,2462
1019,2136019,17000,916,1140,17062.79,25.19,-1.00,-1.0,2372
1022,2136022,17096,856,1004,17146.84,25.05,-1.00,-1.0,2453
1025,2136025,16936,848,1200,16999.62,25.24,-1.00,-1.0,2386
1028,2136028,16972,764,1188,17030.67,25.14,-1.00,-1.0,2369
1030,2136030,17080,840,1104,17136.24,25.19,-1.00,-1.0,2444
1033,2136033,16992,884,1144,17053.39,25.19,-1.00,-1.0,2372
1036,2136036,16976,908,1292,17049.29,25.19,-1.00,-1.0,2443
1039,2136039,17000,860,1200,17063.99,25.09,-1.00,-1.0,2377
1044,2136044,16976,908,1200,17042.57,25.09,-1.00,-1.0,2461
1046,2136046,16952,840,1128,17010.24,25.19,-1.00,-1.0,2372
1049,2136049,17000,824,1312,17070.45,25.19,-1.00,-1.0,2447
1052,2136052,17024,940,1192,17091.55,25.19,-1.00,-1.0,2370
1055,2136055,16956,980,1192,17026.07,25.24,-1.00,-1.0,2451
1057,2136057,17032,936,1156,17096.83,25.19,-1.00,-1.0,2371
1060,2136060,16992,860,1164,17053.52,25.14,-1.00,-1.0,2460
1063,2136063,16908,920,1184,16974.36,25.14,-1.00,-1.0,2384
1066,2136066,16956,748,1104,17008.36,25.19,-1.00,-1.0,2367
1070,2136070,16912,796,1252,16976.95,25.14,-1.00,-1.0,2456
1073,2136073,17040,792,1204,17100.83,25.19,-1.00,-1.0,2374
1076,2136076,16992,820,1280,17059.86,25.14,-1.00,-1.0,2458
1079,2136079,16956,932,1248,17027.39,25.14,-1.00,-1.0,2376
1082,2136082,16984,960,1148,17049.80,25.24,-1.00,-1.0,2457
1084,2136084,17020,808,1048,17071.37,25.14,-1.00,-1.0,2380
1087,2136087,16988,768,1148,17044.06,25.19,-1.00,-1.0,2445
1090,2136090,17088,908,1316,17162.63,25.24,-1.00,-1.0,2372
1095,2136095,16944,860,1108,17001.95,25.09,-1.00,-1.0,2456
1097,2136097,16976,968,1100,17039.12,25.19,-1.00,-1.0,2374
1100,2136100,16968,860,1008,17019.66,25.19,-1.00,-1.0,2444
1103,2136103,17076,788,1264,17140.84,25.19,-1.00,-1.0,2371
1105,2136105,16904,908,1228,16972.85,25.24,-1.00,-1.0,2368
1108,2136108,16836,784,1268,16901.88,25.24,-1.00,-1.0,2456
1111,2136111,17104,836,1204,17166.69,25.19,-1.00,-1.0,2436
1114,2136114,16940,836,1268,17007.95,25.19,-1.00,-1.0,2460
1117,2136117,16932,836,1156,16991.99,25.14,-1.00,-1.0,2381
1122,2136122,16968,832,1208,17031.28,25.14,-1.00,-1.0,2456
1124,2136124,16976,948,1224,17046.45,25.24,-1.00,-1.0,2381
1127,2136127,16964,864,1200,17028.32,25.19,-1.00,-1.0,2444
1130,2136130,16972,836,1176,17033.22,25.19,-1.00,-1.0,2359
1133,2136133,16896,876,1216,16962.34,25.19,-1.00,-1.0,2444
1136,2136136,16836,800,1176,16895.97,25.19,-1.00,-1.0,2374
1138,2136138,17056,912,1160,17119.71,25.24,-1.00,-1.0,2444
1141,2136141,16964,888,1320,17038.43,25.19,-1.00,-1.0,2371
1144,2136144,16952,872,1172,17014.82,25.14,-1.00,-1.0,2370
1149,2136149,16996,860,1200,17060.00,25.24,-1.00,-1.0,2461
1151,2136151,17000,896,1088,17058.33,25.14,-1.00,-1.0,2374
1154,2136154,17016,832,1296,17085.55,25.19,-1.00,-1.0,2460
1157,2136157,16912,852,1012,16963.66,25.14,-1.00,-1.0,2380
1160,2136160,17020,936,1156,17084.87,25.09,-1.00,-1.0,2449
1162,2136162,17060,852,1232,17125.63,25.19,-1.00,-1.0,2380
1165,2136165,17020,908,1324,17095.55,25.09,-1.00,-1.0,2443
1168,2136168,16976,936,1220,17045.50,25.28,-1.00,-1.0,2373
1173,2136173,16988,924,1316,17063.93,25.28,-1.00,-1.0,2461
1176,2136176,16924,932,1116,16986.34,25.09,-1.00,-1.0,2374
1179,2136179,16988,908,1160,17051.75,25.14,-1.00,-1.0,2442
1181,2136181,17028,860,1304,17099.50,25.19,-1.00,-1.0,2374
1184,2136184,17016,760,1252,17078.92,25.24,-1.00,-1.0,2367
1187,2136187,16940,864,1332,17014.24,25.24,-1.00,-1.0,2451
1189,2136189,16984,800,1320,17053.99,25.14,-1.00,-1.0,2372
1192,2136192,16976,960,1348,17056.47,25.28,-1.00,-1.0,2455
1195,2136195,16904,756,1264,16968.04,25.09,-1.00,-1.0,2379
1200,2136200,16980,852,1368,17056.31,25.09,-1.00,-1.0,2454
1203,2136203,16932,896,1204,16998.38,25.14,-1.00,-1.0,2390
1206,2136206,17084,908,1212,17150.99,25.28,-1.00,-1.0,2459
1208,2136208,16956,776,1184,17014.99,25.19,-1.00,-1.0,2379
1211,2136211,17008,832,1336,17080.67,25.24,-1.00,-1.0,2444
1214,2136214,16948,936,1144,17012.33,25.19,-1.00,-1.0,2374
1217,2136217,17004,904,1276,17075.76,25.24,-1.00,-1.0,2450
1219,2136219,16992,884,1224,17058.95,25.14,-1.00,-1.0,2370
1222,2136222,17020,936,1336,17097.99,25.24,-1.00,-1.0,2368
1227,2136227,16980,820,1140,17037.97,25.19,-1.00,-1.0,2452
1230,2136230,16944,904,1184,17009.36,25.14,-1.00,-1.0,2380
1232,2136232,16936,876,1260,17005.38,25.19,-1.00,-1.0,2445
1235,2136235,16892,848,1104,16949.27,25.19,-1.00,-1.0,2373
1238,2136238,17064,780,1260,17128.22,25.19,-1.00,-1.0,2459
1241,2136241,17032,892,1236,17100.07,25.19,-1.00,-1.0,2379
1244,2136244,16984,844,1156,17044.21,25.14,-1.00,-1.0,2452
1246,2136246,16956,904,1176,17020.76,25.09,-1.00,-1.0,2380
1251,2136251,16980,912,1184,17045.64,25.14,-1.00,-1.0,2463
1254,2136254,17072,924,1208,17139.61,25.24,-1.00,-1.0,2385
1257,2136257,16988,772,1244,17050.97,25.24,-1.00,-1.0,2443
1260,2136260,16912,900,1172,16976.43,25.14,-1.00,-1.0,2372
1262,2136262,17032,844,1204,17095.35,25.14,-1.00,-1.0,2368
1265,2136265,16888,776,1096,16941.31,25.28,-1.00,-1.0,2444
1268,2136268,16992,788,1148,17048.96,25.14,-1.00,-1.0,2379
1270,2136270,17004,916,1208,17071.45,25.19,-1.00,-1.0,2443
1273,2136273,17084,920,1208,17151.35,25.19,-1.00,-1.0,2375
1278,2136278,16904,828,1136,16962.35,25.24,-1.00,-1.0,2462
1281,2136281,16948,888,1188,17012.78,25.24,-1.00,-1.0,2377
1284,2136284,16920,756,1224,16981.05,25.14,-1.00,-1.0,2453
1286,2136286,16968,852,1144,17027.85,25.14,-1.00,-1.0,2379
1289,2136289,17004,896,1156,17066.79,25.19,-1.00,-1.0,2444
1292,2136292,17008,904,1284,17080.34,25.14,-1.00,-1.0,2373
1295,2136295,17008,752,1320,17075.71,25.14,-1.00,-1.0,2450
1297,2136297,17016,852,1092,17072.28,25.14,-1.00,-1.0,2372
1300,2136300,16872,852,1268,16941.02,25.19,-1.00,-1.0,2368
1305,2136305,16940,888,1196,17005.37,25.24,-1.00,-1.0,2464
1307,2136307,16904,860,1280,16974.19,25.24,-1.00,-1.0,2383
1310,2136310,17000,936,1236,17070.55,25.14,-1.00,-1.0,2431
1313,2136313,17008,844,1148,17067.58,25.14,-1.00,-1.0,2386
1316,2136316,16976,832,1248,17042.13,25.19,-1.00,-1.0,2444
1319,2136319,16924,756,1196,16983.04,25.14,-1.00,-1.0,2372
1321,2136321,16880,860,1116,16938.70,25.19,-1.00,-1.0,2443
1324,2136324,17084,888,1096,17142.13,25.14,-1.00,-1.0,2371
1329,2136329,17096,840,1236,17161.19,25.24,-1.00,-1.0,2460
1332,2136332,16916,932,1080,16976.04,25.14,-1.00,-1.0,2359
1334,2136334,16996,872,1136,17056.23,25.19,-1.00,-1.0,2370
1337,2136337,16984,948,1084,17044.94,25.09,-1.00,-1.0,2455
1340,2136340,16944,812,1228,17007.84,25.09,-1.00,-1.0,2374
1343,2136343,17020,900,1140,17081.86,25.14,-1.00,-1.0,2450
1345,2136345,17076,740,1160,17131.35,25.28,-1.00,-1.0,2372
1348,2136348,16892,836,1236,16957.78,25.14,-1.00,-1.0,2455
1351,2136351,17004,896,1324,17078.99,25.14,-1.00,-1.0,2379
1356,2136356,16960,864,1208,17024.90,25.24,-1.00,-1.0,2451
1359,2136359,17016,972,1244,17089.08,25.09,-1.00,-1.0,2380
1361,2136361,16932,796,1172,16991.17,25.14,-1.00,-1.0,2460
1364,2136364,16936,824,1204,16998.73,25.24,-1.00,-1.0,2376
1367,2136367,17100,828,1152,17158.75,25.09,-1.00,-1.0,2451
1370,2136370,16936,896,1192,17001.52,25.14,-1.00,-1.0,2374
1372,2136372,17064,896,1244,17132.73,25.09,-1.00,-1.0,2369
1375,2136375,17064,892,1192,17128.82,25.14,-1.00,-1.0,2444
1378,2136378,16972,872,1260,17041.03,25.14,-1.00,-1.0,2373
1383,2136383,17012,820,1216,17075.11,25.14,-1.00,-1.0,2452
1386,2136386,17096,788,1216,17157.30,25.09,-1.00,-1.0,2371
1388,2136388,16952,912,1184,17017.75,25.24,-1.00,-1.0,2444
1391,2136391,16968,732,1328,17035.62,25.14,-1.00,-1.0,2372
1394,2136394,16960,824,1176,17020.68,25.14,-1.00,-1.0,2459
1397,2136397,17136,844,1176,17197.03,25.14,-1.00,-1.0,2379
1400,2136400,16976,824,1060,17029.01,25.14,-1.00,-1.0,2457
1402,2136402,16988,884,1256,17057.29,25.14,-1.00,-1.0,2383
1407,2136407,16928,872,1188,16992.03,25.14,-1.00,-1.0,2461
1410,2136410,17020,764,1208,17079.91,25.14,-1.00,-1.0,2379
1413,2136413,17068,892,1088,17125.89,25.09,-1.00,-1.0,2367
1415,2136415,16944,900,1128,17005.34,25.24,-1.00,-1.0,2454
1418,2136418,16948,760,1272,17012.65,25.19,-1.00,-1.0,2372
1421,2136421,17032,888,1252,17101.03,25.14,-1.00,-1.0,2443
1424,2136424,17036,872,1216,17101.59,25.14,-1.00,-1.0,2371
1426,2136426,17044,872,1236,17110.99,25.14,-1.00,-1.0,2446
1429,2136429,16916,792,1128,16972.06,25.14,-1.00,-1.0,2377
1434,2136434,16932,824,1256,16998.50,25.14,-1.00,-1.0,2455
1437,2136437,17168,828,1152,17226.52,25.14,-1.00,-1.0,2371
1440,2136440,17040,844,1288,17109.44,25.24,-1.00,-1.0,2451
1442,2136442,17084,932,1172,17149.50,25.05,-1.00,-1.0,2372
1445,2136445,16952,860,1244,17019.33,25.09,-1.00,-1.0,2458
1448,2136448,16924,896,1204,16990.42,25.05,-1.00,-1.0,2379
1451,2136451,16944,832,1208,17007.37,25.19,-1.00,-1.0,2371
1453,2136453,16888,792,1244,16952.27,25.14,-1.00,-1.0,2444
1456,2136456,17040,776,1256,17103.84,25.19,-1.00,-1.0,2372
1461,2136461,16956,808,1140,17013.48,25.28,-1.00,-1.0,2459
1464,2136464,16948,924,1236,17018.11,25.19,-1.00,-1.0,2376
1467,2136467,16948,848,1228,17013.58,25.14,-1.00,-1.0,2443
1469,2136469,16888,944,1108,16950.62,25.14,-1.00,-1.0,2372
1472,2136472,17000,852,1108,17057.36,25.14,-1.00,-1.0,2445
1475,2136475,17004,824,1176,17064.52,25.14,-1.00,-1.0,2372
1478,2136478,17008,816,1152,17066.49,25.14,-1.00,-1.0,2447
1480,2136480,17000,796,1180,17059.48,25.24,-1.00,-1.0,2372
1485,2136485,16996,804,1136,17052.89,25.19,-1.00,-1.0,2454
1488,2136488,17072,824,1184,17132.83,25.19,-1.00,-1.0,2381
1491,2136491,16972,908,1196,17038.30,25.09,-1.00,-1.0,2372
1493,2136493,16984,912,1092,17043.49,25.24,-1.00,-1.0,2444
1496,2136496,17024,764,1172,17081.39,25.14,-1.00,-1.0,2373
1499,2136499,16964,904,1336,17040.52,25.14,-1.00,-1.0,2443
1502,2136502,16948,816,1216,17011.15,25.14,-1.00,-1.0,2371
1504,2136504,16948,832,1172,17008.84,25.14,-1.00,-1.0,2445
1507,2136507,16888,860,1164,16949.90,25.14,-1.00,-1.0,2372
1512,2136512,17040,920,1272,17112.16,25.19,-1.00,-1.0,2452
1515,2136515,17008,880,1256,17077.00,25.19,-1.00,-1.0,2380
1517,2136517,17028,936,1156,17092.84,25.19,-1.00,-1.0,2460
1520,2136520,16940,892,1188,17005.02,25.19,-1.00,-1.0,2376
1523,2136523,16900,740,1148,16955.10,25.14,-1.00,-1.0,2451
1526,2136526,16952,832,1100,17008.01,25.28,-1.00,-1.0,2374
1528,2136528,16996,892,1080,17053.62,25.14,-1.00,-1.0,2368
1531,2136531,16996,836,1016,17046.85,25.19,-1.00,-1.0,2444
1534,2136534,17016,872,1136,17076.16,25.14,-1.00,-1.0,2372
1539,2136539,16932,872,1224,16998.56,25.24,-1.00,-1.0,2451
1542,2136542,16972,872,1152,17033.39,25.14,-1.00,-1.0,2374
1545,2136545,17060,932,1144,17123.70,25.28,-1.00,-1.0,2452
1547,2136547,16896,728,1188,16953.35,25.24,-1.00,-1.0,2372
1550,2136550,16940,932,1144,17004.14,25.19,-1.00,-1.0,2445
1553,2136553,17048,880,1128,17107.92,25.19,-1.00,-1.0,2371
1556,2136556,17036,856,1148,17096.08,25.19,-1.00,-1.0,2455
1558,2136558,17076,776,1228,17137.68,25.14,-1.00,-1.0,2372
1563,2136563,16888,840,1328,16960.95,25.09,-1.00,-1.0,2452
1566,2136566,16904,700,1192,16960.43,25.09,-1.00,-1.0,2371
1569,2136569,16988,864,1140,17048.12,25.24,-1.00,-1.0,2375
1572,2136572,17032,924,1232,17101.48,25.14,-1.00,-1.0,2458
1574,2136574,16868,916,1280,16941.28,25.24,-1.00,-1.0,2378
1577,2136577,16948,872,1088,17005.26,25.19,-1.00,-1.0,2444
1580,2136580,16940,804,1316,17010.05,25.24,-1.00,-1.0,2371
1583,2136583,16960,796,1084,17013.24,25.09,-1.00,-1.0,2451
1585,2136585,17004,912,1228,17072.66,25.14,-1.00,-1.0,2372
1590,2136590,16960,900,1176,17024.53,25.24,-1.00,-1.0,2452
1593,2136593,17004,776,1292,17070.66,25.14,-1.00,-1.0,2372
1596,2136596,16984,932,1204,17052.11,25.09,-1.00,-1.0,2445
1599,2136599,17032,884,1208,17097.65,25.28,-1.00,-1.0,2374
1601,2136601,16980,856,1164,17041.36,25.28,-1.00,-1.0,2444
1604,2136604,16976,936,1060,17034.80,25.19,-1.00,-1.0,2373
1607,2136607,17016,836,1120,17073.30,25.24,-1.00,-1.0,2376
1610,2136610,17000,936,1164,17065.49,25.14,-1.00,-1.0,2454
1612,2136612,16996,940,1188,17063.38,25.14,-1.00,-1.0,2380
1617,2136617,17000,980,1280,17076.26,25.14,-1.00,-1.0,2459
1620,2136620,17000,884,1152,17061.90,25.14,-1.00,-1.0,2386
1623,2136623,16976,872,1128,17035.77,25.09,-1.00,-1.0,2444
1626,2136626,17000,832,1216,17063.73,25.05,-1.00,-1.0,2375
1628,2136628,17020,788,1140,17076.33,25.28,-1.00,-1.0,2443
1631,2136631,16964,780,1024,17012.77,25.09,-1.00,-1.0,2371
1634,2136634,16940,824,1224,17004.14,25.19,-1.00,-1.0,2444
1637,2136637,17008,828,1132,17065.73,25.19,-1.00,-1.0,2371
1642,2136642,16936,828,1128,16993.71,25.19,-1.00,-1.0,2453
1644,2136644,17000,924,1248,17070.77,25.19,-1.00,-1.0,2372
1647,2136647,16944,876,1252,17012.76,25.14,-1.00,-1.0,2377
1650,2136650,16976,852,1156,17036.63,25.14,-1.00,-1.0,2452
1652,2136652,16964,872,1116,17023.02,25.14,-1.00,-1.0,2377
1655,2136655,16956,852,1252,17023.49,25.14,-1.00,-1.0,2447
1658,2136658,16984,820,1144,17042.22,25.14,-1.00,-1.0,2384
1661,2136661,16932,836,1216,16996.18,25.19,-1.00,-1.0,2444
1664,2136664,16992,920,1156,17056.11,25.19,-1.00,-1.0,2373
1669,2136669,16964,880,1144,17025.29,25.19,-1.00,-1.0,2457
1671,2136671,16984,908,1156,17047.49,25.14,-1.00,-1.0,2380
1674,2136674,16952,844,1188,17014.52,25.19,-1.00,-1.0,2446
1677,2136677,17044,768,1144,17099.61,25.19,-1.00,-1.0,2375
1680,2136680,16896,840,1136,16954.97,25.24,-1.00,-1.0,2447
1682,2136682,17076,820,1180,17136.35,25.09,-1.00,-1.0,2373
1685,2136685,16940,836,1228,17005.01,25.14,-1.00,-1.0,2368
1688,2136688,16904,836,1252,16970.90,25.19,-1.00,-1.0,2451
1690,2136690,16872,820,1300,16941.87,25.24,-1.00,-1.0,2372
1695,2136695,16964,840,1284,17033.25,25.19,-1.00,-1.0,2445
1698,2136698,16932,760,1148,16987.88,25.19,-1.00,-1.0,2372
1701,2136701,16984,884,1172,17047.32,25.24,-1.00,-1.0,2445
1704,2136704,16944,840,1204,17007.48,25.19,-1.00,-1.0,2372
1706,2136706,17040,884,1144,17101.22,25.24,-1.00,-1.0,2444
1709,2136709,17020,872,1188,17083.68,25.14,-1.00,-1.0,2371
1712,2136712,16932,984,1160,17000.19,25.14,-1.00,-1.0,2443
1715,2136715,16960,956,1224,17030.96,25.14,-1.00,-1.0,2372
1717,2136717,16988,828,1252,17054.19,25.24,-1.00,-1.0,2377
1722,2136722,17060,848,1184,17122.05,25.14,-1.00,-1.0,2454
1725,2136725,16944,788,1196,17004.43,25.14,-1.00,-1.0,2374
1728,2136728,16964,840,1260,17031.46,25.19,-1.00,-1.0,2449
1730,2136730,17036,768,1156,17092.44,25.14,-1.00,-1.0,2371
1733,2136733,17000,844,1116,17057.48,25.19,-1.00,-1.0,2461
1736,2136736,16996,844,1244,17062.35,25.19,-1.00,-1.0,2392
1739,2136739,16952,948,1192,17020.28,25.19,-1.00,-1.0,2444
1741,2136741,16936,840,1200,16999.23,25.19,-1.00,-1.0,2380
1746,2136746,16956,884,1144,17017.52,25.19,-1.00,-1.0,2461
1749,2136749,16960,904,1164,17023.92,25.19,-1.00,-1.0,2384
1752,2136752,17032,832,1156,17091.45,25.14,-1.00,-1.0,2443
1755,2136755,17000,852,1344,17074.31,25.28,-1.00,-1.0,2358
1757,2136757,16956,800,1124,17012.04,25.05,-1.00,-1.0,2368
1760,2136760,17080,924,1192,17146.46,25.14,-1.00,-1.0,2444
1763,2136763,17012,896,1180,17076.40,25.14,-1.00,-1.0,2372
1766,2136766,16924,992,1072,16986.91,25.19,-1.00,-1.0,2453
1768,2136768,16944,844,1108,17001.15,25.14,-1.00,-1.0,2371
1773,2136773,16912,824,1196,16974.25,25.14,-1.00,-1.0,2453
1776,2136776,16900,868,1168,16962.54,25.05,-1.00,-1.0,2359
1779,2136779,17060,756,1224,17120.55,25.19,-1.00,-1.0,2449
1782,2136782,17040,836,1040,17092.16,25.14,-1.00,-1.0,2379
1784,2136784,17044,876,1180,17107.24,25.09,-1.00,-1.0,2445
1787,2136787,16992,908,1152,17055.19,25.14,-1.00,-1.0,2372
1790,2136790,16888,904,1216,16955.84,25.19,-1.00,-1.0,2457
1793,2136793,16968,892,1172,17031.80,25.19,-1.00,-1.0,2379
1795,2136795,17120,824,1156,17178.76,25.14,-1.00,-1.0,2368
1800,2136800,16956,880,1000,17008.24,25.24,-1.00,-1.0,2456
1803,2136803,17000,876,1164,17062.30,25.24,-1.00,-1.0,2359
1806,2136806,17044,856,1092,17100.38,25.14,-1.00,-1.0,2442
1809,2136809,16924,848,1200,16987.67,25.14,-1.00,-1.0,2371
1811,2136811,16928,948,1244,17000.10,25.19,-1.00,-1.0,2444
1814,2136814,16984,912,1076,17042.47,25.14,-1.00,-1.0,2372
1817,2136817,16952,752,1308,17019.01,25.19,-1.00,-1.0,2443
1820,2136820,16936,716,1316,17002.13,25.05,-1.00,-1.0,2371
1825,2136825,17016,828,1296,17085.36,25.14,-1.00,-1.0,2452
1827,2136827,16920,820,1148,16978.71,25.14,-1.00,-1.0,2375
1830,2136830,16992,860,1188,17055.18,25.14,-1.00,-1.0,2445
1833,2136833,16912,804,1244,16976.74,25.14,-1.00,-1.0,2371
1835,2136835,16980,884,1108,17039.06,25.09,-1.00,-1.0,2368
1838,2136838,16880,908,1124,16941.73,25.14,-1.00,-1.0,2452
1841,2136841,16980,820,1140,17037.97,25.24,-1.00,-1.0,2378
1844,2136844,17008,884,1344,17083.91,25.24,-1.00,-1.0,2445
1846,2136846,16976,824,1160,17035.53,25.14,-1.00,-1.0,2378
1851,2136851,16960,816,1108,17015.73,25.14,-1.00,-1.0,2459
1854,2136854,16932,824,1188,16993.62,25.14,-1.00,-1.0,2384
1857,2136857,17024,884,1148,17085.55,25.24,-1.00,-1.0,2445
1860,2136860,16964,844,1232,17029.61,25.14,-1.00,-1.0,2375
1863,2136863,17052,888,1280,17123.02,25.19,-1.00,-1.0,2443
1865,2136865,17096,876,1192,17159.88,25.24,-1.00,-1.0,2375
1868,2136868,17080,884,1268,17149.80,25.09,-1.00,-1.0,2457
1871,2136871,17064,836,1340,17136.94,25.19,-1.00,-1.0,2373
1873,2136873,16940,876,1284,17011.16,25.19,-1.00,-1.0,2369
1878,2136878,17000,892,1192,17065.07,25.19,-1.00,-1.0,2453
1881,2136881,16956,888,1308,17029.54,25.19,-1.00,-1.0,2375
1884,2136884,16948,876,1228,17015.00,25.14,-1.00,-1.0,2457
1887,2136887,16936,844,1268,17004.36,25.14,-1.00,-1.0,2379
1890,2136890,16888,880,1120,16947.96,25.14,-1.00,-1.0,2458
1892,2136892,16916,768,1156,16972.84,25.14,-1.00,-1.0,2380
1895,2136895,16940,884,1380,17019.09,25.24,-1.00,-1.0,2444
1898,2136898,16944,912,1444,17029.86,25.14,-1.00,-1.0,2373
1903,2136903,16928,936,1292,17003.02,25.09,-1.00,-1.0,2461
1905,2136905,16868,896,1096,16927.30,25.09,-1.00,-1.0,2374
1908,2136908,16988,820,1100,17043.31,25.24,-1.00,-1.0,2444
1911,2136911,17012,828,1036,17063.62,25.19,-1.00,-1.0,2371
1913,2136913,16952,888,1200,17017.60,25.14,-1.00,-1.0,2374
1916,2136916,16980,936,1192,17047.50,25.19,-1.00,-1.0,2448
1919,2136919,16976,872,1104,17034.19,25.14,-1.00,-1.0,2375
1922,2136922,17008,824,1224,17071.88,25.19,-1.00,-1.0,2442
1925,2136925,16956,836,1148,17015.37,25.09,-1.00,-1.0,2372
1929,2136929,16932,964,1276,17007.35,25.24,-1.00,-1.0,2453
1932,2136932,16984,812,1128,17040.77,25.19,-1.00,-1.0,2373
1935,2136935,17024,928,1124,17086.29,25.14,-1.00,-1.0,2443
1938,2136938,16920,960,1260,16993.99,25.14,-1.00,-1.0,2379
1940,2136940,16880,832,1264,16947.69,25.24,-1.00,-1.0,2449
1943,2136943,17060,876,1220,17125.99,25.24,-1.00,-1.0,2373
1946,2136946,16956,872,1184,17019.64,25.24,-1.00,-1.0,2456
1949,2136949,16976,836,1228,17040.88,25.14,-1.00,-1.0,2373
1951,2136951,16916,852,1180,16978.50,25.14,-1.00,-1.0,2375
1956,2136956,17000,800,1200,17061.07,25.19,-1.00,-1.0,2457
1959,2136959,17004,932,1164,17069.26,25.19,-1.00,-1.0,2383
1962,2136962,16940,888,1172,17003.70,25.19,-1.00,-1.0,2444
1965,2136965,16956,800,1132,17012.56,25.19,-1.00,-1.0,2358
1968,2136968,16944,896,1092,17002.78,25.09,-1.00,-1.0,2441
1970,2136970,16924,880,1380,17002.96,25.19,-1.00,-1.0,2380
1973,2136973,17000,908,1236,17069.04,25.24,-1.00,-1.0,2444
1976,2136976,17028,896,1208,17094.29,25.19,-1.00,-1.0,2373
1981,2136981,16888,864,1156,16949.55,25.19,-1.00,-1.0,2455
1984,2136984,16976,888,1152,17038.20,25.19,-1.00,-1.0,2376
1986,2136986,16968,936,1224,17037.82,25.14,-1.00,-1.0,2443
1989,2136989,17008,920,1004,17062.43,25.14,-1.00,-1.0,2372
1992,2136992,16964,920,1176,17029.58,25.24,-1.00,-1.0,2370
1994,2136994,17036,880,1292,17107.57,25.09,-1.00,-1.0,2459
1997,2136997,16992,884,1172,17055.29,25.09,-1.00,-1.0,2381
2000,2137000,16960,960,1240,17032.35,25.09,-1.00,-1.0,2452
2003,2137003,17020,780,1152,17076.77,25.19,-1.00,-1.0,2376
2008,2137008,16864,884,1320,16938.66,25.09,-1.00,-1.0,2456
2010,2137010,16980,828,1140,17038.36,25.19,-1.00,-1.0,2381
2013,2137013,16964,744,1264,17027.29,25.14,-1.00,-1.0,2445
2016,2137016,17068,812,1344,17140.08,25.19,-1.00,-1.0,2375
2019,2137019,16932,816,1176,16992.39,25.14,-1.00,-1.0,2442
2022,2137022,16944,960,1052,17003.75,25.19,-1.00,-1.0,2373
2024,2137024,16964,860,1260,17032.46,25.24,-1.00,-1.0,2442
2027,2137027,17056,972,1140,17121.67,25.24,-1.00,-1.0,2373
2030,2137030,16992,836,1272,17060.04,25.14,-1.00,-1.0,2375
2035,2137035,17052,920,1000,17106.05,25.24,-1.00,-1.0,2456
2037,2137037,16940,836,1116,16997.29,25.24,-1.00,-1.0,2362
2040,2137040,17008,840,1300,17078.28,25.09,-1.00,-1.0,2448
2043,2137043,17044,844,1284,17113.12,25.14,-1.00,-1.0,2373
2046,2137046,16956,944,1164,17022.10,25.19,-1.00,-1.0,2465
2048,2137048,17000,788,1092,17053.25,25.19,-1.00,-1.0,2381
2051,2137051,17008,928,1212,17076.36,25.24,-1.00,-1.0,2445
2054,2137054,16940,896,1212,17006.92,25.19,-1.00,-1.0,2388
2059,2137059,16988,788,1196,17048.27,25.24,-1.00,-1.0,2462
2062,2137062,16852,816,1192,16913.80,25.19,-1.00,-1.0,2378
2065,2137065,17028,800,1248,17092.40,25.14,-1.00,-1.0,2439
2067,2137067,16912,788,1268,16977.77,25.14,-1.00,-1.0,2382
2070,2137070,16980,840,1208,17043.63,25.14,-1.00,-1.0,2368
2073,2137073,17000,884,1196,17064.93,25.19,-1.00,-1.0,2449
2075,2137075,16992,968,1260,17066.13,25.09,-1.00,-1.0,2374
2078,2137078,16948,828,1276,17016.12,25.19,-1.00,-1.0,2460
2081,2137081,17008,832,1228,17072.56,25.19,-1.00,-1.0,2381
2086,2137086,17016,840,1316,17087.47,25.19,-1.00,-1.0,2453
2089,2137089,16980,800,1196,17040.86,25.09,-1.00,-1.0,2369
2092,2137092,16992,880,1112,17051.07,25.05,-1.00,-1.0,2458
2094,2137094,16956,780,1176,17014.62,25.19,-1.00,-1.0,2374
2097,2137097,17012,792,1076,17064.38,25.14,-1.00,-1.0,2448
2100,2137100,16872,932,1244,16943.45,25.14,-1.00,-1.0,2377
2102,2137102,16928,788,1072,16980.20,25.14,-1.00,-1.0,2369
2105,2137105,16940,900,1240,17009.15,25.19,-1.00,-1.0,2441
2108,2137108,16992,796,1288,17059.33,25.14,-1.00,-1.0,2374
2113,2137113,16968,876,1132,17028.27,25.09,-1.00,-1.0,2453
2115,2137115,16928,868,1112,16986.68,25.19,-1.00,-1.0,2374
2118,2137118,16956,948,1108,17018.59,25.14,-1.00,-1.0,2460
2121,2137121,16976,904,1112,17036.38,25.19,-1.00,-1.0,2382
2124,2137124,16976,868,1296,17047.51,25.14,-1.00,-1.0,2429
2126,2137126,17036,780,1192,17095.46,25.24,-1.00,-1.0,2379
2129,2137129,16972,812,1212,17034.58,25.14,-1.00,-1.0,2446
2132,2137132,16980,876,1284,17050.99,25.14,-1.00,-1.0,2388
2137,2137137,16988,856,1132,17047.18,25.05,-1.00,-1.0,2452
2140,2137140,16920,864,1204,16984.77,25.09,-1.00,-1.0,2374
2142,2137142,16980,820,1096,17035.08,25.19,-1.00,-1.0,2371
2145,2137145,16988,844,1288,17057.65,25.14,-1.00,-1.0,2457
2148,2137148,16932,876,1272,17002.29,25.14,-1.00,-1.0,2381
2151,2137151,16976,840,1064,17030.04,25.14,-1.00,-1.0,2455
2153,2137153,16996,832,1188,17057.77,25.14,-1.00,-1.0,2382
2156,2137156,16896,852,1104,16953.45,25.09,-1.00,-1.0,2442
2159,2137159,17008,872,1092,17065.31,25.14,-1.00,-1.0,2376
2164,2137164,16984,872,1264,17053.28,25.14,-1.00,-1.0,2441
2166,2137166,17008,872,1152,17069.26,25.14,-1.00,-1.0,2383
2169,2137169,16988,912,1120,17049.29,25.19,-1.00,-1.0,2445
2172,2137172,17028,808,1156,17086.31,25.24,-1.00,-1.0,2368
2175,2137175,17032,928,1124,17094.26,25.09,-1.00,-1.0,2443
2178,2137178,17020,864,1304,17091.73,25.19,-1.00,-1.0,2371
2180,2137180,16940,860,1252,17007.96,25.19,-1.00,-1.0,2369
2183,2137183,16908,872,1144,16969.08,25.14,-1.00,-1.0,2442
2186,2137186,16952,768,1308,17019.72,25.24,-1.00,-1.0,2380
2191,2137191,16972,860,1112,17030.12,25.24,-1.00,-1.0,2460
2193,2137193,16964,944,1172,17030.62,25.14,-1.00,-1.0,2373
2196,2137196,16980,768,1172,17037.72,25.09,-1.00,-1.0,2453
2199,2137199,17028,796,1112,17082.83,25.14,-1.00,-1.0,2387
2202,2137202,16932,892,1224,16999.60,25.14,-1.00,-1.0,2444
2204,2137204,16924,936,1332,17002.12,25.24,-1.00,-1.0,2377
2207,2137207,17040,804,1160,17098.35,25.19,-1.00,-1.0,2444
2210,2137210,16996,844,1220,17060.62,25.19,-1.00,-1.0,2374
2215,2137215,17004,824,1164,17063.70,25.09,-1.00,-1.0,2454
2218,2137218,16996,856,1160,17057.03,25.14,-1.00,-1.0,2361
2220,2137220,17028,928,1224,17097.14,25.19,-1.00,-1.0,2370
2223,2137223,16988,836,1116,17045.13,25.14,-1.00,-1.0,2455
2226,2137226,17092,796,1244,17155.69,25.19,-1.00,-1.0,2374
2229,2137229,16932,860,1168,16994.01,25.14,-1.00,-1.0,2445
2231,2137231,16932,796,1016,16981.12,25.14,-1.00,-1.0,2371
2234,2137234,17084,804,1164,17142.47,25.14,-1.00,-1.0,2444
2237,2137237,16980,764,1112,17033.52,25.14,-1.00,-1.0,2372
2242,2137242,16936,920,1236,17005.95,25.14,-1.00,-1.0,2450
2245,2137245,16940,776,1232,17002.46,25.09,-1.00,-1.0,2372
2247,2137247,17044,896,1228,17111.65,25.14,-1.00,-1.0,2446
2250,2137250,16960,896,1188,17025.15,25.14,-1.00,-1.0,2373
2253,2137253,16940,812,1160,16999.07,25.24,-1.00,-1.0,2443
2256,2137256,17016,884,1256,17085.18,25.24,-1.00,-1.0,2379
2258,2137258,16960,884,1128,17020.44,25.19,-1.00,-1.0,2378
2261,2137261,17016,888,1124,17076.19,25.09,-1.00,-1.0,2450
2264,2137264,16984,848,1096,17040.44,25.09,-1.00,-1.0,2375
2269,2137269,17084,820,1172,17143.78,25.09,-1.00,-1.0,2455
2271,2137271,17096,780,1044,17145.60,25.19,-1.00,-1.0,2372
2274,2137274,16988,884,1224,17054.96,25.24,-1.00,-1.0,2443
2277,2137277,16916,876,1116,16975.39,25.19,-1.00,-1.0,2374
2280,2137280,16984,932,1204,17052.11,25.14,-1.00,-1.0,2442
2283,2137283,16896,876,1144,16957.33,25.19,-1.00,-1.0,2371
2285,2137285,16908,916,1348,16986.37,25.14,-1.00,-1.0,2443
2288,2137288,16908,844,1184,16970.41,25.14,-1.00,-1.0,2374
2293,2137293,16956,852,1252,17023.49,25.14,-1.00,-1.0,2452
2296,2137296,16972,952,1204,17041.27,25.14,-1.00,-1.0,2375
2298,2137298,17008,856,1252,17075.49,25.14,-1.00,-1.0,2369
2301,2137301,16984,892,1216,17050.82,25.19,-1.00,-1.0,2460
2304,2137304,16944,828,1180,17005.21,25.19,-1.00,-1.0,2374
2307,2137307,16948,884,1112,17007.43,25.19,-1.00,-1.0,2446
2309,2137309,16912,772,1272,16977.33,25.19,-1.00,-1.0,2382
2312,2137312,17020,948,1176,17086.90,25.14,-1.00,-1.0,2437
2315,2137315,17048,796,1068,17099.96,25.19,-1.00,-1.0,2388
2320,2137320,16952,952,1156,17018.02,25.14,-1.00,-1.0,2439
2323,2137323,17020,876,1180,17083.33,25.24,-1.00,-1.0,2373
2325,2137325,16960,740,1192,17017.93,25.14,-1.00,-1.0,2443
2328,2137328,17048,892,1168,17111.23,25.14,-1.00,-1.0,2374
2331,2137331,16948,824,1208,17010.96,25.09,-1.00,-1.0,2442
2334,2137334,16976,800,1200,17037.15,25.14,-1.00,-1.0,2372
2336,2137336,16996,856,1152,17056.49,25.19,-1.00,-1.0,2375
2339,2137339,16964,960,1316,17042.03,25.14,-1.00,-1.0,2436
2342,2137342,16992,860,1220,17057.43,25.14,-1.00,-1.0,2373
2347,2137347,16964,884,1216,17030.48,25.28,-1.00,-1.0,2458
2349,2137349,17016,820,1204,17078.24,25.19,-1.00,-1.0,2374
2352,2137352,17020,760,1304,17086.79,25.14,-1.00,-1.0,2447
2355,2137355,16952,884,1252,17021.14,25.14,-1.00,-1.0,2390
2358,2137358,16932,736,1260,16994.76,25.14,-1.00,-1.0,2443
2361,2137361,16916,812,1164,16975.43,25.14,-1.00,-1.0,2375
2363,2137363,17004,824,1040,17055.69,25.14,-1.00,-1.0,2443
2366,2137366,17108,872,1096,17165.23,25.14,-1.00,-1.0,2374
2371,2137371,17000,916,1172,17064.95,25.14,-1.00,-1.0,2457
2374,2137374,16988,904,1144,17050.46,25.14,-1.00,-1.0,2374
2376,2137376,16988,908,1240,17057.38,25.19,-1.00,-1.0,2368
2379,2137379,17024,896,1320,17098.59,25.19,-1.00,-1.0,2444
2382,2137382,16960,824,1196,17022.07,25.19,-1.00,-1.0,2374
2385,2137385,16868,884,1032,16922.64,25.14,-1.00,-1.0,2447
2387,2137387,17032,836,1216,17095.81,25.19,-1.00,-1.0,2373
2390,2137390,17096,760,1328,17164.34,25.14,-1.00,-1.0,2454
2393,2137393,16988,880,1184,17051.93,25.14,-1.00,-1.0,2381
2398,2137398,16952,884,1168,17015.17,25.05,-1.00,-1.0,2468
2401,2137401,16984,848,1408,17063.35,25.14,-1.00,-1.0,2381
2404,2137404,17048,812,1196,17109.18,25.14,-1.00,-1.0,2455
2406,2137406,16896,900,1268,16967.40,25.14,-1.00,-1.0,2382
2409,2137409,17024,884,1304,17096.74,25.19,-1.00,-1.0,2443
2412,2137412,17056,876,1136,17116.22,25.24,-1.00,-1.0,2374
2414,2137414,17052,812,1236,17116.01,25.19,-1.00,-1.0,2368
2417,2137417,16972,800,1228,17035.16,25.24,-1.00,-1.0,2445
2420,2137420,17008,836,1152,17067.46,25.05,-1.00,-1.0,2382
2425,2137425,16964,840,1192,17026.56,25.24,-1.00,-1.0,2452
2428,2137428,17012,844,1128,17070.23,25.14,-1.00,-1.0,2381
2431,2137431,17000,784,1304,17067.96,25.14,-1.00,-1.0,2454
2433,2137433,17008,896,1368,17086.44,25.14,-1.00,-1.0,2383
2436,2137436,17028,900,1100,17087.21,25.19,-1.00,-1.0,2444
2439,2137439,17020,852,1212,17084.36,25.24,-1.00,-1.0,2374
2442,2137442,16984,872,1352,17060.03,25.19,-1.00,-1.0,2443
2444,2137444,17020,932,1120,17082.25,25.09,-1.00,-1.0,2376
2449,2137449,16952,792,1080,17004.82,25.09,-1.00,-1.0,2456
2452,2137452,16932,836,1164,16992.54,25.19,-1.00,-1.0,2375
2455,2137455,17004,820,1176,17064.33,25.28,-1.00,-1.0,2377
2457,2137457,16928,844,1212,16992.31,25.24,-1.00,-1.0,2443
2460,2137460,17020,812,1296,17088.57,25.14,-1.00,-1.0,2376
2463,2137463,16944,840,1164,17004.70,25.14,-1.00,-1.0,2456
2466,2137466,16956,788,1184,17015.54,25.14,-1.00,-1.0,2380
2469,2137469,16896,856,1184,16959.05,25.14,-1.00,-1.0,2455
2471,2137471,17000,840,1236,17065.56,25.14,-1.00,-1.0,2385
2478,2137478,16932,872,1264,17001.49,25.24,-1.00,-1.0,2459
2481,2137481,16932,812,1128,16988.95,25.14,-1.00,-1.0,2382
2484,2137484,16912,940,1068,16971.74,25.24,-1.00,-1.0,2451
2486,2137486,17008,916,1180,17073.47,25.14,-1.00,-1.0,2373
2489,2137489,17012,948,1224,17082.30,25.09,-1.00,-1.0,2372
2492,2137492,16972,704,1244,17032.09,25.09,-1.00,-1.0,2442
2495,2137495,16888,856,1148,16948.60,25.19,-1.00,-1.0,2371
2497,2137497,16988,852,1232,17053.91,25.14,-1.00,-1.0,2443
2500,2137500,16924,932,1116,16986.34,25.19,-1.00,-1.0,2374
2505,2137505,16940,788,1104,16994.21,25.09,-1.00,-1.0,2451
2508,2137508,16964,876,1204,17029.22,25.09,-1.00,-1.0,2375
2511,2137511,16868,796,1144,16925.48,25.24,-1.00,-1.0,2451
2513,2137513,16984,856,1260,17052.17,25.19,-1.00,-1.0,2373
2516,2137516,17004,860,1264,17072.59,25.14,-1.00,-1.0,2442
2519,2137519,17004,904,1164,17067.75,25.14,-1.00,-1.0,2373
2522,2137522,16944,828,1248,17010.06,25.14,-1.00,-1.0,2453
2524,2137524,16996,840,1332,17068.80,25.14,-1.00,-1.0,2373
2527,2137527,16920,828,1216,16983.83,25.19,-1.00,-1.0,2385
2533,2137533,16932,896,1124,16992.90,25.19,-1.00,-1.0,2455
2535,2137535,17036,908,1332,17112.10,25.09,-1.00,-1.0,2380
2538,2137538,16956,816,1076,17009.69,25.14,-1.00,-1.0,2430
2541,2137541,16988,796,1232,17051.21,25.09,-1.00,-1.0,2375
2544,2137544,16996,768,1336,17065.72,25.14,-1.00,-1.0,2444
2546,2137546,17164,892,1180,17227.62,25.14,-1.00,-1.0,2373
2549,2137549,17068,916,1272,17139.83,25.14,-1.00,-1.0,2442
2552,2137552,17004,888,1180,17068.01,25.14,-1.00,-1.0,2374
2557,2137557,16872,944,1144,16937.07,25.19,-1.00,-1.0,2457
2559,2137559,16976,788,1240,17039.46,25.14,-1.00,-1.0,2376
2562,2137562,16928,900,1288,17000.77,25.19,-1.00,-1.0,2451
2565,2137565,16972,816,1148,17030.34,25.09,-1.00,-1.0,2388
2568,2137568,16948,848,1220,17013.00,25.14,-1.00,-1.0,2369
2570,2137570,17040,948,1284,17114.58,25.14,-1.00,-1.0,2441
2573,2137573,16948,908,1252,17018.42,25.14,-1.00,-1.0,2384
2576,2137576,16980,872,1168,17042.45,25.19,-1.00,-1.0,2442
2579,2137579,17044,832,1124,17101.27,25.14,-1.00,-1.0,2381
2584,2137584,17016,840,1296,17085.94,25.14,-1.00,-1.0,2459
2586,2137586,16928,836,1212,16991.91,25.14,-1.00,-1.0,2375
2589,2137589,16952,876,1192,17016.42,25.09,-1.00,-1.0,2445
2592,2137592,16932,920,1132,16994.72,25.14,-1.00,-1.0,2374
2595,2137595,16976,932,1208,17044.43,25.19,-1.00,-1.0,2448
2597,2137597,17052,792,1144,17108.67,25.24,-1.00,-1.0,2374
2600,2137600,16956,844,1332,17029.17,25.09,-1.00,-1.0,2453
2603,2137603,16916,788,1044,16966.49,25.28,-1.00,-1.0,2381
2606,2137606,16972,912,1276,17044.32,25.05,-1.00,-1.0,2368
2611,2137611,16888,800,1144,16945.60,25.14,-1.00,-1.0,2456
2613,2137613,16944,772,1212,17004.82,25.14,-1.00,-1.0,2382
2616,2137616,16912,884,1280,16983.39,25.24,-1.00,-1.0,2431
2619,2137619,16944,880,1172,17007.27,25.14,-1.00,-1.0,2374
2622,2137622,17012,896,1032,17066.81,25.14,-1.00,-1.0,2445
2624,2137624,16932,776,1208,16992.77,25.14,-1.00,-1.0,2373
2627,2137627,17004,836,1324,17075.95,25.19,-1.00,-1.0,2442
2630,2137630,16984,988,1096,17047.98,25.14,-1.00,-1.0,2373
2635,2137635,16984,828,1232,17048.74,25.24,-1.00,-1.0,2453
2638,2137638,16980,712,1100,17030.48,25.14,-1.00,-1.0,2374
2640,2137640,17060,840,1092,17115.54,25.24,-1.00,-1.0,2442
2643,2137643,17000,836,1168,17060.57,25.14,-1.00,-1.0,2373
2646,2137646,17000,820,1200,17062.02,25.28,-1.00,-1.0,2364
2648,2137648,17024,776,1108,17077.66,25.24,-1.00,-1.0,2457
2651,2137651,16956,940,1296,17031.42,25.09,-1.00,-1.0,2380
2654,2137654,16932,796,1056,16983.56,25.05,-1.00,-1.0,2452
2657,2137657,16948,936,1208,17016.76,25.14,-1.00,-1.0,2360
2662,2137662,16968,836,1188,17030.07,25.09,-1.00,-1.0,2460
2664,2137664,16972,928,1168,17037.44,25.19,-1.00,-1.0,2375
2667,2137667,16944,788,1184,17003.59,25.14,-1.00,-1.0,2452
2670,2137670,17012,880,1140,17072.85,25.24,-1.00,-1.0,2388
2673,2137673,17004,900,1060,17060.76,25.14,-1.00,-1.0,2442
2675,2137675,16984,884,1060,17039.99,25.14,-1.00,-1.0,2378
2678,2137678,16956,900,1140,17018.09,25.14,-1.00,-1.0,2441
2681,2137681,16916,864,1252,16984.26,25.14,-1.00,-1.0,2373
2684,2137684,17032,924,1236,17101.77,25.09,-1.00,-1.0,2375
2689,2137689,17052,896,1220,17119.05,25.09,-1.00,-1.0,2453
2691,2137691,17036,848,1104,17092.78,25.14,-1.00,-1.0,2375
2694,2137694,16976,868,1148,17036.90,25.19,-1.00,-1.0,2445
2697,2137697,17040,884,1212,17105.91,25.19,-1.00,-1.0,2373
2700,2137700,17012,784,1188,17071.44,25.14,-1.00,-1.0,2450
2702,2137702,16944,844,1364,17019.75,25.19,-1.00,-1.0,2374
2705,2137705,16988,924,1128,17050.46,25.24,-1.00,-1.0,2466
2708,2137708,17020,904,1196,17085.90,25.05,-1.00,-1.0,2382
2713,2137713,17052,860,1132,17111.16,25.14,-1.00,-1.0,2452
2716,2137716,16996,884,1228,17063.22,25.24,-1.00,-1.0,2383
2719,2137719,16880,812,1212,16942.92,25.14,-1.00,-1.0,2454
2721,2137721,16912,860,1220,16977.74,25.24,-1.00,-1.0,2383
2724,2137724,16984,876,1200,17048.86,25.19,-1.00,-1.0,2357
2727,2137727,16952,824,1268,17019.32,25.09,-1.00,-1.0,2445
2729,2137729,16972,832,1152,17031.39,25.28,-1.00,-1.0,2374
2732,2137732,17016,872,1044,17070.28,25.19,-1.00,-1.0,2442
2735,2137735,16916,852,1164,16977.39,25.19,-1.00,-1.0,2373
2740,2137740,16996,868,1216,17061.54,25.05,-1.00,-1.0,2463
2742,2137742,16976,896,964,17026.94,25.24,-1.00,-1.0,2375
2745,2137745,16972,824,1112,17028.34,25.05,-1.00,-1.0,2453
2748,2137748,16964,828,1168,17024.31,25.14,-1.00,-1.0,2380
2751,2137751,16976,764,1140,17031.38,25.19,-1.00,-1.0,2459
2753,2137753,17076,884,1044,17130.71,25.28,-1.00,-1.0,2372
2756,2137756,16896,832,1168,16956.75,25.19,-1.00,-1.0,2442
2759,2137759,16956,856,1284,17026.08,25.19,-1.00,-1.0,2374
2762,2137762,17052,888,1112,17111.28,25.14,-1.00,-1.0,2375
2766,2137766,16940,948,1352,17020.29,25.14,-1.00,-1.0,2455
2769,2137769,16976,768,1272,17040.90,25.14,-1.00,-1.0,2380
2772,2137772,16992,796,1124,17047.73,25.09,-1.00,-1.0,2453
2775,2137775,17080,908,1096,17139.20,25.19,-1.00,-1.0,2376
2778,2137778,16964,960,1164,17030.96,25.19,-1.00,-1.0,2451
2780,2137780,17044,936,1372,17124.73,25.09,-1.00,-1.0,2382
2783,2137783,16916,900,1080,16974.32,25.19,-1.00,-1.0,2430
2786,2137786,17036,752,1152,17091.46,25.09,-1.00,-1.0,2374
2791,2137791,17040,880,1124,17099.69,25.19,-1.00,-1.0,2456
2794,2137794,16992,820,1284,17060.16,25.19,-1.00,-1.0,2375
2796,2137796,16924,876,1108,16982.84,25.24,-1.00,-1.0,2444
2799,2137799,16968,852,1120,17026.25,25.19,-1.00,-1.0,2373
2802,2137802,16884,972,1208,16955.04,25.05,-1.00,-1.0,2371
2804,2137804,16952,952,1232,17023.35,25.19,-1.00,-1.0,2458
2807,2137807,16964,984,1124,17029.65,25.14,-1.00,-1.0,2378
2810,2137810,16972,924,1228,17041.44,25.09,-1.00,-1.0,2452
2813,2137813,17004,884,1272,17074.41,25.19,-1.00,-1.0,2361
2818,2137818,17024,820,1416,17102.46,25.09,-1.00,-1.0,2462
2820,2137820,17004,940,1116,17066.49,25.09,-1.00,-1.0,2383
2823,2137823,17024,884,1300,17096.43,25.09,-1.00,-1.0,2447
2826,2137826,17000,868,1268,17069.31,25.09,-1.00,-1.0,2375
2829,2137829,16996,848,1320,17068.26,25.24,-1.00,-1.0,2443
2832,2137832,16972,984,1160,17040.03,25.09,-1.00,-1.0,2376
2834,2137834,16996,908,1184,17061.37,25.24,-1.00,-1.0,2369
2837,2137837,17040,880,1068,17096.10,25.19,-1.00,-1.0,2442
2840,2137840,16940,824,1260,17006.77,25.14,-1.00,-1.0,2380
2845,2137845,16888,908,1084,16947.10,25.14,-1.00,-1.0,2460
2847,2137847,17032,968,1192,17101.08,25.24,-1.00,-1.0,2372
2850,2137850,17032,892,1176,17095.84,25.09,-1.00,-1.0,2465
2853,2137853,16976,812,1300,17045.05,25.19,-1.00,-1.0,2381
2856,2137856,17004,876,1196,17068.50,25.19,-1.00,-1.0,2432
2858,2137858,16964,840,1240,17029.99,25.19,-1.00,-1.0,2380
2861,2137861,17024,928,1188,17090.62,25.14,-1.00,-1.0,2447
2864,2137864,16976,864,1224,17041.98,25.09,-1.00,-1.0,2383
2869,2137869,17004,868,1340,17078.79,25.19,-1.00,-1.0,2464
2872,2137872,17052,860,1208,17116.35,25.19,-1.00,-1.0,2378
2874,2137874,16932,872,1104,16990.35,25.14,-1.00,-1.0,2369
2877,2137877,17028,872,1076,17084.23,25.14,-1.00,-1.0,2456
2880,2137880,17116,868,1064,17170.99,25.14,-1.00,-1.0,2373
2883,2137883,16980,884,1288,17051.71,25.09,-1.00,-1.0,2451
2885,2137885,17048,740,1088,17098.70,25.19,-1.00,-1.0,2374
2888,2137888,17028,896,1192,17093.17,25.19,-1.00,-1.0,2460
2891,2137891,16988,908,1024,17043.04,25.09,-1.00,-1.0,2381
2896,2137896,17004,828,1140,17062.27,25.19,-1.00,-1.0,2451
2899,2137899,16996,864,1144,17056.36,25.09,-1.00,-1.0,2380
2902,2137902,17052,796,1280,17118.49,25.24,-1.00,-1.0,2456
2904,2137904,17064,900,1156,17126.78,25.14,-1.00,-1.0,2383
2907,2137907,17020,836,1288,17089.13,25.24,-1.00,-1.0,2444
2910,2137910,17068,936,1100,17129.00,25.05,-1.00,-1.0,2374
2912,2137912,17032,1000,1272,17108.68,25.24,-1.00,-1.0,2367
2915,2137915,17008,852,1152,17068.25,25.09,-1.00,-1.0,2447
2918,2137918,17000,812,1112,17055.67,25.19,-1.00,-1.0,2372
2923,2137923,16956,892,1116,17016.08,25.19,-1.00,-1.0,2457
2926,2137926,16964,800,1052,17015.40,25.19,-1.00,-1.0,2375
2928,2137928,16984,848,1268,17052.37,25.09,-1.00,-1.0,2445
2931,2137931,17024,780,1112,17078.10,25.19,-1.00,-1.0,2375
2934,2137934,16928,876,1192,16992.51,25.14,-1.00,-1.0,2457
2937,2137937,16964,788,1188,17023.79,25.19,-1.00,-1.0,2377
2940,2137940,16896,828,1176,16957.10,25.24,-1.00,-1.0,2459
2942,2137942,16980,852,1256,17047.69,25.14,-1.00,-1.0,2381
2947,2137947,16936,920,1184,17002.25,25.14,-1.00,-1.0,2452
2950,2137950,16976,800,1288,17043.58,25.14,-1.00,-1.0,2373
2952,2137952,16956,856,1252,17023.70,25.09,-1.00,-1.0,2371
2955,2137955,17064,832,1224,17128.06,25.24,-1.00,-1.0,2459
2958,2137958,16912,828,1272,16979.97,25.14,-1.00,-1.0,2382
2961,2137961,17000,812,1224,17063.34,25.33,-1.00,-1.0,2446
2963,2137963,17048,840,1220,17112.23,25.24,-1.00,-1.0,2377
2966,2137966,17000,852,1204,17063.87,25.09,-1.00,-1.0,2459
2969,2137969,16928,872,1088,16985.33,25.14,-1.00,-1.0,2374
2974,2137974,16972,872,1284,17042.82,25.09,-1.00,-1.0,2451
2977,2137977,17040,864,1232,17106.31,25.19,-1.00,-1.0,2373
2979,2137979,17028,848,1288,17097.69,25.24,-1.00,-1.0,2444
2982,2137982,16992,936,1192,17059.46,25.19,-1.00,-1.0,2375
2985,2137985,17036,896,1116,17096.01,25.14,-1.00,-1.0,2457
2988,2137988,17000,804,1260,17065.58,25.14,-1.00,-1.0,2379
2990,2137990,17060,812,1304,17129.02,25.14,-1.00,-1.0,2370
2993,2137993,16940,896,1120,17000.61,25.19,-1.00,-1.0,2444
2996,2137996,16972,812,1232,17036.02,25.09,-1.00,-1.0,2376
3001,2138001,17076,916,1160,17139.85,25.19,-1.00,-1.0,2454
3004,2138004,16980,872,1208,17045.23,25.24,-1.00,-1.0,2374
3006,2138006,16924,776,1164,16981.72,25.19,-1.00,-1.0,2443
3009,2138009,16932,948,1252,17004.67,25.14,-1.00,-1.0,2374
3012,2138012,16984,920,1228,17053.17,25.19,-1.00,-1.0,2453
3015,2138015,16984,800,1160,17042.36,25.09,-1.00,-1.0,2371
3017,2138017,16924,892,1232,16992.21,25.24,-1.00,-1.0,2443
3020,2138020,17060,848,1112,17117.22,25.09,-1.00,-1.0,2374
3025,2138025,16996,796,1252,17060.63,25.09,-1.00,-1.0,2452
3028,2138028,16984,872,1176,17046.98,25.19,-1.00,-1.0,2374
3030,2138030,16996,864,1064,17051.18,25.14,-1.00,-1.0,2369
3033,2138033,17044,900,1204,17110.16,25.09,-1.00,-1.0,2462
3036,2138036,16992,868,1240,17059.28,25.14,-1.00,-1.0,2390
3039,2138039,17000,772,1188,17058.94,25.19,-1.00,-1.0,2443
3041,2138041,16992,872,1348,17067.68,25.19,-1.00,-1.0,2369
3044,2138044,17004,864,1092,17060.92,25.19,-1.00,-1.0,2443
3047,2138047,17064,856,1236,17130.11,25.19,-1.00,-1.0,2376
3052,2138052,16976,768,1096,17028.67,25.24,-1.00,-1.0,2448
3055,2138055,16932,796,1192,16992.56,25.24,-1.00,-1.0,2362
3058,2138058,16944,892,1112,17003.86,25.19,-1.00,-1.0,2469
3060,2138060,16896,800,1188,16956.60,25.19,-1.00,-1.0,2377
3063,2138063,17052,816,1264,17118.24,25.14,-1.00,-1.0,2442
3066,2138066,16924,792,1340,16995.43,25.09,-1.00,-1.0,2373
3068,2138068,16984,768,1240,17046.52,25.24,-1.00,-1.0,2368
3071,2138071,16948,848,1176,17009.90,25.09,-1.00,-1.0,2461
3074,2138074,17004,920,1168,17068.88,25.14,-1.00,-1.0,2382
3079,2138079,17044,856,1052,17097.88,25.14,-1.00,-1.0,2451
3082,2138082,16968,860,1184,17030.99,25.14,-1.00,-1.0,2380
3084,2138084,17056,864,1180,17118.59,25.09,-1.00,-1.0,2460
3087,2138087,16884,828,1068,16937.99,25.19,-1.00,-1.0,2381
3090,2138090,17064,888,1140,17125.08,25.19,-1.00,-1.0,2453
3093,2138093,17016,832,1124,17073.37,25.19,-1.00,-1.0,2376
3096,2138096,17028,856,1208,17092.24,25.14,-1.00,-1.0,2451
3098,2138098,17028,832,1104,17084.02,25.19,-1.00,-1.0,2381
3103,2138103,17008,880,1264,17077.59,25.19,-1.00,-1.0,2467
3106,2138106,17056,972,1204,17126.05,25.09,-1.00,-1.0,2377
3109,2138109,16972,920,1076,17030.94,25.14,-1.00,-1.0,2370
3111,2138111,16944,836,1220,17008.42,25.19,-1.00,-1.0,2445
3114,2138114,17020,824,1160,17079.37,25.14,-1.00,-1.0,2374
3117,2138117,17008,880,1236,17075.54,25.14,-1.00,-1.0,2448
3120,2138120,17064,828,1184,17125.06,25.05,-1.00,-1.0,2375
3122,2138122,16896,856,1084,16952.36,25.09,-1.00,-1.0,2459
3125,2138125,16992,820,1304,17061.68,25.09,-1.00,-1.0,2379
3130,2138130,16972,836,1304,17042.54,25.09,-1.00,-1.0,2455
3133,2138133,17060,888,1044,17114.97,25.24,-1.00,-1.0,2373
3136,2138136,17060,892,1308,17133.30,25.09,-1.00,-1.0,2446
3138,2138138,16948,900,1304,17021.90,25.09,-1.00,-1.0,2381
3141,2138141,17032,888,1100,17090.57,25.05,-1.00,-1.0,2447
3144,2138144,16988,856,1252,17055.57,25.09,-1.00,-1.0,2388
3147,2138147,16904,940,1208,16973.16,25.24,-1.00,-1.0,2376
3149,2138149,16964,924,1204,17031.76,25.09,-1.00,-1.0,2445
3152,2138152,16948,852,1140,17007.65,25.14,-1.00,-1.0,2374
3157,2138157,16976,804,1176,17035.67,25.09,-1.00,-1.0,2466
3160,2138160,16964,844,1056,17017.78,25.19,-1.00,-1.0,2382
3163,2138163,17028,712,1216,17086.21,25.24,-1.00,-1.0,2456
3165,2138165,16888,924,1116,16950.04,25.14,-1.00,-1.0,2381
3168,2138168,17000,864,1400,17079.42,25.14,-1.00,-1.0,2442
3171,2138171,17000,952,1192,17068.31,25.05,-1.00,-1.0,2373
3174,2138174,16924,876,1224,16990.80,25.14,-1.00,-1.0,2450
3176,2138176,17032,836,1196,17094.39,25.14,-1.00,-1.0,2373
3181,2138181,17004,816,1160,17063.04,25.19,-1.00,-1.0,2451
3184,2138184,17024,944,1268,17097.24,25.14,-1.00,-1.0,2374
3186,2138186,16988,852,1280,17057.45,25.14,-1.00,-1.0,2373
3189,2138189,16980,984,1164,17048.27,25.14,-1.00,-1.0,2446
3192,2138192,17060,768,1144,17115.55,25.14,-1.00,-1.0,2363
3195,2138195,16944,800,1084,16997.48,25.14,-1.00,-1.0,2443
3198,2138198,16912,848,1240,16978.59,25.14,-1.00,-1.0,2371
3200,2138200,17044,848,1308,17115.14,25.19,-1.00,-1.0,2443
3203,2138203,16996,876,1228,17062.81,25.14,-1.00,-1.0,2374
3208,2138208,17024,896,1056,17080.24,25.14,-1.00,-1.0,2450
3211,2138211,17028,784,1104,17081.75,25.24,-1.00,-1.0,2375
3214,2138214,16980,800,1324,17050.32,25.19,-1.00,-1.0,2450
3216,2138216,17032,904,1088,17090.64,25.19,-1.00,-1.0,2374
3219,2138219,17028,828,1144,17086.46,25.09,-1.00,-1.0,2446
3222,2138222,17068,892,1156,17130.34,25.24,-1.00,-1.0,2373
3224,2138224,17004,884,1288,17075.61,25.14,-1.00,-1.0,2374
3227,2138227,16932,856,1188,16995.20,25.05,-1.00,-1.0,2446
3230,2138230,16948,800,1220,17010.68,25.14,-1.00,-1.0,2388
3235,2138235,16988,864,1204,17052.52,25.14,-1.00,-1.0,2471
3238,2138238,17032,848,1144,17091.43,25.14,-1.00,-1.0,2378
3241,2138241,17020,848,1212,17084.16,25.19,-1.00,-1.0,2451
3243,2138243,16984,856,1292,17054.57,25.24,-1.00,-1.0,2376
3246,2138246,17024,1004,1180,17094.36,25.09,-1.00,-1.0,2430
3249,2138249,16944,884,1248,17012.88,25.24,-1.00,-1.0,2374
3252,2138252,16992,936,1136,17055.63,25.09,-1.00,-1.0,2445
3254,2138254,16872,908,1104,16932.44,25.19,-1.00,-1.0,2374
3259,2138259,16920,864,1080,16976.43,25.19,-1.00,-1.0,2453
3262,2138262,16940,912,1348,17018.00,25.19,-1.00,-1.0,2373
3265,2138265,16960,776,1220,17021.52,25.09,-1.00,-1.0,2374
3267,2138267,17024,848,1192,17086.74,25.05,-1.00,-1.0,2460
3270,2138270,17016,808,1248,17080.83,25.14,-1.00,-1.0,2378
3273,2138273,16940,840,1160,17000.44,25.14,-1.00,-1.0,2450
3276,2138276,16940,840,1272,17008.45,25.14,-1.00,-1.0,2376
3279,2138279,17056,828,1212,17119.04,25.09,-1.00,-1.0,2456
3281,2138281,16964,824,1136,17021.95,25.19,-1.00,-1.0,2381
3286,2138286,17004,852,1156,17064.53,25.19,-1.00,-1.0,2459
3289,2138289,16932,872,1128,16991.92,25.24,-1.00,-1.0,2361
3292,2138292,16932,804,1244,16996.66,25.09,-1.00,-1.0,2442
3295,2138295,16892,828,1176,16953.12,25.09,-1.00,-1.0,2373
3297,2138297,17000,872,1200,17064.59,25.09,-1.00,-1.0,2373
3300,2138300,16940,920,1220,17008.77,25.14,-1.00,-1.0,2441
3303,2138303,17040,852,1168,17101.22,25.24,-1.00,-1.0,2381
3305,2138305,16904,888,1060,16960.46,25.14,-1.00,-1.0,2446
3308,2138308,16960,868,1228,17026.54,25.14,-1.00,-1.0,2377
3313,2138313,16972,876,1288,17043.33,25.14,-1.00,-1.0,2455
3316,2138316,16956,892,1320,17030.68,25.14,-1.00,-1.0,2376
3319,2138319,17024,828,1268,17091.22,25.14,-1.00,-1.0,2449
3321,2138321,17052,768,1192,17110.86,25.14,-1.00,-1.0,2382
3324,2138324,17028,808,1208,17089.91,25.19,-1.00,-1.0,2446
3327,2138327,16956,880,1212,17022.02,25.09,-1.00,-1.0,2381
3330,2138330,16840,864,1236,16907.39,25.19,-1.00,-1.0,2441
3333,2138333,17008,808,1152,17066.11,25.19,-1.00,-1.0,2375
3335,2138335,16960,832,1068,17013.95,25.24,-1.00,-1.0,2368
3340,2138340,17060,924,1148,17123.53,25.14,-1.00,-1.0,2457
3343,2138343,16924,844,1292,16994.22,25.24,-1.00,-1.0,2375
3346,2138346,16908,840,1168,16969.10,25.05,-1.00,-1.0,2449
3348,2138348,16988,876,1188,17052.00,25.14,-1.00,-1.0,2372
3351,2138351,17000,876,1164,17062.30,25.19,-1.00,-1.0,2462
3354,2138354,16964,900,1252,17033.93,25.14,-1.00,-1.0,2382
3357,2138357,16988,828,1148,17046.87,25.09,-1.00,-1.0,2431
3359,2138359,16924,904,1292,16997.30,25.09,-1.00,-1.0,2379
3365,2138365,16992,896,1176,17056.20,25.14,-1.00,-1.0,2458
3368,2138368,17040,888,1148,17101.70,25.14,-1.00,-1.0,2385
3371,2138371,17056,832,1244,17121.53,25.05,-1.00,-1.0,2445
3373,2138373,16972,860,1168,17033.87,25.05,-1.00,-1.0,2373
3376,2138376,17060,848,1060,17113.92,25.19,-1.00,-1.0,2374
3379,2138379,17020,808,1176,17079.70,25.19,-1.00,-1.0,2444
3381,2138381,16908,884,1352,16984.99,25.19,-1.00,-1.0,2383
3384,2138384,16992,892,1128,17052.74,25.14,-1.00,-1.0,2442
3387,2138387,17032,868,1204,17096.55,25.19,-1.00,-1.0,2373
3392,2138392,16932,840,1272,17000.48,25.14,-1.00,-1.0,2453
3395,2138395,17064,856,1224,17129.24,25.14,-1.00,-1.0,2382
3397,2138397,16976,924,1264,17048.05,25.19,-1.00,-1.0,2443
3400,2138400,17048,856,1188,17110.77,25.19,-1.00,-1.0,2373
3403,2138403,16888,872,1160,16950.24,25.19,-1.00,-1.0,2453
3406,2138406,16928,800,1076,16981.02,25.09,-1.00,-1.0,2382
3409,2138409,16932,900,1268,17003.25,25.14,-1.00,-1.0,2450
3411,2138411,16884,896,1248,16953.75,25.09,-1.00,-1.0,2383
3414,2138414,16952,884,1240,17020.26,25.24,-1.00,-1.0,2371
3419,2138419,16992,848,1076,17047.14,25.24,-1.00,-1.0,2453
3422,2138422,16964,956,1372,17046.22,25.14,-1.00,-1.0,2374
3424,2138424,17088,868,1244,17155.20,25.14,-1.00,-1.0,2441
3427,2138427,16992,792,1184,17051.60,25.14,-1.00,-1.0,2373
3430,2138430,17064,916,1236,17133.21,25.19,-1.00,-1.0,2443
3433,2138433,16976,844,1200,17039.28,25.14,-1.00,-1.0,2372
3435,2138435,17084,940,1084,17144.14,25.19,-1.00,-1.0,2442
3438,2138438,17048,840,1124,17105.65,25.09,-1.00,-1.0,2373
3443,2138443,16984,892,1144,17045.84,25.09,-1.00,-1.0,2457
3446,2138446,17060,936,1168,17125.53,25.24,-1.00,-1.0,2376
3449,2138449,17060,864,1156,17120.94,25.09,-1.00,-1.0,2452
3451,2138451,16888,820,1180,16949.02,25.19,-1.00,-1.0,2373
3454,2138454,16964,892,1172,17027.82,25.14,-1.00,-1.0,2383
3457,2138457,16904,812,1080,16957.92,25.14,-1.00,-1.0,2444
3460,2138460,16980,836,1076,17034.58,25.14,-1.00,-1.0,2375
3462,2138462,16908,880,1304,16981.03,25.14,-1.00,-1.0,2441
3465,2138465,17024,780,1104,17077.58,25.14,-1.00,-1.0,2373
3470,2138470,16960,808,1200,17021.59,25.14,-1.00,-1.0,2461
3473,2138473,17028,880,1220,17094.31,25.14,-1.00,-1.0,2363
3476,2138476,17052,772,1196,17111.31,25.14,-1.00,-1.0,2437
3478,2138478,16940,980,1148,17007.11,25.24,-1.00,-1.0,2376
3481,2138481,17044,948,1336,17122.54,25.09,-1.00,-1.0,2443
3484,2138484,16928,904,1136,16990.14,25.24,-1.00,-1.0,2374
3487,2138487,17028,884,1128,17088.20,25.14,-1.00,-1.0,2445
3489,2138489,17008,900,1304,17081.64,25.14,-1.00,-1.0,2373
3492,2138492,16964,860,1272,17033.35,25.19,-1.00,-1.0,2369
3497,2138497,17028,900,1240,17096.79,25.09,-1.00,-1.0,2455
3500,2138500,17036,924,1120,17097.76,25.14,-1.00,-1.0,2373
3502,2138502,16948,856,1172,17010.03,25.19,-1.00,-1.0,2443
3505,2138505,17000,840,1128,17058.08,25.19,-1.00,-1.0,2376
3508,2138508,16940,748,1076,16990.61,25.24,-1.00,-1.0,2457
3511,2138511,16944,788,1188,17003.87,25.24,-1.00,-1.0,2382
3514,2138514,17028,872,1340,17102.89,25.14,-1.00,-1.0,2454
3516,2138516,17064,860,1236,17130.31,25.14,-1.00,-1.0,2383
3521,2138521,16976,888,1172,17039.56,25.05,-1.00,-1.0,2462
3524,2138524,17000,836,1104,17056.31,25.05,-1.00,-1.0,2381
3527,2138527,17028,960,1220,17098.62,25.14,-1.00,-1.0,2443
3529,2138529,16916,940,1176,16982.86,25.14,-1.00,-1.0,2380
3532,2138532,16988,896,1272,17059.10,25.09,-1.00,-1.0,2368
3535,2138535,17020,872,1112,17078.56,25.09,-1.00,-1.0,2443
3538,2138538,16984,856,1284,17053.96,25.09,-1.00,-1.0,2373
3540,2138540,17012,868,1112,17070.39,25.14,-1.00,-1.0,2442
3543,2138543,16972,856,1320,17044.76,25.19,-1.00,-1.0,2372
3548,2138548,16940,804,1112,16995.49,25.19,-1.00,-1.0,2456
3551,2138551,17040,792,1224,17102.25,25.19,-1.00,-1.0,2375
3554,2138554,16956,972,1200,17026.18,25.14,-1.00,-1.0,2454
3556,2138556,16972,952,1136,17036.60,25.09,-1.00,-1.0,2372
3559,2138559,16956,832,1112,17012.78,25.05,-1.00,-1.0,2457
3562,2138562,16964,896,1380,17043.61,25.14,-1.00,-1.0,2382
3565,2138565,16968,848,1212,17032.35,25.14,-1.00,-1.0,2429
3567,2138567,16984,940,1144,17048.42,25.14,-1.00,-1.0,2375
3570,2138570,17012,908,1352,17089.78,25.19,-1.00,-1.0,2367
3575,2138575,16976,836,1256,17042.92,25.09,-1.00,-1.0,2454
3578,2138578,17004,844,1328,17076.65,25.09,-1.00,-1.0,2375
3580,2138580,16948,876,1024,17001.49,25.14,-1.00,-1.0,2442
3583,2138583,16992,820,1180,17052.65,25.14,-1.00,-1.0,2379
3586,2138586,17012,892,1172,17075.64,25.14,-1.00,-1.0,2443
3589,2138589,16964,884,1100,17022.60,25.24,-1.00,-1.0,2383
3591,2138591,16960,800,1136,17016.82,25.14,-1.00,-1.0,2456
3594,2138594,16944,952,1220,17014.52,25.14,-1.00,-1.0,2376
3599,2138599,16944,920,1228,17013.33,25.09,-1.00,-1.0,2454
3602,2138602,16936,836,1284,17005.17,25.19,-1.00,-1.0,2376
3605,2138605,17044,860,1144,17103.98,25.14,-1.00,-1.0,2449
3607,2138607,16992,788,1176,17050.87,25.19,-1.00,-1.0,2372
3610,2138610,17140,836,1136,17197.94,25.14,-1.00,-1.0,2368
3613,2138613,16956,760,1112,17009.41,25.09,-1.00,-1.0,2450
3615,2138615,16892,840,1320,16964.30,25.14,-1.00,-1.0,2374
3618,2138618,17004,824,1176,17064.52,25.09,-1.00,-1.0,2454
3621,2138621,17076,876,1176,17138.85,25.09,-1.00,-1.0,2387
3626,2138626,16884,844,1148,16944.02,25.19,-1.00,-1.0,2463
3629,2138629,16972,944,1328,17050.03,25.19,-1.00,-1.0,2381
3632,2138632,16964,884,1056,17019.81,25.19,-1.00,-1.0,2452
3634,2138634,16904,924,1120,16966.24,25.19,-1.00,-1.0,2380
3637,2138637,16964,880,1188,17028.30,25.14,-1.00,-1.0,2442
3640,2138640,17020,872,1164,17082.03,25.19,-1.00,-1.0,2374
3643,2138643,16992,872,1204,17056.91,25.24,-1.00,-1.0,2450
3645,2138645,16860,876,1176,16923.65,25.24,-1.00,-1.0,2372
3648,2138648,16992,800,1112,17047.13,25.24,-1.00,-1.0,2367
3653,2138653,16992,864,1156,17053.18,25.24,-1.00,-1.0,2453
3656,2138656,16976,832,1140,17034.56,25.14,-1.00,-1.0,2382
3658,2138658,17048,824,1172,17108.09,25.09,-1.00,-1.0,2449
3661,2138661,16976,824,1208,17038.86,25.19,-1.00,-1.0,2375
3664,2138664,16952,848,1192,17015.00,25.09,-1.00,-1.0,2452
3667,2138667,16912,884,1148,16973.95,25.19,-1.00,-1.0,2381
3670,2138670,17052,832,1164,17111.92,25.14,-1.00,-1.0,2453
3672,2138672,16972,1024,1232,17047.44,25.09,-1.00,-1.0,2382
3677,2138677,17008,936,1296,17082.97,25.14,-1.00,-1.0,2460
3680,2138680,17064,880,1208,17129.32,25.09,-1.00,-1.0,2362
3683,2138683,17028,868,1276,17097.79,25.24,-1.00,-1.0,2443
3686,2138686,17028,812,1260,17093.85,25.14,-1.00,-1.0,2371
3688,2138688,16952,844,1120,17009.91,25.14,-1.00,-1.0,2371
3691,2138691,16976,836,1292,17045.61,25.19,-1.00,-1.0,2443
3694,2138694,17080,852,1112,17137.35,25.09,-1.00,-1.0,2381
3696,2138696,16968,784,1340,17038.88,25.09,-1.00,-1.0,2446
3699,2138699,17056,772,1240,17118.43,25.24,-1.00,-1.0,2414
3704,2138704,16992,740,1240,17053.25,25.14,-1.00,-1.0,2459
3707,2138707,16992,788,1164,17050.04,25.05,-1.00,-1.0,2372
3710,2138710,16908,980,1232,16981.13,25.19,-1.00,-1.0,2442
3713,2138713,16976,828,1276,17044.01,25.19,-1.00,-1.0,2379
3715,2138715,17000,800,1056,17051.54,25.09,-1.00,-1.0,2449
3718,2138718,16980,880,1244,17048.24,25.09,-1.00,-1.0,2376
3721,2138721,17016,840,1256,17082.96,25.24,-1.00,-1.0,2371
3724,2138724,17016,828,1216,17079.48,25.14,-1.00,-1.0,2441
3726,2138726,16984,952,1240,17055.79,25.24,-1.00,-1.0,2374
3731,2138731,16984,812,1252,17049.43,25.14,-1.00,-1.0,2452
3734,2138734,16960,796,1276,17026.55,25.14,-1.00,-1.0,2373
3737,2138737,17036,868,1244,17103.40,25.09,-1.00,-1.0,2444
3740,2138740,17052,904,1128,17113.16,25.14,-1.00,-1.0,2375
3742,2138742,16988,916,1176,17053.28,25.19,-1.00,-1.0,2443
3745,2138745,17000,876,1076,17056.53,25.09,-1.00,-1.0,2372
3748,2138748,17048,848,1128,17106.31,25.19,-1.00,-1.0,2443
3751,2138751,16972,872,1220,17038.12,25.19,-1.00,-1.0,2380
3756,2138756,16932,804,1196,16993.22,25.19,-1.00,-1.0,2458
3758,2138758,16944,924,1136,17007.16,25.14,-1.00,-1.0,2372
3761,2138761,16952,876,1288,17023.41,25.14,-1.00,-1.0,2383
3764,2138764,16912,928,1164,16977.39,25.14,-1.00,-1.0,2446
3766,2138766,16896,852,1140,16955.83,25.14,-1.00,-1.0,2376
3769,2138769,16868,848,1032,16920.80,25.14,-1.00,-1.0,2442
3772,2138772,17060,888,1244,17128.33,25.14,-1.00,-1.0,2373
3775,2138775,16980,784,1176,17038.72,25.09,-1.00,-1.0,2443
3778,2138778,16888,796,1148,16945.68,25.14,-1.00,-1.0,2372
3782,2138782,16948,872,1224,17014.50,25.09,-1.00,-1.0,2451
3785,2138785,16944,872,1216,17009.94,25.09,-1.00,-1.0,2372
3788,2138788,17044,764,1140,17099.16,25.24,-1.00,-1.0,2443
3791,2138791,16900,816,1176,16960.51,25.09,-1.00,-1.0,2379
3793,2138793,17000,860,1096,17056.99,25.24,-1.00,-1.0,2456
3796,2138796,16932,888,1120,16992.22,25.14,-1.00,-1.0,2375
3799,2138799,16988,840,1316,17059.59,25.24,-1.00,-1.0,2371
3802,2138802,16928,876,1188,16992.23,25.19,-1.00,-1.0,2450
3804,2138804,16992,924,1148,17055.78,25.05,-1.00,-1.0,2371
3809,2138809,16936,844,1268,17004.36,25.14,-1.00,-1.0,2454
3812,2138812,16996,928,1204,17063.85,25.19,-1.00,-1.0,2372
3815,2138815,16980,940,1036,17037.53,25.14,-1.00,-1.0,2450
3817,2138817,17076,892,1060,17132.11,25.14,-1.00,-1.0,2371
3820,2138820,16988,928,1120,17050.15,25.14,-1.00,-1.0,2453
3823,2138823,16972,872,1232,17038.98,25.24,-1.00,-1.0,2385
3826,2138826,16964,864,1080,17020.29,25.19,-1.00,-1.0,2443
3828,2138828,17008,884,1148,17069.61,25.24,-1.00,-1.0,2376
3833,2138833,17036,824,1156,17095.05,25.14,-1.00,-1.0,2459
3836,2138836,16888,888,1192,16953.29,25.14,-1.00,-1.0,2382
3839,2138839,17036,900,1080,17093.91,25.19,-1.00,-1.0,2357
3842,2138842,17028,916,1312,17103.02,25.19,-1.00,-1.0,2448
3844,2138844,16968,816,1216,17031.08,25.19,-1.00,-1.0,2372
3847,2138847,17072,860,1152,17132.42,25.14,-1.00,-1.0,2445
3850,2138850,17004,808,1236,17068.00,25.09,-1.00,-1.0,2372
3853,2138853,16936,836,1200,16999.03,25.14,-1.00,-1.0,2449
3855,2138855,17000,684,1236,17058.59,25.14,-1.00,-1.0,2374
3860,2138860,17000,932,1320,17076.62,25.14,-1.00,-1.0,2439
3863,2138863,16948,784,1204,17008.79,25.09,-1.00,-1.0,2370
3866,2138866,16912,940,1148,16976.96,25.14,-1.00,-1.0,2442
3869,2138869,17028,880,1200,17092.90,25.14,-1.00,-1.0,2379
3871,2138871,16944,808,1104,16999.14,25.24,-1.00,-1.0,2441
3874,2138874,17008,812,1200,17069.61,25.14,-1.00,-1.0,2373
3877,2138877,16936,848,1260,17003.96,25.09,-1.00,-1.0,2372
3880,2138880,16932,864,1356,17008.17,25.09,-1.00,-1.0,2450
3882,2138882,16832,832,1164,16892.70,25.19,-1.00,-1.0,2375
3887,2138887,17040,812,1180,17100.10,25.09,-1.00,-1.0,2461
3890,2138890,17000,860,1164,17061.49,25.09,-1.00,-1.0,2379
3893,2138893,16948,920,1024,17003.81,25.19,-1.00,-1.0,2442
3896,2138896,16964,808,1148,17021.99,25.09,-1.00,-1.0,2380
3898,2138898,16968,844,1292,17038.04,25.14,-1.00,-1.0,2442
3901,2138901,16900,808,1204,16962.09,25.14,-1.00,-1.0,2371
3904,2138904,16948,792,1216,17010.02,25.14,-1.00,-1.0,2442
3907,2138907,16940,896,1220,17007.49,25.14,-1.00,-1.0,2372
3912,2138912,16932,788,1196,16992.47,25.14,-1.00,-1.0,2451
3914,2138914,17008,880,1228,17074.96,25.05,-1.00,-1.0,2373
3917,2138917,16916,912,1252,16986.77,25.14,-1.00,-1.0,2369
3920,2138920,16888,952,1240,16960.20,25.28,-1.00,-1.0,2450
3922,2138922,16996,844,1264,17063.82,25.19,-1.00,-1.0,2372
3925,2138925,16992,904,1156,17055.25,25.19,-1.00,-1.0,2451
3928,2138928,17012,900,1140,17073.89,25.19,-1.00,-1.0,2385
3931,2138931,16972,944,1112,17034.57,25.14,-1.00,-1.0,2444
3933,2138933,16992,900,1232,17060.36,25.19,-1.00,-1.0,2371
3938,2138938,16968,796,1236,17031.57,25.09,-1.00,-1.0,2457
3941,2138941,17060,808,1168,17119.02,25.19,-1.00,-1.0,2380
3944,2138944,16936,956,1220,17006.78,25.14,-1.00,-1.0,2450
3947,2138947,16956,884,1244,17024.54,25.19,-1.00,-1.0,2372
3950,2138950,16984,964,1244,17056.76,25.14,-1.00,-1.0,2435
3952,2138952,17048,812,1148,17105.89,25.19,-1.00,-1.0,2378
3955,2138955,17084,872,1096,17141.31,25.14,-1.00,-1.0,2368
3958,2138958,16976,892,1120,17036.27,25.09,-1.00,-1.0,2449
3960,2138960,17000,840,1228,17064.98,25.05,-1.00,-1.0,2372
3965,2138965,16948,792,1200,17008.88,25.14,-1.00,-1.0,2450
3968,2138968,16964,860,1044,17017.84,25.14,-1.00,-1.0,2357
3971,2138971,16964,868,1268,17033.45,25.09,-1.00,-1.0,2444
3974,2138974,16976,916,1160,17040.22,25.14,-1.00,-1.0,2372
3976,2138976,17100,884,1296,17171.81,25.00,-1.00,-1.0,2441
3979,2138979,17068,980,1332,17147.92,25.24,-1.00,-1.0,2371
3982,2138982,16964,860,1348,17039.19,25.09,-1.00,-1.0,2458
3985,2138985,16952,908,1140,17014.53,25.19,-1.00,-1.0,2381
3990,2138990,17040,868,1324,17113.39,25.14,-1.00,-1.0,2458
3992,2138992,17028,908,1268,17099.27,25.14,-1.00,-1.0,2380
3995,2138995,16968,988,1068,17030.26,25.24,-1.00,-1.0,2369
3998,2138998,16952,876,1232,17019.27,25.19,-1.00,-1.0,2454
4000,2139000,16944,808,1212,17006.50,25.09,-1.00,-1.0,2373
4003,2139003,16960,912,1236,17029.42,25.14,-1.00,-1.0,2458
4006,2139006,16928,848,1116,16985.93,25.19,-1.00,-1.0,2380
4009,2139009,16924,888,1192,16989.15,25.14,-1.00,-1.0,2432
4011,2139011,17004,856,1424,17084.98,25.19,-1.00,-1.0,2377
4016,2139016,16932,868,1228,16998.65,25.14,-1.00,-1.0,2452
4019,2139019,17036,904,1200,17102.12,25.14,-1.00,-1.0,2373
4022,2139022,16960,876,1176,17023.28,25.19,-1.00,-1.0,2442
4025,2139025,17048,832,1332,17120.19,25.14,-1.00,-1.0,2372
4027,2139027,16972,804,1168,17031.13,25.09,-1.00,-1.0,2442
4030,2139030,16920,948,1164,16986.46,25.14,-1.00,-1.0,2372
4033,2139033,17004,880,1280,17074.80,25.09,-1.00,-1.0,2375
4036,2139036,16916,852,1128,16974.96,25.14,-1.00,-1.0,2454
4038,2139038,16944,1012,1288,17022.99,25.24,-1.00,-1.0,2379
4043,2139043,16980,836,1240,17045.73,25.14,-1.00,-1.0,2463
4046,2139046,17012,856,1276,17081.25,25.14,-1.00,-1.0,2386
4049,2139049,16992,872,1236,17059.20,25.14,-1.00,-1.0,2442
4052,2139052,17044,884,1244,17112.19,25.24,-1.00,-1.0,2375
4054,2139054,17044,920,1104,17104.48,25.19,-1.00,-1.0,2442
4057,2139057,16920,872,1236,16987.48,25.14,-1.00,-1.0,2372
4060,2139060,17048,736,1296,17113.03,25.09,-1.00,-1.0,2445
4063,2139063,17004,888,1140,17065.29,25.19,-1.00,-1.0,2372
4068,2139068,16964,840,1236,17029.70,25.19,-1.00,-1.0,2455
4070,2139070,16952,880,1164,17014.69,25.09,-1.00,-1.0,2376
4073,2139073,16952,848,1044,17005.27,25.09,-1.00,-1.0,2370
4076,2139076,16980,824,1084,17034.51,25.14,-1.00,-1.0,2461
4078,2139078,16948,924,1132,17010.88,25.14,-1.00,-1.0,2373
4081,2139081,17044,892,1168,17107.24,25.14,-1.00,-1.0,2451
4084,2139084,17000,796,1120,17055.44,25.05,-1.00,-1.0,2386
4087,2139087,16896,832,1268,16963.93,25.19,-1.00,-1.0,2446
4089,2139089,17008,872,1200,17072.56,25.24,-1.00,-1.0,2369
4095,2139095,16952,912,1216,17020.01,25.14,-1.00,-1.0,2454
4097,2139097,16960,816,1124,17016.78,25.14,-1.00,-1.0,2381
4100,2139100,16928,840,1168,16989.03,25.19,-1.00,-1.0,2443
4103,2139103,16988,948,1296,17063.72,25.19,-1.00,-1.0,2375
4106,2139106,17116,836,1244,17181.50,25.09,-1.00,-1.0,2443
4108,2139108,16884,820,1116,16940.70,25.19,-1.00,-1.0,2375
4111,2139111,16960,880,1180,17023.76,25.14,-1.00,-1.0,2368
4114,2139114,17036,900,1244,17105.05,25.14,-1.00,-1.0,2450
4116,2139116,17000,860,1060,17054.71,25.24,-1.00,-1.0,2372
4121,2139121,16872,868,1252,16940.64,25.05,-1.00,-1.0,2452
4124,2139124,16976,864,1232,17042.56,25.14,-1.00,-1.0,2373
4127,2139127,16928,936,1244,16999.44,25.14,-1.00,-1.0,2458
4130,2139130,16912,844,1300,16982.88,25.14,-1.00,-1.0,2379
4133,2139133,16944,844,1120,17001.94,25.28,-1.00,-1.0,2453
4135,2139135,17024,836,1164,17084.21,25.09,-1.00,-1.0,2382
4138,2139138,17056,888,1120,17115.79,25.19,-1.00,-1.0,2442
4141,2139141,17016,868,1160,17077.57,25.28,-1.00,-1.0,2374
4143,2139143,16896,812,1216,16959.15,25.14,-1.00,-1.0,2369
4148,2139148,16992,880,1276,17062.55,25.14,-1.00,-1.0,2452
4151,2139151,16904,816,1140,16962.04,25.19,-1.00,-1.0,2374
4154,2139154,16988,932,1120,17050.37,25.14,-1.00,-1.0,2441
4157,2139157,17044,836,1044,17096.40,25.24,-1.00,-1.0,2371
4159,2139159,16852,820,1232,16916.86,25.14,-1.00,-1.0,2443
4162,2139162,17016,840,1232,17081.21,25.14,-1.00,-1.0,2375
4165,2139165,16920,836,1172,16981.13,25.14,-1.00,-1.0,2456
4168,2139168,16972,904,1216,17039.50,25.24,-1.00,-1.0,2377
4173,2139173,16924,860,1120,16982.81,25.19,-1.00,-1.0,2459
4175,2139175,16960,864,1160,17021.57,25.14,-1.00,-1.0,2372
4178,2139178,17044,912,1120,17105.09,25.19,-1.00,-1.0,2452
4181,2139181,16928,912,1152,16991.65,25.14,-1.00,-1.0,2387
4184,2139184,16964,872,1296,17035.77,25.14,-1.00,-1.0,2368
4186,2139186,17020,856,1268,17088.62,25.14,-1.00,-1.0,2443
4189,2139189,16968,820,1164,17027.63,25.14,-1.00,-1.0,2372
4192,2139192,16972,948,1212,17041.61,25.14,-1.00,-1.0,2441
4195,2139195,16920,928,1116,16982.14,25.24,-1.00,-1.0,2371
4200,2139200,16968,820,1288,17036.56,25.19,-1.00,-1.0,2463
4203,2139203,17064,900,1184,17128.69,25.14,-1.00,-1.0,2380
4206,2139206,17072,776,1096,17124.74,25.09,-1.00,-1.0,2442
4208,2139208,17028,836,1076,17082.43,25.19,-1.00,-1.0,2376
4211,2139211,17072,924,1148,17135.49,25.14,-1.00,-1.0,2443
4214,2139214,16980,836,1356,17054.56,25.14,-1.00,-1.0,2372
4217,2139217,16956,952,1168,17022.82,25.14,-1.00,-1.0,2442
4220,2139220,17024,892,1280,17095.34,25.24,-1.00,-1.0,2371
4222,2139222,17016,812,1168,17075.36,25.14,-1.00,-1.0,2370
4227,2139227,16924,832,1268,16991.82,25.14,-1.00,-1.0,2459
4230,2139230,16980,816,1080,17033.87,25.24,-1.00,-1.0,2376
4233,2139233,16964,888,1284,17035.68,25.14,-1.00,-1.0,2448
4235,2139235,17012,860,1168,17073.72,25.14,-1.00,-1.0,2371
4238,2139238,17052,888,1280,17123.02,25.09,-1.00,-1.0,2442
4241,2139241,17072,796,1152,17129.33,25.14,-1.00,-1.0,2372
4244,2139244,16972,824,1184,17033.19,25.19,-1.00,-1.0,2444
4246,2139246,17056,848,1144,17115.34,25.14,-1.00,-1.0,2372
4251,2139251,16920,828,1200,16982.70,25.14,-1.00,-1.0,2454
4254,2139254,16904,800,1160,16962.63,25.24,-1.00,-1.0,2372
4257,2139257,16984,840,1164,17044.55,25.19,-1.00,-1.0,2443
4260,2139260,16976,860,1288,17046.50,25.09,-1.00,-1.0,2380
4262,2139262,17108,904,1172,17171.91,25.09,-1.00,-1.0,2379
4265,2139265,16984,876,1260,17053.19,25.14,-1.00,-1.0,2449
4268,2139268,16924,820,1280,16992.13,25.14,-1.00,-1.0,2372
4271,2139271,17084,828,1208,17146.66,25.14,-1.00,-1.0,2436
4273,2139273,16976,884,1212,17042.15,25.24,-1.00,-1.0,2374
4278,2139278,16972,908,1316,17047.14,25.14,-1.00,-1.0,2463
4281,2139281,16932,900,1180,16996.91,25.24,-1.00,-1.0,2389
4284,2139284,16996,972,1148,17062.44,25.14,-1.00,-1.0,2443
4287,2139287,17036,908,1176,17100.66,25.14,-1.00,-1.0,2375
4289,2139289,16992,776,1248,17055.43,25.19,-1.00,-1.0,2444
4292,2139292,16968,904,1140,17030.26,25.24,-1.00,-1.0,2372
4295,2139295,17008,896,1152,17070.50,25.14,-1.00,-1.0,2441
4298,2139298,16920,844,1104,16976.97,25.09,-1.00,-1.0,2372
4300,2139300,16996,820,1296,17065.05,25.28,-1.00,-1.0,2369
4305,2139305,16924,864,1168,16986.24,25.19,-1.00,-1.0,2454
4308,2139308,17012,824,1276,17079.68,25.19,-1.00,-1.0,2375
4311,2139311,17040,872,1076,17096.19,25.14,-1.00,-1.0,2448
4313,2139313,16980,836,1176,17041.19,25.09,-1.00,-1.0,2371
4316,2139316,16972,900,1156,17035.12,25.14,-1.00,-1.0,2454
4319,2139319,16972,892,1100,17030.98,25.14,-1.00,-1.0,2379
4322,2139322,16928,748,1180,16985.55,25.24,-1.00,-1.0,2441
4324,2139324,17060,860,1232,17126.03,25.14,-1.00,-1.0,2377
4329,2139329,16940,816,1276,17007.58,25.14,-1.00,-1.0,2453
4332,2139332,16920,900,1188,16985.52,25.05,-1.00,-1.0,2376
4335,2139335,17036,796,1296,17103.76,25.14,-1.00,-1.0,2451
4338,2139338,16904,884,1156,16966.53,25.14,-1.00,-1.0,2359
4340,2139340,17024,896,1280,17095.55,25.19,-1.00,-1.0,2370
4343,2139343,16948,960,1172,17015.58,25.19,-1.00,-1.0,2445
4346,2139346,17028,992,1188,17098.19,25.14,-1.00,-1.0,2373
4349,2139349,17032,948,1228,17102.51,25.09,-1.00,-1.0,2449
4351,2139351,16960,916,1244,17030.21,25.09,-1.00,-1.0,2372
4356,2139356,16964,844,1232,17029.61,25.19,-1.00,-1.0,2454
4359,2139359,17004,872,1240,17071.44,25.09,-1.00,-1.0,2375
4362,2139362,16992,784,1160,17049.58,25.19,-1.00,-1.0,2442
4365,2139365,17016,916,1136,17078.46,25.19,-1.00,-1.0,2371
4367,2139367,16924,924,1224,16993.34,25.14,-1.00,-1.0,2444
4370,2139370,16984,860,1244,17051.20,25.19,-1.00,-1.0,2373
4373,2139373,17060,812,1132,17116.79,25.24,-1.00,-1.0,2448
4376,2139376,17028,760,1252,17090.87,25.05,-1.00,-1.0,2375
4378,2139378,17008,860,1196,17071.67,25.14,-1.00,-1.0,2376
4383,2139383,16908,840,1288,16977.78,25.14,-1.00,-1.0,2462
4386,2139386,16936,828,1080,16990.59,25.14,-1.00,-1.0,2389
4389,2139389,16872,932,1256,16944.34,25.19,-1.00,-1.0,2443
4392,2139392,16920,944,1316,16997.33,25.09,-1.00,-1.0,2372
4394,2139394,17128,872,1236,17194.66,25.19,-1.00,-1.0,2444
4397,2139397,17004,808,1200,17065.43,25.19,-1.00,-1.0,2373
4400,2139400,17012,840,1192,17074.38,25.14,-1.00,-1.0,2443
4403,2139403,16904,812,1052,16956.16,25.19,-1.00,-1.0,2371
4407,2139407,16956,824,1324,17027.56,25.14,-1.00,-1.0,2453
4410,2139410,17020,884,1128,17080.23,25.14,-1.00,-1.0,2372
4413,2139413,17072,780,1104,17125.43,25.24,-1.00,-1.0,2450
4416,2139416,17004,860,1188,17067.13,25.24,-1.00,-1.0,2366
4418,2139418,16924,836,1064,16978.01,25.09,-1.00,-1.0,2376
4421,2139421,16956,848,1220,17020.97,25.19,-1.00,-1.0,2443
4424,2139424,17060,948,1192,17127.85,25.19,-1.00,-1.0,2373
4427,2139427,16980,844,1196,17042.98,25.14,-1.00,-1.0,2440
4429,2139429,17004,860,1128,17063.06,25.19,-1.00,-1.0,2372
4434,2139434,16928,900,1056,16984.77,25.14,-1.00,-1.0,2453
4437,2139437,17064,960,1204,17133.34,25.14,-1.00,-1.0,2375
4440,2139440,17024,892,1104,17083.06,25.14,-1.00,-1.0,2448
4442,2139442,16932,856,1076,16987.73,25.14,-1.00,-1.0,2372
4445,2139445,16956,832,1140,17014.63,25.19,-1.00,-1.0,2453
4448,2139448,16972,880,1156,17034.07,25.09,-1.00,-1.0,2387
4451,2139451,16932,872,1232,16999.14,25.19,-1.00,-1.0,2441
4453,2139453,16988,824,1108,17044.03,25.09,-1.00,-1.0,2374
4456,2139456,17032,916,1192,17098.21,25.14,-1.00,-1.0,2368
4461,2139461,16880,916,1196,16947.09,25.14,-1.00,-1.0,2453
4464,2139464,16984,908,1236,17053.11,25.19,-1.00,-1.0,2376
4467,2139467,16992,892,1244,17060.81,25.05,-1.00,-1.0,2448
4469,2139469,17020,788,1132,17075.79,25.14,-1.00,-1.0,2371
4472,2139472,17004,868,1156,17065.34,25.24,-1.00,-1.0,2446
4475,2139475,16972,896,1216,17039.08,25.14,-1.00,-1.0,2376
4478,2139478,17080,828,1312,17150.32,25.14,-1.00,-1.0,2449
4480,2139480,17020,856,1164,17081.22,25.14,-1.00,-1.0,2371
4485,2139485,16956,808,1116,17011.88,25.14,-1.00,-1.0,2457
4488,2139488,16964,868,1132,17023.87,25.24,-1.00,-1.0,2373
4491,2139491,16848,800,1124,16904.39,25.19,-1.00,-1.0,2451
4494,2139494,17000,776,1264,17064.58,25.24,-1.00,-1.0,2367
4496,2139496,17036,884,1116,17095.38,25.19,-1.00,-1.0,2376
4499,2139499,16920,888,1024,16974.20,25.14,-1.00,-1.0,2442
4502,2139502,16952,832,1184,17013.65,25.24,-1.00,-1.0,2375
4505,2139505,17004,816,1244,17068.96,25.24,-1.00,-1.0,2440
4507,2139507,16932,908,1256,17002.78,25.14,-1.00,-1.0,2371
4512,2139512,16996,812,1300,17064.97,25.14,-1.00,-1.0,2456
4515,2139515,16964,832,1204,17027.01,25.24,-1.00,-1.0,2375
4518,2139518,16976,920,1156,17040.17,25.14,-1.00,-1.0,2444
4521,2139521,17012,800,1356,17084.70,25.14,-1.00,-1.0,2372
4523,2139523,16892,860,1256,16960.45,25.19,-1.00,-1.0,2443
4526,2139526,17000,932,1248,17071.21,25.14,-1.00,-1.0,2372
4529,2139529,16988,948,1232,17058.98,25.09,-1.00,-1.0,2376
4532,2139532,17020,888,1096,17078.35,25.14,-1.00,-1.0,2452
4534,2139534,17004,828,1132,17061.74,25.09,-1.00,-1.0,2384
4539,2139539,17076,776,1164,17133.21,25.14,-1.00,-1.0,2461
4542,2139542,17028,920,1144,17091.16,25.19,-1.00,-1.0,2389
4545,2139545,16940,880,1112,16999.25,25.14,-1.00,-1.0,2444
4548,2139548,16888,824,1192,16950.05,25.14,-1.00,-1.0,2372
4550,2139550,16976,844,1144,17035.42,25.14,-1.00,-1.0,2442
4553,2139553,16928,828,1172,16988.71,25.14,-1.00,-1.0,2371
4556,2139556,16936,764,1192,16995.08,25.19,-1.00,-1.0,2443
4559,2139559,17020,844,1244,17086.26,25.14,-1.00,-1.0,2379
4564,2139564,16924,920,1096,16984.39,25.14,-1.00,-1.0,2454
4566,2139566,16980,856,1088,17036.34,25.14,-1.00,-1.0,2372
4569,2139569,16984,920,1172,17049.23,25.19,-1.00,-1.0,2369
4572,2139572,16988,740,1280,17052.22,25.14,-1.00,-1.0,2450
4574,2139574,17076,920,1252,17146.54,25.09,-1.00,-1.0,2372
4577,2139577,16968,960,1248,17040.90,25.14,-1.00,-1.0,2454
4580,2139580,16908,844,1296,16978.59,25.14,-1.00,-1.0,2386
4583,2139583,17048,836,1024,17099.17,25.24,-1.00,-1.0,2444
4586,2139586,17040,832,1140,17098.35,25.05,-1.00,-1.0,2376
4591,2139591,16984,924,1196,17051.11,25.14,-1.00,-1.0,2455
4593,2139593,16920,912,1320,16995.90,25.14,-1.00,-1.0,2380
4596,2139596,16940,880,1068,16996.43,25.19,-1.00,-1.0,2442
4599,2139599,16956,836,1156,17015.91,25.05,-1.00,-1.0,2373
4602,2139602,17064,756,1192,17122.28,25.19,-1.00,-1.0,2444
4604,2139604,16948,896,1260,17018.38,25.09,-1.00,-1.0,2380
4607,2139607,17012,960,1132,17076.63,25.19,-1.00,-1.0,2425
4610,2139610,16972,820,1208,17034.68,25.14,-1.00,-1.0,2463
4613,2139613,16908,868,1204,16973.02,25.24,-1.00,-1.0,2378
4618,2139618,16920,896,1184,16985.03,25.14,-1.00,-1.0,2457
4620,2139620,16940,816,1224,17003.75,25.14,-1.00,-1.0,2375
4623,2139623,17040,832,1248,17105.89,25.19,-1.00,-1.0,2445
4626,2139626,17028,896,1172,17091.79,25.09,-1.00,-1.0,2360
4629,2139629,16968,880,1016,17021.15,25.19,-1.00,-1.0,2448
4631,2139631,16984,872,1336,17058.77,25.19,-1.00,-1.0,2371
4634,2139634,16956,836,1304,17026.60,25.14,-1.00,-1.0,2444
4637,2139637,16992,840,1096,17048.02,25.09,-1.00,-1.0,2372
4642,2139642,16960,848,1128,17018.61,25.14,-1.00,-1.0,2461
4644,2139644,16972,724,1184,17028.65,25.24,-1.00,-1.0,2380
4647,2139647,17032,912,1200,17098.56,25.19,-1.00,-1.0,2370
4650,2139650,16976,868,1100,17033.73,25.00,-1.00,-1.0,2444
4653,2139653,17000,900,1316,17074.60,25.19,-1.00,-1.0,2373
4655,2139655,16956,880,1152,17017.86,25.14,-1.00,-1.0,2442
4658,2139658,17072,920,1200,17138.83,25.09,-1.00,-1.0,2373
4661,2139661,16896,896,1028,16950.94,25.14,-1.00,-1.0,2443
4664,2139664,16936,900,1176,17000.62,25.14,-1.00,-1.0,2379
4669,2139669,16928,860,1136,16987.86,25.14,-1.00,-1.0,2458
4671,2139671,16964,732,1268,17027.06,25.14,-1.00,-1.0,2360
4674,2139674,17000,852,1196,17063.30,25.14,-1.00,-1.0,2453
4677,2139677,17044,892,1160,17106.70,25.14,-1.00,-1.0,2372
4680,2139680,16864,808,1260,16930.30,25.19,-1.00,-1.0,2450
4682,2139682,16944,880,1120,17003.76,25.24,-1.00,-1.0,2372
4685,2139685,17004,880,1132,17064.34,25.19,-1.00,-1.0,2368
4688,2139688,17020,828,1300,17089.65,25.19,-1.00,-1.0,2443
4691,2139691,16940,800,1224,17002.99,25.09,-1.00,-1.0,2372
4696,2139696,16964,864,1108,17022.09,25.09,-1.00,-1.0,2455
4698,2139698,16940,808,1136,16997.26,25.09,-1.00,-1.0,2381
4701,2139701,17000,864,1216,17065.32,25.19,-1.00,-1.0,2430
4704,2139704,16956,784,1252,17020.23,25.19,-1.00,-1.0,2373
4707,2139707,16992,856,1200,17055.81,25.14,-1.00,-1.0,2449
4709,2139709,16924,776,1244,16987.39,25.09,-1.00,-1.0,2371
4712,2139712,16940,896,1252,17009.82,25.14,-1.00,-1.0,2445
4715,2139715,17064,772,1236,17126.11,25.14,-1.00,-1.0,2371
4720,2139720,16964,924,1164,17028.97,25.24,-1.00,-1.0,2452
4723,2139723,16996,832,1180,17057.22,25.19,-1.00,-1.0,2371
4725,2139725,16944,932,1144,17008.13,25.14,-1.00,-1.0,2371
4728,2139728,16896,880,1172,16959.45,25.19,-1.00,-1.0,2466
4731,2139731,17004,804,1208,17065.80,25.09,-1.00,-1.0,2380
4734,2139734,16920,760,1192,16978.95,25.19,-1.00,-1.0,2455
4736,2139736,16916,824,1156,16975.46,25.09,-1.00,-1.0,2390
4739,2139739,16908,988,1268,16984.24,25.14,-1.00,-1.0,2442
4742,2139742,16960,956,1036,17018.48,25.19,-1.00,-1.0,2374
4747,2139747,16884,860,1128,16943.48,25.19,-1.00,-1.0,2453
4749,2139749,16992,944,1136,17056.07,25.19,-1.00,-1.0,2370
4752,2139752,16936,872,1176,16999.16,25.24,-1.00,-1.0,2443
4755,2139755,16972,828,1268,17039.43,25.09,-1.00,-1.0,2373
4758,2139758,16972,840,1200,17035.09,25.14,-1.00,-1.0,2442
4761,2139761,17020,892,1228,17087.54,25.14,-1.00,-1.0,2371
4763,2139763,17056,856,1280,17125.37,25.14,-1.00,-1.0,2371
4766,2139766,17056,852,1148,17115.81,25.19,-1.00,-1.0,2459
4769,2139769,17016,832,1184,17077.42,25.09,-1.00,-1.0,2380
4774,2139774,16996,800,1180,17055.69,25.09,-1.00,-1.0,2446
4776,2139776,16932,904,1172,16996.57,25.14,-1.00,-1.0,2372
4779,2139779,16932,824,1284,17000.60,25.09,-1.00,-1.0,2465
4782,2139782,16956,860,1220,17021.57,25.19,-1.00,-1.0,2380
4785,2139785,17060,900,1160,17123.06,25.14,-1.00,-1.0,2445
4787,2139787,16908,888,1308,16981.75,25.19,-1.00,-1.0,2374
4790,2139790,16964,896,1220,17031.40,25.14,-1.00,-1.0,2447
4793,2139793,16972,996,1332,17053.30,25.14,-1.00,-1.0,2374
4798,2139798,16924,868,1000,16975.72,25.14,-1.00,-1.0,2462
4801,2139801,17060,908,1096,17119.27,25.09,-1.00,-1.0,2362
4803,2139803,16996,1000,1296,17074.65,25.24,-1.00,-1.0,2369
4806,2139806,17096,908,1244,17165.23,25.09,-1.00,-1.0,2453
4809,2139809,16992,996,1348,17074.46,25.24,-1.00,-1.0,2377
4812,2139812,16964,828,1328,17036.04,25.19,-1.00,-1.0,2445
4814,2139814,17048,824,1096,17103.05,25.14,-1.00,-1.0,2371
4817,2139817,16964,920,1180,17029.86,25.09,-1.00,-1.0,2445
4820,2139820,17076,884,1184,17139.81,25.19,-1.00,-1.0,2373
4825,2139825,16892,836,1276,16960.74,25.14,-1.00,-1.0,2461
4827,2139827,16928,912,1156,16991.92,25.09,-1.00,-1.0,2379
4830,2139830,16996,840,1024,17047.53,25.14,-1.00,-1.0,2445
4833,2139833,16996,872,1260,17064.94,25.24,-1.00,-1.0,2361
4836,2139836,17000,816,1332,17071.62,25.14,-1.00,-1.0,2443
4839,2139839,16996,820,1188,17057.19,25.14,-1.00,-1.0,2372
4841,2139841,17104,868,1296,17174.98,25.19,-1.00,-1.0,2368
4844,2139844,16984,884,1292,17056.00,25.19,-1.00,-1.0,2443
4847,2139847,16932,848,1068,16986.83,25.28,-1.00,-1.0,2379
4852,2139852,16996,872,1408,17076.50,25.14,-1.00,-1.0,2456
4854,2139854,16900,888,1108,16959.55,25.14,-1.00,-1.0,2380
4857,2139857,17032,900,1160,17095.16,25.24,-1.00,-1.0,2443
4860,2139860,16932,828,1016,16982.65,25.14,-1.00,-1.0,2374
4863,2139863,17024,840,1244,17090.05,25.00,-1.00,-1.0,2442
4865,2139865,17020,888,1148,17081.77,25.24,-1.00,-1.0,2375
4868,2139868,16960,932,1168,17025.70,25.09,-1.00,-1.0,2444
4871,2139871,17048,848,1184,17110.09,25.19,-1.00,-1.0,2375
4876,2139876,16904,800,1220,16966.84,25.19,-1.00,-1.0,2452
4879,2139879,16972,836,1200,17034.90,25.09,-1.00,-1.0,2373
4881,2139881,17072,916,1248,17142.05,25.09,-1.00,-1.0,2370
4884,2139884,16892,968,1168,16959.98,25.14,-1.00,-1.0,2458
4887,2139887,17008,936,1124,17070.78,25.14,-1.00,-1.0,2379
4890,2139890,17048,928,1316,17123.88,25.14,-1.00,-1.0,2455
4892,2139892,16988,768,1152,17044.33,25.14,-1.00,-1.0,2382
4895,2139895,17012,928,1088,17072.00,25.19,-1.00,-1.0,2443
4898,2139898,16992,896,1016,17045.91,25.05,-1.00,-1.0,2374
4903,2139903,16988,936,1160,17053.27,25.14,-1.00,-1.0,2457
4905,2139905,17032,876,1184,17095.56,25.05,-1.00,-1.0,2372
4908,2139908,17116,908,1148,17178.47,25.09,-1.00,-1.0,2451
4911,2139911,17008,864,1172,17070.21,25.28,-1.00,-1.0,2373
4914,2139914,16916,828,1232,16981.00,25.09,-1.00,-1.0,2444
4917,2139917,17024,924,1136,17086.86,25.09,-1.00,-1.0,2371
4919,2139919,17032,932,1248,17103.07,25.14,-1.00,-1.0,2368
4922,2139922,17008,780,1156,17065.08,25.05,-1.00,-1.0,2458
4925,2139925,16976,812,1164,17035.22,25.05,-1.00,-1.0,2379
4930,2139930,17036,936,1180,17102.45,25.14,-1.00,-1.0,2459
4932,2139932,17036,836,1088,17091.17,25.14,-1.00,-1.0,2372
4935,2139935,17068,804,1104,17122.55,25.14,-1.00,-1.0,2452
4938,2139938,17056,864,1184,17118.86,25.05,-1.00,-1.0,2386
4941,2139941,17016,892,1244,17084.71,25.09,-1.00,-1.0,2443
4943,2139943,17012,872,1212,17077.40,25.19,-1.00,-1.0,2366
4946,2139946,17012,860,1208,17076.50,25.19,-1.00,-1.0,2443
4949,2139949,16824,812,1276,16891.85,25.19,-1.00,-1.0,2374
4952,2139952,16976,700,988,17019.13,25.14,-1.00,-1.0,2376
4957,2139957,17084,852,1172,17145.34,25.24,-1.00,-1.0,2459
4959,2139959,16984,880,1124,17043.88,25.14,-1.00,-1.0,2373
4962,2139962,17048,888,1208,17113.80,25.14,-1.00,-1.0,2445
4965,2139965,17056,884,1020,17109.32,25.14,-1.00,-1.0,2371
4968,2139968,16964,776,1280,17029.91,25.05,-1.00,-1.0,2451
4970,2139970,16960,804,1216,17022.54,25.05,-1.00,-1.0,2372
4973,2139973,16932,800,1244,16996.47,25.14,-1.00,-1.0,2454
4976,2139976,16892,776,1172,16950.38,25.14,-1.00,-1.0,2378
4981,2139981,17024,880,1256,17092.94,25.19,-1.00,-1.0,2469
4984,2139984,16964,772,1304,17031.55,25.19,-1.00,-1.0,2382
4987,2139987,17052,860,1220,17117.21,25.09,-1.00,-1.0,2454
4989,2139989,17004,848,1060,17058.10,25.19,-1.00,-1.0,2379
4992,2139992,16936,820,1316,17006.83,25.14,-1.00,-1.0,2368
4995,2139995,16920,864,1172,16982.54,25.14,-1.00,-1.0,2447
4997,2139997,16960,768,1260,17024.07,25.14,-1.00,-1.0,2372
5000,2140000,17012,852,1060,17066.27,25.05,-1.00,-1.0,2451
5003,2140003,17008,836,1260,17075.09,25.14,-1.00,-1.0,2371
5008,2140008,17072,908,1148,17134.63,25.14,-1.00,-1.0,2453
5011,2140011,16984,808,1184,17044.38,25.14,-1.00,-1.0,2381
5013,2140013,16952,752,1192,17010.49,25.19,-1.00,-1.0,2451
5016,2140016,17060,924,1240,17129.94,25.14,-1.00,-1.0,2375
5019,2140019,17080,972,1168,17147.46,25.19,-1.00,-1.0,2438
5022,2140022,16980,856,1276,17049.38,25.19,-1.00,-1.0,2379
5025,2140025,17000,872,1200,17064.59,25.19,-1.00,-1.0,2452
5027,2140027,16960,836,1260,17027.28,25.09,-1.00,-1.0,2379
5030,2140030,16964,876,1168,17026.71,25.14,-1.00,-1.0,2368
5036,2140036,16968,860,1152,17028.79,25.09,-1.00,-1.0,2471
5038,2140038,17000,864,1180,17062.79,25.19,-1.00,-1.0,2393
5041,2140041,16964,844,1288,17033.75,25.14,-1.00,-1.0,2432
5044,2140044,17036,824,1080,17090.08,25.24,-1.00,-1.0,2375
5047,2140047,16964,872,1204,17029.01,25.14,-1.00,-1.0,2450
5049,2140049,16912,836,1296,16982.17,25.24,-1.00,-1.0,2372
5052,2140052,17028,920,1148,17091.43,25.14,-1.00,-1.0,2443
5055,2140055,16936,896,1216,17003.22,25.14,-1.00,-1.0,2371
5060,2140060,16944,844,1144,17003.54,25.09,-1.00,-1.0,2461
5062,2140062,16968,908,1112,17028.62,25.19,-1.00,-1.0,2380
5065,2140065,16968,872,992,17019.33,25.24,-1.00,-1.0,2447
5068,2140068,17036,860,1204,17100.13,25.09,-1.00,-1.0,2359
5071,2140071,17012,788,1340,17082.88,25.14,-1.00,-1.0,2367
5073,2140073,16984,912,1244,17053.90,25.19,-1.00,-1.0,2443
5076,2140076,17036,916,1264,17107.37,25.14,-1.00,-1.0,2374
5079,2140079,16904,824,1228,16968.56,25.19,-1.00,-1.0,2442
5082,2140082,17052,812,1184,17112.33,25.09,-1.00,-1.0,2379
5087,2140087,16920,884,1260,16989.86,25.09,-1.00,-1.0,2456
5089,2140089,17048,864,1212,17112.85,25.09,-1.00,-1.0,2373
5092,2140092,16976,876,1140,17036.77,25.00,-1.00,-1.0,2459
5095,2140095,16964,804,1260,17029.72,25.19,-1.00,-1.0,2378
5098,2140098,16992,948,1212,17061.53,25.14,-1.00,-1.0,2433
5100,2140100,17008,896,1140,17069.70,25.19,-1.00,-1.0,2378
5103,2140103,16992,924,1260,17063.69,25.14,-1.00,-1.0,2446
5106,2140106,16900,852,1152,16960.63,25.14,-1.00,-1.0,2385
5109,2140109,16996,892,1076,17053.37,25.24,-1.00,-1.0,2367
5114,2140114,16892,876,1100,16950.43,25.14,-1.00,-1.0,2457
5116,2140116,16984,860,1128,17043.13,25.14,-1.00,-1.0,2374
5119,2140119,17084,852,1216,17148.40,25.19,-1.00,-1.0,2447
5122,2140122,17032,848,1308,17103.19,25.09,-1.00,-1.0,2371
5125,2140125,16964,836,1164,17024.43,25.19,-1.00,-1.0,2456
5127,2140127,16940,796,1268,17006.03,25.09,-1.00,-1.0,2372
5130,2140130,16984,960,1192,17052.82,25.05,-1.00,-1.0,2459
5133,2140133,17040,820,1204,17102.15,25.09,-1.00,-1.0,2379
5138,2140138,17028,888,1140,17089.21,25.09,-1.00,-1.0,2454
5141,2140141,17012,864,1152,17072.84,25.09,-1.00,-1.0,2376
5143,2140143,16916,948,1116,16979.26,25.05,-1.00,-1.0,2457
5146,2140146,16936,840,1120,16993.77,25.14,-1.00,-1.0,2376
5149,2140149,16976,836,1188,17038.04,25.05,-1.00,-1.0,2368
5152,2140152,16912,884,1192,16976.99,25.09,-1.00,-1.0,2451
5154,2140154,16860,920,1136,16923.25,25.19,-1.00,-1.0,2373
5157,2140157,17092,876,1172,17154.52,25.19,-1.00,-1.0,2446
5160,2140160,16960,908,1172,17024.68,25.09,-1.00,-1.0,2372
5165,2140165,16956,884,1284,17027.51,25.09,-1.00,-1.0,2454
5168,2140168,17008,884,1348,17084.22,25.19,-1.00,-1.0,2374
5170,2140170,16896,800,1084,16949.63,25.09,-1.00,-1.0,2443
5173,2140173,16968,796,1228,17030.99,25.19,-1.00,-1.0,2360
5176,2140176,16940,780,1088,16992.81,25.14,-1.00,-1.0,2443
5179,2140179,17064,892,1100,17122.67,25.19,-1.00,-1.0,2372
5181,2140181,17080,896,1160,17142.78,25.24,-1.00,-1.0,2442
5184,2140184,17032,876,1188,17095.84,25.19,-1.00,-1.0,2374
5187,2140187,17072,912,1228,17140.39,25.14,-1.00,-1.0,2371
5192,2140192,16960,808,1236,17024.16,25.14,-1.00,-1.0,2463
5194,2140194,16960,860,1184,17023.02,25.24,-1.00,-1.0,2379
5197,2140197,17084,816,1184,17144.41,25.09,-1.00,-1.0,2446
5200,2140200,17040,792,1144,17096.71,25.14,-1.00,-1.0,2378
5203,2140203,16944,932,1156,17008.94,25.19,-1.00,-1.0,2444
5206,2140206,16972,880,1156,17034.07,25.09,-1.00,-1.0,2373
5208,2140208,16980,948,1208,17049.29,25.19,-1.00,-1.0,2443
5211,2140211,17020,832,1364,17094.83,25.09,-1.00,-1.0,2372
5216,2140216,16876,856,1304,16947.94,25.09,-1.00,-1.0,2461
5219,2140219,16924,892,1176,16988.24,25.09,-1.00,-1.0,2375
5222,2140222,16960,872,1200,17024.75,25.09,-1.00,-1.0,2450
5224,2140224,16944,860,1128,17003.27,25.09,-1.00,-1.0,2371
5227,2140227,16968,776,1224,17029.78,25.14,-1.00,-1.0,2368
5230,2140230,16944,916,1216,17012.26,25.14,-1.00,-1.0,2454
5232,2140232,17012,888,1052,17067.61,25.05,-1.00,-1.0,2372
5235,2140235,16960,880,1152,17021.84,25.09,-1.00,-1.0,2452
5238,2140238,16932,928,1188,16998.97,25.05,-1.00,-1.0,2387
5243,2140243,16972,792,1108,17026.56,25.28,-1.00,-1.0,2455
5246,2140246,17068,920,1180,17133.46,25.09,-1.00,-1.0,2374
5248,2140248,17060,808,1348,17132.24,25.14,-1.00,-1.0,2443
5251,2140251,16996,904,1268,17067.19,25.28,-1.00,-1.0,2372
5254,2140254,16980,832,1004,17029.99,25.05,-1.00,-1.0,2444
5257,2140257,16852,780,1328,16922.23,25.14,-1.00,-1.0,2372
5259,2140259,16960,824,1236,17024.93,25.14,-1.00,-1.0,2373
5262,2140262,17092,832,1216,17155.39,25.19,-1.00,-1.0,2450
5265,2140265,16900,888,1132,16961.13,25.19,-1.00,-1.0,2375
5270,2140270,16972,748,1128,17025.88,25.14,-1.00,-1.0,2454
5272,2140272,16936,784,1240,16999.42,25.19,-1.00,-1.0,2376
5275,2140275,17000,860,1144,17060.14,25.14,-1.00,-1.0,2443
5278,2140278,17012,840,1136,17070.57,25.24,-1.00,-1.0,2373
5281,2140281,16888,876,1168,16950.99,25.05,-1.00,-1.0,2445
5283,2140283,16920,848,1208,16984.25,25.24,-1.00,-1.0,2372
5286,2140286,16896,876,1208,16961.76,25.19,-1.00,-1.0,2444
5289,2140289,17056,884,1304,17128.60,25.14,-1.00,-1.0,2372
5294,2140294,16940,848,1048,16993.56,25.14,-1.00,-1.0,2452
5297,2140297,16944,864,1156,17005.35,25.14,-1.00,-1.0,2371
5299,2140299,16968,932,1140,17031.77,25.09,-1.00,-1.0,2376
5302,2140302,17016,908,1356,17094.08,25.19,-1.00,-1.0,2455
5305,2140305,16916,844,1184,16978.38,25.19,-1.00,-1.0,2375
5308,2140308,16896,872,1156,16957.93,25.24,-1.00,-1.0,2462
5310,2140310,16992,816,1128,17048.94,25.14,-1.00,-1.0,2373
5313,2140313,17036,880,1244,17104.01,25.19,-1.00,-1.0,2455
5316,2140316,17024,908,1176,17088.71,25.09,-1.00,-1.0,2385
5321,2140321,17080,840,1260,17147.00,25.09,-1.00,-1.0,2454
5324,2140324,17036,908,1148,17098.76,25.19,-1.00,-1.0,2376
5327,2140327,17032,888,1216,17098.43,25.19,-1.00,-1.0,2459
5329,2140329,16920,888,980,16971.60,25.09,-1.00,-1.0,2378
5332,2140332,16860,760,1268,16924.69,25.05,-1.00,-1.0,2446
5335,2140335,17020,960,1264,17093.85,25.14,-1.00,-1.0,2372
5337,2140337,16928,892,1072,16985.35,25.14,-1.00,-1.0,2375
5340,2140340,16916,916,1264,16987.87,25.09,-1.00,-1.0,2451
5343,2140343,16872,800,1192,16932.96,25.05,-1.00,-1.0,2372
5348,2140348,16932,872,1116,16991.13,25.14,-1.00,-1.0,2453
5351,2140351,16976,844,1280,17045.10,25.19,-1.00,-1.0,2377
5353,2140353,16992,888,1204,17057.73,25.19,-1.00,-1.0,2448
5356,2140356,16908,884,1156,16970.51,25.19,-1.00,-1.0,2372
5359,2140359,17052,912,1180,17117.09,25.14,-1.00,-1.0,2461
5362,2140362,16988,908,1124,17049.34,25.09,-1.00,-1.0,2377
5365,2140365,17072,816,1276,17139.05,25.14,-1.00,-1.0,2461
5367,2140367,16820,908,1160,16884.38,25.14,-1.00,-1.0,2377
5372,2140372,16872,788,1156,16929.90,25.14,-1.00,-1.0,2463
5375,2140375,16932,800,1252,16997.06,25.24,-1.00,-1.0,2378
5378,2140378,16968,860,1172,17030.16,25.14,-1.00,-1.0,2369
5380,2140380,16956,924,1164,17021.01,25.09,-1.00,-1.0,2457
5383,2140383,16956,840,1156,17016.11,25.19,-1.00,-1.0,2372
5386,2140386,17048,932,1052,17105.84,25.09,-1.00,-1.0,2446
5389,2140389,16988,864,1156,17049.19,25.09,-1.00,-1.0,2365
5391,2140391,17080,872,1164,17141.81,25.05,-1.00,-1.0,2455
5394,2140394,16976,824,1152,17034.98,25.19,-1.00,-1.0,2373
5399,2140399,17064,784,1212,17124.94,25.19,-1.00,-1.0,2455
5402,2140402,16888,820,1260,16954.78,25.09,-1.00,-1.0,2371
5405,2140405,16984,808,1080,17037.47,25.14,-1.00,-1.0,2454
5407,2140407,16976,884,1164,17038.81,25.14,-1.00,-1.0,2374
5410,2140410,16992,856,1232,17058.10,25.14,-1.00,-1.0,2449
5413,2140413,16944,880,1232,17011.51,25.14,-1.00,-1.0,2371
5416,2140416,16960,804,1240,17024.27,25.09,-1.00,-1.0,2368
5418,2140418,17040,940,1292,17114.74,25.09,-1.00,-1.0,2448
5421,2140421,17104,836,1248,17169.83,25.19,-1.00,-1.0,2373
5426,2140426,16956,764,1216,17016.71,25.19,-1.00,-1.0,2456
5429,2140429,16940,876,1176,17003.35,25.09,-1.00,-1.0,2372
5432,2140432,16956,896,1080,17013.97,25.14,-1.00,-1.0,2453
5434,2140434,16916,836,1160,16976.32,25.09,-1.00,-1.0,2372
5437,2140437,17028,848,1152,17087.98,25.14,-1.00,-1.0,2459
5440,2140440,17112,812,1292,17179.91,25.14,-1.00,-1.0,2376
5443,2140443,17056,876,952,17104.99,25.14,-1.00,-1.0,2436
5445,2140445,16936,824,1200,16998.44,25.14,-1.00,-1.0,2375
5450,2140450,16984,836,1164,17044.36,25.19,-1.00,-1.0,2445
5453,2140453,16996,860,1112,17054.04,25.05,-1.00,-1.0,2373
5456,2140456,16940,964,1168,17007.56,25.19,-1.00,-1.0,2369
5458,2140458,16848,836,1100,16904.55,25.05,-1.00,-1.0,2446
5461,2140461,16892,804,1144,16949.77,25.28,-1.00,-1.0,2370
5464,2140464,16984,884,1192,17048.71,25.24,-1.00,-1.0,2452
5467,2140467,16980,888,1284,17051.62,25.14,-1.00,-1.0,2380
5470,2140470,17016,840,1088,17071.43,25.05,-1.00,-1.0,2456
5472,2140472,16916,756,1196,16975.07,25.24,-1.00,-1.0,2381
5477,2140477,17016,908,1192,17081.85,25.19,-1.00,-1.0,2455
5480,2140480,17024,776,1376,17097.14,25.09,-1.00,-1.0,2371
5483,2140483,16944,856,1284,17014.13,25.14,-1.00,-1.0,2451
5485,2140485,16896,800,1280,16963.29,25.19,-1.00,-1.0,2370
5488,2140488,17060,852,1188,17122.53,25.14,-1.00,-1.0,2447
5491,2140491,17080,900,1124,17140.59,25.09,-1.00,-1.0,2369
5493,2140493,16828,844,1208,16892.40,25.14,-1.00,-1.0,2375
5496,2140496,16976,908,1176,17040.89,25.19,-1.00,-1.0,2448
5499,2140499,16992,888,1284,17063.56,25.09,-1.00,-1.0,2385
5504,2140504,16976,840,1192,17038.52,25.09,-1.00,-1.0,2464
5507,2140507,16956,876,1168,17018.74,25.24,-1.00,-1.0,2374
5510,2140510,17044,856,1356,17119.27,25.19,-1.00,-1.0,2455
5512,2140512,17064,848,1128,17122.25,25.19,-1.00,-1.0,2373
5515,2140515,16940,864,1164,17001.91,25.24,-1.00,-1.0,2441
5518,2140518,17000,832,1200,17062.60,25.19,-1.00,-1.0,2369
5521,2140521,16892,848,1192,16955.22,25.24,-1.00,-1.0,2452
5523,2140523,17000,772,1188,17058.94,25.09,-1.00,-1.0,2371
5528,2140528,16916,780,1132,16971.77,25.19,-1.00,-1.0,2457
5531,2140531,16952,776,1288,17018.56,25.09,-1.00,-1.0,2371
5534,2140534,17004,860,1288,17074.38,25.14,-1.00,-1.0,2377
5536,2140536,16996,848,1264,17064.02,25.19,-1.00,-1.0,2459
5539,2140539,16972,900,1228,17040.15,25.19,-1.00,-1.0,2375
5542,2140542,16976,820,1176,17036.43,25.09,-1.00,-1.0,2453
5545,2140545,17008,888,1144,17069.54,25.14,-1.00,-1.0,2372
5548,2140548,16936,840,1296,17006.27,25.09,-1.00,-1.0,2456
5550,2140550,17016,868,1160,17077.57,25.19,-1.00,-1.0,2373
5555,2140555,17024,884,1096,17082.13,25.19,-1.00,-1.0,2463
5558,2140558,16956,812,1220,17019.21,25.19,-1.00,-1.0,2377
5561,2140561,17012,836,1332,17084.53,25.14,-1.00,-1.0,2459
5564,2140564,17004,812,1220,17067.04,25.19,-1.00,-1.0,2370
5566,2140566,17020,788,1308,17088.37,25.14,-1.00,-1.0,2370
5569,2140569,16956,876,1176,17019.29,25.19,-1.00,-1.0,2445
5572,2140572,17004,936,1164,17069.48,25.14,-1.00,-1.0,2377
5574,2140574,17096,900,1244,17164.81,25.09,-1.00,-1.0,2455
5577,2140577,17036,936,1200,17103.84,25.09,-1.00,-1.0,2376
5582,2140582,16916,920,1116,16977.72,25.19,-1.00,-1.0,2459
5585,2140585,16896,876,1364,16973.59,25.09,-1.00,-1.0,2372
5588,2140588,16944,948,1240,17015.74,25.19,-1.00,-1.0,2448
5590,2140590,16904,836,1236,16969.73,25.19,-1.00,-1.0,2373
5593,2140593,17040,824,1200,17102.06,25.14,-1.00,-1.0,2454
5596,2140596,17008,804,1248,17072.67,25.09,-1.00,-1.0,2385
5599,2140599,16912,856,984,16962.21,25.14,-1.00,-1.0,2446
5602,2140602,17132,828,1200,17193.92,25.24,-1.00,-1.0,2372
5604,2140604,16908,788,1160,16966.05,25.14,-1.00,-1.0,2369
5609,2140609,16964,900,1112,17024.21,25.14,-1.00,-1.0,2456
5612,2140612,16960,936,1104,17021.65,25.14,-1.00,-1.0,2371
5615,2140615,17016,980,1260,17090.71,25.14,-1.00,-1.0,2451
5617,2140617,17064,828,1324,17135.30,25.24,-1.00,-1.0,2368
5620,2140620,16828,760,1168,16885.60,25.28,-1.00,-1.0,2450
5623,2140623,16924,904,1232,16992.85,25.09,-1.00,-1.0,2371
5626,2140626,17056,896,1292,17128.32,25.19,-1.00,-1.0,2451
5628,2140628,16996,812,1288,17064.06,25.19,-1.00,-1.0,2369
5633,2140633,17020,940,1204,17088.41,25.19,-1.00,-1.0,2456
5636,2140636,17000,928,1156,17064.51,25.19,-1.00,-1.0,2371
5639,2140639,16952,812,1248,17017.26,25.19,-1.00,-1.0,2445
5642,2140642,16956,892,1216,17022.93,25.09,-1.00,-1.0,2377
5644,2140644,16948,884,1216,17014.55,25.24,-1.00,-1.0,2375
5647,2140647,16916,912,1132,16978.35,25.14,-1.00,-1.0,2446
5650,2140650,16844,836,1280,16913.24,25.24,-1.00,-1.0,2373
5653,2140653,16940,892,1132,17001.20,25.24,-1.00,-1.0,2444
5655,2140655,17016,900,1264,17086.60,25.14,-1.00,-1.0,2369
5660,2140660,17092,844,1296,17161.83,25.19,-1.00,-1.0,2458
5663,2140663,16968,1008,1204,17040.50,25.19,-1.00,-1.0,2372
5666,2140666,16992,848,1132,17050.77,25.09,-1.00,-1.0,2452
5668,2140668,17044,936,1256,17115.83,25.19,-1.00,-1.0,2369
5671,2140671,16920,836,1212,16983.94,25.24,-1.00,-1.0,2457
5674,2140674,16964,900,1052,17020.40,25.19,-1.00,-1.0,2378
5677,2140677,17000,840,1200,17062.99,25.14,-1.00,-1.0,2435
5679,2140679,17008,896,1176,17072.14,25.05,-1.00,-1.0,2373
5682,2140682,16924,868,1176,16987.00,25.14,-1.00,-1.0,2367
5687,2140687,17004,904,1204,17070.53,25.09,-1.00,-1.0,2463
5690,2140690,16980,880,1140,17040.96,25.09,-1.00,-1.0,2378
5692,2140692,17048,908,1172,17112.35,25.14,-1.00,-1.0,2446
5695,2140695,17008,936,1104,17069.47,25.19,-1.00,-1.0,2372
5698,2140698,16984,864,1308,17056.19,25.05,-1.00,-1.0,2462
5701,2140701,16944,868,1052,16998.80,25.14,-1.00,-1.0,2376
5704,2140704,16924,772,1268,16988.98,25.24,-1.00,-1.0,2457
5706,2140706,16972,804,1132,17028.70,25.24,-1.00,-1.0,2377
5711,2140711,17008,804,1280,17075.04,25.24,-1.00,-1.0,2462
5714,2140714,16992,920,1200,17059.15,25.24,-1.00,-1.0,2388
5717,2140717,17000,960,1096,17062.32,25.09,-1.00,-1.0,2449
5719,2140719,16980,844,1200,17043.26,25.14,-1.00,-1.0,2367
5722,2140722,16980,852,1212,17044.51,25.19,-1.00,-1.0,2367
5725,2140725,16912,868,1144,16972.86,25.09,-1.00,-1.0,2446
5728,2140728,17048,804,1200,17109.08,25.09,-1.00,-1.0,2370
5730,2140730,16828,896,1248,16897.98,25.24,-1.00,-1.0,2446
5733,2140733,17044,896,1216,17110.80,25.09,-1.00,-1.0,2369
5738,2140738,17016,828,1348,17089.38,25.09,-1.00,-1.0,2456
5741,2140741,16900,880,1252,16969.15,25.09,-1.00,-1.0,2372
5744,2140744,16916,856,1216,16981.24,25.14,-1.00,-1.0,2453
5746,2140746,16964,812,1172,17023.81,25.05,-1.00,-1.0,2371
5749,2140749,16964,872,1164,17026.23,25.14,-1.00,-1.0,2458
5752,2140752,16920,892,1248,16989.40,25.14,-1.00,-1.0,2378
5755,2140755,16888,776,1104,16941.83,25.14,-1.00,-1.0,2432
5757,2140757,16964,904,1124,17025.21,25.14,-1.00,-1.0,2377
5760,2140760,16912,788,1144,16968.96,25.09,-1.00,-1.0,2369
5765,2140765,17008,724,1252,17069.38,25.09,-1.00,-1.0,2461
5768,2140768,16936,940,1132,16999.80,25.09,-1.00,-1.0,2372
5771,2140771,16968,808,1144,17025.71,25.19,-1.00,-1.0,2445
5773,2140773,17000,896,1132,17061.19,25.19,-1.00,-1.0,2375
5776,2140776,16988,868,1168,17050.21,25.14,-1.00,-1.0,2450
5779,2140779,16908,908,1196,16974.55,25.19,-1.00,-1.0,2370
5782,2140782,17028,852,1100,17084.75,25.14,-1.00,-1.0,2455
5784,2140784,16976,812,1052,17027.94,25.14,-1.00,-1.0,2369
5789,2140789,16900,908,1180,16965.46,25.14,-1.00,-1.0,2455
5792,2140792,16904,844,1036,16956.73,25.33,-1.00,-1.0,2372
5795,2140795,16948,788,1224,17010.40,25.24,-1.00,-1.0,2446
5798,2140798,17048,848,1220,17112.62,25.14,-1.00,-1.0,2376
5800,2140800,16896,956,1200,16965.52,25.19,-1.00,-1.0,2378
5803,2140803,17044,824,1228,17108.04,25.19,-1.00,-1.0,2446
5806,2140806,17008,832,1324,17079.73,25.09,-1.00,-1.0,2371
5809,2140809,17056,808,1188,17116.41,25.14,-1.00,-1.0,2444
5811,2140811,16992,800,1140,17048.98,25.09,-1.00,-1.0,2374
5816,2140816,16984,892,1152,17046.38,25.19,-1.00,-1.0,2442
5819,2140819,16996,860,1300,17067.33,25.09,-1.00,-1.0,2373
5822,2140822,16972,960,1236,17044.00,25.14,-1.00,-1.0,2433
5825,2140825,16996,936,1212,17064.85,25.19,-1.00,-1.0,2369
5827,2140827,16984,948,1068,17043.93,25.14,-1.00,-1.0,2446
5830,2140830,17000,824,1120,17056.77,25.14,-1.00,-1.0,2370
5833,2140833,17088,880,1128,17147.79,25.14,-1.00,-1.0,2444
5836,2140836,16936,900,1100,16995.53,25.14,-1.00,-1.0,2369
5838,2140838,16960,788,1128,17015.73,25.19,-1.00,-1.0,2371
5843,2140843,17028,856,1276,17097.18,25.19,-1.00,-1.0,2455
5846,2140846,16932,848,1128,16990.71,25.14,-1.00,-1.0,2372
5849,2140849,16924,836,1208,16987.64,25.19,-1.00,-1.0,2457
5851,2140851,16948,840,1412,17027.45,25.24,-1.00,-1.0,2375
5854,2140854,17028,824,1152,17086.80,25.09,-1.00,-1.0,2454
5857,2140857,17028,836,1284,17096.79,25.19,-1.00,-1.0,2372
5860,2140860,16940,896,1212,17006.92,25.33,-1.00,-1.0,2458
5863,2140863,17012,828,1216,17075.49,25.14,-1.00,-1.0,2371
5869,2140869,16976,784,1212,17037.26,25.14,-1.00,-1.0,2458
5872,2140872,16992,872,1096,17049.62,25.14,-1.00,-1.0,2372
5875,2140875,16948,920,1252,17019.07,25.19,-1.00,-1.0,2445
5878,2140878,16956,776,1156,17013.07,25.14,-1.00,-1.0,2369
5880,2140880,17032,904,1244,17101.28,25.19,-1.00,-1.0,2374
5883,2140883,16960,944,1156,17025.54,25.14,-1.00,-1.0,2456
5886,2140886,17012,836,1124,17069.58,25.19,-1.00,-1.0,2373
5889,2140889,17028,876,1156,17089.66,25.14,-1.00,-1.0,2454
5891,2140891,17004,864,1276,17073.68,25.24,-1.00,-1.0,2377
5896,2140896,17044,892,1256,17113.48,25.19,-1.00,-1.0,2456
5899,2140899,16988,880,1120,17047.61,25.19,-1.00,-1.0,2371
5902,2140902,17028,864,1260,17096.40,25.19,-1.00,-1.0,2451
5904,2140904,16960,848,1212,17024.38,25.19,-1.00,-1.0,2370
5907,2140907,16912,880,1168,16975.11,25.14,-1.00,-1.0,2454
5910,2140910,16956,836,1128,17014.03,25.09,-1.00,-1.0,2377
5913,2140913,17112,860,1292,17182.24,25.24,-1.00,-1.0,2449
5915,2140915,16976,920,1188,17042.37,25.14,-1.00,-1.0,2376
5918,2140918,16956,800,1284,17023.35,25.14,-1.00,-1.0,2367
5923,2140923,16932,836,1140,16990.91,25.24,-1.00,-1.0,2456
5926,2140926,16928,924,1156,16992.57,25.14,-1.00,-1.0,2372
5929,2140929,17036,796,1252,17100.48,25.19,-1.00,-1.0,2446
5931,2140931,16956,796,1348,17028.11,25.14,-1.00,-1.0,2368
5934,2140934,16984,984,1076,17046.47,25.09,-1.00,-1.0,2446
5937,2140937,16928,888,1224,16995.41,25.09,-1.00,-1.0,2370
5940,2140940,17028,800,1260,17093.29,25.19,-1.00,-1.0,2448
5942,2140942,16996,936,1312,17072.24,25.14,-1.00,-1.0,2369
5947,2140947,17024,832,1268,17091.42,25.09,-1.00,-1.0,2470
5950,2140950,16900,932,1320,16977.07,25.19,-1.00,-1.0,2372
5953,2140953,16944,812,1076,16997.54,25.14,-1.00,-1.0,2378
5956,2140956,16908,808,1396,16984.76,25.14,-1.00,-1.0,2457
5958,2140958,16936,828,1140,16994.51,25.14,-1.00,-1.0,2377
5961,2140961,16972,980,1264,17047.20,25.09,-1.00,-1.0,2447
5964,2140964,16988,892,1116,17047.97,25.24,-1.00,-1.0,2371
5967,2140967,16924,724,1168,16979.70,25.19,-1.00,-1.0,2445
5969,2140969,16996,828,1200,17058.42,25.14,-1.00,-1.0,2370
5974,2140974,16988,800,1188,17048.27,25.05,-1.00,-1.0,2443
5977,2140977,17024,776,1176,17082.21,25.14,-1.00,-1.0,2373
5980,2140980,16948,836,1212,17011.84,25.09,-1.00,-1.0,2433
5983,2140983,16928,804,1204,16989.80,25.14,-1.00,-1.0,2370
5985,2140985,16944,848,1148,17004.00,25.19,-1.00,-1.0,2444
5988,2140988,17008,792,1096,17061.67,25.28,-1.00,-1.0,2370
5991,2140991,16976,892,1140,17037.60,25.09,-1.00,-1.0,2371
5993,2140993,17008,928,1216,17076.65,25.14,-1.00,-1.0,2459
5996,2140996,16992,996,1116,17057.71,25.14,-1.00,-1.0,2374
6001,2141001,16892,832,1224,16956.71,25.24,-1.00,-1.0,2455
6004,2141004,16984,912,1312,17059.00,25.24,-1.00,-1.0,2371
6007,2141007,16976,784,1184,17035.29,25.05,-1.00,-1.0,2455
6009,2141009,17008,828,1120,17064.94,25.05,-1.00,-1.0,2370
6012,2141012,16948,872,1292,17019.53,25.14,-1.00,-1.0,2456
6015,2141015,16956,872,1236,17023.34,25.05,-1.00,-1.0,2384
6018,2141018,16964,860,1088,17020.59,25.09,-1.00,-1.0,2449
6021,2141021,16912,956,1176,16979.77,25.19,-1.00,-1.0,2373
6025,2141025,16960,936,1252,17031.89,25.05,-1.00,-1.0,2459
6028,2141028,16956,864,1164,17017.85,25.24,-1.00,-1.0,2380
6031,2141031,16960,840,1168,17020.91,25.19,-1.00,-1.0,2376
6034,2141034,17008,772,1144,17063.90,25.05,-1.00,-1.0,2453
6036,2141036,16924,908,1224,16992.48,25.09,-1.00,-1.0,2371
6039,2141039,17096,884,1260,17165.15,25.05,-1.00,-1.0,2448
6042,2141042,17024,848,1204,17087.58,25.14,-1.00,-1.0,2368
6045,2141045,16860,984,1216,16932.41,25.24,-1.00,-1.0,2452
6047,2141047,17036,900,1364,17114.20,25.14,-1.00,-1.0,2370
6052,2141052,16964,936,1208,17032.69,25.14,-1.00,-1.0,2454
6055,2141055,17028,776,1360,17099.84,25.24,-1.00,-1.0,2371
6058,2141058,16860,828,1180,16921.51,25.14,-1.00,-1.0,2447
6061,2141061,17104,872,1120,17162.80,25.14,-1.00,-1.0,2377
6063,2141063,16928,848,1228,16993.65,25.14,-1.00,-1.0,2445
6066,2141066,17036,968,1276,17111.12,25.14,-1.00,-1.0,2372
6069,2141069,16952,800,1108,17007.00,25.09,-1.00,-1.0,2355
6072,2141072,16916,828,1168,16976.48,25.19,-1.00,-1.0,2455
6074,2141074,17068,856,1192,17130.97,25.09,-1.00,-1.0,2374
6079,2141079,16980,876,1064,17035.84,25.14,-1.00,-1.0,2455
6082,2141082,16924,848,1152,16984.35,25.14,-1.00,-1.0,2372
6085,2141085,16944,940,1044,17002.14,25.14,-1.00,-1.0,2447
6087,2141087,16920,932,1068,16979.27,25.14,-1.00,-1.0,2358
6090,2141090,16908,948,1332,16986.86,25.14,-1.00,-1.0,2446
6093,2141093,16972,968,1320,17050.75,25.14,-1.00,-1.0,2370
6096,2141096,16980,820,1204,17042.37,25.09,-1.00,-1.0,2451
6098,2141098,16948,872,1216,17013.93,25.14,-1.00,-1.0,2372
6103,2141103,16948,872,1100,17006.03,25.09,-1.00,-1.0,2464
6106,2141106,17044,816,1128,17100.77,25.09,-1.00,-1.0,2388
6109,2141109,16972,864,1200,17036.29,25.14,-1.00,-1.0,2370
6111,2141111,16976,872,1124,17035.50,25.14,-1.00,-1.0,2445
6114,2141114,16988,884,1140,17049.14,25.14,-1.00,-1.0,2378
6117,2141117,17092,884,1216,17157.99,25.19,-1.00,-1.0,2445
6120,2141120,16968,920,1220,17036.66,25.14,-1.00,-1.0,2378
6122,2141122,17048,876,1212,17113.46,25.09,-1.00,-1.0,2449
6125,2141125,16992,812,1232,17055.94,25.24,-1.00,-1.0,2373
