timestamp_ms,global_ms,accel_x,accel_y,accel_z,accel_mag,temp_c,voltage,soc,loop_us
3,2135003,17000,756,1104,17052.58,25.75,-1.00,-1.0,2484
9,2135009,17000,812,1264,17066.25,25.85,-1.00,-1.0,2458
12,2135012,16920,960,1216,16990.78,25.71,-1.00,-1.0,2369
15,2135015,17076,796,1236,17139.17,25.75,-1.00,-1.0,2369
18,2135018,17052,780,1140,17107.86,25.71,-1.00,-1.0,2444
20,2135020,17004,728,1180,17060.43,25.75,-1.00,-1.0,2369
23,2135023,16964,848,1148,17023.93,25.71,-1.00,-1.0,2443
26,2135026,16960,940,1192,17027.80,25.75,-1.00,-1.0,2372
29,2135029,16996,904,1272,17067.49,25.71,-1.00,-1.0,2442
31,2135031,16928,812,1144,16986.03,25.66,-1.00,-1.0,2370
36,2135036,16984,892,1184,17048.57,25.80,-1.00,-1.0,2445
39,2135039,17056,896,1184,17120.51,25.71,-1.00,-1.0,2363
41,2135041,17088,908,1240,17156.97,25.71,-1.00,-1.0,2360
44,2135044,16972,904,1164,17035.87,25.75,-1.00,-1.0,2432
47,2135047,16892,908,1208,16959.46,25.71,-1.00,-1.0,2365
50,2135050,16968,928,1060,17026.38,25.66,-1.00,-1.0,2445
52,2135052,17036,948,1140,17100.40,25.80,-1.00,-1.0,2347
55,2135055,16984,876,1264,17053.48,25.71,-1.00,-1.0,2439
58,2135058,17036,868,1184,17099.14,25.80,-1.00,-1.0,2348
63,2135063,17004,884,1180,17067.80,25.71,-1.00,-1.0,2452
65,2135065,16952,768,1212,17012.62,25.66,-1.00,-1.0,2360
68,2135068,17000,872,1220,17066.01,25.71,-1.00,-1.0,2453
71,2135071,16952,908,1164,17016.16,25.75,-1.00,-1.0,2360
73,2135073,16972,848,1204,17035.77,25.71,-1.00,-1.0,2367
76,2135076,16956,860,1236,17022.73,25.80,-1.00,-1.0,2441
79,2135079,17020,908,1124,17081.22,25.71,-1.00,-1.0,2380
82,2135082,16996,844,1240,17062.06,25.71,-1.00,-1.0,2440
84,2135084,17048,872,1148,17108.85,25.71,-1.00,-1.0,2365
89,2135089,16964,904,1124,17025.21,25.75,-1.00,-1.0,2446
92,2135092,16948,816,1080,17001.97,25.75,-1.00,-1.0,2361
95,2135095,16988,848,1164,17048.93,25.75,-1.00,-1.0,2438
98,2135098,16964,888,1180,17028.16,25.85,-1.00,-1.0,2365
100,2135100,16920,844,1112,16977.49,25.71,-1.00,-1.0,2358
103,2135103,16964,836,1208,17027.49,25.80,-1.00,-1.0,2454
106,2135106,16944,896,1144,17006.20,25.71,-1.00,-1.0,2357
108,2135108,17020,884,1148,17081.56,25.71,-1.00,-1.0,2438
111,2135111,16924,816,1220,16987.53,25.75,-1.00,-1.0,2360
116,2135116,16964,852,1180,17026.32,25.75,-1.00,-1.0,2446
119,2135119,16976,864,1312,17048.53,25.71,-1.00,-1.0,2360
122,2135122,16912,884,1144,16973.68,25.66,-1.00,-1.0,2444
124,2135124,16976,884,1340,17051.73,25.75,-1.00,-1.0,2362
127,2135127,17012,844,1236,17077.71,25.75,-1.00,-1.0,2360
130,2135130,16928,912,1200,16994.97,25.71,-1.00,-1.0,2441
132,2135132,16960,868,1304,17032.19,25.66,-1.00,-1.0,2360
135,2135135,16976,756,1256,17039.18,25.71,-1.00,-1.0,2439
138,2135138,16900,764,1212,16960.62,25.71,-1.00,-1.0,2367
143,2135143,16904,836,1080,16959.08,25.71,-1.00,-1.0,2446
146,2135146,16932,860,1208,16996.81,25.71,-1.00,-1.0,2363
148,2135148,16920,864,1108,16978.24,25.71,-1.00,-1.0,2439
151,2135151,16928,856,1320,17000.95,25.71,-1.00,-1.0,2361
154,2135154,17060,884,1184,17123.87,25.71,-1.00,-1.0,2439
157,2135157,16964,848,1156,17024.47,25.71,-1.00,-1.0,2372
159,2135159,17004,860,1244,17071.12,25.80,-1.00,-1.0,2361
162,2135162,17036,884,1156,17098.04,25.75,-1.00,-1.0,2438
165,2135165,16980,836,1192,17042.30,25.66,-1.00,-1.0,2363
170,2135170,16984,896,1352,17061.27,25.75,-1.00,-1.0,2460
173,2135173,16988,944,1120,17051.03,25.80,-1.00,-1.0,2365
176,2135176,17056,804,1180,17115.66,25.66,-1.00,-1.0,2451
178,2135178,17064,864,1244,17131.09,25.71,-1.00,-1.0,2366
181,2135181,16892,700,1140,16944.89,25.75,-1.00,-1.0,2449
184,2135184,16932,976,1116,16996.78,25.80,-1.00,-1.0,2367
187,2135187,16872,984,1204,16943.50,25.66,-1.00,-1.0,2448
189,2135189,17008,904,1244,17077.38,25.80,-1.00,-1.0,2368
192,2135192,16984,936,1196,17051.77,25.66,-1.00,-1.0,2362
197,2135197,17000,812,1332,17071.43,25.66,-1.00,-1.0,2455
200,2135200,17048,860,1196,17111.53,25.71,-1.00,-1.0,2363
203,2135203,17024,872,1088,17081.00,25.75,-1.00,-1.0,2449
205,2135205,16964,872,1244,17031.89,25.75,-1.00,-1.0,2371
208,2135208,17092,872,1184,17155.14,25.66,-1.00,-1.0,2445
211,2135211,16948,772,1112,17001.98,25.71,-1.00,-1.0,2368
214,2135214,17056,844,1196,17118.70,25.75,-1.00,-1.0,2451
216,2135216,16908,824,1284,16976.69,25.66,-1.00,-1.0,2365
221,2135221,16916,860,1212,16981.15,25.75,-1.00,-1.0,2452
224,2135224,16956,900,1060,17012.92,25.66,-1.00,-1.0,2360
226,2135226,17016,904,1188,17081.36,25.80,-1.00,-1.0,2361
229,2135229,17060,836,1060,17113.33,25.71,-1.00,-1.0,2419
232,2135232,16924,912,1264,16995.62,25.75,-1.00,-1.0,2367
235,2135235,16900,808,1176,16960.12,25.71,-1.00,-1.0,2432
237,2135237,17020,860,1188,17083.07,25.71,-1.00,-1.0,2411
240,2135240,17000,772,1108,17053.55,25.75,-1.00,-1.0,2434
243,2135243,16932,832,1300,17002.20,25.80,-1.00,-1.0,2360
248,2135248,16996,844,1212,17060.05,25.75,-1.00,-1.0,2441
251,2135251,16920,896,1104,16979.64,25.61,-1.00,-1.0,2374
253,2135253,17040,832,1220,17103.87,25.75,-1.00,-1.0,2429
256,2135256,16996,820,1096,17051.03,25.71,-1.00,-1.0,2367
259,2135259,17060,820,1188,17120.96,25.75,-1.00,-1.0,2363
262,2135262,17016,876,1216,17081.87,25.75,-1.00,-1.0,2441
264,2135264,17040,812,1172,17099.55,25.75,-1.00,-1.0,2363
267,2135267,16908,872,1136,16968.54,25.66,-1.00,-1.0,2433
270,2135270,17060,764,1196,17118.93,25.80,-1.00,-1.0,2361
275,2135275,16956,820,1180,17016.78,25.71,-1.00,-1.0,2442
278,2135278,17012,876,1228,17078.74,25.80,-1.00,-1.0,2361
281,2135281,16900,828,1228,16964.77,25.80,-1.00,-1.0,2438
283,2135283,17072,852,1208,17135.88,25.71,-1.00,-1.0,2348
286,2135286,17052,932,1108,17113.36,25.80,-1.00,-1.0,2360
289,2135289,17012,884,1112,17071.21,25.71,-1.00,-1.0,2441
291,2135291,16920,720,1268,16982.71,25.71,-1.00,-1.0,2362
294,2135294,17012,828,1320,17083.21,25.75,-1.00,-1.0,2449
297,2135297,16952,808,1252,17017.36,25.66,-1.00,-1.0,2361
302,2135302,16964,900,1208,17030.75,25.66,-1.00,-1.0,2445
305,2135305,17024,872,1148,17084.93,25.80,-1.00,-1.0,2362
308,2135308,16960,936,1028,17016.89,25.71,-1.00,-1.0,2438
310,2135310,17036,792,1156,17093.53,25.71,-1.00,-1.0,2360
313,2135313,17040,872,1332,17114.21,25.66,-1.00,-1.0,2433
316,2135316,16960,776,1216,17021.23,25.71,-1.00,-1.0,2361
318,2135318,16912,756,1044,16961.05,25.66,-1.00,-1.0,2361
321,2135321,16964,764,1096,17016.53,25.71,-1.00,-1.0,2438
324,2135324,17060,896,1048,17115.63,25.75,-1.00,-1.0,2368
329,2135329,17040,824,1160,17099.30,25.75,-1.00,-1.0,2443
332,2135332,17012,808,1084,17065.64,25.85,-1.00,-1.0,2360
335,2135335,16988,892,1044,17043.41,25.75,-1.00,-1.0,2443
337,2135337,16876,844,1204,16939.93,25.75,-1.00,-1.0,2362
340,2135340,16996,884,1144,17057.38,25.75,-1.00,-1.0,2435
343,2135343,16956,788,1164,17014.16,25.75,-1.00,-1.0,2363
346,2135346,17032,888,1108,17091.09,25.75,-1.00,-1.0,2441
348,2135348,17088,876,1204,17152.75,25.75,-1.00,-1.0,2362
351,2135351,16904,864,1204,16968.83,25.71,-1.00,-1.0,2367
356,2135356,16928,912,1052,16985.16,25.75,-1.00,-1.0,2441
359,2135359,16904,860,1204,16968.63,25.75,-1.00,-1.0,2361
362,2135362,17032,804,1260,17097.46,25.75,-1.00,-1.0,2433
365,2135365,17080,808,1224,17142.85,25.71,-1.00,-1.0,2366
367,2135367,16980,856,1188,17043.02,25.75,-1.00,-1.0,2427
370,2135370,17016,740,1076,17066.04,25.80,-1.00,-1.0,2366
373,2135373,17024,828,1264,17090.93,25.75,-1.00,-1.0,2427
376,2135376,17020,812,1128,17076.65,25.71,-1.00,-1.0,2368
380,2135380,16952,892,1256,17021.85,25.80,-1.00,-1.0,2447
383,2135383,17020,948,1220,17089.98,25.80,-1.00,-1.0,2369
386,2135386,16996,960,1204,17065.62,25.71,-1.00,-1.0,2362
389,2135389,16968,864,1196,17032.03,25.71,-1.00,-1.0,2433
391,2135391,17004,740,1156,17059.31,25.80,-1.00,-1.0,2370
394,2135394,16900,772,1116,16954.39,25.66,-1.00,-1.0,2434
397,2135397,16908,908,1244,16978.00,25.71,-1.00,-1.0,2361
400,2135400,16980,800,1152,17037.83,25.71,-1.00,-1.0,2444
402,2135402,16892,892,1184,16956.92,25.80,-1.00,-1.0,2369
407,2135407,16948,884,1184,17012.29,25.71,-1.00,-1.0,2449
410,2135410,16908,884,1132,16968.89,25.80,-1.00,-1.0,2360
413,2135413,16940,764,1292,17006.37,25.71,-1.00,-1.0,2436
415,2135415,17060,856,1216,17124.69,25.71,-1.00,-1.0,2361
418,2135418,16976,832,1104,17032.19,25.80,-1.00,-1.0,2374
421,2135421,17020,764,1248,17082.79,25.75,-1.00,-1.0,2435
423,2135423,16992,892,1108,17051.43,25.71,-1.00,-1.0,2367
426,2135426,17012,872,1204,17076.83,25.75,-1.00,-1.0,2435
429,2135429,17092,932,1008,17147.04,25.75,-1.00,-1.0,2364
434,2135434,17012,840,1140,17070.83,25.66,-1.00,-1.0,2441
437,2135437,16980,924,1164,17044.91,25.75,-1.00,-1.0,2361
440,2135440,17052,932,1164,17117.07,25.75,-1.00,-1.0,2431
442,2135442,17028,800,1092,17081.72,25.75,-1.00,-1.0,2364
445,2135445,16984,848,1192,17046.88,25.66,-1.00,-1.0,2434
448,2135448,16960,812,1156,17018.73,25.66,-1.00,-1.0,2361
450,2135450,17036,888,1124,17096.12,25.75,-1.00,-1.0,2359
453,2135453,17016,748,1280,17080.46,25.80,-1.00,-1.0,2428
456,2135456,16928,848,1280,16997.49,25.75,-1.00,-1.0,2367
461,2135461,17076,900,1212,17142.60,25.71,-1.00,-1.0,2444
464,2135464,16912,848,1152,16972.39,25.66,-1.00,-1.0,2361
467,2135467,16960,896,1160,17023.22,25.71,-1.00,-1.0,2441
469,2135469,16908,904,1156,16971.56,25.75,-1.00,-1.0,2362
472,2135472,16988,816,1192,17049.31,25.71,-1.00,-1.0,2433
475,2135475,16980,944,1312,17056.75,25.75,-1.00,-1.0,2362
477,2135477,16852,936,1376,16933.97,25.71,-1.00,-1.0,2360
480,2135480,16980,788,1292,17047.30,25.71,-1.00,-1.0,2429
483,2135483,16956,756,1232,17017.50,25.71,-1.00,-1.0,2367
488,2135488,17020,840,1124,17077.74,25.75,-1.00,-1.0,2444
491,2135491,17096,828,1092,17150.84,25.85,-1.00,-1.0,2364
494,2135494,17028,784,1164,17085.73,25.75,-1.00,-1.0,2434
496,2135496,16984,908,1128,17045.62,25.75,-1.00,-1.0,2364
499,2135499,16960,860,1292,17030.87,25.66,-1.00,-1.0,2420
502,2135502,17064,936,1208,17132.29,25.75,-1.00,-1.0,2376
505,2135505,17032,860,1120,17090.44,25.66,-1.00,-1.0,2436
507,2135507,16960,760,1088,17011.85,25.71,-1.00,-1.0,2372
510,2135510,16908,836,1208,16971.70,25.80,-1.00,-1.0,2361
515,2135515,16896,836,1220,16960.61,25.80,-1.00,-1.0,2441
518,2135518,17000,848,1112,17057.42,25.75,-1.00,-1.0,2363
521,2135521,16960,864,1044,17014.05,25.71,-1.00,-1.0,2433
524,2135524,17000,872,1276,17070.11,25.66,-1.00,-1.0,2369
526,2135526,16928,812,1184,16988.77,25.80,-1.00,-1.0,2429
529,2135529,17000,932,1236,17070.33,25.85,-1.00,-1.0,2381
532,2135532,17076,864,1268,17144.80,25.71,-1.00,-1.0,2436
534,2135534,16972,900,1228,17040.15,25.66,-1.00,-1.0,2367
539,2135539,16936,836,1252,17002.78,25.66,-1.00,-1.0,2441
542,2135542,17064,880,1120,17123.34,25.75,-1.00,-1.0,2362
545,2135545,16940,816,1152,16998.72,25.75,-1.00,-1.0,2362
548,2135548,17000,920,1424,17084.33,25.80,-1.00,-1.0,2441
550,2135550,17072,876,1260,17140.83,25.66,-1.00,-1.0,2368
553,2135553,17040,816,1296,17108.68,25.80,-1.00,-1.0,2437
556,2135556,16944,960,1188,17012.70,25.75,-1.00,-1.0,2373
559,2135559,16936,880,1324,17010.45,25.66,-1.00,-1.0,2439
561,2135561,16992,844,1156,17052.18,25.71,-1.00,-1.0,2366
566,2135566,17052,832,1156,17111.38,25.71,-1.00,-1.0,2427
569,2135569,17092,888,1200,17157.07,25.71,-1.00,-1.0,2361
572,2135572,16996,812,1168,17055.43,25.75,-1.00,-1.0,2436
575,2135575,17012,900,1208,17078.57,25.71,-1.00,-1.0,2367
577,2135577,17044,880,1192,17108.28,25.66,-1.00,-1.0,2356
580,2135580,16988,828,1104,17043.96,25.75,-1.00,-1.0,2433
583,2135583,16924,832,1244,16990.04,25.71,-1.00,-1.0,2367
585,2135585,17000,828,1124,17057.23,25.71,-1.00,-1.0,2436
588,2135588,16980,812,1048,17031.68,25.66,-1.00,-1.0,2366
593,2135593,16980,836,1120,17037.42,25.85,-1.00,-1.0,2443
596,2135596,16828,860,1252,16896.41,25.75,-1.00,-1.0,2362
599,2135599,17008,908,1128,17069.53,25.66,-1.00,-1.0,2432
602,2135602,16980,800,1124,17035.96,25.75,-1.00,-1.0,2365
604,2135604,17044,844,1228,17109.01,25.75,-1.00,-1.0,2429
607,2135607,17036,956,1068,17096.19,25.75,-1.00,-1.0,2367
610,2135610,17016,940,1036,17073.40,25.66,-1.00,-1.0,2351
613,2135613,17044,836,1160,17103.87,25.80,-1.00,-1.0,2441
615,2135615,16992,848,1052,17045.64,25.80,-1.00,-1.0,2369
620,2135620,16968,888,1232,17035.83,25.75,-1.00,-1.0,2441
623,2135623,17032,856,1156,17092.63,25.85,-1.00,-1.0,2362
626,2135626,16988,832,1144,17046.79,25.71,-1.00,-1.0,2449
629,2135629,17004,928,1216,17072.66,25.66,-1.00,-1.0,2369
631,2135631,16912,840,1024,16963.78,25.71,-1.00,-1.0,2433
634,2135634,17052,796,1100,17105.97,25.66,-1.00,-1.0,2361
637,2135637,17036,784,1180,17094.80,25.66,-1.00,-1.0,2433
640,2135640,17072,840,1052,17125.00,25.75,-1.00,-1.0,2368
642,2135642,17056,912,1240,17125.32,25.71,-1.00,-1.0,2358
647,2135647,16904,840,1140,16963.21,25.71,-1.00,-1.0,2443
650,2135650,17008,824,1096,17063.18,25.71,-1.00,-1.0,2364
653,2135653,17008,840,1192,17070.40,25.75,-1.00,-1.0,2432
655,2135655,17096,788,1192,17155.61,25.71,-1.00,-1.0,2365
658,2135658,16968,928,1076,17027.39,25.71,-1.00,-1.0,2437
661,2135661,16920,860,1184,16983.16,25.80,-1.00,-1.0,2377
664,2135664,17016,724,1236,17076.19,25.80,-1.00,-1.0,2434
667,2135667,16992,876,1180,17055.43,25.61,-1.00,-1.0,2361
670,2135670,17016,824,1056,17068.64,25.71,-1.00,-1.0,2362
674,2135674,16988,836,1236,17053.41,25.75,-1.00,-1.0,2443
677,2135677,17012,804,1112,17067.25,25.66,-1.00,-1.0,2362
680,2135680,16996,820,1112,17052.07,25.75,-1.00,-1.0,2419
683,2135683,16964,792,1116,17019.11,25.80,-1.00,-1.0,2369
685,2135685,16996,828,1236,17060.99,25.71,-1.00,-1.0,2429
688,2135688,16920,848,1192,16983.12,25.80,-1.00,-1.0,2383
691,2135691,16900,816,1208,16962.76,25.75,-1.00,-1.0,2435
694,2135694,16976,776,1264,17040.67,25.75,-1.00,-1.0,2361
699,2135699,17020,884,1160,17082.37,25.75,-1.00,-1.0,2444
701,2135701,16940,824,1220,17003.85,25.71,-1.00,-1.0,2370
704,2135704,17028,772,1268,17092.59,25.66,-1.00,-1.0,2361
707,2135707,16944,912,1128,17005.98,25.75,-1.00,-1.0,2437
709,2135709,17044,868,1204,17108.51,25.80,-1.00,-1.0,2348
712,2135712,16932,824,1224,16996.17,25.66,-1.00,-1.0,2433
715,2135715,17024,796,1088,17077.29,25.66,-1.00,-1.0,2349
718,2135718,17012,856,1156,17072.70,25.80,-1.00,-1.0,2439
721,2135721,16888,776,1192,16947.79,25.66,-1.00,-1.0,2360
726,2135726,17056,908,1016,17110.34,25.75,-1.00,-1.0,2443
728,2135728,16976,828,1064,17029.45,25.71,-1.00,-1.0,2370
731,2135731,17012,848,1008,17062.92,25.75,-1.00,-1.0,2434
734,2135734,16928,824,1120,16985.01,25.75,-1.00,-1.0,2361
736,2135736,17032,872,1256,17100.50,25.66,-1.00,-1.0,2360
739,2135739,16924,868,1096,16981.65,25.66,-1.00,-1.0,2414
742,2135742,17032,864,1156,17093.04,25.75,-1.00,-1.0,2369
745,2135745,16992,836,1116,17049.12,25.71,-1.00,-1.0,2435
748,2135748,16932,920,1088,16991.84,25.80,-1.00,-1.0,2360
753,2135753,17020,948,1224,17090.27,25.75,-1.00,-1.0,2443
755,2135755,16996,828,1280,17064.23,25.75,-1.00,-1.0,2349
758,2135758,16968,784,1284,17034.56,25.71,-1.00,-1.0,2434
761,2135761,17020,860,1180,17082.52,25.85,-1.00,-1.0,2348
764,2135764,16956,892,1276,17027.32,25.75,-1.00,-1.0,2443
766,2135766,17060,852,1104,17116.90,25.75,-1.00,-1.0,2373
769,2135769,16988,872,1008,17040.21,25.75,-1.00,-1.0,2360
772,2135772,16920,856,1136,16979.68,25.71,-1.00,-1.0,2437
775,2135775,16940,924,1164,17005.07,25.80,-1.00,-1.0,2368
780,2135780,16940,884,1188,17004.60,25.75,-1.00,-1.0,2442
782,2135782,16980,884,1264,17049.91,25.75,-1.00,-1.0,2367
785,2135785,16992,872,984,17042.79,25.71,-1.00,-1.0,2432
788,2135788,16932,912,1116,16993.23,25.75,-1.00,-1.0,2368
791,2135791,17028,864,1256,17096.11,25.75,-1.00,-1.0,2434
793,2135793,16936,888,1144,16997.80,25.85,-1.00,-1.0,2368
796,2135796,16904,828,1188,16965.91,25.75,-1.00,-1.0,2440
799,2135799,17012,920,1196,17078.79,25.66,-1.00,-1.0,2375
802,2135802,17048,796,1100,17101.99,25.71,-1.00,-1.0,2367
807,2135807,17112,936,1200,17179.54,25.80,-1.00,-1.0,2442
809,2135809,17004,888,1172,17067.46,25.71,-1.00,-1.0,2361
812,2135812,17084,892,1172,17147.37,25.80,-1.00,-1.0,2434
815,2135815,16860,852,1064,16915.01,25.80,-1.00,-1.0,2360
818,2135818,16876,896,1208,16942.89,25.71,-1.00,-1.0,2434
820,2135820,17020,800,1132,17076.35,25.71,-1.00,-1.0,2369
823,2135823,16972,904,1216,17039.50,25.80,-1.00,-1.0,2434
826,2135826,16996,896,1116,17056.15,25.66,-1.00,-1.0,2361
831,2135831,17016,820,1076,17069.69,25.75,-1.00,-1.0,2449
833,2135833,16928,848,1160,16988.88,25.75,-1.00,-1.0,2362
836,2135836,16968,800,1120,17023.73,25.71,-1.00,-1.0,2421
839,2135839,17064,836,1072,17118.07,25.80,-1.00,-1.0,2442
842,2135842,17000,940,1148,17064.63,25.85,-1.00,-1.0,2374
845,2135845,16948,888,1152,17010.30,25.80,-1.00,-1.0,2442
847,2135847,17088,804,1132,17144.32,25.75,-1.00,-1.0,2372
850,2135850,16976,988,1184,17045.90,25.71,-1.00,-1.0,2437
853,2135853,16856,728,1128,16909.38,25.75,-1.00,-1.0,2373
858,2135858,17024,784,1200,17084.24,25.71,-1.00,-1.0,2444
860,2135860,16976,840,1248,17042.53,25.66,-1.00,-1.0,2369
863,2135863,16992,868,1252,17060.16,25.71,-1.00,-1.0,2363
866,2135866,16940,832,1312,17011.09,25.71,-1.00,-1.0,2433
868,2135868,17088,776,1152,17144.36,25.71,-1.00,-1.0,2350
871,2135871,17012,816,1276,17079.29,25.80,-1.00,-1.0,2433
874,2135874,16928,884,1096,16986.46,25.71,-1.00,-1.0,2361
877,2135877,16912,792,1152,16969.68,25.80,-1.00,-1.0,2434
880,2135880,16988,948,1160,17053.93,25.80,-1.00,-1.0,2355
885,2135885,16964,896,1168,17027.75,25.80,-1.00,-1.0,2442
887,2135887,17028,904,1100,17087.42,25.71,-1.00,-1.0,2371
890,2135890,17080,800,1268,17145.68,25.71,-1.00,-1.0,2445
893,2135893,17028,788,1080,17080.40,25.71,-1.00,-1.0,2363
895,2135895,17004,844,1224,17068.88,25.80,-1.00,-1.0,2359
898,2135898,16952,900,1164,17015.73,25.80,-1.00,-1.0,2415
901,2135901,16976,880,1168,17038.87,25.71,-1.00,-1.0,2368
904,2135904,16964,808,1184,17024.45,25.71,-1.00,-1.0,2433
907,2135907,17008,856,1112,17065.79,25.71,-1.00,-1.0,2361
912,2135912,16948,888,1204,17013.90,25.71,-1.00,-1.0,2446
914,2135914,17020,864,1188,17083.27,25.75,-1.00,-1.0,2361
917,2135917,16920,772,1180,16978.66,25.71,-1.00,-1.0,2450
920,2135920,16956,780,1164,17013.79,25.75,-1.00,-1.0,2360
923,2135923,17040,864,1216,17105.17,25.71,-1.00,-1.0,2441
925,2135925,16976,896,1140,17037.81,25.75,-1.00,-1.0,2362
928,2135928,17004,820,1332,17075.79,25.71,-1.00,-1.0,2374
931,2135931,16936,804,1104,16990.98,25.75,-1.00,-1.0,2419
934,2135934,17056,924,1076,17114.87,25.71,-1.00,-1.0,2369
939,2135939,16964,884,1192,17028.79,25.71,-1.00,-1.0,2441
941,2135941,16976,812,1096,17030.71,25.71,-1.00,-1.0,2361
944,2135944,16988,860,1148,17048.45,25.71,-1.00,-1.0,2446
947,2135947,17032,772,1164,17089.18,25.71,-1.00,-1.0,2368
950,2135950,17120,924,1164,17184.38,25.71,-1.00,-1.0,2436
952,2135952,16912,876,1140,16973.00,25.71,-1.00,-1.0,2362
955,2135955,17000,804,1164,17058.76,25.80,-1.00,-1.0,2448
958,2135958,16984,836,1064,17037.82,25.71,-1.00,-1.0,2361
961,2135961,17016,864,1100,17073.39,25.75,-1.00,-1.0,2360
966,2135966,16984,952,1164,17050.44,25.80,-1.00,-1.0,2442
968,2135968,16900,776,1112,16954.31,25.71,-1.00,-1.0,2368
971,2135971,16888,852,1348,16963.12,25.75,-1.00,-1.0,2445
974,2135974,17012,836,1060,17065.48,25.71,-1.00,-1.0,2376
977,2135977,16924,936,1096,16985.26,25.75,-1.00,-1.0,2435
979,2135979,17044,868,1148,17104.66,25.71,-1.00,-1.0,2367
982,2135982,16940,776,1252,17003.92,25.75,-1.00,-1.0,2444
985,2135985,16940,952,1120,17003.66,25.71,-1.00,-1.0,2368
990,2135990,16964,776,1060,17014.79,25.80,-1.00,-1.0,2439
993,2135993,16968,816,1044,17019.66,25.66,-1.00,-1.0,2374
995,2135995,16924,884,1248,16992.96,25.71,-1.00,-1.0,2357
998,2135998,16912,872,1092,16969.64,25.71,-1.00,-1.0,2452
1001,2136001,16972,872,1248,17040.15,25.71,-1.00,-1.0,2369
1004,2136004,16996,796,1144,17053.04,25.66,-1.00,-1.0,2441
1006,2136006,17016,860,1268,17084.84,25.71,-1.00,-1.0,2363
1009,2136009,16992,772,1164,17049.31,25.71,-1.00,-1.0,2448
1012,2136012,16924,876,1028,16977.81,25.71,-1.00,-1.0,2361
1017,2136017,17080,880,1200,17144.70,25.75,-1.00,-1.0,2437
1020,2136020,17088,764,1180,17145.72,25.66,-1.00,-1.0,2366
1022,2136022,16976,912,1268,17047.70,25.71,-1.00,-1.0,2433
1025,2136025,16988,876,1292,17059.57,25.75,-1.00,-1.0,2367
1028,2136028,16932,796,1056,16983.56,25.80,-1.00,-1.0,2355
1030,2136030,16964,688,1132,17015.64,25.71,-1.00,-1.0,2432
1033,2136033,16968,892,1068,17024.96,25.66,-1.00,-1.0,2362
1036,2136036,16956,844,1132,17014.69,25.71,-1.00,-1.0,2432
1039,2136039,16992,824,1148,17050.66,25.71,-1.00,-1.0,2366
1044,2136044,16908,812,1144,16966.10,25.71,-1.00,-1.0,2441
1047,2136047,16976,820,1216,17039.24,25.71,-1.00,-1.0,2368
1049,2136049,16948,872,1108,17006.55,25.71,-1.00,-1.0,2418
1052,2136052,17004,828,1176,17064.72,25.75,-1.00,-1.0,2366
1055,2136055,16888,968,1088,16950.67,25.71,-1.00,-1.0,2427
1058,2136058,16992,884,1168,17055.02,25.75,-1.00,-1.0,2367
1060,2136060,16960,812,1220,17023.20,25.71,-1.00,-1.0,2426
1063,2136063,16940,840,1220,17004.63,25.75,-1.00,-1.0,2368
1066,2136066,17056,892,1292,17128.11,25.71,-1.00,-1.0,2359
1071,2136071,17048,868,1240,17115.06,25.66,-1.00,-1.0,2449
1073,2136073,16964,784,1284,17030.58,25.75,-1.00,-1.0,2362
1076,2136076,16968,884,1084,17025.55,25.75,-1.00,-1.0,2446
1079,2136079,17032,776,1184,17090.73,25.71,-1.00,-1.0,2368
1082,2136082,16984,932,1136,17047.45,25.75,-1.00,-1.0,2441
1084,2136084,17060,820,1088,17114.31,25.75,-1.00,-1.0,2362
1087,2136087,17036,820,1192,17097.33,25.75,-1.00,-1.0,2447
1090,2136090,17048,832,1236,17112.98,25.71,-1.00,-1.0,2369
1095,2136095,16980,804,1136,17036.94,25.75,-1.00,-1.0,2430
1097,2136097,16912,872,1256,16980.98,25.75,-1.00,-1.0,2362
1100,2136100,16956,880,1044,17010.89,25.75,-1.00,-1.0,2445
1103,2136103,17008,796,1148,17065.27,25.75,-1.00,-1.0,2368
1106,2136106,16984,864,1280,17054.07,25.71,-1.00,-1.0,2360
1108,2136108,17052,852,1060,17106.14,25.71,-1.00,-1.0,2428
1111,2136111,16992,876,1220,17058.25,25.66,-1.00,-1.0,2374
1114,2136114,16940,736,1308,17006.36,25.71,-1.00,-1.0,2440
1117,2136117,17000,804,1264,17065.88,25.75,-1.00,-1.0,2375
1122,2136122,17012,892,1172,17075.64,25.71,-1.00,-1.0,2472
1125,2136125,17000,812,1116,17055.93,25.80,-1.00,-1.0,2366
1128,2136128,17000,844,1084,17055.42,25.71,-1.00,-1.0,2435
1130,2136130,16980,828,1216,17043.61,25.71,-1.00,-1.0,2362
1133,2136133,16964,916,1108,17024.81,25.80,-1.00,-1.0,2419
1136,2136136,16976,908,1152,17039.25,25.71,-1.00,-1.0,2366
1139,2136139,16984,840,1156,17044.01,25.71,-1.00,-1.0,2430
1141,2136141,17036,828,1292,17104.97,25.71,-1.00,-1.0,2371
1144,2136144,17000,872,1096,17057.60,25.80,-1.00,-1.0,2362
1149,2136149,16956,908,1216,17023.78,25.61,-1.00,-1.0,2461
1152,2136152,16996,816,1208,17058.40,25.75,-1.00,-1.0,2371
1155,2136155,16928,800,1084,16981.53,25.71,-1.00,-1.0,2442
1157,2136157,16964,864,1064,17019.28,25.66,-1.00,-1.0,2368
1160,2136160,17004,860,1112,17062.01,25.80,-1.00,-1.0,2441
1163,2136163,17000,884,1072,17056.69,25.75,-1.00,-1.0,2372
1165,2136165,16948,800,1292,17015.99,25.71,-1.00,-1.0,2440
1168,2136168,16972,828,1216,17035.64,25.66,-1.00,-1.0,2365
1173,2136173,16988,860,1168,17049.81,25.75,-1.00,-1.0,2440
1176,2136176,17036,944,1052,17094.54,25.75,-1.00,-1.0,2364
1179,2136179,17052,776,1280,17117.57,25.66,-1.00,-1.0,2439
1181,2136181,16904,812,1252,16969.74,25.75,-1.00,-1.0,2364
1184,2136184,16896,824,1220,16960.02,25.75,-1.00,-1.0,2362
1187,2136187,16960,868,1204,17024.82,25.71,-1.00,-1.0,2445
1189,2136189,16960,868,1156,17021.50,25.75,-1.00,-1.0,2359
1192,2136192,16972,896,1248,17041.39,25.80,-1.00,-1.0,2450
1195,2136195,16992,724,1108,17043.47,25.80,-1.00,-1.0,2358
1200,2136200,16964,788,1116,17018.92,25.71,-1.00,-1.0,2448
1203,2136203,17008,776,1184,17066.81,25.75,-1.00,-1.0,2359
1206,2136206,16892,876,1148,16953.61,25.80,-1.00,-1.0,2444
1208,2136208,17008,800,1160,17066.27,25.66,-1.00,-1.0,2359
1211,2136211,17032,848,1252,17098.99,25.71,-1.00,-1.0,2453
1214,2136214,17008,888,1304,17081.01,25.75,-1.00,-1.0,2359
1217,2136217,16988,936,1164,17053.54,25.80,-1.00,-1.0,2444
1219,2136219,16956,844,1320,17028.23,25.85,-1.00,-1.0,2358
1222,2136222,16992,932,1172,17057.85,25.75,-1.00,-1.0,2360
1227,2136227,16916,876,1076,16972.81,25.71,-1.00,-1.0,2454
1230,2136230,16984,896,1216,17051.03,25.80,-1.00,-1.0,2353
1233,2136233,16972,752,1244,17034.14,25.71,-1.00,-1.0,2442
1235,2136235,17088,840,1152,17147.38,25.80,-1.00,-1.0,2364
1238,2136238,17004,936,1204,17072.25,25.75,-1.00,-1.0,2461
1241,2136241,16936,900,1116,16996.57,25.66,-1.00,-1.0,2371
1244,2136244,16872,800,1168,16931.29,25.71,-1.00,-1.0,2438
1246,2136246,17036,824,1220,17099.49,25.85,-1.00,-1.0,2363
1251,2136251,17000,840,1112,17057.03,25.75,-1.00,-1.0,2445
1254,2136254,16956,888,1184,17020.47,25.66,-1.00,-1.0,2364
1257,2136257,17060,772,1188,17118.73,25.75,-1.00,-1.0,2423
1260,2136260,16972,844,996,17022.14,25.75,-1.00,-1.0,2364
1262,2136262,17020,956,1144,17085.17,25.75,-1.00,-1.0,2359
1265,2136265,16996,880,1184,17059.90,25.80,-1.00,-1.0,2437
1268,2136268,16960,864,1308,17032.29,25.85,-1.00,-1.0,2365
1270,2136270,16888,908,1112,16948.91,25.71,-1.00,-1.0,2436
1273,2136273,16940,756,1220,17000.69,25.71,-1.00,-1.0,2363
1278,2136278,17012,908,1216,17079.56,25.80,-1.00,-1.0,2445
1281,2136281,16964,904,1120,17024.95,25.71,-1.00,-1.0,2372
1283,2136283,16972,736,1116,17024.57,25.71,-1.00,-1.0,2436
1286,2136286,16916,884,1080,16973.48,25.61,-1.00,-1.0,2364
1289,2136289,16848,812,1412,16926.55,25.80,-1.00,-1.0,2437
1292,2136292,17012,820,1192,17073.41,25.80,-1.00,-1.0,2371
1294,2136294,16992,888,1072,17048.92,25.80,-1.00,-1.0,2364
1297,2136297,16924,984,1172,16993.05,25.66,-1.00,-1.0,2448
1300,2136300,16984,864,1232,17050.53,25.80,-1.00,-1.0,2367
1305,2136305,16940,848,1108,16997.36,25.75,-1.00,-1.0,2459
1308,2136308,16936,800,1164,16994.79,25.80,-1.00,-1.0,2370
1311,2136311,16952,912,1192,17018.31,25.75,-1.00,-1.0,2444
1313,2136313,16976,884,1112,17035.33,25.80,-1.00,-1.0,2368
1316,2136316,16992,812,1192,17053.10,25.85,-1.00,-1.0,2451
1319,2136319,16960,888,1060,17016.28,25.71,-1.00,-1.0,2370
1322,2136322,16920,832,1236,16985.47,25.66,-1.00,-1.0,2445
1324,2136324,16980,944,1164,17046.01,25.75,-1.00,-1.0,2372
1329,2136329,16940,792,1188,17000.06,25.71,-1.00,-1.0,2445
1332,2136332,16932,848,1188,16994.79,25.71,-1.00,-1.0,2363
1334,2136334,16952,824,1148,17010.80,25.75,-1.00,-1.0,2368
1337,2136337,16996,912,1100,17055.96,25.85,-1.00,-1.0,2446
1340,2136340,16996,784,1200,17056.34,25.75,-1.00,-1.0,2372
1343,2136343,17004,860,1016,17056.02,25.75,-1.00,-1.0,2425
1345,2136345,16900,832,1036,16952.15,25.75,-1.00,-1.0,2364
1348,2136348,16944,860,1164,17005.69,25.75,-1.00,-1.0,2445
1351,2136351,16992,828,1092,17047.17,25.66,-1.00,-1.0,2370
1356,2136356,16956,756,1248,17018.67,25.75,-1.00,-1.0,2445
1359,2136359,17028,928,1132,17090.80,25.71,-1.00,-1.0,2363
1362,2136362,17060,872,1084,17116.63,25.71,-1.00,-1.0,2445
1364,2136364,16940,788,1092,16993.44,25.71,-1.00,-1.0,2351
1367,2136367,16992,776,1128,17047.07,25.75,-1.00,-1.0,2440
1370,2136370,16968,856,1156,17028.86,25.71,-1.00,-1.0,2363
1372,2136372,17064,896,1196,17129.31,25.75,-1.00,-1.0,2359
1375,2136375,17032,896,1164,17095.22,25.80,-1.00,-1.0,2440
1378,2136378,17000,756,1244,17062.21,25.66,-1.00,-1.0,2373
1383,2136383,16908,852,1076,16963.61,25.75,-1.00,-1.0,2445
1386,2136386,17012,816,1152,17070.47,25.75,-1.00,-1.0,2363
1389,2136389,17064,980,1164,17131.71,25.75,-1.00,-1.0,2444
1391,2136391,17000,896,1272,17071.05,25.66,-1.00,-1.0,2365
1394,2136394,17032,856,1276,17101.17,25.75,-1.00,-1.0,2449
1397,2136397,16948,856,1140,17007.85,25.75,-1.00,-1.0,2364
1400,2136400,17008,912,1220,17076.07,25.75,-1.00,-1.0,2444
1402,2136402,17012,932,1252,17083.45,25.85,-1.00,-1.0,2364
1407,2136407,17032,844,1184,17093.95,25.80,-1.00,-1.0,2444
1410,2136410,17052,768,1140,17107.31,25.71,-1.00,-1.0,2364
1413,2136413,17024,844,1240,17089.95,25.71,-1.00,-1.0,2367
1415,2136415,16944,848,1076,16999.29,25.75,-1.00,-1.0,2437
1418,2136418,16936,896,1208,17002.65,25.75,-1.00,-1.0,2364
1421,2136421,16872,896,1020,16926.54,25.75,-1.00,-1.0,2436
1424,2136424,17060,824,1212,17122.84,25.71,-1.00,-1.0,2369
1426,2136426,17032,780,1088,17084.53,25.85,-1.00,-1.0,2437
1429,2136429,17076,868,1124,17134.95,25.71,-1.00,-1.0,2367
1434,2136434,16904,896,1128,16965.27,25.71,-1.00,-1.0,2454
1437,2136437,17052,884,1200,17117.01,25.71,-1.00,-1.0,2371
1440,2136440,17024,900,1160,17087.19,25.71,-1.00,-1.0,2440
1442,2136442,16996,828,1116,17052.71,25.80,-1.00,-1.0,2371
1445,2136445,17000,944,1052,17058.66,25.71,-1.00,-1.0,2425
1448,2136448,17028,860,1244,17095.03,25.71,-1.00,-1.0,2379
1451,2136451,17032,820,1132,17089.26,25.71,-1.00,-1.0,2359
1453,2136453,16992,904,1068,17049.51,25.66,-1.00,-1.0,2437
1456,2136456,17008,848,1184,17070.24,25.71,-1.00,-1.0,2366
1461,2136461,16928,964,1388,17012.14,25.71,-1.00,-1.0,2447
1464,2136464,16900,840,1140,16959.22,25.80,-1.00,-1.0,2366
1467,2136467,16972,800,1316,17041.73,25.80,-1.00,-1.0,2437
1469,2136469,16940,824,1184,17001.31,25.71,-1.00,-1.0,2362
1472,2136472,16928,848,1192,16991.09,25.71,-1.00,-1.0,2423
1475,2136475,16948,832,1140,17006.66,25.71,-1.00,-1.0,2378
1478,2136478,16984,872,1208,17049.22,25.71,-1.00,-1.0,2437
1480,2136480,16972,892,1176,17036.06,25.71,-1.00,-1.0,2371
1485,2136485,17028,896,1140,17089.62,25.80,-1.00,-1.0,2446
1488,2136488,16896,884,1188,16960.77,25.61,-1.00,-1.0,2366
1491,2136491,16948,840,1028,16999.91,25.71,-1.00,-1.0,2360
1493,2136493,16968,788,1176,17026.95,25.66,-1.00,-1.0,2438
1496,2136496,17016,876,1272,17085.95,25.75,-1.00,-1.0,2365
1499,2136499,17012,904,1072,17069.70,25.66,-1.00,-1.0,2436
1502,2136502,16984,780,1184,17043.08,25.71,-1.00,-1.0,2363
1504,2136504,16972,820,1180,17032.72,25.71,-1.00,-1.0,2437
1507,2136507,17092,820,1376,17166.89,25.75,-1.00,-1.0,2364
1512,2136512,16944,804,1104,16998.95,25.71,-1.00,-1.0,2448
1515,2136515,16948,848,1052,17001.78,25.66,-1.00,-1.0,2363
1518,2136518,16988,880,1200,17053.05,25.71,-1.00,-1.0,2445
1520,2136520,17016,888,1224,17083.06,25.75,-1.00,-1.0,2364
1523,2136523,16988,888,1072,17044.94,25.71,-1.00,-1.0,2440
1526,2136526,16976,960,1076,17037.13,25.75,-1.00,-1.0,2363
1528,2136528,17080,804,1196,17140.69,25.61,-1.00,-1.0,2361
1531,2136531,17048,812,1132,17104.83,25.80,-1.00,-1.0,2437
1534,2136534,17068,736,1112,17120.01,25.71,-1.00,-1.0,2364
1539,2136539,16992,812,1136,17049.28,25.75,-1.00,-1.0,2444
1542,2136542,16876,864,1116,16934.91,25.85,-1.00,-1.0,2363
1545,2136545,16952,820,1100,17007.43,25.80,-1.00,-1.0,2437
1548,2136548,16952,940,1152,17017.08,25.75,-1.00,-1.0,2364
1550,2136550,17088,836,1240,17153.32,25.71,-1.00,-1.0,2436
1553,2136553,16984,832,1148,17043.07,25.75,-1.00,-1.0,2363
1556,2136556,17008,800,1200,17069.04,25.75,-1.00,-1.0,2437
1559,2136559,16948,820,1248,17013.66,25.75,-1.00,-1.0,2364
1564,2136564,16976,828,1104,17032.00,25.75,-1.00,-1.0,2445
1566,2136566,17036,776,1036,17085.10,25.75,-1.00,-1.0,2371
1569,2136569,17048,812,1268,17114.37,25.75,-1.00,-1.0,2359
1572,2136572,16988,852,1192,17051.07,25.80,-1.00,-1.0,2443
1574,2136574,16968,932,1228,17037.89,25.75,-1.00,-1.0,2365
1577,2136577,17004,888,1172,17067.46,25.71,-1.00,-1.0,2437
1580,2136580,16940,900,1096,16999.26,25.66,-1.00,-1.0,2364
1583,2136583,16960,880,1056,17015.62,25.71,-1.00,-1.0,2435
1585,2136585,16984,856,1144,17043.99,25.71,-1.00,-1.0,2365
1590,2136590,17028,884,1116,17087.41,25.71,-1.00,-1.0,2445
1593,2136593,16996,844,1208,17059.77,25.80,-1.00,-1.0,2364
1596,2136596,17028,780,1108,17081.83,25.71,-1.00,-1.0,2437
1599,2136599,16992,880,1216,17058.17,25.71,-1.00,-1.0,2371
1601,2136601,16968,828,1108,17024.29,25.71,-1.00,-1.0,2436
1604,2136604,16948,848,1240,17014.45,25.71,-1.00,-1.0,2364
1607,2136607,16968,856,1160,17029.13,25.75,-1.00,-1.0,2366
1610,2136610,16896,840,1208,16959.94,25.75,-1.00,-1.0,2445
1612,2136612,16976,884,1124,17036.12,25.71,-1.00,-1.0,2371
1618,2136618,16976,916,968,17028.23,25.71,-1.00,-1.0,2451
1620,2136620,17028,908,1192,17093.80,25.71,-1.00,-1.0,2363
1623,2136623,16972,776,1176,17030.38,25.71,-1.00,-1.0,2440
1626,2136626,17008,840,1180,17069.57,25.71,-1.00,-1.0,2364
1629,2136629,16944,840,1100,17000.43,25.71,-1.00,-1.0,2439
1631,2136631,16984,860,1188,17047.21,25.71,-1.00,-1.0,2363
1634,2136634,17024,872,1092,17081.26,25.71,-1.00,-1.0,2437
1637,2136637,17000,752,1256,17062.91,25.71,-1.00,-1.0,2364
1639,2136639,16916,888,1148,16978.15,25.75,-1.00,-1.0,2364
1644,2136644,16912,852,1040,16965.35,25.71,-1.00,-1.0,2444
1647,2136647,17036,840,1148,17095.29,25.75,-1.00,-1.0,2365
1650,2136650,16944,888,1044,16999.34,25.75,-1.00,-1.0,2452
1653,2136653,17020,840,1192,17082.36,25.75,-1.00,-1.0,2366
1655,2136655,16996,856,1184,17058.68,25.66,-1.00,-1.0,2437
1658,2136658,16988,776,1188,17047.16,25.75,-1.00,-1.0,2366
1661,2136661,17036,860,1344,17110.56,25.85,-1.00,-1.0,2443
1664,2136664,17008,912,1312,17082.89,25.75,-1.00,-1.0,2372
1669,2136669,16960,852,1264,17028.37,25.71,-1.00,-1.0,2453
1671,2136671,16916,840,1112,16973.31,25.71,-1.00,-1.0,2364
1674,2136674,16944,948,1252,17016.62,25.75,-1.00,-1.0,2438
1677,2136677,16964,852,1252,17031.46,25.71,-1.00,-1.0,2351
1679,2136679,16948,848,1324,17020.78,25.80,-1.00,-1.0,2346
1682,2136682,16968,836,1204,17031.19,25.75,-1.00,-1.0,2438
1685,2136685,16940,788,1172,16998.77,25.80,-1.00,-1.0,2364
1688,2136688,17000,880,1228,17067.00,25.75,-1.00,-1.0,2444
1691,2136691,16972,888,1144,17033.67,25.71,-1.00,-1.0,2364
1695,2136695,16976,840,1268,17044.00,25.80,-1.00,-1.0,2459
1698,2136698,16888,908,1264,16959.56,25.75,-1.00,-1.0,2366
1701,2136701,16996,864,1012,17048.01,25.75,-1.00,-1.0,2436
1704,2136704,16992,872,988,17043.02,25.66,-1.00,-1.0,2371
1706,2136706,16964,916,1240,17033.91,25.85,-1.00,-1.0,2437
1709,2136709,17020,880,1116,17079.23,25.75,-1.00,-1.0,2364
1712,2136712,16992,832,1196,17054.35,25.75,-1.00,-1.0,2435
1715,2136715,16928,856,1120,16986.59,25.66,-1.00,-1.0,2364
1718,2136718,16980,776,1244,17043.18,25.71,-1.00,-1.0,2360
1722,2136722,16984,836,1352,17058.22,25.66,-1.00,-1.0,2446
1725,2136725,17044,860,1188,17106.98,25.75,-1.00,-1.0,2365
1728,2136728,16976,868,1204,17040.76,25.75,-1.00,-1.0,2435
1731,2136731,16948,812,1268,17014.75,25.66,-1.00,-1.0,2371
1733,2136733,16976,864,1200,17040.28,25.75,-1.00,-1.0,2437
1736,2136736,16876,940,1116,16938.96,25.75,-1.00,-1.0,2366
1739,2136739,17048,888,1192,17112.68,25.75,-1.00,-1.0,2435
1742,2136742,16916,876,1252,16984.87,25.75,-1.00,-1.0,2364
1747,2136747,16980,892,1072,17037.17,25.66,-1.00,-1.0,2444
1749,2136749,16952,924,1240,17022.39,25.71,-1.00,-1.0,2354
1752,2136752,17088,952,1048,17146.55,25.75,-1.00,-1.0,2437
1755,2136755,16900,856,1212,16965.01,25.71,-1.00,-1.0,2366
1757,2136757,16972,836,1224,17036.60,25.80,-1.00,-1.0,2359
1760,2136760,17008,784,1200,17068.29,25.75,-1.00,-1.0,2436
1763,2136763,16948,800,1148,17005.66,25.85,-1.00,-1.0,2365
1766,2136766,16932,824,1136,16990.06,25.71,-1.00,-1.0,2445
1769,2136769,17004,916,1160,17068.12,25.75,-1.00,-1.0,2364
1775,2136775,16920,908,1064,16977.72,25.71,-1.00,-1.0,2446
1778,2136778,16996,844,1252,17062.94,25.71,-1.00,-1.0,2367
1781,2136781,16976,820,1076,17029.82,25.71,-1.00,-1.0,2449
1784,2136784,16932,804,1144,16989.64,25.71,-1.00,-1.0,2371
1787,2136787,17024,860,1252,17091.63,25.71,-1.00,-1.0,2445
1789,2136789,17016,904,1156,17079.16,25.71,-1.00,-1.0,2369
1792,2136792,16928,868,1284,16998.80,25.61,-1.00,-1.0,2450
1795,2136795,16992,848,1100,17048.67,25.71,-1.00,-1.0,2370
1797,2136797,17016,824,1216,17079.28,25.80,-1.00,-1.0,2368
1802,2136802,17080,904,1268,17150.84,25.80,-1.00,-1.0,2455
1805,2136805,17028,796,1236,17091.35,25.80,-1.00,-1.0,2381
1808,2136808,16952,816,1172,17012.05,25.85,-1.00,-1.0,2438
1810,2136810,16984,884,1228,17051.27,25.71,-1.00,-1.0,2371
1813,2136813,16984,764,1324,17052.65,25.71,-1.00,-1.0,2445
1816,2136816,16960,768,1256,17023.78,25.80,-1.00,-1.0,2378
1819,2136819,16924,836,1132,16982.41,25.75,-1.00,-1.0,2436
1821,2136821,16928,868,1172,16990.71,25.80,-1.00,-1.0,2372
1826,2136826,17020,888,1236,17087.91,25.71,-1.00,-1.0,2445
1829,2136829,17000,772,1216,17060.91,25.71,-1.00,-1.0,2365
1832,2136832,16936,824,1148,16994.85,25.71,-1.00,-1.0,2452
1835,2136835,17020,836,1116,17077.02,25.71,-1.00,-1.0,2367
1837,2136837,17000,872,1208,17065.16,25.80,-1.00,-1.0,2367
1840,2136840,17044,876,1024,17097.19,25.75,-1.00,-1.0,2443
1843,2136843,17000,808,1204,17061.73,25.75,-1.00,-1.0,2370
1846,2136846,17008,816,1068,17061.02,25.85,-1.00,-1.0,2443
1848,2136848,16944,832,1160,17004.03,25.71,-1.00,-1.0,2370
1853,2136853,16992,868,1168,17054.20,25.80,-1.00,-1.0,2456
1856,2136856,17060,876,1156,17121.54,25.80,-1.00,-1.0,2373
1859,2136859,17000,872,1192,17064.03,25.75,-1.00,-1.0,2438
1861,2136861,17004,896,1140,17065.71,25.71,-1.00,-1.0,2363
1864,2136864,16944,828,1196,17006.33,25.61,-1.00,-1.0,2448
1867,2136867,16992,816,1176,17052.18,25.71,-1.00,-1.0,2365
1870,2136870,16920,844,1264,16988.13,25.75,-1.00,-1.0,2444
1872,2136872,17016,820,1208,17078.52,25.80,-1.00,-1.0,2364
1875,2136875,16940,928,1176,17006.11,25.75,-1.00,-1.0,2367
1880,2136880,17000,784,1232,17062.61,25.85,-1.00,-1.0,2461
1883,2136883,16980,876,1156,17041.83,25.75,-1.00,-1.0,2372
1886,2136886,17008,868,1164,17069.87,25.66,-1.00,-1.0,2446
1888,2136888,16928,756,1124,16982.11,25.80,-1.00,-1.0,2368
1891,2136891,17020,896,1144,17081.92,25.85,-1.00,-1.0,2447
1894,2136894,16932,908,1216,16999.88,25.75,-1.00,-1.0,2372
1897,2136897,16968,856,1204,17032.19,25.71,-1.00,-1.0,2458
1899,2136899,16880,820,1000,16929.46,25.80,-1.00,-1.0,2366
1904,2136904,17108,932,1144,17171.52,25.80,-1.00,-1.0,2446
1907,2136907,16980,876,1164,17042.38,25.71,-1.00,-1.0,2364
1910,2136910,16968,836,1264,17035.54,25.66,-1.00,-1.0,2443
1912,2136912,17000,844,1180,17061.79,25.71,-1.00,-1.0,2367
1915,2136915,16992,936,1068,17051.24,25.75,-1.00,-1.0,2373
1918,2136918,17020,780,1248,17083.51,25.66,-1.00,-1.0,2442
1920,2136920,17040,824,1260,17106.38,25.75,-1.00,-1.0,2376
1923,2136923,17044,808,1292,17111.99,25.71,-1.00,-1.0,2437
1926,2136926,17000,776,1140,17055.84,25.75,-1.00,-1.0,2378
1931,2136931,16988,856,1148,17048.25,25.80,-1.00,-1.0,2446
1934,2136934,17060,820,1200,17121.80,25.80,-1.00,-1.0,2365
1936,2136936,16904,828,1172,16964.80,25.61,-1.00,-1.0,2435
1939,2136939,16992,840,1192,17054.46,25.71,-1.00,-1.0,2363
1942,2136942,16948,952,1192,17016.52,25.71,-1.00,-1.0,2436
1945,2136945,16956,920,1156,17020.24,25.80,-1.00,-1.0,2367
1947,2136947,16960,780,1112,17014.30,25.71,-1.00,-1.0,2437
1950,2136950,16948,804,1188,17008.60,25.75,-1.00,-1.0,2352
1953,2136953,16996,812,1232,17059.93,25.80,-1.00,-1.0,2363
1958,2136958,17028,836,1164,17088.20,25.80,-1.00,-1.0,2447
1960,2136960,17036,812,1180,17096.11,25.80,-1.00,-1.0,2372
1963,2136963,16908,828,1152,16967.41,25.80,-1.00,-1.0,2437
1966,2136966,16980,896,1192,17045.35,25.80,-1.00,-1.0,2365
1969,2136969,16984,752,1236,17045.51,25.80,-1.00,-1.0,2439
1971,2136971,16984,836,1140,17042.73,25.80,-1.00,-1.0,2372
1974,2136974,17000,756,1256,17063.09,25.61,-1.00,-1.0,2437
1977,2136977,17028,872,1044,17082.25,25.80,-1.00,-1.0,2351
1982,2136982,17024,972,1272,17099.10,25.71,-1.00,-1.0,2454
1984,2136984,17072,772,1128,17126.63,25.75,-1.00,-1.0,2371
1987,2136987,16976,940,1052,17034.52,25.71,-1.00,-1.0,2362
1990,2136990,17036,788,1428,17113.90,25.71,-1.00,-1.0,2435
1993,2136993,16944,920,1148,17007.75,25.71,-1.00,-1.0,2366
1995,2136995,17076,892,1248,17144.76,25.80,-1.00,-1.0,2436
1998,2136998,17052,932,1248,17122.99,25.80,-1.00,-1.0,2367
2001,2137001,16960,824,948,17006.45,25.80,-1.00,-1.0,2437
2003,2137003,16948,848,1244,17014.74,25.71,-1.00,-1.0,2360
2008,2137008,17008,924,1176,17073.63,25.71,-1.00,-1.0,2448
2011,2137011,17008,904,1264,17078.85,25.71,-1.00,-1.0,2371
2014,2137014,16984,900,1324,17059.29,25.80,-1.00,-1.0,2445
2017,2137017,17052,848,1152,17111.89,25.71,-1.00,-1.0,2372
2020,2137020,16960,876,1184,17023.83,25.71,-1.00,-1.0,2446
2022,2137022,16948,860,1056,17002.63,25.71,-1.00,-1.0,2371
2025,2137025,16984,956,1224,17054.86,25.71,-1.00,-1.0,2365
2028,2137028,16992,732,1092,17042.78,25.66,-1.00,-1.0,2438
2030,2137030,17016,948,1180,17083.19,25.80,-1.00,-1.0,2372
2035,2137035,17020,784,1148,17076.68,25.71,-1.00,-1.0,2444
2038,2137038,17028,836,1184,17089.57,25.66,-1.00,-1.0,2365
2041,2137041,16988,912,1228,17056.72,25.71,-1.00,-1.0,2451
2044,2137044,16960,908,1140,17022.50,25.71,-1.00,-1.0,2374
2046,2137046,16868,840,1088,16923.91,25.71,-1.00,-1.0,2448
2049,2137049,16984,816,1248,17049.33,25.61,-1.00,-1.0,2368
2052,2137052,17028,840,1228,17092.88,25.71,-1.00,-1.0,2450
2055,2137055,16976,756,1216,17036.28,25.66,-1.00,-1.0,2428
2060,2137060,16924,908,1128,16985.84,25.75,-1.00,-1.0,2447
2063,2137063,17004,868,1132,17063.73,25.75,-1.00,-1.0,2367
2065,2137065,16964,812,1084,17017.98,25.80,-1.00,-1.0,2362
2068,2137068,17120,848,1076,17174.73,25.80,-1.00,-1.0,2442
2071,2137071,16860,860,1172,16922.55,25.66,-1.00,-1.0,2375
2073,2137073,16964,880,1252,17032.89,25.71,-1.00,-1.0,2432
2076,2137076,16976,844,1268,17044.20,25.75,-1.00,-1.0,2366
2079,2137079,16912,904,1148,16975.01,25.71,-1.00,-1.0,2434
2082,2137082,17024,896,1208,17090.31,25.75,-1.00,-1.0,2374
2087,2137087,17028,860,1260,17096.20,25.66,-1.00,-1.0,2441
2089,2137089,16976,860,1092,17032.81,25.75,-1.00,-1.0,2369
2092,2137092,17056,808,1312,17125.46,25.75,-1.00,-1.0,2434
2095,2137095,17024,824,1188,17085.28,25.75,-1.00,-1.0,2370
2098,2137098,17040,860,1184,17102.72,25.75,-1.00,-1.0,2430
2100,2137100,17020,864,1096,17077.12,25.75,-1.00,-1.0,2373
2103,2137103,17052,860,1196,17115.51,25.75,-1.00,-1.0,2359
2106,2137106,16916,788,1164,16974.30,25.80,-1.00,-1.0,2438
2108,2137108,17008,944,1128,17071.48,25.75,-1.00,-1.0,2366
2113,2137113,17052,896,1160,17114.88,25.80,-1.00,-1.0,2443
2116,2137116,16848,884,1136,16909.38,25.75,-1.00,-1.0,2366
2119,2137119,16984,804,1108,17039.08,25.80,-1.00,-1.0,2437
2121,2137121,17028,812,1184,17088.42,25.75,-1.00,-1.0,2367
2124,2137124,16964,736,1372,17035.30,25.71,-1.00,-1.0,2434
2127,2137127,16916,836,1160,16976.32,25.75,-1.00,-1.0,2365
2130,2137130,17008,924,1172,17073.35,25.80,-1.00,-1.0,2442
2132,2137132,16840,820,1124,16897.38,25.66,-1.00,-1.0,2366
2137,2137137,16968,836,1112,17024.94,25.71,-1.00,-1.0,2441
2140,2137140,16984,872,1236,17051.23,25.71,-1.00,-1.0,2366
2142,2137142,17024,720,1204,17081.70,25.80,-1.00,-1.0,2360
2145,2137145,16876,844,1148,16936.04,25.66,-1.00,-1.0,2443
2148,2137148,16996,784,1212,17057.19,25.80,-1.00,-1.0,2367
2151,2137151,17040,908,1116,17100.63,25.75,-1.00,-1.0,2440
2153,2137153,16964,796,1112,17019.03,25.71,-1.00,-1.0,2366
2156,2137156,16968,888,1164,17031.04,25.75,-1.00,-1.0,2444
2159,2137159,16912,888,1072,16969.19,25.75,-1.00,-1.0,2369
2164,2137164,17016,848,1164,17076.83,25.75,-1.00,-1.0,2455
2167,2137167,17076,872,1088,17132.83,25.75,-1.00,-1.0,2372
2170,2137170,17000,820,1228,17064.01,25.75,-1.00,-1.0,2447
2172,2137172,16964,796,1156,17021.96,25.75,-1.00,-1.0,2372
2175,2137175,16976,760,1144,17031.47,25.66,-1.00,-1.0,2443
2178,2137178,16892,892,1112,16952.05,25.85,-1.00,-1.0,2374
2180,2137180,16984,788,1044,17034.29,25.75,-1.00,-1.0,2362
2183,2137183,16956,836,1080,17010.92,25.80,-1.00,-1.0,2434
2186,2137186,16984,796,1084,17037.16,25.75,-1.00,-1.0,2367
2191,2137191,16964,864,1300,17035.66,25.66,-1.00,-1.0,2450
2194,2137194,16912,780,1164,16969.95,25.75,-1.00,-1.0,2369
2197,2137197,17008,832,1112,17064.61,25.71,-1.00,-1.0,2443
2199,2137199,16916,772,1228,16978.07,25.75,-1.00,-1.0,2376
2202,2137202,16984,848,1268,17052.37,25.61,-1.00,-1.0,2442
2205,2137205,16940,836,1200,17003.01,25.75,-1.00,-1.0,2368
2208,2137208,16944,788,1188,17003.87,25.71,-1.00,-1.0,2444
2210,2137210,17028,864,1172,17090.14,25.75,-1.00,-1.0,2377
2215,2137215,16944,848,1232,17009.88,25.75,-1.00,-1.0,2440
2218,2137218,17044,836,1068,17097.88,25.80,-1.00,-1.0,2366
2220,2137220,16964,924,980,17017.39,25.75,-1.00,-1.0,2365
2223,2137223,16924,868,1184,16987.56,25.71,-1.00,-1.0,2437
2226,2137226,16980,780,1284,17046.33,25.75,-1.00,-1.0,2382
2229,2137229,16956,856,1248,17023.40,25.80,-1.00,-1.0,2433
2231,2137231,16996,848,1152,17056.09,25.66,-1.00,-1.0,2372
2234,2137234,17044,944,1196,17111.97,25.80,-1.00,-1.0,2442
2237,2137237,17032,784,1152,17088.91,25.71,-1.00,-1.0,2367
2242,2137242,17004,896,1108,17063.60,25.71,-1.00,-1.0,2440
2245,2137245,16940,972,1244,17013.40,25.80,-1.00,-1.0,2353
2248,2137248,17012,892,1244,17080.73,25.71,-1.00,-1.0,2432
2250,2137250,16960,824,1140,17018.23,25.80,-1.00,-1.0,2375
2253,2137253,16880,824,992,16929.19,25.71,-1.00,-1.0,2434
2256,2137256,17000,852,1320,17072.44,25.71,-1.00,-1.0,2369
2258,2137258,17056,880,1224,17122.49,25.80,-1.00,-1.0,2359
2261,2137261,17044,872,1208,17108.99,25.75,-1.00,-1.0,2434
2264,2137264,17036,856,1148,17096.08,25.75,-1.00,-1.0,2368
2269,2137269,17008,756,1344,17077.76,25.66,-1.00,-1.0,2440
2272,2137272,16924,824,1228,16988.49,25.71,-1.00,-1.0,2369
2275,2137275,17012,908,1100,17071.69,25.75,-1.00,-1.0,2441
2277,2137277,16972,860,1192,17035.53,25.71,-1.00,-1.0,2369
2280,2137280,16952,864,1196,17016.09,25.75,-1.00,-1.0,2434
2283,2137283,16872,884,1260,16942.06,25.71,-1.00,-1.0,2369
2286,2137286,16932,884,1260,17001.81,25.66,-1.00,-1.0,2431
2288,2137288,16912,772,1160,16969.30,25.80,-1.00,-1.0,2370
2291,2137291,17024,864,1188,17087.26,25.75,-1.00,-1.0,2360
2296,2137296,16940,872,1172,17002.87,25.85,-1.00,-1.0,2440
2299,2137299,16972,916,1084,17031.23,25.71,-1.00,-1.0,2354
2302,2137302,16992,836,1124,17049.64,25.75,-1.00,-1.0,2441
2304,2137304,16896,928,1208,16964.53,25.80,-1.00,-1.0,2370
2307,2137307,17036,776,1228,17097.82,25.66,-1.00,-1.0,2435
2310,2137310,16944,784,1124,16999.33,25.71,-1.00,-1.0,2368
2313,2137313,16984,844,1232,17049.53,25.66,-1.00,-1.0,2432
2315,2137315,17020,752,1276,17084.32,25.89,-1.00,-1.0,2370
2320,2137320,16984,848,1216,17048.58,25.75,-1.00,-1.0,2441
2323,2137323,16948,844,1140,17007.25,25.71,-1.00,-1.0,2353
2326,2137326,16980,812,1256,17045.74,25.75,-1.00,-1.0,2441
2328,2137328,16976,800,1144,17033.30,25.75,-1.00,-1.0,2369
2331,2137331,17044,856,1148,17104.05,25.75,-1.00,-1.0,2359
2334,2137334,16968,880,1200,17033.13,25.80,-1.00,-1.0,2443
2336,2137336,17072,848,1280,17140.91,25.75,-1.00,-1.0,2366
2339,2137339,17024,856,1244,17090.84,25.71,-1.00,-1.0,2443
2342,2137342,17012,808,1072,17064.88,25.71,-1.00,-1.0,2373
2347,2137347,16944,932,1196,17011.71,25.66,-1.00,-1.0,2447
2350,2137350,17012,892,1280,17083.39,25.80,-1.00,-1.0,2367
2353,2137353,16972,892,1268,17042.66,25.75,-1.00,-1.0,2432
2355,2137355,17012,912,1172,17076.69,25.61,-1.00,-1.0,2376
2358,2137358,17000,868,1128,17059.48,25.75,-1.00,-1.0,2434
2361,2137361,16940,904,1176,17004.82,25.71,-1.00,-1.0,2369
2364,2137364,17020,872,1228,17086.51,25.75,-1.00,-1.0,2443
2366,2137366,16876,908,1076,16934.63,25.71,-1.00,-1.0,2377
2369,2137369,17028,944,1076,17088.06,25.61,-1.00,-1.0,2370
2374,2137374,17044,732,1260,17106.18,25.80,-1.00,-1.0,2441
2377,2137377,17060,924,1128,17122.20,25.71,-1.00,-1.0,2365
2380,2137380,17004,900,1120,17064.60,25.71,-1.00,-1.0,2442
2382,2137382,16972,920,1192,17038.66,25.71,-1.00,-1.0,2367
2385,2137385,17040,884,1192,17104.50,25.71,-1.00,-1.0,2446
2388,2137388,16964,864,1264,17032.95,25.71,-1.00,-1.0,2366
2391,2137391,16900,892,1148,16962.42,25.80,-1.00,-1.0,2440
2393,2137393,17076,836,1216,17139.64,25.71,-1.00,-1.0,2368
2398,2137398,16944,756,1132,16998.59,25.71,-1.00,-1.0,2428
2401,2137401,17060,832,1100,17115.66,25.75,-1.00,-1.0,2366
2404,2137404,16968,752,1252,17030.74,25.80,-1.00,-1.0,2433
2407,2137407,17000,916,1216,17068.03,25.66,-1.00,-1.0,2368
2409,2137409,16932,840,1216,16996.38,25.71,-1.00,-1.0,2362
2412,2137412,16976,836,1144,17035.03,25.71,-1.00,-1.0,2432
2415,2137415,16956,796,1124,17011.85,25.71,-1.00,-1.0,2373
2417,2137417,16976,832,1080,17030.65,25.71,-1.00,-1.0,2432
2420,2137420,16968,928,1168,17033.45,25.66,-1.00,-1.0,2369
2425,2137425,16936,860,1084,16992.43,25.75,-1.00,-1.0,2451
2428,2137428,17008,884,1036,17062.44,25.66,-1.00,-1.0,2381
2431,2137431,16900,892,1128,16961.07,25.75,-1.00,-1.0,2435
2433,2137433,16904,796,1156,16962.17,25.85,-1.00,-1.0,2373
2436,2137436,17076,836,1112,17132.58,25.66,-1.00,-1.0,2438
2439,2137439,17060,872,1176,17122.70,25.66,-1.00,-1.0,2382
2442,2137442,17016,832,1268,17083.45,25.75,-1.00,-1.0,2435
2444,2137444,16932,768,1176,16990.16,25.66,-1.00,-1.0,2377
2447,2137447,16980,860,1300,17051.39,25.85,-1.00,-1.0,2347
2452,2137452,16964,784,1172,17022.50,25.75,-1.00,-1.0,2442
2455,2137455,17104,812,1252,17168.97,25.71,-1.00,-1.0,2369
2458,2137458,16948,848,1260,17015.92,25.75,-1.00,-1.0,2447
2461,2137461,17024,908,1172,17088.44,25.80,-1.00,-1.0,2362
2463,2137463,17000,804,1120,17055.81,25.66,-1.00,-1.0,2439
2466,2137466,17064,896,1136,17125.23,25.71,-1.00,-1.0,2370
2469,2137469,16992,876,1164,17054.33,25.75,-1.00,-1.0,2448
2472,2137472,17012,912,1216,17079.77,25.71,-1.00,-1.0,2374
2477,2137477,16952,760,1144,17007.55,25.71,-1.00,-1.0,2449
2479,2137479,16948,864,1140,17008.26,25.80,-1.00,-1.0,2368
2482,2137482,16964,856,1152,17024.60,25.71,-1.00,-1.0,2437
2485,2137485,16936,868,1304,17008.29,25.71,-1.00,-1.0,2366
2487,2137487,17044,796,1168,17102.51,25.75,-1.00,-1.0,2361
2490,2137490,16976,932,1112,17037.89,25.75,-1.00,-1.0,2440
2493,2137493,16904,932,1092,16964.86,25.71,-1.00,-1.0,2367
2496,2137496,16976,808,1036,17026.77,25.75,-1.00,-1.0,2440
2498,2137498,16932,964,1224,17003.53,25.80,-1.00,-1.0,2366
2503,2137503,16972,816,1200,17033.93,25.80,-1.00,-1.0,2443
2506,2137506,16984,712,1176,17039.55,25.80,-1.00,-1.0,2367
2509,2137509,16964,796,1280,17030.83,25.71,-1.00,-1.0,2432
2512,2137512,16932,864,1180,16995.04,25.71,-1.00,-1.0,2366
2514,2137514,17016,928,1156,17080.45,25.61,-1.00,-1.0,2435
2517,2137517,17040,796,1236,17103.30,25.71,-1.00,-1.0,2368
2520,2137520,17064,800,1192,17124.28,25.71,-1.00,-1.0,2432
2523,2137523,17004,744,1276,17068.03,25.71,-1.00,-1.0,2367
2525,2137525,16968,740,1184,17025.35,25.75,-1.00,-1.0,2360
2531,2137531,16992,944,1224,17062.16,25.75,-1.00,-1.0,2442
2534,2137534,16952,876,1200,17016.98,25.71,-1.00,-1.0,2375
2536,2137536,17004,816,1136,17061.43,25.66,-1.00,-1.0,2433
2539,2137539,17008,800,1200,17069.04,25.75,-1.00,-1.0,2368
2542,2137542,17064,868,1072,17119.66,25.75,-1.00,-1.0,2433
2545,2137545,16920,920,1024,16975.91,25.80,-1.00,-1.0,2367
2547,2137547,16908,868,1124,16967.54,25.75,-1.00,-1.0,2432
2550,2137550,16920,856,1140,16979.95,25.75,-1.00,-1.0,2366
2555,2137555,17016,900,1208,17082.55,25.71,-1.00,-1.0,2459
2558,2137558,16896,856,1228,16962.18,25.75,-1.00,-1.0,2373
2561,2137561,16980,896,1128,17041.00,25.71,-1.00,-1.0,2444
2563,2137563,16868,804,1140,16925.59,25.75,-1.00,-1.0,2369
2566,2137566,16992,872,1216,17057.76,25.71,-1.00,-1.0,2361
2569,2137569,16928,884,1208,16994.05,25.80,-1.00,-1.0,2433
2571,2137571,16984,876,1256,17052.89,25.71,-1.00,-1.0,2374
2574,2137574,16952,992,1292,17030.08,25.75,-1.00,-1.0,2434
2577,2137577,17104,868,1136,17163.65,25.71,-1.00,-1.0,2367
2582,2137582,16980,836,1308,17050.81,25.71,-1.00,-1.0,2450
2584,2137584,16972,884,1084,17029.54,25.66,-1.00,-1.0,2368
2587,2137587,16956,876,1196,17020.69,25.71,-1.00,-1.0,2443
2590,2137590,16988,856,1076,17043.55,25.75,-1.00,-1.0,2367
2593,2137593,17036,912,1084,17094.80,25.71,-1.00,-1.0,2444
2595,2137595,17028,748,1192,17086.05,25.75,-1.00,-1.0,2367
2598,2137598,16888,876,1132,16948.55,25.71,-1.00,-1.0,2447
2601,2137601,16940,920,1092,17000.07,25.66,-1.00,-1.0,2367
2603,2137603,16996,856,1160,17057.03,25.71,-1.00,-1.0,2362
2608,2137608,17000,860,1144,17060.14,25.71,-1.00,-1.0,2442
2611,2137611,17032,892,1164,17095.02,25.80,-1.00,-1.0,2370
2614,2137614,16896,836,1292,16965.94,25.71,-1.00,-1.0,2448
2617,2137617,16984,776,1060,17034.73,25.71,-1.00,-1.0,2362
2619,2137619,16988,788,1200,17048.55,25.71,-1.00,-1.0,2437
2622,2137622,16936,828,1192,16998.07,25.71,-1.00,-1.0,2370
2625,2137625,17104,844,1216,17167.93,25.71,-1.00,-1.0,2440
2628,2137628,16988,816,1260,17054.20,25.75,-1.00,-1.0,2374
2633,2137633,16992,808,1148,17049.89,25.75,-1.00,-1.0,2450
2635,2137635,17024,880,1188,17088.08,25.75,-1.00,-1.0,2367
2638,2137638,16956,840,1268,17024.08,25.80,-1.00,-1.0,2361
2641,2137641,16936,804,1228,16999.48,25.71,-1.00,-1.0,2440
2643,2137643,17056,824,976,17103.76,25.80,-1.00,-1.0,2366
2646,2137646,17016,928,1200,17083.48,25.71,-1.00,-1.0,2435
2649,2137649,17008,852,1256,17075.58,25.75,-1.00,-1.0,2368
2652,2137652,17068,804,1060,17119.77,25.71,-1.00,-1.0,2443
2654,2137654,16976,840,1128,17034.16,25.80,-1.00,-1.0,2367
2659,2137659,17008,792,1152,17065.36,25.71,-1.00,-1.0,2449
2662,2137662,17052,848,1268,17120.09,25.71,-1.00,-1.0,2375
2665,2137665,16944,804,1224,17007.17,25.75,-1.00,-1.0,2429
2668,2137668,16940,896,1116,17000.35,25.71,-1.00,-1.0,2374
2671,2137671,16888,856,1248,16955.67,25.71,-1.00,-1.0,2441
2673,2137673,16912,952,1112,16975.23,25.80,-1.00,-1.0,2369
2676,2137676,16956,924,1104,17017.01,25.75,-1.00,-1.0,2348
2679,2137679,16960,820,1144,17018.31,25.75,-1.00,-1.0,2431
2682,2137682,17068,848,1220,17132.54,25.75,-1.00,-1.0,2368
2687,2137687,16984,804,1132,17040.66,25.71,-1.00,-1.0,2443
2689,2137689,16940,772,1176,16998.31,25.75,-1.00,-1.0,2375
2692,2137692,17080,876,1200,17144.50,25.75,-1.00,-1.0,2441
2695,2137695,17040,924,1148,17103.60,25.75,-1.00,-1.0,2370
2698,2137698,16920,976,1080,16982.50,25.66,-1.00,-1.0,2441
2700,2137700,16960,768,1152,17016.42,25.75,-1.00,-1.0,2376
2703,2137703,16960,768,1180,17018.34,25.75,-1.00,-1.0,2441
2706,2137706,17020,764,1156,17076.31,25.66,-1.00,-1.0,2375
2711,2137711,16992,844,1260,17059.54,25.75,-1.00,-1.0,2451
2713,2137713,17068,880,1260,17137.05,25.80,-1.00,-1.0,2367
2716,2137716,16896,812,1140,16953.87,25.85,-1.00,-1.0,2362
2719,2137719,16984,832,1340,17057.08,25.71,-1.00,-1.0,2433
2721,2137721,16928,828,1000,16977.71,25.85,-1.00,-1.0,2367
2724,2137724,16972,856,1172,17033.94,25.75,-1.00,-1.0,2435
2727,2137727,17024,880,1240,17091.77,25.66,-1.00,-1.0,2381
2730,2137730,17036,876,1240,17103.52,25.75,-1.00,-1.0,2434
2733,2137733,16948,848,1184,17010.46,25.80,-1.00,-1.0,2368
2737,2137737,17004,812,1292,17072.34,25.71,-1.00,-1.0,2440
2740,2137740,17036,860,1164,17097.36,25.80,-1.00,-1.0,2367
2743,2137743,16864,856,1140,16924.15,25.75,-1.00,-1.0,2433
2746,2137746,16952,852,1340,17026.21,25.71,-1.00,-1.0,2367
2748,2137748,16892,804,1188,16952.80,25.71,-1.00,-1.0,2432
2751,2137751,17004,880,1076,17060.72,25.71,-1.00,-1.0,2353
2754,2137754,16980,712,1180,17035.84,25.75,-1.00,-1.0,2362
2757,2137757,16992,796,1200,17052.91,25.75,-1.00,-1.0,2436
2760,2137760,16996,996,1176,17065.73,25.71,-1.00,-1.0,2368
2764,2137764,17004,904,1280,17076.05,25.66,-1.00,-1.0,2441
2767,2137767,17008,864,1196,17071.88,25.75,-1.00,-1.0,2367
2770,2137770,16964,876,1236,17031.51,25.66,-1.00,-1.0,2450
2773,2137773,16948,808,1228,17011.63,25.75,-1.00,-1.0,2369
2775,2137775,16980,812,1180,17040.31,25.66,-1.00,-1.0,2438
2778,2137778,16968,752,1148,17023.41,25.75,-1.00,-1.0,2369
2781,2137781,17036,860,1208,17100.41,25.75,-1.00,-1.0,2450
2784,2137784,17008,904,1308,17082.16,25.75,-1.00,-1.0,2374
2789,2137789,16908,892,1056,16964.41,25.66,-1.00,-1.0,2448
2791,2137791,17036,884,1208,17101.64,25.71,-1.00,-1.0,2366
2794,2137794,17068,772,1044,17117.32,25.66,-1.00,-1.0,2367
2797,2137797,16992,880,1204,17057.32,25.71,-1.00,-1.0,2442
2799,2137799,16960,928,1236,17030.28,25.75,-1.00,-1.0,2367
2802,2137802,16984,868,1140,17044.33,25.71,-1.00,-1.0,2443
2805,2137805,16944,784,1156,17001.47,25.66,-1.00,-1.0,2367
2808,2137808,17036,856,1232,17101.93,25.66,-1.00,-1.0,2442
2811,2137811,16992,792,1164,17050.23,25.75,-1.00,-1.0,2370
2816,2137816,17044,832,1152,17103.14,25.75,-1.00,-1.0,2448
2818,2137818,16956,828,1036,17007.79,25.71,-1.00,-1.0,2366
2821,2137821,17044,984,1268,17119.40,25.75,-1.00,-1.0,2434
2824,2137824,17008,924,1176,17073.63,25.75,-1.00,-1.0,2367
2827,2137827,16960,948,1216,17029.94,25.75,-1.00,-1.0,2439
2829,2137829,16956,872,1148,17017.17,25.80,-1.00,-1.0,2366
2832,2137832,16984,896,1364,17062.23,25.66,-1.00,-1.0,2360
2835,2137835,17028,856,1304,17099.30,25.71,-1.00,-1.0,2436
2838,2137838,17008,744,1132,17061.86,25.66,-1.00,-1.0,2374
2843,2137843,16916,748,1188,16974.15,25.75,-1.00,-1.0,2448
2845,2137845,17040,884,1248,17108.49,25.66,-1.00,-1.0,2366
2848,2137848,17000,848,1200,17063.38,25.71,-1.00,-1.0,2439
2851,2137851,16996,844,1136,17054.82,25.75,-1.00,-1.0,2367
2854,2137854,17060,868,1028,17112.97,25.71,-1.00,-1.0,2441
2856,2137856,17004,872,1176,17066.91,25.75,-1.00,-1.0,2366
2859,2137859,17092,816,1068,17144.76,25.66,-1.00,-1.0,2435
2862,2137862,16928,868,1212,16993.52,25.85,-1.00,-1.0,2367
2867,2137867,16948,780,1048,16998.28,25.75,-1.00,-1.0,2427
2870,2137870,16956,944,1268,17029.53,25.61,-1.00,-1.0,2366
2872,2137872,16976,848,1288,17045.90,25.75,-1.00,-1.0,2360
2875,2137875,17020,952,1332,17098.56,25.75,-1.00,-1.0,2433
2878,2137878,16968,804,1160,17026.60,25.75,-1.00,-1.0,2367
2880,2137880,16988,840,1204,17051.32,25.75,-1.00,-1.0,2434
2883,2137883,16992,836,1232,17057.10,25.75,-1.00,-1.0,2366
2886,2137886,17016,828,1232,17080.62,25.66,-1.00,-1.0,2434
2889,2137889,17004,900,1076,17061.76,25.80,-1.00,-1.0,2370
2894,2137894,16928,824,1316,16999.06,25.80,-1.00,-1.0,2440
2897,2137897,17028,884,1268,17098.01,25.66,-1.00,-1.0,2373
2899,2137899,16948,848,1128,17006.65,25.80,-1.00,-1.0,2434
2902,2137902,16884,812,1184,16944.93,25.75,-1.00,-1.0,2367
2905,2137905,16932,852,1216,16996.98,25.71,-1.00,-1.0,2432
2908,2137908,17028,896,1188,17092.89,25.75,-1.00,-1.0,2366
2910,2137910,16868,960,1240,16940.74,25.71,-1.00,-1.0,2362
2913,2137913,16896,904,1224,16964.38,25.80,-1.00,-1.0,2448
2916,2137916,16996,700,1216,17053.82,25.75,-1.00,-1.0,2369
2921,2137921,17072,972,1280,17147.49,25.71,-1.00,-1.0,2449
2923,2137923,16980,804,1008,17028.88,25.80,-1.00,-1.0,2366
2926,2137926,17040,840,1252,17106.57,25.80,-1.00,-1.0,2444
2929,2137929,17012,844,1116,17069.45,25.80,-1.00,-1.0,2376
2932,2137932,16968,804,1084,17021.59,25.75,-1.00,-1.0,2435
2934,2137934,16964,892,1172,17027.82,25.71,-1.00,-1.0,2366
2937,2137937,16976,896,1192,17041.37,25.71,-1.00,-1.0,2445
2940,2137940,16972,760,1156,17028.29,25.71,-1.00,-1.0,2367
2945,2137945,16956,796,1156,17013.99,25.75,-1.00,-1.0,2449
2947,2137947,17052,984,1156,17119.44,25.71,-1.00,-1.0,2369
2950,2137950,17044,924,1336,17121.23,25.75,-1.00,-1.0,2362
2953,2137953,16912,860,1352,16987.74,25.75,-1.00,-1.0,2434
2956,2137956,17020,848,1272,17088.52,25.66,-1.00,-1.0,2369
2958,2137958,17016,944,1188,17083.52,25.75,-1.00,-1.0,2432
2961,2137961,16968,828,1136,17026.13,25.75,-1.00,-1.0,2369
2964,2137964,16980,904,1316,17054.90,25.80,-1.00,-1.0,2433
2967,2137967,17016,884,1160,17078.39,25.75,-1.00,-1.0,2354
2972,2137972,17060,908,1236,17128.80,25.80,-1.00,-1.0,2448
2974,2137974,17016,748,1232,17076.93,25.80,-1.00,-1.0,2368
2977,2137977,16992,908,1252,17062.24,25.71,-1.00,-1.0,2432
2980,2137980,16912,872,1164,16974.42,25.71,-1.00,-1.0,2368
2982,2137982,16972,888,1232,17039.81,25.80,-1.00,-1.0,2360
2985,2137985,16988,924,1248,17058.82,25.80,-1.00,-1.0,2448
2988,2137988,16976,896,1196,17041.65,25.80,-1.00,-1.0,2368
2991,2137991,16976,872,1176,17039.01,25.71,-1.00,-1.0,2431
2994,2137994,16984,744,1276,17048.11,25.71,-1.00,-1.0,2366
2999,2137999,17072,820,1144,17129.92,25.71,-1.00,-1.0,2443
3002,2138002,16940,924,1076,16999.27,25.75,-1.00,-1.0,2367
3004,2138004,16920,828,1184,16981.57,25.71,-1.00,-1.0,2432
3007,2138007,17004,828,1088,17058.88,25.75,-1.00,-1.0,2369
3010,2138010,16980,796,1136,17036.56,25.80,-1.00,-1.0,2432
3013,2138013,16940,884,1128,17000.51,25.75,-1.00,-1.0,2369
3015,2138015,17012,948,1136,17076.22,25.71,-1.00,-1.0,2431
3018,2138018,17004,904,1216,17071.38,25.75,-1.00,-1.0,2375
3021,2138021,16996,792,1128,17051.79,25.71,-1.00,-1.0,2360
3026,2138026,16928,940,1172,16994.54,25.71,-1.00,-1.0,2442
3029,2138029,17004,916,1156,17067.85,25.71,-1.00,-1.0,2367
3031,2138031,16948,876,1116,17007.28,25.71,-1.00,-1.0,2431
3034,2138034,16908,816,1176,16968.48,25.71,-1.00,-1.0,2371
3037,2138037,17016,804,1388,17091.44,25.71,-1.00,-1.0,2432
3040,2138040,16992,824,1244,17057.39,25.75,-1.00,-1.0,2370
3042,2138042,16968,852,1268,17036.63,25.71,-1.00,-1.0,2432
3045,2138045,16928,876,1068,16984.26,25.75,-1.00,-1.0,2370
3050,2138050,16972,840,1136,17030.70,25.85,-1.00,-1.0,2458
3053,2138053,17012,724,1072,17061.11,25.66,-1.00,-1.0,2376
3056,2138056,16912,792,992,16959.57,25.71,-1.00,-1.0,2444
3058,2138058,17004,888,1304,17077.03,25.75,-1.00,-1.0,2370
3061,2138061,16964,804,1300,17032.72,25.71,-1.00,-1.0,2362
3064,2138064,16972,856,1168,17033.66,25.71,-1.00,-1.0,2433
3066,2138066,16932,924,1252,17003.35,25.71,-1.00,-1.0,2375
3069,2138069,16980,864,1092,17037.00,25.80,-1.00,-1.0,2433
3072,2138072,16948,872,1120,17007.34,25.66,-1.00,-1.0,2367
3077,2138077,16960,836,1172,17020.99,25.75,-1.00,-1.0,2443
3080,2138080,16924,920,1128,16986.48,25.71,-1.00,-1.0,2367
3082,2138082,16996,820,1104,17051.55,25.75,-1.00,-1.0,2431
3085,2138085,16996,836,1132,17054.16,25.71,-1.00,-1.0,2367
3088,2138088,16984,776,1072,17035.48,25.75,-1.00,-1.0,2432
3091,2138091,16996,864,1176,17058.53,25.71,-1.00,-1.0,2368
3093,2138093,17012,904,1244,17081.36,25.66,-1.00,-1.0,2432
3096,2138096,17048,832,1200,17110.42,25.71,-1.00,-1.0,2368
3099,2138099,16968,920,1132,17030.59,25.75,-1.00,-1.0,2368
3104,2138104,16956,896,1296,17029.04,25.75,-1.00,-1.0,2443
3107,2138107,16952,768,1240,17014.63,25.75,-1.00,-1.0,2375
3109,2138109,16972,764,1032,17020.50,25.66,-1.00,-1.0,2432
3112,2138112,17076,872,1028,17129.12,25.80,-1.00,-1.0,2367
3115,2138115,17044,776,1240,17106.66,25.71,-1.00,-1.0,2467
3118,2138118,16972,848,1184,17034.37,25.61,-1.00,-1.0,2368
3121,2138121,16908,896,1148,16970.60,25.71,-1.00,-1.0,2430
3123,2138123,17028,840,1308,17098.81,25.61,-1.00,-1.0,2371
3128,2138128,17008,864,1076,17063.89,25.71,-1.00,-1.0,2454
3131,2138131,16904,932,1072,16963.58,25.80,-1.00,-1.0,2379
3134,2138134,17000,748,1164,17056.21,25.80,-1.00,-1.0,2438
3136,2138136,16932,856,1036,16985.25,25.80,-1.00,-1.0,2378
3139,2138139,17060,848,1224,17124.86,25.80,-1.00,-1.0,2360
3142,2138142,17076,944,1192,17143.56,25.66,-1.00,-1.0,2437
3145,2138145,16968,864,1172,17030.36,25.80,-1.00,-1.0,2365
3147,2138147,16980,852,1200,17043.66,25.66,-1.00,-1.0,2437
3150,2138150,17036,852,1260,17103.77,25.71,-1.00,-1.0,2366
3155,2138155,16968,860,1124,17026.92,25.66,-1.00,-1.0,2432
3158,2138158,16992,900,1212,17058.93,25.75,-1.00,-1.0,2365
3160,2138160,17084,768,1152,17140.01,25.75,-1.00,-1.0,2436
3163,2138163,16976,868,1156,17037.44,25.80,-1.00,-1.0,2364
3166,2138166,16888,816,1156,16947.18,25.66,-1.00,-1.0,2424
3169,2138169,17004,996,1364,17087.67,25.71,-1.00,-1.0,2365
3171,2138171,16908,848,1144,16967.86,25.66,-1.00,-1.0,2436
3174,2138174,17004,896,1112,17063.86,25.71,-1.00,-1.0,2367
3177,2138177,17060,840,1012,17110.62,25.80,-1.00,-1.0,2362
3182,2138182,16972,892,1240,17040.60,25.66,-1.00,-1.0,2433
3185,2138185,17036,864,1200,17100.05,25.75,-1.00,-1.0,2365
3187,2138187,17024,836,1260,17091.02,25.75,-1.00,-1.0,2436
3190,2138190,17096,896,1072,17152.99,25.71,-1.00,-1.0,2364
3193,2138193,16976,816,1004,17025.23,25.75,-1.00,-1.0,2437
3196,2138196,17020,836,1288,17089.13,25.75,-1.00,-1.0,2365
3198,2138198,17012,808,1256,17077.43,25.75,-1.00,-1.0,2436
3201,2138201,16944,904,1184,17009.36,25.75,-1.00,-1.0,2363
3206,2138206,16984,832,1080,17038.63,25.71,-1.00,-1.0,2451
3209,2138209,16916,872,1332,16990.75,25.75,-1.00,-1.0,2365
3212,2138212,17000,896,1272,17071.05,25.66,-1.00,-1.0,2445
3214,2138214,16980,924,1148,17043.83,25.75,-1.00,-1.0,2371
3217,2138217,16920,1000,1160,16989.17,25.75,-1.00,-1.0,2359
3220,2138220,16992,836,1144,17050.97,25.71,-1.00,-1.0,2444
3222,2138222,16988,860,1144,17048.18,25.75,-1.00,-1.0,2367
3225,2138225,16912,784,1172,16970.68,25.71,-1.00,-1.0,2438
3228,2138228,17044,852,1188,17106.58,25.75,-1.00,-1.0,2364
3233,2138233,17040,992,1200,17110.98,25.75,-1.00,-1.0,2445
3236,2138236,16992,832,1164,17052.13,25.75,-1.00,-1.0,2366
3239,2138239,16972,800,1128,17028.25,25.75,-1.00,-1.0,2434
3241,2138241,17044,908,1188,17109.46,25.75,-1.00,-1.0,2371
3244,2138244,17080,828,1148,17138.55,25.85,-1.00,-1.0,2438
3247,2138247,17028,792,1060,17079.33,25.75,-1.00,-1.0,2368
3250,2138250,17000,932,1156,17064.73,25.66,-1.00,-1.0,2433
3252,2138252,16968,828,1080,17022.49,25.75,-1.00,-1.0,2371
3255,2138255,17020,892,1296,17092.56,25.71,-1.00,-1.0,2359
3260,2138260,17000,860,1236,17066.55,25.80,-1.00,-1.0,2445
3263,2138263,16956,824,1112,17012.39,25.75,-1.00,-1.0,2365
3266,2138266,16928,836,1088,16983.52,25.80,-1.00,-1.0,2435
3268,2138268,17040,960,1164,17106.67,25.66,-1.00,-1.0,2366
3271,2138271,17128,860,1240,17194.35,25.71,-1.00,-1.0,2436
3274,2138274,16892,856,1188,16955.35,25.66,-1.00,-1.0,2366
3277,2138277,16984,824,1220,17047.69,25.80,-1.00,-1.0,2429
3279,2138279,16972,896,1208,17038.51,25.75,-1.00,-1.0,2370
3284,2138284,16948,848,1236,17014.16,25.75,-1.00,-1.0,2454
3287,2138287,17024,880,1136,17084.54,25.66,-1.00,-1.0,2378
3290,2138290,17116,824,1200,17177.79,25.66,-1.00,-1.0,2439
3292,2138292,17032,828,1164,17091.80,25.75,-1.00,-1.0,2372
3295,2138295,17024,840,1156,17083.87,25.71,-1.00,-1.0,2360
3298,2138298,17000,892,1184,17064.51,25.71,-1.00,-1.0,2437
3301,2138301,17004,872,1156,17065.54,25.75,-1.00,-1.0,2365
3303,2138303,16980,752,1260,17043.28,25.71,-1.00,-1.0,2436
3306,2138306,16972,884,1152,17034.01,25.71,-1.00,-1.0,2366
3311,2138311,16928,972,1152,16994.97,25.80,-1.00,-1.0,2445
3314,2138314,16964,760,1140,17019.24,25.71,-1.00,-1.0,2364
3317,2138317,17036,860,1240,17102.71,25.71,-1.00,-1.0,2423
3320,2138320,16912,896,1088,16970.63,25.66,-1.00,-1.0,2366
3322,2138322,16972,904,1076,17030.08,25.71,-1.00,-1.0,2437
3325,2138325,16992,748,1144,17046.88,25.75,-1.00,-1.0,2368
3328,2138328,16912,772,1132,16967.41,25.71,-1.00,-1.0,2440
3330,2138330,16956,884,1172,17019.43,25.75,-1.00,-1.0,2361
3333,2138333,16916,780,1200,16976.44,25.75,-1.00,-1.0,2365
3338,2138338,16960,764,1040,17009.02,25.75,-1.00,-1.0,2448
3341,2138341,17024,816,1200,17085.74,25.61,-1.00,-1.0,2365
3344,2138344,17028,872,1252,17096.22,25.75,-1.00,-1.0,2442
3346,2138346,16976,832,1140,17034.56,25.80,-1.00,-1.0,2365
3349,2138349,17008,868,1188,17071.52,25.75,-1.00,-1.0,2438
3352,2138352,16960,896,1092,17018.72,25.71,-1.00,-1.0,2365
3355,2138355,17020,912,1288,17093.01,25.75,-1.00,-1.0,2442
3357,2138357,17048,820,1284,17115.94,25.71,-1.00,-1.0,2365
3363,2138363,16968,860,1228,17034.10,25.66,-1.00,-1.0,2459
3366,2138366,16968,936,1104,17029.62,25.75,-1.00,-1.0,2373
3368,2138368,16960,920,1268,17032.20,25.80,-1.00,-1.0,2370
3371,2138371,17008,880,1252,17076.71,25.80,-1.00,-1.0,2442
3374,2138374,16968,848,1252,17035.25,25.80,-1.00,-1.0,2353
3377,2138377,17032,880,1160,17094.12,25.71,-1.00,-1.0,2448
3379,2138379,17036,808,1236,17099.88,25.80,-1.00,-1.0,2373
3382,2138382,17028,844,1408,17106.95,25.71,-1.00,-1.0,2443
3385,2138385,17048,920,1064,17105.93,25.80,-1.00,-1.0,2373
3390,2138390,17068,772,1160,17124.78,25.66,-1.00,-1.0,2444
3392,2138392,16924,864,1160,16985.70,25.71,-1.00,-1.0,2364
3395,2138395,17040,920,1260,17111.27,25.66,-1.00,-1.0,2437
3398,2138398,16972,820,1184,17033.00,25.80,-1.00,-1.0,2366
3401,2138401,16996,824,1280,17064.04,25.75,-1.00,-1.0,2433
3403,2138403,16984,760,1204,17043.58,25.80,-1.00,-1.0,2367
3406,2138406,16992,820,1292,17060.77,25.71,-1.00,-1.0,2359
3409,2138409,17036,832,1212,17099.31,25.75,-1.00,-1.0,2444
3411,2138411,16932,784,1088,16985.02,25.66,-1.00,-1.0,2366
3416,2138416,16812,892,1292,16885.15,25.66,-1.00,-1.0,2447
3419,2138419,16896,908,1208,16963.45,25.71,-1.00,-1.0,2367
3422,2138422,16992,792,1128,17047.81,25.71,-1.00,-1.0,2436
3425,2138425,17092,828,1144,17150.24,25.71,-1.00,-1.0,2365
3427,2138427,16924,804,1192,16984.96,25.75,-1.00,-1.0,2435
3430,2138430,16984,928,1224,17053.32,25.71,-1.00,-1.0,2368
3433,2138433,17000,856,1200,17063.79,25.71,-1.00,-1.0,2438
3435,2138435,16940,796,1180,16999.70,25.71,-1.00,-1.0,2363
3440,2138440,16956,916,1176,17021.40,25.71,-1.00,-1.0,2444
3443,2138443,17008,860,1024,17060.49,25.71,-1.00,-1.0,2368
3446,2138446,17036,844,1284,17105.15,25.80,-1.00,-1.0,2361
3449,2138449,16944,924,1128,17006.62,25.75,-1.00,-1.0,2448
3451,2138451,17080,876,1184,17143.38,25.75,-1.00,-1.0,2425
3454,2138454,16936,836,1100,16992.26,25.71,-1.00,-1.0,2439
3457,2138457,16948,796,1208,17009.63,25.71,-1.00,-1.0,2380
3460,2138460,16948,904,1132,17009.80,25.71,-1.00,-1.0,2417
3462,2138462,17032,884,1224,17098.79,25.80,-1.00,-1.0,2373
3467,2138467,17020,896,1128,17080.86,25.71,-1.00,-1.0,2442
3470,2138470,16980,900,1224,17047.83,25.75,-1.00,-1.0,2367
3473,2138473,16944,856,1060,16998.69,25.80,-1.00,-1.0,2434
3476,2138476,16996,860,1040,17049.49,25.75,-1.00,-1.0,2367
3478,2138478,17060,856,1132,17118.93,25.71,-1.00,-1.0,2432
3481,2138481,17092,892,1172,17155.34,25.75,-1.00,-1.0,2366
3484,2138484,16980,772,1212,17040.70,25.71,-1.00,-1.0,2355
3486,2138486,17124,788,1152,17180.79,25.80,-1.00,-1.0,2435
3489,2138489,17124,908,1200,17189.99,25.75,-1.00,-1.0,2367
3494,2138494,17048,928,1096,17108.38,25.75,-1.00,-1.0,2442
3497,2138497,16992,840,1256,17059.05,25.66,-1.00,-1.0,2355
3500,2138500,16992,836,1336,17064.93,25.66,-1.00,-1.0,2433
3502,2138502,16912,884,1084,16969.75,25.75,-1.00,-1.0,2365
3505,2138505,16956,828,1128,17013.64,25.66,-1.00,-1.0,2436
3508,2138508,17020,848,1176,17081.64,25.75,-1.00,-1.0,2381
3511,2138511,16984,908,1208,17051.10,25.75,-1.00,-1.0,2432
3513,2138513,16984,840,1136,17042.66,25.66,-1.00,-1.0,2375
3518,2138518,16924,868,1164,16986.17,25.80,-1.00,-1.0,2440
3521,2138521,16892,848,1164,16953.28,25.71,-1.00,-1.0,2367
3524,2138524,17028,860,1304,17099.50,25.80,-1.00,-1.0,2365
3527,2138527,16992,888,1096,17050.45,25.66,-1.00,-1.0,2443
3529,2138529,17032,904,1220,17099.55,25.75,-1.00,-1.0,2377
3532,2138532,17008,828,1164,17067.88,25.66,-1.00,-1.0,2433
3535,2138535,16932,852,1104,16989.33,25.80,-1.00,-1.0,2354
3538,2138538,17028,896,1320,17102.57,25.75,-1.00,-1.0,2446
3540,2138540,16968,900,1212,17035.02,25.80,-1.00,-1.0,2366
3545,2138545,16984,904,1216,17051.46,25.71,-1.00,-1.0,2440
3548,2138548,16952,896,1040,17007.49,25.71,-1.00,-1.0,2367
3551,2138551,16880,912,1184,16946.03,25.71,-1.00,-1.0,2435
3554,2138554,16984,800,1096,17038.12,25.75,-1.00,-1.0,2367
3556,2138556,17004,876,1128,17063.87,25.80,-1.00,-1.0,2433
3559,2138559,17032,880,1192,17096.32,25.75,-1.00,-1.0,2366
3562,2138562,16968,920,1128,17030.32,25.80,-1.00,-1.0,2367
3564,2138564,16892,824,1188,16953.76,25.75,-1.00,-1.0,2448
3567,2138567,17032,820,1192,17093.34,25.80,-1.00,-1.0,2367
3572,2138572,16940,812,1424,17019.13,25.85,-1.00,-1.0,2449
3575,2138575,16996,848,1084,17051.63,25.75,-1.00,-1.0,2374
3578,2138578,16984,820,1076,17037.79,25.75,-1.00,-1.0,2436
3580,2138580,17096,884,1208,17161.41,25.75,-1.00,-1.0,2371
3583,2138583,17052,876,1224,17118.30,25.75,-1.00,-1.0,2441
3586,2138586,17060,852,1212,17124.21,25.75,-1.00,-1.0,2373
3589,2138589,16976,756,1172,17033.19,25.75,-1.00,-1.0,2422
3591,2138591,17028,876,1144,17088.85,25.85,-1.00,-1.0,2368
3596,2138596,16892,868,1072,16948.22,25.80,-1.00,-1.0,2443
3599,2138599,17012,816,1232,17076.06,25.66,-1.00,-1.0,2374
3602,2138602,16936,824,1120,16992.98,25.71,-1.00,-1.0,2360
3604,2138604,16976,856,1100,17033.12,25.75,-1.00,-1.0,2435
3607,2138607,17044,892,1084,17101.71,25.71,-1.00,-1.0,2367
3610,2138610,16924,832,1144,16983.01,25.80,-1.00,-1.0,2434
3613,2138613,16956,820,1276,17023.71,25.71,-1.00,-1.0,2366
3616,2138616,16916,800,1232,16979.66,25.71,-1.00,-1.0,2443
3618,2138618,17008,928,1180,17074.12,25.66,-1.00,-1.0,2376
3623,2138623,16992,852,1168,17053.39,25.75,-1.00,-1.0,2444
3626,2138626,16964,756,1176,17021.51,25.66,-1.00,-1.0,2368
3629,2138629,16896,884,1280,16967.46,25.71,-1.00,-1.0,2447
3632,2138632,16964,848,1120,17022.07,25.66,-1.00,-1.0,2377
3635,2138635,17000,800,1136,17056.69,25.71,-1.00,-1.0,2440
3637,2138637,17068,760,1160,17124.25,25.75,-1.00,-1.0,2368
3640,2138640,17048,848,1240,17114.06,25.61,-1.00,-1.0,2347
3643,2138643,16956,792,1212,17017.70,25.71,-1.00,-1.0,2443
3645,2138645,16980,868,1168,17042.24,25.71,-1.00,-1.0,2373
3650,2138650,16992,864,1192,17055.66,25.71,-1.00,-1.0,2443
3653,2138653,17036,860,1072,17091.35,25.75,-1.00,-1.0,2370
3656,2138656,17068,840,1176,17129.07,25.80,-1.00,-1.0,2443
3659,2138659,16960,948,1228,17030.80,25.75,-1.00,-1.0,2375
3662,2138662,17036,868,1340,17110.65,25.80,-1.00,-1.0,2444
3664,2138664,16992,812,1184,17052.54,25.75,-1.00,-1.0,2371
3667,2138667,17052,904,1124,17112.90,25.80,-1.00,-1.0,2435
3670,2138670,16912,924,1076,16971.37,25.75,-1.00,-1.0,2373
3675,2138675,16964,864,1132,17023.67,25.75,-1.00,-1.0,2451
3677,2138677,17056,836,1232,17120.86,25.66,-1.00,-1.0,2366
3680,2138680,16980,788,1336,17050.70,25.80,-1.00,-1.0,2373
3683,2138683,16968,872,1172,17030.77,25.71,-1.00,-1.0,2433
3685,2138685,17044,796,1196,17104.44,25.80,-1.00,-1.0,2378
3688,2138688,16916,896,1160,16979.38,25.80,-1.00,-1.0,2441
3691,2138691,17044,884,1360,17121.01,25.71,-1.00,-1.0,2382
3694,2138694,17056,732,1340,17124.21,25.71,-1.00,-1.0,2435
3697,2138697,17060,940,1132,17123.34,25.80,-1.00,-1.0,2367
3702,2138702,17064,956,1172,17130.90,25.71,-1.00,-1.0,2444
3704,2138704,16952,892,1092,17010.54,25.71,-1.00,-1.0,2374
3707,2138707,16956,812,1072,17009.25,25.75,-1.00,-1.0,2433
3710,2138710,17008,972,1164,17075.47,25.71,-1.00,-1.0,2371
3713,2138713,16956,840,1348,17030.23,25.80,-1.00,-1.0,2442
3715,2138715,16876,860,1216,16941.60,25.71,-1.00,-1.0,2376
3718,2138718,16932,892,1164,16995.39,25.85,-1.00,-1.0,2359
3721,2138721,16984,880,1036,17038.31,25.66,-1.00,-1.0,2439
3724,2138724,16964,900,1232,17032.47,25.71,-1.00,-1.0,2371
3729,2138729,16992,924,968,17044.61,25.71,-1.00,-1.0,2440
3731,2138731,16976,928,1236,17046.21,25.75,-1.00,-1.0,2368
3734,2138734,17000,868,1104,17057.91,25.75,-1.00,-1.0,2433
3737,2138737,16888,724,1184,16944.93,25.75,-1.00,-1.0,2370
3740,2138740,16992,820,1008,17041.61,25.75,-1.00,-1.0,2435
3742,2138742,16968,788,1328,17038.12,25.66,-1.00,-1.0,2373
3745,2138745,16964,776,1220,17025.51,25.75,-1.00,-1.0,2433
3748,2138748,16948,872,1260,17017.13,25.66,-1.00,-1.0,2355
3751,2138751,16984,932,1104,17045.34,25.66,-1.00,-1.0,2361
3756,2138756,16944,836,1164,17004.50,25.75,-1.00,-1.0,2447
3758,2138758,16992,768,1120,17046.18,25.71,-1.00,-1.0,2378
3761,2138761,16956,832,1232,17021.04,25.75,-1.00,-1.0,2436
3764,2138764,17016,848,1240,17082.18,25.57,-1.00,-1.0,2374
3767,2138767,16948,848,1092,17004.30,25.66,-1.00,-1.0,2434
3769,2138769,17104,868,1096,17161.04,25.80,-1.00,-1.0,2376
3772,2138772,16988,844,1184,17050.11,25.66,-1.00,-1.0,2420
3775,2138775,16912,884,1152,16974.22,25.71,-1.00,-1.0,2381
3780,2138780,17008,936,1140,17071.84,25.75,-1.00,-1.0,2445
3782,2138782,16932,952,1148,16997.55,25.80,-1.00,-1.0,2366
3785,2138785,16836,708,1080,16885.45,25.75,-1.00,-1.0,2434
3788,2138788,16896,836,1172,16957.22,25.66,-1.00,-1.0,2373
3791,2138791,17028,884,1176,17091.44,25.75,-1.00,-1.0,2364
3793,2138793,17004,832,1132,17061.94,25.80,-1.00,-1.0,2421
3796,2138796,16932,720,1112,16983.74,25.66,-1.00,-1.0,2367
3799,2138799,17036,896,1308,17109.62,25.71,-1.00,-1.0,2435
3802,2138802,16900,912,1104,16960.56,25.80,-1.00,-1.0,2373
3807,2138807,16908,940,1240,16979.45,25.66,-1.00,-1.0,2445
3809,2138809,17036,808,1296,17104.32,25.75,-1.00,-1.0,2378
3812,2138812,16888,832,1228,16953.02,25.75,-1.00,-1.0,2440
3815,2138815,16944,920,1280,17017.17,25.66,-1.00,-1.0,2369
3818,2138818,16980,840,1000,17030.15,25.75,-1.00,-1.0,2443
3820,2138820,16980,884,1204,17045.57,25.66,-1.00,-1.0,2377
3823,2138823,16984,932,1204,17052.11,25.66,-1.00,-1.0,2440
3826,2138826,16992,884,1208,17057.81,25.75,-1.00,-1.0,2374
3829,2138829,16932,900,1128,16993.38,25.71,-1.00,-1.0,2370
3834,2138834,16808,776,1188,16867.79,25.71,-1.00,-1.0,2449
3836,2138836,17032,824,1256,17098.12,25.80,-1.00,-1.0,2367
3839,2138839,16888,832,1192,16950.45,25.80,-1.00,-1.0,2435
3842,2138842,16952,872,1172,17014.82,25.71,-1.00,-1.0,2366
3845,2138845,16992,944,1220,17061.88,25.61,-1.00,-1.0,2436
3847,2138847,16844,880,1252,16913.38,25.75,-1.00,-1.0,2427
3850,2138850,17040,808,1280,17107.10,25.71,-1.00,-1.0,2441
3853,2138853,16912,848,1148,16972.12,25.80,-1.00,-1.0,2351
3858,2138858,17040,848,1148,17099.67,25.80,-1.00,-1.0,2450
3861,2138861,17008,860,1232,17074.23,25.75,-1.00,-1.0,2352
3864,2138864,17008,780,1136,17063.73,25.71,-1.00,-1.0,2444
3866,2138866,16912,880,1068,16968.52,25.66,-1.00,-1.0,2371
3869,2138869,16916,820,1056,16968.75,25.61,-1.00,-1.0,2360
3872,2138872,17012,940,1300,17087.47,25.71,-1.00,-1.0,2442
3874,2138874,17104,980,1272,17179.21,25.71,-1.00,-1.0,2365
3877,2138877,17008,792,1104,17062.19,25.80,-1.00,-1.0,2437
3880,2138880,16984,836,1128,17041.94,25.80,-1.00,-1.0,2364
3885,2138885,16956,892,1236,17024.37,25.75,-1.00,-1.0,2447
3887,2138887,16924,852,1080,16979.81,25.66,-1.00,-1.0,2378
3890,2138890,16980,896,1212,17046.76,25.71,-1.00,-1.0,2439
3893,2138893,17116,896,1092,17174.19,25.75,-1.00,-1.0,2378
3896,2138896,16932,924,1172,16997.65,25.71,-1.00,-1.0,2439
3898,2138898,16940,844,1240,17006.28,25.85,-1.00,-1.0,2371
3901,2138901,17012,832,1068,17065.79,25.71,-1.00,-1.0,2439
3904,2138904,17020,912,1144,17082.77,25.75,-1.00,-1.0,2380
3907,2138907,16984,772,1140,17039.71,25.71,-1.00,-1.0,2360
3912,2138912,16872,828,1080,16926.79,25.66,-1.00,-1.0,2451
3914,2138914,17016,880,1288,17087.35,25.75,-1.00,-1.0,2364
3917,2138917,16996,816,1180,17056.44,25.80,-1.00,-1.0,2447
3920,2138920,16948,884,1132,17008.75,25.75,-1.00,-1.0,2363
3923,2138923,17000,884,1156,17062.17,25.71,-1.00,-1.0,2444
3925,2138925,17028,896,1008,17081.32,25.75,-1.00,-1.0,2365
3928,2138928,17016,852,1244,17082.67,25.71,-1.00,-1.0,2454
3931,2138931,17084,748,1180,17141.03,25.75,-1.00,-1.0,2364
3936,2138936,16880,884,1172,16943.71,25.66,-1.00,-1.0,2445
3939,2138939,17036,864,1200,17100.05,25.75,-1.00,-1.0,2365
3941,2138941,16948,964,1176,17016.08,25.75,-1.00,-1.0,2437
3944,2138944,17008,868,1084,17064.60,25.66,-1.00,-1.0,2351
3947,2138947,16992,832,1212,17055.47,25.75,-1.00,-1.0,2362
3949,2138949,16984,784,1068,17035.60,25.71,-1.00,-1.0,2437
3952,2138952,17060,868,1196,17123.88,25.75,-1.00,-1.0,2365
3955,2138955,16976,828,1184,17037.37,25.75,-1.00,-1.0,2435
3958,2138958,16892,856,1096,16949.15,25.80,-1.00,-1.0,2365
3963,2138963,17052,884,1064,17108.02,25.71,-1.00,-1.0,2450
3965,2138965,16904,872,1152,16965.63,25.71,-1.00,-1.0,2372
3968,2138968,16884,896,1188,16949.44,25.71,-1.00,-1.0,2439
3971,2138971,17020,840,1084,17075.16,25.71,-1.00,-1.0,2366
3974,2138974,17052,876,1104,17110.14,25.71,-1.00,-1.0,2437
3976,2138976,16944,820,1128,17001.29,25.71,-1.00,-1.0,2368
3979,2138979,16920,892,1200,16985.94,25.80,-1.00,-1.0,2439
3982,2138982,16892,780,1112,16946.52,25.80,-1.00,-1.0,2372
3985,2138985,16928,856,1300,16999.41,25.66,-1.00,-1.0,2360
3990,2138990,16908,900,1092,16967.11,25.75,-1.00,-1.0,2452
3992,2138992,17052,812,1268,17118.35,25.66,-1.00,-1.0,2364
3995,2138995,16940,872,1128,16999.89,25.71,-1.00,-1.0,2438
3998,2138998,17028,864,1172,17090.14,25.66,-1.00,-1.0,2364
4001,2139001,16956,912,1068,17014.06,25.75,-1.00,-1.0,2444
4003,2139003,16924,912,1164,16988.48,25.75,-1.00,-1.0,2364
4006,2139006,16952,868,1128,17011.65,25.75,-1.00,-1.0,2437
4009,2139009,16980,916,1268,17051.90,25.75,-1.00,-1.0,2364
4014,2139014,17032,888,1176,17095.63,25.80,-1.00,-1.0,2451
4016,2139016,17044,904,1356,17121.74,25.71,-1.00,-1.0,2364
4019,2139019,17004,852,1080,17059.55,25.61,-1.00,-1.0,2452
4022,2139022,17104,928,1360,17183.06,25.71,-1.00,-1.0,2364
4024,2139024,16956,948,1292,17031.56,25.71,-1.00,-1.0,2362
4027,2139027,16964,880,1140,17025.02,25.71,-1.00,-1.0,2440
4030,2139030,17020,792,1164,17078.13,25.71,-1.00,-1.0,2381
4033,2139033,16988,848,1148,17047.85,25.71,-1.00,-1.0,2435
4036,2139036,17024,900,1160,17087.19,25.71,-1.00,-1.0,2364
4041,2139041,16940,924,1216,17008.71,25.71,-1.00,-1.0,2445
4044,2139044,16952,832,1104,17008.27,25.75,-1.00,-1.0,2365
4046,2139046,17024,912,1212,17091.44,25.80,-1.00,-1.0,2436
4049,2139049,17028,868,1140,17088.18,25.66,-1.00,-1.0,2364
4052,2139052,16844,908,1100,16904.28,25.71,-1.00,-1.0,2437
4055,2139055,16940,956,1312,17017.61,25.66,-1.00,-1.0,2365
4057,2139057,16912,764,1208,16972.29,25.71,-1.00,-1.0,2437
4060,2139060,16984,852,1164,17045.15,25.66,-1.00,-1.0,2365
4063,2139063,17016,752,1000,17061.94,25.61,-1.00,-1.0,2360
4068,2139068,16912,908,1264,16983.46,25.71,-1.00,-1.0,2444
4071,2139071,17024,820,1256,17089.95,25.71,-1.00,-1.0,2365
4073,2139073,17012,840,1128,17070.04,25.80,-1.00,-1.0,2438
4076,2139076,16924,876,1172,16987.13,25.71,-1.00,-1.0,2364
4079,2139079,17012,952,1264,17085.44,25.71,-1.00,-1.0,2436
4082,2139082,17092,876,1312,17164.65,25.75,-1.00,-1.0,2365
4084,2139084,16936,796,1140,16992.98,25.80,-1.00,-1.0,2424
4087,2139087,17040,872,1048,17094.45,25.66,-1.00,-1.0,2364
4092,2139092,16968,824,1244,17033.48,25.75,-1.00,-1.0,2451
4095,2139095,16948,872,1288,17019.22,25.66,-1.00,-1.0,2365
4097,2139097,16976,820,1324,17047.29,25.71,-1.00,-1.0,2361
4100,2139100,17012,736,1148,17066.57,25.80,-1.00,-1.0,2436
4103,2139103,16944,812,1040,16995.29,25.75,-1.00,-1.0,2353
4106,2139106,17020,832,1312,17090.76,25.61,-1.00,-1.0,2435
4108,2139108,16928,852,1100,16985.08,25.66,-1.00,-1.0,2366
4111,2139111,16964,812,1236,17028.34,25.71,-1.00,-1.0,2436
4114,2139114,16868,848,1200,16931.88,25.66,-1.00,-1.0,2378
4119,2139119,16972,896,1344,17048.69,25.66,-1.00,-1.0,2443
4122,2139122,17016,876,1208,17081.30,25.75,-1.00,-1.0,2375
4124,2139124,17096,740,1120,17148.62,25.66,-1.00,-1.0,2452
4127,2139127,16900,900,1104,16959.92,25.71,-1.00,-1.0,2368
4130,2139130,17012,884,1076,17068.90,25.75,-1.00,-1.0,2449
4133,2139133,17008,780,1124,17062.94,25.75,-1.00,-1.0,2370
4135,2139135,16940,852,1068,16995.00,25.85,-1.00,-1.0,2366
4138,2139138,17036,896,1140,17097.59,25.80,-1.00,-1.0,2437
4141,2139141,17064,816,1196,17125.31,25.75,-1.00,-1.0,2372
4146,2139146,17012,880,1076,17068.69,25.75,-1.00,-1.0,2459
4149,2139149,17020,856,1228,17085.70,25.75,-1.00,-1.0,2370
4152,2139152,16944,956,1168,17011.09,25.80,-1.00,-1.0,2448
4154,2139154,17012,780,1252,17075.83,25.75,-1.00,-1.0,2374
4157,2139157,17012,868,1332,17086.13,25.61,-1.00,-1.0,2444
4160,2139160,17036,848,1084,17091.50,25.75,-1.00,-1.0,2366
4163,2139163,17060,920,1120,17121.46,25.71,-1.00,-1.0,2448
4165,2139165,17036,764,1168,17093.07,25.66,-1.00,-1.0,2375
4170,2139170,16964,852,964,17012.71,25.75,-1.00,-1.0,2445
4173,2139173,17024,948,1136,17088.18,25.71,-1.00,-1.0,2365
4176,2139176,16912,936,1076,16972.03,25.75,-1.00,-1.0,2365
4179,2139179,17008,844,1152,17067.85,25.71,-1.00,-1.0,2444
4181,2139181,16924,908,1252,16994.52,25.75,-1.00,-1.0,2370
4184,2139184,16996,796,1332,17066.69,25.80,-1.00,-1.0,2449
4187,2139187,16980,780,1132,17035.56,25.75,-1.00,-1.0,2369
4190,2139190,16960,832,1184,17021.62,25.71,-1.00,-1.0,2446
4192,2139192,16964,904,1136,17026.01,25.75,-1.00,-1.0,2373
4198,2139198,16984,864,1276,17053.77,25.80,-1.00,-1.0,2447
4200,2139200,16980,908,1196,17046.27,25.71,-1.00,-1.0,2373
4203,2139203,16884,872,1068,16940.20,25.80,-1.00,-1.0,2440
4206,2139206,16948,880,1148,17009.62,25.71,-1.00,-1.0,2372
4209,2139209,16956,844,1060,17010.05,25.80,-1.00,-1.0,2438
4211,2139211,17048,896,1140,17109.55,25.71,-1.00,-1.0,2366
4214,2139214,17032,844,1144,17091.23,25.71,-1.00,-1.0,2359
4217,2139217,16992,856,1240,17058.68,25.66,-1.00,-1.0,2437
4220,2139220,17004,856,1204,17068.05,25.80,-1.00,-1.0,2365
4224,2139224,16932,876,1236,16999.64,25.66,-1.00,-1.0,2444
4227,2139227,17032,856,1276,17101.17,25.75,-1.00,-1.0,2367
4230,2139230,16904,836,1276,16972.69,25.75,-1.00,-1.0,2436
4233,2139233,16872,888,1136,16933.50,25.75,-1.00,-1.0,2364
4235,2139235,16996,892,1092,17054.39,25.75,-1.00,-1.0,2436
4238,2139238,16928,968,1160,16995.29,25.61,-1.00,-1.0,2364
4241,2139241,16988,816,1232,17052.15,25.66,-1.00,-1.0,2437
4244,2139244,17000,720,1144,17053.65,25.75,-1.00,-1.0,2365
4249,2139249,16892,912,1072,16950.53,25.75,-1.00,-1.0,2445
4251,2139251,17008,836,1128,17065.85,25.71,-1.00,-1.0,2371
4254,2139254,16956,908,1152,17019.33,25.66,-1.00,-1.0,2360
4257,2139257,16912,836,1124,16969.91,25.75,-1.00,-1.0,2438
4259,2139259,17036,836,1224,17100.36,25.66,-1.00,-1.0,2365
4262,2139262,16940,824,1100,16995.66,25.75,-1.00,-1.0,2436
4265,2139265,16940,840,1288,17009.65,25.75,-1.00,-1.0,2365
4268,2139268,16976,780,1144,17032.37,25.66,-1.00,-1.0,2443
4270,2139270,16936,884,1040,16990.91,25.66,-1.00,-1.0,2365
4275,2139275,17000,900,1120,17060.61,25.75,-1.00,-1.0,2447
4278,2139278,17036,836,1184,17097.54,25.80,-1.00,-1.0,2368
4281,2139281,17048,852,1264,17116.01,25.75,-1.00,-1.0,2435
4283,2139283,16972,800,1072,17024.63,25.80,-1.00,-1.0,2362
4286,2139286,16984,728,1188,17041.06,25.75,-1.00,-1.0,2422
4289,2139289,16968,876,1108,17026.69,25.71,-1.00,-1.0,2379
4292,2139292,16944,752,1132,16998.41,25.75,-1.00,-1.0,2360
4294,2139294,16968,908,1204,17034.88,25.75,-1.00,-1.0,2436
4297,2139297,17036,788,1148,17092.81,25.80,-1.00,-1.0,2366
4302,2139302,16936,884,1156,16998.41,25.75,-1.00,-1.0,2430
4305,2139305,16992,836,1316,17063.38,25.75,-1.00,-1.0,2365
4308,2139308,17012,788,1292,17079.18,25.75,-1.00,-1.0,2442
4310,2139310,17076,712,1192,17132.36,25.75,-1.00,-1.0,2366
4313,2139313,16992,768,1188,17050.78,25.66,-1.00,-1.0,2423
4316,2139316,17116,888,1204,17181.26,25.75,-1.00,-1.0,2367
4319,2139319,16916,876,1120,16975.65,25.75,-1.00,-1.0,2437
4321,2139321,16908,744,1240,16969.73,25.75,-1.00,-1.0,2373
4326,2139326,16988,872,1160,17049.87,25.85,-1.00,-1.0,2453
4329,2139329,17032,860,1228,17097.85,25.71,-1.00,-1.0,2378
4332,2139332,16976,764,1108,17029.27,25.66,-1.00,-1.0,2360
4334,2139334,17004,756,1128,17058.13,25.75,-1.00,-1.0,2436
4337,2139337,16972,800,1124,17027.98,25.66,-1.00,-1.0,2366
4340,2139340,17020,1000,1304,17099.15,25.75,-1.00,-1.0,2421
4343,2139343,17040,852,1156,17100.40,25.75,-1.00,-1.0,2364
4345,2139345,16920,864,1140,16980.36,25.75,-1.00,-1.0,2436
4348,2139348,17000,796,1204,17061.16,25.61,-1.00,-1.0,2370
4353,2139353,17024,892,1108,17083.32,25.71,-1.00,-1.0,2446
4356,2139356,17048,780,1240,17110.82,25.71,-1.00,-1.0,2365
4359,2139359,16956,840,1192,17018.59,25.80,-1.00,-1.0,2443
4361,2139361,17032,748,1272,17095.80,25.80,-1.00,-1.0,2353
4364,2139364,16888,772,1212,16949.03,25.80,-1.00,-1.0,2438
4367,2139367,17020,920,1200,17087.04,25.71,-1.00,-1.0,2365
4369,2139369,16956,844,1216,17020.49,25.80,-1.00,-1.0,2360
4372,2139372,16952,824,1208,17014.95,25.75,-1.00,-1.0,2438
4375,2139375,16820,880,1120,16880.20,25.75,-1.00,-1.0,2376
4380,2139380,16884,944,1196,16952.61,25.75,-1.00,-1.0,2446
4383,2139383,17008,868,1296,17079.38,25.71,-1.00,-1.0,2365
4386,2139386,17072,848,1056,17125.64,25.66,-1.00,-1.0,2443
4388,2139388,16956,896,1184,17020.89,25.71,-1.00,-1.0,2366
4391,2139391,16908,872,1140,16968.81,25.66,-1.00,-1.0,2451
4394,2139394,16928,864,1156,16989.41,25.71,-1.00,-1.0,2365
4397,2139397,16904,816,1184,16965.05,25.75,-1.00,-1.0,2443
4399,2139399,17104,876,1236,17170.96,25.71,-1.00,-1.0,2367
4404,2139404,16984,852,1104,17041.16,25.75,-1.00,-1.0,2455
4407,2139407,16988,884,1108,17047.03,25.71,-1.00,-1.0,2372
4410,2139410,17048,860,1136,17107.44,25.66,-1.00,-1.0,2363
4412,2139412,16984,888,1180,17048.08,25.80,-1.00,-1.0,2436
4415,2139415,16992,836,1164,17052.33,25.75,-1.00,-1.0,2369
4418,2139418,16908,876,1192,16972.59,25.71,-1.00,-1.0,2435
4420,2139420,17048,820,1248,17113.28,25.75,-1.00,-1.0,2366
4423,2139423,17036,856,1280,17105.45,25.71,-1.00,-1.0,2436
4426,2139426,17064,776,1340,17134.12,25.71,-1.00,-1.0,2373
4431,2139431,17012,836,1120,17069.31,25.80,-1.00,-1.0,2446
4434,2139434,17032,904,1196,17097.86,25.71,-1.00,-1.0,2365
4437,2139437,16964,876,1052,17019.15,25.57,-1.00,-1.0,2444
4439,2139439,17040,896,1212,17106.53,25.71,-1.00,-1.0,2365
4442,2139442,16944,784,1084,16996.73,25.75,-1.00,-1.0,2436
4445,2139445,16932,820,1076,16985.96,25.71,-1.00,-1.0,2365
4447,2139447,16956,848,1208,17020.12,25.75,-1.00,-1.0,2362
4450,2139450,16960,792,1172,17018.88,25.80,-1.00,-1.0,2436
4453,2139453,16948,908,1164,17012.17,25.71,-1.00,-1.0,2368
4458,2139458,17040,788,1164,17097.88,25.71,-1.00,-1.0,2447
4461,2139461,16992,868,1176,17054.75,25.71,-1.00,-1.0,2367
4464,2139464,16956,756,1156,17012.17,25.71,-1.00,-1.0,2437
4466,2139466,17028,912,1220,17095.99,25.71,-1.00,-1.0,2362
4469,2139469,17028,848,1144,17087.44,25.71,-1.00,-1.0,2424
4472,2139472,17072,980,1096,17135.19,25.71,-1.00,-1.0,2380
4475,2139475,17024,796,1304,17092.41,25.71,-1.00,-1.0,2435
4477,2139477,16984,840,1236,17049.62,25.75,-1.00,-1.0,2374
4480,2139480,16936,836,1112,16993.04,25.71,-1.00,-1.0,2360
4485,2139485,17080,856,996,17130.42,25.71,-1.00,-1.0,2432
4488,2139488,16960,868,1188,17023.70,25.80,-1.00,-1.0,2369
4491,2139491,16892,884,1268,16962.57,25.61,-1.00,-1.0,2435
4493,2139493,16872,864,1184,16935.55,25.71,-1.00,-1.0,2373
4496,2139496,16992,856,1048,17045.79,25.71,-1.00,-1.0,2438
4499,2139499,16956,800,1072,17008.68,25.71,-1.00,-1.0,2374
4502,2139502,16924,820,1164,16983.79,25.80,-1.00,-1.0,2437
4504,2139504,17016,868,1212,17081.18,25.71,-1.00,-1.0,2373
4509,2139509,16836,892,1016,16890.20,25.71,-1.00,-1.0,2450
4512,2139512,16984,868,1112,17042.48,25.71,-1.00,-1.0,2371
4515,2139515,16996,772,1212,17056.64,25.71,-1.00,-1.0,2443
4518,2139518,16988,804,1084,17041.53,25.80,-1.00,-1.0,2373
4520,2139520,16912,888,1196,16977.48,25.80,-1.00,-1.0,2367
4523,2139523,16968,824,1260,17034.66,25.75,-1.00,-1.0,2435
4526,2139526,17052,872,1104,17109.94,25.71,-1.00,-1.0,2368
4529,2139529,16972,984,1192,17042.24,25.75,-1.00,-1.0,2429
4531,2139531,17076,880,1176,17139.05,25.75,-1.00,-1.0,2353
4536,2139536,17052,848,1224,17116.89,25.75,-1.00,-1.0,2444
4539,2139539,16912,860,1268,16981.26,25.75,-1.00,-1.0,2367
4542,2139542,17000,872,1260,17068.92,25.75,-1.00,-1.0,2434
4545,2139545,17032,872,1076,17088.22,25.66,-1.00,-1.0,2365
4547,2139547,16980,964,1140,17045.51,25.75,-1.00,-1.0,2436
4550,2139550,17056,812,1148,17113.87,25.85,-1.00,-1.0,2366
4553,2139553,17004,936,1148,17068.39,25.80,-1.00,-1.0,2421
4556,2139556,16984,804,1116,17039.61,25.80,-1.00,-1.0,2365
4558,2139558,16952,936,1176,17018.50,25.80,-1.00,-1.0,2361
4563,2139563,16964,836,1060,17017.63,25.75,-1.00,-1.0,2432
4566,2139566,16992,912,1000,17045.81,25.66,-1.00,-1.0,2366
4569,2139569,16996,836,1248,17062.25,25.75,-1.00,-1.0,2434
4572,2139572,16960,840,1164,17020.64,25.75,-1.00,-1.0,2367
4574,2139574,16896,848,1108,16953.51,25.75,-1.00,-1.0,2423
4577,2139577,16952,884,1020,17005.65,25.75,-1.00,-1.0,2366
4580,2139580,16932,940,1204,17000.76,25.75,-1.00,-1.0,2434
4583,2139583,17012,864,1208,17076.71,25.75,-1.00,-1.0,2364
4588,2139588,16992,928,1128,17054.67,25.75,-1.00,-1.0,2446
4590,2139590,17064,776,1152,17120.44,25.66,-1.00,-1.0,2374
4593,2139593,16968,880,1084,17025.35,25.85,-1.00,-1.0,2436
4596,2139596,16988,936,1144,17052.18,25.71,-1.00,-1.0,2365
4598,2139598,17012,840,1120,17069.51,25.75,-1.00,-1.0,2360
4601,2139601,17028,824,1224,17091.81,25.66,-1.00,-1.0,2423
4604,2139604,16940,836,1260,17007.35,25.85,-1.00,-1.0,2370
4607,2139607,16964,944,1128,17027.65,25.75,-1.00,-1.0,2435
4609,2139609,17076,884,1148,17137.36,25.80,-1.00,-1.0,2373
4614,2139614,16940,848,1172,17001.66,25.66,-1.00,-1.0,2452
4617,2139617,16960,912,1112,17020.87,25.80,-1.00,-1.0,2370
4620,2139620,17088,832,960,17135.16,25.75,-1.00,-1.0,2445
4623,2139623,16896,876,968,16946.36,25.71,-1.00,-1.0,2372
4626,2139626,17032,916,1056,17089.27,25.75,-1.00,-1.0,2447
4628,2139628,16944,840,1252,17010.95,25.75,-1.00,-1.0,2369
4631,2139631,16984,784,1076,17036.10,25.75,-1.00,-1.0,2445
4634,2139634,16940,792,1108,16994.66,25.71,-1.00,-1.0,2372
4636,2139636,17040,820,1280,17107.67,25.75,-1.00,-1.0,2363
4641,2139641,17036,844,1248,17102.49,25.75,-1.00,-1.0,2445
4644,2139644,17008,828,1208,17070.94,25.75,-1.00,-1.0,2369
4647,2139647,17084,852,1148,17143.71,25.71,-1.00,-1.0,2434
4650,2139650,17008,844,1204,17071.44,25.66,-1.00,-1.0,2364
4652,2139652,17012,804,1092,17065.96,25.71,-1.00,-1.0,2435
4655,2139655,16980,816,1108,17035.67,25.75,-1.00,-1.0,2369
4658,2139658,16952,928,1172,17017.79,25.71,-1.00,-1.0,2434
4660,2139660,17020,880,1172,17082.98,25.66,-1.00,-1.0,2365
4665,2139665,16976,864,1252,17044.02,25.75,-1.00,-1.0,2451
4668,2139668,17044,1064,1192,17118.73,25.75,-1.00,-1.0,2374
4671,2139671,16968,840,1084,17023.33,25.66,-1.00,-1.0,2446
4674,2139674,17020,768,1084,17071.77,25.71,-1.00,-1.0,2373
4676,2139676,16980,768,1236,17042.24,25.66,-1.00,-1.0,2362
4679,2139679,17016,884,1192,17080.59,25.71,-1.00,-1.0,2435
4682,2139682,17156,836,1252,17221.93,25.66,-1.00,-1.0,2354
4685,2139685,16996,760,1200,17055.25,25.80,-1.00,-1.0,2434
4688,2139688,17044,812,1096,17098.49,25.75,-1.00,-1.0,2364
4693,2139693,16964,928,1256,17035.73,25.75,-1.00,-1.0,2449
4695,2139695,16992,832,1108,17048.40,25.75,-1.00,-1.0,2375
4698,2139698,16968,872,1148,17029.13,25.71,-1.00,-1.0,2445
4701,2139701,16924,860,1216,16989.41,25.75,-1.00,-1.0,2368
4704,2139704,16976,864,1156,17037.24,25.71,-1.00,-1.0,2447
4706,2139706,16940,908,1196,17006.42,25.75,-1.00,-1.0,2377
4709,2139709,17000,812,1168,17059.41,25.71,-1.00,-1.0,2444
4712,2139712,17024,928,1088,17083.96,25.75,-1.00,-1.0,2368
4715,2139715,17052,904,1152,17114.76,25.71,-1.00,-1.0,2360
4720,2139720,16920,852,1092,16976.59,25.71,-1.00,-1.0,2446
4722,2139722,16904,892,1200,16970.00,25.66,-1.00,-1.0,2375
4725,2139725,16940,928,1188,17006.94,25.71,-1.00,-1.0,2442
4728,2139728,16968,860,1024,17020.61,25.75,-1.00,-1.0,2371
4731,2139731,16996,704,1132,17048.20,25.71,-1.00,-1.0,2447
4733,2139733,16984,944,1268,17057.41,25.71,-1.00,-1.0,2375
4736,2139736,17068,836,1208,17131.11,25.71,-1.00,-1.0,2442
4739,2139739,17020,820,1276,17087.45,25.75,-1.00,-1.0,2353
4744,2139744,16976,936,1084,17036.31,25.66,-1.00,-1.0,2455
4746,2139746,17000,892,1184,17064.51,25.75,-1.00,-1.0,2367
4749,2139749,16912,900,1176,16976.71,25.66,-1.00,-1.0,2444
4752,2139752,16904,872,1220,16970.39,25.75,-1.00,-1.0,2366
4754,2139754,17036,832,1120,17093.04,25.75,-1.00,-1.0,2367
4757,2139757,16940,956,1356,17021.05,25.80,-1.00,-1.0,2443
4760,2139760,17008,832,1192,17070.01,25.80,-1.00,-1.0,2382
4763,2139763,17020,788,1184,17079.32,25.71,-1.00,-1.0,2437
4766,2139766,16872,932,1104,16933.75,25.80,-1.00,-1.0,2365
4771,2139771,17016,980,1140,17082.28,25.71,-1.00,-1.0,2445
4773,2139773,17036,864,1244,17103.20,25.71,-1.00,-1.0,2369
4776,2139776,16924,796,1200,16985.15,25.75,-1.00,-1.0,2435
4779,2139779,17016,816,1052,17068.01,25.71,-1.00,-1.0,2365
4782,2139782,17016,812,1168,17075.36,25.71,-1.00,-1.0,2435
4784,2139784,17044,872,1176,17106.76,25.71,-1.00,-1.0,2368
4787,2139787,16996,868,1156,17057.37,25.75,-1.00,-1.0,2360
4790,2139790,17028,912,1292,17101.28,25.71,-1.00,-1.0,2440
4793,2139793,16948,776,1088,17000.61,25.85,-1.00,-1.0,2372
4798,2139798,16964,888,1172,17027.61,25.75,-1.00,-1.0,2451
4800,2139800,16928,936,1156,16993.22,25.85,-1.00,-1.0,2366
4803,2139803,16972,872,1316,17045.26,25.75,-1.00,-1.0,2436
4806,2139806,16984,752,1192,17042.38,25.75,-1.00,-1.0,2355
4809,2139809,17008,924,1088,17067.79,25.75,-1.00,-1.0,2435
4811,2139811,16868,792,1108,16922.89,25.75,-1.00,-1.0,2369
4814,2139814,16988,812,1144,17045.83,25.75,-1.00,-1.0,2435
4817,2139817,17020,804,1140,17077.07,25.71,-1.00,-1.0,2367
4822,2139822,17040,900,1184,17104.78,25.85,-1.00,-1.0,2445
4824,2139824,17004,808,1192,17064.87,25.85,-1.00,-1.0,2366
4827,2139827,17000,912,1128,17061.77,25.75,-1.00,-1.0,2361
4830,2139830,16940,824,1244,17005.59,25.71,-1.00,-1.0,2443
4832,2139832,16980,956,1036,17038.42,25.66,-1.00,-1.0,2352
4835,2139835,17068,828,1176,17128.49,25.80,-1.00,-1.0,2439
4838,2139838,17088,788,1184,17147.09,25.75,-1.00,-1.0,2366
4841,2139841,17036,844,1196,17098.77,25.71,-1.00,-1.0,2437
4844,2139844,16848,968,1096,16911.34,25.71,-1.00,-1.0,2370
4849,2139849,16992,968,1240,17064.66,25.71,-1.00,-1.0,2447
4851,2139851,16972,888,1180,17036.13,25.75,-1.00,-1.0,2374
4854,2139854,16952,844,1204,17015.65,25.66,-1.00,-1.0,2436
4857,2139857,16976,760,1340,17045.76,25.80,-1.00,-1.0,2366
4860,2139860,16944,768,1248,17007.25,25.75,-1.00,-1.0,2441
4862,2139862,16932,768,1224,16993.55,25.75,-1.00,-1.0,2374
4865,2139865,16960,940,1212,17029.21,25.75,-1.00,-1.0,2361
4868,2139868,16952,944,1268,17025.55,25.66,-1.00,-1.0,2437
4871,2139871,16948,816,1296,17017.05,25.71,-1.00,-1.0,2372
4876,2139876,17000,760,1076,17050.96,25.80,-1.00,-1.0,2450
4878,2139878,17012,792,1112,17066.69,25.61,-1.00,-1.0,2366
4881,2139881,16972,848,1160,17032.72,25.75,-1.00,-1.0,2448
4884,2139884,16980,696,1164,17034.07,25.71,-1.00,-1.0,2365
4887,2139887,16936,836,1356,17010.75,25.71,-1.00,-1.0,2442
4889,2139889,17040,820,1076,17093.62,25.71,-1.00,-1.0,2365
4892,2139892,17012,864,1040,17065.64,25.66,-1.00,-1.0,2452
4895,2139895,17060,872,980,17110.36,25.61,-1.00,-1.0,2365
4900,2139900,17068,848,1072,17122.64,25.71,-1.00,-1.0,2444
4903,2139903,16864,908,1184,16929.88,25.61,-1.00,-1.0,2374
4905,2139905,17008,896,1240,17076.66,25.71,-1.00,-1.0,2367
4908,2139908,16988,848,1216,17052.56,25.66,-1.00,-1.0,2444
4911,2139911,16940,848,1216,17004.75,25.71,-1.00,-1.0,2372
4914,2139914,17008,820,1352,17081.35,25.75,-1.00,-1.0,2444
4916,2139916,16980,784,1164,17037.90,25.75,-1.00,-1.0,2369
4919,2139919,16968,908,1148,17031.01,25.75,-1.00,-1.0,2446
4922,2139922,17060,864,1260,17128.27,25.66,-1.00,-1.0,2367
4927,2139927,17000,840,1208,17063.55,25.75,-1.00,-1.0,2448
4929,2139929,16944,848,1236,17010.17,25.80,-1.00,-1.0,2371
4932,2139932,16972,804,1208,17033.92,25.75,-1.00,-1.0,2445
4935,2139935,16864,960,1052,16924.03,25.75,-1.00,-1.0,2380
4938,2139938,16972,896,1244,17041.10,25.66,-1.00,-1.0,2438
4940,2139940,17004,824,1060,17056.92,25.71,-1.00,-1.0,2371
4943,2139943,16884,764,1132,16939.14,25.75,-1.00,-1.0,2360
4946,2139946,16896,772,1136,16951.73,25.71,-1.00,-1.0,2436
4949,2139949,17008,792,1164,17066.17,25.75,-1.00,-1.0,2365
4954,2139954,17028,856,1284,17097.78,25.75,-1.00,-1.0,2445
4956,2139956,16904,744,1252,16966.62,25.66,-1.00,-1.0,2371
4959,2139959,16912,856,1208,16976.68,25.61,-1.00,-1.0,2437
4962,2139962,16996,924,1168,17061.12,25.75,-1.00,-1.0,2367
4965,2139965,16932,888,1152,16994.36,25.80,-1.00,-1.0,2460
4968,2139968,17044,832,1256,17110.46,25.71,-1.00,-1.0,2373
4970,2139970,16976,840,1136,17034.69,25.71,-1.00,-1.0,2437
4973,2139973,16924,868,1136,16984.28,25.80,-1.00,-1.0,2365
4978,2139978,16980,768,1144,17035.81,25.71,-1.00,-1.0,2447
4981,2139981,16916,896,1200,16982.16,25.80,-1.00,-1.0,2364
4983,2139983,17028,832,1276,17096.00,25.80,-1.00,-1.0,2359
4986,2139986,17060,912,1232,17128.72,25.75,-1.00,-1.0,2453
4989,2139989,17024,904,1276,17095.67,25.66,-1.00,-1.0,2365
4992,2139992,16956,876,1216,17022.10,25.66,-1.00,-1.0,2443
4994,2139994,16988,824,1156,17047.21,25.71,-1.00,-1.0,2363
4997,2139997,16952,960,1172,17019.56,25.75,-1.00,-1.0,2451
5000,2140000,16864,856,1196,16928.01,25.66,-1.00,-1.0,2365
5005,2140005,16996,860,1164,17057.51,25.66,-1.00,-1.0,2445
5008,2140008,17088,908,1208,17154.69,25.71,-1.00,-1.0,2363
5010,2140010,17080,892,976,17131.10,25.66,-1.00,-1.0,2438
5013,2140013,17024,820,1164,17083.44,25.71,-1.00,-1.0,2364
5016,2140016,16932,736,1152,16987.10,25.75,-1.00,-1.0,2436
5019,2140019,17064,836,1200,17126.56,25.71,-1.00,-1.0,2364
5021,2140021,16940,908,1112,17000.72,25.75,-1.00,-1.0,2362
5024,2140024,16988,864,1260,17056.56,25.75,-1.00,-1.0,2453
5027,2140027,17008,912,1148,17071.08,25.75,-1.00,-1.0,2364
5033,2140033,16960,864,1208,17024.90,25.66,-1.00,-1.0,2465
5035,2140035,17064,820,1148,17122.22,25.75,-1.00,-1.0,2373
5038,2140038,16960,908,1216,17027.76,25.80,-1.00,-1.0,2440
5041,2140041,17008,936,1180,17074.56,25.80,-1.00,-1.0,2379
5044,2140044,16996,896,1208,17062.42,25.71,-1.00,-1.0,2438
5046,2140046,17088,952,1096,17149.56,25.71,-1.00,-1.0,2376
5049,2140049,17028,944,1152,17093.01,25.71,-1.00,-1.0,2440
5052,2140052,16964,788,1180,17023.24,25.71,-1.00,-1.0,2378
5057,2140057,16988,856,1112,17045.86,25.66,-1.00,-1.0,2446
5060,2140060,17012,848,1264,17079.96,25.71,-1.00,-1.0,2363
5062,2140062,17028,848,1032,17080.31,25.75,-1.00,-1.0,2358
5065,2140065,16924,852,1088,16980.32,25.66,-1.00,-1.0,2437
5068,2140068,16904,868,1336,16978.91,25.85,-1.00,-1.0,2364
5070,2140070,17004,856,1144,17063.92,25.75,-1.00,-1.0,2436
5073,2140073,16932,896,1116,16992.38,25.66,-1.00,-1.0,2364
5076,2140076,16904,852,1216,16969.08,25.75,-1.00,-1.0,2437
5079,2140079,16952,760,1016,16999.42,25.75,-1.00,-1.0,2364
5084,2140084,16952,788,1240,17015.55,25.71,-1.00,-1.0,2447
5086,2140086,17036,920,1316,17111.50,25.71,-1.00,-1.0,2371
5089,2140089,16944,788,1312,17012.98,25.66,-1.00,-1.0,2437
5092,2140092,17004,824,1180,17064.80,25.71,-1.00,-1.0,2368
5094,2140094,16936,800,1224,16999.01,25.71,-1.00,-1.0,2361
5097,2140097,16964,756,1056,17013.64,25.66,-1.00,-1.0,2436
5100,2140100,16964,908,1100,17023.86,25.66,-1.00,-1.0,2352
5103,2140103,16980,848,1260,17047.79,25.75,-1.00,-1.0,2444
5105,2140105,16984,740,1268,17047.34,25.71,-1.00,-1.0,2366
5110,2140110,17020,848,1096,17076.32,25.61,-1.00,-1.0,2454
5113,2140113,16956,928,1204,17024.00,25.71,-1.00,-1.0,2371
5116,2140116,17136,792,1172,17194.28,25.75,-1.00,-1.0,2437
5118,2140118,17028,880,1212,17093.75,25.61,-1.00,-1.0,2371
5121,2140121,16888,788,1316,16957.52,25.71,-1.00,-1.0,2424
5124,2140124,16860,904,1128,16921.86,25.71,-1.00,-1.0,2378
5127,2140127,16936,836,1264,17003.67,25.66,-1.00,-1.0,2441
5129,2140129,17008,936,1140,17071.84,25.71,-1.00,-1.0,2376
5132,2140132,16984,912,1100,17044.00,25.75,-1.00,-1.0,2360
5137,2140137,16948,848,1232,17013.87,25.75,-1.00,-1.0,2454
5140,2140140,16976,768,1272,17040.90,25.61,-1.00,-1.0,2367
5143,2140143,16980,876,1172,17042.93,25.75,-1.00,-1.0,2444
5145,2140145,16976,844,1236,17041.85,25.80,-1.00,-1.0,2372
5148,2140148,16980,876,1200,17044.88,25.75,-1.00,-1.0,2436
5151,2140151,16976,820,1228,17040.10,25.75,-1.00,-1.0,2427
5154,2140154,17092,916,1292,17165.22,25.71,-1.00,-1.0,2417
5156,2140156,16952,908,1192,17018.10,25.71,-1.00,-1.0,2372
5161,2140161,17020,952,1256,17092.81,25.80,-1.00,-1.0,2442
5164,2140164,16984,952,1144,17049.08,25.71,-1.00,-1.0,2367
5167,2140167,16944,884,1284,17015.56,25.71,-1.00,-1.0,2433
5170,2140170,16992,972,1056,17052.51,25.75,-1.00,-1.0,2366
5172,2140172,17120,740,1196,17177.67,25.71,-1.00,-1.0,2360
5175,2140175,17000,792,1148,17057.12,25.85,-1.00,-1.0,2449
5178,2140178,17020,896,1192,17085.20,25.61,-1.00,-1.0,2370
5180,2140180,17040,932,1192,17107.05,25.75,-1.00,-1.0,2437
5183,2140183,17032,932,1236,17102.20,25.61,-1.00,-1.0,2368
5188,2140188,17076,912,1124,17137.24,25.71,-1.00,-1.0,2445
5191,2140191,16996,848,1080,17051.38,25.75,-1.00,-1.0,2367
5194,2140194,16940,844,1192,17002.85,25.71,-1.00,-1.0,2439
5196,2140196,17020,880,1192,17084.37,25.66,-1.00,-1.0,2366
5199,2140199,16928,908,976,16980.41,25.80,-1.00,-1.0,2434
5202,2140202,16948,852,1112,17005.80,25.75,-1.00,-1.0,2366
5205,2140205,16976,824,1260,17042.63,25.80,-1.00,-1.0,2440
5207,2140207,16916,832,1120,16973.44,25.66,-1.00,-1.0,2367
5210,2140210,16960,812,1116,17016.06,25.75,-1.00,-1.0,2359
5215,2140215,16992,712,1196,17048.91,25.75,-1.00,-1.0,2438
5218,2140218,17004,828,1128,17061.48,25.75,-1.00,-1.0,2374
5221,2140221,17080,928,1052,17137.51,25.75,-1.00,-1.0,2442
5223,2140223,16948,936,1252,17019.94,25.66,-1.00,-1.0,2375
5226,2140226,16980,852,1164,17041.16,25.66,-1.00,-1.0,2441
5229,2140229,16964,888,1224,17031.27,25.66,-1.00,-1.0,2374
5232,2140232,17012,768,1172,17069.61,25.75,-1.00,-1.0,2441
5234,2140234,16932,836,1076,16986.74,25.75,-1.00,-1.0,2374
5239,2140239,17000,756,1100,17052.32,25.71,-1.00,-1.0,2450
5242,2140242,17044,904,1100,17103.37,25.75,-1.00,-1.0,2367
5245,2140245,16912,828,1300,16982.09,25.71,-1.00,-1.0,2426
5247,2140247,16912,844,1080,16967.45,25.75,-1.00,-1.0,2375
5250,2140250,16992,812,1168,17051.44,25.71,-1.00,-1.0,2346
5253,2140253,16964,940,1128,17027.43,25.71,-1.00,-1.0,2431
5255,2140255,16876,896,1216,16943.46,25.71,-1.00,-1.0,2369
5258,2140258,16940,776,1424,17017.45,25.71,-1.00,-1.0,2436
5261,2140261,16996,956,1144,17061.26,25.71,-1.00,-1.0,2366
5266,2140266,17052,892,1204,17117.71,25.66,-1.00,-1.0,2443
5269,2140269,17004,860,1212,17068.82,25.75,-1.00,-1.0,2375
5271,2140271,16972,832,1196,17034.42,25.66,-1.00,-1.0,2433
5274,2140274,16996,948,1208,17065.23,25.71,-1.00,-1.0,2366
5277,2140277,17008,804,1140,17065.11,25.75,-1.00,-1.0,2433
5280,2140280,16940,916,1112,17001.15,25.61,-1.00,-1.0,2367
5282,2140282,17000,876,1272,17070.01,25.66,-1.00,-1.0,2433
5285,2140285,16888,868,1032,16941.75,25.71,-1.00,-1.0,2366
5288,2140288,16948,860,1128,17007.25,25.71,-1.00,-1.0,2360
5293,2140293,16888,796,1240,16952.16,25.80,-1.00,-1.0,2443
5296,2140296,16976,716,1068,17024.62,25.71,-1.00,-1.0,2368
5299,2140299,16956,812,1260,17022.13,25.75,-1.00,-1.0,2465
5301,2140301,17068,848,1116,17125.46,25.75,-1.00,-1.0,2372
5304,2140304,16960,936,1200,17028.14,25.80,-1.00,-1.0,2438
5307,2140307,16936,876,1096,16994.02,25.71,-1.00,-1.0,2381
5310,2140310,16892,840,1264,16960.04,25.71,-1.00,-1.0,2437
5312,2140312,16896,856,1132,16955.50,25.75,-1.00,-1.0,2370
5317,2140317,16976,892,1320,17050.59,25.66,-1.00,-1.0,2440
5320,2140320,16940,780,1148,16996.76,25.66,-1.00,-1.0,2368
5323,2140323,16924,844,1140,16983.34,25.75,-1.00,-1.0,2438
5326,2140326,17028,920,1212,17095.85,25.75,-1.00,-1.0,2373
5328,2140328,17056,864,1192,17119.42,25.71,-1.00,-1.0,2367
5331,2140331,17044,964,1240,17116.21,25.71,-1.00,-1.0,2443
5334,2140334,16968,844,1460,17051.60,25.71,-1.00,-1.0,2369
5337,2140337,17004,864,1160,17065.41,25.71,-1.00,-1.0,2449
5339,2140339,17012,864,1296,17083.16,25.71,-1.00,-1.0,2375
5344,2140344,16900,820,1264,16967.03,25.71,-1.00,-1.0,2452
5347,2140347,17020,896,1144,17081.92,25.66,-1.00,-1.0,2366
5350,2140350,16980,908,1256,17050.58,25.71,-1.00,-1.0,2447
5352,2140352,17068,840,896,17112.13,25.75,-1.00,-1.0,2365
5355,2140355,17084,864,1104,17141.42,25.71,-1.00,-1.0,2448
5358,2140358,16892,780,1120,16947.05,25.75,-1.00,-1.0,2366
5361,2140361,17064,880,1180,17127.37,25.71,-1.00,-1.0,2445
5363,2140363,16912,892,1208,16978.54,25.66,-1.00,-1.0,2366
5366,2140366,17044,968,1120,17108.17,25.71,-1.00,-1.0,2362
5371,2140371,16960,832,1188,17021.90,25.71,-1.00,-1.0,2444
5374,2140374,16988,880,1312,17061.30,25.75,-1.00,-1.0,2365
5377,2140377,17032,780,1124,17086.86,25.71,-1.00,-1.0,2445
5379,2140379,16984,844,1060,17037.96,25.75,-1.00,-1.0,2365
5382,2140382,17032,848,1168,17093.05,25.71,-1.00,-1.0,2439
5385,2140385,16984,868,1172,17046.50,25.66,-1.00,-1.0,2367
5388,2140388,16960,812,1200,17021.78,25.61,-1.00,-1.0,2447
5390,2140390,16980,764,1200,17039.49,25.75,-1.00,-1.0,2352
5395,2140395,17024,812,1176,17083.88,25.75,-1.00,-1.0,2441
5398,2140398,17012,888,1192,17076.81,25.80,-1.00,-1.0,2366
5401,2140401,16988,820,1048,17040.04,25.66,-1.00,-1.0,2368
5403,2140403,16960,888,1140,17021.45,25.71,-1.00,-1.0,2439
5406,2140406,16984,992,1144,17051.37,25.75,-1.00,-1.0,2368
5409,2140409,17044,896,1228,17111.65,25.71,-1.00,-1.0,2435
5412,2140412,16992,840,1108,17048.79,25.75,-1.00,-1.0,2365
5414,2140414,16976,880,1160,17038.33,25.80,-1.00,-1.0,2436
5417,2140417,16932,868,1072,16988.09,25.75,-1.00,-1.0,2373
5422,2140422,16964,868,1224,17030.23,25.75,-1.00,-1.0,2448
5425,2140425,17012,860,1124,17070.77,25.71,-1.00,-1.0,2381
5428,2140428,17008,856,1180,17070.36,25.66,-1.00,-1.0,2443
5430,2140430,16956,880,1304,17028.82,25.71,-1.00,-1.0,2371
5433,2140433,16996,772,1268,17060.71,25.66,-1.00,-1.0,2438
5436,2140436,17012,816,1172,17071.84,25.71,-1.00,-1.0,2380
5439,2140439,16960,788,1256,17024.69,25.75,-1.00,-1.0,2360
5441,2140441,16968,852,1216,17032.84,25.71,-1.00,-1.0,2436
5444,2140444,17000,820,1096,17055.02,25.66,-1.00,-1.0,2354
5449,2140449,17064,792,1088,17116.98,25.61,-1.00,-1.0,2440
5452,2140452,16984,840,1260,17051.38,25.57,-1.00,-1.0,2365
5455,2140455,16868,928,1140,16931.93,25.71,-1.00,-1.0,2447
5457,2140457,16932,860,1264,17000.88,25.66,-1.00,-1.0,2366
5460,2140460,17072,876,1156,17133.50,25.71,-1.00,-1.0,2436
5463,2140463,16996,880,1164,17058.53,25.75,-1.00,-1.0,2365
5466,2140466,16876,832,1200,16939.05,25.80,-1.00,-1.0,2434
5468,2140468,16932,824,1164,16991.95,25.75,-1.00,-1.0,2366
5473,2140473,16808,844,1312,16880.24,25.75,-1.00,-1.0,2440
5476,2140476,17020,836,1068,17073.96,25.75,-1.00,-1.0,2366
5479,2140479,16936,864,1276,17005.96,25.61,-1.00,-1.0,2359
5481,2140481,16968,904,1240,17037.25,25.71,-1.00,-1.0,2440
5484,2140484,16868,796,1200,16929.35,25.80,-1.00,-1.0,2353
5487,2140487,17052,816,1104,17107.17,25.61,-1.00,-1.0,2435
5490,2140490,16916,724,1060,16964.63,25.71,-1.00,-1.0,2363
5492,2140492,17144,860,1040,17197.03,25.71,-1.00,-1.0,2436
5495,2140495,16976,912,1240,17045.64,25.61,-1.00,-1.0,2366
5500,2140500,17000,876,1140,17060.69,25.71,-1.00,-1.0,2443
5503,2140503,16996,888,1068,17052.66,25.66,-1.00,-1.0,2368
5506,2140506,16904,836,1192,16966.58,25.80,-1.00,-1.0,2439
5509,2140509,16976,824,1192,17037.73,25.75,-1.00,-1.0,2365
5511,2140511,16932,900,1136,16993.91,25.71,-1.00,-1.0,2435
5514,2140514,16924,904,1160,16987.78,25.85,-1.00,-1.0,2368
5517,2140517,16956,772,1132,17011.27,25.71,-1.00,-1.0,2360
5519,2140519,16896,816,1228,16960.21,25.75,-1.00,-1.0,2436
5522,2140522,16976,896,1176,17040.26,25.80,-1.00,-1.0,2366
5527,2140527,16940,808,1292,17008.40,25.71,-1.00,-1.0,2441
5530,2140530,17016,832,1208,17079.10,25.71,-1.00,-1.0,2364
5533,2140533,17016,768,1116,17069.84,25.71,-1.00,-1.0,2440
5536,2140536,16972,864,1180,17034.90,25.71,-1.00,-1.0,2365
5538,2140538,17088,868,1288,17158.44,25.71,-1.00,-1.0,2435
5541,2140541,16972,840,1184,17033.97,25.71,-1.00,-1.0,2367
5544,2140544,16992,880,1144,17053.19,25.71,-1.00,-1.0,2436
5547,2140547,17008,808,1200,17069.41,25.80,-1.00,-1.0,2368
5551,2140551,16912,924,1024,16968.15,25.75,-1.00,-1.0,2447
5554,2140554,16968,968,1248,17041.35,25.75,-1.00,-1.0,2368
5557,2140557,17044,868,996,17095.13,25.80,-1.00,-1.0,2362
5560,2140560,16984,832,1240,17049.52,25.71,-1.00,-1.0,2435
5562,2140562,16956,836,1260,17023.29,25.61,-1.00,-1.0,2374
5565,2140565,17072,852,1148,17131.75,25.80,-1.00,-1.0,2436
5568,2140568,16944,936,1176,17010.53,25.71,-1.00,-1.0,2351
5571,2140571,17020,848,1076,17075.05,25.71,-1.00,-1.0,2444
5573,2140573,16996,804,1228,17059.26,25.75,-1.00,-1.0,2366
5578,2140578,17020,920,1276,17092.54,25.75,-1.00,-1.0,2427
5581,2140581,16960,948,1268,17033.73,25.71,-1.00,-1.0,2364
5584,2140584,17008,920,1172,17073.14,25.71,-1.00,-1.0,2439
5587,2140587,17052,836,1244,17117.74,25.71,-1.00,-1.0,2369
5589,2140589,17012,880,1108,17070.74,25.75,-1.00,-1.0,2434
5592,2140592,17016,800,1172,17075.06,25.71,-1.00,-1.0,2365
5595,2140595,16988,736,1056,17036.70,25.75,-1.00,-1.0,2367
5598,2140598,16988,848,1112,17045.46,25.71,-1.00,-1.0,2449
5600,2140600,16900,808,1320,16970.72,25.66,-1.00,-1.0,2370
5605,2140605,17060,896,1256,17129.62,25.75,-1.00,-1.0,2441
5608,2140608,16992,884,1212,17058.09,25.75,-1.00,-1.0,2365
5611,2140611,16992,844,1128,17050.30,25.75,-1.00,-1.0,2439
5614,2140614,17040,836,1060,17093.39,25.66,-1.00,-1.0,2366
5616,2140616,17024,812,1212,17086.39,25.66,-1.00,-1.0,2435
5619,2140619,16948,856,1164,17009.48,25.66,-1.00,-1.0,2365
5622,2140622,16940,804,1260,17005.81,25.75,-1.00,-1.0,2436
5625,2140625,16940,800,1244,17004.45,25.75,-1.00,-1.0,2364
5630,2140630,16964,916,1116,17025.33,25.71,-1.00,-1.0,2443
5632,2140632,17016,880,1156,17077.91,25.71,-1.00,-1.0,2373
5635,2140635,17032,812,1336,17103.60,25.71,-1.00,-1.0,2359
5638,2140638,17024,780,1140,17079.95,25.75,-1.00,-1.0,2448
5640,2140640,17100,864,1060,17154.59,25.66,-1.00,-1.0,2366
5643,2140643,16904,772,1260,16968.46,25.75,-1.00,-1.0,2438
5646,2140646,17004,1044,1060,17068.96,25.80,-1.00,-1.0,2369
5649,2140649,16996,836,1136,17054.43,25.75,-1.00,-1.0,2443
5651,2140651,16972,896,1168,17035.72,25.71,-1.00,-1.0,2370
5656,2140656,16952,808,1268,17018.55,25.75,-1.00,-1.0,2440
5659,2140659,16972,848,1208,17036.05,25.61,-1.00,-1.0,2368
5662,2140662,16992,828,1224,17056.14,25.75,-1.00,-1.0,2439
5665,2140665,17052,872,1192,17115.84,25.75,-1.00,-1.0,2366
5667,2140667,16948,856,1076,17003.68,25.66,-1.00,-1.0,2435
5670,2140670,17024,876,1184,17087.59,25.75,-1.00,-1.0,2368
5673,2140673,16956,812,1116,17012.08,25.75,-1.00,-1.0,2359
5676,2140676,17036,860,1216,17100.98,25.66,-1.00,-1.0,2436
5679,2140679,16944,836,1276,17012.53,25.75,-1.00,-1.0,2365
5683,2140683,17040,856,1112,17097.69,25.75,-1.00,-1.0,2441
5686,2140686,17000,776,1184,17058.84,25.85,-1.00,-1.0,2365
5689,2140689,17024,856,1208,17088.26,25.75,-1.00,-1.0,2439
5692,2140692,17056,848,1252,17122.90,25.66,-1.00,-1.0,2365
5694,2140694,16916,864,1236,16983.09,25.75,-1.00,-1.0,2435
5697,2140697,16960,836,1224,17024.65,25.66,-1.00,-1.0,2365
5700,2140700,17024,804,1128,17080.26,25.75,-1.00,-1.0,2423
5703,2140703,16912,900,1156,16975.34,25.75,-1.00,-1.0,2364
5708,2140708,17032,788,1068,17083.63,25.66,-1.00,-1.0,2444
5710,2140710,16920,892,1144,16982.07,25.66,-1.00,-1.0,2375
5713,2140713,16920,912,1164,16984.49,25.75,-1.00,-1.0,2359
5716,2140716,16924,832,1196,16986.60,25.80,-1.00,-1.0,2446
5718,2140718,17032,908,1128,17093.45,25.75,-1.00,-1.0,2366
5721,2140721,17032,864,1068,17087.31,25.71,-1.00,-1.0,2440
5724,2140724,17064,772,1076,17115.31,25.75,-1.00,-1.0,2365
5727,2140727,16992,936,1084,17052.25,25.61,-1.00,-1.0,2444
5730,2140730,17072,876,1000,17123.68,25.85,-1.00,-1.0,2365
5735,2140735,17028,924,1212,17096.07,25.75,-1.00,-1.0,2442
5737,2140737,16984,796,1140,17040.82,25.75,-1.00,-1.0,2373
5740,2140740,17012,896,1196,17077.51,25.66,-1.00,-1.0,2440
5743,2140743,16912,932,1068,16971.30,25.66,-1.00,-1.0,2369
5746,2140746,17100,824,1312,17170.04,25.75,-1.00,-1.0,2435
5748,2140748,16980,736,1100,17031.50,25.66,-1.00,-1.0,2373
5751,2140751,16984,780,1200,17044.20,25.61,-1.00,-1.0,2360
5754,2140754,16972,840,1272,17040.32,25.71,-1.00,-1.0,2439
5757,2140757,16916,948,1156,16981.93,25.71,-1.00,-1.0,2366
5762,2140762,16932,784,1076,16984.26,25.80,-1.00,-1.0,2441
5764,2140764,16936,812,1256,17001.91,25.66,-1.00,-1.0,2368
5767,2140767,17024,896,1184,17088.63,25.71,-1.00,-1.0,2439
5770,2140770,16984,948,1196,17052.43,25.75,-1.00,-1.0,2368
5773,2140773,17012,924,1232,17081.56,25.80,-1.00,-1.0,2435
5775,2140775,16948,780,1120,17002.87,25.75,-1.00,-1.0,2352
5778,2140778,17060,800,1156,17117.82,25.71,-1.00,-1.0,2436
5781,2140781,17020,920,1080,17079.03,25.85,-1.00,-1.0,2369
5784,2140784,17048,736,1160,17103.26,25.71,-1.00,-1.0,2368
5789,2140789,17056,824,1112,17112.06,25.71,-1.00,-1.0,2441
5791,2140791,17100,840,1160,17159.87,25.61,-1.00,-1.0,2366
5794,2140794,16956,832,1056,17009.21,25.71,-1.00,-1.0,2440
5797,2140797,16976,824,1248,17041.74,25.71,-1.00,-1.0,2365
5800,2140800,16964,788,1308,17032.59,25.71,-1.00,-1.0,2444
5802,2140802,17100,776,1260,17163.91,25.71,-1.00,-1.0,2369
5805,2140805,17008,852,1068,17062.78,25.71,-1.00,-1.0,2424
5808,2140808,17024,896,1076,17081.49,25.71,-1.00,-1.0,2366
5813,2140813,17008,900,1084,17066.26,25.75,-1.00,-1.0,2436
5815,2140815,16964,896,1188,17029.13,25.75,-1.00,-1.0,2377
5818,2140818,16976,960,1252,17049.15,25.71,-1.00,-1.0,2448
5821,2140821,16856,808,1032,16906.88,25.75,-1.00,-1.0,2381
5824,2140824,17044,1004,1144,17111.83,25.80,-1.00,-1.0,2359
5826,2140826,16996,804,1240,17060.13,25.80,-1.00,-1.0,2436
5829,2140829,16968,772,1200,17027.89,25.80,-1.00,-1.0,2367
5832,2140832,17036,788,1296,17103.39,25.71,-1.00,-1.0,2435
5835,2140835,16828,872,1220,16894.69,25.75,-1.00,-1.0,2370
5840,2140840,16932,784,1148,16988.97,25.80,-1.00,-1.0,2445
5842,2140842,16972,820,1052,17024.33,25.75,-1.00,-1.0,2366
5845,2140845,17000,712,1192,17056.61,25.66,-1.00,-1.0,2443
5848,2140848,17112,784,980,17157.96,25.66,-1.00,-1.0,2366
5851,2140851,17056,900,1112,17115.89,25.75,-1.00,-1.0,2447
5853,2140853,17004,960,1196,17073.02,25.75,-1.00,-1.0,2366
5856,2140856,16992,888,1040,17046.94,25.66,-1.00,-1.0,2437
5859,2140859,16972,832,1184,17033.58,25.75,-1.00,-1.0,2365
5862,2140862,17004,844,1052,17057.40,25.66,-1.00,-1.0,2366
5868,2140868,16948,836,956,16995.52,25.75,-1.00,-1.0,2442
5871,2140871,17016,840,1200,17078.93,25.66,-1.00,-1.0,2366
5874,2140874,17016,908,1140,17078.30,25.80,-1.00,-1.0,2455
5877,2140877,16932,768,1132,16987.17,25.85,-1.00,-1.0,2375
5879,2140879,17036,800,1164,17094.45,25.71,-1.00,-1.0,2448
5882,2140882,16992,768,1216,17052.76,25.75,-1.00,-1.0,2368
5885,2140885,17004,788,1152,17061.19,25.71,-1.00,-1.0,2449
5888,2140888,16924,880,1084,16981.50,25.75,-1.00,-1.0,2372
5893,2140893,17020,864,1236,17086.68,25.71,-1.00,-1.0,2443
5895,2140895,16940,920,1096,17000.33,25.71,-1.00,-1.0,2373
5898,2140898,16932,768,1148,16988.24,25.75,-1.00,-1.0,2440
5901,2140901,16936,820,1272,17003.48,25.71,-1.00,-1.0,2367
5903,2140903,16964,876,1208,17029.50,25.75,-1.00,-1.0,2360
5906,2140906,17040,820,1148,17098.30,25.75,-1.00,-1.0,2440
5909,2140909,17080,860,1224,17145.38,25.57,-1.00,-1.0,2365
5912,2140912,17060,876,1256,17128.59,25.66,-1.00,-1.0,2443
5914,2140914,16944,848,1184,17006.47,25.66,-1.00,-1.0,2365
5919,2140919,17052,856,1200,17115.59,25.71,-1.00,-1.0,2443
5922,2140922,16884,856,1224,16949.94,25.80,-1.00,-1.0,2371
5925,2140925,17004,828,1128,17061.48,25.71,-1.00,-1.0,2435
5928,2140928,16984,852,1308,17055.59,25.71,-1.00,-1.0,2373
5931,2140931,17096,848,1240,17161.88,25.71,-1.00,-1.0,2448
5933,2140933,16996,876,1128,17055.90,25.75,-1.00,-1.0,2421
5936,2140936,16976,796,1112,17030.99,25.71,-1.00,-1.0,2449
5939,2140939,16944,728,1268,17006.97,25.71,-1.00,-1.0,2372
5941,2140941,17044,892,1172,17107.52,25.71,-1.00,-1.0,2360
5946,2140946,16964,880,1284,17035.27,25.71,-1.00,-1.0,2439
5949,2140949,16936,856,1032,16988.99,25.71,-1.00,-1.0,2368
5952,2140952,17004,884,1120,17063.76,25.71,-1.00,-1.0,2451
5955,2140955,16968,876,1180,17031.52,25.80,-1.00,-1.0,2377
5957,2140957,17016,856,1336,17089.82,25.80,-1.00,-1.0,2448
5960,2140960,16984,844,1152,17043.93,25.71,-1.00,-1.0,2371
5963,2140963,16936,876,1052,16991.24,25.71,-1.00,-1.0,2446
5966,2140966,16960,860,1268,17029.06,25.71,-1.00,-1.0,2377
5971,2140971,16980,856,1176,17042.19,25.71,-1.00,-1.0,2446
5973,2140973,16936,788,1172,16994.78,25.75,-1.00,-1.0,2367
5976,2140976,16996,752,1156,17051.86,25.71,-1.00,-1.0,2438
5979,2140979,16996,724,1204,17053.97,25.75,-1.00,-1.0,2366
5981,2140981,17064,868,1216,17129.28,25.71,-1.00,-1.0,2360
5984,2140984,16964,840,1316,17035.69,25.71,-1.00,-1.0,2450
5987,2140987,16924,836,1140,16982.94,25.71,-1.00,-1.0,2367
5990,2140990,16996,880,1148,17057.44,25.80,-1.00,-1.0,2439
5992,2140992,16972,800,1224,17034.88,25.61,-1.00,-1.0,2367
5997,2140997,17044,952,1244,17115.83,25.80,-1.00,-1.0,2465
6000,2141000,17068,848,1080,17123.15,25.61,-1.00,-1.0,2380
6003,2141003,17020,848,1088,17075.81,25.75,-1.00,-1.0,2436
6006,2141006,16956,828,1120,17013.11,25.66,-1.00,-1.0,2367
6009,2141009,16968,852,1204,17031.99,25.66,-1.00,-1.0,2448
6011,2141011,16900,836,1196,16962.88,25.75,-1.00,-1.0,2372
6014,2141014,16976,916,1112,17037.02,25.66,-1.00,-1.0,2444
6017,2141017,17036,904,1176,17100.45,25.75,-1.00,-1.0,2368
6019,2141019,16908,880,1084,16965.55,25.66,-1.00,-1.0,2359
6024,2141024,17000,928,1044,17057.29,25.75,-1.00,-1.0,2453
6027,2141027,17060,884,1132,17120.35,25.75,-1.00,-1.0,2379
6030,2141030,17016,812,1076,17069.31,25.75,-1.00,-1.0,2436
6032,2141032,16948,812,1280,17015.65,25.71,-1.00,-1.0,2371
6035,2141035,16980,844,1200,17043.26,25.75,-1.00,-1.0,2440
6038,2141038,16928,832,1184,16989.74,25.75,-1.00,-1.0,2381
6041,2141041,16980,920,1144,17043.34,25.75,-1.00,-1.0,2439
6043,2141043,16960,848,1092,17016.26,25.71,-1.00,-1.0,2371
6048,2141048,17012,836,1176,17073.08,25.71,-1.00,-1.0,2445
6051,2141051,17008,824,1120,17064.74,25.61,-1.00,-1.0,2365
6054,2141054,16964,972,1056,17024.61,25.75,-1.00,-1.0,2443
6057,2141057,17040,824,1096,17095.08,25.71,-1.00,-1.0,2371
6059,2141059,16968,872,1228,17034.71,25.75,-1.00,-1.0,2370
6062,2141062,17032,936,1156,17096.83,25.75,-1.00,-1.0,2444
6065,2141065,16964,824,1232,17028.62,25.75,-1.00,-1.0,2367
6068,2141068,16968,796,1204,17029.28,25.71,-1.00,-1.0,2464
6070,2141070,16980,924,1264,17052.04,25.71,-1.00,-1.0,2366
6075,2141075,16892,968,1156,16959.16,25.75,-1.00,-1.0,2444
6078,2141078,16968,848,1124,17026.32,25.71,-1.00,-1.0,2364
6081,2141081,16944,844,1180,17006.00,25.66,-1.00,-1.0,2443
6083,2141083,17036,856,1076,17091.40,25.61,-1.00,-1.0,2351
6086,2141086,16984,792,1176,17043.08,25.75,-1.00,-1.0,2437
6089,2141089,16976,836,1192,17038.32,25.80,-1.00,-1.0,2365
6092,2141092,17000,760,1148,17055.66,25.66,-1.00,-1.0,2445
6094,2141094,16924,836,1072,16978.51,25.71,-1.00,-1.0,2364
6097,2141097,17004,892,1088,17062.11,25.75,-1.00,-1.0,2359
6102,2141102,17032,824,1068,17085.33,25.66,-1.00,-1.0,2451
6104,2141104,17028,744,1300,17093.75,25.66,-1.00,-1.0,2365
6107,2141107,17016,820,1228,17079.95,25.66,-1.00,-1.0,2446
6110,2141110,17112,848,1180,17173.59,25.66,-1.00,-1.0,2364
6113,2141113,16932,908,1148,16995.15,25.75,-1.00,-1.0,2442
6115,2141115,17008,852,1140,17067.44,25.80,-1.00,-1.0,2364
6118,2141118,16956,808,1160,17014.83,25.75,-1.00,-1.0,2442
6121,2141121,17036,824,1292,17104.78,25.75,-1.00,-1.0,2364
