timestamp_ms,global_ms,accel_x,accel_y,accel_z,accel_mag,temp_c,voltage,soc,loop_us
3,2135003,17096,-112,1248,17141.86,25.05,-1.00,-1.0,2485
9,2135009,17048,4,1152,17086.88,25.14,-1.00,-1.0,2467
12,2135012,17000,-64,1080,17034.39,25.14,-1.00,-1.0,2365
14,2135014,16956,-140,1000,16986.04,25.09,-1.00,-1.0,2360
17,2135017,16952,-124,896,16976.12,25.09,-1.00,-1.0,2432
20,2135020,17128,-4,1152,17166.70,25.14,-1.00,-1.0,2365
23,2135023,17088,-60,1124,17125.03,25.19,-1.00,-1.0,2445
25,2135025,16988,-48,1156,17027.35,25.09,-1.00,-1.0,2359
28,2135028,17000,-100,1084,17034.82,25.00,-1.00,-1.0,2438
31,2135031,17008,-88,1032,17039.51,25.14,-1.00,-1.0,2349
36,2135036,17008,-124,1112,17044.76,25.00,-1.00,-1.0,2454
38,2135038,17076,-96,996,17105.29,25.00,-1.00,-1.0,2361
41,2135041,16956,24,1104,16991.92,25.19,-1.00,-1.0,2361
44,2135044,16952,-32,1128,16989.52,25.05,-1.00,-1.0,2446
46,2135046,17048,-72,1160,17087.57,25.19,-1.00,-1.0,2362
49,2135049,17100,-44,1036,17131.41,25.14,-1.00,-1.0,2440
52,2135052,16956,-76,1056,16989.02,25.09,-1.00,-1.0,2362
55,2135055,17040,-56,1128,17077.39,25.09,-1.00,-1.0,2445
57,2135057,17036,-28,1304,17085.86,25.09,-1.00,-1.0,2363
62,2135062,17060,-36,1172,17100.25,25.09,-1.00,-1.0,2448
65,2135065,16980,-60,1156,17019.41,25.05,-1.00,-1.0,2364
68,2135068,17000,-12,1232,17044.59,25.19,-1.00,-1.0,2362
70,2135070,16904,-120,1140,16942.82,25.09,-1.00,-1.0,2432
73,2135073,17012,12,1076,17046.00,25.19,-1.00,-1.0,2368
76,2135076,17008,12,960,17035.08,25.09,-1.00,-1.0,2417
79,2135079,16948,84,1088,16983.09,25.09,-1.00,-1.0,2368
81,2135081,16976,20,1064,17009.32,25.09,-1.00,-1.0,2432
84,2135084,16968,-136,1264,17015.56,25.09,-1.00,-1.0,2370
89,2135089,17036,-8,1020,17066.51,25.14,-1.00,-1.0,2445
92,2135092,17080,-56,1244,17125.33,25.14,-1.00,-1.0,2357
94,2135094,17064,-124,1220,17108.01,25.19,-1.00,-1.0,2370
97,2135097,17068,-92,1184,17109.27,25.09,-1.00,-1.0,2441
100,2135100,16976,-80,1096,17011.53,25.14,-1.00,-1.0,2375
103,2135103,16992,-4,1048,17024.29,25.09,-1.00,-1.0,2443
105,2135105,16960,108,1200,17002.74,25.14,-1.00,-1.0,2370
108,2135108,16972,-12,1180,17012.97,25.09,-1.00,-1.0,2447
111,2135111,17048,-120,1092,17083.36,25.05,-1.00,-1.0,2374
116,2135116,16944,-132,1288,16993.40,25.05,-1.00,-1.0,2454
118,2135118,17076,-16,916,17100.56,25.05,-1.00,-1.0,2362
121,2135121,17048,36,1068,17081.46,25.14,-1.00,-1.0,2438
124,2135124,17008,-8,1124,17045.10,25.14,-1.00,-1.0,2361
126,2135126,16976,-16,1080,17010.33,25.05,-1.00,-1.0,2363
129,2135129,17004,-56,1176,17044.71,25.19,-1.00,-1.0,2438
132,2135132,17016,-168,1116,17053.38,25.14,-1.00,-1.0,2367
135,2135135,16980,-96,1168,17020.39,25.14,-1.00,-1.0,2444
138,2135138,16912,-8,1036,16943.70,25.09,-1.00,-1.0,2362
143,2135143,17004,-64,1116,17040.70,25.09,-1.00,-1.0,2447
145,2135145,16964,-8,1152,17003.07,25.14,-1.00,-1.0,2363
148,2135148,17012,-32,1172,17052.35,25.09,-1.00,-1.0,2444
151,2135151,16988,28,1072,17021.81,25.05,-1.00,-1.0,2369
153,2135153,17020,-100,1100,17055.80,25.19,-1.00,-1.0,2370
156,2135156,16980,-112,1104,17016.22,25.09,-1.00,-1.0,2441
159,2135159,17112,-132,1084,17146.81,25.05,-1.00,-1.0,2374
162,2135162,16900,-164,1048,16933.26,25.05,-1.00,-1.0,2431
165,2135165,16968,-76,1008,16998.08,25.19,-1.00,-1.0,2369
170,2135170,17028,40,1116,17064.58,25.19,-1.00,-1.0,2449
172,2135172,16936,-56,1140,16974.42,25.09,-1.00,-1.0,2363
175,2135175,17108,-156,1240,17153.59,25.09,-1.00,-1.0,2445
178,2135178,17040,-28,1080,17074.21,25.14,-1.00,-1.0,2369
181,2135181,16984,-68,1024,17014.98,25.09,-1.00,-1.0,2448
183,2135183,16988,12,1140,17026.21,25.09,-1.00,-1.0,2369
186,2135186,16992,-100,1100,17027.86,25.19,-1.00,-1.0,2452
189,2135189,16920,-96,1224,16964.49,25.05,-1.00,-1.0,2370
192,2135192,17068,-96,992,17097.07,25.14,-1.00,-1.0,2360
197,2135197,17032,-12,1128,17069.32,25.09,-1.00,-1.0,2450
199,2135199,17140,-32,1172,17180.05,25.19,-1.00,-1.0,2371
202,2135202,17032,-64,1180,17072.95,25.14,-1.00,-1.0,2447
205,2135205,16952,-40,1112,16988.48,25.09,-1.00,-1.0,2364
208,2135208,16960,-100,1172,17000.74,25.14,-1.00,-1.0,2451
210,2135210,16996,-12,1172,17036.37,25.19,-1.00,-1.0,2364
213,2135213,17096,-24,1136,17133.72,25.14,-1.00,-1.0,2447
216,2135216,17008,-60,1156,17047.35,25.09,-1.00,-1.0,2367
219,2135219,17068,-88,1024,17098.92,25.14,-1.00,-1.0,2361
223,2135223,16940,-124,1104,16976.39,25.09,-1.00,-1.0,2433
226,2135226,17040,-52,1096,17075.29,25.14,-1.00,-1.0,2362
229,2135229,17020,56,1184,17061.22,25.19,-1.00,-1.0,2437
232,2135232,16992,-64,1188,17033.60,25.14,-1.00,-1.0,2365
234,2135234,16976,-88,1260,17022.92,25.09,-1.00,-1.0,2431
237,2135237,17008,-152,1228,17052.95,25.14,-1.00,-1.0,2367
240,2135240,17088,-188,1104,17124.66,25.14,-1.00,-1.0,2416
243,2135243,17092,-68,1152,17130.91,25.14,-1.00,-1.0,2366
247,2135247,17048,-140,1064,17081.74,25.09,-1.00,-1.0,2446
250,2135250,16980,-64,1244,17025.63,25.14,-1.00,-1.0,2349
253,2135253,17048,-44,1108,17084.03,25.09,-1.00,-1.0,2438
256,2135256,17060,-84,1224,17104.06,25.14,-1.00,-1.0,2365
258,2135258,17004,-68,1148,17042.84,25.19,-1.00,-1.0,2356
261,2135261,17036,-40,1052,17068.50,25.09,-1.00,-1.0,2438
264,2135264,17108,-32,1064,17141.08,25.19,-1.00,-1.0,2372
267,2135267,17008,-44,1124,17045.16,25.09,-1.00,-1.0,2437
270,2135270,17000,-132,1112,17036.84,25.00,-1.00,-1.0,2372
275,2135275,16988,-32,1116,17024.65,25.19,-1.00,-1.0,2453
277,2135277,16948,24,1012,16978.21,25.19,-1.00,-1.0,2362
280,2135280,17068,-40,1116,17104.49,25.19,-1.00,-1.0,2437
283,2135283,16996,-4,1096,17031.30,25.09,-1.00,-1.0,2361
285,2135285,16920,-68,948,16946.67,25.09,-1.00,-1.0,2348
288,2135288,16952,-28,1304,17002.10,25.09,-1.00,-1.0,2435
291,2135291,17000,60,1004,17029.73,25.19,-1.00,-1.0,2367
294,2135294,17020,16,1040,17051.75,25.14,-1.00,-1.0,2444
297,2135297,16992,52,1060,17025.11,25.09,-1.00,-1.0,2369
302,2135302,17036,-132,1092,17071.47,25.09,-1.00,-1.0,2455
304,2135304,17072,-84,1184,17113.21,25.09,-1.00,-1.0,2362
307,2135307,17016,60,1148,17054.79,25.09,-1.00,-1.0,2440
310,2135310,17060,-96,1060,17093.17,25.09,-1.00,-1.0,2365
313,2135313,17052,-32,1164,17091.71,25.09,-1.00,-1.0,2445
315,2135315,17000,-72,1104,17035.96,25.09,-1.00,-1.0,2362
318,2135318,16960,-12,1096,16995.38,25.09,-1.00,-1.0,2361
321,2135321,17000,-32,1168,17040.11,25.05,-1.00,-1.0,2439
324,2135324,16960,-52,1164,16999.98,25.14,-1.00,-1.0,2370
329,2135329,17044,12,1244,17089.34,25.14,-1.00,-1.0,2454
331,2135331,16940,48,1184,16981.39,25.09,-1.00,-1.0,2363
334,2135334,17032,-68,1100,17067.62,25.14,-1.00,-1.0,2438
337,2135337,16960,-136,1084,16995.15,25.09,-1.00,-1.0,2362
340,2135340,16940,-160,1156,16980.15,25.24,-1.00,-1.0,2445
342,2135342,17004,-64,1124,17041.23,25.19,-1.00,-1.0,2363
345,2135345,16956,-112,1164,16996.28,25.14,-1.00,-1.0,2437
348,2135348,16940,-68,1184,16981.46,25.19,-1.00,-1.0,2350
351,2135351,17056,-12,988,17084.60,25.14,-1.00,-1.0,2363
356,2135356,16976,-36,1208,17018.96,25.14,-1.00,-1.0,2455
358,2135358,16988,-72,1004,17017.79,25.14,-1.00,-1.0,2362
361,2135361,17072,-56,936,17097.73,25.05,-1.00,-1.0,2441
364,2135364,17048,-128,1120,17085.23,25.05,-1.00,-1.0,2362
367,2135367,17032,-60,1172,17072.38,25.14,-1.00,-1.0,2448
369,2135369,17048,-84,1076,17082.13,25.14,-1.00,-1.0,2362
372,2135372,17068,-72,1216,17111.41,25.14,-1.00,-1.0,2440
375,2135375,17044,-104,1140,17082.40,25.09,-1.00,-1.0,2362
380,2135380,16964,-36,1156,17003.38,25.09,-1.00,-1.0,2447
383,2135383,17176,20,1124,17212.75,25.19,-1.00,-1.0,2366
385,2135385,17028,60,1088,17062.83,25.14,-1.00,-1.0,2357
388,2135388,17032,-160,984,17061.15,25.24,-1.00,-1.0,2438
391,2135391,17008,-76,1128,17045.53,25.09,-1.00,-1.0,2366
393,2135393,16896,-24,1224,16940.29,25.14,-1.00,-1.0,2431
396,2135396,17088,-48,1140,17126.05,25.09,-1.00,-1.0,2367
399,2135399,16944,48,1156,16983.46,25.14,-1.00,-1.0,2431
402,2135402,17112,12,1036,17143.34,25.09,-1.00,-1.0,2368
407,2135407,17124,-176,1000,17154.08,25.05,-1.00,-1.0,2446
410,2135410,17024,-64,1044,17056.10,25.14,-1.00,-1.0,2368
412,2135412,17080,36,1028,17110.95,25.19,-1.00,-1.0,2365
415,2135415,16960,-44,1196,17002.18,25.09,-1.00,-1.0,2446
418,2135418,17024,-188,1136,17062.90,25.09,-1.00,-1.0,2369
421,2135421,17084,-100,1036,17115.68,25.09,-1.00,-1.0,2449
423,2135423,17040,-88,1156,17079.39,25.09,-1.00,-1.0,2366
426,2135426,17052,-72,1076,17086.07,25.09,-1.00,-1.0,2448
429,2135429,16964,8,984,16992.52,25.09,-1.00,-1.0,2362
434,2135434,16936,-100,1248,16982.21,25.05,-1.00,-1.0,2446
436,2135436,16924,-88,1080,16958.65,25.14,-1.00,-1.0,2363
439,2135439,16968,-180,912,16993.45,25.14,-1.00,-1.0,2438
442,2135442,16968,-160,948,16995.21,25.09,-1.00,-1.0,2364
444,2135444,17000,108,1020,17030.91,25.14,-1.00,-1.0,2362
447,2135447,17020,40,1012,17050.11,25.14,-1.00,-1.0,2432
450,2135450,17048,-140,1060,17081.50,25.05,-1.00,-1.0,2353
453,2135453,17064,-80,1128,17101.43,25.05,-1.00,-1.0,2436
456,2135456,17028,-16,1180,17068.84,25.14,-1.00,-1.0,2352
461,2135461,16980,20,1236,17024.94,25.14,-1.00,-1.0,2447
463,2135463,17056,-124,1044,17088.37,25.05,-1.00,-1.0,2365
466,2135466,16964,-100,1000,16993.74,25.14,-1.00,-1.0,2438
469,2135469,17012,-64,1052,17044.62,25.14,-1.00,-1.0,2363
472,2135472,17020,40,1012,17050.11,25.05,-1.00,-1.0,2439
474,2135474,16936,52,1116,16972.81,25.24,-1.00,-1.0,2364
477,2135477,16968,-112,992,16997.34,25.14,-1.00,-1.0,2360
480,2135480,17060,-84,1008,17089.96,25.09,-1.00,-1.0,2436
483,2135483,16948,-24,1112,16984.46,25.14,-1.00,-1.0,2365
488,2135488,17080,4,1164,17119.62,25.05,-1.00,-1.0,2447
491,2135491,16984,-100,1184,17025.51,25.14,-1.00,-1.0,2367
493,2135493,16956,-76,1060,16989.27,25.14,-1.00,-1.0,2431
496,2135496,17100,-64,1236,17144.73,25.14,-1.00,-1.0,2354
499,2135499,17048,-32,1068,17081.45,25.05,-1.00,-1.0,2438
502,2135502,16944,-76,1052,16976.80,25.09,-1.00,-1.0,2369
504,2135504,16936,-184,1092,16972.17,25.14,-1.00,-1.0,2362
507,2135507,16908,-68,1184,16949.54,25.09,-1.00,-1.0,2431
510,2135510,16992,-164,1008,17022.66,25.09,-1.00,-1.0,2372
515,2135515,16900,-20,1084,16934.74,25.14,-1.00,-1.0,2446
518,2135518,17016,12,1168,17056.04,25.14,-1.00,-1.0,2365
520,2135520,17072,-36,1132,17109.53,25.14,-1.00,-1.0,2431
523,2135523,16892,8,1044,16924.23,25.14,-1.00,-1.0,2367
526,2135526,17080,-8,1112,17116.16,25.05,-1.00,-1.0,2430
529,2135529,16948,-180,1040,16980.83,25.14,-1.00,-1.0,2368
531,2135531,16948,-100,1212,16991.58,25.14,-1.00,-1.0,2418
534,2135534,16988,-28,1108,17024.12,25.14,-1.00,-1.0,2382
537,2135537,17032,8,1068,17065.45,25.09,-1.00,-1.0,2362
542,2135542,17104,-152,1156,17143.70,25.19,-1.00,-1.0,2446
545,2135545,17048,-108,1060,17081.26,25.14,-1.00,-1.0,2366
547,2135547,16936,4,1104,16971.95,25.14,-1.00,-1.0,2432
550,2135550,17080,-76,1284,17128.36,25.24,-1.00,-1.0,2366
553,2135553,17076,-72,1140,17114.16,25.09,-1.00,-1.0,2431
556,2135556,17032,-68,1116,17068.66,25.05,-1.00,-1.0,2368
558,2135558,17008,-52,1184,17049.24,25.14,-1.00,-1.0,2430
561,2135561,17048,-124,1148,17087.06,25.05,-1.00,-1.0,2374
566,2135566,17036,-68,1092,17071.10,25.14,-1.00,-1.0,2462
569,2135569,16908,-4,1056,16940.95,25.14,-1.00,-1.0,2370
571,2135571,17100,-52,1228,17144.12,25.05,-1.00,-1.0,2369
574,2135574,17048,72,1076,17082.07,25.09,-1.00,-1.0,2431
577,2135577,17140,-8,1168,17179.75,25.14,-1.00,-1.0,2370
580,2135580,16980,-88,960,17007.34,25.14,-1.00,-1.0,2442
582,2135582,16972,-124,1112,17008.84,25.14,-1.00,-1.0,2375
585,2135585,17076,-160,1092,17111.63,25.05,-1.00,-1.0,2441
588,2135588,17088,-68,1148,17126.65,25.24,-1.00,-1.0,2375
593,2135593,16992,36,1092,17027.09,25.14,-1.00,-1.0,2446
596,2135596,17040,-168,1108,17076.81,25.19,-1.00,-1.0,2372
599,2135599,17036,-132,1108,17072.50,25.14,-1.00,-1.0,2431
601,2135601,17120,-48,1184,17160.96,25.09,-1.00,-1.0,2369
604,2135604,17040,-100,1004,17069.85,25.14,-1.00,-1.0,2362
607,2135607,17008,-100,1040,17040.06,25.14,-1.00,-1.0,2446
609,2135609,17040,-48,1168,17080.05,25.14,-1.00,-1.0,2363
612,2135612,17016,28,1076,17050.01,25.09,-1.00,-1.0,2444
615,2135615,16928,-84,956,16955.18,25.24,-1.00,-1.0,2375
620,2135620,16992,-136,1276,17040.38,25.14,-1.00,-1.0,2446
623,2135623,17048,-40,1164,17087.74,25.24,-1.00,-1.0,2369
626,2135626,17048,-96,956,17075.05,25.14,-1.00,-1.0,2431
628,2135628,16960,56,1124,16997.30,25.24,-1.00,-1.0,2366
631,2135631,17036,4,1040,17067.71,25.14,-1.00,-1.0,2363
634,2135634,17020,-76,1076,17054.15,25.19,-1.00,-1.0,2449
636,2135636,16992,-128,1064,17025.76,25.05,-1.00,-1.0,2368
639,2135639,16976,-124,1128,17013.89,25.19,-1.00,-1.0,2437
642,2135642,17000,-64,1216,17043.55,25.19,-1.00,-1.0,2368
647,2135647,17016,-140,1192,17058.27,25.00,-1.00,-1.0,2446
650,2135650,16884,-20,996,16913.36,25.19,-1.00,-1.0,2366
652,2135652,17000,-140,1172,17040.93,25.09,-1.00,-1.0,2431
655,2135655,17012,8,1252,17058.01,25.28,-1.00,-1.0,2370
658,2135658,17024,-32,1184,17065.15,25.09,-1.00,-1.0,2437
661,2135661,17076,-76,1016,17106.37,25.09,-1.00,-1.0,2367
663,2135663,16916,-164,972,16944.70,25.09,-1.00,-1.0,2356
666,2135666,17060,-96,1192,17101.86,25.05,-1.00,-1.0,2437
669,2135669,17044,-40,1084,17078.48,25.09,-1.00,-1.0,2361
674,2135674,17036,-16,1068,17069.45,25.09,-1.00,-1.0,2448
677,2135677,16852,-96,1140,16890.79,25.19,-1.00,-1.0,2366
679,2135679,16940,-20,1220,16983.89,25.14,-1.00,-1.0,2432
682,2135682,17032,-64,1148,17070.77,25.09,-1.00,-1.0,2356
685,2135685,16916,-48,1176,16956.90,25.09,-1.00,-1.0,2439
688,2135688,17064,-8,1244,17109.29,25.09,-1.00,-1.0,2364
690,2135690,16956,-148,1200,16999.05,25.19,-1.00,-1.0,2445
693,2135693,17044,-76,900,17067.91,25.19,-1.00,-1.0,2362
696,2135696,16956,-64,1056,16988.97,25.19,-1.00,-1.0,2362
701,2135701,17096,-24,1200,17138.08,25.09,-1.00,-1.0,2452
704,2135704,16960,-108,1016,16990.75,25.09,-1.00,-1.0,2363
707,2135707,17080,-88,1132,17117.70,25.14,-1.00,-1.0,2451
709,2135709,16956,16,1032,16987.38,25.09,-1.00,-1.0,2369
712,2135712,16996,20,1088,17030.80,25.09,-1.00,-1.0,2444
715,2135715,17076,24,1168,17115.92,25.19,-1.00,-1.0,2365
718,2135718,16896,-16,1240,16941.45,25.09,-1.00,-1.0,2450
720,2135720,16976,-236,1164,17017.50,25.09,-1.00,-1.0,2370
725,2135725,17000,-32,1164,17039.83,25.09,-1.00,-1.0,2447
728,2135728,17160,-76,1136,17197.73,25.09,-1.00,-1.0,2362
731,2135731,17024,-20,1048,17056.24,25.09,-1.00,-1.0,2364
733,2135733,17036,0,1296,17085.22,25.14,-1.00,-1.0,2437
736,2135736,16976,-56,1340,17028.90,25.19,-1.00,-1.0,2381
739,2135739,16932,-56,1184,16973.44,25.14,-1.00,-1.0,2442
742,2135742,16964,-100,1060,16997.38,25.19,-1.00,-1.0,2366
744,2135744,16984,-100,1108,17020.40,25.14,-1.00,-1.0,2445
747,2135747,17000,-52,1100,17035.63,25.14,-1.00,-1.0,2362
752,2135752,17036,36,1064,17069.23,25.05,-1.00,-1.0,2445
755,2135755,17012,-64,1096,17047.39,25.14,-1.00,-1.0,2364
757,2135757,16976,-60,1204,17018.75,25.14,-1.00,-1.0,2361
760,2135760,16964,-188,1192,17006.87,25.14,-1.00,-1.0,2433
763,2135763,17036,-20,1024,17066.76,25.14,-1.00,-1.0,2368
766,2135766,16972,-12,1120,17008.92,25.09,-1.00,-1.0,2442
768,2135768,17072,4,1124,17108.96,25.14,-1.00,-1.0,2361
771,2135771,16976,-48,1136,17014.04,25.09,-1.00,-1.0,2444
774,2135774,17024,-128,1176,17065.05,25.14,-1.00,-1.0,2362
779,2135779,17020,-200,1164,17060.93,25.05,-1.00,-1.0,2445
782,2135782,17064,0,1164,17103.65,25.05,-1.00,-1.0,2362
785,2135785,16960,-132,1136,16998.52,25.19,-1.00,-1.0,2444
787,2135787,17048,-104,1072,17081.99,25.24,-1.00,-1.0,2365
790,2135790,16996,-32,1036,17027.58,25.19,-1.00,-1.0,2362
793,2135793,16980,0,1056,17012.80,25.09,-1.00,-1.0,2439
795,2135795,17020,-128,1008,17050.30,25.09,-1.00,-1.0,2362
798,2135798,17024,-84,1028,17055.22,25.14,-1.00,-1.0,2450
801,2135801,16996,-40,1080,17030.33,25.19,-1.00,-1.0,2363
806,2135806,17008,-176,1124,17046.01,25.19,-1.00,-1.0,2448
809,2135809,17056,-72,1024,17086.86,25.09,-1.00,-1.0,2362
812,2135812,16952,-100,1056,16985.15,25.09,-1.00,-1.0,2445
814,2135814,17028,8,1140,17066.12,25.09,-1.00,-1.0,2362
817,2135817,17020,-104,1128,17057.65,25.19,-1.00,-1.0,2438
820,2135820,17004,-88,1008,17034.08,25.14,-1.00,-1.0,2361
822,2135822,16952,-16,1048,16984.37,25.19,-1.00,-1.0,2348
825,2135825,17160,-84,1100,17195.43,25.14,-1.00,-1.0,2441
828,2135828,17112,-40,1112,17148.14,25.14,-1.00,-1.0,2374
833,2135833,17048,-52,1136,17085.89,25.19,-1.00,-1.0,2446
836,2135836,16964,-104,1100,16999.95,25.14,-1.00,-1.0,2361
839,2135839,16976,-8,1044,17008.07,25.09,-1.00,-1.0,2437
842,2135842,16988,28,1024,17018.86,25.19,-1.00,-1.0,2366
844,2135844,16964,-84,1308,17014.56,25.09,-1.00,-1.0,2430
847,2135847,17036,48,1052,17068.52,25.14,-1.00,-1.0,2367
850,2135850,17032,-128,1156,17071.66,25.28,-1.00,-1.0,2418
853,2135853,17036,-128,1224,17080.39,25.14,-1.00,-1.0,2368
855,2135855,17000,-16,1104,17035.82,25.14,-1.00,-1.0,2368
860,2135860,17004,20,1120,17040.86,25.14,-1.00,-1.0,2454
863,2135863,17068,-28,1188,17109.32,25.05,-1.00,-1.0,2365
866,2135866,16968,-104,1104,17004.20,25.19,-1.00,-1.0,2448
868,2135868,16932,-80,1192,16974.09,25.14,-1.00,-1.0,2369
871,2135871,16940,-160,1120,16977.74,25.24,-1.00,-1.0,2443
874,2135874,17000,40,1336,17052.46,25.24,-1.00,-1.0,2364
877,2135877,17020,-108,1240,17065.45,25.09,-1.00,-1.0,2450
879,2135879,17052,36,1244,17097.36,25.14,-1.00,-1.0,2368
884,2135884,17040,-88,1116,17076.73,25.24,-1.00,-1.0,2457
887,2135887,17036,-156,1068,17070.16,25.05,-1.00,-1.0,2364
889,2135889,17064,-68,1120,17100.85,25.19,-1.00,-1.0,2361
892,2135892,16980,-32,1136,17017.99,25.09,-1.00,-1.0,2432
895,2135895,17072,-4,1116,17108.44,25.09,-1.00,-1.0,2366
898,2135898,17064,-76,1112,17100.36,25.19,-1.00,-1.0,2437
900,2135900,17000,-24,984,17028.47,25.09,-1.00,-1.0,2368
903,2135903,17012,-136,1148,17051.23,25.00,-1.00,-1.0,2438
906,2135906,17024,-20,1108,17060.03,25.19,-1.00,-1.0,2368
911,2135911,17112,-32,1164,17151.57,25.19,-1.00,-1.0,2455
914,2135914,16996,-28,1160,17035.56,25.14,-1.00,-1.0,2366
917,2135917,17020,-76,1140,17058.30,25.09,-1.00,-1.0,2434
920,2135920,16912,-52,1048,16944.52,25.14,-1.00,-1.0,2361
922,2135922,17056,-200,1224,17101.03,25.14,-1.00,-1.0,2368
925,2135925,17004,76,1152,17043.15,25.19,-1.00,-1.0,2441
928,2135928,16984,-36,1180,17024.98,25.09,-1.00,-1.0,2367
930,2135930,17060,-16,1000,17089.29,25.14,-1.00,-1.0,2438
933,2135933,17036,-108,1252,17082.29,25.09,-1.00,-1.0,2348
938,2135938,16928,-8,1104,16963.96,25.09,-1.00,-1.0,2454
941,2135941,16964,-32,1052,16996.62,25.14,-1.00,-1.0,2366
944,2135944,17000,-36,1276,17047.86,25.09,-1.00,-1.0,2442
947,2135947,16976,28,1084,17010.60,25.24,-1.00,-1.0,2360
949,2135949,17000,-16,1000,17029.39,25.19,-1.00,-1.0,2363
952,2135952,17088,-60,1196,17129.91,25.09,-1.00,-1.0,2438
955,2135955,17108,-124,1144,17146.65,25.09,-1.00,-1.0,2366
957,2135957,16976,-56,968,17003.67,25.14,-1.00,-1.0,2426
960,2135960,17112,12,1196,17153.75,25.14,-1.00,-1.0,2361
965,2135965,17000,0,1068,17033.52,25.09,-1.00,-1.0,2453
968,2135968,17012,0,1100,17047.53,25.19,-1.00,-1.0,2368
971,2135971,17020,-88,1124,17057.30,25.09,-1.00,-1.0,2442
974,2135974,17088,0,1348,17141.09,25.19,-1.00,-1.0,2366
976,2135976,16892,32,1068,16925.76,25.19,-1.00,-1.0,2445
979,2135979,16956,-52,1224,17000.20,25.09,-1.00,-1.0,2375
982,2135982,16880,-112,948,16906.97,25.09,-1.00,-1.0,2361
984,2135984,16952,-84,1212,16995.48,25.14,-1.00,-1.0,2434
987,2135987,17004,-76,1076,17038.18,25.05,-1.00,-1.0,2366
992,2135992,16964,-56,964,16991.46,25.14,-1.00,-1.0,2446
995,2135995,17104,-52,928,17129.24,25.09,-1.00,-1.0,2362
998,2135998,16984,4,988,17012.71,25.14,-1.00,-1.0,2438
1001,2136001,17056,-100,1192,17097.89,25.19,-1.00,-1.0,2369
1003,2136003,16992,-24,896,17015.62,25.14,-1.00,-1.0,2432
1006,2136006,17128,68,1108,17163.94,25.19,-1.00,-1.0,2372
1009,2136009,16992,-8,956,17018.87,25.05,-1.00,-1.0,2361
1012,2136012,17000,4,984,17028.46,25.09,-1.00,-1.0,2432
1014,2136014,16932,-72,1068,16965.80,25.14,-1.00,-1.0,2353
1019,2136019,17100,-36,1144,17138.26,25.05,-1.00,-1.0,2446
1022,2136022,17004,48,1088,17038.84,25.05,-1.00,-1.0,2360
1025,2136025,16956,-96,1164,16996.18,25.05,-1.00,-1.0,2439
1028,2136028,17012,44,1024,17042.85,25.05,-1.00,-1.0,2369
1030,2136030,17044,-144,1176,17085.13,25.14,-1.00,-1.0,2431
1033,2136033,17012,-32,1096,17047.30,25.14,-1.00,-1.0,2367
1036,2136036,17044,-36,1208,17086.79,25.24,-1.00,-1.0,2439
1039,2136039,16964,-36,1080,16998.38,25.14,-1.00,-1.0,2363
1041,2136041,17004,-64,1132,17041.76,25.19,-1.00,-1.0,2363
1046,2136046,16980,-52,1112,17016.45,25.09,-1.00,-1.0,2445
1049,2136049,16860,-8,1204,16902.94,25.14,-1.00,-1.0,2361
1052,2136052,17040,36,1088,17074.74,25.14,-1.00,-1.0,2437
1055,2136055,17020,-28,1148,17058.70,25.14,-1.00,-1.0,2364
1057,2136057,17016,-88,1100,17051.74,25.09,-1.00,-1.0,2433
1060,2136060,16948,-56,1016,16978.52,25.14,-1.00,-1.0,2366
1063,2136063,16928,-64,1180,16969.20,25.24,-1.00,-1.0,2432
1066,2136066,17092,48,1216,17135.27,25.14,-1.00,-1.0,2368
1070,2136070,16956,-104,1108,16992.48,25.14,-1.00,-1.0,2446
1073,2136073,17088,-76,1064,17121.26,25.14,-1.00,-1.0,2361
1076,2136076,17052,-144,1196,17094.50,25.05,-1.00,-1.0,2424
1079,2136079,17044,-28,1184,17085.10,25.05,-1.00,-1.0,2365
1081,2136081,17020,88,1116,17056.78,25.19,-1.00,-1.0,2355
1084,2136084,17044,80,1124,17081.21,25.14,-1.00,-1.0,2440
1087,2136087,17032,-96,1156,17071.46,25.14,-1.00,-1.0,2366
1090,2136090,17068,-80,1232,17112.59,25.05,-1.00,-1.0,2446
1093,2136093,16960,-64,1216,17003.66,25.14,-1.00,-1.0,2371
1097,2136097,17032,0,1164,17071.73,25.14,-1.00,-1.0,2456
1100,2136100,17000,24,1016,17030.35,25.24,-1.00,-1.0,2375
1103,2136103,17084,-144,1228,17128.68,25.14,-1.00,-1.0,2441
1106,2136106,16968,-80,1048,17000.52,25.14,-1.00,-1.0,2366
1108,2136108,17088,-56,1100,17123.46,25.14,-1.00,-1.0,2450
1111,2136111,17020,44,1180,17060.91,25.24,-1.00,-1.0,2368
1114,2136114,17112,-24,1176,17152.38,25.24,-1.00,-1.0,2425
1117,2136117,17012,-128,1096,17047.75,25.14,-1.00,-1.0,2364
1120,2136120,17024,-128,1016,17054.77,25.14,-1.00,-1.0,2367
1125,2136125,17024,-48,1180,17064.91,25.14,-1.00,-1.0,2446
1127,2136127,17016,36,1152,17054.99,25.14,-1.00,-1.0,2364
1130,2136130,16940,12,1044,16972.14,25.14,-1.00,-1.0,2452
1133,2136133,17004,-84,1112,17040.53,25.14,-1.00,-1.0,2355
1136,2136136,16948,0,1024,16978.91,25.24,-1.00,-1.0,2439
1138,2136138,17016,-52,1040,17047.83,25.09,-1.00,-1.0,2361
1141,2136141,17044,-60,1064,17077.28,25.14,-1.00,-1.0,2437
1144,2136144,17016,-120,1148,17055.10,25.19,-1.00,-1.0,2373
1149,2136149,16980,-20,1052,17012.57,25.00,-1.00,-1.0,2446
1151,2136151,17024,-136,1220,17068.20,25.19,-1.00,-1.0,2361
1154,2136154,17076,-56,1144,17114.37,25.09,-1.00,-1.0,2438
1157,2136157,17088,-132,1084,17122.86,25.05,-1.00,-1.0,2363
1159,2136159,17048,-32,1132,17085.57,25.19,-1.00,-1.0,2361
1162,2136162,17060,-68,1020,17090.60,25.24,-1.00,-1.0,2434
1165,2136165,16944,-104,1088,16979.21,25.09,-1.00,-1.0,2366
1168,2136168,17008,-88,1056,17040.98,25.14,-1.00,-1.0,2443
1171,2136171,17016,4,1312,17066.51,25.09,-1.00,-1.0,2363
1176,2136176,16980,36,1204,17022.67,25.09,-1.00,-1.0,2449
1178,2136178,16940,-40,1088,16974.95,25.19,-1.00,-1.0,2371
1181,2136181,16904,-8,1108,16940.28,25.19,-1.00,-1.0,2445
1184,2136184,16984,-72,1040,17015.96,25.14,-1.00,-1.0,2362
1187,2136187,17036,4,1076,17069.95,25.19,-1.00,-1.0,2452
1189,2136189,17044,-116,1212,17087.43,25.24,-1.00,-1.0,2373
1192,2136192,16924,-120,1096,16959.88,25.19,-1.00,-1.0,2364
1195,2136195,17024,-72,1240,17069.25,25.14,-1.00,-1.0,2465
1198,2136198,16980,-4,1224,17024.06,25.09,-1.00,-1.0,2361
1203,2136203,17064,-4,1004,17093.51,25.09,-1.00,-1.0,2445
1205,2136205,17048,-28,1132,17085.56,25.19,-1.00,-1.0,2362
1208,2136208,17052,-112,992,17081.20,25.19,-1.00,-1.0,2436
1211,2136211,17036,-132,1192,17078.16,25.19,-1.00,-1.0,2363
1214,2136214,16984,-40,1156,17023.34,25.09,-1.00,-1.0,2435
1216,2136216,16940,92,1052,16972.88,25.19,-1.00,-1.0,2373
1219,2136219,17016,48,904,17040.06,25.19,-1.00,-1.0,2431
1222,2136222,16992,-132,1104,17028.34,25.24,-1.00,-1.0,2367
1227,2136227,17004,-96,1092,17039.30,25.14,-1.00,-1.0,2455
1230,2136230,17012,-76,1168,17052.22,25.19,-1.00,-1.0,2366
1232,2136232,17060,12,1024,17090.71,25.19,-1.00,-1.0,2363
1235,2136235,17028,40,1104,17063.80,25.14,-1.00,-1.0,2434
1238,2136238,17096,-52,904,17119.96,25.19,-1.00,-1.0,2367
1240,2136240,17064,-168,956,17091.58,25.19,-1.00,-1.0,2432
1243,2136243,17040,-36,1144,17078.40,25.19,-1.00,-1.0,2373
1246,2136246,16992,-24,1040,17023.81,25.19,-1.00,-1.0,2436
1249,2136249,17052,8,1152,17090.87,25.14,-1.00,-1.0,2358
1254,2136254,16992,-16,1192,17033.77,25.19,-1.00,-1.0,2453
1257,2136257,17004,-132,1108,17040.57,25.09,-1.00,-1.0,2365
1259,2136259,16964,-112,1124,17001.56,25.19,-1.00,-1.0,2429
1262,2136262,17000,-124,1140,17038.63,25.19,-1.00,-1.0,2375
1265,2136265,16956,52,1176,16996.81,25.19,-1.00,-1.0,2439
1268,2136268,16960,-28,1220,17003.85,25.19,-1.00,-1.0,2367
1270,2136270,16932,-156,1164,16972.68,25.14,-1.00,-1.0,2361
1273,2136273,17008,-172,1036,17040.39,25.14,-1.00,-1.0,2430
1276,2136276,16956,28,1052,16988.63,25.14,-1.00,-1.0,2373
1281,2136281,16916,16,1284,16964.67,25.19,-1.00,-1.0,2444
1283,2136283,17004,16,1180,17044.90,25.09,-1.00,-1.0,2361
1286,2136286,16948,-68,1080,16982.51,25.09,-1.00,-1.0,2436
1289,2136289,17004,-156,992,17033.63,25.14,-1.00,-1.0,2374
1292,2136292,16968,-52,1116,17004.74,25.09,-1.00,-1.0,2429
1294,2136294,16924,-56,1044,16956.26,25.14,-1.00,-1.0,2366
1297,2136297,17044,12,1080,17078.19,25.09,-1.00,-1.0,2430
1300,2136300,17076,-40,1124,17113.00,25.14,-1.00,-1.0,2367
1303,2136303,16884,-104,932,16910.02,25.14,-1.00,-1.0,2362
1308,2136308,17044,-16,1128,17081.29,25.09,-1.00,-1.0,2445
1310,2136310,16980,108,1004,17010.00,25.19,-1.00,-1.0,2361
1313,2136313,16968,20,1224,17012.10,25.19,-1.00,-1.0,2434
1316,2136316,17152,-112,1168,17192.09,25.14,-1.00,-1.0,2373
1319,2136319,17000,-84,984,17028.66,25.19,-1.00,-1.0,2430
1321,2136321,17048,8,1128,17085.28,25.09,-1.00,-1.0,2366
1324,2136324,16968,-164,1068,17002.37,25.09,-1.00,-1.0,2430
1327,2136327,16964,-112,1164,17004.26,25.19,-1.00,-1.0,2371
1332,2136332,17052,-96,1112,17088.49,25.19,-1.00,-1.0,2453
1334,2136334,17096,-124,1168,17136.30,25.19,-1.00,-1.0,2361
1337,2136337,17024,-112,1032,17055.62,25.00,-1.00,-1.0,2439
1340,2136340,17048,-80,1140,17086.26,25.09,-1.00,-1.0,2360
1342,2136342,17076,-64,1136,17113.87,25.19,-1.00,-1.0,2360
1345,2136345,17008,-52,1148,17046.78,25.14,-1.00,-1.0,2445
1348,2136348,16996,-36,1100,17031.60,25.09,-1.00,-1.0,2366
1351,2136351,17044,-68,1128,17081.42,25.05,-1.00,-1.0,2440
1354,2136354,16956,-16,1180,16997.02,25.14,-1.00,-1.0,2366
1359,2136359,16980,-80,1168,17020.31,25.09,-1.00,-1.0,2448
1361,2136361,16896,-164,1132,16934.67,25.19,-1.00,-1.0,2347
1364,2136364,17044,-16,1176,17084.53,25.09,-1.00,-1.0,2438
1367,2136367,17120,-108,1088,17154.88,25.19,-1.00,-1.0,2360
1370,2136370,17116,-8,1076,17149.79,25.09,-1.00,-1.0,2444
1372,2136372,17040,-156,1072,17074.40,25.19,-1.00,-1.0,2361
1375,2136375,17008,-140,1116,17045.15,25.19,-1.00,-1.0,2436
1378,2136378,16944,-84,1120,16981.18,25.05,-1.00,-1.0,2349
1381,2136381,17000,-60,1072,17033.87,25.24,-1.00,-1.0,2362
1386,2136386,17056,-68,1144,17094.46,25.24,-1.00,-1.0,2452
1388,2136388,16960,-20,1096,16995.39,25.09,-1.00,-1.0,2361
1391,2136391,16912,-168,1132,16950.68,25.14,-1.00,-1.0,2444
1394,2136394,17000,-68,1220,17043.86,25.19,-1.00,-1.0,2360
1397,2136397,17112,-132,1096,17147.57,25.14,-1.00,-1.0,2442
1399,2136399,17000,-88,1048,17032.50,25.09,-1.00,-1.0,2348
1402,2136402,17080,-76,1032,17111.32,25.19,-1.00,-1.0,2439
1405,2136405,17140,24,916,17164.48,25.09,-1.00,-1.0,2360
1410,2136410,17012,-84,984,17040.64,25.09,-1.00,-1.0,2448
1413,2136413,17028,-76,1128,17065.49,25.05,-1.00,-1.0,2367
1415,2136415,16988,-12,1076,17022.05,25.19,-1.00,-1.0,2429
1418,2136418,17028,-104,1196,17070.27,25.05,-1.00,-1.0,2368
1421,2136421,16920,-28,1028,16951.22,25.19,-1.00,-1.0,2360
1423,2136423,17016,24,1156,17055.24,25.09,-1.00,-1.0,2431
1426,2136426,17168,12,1084,17202.19,25.09,-1.00,-1.0,2366
1429,2136429,16932,-28,1200,16974.49,25.28,-1.00,-1.0,2429
1432,2136432,17048,-108,1188,17089.68,25.19,-1.00,-1.0,2366
1437,2136437,16992,-44,1120,17028.93,25.14,-1.00,-1.0,2434
1440,2136440,17004,-76,1212,17047.31,25.14,-1.00,-1.0,2366
1442,2136442,16996,-128,1116,17033.08,25.09,-1.00,-1.0,2446
1445,2136445,17016,16,1236,17060.84,25.14,-1.00,-1.0,2367
1448,2136448,17144,24,1028,17174.81,25.09,-1.00,-1.0,2430
1451,2136451,17016,-44,1136,17053.94,25.14,-1.00,-1.0,2361
1453,2136453,16956,-100,1052,16988.90,25.28,-1.00,-1.0,2450
1456,2136456,17024,-188,1216,17068.41,25.14,-1.00,-1.0,2360
1459,2136459,17060,40,1080,17094.20,25.09,-1.00,-1.0,2348
1464,2136464,16980,-68,1100,17015.73,25.19,-1.00,-1.0,2448
1467,2136467,17048,-24,1152,17086.89,25.14,-1.00,-1.0,2370
1469,2136469,17028,0,1112,17064.27,25.09,-1.00,-1.0,2437
1472,2136472,17060,-36,1036,17091.46,25.09,-1.00,-1.0,2376
1475,2136475,16968,-48,1188,17009.61,25.19,-1.00,-1.0,2438
1478,2136478,16952,-188,1040,16984.91,25.14,-1.00,-1.0,2365
1480,2136480,16980,0,1160,17019.58,25.09,-1.00,-1.0,2444
1483,2136483,17052,-140,1204,17095.03,25.05,-1.00,-1.0,2367
1488,2136488,16984,-44,1116,17020.68,25.19,-1.00,-1.0,2434
1491,2136491,17020,-40,1080,17054.28,25.05,-1.00,-1.0,2369
1493,2136493,17016,-160,1120,17053.57,25.09,-1.00,-1.0,2444
1496,2136496,16988,-28,1176,17028.68,25.19,-1.00,-1.0,2376
1499,2136499,16936,-40,1128,16973.57,25.19,-1.00,-1.0,2359
1501,2136501,17004,12,1224,17048.00,25.14,-1.00,-1.0,2430
1504,2136504,17032,-24,1056,17064.72,25.09,-1.00,-1.0,2353
1507,2136507,17088,-80,1076,17122.03,25.14,-1.00,-1.0,2435
1510,2136510,17088,-68,1096,17123.25,25.05,-1.00,-1.0,2366
1515,2136515,16936,-80,1156,16975.60,25.24,-1.00,-1.0,2448
1517,2136517,17036,-60,1100,17071.58,25.05,-1.00,-1.0,2361
1520,2136520,17060,-48,1156,17099.19,25.05,-1.00,-1.0,2437
1523,2136523,17016,96,1096,17051.53,25.14,-1.00,-1.0,2360
1526,2136526,17012,16,1120,17048.84,25.14,-1.00,-1.0,2443
1528,2136528,17068,36,1124,17105.01,25.14,-1.00,-1.0,2361
1531,2136531,17016,-100,940,17042.24,25.14,-1.00,-1.0,2360
1534,2136534,17052,-104,1060,17085.23,25.09,-1.00,-1.0,2451
1537,2136537,17124,60,1140,17162.01,25.24,-1.00,-1.0,2360
1542,2136542,16944,-16,1176,16984.77,25.33,-1.00,-1.0,2447
1545,2136545,16932,-152,1000,16962.19,25.14,-1.00,-1.0,2365
1547,2136547,17044,-4,1008,17073.78,25.24,-1.00,-1.0,2416
1550,2136550,16920,-100,1132,16958.12,25.14,-1.00,-1.0,2365
1553,2136553,17032,8,956,17058.81,25.24,-1.00,-1.0,2430
1556,2136556,17048,4,1080,17082.18,25.05,-1.00,-1.0,2365
1558,2136558,16960,-36,1060,16993.13,25.14,-1.00,-1.0,2429
1561,2136561,16992,24,1024,17022.84,25.19,-1.00,-1.0,2368
1566,2136566,17132,-152,1004,17162.07,25.09,-1.00,-1.0,2454
1569,2136569,17096,-20,1272,17143.27,25.09,-1.00,-1.0,2364
1571,2136571,16960,28,1052,16992.62,25.05,-1.00,-1.0,2364
1574,2136574,17092,68,1084,17126.47,25.14,-1.00,-1.0,2429
1577,2136577,17028,-88,1052,17060.69,25.05,-1.00,-1.0,2366
1580,2136580,16980,-124,972,17008.25,25.14,-1.00,-1.0,2440
1582,2136582,16984,-164,1140,17023.01,25.14,-1.00,-1.0,2373
1585,2136585,16956,-84,1060,16989.31,25.14,-1.00,-1.0,2437
1588,2136588,17000,-64,1076,17034.14,25.09,-1.00,-1.0,2372
1593,2136593,16936,-12,1104,16971.95,25.19,-1.00,-1.0,2444
1596,2136596,16988,-92,1124,17025.39,25.09,-1.00,-1.0,2372
1599,2136599,16964,84,1268,17011.53,25.09,-1.00,-1.0,2430
1601,2136601,17004,-68,1096,17039.42,25.09,-1.00,-1.0,2367
1604,2136604,17044,-48,1020,17074.56,25.19,-1.00,-1.0,2430
1607,2136607,17044,-108,1176,17084.86,25.19,-1.00,-1.0,2365
1609,2136609,16944,-80,1108,16980.38,25.09,-1.00,-1.0,2359
1612,2136612,17000,-12,1172,17040.36,25.14,-1.00,-1.0,2443
1615,2136615,16944,-20,1196,16986.17,25.14,-1.00,-1.0,2376
1620,2136620,17036,-128,1104,17072.21,25.19,-1.00,-1.0,2444
1623,2136623,17056,8,1184,17097.05,25.19,-1.00,-1.0,2369
1626,2136626,17028,-16,1012,17058.05,25.24,-1.00,-1.0,2444
1628,2136628,17004,-120,1120,17041.27,25.19,-1.00,-1.0,2362
1631,2136631,17036,-92,1172,17076.51,25.14,-1.00,-1.0,2452
1634,2136634,16980,-112,1148,17019.13,25.19,-1.00,-1.0,2367
1637,2136637,16928,12,1184,16969.36,25.14,-1.00,-1.0,2436
1639,2136639,17040,88,1092,17075.18,25.19,-1.00,-1.0,2364
1642,2136642,17036,32,1164,17075.75,25.14,-1.00,-1.0,2368
1647,2136647,16976,-92,1020,17006.87,25.24,-1.00,-1.0,2459
1650,2136650,16900,-156,1060,16933.93,25.05,-1.00,-1.0,2368
1653,2136653,17020,24,1172,17060.32,25.14,-1.00,-1.0,2448
1655,2136655,17044,-32,1096,17079.23,25.14,-1.00,-1.0,2361
1658,2136658,17012,-68,1144,17050.56,25.14,-1.00,-1.0,2444
1661,2136661,16952,-88,1112,16988.66,25.14,-1.00,-1.0,2367
1664,2136664,17052,4,1048,17084.17,25.14,-1.00,-1.0,2449
1666,2136666,16968,-28,1168,17008.18,25.14,-1.00,-1.0,2362
1671,2136671,17072,-24,1088,17106.65,25.09,-1.00,-1.0,2446
1674,2136674,17076,-64,1268,17123.13,25.19,-1.00,-1.0,2361
1677,2136677,16992,-80,1192,17033.95,25.09,-1.00,-1.0,2435
1680,2136680,17060,-64,1040,17091.79,25.19,-1.00,-1.0,2364
1682,2136682,17000,-28,1056,17032.79,25.09,-1.00,-1.0,2358
1685,2136685,16928,40,1120,16965.06,25.05,-1.00,-1.0,2436
1688,2136688,16956,-80,1152,16995.28,25.09,-1.00,-1.0,2365
1690,2136690,17036,12,1080,17070.20,25.19,-1.00,-1.0,2429
1693,2136693,17008,12,1004,17037.61,25.09,-1.00,-1.0,2366
1698,2136698,17072,-16,1228,17116.12,25.24,-1.00,-1.0,2459
1701,2136701,16936,-40,1152,16975.18,25.24,-1.00,-1.0,2374
1704,2136704,17008,-208,1092,17044.29,25.14,-1.00,-1.0,2442
1706,2136706,17000,-152,1136,17038.59,25.14,-1.00,-1.0,2368
1709,2136709,16960,-80,1084,16994.79,25.14,-1.00,-1.0,2445
1712,2136712,17084,20,1252,17129.83,25.24,-1.00,-1.0,2376
1715,2136715,17044,-52,1140,17082.16,25.24,-1.00,-1.0,2444
1717,2136717,17044,-60,1200,17086.30,25.14,-1.00,-1.0,2366
1720,2136720,17056,-104,1172,17096.54,25.09,-1.00,-1.0,2354
1725,2136725,17052,32,1180,17092.81,25.05,-1.00,-1.0,2445
1728,2136728,17164,48,1140,17201.88,25.19,-1.00,-1.0,2366
1730,2136730,16988,-76,1168,17028.28,25.14,-1.00,-1.0,2429
1733,2136733,16884,-196,1152,16924.39,25.09,-1.00,-1.0,2366
1736,2136736,16996,-60,1104,17031.92,25.14,-1.00,-1.0,2430
1739,2136739,16896,-56,1308,16946.65,25.19,-1.00,-1.0,2365
1741,2136741,17056,24,1192,17097.62,25.19,-1.00,-1.0,2429
1744,2136744,16980,-52,1100,17015.67,25.19,-1.00,-1.0,2352
1749,2136749,17008,-172,1012,17038.95,25.09,-1.00,-1.0,2453
1752,2136752,16964,-76,1028,16995.29,25.19,-1.00,-1.0,2362
1755,2136755,17048,20,1208,17090.76,25.19,-1.00,-1.0,2436
1757,2136757,17028,8,1148,17066.66,25.09,-1.00,-1.0,2373
1760,2136760,17020,-32,964,17047.31,25.19,-1.00,-1.0,2354
1763,2136763,17052,-184,968,17080.45,25.14,-1.00,-1.0,2443
1765,2136765,16992,-40,1016,17022.39,25.19,-1.00,-1.0,2361
1768,2136768,17024,0,1032,17055.25,25.14,-1.00,-1.0,2439
1771,2136771,17104,-4,1136,17141.68,25.14,-1.00,-1.0,2360
1776,2136776,17072,-56,992,17100.89,25.14,-1.00,-1.0,2445
1779,2136779,16952,-140,1016,16983.00,25.19,-1.00,-1.0,2363
1782,2136782,17080,-80,1192,17121.73,25.14,-1.00,-1.0,2433
1784,2136784,16932,-16,1092,16967.18,25.19,-1.00,-1.0,2368
1787,2136787,16944,-76,1128,16981.68,25.14,-1.00,-1.0,2436
1790,2136790,17000,-36,1080,17034.31,25.19,-1.00,-1.0,2348
1792,2136792,17012,-40,1100,17047.57,25.14,-1.00,-1.0,2361
1795,2136795,17020,-72,1096,17055.40,25.09,-1.00,-1.0,2447
1798,2136798,17072,-64,1260,17118.55,25.14,-1.00,-1.0,2367
1803,2136803,17032,24,1168,17072.02,25.14,-1.00,-1.0,2444
1806,2136806,16944,-24,1120,16980.99,25.14,-1.00,-1.0,2359
1809,2136809,17048,-12,1128,17085.28,25.14,-1.00,-1.0,2443
1811,2136811,16928,-24,1012,16958.24,25.14,-1.00,-1.0,2361
1814,2136814,17012,-108,1168,17052.39,25.14,-1.00,-1.0,2423
1817,2136817,17080,-40,1176,17120.48,25.19,-1.00,-1.0,2362
1820,2136820,17048,28,964,17075.26,25.14,-1.00,-1.0,2430
1822,2136822,17008,-76,1128,17045.53,25.19,-1.00,-1.0,2373
1827,2136827,17040,-52,980,17068.24,25.09,-1.00,-1.0,2455
1830,2136830,17036,-156,1084,17071.17,25.09,-1.00,-1.0,2368
1833,2136833,17072,-28,1164,17111.66,25.14,-1.00,-1.0,2359
1835,2136835,17012,12,972,17039.75,25.14,-1.00,-1.0,2430
1838,2136838,17016,-4,1036,17047.51,25.19,-1.00,-1.0,2368
1841,2136841,17000,24,1148,17038.73,25.14,-1.00,-1.0,2436
1844,2136844,17120,-20,1136,17157.66,25.09,-1.00,-1.0,2366
1846,2136846,16960,-156,1080,16995.07,25.24,-1.00,-1.0,2443
1849,2136849,17100,8,1200,17142.05,25.19,-1.00,-1.0,2363
1854,2136854,17068,-96,1200,17110.40,25.19,-1.00,-1.0,2447
1857,2136857,16988,-72,1116,17024.77,25.09,-1.00,-1.0,2360
1860,2136860,16964,-60,1216,17007.63,25.09,-1.00,-1.0,2445
1862,2136862,16944,-140,1104,16980.51,25.19,-1.00,-1.0,2362
1865,2136865,17020,-164,1144,17059.19,25.19,-1.00,-1.0,2368
1868,2136868,17004,-68,1232,17048.71,25.14,-1.00,-1.0,2444
1870,2136870,16992,-136,1100,17028.11,25.09,-1.00,-1.0,2360
1873,2136873,16900,-132,1144,16939.19,25.14,-1.00,-1.0,2424
1876,2136876,17024,-48,1052,17056.54,25.14,-1.00,-1.0,2368
1881,2136881,16972,-40,1076,17006.12,25.09,-1.00,-1.0,2445
1884,2136884,17008,-76,1156,17047.41,25.09,-1.00,-1.0,2360
1887,2136887,17076,-128,972,17104.12,25.19,-1.00,-1.0,2444
1889,2136889,16932,-160,1140,16971.09,25.19,-1.00,-1.0,2360
1892,2136892,17088,-20,1280,17135.88,25.19,-1.00,-1.0,2438
1895,2136895,17088,-48,1188,17129.31,25.09,-1.00,-1.0,2362
1898,2136898,16920,-28,1084,16954.71,25.19,-1.00,-1.0,2438
1900,2136900,16940,4,1112,16976.46,25.09,-1.00,-1.0,2361
1903,2136903,17104,-136,1160,17143.83,25.14,-1.00,-1.0,2368
1908,2136908,17060,-44,1176,17100.54,25.14,-1.00,-1.0,2444
1911,2136911,16964,-16,1112,17000.41,25.14,-1.00,-1.0,2361
1914,2136914,17000,-72,1084,17034.68,25.19,-1.00,-1.0,2434
1916,2136916,17028,-76,1076,17062.13,25.14,-1.00,-1.0,2363
1919,2136919,16876,-104,1192,16918.37,25.14,-1.00,-1.0,2436
1922,2136922,17056,-24,1084,17090.43,25.05,-1.00,-1.0,2347
1925,2136925,17032,-16,1192,17073.67,25.14,-1.00,-1.0,2445
1927,2136927,17060,68,1016,17090.36,25.05,-1.00,-1.0,2363
1932,2136932,17076,-128,1128,17113.70,25.14,-1.00,-1.0,2444
1935,2136935,17092,0,1172,17132.13,25.14,-1.00,-1.0,2362
1938,2136938,16924,8,904,16948.13,25.19,-1.00,-1.0,2435
1940,2136940,17124,-40,1104,17159.60,25.24,-1.00,-1.0,2363
1943,2136943,17024,-188,1196,17067.00,25.19,-1.00,-1.0,2361
1946,2136946,17036,-184,1032,17068.22,25.09,-1.00,-1.0,2441
1948,2136948,17076,-148,1168,17116.54,25.19,-1.00,-1.0,2360
1951,2136951,17060,48,1228,17104.21,25.09,-1.00,-1.0,2436
1954,2136954,16996,0,1136,17033.92,25.09,-1.00,-1.0,2361
1959,2136959,16984,-72,1168,17024.27,25.28,-1.00,-1.0,2447
1962,2136962,17036,-168,1216,17080.17,25.14,-1.00,-1.0,2363
1965,2136965,16944,40,1132,16981.82,25.19,-1.00,-1.0,2436
1968,2136968,17016,-44,1068,17049.54,25.14,-1.00,-1.0,2367
1970,2136970,17012,12,1024,17042.79,25.19,-1.00,-1.0,2437
1973,2136973,16980,-56,1048,17012.40,25.14,-1.00,-1.0,2374
1976,2136976,17000,-56,1036,17031.63,25.19,-1.00,-1.0,2438
1979,2136979,16976,-88,1112,17012.61,25.24,-1.00,-1.0,2368
1981,2136981,17052,-24,1204,17094.47,25.09,-1.00,-1.0,2360
1986,2136986,16984,76,908,17008.42,25.19,-1.00,-1.0,2445
1989,2136989,16956,-84,1084,16990.82,25.14,-1.00,-1.0,2363
1992,2136992,17016,-64,952,17042.73,25.19,-1.00,-1.0,2435
1995,2136995,16944,-24,1052,16976.64,25.19,-1.00,-1.0,2365
1997,2136997,16992,-28,1192,17033.78,25.09,-1.00,-1.0,2433
2000,2137000,17076,56,1168,17115.99,25.05,-1.00,-1.0,2369
2003,2137003,17108,-60,1088,17142.67,25.19,-1.00,-1.0,2438
2006,2137006,17036,-252,1108,17073.85,25.09,-1.00,-1.0,2366
2011,2137011,17012,-40,1032,17043.32,25.14,-1.00,-1.0,2445
2013,2137013,17048,-96,1136,17086.08,25.14,-1.00,-1.0,2362
2016,2137016,17036,-64,1156,17075.29,25.19,-1.00,-1.0,2361
2019,2137019,17000,-148,1116,17037.23,25.19,-1.00,-1.0,2444
2021,2137021,17052,-172,912,17077.24,25.19,-1.00,-1.0,2375
2024,2137024,16948,0,1096,16983.40,25.28,-1.00,-1.0,2436
2027,2137027,17064,32,1056,17096.67,25.09,-1.00,-1.0,2368
2030,2137030,17008,28,864,17029.96,25.19,-1.00,-1.0,2443
2032,2137032,17000,-32,1076,17034.05,25.14,-1.00,-1.0,2366
2037,2137037,16940,32,1120,16977.01,25.24,-1.00,-1.0,2432
2040,2137040,17028,-76,1140,17066.29,25.14,-1.00,-1.0,2360
2043,2137043,17084,-108,1004,17113.82,25.14,-1.00,-1.0,2436
2046,2137046,16960,-32,1144,16998.57,25.14,-1.00,-1.0,2365
2048,2137048,16996,-100,1048,17028.57,25.14,-1.00,-1.0,2429
2051,2137051,17052,-148,1164,17092.32,25.09,-1.00,-1.0,2366
2054,2137054,17004,32,1080,17038.29,25.14,-1.00,-1.0,2355
2057,2137057,16988,-112,1000,17017.78,25.19,-1.00,-1.0,2449
2059,2137059,17096,-156,1168,17136.56,25.14,-1.00,-1.0,2360
2064,2137064,17024,-56,952,17050.69,25.14,-1.00,-1.0,2445
2067,2137067,16960,-48,1068,16993.66,25.14,-1.00,-1.0,2359
2070,2137070,17020,-60,1024,17050.88,25.14,-1.00,-1.0,2436
2073,2137073,16976,16,1212,17019.22,25.14,-1.00,-1.0,2365
2075,2137075,16936,-60,1192,16978.00,25.14,-1.00,-1.0,2416
2078,2137078,16984,28,992,17012.97,25.14,-1.00,-1.0,2365
2081,2137081,17104,-28,1188,17145.23,25.14,-1.00,-1.0,2430
2084,2137084,17080,-60,1088,17114.72,25.19,-1.00,-1.0,2365
2087,2137087,17096,-48,1300,17145.42,25.19,-1.00,-1.0,2356
2092,2137092,17052,-60,1164,17091.79,25.14,-1.00,-1.0,2444
2094,2137094,17088,-136,1144,17126.79,25.14,-1.00,-1.0,2360
2097,2137097,17144,-40,1136,17181.64,25.14,-1.00,-1.0,2436
2100,2137100,16976,-176,1204,17019.55,25.24,-1.00,-1.0,2360
2103,2137103,17096,16,1112,17132.13,25.14,-1.00,-1.0,2434
2105,2137105,16952,-64,1196,16994.26,25.24,-1.00,-1.0,2364
2108,2137108,17008,-76,1076,17042.17,25.14,-1.00,-1.0,2437
2111,2137111,17028,96,1064,17061.48,25.19,-1.00,-1.0,2347
2116,2137116,17012,-24,1116,17048.58,25.05,-1.00,-1.0,2446
2118,2137118,17000,-172,1124,17037.99,25.14,-1.00,-1.0,2364
2121,2137121,17040,-32,1036,17071.49,25.14,-1.00,-1.0,2437
2124,2137124,17028,-188,1104,17064.79,25.24,-1.00,-1.0,2360
2127,2137127,16940,-40,1252,16986.25,25.14,-1.00,-1.0,2445
2129,2137129,17008,-8,1012,17038.08,25.14,-1.00,-1.0,2371
2132,2137132,17104,60,976,17131.93,25.14,-1.00,-1.0,2361
2135,2137135,17060,48,1020,17090.53,25.14,-1.00,-1.0,2433
2138,2137138,17060,-96,1248,17105.86,25.24,-1.00,-1.0,2362
2142,2137142,17024,0,1048,17056.23,25.14,-1.00,-1.0,2452
2145,2137145,17036,112,1240,17081.44,25.14,-1.00,-1.0,2368
2148,2137148,16984,68,1012,17014.26,25.14,-1.00,-1.0,2437
2151,2137151,17000,-72,1088,17034.93,25.14,-1.00,-1.0,2367
2153,2137153,17072,-176,1080,17107.03,25.14,-1.00,-1.0,2443
2156,2137156,16960,-16,1028,16991.13,25.14,-1.00,-1.0,2375
2159,2137159,17036,-36,1128,17073.34,25.05,-1.00,-1.0,2439
2162,2137162,16952,36,1156,16991.41,25.24,-1.00,-1.0,2361
2165,2137165,17052,-16,1152,17090.88,25.14,-1.00,-1.0,2361
2170,2137170,17064,-224,1080,17099.61,25.14,-1.00,-1.0,2451
2172,2137172,16948,-44,1164,16987.98,25.14,-1.00,-1.0,2365
2175,2137175,17048,60,1096,17083.30,25.14,-1.00,-1.0,2446
2178,2137178,17004,-8,1140,17042.17,25.14,-1.00,-1.0,2366
2181,2137181,17060,-28,1080,17094.17,25.14,-1.00,-1.0,2448
2183,2137183,16988,-48,1184,17029.28,25.09,-1.00,-1.0,2364
2186,2137186,16940,-20,1076,16974.15,25.14,-1.00,-1.0,2450
2189,2137189,16988,-64,1228,17032.45,25.09,-1.00,-1.0,2369
2194,2137194,16892,-100,1192,16934.30,25.09,-1.00,-1.0,2453
2196,2137196,17060,-112,1088,17095.03,25.09,-1.00,-1.0,2360
2199,2137199,16992,-108,1192,17034.10,25.09,-1.00,-1.0,2440
2202,2137202,17044,-16,1120,17080.77,25.14,-1.00,-1.0,2364
2204,2137204,16912,-88,980,16940.60,25.09,-1.00,-1.0,2360
2207,2137207,17000,-176,1128,17038.29,25.14,-1.00,-1.0,2431
2210,2137210,16972,12,1140,17010.25,25.09,-1.00,-1.0,2369
2213,2137213,17056,-64,1104,17091.81,25.24,-1.00,-1.0,2445
2216,2137216,17072,12,1096,17107.15,25.09,-1.00,-1.0,2363
2221,2137221,17084,-40,1188,17125.30,25.05,-1.00,-1.0,2447
2223,2137223,16984,-56,868,17006.26,25.05,-1.00,-1.0,2369
2226,2137226,17044,32,1224,17087.92,25.19,-1.00,-1.0,2444
2229,2137229,17008,-168,1140,17046.99,25.14,-1.00,-1.0,2363
2232,2137232,16980,-172,1236,17025.79,25.09,-1.00,-1.0,2445
2234,2137234,17008,-180,1268,17056.15,25.14,-1.00,-1.0,2369
2237,2137237,17008,-136,1156,17047.78,25.19,-1.00,-1.0,2446
2240,2137240,17036,36,1200,17078.25,25.14,-1.00,-1.0,2363
2243,2137243,16980,112,1184,17021.60,25.09,-1.00,-1.0,2360
2248,2137248,17008,-148,1128,17046.01,25.19,-1.00,-1.0,2447
2250,2137250,16952,-188,1024,16983.94,25.19,-1.00,-1.0,2363
2253,2137253,16996,-64,1132,17033.78,25.09,-1.00,-1.0,2436
2256,2137256,17016,-56,956,17042.93,25.14,-1.00,-1.0,2361
2259,2137259,16964,8,1052,16996.59,25.09,-1.00,-1.0,2443
2261,2137261,16976,-80,1208,17019.11,25.09,-1.00,-1.0,2369
2264,2137264,17020,-228,1100,17057.03,25.19,-1.00,-1.0,2436
2267,2137267,17036,-152,980,17064.84,25.14,-1.00,-1.0,2361
2272,2137272,16940,68,1060,16973.27,25.14,-1.00,-1.0,2452
2274,2137274,17020,-124,1028,17051.47,25.14,-1.00,-1.0,2360
2277,2137277,17004,-120,1128,17041.79,25.14,-1.00,-1.0,2453
2280,2137280,17044,-184,1104,17080.71,25.14,-1.00,-1.0,2360
2283,2137283,17068,-68,1104,17103.80,25.14,-1.00,-1.0,2363
2285,2137285,17056,76,1132,17093.69,25.19,-1.00,-1.0,2440
2288,2137288,17100,-8,1124,17136.90,25.09,-1.00,-1.0,2381
2291,2137291,16976,-260,1108,17014.11,25.24,-1.00,-1.0,2438
2294,2137294,16964,-172,1068,16998.46,25.05,-1.00,-1.0,2366
2299,2137299,16944,4,1148,16982.85,25.14,-1.00,-1.0,2452
2301,2137301,17060,76,1076,17094.07,25.19,-1.00,-1.0,2361
2304,2137304,17020,-84,1140,17058.34,25.14,-1.00,-1.0,2438
2307,2137307,17000,-188,1032,17032.33,25.19,-1.00,-1.0,2359
2310,2137310,16908,-172,956,16935.88,25.14,-1.00,-1.0,2436
2312,2137312,17016,-200,1096,17052.43,25.09,-1.00,-1.0,2364
2315,2137315,17052,16,1216,17095.31,25.24,-1.00,-1.0,2436
2318,2137318,16944,-12,1164,16983.94,25.19,-1.00,-1.0,2361
2321,2137321,16948,-244,1092,16984.90,25.05,-1.00,-1.0,2368
2326,2137326,17064,-36,1204,17106.46,25.19,-1.00,-1.0,2451
2328,2137328,16992,-8,1160,17031.55,25.19,-1.00,-1.0,2371
2331,2137331,16984,24,1100,17019.60,25.09,-1.00,-1.0,2447
2334,2137334,17020,-40,1224,17064.00,25.14,-1.00,-1.0,2368
2337,2137337,17000,-124,1160,17039.98,25.19,-1.00,-1.0,2446
2339,2137339,16972,-208,1212,17016.49,25.19,-1.00,-1.0,2364
2342,2137342,16952,32,1200,16994.45,25.19,-1.00,-1.0,2446
2345,2137345,17036,44,956,17062.86,25.24,-1.00,-1.0,2368
2350,2137350,16980,-224,1116,17018.11,25.19,-1.00,-1.0,2451
2352,2137352,16984,-128,1240,17029.69,25.09,-1.00,-1.0,2362
2355,2137355,17052,-108,1244,17097.66,25.19,-1.00,-1.0,2361
2358,2137358,16924,-52,1172,16964.61,25.24,-1.00,-1.0,2429
2360,2137360,17068,0,1092,17102.90,25.19,-1.00,-1.0,2373
2363,2137363,17080,-112,1064,17113.47,25.14,-1.00,-1.0,2430
2366,2137366,16928,-232,1032,16961.02,25.19,-1.00,-1.0,2369
2369,2137369,16944,-152,1140,16982.99,25.14,-1.00,-1.0,2432
2372,2137372,16988,-40,1208,17030.94,25.19,-1.00,-1.0,2351
2377,2137377,17112,-60,1084,17146.40,25.19,-1.00,-1.0,2452
2379,2137379,16960,-72,1212,17003.40,25.19,-1.00,-1.0,2361
2382,2137382,17000,-204,1208,17044.09,25.19,-1.00,-1.0,2450
2385,2137385,16972,-48,1188,17013.60,25.19,-1.00,-1.0,2360
2388,2137388,17104,-8,1204,17146.33,25.09,-1.00,-1.0,2443
2390,2137390,17064,-40,1020,17094.50,25.28,-1.00,-1.0,2361
2393,2137393,17012,-4,1184,17053.15,25.09,-1.00,-1.0,2367
2396,2137396,17004,-136,1016,17034.87,25.24,-1.00,-1.0,2435
2399,2137399,16952,-20,1084,16986.63,25.14,-1.00,-1.0,2351
2404,2137404,17088,-8,1052,17120.35,25.19,-1.00,-1.0,2455
2407,2137407,16908,-152,1052,16941.38,25.19,-1.00,-1.0,2362
2409,2137409,17028,-228,1044,17061.50,25.24,-1.00,-1.0,2444
2412,2137412,16940,-112,1112,16976.83,25.09,-1.00,-1.0,2368
2415,2137415,17044,36,1104,17079.76,25.14,-1.00,-1.0,2443
2418,2137418,16984,-64,1112,17020.48,25.09,-1.00,-1.0,2361
2420,2137420,17032,-32,1248,17077.69,25.05,-1.00,-1.0,2450
2423,2137423,16924,-124,1148,16963.34,25.19,-1.00,-1.0,2360
2428,2137428,16996,-176,1168,17037.00,25.19,-1.00,-1.0,2446
2431,2137431,17000,-84,1240,17045.37,25.24,-1.00,-1.0,2365
2433,2137433,16908,-32,1180,16949.16,25.09,-1.00,-1.0,2430
2436,2137436,17048,-48,1184,17089.13,25.19,-1.00,-1.0,2365
2439,2137439,16992,-76,1084,17026.71,25.19,-1.00,-1.0,2357
2442,2137442,16968,-92,1132,17005.97,25.19,-1.00,-1.0,2436
2444,2137444,16924,-124,1204,16967.23,25.19,-1.00,-1.0,2361
2447,2137447,17080,-60,972,17107.74,25.19,-1.00,-1.0,2435
2450,2137450,16888,-52,1292,16937.43,25.14,-1.00,-1.0,2366
2455,2137455,16900,-88,1204,16943.06,25.14,-1.00,-1.0,2448
2458,2137458,17060,-148,1152,17099.49,25.14,-1.00,-1.0,2363
2460,2137460,16980,-112,1192,17022.16,25.14,-1.00,-1.0,2436
2463,2137463,17084,-12,1084,17118.36,25.14,-1.00,-1.0,2367
2466,2137466,17080,-136,1024,17111.21,25.24,-1.00,-1.0,2438
2469,2137469,17020,-76,1224,17064.12,25.14,-1.00,-1.0,2370
2471,2137471,16956,-8,1144,16994.55,25.19,-1.00,-1.0,2457
2474,2137474,17068,24,1176,17108.48,25.09,-1.00,-1.0,2350
2477,2137477,17104,-72,948,17130.40,25.09,-1.00,-1.0,2360
2482,2137482,16940,-116,1012,16970.60,25.19,-1.00,-1.0,2445
2485,2137485,17016,-72,1164,17055.92,25.14,-1.00,-1.0,2365
2487,2137487,17056,-24,1176,17096.51,25.19,-1.00,-1.0,2429
2490,2137490,17032,-100,1172,17072.57,25.19,-1.00,-1.0,2365
2493,2137493,17008,-128,1052,17040.98,25.28,-1.00,-1.0,2429
2496,2137496,17036,-64,1068,17069.56,25.14,-1.00,-1.0,2368
2498,2137498,17036,-24,1080,17070.22,25.19,-1.00,-1.0,2429
2501,2137501,16948,44,1124,16985.29,25.14,-1.00,-1.0,2368
2506,2137506,17036,-176,992,17065.77,25.14,-1.00,-1.0,2445
2509,2137509,17068,-16,988,17096.58,25.19,-1.00,-1.0,2361
2512,2137512,17068,-48,1064,17101.20,25.14,-1.00,-1.0,2446
2514,2137514,16912,-12,1084,16946.71,25.19,-1.00,-1.0,2360
2517,2137517,16932,-40,1060,16965.20,25.14,-1.00,-1.0,2368
2520,2137520,17000,-132,1044,17032.54,25.24,-1.00,-1.0,2446
2523,2137523,16976,-132,1076,17010.58,25.14,-1.00,-1.0,2360
2525,2137525,17088,-92,1128,17125.44,25.14,-1.00,-1.0,2452
2528,2137528,17108,4,1112,17144.10,25.14,-1.00,-1.0,2360
2534,2137534,17060,-88,1224,17104.08,25.14,-1.00,-1.0,2445
2536,2137536,17056,-60,1060,17089.01,25.14,-1.00,-1.0,2362
2539,2137539,16992,20,972,17019.79,25.14,-1.00,-1.0,2435
2542,2137542,17028,-16,1088,17062.73,25.14,-1.00,-1.0,2372
2545,2137545,16948,-140,1088,16983.46,25.24,-1.00,-1.0,2430
2547,2137547,16912,-160,1036,16944.46,25.14,-1.00,-1.0,2368
2550,2137550,17056,-112,1200,17098.53,25.14,-1.00,-1.0,2362
2553,2137553,16968,-112,1144,17006.89,25.14,-1.00,-1.0,2449
2555,2137555,17036,-88,1216,17079.57,25.14,-1.00,-1.0,2363
2560,2137560,16980,-8,1108,17016.11,25.19,-1.00,-1.0,2458
2563,2137563,16996,-120,1188,17037.89,25.24,-1.00,-1.0,2367
2566,2137566,17068,12,1116,17104.45,25.14,-1.00,-1.0,2447
2568,2137568,17024,-52,1004,17053.66,25.14,-1.00,-1.0,2363
2571,2137571,17036,-40,1120,17072.82,25.09,-1.00,-1.0,2450
2574,2137574,16924,-68,1180,16965.22,25.14,-1.00,-1.0,2366
2577,2137577,17072,-136,1088,17107.17,25.14,-1.00,-1.0,2448
2579,2137579,17024,32,1024,17054.80,25.14,-1.00,-1.0,2366
2584,2137584,16988,-64,1212,17031.30,25.14,-1.00,-1.0,2447
2587,2137587,16988,12,1128,17025.41,25.14,-1.00,-1.0,2360
2590,2137590,17052,-248,1148,17092.40,25.05,-1.00,-1.0,2360
2592,2137592,16900,-152,1176,16941.55,25.19,-1.00,-1.0,2445
2595,2137595,16996,-176,1156,17036.18,25.24,-1.00,-1.0,2366
2598,2137598,17004,8,1040,17035.78,25.28,-1.00,-1.0,2443
2600,2137600,17008,64,1204,17050.68,25.14,-1.00,-1.0,2360
2603,2137603,17016,-212,892,17040.68,25.09,-1.00,-1.0,2440
2606,2137606,17012,-212,1072,17047.06,25.09,-1.00,-1.0,2376
2611,2137611,17004,36,1148,17042.75,25.19,-1.00,-1.0,2444
2614,2137614,16976,128,1300,17026.18,25.05,-1.00,-1.0,2371
2617,2137617,16988,12,1056,17020.79,25.14,-1.00,-1.0,2430
2619,2137619,16992,-44,1148,17030.79,25.14,-1.00,-1.0,2366
2622,2137622,17036,-116,1028,17067.38,25.19,-1.00,-1.0,2429
2625,2137625,17004,-20,1024,17034.82,25.14,-1.00,-1.0,2365
2627,2137627,16932,-8,1228,16976.47,25.19,-1.00,-1.0,2356
2630,2137630,17064,-20,1212,17107.00,25.14,-1.00,-1.0,2435
2633,2137633,17004,-156,1000,17034.09,25.19,-1.00,-1.0,2368
2638,2137638,16920,-28,1104,16956.00,25.09,-1.00,-1.0,2444
2641,2137641,17108,-12,1052,17140.32,25.19,-1.00,-1.0,2366
2644,2137644,16984,-72,1056,17016.95,25.19,-1.00,-1.0,2431
2646,2137646,16976,-224,1004,17007.14,25.09,-1.00,-1.0,2367
2649,2137649,16932,-276,1012,16964.46,25.09,-1.00,-1.0,2429
2652,2137652,16988,144,1040,17020.41,25.14,-1.00,-1.0,2365
2654,2137654,17052,212,1220,17096.90,25.14,-1.00,-1.0,2430
2657,2137657,16980,120,1156,17019.73,25.14,-1.00,-1.0,2352
2662,2137662,16984,-164,904,17008.83,25.14,-1.00,-1.0,2450
2665,2137665,17044,-192,988,17073.69,25.14,-1.00,-1.0,2346
2667,2137667,16940,-100,1172,16980.79,25.14,-1.00,-1.0,2359
2670,2137670,17116,20,1088,17150.56,25.14,-1.00,-1.0,2430
2673,2137673,16988,72,968,17015.71,25.24,-1.00,-1.0,2366
2676,2137676,17004,-96,1160,17043.79,25.14,-1.00,-1.0,2435
2678,2137678,17104,-128,1152,17143.23,25.14,-1.00,-1.0,2368
2681,2137681,17088,-88,1164,17127.82,25.14,-1.00,-1.0,2422
2684,2137684,16924,4,1024,16954.95,25.24,-1.00,-1.0,2361
2689,2137689,17008,44,1068,17041.56,25.14,-1.00,-1.0,2458
2692,2137692,17004,-32,1104,17039.83,25.19,-1.00,-1.0,2363
2695,2137695,17028,-56,1020,17058.61,25.24,-1.00,-1.0,2449
2697,2137697,17096,88,1048,17128.32,25.14,-1.00,-1.0,2372
2700,2137700,17048,32,1188,17089.37,25.05,-1.00,-1.0,2431
2703,2137703,16948,56,1104,16984.01,25.19,-1.00,-1.0,2368
2705,2137705,16956,-112,1016,16986.78,25.24,-1.00,-1.0,2367
2708,2137708,16992,-88,1176,17032.87,25.19,-1.00,-1.0,2433
2711,2137711,16972,32,1344,17025.16,25.05,-1.00,-1.0,2366
2716,2137716,17056,64,1124,17093.12,25.14,-1.00,-1.0,2451
2719,2137719,16988,-32,1200,17030.36,25.14,-1.00,-1.0,2360
2722,2137722,16976,-24,1020,17006.63,25.14,-1.00,-1.0,2450
2724,2137724,17044,-96,1040,17075.97,25.14,-1.00,-1.0,2371
2727,2137727,17068,-64,1220,17111.67,25.24,-1.00,-1.0,2442
2730,2137730,17100,-96,1104,17135.87,25.14,-1.00,-1.0,2349
2733,2137733,17040,32,1148,17078.66,25.14,-1.00,-1.0,2448
2735,2137735,16984,-140,1212,17027.77,25.05,-1.00,-1.0,2363
2738,2137738,17020,-172,1008,17050.69,25.09,-1.00,-1.0,2360
2743,2137743,17052,20,1156,17091.15,25.19,-1.00,-1.0,2444
2746,2137746,16980,-12,1112,17016.38,25.09,-1.00,-1.0,2364
2748,2137748,17012,-140,1148,17051.27,25.09,-1.00,-1.0,2430
2751,2137751,17036,-140,1112,17072.83,25.19,-1.00,-1.0,2353
2754,2137754,16996,-48,1040,17027.86,25.09,-1.00,-1.0,2429
2757,2137757,17100,8,1052,17132.33,25.19,-1.00,-1.0,2364
2759,2137759,16952,92,1084,16986.87,25.19,-1.00,-1.0,2430
2762,2137762,16888,-88,1144,16926.93,25.19,-1.00,-1.0,2368
2767,2137767,16956,-192,1224,17001.21,25.19,-1.00,-1.0,2444
2770,2137770,17004,-68,1064,17037.39,25.09,-1.00,-1.0,2370
2772,2137772,16988,12,956,17014.88,25.14,-1.00,-1.0,2430
2775,2137775,16996,16,1052,17028.53,25.09,-1.00,-1.0,2354
2778,2137778,17076,-16,1220,17119.53,25.14,-1.00,-1.0,2364
2781,2137781,17096,-80,1020,17126.59,25.05,-1.00,-1.0,2435
2783,2137783,17068,-84,1160,17107.58,25.19,-1.00,-1.0,2361
2786,2137786,17076,-88,1208,17118.90,25.14,-1.00,-1.0,2452
2789,2137789,17036,60,1144,17074.47,25.14,-1.00,-1.0,2360
2794,2137794,16932,-104,1040,16964.23,25.19,-1.00,-1.0,2447
2797,2137797,17012,-68,1024,17042.93,25.19,-1.00,-1.0,2361
2800,2137800,17036,-52,1148,17074.71,25.14,-1.00,-1.0,2442
2802,2137802,16944,72,1040,16976.04,25.19,-1.00,-1.0,2360
2805,2137805,16980,-8,1128,17017.43,25.05,-1.00,-1.0,2440
2808,2137808,17020,-16,1072,17053.73,25.09,-1.00,-1.0,2361
2811,2137811,17020,-132,980,17048.70,25.19,-1.00,-1.0,2435
2813,2137813,17016,-64,948,17042.51,25.05,-1.00,-1.0,2347
2816,2137816,17088,-36,1224,17131.82,25.14,-1.00,-1.0,2360
2821,2137821,16932,-76,1208,16975.21,25.14,-1.00,-1.0,2448
2824,2137824,17060,-92,1096,17095.42,25.28,-1.00,-1.0,2362
2827,2137827,17012,-88,1284,17060.61,25.24,-1.00,-1.0,2442
2829,2137829,17000,-80,1088,17034.97,25.09,-1.00,-1.0,2360
2832,2137832,17036,104,1156,17075.49,25.14,-1.00,-1.0,2436
2835,2137835,16924,44,1216,16967.69,25.19,-1.00,-1.0,2361
2838,2137838,16964,-132,1200,17006.90,25.14,-1.00,-1.0,2435
2840,2137840,16968,-228,1020,17000.16,25.19,-1.00,-1.0,2362
2845,2137845,16988,-84,1104,17024.04,25.09,-1.00,-1.0,2453
2848,2137848,17000,-28,1084,17034.55,25.19,-1.00,-1.0,2363
2851,2137851,17052,-68,1216,17095.44,25.09,-1.00,-1.0,2437
2854,2137854,16924,4,1088,16958.94,25.19,-1.00,-1.0,2367
2856,2137856,17052,-96,1176,17092.77,25.09,-1.00,-1.0,2360
2859,2137859,17012,-136,1124,17049.63,25.19,-1.00,-1.0,2417
2862,2137862,17132,-80,1020,17162.52,25.19,-1.00,-1.0,2367
2864,2137864,17044,-116,1080,17078.58,25.09,-1.00,-1.0,2430
2867,2137867,17016,-8,1268,17063.18,25.14,-1.00,-1.0,2374
2872,2137872,17068,-20,1056,17100.65,25.24,-1.00,-1.0,2454
2875,2137875,17052,-100,1176,17092.80,25.19,-1.00,-1.0,2369
2878,2137878,16904,-56,1040,16936.05,25.19,-1.00,-1.0,2444
2880,2137880,16992,-72,1240,17037.34,25.24,-1.00,-1.0,2360
2883,2137883,17060,-40,1136,17097.83,25.28,-1.00,-1.0,2453
2886,2137886,17100,40,1024,17130.68,25.14,-1.00,-1.0,2361
2889,2137889,17028,-80,1032,17059.43,25.19,-1.00,-1.0,2364
2891,2137891,17048,-124,980,17076.59,25.24,-1.00,-1.0,2431
2894,2137894,16996,-60,1000,17025.50,25.19,-1.00,-1.0,2373
2899,2137899,16964,-148,1120,17001.58,25.19,-1.00,-1.0,2454
2902,2137902,17148,-108,1104,17183.84,25.19,-1.00,-1.0,2375
2905,2137905,17008,-40,1176,17048.65,25.19,-1.00,-1.0,2442
2908,2137908,17064,84,1140,17102.24,25.19,-1.00,-1.0,2367
2910,2137910,16904,-72,1188,16945.85,25.19,-1.00,-1.0,2443
2913,2137913,16924,-28,1232,16968.81,25.19,-1.00,-1.0,2367
2916,2137916,17060,40,1156,17099.17,25.19,-1.00,-1.0,2438
2919,2137919,16988,-20,1080,17022.31,25.19,-1.00,-1.0,2361
2923,2137923,17032,-80,1148,17070.83,25.19,-1.00,-1.0,2444
2926,2137926,17068,-84,1068,17101.59,25.14,-1.00,-1.0,2360
2929,2137929,16968,-24,1084,17002.61,25.19,-1.00,-1.0,2366
2932,2137932,16968,8,1144,17006.52,25.09,-1.00,-1.0,2446
2934,2137934,17100,-180,1020,17131.34,25.19,-1.00,-1.0,2369
2937,2137937,16928,-128,1092,16963.67,25.09,-1.00,-1.0,2443
2940,2137940,17044,-56,1156,17083.25,25.19,-1.00,-1.0,2374
2943,2137943,16928,-4,1068,16961.66,25.19,-1.00,-1.0,2441
2945,2137945,16988,-8,1016,17018.36,25.14,-1.00,-1.0,2366
2950,2137950,17024,-120,1116,17060.96,25.14,-1.00,-1.0,2444
2953,2137953,17020,-88,1096,17055.48,25.14,-1.00,-1.0,2360
2956,2137956,17044,-56,1048,17076.28,25.14,-1.00,-1.0,2436
2959,2137959,17000,68,1104,17035.95,25.14,-1.00,-1.0,2368
2961,2137961,17088,4,1000,17117.24,25.14,-1.00,-1.0,2429
2964,2137964,17032,-116,972,17060.11,25.14,-1.00,-1.0,2367
2967,2137967,16980,-72,964,17007.49,25.24,-1.00,-1.0,2362
2969,2137969,17008,-8,1140,17046.16,25.19,-1.00,-1.0,2430
2972,2137972,16984,104,1156,17023.61,25.24,-1.00,-1.0,2366
2977,2137977,17140,20,1080,17174.00,25.14,-1.00,-1.0,2444
2980,2137980,17148,-152,1092,17183.41,25.14,-1.00,-1.0,2360
2983,2137983,17024,-88,996,17053.34,25.19,-1.00,-1.0,2443
2985,2137985,16932,16,1112,16968.48,25.14,-1.00,-1.0,2361
2988,2137988,16992,52,1184,17033.28,25.14,-1.00,-1.0,2436
2991,2137991,17044,-36,1164,17083.74,25.14,-1.00,-1.0,2360
2994,2137994,17000,-40,1256,17046.38,25.09,-1.00,-1.0,2438
2996,2137996,17024,-116,1128,17061.72,25.19,-1.00,-1.0,2360
2999,2137999,17008,-88,1200,17050.51,25.09,-1.00,-1.0,2360
3004,2138004,17004,-144,1164,17044.40,25.14,-1.00,-1.0,2446
3007,2138007,17120,-256,1092,17156.70,25.14,-1.00,-1.0,2362
3010,2138010,16988,32,1044,17020.08,25.19,-1.00,-1.0,2435
3013,2138013,16984,56,1036,17015.66,25.14,-1.00,-1.0,2367
3015,2138015,17072,40,1100,17107.45,25.09,-1.00,-1.0,2430
3018,2138018,17012,-64,1116,17048.69,25.24,-1.00,-1.0,2367
3021,2138021,16940,-44,1116,16976.78,25.14,-1.00,-1.0,2436
3024,2138024,17008,-164,1132,17046.42,25.14,-1.00,-1.0,2363
3029,2138029,17012,-60,1156,17051.34,25.14,-1.00,-1.0,2445
3031,2138031,16980,-28,1084,17014.59,25.09,-1.00,-1.0,2362
3034,2138034,16996,-36,1124,17033.16,25.14,-1.00,-1.0,2435
3037,2138037,17012,-88,1172,17052.55,25.19,-1.00,-1.0,2374
3039,2138039,16948,-12,1312,16998.71,25.33,-1.00,-1.0,2366
3042,2138042,17004,-20,1208,17046.87,25.24,-1.00,-1.0,2444
3045,2138045,16968,-80,1112,17004.59,25.24,-1.00,-1.0,2368
3048,2138048,17064,-124,1100,17099.87,25.14,-1.00,-1.0,2449
3050,2138050,16924,-180,904,16949.08,25.14,-1.00,-1.0,2360
3055,2138055,16944,4,1152,16983.12,25.19,-1.00,-1.0,2446
3058,2138058,16928,-60,1164,16968.08,25.09,-1.00,-1.0,2361
3061,2138061,17044,-92,1036,17075.71,25.28,-1.00,-1.0,2435
3064,2138064,16992,-140,1096,17027.88,25.19,-1.00,-1.0,2364
3066,2138066,17060,-40,1104,17095.73,25.19,-1.00,-1.0,2430
3069,2138069,17060,-112,1072,17094.01,25.14,-1.00,-1.0,2366
3072,2138072,17008,-124,1148,17047.15,25.19,-1.00,-1.0,2428
3075,2138075,16908,-156,1160,16948.46,25.19,-1.00,-1.0,2365
3078,2138078,16948,-128,1072,16982.35,25.14,-1.00,-1.0,2354
3082,2138082,17008,-84,1208,17051.05,25.05,-1.00,-1.0,2445
3085,2138085,17072,-68,1180,17112.87,25.09,-1.00,-1.0,2361
3088,2138088,17044,-260,1212,17089.02,25.14,-1.00,-1.0,2434
3091,2138091,16964,-232,1152,17004.65,25.19,-1.00,-1.0,2366
3093,2138093,16940,-84,1004,16969.93,25.14,-1.00,-1.0,2430
3096,2138096,17084,-140,1120,17121.25,25.19,-1.00,-1.0,2366
3099,2138099,17068,96,1200,17110.40,25.19,-1.00,-1.0,2429
3102,2138102,16992,-84,1028,17023.28,25.19,-1.00,-1.0,2364
3107,2138107,17000,-92,1020,17030.82,25.19,-1.00,-1.0,2450
3109,2138109,16908,-80,1024,16939.17,25.19,-1.00,-1.0,2372
3112,2138112,17016,-48,1104,17051.84,25.14,-1.00,-1.0,2429
3115,2138115,17000,-16,1084,17034.53,25.14,-1.00,-1.0,2366
3118,2138118,16956,-12,1148,16994.82,25.19,-1.00,-1.0,2453
3120,2138120,17124,-176,1160,17164.15,25.24,-1.00,-1.0,2364
3123,2138123,17008,-148,1164,17048.43,25.19,-1.00,-1.0,2348
3126,2138126,17028,-60,1188,17069.50,25.28,-1.00,-1.0,2439
3129,2138129,16968,108,1060,17001.42,25.09,-1.00,-1.0,2373
3134,2138134,16972,-32,1104,17007.90,25.19,-1.00,-1.0,2444
3136,2138136,17048,-68,1216,17091.45,25.05,-1.00,-1.0,2360
3139,2138139,17068,-168,1260,17115.27,25.14,-1.00,-1.0,2450
3142,2138142,17028,-92,1068,17061.71,25.24,-1.00,-1.0,2372
3145,2138145,17008,76,1064,17041.42,25.09,-1.00,-1.0,2439
3147,2138147,16932,-4,1036,16963.67,25.14,-1.00,-1.0,2361
3150,2138150,16980,-104,1152,17019.35,25.14,-1.00,-1.0,2436
3153,2138153,17016,-156,1032,17047.98,25.24,-1.00,-1.0,2374
3158,2138158,17028,-20,1088,17062.73,25.19,-1.00,-1.0,2444
3160,2138160,16992,32,1196,17034.07,25.14,-1.00,-1.0,2360
3163,2138163,16976,-208,1168,17017.40,25.19,-1.00,-1.0,2348
3166,2138166,17064,-180,1184,17105.97,25.19,-1.00,-1.0,2443
3168,2138168,17072,-132,1132,17110.00,25.19,-1.00,-1.0,2369
3171,2138171,17028,116,1172,17068.68,25.19,-1.00,-1.0,2443
3174,2138174,17008,-8,976,17035.98,25.09,-1.00,-1.0,2373
3177,2138177,17020,-140,1152,17059.52,25.14,-1.00,-1.0,2429
3180,2138180,16948,-264,1048,16982.42,25.14,-1.00,-1.0,2365
3184,2138184,17060,-60,1052,17092.51,25.14,-1.00,-1.0,2444
3187,2138187,17016,-16,1192,17057.71,25.24,-1.00,-1.0,2360
3190,2138190,16976,-40,972,17003.85,25.05,-1.00,-1.0,2436
3193,2138193,17108,-208,1064,17142.32,25.14,-1.00,-1.0,2366
3195,2138195,16996,-132,1068,17030.03,25.14,-1.00,-1.0,2429
3198,2138198,17028,-160,1212,17071.83,25.19,-1.00,-1.0,2368
3201,2138201,17056,92,1076,17090.15,25.14,-1.00,-1.0,2360
3204,2138204,17036,-16,1156,17075.18,25.24,-1.00,-1.0,2436
3207,2138207,16992,-112,1060,17025.40,25.14,-1.00,-1.0,2365
3212,2138212,17000,-96,1112,17036.60,25.14,-1.00,-1.0,2444
3214,2138214,17032,-28,1208,17074.81,25.14,-1.00,-1.0,2367
3217,2138217,17084,-4,1128,17121.20,25.14,-1.00,-1.0,2436
3220,2138220,17044,-132,1244,17089.85,25.24,-1.00,-1.0,2361
3223,2138223,17008,-48,988,17036.74,25.14,-1.00,-1.0,2446
3225,2138225,16988,-212,928,17014.65,25.14,-1.00,-1.0,2370
3228,2138228,17068,-92,1100,17103.66,25.24,-1.00,-1.0,2442
3231,2138231,17048,-40,980,17076.19,25.19,-1.00,-1.0,2355
3236,2138236,16912,-60,1172,16952.67,25.19,-1.00,-1.0,2450
3238,2138238,17040,-12,1192,17081.64,25.09,-1.00,-1.0,2360
3241,2138241,16944,-76,1184,16985.49,25.14,-1.00,-1.0,2375
3244,2138244,16948,-68,1004,16977.85,25.14,-1.00,-1.0,2440
3247,2138247,16932,8,972,16959.88,25.14,-1.00,-1.0,2368
3249,2138249,17036,-176,1188,17078.28,25.14,-1.00,-1.0,2446
3252,2138252,17040,-88,1108,17076.21,25.33,-1.00,-1.0,2376
3255,2138255,17104,-32,1024,17134.66,25.24,-1.00,-1.0,2439
3258,2138258,16924,-24,1112,16960.51,25.19,-1.00,-1.0,2359
3263,2138263,16976,-64,1080,17010.44,25.19,-1.00,-1.0,2444
3265,2138265,16912,-96,1052,16944.96,25.14,-1.00,-1.0,2361
3268,2138268,17084,80,1120,17120.86,25.19,-1.00,-1.0,2423
3271,2138271,16968,-32,1072,17001.86,25.14,-1.00,-1.0,2362
3273,2138273,17064,-116,1188,17105.70,25.19,-1.00,-1.0,2361
3276,2138276,17076,-96,1136,17114.01,25.19,-1.00,-1.0,2429
3279,2138279,16984,-88,1228,17028.56,25.24,-1.00,-1.0,2354
3282,2138282,17004,-40,1008,17033.90,25.14,-1.00,-1.0,2440
3285,2138285,17052,-180,1120,17089.69,25.28,-1.00,-1.0,2367
3290,2138290,17080,-68,1060,17113.00,25.19,-1.00,-1.0,2451
3292,2138292,17016,-92,1020,17046.79,25.19,-1.00,-1.0,2361
3295,2138295,16968,52,1112,17004.48,25.19,-1.00,-1.0,2439
3298,2138298,16988,116,1040,17020.20,25.24,-1.00,-1.0,2349
3301,2138301,16968,-112,1172,17008.80,25.19,-1.00,-1.0,2433
3303,2138303,16964,-200,1052,16997.76,25.14,-1.00,-1.0,2363
3306,2138306,16988,-184,1060,17022.03,25.19,-1.00,-1.0,2436
3309,2138309,17092,32,1140,17130.01,25.24,-1.00,-1.0,2347
3314,2138314,16988,-64,1072,17021.91,25.14,-1.00,-1.0,2451
3317,2138317,16996,-120,1016,17026.76,25.14,-1.00,-1.0,2360
3319,2138319,16908,-256,1056,16942.88,25.14,-1.00,-1.0,2363
3322,2138322,17000,-36,1148,17038.76,25.24,-1.00,-1.0,2438
3325,2138325,17048,-40,1100,17083.50,25.14,-1.00,-1.0,2364
3327,2138327,17004,64,1232,17048.69,25.19,-1.00,-1.0,2439
3330,2138330,16968,-92,1132,17005.97,25.14,-1.00,-1.0,2377
3333,2138333,17060,-88,1036,17091.65,25.24,-1.00,-1.0,2437
3336,2138336,17004,-220,976,17033.41,25.14,-1.00,-1.0,2365
3341,2138341,16932,-28,1112,16968.50,25.14,-1.00,-1.0,2448
3343,2138343,17012,-32,1128,17049.38,25.05,-1.00,-1.0,2361
3346,2138346,17036,-200,1060,17070.12,25.14,-1.00,-1.0,2437
3349,2138349,17004,-148,1112,17040.96,25.09,-1.00,-1.0,2360
3352,2138352,17036,-160,1044,17068.71,25.24,-1.00,-1.0,2443
3354,2138354,16896,12,1096,16931.51,25.19,-1.00,-1.0,2361
3357,2138357,17108,-28,1276,17155.54,25.14,-1.00,-1.0,2360
3360,2138360,16992,36,1012,17022.15,25.14,-1.00,-1.0,2439
3363,2138363,16900,-88,1060,16933.44,25.24,-1.00,-1.0,2362
3369,2138369,17060,-60,1184,17101.14,25.19,-1.00,-1.0,2465
3371,2138371,17172,0,1096,17206.94,25.09,-1.00,-1.0,2368
3374,2138374,17008,-88,1212,17051.36,25.19,-1.00,-1.0,2436
3377,2138377,17008,-44,1004,17037.66,25.24,-1.00,-1.0,2361
3380,2138380,17008,-140,1208,17051.42,25.19,-1.00,-1.0,2445
3382,2138382,16988,-36,1188,17029.53,25.19,-1.00,-1.0,2369
3385,2138385,17016,12,1188,17057.43,25.19,-1.00,-1.0,2443
3388,2138388,16996,-80,1016,17026.53,25.24,-1.00,-1.0,2363
3390,2138390,17004,-140,1096,17039.86,25.09,-1.00,-1.0,2362
3395,2138395,17040,-52,1044,17072.03,25.14,-1.00,-1.0,2444
3398,2138398,16988,148,1156,17027.93,25.09,-1.00,-1.0,2361
3401,2138401,17028,-4,1144,17066.39,25.14,-1.00,-1.0,2441
3403,2138403,17120,-116,1048,17152.44,25.28,-1.00,-1.0,2361
3406,2138406,16988,-304,972,17018.50,25.14,-1.00,-1.0,2435
3409,2138409,16940,-56,1112,16976.55,25.19,-1.00,-1.0,2362
3412,2138412,17020,-52,1084,17054.56,25.24,-1.00,-1.0,2435
3414,2138414,16992,52,1044,17024.12,25.09,-1.00,-1.0,2368
3419,2138419,16964,-104,1064,16997.65,25.19,-1.00,-1.0,2455
3422,2138422,16928,-124,1212,16971.79,25.09,-1.00,-1.0,2368
3425,2138425,17112,-28,1168,17151.84,25.09,-1.00,-1.0,2424
3428,2138428,17100,4,1132,17137.43,25.14,-1.00,-1.0,2360
3430,2138430,17068,-88,1020,17098.68,25.19,-1.00,-1.0,2366
3433,2138433,17040,-148,1212,17083.69,25.09,-1.00,-1.0,2439
3436,2138436,17036,-176,1092,17071.87,25.09,-1.00,-1.0,2372
3438,2138438,16960,-148,1044,16992.75,25.19,-1.00,-1.0,2437
3441,2138441,17044,-128,980,17072.63,25.19,-1.00,-1.0,2376
3448,2138448,17008,-68,1112,17044.45,25.24,-1.00,-1.0,2447
3451,2138451,17040,-64,1216,17083.45,25.14,-1.00,-1.0,2365
3453,2138453,16992,-160,1180,17033.67,25.24,-1.00,-1.0,2428
3456,2138456,17028,-144,1132,17066.19,25.19,-1.00,-1.0,2352
3459,2138459,17000,48,1076,17034.09,25.14,-1.00,-1.0,2436
3462,2138462,17084,48,1192,17125.60,25.19,-1.00,-1.0,2366
3464,2138464,17060,-48,1212,17103.07,25.14,-1.00,-1.0,2442
3467,2138467,17100,-100,1160,17139.59,25.19,-1.00,-1.0,2375
3472,2138472,16904,-16,1108,16940.28,25.19,-1.00,-1.0,2444
3475,2138475,17036,0,1044,17067.96,25.24,-1.00,-1.0,2368
3477,2138477,16976,68,1104,17012.00,25.19,-1.00,-1.0,2363
3480,2138480,17148,-96,1196,17189.93,25.14,-1.00,-1.0,2445
3483,2138483,17020,-104,1184,17061.45,25.28,-1.00,-1.0,2367
3486,2138486,17072,-16,1072,17105.63,25.14,-1.00,-1.0,2448
3488,2138488,17044,-16,1040,17075.71,25.09,-1.00,-1.0,2359
3491,2138491,17056,-16,1116,17092.48,25.24,-1.00,-1.0,2449
3494,2138494,16984,-140,1000,17013.99,25.19,-1.00,-1.0,2367
3499,2138499,16936,16,1072,16969.90,25.33,-1.00,-1.0,2451
3501,2138501,17028,-64,1052,17060.59,25.28,-1.00,-1.0,2359
3504,2138504,17040,-164,1168,17080.77,25.19,-1.00,-1.0,2437
3507,2138507,17060,-48,1012,17090.06,25.24,-1.00,-1.0,2359
3509,2138509,17032,64,1096,17067.35,25.19,-1.00,-1.0,2361
3512,2138512,17100,124,1256,17146.51,25.19,-1.00,-1.0,2435
3515,2138515,17052,24,1216,17095.32,25.19,-1.00,-1.0,2365
3518,2138518,16932,-56,1116,16968.83,25.28,-1.00,-1.0,2445
3520,2138520,16972,-192,1148,17011.87,25.19,-1.00,-1.0,2346
3525,2138525,16932,40,1044,16964.20,25.24,-1.00,-1.0,2446
3528,2138528,16980,52,984,17008.57,25.14,-1.00,-1.0,2362
3531,2138531,17024,-128,1168,17064.50,25.24,-1.00,-1.0,2435
3534,2138534,16920,-128,1096,16955.94,25.24,-1.00,-1.0,2364
3536,2138536,17028,-132,1120,17065.30,25.05,-1.00,-1.0,2434
3539,2138539,16980,12,1104,17015.86,25.14,-1.00,-1.0,2368
3542,2138542,17128,-64,1216,17171.23,25.24,-1.00,-1.0,2436
3545,2138545,17064,-88,976,17092.12,25.14,-1.00,-1.0,2363
3547,2138547,16916,-76,1076,16950.36,25.33,-1.00,-1.0,2360
3552,2138552,16972,-108,1108,17008.47,25.14,-1.00,-1.0,2453
3555,2138555,17076,72,1120,17112.84,25.24,-1.00,-1.0,2362
3558,2138558,17068,72,1072,17101.78,25.14,-1.00,-1.0,2447
3560,2138560,16980,36,1156,17019.34,25.24,-1.00,-1.0,2370
3563,2138563,17036,-172,1172,17077.13,25.24,-1.00,-1.0,2432
3566,2138566,17000,-136,1128,17037.92,25.14,-1.00,-1.0,2365
3569,2138569,17036,4,1196,17077.93,25.14,-1.00,-1.0,2451
3571,2138571,17000,-16,1168,17040.08,25.14,-1.00,-1.0,2365
3576,2138576,17028,-104,1140,17066.44,25.14,-1.00,-1.0,2454
3579,2138579,16984,-136,1184,17025.76,25.14,-1.00,-1.0,2362
3582,2138582,17044,-40,1116,17080.54,25.05,-1.00,-1.0,2447
3584,2138584,16912,-28,992,16941.09,25.14,-1.00,-1.0,2369
3587,2138587,17000,72,1192,17041.89,25.19,-1.00,-1.0,2362
3590,2138590,17028,-20,1148,17066.67,25.19,-1.00,-1.0,2436
3592,2138592,16956,32,1148,16994.85,25.19,-1.00,-1.0,2367
3595,2138595,16984,-88,1132,17021.91,25.19,-1.00,-1.0,2437
3598,2138598,16936,-104,1008,16966.29,25.24,-1.00,-1.0,2345
3603,2138603,16964,-132,1152,17003.58,25.14,-1.00,-1.0,2447
3605,2138605,17060,-44,1036,17091.48,25.14,-1.00,-1.0,2368
3608,2138608,17020,-12,1100,17055.51,25.28,-1.00,-1.0,2443
3611,2138611,17000,-64,1248,17045.87,25.24,-1.00,-1.0,2346
3614,2138614,17024,-188,1052,17057.51,25.24,-1.00,-1.0,2447
3616,2138616,17000,-172,1152,17039.86,25.24,-1.00,-1.0,2363
3619,2138619,16976,160,1140,17014.99,25.09,-1.00,-1.0,2451
3622,2138622,17020,48,1064,17053.29,25.24,-1.00,-1.0,2366
3624,2138624,16936,-48,1072,16969.96,25.09,-1.00,-1.0,2367
3629,2138629,17096,-92,1120,17132.89,25.19,-1.00,-1.0,2455
3632,2138632,16948,-36,1076,16982.16,25.24,-1.00,-1.0,2375
3635,2138635,17024,28,1204,17066.54,25.19,-1.00,-1.0,2439
3638,2138638,16904,-112,1112,16940.91,25.33,-1.00,-1.0,2370
3640,2138640,17048,-148,1184,17089.71,25.19,-1.00,-1.0,2444
3643,2138643,17036,-164,932,17062.26,25.14,-1.00,-1.0,2374
3646,2138646,17024,-56,1152,17063.03,25.19,-1.00,-1.0,2439
3649,2138649,17008,56,1156,17047.33,25.14,-1.00,-1.0,2367
3654,2138654,16960,-180,1160,17000.58,25.14,-1.00,-1.0,2444
3656,2138656,16880,-284,1048,16914.89,25.24,-1.00,-1.0,2362
3659,2138659,16984,-92,1044,17016.30,25.24,-1.00,-1.0,2435
3662,2138662,17032,128,1220,17076.12,25.24,-1.00,-1.0,2371
3664,2138664,17008,32,1096,17043.31,25.14,-1.00,-1.0,2360
3667,2138667,16980,-52,1156,17019.38,25.28,-1.00,-1.0,2450
3670,2138670,17048,-228,956,17076.31,25.14,-1.00,-1.0,2365
3673,2138673,16960,-40,1204,17002.73,25.24,-1.00,-1.0,2450
3675,2138675,17076,-80,1248,17121.73,25.24,-1.00,-1.0,2361
3680,2138680,16916,8,1176,16956.83,25.14,-1.00,-1.0,2446
3683,2138683,17004,-36,1072,17037.80,25.24,-1.00,-1.0,2359
3686,2138686,17032,-188,1080,17067.24,25.24,-1.00,-1.0,2438
3688,2138688,17040,-68,996,17069.22,25.14,-1.00,-1.0,2359
3691,2138691,17012,32,1024,17042.82,25.24,-1.00,-1.0,2437
3694,2138694,17096,124,1076,17130.28,25.14,-1.00,-1.0,2360
3696,2138696,17028,-140,1032,17059.82,25.24,-1.00,-1.0,2361
3699,2138699,16956,-132,1024,16987.40,25.19,-1.00,-1.0,2433
3702,2138702,16940,20,1132,16977.79,25.14,-1.00,-1.0,2365
3707,2138707,16976,64,1028,17007.22,25.19,-1.00,-1.0,2450
3710,2138710,17016,0,984,17044.43,25.28,-1.00,-1.0,2359
3713,2138713,16964,-176,1112,17001.32,25.24,-1.00,-1.0,2447
3715,2138715,16984,-32,1228,17028.37,25.19,-1.00,-1.0,2368
3718,2138718,17112,-108,1204,17154.64,25.14,-1.00,-1.0,2443
3721,2138721,17016,56,1152,17055.04,25.19,-1.00,-1.0,2361
3724,2138724,17052,-172,1100,17088.31,25.09,-1.00,-1.0,2451
3726,2138726,16996,-224,976,17025.47,25.19,-1.00,-1.0,2370
3731,2138731,17076,-40,1176,17116.49,25.19,-1.00,-1.0,2444
3734,2138734,16996,116,1120,17033.26,25.09,-1.00,-1.0,2359
3737,2138737,17000,-52,1024,17030.89,25.19,-1.00,-1.0,2362
3739,2138739,16896,-76,988,16925.03,25.24,-1.00,-1.0,2437
3742,2138742,17040,-64,1084,17074.56,25.19,-1.00,-1.0,2381
3745,2138745,16936,-164,1152,16975.93,25.14,-1.00,-1.0,2439
3748,2138748,16912,20,1132,16949.86,25.19,-1.00,-1.0,2363
3750,2138750,17032,48,1232,17076.57,25.14,-1.00,-1.0,2446
3753,2138753,17008,-88,1076,17042.23,25.24,-1.00,-1.0,2359
3758,2138758,16984,-76,1284,17032.64,25.14,-1.00,-1.0,2443
3761,2138761,17016,-44,1112,17052.35,25.24,-1.00,-1.0,2361
3764,2138764,17040,48,1196,17081.99,25.24,-1.00,-1.0,2433
3766,2138766,16984,-124,1048,17016.75,25.24,-1.00,-1.0,2367
3769,2138769,17060,-116,1000,17089.68,25.14,-1.00,-1.0,2436
3772,2138772,17008,-92,1140,17046.41,25.14,-1.00,-1.0,2345
3774,2138774,17000,-16,1084,17034.53,25.14,-1.00,-1.0,2360
3777,2138777,17044,-24,1120,17080.78,25.19,-1.00,-1.0,2436
3780,2138780,17016,60,1068,17049.59,25.19,-1.00,-1.0,2365
3785,2138785,16940,-96,1084,16974.92,25.14,-1.00,-1.0,2459
3788,2138788,16972,-60,1156,17011.43,25.19,-1.00,-1.0,2366
3791,2138791,16956,4,1092,16991.13,25.14,-1.00,-1.0,2451
3793,2138793,16928,-72,1212,16971.48,25.28,-1.00,-1.0,2365
3796,2138796,16976,-104,1044,17008.39,25.14,-1.00,-1.0,2449
3799,2138799,16920,-152,1088,16955.62,25.19,-1.00,-1.0,2369
3802,2138802,17052,-48,1084,17086.49,25.19,-1.00,-1.0,2472
3804,2138804,16920,-16,1088,16954.95,25.24,-1.00,-1.0,2362
3809,2138809,16928,-100,1092,16963.48,25.24,-1.00,-1.0,2444
3812,2138812,16984,-108,1120,17021.23,25.24,-1.00,-1.0,2358
3815,2138815,17108,-128,1184,17149.40,25.19,-1.00,-1.0,2359
3817,2138817,16972,64,1060,17005.19,25.19,-1.00,-1.0,2431
3820,2138820,17076,52,1152,17114.89,25.19,-1.00,-1.0,2365
3823,2138823,16996,-108,1020,17026.92,25.28,-1.00,-1.0,2432
3826,2138826,16960,-160,1080,16995.11,25.14,-1.00,-1.0,2364
3828,2138828,16888,64,976,16916.30,25.24,-1.00,-1.0,2431
3831,2138831,17028,72,1092,17063.13,25.14,-1.00,-1.0,2371
3836,2138836,16900,12,1140,16938.41,25.19,-1.00,-1.0,2447
3839,2138839,17000,28,1236,17044.90,25.19,-1.00,-1.0,2359
3842,2138842,17008,-88,1148,17046.93,25.09,-1.00,-1.0,2440
3844,2138844,17024,-56,1128,17061.42,25.19,-1.00,-1.0,2359
3847,2138847,16884,20,964,16911.51,25.19,-1.00,-1.0,2360
3850,2138850,16964,-140,1152,17003.65,25.24,-1.00,-1.0,2443
3852,2138852,17040,-8,1144,17078.36,25.19,-1.00,-1.0,2358
3855,2138855,17040,-168,1152,17079.72,25.14,-1.00,-1.0,2440
3858,2138858,17088,-40,1164,17127.64,25.24,-1.00,-1.0,2371
3863,2138863,17044,184,1100,17080.45,25.14,-1.00,-1.0,2445
3866,2138866,17044,-92,1132,17081.80,25.19,-1.00,-1.0,2359
3869,2138869,17000,-212,1028,17032.37,25.24,-1.00,-1.0,2445
3871,2138871,17056,-108,956,17083.11,25.19,-1.00,-1.0,2359
3874,2138874,16964,-128,1084,16999.08,25.14,-1.00,-1.0,2439
3877,2138877,17052,24,1164,17091.70,25.19,-1.00,-1.0,2359
3880,2138880,16912,12,1216,16955.66,25.19,-1.00,-1.0,2444
3882,2138882,17044,-172,1132,17082.42,25.19,-1.00,-1.0,2359
3885,2138885,17040,-84,1148,17078.83,25.24,-1.00,-1.0,2370
3890,2138890,17000,-28,1248,17045.77,25.14,-1.00,-1.0,2446
3893,2138893,17136,48,1156,17175.02,25.14,-1.00,-1.0,2358
3896,2138896,17008,-112,1080,17042.62,25.14,-1.00,-1.0,2444
3898,2138898,17060,-140,1048,17092.73,25.24,-1.00,-1.0,2362
3901,2138901,17032,-116,1004,17061.96,25.24,-1.00,-1.0,2441
3904,2138904,16984,-16,1124,17021.16,25.24,-1.00,-1.0,2358
3907,2138907,16896,84,1148,16935.16,25.14,-1.00,-1.0,2447
3909,2138909,17064,-52,1156,17103.19,25.14,-1.00,-1.0,2360
3914,2138914,17004,-100,1156,17043.54,25.09,-1.00,-1.0,2444
3917,2138917,17028,-80,1036,17059.67,25.19,-1.00,-1.0,2359
3920,2138920,16976,24,1100,17011.62,25.19,-1.00,-1.0,2437
3923,2138923,17020,-44,1156,17059.27,25.19,-1.00,-1.0,2367
3925,2138925,17072,-60,1040,17103.75,25.19,-1.00,-1.0,2356
3928,2138928,17092,-152,1236,17137.31,25.14,-1.00,-1.0,2439
3931,2138931,17040,-148,1000,17069.96,25.19,-1.00,-1.0,2365
3933,2138933,17068,-124,1092,17103.35,25.14,-1.00,-1.0,2430
3936,2138936,17064,20,1140,17102.05,25.28,-1.00,-1.0,2367
3941,2138941,16988,4,1212,17031.18,25.28,-1.00,-1.0,2454
3944,2138944,16984,-84,1148,17022.96,25.19,-1.00,-1.0,2375
3947,2138947,16968,-28,1072,17001.85,25.28,-1.00,-1.0,2441
3950,2138950,16992,-16,1132,17029.67,25.28,-1.00,-1.0,2368
3952,2138952,16892,36,1068,16925.77,25.19,-1.00,-1.0,2445
3955,2138955,17040,-168,1036,17072.29,25.09,-1.00,-1.0,2375
3958,2138958,17020,-100,936,17046.01,25.19,-1.00,-1.0,2439
3961,2138961,17092,-172,1028,17123.75,25.19,-1.00,-1.0,2365
3963,2138963,16968,28,868,16990.21,25.14,-1.00,-1.0,2360
3968,2138968,16940,60,1196,16982.27,25.28,-1.00,-1.0,2453
3971,2138971,17016,-84,1148,17054.89,25.19,-1.00,-1.0,2367
3974,2138974,16976,-264,988,17006.78,25.09,-1.00,-1.0,2439
3977,2138977,17060,-196,1096,17096.29,25.19,-1.00,-1.0,2367
3979,2138979,16984,-76,1180,17025.11,25.09,-1.00,-1.0,2444
3982,2138982,17004,-56,1140,17042.26,25.19,-1.00,-1.0,2375
3985,2138985,17060,-84,1148,17098.79,25.09,-1.00,-1.0,2438
3988,2138988,17060,-76,1128,17097.42,25.28,-1.00,-1.0,2364
3992,2138992,16956,-56,1128,16993.57,25.19,-1.00,-1.0,2453
3995,2138995,16960,28,1168,17000.20,25.28,-1.00,-1.0,2367
3998,2138998,17080,-24,1104,17115.66,25.14,-1.00,-1.0,2437
4001,2139001,16912,-12,1056,16944.94,25.19,-1.00,-1.0,2366
4003,2139003,17000,-36,996,17029.19,25.14,-1.00,-1.0,2359
4006,2139006,16976,-96,1028,17007.37,25.24,-1.00,-1.0,2431
4009,2139009,17028,-12,1116,17064.54,25.19,-1.00,-1.0,2366
4012,2139012,17120,44,1036,17151.38,25.19,-1.00,-1.0,2431
4015,2139015,16984,-44,1040,17015.87,25.19,-1.00,-1.0,2424
4019,2139019,16948,-60,1044,16980.23,25.14,-1.00,-1.0,2446
4022,2139022,16956,-84,1224,17000.33,25.14,-1.00,-1.0,2365
4025,2139025,17060,-24,1084,17094.42,25.14,-1.00,-1.0,2432
4028,2139028,17016,-52,1000,17045.44,25.14,-1.00,-1.0,2368
4030,2139030,16996,-196,1008,17026.99,25.14,-1.00,-1.0,2432
4033,2139033,17036,-52,1096,17071.30,25.24,-1.00,-1.0,2375
4036,2139036,16968,-96,1148,17007.06,25.24,-1.00,-1.0,2435
4039,2139039,16980,-72,1164,17020.00,25.28,-1.00,-1.0,2367
4041,2139041,17012,-88,1148,17050.92,25.09,-1.00,-1.0,2361
4046,2139046,16988,-4,1112,17024.36,25.28,-1.00,-1.0,2443
4049,2139049,16940,-152,1100,16976.36,25.14,-1.00,-1.0,2362
4052,2139052,17120,-136,1200,17162.54,25.09,-1.00,-1.0,2433
4055,2139055,16988,-24,1036,17019.58,25.24,-1.00,-1.0,2367
4057,2139057,16992,16,1164,17031.83,25.19,-1.00,-1.0,2428
4060,2139060,16980,-108,992,17009.29,25.05,-1.00,-1.0,2368
4063,2139063,16976,-196,1128,17014.56,25.14,-1.00,-1.0,2426
4066,2139066,16988,-192,1020,17019.68,25.24,-1.00,-1.0,2368
4071,2139071,17032,88,1024,17062.98,25.14,-1.00,-1.0,2448
4073,2139073,17096,40,1232,17140.38,25.14,-1.00,-1.0,2364
4076,2139076,16972,-164,1180,17013.76,25.24,-1.00,-1.0,2429
4079,2139079,16932,-180,1276,16980.96,25.19,-1.00,-1.0,2371
4081,2139081,16996,-168,1204,17039.42,25.14,-1.00,-1.0,2367
4084,2139084,17096,-20,1276,17143.56,25.24,-1.00,-1.0,2427
4087,2139087,17044,-40,1280,17092.04,25.14,-1.00,-1.0,2355
4090,2139090,17008,-156,1088,17043.48,25.14,-1.00,-1.0,2440
4093,2139093,16964,-308,1012,16996.95,25.14,-1.00,-1.0,2376
4098,2139098,17096,-12,1084,17130.34,25.14,-1.00,-1.0,2442
4100,2139100,17000,36,1084,17034.56,25.28,-1.00,-1.0,2363
4103,2139103,16928,32,1168,16968.28,25.14,-1.00,-1.0,2449
4106,2139106,17068,-84,1120,17104.91,25.28,-1.00,-1.0,2369
4109,2139109,16952,-124,1004,16982.16,25.14,-1.00,-1.0,2435
4111,2139111,17036,-108,1236,17081.12,25.19,-1.00,-1.0,2362
4114,2139114,17052,104,1156,17091.46,25.14,-1.00,-1.0,2433
4117,2139117,17072,116,1216,17115.64,25.19,-1.00,-1.0,2367
4120,2139120,17056,108,1040,17088.02,25.24,-1.00,-1.0,2359
4125,2139125,17000,-148,1192,17042.38,25.24,-1.00,-1.0,2443
4127,2139127,17044,-76,1004,17073.71,25.19,-1.00,-1.0,2363
4130,2139130,17048,24,1076,17081.94,25.24,-1.00,-1.0,2441
4133,2139133,17088,0,1136,17125.72,25.19,-1.00,-1.0,2369
4136,2139136,17044,28,1092,17078.97,25.24,-1.00,-1.0,2434
4138,2139138,16996,-20,1076,17030.04,25.19,-1.00,-1.0,2364
4141,2139141,17008,-68,1240,17053.28,25.24,-1.00,-1.0,2432
4144,2139144,17084,-72,1256,17130.26,25.19,-1.00,-1.0,2366
4149,2139149,16964,-56,1060,16997.18,25.28,-1.00,-1.0,2442
4151,2139151,16964,-96,1020,16994.91,25.19,-1.00,-1.0,2350
4154,2139154,17056,-96,1052,17088.68,25.19,-1.00,-1.0,2434
4157,2139157,17040,-220,1192,17083.06,25.14,-1.00,-1.0,2349
4159,2139159,16968,-88,980,16996.50,25.19,-1.00,-1.0,2360
4162,2139162,16992,-44,1176,17032.70,25.19,-1.00,-1.0,2414
4165,2139165,16952,-128,1156,16991.85,25.19,-1.00,-1.0,2371
4168,2139168,17024,4,1160,17063.47,25.19,-1.00,-1.0,2432
4171,2139171,17068,-144,1088,17103.25,25.19,-1.00,-1.0,2364
4176,2139176,16976,-152,1024,17007.54,25.19,-1.00,-1.0,2446
4178,2139178,17064,-76,1040,17095.83,25.24,-1.00,-1.0,2371
4181,2139181,17148,4,1156,17186.92,25.09,-1.00,-1.0,2442
4184,2139184,17060,-16,1200,17102.16,25.14,-1.00,-1.0,2364
4187,2139187,17012,-80,1168,17052.24,25.19,-1.00,-1.0,2449
4189,2139189,16852,-168,1172,16893.54,25.24,-1.00,-1.0,2364
4192,2139192,16996,-188,956,17023.90,25.24,-1.00,-1.0,2443
4195,2139195,16912,-8,1064,16945.44,25.14,-1.00,-1.0,2368
4198,2139198,16960,76,1172,17000.62,25.09,-1.00,-1.0,2359
4203,2139203,16940,-28,1036,16971.67,25.14,-1.00,-1.0,2446
4206,2139206,16980,-116,1088,17015.22,25.28,-1.00,-1.0,2363
4209,2139209,17004,-116,1132,17042.03,25.24,-1.00,-1.0,2437
4211,2139211,16984,32,1056,17016.83,25.19,-1.00,-1.0,2363
4214,2139214,16944,116,1152,16983.51,25.14,-1.00,-1.0,2420
4217,2139217,16936,-152,1128,16974.20,25.28,-1.00,-1.0,2365
4220,2139220,16996,-140,1008,17026.44,25.19,-1.00,-1.0,2433
4222,2139222,16992,-200,1092,17028.23,25.19,-1.00,-1.0,2369
4227,2139227,17064,-84,1132,17101.71,25.24,-1.00,-1.0,2442
4230,2139230,17068,-64,1108,17104.04,25.09,-1.00,-1.0,2363
4233,2139233,16932,-68,1060,16965.28,25.14,-1.00,-1.0,2438
4235,2139235,16916,-24,1076,16950.20,25.19,-1.00,-1.0,2349
4238,2139238,16996,-100,1112,17032.63,25.24,-1.00,-1.0,2359
4241,2139241,17064,-16,1004,17093.52,25.24,-1.00,-1.0,2441
4243,2139243,16976,-68,1092,17011.22,25.24,-1.00,-1.0,2362
4246,2139246,17092,-76,1084,17126.51,25.24,-1.00,-1.0,2434
4249,2139249,16920,-40,1064,16953.47,25.14,-1.00,-1.0,2361
4254,2139254,16896,-36,1060,16929.26,25.19,-1.00,-1.0,2458
4257,2139257,17024,24,1176,17064.59,25.19,-1.00,-1.0,2370
4260,2139260,17048,-52,1120,17084.83,25.19,-1.00,-1.0,2447
4262,2139262,16972,-176,992,17001.88,25.19,-1.00,-1.0,2367
4265,2139265,17056,-88,1008,17085.99,25.09,-1.00,-1.0,2443
4268,2139268,17016,-12,1216,17059.40,25.19,-1.00,-1.0,2369
4271,2139271,17084,-60,988,17112.65,25.19,-1.00,-1.0,2445
4273,2139273,17004,-104,1008,17034.17,25.19,-1.00,-1.0,2365
4276,2139276,17044,-232,1112,17081.81,25.19,-1.00,-1.0,2360
4281,2139281,17044,4,1056,17076.68,25.19,-1.00,-1.0,2450
4283,2139283,17076,92,1076,17110.12,25.19,-1.00,-1.0,2363
4286,2139286,16992,-8,1128,17029.40,25.19,-1.00,-1.0,2449
4289,2139289,17024,-56,1104,17059.85,25.14,-1.00,-1.0,2361
4292,2139292,17040,-192,992,17069.93,25.19,-1.00,-1.0,2440
4294,2139294,17040,-76,1116,17076.68,25.19,-1.00,-1.0,2362
4297,2139297,16988,16,1076,17022.05,25.19,-1.00,-1.0,2437
4300,2139300,17116,124,1052,17148.75,25.24,-1.00,-1.0,2362
4305,2139305,16972,-60,1060,17005.18,25.24,-1.00,-1.0,2443
4308,2139308,17080,-140,984,17108.89,25.14,-1.00,-1.0,2368
4310,2139310,17104,-56,1112,17140.20,25.24,-1.00,-1.0,2355
4313,2139313,17116,-40,1032,17147.13,25.24,-1.00,-1.0,2434
4316,2139316,17096,32,1100,17131.38,25.24,-1.00,-1.0,2368
4318,2139318,17156,-20,1176,17196.27,25.19,-1.00,-1.0,2414
4321,2139321,17084,-232,1008,17115.28,25.24,-1.00,-1.0,2367
4324,2139324,16984,-168,1136,17022.78,25.14,-1.00,-1.0,2427
4327,2139327,16976,-100,1080,17010.61,25.19,-1.00,-1.0,2375
4332,2139332,17048,24,1036,17079.47,25.19,-1.00,-1.0,2448
4334,2139334,17108,48,1156,17147.08,25.19,-1.00,-1.0,2361
4337,2139337,16980,-60,1080,17014.42,25.19,-1.00,-1.0,2434
4340,2139340,16896,-60,992,16925.20,25.24,-1.00,-1.0,2362
4343,2139343,17020,-72,1228,17064.39,25.19,-1.00,-1.0,2440
4345,2139345,17036,-132,1008,17066.30,25.24,-1.00,-1.0,2361
4348,2139348,17064,-96,1164,17103.92,25.19,-1.00,-1.0,2359
4351,2139351,17012,-72,1168,17052.20,25.24,-1.00,-1.0,2436
4354,2139354,17084,-152,1120,17121.35,25.24,-1.00,-1.0,2365
4359,2139359,17020,-28,1020,17050.56,25.19,-1.00,-1.0,2451
4361,2139361,16976,36,1232,17020.68,25.19,-1.00,-1.0,2362
4364,2139364,17040,-56,1208,17082.86,25.19,-1.00,-1.0,2435
4367,2139367,16996,-4,1040,17027.79,25.19,-1.00,-1.0,2363
4370,2139370,17064,-44,1052,17096.45,25.28,-1.00,-1.0,2435
4372,2139372,17080,-140,1144,17118.84,25.19,-1.00,-1.0,2361
4375,2139375,16912,-28,1112,16948.54,25.19,-1.00,-1.0,2433
4378,2139378,17008,-12,1216,17051.42,25.14,-1.00,-1.0,2362
4383,2139383,17096,-32,880,17118.66,25.24,-1.00,-1.0,2442
4386,2139386,17080,-192,1060,17113.94,25.24,-1.00,-1.0,2368
4388,2139388,16956,-24,1056,16988.87,25.19,-1.00,-1.0,2359
4391,2139391,17032,-20,1004,17061.58,25.19,-1.00,-1.0,2427
4394,2139394,16996,-100,1016,17026.63,25.24,-1.00,-1.0,2369
4396,2139396,17008,8,1176,17048.61,25.19,-1.00,-1.0,2427
4399,2139399,16936,-236,1100,16973.33,25.33,-1.00,-1.0,2370
4402,2139402,16972,-104,1020,17002.94,25.24,-1.00,-1.0,2433
4405,2139405,17036,-44,1200,17078.27,25.24,-1.00,-1.0,2371
4410,2139410,17112,-144,1148,17151.07,25.19,-1.00,-1.0,2444
4412,2139412,17080,-60,1124,17117.05,25.19,-1.00,-1.0,2349
4415,2139415,16968,-36,1044,17000.12,25.19,-1.00,-1.0,2433
4418,2139418,17060,28,1076,17093.92,25.19,-1.00,-1.0,2427
4421,2139421,17164,-52,1224,17207.67,25.24,-1.00,-1.0,2434
4424,2139424,17048,64,1076,17082.04,25.24,-1.00,-1.0,2376
4426,2139426,16996,16,1112,17032.35,25.19,-1.00,-1.0,2360
4429,2139429,17020,-112,1008,17050.19,25.28,-1.00,-1.0,2429
4432,2139432,17060,-60,984,17088.46,25.24,-1.00,-1.0,2374
4437,2139437,16988,-8,1128,17025.41,25.19,-1.00,-1.0,2441
4439,2139439,17020,-80,1352,17073.80,25.19,-1.00,-1.0,2368
4442,2139442,16972,36,1236,17016.98,25.19,-1.00,-1.0,2433
4445,2139445,16984,-68,964,17011.47,25.19,-1.00,-1.0,2371
4448,2139448,17008,-68,1128,17045.50,25.28,-1.00,-1.0,2430
4450,2139450,17056,-4,1052,17088.41,25.19,-1.00,-1.0,2374
4453,2139453,17060,0,980,17088.12,25.19,-1.00,-1.0,2434
4456,2139456,17028,-28,1212,17071.10,25.24,-1.00,-1.0,2426
4459,2139459,17084,-76,1168,17124.05,25.19,-1.00,-1.0,2351
4464,2139464,16984,48,1104,17019.91,25.19,-1.00,-1.0,2442
4467,2139467,16984,4,1152,17023.03,25.19,-1.00,-1.0,2366
4469,2139469,17024,-8,1052,17056.47,25.28,-1.00,-1.0,2437
4472,2139472,17044,-160,1348,17097.97,25.28,-1.00,-1.0,2382
4475,2139475,17000,-200,1108,17037.24,25.19,-1.00,-1.0,2434
4478,2139478,17060,-136,1052,17092.95,25.19,-1.00,-1.0,2373
4480,2139480,17040,-56,1160,17079.53,25.19,-1.00,-1.0,2435
4483,2139483,17056,-32,1172,17096.25,25.19,-1.00,-1.0,2382
4488,2139488,16992,-28,1172,17032.39,25.14,-1.00,-1.0,2442
4491,2139491,16980,-148,1080,17014.96,25.14,-1.00,-1.0,2364
4494,2139494,16976,-120,1016,17006.80,25.19,-1.00,-1.0,2437
4496,2139496,17028,-44,1140,17066.17,25.24,-1.00,-1.0,2370
4499,2139499,16844,-72,1048,16876.72,25.24,-1.00,-1.0,2354
4502,2139502,16984,-204,1040,17017.04,25.19,-1.00,-1.0,2450
4504,2139504,17052,40,1184,17093.10,25.19,-1.00,-1.0,2377
4507,2139507,17112,16,1040,17143.58,25.19,-1.00,-1.0,2442
4510,2139510,17100,-24,1084,17134.34,25.05,-1.00,-1.0,2366
4515,2139515,17112,-192,1108,17148.91,25.14,-1.00,-1.0,2442
4518,2139518,16936,-48,1200,16978.53,25.14,-1.00,-1.0,2368
4520,2139520,17056,-68,1108,17092.09,25.24,-1.00,-1.0,2432
4523,2139523,16948,-44,1176,16988.81,25.24,-1.00,-1.0,2368
4526,2139526,16960,-176,1032,16992.28,25.24,-1.00,-1.0,2434
4529,2139529,17036,-128,1052,17068.93,25.28,-1.00,-1.0,2368
4531,2139531,17012,-28,1100,17047.55,25.33,-1.00,-1.0,2432
4534,2139534,17028,-60,1116,17064.64,25.19,-1.00,-1.0,2368
4537,2139537,17016,-12,1040,17047.76,25.14,-1.00,-1.0,2360
4542,2139542,17012,-124,1168,17052.50,25.24,-1.00,-1.0,2445
4545,2139545,17004,-116,1044,17036.41,25.14,-1.00,-1.0,2369
4547,2139547,16920,-40,1120,16957.08,25.24,-1.00,-1.0,2419
4550,2139550,17060,-92,1072,17093.89,25.24,-1.00,-1.0,2367
4553,2139553,16968,-44,1240,17013.30,25.14,-1.00,-1.0,2434
4556,2139556,16996,-184,1208,17039.87,25.14,-1.00,-1.0,2368
4558,2139558,17036,-92,1148,17074.88,25.14,-1.00,-1.0,2432
4561,2139561,17120,36,1068,17153.32,25.24,-1.00,-1.0,2370
4566,2139566,17028,-92,1056,17060.96,25.24,-1.00,-1.0,2452
4569,2139569,17004,-60,980,17032.32,25.19,-1.00,-1.0,2375
4572,2139572,17008,-148,1060,17041.64,25.24,-1.00,-1.0,2443
4574,2139574,17096,68,1096,17131.23,25.28,-1.00,-1.0,2377
4577,2139577,16992,20,1100,17027.58,25.24,-1.00,-1.0,2362
4580,2139580,16984,-72,1196,17026.21,25.24,-1.00,-1.0,2432
4582,2139582,16956,-44,1104,16991.96,25.24,-1.00,-1.0,2371
4585,2139585,16996,-52,1068,17029.60,25.24,-1.00,-1.0,2434
4588,2139588,17040,-20,1016,17070.27,25.19,-1.00,-1.0,2375
4593,2139593,16992,16,1188,17033.49,25.19,-1.00,-1.0,2442
4596,2139596,16912,-56,1128,16949.67,25.24,-1.00,-1.0,2376
4599,2139599,17024,-128,1096,17059.72,25.28,-1.00,-1.0,2433
4601,2139601,16968,-124,1036,17000.05,25.19,-1.00,-1.0,2367
4604,2139604,16992,-96,1184,17033.47,25.19,-1.00,-1.0,2433
4607,2139607,17020,-68,1184,17061.27,25.24,-1.00,-1.0,2375
4610,2139610,16988,-144,1036,17020.17,25.09,-1.00,-1.0,2433
4612,2139612,17072,-116,1012,17102.36,25.19,-1.00,-1.0,2367
4615,2139615,17036,-56,1236,17080.87,25.14,-1.00,-1.0,2374
4620,2139620,17024,-100,1088,17059.03,25.14,-1.00,-1.0,2443
4623,2139623,16980,60,1180,17021.06,25.24,-1.00,-1.0,2365
4625,2139625,17072,0,1104,17107.66,25.33,-1.00,-1.0,2434
4628,2139628,17040,-8,1112,17076.25,25.24,-1.00,-1.0,2382
4631,2139631,17068,52,1092,17102.98,25.33,-1.00,-1.0,2435
4634,2139634,17084,-152,1184,17125.65,25.14,-1.00,-1.0,2376
4636,2139636,17072,-36,1040,17103.69,25.14,-1.00,-1.0,2435
4639,2139639,17040,-120,1052,17072.87,25.14,-1.00,-1.0,2374
4644,2139644,17008,-4,1116,17044.57,25.14,-1.00,-1.0,2443
4647,2139647,17036,-72,1148,17074.79,25.14,-1.00,-1.0,2370
4649,2139649,17016,-44,1168,17056.10,25.19,-1.00,-1.0,2433
4652,2139652,16996,-188,1192,17038.79,25.24,-1.00,-1.0,2370
4655,2139655,17000,-124,1204,17043.03,25.14,-1.00,-1.0,2360
4657,2139657,17020,128,1172,17060.79,25.19,-1.00,-1.0,2435
4660,2139660,16988,52,1044,17020.13,25.19,-1.00,-1.0,2368
4663,2139663,17052,12,1160,17091.41,25.19,-1.00,-1.0,2433
4666,2139666,16976,-160,1076,17010.82,25.14,-1.00,-1.0,2368
4671,2139671,16948,-160,1172,16989.23,25.14,-1.00,-1.0,2443
4674,2139674,16992,60,1116,17028.71,25.28,-1.00,-1.0,2368
4677,2139677,17020,24,1092,17055.01,25.24,-1.00,-1.0,2440
4679,2139679,17124,8,1024,17154.59,25.19,-1.00,-1.0,2369
4682,2139682,16992,-80,1228,17036.50,25.24,-1.00,-1.0,2450
4685,2139685,17072,-76,972,17099.82,25.14,-1.00,-1.0,2368
4688,2139688,17012,-40,1108,17048.09,25.14,-1.00,-1.0,2363
4690,2139690,17068,24,1048,17100.16,25.19,-1.00,-1.0,2440
4693,2139693,16976,48,1184,17017.31,25.19,-1.00,-1.0,2368
4698,2139698,17060,-112,1208,17103.08,25.19,-1.00,-1.0,2450
4701,2139701,17088,-100,1048,17120.40,25.14,-1.00,-1.0,2371
4704,2139704,17028,-92,1232,17072.76,25.14,-1.00,-1.0,2446
4706,2139706,17012,100,1244,17057.72,25.24,-1.00,-1.0,2375
4709,2139709,17064,28,1072,17097.66,25.19,-1.00,-1.0,2441
4712,2139712,17068,-112,1128,17105.60,25.24,-1.00,-1.0,2372
4715,2139715,16972,-176,936,16998.70,25.24,-1.00,-1.0,2444
4717,2139717,17072,-76,1096,17107.31,25.24,-1.00,-1.0,2378
4722,2139722,17096,0,1172,17136.12,25.24,-1.00,-1.0,2441
4725,2139725,17016,-148,1224,17060.61,25.28,-1.00,-1.0,2426
4728,2139728,16944,-96,1112,16980.72,25.14,-1.00,-1.0,2372
4731,2139731,17132,-144,1112,17168.65,25.05,-1.00,-1.0,2447
4733,2139733,16964,-60,1020,16994.74,25.24,-1.00,-1.0,2377
4736,2139736,17020,-44,1112,17056.34,25.28,-1.00,-1.0,2443
4739,2139739,17088,-44,1188,17129.30,25.14,-1.00,-1.0,2379
4742,2139742,16948,-52,1080,16982.46,25.24,-1.00,-1.0,2439
4744,2139744,17028,-80,1132,17065.77,25.14,-1.00,-1.0,2377
4749,2139749,17040,52,1140,17078.17,25.33,-1.00,-1.0,2437
4752,2139752,17004,-16,1076,17038.02,25.24,-1.00,-1.0,2366
4755,2139755,17088,-180,1184,17129.92,25.14,-1.00,-1.0,2448
4757,2139757,16904,-132,1164,16944.54,25.24,-1.00,-1.0,2368
4760,2139760,16928,-64,1112,16964.61,25.14,-1.00,-1.0,2437
4763,2139763,17088,76,1144,17126.42,25.14,-1.00,-1.0,2368
4766,2139766,17068,8,1108,17103.93,25.14,-1.00,-1.0,2360
4768,2139768,17000,-184,1224,17045.00,25.19,-1.00,-1.0,2449
4771,2139771,17072,-76,1196,17114.01,25.14,-1.00,-1.0,2369
4776,2139776,17016,-12,1068,17049.49,25.24,-1.00,-1.0,2437
4779,2139779,16984,108,1232,17028.97,25.19,-1.00,-1.0,2368
4782,2139782,16980,-32,1064,17013.33,25.24,-1.00,-1.0,2444
4784,2139784,17052,-240,1192,17095.30,25.09,-1.00,-1.0,2370
4787,2139787,17064,-172,1164,17104.52,25.14,-1.00,-1.0,2433
4790,2139790,17136,16,1076,17169.76,25.28,-1.00,-1.0,2368
4793,2139793,17044,20,1184,17085.09,25.14,-1.00,-1.0,2431
4795,2139795,16888,60,1160,16927.90,25.19,-1.00,-1.0,2375
4800,2139800,17048,-120,1232,17092.88,25.28,-1.00,-1.0,2446
4803,2139803,17012,-104,940,17038.27,25.28,-1.00,-1.0,2373
4806,2139806,16992,4,1128,17029.40,25.19,-1.00,-1.0,2359
4808,2139808,16988,8,1080,17022.30,25.24,-1.00,-1.0,2439
4811,2139811,16964,-52,1052,16996.67,25.28,-1.00,-1.0,2371
4814,2139814,16988,-164,1064,17022.08,25.14,-1.00,-1.0,2432
4817,2139817,17040,-180,1092,17075.90,25.28,-1.00,-1.0,2368
4819,2139819,16964,4,1068,16997.59,25.14,-1.00,-1.0,2435
4822,2139822,17060,8,1148,17098.58,25.28,-1.00,-1.0,2372
4827,2139827,16996,-76,1008,17026.04,25.19,-1.00,-1.0,2447
4830,2139830,17056,-228,944,17083.62,25.19,-1.00,-1.0,2374
4833,2139833,16948,-60,1080,16982.48,25.24,-1.00,-1.0,2466
4835,2139835,17020,136,916,17045.17,25.24,-1.00,-1.0,2366
4838,2139838,17008,48,1096,17043.34,25.19,-1.00,-1.0,2360
4841,2139841,17028,104,1164,17068.05,25.19,-1.00,-1.0,2445
4843,2139843,16964,-140,1152,17003.65,25.14,-1.00,-1.0,2363
4846,2139846,17004,-20,1032,17035.30,25.24,-1.00,-1.0,2446
4849,2139849,17004,-60,1092,17039.13,25.19,-1.00,-1.0,2368
4854,2139854,17112,-132,1052,17144.81,25.24,-1.00,-1.0,2453
4857,2139857,16940,-108,1024,16971.27,25.19,-1.00,-1.0,2371
4860,2139860,17028,-104,984,17056.72,25.24,-1.00,-1.0,2455
4862,2139862,16992,128,1088,17027.28,25.28,-1.00,-1.0,2373
4865,2139865,16984,40,1320,17035.27,25.14,-1.00,-1.0,2443
4868,2139868,17024,-168,1056,17057.55,25.19,-1.00,-1.0,2366
4871,2139871,16960,-28,1052,16992.62,25.24,-1.00,-1.0,2449
4873,2139873,16996,-124,1108,17032.53,25.14,-1.00,-1.0,2372
4876,2139876,16920,-72,1096,16955.61,25.24,-1.00,-1.0,2368
4881,2139881,17020,-16,1248,17065.70,25.19,-1.00,-1.0,2440
4884,2139884,16996,-136,1028,17027.60,25.19,-1.00,-1.0,2364
4887,2139887,17020,-156,1096,17055.96,25.09,-1.00,-1.0,2449
4889,2139889,16992,-96,1096,17027.58,25.19,-1.00,-1.0,2365
4892,2139892,16980,-84,1000,17009.63,25.28,-1.00,-1.0,2437
4895,2139895,16980,-8,1192,17021.79,25.28,-1.00,-1.0,2364
4898,2139898,16968,0,1268,17015.31,25.19,-1.00,-1.0,2441
4900,2139900,17088,-72,1072,17121.74,25.14,-1.00,-1.0,2364
4905,2139905,17028,-100,1100,17063.79,25.24,-1.00,-1.0,2440
4908,2139908,17064,-108,940,17090.21,25.24,-1.00,-1.0,2351
4911,2139911,16996,4,1108,17032.08,25.24,-1.00,-1.0,2442
4914,2139914,17048,-16,1060,17080.93,25.24,-1.00,-1.0,2361
4916,2139916,16936,-124,1052,16969.10,25.19,-1.00,-1.0,2360
4919,2139919,17024,-80,984,17052.60,25.19,-1.00,-1.0,2435
4922,2139922,16936,4,1036,16967.66,25.24,-1.00,-1.0,2365
4924,2139924,17040,-16,1044,17071.96,25.24,-1.00,-1.0,2437
4927,2139927,16992,-24,1136,17029.95,25.14,-1.00,-1.0,2366
4932,2139932,16980,-124,1088,17015.27,25.24,-1.00,-1.0,2449
4935,2139935,16920,-200,1172,16961.72,25.24,-1.00,-1.0,2378
4938,2139938,16976,-8,1088,17010.83,25.24,-1.00,-1.0,2444
4941,2139941,17012,-48,1224,17056.04,25.33,-1.00,-1.0,2371
4943,2139943,17044,-124,1072,17078.13,25.24,-1.00,-1.0,2443
4946,2139946,16980,-52,984,17008.57,25.24,-1.00,-1.0,2380
4949,2139949,17044,-176,1188,17086.26,25.24,-1.00,-1.0,2440
4952,2139952,16944,-112,1252,16990.56,25.24,-1.00,-1.0,2368
4954,2139954,17028,-48,1084,17062.54,25.24,-1.00,-1.0,2360
4959,2139959,17040,-120,920,17065.24,25.14,-1.00,-1.0,2443
4962,2139962,17080,-144,1200,17122.71,25.14,-1.00,-1.0,2379
4965,2139965,16968,-136,1076,17002.63,25.19,-1.00,-1.0,2443
4968,2139968,17004,-8,1088,17038.77,25.24,-1.00,-1.0,2368
4970,2139970,17028,-24,1212,17071.10,25.24,-1.00,-1.0,2439
4973,2139973,17036,-84,1136,17074.04,25.24,-1.00,-1.0,2379
4976,2139976,17072,-144,1152,17111.43,25.19,-1.00,-1.0,2437
4979,2139979,16984,-64,1076,17018.17,25.14,-1.00,-1.0,2370
4984,2139984,16960,16,1128,16997.48,25.24,-1.00,-1.0,2440
4986,2139986,17068,-136,1152,17107.37,25.14,-1.00,-1.0,2368
4989,2139989,17128,-68,1180,17168.73,25.24,-1.00,-1.0,2440
4992,2139992,16996,-232,1128,17034.97,25.24,-1.00,-1.0,2371
4994,2139994,17056,-80,1136,17093.98,25.24,-1.00,-1.0,2369
4997,2139997,17056,80,1164,17095.86,25.28,-1.00,-1.0,2431
5000,2140000,17024,28,1200,17066.26,25.24,-1.00,-1.0,2372
5003,2140003,17020,-120,1216,17063.80,25.28,-1.00,-1.0,2450
5005,2140005,17000,-52,1028,17031.13,25.14,-1.00,-1.0,2363
5010,2140010,16956,-92,1192,16998.10,25.19,-1.00,-1.0,2440
5013,2140013,17060,-16,1164,17099.67,25.19,-1.00,-1.0,2364
5016,2140016,17056,-64,1060,17089.03,25.19,-1.00,-1.0,2441
5019,2140019,17088,-116,1220,17131.89,25.19,-1.00,-1.0,2364
5021,2140021,16952,-52,1160,16991.72,25.19,-1.00,-1.0,2435
5024,2140024,16988,-68,1068,17021.67,25.19,-1.00,-1.0,2352
5027,2140027,17048,-52,1096,17083.27,25.19,-1.00,-1.0,2439
5030,2140030,17064,-148,1164,17104.29,25.28,-1.00,-1.0,2368
5032,2140032,17072,-108,1104,17108.00,25.24,-1.00,-1.0,2359
5050,2140050,17032,-84,1084,17066.67,25.19,-1.00,-1.0,2458
5052,2140052,17044,-80,1228,17088.37,25.24,-1.00,-1.0,2377
5055,2140055,17088,-164,1104,17124.41,25.19,-1.00,-1.0,2445
5058,2140058,16992,-80,996,17021.35,25.19,-1.00,-1.0,2370
5061,2140061,17044,-52,1156,17083.24,25.28,-1.00,-1.0,2444
5063,2140063,17040,-44,1224,17083.96,25.28,-1.00,-1.0,2376
5066,2140066,16904,-20,1176,16944.87,25.09,-1.00,-1.0,2447
5069,2140069,16936,-44,1084,16970.71,25.28,-1.00,-1.0,2367
5074,2140074,17004,-48,1096,17039.35,25.19,-1.00,-1.0,2445
5076,2140076,17040,-116,908,17064.57,25.19,-1.00,-1.0,2373
5079,2140079,17048,0,1112,17084.23,25.14,-1.00,-1.0,2437
5082,2140082,16992,180,1164,17032.77,25.19,-1.00,-1.0,2366
5084,2140084,17056,-108,1128,17093.60,25.24,-1.00,-1.0,2359
5087,2140087,16984,-76,1048,17016.47,25.14,-1.00,-1.0,2422
5090,2140090,17104,-52,1160,17143.37,25.28,-1.00,-1.0,2367
5093,2140093,16992,-112,956,17019.24,25.33,-1.00,-1.0,2435
5095,2140095,16940,-24,1056,16972.90,25.19,-1.00,-1.0,2371
5100,2140100,17036,-36,1224,17079.95,25.28,-1.00,-1.0,2455
5103,2140103,16988,-52,1116,17024.70,25.19,-1.00,-1.0,2370
5106,2140106,16896,-112,1056,16929.34,25.19,-1.00,-1.0,2431
5109,2140109,17064,-104,1048,17096.47,25.19,-1.00,-1.0,2364
5111,2140111,17056,-128,1100,17091.91,25.19,-1.00,-1.0,2448
5114,2140114,16992,-108,996,17021.51,25.28,-1.00,-1.0,2366
5117,2140117,16944,36,1144,16982.61,25.28,-1.00,-1.0,2443
5119,2140119,17064,-120,1016,17094.64,25.19,-1.00,-1.0,2364
5122,2140122,16984,-176,1100,17020.49,25.28,-1.00,-1.0,2376
5127,2140127,17060,-40,1124,17097.03,25.19,-1.00,-1.0,2443
5130,2140130,16956,-4,1172,16996.46,25.28,-1.00,-1.0,2374
5133,2140133,17020,-28,1112,17056.31,25.19,-1.00,-1.0,2437
5135,2140135,16832,-52,1104,16868.25,25.24,-1.00,-1.0,2365
5138,2140138,16980,-136,1136,17018.50,25.19,-1.00,-1.0,2435
5141,2140141,16984,-96,1148,17023.03,25.24,-1.00,-1.0,2365
5143,2140143,17048,-156,1096,17083.91,25.28,-1.00,-1.0,2437
5146,2140146,16992,84,1120,17029.08,25.24,-1.00,-1.0,2364
5151,2140151,16992,-196,984,17021.60,25.24,-1.00,-1.0,2451
5154,2140154,16976,-152,952,17003.35,25.24,-1.00,-1.0,2368
5157,2140157,17000,-100,1120,17037.15,25.14,-1.00,-1.0,2432
5159,2140159,17020,0,1192,17061.69,25.24,-1.00,-1.0,2372
5162,2140162,17016,-8,972,17043.74,25.24,-1.00,-1.0,2360
5165,2140165,17088,-64,992,17116.89,25.28,-1.00,-1.0,2441
5167,2140167,16976,-128,956,17003.38,25.24,-1.00,-1.0,2367
5170,2140170,17044,-40,1120,17080.81,25.24,-1.00,-1.0,2438
5173,2140173,16956,-12,1060,16989.11,25.24,-1.00,-1.0,2367
5178,2140178,16968,-40,1116,17004.71,25.14,-1.00,-1.0,2453
5181,2140181,16988,-172,1200,17031.20,25.24,-1.00,-1.0,2371
5183,2140183,17040,-44,1084,17074.50,25.24,-1.00,-1.0,2447
5186,2140186,17088,-16,972,17115.63,25.24,-1.00,-1.0,2379
5189,2140189,16996,116,1252,17042.45,25.14,-1.00,-1.0,2424
5192,2140192,17044,-40,1120,17080.81,25.28,-1.00,-1.0,2365
5194,2140194,16952,36,1096,16987.43,25.14,-1.00,-1.0,2449
5197,2140197,16984,-144,1220,17028.37,25.24,-1.00,-1.0,2372
5200,2140200,17044,-104,1088,17079.01,25.24,-1.00,-1.0,2362
5205,2140205,17036,84,916,17060.81,25.24,-1.00,-1.0,2445
5207,2140207,17020,52,1132,17057.68,25.24,-1.00,-1.0,2366
5210,2140210,17012,-20,1048,17044.26,25.24,-1.00,-1.0,2451
5213,2140213,17004,-24,1096,17039.30,25.24,-1.00,-1.0,2376
5216,2140216,16968,-104,1060,17001.39,25.24,-1.00,-1.0,2450
5218,2140218,16984,-52,1104,17019.92,25.24,-1.00,-1.0,2369
5221,2140221,16996,-104,1132,17033.97,25.24,-1.00,-1.0,2451
5224,2140224,17056,-64,1144,17094.44,25.33,-1.00,-1.0,2373
5229,2140229,16956,-164,1200,16999.20,25.19,-1.00,-1.0,2450
5231,2140231,17048,-44,1136,17085.86,25.28,-1.00,-1.0,2365
5234,2140234,17000,72,1128,17037.53,25.14,-1.00,-1.0,2440
5237,2140237,17012,-68,1076,17046.13,25.19,-1.00,-1.0,2364
5239,2140239,17076,-96,1076,17110.14,25.24,-1.00,-1.0,2360
5242,2140242,16980,-144,1112,17016.98,25.14,-1.00,-1.0,2443
5245,2140245,17024,-68,1060,17057.10,25.19,-1.00,-1.0,2365
5248,2140248,17044,-52,1008,17073.86,25.24,-1.00,-1.0,2447
5250,2140250,17020,-44,1148,17058.73,25.28,-1.00,-1.0,2351
5255,2140255,17072,-8,1136,17109.76,25.14,-1.00,-1.0,2446
5258,2140258,16992,-44,1112,17028.40,25.24,-1.00,-1.0,2365
5261,2140261,17040,-80,1048,17072.38,25.24,-1.00,-1.0,2446
5263,2140263,17084,-56,1296,17133.18,25.19,-1.00,-1.0,2351
5266,2140266,16892,-48,1120,16929.16,25.14,-1.00,-1.0,2436
5269,2140269,17028,-24,928,17053.29,25.19,-1.00,-1.0,2365
5271,2140271,17032,-72,1132,17069.73,25.33,-1.00,-1.0,2361
5274,2140274,16988,-64,936,17013.89,25.33,-1.00,-1.0,2437
5277,2140277,17008,-120,1140,17046.59,25.14,-1.00,-1.0,2366
5282,2140282,17028,-84,1272,17075.65,25.24,-1.00,-1.0,2450
5284,2140284,17036,-88,1136,17074.06,25.24,-1.00,-1.0,2364
5287,2140287,17024,-128,880,17047.21,25.14,-1.00,-1.0,2440
5290,2140290,17060,-92,1164,17099.91,25.24,-1.00,-1.0,2365
5293,2140293,17080,-44,1120,17116.74,25.24,-1.00,-1.0,2441
5295,2140295,17084,-4,1000,17113.24,25.28,-1.00,-1.0,2364
5298,2140298,16920,-120,1068,16954.10,25.24,-1.00,-1.0,2440
5301,2140301,17040,-28,1128,17077.32,25.19,-1.00,-1.0,2353
5306,2140306,17008,-76,1156,17047.41,25.19,-1.00,-1.0,2444
5309,2140309,16952,-12,1332,17004.25,25.28,-1.00,-1.0,2365
5311,2140311,16972,-156,1044,17004.79,25.19,-1.00,-1.0,2360
5314,2140314,17068,-104,1112,17104.50,25.24,-1.00,-1.0,2436
5317,2140317,17084,-64,1148,17122.65,25.28,-1.00,-1.0,2366
5319,2140319,16940,-108,1080,16974.74,25.24,-1.00,-1.0,2433
5322,2140322,17056,-20,1100,17091.45,25.28,-1.00,-1.0,2368
5325,2140325,17104,4,1088,17138.57,25.24,-1.00,-1.0,2436
5328,2140328,17064,16,1172,17104.21,25.19,-1.00,-1.0,2367
5333,2140333,17040,-80,1120,17076.96,25.28,-1.00,-1.0,2450
5335,2140335,17008,84,1136,17046.10,25.28,-1.00,-1.0,2368
5338,2140338,17060,-56,1184,17101.13,25.19,-1.00,-1.0,2446
5341,2140341,16980,-20,1280,17028.19,25.19,-1.00,-1.0,2374
5344,2140344,17056,-24,1052,17088.43,25.19,-1.00,-1.0,2442
5346,2140346,16988,-100,1172,17028.67,25.19,-1.00,-1.0,2371
5349,2140349,16976,-88,1112,17012.61,25.28,-1.00,-1.0,2363
5352,2140352,16964,-8,1112,17000.41,25.24,-1.00,-1.0,2443
5354,2140354,17072,-100,1148,17110.85,25.28,-1.00,-1.0,2374
5359,2140359,16992,-112,1168,17032.46,25.19,-1.00,-1.0,2451
5362,2140362,17012,-60,1152,17051.07,25.28,-1.00,-1.0,2373
5365,2140365,16976,52,1084,17010.65,25.19,-1.00,-1.0,2439
5368,2140368,16948,-60,960,16975.27,25.19,-1.00,-1.0,2366
5370,2140370,17016,-156,1120,17053.53,25.19,-1.00,-1.0,2447
5373,2140373,16964,-120,1016,16994.82,25.14,-1.00,-1.0,2374
5376,2140376,17120,16,1068,17153.29,25.19,-1.00,-1.0,2444
5379,2140379,17056,16,1192,17097.61,25.19,-1.00,-1.0,2366
5383,2140383,17012,-180,1012,17043.03,25.19,-1.00,-1.0,2443
5386,2140386,17020,-256,1028,17052.94,25.24,-1.00,-1.0,2365
5389,2140389,16976,-104,940,17002.32,25.19,-1.00,-1.0,2366
5392,2140392,16992,32,1164,17031.85,25.28,-1.00,-1.0,2453
5394,2140394,16956,20,1116,16992.70,25.19,-1.00,-1.0,2370
5397,2140397,17008,-120,1040,17040.19,25.28,-1.00,-1.0,2448
5400,2140400,17160,-132,1120,17197.02,25.19,-1.00,-1.0,2373
5403,2140403,17004,-148,1096,17039.93,25.24,-1.00,-1.0,2451
5405,2140405,16960,8,1144,16998.54,25.19,-1.00,-1.0,2372
5410,2140410,17028,-40,1064,17061.26,25.19,-1.00,-1.0,2446
5413,2140413,17004,-124,1072,17038.21,25.24,-1.00,-1.0,2365
5416,2140416,17044,-144,1216,17087.93,25.19,-1.00,-1.0,2444
5418,2140418,17084,-72,1208,17126.81,25.19,-1.00,-1.0,2353
5421,2140421,16960,68,1104,16996.03,25.19,-1.00,-1.0,2436
5424,2140424,16964,0,1104,16999.88,25.24,-1.00,-1.0,2368
5426,2140426,17084,0,1168,17123.88,25.28,-1.00,-1.0,2360
5429,2140429,17128,-64,1064,17161.13,25.19,-1.00,-1.0,2442
5432,2140432,16928,-28,1088,16962.95,25.33,-1.00,-1.0,2366
5437,2140437,16984,52,1256,17030.46,25.24,-1.00,-1.0,2442
5440,2140440,17020,-16,1216,17063.39,25.14,-1.00,-1.0,2369
5443,2140443,16972,-140,1092,17007.67,25.24,-1.00,-1.0,2430
5445,2140445,16972,-40,1068,17005.62,25.24,-1.00,-1.0,2373
5448,2140448,16960,-40,984,16988.57,25.24,-1.00,-1.0,2434
5451,2140451,16964,0,1140,17002.26,25.24,-1.00,-1.0,2370
5454,2140454,17156,-76,1120,17192.69,25.33,-1.00,-1.0,2445
5456,2140456,17032,-20,1088,17066.73,25.24,-1.00,-1.0,2374
5459,2140459,16956,4,1180,16997.01,25.14,-1.00,-1.0,2363
5464,2140464,17076,-8,1260,17122.43,25.19,-1.00,-1.0,2442
5466,2140466,17012,-20,1192,17053.72,25.19,-1.00,-1.0,2365
5469,2140469,17020,-44,1168,17060.09,25.28,-1.00,-1.0,2423
5472,2140472,16964,-172,1008,16994.79,25.14,-1.00,-1.0,2367
5475,2140475,16908,-112,1068,16942.07,25.19,-1.00,-1.0,2433
5477,2140477,17028,-32,1212,17071.11,25.24,-1.00,-1.0,2373
5480,2140480,17080,-36,1204,17122.42,25.28,-1.00,-1.0,2437
5483,2140483,17060,-132,1068,17093.91,25.24,-1.00,-1.0,2367
5488,2140488,16976,-208,1200,17019.63,25.24,-1.00,-1.0,2447
5490,2140490,17064,-32,1104,17099.71,25.24,-1.00,-1.0,2372
5493,2140493,17128,-24,1128,17165.12,25.19,-1.00,-1.0,2436
5496,2140496,16952,-40,1068,16985.66,25.24,-1.00,-1.0,2368
5498,2140498,16984,-140,1080,17018.88,25.19,-1.00,-1.0,2361
5501,2140501,17112,-228,1220,17156.95,25.19,-1.00,-1.0,2433
5504,2140504,17068,-32,1188,17109.32,25.14,-1.00,-1.0,2368
5507,2140507,17104,-36,1080,17138.10,25.28,-1.00,-1.0,2434
5509,2140509,16984,-44,900,17007.89,25.28,-1.00,-1.0,2367
5514,2140514,16860,-120,1148,16899.46,25.24,-1.00,-1.0,2455
5517,2140517,16984,-88,1288,17033.00,25.24,-1.00,-1.0,2373
5520,2140520,17116,-68,1124,17153.00,25.33,-1.00,-1.0,2425
5523,2140523,16992,-132,1076,17026.54,25.24,-1.00,-1.0,2366
5525,2140525,16968,-184,1164,17008.87,25.24,-1.00,-1.0,2445
5528,2140528,17080,-148,1056,17113.25,25.24,-1.00,-1.0,2366
5531,2140531,16980,-176,1176,17021.58,25.14,-1.00,-1.0,2442
5533,2140533,16972,-80,1048,17004.51,25.24,-1.00,-1.0,2365
5538,2140538,17040,-28,1116,17076.53,25.28,-1.00,-1.0,2444
5541,2140541,17000,-136,1012,17030.64,25.28,-1.00,-1.0,2366
5544,2140544,17084,-16,1088,17118.62,25.24,-1.00,-1.0,2368
5547,2140547,17084,-32,1056,17116.63,25.14,-1.00,-1.0,2436
5549,2140549,17132,-8,1148,17170.42,25.24,-1.00,-1.0,2366
5552,2140552,17088,72,1000,17117.39,25.24,-1.00,-1.0,2433
5555,2140555,17040,-156,1092,17075.67,25.28,-1.00,-1.0,2365
5557,2140557,16996,-184,1156,17036.26,25.14,-1.00,-1.0,2440
5560,2140560,16976,-20,1140,17014.25,25.19,-1.00,-1.0,2367
5565,2140565,17096,-96,1120,17132.92,25.19,-1.00,-1.0,2442
5568,2140568,17036,-48,1104,17071.80,25.28,-1.00,-1.0,2368
5571,2140571,17020,-152,1088,17055.42,25.28,-1.00,-1.0,2431
5573,2140573,17072,-88,1060,17105.10,25.09,-1.00,-1.0,2373
5576,2140576,17016,-120,1196,17058.40,25.38,-1.00,-1.0,2434
5579,2140579,16960,-76,1048,16992.52,25.24,-1.00,-1.0,2370
5581,2140581,16992,-108,964,17019.67,25.28,-1.00,-1.0,2359
5584,2140584,17016,-92,1252,17062.25,25.14,-1.00,-1.0,2436
5587,2140587,16936,-80,1076,16970.34,25.19,-1.00,-1.0,2369
5592,2140592,17012,-16,1068,17045.50,25.28,-1.00,-1.0,2451
5595,2140595,17020,-40,1264,17066.92,25.19,-1.00,-1.0,2371
5597,2140597,16912,-108,1104,16948.34,25.19,-1.00,-1.0,2447
5600,2140600,17020,-216,1124,17058.44,25.28,-1.00,-1.0,2382
5603,2140603,17024,16,1128,17061.34,25.19,-1.00,-1.0,2437
5606,2140606,16960,-52,1088,16994.94,25.19,-1.00,-1.0,2372
5608,2140608,16936,32,1316,16987.08,25.28,-1.00,-1.0,2446
5611,2140611,17064,-4,1020,17094.46,25.19,-1.00,-1.0,2374
5616,2140616,16964,-96,1188,17005.82,25.24,-1.00,-1.0,2442
5619,2140619,16988,-52,1052,17020.62,25.14,-1.00,-1.0,2372
5621,2140621,16992,-4,1120,17028.87,25.19,-1.00,-1.0,2366
5624,2140624,17040,-76,1132,17077.73,25.19,-1.00,-1.0,2450
5627,2140627,17060,-60,1208,17102.82,25.24,-1.00,-1.0,2371
5630,2140630,16988,8,1164,17027.83,25.19,-1.00,-1.0,2449
5632,2140632,17048,-64,960,17075.13,25.19,-1.00,-1.0,2365
5635,2140635,17028,-116,1196,17070.34,25.19,-1.00,-1.0,2454
5638,2140638,17016,-72,1260,17062.74,25.24,-1.00,-1.0,2374
5643,2140643,16956,-96,1044,16988.38,25.14,-1.00,-1.0,2449
5645,2140645,16932,-132,1272,16980.22,25.24,-1.00,-1.0,2363
5648,2140648,16920,-120,1080,16954.86,25.19,-1.00,-1.0,2438
5651,2140651,16928,-68,1264,16975.26,25.24,-1.00,-1.0,2365
5654,2140654,16960,-164,1172,17001.24,25.24,-1.00,-1.0,2442
5656,2140656,16996,-32,1128,17033.42,25.24,-1.00,-1.0,2364
5659,2140659,17028,-148,1008,17058.45,25.28,-1.00,-1.0,2360
5662,2140662,16984,-24,924,17009.13,25.28,-1.00,-1.0,2444
5664,2140664,17060,32,1156,17099.15,25.24,-1.00,-1.0,2351
5669,2140669,17012,-36,1184,17053.19,25.19,-1.00,-1.0,2443
5672,2140672,17064,-100,1228,17108.42,25.28,-1.00,-1.0,2364
5675,2140675,17016,-48,1008,17045.90,25.19,-1.00,-1.0,2445
5677,2140677,16952,-40,1040,16983.92,25.14,-1.00,-1.0,2352
5680,2140680,16956,-108,1236,17001.33,25.19,-1.00,-1.0,2435
5683,2140683,17012,-104,1080,17046.56,25.33,-1.00,-1.0,2367
5686,2140686,17008,-180,1124,17046.05,25.24,-1.00,-1.0,2444
5688,2140688,16984,-152,1264,17031.65,25.24,-1.00,-1.0,2365
5693,2140693,17036,-32,1064,17069.22,25.19,-1.00,-1.0,2442
5696,2140696,16980,-144,1284,17029.09,25.14,-1.00,-1.0,2351
5698,2140698,16944,-212,1024,16976.24,25.19,-1.00,-1.0,2346
5701,2140701,16912,-132,1176,16953.35,25.19,-1.00,-1.0,2440
5704,2140704,16992,-80,1196,17034.23,25.09,-1.00,-1.0,2365
5707,2140707,17032,-100,1168,17072.29,25.19,-1.00,-1.0,2442
5709,2140709,17028,-128,1180,17069.32,25.24,-1.00,-1.0,2363
5712,2140712,16996,-68,1120,17033.00,25.19,-1.00,-1.0,2438
5715,2140715,17056,-60,1152,17094.96,25.24,-1.00,-1.0,2352
5720,2140720,16964,-92,1080,16998.59,25.24,-1.00,-1.0,2445
5723,2140723,17056,20,1104,17091.71,25.24,-1.00,-1.0,2361
5725,2140725,16920,-20,1144,16958.64,25.24,-1.00,-1.0,2441
5728,2140728,16912,-96,1132,16950.12,25.24,-1.00,-1.0,2380
5731,2140731,17060,-44,968,17087.50,25.14,-1.00,-1.0,2434
5734,2140734,17040,-56,908,17064.27,25.33,-1.00,-1.0,2369
5736,2140736,17020,-188,1060,17054.01,25.14,-1.00,-1.0,2359
5739,2140739,17008,-124,1280,17056.55,25.19,-1.00,-1.0,2437
5742,2140742,17068,32,1264,17114.77,25.24,-1.00,-1.0,2365
5747,2140747,16976,-44,1108,17012.18,25.14,-1.00,-1.0,2447
5749,2140749,17020,-136,1140,17058.68,25.14,-1.00,-1.0,2366
5752,2140752,16956,-108,1212,16999.60,25.14,-1.00,-1.0,2447
5755,2140755,16956,-64,1120,16993.07,25.24,-1.00,-1.0,2372
5758,2140758,17060,32,1224,17103.88,25.24,-1.00,-1.0,2443
5760,2140760,17036,60,1120,17072.88,25.24,-1.00,-1.0,2366
5763,2140763,17032,-40,1068,17065.50,25.24,-1.00,-1.0,2451
5766,2140766,16964,-84,948,16990.68,25.24,-1.00,-1.0,2371
5771,2140771,16960,-96,1060,16993.36,25.24,-1.00,-1.0,2445
5773,2140773,16984,-4,1196,17026.06,25.38,-1.00,-1.0,2363
5776,2140776,16964,-160,1168,17004.91,25.33,-1.00,-1.0,2367
5779,2140779,17012,-40,992,17040.95,25.14,-1.00,-1.0,2445
5782,2140782,17016,-128,1104,17052.26,25.33,-1.00,-1.0,2365
5784,2140784,17064,-20,1100,17099.43,25.24,-1.00,-1.0,2450
5787,2140787,16936,-104,1144,16974.91,25.14,-1.00,-1.0,2364
5790,2140790,17000,-204,1044,17033.25,25.24,-1.00,-1.0,2445
5792,2140792,17024,-140,1124,17061.64,25.24,-1.00,-1.0,2365
5797,2140797,16988,-4,1044,17020.05,25.24,-1.00,-1.0,2443
5800,2140800,17040,-52,1104,17075.80,25.28,-1.00,-1.0,2364
5803,2140803,17108,-172,1132,17146.27,25.14,-1.00,-1.0,2437
5806,2140806,17068,80,1076,17102.07,25.19,-1.00,-1.0,2365
5808,2140808,17140,40,1024,17170.61,25.28,-1.00,-1.0,2422
5811,2140811,16984,124,1168,17024.57,25.19,-1.00,-1.0,2364
5814,2140814,16972,-52,1096,17007.43,25.14,-1.00,-1.0,2367
5817,2140817,17124,-160,1068,17158.02,25.24,-1.00,-1.0,2438
5819,2140819,16896,-88,1004,16926.03,25.19,-1.00,-1.0,2365
5824,2140824,16984,-64,1252,17030.21,25.28,-1.00,-1.0,2443
5827,2140827,17028,-8,1116,17064.53,25.19,-1.00,-1.0,2366
5830,2140830,16996,-108,1044,17028.38,25.05,-1.00,-1.0,2444
5832,2140832,16956,-40,1040,16987.91,25.28,-1.00,-1.0,2366
5835,2140835,17124,-108,1108,17160.15,25.28,-1.00,-1.0,2435
5838,2140838,17032,-44,1104,17067.80,25.28,-1.00,-1.0,2363
5841,2140841,16988,-104,996,17017.49,25.19,-1.00,-1.0,2438
5843,2140843,17028,-56,1040,17059.82,25.19,-1.00,-1.0,2367
5849,2140849,17056,-8,1040,17087.68,25.24,-1.00,-1.0,2443
5851,2140851,16976,60,1180,17017.07,25.24,-1.00,-1.0,2364
5854,2140854,17052,-80,1268,17099.27,25.28,-1.00,-1.0,2363
5857,2140857,16936,-68,1192,16978.03,25.28,-1.00,-1.0,2450
5859,2140859,17036,-196,1164,17076.84,25.28,-1.00,-1.0,2374
5862,2140862,17028,-124,1236,17073.25,25.19,-1.00,-1.0,2444
5865,2140865,17028,60,1072,17061.82,25.19,-1.00,-1.0,2371
5868,2140868,16984,36,1096,17019.37,25.28,-1.00,-1.0,2450
5870,2140870,17016,-76,1072,17049.90,25.19,-1.00,-1.0,2375
5877,2140877,17024,-36,1136,17061.90,25.19,-1.00,-1.0,2452
5880,2140880,17124,-20,1144,17162.18,25.28,-1.00,-1.0,2367
5883,2140883,17020,-16,1068,17053.48,25.28,-1.00,-1.0,2449
5885,2140885,17020,-100,920,17045.14,25.19,-1.00,-1.0,2373
5888,2140888,16888,-236,992,16918.76,25.28,-1.00,-1.0,2443
5891,2140891,17004,-52,1040,17035.85,25.19,-1.00,-1.0,2371
5893,2140893,17048,40,1016,17078.29,25.28,-1.00,-1.0,2347
5896,2140896,16984,16,1072,17017.80,25.24,-1.00,-1.0,2437
5899,2140899,17008,-172,1144,17047.30,25.28,-1.00,-1.0,2366
5904,2140904,17000,-40,1104,17035.86,25.33,-1.00,-1.0,2443
5906,2140906,16992,36,1172,17032.41,25.14,-1.00,-1.0,2366
5909,2140909,17016,92,1184,17057.39,25.14,-1.00,-1.0,2437
5912,2140912,17032,-36,1076,17065.99,25.33,-1.00,-1.0,2365
5915,2140915,16864,-120,996,16893.81,25.24,-1.00,-1.0,2429
5917,2140917,16980,-88,1128,17017.65,25.28,-1.00,-1.0,2371
5920,2140920,16992,-48,1092,17027.12,25.24,-1.00,-1.0,2437
5923,2140923,17004,28,1068,17037.53,25.19,-1.00,-1.0,2365
5925,2140925,17036,12,1036,17067.48,25.24,-1.00,-1.0,2360
5930,2140930,16964,-120,1116,17001.09,25.28,-1.00,-1.0,2453
5933,2140933,16996,-96,980,17024.50,25.19,-1.00,-1.0,2380
5936,2140936,17028,8,1168,17068.01,25.24,-1.00,-1.0,2439
5939,2140939,17008,28,996,17037.16,25.28,-1.00,-1.0,2371
5941,2140941,16984,-164,1016,17015.15,25.14,-1.00,-1.0,2444
5944,2140944,17008,0,1020,17038.56,25.19,-1.00,-1.0,2372
5947,2140947,16944,-228,1048,16977.91,25.19,-1.00,-1.0,2424
5950,2140950,17112,-88,1048,17144.29,25.19,-1.00,-1.0,2364
5954,2140954,17100,32,1112,17136.15,25.24,-1.00,-1.0,2444
5957,2140957,17020,-20,1156,17059.22,25.24,-1.00,-1.0,2364
5960,2140960,16936,-8,992,16965.03,25.28,-1.00,-1.0,2436
5963,2140963,16968,-120,1000,16997.87,25.33,-1.00,-1.0,2367
5965,2140965,16976,-48,1052,17008.63,25.28,-1.00,-1.0,2363
5968,2140968,17024,-48,1000,17053.41,25.19,-1.00,-1.0,2436
5971,2140971,17000,-80,1096,17035.48,25.28,-1.00,-1.0,2372
5974,2140974,17032,-48,1036,17063.55,25.19,-1.00,-1.0,2437
5976,2140976,16964,-204,1116,17001.89,25.19,-1.00,-1.0,2364
5981,2140981,17044,-24,980,17072.17,25.24,-1.00,-1.0,2443
5984,2140984,16956,-56,1136,16994.10,25.24,-1.00,-1.0,2365
5987,2140987,17044,8,960,17071.02,25.24,-1.00,-1.0,2436
5989,2140989,17072,-104,1060,17105.19,25.14,-1.00,-1.0,2372
5992,2140992,16960,-88,1164,17000.12,25.24,-1.00,-1.0,2435
5995,2140995,16988,-136,1036,17020.10,25.28,-1.00,-1.0,2429
5998,2140998,17044,-128,1080,17078.66,25.33,-1.00,-1.0,2365
6000,2141000,17004,-76,1108,17040.23,25.24,-1.00,-1.0,2424
6003,2141003,17104,52,1036,17135.43,25.14,-1.00,-1.0,2381
6008,2141008,17028,-64,1112,17064.39,25.24,-1.00,-1.0,2455
6011,2141011,17056,-60,1120,17092.84,25.33,-1.00,-1.0,2373
6014,2141014,17016,-84,1048,17048.45,25.24,-1.00,-1.0,2447
6016,2141016,17044,20,1096,17079.21,25.33,-1.00,-1.0,2373
6019,2141019,16916,52,1248,16962.05,25.24,-1.00,-1.0,2445
6022,2141022,17008,0,1176,17048.61,25.14,-1.00,-1.0,2375
6025,2141025,17028,-84,1084,17062.68,25.24,-1.00,-1.0,2444
6027,2141027,17056,-64,1092,17091.04,25.24,-1.00,-1.0,2372
6032,2141032,17024,4,1088,17058.73,25.19,-1.00,-1.0,2441
6035,2141035,17084,-56,1172,17124.25,25.19,-1.00,-1.0,2367
6037,2141037,17036,-164,1304,17086.62,25.19,-1.00,-1.0,2360
6040,2141040,16996,8,1068,17029.53,25.24,-1.00,-1.0,2450
6043,2141043,16984,-56,1088,17018.90,25.19,-1.00,-1.0,2368
6046,2141046,17032,24,1124,17069.06,25.24,-1.00,-1.0,2437
6048,2141048,17072,-32,1044,17103.92,25.19,-1.00,-1.0,2366
6051,2141051,16988,-28,1136,17025.96,25.24,-1.00,-1.0,2437
6054,2141054,17120,-28,960,17146.92,25.28,-1.00,-1.0,2368
6059,2141059,16968,-40,1256,17014.47,25.19,-1.00,-1.0,2438
6062,2141062,16864,60,1120,16901.26,25.28,-1.00,-1.0,2368
6064,2141064,17072,-160,1008,17102.48,25.28,-1.00,-1.0,2435
6067,2141067,16996,-76,976,17024.17,25.28,-1.00,-1.0,2370
6070,2141070,17044,0,1072,17077.68,25.19,-1.00,-1.0,2360
6072,2141072,16896,44,1096,16931.57,25.24,-1.00,-1.0,2430
6075,2141075,17012,-48,1092,17047.08,25.19,-1.00,-1.0,2368
6078,2141078,17088,48,1088,17122.67,25.28,-1.00,-1.0,2434
6081,2141081,17028,-180,1232,17073.46,25.28,-1.00,-1.0,2367
6085,2141085,17020,-76,1068,17053.64,25.19,-1.00,-1.0,2441
6088,2141088,16940,-64,1100,16975.80,25.28,-1.00,-1.0,2367
6091,2141091,17020,-44,1140,17058.19,25.24,-1.00,-1.0,2433
6094,2141094,17016,-56,1216,17059.49,25.19,-1.00,-1.0,2367
6096,2141096,17064,-124,1000,17093.73,25.19,-1.00,-1.0,2433
6099,2141099,16992,48,976,17020.07,25.28,-1.00,-1.0,2368
6102,2141102,17032,-104,1068,17065.77,25.19,-1.00,-1.0,2433
6105,2141105,17052,52,1148,17090.68,25.19,-1.00,-1.0,2367
6107,2141107,16940,-20,1080,16974.40,25.19,-1.00,-1.0,2360
6112,2141112,16980,-180,1164,17020.80,25.24,-1.00,-1.0,2441
6115,2141115,17032,-48,1120,17068.85,25.28,-1.00,-1.0,2368
6117,2141117,17072,12,1188,17113.29,25.24,-1.00,-1.0,2433
6120,2141120,17036,-92,1096,17071.47,25.19,-1.00,-1.0,2367
6123,2141123,17052,-128,1072,17086.14,25.24,-1.00,-1.0,2431
6126,2141126,17072,-164,944,17098.87,25.28,-1.00,-1.0,2369
6128,2141128,16912,80,1240,16957.59,25.09,-1.00,-1.0,2433
6131,2141131,16892,52,1056,16925.05,25.28,-1.00,-1.0,2356
